condsFile,subStage,cue1,cue2,correct,responseKeys,responseNames,cue1Position,cue2Position,cue1Opacity,cue2Opacity,stageLoop0.thisRepN,stageLoop0.thisTrialN,stageLoop0.thisN,stageLoop0.thisIndex,blockLoop0.thisRepN,blockLoop0.thisTrialN,blockLoop0.thisN,blockLoop0.thisIndex,stage1Loop.thisRepN,stage1Loop.thisTrialN,stage1Loop.thisN,stage1Loop.thisIndex,blockLoop1.thisRepN,blockLoop1.thisTrialN,blockLoop1.thisN,blockLoop1.thisIndex,stage2Loop.thisRepN,stage2Loop.thisTrialN,stage2Loop.thisN,stage2Loop.thisIndex,blockLoop2.thisRepN,blockLoop2.thisTrialN,blockLoop2.thisN,blockLoop2.thisIndex,testLoop.thisRepN,testLoop.thisTrialN,testLoop.thisN,testLoop.thisIndex,blockLoopTest.thisRepN,blockLoopTest.thisTrialN,blockLoopTest.thisN,blockLoopTest.thisIndex,cuePics,id_instr_text.started,id_instr_text.stopped,space_to_continue_2.started,space_to_continue_2.stopped,end_instructions_resp_3.keys,end_instructions_resp_3.rt,end_instructions_resp_3.started,end_instructions_resp_3.stopped,id_input_instr.started,id_input_instr.stopped,id_input_rect.started,id_input_rect.stopped,id_input_resp.keys,id_input_resp.rt,id_input_resp.started,id_input_resp.stopped,sonaID,id_input_text.started,id_input_text.stopped,final_text.started,final_text.stopped,instructions.started,instructions.stopped,end_instructions_resp.keys,end_instructions_resp.rt,end_instructions_resp.started,end_instructions_resp.stopped,space_to_continue.started,space_to_continue.stopped,instructions_stage0.started,instructions_stage0.stopped,end_instructions_resp_stage0.keys,end_instructions_resp_stage0.rt,end_instructions_resp_stage0.started,end_instructions_resp_stage0.stopped,space_to_continue_stage0.started,space_to_continue_stage0.stopped,text.started,text.stopped,resp_text1.started,resp_text1.stopped,resp_text2.started,resp_text2.stopped,trial_resp.keys,trial_resp.corr,trial_resp.rt,trial_resp.started,trial_resp.stopped,cue1Image.started,cue1Image.stopped,cue2Image.started,cue2Image.stopped,cue1Image_fb.started,cue1Image_fb.stopped,cue2Image_fb.started,cue2Image_fb.stopped,fb_text_answer.started,fb_text_answer.stopped,feedback_image.started,feedback_image.stopped,instructions_stage1.started,instructions_stage1.stopped,end_instructions_resp_stage1.keys,end_instructions_resp_stage1.rt,end_instructions_resp_stage1.started,end_instructions_resp_stage1.stopped,space_to_continue_stage1.started,space_to_continue_stage1.stopped,instructions_2.started,instructions_2.stopped,end_instructions_resp_2.keys,end_instructions_resp_2.rt,end_instructions_resp_2.started,end_instructions_resp_2.stopped,press_space_to_continue_stage2.started,press_space_to_continue_stage2.stopped,instructions_testStage1.started,instructions_testStage1.stopped,end_instructions_resp_test1.keys,end_instructions_resp_test1.rt,end_instructions_resp_test1.started,end_instructions_resp_test1.stopped,press_space_to_continue_test1.started,press_space_to_continue_test1.stopped,cue1Image_testChoice.started,cue1Image_testChoice.stopped,cue2Image_testChoice.started,cue2Image_testChoice.stopped,test_resp.keys,test_resp.corr,test_resp.rt,test_resp.started,test_resp.stopped,cue1Image_testConf.started,cue1Image_testConf.stopped,cue2Image_testConf.started,cue2Image_testConf.stopped,conf_reminder.started,conf_reminder.stopped,conf_rating.response,conf_rating.rt,conf_rating.started,conf_rating.stopped,session,participant,date,expName,psychopyVersion,frameRate,
,,,,,,,,,,,,,,,,,,,,,,,,,,,,,,,,,,,,,,,,,,,"{'none': 'pictures/20M_AN_C.png', 'alpha': 'pictures/SHINEd_pear.png', 'beta': 'pictures/SHINEd_melon.png', 'theta': 'pictures/SHINEd_pepper.png', 'phi': 'pictures/SHINEd_apple.png', 'T1': 'pictures/20M_AN_C.png', 'T2': 'pictures/31M_AN_C.png', 'T3': 'pictures/34M_AN_C.png', 'T4': 'pictures/37M_AN_C.png', 'T5': 'pictures/33M_AN_C.png', 'T6': 'pictures/38M_AN_C.png', 'B1': 'pictures/23M_NE_C.png', 'B2': 'pictures/36M_NE_C.png', 'B3': 'pictures/26M_NE_C.png', 'B4': 'pictures/25M_NE_C.png', 'B5': 'pictures/22M_NE_C.png', 'B6': 'pictures/32M_NE_C.png'}",21.832549427999993,None,26.799087347999944,None,space,1.4420263780000369,26.799087347999944,None,,,,,,,,,,,,,,,,,,,,,,,,,,,,,,,,,,,,,,,,,,,,,,,,,,,,,,,,,,,,,,,,,,,,,,,,,,,,,,,,,,,,,,,,,,,,,,,,001,102,2020_Feb_11_0929,spring_faces,3.1.5,60.044086890441065,
,,,,,,,,,,,,,,,,,,,,,,,,,,,,,,,,,,,,,,,,,,,,,,,,,,,,28.799062154000012,None,28.799062154000012,None,"['1', '1', '1', '6', 'n', 'a', 'w', 'e', 's']","[14.705964730999995, 14.897952679000014, 19.36196539299999, 19.68195498800003, 22.72196937800004, 22.993968686000017, 26.62603703600007, 27.10596994800005, 28.033929538000052]",28.799062154000012,None,,,,,,,,,,,,,,,,,,,,,,,,,,,,,,,,,,,,,,,,,,,,,,,,,,,,,,,,,,,,,,,,,,,,,,,,,,,,,,,,,,,,,,,,001,102,2020_Feb_11_0929,spring_faces,3.1.5,60.044086890441065,
,,,,,,,,,,,,,,,,,,,,,,,,,,,,,,,,,,,,,,,,,,,,,,,,,,,,,,,,,,,,1116nawes,28.799062154000012,None,28.799062154000012,None,61.915373044000034,None,space,0.8453495440001007,66.91563804700002,None,,,,,,,,,,,,,,,,,,,,,,,,,,,,,,,,,,,,,,,,,,,,,,,,,,,,,,,,,,,,,,,,,,,,,,,,,,,,,001,102,2020_Feb_11_0929,spring_faces,3.1.5,60.044086890441065,
,,,,,,,,,,,,,,,,,,,,,,,,,,,,,,,,,,,,,,,,,,,,,,,,,,,,,,,,,,,,,,,,,,,,,,,66.91563804700002,None,67.79890037400003,None,space,2.8659717769999133,72.79903761599996,None,,,,,,,,,,,,,,,,,,,,,,,,,,,,,,,,,,,,,,,,,,,,,,,,,,,,,,,,,,,,,,,,,,,,,001,102,2020_Feb_11_0929,spring_faces,3.1.5,60.044086890441065,
condition files/Stage0a.xlsx,0a,alpha,none,h,"['h', 'g']","['Chess', 'Go']","[0, 0.5]","[0, 0]",1,0,0,0,0,0,0,0,0,0,,,,,,,,,,,,,,,,,,,,,,,,,,,,,,,,,,,,,,,,,,,,,,,,,,,,,,,,,,,,,72.79903761599996,None,75.84948786199993,None,75.84948786199993,None,75.84948786199993,None,g,0,3.2538867230000506,77.515158144,None,77.515158144,None,77.515158144,None,80.88256304699996,None,80.88256304699996,None,80.88256304699996,None,80.88256304699996,None,,,,,,,,,,,,,,,,,,,,,,,,,,,,,,,,,,,,,,,,,,,,001,102,2020_Feb_11_0929,spring_faces,3.1.5,60.044086890441065,
condition files/Stage0a.xlsx,0a,beta,none,g,"['h', 'g']","['Chess', 'Go']","[0, 0.5]","[0, 0]",1,0,0,0,0,0,0,1,1,1,,,,,,,,,,,,,,,,,,,,,,,,,,,,,,,,,,,,,,,,,,,,,,,,,,,,,,,,,,,,,,,82.79890792599997,None,82.79890792599997,None,82.79890792599997,None,h,0,1.8119955209999716,84.34900893399993,None,84.34900893399993,None,84.34900893399993,None,86.21678890800001,None,86.21678890800001,None,86.21678890800001,None,86.21678890800001,None,,,,,,,,,,,,,,,,,,,,,,,,,,,,,,,,,,,,,,,,,,,,001,102,2020_Feb_11_0929,spring_faces,3.1.5,60.044086890441065,
condition files/Stage0a.xlsx,0a,alpha,none,h,"['h', 'g']","['Chess', 'Go']","[0, 0.5]","[0, 0]",1,0,0,1,1,1,0,0,0,0,,,,,,,,,,,,,,,,,,,,,,,,,,,,,,,,,,,,,,,,,,,,,,,,,,,,,,,,,,,,,,,88.198679158,None,88.198679158,None,88.198679158,None,g,0,0.5085219469999629,89.73258067899997,None,89.73258067899997,None,89.73258067899997,None,90.29936335000002,None,90.29936335000002,None,90.29936335000002,None,90.29936335000002,None,,,,,,,,,,,,,,,,,,,,,,,,,,,,,,,,,,,,,,,,,,,,001,102,2020_Feb_11_0929,spring_faces,3.1.5,60.044086890441065,
condition files/Stage0a.xlsx,0a,beta,none,g,"['h', 'g']","['Chess', 'Go']","[0, 0.5]","[0, 0]",1,0,0,1,1,1,0,1,1,1,,,,,,,,,,,,,,,,,,,,,,,,,,,,,,,,,,,,,,,,,,,,,,,,,,,,,,,,,,,,,,,92.26548846599997,None,92.26548846599997,None,92.26548846599997,None,g,1,1.6579489090000834,93.79913525699999,None,93.79913525699999,None,93.79913525699999,None,95.56558354499998,None,95.56558354499998,None,95.56558354499998,None,95.56558354499998,None,,,,,,,,,,,,,,,,,,,,,,,,,,,,,,,,,,,,,,,,,,,,001,102,2020_Feb_11_0929,spring_faces,3.1.5,60.044086890441065,
condition files/Stage0a.xlsx,0a,beta,none,g,"['h', 'g']","['Chess', 'Go']","[0, 0.5]","[0, 0]",1,0,0,2,2,2,0,0,0,1,,,,,,,,,,,,,,,,,,,,,,,,,,,,,,,,,,,,,,,,,,,,,,,,,,,,,,,,,,,,,,,97.49905760000001,None,97.49905760000001,None,97.49905760000001,None,h,0,0.8728851930000019,99.03216932999999,None,99.03216932999999,None,99.03216932999999,None,99.96593581499997,None,99.96593581499997,None,99.96593581499997,None,99.96593581499997,None,,,,,,,,,,,,,,,,,,,,,,,,,,,,,,,,,,,,,,,,,,,,001,102,2020_Feb_11_0929,spring_faces,3.1.5,60.044086890441065,
condition files/Stage0a.xlsx,0a,alpha,none,h,"['h', 'g']","['Chess', 'Go']","[0, 0.5]","[0, 0]",1,0,0,2,2,2,0,1,1,0,,,,,,,,,,,,,,,,,,,,,,,,,,,,,,,,,,,,,,,,,,,,,,,,,,,,,,,,,,,,,,,101.93202535800003,None,101.93202535800003,None,101.93202535800003,None,h,1,1.287099628999954,103.46592444099997,None,103.46592444099997,None,103.46592444099997,None,104.81613589300002,None,104.81613589300002,None,104.81613589300002,None,104.81613589300002,None,,,,,,,,,,,,,,,,,,,,,,,,,,,,,,,,,,,,,,,,,,,,001,102,2020_Feb_11_0929,spring_faces,3.1.5,60.044086890441065,
condition files/Stage0a.xlsx,0a,beta,none,g,"['h', 'g']","['Chess', 'Go']","[0, 0.5]","[0, 0]",1,0,0,3,3,3,0,0,0,1,,,,,,,,,,,,,,,,,,,,,,,,,,,,,,,,,,,,,,,,,,,,,,,,,,,,,,,,,,,,,,,106.79921070099999,None,106.79921070099999,None,106.79921070099999,None,g,1,2.181306715000005,108.33173775,None,108.33173775,None,108.33173775,None,110.565578136,None,110.565578136,None,110.565578136,None,110.565578136,None,,,,,,,,,,,,,,,,,,,,,,,,,,,,,,,,,,,,,,,,,,,,001,102,2020_Feb_11_0929,spring_faces,3.1.5,60.044086890441065,
condition files/Stage0a.xlsx,0a,alpha,none,h,"['h', 'g']","['Chess', 'Go']","[0, 0.5]","[0, 0]",1,0,0,3,3,3,0,1,1,0,,,,,,,,,,,,,,,,,,,,,,,,,,,,,,,,,,,,,,,,,,,,,,,,,,,,,,,,,,,,,,,112.53227960699996,None,112.53227960699996,None,112.53227960699996,None,h,1,0.6873279550000007,114.06569546499998,None,114.06569546499998,None,114.06569546499998,None,114.81596705499999,None,114.81596705499999,None,114.81596705499999,None,114.81596705499999,None,,,,,,,,,,,,,,,,,,,,,,,,,,,,,,,,,,,,,,,,,,,,001,102,2020_Feb_11_0929,spring_faces,3.1.5,60.044086890441065,
condition files/Stage0a.xlsx,0a,beta,none,g,"['h', 'g']","['Chess', 'Go']","[0, 0.5]","[0, 0]",1,0,0,4,4,4,0,0,0,1,,,,,,,,,,,,,,,,,,,,,,,,,,,,,,,,,,,,,,,,,,,,,,,,,,,,,,,,,,,,,,,116.79871098599995,None,116.79871098599995,None,116.79871098599995,None,g,1,0.7249437579999949,118.33217299800003,None,118.33217299800003,None,118.33217299800003,None,119.1158408,None,119.1158408,None,119.1158408,None,119.1158408,None,,,,,,,,,,,,,,,,,,,,,,,,,,,,,,,,,,,,,,,,,,,,001,102,2020_Feb_11_0929,spring_faces,3.1.5,60.044086890441065,
condition files/Stage0a.xlsx,0a,alpha,none,h,"['h', 'g']","['Chess', 'Go']","[0, 0.5]","[0, 0]",1,0,0,4,4,4,0,1,1,0,,,,,,,,,,,,,,,,,,,,,,,,,,,,,,,,,,,,,,,,,,,,,,,,,,,,,,,,,,,,,,,121.082217743,None,121.082217743,None,121.082217743,None,h,1,0.9851436520000334,122.61587448699993,None,122.61587448699993,None,122.61587448699993,None,123.66568181000002,None,123.66568181000002,None,123.66568181000002,None,123.66568181000002,None,,,,,,,,,,,,,,,,,,,,,,,,,,,,,,,,,,,,,,,,,,,,001,102,2020_Feb_11_0929,spring_faces,3.1.5,60.044086890441065,
condition files/Stage0a.xlsx,0a,beta,none,g,"['h', 'g']","['Chess', 'Go']","[0, 0.5]","[0, 0]",1,0,0,5,5,5,0,0,0,1,,,,,,,,,,,,,,,,,,,,,,,,,,,,,,,,,,,,,,,,,,,,,,,,,,,,,,,,,,,,,,,125.64913641099997,None,125.64913641099997,None,125.64913641099997,None,g,1,0.6906291479999709,127.18246963900003,None,127.18246963900003,None,127.18246963900003,None,127.932032434,None,127.932032434,None,127.932032434,None,127.932032434,None,,,,,,,,,,,,,,,,,,,,,,,,,,,,,,,,,,,,,,,,,,,,001,102,2020_Feb_11_0929,spring_faces,3.1.5,60.044086890441065,
condition files/Stage0a.xlsx,0a,alpha,none,h,"['h', 'g']","['Chess', 'Go']","[0, 0.5]","[0, 0]",1,0,0,5,5,5,0,1,1,0,,,,,,,,,,,,,,,,,,,,,,,,,,,,,,,,,,,,,,,,,,,,,,,,,,,,,,,,,,,,,,,129.89888619399994,None,129.89888619399994,None,129.89888619399994,None,h,1,1.0648756790000107,131.432139494,None,131.432139494,None,131.432139494,None,132.54913676799993,None,132.54913676799993,None,132.54913676799993,None,132.54913676799993,None,,,,,,,,,,,,,,,,,,,,,,,,,,,,,,,,,,,,,,,,,,,,001,102,2020_Feb_11_0929,spring_faces,3.1.5,60.044086890441065,
condition files/Stage0b_1.xlsx,0b,alpha,none,h,"['h', 'g']","['Chess', 'Go']","[-0.15, 0.5]","[0.15, 0.5]",1,0,0,6,6,6,0,0,0,0,,,,,,,,,,,,,,,,,,,,,,,,,,,,,,,,,,,,,,,,,,,,,,,,,,,,,,,,,,,,,,,134.58259641899997,None,134.58259641899997,None,134.58259641899997,None,g,0,1.1837196860000176,136.06531172300004,None,136.06531172300004,None,136.06531172300004,None,137.29924446199993,None,137.29924446199993,None,137.29924446199993,None,137.29924446199993,None,,,,,,,,,,,,,,,,,,,,,,,,,,,,,,,,,,,,,,,,,,,,001,102,2020_Feb_11_0929,spring_faces,3.1.5,60.044086890441065,
condition files/Stage0b_1.xlsx,0b,none,beta,g,"['h', 'g']","['Chess', 'Go']","[-0.15, 0.5]","[0.15, 0.5]",0,1,0,6,6,6,0,1,1,1,,,,,,,,,,,,,,,,,,,,,,,,,,,,,,,,,,,,,,,,,,,,,,,,,,,,,,,,,,,,,,,139.26551865599993,None,139.26551865599993,None,139.26551865599993,None,g,1,0.8491061220000802,140.81589585999996,None,140.81589585999996,None,140.81589585999996,None,141.72096258099998,None,141.72096258099998,None,141.72096258099998,None,141.72096258099998,None,,,,,,,,,,,,,,,,,,,,,,,,,,,,,,,,,,,,,,,,,,,,001,102,2020_Feb_11_0929,spring_faces,3.1.5,60.044086890441065,
condition files/Stage0b_2.xlsx,0b,beta,none,g,"['h', 'g']","['Chess', 'Go']","[-0.15, 0.5]","[0.15, 0.5]",1,0,0,7,7,7,0,0,0,1,,,,,,,,,,,,,,,,,,,,,,,,,,,,,,,,,,,,,,,,,,,,,,,,,,,,,,,,,,,,,,,143.71586622099994,None,143.71586622099994,None,143.71586622099994,None,h,0,0.8115154749999647,145.23750180699994,None,145.23750180699994,None,145.23750180699994,None,146.09947049899995,None,146.09947049899995,None,146.09947049899995,None,146.09947049899995,None,,,,,,,,,,,,,,,,,,,,,,,,,,,,,,,,,,,,,,,,,,,,001,102,2020_Feb_11_0929,spring_faces,3.1.5,60.044086890441065,
condition files/Stage0b_2.xlsx,0b,none,alpha,h,"['h', 'g']","['Chess', 'Go']","[-0.15, 0.5]","[0.15, 0.5]",0,1,0,7,7,7,0,1,1,0,,,,,,,,,,,,,,,,,,,,,,,,,,,,,,,,,,,,,,,,,,,,,,,,,,,,,,,,,,,,,,,148.064839366,None,148.064839366,None,148.064839366,None,g,0,0.558900795999989,149.60211705300003,None,149.60211705300003,None,149.60211705300003,None,150.21647736900002,None,150.21647736900002,None,150.21647736900002,None,150.21647736900002,None,,,,,,,,,,,,,,,,,,,,,,,,,,,,,,,,,,,,,,,,,,,,001,102,2020_Feb_11_0929,spring_faces,3.1.5,60.044086890441065,
condition files/Stage0b_1.xlsx,0b,none,beta,g,"['h', 'g']","['Chess', 'Go']","[-0.15, 0.5]","[0.15, 0.5]",0,1,0,8,8,8,0,0,0,1,,,,,,,,,,,,,,,,,,,,,,,,,,,,,,,,,,,,,,,,,,,,,,,,,,,,,,,,,,,,,,,152.19926186499993,None,152.19926186499993,None,152.19926186499993,None,g,1,0.7640011240000604,153.73302730699993,None,153.73302730699993,None,153.73302730699993,None,154.55017952899993,None,154.55017952899993,None,154.55017952899993,None,154.55017952899993,None,,,,,,,,,,,,,,,,,,,,,,,,,,,,,,,,,,,,,,,,,,,,001,102,2020_Feb_11_0929,spring_faces,3.1.5,60.044086890441065,
condition files/Stage0b_1.xlsx,0b,alpha,none,h,"['h', 'g']","['Chess', 'Go']","[-0.15, 0.5]","[0.15, 0.5]",1,0,0,8,8,8,0,1,1,0,,,,,,,,,,,,,,,,,,,,,,,,,,,,,,,,,,,,,,,,,,,,,,,,,,,,,,,,,,,,,,,156.51553923200004,None,156.51553923200004,None,156.51553923200004,None,h,1,0.7189522149999448,158.06606747,None,158.06606747,None,158.06606747,None,158.86597122599994,None,158.86597122599994,None,158.86597122599994,None,158.86597122599994,None,,,,,,,,,,,,,,,,,,,,,,,,,,,,,,,,,,,,,,,,,,,,001,102,2020_Feb_11_0929,spring_faces,3.1.5,60.044086890441065,
condition files/Stage0b_2.xlsx,0b,none,alpha,h,"['h', 'g']","['Chess', 'Go']","[-0.15, 0.5]","[0.15, 0.5]",0,1,0,9,9,9,0,0,0,0,,,,,,,,,,,,,,,,,,,,,,,,,,,,,,,,,,,,,,,,,,,,,,,,,,,,,,,,,,,,,,,160.832115401,None,160.832115401,None,160.832115401,None,g,0,0.6568654650000099,162.36826637599995,None,162.36826637599995,None,162.36826637599995,None,163.082154426,None,163.082154426,None,163.082154426,None,163.082154426,None,,,,,,,,,,,,,,,,,,,,,,,,,,,,,,,,,,,,,,,,,,,,001,102,2020_Feb_11_0929,spring_faces,3.1.5,60.044086890441065,
condition files/Stage0b_2.xlsx,0b,beta,none,g,"['h', 'g']","['Chess', 'Go']","[-0.15, 0.5]","[0.15, 0.5]",1,0,0,9,9,9,0,1,1,1,,,,,,,,,,,,,,,,,,,,,,,,,,,,,,,,,,,,,,,,,,,,,,,,,,,,,,,,,,,,,,,165.04885055599993,None,165.04885055599993,None,165.04885055599993,None,g,1,1.0658626469999035,166.599153946,None,166.599153946,None,166.599153946,None,167.71636905100002,None,167.71636905100002,None,167.71636905100002,None,167.71636905100002,None,,,,,,,,,,,,,,,,,,,,,,,,,,,,,,,,,,,,,,,,,,,,001,102,2020_Feb_11_0929,spring_faces,3.1.5,60.044086890441065,
condition files/Stage0b_1.xlsx,0b,alpha,none,h,"['h', 'g']","['Chess', 'Go']","[-0.15, 0.5]","[0.15, 0.5]",1,0,0,10,10,10,0,0,0,0,,,,,,,,,,,,,,,,,,,,,,,,,,,,,,,,,,,,,,,,,,,,,,,,,,,,,,,,,,,,,,,169.69913948800001,None,169.69913948800001,None,169.69913948800001,None,h,1,0.7213301740000588,171.23172035599998,None,171.23172035599998,None,171.23172035599998,None,172.01623989999996,None,172.01623989999996,None,172.01623989999996,None,172.01623989999996,None,,,,,,,,,,,,,,,,,,,,,,,,,,,,,,,,,,,,,,,,,,,,001,102,2020_Feb_11_0929,spring_faces,3.1.5,60.044086890441065,
condition files/Stage0b_1.xlsx,0b,none,beta,g,"['h', 'g']","['Chess', 'Go']","[-0.15, 0.5]","[0.15, 0.5]",0,1,0,10,10,10,0,1,1,1,,,,,,,,,,,,,,,,,,,,,,,,,,,,,,,,,,,,,,,,,,,,,,,,,,,,,,,,,,,,,,,173.98194981199993,None,173.98194981199993,None,173.98194981199993,None,g,1,0.5443896930000847,175.52061644899993,None,175.52061644899993,None,175.52061644899993,None,176.120111458,None,176.120111458,None,176.120111458,None,176.120111458,None,,,,,,,,,,,,,,,,,,,,,,,,,,,,,,,,,,,,,,,,,,,,001,102,2020_Feb_11_0929,spring_faces,3.1.5,60.044086890441065,
condition files/Stage0b_2.xlsx,0b,none,alpha,h,"['h', 'g']","['Chess', 'Go']","[-0.15, 0.5]","[0.15, 0.5]",0,1,0,11,11,11,0,0,0,0,,,,,,,,,,,,,,,,,,,,,,,,,,,,,,,,,,,,,,,,,,,,,,,,,,,,,,,,,,,,,,,178.09917053799995,None,178.09917053799995,None,178.09917053799995,None,h,1,0.800642962999973,179.63236209699994,None,179.63236209699994,None,179.63236209699994,None,180.49869855399993,None,180.49869855399993,None,180.49869855399993,None,180.49869855399993,None,,,,,,,,,,,,,,,,,,,,,,,,,,,,,,,,,,,,,,,,,,,,001,102,2020_Feb_11_0929,spring_faces,3.1.5,60.044086890441065,
condition files/Stage0b_2.xlsx,0b,beta,none,g,"['h', 'g']","['Chess', 'Go']","[-0.15, 0.5]","[0.15, 0.5]",1,0,0,11,11,11,0,1,1,1,,,,,,,,,,,,,,,,,,,,,,,,,,,,,,,,,,,,,,,,,,,,,,,,,,,,,,,,,,,,,,,182.465562202,None,182.465562202,None,182.465562202,None,g,1,0.6228970569999319,184.002107626,None,184.002107626,None,184.002107626,None,184.68607819099998,None,184.68607819099998,None,184.68607819099998,None,184.68607819099998,None,,,,,,,,,,,,,,,,,,,,,,,,,,,,,,,,,,,,,,,,,,,,001,102,2020_Feb_11_0929,spring_faces,3.1.5,60.044086890441065,
condition files/Stage0c_1.xlsx,0c,theta,alpha,h,"['h', 'g']","['Chess', 'Go']","[-0.15, 0.5]","[0.15, 0.5]",1,1,0,12,12,12,0,0,0,0,,,,,,,,,,,,,,,,,,,,,,,,,,,,,,,,,,,,,,,,,,,,,,,,,,,,,,,,,,,,,,,186.66509430600001,None,186.66509430600001,None,186.66509430600001,None,g,0,2.9692107360000364,188.21583360099999,None,188.21583360099999,None,188.21583360099999,None,191.24859183399997,None,191.24859183399997,None,191.24859183399997,None,191.24859183399997,None,,,,,,,,,,,,,,,,,,,,,,,,,,,,,,,,,,,,,,,,,,,,001,102,2020_Feb_11_0929,spring_faces,3.1.5,60.044086890441065,
condition files/Stage0c_1.xlsx,0c,alpha,phi,h,"['h', 'g']","['Chess', 'Go']","[-0.15, 0.5]","[0.15, 0.5]",1,1,0,12,12,12,0,1,1,1,,,,,,,,,,,,,,,,,,,,,,,,,,,,,,,,,,,,,,,,,,,,,,,,,,,,,,,,,,,,,,,193.21555609999996,None,193.21555609999996,None,193.21555609999996,None,h,1,1.7617344789999834,194.799269697,None,194.799269697,None,194.799269697,None,196.615947507,None,196.615947507,None,196.615947507,None,196.615947507,None,,,,,,,,,,,,,,,,,,,,,,,,,,,,,,,,,,,,,,,,,,,,001,102,2020_Feb_11_0929,spring_faces,3.1.5,60.044086890441065,
condition files/Stage0c_1.xlsx,0c,beta,theta,g,"['h', 'g']","['Chess', 'Go']","[-0.15, 0.5]","[0.15, 0.5]",1,1,0,12,12,12,0,2,2,2,,,,,,,,,,,,,,,,,,,,,,,,,,,,,,,,,,,,,,,,,,,,,,,,,,,,,,,,,,,,,,,198.582222506,None,198.582222506,None,198.582222506,None,g,1,1.1171384330000365,200.11586265300002,None,200.11586265300002,None,200.11586265300002,None,201.29927844500003,None,201.29927844500003,None,201.29927844500003,None,201.29927844500003,None,,,,,,,,,,,,,,,,,,,,,,,,,,,,,,,,,,,,,,,,,,,,001,102,2020_Feb_11_0929,spring_faces,3.1.5,60.044086890441065,
condition files/Stage0c_1.xlsx,0c,phi,beta,g,"['h', 'g']","['Chess', 'Go']","[-0.15, 0.5]","[0.15, 0.5]",1,1,0,12,12,12,0,3,3,3,,,,,,,,,,,,,,,,,,,,,,,,,,,,,,,,,,,,,,,,,,,,,,,,,,,,,,,,,,,,,,,203.26570919799997,None,203.26570919799997,None,203.26570919799997,None,g,1,2.4658696390000614,204.79914470799997,None,204.79914470799997,None,204.79914470799997,None,207.30015964199993,None,207.30015964199993,None,207.30015964199993,None,207.30015964199993,None,,,,,,,,,,,,,,,,,,,,,,,,,,,,,,,,,,,,,,,,,,,,001,102,2020_Feb_11_0929,spring_faces,3.1.5,60.044086890441065,
condition files/Stage0c_2.xlsx,0c,phi,alpha,h,"['h', 'g']","['Chess', 'Go']","[-0.15, 0.5]","[0.15, 0.5]",1,1,0,13,13,13,0,0,0,1,,,,,,,,,,,,,,,,,,,,,,,,,,,,,,,,,,,,,,,,,,,,,,,,,,,,,,,,,,,,,,,209.349218521,None,209.349218521,None,209.349218521,None,h,1,2.2728892819999373,210.83214855300002,None,210.83214855300002,None,210.83214855300002,None,213.16603500600002,None,213.16603500600002,None,213.16603500600002,None,213.16603500600002,None,,,,,,,,,,,,,,,,,,,,,,,,,,,,,,,,,,,,,,,,,,,,001,102,2020_Feb_11_0929,spring_faces,3.1.5,60.044086890441065,
condition files/Stage0c_2.xlsx,0c,beta,phi,g,"['h', 'g']","['Chess', 'Go']","[-0.15, 0.5]","[0.15, 0.5]",1,1,0,13,13,13,0,1,1,3,,,,,,,,,,,,,,,,,,,,,,,,,,,,,,,,,,,,,,,,,,,,,,,,,,,,,,,,,,,,,,,215.13227975999996,None,215.13227975999996,None,215.13227975999996,None,g,1,0.9834198519999973,216.665586006,None,216.665586006,None,216.665586006,None,217.698879144,None,217.698879144,None,217.698879144,None,217.698879144,None,,,,,,,,,,,,,,,,,,,,,,,,,,,,,,,,,,,,,,,,,,,,001,102,2020_Feb_11_0929,spring_faces,3.1.5,60.044086890441065,
condition files/Stage0c_2.xlsx,0c,theta,beta,g,"['h', 'g']","['Chess', 'Go']","[-0.15, 0.5]","[0.15, 0.5]",1,1,0,13,13,13,0,2,2,2,,,,,,,,,,,,,,,,,,,,,,,,,,,,,,,,,,,,,,,,,,,,,,,,,,,,,,,,,,,,,,,219.66561755399994,None,219.66561755399994,None,219.66561755399994,None,g,1,1.4588121799999954,221.19827977699993,None,221.19827977699993,None,221.19827977699993,None,222.70066561099998,None,222.70066561099998,None,222.70066561099998,None,222.70066561099998,None,,,,,,,,,,,,,,,,,,,,,,,,,,,,,,,,,,,,,,,,,,,,001,102,2020_Feb_11_0929,spring_faces,3.1.5,60.044086890441065,
condition files/Stage0c_2.xlsx,0c,alpha,theta,h,"['h', 'g']","['Chess', 'Go']","[-0.15, 0.5]","[0.15, 0.5]",1,1,0,13,13,13,0,3,3,0,,,,,,,,,,,,,,,,,,,,,,,,,,,,,,,,,,,,,,,,,,,,,,,,,,,,,,,,,,,,,,,224.68168744699994,None,224.68168744699994,None,224.68168744699994,None,h,1,1.0175241590000041,226.21546571,None,226.21546571,None,226.21546571,None,227.29928215300004,None,227.29928215300004,None,227.29928215300004,None,227.29928215300004,None,,,,,,,,,,,,,,,,,,,,,,,,,,,,,,,,,,,,,,,,,,,,001,102,2020_Feb_11_0929,spring_faces,3.1.5,60.044086890441065,
condition files/Stage0c_1.xlsx,0c,theta,alpha,h,"['h', 'g']","['Chess', 'Go']","[-0.15, 0.5]","[0.15, 0.5]",1,1,0,14,14,14,0,0,0,0,,,,,,,,,,,,,,,,,,,,,,,,,,,,,,,,,,,,,,,,,,,,,,,,,,,,,,,,,,,,,,,229.28247141399993,None,229.28247141399993,None,229.28247141399993,None,h,1,1.2810777130000588,230.81595382499995,None,230.81595382499995,None,230.81595382499995,None,232.13452717300004,None,232.13452717300004,None,232.13452717300004,None,232.13452717300004,None,,,,,,,,,,,,,,,,,,,,,,,,,,,,,,,,,,,,,,,,,,,,001,102,2020_Feb_11_0929,spring_faces,3.1.5,60.044086890441065,
condition files/Stage0c_1.xlsx,0c,alpha,phi,h,"['h', 'g']","['Chess', 'Go']","[-0.15, 0.5]","[0.15, 0.5]",1,1,0,14,14,14,0,1,1,1,,,,,,,,,,,,,,,,,,,,,,,,,,,,,,,,,,,,,,,,,,,,,,,,,,,,,,,,,,,,,,,234.115411129,None,234.115411129,None,234.115411129,None,g,0,0.7678327710000303,235.64914361799993,None,235.64914361799993,None,235.64914361799993,None,236.46764705600003,None,236.46764705600003,None,236.46764705600003,None,236.46764705600003,None,,,,,,,,,,,,,,,,,,,,,,,,,,,,,,,,,,,,,,,,,,,,001,102,2020_Feb_11_0929,spring_faces,3.1.5,60.044086890441065,
condition files/Stage0c_1.xlsx,0c,phi,beta,g,"['h', 'g']","['Chess', 'Go']","[-0.15, 0.5]","[0.15, 0.5]",1,1,0,14,14,14,0,2,2,3,,,,,,,,,,,,,,,,,,,,,,,,,,,,,,,,,,,,,,,,,,,,,,,,,,,,,,,,,,,,,,,238.44844787599993,None,238.44844787599993,None,238.44844787599993,None,g,1,0.8826069849999385,239.98240971799999,None,239.98240971799999,None,239.98240971799999,None,240.91623372200002,None,240.91623372200002,None,240.91623372200002,None,240.91623372200002,None,,,,,,,,,,,,,,,,,,,,,,,,,,,,,,,,,,,,,,,,,,,,001,102,2020_Feb_11_0929,spring_faces,3.1.5,60.044086890441065,
condition files/Stage0c_1.xlsx,0c,beta,theta,g,"['h', 'g']","['Chess', 'Go']","[-0.15, 0.5]","[0.15, 0.5]",1,1,0,14,14,14,0,3,3,2,,,,,,,,,,,,,,,,,,,,,,,,,,,,,,,,,,,,,,,,,,,,,,,,,,,,,,,,,,,,,,,242.882298666,None,242.882298666,None,242.882298666,None,g,1,0.9454610290000574,244.41549115399994,None,244.41549115399994,None,244.41549115399994,None,245.41544936599996,None,245.41544936599996,None,245.41544936599996,None,245.41544936599996,None,,,,,,,,,,,,,,,,,,,,,,,,,,,,,,,,,,,,,,,,,,,,001,102,2020_Feb_11_0929,spring_faces,3.1.5,60.044086890441065,
condition files/Stage0c_2.xlsx,0c,theta,beta,g,"['h', 'g']","['Chess', 'Go']","[-0.15, 0.5]","[0.15, 0.5]",1,1,0,15,15,15,0,0,0,2,,,,,,,,,,,,,,,,,,,,,,,,,,,,,,,,,,,,,,,,,,,,,,,,,,,,,,,,,,,,,,,247.39926970700003,None,247.39926970700003,None,247.39926970700003,None,g,1,0.9085250849999511,248.93257205700002,None,248.93257205700002,None,248.93257205700002,None,249.88403075600002,None,249.88403075600002,None,249.88403075600002,None,249.88403075600002,None,,,,,,,,,,,,,,,,,,,,,,,,,,,,,,,,,,,,,,,,,,,,001,102,2020_Feb_11_0929,spring_faces,3.1.5,60.044086890441065,
condition files/Stage0c_2.xlsx,0c,beta,phi,g,"['h', 'g']","['Chess', 'Go']","[-0.15, 0.5]","[0.15, 0.5]",1,1,0,15,15,15,0,1,1,3,,,,,,,,,,,,,,,,,,,,,,,,,,,,,,,,,,,,,,,,,,,,,,,,,,,,,,,,,,,,,,,251.86542518499994,None,251.86542518499994,None,251.86542518499994,None,g,1,0.617707184999972,253.39927353299993,None,253.39927353299993,None,253.39927353299993,None,254.06721817100004,None,254.06721817100004,None,254.06721817100004,None,254.06721817100004,None,,,,,,,,,,,,,,,,,,,,,,,,,,,,,,,,,,,,,,,,,,,,001,102,2020_Feb_11_0929,spring_faces,3.1.5,60.044086890441065,
condition files/Stage0c_2.xlsx,0c,phi,alpha,h,"['h', 'g']","['Chess', 'Go']","[-0.15, 0.5]","[0.15, 0.5]",1,1,0,15,15,15,0,2,2,1,,,,,,,,,,,,,,,,,,,,,,,,,,,,,,,,,,,,,,,,,,,,,,,,,,,,,,,,,,,,,,,256.04910288299993,None,256.04910288299993,None,256.04910288299993,None,h,1,1.0586482630000091,257.582441538,None,257.582441538,None,257.582441538,None,258.699135016,None,258.699135016,None,258.699135016,None,258.699135016,None,,,,,,,,,,,,,,,,,,,,,,,,,,,,,,,,,,,,,,,,,,,,001,102,2020_Feb_11_0929,spring_faces,3.1.5,60.044086890441065,
condition files/Stage0c_2.xlsx,0c,alpha,theta,h,"['h', 'g']","['Chess', 'Go']","[-0.15, 0.5]","[0.15, 0.5]",1,1,0,15,15,15,0,3,3,0,,,,,,,,,,,,,,,,,,,,,,,,,,,,,,,,,,,,,,,,,,,,,,,,,,,,,,,,,,,,,,,260.66572117199996,None,260.66572117199996,None,260.66572117199996,None,h,1,1.0497494999999617,262.19926893499996,None,262.19926893499996,None,262.19926893499996,None,263.28338617199995,None,263.28338617199995,None,263.28338617199995,None,263.28338617199995,None,,,,,,,,,,,,,,,,,,,,,,,,,,,,,,,,,,,,,,,,,,,,001,102,2020_Feb_11_0929,spring_faces,3.1.5,60.044086890441065,
condition files/Stage0c_1.xlsx,0c,alpha,phi,h,"['h', 'g']","['Chess', 'Go']","[-0.15, 0.5]","[0.15, 0.5]",1,1,0,16,16,16,0,0,0,1,,,,,,,,,,,,,,,,,,,,,,,,,,,,,,,,,,,,,,,,,,,,,,,,,,,,,,,,,,,,,,,265.281856692,None,265.281856692,None,265.281856692,None,h,1,0.8173517359999778,266.81565342499994,None,266.81565342499994,None,266.81565342499994,None,267.68267050299994,None,267.68267050299994,None,267.68267050299994,None,267.68267050299994,None,,,,,,,,,,,,,,,,,,,,,,,,,,,,,,,,,,,,,,,,,,,,001,102,2020_Feb_11_0929,spring_faces,3.1.5,60.044086890441065,
condition files/Stage0c_1.xlsx,0c,beta,theta,g,"['h', 'g']","['Chess', 'Go']","[-0.15, 0.5]","[0.15, 0.5]",1,1,0,16,16,16,0,1,1,2,,,,,,,,,,,,,,,,,,,,,,,,,,,,,,,,,,,,,,,,,,,,,,,,,,,,,,,,,,,,,,,269.66544775,None,269.66544775,None,269.66544775,None,g,1,0.6578239949999443,271.19926480899994,None,271.19926480899994,None,271.19926480899994,None,271.915621043,None,271.915621043,None,271.915621043,None,271.915621043,None,,,,,,,,,,,,,,,,,,,,,,,,,,,,,,,,,,,,,,,,,,,,001,102,2020_Feb_11_0929,spring_faces,3.1.5,60.044086890441065,
condition files/Stage0c_1.xlsx,0c,phi,beta,g,"['h', 'g']","['Chess', 'Go']","[-0.15, 0.5]","[0.15, 0.5]",1,1,0,16,16,16,0,2,2,3,,,,,,,,,,,,,,,,,,,,,,,,,,,,,,,,,,,,,,,,,,,,,,,,,,,,,,,,,,,,,,,273.882271799,None,273.882271799,None,273.882271799,None,g,1,1.0175576709999632,275.415438292,None,275.415438292,None,275.415438292,None,276.482543844,None,276.482543844,None,276.482543844,None,276.482543844,None,,,,,,,,,,,,,,,,,,,,,,,,,,,,,,,,,,,,,,,,,,,,001,102,2020_Feb_11_0929,spring_faces,3.1.5,60.044086890441065,
condition files/Stage0c_1.xlsx,0c,theta,alpha,h,"['h', 'g']","['Chess', 'Go']","[-0.15, 0.5]","[0.15, 0.5]",1,1,0,16,16,16,0,3,3,0,,,,,,,,,,,,,,,,,,,,,,,,,,,,,,,,,,,,,,,,,,,,,,,,,,,,,,,,,,,,,,,278.46609131499997,None,278.46609131499997,None,278.46609131499997,None,h,1,1.2176154499999257,279.99936639500004,None,279.99936639500004,None,279.99936639500004,None,281.282448811,None,281.282448811,None,281.282448811,None,281.282448811,None,,,,,,,,,,,,,,,,,,,,,,,,,,,,,,,,,,,,,,,,,,,,001,102,2020_Feb_11_0929,spring_faces,3.1.5,60.044086890441065,
condition files/Stage0c_2.xlsx,0c,alpha,theta,h,"['h', 'g']","['Chess', 'Go']","[-0.15, 0.5]","[0.15, 0.5]",1,1,0,17,17,17,0,0,0,0,,,,,,,,,,,,,,,,,,,,,,,,,,,,,,,,,,,,,,,,,,,,,,,,,,,,,,,,,,,,,,,283.265992764,None,283.265992764,None,283.265992764,None,h,1,0.9303459459999885,284.798929561,None,284.798929561,None,284.798929561,None,285.768015773,None,285.768015773,None,285.768015773,None,285.768015773,None,,,,,,,,,,,,,,,,,,,,,,,,,,,,,,,,,,,,,,,,,,,,001,102,2020_Feb_11_0929,spring_faces,3.1.5,60.044086890441065,
condition files/Stage0c_2.xlsx,0c,beta,phi,g,"['h', 'g']","['Chess', 'Go']","[-0.15, 0.5]","[0.15, 0.5]",1,1,0,17,17,17,0,1,1,3,,,,,,,,,,,,,,,,,,,,,,,,,,,,,,,,,,,,,,,,,,,,,,,,,,,,,,,,,,,,,,,287.748144723,None,287.748144723,None,287.748144723,None,g,1,0.8465960199999927,289.282586338,None,289.282586338,None,289.282586338,None,290.182440606,None,290.182440606,None,290.182440606,None,290.182440606,None,,,,,,,,,,,,,,,,,,,,,,,,,,,,,,,,,,,,,,,,,,,,001,102,2020_Feb_11_0929,spring_faces,3.1.5,60.044086890441065,
condition files/Stage0c_2.xlsx,0c,phi,alpha,h,"['h', 'g']","['Chess', 'Go']","[-0.15, 0.5]","[0.15, 0.5]",1,1,0,17,17,17,0,2,2,1,,,,,,,,,,,,,,,,,,,,,,,,,,,,,,,,,,,,,,,,,,,,,,,,,,,,,,,,,,,,,,,292.14909949899993,None,292.14909949899993,None,292.14909949899993,None,h,1,2.0306695940000736,293.68234830200004,None,293.68234830200004,None,293.68234830200004,None,295.76572648599995,None,295.76572648599995,None,295.76572648599995,None,295.76572648599995,None,,,,,,,,,,,,,,,,,,,,,,,,,,,,,,,,,,,,,,,,,,,,001,102,2020_Feb_11_0929,spring_faces,3.1.5,60.044086890441065,
condition files/Stage0c_2.xlsx,0c,theta,beta,g,"['h', 'g']","['Chess', 'Go']","[-0.15, 0.5]","[0.15, 0.5]",1,1,0,17,17,17,0,3,3,2,,,,,,,,,,,,,,,,,,,,,,,,,,,,,,,,,,,,,,,,,,,,,,,,,,,,,,,,,,,,,,,297.731707542,None,297.731707542,None,297.731707542,None,g,1,1.5198037260000774,299.265224334,None,299.265224334,None,299.265224334,None,300.84949445199993,None,300.84949445199993,None,300.84949445199993,None,300.84949445199993,None,,,,,,,,,,,,,,,,,,,,,,,,,,,,,,,,,,,,,,,,,,,,001,102,2020_Feb_11_0929,spring_faces,3.1.5,60.044086890441065,
,,,,,,,,,,,,,,,,,,,,,,,,,,,,,,,,,,,,,,,,,,,,,,,,,,,,,,,,,,,,,,,,,,,,,,,,,,,,,,,,,,,,,,,,,,,,,,,,,,,,,,,,302.8326693949999,None,space,3.6087821509999003,307.83233937499995,None,,,,,,,,,,,,,,,,,,,,,,,,,,,,,,,,,,,,,,001,102,2020_Feb_11_0929,spring_faces,3.1.5,60.044086890441065,
condition files/Stage1_1.xlsx,,B2,T1,m,"['c', 'm']","['Clue', 'Monopoly']","[-0.15, 0.5]","[0.15, 0.5]",1,1,,,,,,,,,0,0,0,0,0,0,0,2,,,,,,,,,,,,,,,,,,,,,,,,,,,,,,,,,,,,,,,,,,,,,,,,,,,,,,,311.548908216,None,311.548908216,None,311.548908216,None,c,0,5.959858478000001,313.06525423899996,None,313.06525423899996,None,313.06525423899996,None,319.099158666,None,319.099158666,None,319.099158666,None,319.099158666,None,,,,,,,307.83233937499995,None,,,,,,,,,,,,,,,,,,,,,,,,,,,,,,,,,,,,001,102,2020_Feb_11_0929,spring_faces,3.1.5,60.044086890441065,
condition files/Stage1_1.xlsx,,T4,B3,m,"['c', 'm']","['Clue', 'Monopoly']","[-0.15, 0.5]","[0.15, 0.5]",1,1,,,,,,,,,0,0,0,0,0,1,1,6,,,,,,,,,,,,,,,,,,,,,,,,,,,,,,,,,,,,,,,,,,,,,,,,,,,,,,,321.048064749,None,321.048064749,None,321.048064749,None,c,0,1.0951339910000115,322.64991040999996,None,322.64991040999996,None,322.64991040999996,None,323.798827243,None,323.798827243,None,323.798827243,None,323.798827243,None,,,,,,,,,,,,,,,,,,,,,,,,,,,,,,,,,,,,,,,,,,,,001,102,2020_Feb_11_0929,spring_faces,3.1.5,60.044086890441065,
condition files/Stage1_1.xlsx,,T3,B4,c,"['c', 'm']","['Clue', 'Monopoly']","[-0.15, 0.5]","[0.15, 0.5]",1,1,,,,,,,,,0,0,0,0,0,2,2,5,,,,,,,,,,,,,,,,,,,,,,,,,,,,,,,,,,,,,,,,,,,,,,,,,,,,,,,325.76562305699997,None,325.76562305699997,None,325.76562305699997,None,c,1,0.4269245469999987,327.36610619499993,None,327.36610619499993,None,327.36610619499993,None,327.84929858499993,None,327.84929858499993,None,327.84929858499993,None,327.84929858499993,None,,,,,,,,,,,,,,,,,,,,,,,,,,,,,,,,,,,,,,,,,,,,001,102,2020_Feb_11_0929,spring_faces,3.1.5,60.044086890441065,
condition files/Stage1_1.xlsx,,B4,T4,m,"['c', 'm']","['Clue', 'Monopoly']","[-0.15, 0.5]","[0.15, 0.5]",1,1,,,,,,,,,0,0,0,0,0,3,3,7,,,,,,,,,,,,,,,,,,,,,,,,,,,,,,,,,,,,,,,,,,,,,,,,,,,,,,,329.81570196199993,None,329.81570196199993,None,329.81570196199993,None,c,0,1.7871491519999836,331.365887834,None,331.365887834,None,331.365887834,None,333.217117947,None,333.217117947,None,333.217117947,None,333.217117947,None,,,,,,,,,,,,,,,,,,,,,,,,,,,,,,,,,,,,,,,,,,,,001,102,2020_Feb_11_0929,spring_faces,3.1.5,60.044086890441065,
condition files/Stage1_1.xlsx,,T2,B2,m,"['c', 'm']","['Clue', 'Monopoly']","[-0.15, 0.5]","[0.15, 0.5]",1,1,,,,,,,,,0,0,0,0,0,4,4,3,,,,,,,,,,,,,,,,,,,,,,,,,,,,,,,,,,,,,,,,,,,,,,,,,,,,,,,335.18241545,None,335.18241545,None,335.18241545,None,m,1,1.7160383030000048,336.748967911,None,336.748967911,None,336.748967911,None,338.515921831,None,338.515921831,None,338.515921831,None,338.515921831,None,,,,,,,,,,,,,,,,,,,,,,,,,,,,,,,,,,,,,,,,,,,,001,102,2020_Feb_11_0929,spring_faces,3.1.5,60.044086890441065,
condition files/Stage1_1.xlsx,,B3,T3,c,"['c', 'm']","['Clue', 'Monopoly']","[-0.15, 0.5]","[0.15, 0.5]",1,1,,,,,,,,,0,0,0,0,0,5,5,4,,,,,,,,,,,,,,,,,,,,,,,,,,,,,,,,,,,,,,,,,,,,,,,,,,,,,,,340.482331475,None,340.482331475,None,340.482331475,None,c,1,1.1056064910000032,342.01543620099994,None,342.01543620099994,None,342.01543620099994,None,343.19924130899994,None,343.19924130899994,None,343.19924130899994,None,343.19924130899994,None,,,,,,,,,,,,,,,,,,,,,,,,,,,,,,,,,,,,,,,,,,,,001,102,2020_Feb_11_0929,spring_faces,3.1.5,60.044086890441065,
condition files/Stage1_1.xlsx,,B1,T2,c,"['c', 'm']","['Clue', 'Monopoly']","[-0.15, 0.5]","[0.15, 0.5]",1,1,,,,,,,,,0,0,0,0,0,6,6,1,,,,,,,,,,,,,,,,,,,,,,,,,,,,,,,,,,,,,,,,,,,,,,,,,,,,,,,345.14890898399995,None,345.14890898399995,None,345.14890898399995,None,m,0,1.188359988000002,346.732671267,None,346.732671267,None,346.732671267,None,347.98268009599997,None,347.98268009599997,None,347.98268009599997,None,347.98268009599997,None,,,,,,,,,,,,,,,,,,,,,,,,,,,,,,,,,,,,,,,,,,,,001,102,2020_Feb_11_0929,spring_faces,3.1.5,60.044086890441065,
condition files/Stage1_1.xlsx,,T1,B1,c,"['c', 'm']","['Clue', 'Monopoly']","[-0.15, 0.5]","[0.15, 0.5]",1,1,,,,,,,,,0,0,0,0,0,7,7,0,,,,,,,,,,,,,,,,,,,,,,,,,,,,,,,,,,,,,,,,,,,,,,,,,,,,,,,349.94891873999995,None,349.94891873999995,None,349.94891873999995,None,c,1,1.4124848059999522,351.484553734,None,351.484553734,None,351.484553734,None,352.94921379999994,None,352.94921379999994,None,352.94921379999994,None,352.94921379999994,None,,,,,,,,,,,,,,,,,,,,,,,,,,,,,,,,,,,,,,,,,,,,001,102,2020_Feb_11_0929,spring_faces,3.1.5,60.044086890441065,
condition files/Stage1_2.xlsx,,T4,B4,m,"['c', 'm']","['Clue', 'Monopoly']","[-0.15, 0.5]","[0.15, 0.5]",1,1,,,,,,,,,0,1,1,1,0,0,0,7,,,,,,,,,,,,,,,,,,,,,,,,,,,,,,,,,,,,,,,,,,,,,,,,,,,,,,,354.98233593500004,None,354.98233593500004,None,354.98233593500004,None,m,1,0.8784865000000082,356.46656405199997,None,356.46656405199997,None,356.46656405199997,None,357.401105656,None,357.401105656,None,357.401105656,None,357.401105656,None,,,,,,,,,,,,,,,,,,,,,,,,,,,,,,,,,,,,,,,,,,,,001,102,2020_Feb_11_0929,spring_faces,3.1.5,60.044086890441065,
condition files/Stage1_2.xlsx,,B1,T1,c,"['c', 'm']","['Clue', 'Monopoly']","[-0.15, 0.5]","[0.15, 0.5]",1,1,,,,,,,,,0,1,1,1,0,1,1,0,,,,,,,,,,,,,,,,,,,,,,,,,,,,,,,,,,,,,,,,,,,,,,,,,,,,,,,359.364996628,None,359.364996628,None,359.364996628,None,m,0,1.582043485999975,360.8989899769999,None,360.8989899769999,None,360.8989899769999,None,362.53472707799995,None,362.53472707799995,None,362.53472707799995,None,362.53472707799995,None,,,,,,,,,,,,,,,,,,,,,,,,,,,,,,,,,,,,,,,,,,,,001,102,2020_Feb_11_0929,spring_faces,3.1.5,60.044086890441065,
condition files/Stage1_2.xlsx,,T1,B2,m,"['c', 'm']","['Clue', 'Monopoly']","[-0.15, 0.5]","[0.15, 0.5]",1,1,,,,,,,,,0,1,1,1,0,2,2,2,,,,,,,,,,,,,,,,,,,,,,,,,,,,,,,,,,,,,,,,,,,,,,,,,,,,,,,364.498276572,None,364.498276572,None,364.498276572,None,c,0,0.6735979800000678,366.03151499599994,None,366.03151499599994,None,366.03151499599994,None,366.76736627899993,None,366.76736627899993,None,366.76736627899993,None,366.76736627899993,None,,,,,,,,,,,,,,,,,,,,,,,,,,,,,,,,,,,,,,,,,,,,001,102,2020_Feb_11_0929,spring_faces,3.1.5,60.044086890441065,
condition files/Stage1_2.xlsx,,B3,T4,m,"['c', 'm']","['Clue', 'Monopoly']","[-0.15, 0.5]","[0.15, 0.5]",1,1,,,,,,,,,0,1,1,1,0,3,3,6,,,,,,,,,,,,,,,,,,,,,,,,,,,,,,,,,,,,,,,,,,,,,,,,,,,,,,,368.732262,None,368.732262,None,368.732262,None,m,1,1.014483053000049,370.282527923,None,370.282527923,None,370.282527923,None,371.34912277499996,None,371.34912277499996,None,371.34912277499996,None,371.34912277499996,None,,,,,,,,,,,,,,,,,,,,,,,,,,,,,,,,,,,,,,,,,,,,001,102,2020_Feb_11_0929,spring_faces,3.1.5,60.044086890441065,
condition files/Stage1_2.xlsx,,B4,T3,c,"['c', 'm']","['Clue', 'Monopoly']","[-0.15, 0.5]","[0.15, 0.5]",1,1,,,,,,,,,0,1,1,1,0,4,4,5,,,,,,,,,,,,,,,,,,,,,,,,,,,,,,,,,,,,,,,,,,,,,,,,,,,,,,,373.3155992129999,None,373.3155992129999,None,373.3155992129999,None,c,1,0.8791610330000594,374.84996989,None,374.84996989,None,374.84996989,None,375.78311351699995,None,375.78311351699995,None,375.78311351699995,None,375.78311351699995,None,,,,,,,,,,,,,,,,,,,,,,,,,,,,,,,,,,,,,,,,,,,,001,102,2020_Feb_11_0929,spring_faces,3.1.5,60.044086890441065,
condition files/Stage1_2.xlsx,,T3,B3,c,"['c', 'm']","['Clue', 'Monopoly']","[-0.15, 0.5]","[0.15, 0.5]",1,1,,,,,,,,,0,1,1,1,0,5,5,4,,,,,,,,,,,,,,,,,,,,,,,,,,,,,,,,,,,,,,,,,,,,,,,,,,,,,,,377.749087186,None,377.749087186,None,377.749087186,None,m,0,4.413877872999933,379.28316105,None,379.28316105,None,379.28316105,None,383.74938248499996,None,383.74938248499996,None,383.74938248499996,None,383.74938248499996,None,,,,,,,,,,,,,,,,,,,,,,,,,,,,,,,,,,,,,,,,,,,,001,102,2020_Feb_11_0929,spring_faces,3.1.5,60.044086890441065,
condition files/Stage1_2.xlsx,,T2,B1,c,"['c', 'm']","['Clue', 'Monopoly']","[-0.15, 0.5]","[0.15, 0.5]",1,1,,,,,,,,,0,1,1,1,0,6,6,1,,,,,,,,,,,,,,,,,,,,,,,,,,,,,,,,,,,,,,,,,,,,,,,,,,,,,,,385.715627533,None,385.715627533,None,385.715627533,None,m,0,1.3918133250000437,387.24930214799997,None,387.24930214799997,None,387.24930214799997,None,388.699132085,None,388.699132085,None,388.699132085,None,388.699132085,None,,,,,,,,,,,,,,,,,,,,,,,,,,,,,,,,,,,,,,,,,,,,001,102,2020_Feb_11_0929,spring_faces,3.1.5,60.044086890441065,
condition files/Stage1_2.xlsx,,B2,T2,m,"['c', 'm']","['Clue', 'Monopoly']","[-0.15, 0.5]","[0.15, 0.5]",1,1,,,,,,,,,0,1,1,1,0,7,7,3,,,,,,,,,,,,,,,,,,,,,,,,,,,,,,,,,,,,,,,,,,,,,,,,,,,,,,,390.66551592400003,None,390.66551592400003,None,390.66551592400003,None,c,0,0.5066838569999845,392.198423951,None,392.198423951,None,392.198423951,None,392.76543404099993,None,392.76543404099993,None,392.76543404099993,None,392.76543404099993,None,,,,,,,,,,,,,,,,,,,,,,,,,,,,,,,,,,,,,,,,,,,,001,102,2020_Feb_11_0929,spring_faces,3.1.5,60.044086890441065,
condition files/Stage1_1.xlsx,,B2,T1,m,"['c', 'm']","['Clue', 'Monopoly']","[-0.15, 0.5]","[0.15, 0.5]",1,1,,,,,,,,,0,2,2,2,0,0,0,2,,,,,,,,,,,,,,,,,,,,,,,,,,,,,,,,,,,,,,,,,,,,,,,,,,,,,,,394.748991421,None,394.748991421,None,394.748991421,None,m,1,0.6787141519999977,396.29831314699993,None,396.29831314699993,None,396.29831314699993,None,397.032774862,None,397.032774862,None,397.032774862,None,397.032774862,None,,,,,,,,,,,,,,,,,,,,,,,,,,,,,,,,,,,,,,,,,,,,001,102,2020_Feb_11_0929,spring_faces,3.1.5,60.044086890441065,
condition files/Stage1_1.xlsx,,T2,B2,m,"['c', 'm']","['Clue', 'Monopoly']","[-0.15, 0.5]","[0.15, 0.5]",1,1,,,,,,,,,0,2,2,2,0,1,1,3,,,,,,,,,,,,,,,,,,,,,,,,,,,,,,,,,,,,,,,,,,,,,,,,,,,,,,,398.99886590099993,None,398.99886590099993,None,398.99886590099993,None,c,0,1.0192407350000394,400.53379636499994,None,400.53379636499994,None,400.53379636499994,None,401.61553638600003,None,401.61553638600003,None,401.61553638600003,None,401.61553638600003,None,,,,,,,,,,,,,,,,,,,,,,,,,,,,,,,,,,,,,,,,,,,,001,102,2020_Feb_11_0929,spring_faces,3.1.5,60.044086890441065,
condition files/Stage1_1.xlsx,,B3,T3,c,"['c', 'm']","['Clue', 'Monopoly']","[-0.15, 0.5]","[0.15, 0.5]",1,1,,,,,,,,,0,2,2,2,0,2,2,4,,,,,,,,,,,,,,,,,,,,,,,,,,,,,,,,,,,,,,,,,,,,,,,,,,,,,,,403.58172242800003,None,403.58172242800003,None,403.58172242800003,None,m,0,1.1412226319999945,405.11588559999996,None,405.11588559999996,None,405.11588559999996,None,406.31556055299995,None,406.31556055299995,None,406.31556055299995,None,406.31556055299995,None,,,,,,,,,,,,,,,,,,,,,,,,,,,,,,,,,,,,,,,,,,,,001,102,2020_Feb_11_0929,spring_faces,3.1.5,60.044086890441065,
condition files/Stage1_1.xlsx,,T3,B4,c,"['c', 'm']","['Clue', 'Monopoly']","[-0.15, 0.5]","[0.15, 0.5]",1,1,,,,,,,,,0,2,2,2,0,3,3,5,,,,,,,,,,,,,,,,,,,,,,,,,,,,,,,,,,,,,,,,,,,,,,,,,,,,,,,408.28241241599994,None,408.28241241599994,None,408.28241241599994,None,c,1,1.016458426999975,409.83256429999994,None,409.83256429999994,None,409.83256429999994,None,410.898821579,None,410.898821579,None,410.898821579,None,410.898821579,None,,,,,,,,,,,,,,,,,,,,,,,,,,,,,,,,,,,,,,,,,,,,001,102,2020_Feb_11_0929,spring_faces,3.1.5,60.044086890441065,
condition files/Stage1_1.xlsx,,B4,T4,m,"['c', 'm']","['Clue', 'Monopoly']","[-0.15, 0.5]","[0.15, 0.5]",1,1,,,,,,,,,0,2,2,2,0,4,4,7,,,,,,,,,,,,,,,,,,,,,,,,,,,,,,,,,,,,,,,,,,,,,,,,,,,,,,,412.865139679,None,412.865139679,None,412.865139679,None,m,1,1.3777609109999958,414.3992776609999,None,414.3992776609999,None,414.3992776609999,None,415.84927611599994,None,415.84927611599994,None,415.84927611599994,None,415.84927611599994,None,,,,,,,,,,,,,,,,,,,,,,,,,,,,,,,,,,,,,,,,,,,,001,102,2020_Feb_11_0929,spring_faces,3.1.5,60.044086890441065,
condition files/Stage1_1.xlsx,,B1,T2,c,"['c', 'm']","['Clue', 'Monopoly']","[-0.15, 0.5]","[0.15, 0.5]",1,1,,,,,,,,,0,2,2,2,0,5,5,1,,,,,,,,,,,,,,,,,,,,,,,,,,,,,,,,,,,,,,,,,,,,,,,,,,,,,,,417.799082643,None,417.799082643,None,417.799082643,None,m,0,1.5158070759999873,419.333172625,None,419.333172625,None,419.333172625,None,420.91575745399996,None,420.91575745399996,None,420.91575745399996,None,420.91575745399996,None,,,,,,,,,,,,,,,,,,,,,,,,,,,,,,,,,,,,,,,,,,,,001,102,2020_Feb_11_0929,spring_faces,3.1.5,60.044086890441065,
condition files/Stage1_1.xlsx,,T1,B1,c,"['c', 'm']","['Clue', 'Monopoly']","[-0.15, 0.5]","[0.15, 0.5]",1,1,,,,,,,,,0,2,2,2,0,6,6,0,,,,,,,,,,,,,,,,,,,,,,,,,,,,,,,,,,,,,,,,,,,,,,,,,,,,,,,422.865015257,None,422.865015257,None,422.865015257,None,m,0,0.9942406830000436,424.39887226199994,None,424.39887226199994,None,424.39887226199994,None,425.44895366899993,None,425.44895366899993,None,425.44895366899993,None,425.44895366899993,None,,,,,,,,,,,,,,,,,,,,,,,,,,,,,,,,,,,,,,,,,,,,001,102,2020_Feb_11_0929,spring_faces,3.1.5,60.044086890441065,
condition files/Stage1_1.xlsx,,T4,B3,m,"['c', 'm']","['Clue', 'Monopoly']","[-0.15, 0.5]","[0.15, 0.5]",1,1,,,,,,,,,0,2,2,2,0,7,7,6,,,,,,,,,,,,,,,,,,,,,,,,,,,,,,,,,,,,,,,,,,,,,,,,,,,,,,,427.41571658099997,None,427.41571658099997,None,427.41571658099997,None,c,0,1.0343996789999892,428.95064772399996,None,428.95064772399996,None,428.95064772399996,None,430.04997361799997,None,430.04997361799997,None,430.04997361799997,None,430.04997361799997,None,,,,,,,,,,,,,,,,,,,,,,,,,,,,,,,,,,,,,,,,,,,,001,102,2020_Feb_11_0929,spring_faces,3.1.5,60.044086890441065,
condition files/Stage1_2.xlsx,,B4,T3,c,"['c', 'm']","['Clue', 'Monopoly']","[-0.15, 0.5]","[0.15, 0.5]",1,1,,,,,,,,,0,3,3,3,0,0,0,5,,,,,,,,,,,,,,,,,,,,,,,,,,,,,,,,,,,,,,,,,,,,,,,,,,,,,,,432.03258595299997,None,432.03258595299997,None,432.03258595299997,None,m,0,1.5876023499999974,433.565442499,None,433.565442499,None,433.565442499,None,435.215907517,None,435.215907517,None,435.215907517,None,435.215907517,None,,,,,,,,,,,,,,,,,,,,,,,,,,,,,,,,,,,,,,,,,,,,001,102,2020_Feb_11_0929,spring_faces,3.1.5,60.044086890441065,
condition files/Stage1_2.xlsx,,T1,B2,m,"['c', 'm']","['Clue', 'Monopoly']","[-0.15, 0.5]","[0.15, 0.5]",1,1,,,,,,,,,0,3,3,3,0,1,1,2,,,,,,,,,,,,,,,,,,,,,,,,,,,,,,,,,,,,,,,,,,,,,,,,,,,,,,,437.18223734899993,None,437.18223734899993,None,437.18223734899993,None,c,0,0.8374352589999035,438.71562088999997,None,438.71562088999997,None,438.71562088999997,None,439.61815387900003,None,439.61815387900003,None,439.61815387900003,None,439.61815387900003,None,,,,,,,,,,,,,,,,,,,,,,,,,,,,,,,,,,,,,,,,,,,,001,102,2020_Feb_11_0929,spring_faces,3.1.5,60.044086890441065,
condition files/Stage1_2.xlsx,,B1,T1,c,"['c', 'm']","['Clue', 'Monopoly']","[-0.15, 0.5]","[0.15, 0.5]",1,1,,,,,,,,,0,3,3,3,0,2,2,0,,,,,,,,,,,,,,,,,,,,,,,,,,,,,,,,,,,,,,,,,,,,,,,,,,,,,,,441.58243014699997,None,441.58243014699997,None,441.58243014699997,None,m,0,2.1653989480000746,443.115641492,None,443.115641492,None,443.115641492,None,445.3340913669999,None,445.3340913669999,None,445.3340913669999,None,445.3340913669999,None,,,,,,,,,,,,,,,,,,,,,,,,,,,,,,,,,,,,,,,,,,,,001,102,2020_Feb_11_0929,spring_faces,3.1.5,60.044086890441065,
condition files/Stage1_2.xlsx,,T2,B1,c,"['c', 'm']","['Clue', 'Monopoly']","[-0.15, 0.5]","[0.15, 0.5]",1,1,,,,,,,,,0,3,3,3,0,3,3,1,,,,,,,,,,,,,,,,,,,,,,,,,,,,,,,,,,,,,,,,,,,,,,,,,,,,,,,447.29915404099995,None,447.29915404099995,None,447.29915404099995,None,c,1,1.2319237570000041,448.83311038700003,None,448.83311038700003,None,448.83311038700003,None,450.11616945599997,None,450.11616945599997,None,450.11616945599997,None,450.11616945599997,None,,,,,,,,,,,,,,,,,,,,,,,,,,,,,,,,,,,,,,,,,,,,001,102,2020_Feb_11_0929,spring_faces,3.1.5,60.044086890441065,
condition files/Stage1_2.xlsx,,B2,T2,m,"['c', 'm']","['Clue', 'Monopoly']","[-0.15, 0.5]","[0.15, 0.5]",1,1,,,,,,,,,0,3,3,3,0,4,4,3,,,,,,,,,,,,,,,,,,,,,,,,,,,,,,,,,,,,,,,,,,,,,,,,,,,,,,,452.081575874,None,452.081575874,None,452.081575874,None,m,1,1.9358945039999753,453.617159175,None,453.617159175,None,453.617159175,None,455.63263237499996,None,455.63263237499996,None,455.63263237499996,None,455.63263237499996,None,,,,,,,,,,,,,,,,,,,,,,,,,,,,,,,,,,,,,,,,,,,,001,102,2020_Feb_11_0929,spring_faces,3.1.5,60.044086890441065,
condition files/Stage1_2.xlsx,,T4,B4,m,"['c', 'm']","['Clue', 'Monopoly']","[-0.15, 0.5]","[0.15, 0.5]",1,1,,,,,,,,,0,3,3,3,0,5,5,7,,,,,,,,,,,,,,,,,,,,,,,,,,,,,,,,,,,,,,,,,,,,,,,,,,,,,,,457.582289759,None,457.582289759,None,457.582289759,None,m,1,2.229181403000098,459.115828192,None,459.115828192,None,459.115828192,None,461.398589849,None,461.398589849,None,461.398589849,None,461.398589849,None,,,,,,,,,,,,,,,,,,,,,,,,,,,,,,,,,,,,,,,,,,,,001,102,2020_Feb_11_0929,spring_faces,3.1.5,60.044086890441065,
condition files/Stage1_2.xlsx,,B3,T4,m,"['c', 'm']","['Clue', 'Monopoly']","[-0.15, 0.5]","[0.15, 0.5]",1,1,,,,,,,,,0,3,3,3,0,6,6,6,,,,,,,,,,,,,,,,,,,,,,,,,,,,,,,,,,,,,,,,,,,,,,,,,,,,,,,463.365232559,None,463.365232559,None,463.365232559,None,c,0,0.6523112169999195,464.90074112799994,None,464.90074112799994,None,464.90074112799994,None,465.615901186,None,465.615901186,None,465.615901186,None,465.615901186,None,,,,,,,,,,,,,,,,,,,,,,,,,,,,,,,,,,,,,,,,,,,,001,102,2020_Feb_11_0929,spring_faces,3.1.5,60.044086890441065,
condition files/Stage1_2.xlsx,,T3,B3,c,"['c', 'm']","['Clue', 'Monopoly']","[-0.15, 0.5]","[0.15, 0.5]",1,1,,,,,,,,,0,3,3,3,0,7,7,4,,,,,,,,,,,,,,,,,,,,,,,,,,,,,,,,,,,,,,,,,,,,,,,,,,,,,,,467.581906926,None,467.581906926,None,467.581906926,None,m,0,0.8369841139999608,469.116069111,None,469.116069111,None,469.116069111,None,470.01696971499996,None,470.01696971499996,None,470.01696971499996,None,470.01696971499996,None,,,,,,,,,,,,,,,,,,,,,,,,,,,,,,,,,,,,,,,,,,,,001,102,2020_Feb_11_0929,spring_faces,3.1.5,60.044086890441065,
condition files/Stage1_1.xlsx,,T2,B2,m,"['c', 'm']","['Clue', 'Monopoly']","[-0.15, 0.5]","[0.15, 0.5]",1,1,,,,,,,,,0,4,4,4,0,0,0,3,,,,,,,,,,,,,,,,,,,,,,,,,,,,,,,,,,,,,,,,,,,,,,,,,,,,,,,471.998793311,None,471.998793311,None,471.998793311,None,c,0,1.0438987950000183,473.54921184,None,473.54921184,None,473.54921184,None,474.65179963,None,474.65179963,None,474.65179963,None,474.65179963,None,,,,,,,,,,,,,,,,,,,,,,,,,,,,,,,,,,,,,,,,,,,,001,102,2020_Feb_11_0929,spring_faces,3.1.5,60.044086890441065,
condition files/Stage1_1.xlsx,,B3,T3,c,"['c', 'm']","['Clue', 'Monopoly']","[-0.15, 0.5]","[0.15, 0.5]",1,1,,,,,,,,,0,4,4,4,0,1,1,4,,,,,,,,,,,,,,,,,,,,,,,,,,,,,,,,,,,,,,,,,,,,,,,,,,,,,,,476.61476860799996,None,476.61476860799996,None,476.61476860799996,None,c,1,1.5636254140000574,478.1494134889999,None,478.1494134889999,None,478.1494134889999,None,479.765818888,None,479.765818888,None,479.765818888,None,479.765818888,None,,,,,,,,,,,,,,,,,,,,,,,,,,,,,,,,,,,,,,,,,,,,001,102,2020_Feb_11_0929,spring_faces,3.1.5,60.044086890441065,
condition files/Stage1_1.xlsx,,B1,T2,c,"['c', 'm']","['Clue', 'Monopoly']","[-0.15, 0.5]","[0.15, 0.5]",1,1,,,,,,,,,0,4,4,4,0,2,2,1,,,,,,,,,,,,,,,,,,,,,,,,,,,,,,,,,,,,,,,,,,,,,,,,,,,,,,,481.732036979,None,481.732036979,None,481.732036979,None,c,1,0.7505500460001713,483.28244752500007,None,483.28244752500007,None,483.28244752500007,None,484.099200689,None,484.099200689,None,484.099200689,None,484.099200689,None,,,,,,,,,,,,,,,,,,,,,,,,,,,,,,,,,,,,,,,,,,,,001,102,2020_Feb_11_0929,spring_faces,3.1.5,60.044086890441065,
condition files/Stage1_1.xlsx,,T3,B4,c,"['c', 'm']","['Clue', 'Monopoly']","[-0.15, 0.5]","[0.15, 0.5]",1,1,,,,,,,,,0,4,4,4,0,3,3,5,,,,,,,,,,,,,,,,,,,,,,,,,,,,,,,,,,,,,,,,,,,,,,,,,,,,,,,486.0653762989999,None,486.0653762989999,None,486.0653762989999,None,m,0,0.849165094,487.59984065800006,None,487.59984065800006,None,487.59984065800006,None,488.49953679099997,None,488.49953679099997,None,488.49953679099997,None,488.49953679099997,None,,,,,,,,,,,,,,,,,,,,,,,,,,,,,,,,,,,,,,,,,,,,001,102,2020_Feb_11_0929,spring_faces,3.1.5,60.044086890441065,
condition files/Stage1_1.xlsx,,T1,B1,c,"['c', 'm']","['Clue', 'Monopoly']","[-0.15, 0.5]","[0.15, 0.5]",1,1,,,,,,,,,0,4,4,4,0,4,4,0,,,,,,,,,,,,,,,,,,,,,,,,,,,,,,,,,,,,,,,,,,,,,,,,,,,,,,,490.46499139900004,None,490.46499139900004,None,490.46499139900004,None,c,1,0.5290849939999589,492.01594295200005,None,492.01594295200005,None,492.01594295200005,None,492.5993209699999,None,492.5993209699999,None,492.5993209699999,None,492.5993209699999,None,,,,,,,,,,,,,,,,,,,,,,,,,,,,,,,,,,,,,,,,,,,,001,102,2020_Feb_11_0929,spring_faces,3.1.5,60.044086890441065,
condition files/Stage1_1.xlsx,,T4,B3,m,"['c', 'm']","['Clue', 'Monopoly']","[-0.15, 0.5]","[0.15, 0.5]",1,1,,,,,,,,,0,4,4,4,0,5,5,6,,,,,,,,,,,,,,,,,,,,,,,,,,,,,,,,,,,,,,,,,,,,,,,,,,,,,,,494.56563267900003,None,494.56563267900003,None,494.56563267900003,None,c,0,0.5739621539999007,496.0991550709999,None,496.0991550709999,None,496.0991550709999,None,496.73284705599997,None,496.73284705599997,None,496.73284705599997,None,496.73284705599997,None,,,,,,,,,,,,,,,,,,,,,,,,,,,,,,,,,,,,,,,,,,,,001,102,2020_Feb_11_0929,spring_faces,3.1.5,60.044086890441065,
condition files/Stage1_1.xlsx,,B2,T1,m,"['c', 'm']","['Clue', 'Monopoly']","[-0.15, 0.5]","[0.15, 0.5]",1,1,,,,,,,,,0,4,4,4,0,6,6,2,,,,,,,,,,,,,,,,,,,,,,,,,,,,,,,,,,,,,,,,,,,,,,,,,,,,,,,498.6986387589999,None,498.6986387589999,None,498.6986387589999,None,m,1,0.665030083000147,500.232011057,None,500.232011057,None,500.232011057,None,500.94938628700004,None,500.94938628700004,None,500.94938628700004,None,500.94938628700004,None,,,,,,,,,,,,,,,,,,,,,,,,,,,,,,,,,,,,,,,,,,,,001,102,2020_Feb_11_0929,spring_faces,3.1.5,60.044086890441065,
condition files/Stage1_1.xlsx,,B4,T4,m,"['c', 'm']","['Clue', 'Monopoly']","[-0.15, 0.5]","[0.15, 0.5]",1,1,,,,,,,,,0,4,4,4,0,7,7,7,,,,,,,,,,,,,,,,,,,,,,,,,,,,,,,,,,,,,,,,,,,,,,,,,,,,,,,502.91497382499995,None,502.91497382499995,None,502.91497382499995,None,c,0,0.7822773880000113,504.45072442699995,None,504.45072442699995,None,504.45072442699995,None,505.299277813,None,505.299277813,None,505.299277813,None,505.299277813,None,,,,,,,,,,,,,,,,,,,,,,,,,,,,,,,,,,,,,,,,,,,,001,102,2020_Feb_11_0929,spring_faces,3.1.5,60.044086890441065,
condition files/Stage1_2.xlsx,,T4,B4,m,"['c', 'm']","['Clue', 'Monopoly']","[-0.15, 0.5]","[0.15, 0.5]",1,1,,,,,,,,,0,5,5,5,0,0,0,7,,,,,,,,,,,,,,,,,,,,,,,,,,,,,,,,,,,,,,,,,,,,,,,,,,,,,,,507.282586167,None,507.282586167,None,507.282586167,None,m,1,0.6898278660000869,508.815293452,None,508.815293452,None,508.815293452,None,509.5657936399999,None,509.5657936399999,None,509.5657936399999,None,509.5657936399999,None,,,,,,,,,,,,,,,,,,,,,,,,,,,,,,,,,,,,,,,,,,,,001,102,2020_Feb_11_0929,spring_faces,3.1.5,60.044086890441065,
condition files/Stage1_2.xlsx,,B1,T1,c,"['c', 'm']","['Clue', 'Monopoly']","[-0.15, 0.5]","[0.15, 0.5]",1,1,,,,,,,,,0,5,5,5,0,1,1,0,,,,,,,,,,,,,,,,,,,,,,,,,,,,,,,,,,,,,,,,,,,,,,,,,,,,,,,511.5321040140001,None,511.5321040140001,None,511.5321040140001,None,c,1,0.7745920750001005,513.066510516,None,513.066510516,None,513.066510516,None,513.8992452690001,None,513.8992452690001,None,513.8992452690001,None,513.8992452690001,None,,,,,,,,,,,,,,,,,,,,,,,,,,,,,,,,,,,,,,,,,,,,001,102,2020_Feb_11_0929,spring_faces,3.1.5,60.044086890441065,
condition files/Stage1_2.xlsx,,B3,T4,m,"['c', 'm']","['Clue', 'Monopoly']","[-0.15, 0.5]","[0.15, 0.5]",1,1,,,,,,,,,0,5,5,5,0,2,2,6,,,,,,,,,,,,,,,,,,,,,,,,,,,,,,,,,,,,,,,,,,,,,,,,,,,,,,,515.8655829159999,None,515.8655829159999,None,515.8655829159999,None,m,1,3.256704235000143,517.4004147899999,None,517.4004147899999,None,517.4004147899999,None,520.732475059,None,520.732475059,None,520.732475059,None,520.732475059,None,,,,,,,,,,,,,,,,,,,,,,,,,,,,,,,,,,,,,,,,,,,,001,102,2020_Feb_11_0929,spring_faces,3.1.5,60.044086890441065,
condition files/Stage1_2.xlsx,,T2,B1,c,"['c', 'm']","['Clue', 'Monopoly']","[-0.15, 0.5]","[0.15, 0.5]",1,1,,,,,,,,,0,5,5,5,0,3,3,1,,,,,,,,,,,,,,,,,,,,,,,,,,,,,,,,,,,,,,,,,,,,,,,,,,,,,,,522.681608793,None,522.681608793,None,522.681608793,None,c,1,0.936997607999956,524.232037095,None,524.232037095,None,524.232037095,None,525.2345227659999,None,525.2345227659999,None,525.2345227659999,None,525.2345227659999,None,,,,,,,,,,,,,,,,,,,,,,,,,,,,,,,,,,,,,,,,,,,,001,102,2020_Feb_11_0929,spring_faces,3.1.5,60.044086890441065,
condition files/Stage1_2.xlsx,,B4,T3,c,"['c', 'm']","['Clue', 'Monopoly']","[-0.15, 0.5]","[0.15, 0.5]",1,1,,,,,,,,,0,5,5,5,0,4,4,5,,,,,,,,,,,,,,,,,,,,,,,,,,,,,,,,,,,,,,,,,,,,,,,,,,,,,,,527.1988062209999,None,527.1988062209999,None,527.1988062209999,None,m,0,1.3486538449999443,528.732366632,None,528.732366632,None,528.732366632,None,530.132654444,None,530.132654444,None,530.132654444,None,530.132654444,None,,,,,,,,,,,,,,,,,,,,,,,,,,,,,,,,,,,,,,,,,,,,001,102,2020_Feb_11_0929,spring_faces,3.1.5,60.044086890441065,
condition files/Stage1_2.xlsx,,T1,B2,m,"['c', 'm']","['Clue', 'Monopoly']","[-0.15, 0.5]","[0.15, 0.5]",1,1,,,,,,,,,0,5,5,5,0,5,5,2,,,,,,,,,,,,,,,,,,,,,,,,,,,,,,,,,,,,,,,,,,,,,,,,,,,,,,,532.098509127,None,532.098509127,None,532.098509127,None,m,1,0.9290857149999283,533.631974949,None,533.631974949,None,533.631974949,None,534.6325321959999,None,534.6325321959999,None,534.6325321959999,None,534.6325321959999,None,,,,,,,,,,,,,,,,,,,,,,,,,,,,,,,,,,,,,,,,,,,,001,102,2020_Feb_11_0929,spring_faces,3.1.5,60.044086890441065,
condition files/Stage1_2.xlsx,,T3,B3,c,"['c', 'm']","['Clue', 'Monopoly']","[-0.15, 0.5]","[0.15, 0.5]",1,1,,,,,,,,,0,5,5,5,0,6,6,4,,,,,,,,,,,,,,,,,,,,,,,,,,,,,,,,,,,,,,,,,,,,,,,,,,,,,,,536.582216373,None,536.582216373,None,536.582216373,None,c,1,0.6996421960000134,538.1173710699999,None,538.1173710699999,None,538.1173710699999,None,538.8846162660001,None,538.8846162660001,None,538.8846162660001,None,538.8846162660001,None,,,,,,,,,,,,,,,,,,,,,,,,,,,,,,,,,,,,,,,,,,,,001,102,2020_Feb_11_0929,spring_faces,3.1.5,60.044086890441065,
condition files/Stage1_2.xlsx,,B2,T2,m,"['c', 'm']","['Clue', 'Monopoly']","[-0.15, 0.5]","[0.15, 0.5]",1,1,,,,,,,,,0,5,5,5,0,7,7,3,,,,,,,,,,,,,,,,,,,,,,,,,,,,,,,,,,,,,,,,,,,,,,,,,,,,,,,540.848542607,None,540.848542607,None,540.848542607,None,m,1,0.46701635499994154,542.382020683,None,542.382020683,None,542.382020683,None,542.9006961859999,None,542.9006961859999,None,542.9006961859999,None,542.9006961859999,None,,,,,,,,,,,,,,,,,,,,,,,,,,,,,,,,,,,,,,,,,,,,001,102,2020_Feb_11_0929,spring_faces,3.1.5,60.044086890441065,
condition files/Stage1_1.xlsx,,B4,T4,m,"['c', 'm']","['Clue', 'Monopoly']","[-0.15, 0.5]","[0.15, 0.5]",1,1,,,,,,,,,0,6,6,6,0,0,0,7,,,,,,,,,,,,,,,,,,,,,,,,,,,,,,,,,,,,,,,,,,,,,,,,,,,,,,,544.882885675,None,544.882885675,None,544.882885675,None,c,0,0.5924806729999545,546.432647921,None,546.432647921,None,546.432647921,None,547.081963795,None,547.081963795,None,547.081963795,None,547.081963795,None,,,,,,,,,,,,,,,,,,,,,,,,,,,,,,,,,,,,,,,,,,,,001,102,2020_Feb_11_0929,spring_faces,3.1.5,60.044086890441065,
condition files/Stage1_1.xlsx,,B3,T3,c,"['c', 'm']","['Clue', 'Monopoly']","[-0.15, 0.5]","[0.15, 0.5]",1,1,,,,,,,,,0,6,6,6,0,1,1,4,,,,,,,,,,,,,,,,,,,,,,,,,,,,,,,,,,,,,,,,,,,,,,,,,,,,,,,549.048115709,None,549.048115709,None,549.048115709,None,m,0,0.5700072350000482,550.5830438920001,None,550.5830438920001,None,550.5830438920001,None,551.217671428,None,551.217671428,None,551.217671428,None,551.217671428,None,,,,,,,,,,,,,,,,,,,,,,,,,,,,,,,,,,,,,,,,,,,,001,102,2020_Feb_11_0929,spring_faces,3.1.5,60.044086890441065,
condition files/Stage1_1.xlsx,,T4,B3,m,"['c', 'm']","['Clue', 'Monopoly']","[-0.15, 0.5]","[0.15, 0.5]",1,1,,,,,,,,,0,6,6,6,0,2,2,6,,,,,,,,,,,,,,,,,,,,,,,,,,,,,,,,,,,,,,,,,,,,,,,,,,,,,,,553.1823531399999,None,553.1823531399999,None,553.1823531399999,None,c,0,0.4995152770000004,554.717480595,None,554.717480595,None,554.717480595,None,555.284165764,None,555.284165764,None,555.284165764,None,555.284165764,None,,,,,,,,,,,,,,,,,,,,,,,,,,,,,,,,,,,,,,,,,,,,001,102,2020_Feb_11_0929,spring_faces,3.1.5,60.044086890441065,
condition files/Stage1_1.xlsx,,T2,B2,m,"['c', 'm']","['Clue', 'Monopoly']","[-0.15, 0.5]","[0.15, 0.5]",1,1,,,,,,,,,0,6,6,6,0,3,3,3,,,,,,,,,,,,,,,,,,,,,,,,,,,,,,,,,,,,,,,,,,,,,,,,,,,,,,,557.2490266870001,None,557.2490266870001,None,557.2490266870001,None,m,1,0.6267064920000394,558.7824056569999,None,558.7824056569999,None,558.7824056569999,None,559.465932946,None,559.465932946,None,559.465932946,None,559.465932946,None,,,,,,,,,,,,,,,,,,,,,,,,,,,,,,,,,,,,,,,,,,,,001,102,2020_Feb_11_0929,spring_faces,3.1.5,60.044086890441065,
condition files/Stage1_1.xlsx,,T1,B1,c,"['c', 'm']","['Clue', 'Monopoly']","[-0.15, 0.5]","[0.15, 0.5]",1,1,,,,,,,,,0,6,6,6,0,4,4,0,,,,,,,,,,,,,,,,,,,,,,,,,,,,,,,,,,,,,,,,,,,,,,,,,,,,,,,561.4321520729999,None,561.4321520729999,None,561.4321520729999,None,c,1,0.5876662619998569,562.965373053,None,562.965373053,None,562.965373053,None,563.6165478649999,None,563.6165478649999,None,563.6165478649999,None,563.6165478649999,None,,,,,,,,,,,,,,,,,,,,,,,,,,,,,,,,,,,,,,,,,,,,001,102,2020_Feb_11_0929,spring_faces,3.1.5,60.044086890441065,
condition files/Stage1_1.xlsx,,B1,T2,c,"['c', 'm']","['Clue', 'Monopoly']","[-0.15, 0.5]","[0.15, 0.5]",1,1,,,,,,,,,0,6,6,6,0,5,5,1,,,,,,,,,,,,,,,,,,,,,,,,,,,,,,,,,,,,,,,,,,,,,,,,,,,,,,,565.5823018509999,None,565.5823018509999,None,565.5823018509999,None,c,1,0.6456990280000809,567.115339906,None,567.115339906,None,567.115339906,None,567.8152793579999,None,567.8152793579999,None,567.8152793579999,None,567.8152793579999,None,,,,,,,,,,,,,,,,,,,,,,,,,,,,,,,,,,,,,,,,,,,,001,102,2020_Feb_11_0929,spring_faces,3.1.5,60.044086890441065,
condition files/Stage1_1.xlsx,,B2,T1,m,"['c', 'm']","['Clue', 'Monopoly']","[-0.15, 0.5]","[0.15, 0.5]",1,1,,,,,,,,,0,6,6,6,0,6,6,2,,,,,,,,,,,,,,,,,,,,,,,,,,,,,,,,,,,,,,,,,,,,,,,,,,,,,,,569.781850642,None,569.781850642,None,569.781850642,None,m,1,1.5810437850000199,571.3319816740001,None,571.3319816740001,None,571.3319816740001,None,572.98259083,None,572.98259083,None,572.98259083,None,572.98259083,None,,,,,,,,,,,,,,,,,,,,,,,,,,,,,,,,,,,,,,,,,,,,001,102,2020_Feb_11_0929,spring_faces,3.1.5,60.044086890441065,
condition files/Stage1_1.xlsx,,T3,B4,c,"['c', 'm']","['Clue', 'Monopoly']","[-0.15, 0.5]","[0.15, 0.5]",1,1,,,,,,,,,0,6,6,6,0,7,7,5,,,,,,,,,,,,,,,,,,,,,,,,,,,,,,,,,,,,,,,,,,,,,,,,,,,,,,,574.9324695009999,None,574.9324695009999,None,574.9324695009999,None,c,1,1.294921578999947,576.466149581,None,576.466149581,None,576.466149581,None,577.8176761880001,None,577.8176761880001,None,577.8176761880001,None,577.8176761880001,None,,,,,,,,,,,,,,,,,,,,,,,,,,,,,,,,,,,,,,,,,,,,001,102,2020_Feb_11_0929,spring_faces,3.1.5,60.044086890441065,
condition files/Stage1_2.xlsx,,T4,B4,m,"['c', 'm']","['Clue', 'Monopoly']","[-0.15, 0.5]","[0.15, 0.5]",1,1,,,,,,,,,0,7,7,7,0,0,0,7,,,,,,,,,,,,,,,,,,,,,,,,,,,,,,,,,,,,,,,,,,,,,,,,,,,,,,,579.7988576879999,None,579.7988576879999,None,579.7988576879999,None,m,1,1.451073567000094,581.3339806390001,None,581.3339806390001,None,581.3339806390001,None,582.8501722099999,None,582.8501722099999,None,582.8501722099999,None,582.8501722099999,None,,,,,,,,,,,,,,,,,,,,,,,,,,,,,,,,,,,,,,,,,,,,001,102,2020_Feb_11_0929,spring_faces,3.1.5,60.044086890441065,
condition files/Stage1_2.xlsx,,T2,B1,c,"['c', 'm']","['Clue', 'Monopoly']","[-0.15, 0.5]","[0.15, 0.5]",1,1,,,,,,,,,0,7,7,7,0,1,1,1,,,,,,,,,,,,,,,,,,,,,,,,,,,,,,,,,,,,,,,,,,,,,,,,,,,,,,,584.8159464209999,None,584.8159464209999,None,584.8159464209999,None,m,0,2.7885957690000396,586.3484643549999,None,586.3484643549999,None,586.3484643549999,None,589.198704001,None,589.198704001,None,589.198704001,None,589.198704001,None,,,,,,,,,,,,,,,,,,,,,,,,,,,,,,,,,,,,,,,,,,,,001,102,2020_Feb_11_0929,spring_faces,3.1.5,60.044086890441065,
condition files/Stage1_2.xlsx,,T1,B2,m,"['c', 'm']","['Clue', 'Monopoly']","[-0.15, 0.5]","[0.15, 0.5]",1,1,,,,,,,,,0,7,7,7,0,2,2,2,,,,,,,,,,,,,,,,,,,,,,,,,,,,,,,,,,,,,,,,,,,,,,,,,,,,,,,591.165034992,None,591.165034992,None,591.165034992,None,c,0,0.8543540609998672,592.6987027490001,None,592.6987027490001,None,592.6987027490001,None,593.616050773,None,593.616050773,None,593.616050773,None,593.616050773,None,,,,,,,,,,,,,,,,,,,,,,,,,,,,,,,,,,,,,,,,,,,,001,102,2020_Feb_11_0929,spring_faces,3.1.5,60.044086890441065,
condition files/Stage1_2.xlsx,,B2,T2,m,"['c', 'm']","['Clue', 'Monopoly']","[-0.15, 0.5]","[0.15, 0.5]",1,1,,,,,,,,,0,7,7,7,0,3,3,3,,,,,,,,,,,,,,,,,,,,,,,,,,,,,,,,,,,,,,,,,,,,,,,,,,,,,,,595.5825124899999,None,595.5825124899999,None,595.5825124899999,None,m,1,0.8374967350000588,597.1155589250001,None,597.1155589250001,None,597.1155589250001,None,598.01584999,None,598.01584999,None,598.01584999,None,598.01584999,None,,,,,,,,,,,,,,,,,,,,,,,,,,,,,,,,,,,,,,,,,,,,001,102,2020_Feb_11_0929,spring_faces,3.1.5,60.044086890441065,
condition files/Stage1_2.xlsx,,B3,T4,m,"['c', 'm']","['Clue', 'Monopoly']","[-0.15, 0.5]","[0.15, 0.5]",1,1,,,,,,,,,0,7,7,7,0,4,4,6,,,,,,,,,,,,,,,,,,,,,,,,,,,,,,,,,,,,,,,,,,,,,,,,,,,,,,,599.9824705699999,None,599.9824705699999,None,599.9824705699999,None,c,0,1.156408188999876,601.5326911379999,None,601.5326911379999,None,601.5326911379999,None,602.749222416,None,602.749222416,None,602.749222416,None,602.749222416,None,,,,,,,,,,,,,,,,,,,,,,,,,,,,,,,,,,,,,,,,,,,,001,102,2020_Feb_11_0929,spring_faces,3.1.5,60.044086890441065,
condition files/Stage1_2.xlsx,,B4,T3,c,"['c', 'm']","['Clue', 'Monopoly']","[-0.15, 0.5]","[0.15, 0.5]",1,1,,,,,,,,,0,7,7,7,0,5,5,5,,,,,,,,,,,,,,,,,,,,,,,,,,,,,,,,,,,,,,,,,,,,,,,,,,,,,,,604.715769879,None,604.715769879,None,604.715769879,None,m,0,0.6952185439999994,606.2657920590001,None,606.2657920590001,None,606.2657920590001,None,607.0176371020001,None,607.0176371020001,None,607.0176371020001,None,607.0176371020001,None,,,,,,,,,,,,,,,,,,,,,,,,,,,,,,,,,,,,,,,,,,,,001,102,2020_Feb_11_0929,spring_faces,3.1.5,60.044086890441065,
condition files/Stage1_2.xlsx,,T3,B3,c,"['c', 'm']","['Clue', 'Monopoly']","[-0.15, 0.5]","[0.15, 0.5]",1,1,,,,,,,,,0,7,7,7,0,6,6,4,,,,,,,,,,,,,,,,,,,,,,,,,,,,,,,,,,,,,,,,,,,,,,,,,,,,,,,608.9824418039999,None,608.9824418039999,None,608.9824418039999,None,c,1,0.7483227100001386,610.5167322460001,None,610.5167322460001,None,610.5167322460001,None,611.316194553,None,611.316194553,None,611.316194553,None,611.316194553,None,,,,,,,,,,,,,,,,,,,,,,,,,,,,,,,,,,,,,,,,,,,,001,102,2020_Feb_11_0929,spring_faces,3.1.5,60.044086890441065,
condition files/Stage1_2.xlsx,,B1,T1,c,"['c', 'm']","['Clue', 'Monopoly']","[-0.15, 0.5]","[0.15, 0.5]",1,1,,,,,,,,,0,7,7,7,0,7,7,0,,,,,,,,,,,,,,,,,,,,,,,,,,,,,,,,,,,,,,,,,,,,,,,,,,,,,,,613.2826070719999,None,613.2826070719999,None,613.2826070719999,None,m,0,1.0581847310002104,614.814932746,None,614.814932746,None,614.814932746,None,615.9328978929999,None,615.9328978929999,None,615.9328978929999,None,615.9328978929999,None,,,,,,,,,,,,,,,,,,,,,,,,,,,,,,,,,,,,,,,,,,,,001,102,2020_Feb_11_0929,spring_faces,3.1.5,60.044086890441065,
condition files/Stage1_1.xlsx,,T2,B2,m,"['c', 'm']","['Clue', 'Monopoly']","[-0.15, 0.5]","[0.15, 0.5]",1,1,,,,,,,,,0,8,8,8,0,0,0,3,,,,,,,,,,,,,,,,,,,,,,,,,,,,,,,,,,,,,,,,,,,,,,,,,,,,,,,617.915398432,None,617.915398432,None,617.915398432,None,m,1,1.3680847630000699,619.448902449,None,619.448902449,None,619.448902449,None,620.8993288749999,None,620.8993288749999,None,620.8993288749999,None,620.8993288749999,None,,,,,,,,,,,,,,,,,,,,,,,,,,,,,,,,,,,,,,,,,,,,001,102,2020_Feb_11_0929,spring_faces,3.1.5,60.044086890441065,
condition files/Stage1_1.xlsx,,T4,B3,m,"['c', 'm']","['Clue', 'Monopoly']","[-0.15, 0.5]","[0.15, 0.5]",1,1,,,,,,,,,0,8,8,8,0,1,1,6,,,,,,,,,,,,,,,,,,,,,,,,,,,,,,,,,,,,,,,,,,,,,,,,,,,,,,,622.848917577,None,622.848917577,None,622.848917577,None,c,0,1.3631748489999609,624.3818609649999,None,624.3818609649999,None,624.3818609649999,None,625.7984312959999,None,625.7984312959999,None,625.7984312959999,None,625.7984312959999,None,,,,,,,,,,,,,,,,,,,,,,,,,,,,,,,,,,,,,,,,,,,,001,102,2020_Feb_11_0929,spring_faces,3.1.5,60.044086890441065,
condition files/Stage1_1.xlsx,,T3,B4,c,"['c', 'm']","['Clue', 'Monopoly']","[-0.15, 0.5]","[0.15, 0.5]",1,1,,,,,,,,,0,8,8,8,0,2,2,5,,,,,,,,,,,,,,,,,,,,,,,,,,,,,,,,,,,,,,,,,,,,,,,,,,,,,,,627.76554445,None,627.76554445,None,627.76554445,None,c,1,1.1328316850001556,629.300176416,None,629.300176416,None,629.300176416,None,630.498674884,None,630.498674884,None,630.498674884,None,630.498674884,None,,,,,,,,,,,,,,,,,,,,,,,,,,,,,,,,,,,,,,,,,,,,001,102,2020_Feb_11_0929,spring_faces,3.1.5,60.044086890441065,
condition files/Stage1_1.xlsx,,B3,T3,c,"['c', 'm']","['Clue', 'Monopoly']","[-0.15, 0.5]","[0.15, 0.5]",1,1,,,,,,,,,0,8,8,8,0,3,3,4,,,,,,,,,,,,,,,,,,,,,,,,,,,,,,,,,,,,,,,,,,,,,,,,,,,,,,,632.4650165280001,None,632.4650165280001,None,632.4650165280001,None,m,0,1.1381056970001282,633.998940669,None,633.998940669,None,633.998940669,None,635.1988953019999,None,635.1988953019999,None,635.1988953019999,None,635.1988953019999,None,,,,,,,,,,,,,,,,,,,,,,,,,,,,,,,,,,,,,,,,,,,,001,102,2020_Feb_11_0929,spring_faces,3.1.5,60.044086890441065,
condition files/Stage1_1.xlsx,,B2,T1,m,"['c', 'm']","['Clue', 'Monopoly']","[-0.15, 0.5]","[0.15, 0.5]",1,1,,,,,,,,,0,8,8,8,0,4,4,2,,,,,,,,,,,,,,,,,,,,,,,,,,,,,,,,,,,,,,,,,,,,,,,,,,,,,,,637.1656768409999,None,637.1656768409999,None,637.1656768409999,None,m,1,0.9503973420000875,638.6986128039999,None,638.6986128039999,None,638.6986128039999,None,639.698634066,None,639.698634066,None,639.698634066,None,639.698634066,None,,,,,,,,,,,,,,,,,,,,,,,,,,,,,,,,,,,,,,,,,,,,001,102,2020_Feb_11_0929,spring_faces,3.1.5,60.044086890441065,
condition files/Stage1_1.xlsx,,B4,T4,m,"['c', 'm']","['Clue', 'Monopoly']","[-0.15, 0.5]","[0.15, 0.5]",1,1,,,,,,,,,0,8,8,8,0,5,5,7,,,,,,,,,,,,,,,,,,,,,,,,,,,,,,,,,,,,,,,,,,,,,,,,,,,,,,,641.665140021,None,641.665140021,None,641.665140021,None,c,0,1.0738324700000703,643.1992805010001,None,643.1992805010001,None,643.1992805010001,None,644.331842465,None,644.331842465,None,644.331842465,None,644.331842465,None,,,,,,,,,,,,,,,,,,,,,,,,,,,,,,,,,,,,,,,,,,,,001,102,2020_Feb_11_0929,spring_faces,3.1.5,60.044086890441065,
condition files/Stage1_1.xlsx,,T1,B1,c,"['c', 'm']","['Clue', 'Monopoly']","[-0.15, 0.5]","[0.15, 0.5]",1,1,,,,,,,,,0,8,8,8,0,6,6,0,,,,,,,,,,,,,,,,,,,,,,,,,,,,,,,,,,,,,,,,,,,,,,,,,,,,,,,646.2994552819999,None,646.2994552819999,None,646.2994552819999,None,c,1,1.1444244790000084,647.8325618079999,None,647.8325618079999,None,647.8325618079999,None,649.032601177,None,649.032601177,None,649.032601177,None,649.032601177,None,,,,,,,,,,,,,,,,,,,,,,,,,,,,,,,,,,,,,,,,,,,,001,102,2020_Feb_11_0929,spring_faces,3.1.5,60.044086890441065,
condition files/Stage1_1.xlsx,,B1,T2,c,"['c', 'm']","['Clue', 'Monopoly']","[-0.15, 0.5]","[0.15, 0.5]",1,1,,,,,,,,,0,8,8,8,0,7,7,1,,,,,,,,,,,,,,,,,,,,,,,,,,,,,,,,,,,,,,,,,,,,,,,,,,,,,,,650.9984273409999,None,650.9984273409999,None,650.9984273409999,None,c,1,3.8841260530000454,652.5328843599999,None,652.5328843599999,None,652.5328843599999,None,656.482635553,None,656.482635553,None,656.482635553,None,656.482635553,None,,,,,,,,,,,,,,,,,,,,,,,,,,,,,,,,,,,,,,,,,,,,001,102,2020_Feb_11_0929,spring_faces,3.1.5,60.044086890441065,
condition files/Stage1_2.xlsx,,T2,B1,c,"['c', 'm']","['Clue', 'Monopoly']","[-0.15, 0.5]","[0.15, 0.5]",1,1,,,,,,,,,0,9,9,9,0,0,0,1,,,,,,,,,,,,,,,,,,,,,,,,,,,,,,,,,,,,,,,,,,,,,,,,,,,,,,,658.465423966,None,658.465423966,None,658.465423966,None,c,1,2.272933920000014,660.000198264,None,660.000198264,None,660.000198264,None,662.3327394689999,None,662.3327394689999,None,662.3327394689999,None,662.3327394689999,None,,,,,,,,,,,,,,,,,,,,,,,,,,,,,,,,,,,,,,,,,,,,001,102,2020_Feb_11_0929,spring_faces,3.1.5,60.044086890441065,
condition files/Stage1_2.xlsx,,T3,B3,c,"['c', 'm']","['Clue', 'Monopoly']","[-0.15, 0.5]","[0.15, 0.5]",1,1,,,,,,,,,0,9,9,9,0,1,1,4,,,,,,,,,,,,,,,,,,,,,,,,,,,,,,,,,,,,,,,,,,,,,,,,,,,,,,,664.2989549309999,None,664.2989549309999,None,664.2989549309999,None,m,0,3.2400032680000095,665.8331163920001,None,665.8331163920001,None,665.8331163920001,None,669.131842615,None,669.131842615,None,669.131842615,None,669.131842615,None,,,,,,,,,,,,,,,,,,,,,,,,,,,,,,,,,,,,,,,,,,,,001,102,2020_Feb_11_0929,spring_faces,3.1.5,60.044086890441065,
condition files/Stage1_2.xlsx,,B4,T3,c,"['c', 'm']","['Clue', 'Monopoly']","[-0.15, 0.5]","[0.15, 0.5]",1,1,,,,,,,,,0,9,9,9,0,2,2,5,,,,,,,,,,,,,,,,,,,,,,,,,,,,,,,,,,,,,,,,,,,,,,,,,,,,,,,671.098632007,None,671.098632007,None,671.098632007,None,c,1,2.425120678999974,672.631994878,None,672.631994878,None,672.631994878,None,675.1163485169999,None,675.1163485169999,None,675.1163485169999,None,675.1163485169999,None,,,,,,,,,,,,,,,,,,,,,,,,,,,,,,,,,,,,,,,,,,,,001,102,2020_Feb_11_0929,spring_faces,3.1.5,60.044086890441065,
condition files/Stage1_2.xlsx,,T4,B4,m,"['c', 'm']","['Clue', 'Monopoly']","[-0.15, 0.5]","[0.15, 0.5]",1,1,,,,,,,,,0,9,9,9,0,3,3,7,,,,,,,,,,,,,,,,,,,,,,,,,,,,,,,,,,,,,,,,,,,,,,,,,,,,,,,677.08230494,None,677.08230494,None,677.08230494,None,c,0,1.4008713250000255,678.632133815,None,678.632133815,None,678.632133815,None,680.100722886,None,680.100722886,None,680.100722886,None,680.100722886,None,,,,,,,,,,,,,,,,,,,,,,,,,,,,,,,,,,,,,,,,,,,,001,102,2020_Feb_11_0929,spring_faces,3.1.5,60.044086890441065,
condition files/Stage1_2.xlsx,,B3,T4,m,"['c', 'm']","['Clue', 'Monopoly']","[-0.15, 0.5]","[0.15, 0.5]",1,1,,,,,,,,,0,9,9,9,0,4,4,6,,,,,,,,,,,,,,,,,,,,,,,,,,,,,,,,,,,,,,,,,,,,,,,,,,,,,,,682.0651294119999,None,682.0651294119999,None,682.0651294119999,None,c,0,1.2824568630001068,683.5985786919999,None,683.5985786919999,None,683.5985786919999,None,684.932534682,None,684.932534682,None,684.932534682,None,684.932534682,None,,,,,,,,,,,,,,,,,,,,,,,,,,,,,,,,,,,,,,,,,,,,001,102,2020_Feb_11_0929,spring_faces,3.1.5,60.044086890441065,
condition files/Stage1_2.xlsx,,B1,T1,c,"['c', 'm']","['Clue', 'Monopoly']","[-0.15, 0.5]","[0.15, 0.5]",1,1,,,,,,,,,0,9,9,9,0,5,5,0,,,,,,,,,,,,,,,,,,,,,,,,,,,,,,,,,,,,,,,,,,,,,,,,,,,,,,,686.898521576,None,686.898521576,None,686.898521576,None,m,0,1.615047205999872,688.4339566109999,None,688.4339566109999,None,688.4339566109999,None,690.0984544930001,None,690.0984544930001,None,690.0984544930001,None,690.0984544930001,None,,,,,,,,,,,,,,,,,,,,,,,,,,,,,,,,,,,,,,,,,,,,001,102,2020_Feb_11_0929,spring_faces,3.1.5,60.044086890441065,
condition files/Stage1_2.xlsx,,B2,T2,m,"['c', 'm']","['Clue', 'Monopoly']","[-0.15, 0.5]","[0.15, 0.5]",1,1,,,,,,,,,0,9,9,9,0,6,6,3,,,,,,,,,,,,,,,,,,,,,,,,,,,,,,,,,,,,,,,,,,,,,,,,,,,,,,,692.0649957919999,None,692.0649957919999,None,692.0649957919999,None,m,1,1.648655804999862,693.6003943649999,None,693.6003943649999,None,693.6003943649999,None,695.299985603,None,695.299985603,None,695.299985603,None,695.299985603,None,,,,,,,,,,,,,,,,,,,,,,,,,,,,,,,,,,,,,,,,,,,,001,102,2020_Feb_11_0929,spring_faces,3.1.5,60.044086890441065,
condition files/Stage1_2.xlsx,,T1,B2,m,"['c', 'm']","['Clue', 'Monopoly']","[-0.15, 0.5]","[0.15, 0.5]",1,1,,,,,,,,,0,9,9,9,0,7,7,2,,,,,,,,,,,,,,,,,,,,,,,,,,,,,,,,,,,,,,,,,,,,,,,,,,,,,,,697.2656316199999,None,697.2656316199999,None,697.2656316199999,None,m,1,1.9836264590001065,698.801418941,None,698.801418941,None,698.801418941,None,700.848925012,None,700.848925012,None,700.848925012,None,700.848925012,None,,,,,,,,,,,,,,,,,,,,,,,,,,,,,,,,,,,,,,,,,,,,001,102,2020_Feb_11_0929,spring_faces,3.1.5,60.044086890441065,
condition files/Stage1_1.xlsx,,B4,T4,m,"['c', 'm']","['Clue', 'Monopoly']","[-0.15, 0.5]","[0.15, 0.5]",1,1,,,,,,,,,0,10,10,10,0,0,0,7,,,,,,,,,,,,,,,,,,,,,,,,,,,,,,,,,,,,,,,,,,,,,,,,,,,,,,,702.8327124209999,None,702.8327124209999,None,702.8327124209999,None,m,1,1.3773739239998122,704.3676806980001,None,704.3676806980001,None,704.3676806980001,None,705.7987772759999,None,705.7987772759999,None,705.7987772759999,None,705.7987772759999,None,,,,,,,,,,,,,,,,,,,,,,,,,,,,,,,,,,,,,,,,,,,,001,102,2020_Feb_11_0929,spring_faces,3.1.5,60.044086890441065,
condition files/Stage1_1.xlsx,,B3,T3,c,"['c', 'm']","['Clue', 'Monopoly']","[-0.15, 0.5]","[0.15, 0.5]",1,1,,,,,,,,,0,10,10,10,0,1,1,4,,,,,,,,,,,,,,,,,,,,,,,,,,,,,,,,,,,,,,,,,,,,,,,,,,,,,,,707.7655290250001,None,707.7655290250001,None,707.7655290250001,None,c,1,1.980940647999887,709.316088766,None,709.316088766,None,709.316088766,None,711.349745674,None,711.349745674,None,711.349745674,None,711.349745674,None,,,,,,,,,,,,,,,,,,,,,,,,,,,,,,,,,,,,,,,,,,,,001,102,2020_Feb_11_0929,spring_faces,3.1.5,60.044086890441065,
condition files/Stage1_1.xlsx,,B2,T1,m,"['c', 'm']","['Clue', 'Monopoly']","[-0.15, 0.5]","[0.15, 0.5]",1,1,,,,,,,,,0,10,10,10,0,2,2,2,,,,,,,,,,,,,,,,,,,,,,,,,,,,,,,,,,,,,,,,,,,,,,,,,,,,,,,713.3153321240001,None,713.3153321240001,None,713.3153321240001,None,m,1,1.631148929000119,714.8658752549999,None,714.8658752549999,None,714.8658752549999,None,716.5510249939999,None,716.5510249939999,None,716.5510249939999,None,716.5510249939999,None,,,,,,,,,,,,,,,,,,,,,,,,,,,,,,,,,,,,,,,,,,,,001,102,2020_Feb_11_0929,spring_faces,3.1.5,60.044086890441065,
condition files/Stage1_1.xlsx,,T1,B1,c,"['c', 'm']","['Clue', 'Monopoly']","[-0.15, 0.5]","[0.15, 0.5]",1,1,,,,,,,,,0,10,10,10,0,3,3,0,,,,,,,,,,,,,,,,,,,,,,,,,,,,,,,,,,,,,,,,,,,,,,,,,,,,,,,718.515230348,None,718.515230348,None,718.515230348,None,m,0,3.983764535000091,720.0492412540001,None,720.0492412540001,None,720.0492412540001,None,724.115953031,None,724.115953031,None,724.115953031,None,724.115953031,None,,,,,,,,,,,,,,,,,,,,,,,,,,,,,,,,,,,,,,,,,,,,001,102,2020_Feb_11_0929,spring_faces,3.1.5,60.044086890441065,
condition files/Stage1_1.xlsx,,T4,B3,m,"['c', 'm']","['Clue', 'Monopoly']","[-0.15, 0.5]","[0.15, 0.5]",1,1,,,,,,,,,0,10,10,10,0,4,4,6,,,,,,,,,,,,,,,,,,,,,,,,,,,,,,,,,,,,,,,,,,,,,,,,,,,,,,,726.0655882120001,None,726.0655882120001,None,726.0655882120001,None,m,1,3.568733188999886,727.6003256390001,None,727.6003256390001,None,727.6003256390001,None,731.233545535,None,731.233545535,None,731.233545535,None,731.233545535,None,,,,,,,,,,,,,,,,,,,,,,,,,,,,,,,,,,,,,,,,,,,,001,102,2020_Feb_11_0929,spring_faces,3.1.5,60.044086890441065,
condition files/Stage1_1.xlsx,,T3,B4,c,"['c', 'm']","['Clue', 'Monopoly']","[-0.15, 0.5]","[0.15, 0.5]",1,1,,,,,,,,,0,10,10,10,0,5,5,5,,,,,,,,,,,,,,,,,,,,,,,,,,,,,,,,,,,,,,,,,,,,,,,,,,,,,,,733.198984555,None,733.198984555,None,733.198984555,None,c,1,1.476745906999895,734.7323541439999,None,734.7323541439999,None,734.7323541439999,None,736.282505216,None,736.282505216,None,736.282505216,None,736.282505216,None,,,,,,,,,,,,,,,,,,,,,,,,,,,,,,,,,,,,,,,,,,,,001,102,2020_Feb_11_0929,spring_faces,3.1.5,60.044086890441065,
condition files/Stage1_1.xlsx,,T2,B2,m,"['c', 'm']","['Clue', 'Monopoly']","[-0.15, 0.5]","[0.15, 0.5]",1,1,,,,,,,,,0,10,10,10,0,6,6,3,,,,,,,,,,,,,,,,,,,,,,,,,,,,,,,,,,,,,,,,,,,,,,,,,,,,,,,738.232242056,None,738.232242056,None,738.232242056,None,m,1,1.1952190929998778,739.765826666,None,739.765826666,None,739.765826666,None,741.017513505,None,741.017513505,None,741.017513505,None,741.017513505,None,,,,,,,,,,,,,,,,,,,,,,,,,,,,,,,,,,,,,,,,,,,,001,102,2020_Feb_11_0929,spring_faces,3.1.5,60.044086890441065,
condition files/Stage1_1.xlsx,,B1,T2,c,"['c', 'm']","['Clue', 'Monopoly']","[-0.15, 0.5]","[0.15, 0.5]",1,1,,,,,,,,,0,10,10,10,0,7,7,1,,,,,,,,,,,,,,,,,,,,,,,,,,,,,,,,,,,,,,,,,,,,,,,,,,,,,,,742.981750944,None,742.981750944,None,742.981750944,None,c,1,2.796982157000002,744.5320085750001,None,744.5320085750001,None,744.5320085750001,None,747.383170858,None,747.383170858,None,747.383170858,None,747.383170858,None,,,,,,,,,,,,,,,,,,,,,,,,,,,,,,,,,,,,,,,,,,,,001,102,2020_Feb_11_0929,spring_faces,3.1.5,60.044086890441065,
condition files/Stage1_2.xlsx,,B3,T4,m,"['c', 'm']","['Clue', 'Monopoly']","[-0.15, 0.5]","[0.15, 0.5]",1,1,,,,,,,,,0,11,11,11,0,0,0,6,,,,,,,,,,,,,,,,,,,,,,,,,,,,,,,,,,,,,,,,,,,,,,,,,,,,,,,749.366064338,None,749.366064338,None,749.366064338,None,m,1,3.0056194410001353,750.915418942,None,750.915418942,None,750.915418942,None,753.9989612789999,None,753.9989612789999,None,753.9989612789999,None,753.9989612789999,None,,,,,,,,,,,,,,,,,,,,,,,,,,,,,,,,,,,,,,,,,,,,001,102,2020_Feb_11_0929,spring_faces,3.1.5,60.044086890441065,
condition files/Stage1_2.xlsx,,B1,T1,c,"['c', 'm']","['Clue', 'Monopoly']","[-0.15, 0.5]","[0.15, 0.5]",1,1,,,,,,,,,0,11,11,11,0,1,1,0,,,,,,,,,,,,,,,,,,,,,,,,,,,,,,,,,,,,,,,,,,,,,,,,,,,,,,,755.948198829,None,755.948198829,None,755.948198829,None,c,1,3.877730161000045,757.4992712869999,None,757.4992712869999,None,757.4992712869999,None,761.4328101919999,None,761.4328101919999,None,761.4328101919999,None,761.4328101919999,None,,,,,,,,,,,,,,,,,,,,,,,,,,,,,,,,,,,,,,,,,,,,001,102,2020_Feb_11_0929,spring_faces,3.1.5,60.044086890441065,
condition files/Stage1_2.xlsx,,T3,B3,c,"['c', 'm']","['Clue', 'Monopoly']","[-0.15, 0.5]","[0.15, 0.5]",1,1,,,,,,,,,0,11,11,11,0,2,2,4,,,,,,,,,,,,,,,,,,,,,,,,,,,,,,,,,,,,,,,,,,,,,,,,,,,,,,,763.398817975,None,763.398817975,None,763.398817975,None,c,1,1.3868138959999214,764.934247388,None,764.934247388,None,764.934247388,None,766.3828426379999,None,766.3828426379999,None,766.3828426379999,None,766.3828426379999,None,,,,,,,,,,,,,,,,,,,,,,,,,,,,,,,,,,,,,,,,,,,,001,102,2020_Feb_11_0929,spring_faces,3.1.5,60.044086890441065,
condition files/Stage1_2.xlsx,,T1,B2,m,"['c', 'm']","['Clue', 'Monopoly']","[-0.15, 0.5]","[0.15, 0.5]",1,1,,,,,,,,,0,11,11,11,0,3,3,2,,,,,,,,,,,,,,,,,,,,,,,,,,,,,,,,,,,,,,,,,,,,,,,,,,,,,,,768.3488298789999,None,768.3488298789999,None,768.3488298789999,None,m,1,0.8384343580000859,769.8826188879999,None,769.8826188879999,None,769.8826188879999,None,770.799355023,None,770.799355023,None,770.799355023,None,770.799355023,None,,,,,,,,,,,,,,,,,,,,,,,,,,,,,,,,,,,,,,,,,,,,001,102,2020_Feb_11_0929,spring_faces,3.1.5,60.044086890441065,
condition files/Stage1_2.xlsx,,T4,B4,m,"['c', 'm']","['Clue', 'Monopoly']","[-0.15, 0.5]","[0.15, 0.5]",1,1,,,,,,,,,0,11,11,11,0,4,4,7,,,,,,,,,,,,,,,,,,,,,,,,,,,,,,,,,,,,,,,,,,,,,,,,,,,,,,,772.749157627,None,772.749157627,None,772.749157627,None,m,1,2.246187379000048,774.298846901,None,774.298846901,None,774.298846901,None,776.5993124769999,None,776.5993124769999,None,776.5993124769999,None,776.5993124769999,None,,,,,,,,,,,,,,,,,,,,,,,,,,,,,,,,,,,,,,,,,,,,001,102,2020_Feb_11_0929,spring_faces,3.1.5,60.044086890441065,
condition files/Stage1_2.xlsx,,B2,T2,m,"['c', 'm']","['Clue', 'Monopoly']","[-0.15, 0.5]","[0.15, 0.5]",1,1,,,,,,,,,0,11,11,11,0,5,5,3,,,,,,,,,,,,,,,,,,,,,,,,,,,,,,,,,,,,,,,,,,,,,,,,,,,,,,,778.5655214059999,None,778.5655214059999,None,778.5655214059999,None,c,0,3.3260020630000326,780.0991392929999,None,780.0991392929999,None,780.0991392929999,None,783.482319053,None,783.482319053,None,783.482319053,None,783.482319053,None,,,,,,,,,,,,,,,,,,,,,,,,,,,,,,,,,,,,,,,,,,,,001,102,2020_Feb_11_0929,spring_faces,3.1.5,60.044086890441065,
condition files/Stage1_2.xlsx,,B4,T3,c,"['c', 'm']","['Clue', 'Monopoly']","[-0.15, 0.5]","[0.15, 0.5]",1,1,,,,,,,,,0,11,11,11,0,6,6,5,,,,,,,,,,,,,,,,,,,,,,,,,,,,,,,,,,,,,,,,,,,,,,,,,,,,,,,785.4490646359999,None,785.4490646359999,None,785.4490646359999,None,c,1,1.3214365169999382,786.9836258409999,None,786.9836258409999,None,786.9836258409999,None,788.36588292,None,788.36588292,None,788.36588292,None,788.36588292,None,,,,,,,,,,,,,,,,,,,,,,,,,,,,,,,,,,,,,,,,,,,,001,102,2020_Feb_11_0929,spring_faces,3.1.5,60.044086890441065,
condition files/Stage1_2.xlsx,,T2,B1,c,"['c', 'm']","['Clue', 'Monopoly']","[-0.15, 0.5]","[0.15, 0.5]",1,1,,,,,,,,,0,11,11,11,0,7,7,1,,,,,,,,,,,,,,,,,,,,,,,,,,,,,,,,,,,,,,,,,,,,,,,,,,,,,,,790.332208016,None,790.332208016,None,790.332208016,None,c,1,1.0449776729999485,791.8680706690001,None,791.8680706690001,None,791.8680706690001,None,792.966021158,None,792.966021158,None,792.966021158,None,792.966021158,None,,,,,,,,,,,,,,,,,,,,,,,,,,,,,,,,,,,,,,,,,,,,001,102,2020_Feb_11_0929,spring_faces,3.1.5,60.044086890441065,
,,,,,,,,,,,,,,,,,,,,,,,,,,,,,,,,,,,,,,,,,,,,,,,,,,,,,,,,,,,,,,,,,,,,,,,,,,,,,,,,,,,,,,,,,,,,,,,,,,,,,,,,,,,,,,,,794.9490116210001,None,space,4.339946767000129,799.949163015,None,,,,,,,,,,,,,,,,,,,,,,,,,,,,,,001,102,2020_Feb_11_0929,spring_faces,3.1.5,60.044086890441065,
condition files/Stage2_1.xlsx,,T1,B1,s,"['s', 'r']","['Stratego', 'Risk']","[-0.15, 0.5]","[0.15, 0.5]",1,1,,,,,,,,,,,,,,,,,0,0,0,0,0,0,0,2,,,,,,,,,,,,,,,,,,,,,,,,,,,,,,,,,,,,,,,,,,,,,,,804.366059755,None,804.366059755,None,804.366059755,None,s,1,1.57534693599996,805.8657936779999,None,805.8657936779999,None,805.8657936779999,None,807.500954705,None,807.500954705,None,807.500954705,None,807.500954705,None,,,,,,,,,,,,,,,799.949163015,None,,,,,,,,,,,,,,,,,,,,,,,,,,,,001,102,2020_Feb_11_0929,spring_faces,3.1.5,60.044086890441065,
condition files/Stage2_1.xlsx,,B6,T6,r,"['s', 'r']","['Stratego', 'Risk']","[-0.15, 0.5]","[0.15, 0.5]",1,1,,,,,,,,,,,,,,,,,0,0,0,0,0,1,1,1,,,,,,,,,,,,,,,,,,,,,,,,,,,,,,,,,,,,,,,,,,,,,,,809.465606677,None,809.465606677,None,809.465606677,None,r,1,0.7751933979998284,811.065895326,None,811.065895326,None,811.065895326,None,811.8983822900001,None,811.8983822900001,None,811.8983822900001,None,811.8983822900001,None,,,,,,,,,,,,,,,,,,,,,,,,,,,,,,,,,,,,,,,,,,,,001,102,2020_Feb_11_0929,spring_faces,3.1.5,60.044086890441065,
condition files/Stage2_1.xlsx,,B4,T4,r,"['s', 'r']","['Stratego', 'Risk']","[-0.15, 0.5]","[0.15, 0.5]",1,1,,,,,,,,,,,,,,,,,0,0,0,0,0,2,2,5,,,,,,,,,,,,,,,,,,,,,,,,,,,,,,,,,,,,,,,,,,,,,,,813.865669424,None,813.865669424,None,813.865669424,None,s,0,1.1611890169999697,815.399843498,None,815.399843498,None,815.399843498,None,816.615310986,None,816.615310986,None,816.615310986,None,816.615310986,None,,,,,,,,,,,,,,,,,,,,,,,,,,,,,,,,,,,,,,,,,,,,001,102,2020_Feb_11_0929,spring_faces,3.1.5,60.044086890441065,
condition files/Stage2_1.xlsx,,B2,T2,r,"['s', 'r']","['Stratego', 'Risk']","[-0.15, 0.5]","[0.15, 0.5]",1,1,,,,,,,,,,,,,,,,,0,0,0,0,0,3,3,3,,,,,,,,,,,,,,,,,,,,,,,,,,,,,,,,,,,,,,,,,,,,,,,818.5821229449999,None,818.5821229449999,None,818.5821229449999,None,r,1,0.9095382360001167,820.1156025629999,None,820.1156025629999,None,820.1156025629999,None,821.0823896339999,None,821.0823896339999,None,821.0823896339999,None,821.0823896339999,None,,,,,,,,,,,,,,,,,,,,,,,,,,,,,,,,,,,,,,,,,,,,001,102,2020_Feb_11_0929,spring_faces,3.1.5,60.044086890441065,
condition files/Stage2_1.xlsx,,T5,B5,s,"['s', 'r']","['Stratego', 'Risk']","[-0.15, 0.5]","[0.15, 0.5]",1,1,,,,,,,,,,,,,,,,,0,0,0,0,0,4,4,0,,,,,,,,,,,,,,,,,,,,,,,,,,,,,,,,,,,,,,,,,,,,,,,823.0489804,None,823.0489804,None,823.0489804,None,s,1,1.0798627750000378,824.6494074240001,None,824.6494074240001,None,824.6494074240001,None,825.7825324229999,None,825.7825324229999,None,825.7825324229999,None,825.7825324229999,None,,,,,,,,,,,,,,,,,,,,,,,,,,,,,,,,,,,,,,,,,,,,001,102,2020_Feb_11_0929,spring_faces,3.1.5,60.044086890441065,
condition files/Stage2_1.xlsx,,T3,B3,s,"['s', 'r']","['Stratego', 'Risk']","[-0.15, 0.5]","[0.15, 0.5]",1,1,,,,,,,,,,,,,,,,,0,0,0,0,0,5,5,4,,,,,,,,,,,,,,,,,,,,,,,,,,,,,,,,,,,,,,,,,,,,,,,827.7489304740001,None,827.7489304740001,None,827.7489304740001,None,r,0,2.4305328599998575,829.282500656,None,829.282500656,None,829.282500656,None,831.7658367319999,None,831.7658367319999,None,831.7658367319999,None,831.7658367319999,None,,,,,,,,,,,,,,,,,,,,,,,,,,,,,,,,,,,,,,,,,,,,001,102,2020_Feb_11_0929,spring_faces,3.1.5,60.044086890441065,
condition files/Stage2_2.xlsx,,B1,T1,s,"['s', 'r']","['Stratego', 'Risk']","[-0.15, 0.5]","[0.15, 0.5]",1,1,,,,,,,,,,,,,,,,,0,1,1,1,0,0,0,2,,,,,,,,,,,,,,,,,,,,,,,,,,,,,,,,,,,,,,,,,,,,,,,833.799224556,None,833.799224556,None,833.799224556,None,s,1,0.9417544740001631,835.299349493,None,835.299349493,None,835.299349493,None,836.299420681,None,836.299420681,None,836.299420681,None,836.299420681,None,,,,,,,,,,,,,,,,,,,,,,,,,,,,,,,,,,,,,,,,,,,,001,102,2020_Feb_11_0929,spring_faces,3.1.5,60.044086890441065,
condition files/Stage2_2.xlsx,,B3,T3,s,"['s', 'r']","['Stratego', 'Risk']","[-0.15, 0.5]","[0.15, 0.5]",1,1,,,,,,,,,,,,,,,,,0,1,1,1,0,1,1,4,,,,,,,,,,,,,,,,,,,,,,,,,,,,,,,,,,,,,,,,,,,,,,,838.265359823,None,838.265359823,None,838.265359823,None,r,0,1.0971933680000348,839.8158365349999,None,839.8158365349999,None,839.8158365349999,None,840.96590991,None,840.96590991,None,840.96590991,None,840.96590991,None,,,,,,,,,,,,,,,,,,,,,,,,,,,,,,,,,,,,,,,,,,,,001,102,2020_Feb_11_0929,spring_faces,3.1.5,60.044086890441065,
condition files/Stage2_2.xlsx,,T4,B4,r,"['s', 'r']","['Stratego', 'Risk']","[-0.15, 0.5]","[0.15, 0.5]",1,1,,,,,,,,,,,,,,,,,0,1,1,1,0,2,2,5,,,,,,,,,,,,,,,,,,,,,,,,,,,,,,,,,,,,,,,,,,,,,,,842.9319584179999,None,842.9319584179999,None,842.9319584179999,None,s,0,1.0702907929999128,844.482742408,None,844.482742408,None,844.482742408,None,845.617571289,None,845.617571289,None,845.617571289,None,845.617571289,None,,,,,,,,,,,,,,,,,,,,,,,,,,,,,,,,,,,,,,,,,,,,001,102,2020_Feb_11_0929,spring_faces,3.1.5,60.044086890441065,
condition files/Stage2_2.xlsx,,B5,T5,s,"['s', 'r']","['Stratego', 'Risk']","[-0.15, 0.5]","[0.15, 0.5]",1,1,,,,,,,,,,,,,,,,,0,1,1,1,0,3,3,0,,,,,,,,,,,,,,,,,,,,,,,,,,,,,,,,,,,,,,,,,,,,,,,847.582366106,None,847.582366106,None,847.582366106,None,r,0,0.8842304369998146,849.1327700840001,None,849.1327700840001,None,849.1327700840001,None,850.0830078559999,None,850.0830078559999,None,850.0830078559999,None,850.0830078559999,None,,,,,,,,,,,,,,,,,,,,,,,,,,,,,,,,,,,,,,,,,,,,001,102,2020_Feb_11_0929,spring_faces,3.1.5,60.044086890441065,
condition files/Stage2_2.xlsx,,T2,B2,r,"['s', 'r']","['Stratego', 'Risk']","[-0.15, 0.5]","[0.15, 0.5]",1,1,,,,,,,,,,,,,,,,,0,1,1,1,0,4,4,3,,,,,,,,,,,,,,,,,,,,,,,,,,,,,,,,,,,,,,,,,,,,,,,852.0489993709999,None,852.0489993709999,None,852.0489993709999,None,r,1,0.4663937469999837,853.5986305299999,None,853.5986305299999,None,853.5986305299999,None,854.116272654,None,854.116272654,None,854.116272654,None,854.116272654,None,,,,,,,,,,,,,,,,,,,,,,,,,,,,,,,,,,,,,,,,,,,,001,102,2020_Feb_11_0929,spring_faces,3.1.5,60.044086890441065,
condition files/Stage2_2.xlsx,,T6,B6,r,"['s', 'r']","['Stratego', 'Risk']","[-0.15, 0.5]","[0.15, 0.5]",1,1,,,,,,,,,,,,,,,,,0,1,1,1,0,5,5,1,,,,,,,,,,,,,,,,,,,,,,,,,,,,,,,,,,,,,,,,,,,,,,,856.082337773,None,856.082337773,None,856.082337773,None,s,0,1.5054258569998638,857.615626052,None,857.615626052,None,857.615626052,None,859.1825605079999,None,859.1825605079999,None,859.1825605079999,None,859.1825605079999,None,,,,,,,,,,,,,,,,,,,,,,,,,,,,,,,,,,,,,,,,,,,,001,102,2020_Feb_11_0929,spring_faces,3.1.5,60.044086890441065,
condition files/Stage2_1.xlsx,,T3,B3,s,"['s', 'r']","['Stratego', 'Risk']","[-0.15, 0.5]","[0.15, 0.5]",1,1,,,,,,,,,,,,,,,,,0,2,2,2,0,0,0,4,,,,,,,,,,,,,,,,,,,,,,,,,,,,,,,,,,,,,,,,,,,,,,,861.1659813919999,None,861.1659813919999,None,861.1659813919999,None,s,1,0.9484935160000987,862.7005728089999,None,862.7005728089999,None,862.7005728089999,None,863.701059886,None,863.701059886,None,863.701059886,None,863.701059886,None,,,,,,,,,,,,,,,,,,,,,,,,,,,,,,,,,,,,,,,,,,,,001,102,2020_Feb_11_0929,spring_faces,3.1.5,60.044086890441065,
condition files/Stage2_1.xlsx,,B2,T2,r,"['s', 'r']","['Stratego', 'Risk']","[-0.15, 0.5]","[0.15, 0.5]",1,1,,,,,,,,,,,,,,,,,0,2,2,2,0,1,1,3,,,,,,,,,,,,,,,,,,,,,,,,,,,,,,,,,,,,,,,,,,,,,,,865.665161495,None,865.665161495,None,865.665161495,None,r,1,0.6093683190001684,867.199750652,None,867.199750652,None,867.199750652,None,867.868657028,None,867.868657028,None,867.868657028,None,867.868657028,None,,,,,,,,,,,,,,,,,,,,,,,,,,,,,,,,,,,,,,,,,,,,001,102,2020_Feb_11_0929,spring_faces,3.1.5,60.044086890441065,
condition files/Stage2_1.xlsx,,T1,B1,s,"['s', 'r']","['Stratego', 'Risk']","[-0.15, 0.5]","[0.15, 0.5]",1,1,,,,,,,,,,,,,,,,,0,2,2,2,0,2,2,2,,,,,,,,,,,,,,,,,,,,,,,,,,,,,,,,,,,,,,,,,,,,,,,869.8319852000001,None,869.8319852000001,None,869.8319852000001,None,s,1,0.9237810370000261,871.3653390159999,None,871.3653390159999,None,871.3653390159999,None,872.3514643909999,None,872.3514643909999,None,872.3514643909999,None,872.3514643909999,None,,,,,,,,,,,,,,,,,,,,,,,,,,,,,,,,,,,,,,,,,,,,001,102,2020_Feb_11_0929,spring_faces,3.1.5,60.044086890441065,
condition files/Stage2_1.xlsx,,B4,T4,r,"['s', 'r']","['Stratego', 'Risk']","[-0.15, 0.5]","[0.15, 0.5]",1,1,,,,,,,,,,,,,,,,,0,2,2,2,0,3,3,5,,,,,,,,,,,,,,,,,,,,,,,,,,,,,,,,,,,,,,,,,,,,,,,874.3153510870001,None,874.3153510870001,None,874.3153510870001,None,s,0,1.1424216860000342,875.850632368,None,875.850632368,None,875.850632368,None,877.050332079,None,877.050332079,None,877.050332079,None,877.050332079,None,,,,,,,,,,,,,,,,,,,,,,,,,,,,,,,,,,,,,,,,,,,,001,102,2020_Feb_11_0929,spring_faces,3.1.5,60.044086890441065,
condition files/Stage2_1.xlsx,,T5,B5,s,"['s', 'r']","['Stratego', 'Risk']","[-0.15, 0.5]","[0.15, 0.5]",1,1,,,,,,,,,,,,,,,,,0,2,2,2,0,4,4,0,,,,,,,,,,,,,,,,,,,,,,,,,,,,,,,,,,,,,,,,,,,,,,,879.015594464,None,879.015594464,None,879.015594464,None,s,1,1.0041727959999207,880.5488884309999,None,880.5488884309999,None,880.5488884309999,None,881.618346805,None,881.618346805,None,881.618346805,None,881.618346805,None,,,,,,,,,,,,,,,,,,,,,,,,,,,,,,,,,,,,,,,,,,,,001,102,2020_Feb_11_0929,spring_faces,3.1.5,60.044086890441065,
condition files/Stage2_1.xlsx,,B6,T6,r,"['s', 'r']","['Stratego', 'Risk']","[-0.15, 0.5]","[0.15, 0.5]",1,1,,,,,,,,,,,,,,,,,0,2,2,2,0,5,5,1,,,,,,,,,,,,,,,,,,,,,,,,,,,,,,,,,,,,,,,,,,,,,,,883.582327729,None,883.582327729,None,883.582327729,None,r,1,1.4443678729999192,885.1326651579999,None,885.1326651579999,None,885.1326651579999,None,886.6494077419999,None,886.6494077419999,None,886.6494077419999,None,886.6494077419999,None,,,,,,,,,,,,,,,,,,,,,,,,,,,,,,,,,,,,,,,,,,,,001,102,2020_Feb_11_0929,spring_faces,3.1.5,60.044086890441065,
condition files/Stage2_2.xlsx,,T2,B2,r,"['s', 'r']","['Stratego', 'Risk']","[-0.15, 0.5]","[0.15, 0.5]",1,1,,,,,,,,,,,,,,,,,0,3,3,3,0,0,0,3,,,,,,,,,,,,,,,,,,,,,,,,,,,,,,,,,,,,,,,,,,,,,,,888.616064832,None,888.616064832,None,888.616064832,None,r,1,0.8265356199999587,890.1505179939999,None,890.1505179939999,None,890.1505179939999,None,891.035153853,None,891.035153853,None,891.035153853,None,891.035153853,None,,,,,,,,,,,,,,,,,,,,,,,,,,,,,,,,,,,,,,,,,,,,001,102,2020_Feb_11_0929,spring_faces,3.1.5,60.044086890441065,
condition files/Stage2_2.xlsx,,T4,B4,r,"['s', 'r']","['Stratego', 'Risk']","[-0.15, 0.5]","[0.15, 0.5]",1,1,,,,,,,,,,,,,,,,,0,3,3,3,0,1,1,5,,,,,,,,,,,,,,,,,,,,,,,,,,,,,,,,,,,,,,,,,,,,,,,892.9989226829999,None,892.9989226829999,None,892.9989226829999,None,r,1,2.2189212470000257,894.534138004,None,894.534138004,None,894.534138004,None,896.816036866,None,896.816036866,None,896.816036866,None,896.816036866,None,,,,,,,,,,,,,,,,,,,,,,,,,,,,,,,,,,,,,,,,,,,,001,102,2020_Feb_11_0929,spring_faces,3.1.5,60.044086890441065,
condition files/Stage2_2.xlsx,,B3,T3,s,"['s', 'r']","['Stratego', 'Risk']","[-0.15, 0.5]","[0.15, 0.5]",1,1,,,,,,,,,,,,,,,,,0,3,3,3,0,2,2,4,,,,,,,,,,,,,,,,,,,,,,,,,,,,,,,,,,,,,,,,,,,,,,,898.782167944,None,898.782167944,None,898.782167944,None,s,1,0.9484335549998377,900.332602481,None,900.332602481,None,900.332602481,None,901.3486520140001,None,901.3486520140001,None,901.3486520140001,None,901.3486520140001,None,,,,,,,,,,,,,,,,,,,,,,,,,,,,,,,,,,,,,,,,,,,,001,102,2020_Feb_11_0929,spring_faces,3.1.5,60.044086890441065,
condition files/Stage2_2.xlsx,,T6,B6,r,"['s', 'r']","['Stratego', 'Risk']","[-0.15, 0.5]","[0.15, 0.5]",1,1,,,,,,,,,,,,,,,,,0,3,3,3,0,3,3,1,,,,,,,,,,,,,,,,,,,,,,,,,,,,,,,,,,,,,,,,,,,,,,,903.298266201,None,903.298266201,None,903.298266201,None,r,1,1.2649965759999304,904.832056378,None,904.832056378,None,904.832056378,None,906.150347854,None,906.150347854,None,906.150347854,None,906.150347854,None,,,,,,,,,,,,,,,,,,,,,,,,,,,,,,,,,,,,,,,,,,,,001,102,2020_Feb_11_0929,spring_faces,3.1.5,60.044086890441065,
condition files/Stage2_2.xlsx,,B5,T5,s,"['s', 'r']","['Stratego', 'Risk']","[-0.15, 0.5]","[0.15, 0.5]",1,1,,,,,,,,,,,,,,,,,0,3,3,3,0,4,4,0,,,,,,,,,,,,,,,,,,,,,,,,,,,,,,,,,,,,,,,,,,,,,,,908.115866366,None,908.115866366,None,908.115866366,None,s,1,0.8156887920001736,909.6653398110001,None,909.6653398110001,None,909.6653398110001,None,910.5485953189999,None,910.5485953189999,None,910.5485953189999,None,910.5485953189999,None,,,,,,,,,,,,,,,,,,,,,,,,,,,,,,,,,,,,,,,,,,,,001,102,2020_Feb_11_0929,spring_faces,3.1.5,60.044086890441065,
condition files/Stage2_2.xlsx,,B1,T1,s,"['s', 'r']","['Stratego', 'Risk']","[-0.15, 0.5]","[0.15, 0.5]",1,1,,,,,,,,,,,,,,,,,0,3,3,3,0,5,5,2,,,,,,,,,,,,,,,,,,,,,,,,,,,,,,,,,,,,,,,,,,,,,,,912.4990057829999,None,912.4990057829999,None,912.4990057829999,None,r,0,1.390985580000006,914.034172694,None,914.034172694,None,914.034172694,None,915.482695775,None,915.482695775,None,915.482695775,None,915.482695775,None,,,,,,,,,,,,,,,,,,,,,,,,,,,,,,,,,,,,,,,,,,,,001,102,2020_Feb_11_0929,spring_faces,3.1.5,60.044086890441065,
condition files/Stage2_1.xlsx,,B2,T2,r,"['s', 'r']","['Stratego', 'Risk']","[-0.15, 0.5]","[0.15, 0.5]",1,1,,,,,,,,,,,,,,,,,0,4,4,4,0,0,0,3,,,,,,,,,,,,,,,,,,,,,,,,,,,,,,,,,,,,,,,,,,,,,,,917.4653405390001,None,917.4653405390001,None,917.4653405390001,None,r,1,2.1691669620001903,919.0158837109999,None,919.0158837109999,None,919.0158837109999,None,921.2513708600001,None,921.2513708600001,None,921.2513708600001,None,921.2513708600001,None,,,,,,,,,,,,,,,,,,,,,,,,,,,,,,,,,,,,,,,,,,,,001,102,2020_Feb_11_0929,spring_faces,3.1.5,60.044086890441065,
condition files/Stage2_1.xlsx,,T5,B5,s,"['s', 'r']","['Stratego', 'Risk']","[-0.15, 0.5]","[0.15, 0.5]",1,1,,,,,,,,,,,,,,,,,0,4,4,4,0,1,1,0,,,,,,,,,,,,,,,,,,,,,,,,,,,,,,,,,,,,,,,,,,,,,,,923.215324552,None,923.215324552,None,923.215324552,None,s,1,1.122965307999948,924.7501563740001,None,924.7501563740001,None,924.7501563740001,None,925.9320403190001,None,925.9320403190001,None,925.9320403190001,None,925.9320403190001,None,,,,,,,,,,,,,,,,,,,,,,,,,,,,,,,,,,,,,,,,,,,,001,102,2020_Feb_11_0929,spring_faces,3.1.5,60.044086890441065,
condition files/Stage2_1.xlsx,,T3,B3,s,"['s', 'r']","['Stratego', 'Risk']","[-0.15, 0.5]","[0.15, 0.5]",1,1,,,,,,,,,,,,,,,,,0,4,4,4,0,2,2,4,,,,,,,,,,,,,,,,,,,,,,,,,,,,,,,,,,,,,,,,,,,,,,,927.8983329260001,None,927.8983329260001,None,927.8983329260001,None,s,1,2.823936610000146,929.4491741569999,None,929.4491741569999,None,929.4491741569999,None,932.332177463,None,932.332177463,None,932.332177463,None,932.332177463,None,,,,,,,,,,,,,,,,,,,,,,,,,,,,,,,,,,,,,,,,,,,,001,102,2020_Feb_11_0929,spring_faces,3.1.5,60.044086890441065,
condition files/Stage2_1.xlsx,,B4,T4,r,"['s', 'r']","['Stratego', 'Risk']","[-0.15, 0.5]","[0.15, 0.5]",1,1,,,,,,,,,,,,,,,,,0,4,4,4,0,3,3,5,,,,,,,,,,,,,,,,,,,,,,,,,,,,,,,,,,,,,,,,,,,,,,,934.298734219,None,934.298734219,None,934.298734219,None,r,1,1.3847112419998666,935.832310704,None,935.832310704,None,935.832310704,None,937.298917191,None,937.298917191,None,937.298917191,None,937.298917191,None,,,,,,,,,,,,,,,,,,,,,,,,,,,,,,,,,,,,,,,,,,,,001,102,2020_Feb_11_0929,spring_faces,3.1.5,60.044086890441065,
condition files/Stage2_1.xlsx,,T1,B1,s,"['s', 'r']","['Stratego', 'Risk']","[-0.15, 0.5]","[0.15, 0.5]",1,1,,,,,,,,,,,,,,,,,0,4,4,4,0,4,4,2,,,,,,,,,,,,,,,,,,,,,,,,,,,,,,,,,,,,,,,,,,,,,,,939.248943661,None,939.248943661,None,939.248943661,None,s,1,0.7699198469999828,940.7991287209999,None,940.7991287209999,None,940.7991287209999,None,941.64870618,None,941.64870618,None,941.64870618,None,941.64870618,None,,,,,,,,,,,,,,,,,,,,,,,,,,,,,,,,,,,,,,,,,,,,001,102,2020_Feb_11_0929,spring_faces,3.1.5,60.044086890441065,
condition files/Stage2_1.xlsx,,B6,T6,r,"['s', 'r']","['Stratego', 'Risk']","[-0.15, 0.5]","[0.15, 0.5]",1,1,,,,,,,,,,,,,,,,,0,4,4,4,0,5,5,1,,,,,,,,,,,,,,,,,,,,,,,,,,,,,,,,,,,,,,,,,,,,,,,943.598923833,None,943.598923833,None,943.598923833,None,s,0,2.515897182999879,945.1491335899999,None,945.1491335899999,None,945.1491335899999,None,947.717070502,None,947.717070502,None,947.717070502,None,947.717070502,None,,,,,,,,,,,,,,,,,,,,,,,,,,,,,,,,,,,,,,,,,,,,001,102,2020_Feb_11_0929,spring_faces,3.1.5,60.044086890441065,
condition files/Stage2_2.xlsx,,B5,T5,s,"['s', 'r']","['Stratego', 'Risk']","[-0.15, 0.5]","[0.15, 0.5]",1,1,,,,,,,,,,,,,,,,,0,5,5,5,0,0,0,0,,,,,,,,,,,,,,,,,,,,,,,,,,,,,,,,,,,,,,,,,,,,,,,949.699306675,None,949.699306675,None,949.699306675,None,s,1,1.2310024070000054,951.2340660460001,None,951.2340660460001,None,951.2340660460001,None,952.516651502,None,952.516651502,None,952.516651502,None,952.516651502,None,,,,,,,,,,,,,,,,,,,,,,,,,,,,,,,,,,,,,,,,,,,,001,102,2020_Feb_11_0929,spring_faces,3.1.5,60.044086890441065,
condition files/Stage2_2.xlsx,,T2,B2,r,"['s', 'r']","['Stratego', 'Risk']","[-0.15, 0.5]","[0.15, 0.5]",1,1,,,,,,,,,,,,,,,,,0,5,5,5,0,1,1,3,,,,,,,,,,,,,,,,,,,,,,,,,,,,,,,,,,,,,,,,,,,,,,,954.481533327,None,954.481533327,None,954.481533327,None,r,1,0.896661881,956.0163884519999,None,956.0163884519999,None,956.0163884519999,None,956.9827292389999,None,956.9827292389999,None,956.9827292389999,None,956.9827292389999,None,,,,,,,,,,,,,,,,,,,,,,,,,,,,,,,,,,,,,,,,,,,,001,102,2020_Feb_11_0929,spring_faces,3.1.5,60.044086890441065,
