condsFile,subStage,cue1,cue2,correct,responseKeys,responseNames,cue1Position,cue2Position,cue1Opacity,cue2Opacity,stageLoop0.thisRepN,stageLoop0.thisTrialN,stageLoop0.thisN,stageLoop0.thisIndex,blockLoop0.thisRepN,blockLoop0.thisTrialN,blockLoop0.thisN,blockLoop0.thisIndex,stage1Loop.thisRepN,stage1Loop.thisTrialN,stage1Loop.thisN,stage1Loop.thisIndex,blockLoop1.thisRepN,blockLoop1.thisTrialN,blockLoop1.thisN,blockLoop1.thisIndex,stage2Loop.thisRepN,stage2Loop.thisTrialN,stage2Loop.thisN,stage2Loop.thisIndex,blockLoop2.thisRepN,blockLoop2.thisTrialN,blockLoop2.thisN,blockLoop2.thisIndex,testLoop.thisRepN,testLoop.thisTrialN,testLoop.thisN,testLoop.thisIndex,blockLoopTest.thisRepN,blockLoopTest.thisTrialN,blockLoopTest.thisN,blockLoopTest.thisIndex,cuePics,id_instr_text.started,id_instr_text.stopped,space_to_continue_2.started,space_to_continue_2.stopped,end_instructions_resp_3.keys,end_instructions_resp_3.rt,end_instructions_resp_3.started,end_instructions_resp_3.stopped,id_input_instr.started,id_input_instr.stopped,id_input_rect.started,id_input_rect.stopped,id_input_resp.keys,id_input_resp.rt,id_input_resp.started,id_input_resp.stopped,sonaID,id_input_text.started,id_input_text.stopped,final_text.started,final_text.stopped,instructions.started,instructions.stopped,end_instructions_resp.keys,end_instructions_resp.rt,end_instructions_resp.started,end_instructions_resp.stopped,space_to_continue.started,space_to_continue.stopped,instructions_stage0.started,instructions_stage0.stopped,end_instructions_resp_stage0.keys,end_instructions_resp_stage0.rt,end_instructions_resp_stage0.started,end_instructions_resp_stage0.stopped,space_to_continue_stage0.started,space_to_continue_stage0.stopped,text.started,text.stopped,resp_text1.started,resp_text1.stopped,resp_text2.started,resp_text2.stopped,trial_resp.keys,trial_resp.corr,trial_resp.rt,trial_resp.started,trial_resp.stopped,cue1Image.started,cue1Image.stopped,cue2Image.started,cue2Image.stopped,cue1Image_fb.started,cue1Image_fb.stopped,cue2Image_fb.started,cue2Image_fb.stopped,fb_text_answer.started,fb_text_answer.stopped,feedback_image.started,feedback_image.stopped,instructions_stage1.started,instructions_stage1.stopped,end_instructions_resp_stage1.keys,end_instructions_resp_stage1.rt,end_instructions_resp_stage1.started,end_instructions_resp_stage1.stopped,space_to_continue_stage1.started,space_to_continue_stage1.stopped,instructions_2.started,instructions_2.stopped,end_instructions_resp_2.keys,end_instructions_resp_2.rt,end_instructions_resp_2.started,end_instructions_resp_2.stopped,press_space_to_continue_stage2.started,press_space_to_continue_stage2.stopped,instructions_testStage1.started,instructions_testStage1.stopped,end_instructions_resp_test1.keys,end_instructions_resp_test1.rt,end_instructions_resp_test1.started,end_instructions_resp_test1.stopped,press_space_to_continue_test1.started,press_space_to_continue_test1.stopped,cue1Image_testChoice.started,cue1Image_testChoice.stopped,cue2Image_testChoice.started,cue2Image_testChoice.stopped,test_resp.keys,test_resp.corr,test_resp.rt,test_resp.started,test_resp.stopped,cue1Image_testConf.started,cue1Image_testConf.stopped,cue2Image_testConf.started,cue2Image_testConf.stopped,conf_reminder.started,conf_reminder.stopped,conf_rating.response,conf_rating.rt,conf_rating.started,conf_rating.stopped,session,participant,date,expName,psychopyVersion,frameRate,
,,,,,,,,,,,,,,,,,,,,,,,,,,,,,,,,,,,,,,,,,,,"{'none': 'pictures/20M_AN_C.png', 'alpha': 'pictures/SHINEd_melon.png', 'beta': 'pictures/SHINEd_pepper.png', 'theta': 'pictures/SHINEd_pear.png', 'phi': 'pictures/SHINEd_apple.png', 'T1': 'pictures/25M_AN_C.png', 'T2': 'pictures/33M_AN_C.png', 'T3': 'pictures/34M_AN_C.png', 'T4': 'pictures/31M_AN_C.png', 'T5': 'pictures/23M_AN_C.png', 'T6': 'pictures/37M_AN_C.png', 'B1': 'pictures/22M_NE_C.png', 'B2': 'pictures/32M_NE_C.png', 'B3': 'pictures/36M_NE_C.png', 'B4': 'pictures/20M_NE_C.png', 'B5': 'pictures/38M_NE_C.png', 'B6': 'pictures/26M_NE_C.png'}",26.986629798000195,None,31.953085677000217,None,space,9.422740692999923,31.953085677000217,None,,,,,,,,,,,,,,,,,,,,,,,,,,,,,,,,,,,,,,,,,,,,,,,,,,,,,,,,,,,,,,,,,,,,,,,,,,,,,,,,,,,,,,,,,,,,,,,,001,104,2020_Feb_11_1002,spring_faces,3.1.5,59.998604552533834,
,,,,,,,,,,,,,,,,,,,,,,,,,,,,,,,,,,,,,,,,,,,,,,,,,,,,42.036367841000356,None,42.036367841000356,None,"['m', 'y', 'backspace', 'backspace', '0', '6', '3', '0', 'm', 'y', 'p', 'o', 'u']","[25.45142612599966, 26.04352042699975, 27.515470051999728, 27.883436552999683, 32.47554666799988, 32.95548401699989, 34.44353622399967, 34.84352382799989, 35.899471877999986, 36.3154606549997, 38.41139902299983, 38.6354221749998, 38.85956798999996]",42.036367841000356,None,,,,,,,,,,,,,,,,,,,,,,,,,,,,,,,,,,,,,,,,,,,,,,,,,,,,,,,,,,,,,,,,,,,,,,,,,,,,,,,,,,,,,,,,001,104,2020_Feb_11_1002,spring_faces,3.1.5,59.998604552533834,
,,,,,,,,,,,,,,,,,,,,,,,,,,,,,,,,,,,,,,,,,,,,,,,,,,,,,,,,,,,,0630mypou,42.036367841000356,None,42.036367841000356,None,85.97017537700003,None,space,4.213901575999898,90.9699416540002,None,,,,,,,,,,,,,,,,,,,,,,,,,,,,,,,,,,,,,,,,,,,,,,,,,,,,,,,,,,,,,,,,,,,,,,,,,,,,,001,104,2020_Feb_11_1002,spring_faces,3.1.5,59.998604552533834,
,,,,,,,,,,,,,,,,,,,,,,,,,,,,,,,,,,,,,,,,,,,,,,,,,,,,,,,,,,,,,,,,,,,,,,,90.9699416540002,None,95.21995423900034,None,space,3.2677822359996753,100.22002069300015,None,,,,,,,,,,,,,,,,,,,,,,,,,,,,,,,,,,,,,,,,,,,,,,,,,,,,,,,,,,,,,,,,,,,,,001,104,2020_Feb_11_1002,spring_faces,3.1.5,59.998604552533834,
condition files/Stage0a.xlsx,0a,alpha,none,h,"['h', 'g']","['Chess', 'Go']","[0, 0.5]","[0, 0]",1,0,0,0,0,0,0,0,0,0,,,,,,,,,,,,,,,,,,,,,,,,,,,,,,,,,,,,,,,,,,,,,,,,,,,,,,,,,,,,,100.22002069300015,None,103.669702873,None,103.669702873,None,103.669702873,None,h,1,4.949912145000326,105.35390225900028,None,105.35390225900028,None,105.35390225900028,None,110.39015242300002,None,110.39015242300002,None,110.39015242300002,None,110.39015242300002,None,,,,,,,,,,,,,,,,,,,,,,,,,,,,,,,,,,,,,,,,,,,,001,104,2020_Feb_11_1002,spring_faces,3.1.5,59.998604552533834,
condition files/Stage0a.xlsx,0a,beta,none,g,"['h', 'g']","['Chess', 'Go']","[0, 0.5]","[0, 0]",1,0,0,0,0,0,0,1,1,1,,,,,,,,,,,,,,,,,,,,,,,,,,,,,,,,,,,,,,,,,,,,,,,,,,,,,,,,,,,,,,,112.33609001200011,None,112.33609001200011,None,112.33609001200011,None,g,1,1.0084355920002963,113.90345457500007,None,113.90345457500007,None,113.90345457500007,None,114.98670309700037,None,114.98670309700037,None,114.98670309700037,None,114.98670309700037,None,,,,,,,,,,,,,,,,,,,,,,,,,,,,,,,,,,,,,,,,,,,,001,104,2020_Feb_11_1002,spring_faces,3.1.5,59.998604552533834,
condition files/Stage0a.xlsx,0a,alpha,none,h,"['h', 'g']","['Chess', 'Go']","[0, 0.5]","[0, 0]",1,0,0,1,1,1,0,0,0,0,,,,,,,,,,,,,,,,,,,,,,,,,,,,,,,,,,,,,,,,,,,,,,,,,,,,,,,,,,,,,,,116.95319298899994,None,116.95319298899994,None,116.95319298899994,None,h,1,1.0496197450002,118.48620341700007,None,118.48620341700007,None,118.48620341700007,None,119.58632895400024,None,119.58632895400024,None,119.58632895400024,None,119.58632895400024,None,,,,,,,,,,,,,,,,,,,,,,,,,,,,,,,,,,,,,,,,,,,,001,104,2020_Feb_11_1002,spring_faces,3.1.5,59.998604552533834,
condition files/Stage0a.xlsx,0a,beta,none,g,"['h', 'g']","['Chess', 'Go']","[0, 0.5]","[0, 0]",1,0,0,1,1,1,0,1,1,1,,,,,,,,,,,,,,,,,,,,,,,,,,,,,,,,,,,,,,,,,,,,,,,,,,,,,,,,,,,,,,,121.55266320800001,None,121.55266320800001,None,121.55266320800001,None,g,1,0.5131724620000568,123.08682157800013,None,123.08682157800013,None,123.08682157800013,None,123.65292440800022,None,123.65292440800022,None,123.65292440800022,None,123.65292440800022,None,,,,,,,,,,,,,,,,,,,,,,,,,,,,,,,,,,,,,,,,,,,,001,104,2020_Feb_11_1002,spring_faces,3.1.5,59.998604552533834,
condition files/Stage0a.xlsx,0a,beta,none,g,"['h', 'g']","['Chess', 'Go']","[0, 0.5]","[0, 0]",1,0,0,2,2,2,0,0,0,1,,,,,,,,,,,,,,,,,,,,,,,,,,,,,,,,,,,,,,,,,,,,,,,,,,,,,,,,,,,,,,,125.63656414900015,None,125.63656414900015,None,125.63656414900015,None,g,1,0.8620916960003342,127.16972936799993,None,127.16972936799993,None,127.16972936799993,None,128.08590451200007,None,128.08590451200007,None,128.08590451200007,None,128.08590451200007,None,,,,,,,,,,,,,,,,,,,,,,,,,,,,,,,,,,,,,,,,,,,,001,104,2020_Feb_11_1002,spring_faces,3.1.5,59.998604552533834,
condition files/Stage0a.xlsx,0a,alpha,none,h,"['h', 'g']","['Chess', 'Go']","[0, 0.5]","[0, 0]",1,0,0,2,2,2,0,1,1,0,,,,,,,,,,,,,,,,,,,,,,,,,,,,,,,,,,,,,,,,,,,,,,,,,,,,,,,,,,,,,,,130.05298850999998,None,130.05298850999998,None,130.05298850999998,None,h,1,0.7012695019998318,131.58648272400023,None,131.58648272400023,None,131.58648272400023,None,132.35307665000028,None,132.35307665000028,None,132.35307665000028,None,132.35307665000028,None,,,,,,,,,,,,,,,,,,,,,,,,,,,,,,,,,,,,,,,,,,,,001,104,2020_Feb_11_1002,spring_faces,3.1.5,59.998604552533834,
condition files/Stage0a.xlsx,0a,alpha,none,h,"['h', 'g']","['Chess', 'Go']","[0, 0.5]","[0, 0]",1,0,0,3,3,3,0,0,0,0,,,,,,,,,,,,,,,,,,,,,,,,,,,,,,,,,,,,,,,,,,,,,,,,,,,,,,,,,,,,,,,134.33594493100009,None,134.33594493100009,None,134.33594493100009,None,h,1,0.8823753639999268,135.86945879700033,None,135.86945879700033,None,135.86945879700033,None,136.80271978300016,None,136.80271978300016,None,136.80271978300016,None,136.80271978300016,None,,,,,,,,,,,,,,,,,,,,,,,,,,,,,,,,,,,,,,,,,,,,001,104,2020_Feb_11_1002,spring_faces,3.1.5,59.998604552533834,
condition files/Stage0a.xlsx,0a,beta,none,g,"['h', 'g']","['Chess', 'Go']","[0, 0.5]","[0, 0]",1,0,0,3,3,3,0,1,1,1,,,,,,,,,,,,,,,,,,,,,,,,,,,,,,,,,,,,,,,,,,,,,,,,,,,,,,,,,,,,,,,138.76964152200026,None,138.76964152200026,None,138.76964152200026,None,g,1,0.7684186310002588,140.30340507900019,None,140.30340507900019,None,140.30340507900019,None,141.136716558,None,141.136716558,None,141.136716558,None,141.136716558,None,,,,,,,,,,,,,,,,,,,,,,,,,,,,,,,,,,,,,,,,,,,,001,104,2020_Feb_11_1002,spring_faces,3.1.5,59.998604552533834,
condition files/Stage0a.xlsx,0a,beta,none,g,"['h', 'g']","['Chess', 'Go']","[0, 0.5]","[0, 0]",1,0,0,4,4,4,0,0,0,1,,,,,,,,,,,,,,,,,,,,,,,,,,,,,,,,,,,,,,,,,,,,,,,,,,,,,,,,,,,,,,,143.11935588799997,None,143.11935588799997,None,143.11935588799997,None,g,1,0.9464488770004209,144.6534300080002,None,144.6534300080002,None,144.6534300080002,None,145.6533154550002,None,145.6533154550002,None,145.6533154550002,None,145.6533154550002,None,,,,,,,,,,,,,,,,,,,,,,,,,,,,,,,,,,,,,,,,,,,,001,104,2020_Feb_11_1002,spring_faces,3.1.5,59.998604552533834,
condition files/Stage0a.xlsx,0a,alpha,none,h,"['h', 'g']","['Chess', 'Go']","[0, 0.5]","[0, 0]",1,0,0,4,4,4,0,1,1,0,,,,,,,,,,,,,,,,,,,,,,,,,,,,,,,,,,,,,,,,,,,,,,,,,,,,,,,,,,,,,,,147.61966704199995,None,147.61966704199995,None,147.61966704199995,None,h,1,0.7184827460000633,149.15334300099994,None,149.15334300099994,None,149.15334300099994,None,149.93651780100026,None,149.93651780100026,None,149.93651780100026,None,149.93651780100026,None,,,,,,,,,,,,,,,,,,,,,,,,,,,,,,,,,,,,,,,,,,,,001,104,2020_Feb_11_1002,spring_faces,3.1.5,59.998604552533834,
condition files/Stage0a.xlsx,0a,alpha,none,h,"['h', 'g']","['Chess', 'Go']","[0, 0.5]","[0, 0]",1,0,0,5,5,5,0,0,0,0,,,,,,,,,,,,,,,,,,,,,,,,,,,,,,,,,,,,,,,,,,,,,,,,,,,,,,,,,,,,,,,151.92038002400022,None,151.92038002400022,None,151.92038002400022,None,h,1,1.251134249000188,153.45267853700034,None,153.45267853700034,None,153.45267853700034,None,154.77018797500023,None,154.77018797500023,None,154.77018797500023,None,154.77018797500023,None,,,,,,,,,,,,,,,,,,,,,,,,,,,,,,,,,,,,,,,,,,,,001,104,2020_Feb_11_1002,spring_faces,3.1.5,59.998604552533834,
condition files/Stage0a.xlsx,0a,beta,none,g,"['h', 'g']","['Chess', 'Go']","[0, 0.5]","[0, 0]",1,0,0,5,5,5,0,1,1,1,,,,,,,,,,,,,,,,,,,,,,,,,,,,,,,,,,,,,,,,,,,,,,,,,,,,,,,,,,,,,,,156.73635287100024,None,156.73635287100024,None,156.73635287100024,None,g,1,0.8346477690001848,158.2691511160001,None,158.2691511160001,None,158.2691511160001,None,159.16986726000005,None,159.16986726000005,None,159.16986726000005,None,159.16986726000005,None,,,,,,,,,,,,,,,,,,,,,,,,,,,,,,,,,,,,,,,,,,,,001,104,2020_Feb_11_1002,spring_faces,3.1.5,59.998604552533834,
condition files/Stage0b_1.xlsx,0b,alpha,none,h,"['h', 'g']","['Chess', 'Go']","[-0.15, 0.5]","[0.15, 0.5]",1,0,0,6,6,6,0,0,0,0,,,,,,,,,,,,,,,,,,,,,,,,,,,,,,,,,,,,,,,,,,,,,,,,,,,,,,,,,,,,,,,161.16971104000004,None,161.16971104000004,None,161.16971104000004,None,h,1,1.5373126859999502,162.68653219299995,None,162.68653219299995,None,162.68653219299995,None,164.28633193099995,None,164.28633193099995,None,164.28633193099995,None,164.28633193099995,None,,,,,,,,,,,,,,,,,,,,,,,,,,,,,,,,,,,,,,,,,,,,001,104,2020_Feb_11_1002,spring_faces,3.1.5,59.998604552533834,
condition files/Stage0b_1.xlsx,0b,none,beta,g,"['h', 'g']","['Chess', 'Go']","[-0.15, 0.5]","[0.15, 0.5]",0,1,0,6,6,6,0,1,1,1,,,,,,,,,,,,,,,,,,,,,,,,,,,,,,,,,,,,,,,,,,,,,,,,,,,,,,,,,,,,,,,166.25291182399997,None,166.25291182399997,None,166.25291182399997,None,g,1,0.7244117699997332,167.80349075999993,None,167.80349075999993,None,167.80349075999993,None,168.589473774,None,168.589473774,None,168.589473774,None,168.589473774,None,,,,,,,,,,,,,,,,,,,,,,,,,,,,,,,,,,,,,,,,,,,,001,104,2020_Feb_11_1002,spring_faces,3.1.5,59.998604552533834,
condition files/Stage0b_2.xlsx,0b,none,alpha,h,"['h', 'g']","['Chess', 'Go']","[-0.15, 0.5]","[0.15, 0.5]",0,1,0,7,7,7,0,0,0,0,,,,,,,,,,,,,,,,,,,,,,,,,,,,,,,,,,,,,,,,,,,,,,,,,,,,,,,,,,,,,,,170.58647952599995,None,170.58647952599995,None,170.58647952599995,None,h,1,0.9199478830000771,172.103910369,None,172.103910369,None,172.103910369,None,173.08651654899995,None,173.08651654899995,None,173.08651654899995,None,173.08651654899995,None,,,,,,,,,,,,,,,,,,,,,,,,,,,,,,,,,,,,,,,,,,,,001,104,2020_Feb_11_1002,spring_faces,3.1.5,59.998604552533834,
condition files/Stage0b_2.xlsx,0b,beta,none,g,"['h', 'g']","['Chess', 'Go']","[-0.15, 0.5]","[0.15, 0.5]",1,0,0,7,7,7,0,1,1,1,,,,,,,,,,,,,,,,,,,,,,,,,,,,,,,,,,,,,,,,,,,,,,,,,,,,,,,,,,,,,,,175.0531730050002,None,175.0531730050002,None,175.0531730050002,None,g,1,0.660723550000057,176.60318581699994,None,176.60318581699994,None,176.60318581699994,None,177.3252455830002,None,177.3252455830002,None,177.3252455830002,None,177.3252455830002,None,,,,,,,,,,,,,,,,,,,,,,,,,,,,,,,,,,,,,,,,,,,,001,104,2020_Feb_11_1002,spring_faces,3.1.5,59.998604552533834,
condition files/Stage0b_1.xlsx,0b,alpha,none,h,"['h', 'g']","['Chess', 'Go']","[-0.15, 0.5]","[0.15, 0.5]",1,0,0,8,8,8,0,0,0,0,,,,,,,,,,,,,,,,,,,,,,,,,,,,,,,,,,,,,,,,,,,,,,,,,,,,,,,,,,,,,,,179.30303748699998,None,179.30303748699998,None,179.30303748699998,None,h,1,0.715259518000039,180.83658589200013,None,180.83658589200013,None,180.83658589200013,None,181.60285948799992,None,181.60285948799992,None,181.60285948799992,None,181.60285948799992,None,,,,,,,,,,,,,,,,,,,,,,,,,,,,,,,,,,,,,,,,,,,,001,104,2020_Feb_11_1002,spring_faces,3.1.5,59.998604552533834,
condition files/Stage0b_1.xlsx,0b,none,beta,g,"['h', 'g']","['Chess', 'Go']","[-0.15, 0.5]","[0.15, 0.5]",0,1,0,8,8,8,0,1,1,1,,,,,,,,,,,,,,,,,,,,,,,,,,,,,,,,,,,,,,,,,,,,,,,,,,,,,,,,,,,,,,,183.5694209180001,None,183.5694209180001,None,183.5694209180001,None,g,1,0.8478997300003357,185.11993531300004,None,185.11993531300004,None,185.11993531300004,None,186.0238024790001,None,186.0238024790001,None,186.0238024790001,None,186.0238024790001,None,,,,,,,,,,,,,,,,,,,,,,,,,,,,,,,,,,,,,,,,,,,,001,104,2020_Feb_11_1002,spring_faces,3.1.5,59.998604552533834,
condition files/Stage0b_2.xlsx,0b,beta,none,g,"['h', 'g']","['Chess', 'Go']","[-0.15, 0.5]","[0.15, 0.5]",1,0,0,9,9,9,0,0,0,1,,,,,,,,,,,,,,,,,,,,,,,,,,,,,,,,,,,,,,,,,,,,,,,,,,,,,,,,,,,,,,,188.00269201100036,None,188.00269201100036,None,188.00269201100036,None,g,1,1.194772248999925,189.54106139800024,None,189.54106139800024,None,189.54106139800024,None,190.78650996600027,None,190.78650996600027,None,190.78650996600027,None,190.78650996600027,None,,,,,,,,,,,,,,,,,,,,,,,,,,,,,,,,,,,,,,,,,,,,001,104,2020_Feb_11_1002,spring_faces,3.1.5,59.998604552533834,
condition files/Stage0b_2.xlsx,0b,none,alpha,h,"['h', 'g']","['Chess', 'Go']","[-0.15, 0.5]","[0.15, 0.5]",0,1,0,9,9,9,0,1,1,0,,,,,,,,,,,,,,,,,,,,,,,,,,,,,,,,,,,,,,,,,,,,,,,,,,,,,,,,,,,,,,,192.752989092,None,192.752989092,None,192.752989092,None,h,1,1.1507812400000148,194.28906505800023,None,194.28906505800023,None,194.28906505800023,None,195.50315576399998,None,195.50315576399998,None,195.50315576399998,None,195.50315576399998,None,,,,,,,,,,,,,,,,,,,,,,,,,,,,,,,,,,,,,,,,,,,,001,104,2020_Feb_11_1002,spring_faces,3.1.5,59.998604552533834,
condition files/Stage0b_1.xlsx,0b,alpha,none,h,"['h', 'g']","['Chess', 'Go']","[-0.15, 0.5]","[0.15, 0.5]",1,0,0,10,10,10,0,0,0,0,,,,,,,,,,,,,,,,,,,,,,,,,,,,,,,,,,,,,,,,,,,,,,,,,,,,,,,,,,,,,,,197.4867155410002,None,197.4867155410002,None,197.4867155410002,None,h,1,1.167984074999822,199.02386561799995,None,199.02386561799995,None,199.02386561799995,None,200.25333637199992,None,200.25333637199992,None,200.25333637199992,None,200.25333637199992,None,,,,,,,,,,,,,,,,,,,,,,,,,,,,,,,,,,,,,,,,,,,,001,104,2020_Feb_11_1002,spring_faces,3.1.5,59.998604552533834,
condition files/Stage0b_1.xlsx,0b,none,beta,g,"['h', 'g']","['Chess', 'Go']","[-0.15, 0.5]","[0.15, 0.5]",0,1,0,10,10,10,0,1,1,1,,,,,,,,,,,,,,,,,,,,,,,,,,,,,,,,,,,,,,,,,,,,,,,,,,,,,,,,,,,,,,,202.21940160700024,None,202.21940160700024,None,202.21940160700024,None,g,1,0.9184696300003452,203.75337944700004,None,203.75337944700004,None,203.75337944700004,None,204.73822511400022,None,204.73822511400022,None,204.73822511400022,None,204.73822511400022,None,,,,,,,,,,,,,,,,,,,,,,,,,,,,,,,,,,,,,,,,,,,,001,104,2020_Feb_11_1002,spring_faces,3.1.5,59.998604552533834,
condition files/Stage0b_2.xlsx,0b,none,alpha,h,"['h', 'g']","['Chess', 'Go']","[-0.15, 0.5]","[0.15, 0.5]",0,1,0,11,11,11,0,0,0,0,,,,,,,,,,,,,,,,,,,,,,,,,,,,,,,,,,,,,,,,,,,,,,,,,,,,,,,,,,,,,,,206.71992394200015,None,206.71992394200015,None,206.71992394200015,None,h,1,1.234453492999819,208.25330154700032,None,208.25330154700032,None,208.25330154700032,None,209.55282605399998,None,209.55282605399998,None,209.55282605399998,None,209.55282605399998,None,,,,,,,,,,,,,,,,,,,,,,,,,,,,,,,,,,,,,,,,,,,,001,104,2020_Feb_11_1002,spring_faces,3.1.5,59.998604552533834,
condition files/Stage0b_2.xlsx,0b,beta,none,g,"['h', 'g']","['Chess', 'Go']","[-0.15, 0.5]","[0.15, 0.5]",1,0,0,11,11,11,0,1,1,1,,,,,,,,,,,,,,,,,,,,,,,,,,,,,,,,,,,,,,,,,,,,,,,,,,,,,,,,,,,,,,,211.5194156540001,None,211.5194156540001,None,211.5194156540001,None,g,1,1.0556830639998225,213.05622340300033,None,213.05622340300033,None,213.05622340300033,None,214.17351173600036,None,214.17351173600036,None,214.17351173600036,None,214.17351173600036,None,,,,,,,,,,,,,,,,,,,,,,,,,,,,,,,,,,,,,,,,,,,,001,104,2020_Feb_11_1002,spring_faces,3.1.5,59.998604552533834,
condition files/Stage0c_1.xlsx,0c,beta,theta,g,"['h', 'g']","['Chess', 'Go']","[-0.15, 0.5]","[0.15, 0.5]",1,1,0,12,12,12,0,0,0,2,,,,,,,,,,,,,,,,,,,,,,,,,,,,,,,,,,,,,,,,,,,,,,,,,,,,,,,,,,,,,,,216.15335043100004,None,216.15335043100004,None,216.15335043100004,None,g,1,3.1551261630002045,217.70877899700008,None,217.70877899700008,None,217.70877899700008,None,220.91977730200006,None,220.91977730200006,None,220.91977730200006,None,220.91977730200006,None,,,,,,,,,,,,,,,,,,,,,,,,,,,,,,,,,,,,,,,,,,,,001,104,2020_Feb_11_1002,spring_faces,3.1.5,59.998604552533834,
condition files/Stage0c_1.xlsx,0c,theta,alpha,h,"['h', 'g']","['Chess', 'Go']","[-0.15, 0.5]","[0.15, 0.5]",1,1,0,12,12,12,0,1,1,0,,,,,,,,,,,,,,,,,,,,,,,,,,,,,,,,,,,,,,,,,,,,,,,,,,,,,,,,,,,,,,,222.88628705100018,None,222.88628705100018,None,222.88628705100018,None,h,1,3.6595166360002622,224.42024822400026,None,224.42024822400026,None,224.42024822400026,None,228.13608159900014,None,228.13608159900014,None,228.13608159900014,None,228.13608159900014,None,,,,,,,,,,,,,,,,,,,,,,,,,,,,,,,,,,,,,,,,,,,,001,104,2020_Feb_11_1002,spring_faces,3.1.5,59.998604552533834,
condition files/Stage0c_1.xlsx,0c,phi,beta,g,"['h', 'g']","['Chess', 'Go']","[-0.15, 0.5]","[0.15, 0.5]",1,1,0,12,12,12,0,2,2,3,,,,,,,,,,,,,,,,,,,,,,,,,,,,,,,,,,,,,,,,,,,,,,,,,,,,,,,,,,,,,,,230.10288739700036,None,230.10288739700036,None,230.10288739700036,None,g,1,1.6566436230000363,231.65526510000018,None,231.65526510000018,None,231.65526510000018,None,233.3695675680001,None,233.3695675680001,None,233.3695675680001,None,233.3695675680001,None,,,,,,,,,,,,,,,,,,,,,,,,,,,,,,,,,,,,,,,,,,,,001,104,2020_Feb_11_1002,spring_faces,3.1.5,59.998604552533834,
condition files/Stage0c_1.xlsx,0c,alpha,phi,h,"['h', 'g']","['Chess', 'Go']","[-0.15, 0.5]","[0.15, 0.5]",1,1,0,12,12,12,0,3,3,1,,,,,,,,,,,,,,,,,,,,,,,,,,,,,,,,,,,,,,,,,,,,,,,,,,,,,,,,,,,,,,,235.35331285200027,None,235.35331285200027,None,235.35331285200027,None,h,1,0.9061310390002291,236.86971234400016,None,236.86971234400016,None,236.86971234400016,None,237.8364073480002,None,237.8364073480002,None,237.8364073480002,None,237.8364073480002,None,,,,,,,,,,,,,,,,,,,,,,,,,,,,,,,,,,,,,,,,,,,,001,104,2020_Feb_11_1002,spring_faces,3.1.5,59.998604552533834,
condition files/Stage0c_2.xlsx,0c,alpha,theta,h,"['h', 'g']","['Chess', 'Go']","[-0.15, 0.5]","[0.15, 0.5]",1,1,0,13,13,13,0,0,0,0,,,,,,,,,,,,,,,,,,,,,,,,,,,,,,,,,,,,,,,,,,,,,,,,,,,,,,,,,,,,,,,239.83660749399996,None,239.83660749399996,None,239.83660749399996,None,h,1,1.830487752999943,241.35334839899997,None,241.35334839899997,None,241.35334839899997,None,243.22204927700022,None,243.22204927700022,None,243.22204927700022,None,243.22204927700022,None,,,,,,,,,,,,,,,,,,,,,,,,,,,,,,,,,,,,,,,,,,,,001,104,2020_Feb_11_1002,spring_faces,3.1.5,59.998604552533834,
condition files/Stage0c_2.xlsx,0c,phi,alpha,h,"['h', 'g']","['Chess', 'Go']","[-0.15, 0.5]","[0.15, 0.5]",1,1,0,13,13,13,0,1,1,1,,,,,,,,,,,,,,,,,,,,,,,,,,,,,,,,,,,,,,,,,,,,,,,,,,,,,,,,,,,,,,,245.20304599500014,None,245.20304599500014,None,245.20304599500014,None,h,1,1.1514128029998574,246.73637802600024,None,246.73637802600024,None,246.73637802600024,None,247.95269338800017,None,247.95269338800017,None,247.95269338800017,None,247.95269338800017,None,,,,,,,,,,,,,,,,,,,,,,,,,,,,,,,,,,,,,,,,,,,,001,104,2020_Feb_11_1002,spring_faces,3.1.5,59.998604552533834,
condition files/Stage0c_2.xlsx,0c,theta,beta,g,"['h', 'g']","['Chess', 'Go']","[-0.15, 0.5]","[0.15, 0.5]",1,1,0,13,13,13,0,2,2,2,,,,,,,,,,,,,,,,,,,,,,,,,,,,,,,,,,,,,,,,,,,,,,,,,,,,,,,,,,,,,,,249.91980708000028,None,249.91980708000028,None,249.91980708000028,None,g,1,1.3625121770000987,251.45331766200025,None,251.45331766200025,None,251.45331766200025,None,252.86986695199994,None,252.86986695199994,None,252.86986695199994,None,252.86986695199994,None,,,,,,,,,,,,,,,,,,,,,,,,,,,,,,,,,,,,,,,,,,,,001,104,2020_Feb_11_1002,spring_faces,3.1.5,59.998604552533834,
condition files/Stage0c_2.xlsx,0c,beta,phi,g,"['h', 'g']","['Chess', 'Go']","[-0.15, 0.5]","[0.15, 0.5]",1,1,0,13,13,13,0,3,3,3,,,,,,,,,,,,,,,,,,,,,,,,,,,,,,,,,,,,,,,,,,,,,,,,,,,,,,,,,,,,,,,254.83605441500004,None,254.83605441500004,None,254.83605441500004,None,g,1,0.8617397119996895,256.370105384,None,256.370105384,None,256.370105384,None,257.28596672899994,None,257.28596672899994,None,257.28596672899994,None,257.28596672899994,None,,,,,,,,,,,,,,,,,,,,,,,,,,,,,,,,,,,,,,,,,,,,001,104,2020_Feb_11_1002,spring_faces,3.1.5,59.998604552533834,
condition files/Stage0c_1.xlsx,0c,phi,beta,g,"['h', 'g']","['Chess', 'Go']","[-0.15, 0.5]","[0.15, 0.5]",1,1,0,14,14,14,0,0,0,3,,,,,,,,,,,,,,,,,,,,,,,,,,,,,,,,,,,,,,,,,,,,,,,,,,,,,,,,,,,,,,,259.2698295600003,None,259.2698295600003,None,259.2698295600003,None,g,1,1.1165870650002034,260.8032743450003,None,260.8032743450003,None,260.8032743450003,None,261.9697779930002,None,261.9697779930002,None,261.9697779930002,None,261.9697779930002,None,,,,,,,,,,,,,,,,,,,,,,,,,,,,,,,,,,,,,,,,,,,,001,104,2020_Feb_11_1002,spring_faces,3.1.5,59.998604552533834,
condition files/Stage0c_1.xlsx,0c,theta,alpha,h,"['h', 'g']","['Chess', 'Go']","[-0.15, 0.5]","[0.15, 0.5]",1,1,0,14,14,14,0,1,1,0,,,,,,,,,,,,,,,,,,,,,,,,,,,,,,,,,,,,,,,,,,,,,,,,,,,,,,,,,,,,,,,263.93663823700035,None,263.93663823700035,None,263.93663823700035,None,h,1,1.4098890609998307,265.4699977710002,None,265.4699977710002,None,265.4699977710002,None,266.93657564600016,None,266.93657564600016,None,266.93657564600016,None,266.93657564600016,None,,,,,,,,,,,,,,,,,,,,,,,,,,,,,,,,,,,,,,,,,,,,001,104,2020_Feb_11_1002,spring_faces,3.1.5,59.998604552533834,
condition files/Stage0c_1.xlsx,0c,alpha,phi,h,"['h', 'g']","['Chess', 'Go']","[-0.15, 0.5]","[0.15, 0.5]",1,1,0,14,14,14,0,2,2,1,,,,,,,,,,,,,,,,,,,,,,,,,,,,,,,,,,,,,,,,,,,,,,,,,,,,,,,,,,,,,,,268.9030046820003,None,268.9030046820003,None,268.9030046820003,None,h,1,1.4836461340000824,270.43620291900015,None,270.43620291900015,None,270.43620291900015,None,271.95574295100005,None,271.95574295100005,None,271.95574295100005,None,271.95574295100005,None,,,,,,,,,,,,,,,,,,,,,,,,,,,,,,,,,,,,,,,,,,,,001,104,2020_Feb_11_1002,spring_faces,3.1.5,59.998604552533834,
condition files/Stage0c_1.xlsx,0c,beta,theta,g,"['h', 'g']","['Chess', 'Go']","[-0.15, 0.5]","[0.15, 0.5]",1,1,0,14,14,14,0,3,3,2,,,,,,,,,,,,,,,,,,,,,,,,,,,,,,,,,,,,,,,,,,,,,,,,,,,,,,,,,,,,,,,273.935765488,None,273.935765488,None,273.935765488,None,g,1,1.1697878969998783,275.47003785800007,None,275.47003785800007,None,275.47003785800007,None,276.706178763,None,276.706178763,None,276.706178763,None,276.706178763,None,,,,,,,,,,,,,,,,,,,,,,,,,,,,,,,,,,,,,,,,,,,,001,104,2020_Feb_11_1002,spring_faces,3.1.5,59.998604552533834,
condition files/Stage0c_2.xlsx,0c,theta,beta,g,"['h', 'g']","['Chess', 'Go']","[-0.15, 0.5]","[0.15, 0.5]",1,1,0,15,15,15,0,0,0,2,,,,,,,,,,,,,,,,,,,,,,,,,,,,,,,,,,,,,,,,,,,,,,,,,,,,,,,,,,,,,,,278.6863917210003,None,278.6863917210003,None,278.6863917210003,None,g,1,1.1086388329999863,280.20326578799995,None,280.20326578799995,None,280.20326578799995,None,281.35536402200023,None,281.35536402200023,None,281.35536402200023,None,281.35536402200023,None,,,,,,,,,,,,,,,,,,,,,,,,,,,,,,,,,,,,,,,,,,,,001,104,2020_Feb_11_1002,spring_faces,3.1.5,59.998604552533834,
condition files/Stage0c_2.xlsx,0c,alpha,theta,h,"['h', 'g']","['Chess', 'Go']","[-0.15, 0.5]","[0.15, 0.5]",1,1,0,15,15,15,0,1,1,0,,,,,,,,,,,,,,,,,,,,,,,,,,,,,,,,,,,,,,,,,,,,,,,,,,,,,,,,,,,,,,,283.33628944500015,None,283.33628944500015,None,283.33628944500015,None,h,1,0.7138915999998972,284.86993554200035,None,284.86993554200035,None,284.86993554200035,None,285.63638971499995,None,285.63638971499995,None,285.63638971499995,None,285.63638971499995,None,,,,,,,,,,,,,,,,,,,,,,,,,,,,,,,,,,,,,,,,,,,,001,104,2020_Feb_11_1002,spring_faces,3.1.5,59.998604552533834,
condition files/Stage0c_2.xlsx,0c,phi,alpha,h,"['h', 'g']","['Chess', 'Go']","[-0.15, 0.5]","[0.15, 0.5]",1,1,0,15,15,15,0,2,2,1,,,,,,,,,,,,,,,,,,,,,,,,,,,,,,,,,,,,,,,,,,,,,,,,,,,,,,,,,,,,,,,287.6025893440001,None,287.6025893440001,None,287.6025893440001,None,h,1,1.2795256899999004,289.13630772800025,None,289.13630772800025,None,289.13630772800025,None,290.45620180900005,None,290.45620180900005,None,290.45620180900005,None,290.45620180900005,None,,,,,,,,,,,,,,,,,,,,,,,,,,,,,,,,,,,,,,,,,,,,001,104,2020_Feb_11_1002,spring_faces,3.1.5,59.998604552533834,
condition files/Stage0c_2.xlsx,0c,beta,phi,g,"['h', 'g']","['Chess', 'Go']","[-0.15, 0.5]","[0.15, 0.5]",1,1,0,15,15,15,0,3,3,3,,,,,,,,,,,,,,,,,,,,,,,,,,,,,,,,,,,,,,,,,,,,,,,,,,,,,,,,,,,,,,,292.435787075,None,292.435787075,None,292.435787075,None,g,1,1.0059368249999352,293.96990529799996,None,293.96990529799996,None,293.96990529799996,None,295.03654405700036,None,295.03654405700036,None,295.03654405700036,None,295.03654405700036,None,,,,,,,,,,,,,,,,,,,,,,,,,,,,,,,,,,,,,,,,,,,,001,104,2020_Feb_11_1002,spring_faces,3.1.5,59.998604552533834,
condition files/Stage0c_1.xlsx,0c,alpha,phi,h,"['h', 'g']","['Chess', 'Go']","[-0.15, 0.5]","[0.15, 0.5]",1,1,0,16,16,16,0,0,0,1,,,,,,,,,,,,,,,,,,,,,,,,,,,,,,,,,,,,,,,,,,,,,,,,,,,,,,,,,,,,,,,297.01941237400024,None,297.01941237400024,None,297.01941237400024,None,h,1,1.0791949300000852,298.5526596130003,None,298.5526596130003,None,298.5526596130003,None,299.6858275290001,None,299.6858275290001,None,299.6858275290001,None,299.6858275290001,None,,,,,,,,,,,,,,,,,,,,,,,,,,,,,,,,,,,,,,,,,,,,001,104,2020_Feb_11_1002,spring_faces,3.1.5,59.998604552533834,
condition files/Stage0c_1.xlsx,0c,beta,theta,g,"['h', 'g']","['Chess', 'Go']","[-0.15, 0.5]","[0.15, 0.5]",1,1,0,16,16,16,0,1,1,2,,,,,,,,,,,,,,,,,,,,,,,,,,,,,,,,,,,,,,,,,,,,,,,,,,,,,,,,,,,,,,,301.65299247400026,None,301.65299247400026,None,301.65299247400026,None,g,1,0.9253645610001513,303.1865344130001,None,303.1865344130001,None,303.1865344130001,None,304.16999771400015,None,304.16999771400015,None,304.16999771400015,None,304.16999771400015,None,,,,,,,,,,,,,,,,,,,,,,,,,,,,,,,,,,,,,,,,,,,,001,104,2020_Feb_11_1002,spring_faces,3.1.5,59.998604552533834,
condition files/Stage0c_1.xlsx,0c,phi,beta,g,"['h', 'g']","['Chess', 'Go']","[-0.15, 0.5]","[0.15, 0.5]",1,1,0,16,16,16,0,2,2,3,,,,,,,,,,,,,,,,,,,,,,,,,,,,,,,,,,,,,,,,,,,,,,,,,,,,,,,,,,,,,,,306.13651637500016,None,306.13651637500016,None,306.13651637500016,None,g,1,3.0825473980003153,307.6692788150003,None,307.6692788150003,None,307.6692788150003,None,310.78804369800037,None,310.78804369800037,None,310.78804369800037,None,310.78804369800037,None,,,,,,,,,,,,,,,,,,,,,,,,,,,,,,,,,,,,,,,,,,,,001,104,2020_Feb_11_1002,spring_faces,3.1.5,59.998604552533834,
condition files/Stage0c_1.xlsx,0c,theta,alpha,h,"['h', 'g']","['Chess', 'Go']","[-0.15, 0.5]","[0.15, 0.5]",1,1,0,16,16,16,0,3,3,0,,,,,,,,,,,,,,,,,,,,,,,,,,,,,,,,,,,,,,,,,,,,,,,,,,,,,,,,,,,,,,,312.78598258600005,None,312.78598258600005,None,312.78598258600005,None,h,1,0.8482860680001068,314.3035488360001,None,314.3035488360001,None,314.3035488360001,None,315.20324319500014,None,315.20324319500014,None,315.20324319500014,None,315.20324319500014,None,,,,,,,,,,,,,,,,,,,,,,,,,,,,,,,,,,,,,,,,,,,,001,104,2020_Feb_11_1002,spring_faces,3.1.5,59.998604552533834,
condition files/Stage0c_2.xlsx,0c,phi,alpha,h,"['h', 'g']","['Chess', 'Go']","[-0.15, 0.5]","[0.15, 0.5]",1,1,0,17,17,17,0,0,0,1,,,,,,,,,,,,,,,,,,,,,,,,,,,,,,,,,,,,,,,,,,,,,,,,,,,,,,,,,,,,,,,317.18648490600026,None,317.18648490600026,None,317.18648490600026,None,h,1,1.1363002590001088,318.70355629000005,None,318.70355629000005,None,318.70355629000005,None,319.8888854510001,None,319.8888854510001,None,319.8888854510001,None,319.8888854510001,None,,,,,,,,,,,,,,,,,,,,,,,,,,,,,,,,,,,,,,,,,,,,001,104,2020_Feb_11_1002,spring_faces,3.1.5,59.998604552533834,
condition files/Stage0c_2.xlsx,0c,beta,phi,g,"['h', 'g']","['Chess', 'Go']","[-0.15, 0.5]","[0.15, 0.5]",1,1,0,17,17,17,0,1,1,3,,,,,,,,,,,,,,,,,,,,,,,,,,,,,,,,,,,,,,,,,,,,,,,,,,,,,,,,,,,,,,,321.8694477990002,None,321.8694477990002,None,321.8694477990002,None,g,1,0.8850024909997956,323.40280309300033,None,323.40280309300033,None,323.40280309300033,None,324.35323021700015,None,324.35323021700015,None,324.35323021700015,None,324.35323021700015,None,,,,,,,,,,,,,,,,,,,,,,,,,,,,,,,,,,,,,,,,,,,,001,104,2020_Feb_11_1002,spring_faces,3.1.5,59.998604552533834,
condition files/Stage0c_2.xlsx,0c,theta,beta,g,"['h', 'g']","['Chess', 'Go']","[-0.15, 0.5]","[0.15, 0.5]",1,1,0,17,17,17,0,2,2,2,,,,,,,,,,,,,,,,,,,,,,,,,,,,,,,,,,,,,,,,,,,,,,,,,,,,,,,,,,,,,,,326.31972270999995,None,326.31972270999995,None,326.31972270999995,None,g,1,0.9787296269996659,327.8531258090002,None,327.8531258090002,None,327.8531258090002,None,328.8713385250003,None,328.8713385250003,None,328.8713385250003,None,328.8713385250003,None,,,,,,,,,,,,,,,,,,,,,,,,,,,,,,,,,,,,,,,,,,,,001,104,2020_Feb_11_1002,spring_faces,3.1.5,59.998604552533834,
condition files/Stage0c_2.xlsx,0c,alpha,theta,h,"['h', 'g']","['Chess', 'Go']","[-0.15, 0.5]","[0.15, 0.5]",1,1,0,17,17,17,0,3,3,0,,,,,,,,,,,,,,,,,,,,,,,,,,,,,,,,,,,,,,,,,,,,,,,,,,,,,,,,,,,,,,,330.8531799120001,None,330.8531799120001,None,330.8531799120001,None,h,1,0.7653567130000738,332.3864734020003,None,332.3864734020003,None,332.3864734020003,None,333.2033833600003,None,333.2033833600003,None,333.2033833600003,None,333.2033833600003,None,,,,,,,,,,,,,,,,,,,,,,,,,,,,,,,,,,,,,,,,,,,,001,104,2020_Feb_11_1002,spring_faces,3.1.5,59.998604552533834,
,,,,,,,,,,,,,,,,,,,,,,,,,,,,,,,,,,,,,,,,,,,,,,,,,,,,,,,,,,,,,,,,,,,,,,,,,,,,,,,,,,,,,,,,,,,,,,,,,,,,,,,,335.18660493200014,None,space,1.1415225739997368,340.18640170900017,None,,,,,,,,,,,,,,,,,,,,,,,,,,,,,,,,,,,,,,001,104,2020_Feb_11_1002,spring_faces,3.1.5,59.998604552533834,
condition files/Stage1_1.xlsx,,T4,B3,m,"['c', 'm']","['Clue', 'Monopoly']","[-0.15, 0.5]","[0.15, 0.5]",1,1,,,,,,,,,0,0,0,0,0,0,0,6,,,,,,,,,,,,,,,,,,,,,,,,,,,,,,,,,,,,,,,,,,,,,,,,,,,,,,,341.41960578299995,None,341.41960578299995,None,341.41960578299995,None,m,1,3.7828121450002072,342.96902537000005,None,342.96902537000005,None,342.96902537000005,None,346.83657329100015,None,346.83657329100015,None,346.83657329100015,None,346.83657329100015,None,,,,,,,340.18640170900017,None,,,,,,,,,,,,,,,,,,,,,,,,,,,,,,,,,,,,001,104,2020_Feb_11_1002,spring_faces,3.1.5,59.998604552533834,
condition files/Stage1_1.xlsx,,T1,B1,c,"['c', 'm']","['Clue', 'Monopoly']","[-0.15, 0.5]","[0.15, 0.5]",1,1,,,,,,,,,0,0,0,0,0,1,1,0,,,,,,,,,,,,,,,,,,,,,,,,,,,,,,,,,,,,,,,,,,,,,,,,,,,,,,,348.769722045,None,348.769722045,None,348.769722045,None,c,1,1.9347147690000384,350.3051384780001,None,350.3051384780001,None,350.3051384780001,None,352.302782449,None,352.302782449,None,352.302782449,None,352.302782449,None,,,,,,,,,,,,,,,,,,,,,,,,,,,,,,,,,,,,,,,,,,,,001,104,2020_Feb_11_1002,spring_faces,3.1.5,59.998604552533834,
condition files/Stage1_1.xlsx,,B4,T4,m,"['c', 'm']","['Clue', 'Monopoly']","[-0.15, 0.5]","[0.15, 0.5]",1,1,,,,,,,,,0,0,0,0,0,2,2,7,,,,,,,,,,,,,,,,,,,,,,,,,,,,,,,,,,,,,,,,,,,,,,,,,,,,,,,354.2696301420001,None,354.2696301420001,None,354.2696301420001,None,m,1,1.4114714569996067,355.85245293200023,None,355.85245293200023,None,355.85245293200023,None,357.33678177799993,None,357.33678177799993,None,357.33678177799993,None,357.33678177799993,None,,,,,,,,,,,,,,,,,,,,,,,,,,,,,,,,,,,,,,,,,,,,001,104,2020_Feb_11_1002,spring_faces,3.1.5,59.998604552533834,
condition files/Stage1_1.xlsx,,T3,B4,c,"['c', 'm']","['Clue', 'Monopoly']","[-0.15, 0.5]","[0.15, 0.5]",1,1,,,,,,,,,0,0,0,0,0,3,3,5,,,,,,,,,,,,,,,,,,,,,,,,,,,,,,,,,,,,,,,,,,,,,,,,,,,,,,,359.286225671,None,359.286225671,None,359.286225671,None,c,1,3.099580739999965,360.83625457200014,None,360.83625457200014,None,360.83625457200014,None,364.0029805480003,None,364.0029805480003,None,364.0029805480003,None,364.0029805480003,None,,,,,,,,,,,,,,,,,,,,,,,,,,,,,,,,,,,,,,,,,,,,001,104,2020_Feb_11_1002,spring_faces,3.1.5,59.998604552533834,
condition files/Stage1_1.xlsx,,B3,T3,c,"['c', 'm']","['Clue', 'Monopoly']","[-0.15, 0.5]","[0.15, 0.5]",1,1,,,,,,,,,0,0,0,0,0,4,4,4,,,,,,,,,,,,,,,,,,,,,,,,,,,,,,,,,,,,,,,,,,,,,,,,,,,,,,,365.953118165,None,365.953118165,None,365.953118165,None,c,1,3.200685347000217,367.48712508100016,None,367.48712508100016,None,367.48712508100016,None,370.7529156220003,None,370.7529156220003,None,370.7529156220003,None,370.7529156220003,None,,,,,,,,,,,,,,,,,,,,,,,,,,,,,,,,,,,,,,,,,,,,001,104,2020_Feb_11_1002,spring_faces,3.1.5,59.998604552533834,
condition files/Stage1_1.xlsx,,B2,T1,m,"['c', 'm']","['Clue', 'Monopoly']","[-0.15, 0.5]","[0.15, 0.5]",1,1,,,,,,,,,0,0,0,0,0,5,5,2,,,,,,,,,,,,,,,,,,,,,,,,,,,,,,,,,,,,,,,,,,,,,,,,,,,,,,,372.7199394680001,None,372.7199394680001,None,372.7199394680001,None,m,1,3.2487382250001247,374.3030893800001,None,374.3030893800001,None,374.3030893800001,None,377.6058941020001,None,377.6058941020001,None,377.6058941020001,None,377.6058941020001,None,,,,,,,,,,,,,,,,,,,,,,,,,,,,,,,,,,,,,,,,,,,,001,104,2020_Feb_11_1002,spring_faces,3.1.5,59.998604552533834,
condition files/Stage1_1.xlsx,,T2,B2,m,"['c', 'm']","['Clue', 'Monopoly']","[-0.15, 0.5]","[0.15, 0.5]",1,1,,,,,,,,,0,0,0,0,0,6,6,3,,,,,,,,,,,,,,,,,,,,,,,,,,,,,,,,,,,,,,,,,,,,,,,,,,,,,,,379.5694239270001,None,379.5694239270001,None,379.5694239270001,None,m,1,2.077966669000034,381.12180792200024,None,381.12180792200024,None,381.12180792200024,None,383.2534562430001,None,383.2534562430001,None,383.2534562430001,None,383.2534562430001,None,,,,,,,,,,,,,,,,,,,,,,,,,,,,,,,,,,,,,,,,,,,,001,104,2020_Feb_11_1002,spring_faces,3.1.5,59.998604552533834,
condition files/Stage1_1.xlsx,,B1,T2,c,"['c', 'm']","['Clue', 'Monopoly']","[-0.15, 0.5]","[0.15, 0.5]",1,1,,,,,,,,,0,0,0,0,0,7,7,1,,,,,,,,,,,,,,,,,,,,,,,,,,,,,,,,,,,,,,,,,,,,,,,,,,,,,,,385.21974833800004,None,385.21974833800004,None,385.21974833800004,None,c,1,2.510633162999966,386.7533017280002,None,386.7533017280002,None,386.7533017280002,None,389.3222350330002,None,389.3222350330002,None,389.3222350330002,None,389.3222350330002,None,,,,,,,,,,,,,,,,,,,,,,,,,,,,,,,,,,,,,,,,,,,,001,104,2020_Feb_11_1002,spring_faces,3.1.5,59.998604552533834,
condition files/Stage1_2.xlsx,,T2,B1,c,"['c', 'm']","['Clue', 'Monopoly']","[-0.15, 0.5]","[0.15, 0.5]",1,1,,,,,,,,,0,1,1,1,0,0,0,1,,,,,,,,,,,,,,,,,,,,,,,,,,,,,,,,,,,,,,,,,,,,,,,,,,,,,,,391.32014600499997,None,391.32014600499997,None,391.32014600499997,None,c,1,1.8840165409997098,392.8358201310002,None,392.8358201310002,None,392.8358201310002,None,394.7699112370001,None,394.7699112370001,None,394.7699112370001,None,394.7699112370001,None,,,,,,,,,,,,,,,,,,,,,,,,,,,,,,,,,,,,,,,,,,,,001,104,2020_Feb_11_1002,spring_faces,3.1.5,59.998604552533834,
condition files/Stage1_2.xlsx,,B1,T1,c,"['c', 'm']","['Clue', 'Monopoly']","[-0.15, 0.5]","[0.15, 0.5]",1,1,,,,,,,,,0,1,1,1,0,1,1,0,,,,,,,,,,,,,,,,,,,,,,,,,,,,,,,,,,,,,,,,,,,,,,,,,,,,,,,396.7360925820003,None,396.7360925820003,None,396.7360925820003,None,m,0,4.272617404000357,398.2713049080003,None,398.2713049080003,None,398.2713049080003,None,402.63666894100015,None,402.63666894100015,None,402.63666894100015,None,402.63666894100015,None,,,,,,,,,,,,,,,,,,,,,,,,,,,,,,,,,,,,,,,,,,,,001,104,2020_Feb_11_1002,spring_faces,3.1.5,59.998604552533834,
condition files/Stage1_2.xlsx,,B3,T4,m,"['c', 'm']","['Clue', 'Monopoly']","[-0.15, 0.5]","[0.15, 0.5]",1,1,,,,,,,,,0,1,1,1,0,2,2,6,,,,,,,,,,,,,,,,,,,,,,,,,,,,,,,,,,,,,,,,,,,,,,,,,,,,,,,404.56966930499993,None,404.56966930499993,None,404.56966930499993,None,m,1,1.4002213640001173,406.10357687800024,None,406.10357687800024,None,406.10357687800024,None,407.5868054440002,None,407.5868054440002,None,407.5868054440002,None,407.5868054440002,None,,,,,,,,,,,,,,,,,,,,,,,,,,,,,,,,,,,,,,,,,,,,001,104,2020_Feb_11_1002,spring_faces,3.1.5,59.998604552533834,
condition files/Stage1_2.xlsx,,T3,B3,c,"['c', 'm']","['Clue', 'Monopoly']","[-0.15, 0.5]","[0.15, 0.5]",1,1,,,,,,,,,0,1,1,1,0,3,3,4,,,,,,,,,,,,,,,,,,,,,,,,,,,,,,,,,,,,,,,,,,,,,,,,,,,,,,,409.53638540500015,None,409.53638540500015,None,409.53638540500015,None,c,1,1.584618421000414,411.07123900000033,None,411.07123900000033,None,411.07123900000033,None,412.7365463790002,None,412.7365463790002,None,412.7365463790002,None,412.7365463790002,None,,,,,,,,,,,,,,,,,,,,,,,,,,,,,,,,,,,,,,,,,,,,001,104,2020_Feb_11_1002,spring_faces,3.1.5,59.998604552533834,
condition files/Stage1_2.xlsx,,T1,B2,m,"['c', 'm']","['Clue', 'Monopoly']","[-0.15, 0.5]","[0.15, 0.5]",1,1,,,,,,,,,0,1,1,1,0,4,4,2,,,,,,,,,,,,,,,,,,,,,,,,,,,,,,,,,,,,,,,,,,,,,,,,,,,,,,,414.68632757600017,None,414.68632757600017,None,414.68632757600017,None,m,1,2.4194660480002312,416.2203913980002,None,416.2203913980002,None,416.2203913980002,None,418.71995932400023,None,418.71995932400023,None,418.71995932400023,None,418.71995932400023,None,,,,,,,,,,,,,,,,,,,,,,,,,,,,,,,,,,,,,,,,,,,,001,104,2020_Feb_11_1002,spring_faces,3.1.5,59.998604552533834,
condition files/Stage1_2.xlsx,,B4,T3,c,"['c', 'm']","['Clue', 'Monopoly']","[-0.15, 0.5]","[0.15, 0.5]",1,1,,,,,,,,,0,1,1,1,0,5,5,5,,,,,,,,,,,,,,,,,,,,,,,,,,,,,,,,,,,,,,,,,,,,,,,,,,,,,,,420.6696792490002,None,420.6696792490002,None,420.6696792490002,None,m,0,4.868646098999761,422.2191355780001,None,422.2191355780001,None,422.2191355780001,None,427.15420339699995,None,427.15420339699995,None,427.15420339699995,None,427.15420339699995,None,,,,,,,,,,,,,,,,,,,,,,,,,,,,,,,,,,,,,,,,,,,,001,104,2020_Feb_11_1002,spring_faces,3.1.5,59.998604552533834,
condition files/Stage1_2.xlsx,,B2,T2,m,"['c', 'm']","['Clue', 'Monopoly']","[-0.15, 0.5]","[0.15, 0.5]",1,1,,,,,,,,,0,1,1,1,0,6,6,3,,,,,,,,,,,,,,,,,,,,,,,,,,,,,,,,,,,,,,,,,,,,,,,,,,,,,,,429.11991712500003,None,429.11991712500003,None,429.11991712500003,None,m,1,2.0020848429999205,430.65377468199995,None,430.65377468199995,None,430.65377468199995,None,432.7359463470002,None,432.7359463470002,None,432.7359463470002,None,432.7359463470002,None,,,,,,,,,,,,,,,,,,,,,,,,,,,,,,,,,,,,,,,,,,,,001,104,2020_Feb_11_1002,spring_faces,3.1.5,59.998604552533834,
condition files/Stage1_2.xlsx,,T4,B4,m,"['c', 'm']","['Clue', 'Monopoly']","[-0.15, 0.5]","[0.15, 0.5]",1,1,,,,,,,,,0,1,1,1,0,7,7,7,,,,,,,,,,,,,,,,,,,,,,,,,,,,,,,,,,,,,,,,,,,,,,,,,,,,,,,434.68661612999995,None,434.68661612999995,None,434.68661612999995,None,m,1,3.6991282430003594,436.22072377500035,None,436.22072377500035,None,436.22072377500035,None,439.96984236200024,None,439.96984236200024,None,439.96984236200024,None,439.96984236200024,None,,,,,,,,,,,,,,,,,,,,,,,,,,,,,,,,,,,,,,,,,,,,001,104,2020_Feb_11_1002,spring_faces,3.1.5,59.998604552533834,
condition files/Stage1_1.xlsx,,T2,B2,m,"['c', 'm']","['Clue', 'Monopoly']","[-0.15, 0.5]","[0.15, 0.5]",1,1,,,,,,,,,0,2,2,2,0,0,0,3,,,,,,,,,,,,,,,,,,,,,,,,,,,,,,,,,,,,,,,,,,,,,,,,,,,,,,,441.953247939,None,441.953247939,None,441.953247939,None,c,0,4.496713869999894,443.503231012,None,443.503231012,None,443.503231012,None,448.05254925400004,None,448.05254925400004,None,448.05254925400004,None,448.05254925400004,None,,,,,,,,,,,,,,,,,,,,,,,,,,,,,,,,,,,,,,,,,,,,001,104,2020_Feb_11_1002,spring_faces,3.1.5,59.998604552533834,
condition files/Stage1_1.xlsx,,T3,B4,c,"['c', 'm']","['Clue', 'Monopoly']","[-0.15, 0.5]","[0.15, 0.5]",1,1,,,,,,,,,0,2,2,2,0,1,1,5,,,,,,,,,,,,,,,,,,,,,,,,,,,,,,,,,,,,,,,,,,,,,,,,,,,,,,,450.0197429980003,None,450.0197429980003,None,450.0197429980003,None,m,0,2.991060073999961,451.55286541800024,None,451.55286541800024,None,451.55286541800024,None,454.602675525,None,454.602675525,None,454.602675525,None,454.602675525,None,,,,,,,,,,,,,,,,,,,,,,,,,,,,,,,,,,,,,,,,,,,,001,104,2020_Feb_11_1002,spring_faces,3.1.5,59.998604552533834,
condition files/Stage1_1.xlsx,,B2,T1,m,"['c', 'm']","['Clue', 'Monopoly']","[-0.15, 0.5]","[0.15, 0.5]",1,1,,,,,,,,,0,2,2,2,0,2,2,2,,,,,,,,,,,,,,,,,,,,,,,,,,,,,,,,,,,,,,,,,,,,,,,,,,,,,,,456.569802559,None,456.569802559,None,456.569802559,None,c,0,11.703538141999616,458.1043170140001,None,458.1043170140001,None,458.1043170140001,None,469.87196007400007,None,469.87196007400007,None,469.87196007400007,None,469.87196007400007,None,,,,,,,,,,,,,,,,,,,,,,,,,,,,,,,,,,,,,,,,,,,,001,104,2020_Feb_11_1002,spring_faces,3.1.5,59.998604552533834,
condition files/Stage1_1.xlsx,,T1,B1,c,"['c', 'm']","['Clue', 'Monopoly']","[-0.15, 0.5]","[0.15, 0.5]",1,1,,,,,,,,,0,2,2,2,0,3,3,0,,,,,,,,,,,,,,,,,,,,,,,,,,,,,,,,,,,,,,,,,,,,,,,,,,,,,,,471.836343597,None,471.836343597,None,471.836343597,None,c,1,1.7017031210002642,473.3701479270003,None,473.3701479270003,None,473.3701479270003,None,475.137633111,None,475.137633111,None,475.137633111,None,475.137633111,None,,,,,,,,,,,,,,,,,,,,,,,,,,,,,,,,,,,,,,,,,,,,001,104,2020_Feb_11_1002,spring_faces,3.1.5,59.998604552533834,
condition files/Stage1_1.xlsx,,B1,T2,c,"['c', 'm']","['Clue', 'Monopoly']","[-0.15, 0.5]","[0.15, 0.5]",1,1,,,,,,,,,0,2,2,2,0,4,4,1,,,,,,,,,,,,,,,,,,,,,,,,,,,,,,,,,,,,,,,,,,,,,,,,,,,,,,,477.10297798600004,None,477.10297798600004,None,477.10297798600004,None,m,0,2.3051686320000044,478.6387524830002,None,478.6387524830002,None,478.6387524830002,None,481.00344188400004,None,481.00344188400004,None,481.00344188400004,None,481.00344188400004,None,,,,,,,,,,,,,,,,,,,,,,,,,,,,,,,,,,,,,,,,,,,,001,104,2020_Feb_11_1002,spring_faces,3.1.5,59.998604552533834,
condition files/Stage1_1.xlsx,,B4,T4,m,"['c', 'm']","['Clue', 'Monopoly']","[-0.15, 0.5]","[0.15, 0.5]",1,1,,,,,,,,,0,2,2,2,0,5,5,7,,,,,,,,,,,,,,,,,,,,,,,,,,,,,,,,,,,,,,,,,,,,,,,,,,,,,,,482.96907630900023,None,482.96907630900023,None,482.96907630900023,None,m,1,1.7835555020001266,484.5042598340001,None,484.5042598340001,None,484.5042598340001,None,486.35397649800007,None,486.35397649800007,None,486.35397649800007,None,486.35397649800007,None,,,,,,,,,,,,,,,,,,,,,,,,,,,,,,,,,,,,,,,,,,,,001,104,2020_Feb_11_1002,spring_faces,3.1.5,59.998604552533834,
condition files/Stage1_1.xlsx,,T4,B3,m,"['c', 'm']","['Clue', 'Monopoly']","[-0.15, 0.5]","[0.15, 0.5]",1,1,,,,,,,,,0,2,2,2,0,6,6,6,,,,,,,,,,,,,,,,,,,,,,,,,,,,,,,,,,,,,,,,,,,,,,,,,,,,,,,488.31990215800033,None,488.31990215800033,None,488.31990215800033,None,m,1,1.1538504380000631,489.8699907680002,None,489.8699907680002,None,489.8699907680002,None,491.08626275999995,None,491.08626275999995,None,491.08626275999995,None,491.08626275999995,None,,,,,,,,,,,,,,,,,,,,,,,,,,,,,,,,,,,,,,,,,,,,001,104,2020_Feb_11_1002,spring_faces,3.1.5,59.998604552533834,
condition files/Stage1_1.xlsx,,B3,T3,c,"['c', 'm']","['Clue', 'Monopoly']","[-0.15, 0.5]","[0.15, 0.5]",1,1,,,,,,,,,0,2,2,2,0,7,7,4,,,,,,,,,,,,,,,,,,,,,,,,,,,,,,,,,,,,,,,,,,,,,,,,,,,,,,,493.0528220599999,None,493.0528220599999,None,493.0528220599999,None,c,1,2.021655780000401,494.58620695000036,None,494.58620695000036,None,494.58620695000036,None,496.6720978100002,None,496.6720978100002,None,496.6720978100002,None,496.6720978100002,None,,,,,,,,,,,,,,,,,,,,,,,,,,,,,,,,,,,,,,,,,,,,001,104,2020_Feb_11_1002,spring_faces,3.1.5,59.998604552533834,
condition files/Stage1_2.xlsx,,B1,T1,c,"['c', 'm']","['Clue', 'Monopoly']","[-0.15, 0.5]","[0.15, 0.5]",1,1,,,,,,,,,0,3,3,3,0,0,0,0,,,,,,,,,,,,,,,,,,,,,,,,,,,,,,,,,,,,,,,,,,,,,,,,,,,,,,,498.65308607600036,None,498.65308607600036,None,498.65308607600036,None,c,1,1.8285725390001062,500.2032334300002,None,500.2032334300002,None,500.2032334300002,None,502.085942486,None,502.085942486,None,502.085942486,None,502.085942486,None,,,,,,,,,,,,,,,,,,,,,,,,,,,,,,,,,,,,,,,,,,,,001,104,2020_Feb_11_1002,spring_faces,3.1.5,59.998604552533834,
condition files/Stage1_2.xlsx,,B4,T3,c,"['c', 'm']","['Clue', 'Monopoly']","[-0.15, 0.5]","[0.15, 0.5]",1,1,,,,,,,,,0,3,3,3,0,1,1,5,,,,,,,,,,,,,,,,,,,,,,,,,,,,,,,,,,,,,,,,,,,,,,,,,,,,,,,504.0529481570002,None,504.0529481570002,None,504.0529481570002,None,c,1,3.659406506999858,505.5883973990003,None,505.5883973990003,None,505.5883973990003,None,509.3027672200001,None,509.3027672200001,None,509.3027672200001,None,509.3027672200001,None,,,,,,,,,,,,,,,,,,,,,,,,,,,,,,,,,,,,,,,,,,,,001,104,2020_Feb_11_1002,spring_faces,3.1.5,59.998604552533834,
condition files/Stage1_2.xlsx,,T3,B3,c,"['c', 'm']","['Clue', 'Monopoly']","[-0.15, 0.5]","[0.15, 0.5]",1,1,,,,,,,,,0,3,3,3,0,2,2,4,,,,,,,,,,,,,,,,,,,,,,,,,,,,,,,,,,,,,,,,,,,,,,,,,,,,,,,511.2696492990003,None,511.2696492990003,None,511.2696492990003,None,c,1,2.4930256680004277,512.8029121190002,None,512.8029121190002,None,512.8029121190002,None,515.3527299430002,None,515.3527299430002,None,515.3527299430002,None,515.3527299430002,None,,,,,,,,,,,,,,,,,,,,,,,,,,,,,,,,,,,,,,,,,,,,001,104,2020_Feb_11_1002,spring_faces,3.1.5,59.998604552533834,
condition files/Stage1_2.xlsx,,T1,B2,m,"['c', 'm']","['Clue', 'Monopoly']","[-0.15, 0.5]","[0.15, 0.5]",1,1,,,,,,,,,0,3,3,3,0,3,3,2,,,,,,,,,,,,,,,,,,,,,,,,,,,,,,,,,,,,,,,,,,,,,,,,,,,,,,,517.319721979,None,517.319721979,None,517.319721979,None,m,1,1.9765268299997842,518.8552967580003,None,518.8552967580003,None,518.8552967580003,None,520.9031606359999,None,520.9031606359999,None,520.9031606359999,None,520.9031606359999,None,,,,,,,,,,,,,,,,,,,,,,,,,,,,,,,,,,,,,,,,,,,,001,104,2020_Feb_11_1002,spring_faces,3.1.5,59.998604552533834,
condition files/Stage1_2.xlsx,,B2,T2,m,"['c', 'm']","['Clue', 'Monopoly']","[-0.15, 0.5]","[0.15, 0.5]",1,1,,,,,,,,,0,3,3,3,0,4,4,3,,,,,,,,,,,,,,,,,,,,,,,,,,,,,,,,,,,,,,,,,,,,,,,,,,,,,,,522.8531335150001,None,522.8531335150001,None,522.8531335150001,None,c,0,1.7553619390000677,524.3885617840001,None,524.3885617840001,None,524.3885617840001,None,526.2031974230003,None,526.2031974230003,None,526.2031974230003,None,526.2031974230003,None,,,,,,,,,,,,,,,,,,,,,,,,,,,,,,,,,,,,,,,,,,,,001,104,2020_Feb_11_1002,spring_faces,3.1.5,59.998604552533834,
condition files/Stage1_2.xlsx,,T2,B1,c,"['c', 'm']","['Clue', 'Monopoly']","[-0.15, 0.5]","[0.15, 0.5]",1,1,,,,,,,,,0,3,3,3,0,5,5,1,,,,,,,,,,,,,,,,,,,,,,,,,,,,,,,,,,,,,,,,,,,,,,,,,,,,,,,528.1696384460001,None,528.1696384460001,None,528.1696384460001,None,c,1,3.4158408309999686,529.704034588,None,529.704034588,None,529.704034588,None,533.1702307400001,None,533.1702307400001,None,533.1702307400001,None,533.1702307400001,None,,,,,,,,,,,,,,,,,,,,,,,,,,,,,,,,,,,,,,,,,,,,001,104,2020_Feb_11_1002,spring_faces,3.1.5,59.998604552533834,
condition files/Stage1_2.xlsx,,T4,B4,m,"['c', 'm']","['Clue', 'Monopoly']","[-0.15, 0.5]","[0.15, 0.5]",1,1,,,,,,,,,0,3,3,3,0,6,6,7,,,,,,,,,,,,,,,,,,,,,,,,,,,,,,,,,,,,,,,,,,,,,,,,,,,,,,,535.1363545260001,None,535.1363545260001,None,535.1363545260001,None,m,1,1.8257405560002553,536.6861716080002,None,536.6861716080002,None,536.6861716080002,None,538.5694857240001,None,538.5694857240001,None,538.5694857240001,None,538.5694857240001,None,,,,,,,,,,,,,,,,,,,,,,,,,,,,,,,,,,,,,,,,,,,,001,104,2020_Feb_11_1002,spring_faces,3.1.5,59.998604552533834,
condition files/Stage1_2.xlsx,,B3,T4,m,"['c', 'm']","['Clue', 'Monopoly']","[-0.15, 0.5]","[0.15, 0.5]",1,1,,,,,,,,,0,3,3,3,0,7,7,6,,,,,,,,,,,,,,,,,,,,,,,,,,,,,,,,,,,,,,,,,,,,,,,,,,,,,,,540.5367801530001,None,540.5367801530001,None,540.5367801530001,None,m,1,1.289079738000055,542.0868271460004,None,542.0868271460004,None,542.0868271460004,None,543.4362658340001,None,543.4362658340001,None,543.4362658340001,None,543.4362658340001,None,,,,,,,,,,,,,,,,,,,,,,,,,,,,,,,,,,,,,,,,,,,,001,104,2020_Feb_11_1002,spring_faces,3.1.5,59.998604552533834,
condition files/Stage1_1.xlsx,,T2,B2,m,"['c', 'm']","['Clue', 'Monopoly']","[-0.15, 0.5]","[0.15, 0.5]",1,1,,,,,,,,,0,4,4,4,0,0,0,3,,,,,,,,,,,,,,,,,,,,,,,,,,,,,,,,,,,,,,,,,,,,,,,,,,,,,,,545.4198514899999,None,545.4198514899999,None,545.4198514899999,None,m,1,1.7026171690004048,546.9532625880001,None,546.9532625880001,None,546.9532625880001,None,548.7191229230002,None,548.7191229230002,None,548.7191229230002,None,548.7191229230002,None,,,,,,,,,,,,,,,,,,,,,,,,,,,,,,,,,,,,,,,,,,,,001,104,2020_Feb_11_1002,spring_faces,3.1.5,59.998604552533834,
condition files/Stage1_1.xlsx,,T1,B1,c,"['c', 'm']","['Clue', 'Monopoly']","[-0.15, 0.5]","[0.15, 0.5]",1,1,,,,,,,,,0,4,4,4,0,1,1,0,,,,,,,,,,,,,,,,,,,,,,,,,,,,,,,,,,,,,,,,,,,,,,,,,,,,,,,550.6863706920003,None,550.6863706920003,None,550.6863706920003,None,c,1,1.8109738970001672,552.2368373630002,None,552.2368373630002,None,552.2368373630002,None,554.1198453250004,None,554.1198453250004,None,554.1198453250004,None,554.1198453250004,None,,,,,,,,,,,,,,,,,,,,,,,,,,,,,,,,,,,,,,,,,,,,001,104,2020_Feb_11_1002,spring_faces,3.1.5,59.998604552533834,
condition files/Stage1_1.xlsx,,T4,B3,m,"['c', 'm']","['Clue', 'Monopoly']","[-0.15, 0.5]","[0.15, 0.5]",1,1,,,,,,,,,0,4,4,4,0,2,2,6,,,,,,,,,,,,,,,,,,,,,,,,,,,,,,,,,,,,,,,,,,,,,,,,,,,,,,,556.0698740330004,None,556.0698740330004,None,556.0698740330004,None,m,1,0.8751985269996112,557.6047173810002,None,557.6047173810002,None,557.6047173810002,None,558.5385097600001,None,558.5385097600001,None,558.5385097600001,None,558.5385097600001,None,,,,,,,,,,,,,,,,,,,,,,,,,,,,,,,,,,,,,,,,,,,,001,104,2020_Feb_11_1002,spring_faces,3.1.5,59.998604552533834,
condition files/Stage1_1.xlsx,,B2,T1,m,"['c', 'm']","['Clue', 'Monopoly']","[-0.15, 0.5]","[0.15, 0.5]",1,1,,,,,,,,,0,4,4,4,0,3,3,2,,,,,,,,,,,,,,,,,,,,,,,,,,,,,,,,,,,,,,,,,,,,,,,,,,,,,,,560.5030354720002,None,560.5030354720002,None,560.5030354720002,None,c,0,2.7148144339998908,562.053021054,None,562.053021054,None,562.053021054,None,564.81992661,None,564.81992661,None,564.81992661,None,564.81992661,None,,,,,,,,,,,,,,,,,,,,,,,,,,,,,,,,,,,,,,,,,,,,001,104,2020_Feb_11_1002,spring_faces,3.1.5,59.998604552533834,
condition files/Stage1_1.xlsx,,B1,T2,c,"['c', 'm']","['Clue', 'Monopoly']","[-0.15, 0.5]","[0.15, 0.5]",1,1,,,,,,,,,0,4,4,4,0,4,4,1,,,,,,,,,,,,,,,,,,,,,,,,,,,,,,,,,,,,,,,,,,,,,,,,,,,,,,,566.78638796,None,566.78638796,None,566.78638796,None,c,1,1.6457900790001077,568.3220617350003,None,568.3220617350003,None,568.3220617350003,None,570.0199002180002,None,570.0199002180002,None,570.0199002180002,None,570.0199002180002,None,,,,,,,,,,,,,,,,,,,,,,,,,,,,,,,,,,,,,,,,,,,,001,104,2020_Feb_11_1002,spring_faces,3.1.5,59.998604552533834,
condition files/Stage1_1.xlsx,,B4,T4,m,"['c', 'm']","['Clue', 'Monopoly']","[-0.15, 0.5]","[0.15, 0.5]",1,1,,,,,,,,,0,4,4,4,0,5,5,7,,,,,,,,,,,,,,,,,,,,,,,,,,,,,,,,,,,,,,,,,,,,,,,,,,,,,,,571.9863878230003,None,571.9863878230003,None,571.9863878230003,None,m,1,1.1664794540001822,573.521302306,None,573.521302306,None,573.521302306,None,574.7698825870002,None,574.7698825870002,None,574.7698825870002,None,574.7698825870002,None,,,,,,,,,,,,,,,,,,,,,,,,,,,,,,,,,,,,,,,,,,,,001,104,2020_Feb_11_1002,spring_faces,3.1.5,59.998604552533834,
condition files/Stage1_1.xlsx,,T3,B4,c,"['c', 'm']","['Clue', 'Monopoly']","[-0.15, 0.5]","[0.15, 0.5]",1,1,,,,,,,,,0,4,4,4,0,6,6,5,,,,,,,,,,,,,,,,,,,,,,,,,,,,,,,,,,,,,,,,,,,,,,,,,,,,,,,576.7196764960004,None,576.7196764960004,None,576.7196764960004,None,c,1,3.5364440129997092,578.2553876350003,None,578.2553876350003,None,578.2553876350003,None,581.853447171,None,581.853447171,None,581.853447171,None,581.853447171,None,,,,,,,,,,,,,,,,,,,,,,,,,,,,,,,,,,,,,,,,,,,,001,104,2020_Feb_11_1002,spring_faces,3.1.5,59.998604552533834,
condition files/Stage1_1.xlsx,,B3,T3,c,"['c', 'm']","['Clue', 'Monopoly']","[-0.15, 0.5]","[0.15, 0.5]",1,1,,,,,,,,,0,4,4,4,0,7,7,4,,,,,,,,,,,,,,,,,,,,,,,,,,,,,,,,,,,,,,,,,,,,,,,,,,,,,,,583.8197385230001,None,583.8197385230001,None,583.8197385230001,None,c,1,1.5083889270003965,585.3555400640003,None,585.3555400640003,None,585.3555400640003,None,586.9201085140003,None,586.9201085140003,None,586.9201085140003,None,586.9201085140003,None,,,,,,,,,,,,,,,,,,,,,,,,,,,,,,,,,,,,,,,,,,,,001,104,2020_Feb_11_1002,spring_faces,3.1.5,59.998604552533834,
condition files/Stage1_2.xlsx,,T3,B3,c,"['c', 'm']","['Clue', 'Monopoly']","[-0.15, 0.5]","[0.15, 0.5]",1,1,,,,,,,,,0,5,5,5,0,0,0,4,,,,,,,,,,,,,,,,,,,,,,,,,,,,,,,,,,,,,,,,,,,,,,,,,,,,,,,588.9031563930002,None,588.9031563930002,None,588.9031563930002,None,c,1,1.1783361580000928,590.4375247340004,None,590.4375247340004,None,590.4375247340004,None,591.6698574400002,None,591.6698574400002,None,591.6698574400002,None,591.6698574400002,None,,,,,,,,,,,,,,,,,,,,,,,,,,,,,,,,,,,,,,,,,,,,001,104,2020_Feb_11_1002,spring_faces,3.1.5,59.998604552533834,
condition files/Stage1_2.xlsx,,B1,T1,c,"['c', 'm']","['Clue', 'Monopoly']","[-0.15, 0.5]","[0.15, 0.5]",1,1,,,,,,,,,0,5,5,5,0,1,1,0,,,,,,,,,,,,,,,,,,,,,,,,,,,,,,,,,,,,,,,,,,,,,,,,,,,,,,,593.6363227390002,None,593.6363227390002,None,593.6363227390002,None,c,1,1.6613482550001208,595.1864472890002,None,595.1864472890002,None,595.1864472890002,None,596.9024986720001,None,596.9024986720001,None,596.9024986720001,None,596.9024986720001,None,,,,,,,,,,,,,,,,,,,,,,,,,,,,,,,,,,,,,,,,,,,,001,104,2020_Feb_11_1002,spring_faces,3.1.5,59.998604552533834,
condition files/Stage1_2.xlsx,,T4,B4,m,"['c', 'm']","['Clue', 'Monopoly']","[-0.15, 0.5]","[0.15, 0.5]",1,1,,,,,,,,,0,5,5,5,0,2,2,7,,,,,,,,,,,,,,,,,,,,,,,,,,,,,,,,,,,,,,,,,,,,,,,,,,,,,,,598.86971782,None,598.86971782,None,598.86971782,None,m,1,1.1952383520001604,600.4047582440003,None,600.4047582440003,None,600.4047582440003,None,601.6537628220003,None,601.6537628220003,None,601.6537628220003,None,601.6537628220003,None,,,,,,,,,,,,,,,,,,,,,,,,,,,,,,,,,,,,,,,,,,,,001,104,2020_Feb_11_1002,spring_faces,3.1.5,59.998604552533834,
condition files/Stage1_2.xlsx,,B2,T2,m,"['c', 'm']","['Clue', 'Monopoly']","[-0.15, 0.5]","[0.15, 0.5]",1,1,,,,,,,,,0,5,5,5,0,3,3,3,,,,,,,,,,,,,,,,,,,,,,,,,,,,,,,,,,,,,,,,,,,,,,,,,,,,,,,603.619696577,None,603.619696577,None,603.619696577,None,m,1,2.206552444999943,605.1533598800002,None,605.1533598800002,None,605.1533598800002,None,607.4196845040001,None,607.4196845040001,None,607.4196845040001,None,607.4196845040001,None,,,,,,,,,,,,,,,,,,,,,,,,,,,,,,,,,,,,,,,,,,,,001,104,2020_Feb_11_1002,spring_faces,3.1.5,59.998604552533834,
condition files/Stage1_2.xlsx,,T2,B1,c,"['c', 'm']","['Clue', 'Monopoly']","[-0.15, 0.5]","[0.15, 0.5]",1,1,,,,,,,,,0,5,5,5,0,4,4,1,,,,,,,,,,,,,,,,,,,,,,,,,,,,,,,,,,,,,,,,,,,,,,,,,,,,,,,609.3864873870002,None,609.3864873870002,None,609.3864873870002,None,c,1,1.448394050999923,610.919437,None,610.919437,None,610.919437,None,612.4223159880003,None,612.4223159880003,None,612.4223159880003,None,612.4223159880003,None,,,,,,,,,,,,,,,,,,,,,,,,,,,,,,,,,,,,,,,,,,,,001,104,2020_Feb_11_1002,spring_faces,3.1.5,59.998604552533834,
condition files/Stage1_2.xlsx,,B4,T3,c,"['c', 'm']","['Clue', 'Monopoly']","[-0.15, 0.5]","[0.15, 0.5]",1,1,,,,,,,,,0,5,5,5,0,5,5,5,,,,,,,,,,,,,,,,,,,,,,,,,,,,,,,,,,,,,,,,,,,,,,,,,,,,,,,614.3862915560003,None,614.3862915560003,None,614.3862915560003,None,c,1,2.3357076409997717,615.9361650300002,None,615.9361650300002,None,615.9361650300002,None,618.336680208,None,618.336680208,None,618.336680208,None,618.336680208,None,,,,,,,,,,,,,,,,,,,,,,,,,,,,,,,,,,,,,,,,,,,,001,104,2020_Feb_11_1002,spring_faces,3.1.5,59.998604552533834,
condition files/Stage1_2.xlsx,,B3,T4,m,"['c', 'm']","['Clue', 'Monopoly']","[-0.15, 0.5]","[0.15, 0.5]",1,1,,,,,,,,,0,5,5,5,0,6,6,6,,,,,,,,,,,,,,,,,,,,,,,,,,,,,,,,,,,,,,,,,,,,,,,,,,,,,,,620.3026993920002,None,620.3026993920002,None,620.3026993920002,None,m,1,0.9145479589997194,621.8532824900003,None,621.8532824900003,None,621.8532824900003,None,622.820164108,None,622.820164108,None,622.820164108,None,622.820164108,None,,,,,,,,,,,,,,,,,,,,,,,,,,,,,,,,,,,,,,,,,,,,001,104,2020_Feb_11_1002,spring_faces,3.1.5,59.998604552533834,
condition files/Stage1_2.xlsx,,T1,B2,m,"['c', 'm']","['Clue', 'Monopoly']","[-0.15, 0.5]","[0.15, 0.5]",1,1,,,,,,,,,0,5,5,5,0,7,7,2,,,,,,,,,,,,,,,,,,,,,,,,,,,,,,,,,,,,,,,,,,,,,,,,,,,,,,,624.7861434609999,None,624.7861434609999,None,624.7861434609999,None,m,1,3.4713915880001878,626.336449248,None,626.336449248,None,626.336449248,None,629.8691842190001,None,629.8691842190001,None,629.8691842190001,None,629.8691842190001,None,,,,,,,,,,,,,,,,,,,,,,,,,,,,,,,,,,,,,,,,,,,,001,104,2020_Feb_11_1002,spring_faces,3.1.5,59.998604552533834,
condition files/Stage1_1.xlsx,,B3,T3,c,"['c', 'm']","['Clue', 'Monopoly']","[-0.15, 0.5]","[0.15, 0.5]",1,1,,,,,,,,,0,6,6,6,0,0,0,4,,,,,,,,,,,,,,,,,,,,,,,,,,,,,,,,,,,,,,,,,,,,,,,,,,,,,,,631.8526340510002,None,631.8526340510002,None,631.8526340510002,None,c,1,1.8931346029999077,633.386784929,None,633.386784929,None,633.386784929,None,635.3391250150003,None,635.3391250150003,None,635.3391250150003,None,635.3391250150003,None,,,,,,,,,,,,,,,,,,,,,,,,,,,,,,,,,,,,,,,,,,,,001,104,2020_Feb_11_1002,spring_faces,3.1.5,59.998604552533834,
condition files/Stage1_1.xlsx,,T2,B2,m,"['c', 'm']","['Clue', 'Monopoly']","[-0.15, 0.5]","[0.15, 0.5]",1,1,,,,,,,,,0,6,6,6,0,1,1,3,,,,,,,,,,,,,,,,,,,,,,,,,,,,,,,,,,,,,,,,,,,,,,,,,,,,,,,637.302991179,None,637.302991179,None,637.302991179,None,m,1,2.9875276219995612,638.836351463,None,638.836351463,None,638.836351463,None,641.9032284790001,None,641.9032284790001,None,641.9032284790001,None,641.9032284790001,None,,,,,,,,,,,,,,,,,,,,,,,,,,,,,,,,,,,,,,,,,,,,001,104,2020_Feb_11_1002,spring_faces,3.1.5,59.998604552533834,
condition files/Stage1_1.xlsx,,T1,B1,c,"['c', 'm']","['Clue', 'Monopoly']","[-0.15, 0.5]","[0.15, 0.5]",1,1,,,,,,,,,0,6,6,6,0,2,2,0,,,,,,,,,,,,,,,,,,,,,,,,,,,,,,,,,,,,,,,,,,,,,,,,,,,,,,,643.8531288460003,None,643.8531288460003,None,643.8531288460003,None,c,1,1.189034195000204,645.3868926590003,None,645.3868926590003,None,645.3868926590003,None,646.6376887740003,None,646.6376887740003,None,646.6376887740003,None,646.6376887740003,None,,,,,,,,,,,,,,,,,,,,,,,,,,,,,,,,,,,,,,,,,,,,001,104,2020_Feb_11_1002,spring_faces,3.1.5,59.998604552533834,
condition files/Stage1_1.xlsx,,B1,T2,c,"['c', 'm']","['Clue', 'Monopoly']","[-0.15, 0.5]","[0.15, 0.5]",1,1,,,,,,,,,0,6,6,6,0,3,3,1,,,,,,,,,,,,,,,,,,,,,,,,,,,,,,,,,,,,,,,,,,,,,,,,,,,,,,,648.6024404080003,None,648.6024404080003,None,648.6024404080003,None,c,1,1.318148729999848,650.137704875,None,650.137704875,None,650.137704875,None,651.5197028550001,None,651.5197028550001,None,651.5197028550001,None,651.5197028550001,None,,,,,,,,,,,,,,,,,,,,,,,,,,,,,,,,,,,,,,,,,,,,001,104,2020_Feb_11_1002,spring_faces,3.1.5,59.998604552533834,
condition files/Stage1_1.xlsx,,T3,B4,c,"['c', 'm']","['Clue', 'Monopoly']","[-0.15, 0.5]","[0.15, 0.5]",1,1,,,,,,,,,0,6,6,6,0,4,4,5,,,,,,,,,,,,,,,,,,,,,,,,,,,,,,,,,,,,,,,,,,,,,,,,,,,,,,,653.4862234450002,None,653.4862234450002,None,653.4862234450002,None,c,1,1.4428737220000585,655.0210607150002,None,655.0210607150002,None,655.0210607150002,None,656.5199436130001,None,656.5199436130001,None,656.5199436130001,None,656.5199436130001,None,,,,,,,,,,,,,,,,,,,,,,,,,,,,,,,,,,,,,,,,,,,,001,104,2020_Feb_11_1002,spring_faces,3.1.5,59.998604552533834,
condition files/Stage1_1.xlsx,,B4,T4,m,"['c', 'm']","['Clue', 'Monopoly']","[-0.15, 0.5]","[0.15, 0.5]",1,1,,,,,,,,,0,6,6,6,0,5,5,7,,,,,,,,,,,,,,,,,,,,,,,,,,,,,,,,,,,,,,,,,,,,,,,,,,,,,,,658.4856142060003,None,658.4856142060003,None,658.4856142060003,None,m,1,0.8276404430002913,660.0201768490001,None,660.0201768490001,None,660.0201768490001,None,660.9057803559999,None,660.9057803559999,None,660.9057803559999,None,660.9057803559999,None,,,,,,,,,,,,,,,,,,,,,,,,,,,,,,,,,,,,,,,,,,,,001,104,2020_Feb_11_1002,spring_faces,3.1.5,59.998604552533834,
condition files/Stage1_1.xlsx,,B2,T1,m,"['c', 'm']","['Clue', 'Monopoly']","[-0.15, 0.5]","[0.15, 0.5]",1,1,,,,,,,,,0,6,6,6,0,6,6,2,,,,,,,,,,,,,,,,,,,,,,,,,,,,,,,,,,,,,,,,,,,,,,,,,,,,,,,662.8696952810001,None,662.8696952810001,None,662.8696952810001,None,m,1,3.820916854999723,664.4029525260003,None,664.4029525260003,None,664.4029525260003,None,668.2867649610002,None,668.2867649610002,None,668.2867649610002,None,668.2867649610002,None,,,,,,,,,,,,,,,,,,,,,,,,,,,,,,,,,,,,,,,,,,,,001,104,2020_Feb_11_1002,spring_faces,3.1.5,59.998604552533834,
condition files/Stage1_1.xlsx,,T4,B3,m,"['c', 'm']","['Clue', 'Monopoly']","[-0.15, 0.5]","[0.15, 0.5]",1,1,,,,,,,,,0,6,6,6,0,7,7,6,,,,,,,,,,,,,,,,,,,,,,,,,,,,,,,,,,,,,,,,,,,,,,,,,,,,,,,670.253026973,None,670.253026973,None,670.253026973,None,m,1,1.0935575879998396,671.7863461020002,None,671.7863461020002,None,671.7863461020002,None,672.936538599,None,672.936538599,None,672.936538599,None,672.936538599,None,,,,,,,,,,,,,,,,,,,,,,,,,,,,,,,,,,,,,,,,,,,,001,104,2020_Feb_11_1002,spring_faces,3.1.5,59.998604552533834,
condition files/Stage1_2.xlsx,,B1,T1,c,"['c', 'm']","['Clue', 'Monopoly']","[-0.15, 0.5]","[0.15, 0.5]",1,1,,,,,,,,,0,7,7,7,0,0,0,0,,,,,,,,,,,,,,,,,,,,,,,,,,,,,,,,,,,,,,,,,,,,,,,,,,,,,,,674.9198231760001,None,674.9198231760001,None,674.9198231760001,None,c,1,1.38476793000018,676.4551045410003,None,676.4551045410003,None,676.4551045410003,None,677.9197945690003,None,677.9197945690003,None,677.9197945690003,None,677.9197945690003,None,,,,,,,,,,,,,,,,,,,,,,,,,,,,,,,,,,,,,,,,,,,,001,104,2020_Feb_11_1002,spring_faces,3.1.5,59.998604552533834,
condition files/Stage1_2.xlsx,,T4,B4,m,"['c', 'm']","['Clue', 'Monopoly']","[-0.15, 0.5]","[0.15, 0.5]",1,1,,,,,,,,,0,7,7,7,0,1,1,7,,,,,,,,,,,,,,,,,,,,,,,,,,,,,,,,,,,,,,,,,,,,,,,,,,,,,,,679.8697642420002,None,679.8697642420002,None,679.8697642420002,None,m,1,0.7720971569997346,681.4197378050003,None,681.4197378050003,None,681.4197378050003,None,682.2529357460003,None,682.2529357460003,None,682.2529357460003,None,682.2529357460003,None,,,,,,,,,,,,,,,,,,,,,,,,,,,,,,,,,,,,,,,,,,,,001,104,2020_Feb_11_1002,spring_faces,3.1.5,59.998604552533834,
condition files/Stage1_2.xlsx,,T3,B3,c,"['c', 'm']","['Clue', 'Monopoly']","[-0.15, 0.5]","[0.15, 0.5]",1,1,,,,,,,,,0,7,7,7,0,2,2,4,,,,,,,,,,,,,,,,,,,,,,,,,,,,,,,,,,,,,,,,,,,,,,,,,,,,,,,684.2196330209999,None,684.2196330209999,None,684.2196330209999,None,c,1,1.8763734750000367,685.755474818,None,685.755474818,None,685.755474818,None,687.6880314760001,None,687.6880314760001,None,687.6880314760001,None,687.6880314760001,None,,,,,,,,,,,,,,,,,,,,,,,,,,,,,,,,,,,,,,,,,,,,001,104,2020_Feb_11_1002,spring_faces,3.1.5,59.998604552533834,
condition files/Stage1_2.xlsx,,B2,T2,m,"['c', 'm']","['Clue', 'Monopoly']","[-0.15, 0.5]","[0.15, 0.5]",1,1,,,,,,,,,0,7,7,7,0,3,3,3,,,,,,,,,,,,,,,,,,,,,,,,,,,,,,,,,,,,,,,,,,,,,,,,,,,,,,,689.6532892310001,None,689.6532892310001,None,689.6532892310001,None,m,1,1.3887912559998767,691.1871407890003,None,691.1871407890003,None,691.1871407890003,None,692.652754444,None,692.652754444,None,692.652754444,None,692.652754444,None,,,,,,,,,,,,,,,,,,,,,,,,,,,,,,,,,,,,,,,,,,,,001,104,2020_Feb_11_1002,spring_faces,3.1.5,59.998604552533834,
condition files/Stage1_2.xlsx,,T2,B1,c,"['c', 'm']","['Clue', 'Monopoly']","[-0.15, 0.5]","[0.15, 0.5]",1,1,,,,,,,,,0,7,7,7,0,4,4,1,,,,,,,,,,,,,,,,,,,,,,,,,,,,,,,,,,,,,,,,,,,,,,,,,,,,,,,694.6029807260002,None,694.6029807260002,None,694.6029807260002,None,c,1,1.6052821419998509,696.138651278,None,696.138651278,None,696.138651278,None,697.8028264520003,None,697.8028264520003,None,697.8028264520003,None,697.8028264520003,None,,,,,,,,,,,,,,,,,,,,,,,,,,,,,,,,,,,,,,,,,,,,001,104,2020_Feb_11_1002,spring_faces,3.1.5,59.998604552533834,
condition files/Stage1_2.xlsx,,T1,B2,m,"['c', 'm']","['Clue', 'Monopoly']","[-0.15, 0.5]","[0.15, 0.5]",1,1,,,,,,,,,0,7,7,7,0,5,5,2,,,,,,,,,,,,,,,,,,,,,,,,,,,,,,,,,,,,,,,,,,,,,,,,,,,,,,,699.7697248640002,None,699.7697248640002,None,699.7697248640002,None,m,1,2.1662614490001033,701.3055755640003,None,701.3055755640003,None,701.3055755640003,None,703.553344643,None,703.553344643,None,703.553344643,None,703.553344643,None,,,,,,,,,,,,,,,,,,,,,,,,,,,,,,,,,,,,,,,,,,,,001,104,2020_Feb_11_1002,spring_faces,3.1.5,59.998604552533834,
condition files/Stage1_2.xlsx,,B3,T4,m,"['c', 'm']","['Clue', 'Monopoly']","[-0.15, 0.5]","[0.15, 0.5]",1,1,,,,,,,,,0,7,7,7,0,6,6,6,,,,,,,,,,,,,,,,,,,,,,,,,,,,,,,,,,,,,,,,,,,,,,,,,,,,,,,705.5028462160003,None,705.5028462160003,None,705.5028462160003,None,m,1,1.0735791819997758,707.038343745,None,707.038343745,None,707.038343745,None,708.1696670710003,None,708.1696670710003,None,708.1696670710003,None,708.1696670710003,None,,,,,,,,,,,,,,,,,,,,,,,,,,,,,,,,,,,,,,,,,,,,001,104,2020_Feb_11_1002,spring_faces,3.1.5,59.998604552533834,
condition files/Stage1_2.xlsx,,B4,T3,c,"['c', 'm']","['Clue', 'Monopoly']","[-0.15, 0.5]","[0.15, 0.5]",1,1,,,,,,,,,0,7,7,7,0,7,7,5,,,,,,,,,,,,,,,,,,,,,,,,,,,,,,,,,,,,,,,,,,,,,,,,,,,,,,,710.1362411620003,None,710.1362411620003,None,710.1362411620003,None,c,1,1.0812994640000397,711.6865365130002,None,711.6865365130002,None,711.6865365130002,None,712.8216272140003,None,712.8216272140003,None,712.8216272140003,None,712.8216272140003,None,,,,,,,,,,,,,,,,,,,,,,,,,,,,,,,,,,,,,,,,,,,,001,104,2020_Feb_11_1002,spring_faces,3.1.5,59.998604552533834,
condition files/Stage1_1.xlsx,,T2,B2,m,"['c', 'm']","['Clue', 'Monopoly']","[-0.15, 0.5]","[0.15, 0.5]",1,1,,,,,,,,,0,8,8,8,0,0,0,3,,,,,,,,,,,,,,,,,,,,,,,,,,,,,,,,,,,,,,,,,,,,,,,,,,,,,,,714.8033143080002,None,714.8033143080002,None,714.8033143080002,None,m,1,2.3668418180000117,716.3529655000002,None,716.3529655000002,None,716.3529655000002,None,718.7723466100001,None,718.7723466100001,None,718.7723466100001,None,718.7723466100001,None,,,,,,,,,,,,,,,,,,,,,,,,,,,,,,,,,,,,,,,,,,,,001,104,2020_Feb_11_1002,spring_faces,3.1.5,59.998604552533834,
condition files/Stage1_1.xlsx,,T1,B1,c,"['c', 'm']","['Clue', 'Monopoly']","[-0.15, 0.5]","[0.15, 0.5]",1,1,,,,,,,,,0,8,8,8,0,1,1,0,,,,,,,,,,,,,,,,,,,,,,,,,,,,,,,,,,,,,,,,,,,,,,,,,,,,,,,720.736312906,None,720.736312906,None,720.736312906,None,c,1,1.2162819330001184,722.2715153980002,None,722.2715153980002,None,722.2715153980002,None,723.5692767290002,None,723.5692767290002,None,723.5692767290002,None,723.5692767290002,None,,,,,,,,,,,,,,,,,,,,,,,,,,,,,,,,,,,,,,,,,,,,001,104,2020_Feb_11_1002,spring_faces,3.1.5,59.998604552533834,
condition files/Stage1_1.xlsx,,B1,T2,c,"['c', 'm']","['Clue', 'Monopoly']","[-0.15, 0.5]","[0.15, 0.5]",1,1,,,,,,,,,0,8,8,8,0,2,2,1,,,,,,,,,,,,,,,,,,,,,,,,,,,,,,,,,,,,,,,,,,,,,,,,,,,,,,,725.519846744,None,725.519846744,None,725.519846744,None,c,1,0.9610009230000287,727.0548230500003,None,727.0548230500003,None,727.0548230500003,None,728.069262079,None,728.069262079,None,728.069262079,None,728.069262079,None,,,,,,,,,,,,,,,,,,,,,,,,,,,,,,,,,,,,,,,,,,,,001,104,2020_Feb_11_1002,spring_faces,3.1.5,59.998604552533834,
condition files/Stage1_1.xlsx,,B2,T1,m,"['c', 'm']","['Clue', 'Monopoly']","[-0.15, 0.5]","[0.15, 0.5]",1,1,,,,,,,,,0,8,8,8,0,3,3,2,,,,,,,,,,,,,,,,,,,,,,,,,,,,,,,,,,,,,,,,,,,,,,,,,,,,,,,730.0363840720001,None,730.0363840720001,None,730.0363840720001,None,m,1,2.5259992469996178,731.5859144750002,None,731.5859144750002,None,731.5859144750002,None,734.186828246,None,734.186828246,None,734.186828246,None,734.186828246,None,,,,,,,,,,,,,,,,,,,,,,,,,,,,,,,,,,,,,,,,,,,,001,104,2020_Feb_11_1002,spring_faces,3.1.5,59.998604552533834,
condition files/Stage1_1.xlsx,,T4,B3,m,"['c', 'm']","['Clue', 'Monopoly']","[-0.15, 0.5]","[0.15, 0.5]",1,1,,,,,,,,,0,8,8,8,0,4,4,6,,,,,,,,,,,,,,,,,,,,,,,,,,,,,,,,,,,,,,,,,,,,,,,,,,,,,,,736.1364970170002,None,736.1364970170002,None,736.1364970170002,None,m,1,0.8083836460000384,737.6715304530003,None,737.6715304530003,None,737.6715304530003,None,738.5359776760001,None,738.5359776760001,None,738.5359776760001,None,738.5359776760001,None,,,,,,,,,,,,,,,,,,,,,,,,,,,,,,,,,,,,,,,,,,,,001,104,2020_Feb_11_1002,spring_faces,3.1.5,59.998604552533834,
condition files/Stage1_1.xlsx,,T3,B4,c,"['c', 'm']","['Clue', 'Monopoly']","[-0.15, 0.5]","[0.15, 0.5]",1,1,,,,,,,,,0,8,8,8,0,5,5,5,,,,,,,,,,,,,,,,,,,,,,,,,,,,,,,,,,,,,,,,,,,,,,,,,,,,,,,740.5031515989999,None,740.5031515989999,None,740.5031515989999,None,c,1,1.914164802000414,742.037687345,None,742.037687345,None,742.037687345,None,744.0046525330004,None,744.0046525330004,None,744.0046525330004,None,744.0046525330004,None,,,,,,,,,,,,,,,,,,,,,,,,,,,,,,,,,,,,,,,,,,,,001,104,2020_Feb_11_1002,spring_faces,3.1.5,59.998604552533834,
condition files/Stage1_1.xlsx,,B4,T4,m,"['c', 'm']","['Clue', 'Monopoly']","[-0.15, 0.5]","[0.15, 0.5]",1,1,,,,,,,,,0,8,8,8,0,6,6,7,,,,,,,,,,,,,,,,,,,,,,,,,,,,,,,,,,,,,,,,,,,,,,,,,,,,,,,745.9696822390001,None,745.9696822390001,None,745.9696822390001,None,m,1,1.0562682439999662,747.5036609190001,None,747.5036609190001,None,747.5036609190001,None,748.6364922719999,None,748.6364922719999,None,748.6364922719999,None,748.6364922719999,None,,,,,,,,,,,,,,,,,,,,,,,,,,,,,,,,,,,,,,,,,,,,001,104,2020_Feb_11_1002,spring_faces,3.1.5,59.998604552533834,
condition files/Stage1_1.xlsx,,B3,T3,c,"['c', 'm']","['Clue', 'Monopoly']","[-0.15, 0.5]","[0.15, 0.5]",1,1,,,,,,,,,0,8,8,8,0,7,7,4,,,,,,,,,,,,,,,,,,,,,,,,,,,,,,,,,,,,,,,,,,,,,,,,,,,,,,,750.585895232,None,750.585895232,None,750.585895232,None,c,1,1.797722530000101,752.1220879750003,None,752.1220879750003,None,752.1220879750003,None,753.9862006600001,None,753.9862006600001,None,753.9862006600001,None,753.9862006600001,None,,,,,,,,,,,,,,,,,,,,,,,,,,,,,,,,,,,,,,,,,,,,001,104,2020_Feb_11_1002,spring_faces,3.1.5,59.998604552533834,
condition files/Stage1_2.xlsx,,B1,T1,c,"['c', 'm']","['Clue', 'Monopoly']","[-0.15, 0.5]","[0.15, 0.5]",1,1,,,,,,,,,0,9,9,9,0,0,0,0,,,,,,,,,,,,,,,,,,,,,,,,,,,,,,,,,,,,,,,,,,,,,,,,,,,,,,,755.9697626730003,None,755.9697626730003,None,755.9697626730003,None,c,1,1.279751448999832,757.5041026660001,None,757.5041026660001,None,757.5041026660001,None,758.8358532790003,None,758.8358532790003,None,758.8358532790003,None,758.8358532790003,None,,,,,,,,,,,,,,,,,,,,,,,,,,,,,,,,,,,,,,,,,,,,001,104,2020_Feb_11_1002,spring_faces,3.1.5,59.998604552533834,
condition files/Stage1_2.xlsx,,T4,B4,m,"['c', 'm']","['Clue', 'Monopoly']","[-0.15, 0.5]","[0.15, 0.5]",1,1,,,,,,,,,0,9,9,9,0,1,1,7,,,,,,,,,,,,,,,,,,,,,,,,,,,,,,,,,,,,,,,,,,,,,,,,,,,,,,,760.8030248270002,None,760.8030248270002,None,760.8030248270002,None,m,1,4.447494318999816,762.336357359,None,762.336357359,None,762.336357359,None,766.8385636880002,None,766.8385636880002,None,766.8385636880002,None,766.8385636880002,None,,,,,,,,,,,,,,,,,,,,,,,,,,,,,,,,,,,,,,,,,,,,001,104,2020_Feb_11_1002,spring_faces,3.1.5,59.998604552533834,
condition files/Stage1_2.xlsx,,T3,B3,c,"['c', 'm']","['Clue', 'Monopoly']","[-0.15, 0.5]","[0.15, 0.5]",1,1,,,,,,,,,0,9,9,9,0,2,2,4,,,,,,,,,,,,,,,,,,,,,,,,,,,,,,,,,,,,,,,,,,,,,,,,,,,,,,,768.8023872990002,None,768.8023872990002,None,768.8023872990002,None,c,1,1.5809486309999556,770.3388411620003,None,770.3388411620003,None,770.3388411620003,None,771.9728504560003,None,771.9728504560003,None,771.9728504560003,None,771.9728504560003,None,,,,,,,,,,,,,,,,,,,,,,,,,,,,,,,,,,,,,,,,,,,,001,104,2020_Feb_11_1002,spring_faces,3.1.5,59.998604552533834,
condition files/Stage1_2.xlsx,,B3,T4,m,"['c', 'm']","['Clue', 'Monopoly']","[-0.15, 0.5]","[0.15, 0.5]",1,1,,,,,,,,,0,9,9,9,0,3,3,6,,,,,,,,,,,,,,,,,,,,,,,,,,,,,,,,,,,,,,,,,,,,,,,,,,,,,,,773.9364501190003,None,773.9364501190003,None,773.9364501190003,None,m,1,1.2000198660002752,775.4718216620004,None,775.4718216620004,None,775.4718216620004,None,776.7526064020003,None,776.7526064020003,None,776.7526064020003,None,776.7526064020003,None,,,,,,,,,,,,,,,,,,,,,,,,,,,,,,,,,,,,,,,,,,,,001,104,2020_Feb_11_1002,spring_faces,3.1.5,59.998604552533834,
condition files/Stage1_2.xlsx,,B4,T3,c,"['c', 'm']","['Clue', 'Monopoly']","[-0.15, 0.5]","[0.15, 0.5]",1,1,,,,,,,,,0,9,9,9,0,4,4,5,,,,,,,,,,,,,,,,,,,,,,,,,,,,,,,,,,,,,,,,,,,,,,,,,,,,,,,778.7024982350003,None,778.7024982350003,None,778.7024982350003,None,c,1,1.058520002000023,780.2533929280003,None,780.2533929280003,None,780.2533929280003,None,781.372366913,None,781.372366913,None,781.372366913,None,781.372366913,None,,,,,,,,,,,,,,,,,,,,,,,,,,,,,,,,,,,,,,,,,,,,001,104,2020_Feb_11_1002,spring_faces,3.1.5,59.998604552533834,
condition files/Stage1_2.xlsx,,B2,T2,m,"['c', 'm']","['Clue', 'Monopoly']","[-0.15, 0.5]","[0.15, 0.5]",1,1,,,,,,,,,0,9,9,9,0,5,5,3,,,,,,,,,,,,,,,,,,,,,,,,,,,,,,,,,,,,,,,,,,,,,,,,,,,,,,,783.3364970110001,None,783.3364970110001,None,783.3364970110001,None,m,1,2.4101269159996264,784.86979084,None,784.86979084,None,784.86979084,None,787.337739694,None,787.337739694,None,787.337739694,None,787.337739694,None,,,,,,,,,,,,,,,,,,,,,,,,,,,,,,,,,,,,,,,,,,,,001,104,2020_Feb_11_1002,spring_faces,3.1.5,59.998604552533834,
condition files/Stage1_2.xlsx,,T1,B2,m,"['c', 'm']","['Clue', 'Monopoly']","[-0.15, 0.5]","[0.15, 0.5]",1,1,,,,,,,,,0,9,9,9,0,6,6,2,,,,,,,,,,,,,,,,,,,,,,,,,,,,,,,,,,,,,,,,,,,,,,,,,,,,,,,789.3029750240003,None,789.3029750240003,None,789.3029750240003,None,m,1,1.1132455430001755,790.8386029339999,None,790.8386029339999,None,790.8386029339999,None,792.0032951590001,None,792.0032951590001,None,792.0032951590001,None,792.0032951590001,None,,,,,,,,,,,,,,,,,,,,,,,,,,,,,,,,,,,,,,,,,,,,001,104,2020_Feb_11_1002,spring_faces,3.1.5,59.998604552533834,
condition files/Stage1_2.xlsx,,T2,B1,c,"['c', 'm']","['Clue', 'Monopoly']","[-0.15, 0.5]","[0.15, 0.5]",1,1,,,,,,,,,0,9,9,9,0,7,7,1,,,,,,,,,,,,,,,,,,,,,,,,,,,,,,,,,,,,,,,,,,,,,,,,,,,,,,,793.969963736,None,793.969963736,None,793.969963736,None,c,1,2.337077446999956,795.50279258,None,795.50279258,None,795.50279258,None,797.9026424920003,None,797.9026424920003,None,797.9026424920003,None,797.9026424920003,None,,,,,,,,,,,,,,,,,,,,,,,,,,,,,,,,,,,,,,,,,,,,001,104,2020_Feb_11_1002,spring_faces,3.1.5,59.998604552533834,
condition files/Stage1_1.xlsx,,B3,T3,c,"['c', 'm']","['Clue', 'Monopoly']","[-0.15, 0.5]","[0.15, 0.5]",1,1,,,,,,,,,0,10,10,10,0,0,0,4,,,,,,,,,,,,,,,,,,,,,,,,,,,,,,,,,,,,,,,,,,,,,,,,,,,,,,,799.8868455380002,None,799.8868455380002,None,799.8868455380002,None,c,1,1.5226979670001128,801.4212452920001,None,801.4212452920001,None,801.4212452920001,None,803.0031191190001,None,803.0031191190001,None,803.0031191190001,None,803.0031191190001,None,,,,,,,,,,,,,,,,,,,,,,,,,,,,,,,,,,,,,,,,,,,,001,104,2020_Feb_11_1002,spring_faces,3.1.5,59.998604552533834,
condition files/Stage1_1.xlsx,,T4,B3,m,"['c', 'm']","['Clue', 'Monopoly']","[-0.15, 0.5]","[0.15, 0.5]",1,1,,,,,,,,,0,10,10,10,0,1,1,6,,,,,,,,,,,,,,,,,,,,,,,,,,,,,,,,,,,,,,,,,,,,,,,,,,,,,,,804.9698833460002,None,804.9698833460002,None,804.9698833460002,None,m,1,1.0954993379996267,806.5043245270003,None,806.5043245270003,None,806.5043245270003,None,807.6546838600002,None,807.6546838600002,None,807.6546838600002,None,807.6546838600002,None,,,,,,,,,,,,,,,,,,,,,,,,,,,,,,,,,,,,,,,,,,,,001,104,2020_Feb_11_1002,spring_faces,3.1.5,59.998604552533834,
condition files/Stage1_1.xlsx,,T2,B2,m,"['c', 'm']","['Clue', 'Monopoly']","[-0.15, 0.5]","[0.15, 0.5]",1,1,,,,,,,,,0,10,10,10,0,2,2,3,,,,,,,,,,,,,,,,,,,,,,,,,,,,,,,,,,,,,,,,,,,,,,,,,,,,,,,809.6198432270003,None,809.6198432270003,None,809.6198432270003,None,m,1,1.2613147249999201,811.1545100960002,None,811.1545100960002,None,811.1545100960002,None,812.4698753480002,None,812.4698753480002,None,812.4698753480002,None,812.4698753480002,None,,,,,,,,,,,,,,,,,,,,,,,,,,,,,,,,,,,,,,,,,,,,001,104,2020_Feb_11_1002,spring_faces,3.1.5,59.998604552533834,
condition files/Stage1_1.xlsx,,T1,B1,c,"['c', 'm']","['Clue', 'Monopoly']","[-0.15, 0.5]","[0.15, 0.5]",1,1,,,,,,,,,0,10,10,10,0,3,3,0,,,,,,,,,,,,,,,,,,,,,,,,,,,,,,,,,,,,,,,,,,,,,,,,,,,,,,,814.4364347620003,None,814.4364347620003,None,814.4364347620003,None,c,1,1.534082650000073,815.9697350680003,None,815.9697350680003,None,815.9697350680003,None,817.58665019,None,817.58665019,None,817.58665019,None,817.58665019,None,,,,,,,,,,,,,,,,,,,,,,,,,,,,,,,,,,,,,,,,,,,,001,104,2020_Feb_11_1002,spring_faces,3.1.5,59.998604552533834,
condition files/Stage1_1.xlsx,,T3,B4,c,"['c', 'm']","['Clue', 'Monopoly']","[-0.15, 0.5]","[0.15, 0.5]",1,1,,,,,,,,,0,10,10,10,0,4,4,5,,,,,,,,,,,,,,,,,,,,,,,,,,,,,,,,,,,,,,,,,,,,,,,,,,,,,,,819.5361753560001,None,819.5361753560001,None,819.5361753560001,None,c,1,1.26509781499999,821.0867354310003,None,821.0867354310003,None,821.0867354310003,None,822.402800456,None,822.402800456,None,822.402800456,None,822.402800456,None,,,,,,,,,,,,,,,,,,,,,,,,,,,,,,,,,,,,,,,,,,,,001,104,2020_Feb_11_1002,spring_faces,3.1.5,59.998604552533834,
condition files/Stage1_1.xlsx,,B2,T1,m,"['c', 'm']","['Clue', 'Monopoly']","[-0.15, 0.5]","[0.15, 0.5]",1,1,,,,,,,,,0,10,10,10,0,5,5,2,,,,,,,,,,,,,,,,,,,,,,,,,,,,,,,,,,,,,,,,,,,,,,,,,,,,,,,824.3698194200001,None,824.3698194200001,None,824.3698194200001,None,m,1,2.3678676529998484,825.9199412510002,None,825.9199412510002,None,825.9199412510002,None,828.3551150400003,None,828.3551150400003,None,828.3551150400003,None,828.3551150400003,None,,,,,,,,,,,,,,,,,,,,,,,,,,,,,,,,,,,,,,,,,,,,001,104,2020_Feb_11_1002,spring_faces,3.1.5,59.998604552533834,
condition files/Stage1_1.xlsx,,B4,T4,m,"['c', 'm']","['Clue', 'Monopoly']","[-0.15, 0.5]","[0.15, 0.5]",1,1,,,,,,,,,0,10,10,10,0,6,6,7,,,,,,,,,,,,,,,,,,,,,,,,,,,,,,,,,,,,,,,,,,,,,,,,,,,,,,,830.319643198,None,830.319643198,None,830.319643198,None,m,1,1.1539253639998606,831.8699238900003,None,831.8699238900003,None,831.8699238900003,None,833.0866620010001,None,833.0866620010001,None,833.0866620010001,None,833.0866620010001,None,,,,,,,,,,,,,,,,,,,,,,,,,,,,,,,,,,,,,,,,,,,,001,104,2020_Feb_11_1002,spring_faces,3.1.5,59.998604552533834,
condition files/Stage1_1.xlsx,,B1,T2,c,"['c', 'm']","['Clue', 'Monopoly']","[-0.15, 0.5]","[0.15, 0.5]",1,1,,,,,,,,,0,10,10,10,0,7,7,1,,,,,,,,,,,,,,,,,,,,,,,,,,,,,,,,,,,,,,,,,,,,,,,,,,,,,,,835.0529135670004,None,835.0529135670004,None,835.0529135670004,None,c,1,1.47777276800025,836.5861605340001,None,836.5861605340001,None,836.5861605340001,None,838.119637109,None,838.119637109,None,838.119637109,None,838.119637109,None,,,,,,,,,,,,,,,,,,,,,,,,,,,,,,,,,,,,,,,,,,,,001,104,2020_Feb_11_1002,spring_faces,3.1.5,59.998604552533834,
condition files/Stage1_2.xlsx,,T2,B1,c,"['c', 'm']","['Clue', 'Monopoly']","[-0.15, 0.5]","[0.15, 0.5]",1,1,,,,,,,,,0,11,11,11,0,0,0,1,,,,,,,,,,,,,,,,,,,,,,,,,,,,,,,,,,,,,,,,,,,,,,,,,,,,,,,840.1035003930001,None,840.1035003930001,None,840.1035003930001,None,c,1,1.1639399959999537,841.6360170820003,None,841.6360170820003,None,841.6360170820003,None,842.8535059230003,None,842.8535059230003,None,842.8535059230003,None,842.8535059230003,None,,,,,,,,,,,,,,,,,,,,,,,,,,,,,,,,,,,,,,,,,,,,001,104,2020_Feb_11_1002,spring_faces,3.1.5,59.998604552533834,
condition files/Stage1_2.xlsx,,T4,B4,m,"['c', 'm']","['Clue', 'Monopoly']","[-0.15, 0.5]","[0.15, 0.5]",1,1,,,,,,,,,0,11,11,11,0,1,1,7,,,,,,,,,,,,,,,,,,,,,,,,,,,,,,,,,,,,,,,,,,,,,,,,,,,,,,,844.8197014890002,None,844.8197014890002,None,844.8197014890002,None,m,1,1.1005045059996519,846.3553629170001,None,846.3553629170001,None,846.3553629170001,None,847.5360941470003,None,847.5360941470003,None,847.5360941470003,None,847.5360941470003,None,,,,,,,,,,,,,,,,,,,,,,,,,,,,,,,,,,,,,,,,,,,,001,104,2020_Feb_11_1002,spring_faces,3.1.5,59.998604552533834,
condition files/Stage1_2.xlsx,,B2,T2,m,"['c', 'm']","['Clue', 'Monopoly']","[-0.15, 0.5]","[0.15, 0.5]",1,1,,,,,,,,,0,11,11,11,0,2,2,3,,,,,,,,,,,,,,,,,,,,,,,,,,,,,,,,,,,,,,,,,,,,,,,,,,,,,,,849.4864568170001,None,849.4864568170001,None,849.4864568170001,None,m,1,1.7144840579999254,851.0213699290002,None,851.0213699290002,None,851.0213699290002,None,852.786598014,None,852.786598014,None,852.786598014,None,852.786598014,None,,,,,,,,,,,,,,,,,,,,,,,,,,,,,,,,,,,,,,,,,,,,001,104,2020_Feb_11_1002,spring_faces,3.1.5,59.998604552533834,
condition files/Stage1_2.xlsx,,T1,B2,m,"['c', 'm']","['Clue', 'Monopoly']","[-0.15, 0.5]","[0.15, 0.5]",1,1,,,,,,,,,0,11,11,11,0,3,3,2,,,,,,,,,,,,,,,,,,,,,,,,,,,,,,,,,,,,,,,,,,,,,,,,,,,,,,,854.7530214170001,None,854.7530214170001,None,854.7530214170001,None,m,1,2.46535407500005,856.3024893060001,None,856.3024893060001,None,856.3024893060001,None,858.8193790570003,None,858.8193790570003,None,858.8193790570003,None,858.8193790570003,None,,,,,,,,,,,,,,,,,,,,,,,,,,,,,,,,,,,,,,,,,,,,001,104,2020_Feb_11_1002,spring_faces,3.1.5,59.998604552533834,
condition files/Stage1_2.xlsx,,B1,T1,c,"['c', 'm']","['Clue', 'Monopoly']","[-0.15, 0.5]","[0.15, 0.5]",1,1,,,,,,,,,0,11,11,11,0,4,4,0,,,,,,,,,,,,,,,,,,,,,,,,,,,,,,,,,,,,,,,,,,,,,,,,,,,,,,,860.786419306,None,860.786419306,None,860.786419306,None,c,1,1.327288545999636,862.3205294560003,None,862.3205294560003,None,862.3205294560003,None,863.7029129560001,None,863.7029129560001,None,863.7029129560001,None,863.7029129560001,None,,,,,,,,,,,,,,,,,,,,,,,,,,,,,,,,,,,,,,,,,,,,001,104,2020_Feb_11_1002,spring_faces,3.1.5,59.998604552533834,
condition files/Stage1_2.xlsx,,T3,B3,c,"['c', 'm']","['Clue', 'Monopoly']","[-0.15, 0.5]","[0.15, 0.5]",1,1,,,,,,,,,0,11,11,11,0,5,5,4,,,,,,,,,,,,,,,,,,,,,,,,,,,,,,,,,,,,,,,,,,,,,,,,,,,,,,,865.6698568390002,None,865.6698568390002,None,865.6698568390002,None,c,1,2.2363210759999674,867.2035443950003,None,867.2035443950003,None,867.2035443950003,None,869.5031703459999,None,869.5031703459999,None,869.5031703459999,None,869.5031703459999,None,,,,,,,,,,,,,,,,,,,,,,,,,,,,,,,,,,,,,,,,,,,,001,104,2020_Feb_11_1002,spring_faces,3.1.5,59.998604552533834,
condition files/Stage1_2.xlsx,,B4,T3,c,"['c', 'm']","['Clue', 'Monopoly']","[-0.15, 0.5]","[0.15, 0.5]",1,1,,,,,,,,,0,11,11,11,0,6,6,5,,,,,,,,,,,,,,,,,,,,,,,,,,,,,,,,,,,,,,,,,,,,,,,,,,,,,,,871.4701082920001,None,871.4701082920001,None,871.4701082920001,None,c,1,1.2029201459999967,873.0049435820001,None,873.0049435820001,None,873.0049435820001,None,874.2696874010003,None,874.2696874010003,None,874.2696874010003,None,874.2696874010003,None,,,,,,,,,,,,,,,,,,,,,,,,,,,,,,,,,,,,,,,,,,,,001,104,2020_Feb_11_1002,spring_faces,3.1.5,59.998604552533834,
condition files/Stage1_2.xlsx,,B3,T4,m,"['c', 'm']","['Clue', 'Monopoly']","[-0.15, 0.5]","[0.15, 0.5]",1,1,,,,,,,,,0,11,11,11,0,7,7,6,,,,,,,,,,,,,,,,,,,,,,,,,,,,,,,,,,,,,,,,,,,,,,,,,,,,,,,876.236474719,None,876.236474719,None,876.236474719,None,m,1,1.0462553799998204,877.7696045550001,None,877.7696045550001,None,877.7696045550001,None,878.8711100390001,None,878.8711100390001,None,878.8711100390001,None,878.8711100390001,None,,,,,,,,,,,,,,,,,,,,,,,,,,,,,,,,,,,,,,,,,,,,001,104,2020_Feb_11_1002,spring_faces,3.1.5,59.998604552533834,
,,,,,,,,,,,,,,,,,,,,,,,,,,,,,,,,,,,,,,,,,,,,,,,,,,,,,,,,,,,,,,,,,,,,,,,,,,,,,,,,,,,,,,,,,,,,,,,,,,,,,,,,,,,,,,,,880.853215658,None,space,3.0427640460002294,885.8532036830002,None,,,,,,,,,,,,,,,,,,,,,,,,,,,,,,001,104,2020_Feb_11_1002,spring_faces,3.1.5,59.998604552533834,
condition files/Stage2_1.xlsx,,T1,B1,s,"['s', 'r']","['Stratego', 'Risk']","[-0.15, 0.5]","[0.15, 0.5]",1,1,,,,,,,,,,,,,,,,,0,0,0,0,0,0,0,2,,,,,,,,,,,,,,,,,,,,,,,,,,,,,,,,,,,,,,,,,,,,,,,889.0030545019999,None,889.0030545019999,None,889.0030545019999,None,r,0,2.1207339289999254,890.4711604660001,None,890.4711604660001,None,890.4711604660001,None,892.65423384,None,892.65423384,None,892.65423384,None,892.65423384,None,,,,,,,,,,,,,,,885.8532036830002,None,,,,,,,,,,,,,,,,,,,,,,,,,,,,001,104,2020_Feb_11_1002,spring_faces,3.1.5,59.998604552533834,
condition files/Stage2_1.xlsx,,B2,T2,r,"['s', 'r']","['Stratego', 'Risk']","[-0.15, 0.5]","[0.15, 0.5]",1,1,,,,,,,,,,,,,,,,,0,0,0,0,0,1,1,3,,,,,,,,,,,,,,,,,,,,,,,,,,,,,,,,,,,,,,,,,,,,,,,894.6194971720001,None,894.6194971720001,None,894.6194971720001,None,r,1,2.085643708000134,896.1542262500002,None,896.1542262500002,None,896.1542262500002,None,898.3198371910003,None,898.3198371910003,None,898.3198371910003,None,898.3198371910003,None,,,,,,,,,,,,,,,,,,,,,,,,,,,,,,,,,,,,,,,,,,,,001,104,2020_Feb_11_1002,spring_faces,3.1.5,59.998604552533834,
condition files/Stage2_1.xlsx,,T3,B3,s,"['s', 'r']","['Stratego', 'Risk']","[-0.15, 0.5]","[0.15, 0.5]",1,1,,,,,,,,,,,,,,,,,0,0,0,0,0,2,2,4,,,,,,,,,,,,,,,,,,,,,,,,,,,,,,,,,,,,,,,,,,,,,,,900.269526515,None,900.269526515,None,900.269526515,None,r,0,2.8042877710004177,901.803591421,None,901.803591421,None,901.803591421,None,904.6710712650001,None,904.6710712650001,None,904.6710712650001,None,904.6710712650001,None,,,,,,,,,,,,,,,,,,,,,,,,,,,,,,,,,,,,,,,,,,,,001,104,2020_Feb_11_1002,spring_faces,3.1.5,59.998604552533834,
condition files/Stage2_1.xlsx,,T5,B5,s,"['s', 'r']","['Stratego', 'Risk']","[-0.15, 0.5]","[0.15, 0.5]",1,1,,,,,,,,,,,,,,,,,0,0,0,0,0,3,3,0,,,,,,,,,,,,,,,,,,,,,,,,,,,,,,,,,,,,,,,,,,,,,,,906.6365274680002,None,906.6365274680002,None,906.6365274680002,None,s,1,4.2451288239999485,908.202657107,None,908.202657107,None,908.202657107,None,912.5031503720002,None,912.5031503720002,None,912.5031503720002,None,912.5031503720002,None,,,,,,,,,,,,,,,,,,,,,,,,,,,,,,,,,,,,,,,,,,,,001,104,2020_Feb_11_1002,spring_faces,3.1.5,59.998604552533834,
condition files/Stage2_1.xlsx,,B4,T4,r,"['s', 'r']","['Stratego', 'Risk']","[-0.15, 0.5]","[0.15, 0.5]",1,1,,,,,,,,,,,,,,,,,0,0,0,0,0,4,4,5,,,,,,,,,,,,,,,,,,,,,,,,,,,,,,,,,,,,,,,,,,,,,,,914.4695732210002,None,914.4695732210002,None,914.4695732210002,None,r,1,2.9076682059999257,916.0042604970004,None,916.0042604970004,None,916.0042604970004,None,918.9700572080001,None,918.9700572080001,None,918.9700572080001,None,918.9700572080001,None,,,,,,,,,,,,,,,,,,,,,,,,,,,,,,,,,,,,,,,,,,,,001,104,2020_Feb_11_1002,spring_faces,3.1.5,59.998604552533834,
condition files/Stage2_1.xlsx,,B6,T6,r,"['s', 'r']","['Stratego', 'Risk']","[-0.15, 0.5]","[0.15, 0.5]",1,1,,,,,,,,,,,,,,,,,0,0,0,0,0,5,5,1,,,,,,,,,,,,,,,,,,,,,,,,,,,,,,,,,,,,,,,,,,,,,,,920.9362387390001,None,920.9362387390001,None,920.9362387390001,None,r,1,2.0078027549998296,922.5361174280001,None,922.5361174280001,None,922.5361174280001,None,924.6031713990001,None,924.6031713990001,None,924.6031713990001,None,924.6031713990001,None,,,,,,,,,,,,,,,,,,,,,,,,,,,,,,,,,,,,,,,,,,,,001,104,2020_Feb_11_1002,spring_faces,3.1.5,59.998604552533834,
condition files/Stage2_2.xlsx,,T2,B2,r,"['s', 'r']","['Stratego', 'Risk']","[-0.15, 0.5]","[0.15, 0.5]",1,1,,,,,,,,,,,,,,,,,0,1,1,1,0,0,0,3,,,,,,,,,,,,,,,,,,,,,,,,,,,,,,,,,,,,,,,,,,,,,,,926.6032770910001,None,926.6032770910001,None,926.6032770910001,None,s,0,1.8153532989999803,928.1365031680002,None,928.1365031680002,None,928.1365031680002,None,930.0022983560002,None,930.0022983560002,None,930.0022983560002,None,930.0022983560002,None,,,,,,,,,,,,,,,,,,,,,,,,,,,,,,,,,,,,,,,,,,,,001,104,2020_Feb_11_1002,spring_faces,3.1.5,59.998604552533834,
condition files/Stage2_2.xlsx,,T6,B6,r,"['s', 'r']","['Stratego', 'Risk']","[-0.15, 0.5]","[0.15, 0.5]",1,1,,,,,,,,,,,,,,,,,0,1,1,1,0,1,1,1,,,,,,,,,,,,,,,,,,,,,,,,,,,,,,,,,,,,,,,,,,,,,,,931.9697529180003,None,931.9697529180003,None,931.9697529180003,None,r,1,3.11838690400009,933.5054747970003,None,933.5054747970003,None,933.5054747970003,None,936.6868123930003,None,936.6868123930003,None,936.6868123930003,None,936.6868123930003,None,,,,,,,,,,,,,,,,,,,,,,,,,,,,,,,,,,,,,,,,,,,,001,104,2020_Feb_11_1002,spring_faces,3.1.5,59.998604552533834,
condition files/Stage2_2.xlsx,,B3,T3,s,"['s', 'r']","['Stratego', 'Risk']","[-0.15, 0.5]","[0.15, 0.5]",1,1,,,,,,,,,,,,,,,,,0,1,1,1,0,2,2,4,,,,,,,,,,,,,,,,,,,,,,,,,,,,,,,,,,,,,,,,,,,,,,,938.6529416830003,None,938.6529416830003,None,938.6529416830003,None,s,1,2.932476281000163,940.187356848,None,940.187356848,None,940.187356848,None,943.1867873180004,None,943.1867873180004,None,943.1867873180004,None,943.1867873180004,None,,,,,,,,,,,,,,,,,,,,,,,,,,,,,,,,,,,,,,,,,,,,001,104,2020_Feb_11_1002,spring_faces,3.1.5,59.998604552533834,
condition files/Stage2_2.xlsx,,B1,T1,s,"['s', 'r']","['Stratego', 'Risk']","[-0.15, 0.5]","[0.15, 0.5]",1,1,,,,,,,,,,,,,,,,,0,1,1,1,0,3,3,2,,,,,,,,,,,,,,,,,,,,,,,,,,,,,,,,,,,,,,,,,,,,,,,945.1358103520001,None,945.1358103520001,None,945.1358103520001,None,s,1,3.169124032000127,946.6707491030002,None,946.6707491030002,None,946.6707491030002,None,949.9028810160003,None,949.9028810160003,None,949.9028810160003,None,949.9028810160003,None,,,,,,,,,,,,,,,,,,,,,,,,,,,,,,,,,,,,,,,,,,,,001,104,2020_Feb_11_1002,spring_faces,3.1.5,59.998604552533834,
condition files/Stage2_2.xlsx,,T4,B4,r,"['s', 'r']","['Stratego', 'Risk']","[-0.15, 0.5]","[0.15, 0.5]",1,1,,,,,,,,,,,,,,,,,0,1,1,1,0,4,4,5,,,,,,,,,,,,,,,,,,,,,,,,,,,,,,,,,,,,,,,,,,,,,,,951.8698002169999,None,951.8698002169999,None,951.8698002169999,None,r,1,1.7473655160001726,953.4044858679999,None,953.4044858679999,None,953.4044858679999,None,955.2061815840002,None,955.2061815840002,None,955.2061815840002,None,955.2061815840002,None,,,,,,,,,,,,,,,,,,,,,,,,,,,,,,,,,,,,,,,,,,,,001,104,2020_Feb_11_1002,spring_faces,3.1.5,59.998604552533834,
condition files/Stage2_2.xlsx,,B5,T5,s,"['s', 'r']","['Stratego', 'Risk']","[-0.15, 0.5]","[0.15, 0.5]",1,1,,,,,,,,,,,,,,,,,0,1,1,1,0,5,5,0,,,,,,,,,,,,,,,,,,,,,,,,,,,,,,,,,,,,,,,,,,,,,,,957.1690768450003,None,957.1690768450003,None,957.1690768450003,None,s,1,2.302198422999936,958.705679271,None,958.705679271,None,958.705679271,None,961.0719654530003,None,961.0719654530003,None,961.0719654530003,None,961.0719654530003,None,,,,,,,,,,,,,,,,,,,,,,,,,,,,,,,,,,,,,,,,,,,,001,104,2020_Feb_11_1002,spring_faces,3.1.5,59.998604552533834,
condition files/Stage2_1.xlsx,,B4,T4,r,"['s', 'r']","['Stratego', 'Risk']","[-0.15, 0.5]","[0.15, 0.5]",1,1,,,,,,,,,,,,,,,,,0,2,2,2,0,0,0,5,,,,,,,,,,,,,,,,,,,,,,,,,,,,,,,,,,,,,,,,,,,,,,,963.0530593420003,None,963.0530593420003,None,963.0530593420003,None,r,1,4.915552189000209,964.5882914640001,None,964.5882914640001,None,964.5882914640001,None,969.5715668410003,None,969.5715668410003,None,969.5715668410003,None,969.5715668410003,None,,,,,,,,,,,,,,,,,,,,,,,,,,,,,,,,,,,,,,,,,,,,001,104,2020_Feb_11_1002,spring_faces,3.1.5,59.998604552533834,
condition files/Stage2_1.xlsx,,B6,T6,r,"['s', 'r']","['Stratego', 'Risk']","[-0.15, 0.5]","[0.15, 0.5]",1,1,,,,,,,,,,,,,,,,,0,2,2,2,0,1,1,1,,,,,,,,,,,,,,,,,,,,,,,,,,,,,,,,,,,,,,,,,,,,,,,971.5364417750002,None,971.5364417750002,None,971.5364417750002,None,r,1,2.5934197530000347,973.0864700700004,None,973.0864700700004,None,973.0864700700004,None,975.7361052810002,None,975.7361052810002,None,975.7361052810002,None,975.7361052810002,None,,,,,,,,,,,,,,,,,,,,,,,,,,,,,,,,,,,,,,,,,,,,001,104,2020_Feb_11_1002,spring_faces,3.1.5,59.998604552533834,
condition files/Stage2_1.xlsx,,T3,B3,s,"['s', 'r']","['Stratego', 'Risk']","[-0.15, 0.5]","[0.15, 0.5]",1,1,,,,,,,,,,,,,,,,,0,2,2,2,0,2,2,4,,,,,,,,,,,,,,,,,,,,,,,,,,,,,,,,,,,,,,,,,,,,,,,977.7029285100002,None,977.7029285100002,None,977.7029285100002,None,s,1,1.834623436000129,979.253162642,None,979.253162642,None,979.253162642,None,981.1696797550003,None,981.1696797550003,None,981.1696797550003,None,981.1696797550003,None,,,,,,,,,,,,,,,,,,,,,,,,,,,,,,,,,,,,,,,,,,,,001,104,2020_Feb_11_1002,spring_faces,3.1.5,59.998604552533834,
condition files/Stage2_1.xlsx,,B2,T2,r,"['s', 'r']","['Stratego', 'Risk']","[-0.15, 0.5]","[0.15, 0.5]",1,1,,,,,,,,,,,,,,,,,0,2,2,2,0,3,3,3,,,,,,,,,,,,,,,,,,,,,,,,,,,,,,,,,,,,,,,,,,,,,,,983.119899283,None,983.119899283,None,983.119899283,None,s,0,1.6019949110000198,984.669825468,None,984.669825468,None,984.669825468,None,986.3373157640003,None,986.3373157640003,None,986.3373157640003,None,986.3373157640003,None,,,,,,,,,,,,,,,,,,,,,,,,,,,,,,,,,,,,,,,,,,,,001,104,2020_Feb_11_1002,spring_faces,3.1.5,59.998604552533834,
condition files/Stage2_1.xlsx,,T1,B1,s,"['s', 'r']","['Stratego', 'Risk']","[-0.15, 0.5]","[0.15, 0.5]",1,1,,,,,,,,,,,,,,,,,0,2,2,2,0,4,4,2,,,,,,,,,,,,,,,,,,,,,,,,,,,,,,,,,,,,,,,,,,,,,,,988.303159821,None,988.303159821,None,988.303159821,None,s,1,2.1786789060001865,989.853150034,None,989.853150034,None,989.853150034,None,992.0884814240003,None,992.0884814240003,None,992.0884814240003,None,992.0884814240003,None,,,,,,,,,,,,,,,,,,,,,,,,,,,,,,,,,,,,,,,,,,,,001,104,2020_Feb_11_1002,spring_faces,3.1.5,59.998604552533834,
condition files/Stage2_1.xlsx,,T5,B5,s,"['s', 'r']","['Stratego', 'Risk']","[-0.15, 0.5]","[0.15, 0.5]",1,1,,,,,,,,,,,,,,,,,0,2,2,2,0,5,5,0,,,,,,,,,,,,,,,,,,,,,,,,,,,,,,,,,,,,,,,,,,,,,,,994.0529862020003,None,994.0529862020003,None,994.0529862020003,None,s,1,1.7071272909997788,995.5888286090003,None,995.5888286090003,None,995.5888286090003,None,997.353536434,None,997.353536434,None,997.353536434,None,997.353536434,None,,,,,,,,,,,,,,,,,,,,,,,,,,,,,,,,,,,,,,,,,,,,001,104,2020_Feb_11_1002,spring_faces,3.1.5,59.998604552533834,
condition files/Stage2_2.xlsx,,B1,T1,s,"['s', 'r']","['Stratego', 'Risk']","[-0.15, 0.5]","[0.15, 0.5]",1,1,,,,,,,,,,,,,,,,,0,3,3,3,0,0,0,2,,,,,,,,,,,,,,,,,,,,,,,,,,,,,,,,,,,,,,,,,,,,,,,999.3361324880002,None,999.3361324880002,None,999.3361324880002,None,s,1,2.7134344720002446,1000.8865095310002,None,1000.8865095310002,None,1000.8865095310002,None,1003.6538262480003,None,1003.6538262480003,None,1003.6538262480003,None,1003.6538262480003,None,,,,,,,,,,,,,,,,,,,,,,,,,,,,,,,,,,,,,,,,,,,,001,104,2020_Feb_11_1002,spring_faces,3.1.5,59.998604552533834,
condition files/Stage2_2.xlsx,,B3,T3,s,"['s', 'r']","['Stratego', 'Risk']","[-0.15, 0.5]","[0.15, 0.5]",1,1,,,,,,,,,,,,,,,,,0,3,3,3,0,1,1,4,,,,,,,,,,,,,,,,,,,,,,,,,,,,,,,,,,,,,,,,,,,,,,,1005.619666346,None,1005.619666346,None,1005.619666346,None,s,1,1.7421541240000806,1007.1538059320001,None,1007.1538059320001,None,1007.1538059320001,None,1008.9530990080002,None,1008.9530990080002,None,1008.9530990080002,None,1008.9530990080002,None,,,,,,,,,,,,,,,,,,,,,,,,,,,,,,,,,,,,,,,,,,,,001,104,2020_Feb_11_1002,spring_faces,3.1.5,59.998604552533834,
condition files/Stage2_2.xlsx,,T4,B4,r,"['s', 'r']","['Stratego', 'Risk']","[-0.15, 0.5]","[0.15, 0.5]",1,1,,,,,,,,,,,,,,,,,0,3,3,3,0,2,2,5,,,,,,,,,,,,,,,,,,,,,,,,,,,,,,,,,,,,,,,,,,,,,,,1010.9197864540001,None,1010.9197864540001,None,1010.9197864540001,None,r,1,1.0648165399998106,1012.4550219740004,None,1012.4550219740004,None,1012.4550219740004,None,1013.5723583140002,None,1013.5723583140002,None,1013.5723583140002,None,1013.5723583140002,None,,,,,,,,,,,,,,,,,,,,,,,,,,,,,,,,,,,,,,,,,,,,001,104,2020_Feb_11_1002,spring_faces,3.1.5,59.998604552533834,
condition files/Stage2_2.xlsx,,B5,T5,s,"['s', 'r']","['Stratego', 'Risk']","[-0.15, 0.5]","[0.15, 0.5]",1,1,,,,,,,,,,,,,,,,,0,3,3,3,0,3,3,0,,,,,,,,,,,,,,,,,,,,,,,,,,,,,,,,,,,,,,,,,,,,,,,1015.536494466,None,1015.536494466,None,1015.536494466,None,s,1,3.2028185509998366,1017.0690473140003,None,1017.0690473140003,None,1017.0690473140003,None,1020.353150937,None,1020.353150937,None,1020.353150937,None,1020.353150937,None,,,,,,,,,,,,,,,,,,,,,,,,,,,,,,,,,,,,,,,,,,,,001,104,2020_Feb_11_1002,spring_faces,3.1.5,59.998604552533834,
condition files/Stage2_2.xlsx,,T2,B2,r,"['s', 'r']","['Stratego', 'Risk']","[-0.15, 0.5]","[0.15, 0.5]",1,1,,,,,,,,,,,,,,,,,0,3,3,3,0,4,4,3,,,,,,,,,,,,,,,,,,,,,,,,,,,,,,,,,,,,,,,,,,,,,,,1022.3030294620003,None,1022.3030294620003,None,1022.3030294620003,None,r,1,2.30736701800015,1023.8525340290003,None,1023.8525340290003,None,1023.8525340290003,None,1026.2205280570001,None,1026.2205280570001,None,1026.2205280570001,None,1026.2205280570001,None,,,,,,,,,,,,,,,,,,,,,,,,,,,,,,,,,,,,,,,,,,,,001,104,2020_Feb_11_1002,spring_faces,3.1.5,59.998604552533834,
condition files/Stage2_2.xlsx,,T6,B6,r,"['s', 'r']","['Stratego', 'Risk']","[-0.15, 0.5]","[0.15, 0.5]",1,1,,,,,,,,,,,,,,,,,0,3,3,3,0,5,5,1,,,,,,,,,,,,,,,,,,,,,,,,,,,,,,,,,,,,,,,,,,,,,,,1028.186511121,None,1028.186511121,None,1028.186511121,None,r,1,1.0462785189997703,1029.7215755720003,None,1029.7215755720003,None,1029.7215755720003,None,1030.820159201,None,1030.820159201,None,1030.820159201,None,1030.820159201,None,,,,,,,,,,,,,,,,,,,,,,,,,,,,,,,,,,,,,,,,,,,,001,104,2020_Feb_11_1002,spring_faces,3.1.5,59.998604552533834,
condition files/Stage2_1.xlsx,,B6,T6,r,"['s', 'r']","['Stratego', 'Risk']","[-0.15, 0.5]","[0.15, 0.5]",1,1,,,,,,,,,,,,,,,,,0,4,4,4,0,0,0,1,,,,,,,,,,,,,,,,,,,,,,,,,,,,,,,,,,,,,,,,,,,,,,,1032.80327149,None,1032.80327149,None,1032.80327149,None,r,1,1.902441227000054,1034.3534177850001,None,1034.3534177850001,None,1034.3534177850001,None,1036.319958511,None,1036.319958511,None,1036.319958511,None,1036.319958511,None,,,,,,,,,,,,,,,,,,,,,,,,,,,,,,,,,,,,,,,,,,,,001,104,2020_Feb_11_1002,spring_faces,3.1.5,59.998604552533834,
condition files/Stage2_1.xlsx,,T1,B1,s,"['s', 'r']","['Stratego', 'Risk']","[-0.15, 0.5]","[0.15, 0.5]",1,1,,,,,,,,,,,,,,,,,0,4,4,4,0,1,1,2,,,,,,,,,,,,,,,,,,,,,,,,,,,,,,,,,,,,,,,,,,,,,,,1038.2864544590002,None,1038.2864544590002,None,1038.2864544590002,None,s,1,2.0510281780002515,1039.820799524,None,1039.820799524,None,1039.820799524,None,1041.9383035700002,None,1041.9383035700002,None,1041.9383035700002,None,1041.9383035700002,None,,,,,,,,,,,,,,,,,,,,,,,,,,,,,,,,,,,,,,,,,,,,001,104,2020_Feb_11_1002,spring_faces,3.1.5,59.998604552533834,
condition files/Stage2_1.xlsx,,B4,T4,r,"['s', 'r']","['Stratego', 'Risk']","[-0.15, 0.5]","[0.15, 0.5]",1,1,,,,,,,,,,,,,,,,,0,4,4,4,0,2,2,5,,,,,,,,,,,,,,,,,,,,,,,,,,,,,,,,,,,,,,,,,,,,,,,1043.902962998,None,1043.902962998,None,1043.902962998,None,r,1,1.6019141689998833,1045.437948626,None,1045.437948626,None,1045.437948626,None,1047.104694651,None,1047.104694651,None,1047.104694651,None,1047.104694651,None,,,,,,,,,,,,,,,,,,,,,,,,,,,,,,,,,,,,,,,,,,,,001,104,2020_Feb_11_1002,spring_faces,3.1.5,59.998604552533834,
condition files/Stage2_1.xlsx,,T5,B5,s,"['s', 'r']","['Stratego', 'Risk']","[-0.15, 0.5]","[0.15, 0.5]",1,1,,,,,,,,,,,,,,,,,0,4,4,4,0,3,3,0,,,,,,,,,,,,,,,,,,,,,,,,,,,,,,,,,,,,,,,,,,,,,,,1049.0693153490001,None,1049.0693153490001,None,1049.0693153490001,None,s,1,2.0526940939998894,1050.6031732200004,None,1050.6031732200004,None,1050.6031732200004,None,1052.7213452730002,None,1052.7213452730002,None,1052.7213452730002,None,1052.7213452730002,None,,,,,,,,,,,,,,,,,,,,,,,,,,,,,,,,,,,,,,,,,,,,001,104,2020_Feb_11_1002,spring_faces,3.1.5,59.998604552533834,
