condsFile,subStage,cue1,cue2,correct,responseKeys,responseNames,cue1Position,cue2Position,cue1Opacity,cue2Opacity,stageLoop0.thisRepN,stageLoop0.thisTrialN,stageLoop0.thisN,stageLoop0.thisIndex,blockLoop0.thisRepN,blockLoop0.thisTrialN,blockLoop0.thisN,blockLoop0.thisIndex,stage1Loop.thisRepN,stage1Loop.thisTrialN,stage1Loop.thisN,stage1Loop.thisIndex,blockLoop1.thisRepN,blockLoop1.thisTrialN,blockLoop1.thisN,blockLoop1.thisIndex,stage2Loop.thisRepN,stage2Loop.thisTrialN,stage2Loop.thisN,stage2Loop.thisIndex,blockLoop2.thisRepN,blockLoop2.thisTrialN,blockLoop2.thisN,blockLoop2.thisIndex,testLoop.thisRepN,testLoop.thisTrialN,testLoop.thisN,testLoop.thisIndex,blockLoopTest.thisRepN,blockLoopTest.thisTrialN,blockLoopTest.thisN,blockLoopTest.thisIndex,cuePics,id_instr_text.started,id_instr_text.stopped,space_to_continue_2.started,space_to_continue_2.stopped,end_instructions_resp_3.keys,end_instructions_resp_3.rt,end_instructions_resp_3.started,end_instructions_resp_3.stopped,id_input_instr.started,id_input_instr.stopped,id_input_rect.started,id_input_rect.stopped,id_input_resp.keys,id_input_resp.rt,id_input_resp.started,id_input_resp.stopped,sonaID,id_input_text.started,id_input_text.stopped,final_text.started,final_text.stopped,instructions.started,instructions.stopped,end_instructions_resp.keys,end_instructions_resp.rt,end_instructions_resp.started,end_instructions_resp.stopped,space_to_continue.started,space_to_continue.stopped,instructions_stage0.started,instructions_stage0.stopped,end_instructions_resp_stage0.keys,end_instructions_resp_stage0.rt,end_instructions_resp_stage0.started,end_instructions_resp_stage0.stopped,space_to_continue_stage0.started,space_to_continue_stage0.stopped,text.started,text.stopped,resp_text1.started,resp_text1.stopped,resp_text2.started,resp_text2.stopped,trial_resp.keys,trial_resp.corr,trial_resp.rt,trial_resp.started,trial_resp.stopped,cue1Image.started,cue1Image.stopped,cue2Image.started,cue2Image.stopped,cue1Image_fb.started,cue1Image_fb.stopped,cue2Image_fb.started,cue2Image_fb.stopped,fb_text_answer.started,fb_text_answer.stopped,feedback_image.started,feedback_image.stopped,instructions_stage1.started,instructions_stage1.stopped,end_instructions_resp_stage1.keys,end_instructions_resp_stage1.rt,end_instructions_resp_stage1.started,end_instructions_resp_stage1.stopped,space_to_continue_stage1.started,space_to_continue_stage1.stopped,instructions_2.started,instructions_2.stopped,end_instructions_resp_2.keys,end_instructions_resp_2.rt,end_instructions_resp_2.started,end_instructions_resp_2.stopped,press_space_to_continue_stage2.started,press_space_to_continue_stage2.stopped,instructions_testStage1.started,instructions_testStage1.stopped,end_instructions_resp_test1.keys,end_instructions_resp_test1.rt,end_instructions_resp_test1.started,end_instructions_resp_test1.stopped,press_space_to_continue_test1.started,press_space_to_continue_test1.stopped,cue1Image_testChoice.started,cue1Image_testChoice.stopped,cue2Image_testChoice.started,cue2Image_testChoice.stopped,test_resp.keys,test_resp.corr,test_resp.rt,test_resp.started,test_resp.stopped,cue1Image_testConf.started,cue1Image_testConf.stopped,cue2Image_testConf.started,cue2Image_testConf.stopped,conf_reminder.started,conf_reminder.stopped,conf_rating.response,conf_rating.rt,conf_rating.started,conf_rating.stopped,session,participant,date,expName,psychopyVersion,frameRate,
,,,,,,,,,,,,,,,,,,,,,,,,,,,,,,,,,,,,,,,,,,,"{'none': 'pictures/20M_AN_C.png', 'alpha': 'pictures/SHINEd_melon.png', 'beta': 'pictures/SHINEd_pepper.png', 'theta': 'pictures/SHINEd_pear.png', 'phi': 'pictures/SHINEd_apple.png', 'T1': 'pictures/23M_AN_C.png', 'T2': 'pictures/22M_AN_C.png', 'T3': 'pictures/34M_AN_C.png', 'T4': 'pictures/32M_AN_C.png', 'T5': 'pictures/20M_AN_C.png', 'T6': 'pictures/25M_AN_C.png', 'B1': 'pictures/31M_NE_C.png', 'B2': 'pictures/37M_NE_C.png', 'B3': 'pictures/26M_NE_C.png', 'B4': 'pictures/33M_NE_C.png', 'B5': 'pictures/36M_NE_C.png', 'B6': 'pictures/38M_NE_C.png'}",12.638158765999833,None,17.637700441000106,None,space,0.7171853780000674,17.637700441000106,None,,,,,,,,,,,,,,,,,,,,,,,,,,,,,,,,,,,,,,,,,,,,,,,,,,,,,,,,,,,,,,,,,,,,,,,,,,,,,,,,,,,,,,,,,,,,,,,,001,104,2020_Feb_11_1000,spring_faces,3.1.5,60.00254086762889,
,,,,,,,,,,,,,,,,,,,,,,,,,,,,,,,,,,,,,,,,,,,,,,,,,,,,18.73762668800009,None,18.73762668800009,None,"['1', '0', '1', '4', 'c', 'y', 'n', 'i', 's']","[9.857363712000279, 10.20937876500011, 12.769291288000204, 13.393361694000305, 15.905294341000172, 18.19334755600039, 23.105311386000267, 24.369298794000315, 24.641365038000004]",18.73762668800009,None,,,,,,,,,,,,,,,,,,,,,,,,,,,,,,,,,,,,,,,,,,,,,,,,,,,,,,,,,,,,,,,,,,,,,,,,,,,,,,,,,,,,,,,,001,104,2020_Feb_11_1000,spring_faces,3.1.5,60.00254086762889,
,,,,,,,,,,,,,,,,,,,,,,,,,,,,,,,,,,,,,,,,,,,,,,,,,,,,,,,,,,,,1014cynis,18.73762668800009,None,18.73762668800009,None,48.45457175599995,None,space,0.1328079820000312,53.454127224999866,None,,,,,,,,,,,,,,,,,,,,,,,,,,,,,,,,,,,,,,,,,,,,,,,,,,,,,,,,,,,,,,,,,,,,,,,,,,,,,001,104,2020_Feb_11_1000,spring_faces,3.1.5,60.00254086762889,
,,,,,,,,,,,,,,,,,,,,,,,,,,,,,,,,,,,,,,,,,,,,,,,,,,,,,,,,,,,,,,,,,,,,,,,53.454127224999866,None,53.620559408999725,None,space,5.717999642999985,58.62088275799988,None,,,,,,,,,,,,,,,,,,,,,,,,,,,,,,,,,,,,,,,,,,,,,,,,,,,,,,,,,,,,,,,,,,,,,001,104,2020_Feb_11_1000,spring_faces,3.1.5,60.00254086762889,
condition files/Stage0a.xlsx,0a,beta,none,g,"['h', 'g']","['Chess', 'Go']","[0, 0.5]","[0, 0]",1,0,0,0,0,0,0,0,0,1,,,,,,,,,,,,,,,,,,,,,,,,,,,,,,,,,,,,,,,,,,,,,,,,,,,,,,,,,,,,,58.62088275799988,None,64.4041407069999,None,64.4041407069999,None,64.4041407069999,None,g,1,3.6633311840000715,65.98784361599974,None,65.98784361599974,None,65.98784361599974,None,69.72105820499974,None,69.72105820499974,None,69.72105820499974,None,69.72105820499974,None,,,,,,,,,,,,,,,,,,,,,,,,,,,,,,,,,,,,,,,,,,,,001,104,2020_Feb_11_1000,spring_faces,3.1.5,60.00254086762889,
condition files/Stage0a.xlsx,0a,alpha,none,h,"['h', 'g']","['Chess', 'Go']","[0, 0.5]","[0, 0]",1,0,0,0,0,0,0,1,1,0,,,,,,,,,,,,,,,,,,,,,,,,,,,,,,,,,,,,,,,,,,,,,,,,,,,,,,,,,,,,,,,71.67083079799977,None,71.67083079799977,None,71.67083079799977,None,h,1,2.20503143499991,73.22187946299982,None,73.22187946299982,None,73.22187946299982,None,75.48774333799975,None,75.48774333799975,None,75.48774333799975,None,75.48774333799975,None,,,,,,,,,,,,,,,,,,,,,,,,,,,,,,,,,,,,,,,,,,,,001,104,2020_Feb_11_1000,spring_faces,3.1.5,60.00254086762889,
condition files/Stage0a.xlsx,0a,beta,none,g,"['h', 'g']","['Chess', 'Go']","[0, 0.5]","[0, 0]",1,0,0,1,1,1,0,0,0,1,,,,,,,,,,,,,,,,,,,,,,,,,,,,,,,,,,,,,,,,,,,,,,,,,,,,,,,,,,,,,,,77.47118483199984,None,77.47118483199984,None,77.47118483199984,None,g,1,0.678109761000087,79.00481502100001,None,79.00481502100001,None,79.00481502100001,None,79.73694992799983,None,79.73694992799983,None,79.73694992799983,None,79.73694992799983,None,,,,,,,,,,,,,,,,,,,,,,,,,,,,,,,,,,,,,,,,,,,,001,104,2020_Feb_11_1000,spring_faces,3.1.5,60.00254086762889,
condition files/Stage0a.xlsx,0a,alpha,none,h,"['h', 'g']","['Chess', 'Go']","[0, 0.5]","[0, 0]",1,0,0,1,1,1,0,1,1,0,,,,,,,,,,,,,,,,,,,,,,,,,,,,,,,,,,,,,,,,,,,,,,,,,,,,,,,,,,,,,,,81.70415151599991,None,81.70415151599991,None,81.70415151599991,None,h,1,0.6850706509999327,83.23785100799978,None,83.23785100799978,None,83.23785100799978,None,83.98746057199969,None,83.98746057199969,None,83.98746057199969,None,83.98746057199969,None,,,,,,,,,,,,,,,,,,,,,,,,,,,,,,,,,,,,,,,,,,,,001,104,2020_Feb_11_1000,spring_faces,3.1.5,60.00254086762889,
condition files/Stage0a.xlsx,0a,alpha,none,h,"['h', 'g']","['Chess', 'Go']","[0, 0.5]","[0, 0]",1,0,0,2,2,2,0,0,0,0,,,,,,,,,,,,,,,,,,,,,,,,,,,,,,,,,,,,,,,,,,,,,,,,,,,,,,,,,,,,,,,85.97070020699994,None,85.97070020699994,None,85.97070020699994,None,h,1,0.6581267480000861,87.50485231799985,None,87.50485231799985,None,87.50485231799985,None,88.2208768139999,None,88.2208768139999,None,88.2208768139999,None,88.2208768139999,None,,,,,,,,,,,,,,,,,,,,,,,,,,,,,,,,,,,,,,,,,,,,001,104,2020_Feb_11_1000,spring_faces,3.1.5,60.00254086762889,
condition files/Stage0a.xlsx,0a,beta,none,g,"['h', 'g']","['Chess', 'Go']","[0, 0.5]","[0, 0]",1,0,0,2,2,2,0,1,1,1,,,,,,,,,,,,,,,,,,,,,,,,,,,,,,,,,,,,,,,,,,,,,,,,,,,,,,,,,,,,,,,90.18756652299999,None,90.18756652299999,None,90.18756652299999,None,g,1,0.602705799999967,91.720205954,None,91.720205954,None,91.720205954,None,92.38728623199995,None,92.38728623199995,None,92.38728623199995,None,92.38728623199995,None,,,,,,,,,,,,,,,,,,,,,,,,,,,,,,,,,,,,,,,,,,,,001,104,2020_Feb_11_1000,spring_faces,3.1.5,60.00254086762889,
condition files/Stage0a.xlsx,0a,alpha,none,h,"['h', 'g']","['Chess', 'Go']","[0, 0.5]","[0, 0]",1,0,0,3,3,3,0,0,0,0,,,,,,,,,,,,,,,,,,,,,,,,,,,,,,,,,,,,,,,,,,,,,,,,,,,,,,,,,,,,,,,94.37122959499993,None,94.37122959499993,None,94.37122959499993,None,h,1,0.7385888989997511,95.90435685200009,None,95.90435685200009,None,95.90435685200009,None,96.70422370699998,None,96.70422370699998,None,96.70422370699998,None,96.70422370699998,None,,,,,,,,,,,,,,,,,,,,,,,,,,,,,,,,,,,,,,,,,,,,001,104,2020_Feb_11_1000,spring_faces,3.1.5,60.00254086762889,
condition files/Stage0a.xlsx,0a,beta,none,g,"['h', 'g']","['Chess', 'Go']","[0, 0.5]","[0, 0]",1,0,0,3,3,3,0,1,1,1,,,,,,,,,,,,,,,,,,,,,,,,,,,,,,,,,,,,,,,,,,,,,,,,,,,,,,,,,,,,,,,98.67045627900006,None,98.67045627900006,None,98.67045627900006,None,g,1,0.646280372000092,100.20486802200003,None,100.20486802200003,None,100.20486802200003,None,100.90394412299975,None,100.90394412299975,None,100.90394412299975,None,100.90394412299975,None,,,,,,,,,,,,,,,,,,,,,,,,,,,,,,,,,,,,,,,,,,,,001,104,2020_Feb_11_1000,spring_faces,3.1.5,60.00254086762889,
condition files/Stage0a.xlsx,0a,beta,none,g,"['h', 'g']","['Chess', 'Go']","[0, 0.5]","[0, 0]",1,0,0,4,4,4,0,0,0,1,,,,,,,,,,,,,,,,,,,,,,,,,,,,,,,,,,,,,,,,,,,,,,,,,,,,,,,,,,,,,,,102.88782339099998,None,102.88782339099998,None,102.88782339099998,None,g,1,0.9719559820000541,104.42303662799986,None,104.42303662799986,None,104.42303662799986,None,105.45380374899969,None,105.45380374899969,None,105.45380374899969,None,105.45380374899969,None,,,,,,,,,,,,,,,,,,,,,,,,,,,,,,,,,,,,,,,,,,,,001,104,2020_Feb_11_1000,spring_faces,3.1.5,60.00254086762889,
condition files/Stage0a.xlsx,0a,alpha,none,h,"['h', 'g']","['Chess', 'Go']","[0, 0.5]","[0, 0]",1,0,0,4,4,4,0,1,1,0,,,,,,,,,,,,,,,,,,,,,,,,,,,,,,,,,,,,,,,,,,,,,,,,,,,,,,,,,,,,,,,107.42082305599979,None,107.42082305599979,None,107.42082305599979,None,h,1,0.5846292289998019,108.95421457800012,None,108.95421457800012,None,108.95421457800012,None,109.60419168599992,None,109.60419168599992,None,109.60419168599992,None,109.60419168599992,None,,,,,,,,,,,,,,,,,,,,,,,,,,,,,,,,,,,,,,,,,,,,001,104,2020_Feb_11_1000,spring_faces,3.1.5,60.00254086762889,
condition files/Stage0a.xlsx,0a,beta,none,g,"['h', 'g']","['Chess', 'Go']","[0, 0.5]","[0, 0]",1,0,0,5,5,5,0,0,0,1,,,,,,,,,,,,,,,,,,,,,,,,,,,,,,,,,,,,,,,,,,,,,,,,,,,,,,,,,,,,,,,111.58778565700004,None,111.58778565700004,None,111.58778565700004,None,g,1,0.5298922959996162,113.12108199699969,None,113.12108199699969,None,113.12108199699969,None,113.70382685100003,None,113.70382685100003,None,113.70382685100003,None,113.70382685100003,None,,,,,,,,,,,,,,,,,,,,,,,,,,,,,,,,,,,,,,,,,,,,001,104,2020_Feb_11_1000,spring_faces,3.1.5,60.00254086762889,
condition files/Stage0a.xlsx,0a,alpha,none,h,"['h', 'g']","['Chess', 'Go']","[0, 0.5]","[0, 0]",1,0,0,5,5,5,0,1,1,0,,,,,,,,,,,,,,,,,,,,,,,,,,,,,,,,,,,,,,,,,,,,,,,,,,,,,,,,,,,,,,,115.67090437499974,None,115.67090437499974,None,115.67090437499974,None,h,1,0.6703040620000138,117.2046201610001,None,117.2046201610001,None,117.2046201610001,None,117.93766122699981,None,117.93766122699981,None,117.93766122699981,None,117.93766122699981,None,,,,,,,,,,,,,,,,,,,,,,,,,,,,,,,,,,,,,,,,,,,,001,104,2020_Feb_11_1000,spring_faces,3.1.5,60.00254086762889,
condition files/Stage0b_1.xlsx,0b,alpha,none,h,"['h', 'g']","['Chess', 'Go']","[-0.15, 0.5]","[0.15, 0.5]",1,0,0,6,6,6,0,0,0,0,,,,,,,,,,,,,,,,,,,,,,,,,,,,,,,,,,,,,,,,,,,,,,,,,,,,,,,,,,,,,,,119.92095700999971,None,119.92095700999971,None,119.92095700999971,None,g,0,0.8212156879999384,121.45372693299987,None,121.45372693299987,None,121.45372693299987,None,122.3378674329997,None,122.3378674329997,None,122.3378674329997,None,122.3378674329997,None,,,,,,,,,,,,,,,,,,,,,,,,,,,,,,,,,,,,,,,,,,,,001,104,2020_Feb_11_1000,spring_faces,3.1.5,60.00254086762889,
condition files/Stage0b_1.xlsx,0b,none,beta,g,"['h', 'g']","['Chess', 'Go']","[-0.15, 0.5]","[0.15, 0.5]",0,1,0,6,6,6,0,1,1,1,,,,,,,,,,,,,,,,,,,,,,,,,,,,,,,,,,,,,,,,,,,,,,,,,,,,,,,,,,,,,,,124.30413517399984,None,124.30413517399984,None,124.30413517399984,None,g,1,0.9004023550000966,125.85447230099999,None,125.85447230099999,None,125.85447230099999,None,126.82347926600005,None,126.82347926600005,None,126.82347926600005,None,126.82347926600005,None,,,,,,,,,,,,,,,,,,,,,,,,,,,,,,,,,,,,,,,,,,,,001,104,2020_Feb_11_1000,spring_faces,3.1.5,60.00254086762889,
condition files/Stage0b_2.xlsx,0b,none,alpha,h,"['h', 'g']","['Chess', 'Go']","[-0.15, 0.5]","[0.15, 0.5]",0,1,0,7,7,7,0,0,0,0,,,,,,,,,,,,,,,,,,,,,,,,,,,,,,,,,,,,,,,,,,,,,,,,,,,,,,,,,,,,,,,128.8037994729998,None,128.8037994729998,None,128.8037994729998,None,h,1,0.7047766259997843,130.33816079300004,None,130.33816079300004,None,130.33816079300004,None,131.10411672700002,None,131.10411672700002,None,131.10411672700002,None,131.10411672700002,None,,,,,,,,,,,,,,,,,,,,,,,,,,,,,,,,,,,,,,,,,,,,001,104,2020_Feb_11_1000,spring_faces,3.1.5,60.00254086762889,
condition files/Stage0b_2.xlsx,0b,beta,none,g,"['h', 'g']","['Chess', 'Go']","[-0.15, 0.5]","[0.15, 0.5]",1,0,0,7,7,7,0,1,1,1,,,,,,,,,,,,,,,,,,,,,,,,,,,,,,,,,,,,,,,,,,,,,,,,,,,,,,,,,,,,,,,133.07075163199988,None,133.07075163199988,None,133.07075163199988,None,g,1,0.6616320799998903,134.62128141599987,None,134.62128141599987,None,134.62128141599987,None,135.35445520299982,None,135.35445520299982,None,135.35445520299982,None,135.35445520299982,None,,,,,,,,,,,,,,,,,,,,,,,,,,,,,,,,,,,,,,,,,,,,001,104,2020_Feb_11_1000,spring_faces,3.1.5,60.00254086762889,
condition files/Stage0b_1.xlsx,0b,none,beta,g,"['h', 'g']","['Chess', 'Go']","[-0.15, 0.5]","[0.15, 0.5]",0,1,0,8,8,8,0,0,0,1,,,,,,,,,,,,,,,,,,,,,,,,,,,,,,,,,,,,,,,,,,,,,,,,,,,,,,,,,,,,,,,137.32046696499992,None,137.32046696499992,None,137.32046696499992,None,g,1,0.7129095939999388,138.85805030599977,None,138.85805030599977,None,138.85805030599977,None,139.62122423499977,None,139.62122423499977,None,139.62122423499977,None,139.62122423499977,None,,,,,,,,,,,,,,,,,,,,,,,,,,,,,,,,,,,,,,,,,,,,001,104,2020_Feb_11_1000,spring_faces,3.1.5,60.00254086762889,
condition files/Stage0b_1.xlsx,0b,alpha,none,h,"['h', 'g']","['Chess', 'Go']","[-0.15, 0.5]","[0.15, 0.5]",1,0,0,8,8,8,0,1,1,0,,,,,,,,,,,,,,,,,,,,,,,,,,,,,,,,,,,,,,,,,,,,,,,,,,,,,,,,,,,,,,,141.58767895699975,None,141.58767895699975,None,141.58767895699975,None,h,1,0.6256896990003042,143.1213157039997,None,143.1213157039997,None,143.1213157039997,None,143.80640163999988,None,143.80640163999988,None,143.80640163999988,None,143.80640163999988,None,,,,,,,,,,,,,,,,,,,,,,,,,,,,,,,,,,,,,,,,,,,,001,104,2020_Feb_11_1000,spring_faces,3.1.5,60.00254086762889,
condition files/Stage0b_2.xlsx,0b,none,alpha,h,"['h', 'g']","['Chess', 'Go']","[-0.15, 0.5]","[0.15, 0.5]",0,1,0,9,9,9,0,0,0,0,,,,,,,,,,,,,,,,,,,,,,,,,,,,,,,,,,,,,,,,,,,,,,,,,,,,,,,,,,,,,,,145.78791239199973,None,145.78791239199973,None,145.78791239199973,None,h,1,0.9842848770003911,147.32263491899994,None,147.32263491899994,None,147.32263491899994,None,148.37108929499982,None,148.37108929499982,None,148.37108929499982,None,148.37108929499982,None,,,,,,,,,,,,,,,,,,,,,,,,,,,,,,,,,,,,,,,,,,,,001,104,2020_Feb_11_1000,spring_faces,3.1.5,60.00254086762889,
condition files/Stage0b_2.xlsx,0b,beta,none,g,"['h', 'g']","['Chess', 'Go']","[-0.15, 0.5]","[0.15, 0.5]",1,0,0,9,9,9,0,1,1,1,,,,,,,,,,,,,,,,,,,,,,,,,,,,,,,,,,,,,,,,,,,,,,,,,,,,,,,,,,,,,,,150.33745458099975,None,150.33745458099975,None,150.33745458099975,None,g,1,0.6382129880003049,151.87669022199998,None,151.87669022199998,None,151.87669022199998,None,152.57299900999988,None,152.57299900999988,None,152.57299900999988,None,152.57299900999988,None,,,,,,,,,,,,,,,,,,,,,,,,,,,,,,,,,,,,,,,,,,,,001,104,2020_Feb_11_1000,spring_faces,3.1.5,60.00254086762889,
condition files/Stage0b_1.xlsx,0b,alpha,none,h,"['h', 'g']","['Chess', 'Go']","[-0.15, 0.5]","[0.15, 0.5]",1,0,0,10,10,10,0,0,0,0,,,,,,,,,,,,,,,,,,,,,,,,,,,,,,,,,,,,,,,,,,,,,,,,,,,,,,,,,,,,,,,154.55470078899998,None,154.55470078899998,None,154.55470078899998,None,h,1,0.6353977560002022,156.08751724400008,None,156.08751724400008,None,156.08751724400008,None,156.78736211499972,None,156.78736211499972,None,156.78736211499972,None,156.78736211499972,None,,,,,,,,,,,,,,,,,,,,,,,,,,,,,,,,,,,,,,,,,,,,001,104,2020_Feb_11_1000,spring_faces,3.1.5,60.00254086762889,
condition files/Stage0b_1.xlsx,0b,none,beta,g,"['h', 'g']","['Chess', 'Go']","[-0.15, 0.5]","[0.15, 0.5]",0,1,0,10,10,10,0,1,1,1,,,,,,,,,,,,,,,,,,,,,,,,,,,,,,,,,,,,,,,,,,,,,,,,,,,,,,,,,,,,,,,158.75405496899975,None,158.75405496899975,None,158.75405496899975,None,g,1,0.9448937560000559,160.29002806800008,None,160.29002806800008,None,160.29002806800008,None,161.30444591800006,None,161.30444591800006,None,161.30444591800006,None,161.30444591800006,None,,,,,,,,,,,,,,,,,,,,,,,,,,,,,,,,,,,,,,,,,,,,001,104,2020_Feb_11_1000,spring_faces,3.1.5,60.00254086762889,
condition files/Stage0b_2.xlsx,0b,beta,none,g,"['h', 'g']","['Chess', 'Go']","[-0.15, 0.5]","[0.15, 0.5]",1,0,0,11,11,11,0,0,0,1,,,,,,,,,,,,,,,,,,,,,,,,,,,,,,,,,,,,,,,,,,,,,,,,,,,,,,,,,,,,,,,163.27116870600003,None,163.27116870600003,None,163.27116870600003,None,g,1,1.0537470240001312,164.80517442500013,None,164.80517442500013,None,164.80517442500013,None,165.92115919299977,None,165.92115919299977,None,165.92115919299977,None,165.92115919299977,None,,,,,,,,,,,,,,,,,,,,,,,,,,,,,,,,,,,,,,,,,,,,001,104,2020_Feb_11_1000,spring_faces,3.1.5,60.00254086762889,
condition files/Stage0b_2.xlsx,0b,none,alpha,h,"['h', 'g']","['Chess', 'Go']","[-0.15, 0.5]","[0.15, 0.5]",0,1,0,11,11,11,0,1,1,0,,,,,,,,,,,,,,,,,,,,,,,,,,,,,,,,,,,,,,,,,,,,,,,,,,,,,,,,,,,,,,,167.887436385,None,167.887436385,None,167.887436385,None,h,1,0.5648774560004313,169.42203661699978,None,169.42203661699978,None,169.42203661699978,None,170.0399127329997,None,170.0399127329997,None,170.0399127329997,None,170.0399127329997,None,,,,,,,,,,,,,,,,,,,,,,,,,,,,,,,,,,,,,,,,,,,,001,104,2020_Feb_11_1000,spring_faces,3.1.5,60.00254086762889,
condition files/Stage0c_1.xlsx,0c,alpha,phi,h,"['h', 'g']","['Chess', 'Go']","[-0.15, 0.5]","[0.15, 0.5]",1,1,0,12,12,12,0,0,0,1,,,,,,,,,,,,,,,,,,,,,,,,,,,,,,,,,,,,,,,,,,,,,,,,,,,,,,,,,,,,,,,172.02100438399975,None,172.02100438399975,None,172.02100438399975,None,h,1,2.064835785000014,173.5540868969997,None,173.5540868969997,None,173.5540868969997,None,175.67038929399996,None,175.67038929399996,None,175.67038929399996,None,175.67038929399996,None,,,,,,,,,,,,,,,,,,,,,,,,,,,,,,,,,,,,,,,,,,,,001,104,2020_Feb_11_1000,spring_faces,3.1.5,60.00254086762889,
condition files/Stage0c_1.xlsx,0c,phi,beta,g,"['h', 'g']","['Chess', 'Go']","[-0.15, 0.5]","[0.15, 0.5]",1,1,0,12,12,12,0,1,1,3,,,,,,,,,,,,,,,,,,,,,,,,,,,,,,,,,,,,,,,,,,,,,,,,,,,,,,,,,,,,,,,177.63745330999973,None,177.63745330999973,None,177.63745330999973,None,g,1,1.0078757199999018,179.17109834999974,None,179.17109834999974,None,179.17109834999974,None,180.23770972800003,None,180.23770972800003,None,180.23770972800003,None,180.23770972800003,None,,,,,,,,,,,,,,,,,,,,,,,,,,,,,,,,,,,,,,,,,,,,001,104,2020_Feb_11_1000,spring_faces,3.1.5,60.00254086762889,
condition files/Stage0c_1.xlsx,0c,theta,alpha,h,"['h', 'g']","['Chess', 'Go']","[-0.15, 0.5]","[0.15, 0.5]",1,1,0,12,12,12,0,2,2,0,,,,,,,,,,,,,,,,,,,,,,,,,,,,,,,,,,,,,,,,,,,,,,,,,,,,,,,,,,,,,,,182.2038531359999,None,182.2038531359999,None,182.2038531359999,None,h,1,1.4496974749999936,183.73720588900005,None,183.73720588900005,None,183.73720588900005,None,185.23802512299972,None,185.23802512299972,None,185.23802512299972,None,185.23802512299972,None,,,,,,,,,,,,,,,,,,,,,,,,,,,,,,,,,,,,,,,,,,,,001,104,2020_Feb_11_1000,spring_faces,3.1.5,60.00254086762889,
condition files/Stage0c_1.xlsx,0c,beta,theta,g,"['h', 'g']","['Chess', 'Go']","[-0.15, 0.5]","[0.15, 0.5]",1,1,0,12,12,12,0,3,3,2,,,,,,,,,,,,,,,,,,,,,,,,,,,,,,,,,,,,,,,,,,,,,,,,,,,,,,,,,,,,,,,187.20429251399992,None,187.20429251399992,None,187.20429251399992,None,g,1,0.896680626000034,188.73815324199995,None,188.73815324199995,None,188.73815324199995,None,189.6878115569998,None,189.6878115569998,None,189.6878115569998,None,189.6878115569998,None,,,,,,,,,,,,,,,,,,,,,,,,,,,,,,,,,,,,,,,,,,,,001,104,2020_Feb_11_1000,spring_faces,3.1.5,60.00254086762889,
condition files/Stage0c_2.xlsx,0c,theta,beta,g,"['h', 'g']","['Chess', 'Go']","[-0.15, 0.5]","[0.15, 0.5]",1,1,0,13,13,13,0,0,0,2,,,,,,,,,,,,,,,,,,,,,,,,,,,,,,,,,,,,,,,,,,,,,,,,,,,,,,,,,,,,,,,191.6710944020001,None,191.6710944020001,None,191.6710944020001,None,g,1,1.1185443889999078,193.20437502599998,None,193.20437502599998,None,193.20437502599998,None,194.3731058139997,None,194.3731058139997,None,194.3731058139997,None,194.3731058139997,None,,,,,,,,,,,,,,,,,,,,,,,,,,,,,,,,,,,,,,,,,,,,001,104,2020_Feb_11_1000,spring_faces,3.1.5,60.00254086762889,
condition files/Stage0c_2.xlsx,0c,beta,phi,g,"['h', 'g']","['Chess', 'Go']","[-0.15, 0.5]","[0.15, 0.5]",1,1,0,13,13,13,0,1,1,3,,,,,,,,,,,,,,,,,,,,,,,,,,,,,,,,,,,,,,,,,,,,,,,,,,,,,,,,,,,,,,,196.35406640199972,None,196.35406640199972,None,196.35406640199972,None,g,1,0.9471059710003829,197.8877968429997,None,197.8877968429997,None,197.8877968429997,None,198.88780680399987,None,198.88780680399987,None,198.88780680399987,None,198.88780680399987,None,,,,,,,,,,,,,,,,,,,,,,,,,,,,,,,,,,,,,,,,,,,,001,104,2020_Feb_11_1000,spring_faces,3.1.5,60.00254086762889,
condition files/Stage0c_2.xlsx,0c,alpha,theta,h,"['h', 'g']","['Chess', 'Go']","[-0.15, 0.5]","[0.15, 0.5]",1,1,0,13,13,13,0,2,2,0,,,,,,,,,,,,,,,,,,,,,,,,,,,,,,,,,,,,,,,,,,,,,,,,,,,,,,,,,,,,,,,200.8542129389998,None,200.8542129389998,None,200.8542129389998,None,h,1,0.8152270149998913,202.38766230600004,None,202.38766230600004,None,202.38766230600004,None,203.25368539800002,None,203.25368539800002,None,203.25368539800002,None,203.25368539800002,None,,,,,,,,,,,,,,,,,,,,,,,,,,,,,,,,,,,,,,,,,,,,001,104,2020_Feb_11_1000,spring_faces,3.1.5,60.00254086762889,
condition files/Stage0c_2.xlsx,0c,phi,alpha,h,"['h', 'g']","['Chess', 'Go']","[-0.15, 0.5]","[0.15, 0.5]",1,1,0,13,13,13,0,3,3,1,,,,,,,,,,,,,,,,,,,,,,,,,,,,,,,,,,,,,,,,,,,,,,,,,,,,,,,,,,,,,,,205.2208898419999,None,205.2208898419999,None,205.2208898419999,None,h,1,1.0725511619998542,206.75436543599972,None,206.75436543599972,None,206.75436543599972,None,207.87096853100002,None,207.87096853100002,None,207.87096853100002,None,207.87096853100002,None,,,,,,,,,,,,,,,,,,,,,,,,,,,,,,,,,,,,,,,,,,,,001,104,2020_Feb_11_1000,spring_faces,3.1.5,60.00254086762889,
condition files/Stage0c_1.xlsx,0c,beta,theta,g,"['h', 'g']","['Chess', 'Go']","[-0.15, 0.5]","[0.15, 0.5]",1,1,0,14,14,14,0,0,0,2,,,,,,,,,,,,,,,,,,,,,,,,,,,,,,,,,,,,,,,,,,,,,,,,,,,,,,,,,,,,,,,209.87112580199982,None,209.87112580199982,None,209.87112580199982,None,g,1,1.2384173069999633,211.40450030300008,None,211.40450030300008,None,211.40450030300008,None,212.70474498800013,None,212.70474498800013,None,212.70474498800013,None,212.70474498800013,None,,,,,,,,,,,,,,,,,,,,,,,,,,,,,,,,,,,,,,,,,,,,001,104,2020_Feb_11_1000,spring_faces,3.1.5,60.00254086762889,
condition files/Stage0c_1.xlsx,0c,theta,alpha,h,"['h', 'g']","['Chess', 'Go']","[-0.15, 0.5]","[0.15, 0.5]",1,1,0,14,14,14,0,1,1,0,,,,,,,,,,,,,,,,,,,,,,,,,,,,,,,,,,,,,,,,,,,,,,,,,,,,,,,,,,,,,,,214.67059400900007,None,214.67059400900007,None,214.67059400900007,None,h,1,0.966611216000274,216.20430234600008,None,216.20430234600008,None,216.20430234600008,None,217.2208367889998,None,217.2208367889998,None,217.2208367889998,None,217.2208367889998,None,,,,,,,,,,,,,,,,,,,,,,,,,,,,,,,,,,,,,,,,,,,,001,104,2020_Feb_11_1000,spring_faces,3.1.5,60.00254086762889,
condition files/Stage0c_1.xlsx,0c,alpha,phi,h,"['h', 'g']","['Chess', 'Go']","[-0.15, 0.5]","[0.15, 0.5]",1,1,0,14,14,14,0,2,2,1,,,,,,,,,,,,,,,,,,,,,,,,,,,,,,,,,,,,,,,,,,,,,,,,,,,,,,,,,,,,,,,219.18773142400005,None,219.18773142400005,None,219.18773142400005,None,h,1,1.1056813469999724,220.72123776599983,None,220.72123776599983,None,220.72123776599983,None,221.8735495269998,None,221.8735495269998,None,221.8735495269998,None,221.8735495269998,None,,,,,,,,,,,,,,,,,,,,,,,,,,,,,,,,,,,,,,,,,,,,001,104,2020_Feb_11_1000,spring_faces,3.1.5,60.00254086762889,
condition files/Stage0c_1.xlsx,0c,phi,beta,g,"['h', 'g']","['Chess', 'Go']","[-0.15, 0.5]","[0.15, 0.5]",1,1,0,14,14,14,0,3,3,3,,,,,,,,,,,,,,,,,,,,,,,,,,,,,,,,,,,,,,,,,,,,,,,,,,,,,,,,,,,,,,,223.8714817109999,None,223.8714817109999,None,223.8714817109999,None,g,1,1.143346676999954,225.38763064199975,None,225.38763064199975,None,225.38763064199975,None,226.58784067299985,None,226.58784067299985,None,226.58784067299985,None,226.58784067299985,None,,,,,,,,,,,,,,,,,,,,,,,,,,,,,,,,,,,,,,,,,,,,001,104,2020_Feb_11_1000,spring_faces,3.1.5,60.00254086762889,
condition files/Stage0c_2.xlsx,0c,theta,beta,g,"['h', 'g']","['Chess', 'Go']","[-0.15, 0.5]","[0.15, 0.5]",1,1,0,15,15,15,0,0,0,2,,,,,,,,,,,,,,,,,,,,,,,,,,,,,,,,,,,,,,,,,,,,,,,,,,,,,,,,,,,,,,,228.57114993300002,None,228.57114993300002,None,228.57114993300002,None,g,1,1.5301773460000732,230.10467162899977,None,230.10467162899977,None,230.10467162899977,None,231.67310249899992,None,231.67310249899992,None,231.67310249899992,None,231.67310249899992,None,,,,,,,,,,,,,,,,,,,,,,,,,,,,,,,,,,,,,,,,,,,,001,104,2020_Feb_11_1000,spring_faces,3.1.5,60.00254086762889,
condition files/Stage0c_2.xlsx,0c,beta,phi,g,"['h', 'g']","['Chess', 'Go']","[-0.15, 0.5]","[0.15, 0.5]",1,1,0,15,15,15,0,1,1,3,,,,,,,,,,,,,,,,,,,,,,,,,,,,,,,,,,,,,,,,,,,,,,,,,,,,,,,,,,,,,,,233.65374719400006,None,233.65374719400006,None,233.65374719400006,None,g,1,0.8630342219998965,235.1881077119997,None,235.1881077119997,None,235.1881077119997,None,236.10435114099982,None,236.10435114099982,None,236.10435114099982,None,236.10435114099982,None,,,,,,,,,,,,,,,,,,,,,,,,,,,,,,,,,,,,,,,,,,,,001,104,2020_Feb_11_1000,spring_faces,3.1.5,60.00254086762889,
condition files/Stage0c_2.xlsx,0c,phi,alpha,h,"['h', 'g']","['Chess', 'Go']","[-0.15, 0.5]","[0.15, 0.5]",1,1,0,15,15,15,0,2,2,1,,,,,,,,,,,,,,,,,,,,,,,,,,,,,,,,,,,,,,,,,,,,,,,,,,,,,,,,,,,,,,,238.07085779399995,None,238.07085779399995,None,238.07085779399995,None,h,1,0.8462440260000221,239.60480207799992,None,239.60480207799992,None,239.60480207799992,None,240.50447972199981,None,240.50447972199981,None,240.50447972199981,None,240.50447972199981,None,,,,,,,,,,,,,,,,,,,,,,,,,,,,,,,,,,,,,,,,,,,,001,104,2020_Feb_11_1000,spring_faces,3.1.5,60.00254086762889,
condition files/Stage0c_2.xlsx,0c,alpha,theta,h,"['h', 'g']","['Chess', 'Go']","[-0.15, 0.5]","[0.15, 0.5]",1,1,0,15,15,15,0,3,3,0,,,,,,,,,,,,,,,,,,,,,,,,,,,,,,,,,,,,,,,,,,,,,,,,,,,,,,,,,,,,,,,242.47080845999972,None,242.47080845999972,None,242.47080845999972,None,g,0,1.0702344279998215,244.0046835799999,None,244.0046835799999,None,244.0046835799999,None,245.12302606100002,None,245.12302606100002,None,245.12302606100002,None,245.12302606100002,None,,,,,,,,,,,,,,,,,,,,,,,,,,,,,,,,,,,,,,,,,,,,001,104,2020_Feb_11_1000,spring_faces,3.1.5,60.00254086762889,
condition files/Stage0c_1.xlsx,0c,phi,beta,g,"['h', 'g']","['Chess', 'Go']","[-0.15, 0.5]","[0.15, 0.5]",1,1,0,16,16,16,0,0,0,3,,,,,,,,,,,,,,,,,,,,,,,,,,,,,,,,,,,,,,,,,,,,,,,,,,,,,,,,,,,,,,,247.1210944899999,None,247.1210944899999,None,247.1210944899999,None,g,1,0.8846188550000988,248.65425677799976,None,248.65425677799976,None,248.65425677799976,None,249.60401089700008,None,249.60401089700008,None,249.60401089700008,None,249.60401089700008,None,,,,,,,,,,,,,,,,,,,,,,,,,,,,,,,,,,,,,,,,,,,,001,104,2020_Feb_11_1000,spring_faces,3.1.5,60.00254086762889,
condition files/Stage0c_1.xlsx,0c,alpha,phi,h,"['h', 'g']","['Chess', 'Go']","[-0.15, 0.5]","[0.15, 0.5]",1,1,0,16,16,16,0,1,1,1,,,,,,,,,,,,,,,,,,,,,,,,,,,,,,,,,,,,,,,,,,,,,,,,,,,,,,,,,,,,,,,251.57085205900012,None,251.57085205900012,None,251.57085205900012,None,h,1,0.6424535200003447,253.10453312899972,None,253.10453312899972,None,253.10453312899972,None,253.80384856699993,None,253.80384856699993,None,253.80384856699993,None,253.80384856699993,None,,,,,,,,,,,,,,,,,,,,,,,,,,,,,,,,,,,,,,,,,,,,001,104,2020_Feb_11_1000,spring_faces,3.1.5,60.00254086762889,
condition files/Stage0c_1.xlsx,0c,beta,theta,g,"['h', 'g']","['Chess', 'Go']","[-0.15, 0.5]","[0.15, 0.5]",1,1,0,16,16,16,0,2,2,2,,,,,,,,,,,,,,,,,,,,,,,,,,,,,,,,,,,,,,,,,,,,,,,,,,,,,,,,,,,,,,,255.7710159379999,None,255.7710159379999,None,255.7710159379999,None,g,1,0.9224398579999615,257.30448338999986,None,257.30448338999986,None,257.30448338999986,None,258.28779571199993,None,258.28779571199993,None,258.28779571199993,None,258.28779571199993,None,,,,,,,,,,,,,,,,,,,,,,,,,,,,,,,,,,,,,,,,,,,,001,104,2020_Feb_11_1000,spring_faces,3.1.5,60.00254086762889,
condition files/Stage0c_1.xlsx,0c,theta,alpha,h,"['h', 'g']","['Chess', 'Go']","[-0.15, 0.5]","[0.15, 0.5]",1,1,0,16,16,16,0,3,3,0,,,,,,,,,,,,,,,,,,,,,,,,,,,,,,,,,,,,,,,,,,,,,,,,,,,,,,,,,,,,,,,260.25413117300013,None,260.25413117300013,None,260.25413117300013,None,h,1,0.7270975719998205,261.7878207839999,None,261.7878207839999,None,261.7878207839999,None,262.5704825779999,None,262.5704825779999,None,262.5704825779999,None,262.5704825779999,None,,,,,,,,,,,,,,,,,,,,,,,,,,,,,,,,,,,,,,,,,,,,001,104,2020_Feb_11_1000,spring_faces,3.1.5,60.00254086762889,
condition files/Stage0c_2.xlsx,0c,alpha,theta,h,"['h', 'g']","['Chess', 'Go']","[-0.15, 0.5]","[0.15, 0.5]",1,1,0,17,17,17,0,0,0,0,,,,,,,,,,,,,,,,,,,,,,,,,,,,,,,,,,,,,,,,,,,,,,,,,,,,,,,,,,,,,,,264.5545455299998,None,264.5545455299998,None,264.5545455299998,None,h,1,1.2111115150000842,266.0877850520001,None,266.0877850520001,None,266.0877850520001,None,267.3394749549998,None,267.3394749549998,None,267.3394749549998,None,267.3394749549998,None,,,,,,,,,,,,,,,,,,,,,,,,,,,,,,,,,,,,,,,,,,,,001,104,2020_Feb_11_1000,spring_faces,3.1.5,60.00254086762889,
condition files/Stage0c_2.xlsx,0c,phi,alpha,h,"['h', 'g']","['Chess', 'Go']","[-0.15, 0.5]","[0.15, 0.5]",1,1,0,17,17,17,0,1,1,1,,,,,,,,,,,,,,,,,,,,,,,,,,,,,,,,,,,,,,,,,,,,,,,,,,,,,,,,,,,,,,,269.32086759599997,None,269.32086759599997,None,269.32086759599997,None,h,1,0.9403853909998361,270.854586124,None,270.854586124,None,270.854586124,None,271.8394643729998,None,271.8394643729998,None,271.8394643729998,None,271.8394643729998,None,,,,,,,,,,,,,,,,,,,,,,,,,,,,,,,,,,,,,,,,,,,,001,104,2020_Feb_11_1000,spring_faces,3.1.5,60.00254086762889,
condition files/Stage0c_2.xlsx,0c,beta,phi,g,"['h', 'g']","['Chess', 'Go']","[-0.15, 0.5]","[0.15, 0.5]",1,1,0,17,17,17,0,2,2,3,,,,,,,,,,,,,,,,,,,,,,,,,,,,,,,,,,,,,,,,,,,,,,,,,,,,,,,,,,,,,,,273.82026417299994,None,273.82026417299994,None,273.82026417299994,None,g,1,0.7284115709999242,275.35451326099974,None,275.35451326099974,None,275.35451326099974,None,276.137770197,None,276.137770197,None,276.137770197,None,276.137770197,None,,,,,,,,,,,,,,,,,,,,,,,,,,,,,,,,,,,,,,,,,,,,001,104,2020_Feb_11_1000,spring_faces,3.1.5,60.00254086762889,
condition files/Stage0c_2.xlsx,0c,theta,beta,g,"['h', 'g']","['Chess', 'Go']","[-0.15, 0.5]","[0.15, 0.5]",1,1,0,17,17,17,0,3,3,2,,,,,,,,,,,,,,,,,,,,,,,,,,,,,,,,,,,,,,,,,,,,,,,,,,,,,,,,,,,,,,,278.1044451160001,None,278.1044451160001,None,278.1044451160001,None,h,0,1.3892555550000907,279.63765863399976,None,279.63765863399976,None,279.63765863399976,None,281.08799750399976,None,281.08799750399976,None,281.08799750399976,None,281.08799750399976,None,,,,,,,,,,,,,,,,,,,,,,,,,,,,,,,,,,,,,,,,,,,,001,104,2020_Feb_11_1000,spring_faces,3.1.5,60.00254086762889,
,,,,,,,,,,,,,,,,,,,,,,,,,,,,,,,,,,,,,,,,,,,,,,,,,,,,,,,,,,,,,,,,,,,,,,,,,,,,,,,,,,,,,,,,,,,,,,,,,,,,,,,,283.0711470719998,None,space,0.5881257390001338,288.07081061400004,None,,,,,,,,,,,,,,,,,,,,,,,,,,,,,,,,,,,,,,001,104,2020_Feb_11_1000,spring_faces,3.1.5,60.00254086762889,
condition files/Stage1_1.xlsx,,B1,T2,c,"['c', 'm']","['Clue', 'Monopoly']","[-0.15, 0.5]","[0.15, 0.5]",1,1,,,,,,,,,0,0,0,0,0,0,0,1,,,,,,,,,,,,,,,,,,,,,,,,,,,,,,,,,,,,,,,,,,,,,,,,,,,,,,,288.7204513739998,None,288.7204513739998,None,288.7204513739998,None,c,1,1.968779768999866,290.3061519869998,None,290.3061519869998,None,290.3061519869998,None,292.3539605599999,None,292.3539605599999,None,292.3539605599999,None,292.3539605599999,None,,,,,,,288.07081061400004,None,,,,,,,,,,,,,,,,,,,,,,,,,,,,,,,,,,,,001,104,2020_Feb_11_1000,spring_faces,3.1.5,60.00254086762889,
condition files/Stage1_1.xlsx,,T3,B4,c,"['c', 'm']","['Clue', 'Monopoly']","[-0.15, 0.5]","[0.15, 0.5]",1,1,,,,,,,,,0,0,0,0,0,1,1,5,,,,,,,,,,,,,,,,,,,,,,,,,,,,,,,,,,,,,,,,,,,,,,,,,,,,,,,294.30413253000006,None,294.30413253000006,None,294.30413253000006,None,m,0,1.0752104189996317,295.88778971700003,None,295.88778971700003,None,295.88778971700003,None,297.02071015799993,None,297.02071015799993,None,297.02071015799993,None,297.02071015799993,None,,,,,,,,,,,,,,,,,,,,,,,,,,,,,,,,,,,,,,,,,,,,001,104,2020_Feb_11_1000,spring_faces,3.1.5,60.00254086762889,
condition files/Stage1_1.xlsx,,T2,B2,m,"['c', 'm']","['Clue', 'Monopoly']","[-0.15, 0.5]","[0.15, 0.5]",1,1,,,,,,,,,0,0,0,0,0,2,2,3,,,,,,,,,,,,,,,,,,,,,,,,,,,,,,,,,,,,,,,,,,,,,,,,,,,,,,,298.9875315109998,None,298.9875315109998,None,298.9875315109998,None,c,0,1.0010032919999503,300.537827911,None,300.537827911,None,300.537827911,None,301.604220792,None,301.604220792,None,301.604220792,None,301.604220792,None,,,,,,,,,,,,,,,,,,,,,,,,,,,,,,,,,,,,,,,,,,,,001,104,2020_Feb_11_1000,spring_faces,3.1.5,60.00254086762889,
condition files/Stage1_1.xlsx,,B2,T1,m,"['c', 'm']","['Clue', 'Monopoly']","[-0.15, 0.5]","[0.15, 0.5]",1,1,,,,,,,,,0,0,0,0,0,3,3,2,,,,,,,,,,,,,,,,,,,,,,,,,,,,,,,,,,,,,,,,,,,,,,,,,,,,,,,303.57047436999983,None,303.57047436999983,None,303.57047436999983,None,m,1,1.4242414160003136,305.1547325480001,None,305.1547325480001,None,305.1547325480001,None,306.6373424620001,None,306.6373424620001,None,306.6373424620001,None,306.6373424620001,None,,,,,,,,,,,,,,,,,,,,,,,,,,,,,,,,,,,,,,,,,,,,001,104,2020_Feb_11_1000,spring_faces,3.1.5,60.00254086762889,
condition files/Stage1_1.xlsx,,B4,T4,m,"['c', 'm']","['Clue', 'Monopoly']","[-0.15, 0.5]","[0.15, 0.5]",1,1,,,,,,,,,0,0,0,0,0,4,4,7,,,,,,,,,,,,,,,,,,,,,,,,,,,,,,,,,,,,,,,,,,,,,,,,,,,,,,,308.603609625,None,308.603609625,None,308.603609625,None,c,0,0.8064223669998682,310.20455124,None,310.20455124,None,310.20455124,None,311.070951532,None,311.070951532,None,311.070951532,None,311.070951532,None,,,,,,,,,,,,,,,,,,,,,,,,,,,,,,,,,,,,,,,,,,,,001,104,2020_Feb_11_1000,spring_faces,3.1.5,60.00254086762889,
condition files/Stage1_1.xlsx,,T4,B3,m,"['c', 'm']","['Clue', 'Monopoly']","[-0.15, 0.5]","[0.15, 0.5]",1,1,,,,,,,,,0,0,0,0,0,5,5,6,,,,,,,,,,,,,,,,,,,,,,,,,,,,,,,,,,,,,,,,,,,,,,,,,,,,,,,313.0376775,None,313.0376775,None,313.0376775,None,m,1,1.0794986179998887,314.5716173269998,None,314.5716173269998,None,314.5716173269998,None,315.7043446009998,None,315.7043446009998,None,315.7043446009998,None,315.7043446009998,None,,,,,,,,,,,,,,,,,,,,,,,,,,,,,,,,,,,,,,,,,,,,001,104,2020_Feb_11_1000,spring_faces,3.1.5,60.00254086762889,
condition files/Stage1_1.xlsx,,T1,B1,c,"['c', 'm']","['Clue', 'Monopoly']","[-0.15, 0.5]","[0.15, 0.5]",1,1,,,,,,,,,0,0,0,0,0,6,6,0,,,,,,,,,,,,,,,,,,,,,,,,,,,,,,,,,,,,,,,,,,,,,,,,,,,,,,,317.687389835,None,317.687389835,None,317.687389835,None,c,1,1.0063527970000905,319.2206041649997,None,319.2206041649997,None,319.2206041649997,None,320.2882763829998,None,320.2882763829998,None,320.2882763829998,None,320.2882763829998,None,,,,,,,,,,,,,,,,,,,,,,,,,,,,,,,,,,,,,,,,,,,,001,104,2020_Feb_11_1000,spring_faces,3.1.5,60.00254086762889,
condition files/Stage1_1.xlsx,,B3,T3,c,"['c', 'm']","['Clue', 'Monopoly']","[-0.15, 0.5]","[0.15, 0.5]",1,1,,,,,,,,,0,0,0,0,0,7,7,4,,,,,,,,,,,,,,,,,,,,,,,,,,,,,,,,,,,,,,,,,,,,,,,,,,,,,,,322.2541328399998,None,322.2541328399998,None,322.2541328399998,None,c,1,0.9034155859999373,323.7875077579997,None,323.7875077579997,None,323.7875077579997,None,324.75404463999985,None,324.75404463999985,None,324.75404463999985,None,324.75404463999985,None,,,,,,,,,,,,,,,,,,,,,,,,,,,,,,,,,,,,,,,,,,,,001,104,2020_Feb_11_1000,spring_faces,3.1.5,60.00254086762889,
condition files/Stage1_2.xlsx,,B3,T4,m,"['c', 'm']","['Clue', 'Monopoly']","[-0.15, 0.5]","[0.15, 0.5]",1,1,,,,,,,,,0,1,1,1,0,0,0,6,,,,,,,,,,,,,,,,,,,,,,,,,,,,,,,,,,,,,,,,,,,,,,,,,,,,,,,326.73776180000004,None,326.73776180000004,None,326.73776180000004,None,m,1,1.0103077310000117,328.2725674469998,None,328.2725674469998,None,328.2725674469998,None,329.3544811699999,None,329.3544811699999,None,329.3544811699999,None,329.3544811699999,None,,,,,,,,,,,,,,,,,,,,,,,,,,,,,,,,,,,,,,,,,,,,001,104,2020_Feb_11_1000,spring_faces,3.1.5,60.00254086762889,
condition files/Stage1_2.xlsx,,B4,T3,c,"['c', 'm']","['Clue', 'Monopoly']","[-0.15, 0.5]","[0.15, 0.5]",1,1,,,,,,,,,0,1,1,1,0,1,1,5,,,,,,,,,,,,,,,,,,,,,,,,,,,,,,,,,,,,,,,,,,,,,,,,,,,,,,,331.3041570380001,None,331.3041570380001,None,331.3041570380001,None,c,1,0.973038321000331,332.8538842879998,None,332.8538842879998,None,332.8538842879998,None,333.88737288899983,None,333.88737288899983,None,333.88737288899983,None,333.88737288899983,None,,,,,,,,,,,,,,,,,,,,,,,,,,,,,,,,,,,,,,,,,,,,001,104,2020_Feb_11_1000,spring_faces,3.1.5,60.00254086762889,
condition files/Stage1_2.xlsx,,T4,B4,m,"['c', 'm']","['Clue', 'Monopoly']","[-0.15, 0.5]","[0.15, 0.5]",1,1,,,,,,,,,0,1,1,1,0,2,2,7,,,,,,,,,,,,,,,,,,,,,,,,,,,,,,,,,,,,,,,,,,,,,,,,,,,,,,,335.85424207000005,None,335.85424207000005,None,335.85424207000005,None,m,1,0.9675208909998219,337.38734919299986,None,337.38734919299986,None,337.38734919299986,None,338.43788817799987,None,338.43788817799987,None,338.43788817799987,None,338.43788817799987,None,,,,,,,,,,,,,,,,,,,,,,,,,,,,,,,,,,,,,,,,,,,,001,104,2020_Feb_11_1000,spring_faces,3.1.5,60.00254086762889,
condition files/Stage1_2.xlsx,,B2,T2,m,"['c', 'm']","['Clue', 'Monopoly']","[-0.15, 0.5]","[0.15, 0.5]",1,1,,,,,,,,,0,1,1,1,0,3,3,3,,,,,,,,,,,,,,,,,,,,,,,,,,,,,,,,,,,,,,,,,,,,,,,,,,,,,,,340.3873403739999,None,340.3873403739999,None,340.3873403739999,None,c,0,0.9931722169999375,341.937809003,None,341.937809003,None,341.937809003,None,342.9877573670001,None,342.9877573670001,None,342.9877573670001,None,342.9877573670001,None,,,,,,,,,,,,,,,,,,,,,,,,,,,,,,,,,,,,,,,,,,,,001,104,2020_Feb_11_1000,spring_faces,3.1.5,60.00254086762889,
condition files/Stage1_2.xlsx,,B1,T1,c,"['c', 'm']","['Clue', 'Monopoly']","[-0.15, 0.5]","[0.15, 0.5]",1,1,,,,,,,,,0,1,1,1,0,4,4,0,,,,,,,,,,,,,,,,,,,,,,,,,,,,,,,,,,,,,,,,,,,,,,,,,,,,,,,344.95418041699986,None,344.95418041699986,None,344.95418041699986,None,c,1,1.178564323000046,346.5043452509999,None,346.5043452509999,None,346.5043452509999,None,347.73859647400013,None,347.73859647400013,None,347.73859647400013,None,347.73859647400013,None,,,,,,,,,,,,,,,,,,,,,,,,,,,,,,,,,,,,,,,,,,,,001,104,2020_Feb_11_1000,spring_faces,3.1.5,60.00254086762889,
condition files/Stage1_2.xlsx,,T1,B2,m,"['c', 'm']","['Clue', 'Monopoly']","[-0.15, 0.5]","[0.15, 0.5]",1,1,,,,,,,,,0,1,1,1,0,5,5,2,,,,,,,,,,,,,,,,,,,,,,,,,,,,,,,,,,,,,,,,,,,,,,,,,,,,,,,349.7038390059997,None,349.7038390059997,None,349.7038390059997,None,c,0,1.2934106869997777,351.23759163199975,None,351.23759163199975,None,351.23759163199975,None,352.5894213309998,None,352.5894213309998,None,352.5894213309998,None,352.5894213309998,None,,,,,,,,,,,,,,,,,,,,,,,,,,,,,,,,,,,,,,,,,,,,001,104,2020_Feb_11_1000,spring_faces,3.1.5,60.00254086762889,
condition files/Stage1_2.xlsx,,T2,B1,c,"['c', 'm']","['Clue', 'Monopoly']","[-0.15, 0.5]","[0.15, 0.5]",1,1,,,,,,,,,0,1,1,1,0,6,6,1,,,,,,,,,,,,,,,,,,,,,,,,,,,,,,,,,,,,,,,,,,,,,,,,,,,,,,,354.5536933989997,None,354.5536933989997,None,354.5536933989997,None,c,1,0.8275680480001029,356.08736817399995,None,356.08736817399995,None,356.08736817399995,None,356.98775094999974,None,356.98775094999974,None,356.98775094999974,None,356.98775094999974,None,,,,,,,,,,,,,,,,,,,,,,,,,,,,,,,,,,,,,,,,,,,,001,104,2020_Feb_11_1000,spring_faces,3.1.5,60.00254086762889,
condition files/Stage1_2.xlsx,,T3,B3,c,"['c', 'm']","['Clue', 'Monopoly']","[-0.15, 0.5]","[0.15, 0.5]",1,1,,,,,,,,,0,1,1,1,0,7,7,4,,,,,,,,,,,,,,,,,,,,,,,,,,,,,,,,,,,,,,,,,,,,,,,,,,,,,,,358.93754578900007,None,358.93754578900007,None,358.93754578900007,None,c,1,1.4033743029999641,360.48754807199975,None,360.48754807199975,None,360.48754807199975,None,361.9542954650001,None,361.9542954650001,None,361.9542954650001,None,361.9542954650001,None,,,,,,,,,,,,,,,,,,,,,,,,,,,,,,,,,,,,,,,,,,,,001,104,2020_Feb_11_1000,spring_faces,3.1.5,60.00254086762889,
condition files/Stage1_1.xlsx,,T1,B1,c,"['c', 'm']","['Clue', 'Monopoly']","[-0.15, 0.5]","[0.15, 0.5]",1,1,,,,,,,,,0,2,2,2,0,0,0,0,,,,,,,,,,,,,,,,,,,,,,,,,,,,,,,,,,,,,,,,,,,,,,,,,,,,,,,363.937938649,None,363.937938649,None,363.937938649,None,m,0,1.1233989289999045,365.4716095829999,None,365.4716095829999,None,365.4716095829999,None,366.65447664700014,None,366.65447664700014,None,366.65447664700014,None,366.65447664700014,None,,,,,,,,,,,,,,,,,,,,,,,,,,,,,,,,,,,,,,,,,,,,001,104,2020_Feb_11_1000,spring_faces,3.1.5,60.00254086762889,
condition files/Stage1_1.xlsx,,B3,T3,c,"['c', 'm']","['Clue', 'Monopoly']","[-0.15, 0.5]","[0.15, 0.5]",1,1,,,,,,,,,0,2,2,2,0,1,1,4,,,,,,,,,,,,,,,,,,,,,,,,,,,,,,,,,,,,,,,,,,,,,,,,,,,,,,,368.6208669009998,None,368.6208669009998,None,368.6208669009998,None,c,1,1.4482244969999556,370.15469334299996,None,370.15469334299996,None,370.15469334299996,None,371.6540488569999,None,371.6540488569999,None,371.6540488569999,None,371.6540488569999,None,,,,,,,,,,,,,,,,,,,,,,,,,,,,,,,,,,,,,,,,,,,,001,104,2020_Feb_11_1000,spring_faces,3.1.5,60.00254086762889,
condition files/Stage1_1.xlsx,,T3,B4,c,"['c', 'm']","['Clue', 'Monopoly']","[-0.15, 0.5]","[0.15, 0.5]",1,1,,,,,,,,,0,2,2,2,0,2,2,5,,,,,,,,,,,,,,,,,,,,,,,,,,,,,,,,,,,,,,,,,,,,,,,,,,,,,,,373.6209137259998,None,373.6209137259998,None,373.6209137259998,None,c,1,0.8476484400002846,375.17125911699986,None,375.17125911699986,None,375.17125911699986,None,376.07069864000005,None,376.07069864000005,None,376.07069864000005,None,376.07069864000005,None,,,,,,,,,,,,,,,,,,,,,,,,,,,,,,,,,,,,,,,,,,,,001,104,2020_Feb_11_1000,spring_faces,3.1.5,60.00254086762889,
condition files/Stage1_1.xlsx,,B4,T4,m,"['c', 'm']","['Clue', 'Monopoly']","[-0.15, 0.5]","[0.15, 0.5]",1,1,,,,,,,,,0,2,2,2,0,3,3,7,,,,,,,,,,,,,,,,,,,,,,,,,,,,,,,,,,,,,,,,,,,,,,,,,,,,,,,378.0374688659999,None,378.0374688659999,None,378.0374688659999,None,m,1,0.816194097999869,379.5707347560001,None,379.5707347560001,None,379.5707347560001,None,380.4541615160001,None,380.4541615160001,None,380.4541615160001,None,380.4541615160001,None,,,,,,,,,,,,,,,,,,,,,,,,,,,,,,,,,,,,,,,,,,,,001,104,2020_Feb_11_1000,spring_faces,3.1.5,60.00254086762889,
condition files/Stage1_1.xlsx,,T2,B2,m,"['c', 'm']","['Clue', 'Monopoly']","[-0.15, 0.5]","[0.15, 0.5]",1,1,,,,,,,,,0,2,2,2,0,4,4,3,,,,,,,,,,,,,,,,,,,,,,,,,,,,,,,,,,,,,,,,,,,,,,,,,,,,,,,382.4038788560001,None,382.4038788560001,None,382.4038788560001,None,m,1,1.4389432889997806,383.9400429699999,None,383.9400429699999,None,383.9400429699999,None,385.437487442,None,385.437487442,None,385.437487442,None,385.437487442,None,,,,,,,,,,,,,,,,,,,,,,,,,,,,,,,,,,,,,,,,,,,,001,104,2020_Feb_11_1000,spring_faces,3.1.5,60.00254086762889,
condition files/Stage1_1.xlsx,,B2,T1,m,"['c', 'm']","['Clue', 'Monopoly']","[-0.15, 0.5]","[0.15, 0.5]",1,1,,,,,,,,,0,2,2,2,0,5,5,2,,,,,,,,,,,,,,,,,,,,,,,,,,,,,,,,,,,,,,,,,,,,,,,,,,,,,,,387.40410328400003,None,387.40410328400003,None,387.40410328400003,None,m,1,1.3045154330002333,388.9544038529998,None,388.9544038529998,None,388.9544038529998,None,390.32045249199973,None,390.32045249199973,None,390.32045249199973,None,390.32045249199973,None,,,,,,,,,,,,,,,,,,,,,,,,,,,,,,,,,,,,,,,,,,,,001,104,2020_Feb_11_1000,spring_faces,3.1.5,60.00254086762889,
condition files/Stage1_1.xlsx,,T4,B3,m,"['c', 'm']","['Clue', 'Monopoly']","[-0.15, 0.5]","[0.15, 0.5]",1,1,,,,,,,,,0,2,2,2,0,6,6,6,,,,,,,,,,,,,,,,,,,,,,,,,,,,,,,,,,,,,,,,,,,,,,,,,,,,,,,392.2871473549999,None,392.2871473549999,None,392.2871473549999,None,m,1,1.2529476019999493,393.8379679579998,None,393.8379679579998,None,393.8379679579998,None,395.15421484499984,None,395.15421484499984,None,395.15421484499984,None,395.15421484499984,None,,,,,,,,,,,,,,,,,,,,,,,,,,,,,,,,,,,,,,,,,,,,001,104,2020_Feb_11_1000,spring_faces,3.1.5,60.00254086762889,
condition files/Stage1_1.xlsx,,B1,T2,c,"['c', 'm']","['Clue', 'Monopoly']","[-0.15, 0.5]","[0.15, 0.5]",1,1,,,,,,,,,0,2,2,2,0,7,7,1,,,,,,,,,,,,,,,,,,,,,,,,,,,,,,,,,,,,,,,,,,,,,,,,,,,,,,,397.12078501899987,None,397.12078501899987,None,397.12078501899987,None,c,1,1.4763216310002463,398.65467103499986,None,398.65467103499986,None,398.65467103499986,None,400.18897239299986,None,400.18897239299986,None,400.18897239299986,None,400.18897239299986,None,,,,,,,,,,,,,,,,,,,,,,,,,,,,,,,,,,,,,,,,,,,,001,104,2020_Feb_11_1000,spring_faces,3.1.5,60.00254086762889,
condition files/Stage1_2.xlsx,,T4,B4,m,"['c', 'm']","['Clue', 'Monopoly']","[-0.15, 0.5]","[0.15, 0.5]",1,1,,,,,,,,,0,3,3,3,0,0,0,7,,,,,,,,,,,,,,,,,,,,,,,,,,,,,,,,,,,,,,,,,,,,,,,,,,,,,,,402.17135733199984,None,402.17135733199984,None,402.17135733199984,None,m,1,0.7307285179999781,403.704194506,None,403.704194506,None,403.704194506,None,404.4874619709999,None,404.4874619709999,None,404.4874619709999,None,404.4874619709999,None,,,,,,,,,,,,,,,,,,,,,,,,,,,,,,,,,,,,,,,,,,,,001,104,2020_Feb_11_1000,spring_faces,3.1.5,60.00254086762889,
condition files/Stage1_2.xlsx,,T1,B2,m,"['c', 'm']","['Clue', 'Monopoly']","[-0.15, 0.5]","[0.15, 0.5]",1,1,,,,,,,,,0,3,3,3,0,1,1,2,,,,,,,,,,,,,,,,,,,,,,,,,,,,,,,,,,,,,,,,,,,,,,,,,,,,,,,406.4540598469998,None,406.4540598469998,None,406.4540598469998,None,c,0,1.0076413910001065,407.9873534170001,None,407.9873534170001,None,407.9873534170001,None,409.05450072099984,None,409.05450072099984,None,409.05450072099984,None,409.05450072099984,None,,,,,,,,,,,,,,,,,,,,,,,,,,,,,,,,,,,,,,,,,,,,001,104,2020_Feb_11_1000,spring_faces,3.1.5,60.00254086762889,
condition files/Stage1_2.xlsx,,B4,T3,c,"['c', 'm']","['Clue', 'Monopoly']","[-0.15, 0.5]","[0.15, 0.5]",1,1,,,,,,,,,0,3,3,3,0,2,2,5,,,,,,,,,,,,,,,,,,,,,,,,,,,,,,,,,,,,,,,,,,,,,,,,,,,,,,,411.0204765939998,None,411.0204765939998,None,411.0204765939998,None,c,1,1.720426247999967,412.5545049719999,None,412.5545049719999,None,412.5545049719999,None,414.3387992889998,None,414.3387992889998,None,414.3387992889998,None,414.3387992889998,None,,,,,,,,,,,,,,,,,,,,,,,,,,,,,,,,,,,,,,,,,,,,001,104,2020_Feb_11_1000,spring_faces,3.1.5,60.00254086762889,
condition files/Stage1_2.xlsx,,B1,T1,c,"['c', 'm']","['Clue', 'Monopoly']","[-0.15, 0.5]","[0.15, 0.5]",1,1,,,,,,,,,0,3,3,3,0,3,3,0,,,,,,,,,,,,,,,,,,,,,,,,,,,,,,,,,,,,,,,,,,,,,,,,,,,,,,,416.30414071799987,None,416.30414071799987,None,416.30414071799987,None,m,0,0.9974400559999594,417.8374812490001,None,417.8374812490001,None,417.8374812490001,None,418.887645455,None,418.887645455,None,418.887645455,None,418.887645455,None,,,,,,,,,,,,,,,,,,,,,,,,,,,,,,,,,,,,,,,,,,,,001,104,2020_Feb_11_1000,spring_faces,3.1.5,60.00254086762889,
condition files/Stage1_2.xlsx,,T2,B1,c,"['c', 'm']","['Clue', 'Monopoly']","[-0.15, 0.5]","[0.15, 0.5]",1,1,,,,,,,,,0,3,3,3,0,4,4,1,,,,,,,,,,,,,,,,,,,,,,,,,,,,,,,,,,,,,,,,,,,,,,,,,,,,,,,420.8541287329999,None,420.8541287329999,None,420.8541287329999,None,c,1,0.7666363970001839,422.38826203100007,None,422.38826203100007,None,422.38826203100007,None,423.2212012320001,None,423.2212012320001,None,423.2212012320001,None,423.2212012320001,None,,,,,,,,,,,,,,,,,,,,,,,,,,,,,,,,,,,,,,,,,,,,001,104,2020_Feb_11_1000,spring_faces,3.1.5,60.00254086762889,
condition files/Stage1_2.xlsx,,B2,T2,m,"['c', 'm']","['Clue', 'Monopoly']","[-0.15, 0.5]","[0.15, 0.5]",1,1,,,,,,,,,0,3,3,3,0,5,5,3,,,,,,,,,,,,,,,,,,,,,,,,,,,,,,,,,,,,,,,,,,,,,,,,,,,,,,,425.18725354399976,None,425.18725354399976,None,425.18725354399976,None,m,1,1.5520260379998945,426.7229143909999,None,426.7229143909999,None,426.7229143909999,None,428.3399168679998,None,428.3399168679998,None,428.3399168679998,None,428.3399168679998,None,,,,,,,,,,,,,,,,,,,,,,,,,,,,,,,,,,,,,,,,,,,,001,104,2020_Feb_11_1000,spring_faces,3.1.5,60.00254086762889,
condition files/Stage1_2.xlsx,,B3,T4,m,"['c', 'm']","['Clue', 'Monopoly']","[-0.15, 0.5]","[0.15, 0.5]",1,1,,,,,,,,,0,3,3,3,0,6,6,6,,,,,,,,,,,,,,,,,,,,,,,,,,,,,,,,,,,,,,,,,,,,,,,,,,,,,,,430.30413170099973,None,430.30413170099973,None,430.30413170099973,None,m,1,1.2364199130001907,431.8545026429997,None,431.8545026429997,None,431.8545026429997,None,433.15451041999995,None,433.15451041999995,None,433.15451041999995,None,433.15451041999995,None,,,,,,,,,,,,,,,,,,,,,,,,,,,,,,,,,,,,,,,,,,,,001,104,2020_Feb_11_1000,spring_faces,3.1.5,60.00254086762889,
condition files/Stage1_2.xlsx,,T3,B3,c,"['c', 'm']","['Clue', 'Monopoly']","[-0.15, 0.5]","[0.15, 0.5]",1,1,,,,,,,,,0,3,3,3,0,7,7,4,,,,,,,,,,,,,,,,,,,,,,,,,,,,,,,,,,,,,,,,,,,,,,,,,,,,,,,435.1208681559997,None,435.1208681559997,None,435.1208681559997,None,m,0,0.8366504289997465,436.6542727609999,None,436.6542727609999,None,436.6542727609999,None,437.55392700699986,None,437.55392700699986,None,437.55392700699986,None,437.55392700699986,None,,,,,,,,,,,,,,,,,,,,,,,,,,,,,,,,,,,,,,,,,,,,001,104,2020_Feb_11_1000,spring_faces,3.1.5,60.00254086762889,
condition files/Stage1_1.xlsx,,B2,T1,m,"['c', 'm']","['Clue', 'Monopoly']","[-0.15, 0.5]","[0.15, 0.5]",1,1,,,,,,,,,0,4,4,4,0,0,0,2,,,,,,,,,,,,,,,,,,,,,,,,,,,,,,,,,,,,,,,,,,,,,,,,,,,,,,,439.5380236709998,None,439.5380236709998,None,439.5380236709998,None,m,1,0.7871505749999415,441.0717967119999,None,441.0717967119999,None,441.0717967119999,None,441.9220897199998,None,441.9220897199998,None,441.9220897199998,None,441.9220897199998,None,,,,,,,,,,,,,,,,,,,,,,,,,,,,,,,,,,,,,,,,,,,,001,104,2020_Feb_11_1000,spring_faces,3.1.5,60.00254086762889,
condition files/Stage1_1.xlsx,,T2,B2,m,"['c', 'm']","['Clue', 'Monopoly']","[-0.15, 0.5]","[0.15, 0.5]",1,1,,,,,,,,,0,4,4,4,0,1,1,3,,,,,,,,,,,,,,,,,,,,,,,,,,,,,,,,,,,,,,,,,,,,,,,,,,,,,,,443.88750361799976,None,443.88750361799976,None,443.88750361799976,None,m,1,1.3018537859998105,445.4210739109999,None,445.4210739109999,None,445.4210739109999,None,446.7875531929999,None,446.7875531929999,None,446.7875531929999,None,446.7875531929999,None,,,,,,,,,,,,,,,,,,,,,,,,,,,,,,,,,,,,,,,,,,,,001,104,2020_Feb_11_1000,spring_faces,3.1.5,60.00254086762889,
condition files/Stage1_1.xlsx,,T4,B3,m,"['c', 'm']","['Clue', 'Monopoly']","[-0.15, 0.5]","[0.15, 0.5]",1,1,,,,,,,,,0,4,4,4,0,2,2,6,,,,,,,,,,,,,,,,,,,,,,,,,,,,,,,,,,,,,,,,,,,,,,,,,,,,,,,448.7541169410001,None,448.7541169410001,None,448.7541169410001,None,m,1,0.8181595710002512,450.28875370700007,None,450.28875370700007,None,450.28875370700007,None,451.1710911770001,None,451.1710911770001,None,451.1710911770001,None,451.1710911770001,None,,,,,,,,,,,,,,,,,,,,,,,,,,,,,,,,,,,,,,,,,,,,001,104,2020_Feb_11_1000,spring_faces,3.1.5,60.00254086762889,
condition files/Stage1_1.xlsx,,T3,B4,c,"['c', 'm']","['Clue', 'Monopoly']","[-0.15, 0.5]","[0.15, 0.5]",1,1,,,,,,,,,0,4,4,4,0,3,3,5,,,,,,,,,,,,,,,,,,,,,,,,,,,,,,,,,,,,,,,,,,,,,,,,,,,,,,,453.1374387359997,None,453.1374387359997,None,453.1374387359997,None,c,1,0.7873005669998747,454.68761370699985,None,454.68761370699985,None,454.68761370699985,None,455.53836107300003,None,455.53836107300003,None,455.53836107300003,None,455.53836107300003,None,,,,,,,,,,,,,,,,,,,,,,,,,,,,,,,,,,,,,,,,,,,,001,104,2020_Feb_11_1000,spring_faces,3.1.5,60.00254086762889,
condition files/Stage1_1.xlsx,,B4,T4,m,"['c', 'm']","['Clue', 'Monopoly']","[-0.15, 0.5]","[0.15, 0.5]",1,1,,,,,,,,,0,4,4,4,0,4,4,7,,,,,,,,,,,,,,,,,,,,,,,,,,,,,,,,,,,,,,,,,,,,,,,,,,,,,,,457.50414160699984,None,457.50414160699984,None,457.50414160699984,None,m,1,1.093353868000122,459.0376256579998,None,459.0376256579998,None,459.0376256579998,None,460.20465636400013,None,460.20465636400013,None,460.20465636400013,None,460.20465636400013,None,,,,,,,,,,,,,,,,,,,,,,,,,,,,,,,,,,,,,,,,,,,,001,104,2020_Feb_11_1000,spring_faces,3.1.5,60.00254086762889,
condition files/Stage1_1.xlsx,,B1,T2,c,"['c', 'm']","['Clue', 'Monopoly']","[-0.15, 0.5]","[0.15, 0.5]",1,1,,,,,,,,,0,4,4,4,0,5,5,1,,,,,,,,,,,,,,,,,,,,,,,,,,,,,,,,,,,,,,,,,,,,,,,,,,,,,,,462.154245792,None,462.154245792,None,462.154245792,None,m,0,1.5789821379999012,463.68794709099984,None,463.68794709099984,None,463.68794709099984,None,465.32343599099977,None,465.32343599099977,None,465.32343599099977,None,465.32343599099977,None,,,,,,,,,,,,,,,,,,,,,,,,,,,,,,,,,,,,,,,,,,,,001,104,2020_Feb_11_1000,spring_faces,3.1.5,60.00254086762889,
condition files/Stage1_1.xlsx,,T1,B1,c,"['c', 'm']","['Clue', 'Monopoly']","[-0.15, 0.5]","[0.15, 0.5]",1,1,,,,,,,,,0,4,4,4,0,6,6,0,,,,,,,,,,,,,,,,,,,,,,,,,,,,,,,,,,,,,,,,,,,,,,,,,,,,,,,467.2875582050001,None,467.2875582050001,None,467.2875582050001,None,m,0,1.3739044419999118,468.83706488999997,None,468.83706488999997,None,468.83706488999997,None,470.2705908560001,None,470.2705908560001,None,470.2705908560001,None,470.2705908560001,None,,,,,,,,,,,,,,,,,,,,,,,,,,,,,,,,,,,,,,,,,,,,001,104,2020_Feb_11_1000,spring_faces,3.1.5,60.00254086762889,
condition files/Stage1_1.xlsx,,B3,T3,c,"['c', 'm']","['Clue', 'Monopoly']","[-0.15, 0.5]","[0.15, 0.5]",1,1,,,,,,,,,0,4,4,4,0,7,7,4,,,,,,,,,,,,,,,,,,,,,,,,,,,,,,,,,,,,,,,,,,,,,,,,,,,,,,,472.23749578299976,None,472.23749578299976,None,472.23749578299976,None,c,1,1.5278631809997023,473.78713732899996,None,473.78713732899996,None,473.78713732899996,None,475.371149653,None,475.371149653,None,475.371149653,None,475.371149653,None,,,,,,,,,,,,,,,,,,,,,,,,,,,,,,,,,,,,,,,,,,,,001,104,2020_Feb_11_1000,spring_faces,3.1.5,60.00254086762889,
condition files/Stage1_2.xlsx,,B2,T2,m,"['c', 'm']","['Clue', 'Monopoly']","[-0.15, 0.5]","[0.15, 0.5]",1,1,,,,,,,,,0,5,5,5,0,0,0,3,,,,,,,,,,,,,,,,,,,,,,,,,,,,,,,,,,,,,,,,,,,,,,,,,,,,,,,477.3545151489998,None,477.3545151489998,None,477.3545151489998,None,m,1,1.7225539360001676,478.8884317090001,None,478.8884317090001,None,478.8884317090001,None,480.673441682,None,480.673441682,None,480.673441682,None,480.673441682,None,,,,,,,,,,,,,,,,,,,,,,,,,,,,,,,,,,,,,,,,,,,,001,104,2020_Feb_11_1000,spring_faces,3.1.5,60.00254086762889,
condition files/Stage1_2.xlsx,,T1,B2,m,"['c', 'm']","['Clue', 'Monopoly']","[-0.15, 0.5]","[0.15, 0.5]",1,1,,,,,,,,,0,5,5,5,0,1,1,2,,,,,,,,,,,,,,,,,,,,,,,,,,,,,,,,,,,,,,,,,,,,,,,,,,,,,,,482.6368201099999,None,482.6368201099999,None,482.6368201099999,None,c,0,1.944123118999869,484.17081529899997,None,484.17081529899997,None,484.17081529899997,None,486.17107611599977,None,486.17107611599977,None,486.17107611599977,None,486.17107611599977,None,,,,,,,,,,,,,,,,,,,,,,,,,,,,,,,,,,,,,,,,,,,,001,104,2020_Feb_11_1000,spring_faces,3.1.5,60.00254086762889,
condition files/Stage1_2.xlsx,,T2,B1,c,"['c', 'm']","['Clue', 'Monopoly']","[-0.15, 0.5]","[0.15, 0.5]",1,1,,,,,,,,,0,5,5,5,0,2,2,1,,,,,,,,,,,,,,,,,,,,,,,,,,,,,,,,,,,,,,,,,,,,,,,,,,,,,,,488.1369798129999,None,488.1369798129999,None,488.1369798129999,None,c,1,0.8749795630001245,489.6880048359999,None,489.6880048359999,None,489.6880048359999,None,490.6371057729998,None,490.6371057729998,None,490.6371057729998,None,490.6371057729998,None,,,,,,,,,,,,,,,,,,,,,,,,,,,,,,,,,,,,,,,,,,,,001,104,2020_Feb_11_1000,spring_faces,3.1.5,60.00254086762889,
condition files/Stage1_2.xlsx,,T4,B4,m,"['c', 'm']","['Clue', 'Monopoly']","[-0.15, 0.5]","[0.15, 0.5]",1,1,,,,,,,,,0,5,5,5,0,3,3,7,,,,,,,,,,,,,,,,,,,,,,,,,,,,,,,,,,,,,,,,,,,,,,,,,,,,,,,492.58744755099997,None,492.58744755099997,None,492.58744755099997,None,m,1,0.9062095690001115,494.1207172559998,None,494.1207172559998,None,494.1207172559998,None,495.08913048099976,None,495.08913048099976,None,495.08913048099976,None,495.08913048099976,None,,,,,,,,,,,,,,,,,,,,,,,,,,,,,,,,,,,,,,,,,,,,001,104,2020_Feb_11_1000,spring_faces,3.1.5,60.00254086762889,
condition files/Stage1_2.xlsx,,B3,T4,m,"['c', 'm']","['Clue', 'Monopoly']","[-0.15, 0.5]","[0.15, 0.5]",1,1,,,,,,,,,0,5,5,5,0,4,4,6,,,,,,,,,,,,,,,,,,,,,,,,,,,,,,,,,,,,,,,,,,,,,,,,,,,,,,,497.05407995999985,None,497.05407995999985,None,497.05407995999985,None,m,1,0.9822178949998488,498.5887191249999,None,498.5887191249999,None,498.5887191249999,None,499.62098285599996,None,499.62098285599996,None,499.62098285599996,None,499.62098285599996,None,,,,,,,,,,,,,,,,,,,,,,,,,,,,,,,,,,,,,,,,,,,,001,104,2020_Feb_11_1000,spring_faces,3.1.5,60.00254086762889,
condition files/Stage1_2.xlsx,,B1,T1,c,"['c', 'm']","['Clue', 'Monopoly']","[-0.15, 0.5]","[0.15, 0.5]",1,1,,,,,,,,,0,5,5,5,0,5,5,0,,,,,,,,,,,,,,,,,,,,,,,,,,,,,,,,,,,,,,,,,,,,,,,,,,,,,,,501.58757744000013,None,501.58757744000013,None,501.58757744000013,None,m,0,1.8410898970000744,503.1378930259998,None,503.1378930259998,None,503.1378930259998,None,505.0546146829997,None,505.0546146829997,None,505.0546146829997,None,505.0546146829997,None,,,,,,,,,,,,,,,,,,,,,,,,,,,,,,,,,,,,,,,,,,,,001,104,2020_Feb_11_1000,spring_faces,3.1.5,60.00254086762889,
condition files/Stage1_2.xlsx,,B4,T3,c,"['c', 'm']","['Clue', 'Monopoly']","[-0.15, 0.5]","[0.15, 0.5]",1,1,,,,,,,,,0,5,5,5,0,6,6,5,,,,,,,,,,,,,,,,,,,,,,,,,,,,,,,,,,,,,,,,,,,,,,,,,,,,,,,507.0037575289998,None,507.0037575289998,None,507.0037575289998,None,c,1,1.353625910000119,508.53733464900006,None,508.53733464900006,None,508.53733464900006,None,509.9544906860001,None,509.9544906860001,None,509.9544906860001,None,509.9544906860001,None,,,,,,,,,,,,,,,,,,,,,,,,,,,,,,,,,,,,,,,,,,,,001,104,2020_Feb_11_1000,spring_faces,3.1.5,60.00254086762889,
condition files/Stage1_2.xlsx,,T3,B3,c,"['c', 'm']","['Clue', 'Monopoly']","[-0.15, 0.5]","[0.15, 0.5]",1,1,,,,,,,,,0,5,5,5,0,7,7,4,,,,,,,,,,,,,,,,,,,,,,,,,,,,,,,,,,,,,,,,,,,,,,,,,,,,,,,511.92084790399986,None,511.92084790399986,None,511.92084790399986,None,c,1,0.7717055430002802,513.4711957569998,None,513.4711957569998,None,513.4711957569998,None,514.3045684089998,None,514.3045684089998,None,514.3045684089998,None,514.3045684089998,None,,,,,,,,,,,,,,,,,,,,,,,,,,,,,,,,,,,,,,,,,,,,001,104,2020_Feb_11_1000,spring_faces,3.1.5,60.00254086762889,
condition files/Stage1_1.xlsx,,B2,T1,m,"['c', 'm']","['Clue', 'Monopoly']","[-0.15, 0.5]","[0.15, 0.5]",1,1,,,,,,,,,0,6,6,6,0,0,0,2,,,,,,,,,,,,,,,,,,,,,,,,,,,,,,,,,,,,,,,,,,,,,,,,,,,,,,,516.287261125,None,516.287261125,None,516.287261125,None,m,1,1.2061063019996254,517.8207813039999,None,517.8207813039999,None,517.8207813039999,None,519.1043147549999,None,519.1043147549999,None,519.1043147549999,None,519.1043147549999,None,,,,,,,,,,,,,,,,,,,,,,,,,,,,,,,,,,,,,,,,,,,,001,104,2020_Feb_11_1000,spring_faces,3.1.5,60.00254086762889,
condition files/Stage1_1.xlsx,,B1,T2,c,"['c', 'm']","['Clue', 'Monopoly']","[-0.15, 0.5]","[0.15, 0.5]",1,1,,,,,,,,,0,6,6,6,0,1,1,1,,,,,,,,,,,,,,,,,,,,,,,,,,,,,,,,,,,,,,,,,,,,,,,,,,,,,,,521.0535890209999,None,521.0535890209999,None,521.0535890209999,None,c,1,1.7977996509998775,522.5891164249997,None,522.5891164249997,None,522.5891164249997,None,524.4402582570001,None,524.4402582570001,None,524.4402582570001,None,524.4402582570001,None,,,,,,,,,,,,,,,,,,,,,,,,,,,,,,,,,,,,,,,,,,,,001,104,2020_Feb_11_1000,spring_faces,3.1.5,60.00254086762889,
condition files/Stage1_1.xlsx,,T1,B1,c,"['c', 'm']","['Clue', 'Monopoly']","[-0.15, 0.5]","[0.15, 0.5]",1,1,,,,,,,,,0,6,6,6,0,2,2,0,,,,,,,,,,,,,,,,,,,,,,,,,,,,,,,,,,,,,,,,,,,,,,,,,,,,,,,526.4038950529998,None,526.4038950529998,None,526.4038950529998,None,c,1,1.2806748580001113,527.93825771,None,527.93825771,None,527.93825771,None,529.2711883510001,None,529.2711883510001,None,529.2711883510001,None,529.2711883510001,None,,,,,,,,,,,,,,,,,,,,,,,,,,,,,,,,,,,,,,,,,,,,001,104,2020_Feb_11_1000,spring_faces,3.1.5,60.00254086762889,
condition files/Stage1_1.xlsx,,B4,T4,m,"['c', 'm']","['Clue', 'Monopoly']","[-0.15, 0.5]","[0.15, 0.5]",1,1,,,,,,,,,0,6,6,6,0,3,3,7,,,,,,,,,,,,,,,,,,,,,,,,,,,,,,,,,,,,,,,,,,,,,,,,,,,,,,,531.237694166,None,531.237694166,None,531.237694166,None,m,1,1.1198775269999715,532.7710695179999,None,532.7710695179999,None,532.7710695179999,None,533.956028136,None,533.956028136,None,533.956028136,None,533.956028136,None,,,,,,,,,,,,,,,,,,,,,,,,,,,,,,,,,,,,,,,,,,,,001,104,2020_Feb_11_1000,spring_faces,3.1.5,60.00254086762889,
condition files/Stage1_1.xlsx,,B3,T3,c,"['c', 'm']","['Clue', 'Monopoly']","[-0.15, 0.5]","[0.15, 0.5]",1,1,,,,,,,,,0,6,6,6,0,4,4,4,,,,,,,,,,,,,,,,,,,,,,,,,,,,,,,,,,,,,,,,,,,,,,,,,,,,,,,535.9208455140001,None,535.9208455140001,None,535.9208455140001,None,c,1,1.476652033999926,537.4543309219998,None,537.4543309219998,None,537.4543309219998,None,539.00405034,None,539.00405034,None,539.00405034,None,539.00405034,None,,,,,,,,,,,,,,,,,,,,,,,,,,,,,,,,,,,,,,,,,,,,001,104,2020_Feb_11_1000,spring_faces,3.1.5,60.00254086762889,
condition files/Stage1_1.xlsx,,T4,B3,m,"['c', 'm']","['Clue', 'Monopoly']","[-0.15, 0.5]","[0.15, 0.5]",1,1,,,,,,,,,0,6,6,6,0,5,5,6,,,,,,,,,,,,,,,,,,,,,,,,,,,,,,,,,,,,,,,,,,,,,,,,,,,,,,,540.9538846659998,None,540.9538846659998,None,540.9538846659998,None,m,1,1.0509820300003412,542.4879219899999,None,542.4879219899999,None,542.4879219899999,None,543.6050327039998,None,543.6050327039998,None,543.6050327039998,None,543.6050327039998,None,,,,,,,,,,,,,,,,,,,,,,,,,,,,,,,,,,,,,,,,,,,,001,104,2020_Feb_11_1000,spring_faces,3.1.5,60.00254086762889,
condition files/Stage1_1.xlsx,,T2,B2,m,"['c', 'm']","['Clue', 'Monopoly']","[-0.15, 0.5]","[0.15, 0.5]",1,1,,,,,,,,,0,6,6,6,0,6,6,3,,,,,,,,,,,,,,,,,,,,,,,,,,,,,,,,,,,,,,,,,,,,,,,,,,,,,,,545.5710016869998,None,545.5710016869998,None,545.5710016869998,None,c,0,1.089105023999764,547.105899018,None,547.105899018,None,547.105899018,None,548.2545484819998,None,548.2545484819998,None,548.2545484819998,None,548.2545484819998,None,,,,,,,,,,,,,,,,,,,,,,,,,,,,,,,,,,,,,,,,,,,,001,104,2020_Feb_11_1000,spring_faces,3.1.5,60.00254086762889,
condition files/Stage1_1.xlsx,,T3,B4,c,"['c', 'm']","['Clue', 'Monopoly']","[-0.15, 0.5]","[0.15, 0.5]",1,1,,,,,,,,,0,6,6,6,0,7,7,5,,,,,,,,,,,,,,,,,,,,,,,,,,,,,,,,,,,,,,,,,,,,,,,,,,,,,,,550.2207872569998,None,550.2207872569998,None,550.2207872569998,None,c,1,1.528707475000374,551.7541649740001,None,551.7541649740001,None,551.7541649740001,None,553.3375504119999,None,553.3375504119999,None,553.3375504119999,None,553.3375504119999,None,,,,,,,,,,,,,,,,,,,,,,,,,,,,,,,,,,,,,,,,,,,,001,104,2020_Feb_11_1000,spring_faces,3.1.5,60.00254086762889,
condition files/Stage1_2.xlsx,,T3,B3,c,"['c', 'm']","['Clue', 'Monopoly']","[-0.15, 0.5]","[0.15, 0.5]",1,1,,,,,,,,,0,7,7,7,0,0,0,4,,,,,,,,,,,,,,,,,,,,,,,,,,,,,,,,,,,,,,,,,,,,,,,,,,,,,,,555.3210667600001,None,555.3210667600001,None,555.3210667600001,None,c,1,0.9063648209998973,556.8566468829999,None,556.8566468829999,None,556.8566468829999,None,557.8212540449999,None,557.8212540449999,None,557.8212540449999,None,557.8212540449999,None,,,,,,,,,,,,,,,,,,,,,,,,,,,,,,,,,,,,,,,,,,,,001,104,2020_Feb_11_1000,spring_faces,3.1.5,60.00254086762889,
condition files/Stage1_2.xlsx,,T2,B1,c,"['c', 'm']","['Clue', 'Monopoly']","[-0.15, 0.5]","[0.15, 0.5]",1,1,,,,,,,,,0,7,7,7,0,1,1,1,,,,,,,,,,,,,,,,,,,,,,,,,,,,,,,,,,,,,,,,,,,,,,,,,,,,,,,559.7867201149998,None,559.7867201149998,None,559.7867201149998,None,c,1,0.7455201719999422,561.3373557209998,None,561.3373557209998,None,561.3373557209998,None,562.1372981899999,None,562.1372981899999,None,562.1372981899999,None,562.1372981899999,None,,,,,,,,,,,,,,,,,,,,,,,,,,,,,,,,,,,,,,,,,,,,001,104,2020_Feb_11_1000,spring_faces,3.1.5,60.00254086762889,
condition files/Stage1_2.xlsx,,T1,B2,m,"['c', 'm']","['Clue', 'Monopoly']","[-0.15, 0.5]","[0.15, 0.5]",1,1,,,,,,,,,0,7,7,7,0,2,2,2,,,,,,,,,,,,,,,,,,,,,,,,,,,,,,,,,,,,,,,,,,,,,,,,,,,,,,,564.104203029,None,564.104203029,None,564.104203029,None,c,0,1.1802376599998752,565.6546724989998,None,565.6546724989998,None,565.6546724989998,None,566.889809062,None,566.889809062,None,566.889809062,None,566.889809062,None,,,,,,,,,,,,,,,,,,,,,,,,,,,,,,,,,,,,,,,,,,,,001,104,2020_Feb_11_1000,spring_faces,3.1.5,60.00254086762889,
condition files/Stage1_2.xlsx,,B2,T2,m,"['c', 'm']","['Clue', 'Monopoly']","[-0.15, 0.5]","[0.15, 0.5]",1,1,,,,,,,,,0,7,7,7,0,3,3,3,,,,,,,,,,,,,,,,,,,,,,,,,,,,,,,,,,,,,,,,,,,,,,,,,,,,,,,568.853775051,None,568.853775051,None,568.853775051,None,m,1,1.8060109610000836,570.3889926530001,None,570.3889926530001,None,570.3889926530001,None,572.254672351,None,572.254672351,None,572.254672351,None,572.254672351,None,,,,,,,,,,,,,,,,,,,,,,,,,,,,,,,,,,,,,,,,,,,,001,104,2020_Feb_11_1000,spring_faces,3.1.5,60.00254086762889,
condition files/Stage1_2.xlsx,,B4,T3,c,"['c', 'm']","['Clue', 'Monopoly']","[-0.15, 0.5]","[0.15, 0.5]",1,1,,,,,,,,,0,7,7,7,0,4,4,5,,,,,,,,,,,,,,,,,,,,,,,,,,,,,,,,,,,,,,,,,,,,,,,,,,,,,,,574.2208463500001,None,574.2208463500001,None,574.2208463500001,None,m,0,1.0488566340000034,575.7540730410001,None,575.7540730410001,None,575.7540730410001,None,576.8554348459998,None,576.8554348459998,None,576.8554348459998,None,576.8554348459998,None,,,,,,,,,,,,,,,,,,,,,,,,,,,,,,,,,,,,,,,,,,,,001,104,2020_Feb_11_1000,spring_faces,3.1.5,60.00254086762889,
condition files/Stage1_2.xlsx,,B3,T4,m,"['c', 'm']","['Clue', 'Monopoly']","[-0.15, 0.5]","[0.15, 0.5]",1,1,,,,,,,,,0,7,7,7,0,5,5,6,,,,,,,,,,,,,,,,,,,,,,,,,,,,,,,,,,,,,,,,,,,,,,,,,,,,,,,578.821000684,None,578.821000684,None,578.821000684,None,m,1,0.9919535770000039,580.3710342730001,None,580.3710342730001,None,580.3710342730001,None,581.4377975719999,None,581.4377975719999,None,581.4377975719999,None,581.4377975719999,None,,,,,,,,,,,,,,,,,,,,,,,,,,,,,,,,,,,,,,,,,,,,001,104,2020_Feb_11_1000,spring_faces,3.1.5,60.00254086762889,
condition files/Stage1_2.xlsx,,B1,T1,c,"['c', 'm']","['Clue', 'Monopoly']","[-0.15, 0.5]","[0.15, 0.5]",1,1,,,,,,,,,0,7,7,7,0,6,6,0,,,,,,,,,,,,,,,,,,,,,,,,,,,,,,,,,,,,,,,,,,,,,,,,,,,,,,,583.3871220569999,None,583.3871220569999,None,583.3871220569999,None,m,0,1.1140651519999665,584.9208095230001,None,584.9208095230001,None,584.9208095230001,None,586.0904697299998,None,586.0904697299998,None,586.0904697299998,None,586.0904697299998,None,,,,,,,,,,,,,,,,,,,,,,,,,,,,,,,,,,,,,,,,,,,,001,104,2020_Feb_11_1000,spring_faces,3.1.5,60.00254086762889,
condition files/Stage1_2.xlsx,,T4,B4,m,"['c', 'm']","['Clue', 'Monopoly']","[-0.15, 0.5]","[0.15, 0.5]",1,1,,,,,,,,,0,7,7,7,0,7,7,7,,,,,,,,,,,,,,,,,,,,,,,,,,,,,,,,,,,,,,,,,,,,,,,,,,,,,,,588.0543507439997,None,588.0543507439997,None,588.0543507439997,None,m,1,0.7181769420003548,589.6047439210001,None,589.6047439210001,None,589.6047439210001,None,590.3876441339999,None,590.3876441339999,None,590.3876441339999,None,590.3876441339999,None,,,,,,,,,,,,,,,,,,,,,,,,,,,,,,,,,,,,,,,,,,,,001,104,2020_Feb_11_1000,spring_faces,3.1.5,60.00254086762889,
condition files/Stage1_1.xlsx,,T2,B2,m,"['c', 'm']","['Clue', 'Monopoly']","[-0.15, 0.5]","[0.15, 0.5]",1,1,,,,,,,,,0,8,8,8,0,0,0,3,,,,,,,,,,,,,,,,,,,,,,,,,,,,,,,,,,,,,,,,,,,,,,,,,,,,,,,592.3712652039999,None,592.3712652039999,None,592.3712652039999,None,m,1,0.8175275899998269,593.921355854,None,593.921355854,None,593.921355854,None,594.80450986,None,594.80450986,None,594.80450986,None,594.80450986,None,,,,,,,,,,,,,,,,,,,,,,,,,,,,,,,,,,,,,,,,,,,,001,104,2020_Feb_11_1000,spring_faces,3.1.5,60.00254086762889,
condition files/Stage1_1.xlsx,,B4,T4,m,"['c', 'm']","['Clue', 'Monopoly']","[-0.15, 0.5]","[0.15, 0.5]",1,1,,,,,,,,,0,8,8,8,0,1,1,7,,,,,,,,,,,,,,,,,,,,,,,,,,,,,,,,,,,,,,,,,,,,,,,,,,,,,,,596.7706365479999,None,596.7706365479999,None,596.7706365479999,None,m,1,1.0748007249999318,598.3041968859998,None,598.3041968859998,None,598.3041968859998,None,599.4377420769997,None,599.4377420769997,None,599.4377420769997,None,599.4377420769997,None,,,,,,,,,,,,,,,,,,,,,,,,,,,,,,,,,,,,,,,,,,,,001,104,2020_Feb_11_1000,spring_faces,3.1.5,60.00254086762889,
condition files/Stage1_1.xlsx,,T1,B1,c,"['c', 'm']","['Clue', 'Monopoly']","[-0.15, 0.5]","[0.15, 0.5]",1,1,,,,,,,,,0,8,8,8,0,2,2,0,,,,,,,,,,,,,,,,,,,,,,,,,,,,,,,,,,,,,,,,,,,,,,,,,,,,,,,601.404144352,None,601.404144352,None,601.404144352,None,c,1,1.3523783830000866,602.9545422430001,None,602.9545422430001,None,602.9545422430001,None,604.371003143,None,604.371003143,None,604.371003143,None,604.371003143,None,,,,,,,,,,,,,,,,,,,,,,,,,,,,,,,,,,,,,,,,,,,,001,104,2020_Feb_11_1000,spring_faces,3.1.5,60.00254086762889,
condition files/Stage1_1.xlsx,,T4,B3,m,"['c', 'm']","['Clue', 'Monopoly']","[-0.15, 0.5]","[0.15, 0.5]",1,1,,,,,,,,,0,8,8,8,0,3,3,6,,,,,,,,,,,,,,,,,,,,,,,,,,,,,,,,,,,,,,,,,,,,,,,,,,,,,,,606.3374428439997,None,606.3374428439997,None,606.3374428439997,None,m,1,0.9143444979999913,607.8725923809998,None,607.8725923809998,None,607.8725923809998,None,608.8394227049998,None,608.8394227049998,None,608.8394227049998,None,608.8394227049998,None,,,,,,,,,,,,,,,,,,,,,,,,,,,,,,,,,,,,,,,,,,,,001,104,2020_Feb_11_1000,spring_faces,3.1.5,60.00254086762889,
condition files/Stage1_1.xlsx,,B1,T2,c,"['c', 'm']","['Clue', 'Monopoly']","[-0.15, 0.5]","[0.15, 0.5]",1,1,,,,,,,,,0,8,8,8,0,4,4,1,,,,,,,,,,,,,,,,,,,,,,,,,,,,,,,,,,,,,,,,,,,,,,,,,,,,,,,610.8035208040001,None,610.8035208040001,None,610.8035208040001,None,c,1,1.2970029779999095,612.3379275369998,None,612.3379275369998,None,612.3379275369998,None,613.6876343710001,None,613.6876343710001,None,613.6876343710001,None,613.6876343710001,None,,,,,,,,,,,,,,,,,,,,,,,,,,,,,,,,,,,,,,,,,,,,001,104,2020_Feb_11_1000,spring_faces,3.1.5,60.00254086762889,
condition files/Stage1_1.xlsx,,B3,T3,c,"['c', 'm']","['Clue', 'Monopoly']","[-0.15, 0.5]","[0.15, 0.5]",1,1,,,,,,,,,0,8,8,8,0,5,5,4,,,,,,,,,,,,,,,,,,,,,,,,,,,,,,,,,,,,,,,,,,,,,,,,,,,,,,,615.6542257870001,None,615.6542257870001,None,615.6542257870001,None,c,1,1.5986912139997003,617.2042142330001,None,617.2042142330001,None,617.2042142330001,None,618.8541427559999,None,618.8541427559999,None,618.8541427559999,None,618.8541427559999,None,,,,,,,,,,,,,,,,,,,,,,,,,,,,,,,,,,,,,,,,,,,,001,104,2020_Feb_11_1000,spring_faces,3.1.5,60.00254086762889,
condition files/Stage1_1.xlsx,,T3,B4,c,"['c', 'm']","['Clue', 'Monopoly']","[-0.15, 0.5]","[0.15, 0.5]",1,1,,,,,,,,,0,8,8,8,0,6,6,5,,,,,,,,,,,,,,,,,,,,,,,,,,,,,,,,,,,,,,,,,,,,,,,,,,,,,,,620.8209583130001,None,620.8209583130001,None,620.8209583130001,None,c,1,1.215310133999992,622.35562299,None,622.35562299,None,622.35562299,None,623.620548977,None,623.620548977,None,623.620548977,None,623.620548977,None,,,,,,,,,,,,,,,,,,,,,,,,,,,,,,,,,,,,,,,,,,,,001,104,2020_Feb_11_1000,spring_faces,3.1.5,60.00254086762889,
condition files/Stage1_1.xlsx,,B2,T1,m,"['c', 'm']","['Clue', 'Monopoly']","[-0.15, 0.5]","[0.15, 0.5]",1,1,,,,,,,,,0,8,8,8,0,7,7,2,,,,,,,,,,,,,,,,,,,,,,,,,,,,,,,,,,,,,,,,,,,,,,,,,,,,,,,625.5869606840001,None,625.5869606840001,None,625.5869606840001,None,m,1,1.4410215950001657,627.137954579,None,627.137954579,None,627.137954579,None,628.6377797790001,None,628.6377797790001,None,628.6377797790001,None,628.6377797790001,None,,,,,,,,,,,,,,,,,,,,,,,,,,,,,,,,,,,,,,,,,,,,001,104,2020_Feb_11_1000,spring_faces,3.1.5,60.00254086762889,
condition files/Stage1_2.xlsx,,T3,B3,c,"['c', 'm']","['Clue', 'Monopoly']","[-0.15, 0.5]","[0.15, 0.5]",1,1,,,,,,,,,0,9,9,9,0,0,0,4,,,,,,,,,,,,,,,,,,,,,,,,,,,,,,,,,,,,,,,,,,,,,,,,,,,,,,,630.6210248259999,None,630.6210248259999,None,630.6210248259999,None,c,1,1.016198802999952,632.1547424999999,None,632.1547424999999,None,632.1547424999999,None,633.223737803,None,633.223737803,None,633.223737803,None,633.223737803,None,,,,,,,,,,,,,,,,,,,,,,,,,,,,,,,,,,,,,,,,,,,,001,104,2020_Feb_11_1000,spring_faces,3.1.5,60.00254086762889,
condition files/Stage1_2.xlsx,,B4,T3,c,"['c', 'm']","['Clue', 'Monopoly']","[-0.15, 0.5]","[0.15, 0.5]",1,1,,,,,,,,,0,9,9,9,0,1,1,5,,,,,,,,,,,,,,,,,,,,,,,,,,,,,,,,,,,,,,,,,,,,,,,,,,,,,,,635.1874632509998,None,635.1874632509998,None,635.1874632509998,None,c,1,1.6820917420000114,636.7208327979997,None,636.7208327979997,None,636.7208327979997,None,638.4549173099999,None,638.4549173099999,None,638.4549173099999,None,638.4549173099999,None,,,,,,,,,,,,,,,,,,,,,,,,,,,,,,,,,,,,,,,,,,,,001,104,2020_Feb_11_1000,spring_faces,3.1.5,60.00254086762889,
condition files/Stage1_2.xlsx,,T2,B1,c,"['c', 'm']","['Clue', 'Monopoly']","[-0.15, 0.5]","[0.15, 0.5]",1,1,,,,,,,,,0,9,9,9,0,2,2,1,,,,,,,,,,,,,,,,,,,,,,,,,,,,,,,,,,,,,,,,,,,,,,,,,,,,,,,640.4209487079997,None,640.4209487079997,None,640.4209487079997,None,c,1,1.0088026640000862,641.9541910429998,None,641.9541910429998,None,641.9541910429998,None,643.0212082879998,None,643.0212082879998,None,643.0212082879998,None,643.0212082879998,None,,,,,,,,,,,,,,,,,,,,,,,,,,,,,,,,,,,,,,,,,,,,001,104,2020_Feb_11_1000,spring_faces,3.1.5,60.00254086762889,
condition files/Stage1_2.xlsx,,B3,T4,m,"['c', 'm']","['Clue', 'Monopoly']","[-0.15, 0.5]","[0.15, 0.5]",1,1,,,,,,,,,0,9,9,9,0,3,3,6,,,,,,,,,,,,,,,,,,,,,,,,,,,,,,,,,,,,,,,,,,,,,,,,,,,,,,,644.9868608030001,None,644.9868608030001,None,644.9868608030001,None,m,1,1.0502943699998468,646.5206338859998,None,646.5206338859998,None,646.5206338859998,None,647.6230171829998,None,647.6230171829998,None,647.6230171829998,None,647.6230171829998,None,,,,,,,,,,,,,,,,,,,,,,,,,,,,,,,,,,,,,,,,,,,,001,104,2020_Feb_11_1000,spring_faces,3.1.5,60.00254086762889,
condition files/Stage1_2.xlsx,,T4,B4,m,"['c', 'm']","['Clue', 'Monopoly']","[-0.15, 0.5]","[0.15, 0.5]",1,1,,,,,,,,,0,9,9,9,0,4,4,7,,,,,,,,,,,,,,,,,,,,,,,,,,,,,,,,,,,,,,,,,,,,,,,,,,,,,,,649.5870091649999,None,649.5870091649999,None,649.5870091649999,None,m,1,1.2822724610000478,651.1206568909997,None,651.1206568909997,None,651.1206568909997,None,652.4543789029999,None,652.4543789029999,None,652.4543789029999,None,652.4543789029999,None,,,,,,,,,,,,,,,,,,,,,,,,,,,,,,,,,,,,,,,,,,,,001,104,2020_Feb_11_1000,spring_faces,3.1.5,60.00254086762889,
condition files/Stage1_2.xlsx,,B1,T1,c,"['c', 'm']","['Clue', 'Monopoly']","[-0.15, 0.5]","[0.15, 0.5]",1,1,,,,,,,,,0,9,9,9,0,5,5,0,,,,,,,,,,,,,,,,,,,,,,,,,,,,,,,,,,,,,,,,,,,,,,,,,,,,,,,654.4208329969997,None,654.4208329969997,None,654.4208329969997,None,m,0,1.3438425379999899,655.971138632,None,655.971138632,None,655.971138632,None,657.3875937590001,None,657.3875937590001,None,657.3875937590001,None,657.3875937590001,None,,,,,,,,,,,,,,,,,,,,,,,,,,,,,,,,,,,,,,,,,,,,001,104,2020_Feb_11_1000,spring_faces,3.1.5,60.00254086762889,
condition files/Stage1_2.xlsx,,B2,T2,m,"['c', 'm']","['Clue', 'Monopoly']","[-0.15, 0.5]","[0.15, 0.5]",1,1,,,,,,,,,0,9,9,9,0,6,6,3,,,,,,,,,,,,,,,,,,,,,,,,,,,,,,,,,,,,,,,,,,,,,,,,,,,,,,,659.337222225,None,659.337222225,None,659.337222225,None,m,1,1.643148698999994,660.871767828,None,660.871767828,None,660.871767828,None,662.5722958819997,None,662.5722958819997,None,662.5722958819997,None,662.5722958819997,None,,,,,,,,,,,,,,,,,,,,,,,,,,,,,,,,,,,,,,,,,,,,001,104,2020_Feb_11_1000,spring_faces,3.1.5,60.00254086762889,
condition files/Stage1_2.xlsx,,T1,B2,m,"['c', 'm']","['Clue', 'Monopoly']","[-0.15, 0.5]","[0.15, 0.5]",1,1,,,,,,,,,0,9,9,9,0,7,7,2,,,,,,,,,,,,,,,,,,,,,,,,,,,,,,,,,,,,,,,,,,,,,,,,,,,,,,,664.5374622049999,None,664.5374622049999,None,664.5374622049999,None,m,1,2.6985337669998444,666.0723991069999,None,666.0723991069999,None,666.0723991069999,None,668.8207702740001,None,668.8207702740001,None,668.8207702740001,None,668.8207702740001,None,,,,,,,,,,,,,,,,,,,,,,,,,,,,,,,,,,,,,,,,,,,,001,104,2020_Feb_11_1000,spring_faces,3.1.5,60.00254086762889,
condition files/Stage1_1.xlsx,,B1,T2,c,"['c', 'm']","['Clue', 'Monopoly']","[-0.15, 0.5]","[0.15, 0.5]",1,1,,,,,,,,,0,10,10,10,0,0,0,1,,,,,,,,,,,,,,,,,,,,,,,,,,,,,,,,,,,,,,,,,,,,,,,,,,,,,,,670.8039773189998,None,670.8039773189998,None,670.8039773189998,None,c,1,1.0243099019999136,672.3387031479997,None,672.3387031479997,None,672.3387031479997,None,673.4374752949998,None,673.4374752949998,None,673.4374752949998,None,673.4374752949998,None,,,,,,,,,,,,,,,,,,,,,,,,,,,,,,,,,,,,,,,,,,,,001,104,2020_Feb_11_1000,spring_faces,3.1.5,60.00254086762889,
condition files/Stage1_1.xlsx,,T3,B4,c,"['c', 'm']","['Clue', 'Monopoly']","[-0.15, 0.5]","[0.15, 0.5]",1,1,,,,,,,,,0,10,10,10,0,1,1,5,,,,,,,,,,,,,,,,,,,,,,,,,,,,,,,,,,,,,,,,,,,,,,,,,,,,,,,675.3875372499997,None,675.3875372499997,None,675.3875372499997,None,c,1,0.8739685259997714,676.921028581,None,676.921028581,None,676.921028581,None,677.8544561690001,None,677.8544561690001,None,677.8544561690001,None,677.8544561690001,None,,,,,,,,,,,,,,,,,,,,,,,,,,,,,,,,,,,,,,,,,,,,001,104,2020_Feb_11_1000,spring_faces,3.1.5,60.00254086762889,
condition files/Stage1_1.xlsx,,B2,T1,m,"['c', 'm']","['Clue', 'Monopoly']","[-0.15, 0.5]","[0.15, 0.5]",1,1,,,,,,,,,0,10,10,10,0,2,2,2,,,,,,,,,,,,,,,,,,,,,,,,,,,,,,,,,,,,,,,,,,,,,,,,,,,,,,,679.8207652759997,None,679.8207652759997,None,679.8207652759997,None,m,1,1.3508575790001487,681.356086583,None,681.356086583,None,681.356086583,None,682.7712075569998,None,682.7712075569998,None,682.7712075569998,None,682.7712075569998,None,,,,,,,,,,,,,,,,,,,,,,,,,,,,,,,,,,,,,,,,,,,,001,104,2020_Feb_11_1000,spring_faces,3.1.5,60.00254086762889,
condition files/Stage1_1.xlsx,,T1,B1,c,"['c', 'm']","['Clue', 'Monopoly']","[-0.15, 0.5]","[0.15, 0.5]",1,1,,,,,,,,,0,10,10,10,0,3,3,0,,,,,,,,,,,,,,,,,,,,,,,,,,,,,,,,,,,,,,,,,,,,,,,,,,,,,,,684.7375956139999,None,684.7375956139999,None,684.7375956139999,None,c,1,1.9229853179999736,686.2720233569999,None,686.2720233569999,None,686.2720233569999,None,688.254115322,None,688.254115322,None,688.254115322,None,688.254115322,None,,,,,,,,,,,,,,,,,,,,,,,,,,,,,,,,,,,,,,,,,,,,001,104,2020_Feb_11_1000,spring_faces,3.1.5,60.00254086762889,
condition files/Stage1_1.xlsx,,B3,T3,c,"['c', 'm']","['Clue', 'Monopoly']","[-0.15, 0.5]","[0.15, 0.5]",1,1,,,,,,,,,0,10,10,10,0,4,4,4,,,,,,,,,,,,,,,,,,,,,,,,,,,,,,,,,,,,,,,,,,,,,,,,,,,,,,,690.220578208,None,690.220578208,None,690.220578208,None,c,1,1.286467621999691,691.7564846219998,None,691.7564846219998,None,691.7564846219998,None,693.1043481490001,None,693.1043481490001,None,693.1043481490001,None,693.1043481490001,None,,,,,,,,,,,,,,,,,,,,,,,,,,,,,,,,,,,,,,,,,,,,001,104,2020_Feb_11_1000,spring_faces,3.1.5,60.00254086762889,
condition files/Stage1_1.xlsx,,T4,B3,m,"['c', 'm']","['Clue', 'Monopoly']","[-0.15, 0.5]","[0.15, 0.5]",1,1,,,,,,,,,0,10,10,10,0,5,5,6,,,,,,,,,,,,,,,,,,,,,,,,,,,,,,,,,,,,,,,,,,,,,,,,,,,,,,,695.0710242189998,None,695.0710242189998,None,695.0710242189998,None,m,1,1.556415773000026,696.6065858879997,None,696.6065858879997,None,696.6065858879997,None,698.2211172339998,None,698.2211172339998,None,698.2211172339998,None,698.2211172339998,None,,,,,,,,,,,,,,,,,,,,,,,,,,,,,,,,,,,,,,,,,,,,001,104,2020_Feb_11_1000,spring_faces,3.1.5,60.00254086762889,
condition files/Stage1_1.xlsx,,B4,T4,m,"['c', 'm']","['Clue', 'Monopoly']","[-0.15, 0.5]","[0.15, 0.5]",1,1,,,,,,,,,0,10,10,10,0,6,6,7,,,,,,,,,,,,,,,,,,,,,,,,,,,,,,,,,,,,,,,,,,,,,,,,,,,,,,,700.1869169480001,None,700.1869169480001,None,700.1869169480001,None,m,1,1.3056716790001701,701.7213047209998,None,701.7213047209998,None,701.7213047209998,None,703.0875155660001,None,703.0875155660001,None,703.0875155660001,None,703.0875155660001,None,,,,,,,,,,,,,,,,,,,,,,,,,,,,,,,,,,,,,,,,,,,,001,104,2020_Feb_11_1000,spring_faces,3.1.5,60.00254086762889,
condition files/Stage1_1.xlsx,,T2,B2,m,"['c', 'm']","['Clue', 'Monopoly']","[-0.15, 0.5]","[0.15, 0.5]",1,1,,,,,,,,,0,10,10,10,0,7,7,3,,,,,,,,,,,,,,,,,,,,,,,,,,,,,,,,,,,,,,,,,,,,,,,,,,,,,,,705.0541556379999,None,705.0541556379999,None,705.0541556379999,None,m,1,1.4789539149996926,706.5879461730001,None,706.5879461730001,None,706.5879461730001,None,708.1203604909997,None,708.1203604909997,None,708.1203604909997,None,708.1203604909997,None,,,,,,,,,,,,,,,,,,,,,,,,,,,,,,,,,,,,,,,,,,,,001,104,2020_Feb_11_1000,spring_faces,3.1.5,60.00254086762889,
condition files/Stage1_2.xlsx,,T3,B3,c,"['c', 'm']","['Clue', 'Monopoly']","[-0.15, 0.5]","[0.15, 0.5]",1,1,,,,,,,,,0,11,11,11,0,0,0,4,,,,,,,,,,,,,,,,,,,,,,,,,,,,,,,,,,,,,,,,,,,,,,,,,,,,,,,710.10387438,None,710.10387438,None,710.10387438,None,c,1,1.3565526550000868,711.654441101,None,711.654441101,None,711.654441101,None,713.0719506360001,None,713.0719506360001,None,713.0719506360001,None,713.0719506360001,None,,,,,,,,,,,,,,,,,,,,,,,,,,,,,,,,,,,,,,,,,,,,001,104,2020_Feb_11_1000,spring_faces,3.1.5,60.00254086762889,
condition files/Stage1_2.xlsx,,B4,T3,c,"['c', 'm']","['Clue', 'Monopoly']","[-0.15, 0.5]","[0.15, 0.5]",1,1,,,,,,,,,0,11,11,11,0,1,1,5,,,,,,,,,,,,,,,,,,,,,,,,,,,,,,,,,,,,,,,,,,,,,,,,,,,,,,,715.037496289,None,715.037496289,None,715.037496289,None,c,1,1.640238201000102,716.570771148,None,716.570771148,None,716.570771148,None,718.2704067529999,None,718.2704067529999,None,718.2704067529999,None,718.2704067529999,None,,,,,,,,,,,,,,,,,,,,,,,,,,,,,,,,,,,,,,,,,,,,001,104,2020_Feb_11_1000,spring_faces,3.1.5,60.00254086762889,
condition files/Stage1_2.xlsx,,B2,T2,m,"['c', 'm']","['Clue', 'Monopoly']","[-0.15, 0.5]","[0.15, 0.5]",1,1,,,,,,,,,0,11,11,11,0,2,2,3,,,,,,,,,,,,,,,,,,,,,,,,,,,,,,,,,,,,,,,,,,,,,,,,,,,,,,,720.2374675259998,None,720.2374675259998,None,720.2374675259998,None,m,1,1.206076070999643,721.7729378009999,None,721.7729378009999,None,721.7729378009999,None,723.0397314500001,None,723.0397314500001,None,723.0397314500001,None,723.0397314500001,None,,,,,,,,,,,,,,,,,,,,,,,,,,,,,,,,,,,,,,,,,,,,001,104,2020_Feb_11_1000,spring_faces,3.1.5,60.00254086762889,
condition files/Stage1_2.xlsx,,T4,B4,m,"['c', 'm']","['Clue', 'Monopoly']","[-0.15, 0.5]","[0.15, 0.5]",1,1,,,,,,,,,0,11,11,11,0,3,3,7,,,,,,,,,,,,,,,,,,,,,,,,,,,,,,,,,,,,,,,,,,,,,,,,,,,,,,,725.0039390100001,None,725.0039390100001,None,725.0039390100001,None,m,1,1.4801489819997187,726.5387814759997,None,726.5387814759997,None,726.5387814759997,None,728.071137975,None,728.071137975,None,728.071137975,None,728.071137975,None,,,,,,,,,,,,,,,,,,,,,,,,,,,,,,,,,,,,,,,,,,,,001,104,2020_Feb_11_1000,spring_faces,3.1.5,60.00254086762889,
condition files/Stage1_2.xlsx,,T2,B1,c,"['c', 'm']","['Clue', 'Monopoly']","[-0.15, 0.5]","[0.15, 0.5]",1,1,,,,,,,,,0,11,11,11,0,4,4,1,,,,,,,,,,,,,,,,,,,,,,,,,,,,,,,,,,,,,,,,,,,,,,,,,,,,,,,730.0372931449997,None,730.0372931449997,None,730.0372931449997,None,c,1,0.9923506899999666,731.5706527279999,None,731.5706527279999,None,731.5706527279999,None,732.6223006949999,None,732.6223006949999,None,732.6223006949999,None,732.6223006949999,None,,,,,,,,,,,,,,,,,,,,,,,,,,,,,,,,,,,,,,,,,,,,001,104,2020_Feb_11_1000,spring_faces,3.1.5,60.00254086762889,
condition files/Stage1_2.xlsx,,T1,B2,m,"['c', 'm']","['Clue', 'Monopoly']","[-0.15, 0.5]","[0.15, 0.5]",1,1,,,,,,,,,0,11,11,11,0,5,5,2,,,,,,,,,,,,,,,,,,,,,,,,,,,,,,,,,,,,,,,,,,,,,,,,,,,,,,,734.5874958489999,None,734.5874958489999,None,734.5874958489999,None,m,1,0.9059538329997849,736.12103346,None,736.12103346,None,736.12103346,None,737.0892612049997,None,737.0892612049997,None,737.0892612049997,None,737.0892612049997,None,,,,,,,,,,,,,,,,,,,,,,,,,,,,,,,,,,,,,,,,,,,,001,104,2020_Feb_11_1000,spring_faces,3.1.5,60.00254086762889,
condition files/Stage1_2.xlsx,,B1,T1,c,"['c', 'm']","['Clue', 'Monopoly']","[-0.15, 0.5]","[0.15, 0.5]",1,1,,,,,,,,,0,11,11,11,0,6,6,0,,,,,,,,,,,,,,,,,,,,,,,,,,,,,,,,,,,,,,,,,,,,,,,,,,,,,,,739.0541723659999,None,739.0541723659999,None,739.0541723659999,None,c,1,1.575738709000234,740.5872729869998,None,740.5872729869998,None,740.5872729869998,None,742.2208648719998,None,742.2208648719998,None,742.2208648719998,None,742.2208648719998,None,,,,,,,,,,,,,,,,,,,,,,,,,,,,,,,,,,,,,,,,,,,,001,104,2020_Feb_11_1000,spring_faces,3.1.5,60.00254086762889,
condition files/Stage1_2.xlsx,,B3,T4,m,"['c', 'm']","['Clue', 'Monopoly']","[-0.15, 0.5]","[0.15, 0.5]",1,1,,,,,,,,,0,11,11,11,0,7,7,6,,,,,,,,,,,,,,,,,,,,,,,,,,,,,,,,,,,,,,,,,,,,,,,,,,,,,,,744.1877408639998,None,744.1877408639998,None,744.1877408639998,None,m,1,0.8258653020002384,745.7211438219997,None,745.7211438219997,None,745.7211438219997,None,746.6066614460001,None,746.6066614460001,None,746.6066614460001,None,746.6066614460001,None,,,,,,,,,,,,,,,,,,,,,,,,,,,,,,,,,,,,,,,,,,,,001,104,2020_Feb_11_1000,spring_faces,3.1.5,60.00254086762889,
,,,,,,,,,,,,,,,,,,,,,,,,,,,,,,,,,,,,,,,,,,,,,,,,,,,,,,,,,,,,,,,,,,,,,,,,,,,,,,,,,,,,,,,,,,,,,,,,,,,,,,,,,,,,,,,,748.5874395779997,None,space,2.4632734940000773,753.587642593,None,,,,,,,,,,,,,,,,,,,,,,,,,,,,,,001,104,2020_Feb_11_1000,spring_faces,3.1.5,60.00254086762889,
condition files/Stage2_1.xlsx,,T3,B3,s,"['s', 'r']","['Stratego', 'Risk']","[-0.15, 0.5]","[0.15, 0.5]",1,1,,,,,,,,,,,,,,,,,0,0,0,0,0,0,0,4,,,,,,,,,,,,,,,,,,,,,,,,,,,,,,,,,,,,,,,,,,,,,,,756.104461123,None,756.104461123,None,756.104461123,None,s,1,1.3098595659998864,757.621151246,None,757.621151246,None,757.621151246,None,759.0037119469998,None,759.0037119469998,None,759.0037119469998,None,759.0037119469998,None,,,,,,,,,,,,,,,753.587642593,None,,,,,,,,,,,,,,,,,,,,,,,,,,,,001,104,2020_Feb_11_1000,spring_faces,3.1.5,60.00254086762889,
condition files/Stage2_1.xlsx,,B6,T6,r,"['s', 'r']","['Stratego', 'Risk']","[-0.15, 0.5]","[0.15, 0.5]",1,1,,,,,,,,,,,,,,,,,0,0,0,0,0,1,1,1,,,,,,,,,,,,,,,,,,,,,,,,,,,,,,,,,,,,,,,,,,,,,,,760.9540400579999,None,760.9540400579999,None,760.9540400579999,None,s,0,1.7204744529999516,762.5544520389999,None,762.5544520389999,None,762.5544520389999,None,764.338851208,None,764.338851208,None,764.338851208,None,764.338851208,None,,,,,,,,,,,,,,,,,,,,,,,,,,,,,,,,,,,,,,,,,,,,001,104,2020_Feb_11_1000,spring_faces,3.1.5,60.00254086762889,
condition files/Stage2_1.xlsx,,T1,B1,s,"['s', 'r']","['Stratego', 'Risk']","[-0.15, 0.5]","[0.15, 0.5]",1,1,,,,,,,,,,,,,,,,,0,0,0,0,0,2,2,2,,,,,,,,,,,,,,,,,,,,,,,,,,,,,,,,,,,,,,,,,,,,,,,766.3043608479998,None,766.3043608479998,None,766.3043608479998,None,s,1,1.2055777040000066,767.8373733879998,None,767.8373733879998,None,767.8373733879998,None,769.104899032,None,769.104899032,None,769.104899032,None,769.104899032,None,,,,,,,,,,,,,,,,,,,,,,,,,,,,,,,,,,,,,,,,,,,,001,104,2020_Feb_11_1000,spring_faces,3.1.5,60.00254086762889,
condition files/Stage2_1.xlsx,,T5,B5,s,"['s', 'r']","['Stratego', 'Risk']","[-0.15, 0.5]","[0.15, 0.5]",1,1,,,,,,,,,,,,,,,,,0,0,0,0,0,3,3,0,,,,,,,,,,,,,,,,,,,,,,,,,,,,,,,,,,,,,,,,,,,,,,,771.0708797819998,None,771.0708797819998,None,771.0708797819998,None,r,0,0.8380650439999044,772.6048718029997,None,772.6048718029997,None,772.6048718029997,None,773.5044849000001,None,773.5044849000001,None,773.5044849000001,None,773.5044849000001,None,,,,,,,,,,,,,,,,,,,,,,,,,,,,,,,,,,,,,,,,,,,,001,104,2020_Feb_11_1000,spring_faces,3.1.5,60.00254086762889,
condition files/Stage2_1.xlsx,,B2,T2,r,"['s', 'r']","['Stratego', 'Risk']","[-0.15, 0.5]","[0.15, 0.5]",1,1,,,,,,,,,,,,,,,,,0,0,0,0,0,4,4,3,,,,,,,,,,,,,,,,,,,,,,,,,,,,,,,,,,,,,,,,,,,,,,,775.4702693710001,None,775.4702693710001,None,775.4702693710001,None,r,1,1.3019914970000173,777.0209278869997,None,777.0209278869997,None,777.0209278869997,None,778.388015685,None,778.388015685,None,778.388015685,None,778.388015685,None,,,,,,,,,,,,,,,,,,,,,,,,,,,,,,,,,,,,,,,,,,,,001,104,2020_Feb_11_1000,spring_faces,3.1.5,60.00254086762889,
condition files/Stage2_1.xlsx,,B4,T4,r,"['s', 'r']","['Stratego', 'Risk']","[-0.15, 0.5]","[0.15, 0.5]",1,1,,,,,,,,,,,,,,,,,0,0,0,0,0,5,5,5,,,,,,,,,,,,,,,,,,,,,,,,,,,,,,,,,,,,,,,,,,,,,,,780.3541950059998,None,780.3541950059998,None,780.3541950059998,None,r,1,1.0597450550003487,781.887278359,None,781.887278359,None,781.887278359,None,783.0038833929998,None,783.0038833929998,None,783.0038833929998,None,783.0038833929998,None,,,,,,,,,,,,,,,,,,,,,,,,,,,,,,,,,,,,,,,,,,,,001,104,2020_Feb_11_1000,spring_faces,3.1.5,60.00254086762889,
condition files/Stage2_2.xlsx,,T2,B2,r,"['s', 'r']","['Stratego', 'Risk']","[-0.15, 0.5]","[0.15, 0.5]",1,1,,,,,,,,,,,,,,,,,0,1,1,1,0,0,0,3,,,,,,,,,,,,,,,,,,,,,,,,,,,,,,,,,,,,,,,,,,,,,,,784.9876045759997,None,784.9876045759997,None,784.9876045759997,None,r,1,1.3527812220004307,786.5221679829997,None,786.5221679829997,None,786.5221679829997,None,787.937990337,None,787.937990337,None,787.937990337,None,787.937990337,None,,,,,,,,,,,,,,,,,,,,,,,,,,,,,,,,,,,,,,,,,,,,001,104,2020_Feb_11_1000,spring_faces,3.1.5,60.00254086762889,
condition files/Stage2_2.xlsx,,T6,B6,r,"['s', 'r']","['Stratego', 'Risk']","[-0.15, 0.5]","[0.15, 0.5]",1,1,,,,,,,,,,,,,,,,,0,1,1,1,0,1,1,1,,,,,,,,,,,,,,,,,,,,,,,,,,,,,,,,,,,,,,,,,,,,,,,789.904321516,None,789.904321516,None,789.904321516,None,s,0,1.1070354020002924,791.4399795730001,None,791.4399795730001,None,791.4399795730001,None,792.604098363,None,792.604098363,None,792.604098363,None,792.604098363,None,,,,,,,,,,,,,,,,,,,,,,,,,,,,,,,,,,,,,,,,,,,,001,104,2020_Feb_11_1000,spring_faces,3.1.5,60.00254086762889,
condition files/Stage2_2.xlsx,,B3,T3,s,"['s', 'r']","['Stratego', 'Risk']","[-0.15, 0.5]","[0.15, 0.5]",1,1,,,,,,,,,,,,,,,,,0,1,1,1,0,2,2,4,,,,,,,,,,,,,,,,,,,,,,,,,,,,,,,,,,,,,,,,,,,,,,,794.5709928480001,None,794.5709928480001,None,794.5709928480001,None,s,1,1.242502080000122,796.1045298149998,None,796.1045298149998,None,796.1045298149998,None,797.4042004019998,None,797.4042004019998,None,797.4042004019998,None,797.4042004019998,None,,,,,,,,,,,,,,,,,,,,,,,,,,,,,,,,,,,,,,,,,,,,001,104,2020_Feb_11_1000,spring_faces,3.1.5,60.00254086762889,
condition files/Stage2_2.xlsx,,B1,T1,s,"['s', 'r']","['Stratego', 'Risk']","[-0.15, 0.5]","[0.15, 0.5]",1,1,,,,,,,,,,,,,,,,,0,1,1,1,0,3,3,2,,,,,,,,,,,,,,,,,,,,,,,,,,,,,,,,,,,,,,,,,,,,,,,799.3705627179997,None,799.3705627179997,None,799.3705627179997,None,s,1,1.0001830170003814,800.906756331,None,800.906756331,None,800.906756331,None,801.971453222,None,801.971453222,None,801.971453222,None,801.971453222,None,,,,,,,,,,,,,,,,,,,,,,,,,,,,,,,,,,,,,,,,,,,,001,104,2020_Feb_11_1000,spring_faces,3.1.5,60.00254086762889,
condition files/Stage2_2.xlsx,,T4,B4,r,"['s', 'r']","['Stratego', 'Risk']","[-0.15, 0.5]","[0.15, 0.5]",1,1,,,,,,,,,,,,,,,,,0,1,1,1,0,4,4,5,,,,,,,,,,,,,,,,,,,,,,,,,,,,,,,,,,,,,,,,,,,,,,,803.9370535570001,None,803.9370535570001,None,803.9370535570001,None,r,1,1.1237629060001382,805.4712290439998,None,805.4712290439998,None,805.4712290439998,None,806.6551788890001,None,806.6551788890001,None,806.6551788890001,None,806.6551788890001,None,,,,,,,,,,,,,,,,,,,,,,,,,,,,,,,,,,,,,,,,,,,,001,104,2020_Feb_11_1000,spring_faces,3.1.5,60.00254086762889,
condition files/Stage2_2.xlsx,,B5,T5,s,"['s', 'r']","['Stratego', 'Risk']","[-0.15, 0.5]","[0.15, 0.5]",1,1,,,,,,,,,,,,,,,,,0,1,1,1,0,5,5,0,,,,,,,,,,,,,,,,,,,,,,,,,,,,,,,,,,,,,,,,,,,,,,,808.6203019659997,None,808.6203019659997,None,808.6203019659997,None,r,0,1.0002521149999666,810.1706545429997,None,810.1706545429997,None,810.1706545429997,None,811.237776376,None,811.237776376,None,811.237776376,None,811.237776376,None,,,,,,,,,,,,,,,,,,,,,,,,,,,,,,,,,,,,,,,,,,,,001,104,2020_Feb_11_1000,spring_faces,3.1.5,60.00254086762889,
condition files/Stage2_1.xlsx,,T3,B3,s,"['s', 'r']","['Stratego', 'Risk']","[-0.15, 0.5]","[0.15, 0.5]",1,1,,,,,,,,,,,,,,,,,0,2,2,2,0,0,0,4,,,,,,,,,,,,,,,,,,,,,,,,,,,,,,,,,,,,,,,,,,,,,,,813.2041723130001,None,813.2041723130001,None,813.2041723130001,None,s,1,0.9446310869998342,814.7542792079998,None,814.7542792079998,None,814.7542792079998,None,815.7548972690001,None,815.7548972690001,None,815.7548972690001,None,815.7548972690001,None,,,,,,,,,,,,,,,,,,,,,,,,,,,,,,,,,,,,,,,,,,,,001,104,2020_Feb_11_1000,spring_faces,3.1.5,60.00254086762889,
condition files/Stage2_1.xlsx,,B6,T6,r,"['s', 'r']","['Stratego', 'Risk']","[-0.15, 0.5]","[0.15, 0.5]",1,1,,,,,,,,,,,,,,,,,0,2,2,2,0,1,1,1,,,,,,,,,,,,,,,,,,,,,,,,,,,,,,,,,,,,,,,,,,,,,,,817.720084903,None,817.720084903,None,817.720084903,None,s,0,1.2587184949998118,819.2562417079998,None,819.2562417079998,None,819.2562417079998,None,820.5713175579999,None,820.5713175579999,None,820.5713175579999,None,820.5713175579999,None,,,,,,,,,,,,,,,,,,,,,,,,,,,,,,,,,,,,,,,,,,,,001,104,2020_Feb_11_1000,spring_faces,3.1.5,60.00254086762889,
condition files/Stage2_1.xlsx,,B4,T4,r,"['s', 'r']","['Stratego', 'Risk']","[-0.15, 0.5]","[0.15, 0.5]",1,1,,,,,,,,,,,,,,,,,0,2,2,2,0,2,2,5,,,,,,,,,,,,,,,,,,,,,,,,,,,,,,,,,,,,,,,,,,,,,,,822.536982262,None,822.536982262,None,822.536982262,None,r,1,1.6595760159998463,824.0714329879997,None,824.0714329879997,None,824.0714329879997,None,825.7875609419998,None,825.7875609419998,None,825.7875609419998,None,825.7875609419998,None,,,,,,,,,,,,,,,,,,,,,,,,,,,,,,,,,,,,,,,,,,,,001,104,2020_Feb_11_1000,spring_faces,3.1.5,60.00254086762889,
condition files/Stage2_1.xlsx,,T1,B1,s,"['s', 'r']","['Stratego', 'Risk']","[-0.15, 0.5]","[0.15, 0.5]",1,1,,,,,,,,,,,,,,,,,0,2,2,2,0,3,3,2,,,,,,,,,,,,,,,,,,,,,,,,,,,,,,,,,,,,,,,,,,,,,,,827.7540924979999,None,827.7540924979999,None,827.7540924979999,None,s,1,1.0354483139999502,829.287490407,None,829.287490407,None,829.287490407,None,830.4043649169998,None,830.4043649169998,None,830.4043649169998,None,830.4043649169998,None,,,,,,,,,,,,,,,,,,,,,,,,,,,,,,,,,,,,,,,,,,,,001,104,2020_Feb_11_1000,spring_faces,3.1.5,60.00254086762889,
condition files/Stage2_1.xlsx,,T5,B5,s,"['s', 'r']","['Stratego', 'Risk']","[-0.15, 0.5]","[0.15, 0.5]",1,1,,,,,,,,,,,,,,,,,0,2,2,2,0,4,4,0,,,,,,,,,,,,,,,,,,,,,,,,,,,,,,,,,,,,,,,,,,,,,,,832.3542565799999,None,832.3542565799999,None,832.3542565799999,None,s,1,2.065424523999809,833.889463638,None,833.889463638,None,833.889463638,None,836.0208017069999,None,836.0208017069999,None,836.0208017069999,None,836.0208017069999,None,,,,,,,,,,,,,,,,,,,,,,,,,,,,,,,,,,,,,,,,,,,,001,104,2020_Feb_11_1000,spring_faces,3.1.5,60.00254086762889,
condition files/Stage2_1.xlsx,,B2,T2,r,"['s', 'r']","['Stratego', 'Risk']","[-0.15, 0.5]","[0.15, 0.5]",1,1,,,,,,,,,,,,,,,,,0,2,2,2,0,5,5,3,,,,,,,,,,,,,,,,,,,,,,,,,,,,,,,,,,,,,,,,,,,,,,,837.987012733,None,837.987012733,None,837.987012733,None,r,1,0.865459471000122,839.5374458779997,None,839.5374458779997,None,839.5374458779997,None,840.4710374369997,None,840.4710374369997,None,840.4710374369997,None,840.4710374369997,None,,,,,,,,,,,,,,,,,,,,,,,,,,,,,,,,,,,,,,,,,,,,001,104,2020_Feb_11_1000,spring_faces,3.1.5,60.00254086762889,
condition files/Stage2_2.xlsx,,B3,T3,s,"['s', 'r']","['Stratego', 'Risk']","[-0.15, 0.5]","[0.15, 0.5]",1,1,,,,,,,,,,,,,,,,,0,3,3,3,0,0,0,4,,,,,,,,,,,,,,,,,,,,,,,,,,,,,,,,,,,,,,,,,,,,,,,842.437794815,None,842.437794815,None,842.437794815,None,s,1,1.6469342359996517,843.972004065,None,843.972004065,None,843.972004065,None,845.6722733269999,None,845.6722733269999,None,845.6722733269999,None,845.6722733269999,None,,,,,,,,,,,,,,,,,,,,,,,,,,,,,,,,,,,,,,,,,,,,001,104,2020_Feb_11_1000,spring_faces,3.1.5,60.00254086762889,
condition files/Stage2_2.xlsx,,T6,B6,r,"['s', 'r']","['Stratego', 'Risk']","[-0.15, 0.5]","[0.15, 0.5]",1,1,,,,,,,,,,,,,,,,,0,3,3,3,0,1,1,1,,,,,,,,,,,,,,,,,,,,,,,,,,,,,,,,,,,,,,,,,,,,,,,847.6369802489999,None,847.6369802489999,None,847.6369802489999,None,r,1,1.343395695000254,849.1875913240001,None,849.1875913240001,None,849.1875913240001,None,850.5879541680001,None,850.5879541680001,None,850.5879541680001,None,850.5879541680001,None,,,,,,,,,,,,,,,,,,,,,,,,,,,,,,,,,,,,,,,,,,,,001,104,2020_Feb_11_1000,spring_faces,3.1.5,60.00254086762889,
condition files/Stage2_2.xlsx,,B5,T5,s,"['s', 'r']","['Stratego', 'Risk']","[-0.15, 0.5]","[0.15, 0.5]",1,1,,,,,,,,,,,,,,,,,0,3,3,3,0,2,2,0,,,,,,,,,,,,,,,,,,,,,,,,,,,,,,,,,,,,,,,,,,,,,,,852.5534725749999,None,852.5534725749999,None,852.5534725749999,None,s,1,1.882321423999656,854.088616688,None,854.088616688,None,854.088616688,None,856.0372544100001,None,856.0372544100001,None,856.0372544100001,None,856.0372544100001,None,,,,,,,,,,,,,,,,,,,,,,,,,,,,,,,,,,,,,,,,,,,,001,104,2020_Feb_11_1000,spring_faces,3.1.5,60.00254086762889,
condition files/Stage2_2.xlsx,,T2,B2,r,"['s', 'r']","['Stratego', 'Risk']","[-0.15, 0.5]","[0.15, 0.5]",1,1,,,,,,,,,,,,,,,,,0,3,3,3,0,3,3,3,,,,,,,,,,,,,,,,,,,,,,,,,,,,,,,,,,,,,,,,,,,,,,,857.9870712019997,None,857.9870712019997,None,857.9870712019997,None,r,1,1.313190502999987,859.5217476879998,None,859.5217476879998,None,859.5217476879998,None,860.888350103,None,860.888350103,None,860.888350103,None,860.888350103,None,,,,,,,,,,,,,,,,,,,,,,,,,,,,,,,,,,,,,,,,,,,,001,104,2020_Feb_11_1000,spring_faces,3.1.5,60.00254086762889,
condition files/Stage2_2.xlsx,,B1,T1,s,"['s', 'r']","['Stratego', 'Risk']","[-0.15, 0.5]","[0.15, 0.5]",1,1,,,,,,,,,,,,,,,,,0,3,3,3,0,4,4,2,,,,,,,,,,,,,,,,,,,,,,,,,,,,,,,,,,,,,,,,,,,,,,,862.8538612970001,None,862.8538612970001,None,862.8538612970001,None,s,1,0.8627294979996805,864.4041931419997,None,864.4041931419997,None,864.4041931419997,None,865.323096872,None,865.323096872,None,865.323096872,None,865.323096872,None,,,,,,,,,,,,,,,,,,,,,,,,,,,,,,,,,,,,,,,,,,,,001,104,2020_Feb_11_1000,spring_faces,3.1.5,60.00254086762889,
condition files/Stage2_2.xlsx,,T4,B4,r,"['s', 'r']","['Stratego', 'Risk']","[-0.15, 0.5]","[0.15, 0.5]",1,1,,,,,,,,,,,,,,,,,0,3,3,3,0,5,5,5,,,,,,,,,,,,,,,,,,,,,,,,,,,,,,,,,,,,,,,,,,,,,,,867.2876182619998,None,867.2876182619998,None,867.2876182619998,None,r,1,1.1799243079999542,868.8230104989998,None,868.8230104989998,None,868.8230104989998,None,870.0706064259998,None,870.0706064259998,None,870.0706064259998,None,870.0706064259998,None,,,,,,,,,,,,,,,,,,,,,,,,,,,,,,,,,,,,,,,,,,,,001,104,2020_Feb_11_1000,spring_faces,3.1.5,60.00254086762889,
condition files/Stage2_1.xlsx,,T5,B5,s,"['s', 'r']","['Stratego', 'Risk']","[-0.15, 0.5]","[0.15, 0.5]",1,1,,,,,,,,,,,,,,,,,0,4,4,4,0,0,0,0,,,,,,,,,,,,,,,,,,,,,,,,,,,,,,,,,,,,,,,,,,,,,,,872.0379939189997,None,872.0379939189997,None,872.0379939189997,None,s,1,1.9511272519998784,873.571770562,None,873.571770562,None,873.571770562,None,875.5882937420001,None,875.5882937420001,None,875.5882937420001,None,875.5882937420001,None,,,,,,,,,,,,,,,,,,,,,,,,,,,,,,,,,,,,,,,,,,,,001,104,2020_Feb_11_1000,spring_faces,3.1.5,60.00254086762889,
condition files/Stage2_1.xlsx,,T1,B1,s,"['s', 'r']","['Stratego', 'Risk']","[-0.15, 0.5]","[0.15, 0.5]",1,1,,,,,,,,,,,,,,,,,0,4,4,4,0,1,1,2,,,,,,,,,,,,,,,,,,,,,,,,,,,,,,,,,,,,,,,,,,,,,,,877.554295288,None,877.554295288,None,877.554295288,None,s,1,1.6810771770001338,879.0898755859998,None,879.0898755859998,None,879.0898755859998,None,880.821115874,None,880.821115874,None,880.821115874,None,880.821115874,None,,,,,,,,,,,,,,,,,,,,,,,,,,,,,,,,,,,,,,,,,,,,001,104,2020_Feb_11_1000,spring_faces,3.1.5,60.00254086762889,
condition files/Stage2_1.xlsx,,B4,T4,r,"['s', 'r']","['Stratego', 'Risk']","[-0.15, 0.5]","[0.15, 0.5]",1,1,,,,,,,,,,,,,,,,,0,4,4,4,0,2,2,5,,,,,,,,,,,,,,,,,,,,,,,,,,,,,,,,,,,,,,,,,,,,,,,882.787442372,None,882.787442372,None,882.787442372,None,r,1,2.608713975000228,884.3382933909998,None,884.3382933909998,None,884.3382933909998,None,887.0065141299997,None,887.0065141299997,None,887.0065141299997,None,887.0065141299997,None,,,,,,,,,,,,,,,,,,,,,,,,,,,,,,,,,,,,,,,,,,,,001,104,2020_Feb_11_1000,spring_faces,3.1.5,60.00254086762889,
condition files/Stage2_1.xlsx,,T3,B3,s,"['s', 'r']","['Stratego', 'Risk']","[-0.15, 0.5]","[0.15, 0.5]",1,1,,,,,,,,,,,,,,,,,0,4,4,4,0,3,3,4,,,,,,,,,,,,,,,,,,,,,,,,,,,,,,,,,,,,,,,,,,,,,,,888.9705686779998,None,888.9705686779998,None,888.9705686779998,None,s,1,1.080518247999862,890.5064146770001,None,890.5064146770001,None,890.5064146770001,None,891.6399530079998,None,891.6399530079998,None,891.6399530079998,None,891.6399530079998,None,,,,,,,,,,,,,,,,,,,,,,,,,,,,,,,,,,,,,,,,,,,,001,104,2020_Feb_11_1000,spring_faces,3.1.5,60.00254086762889,
condition files/Stage2_1.xlsx,,B2,T2,r,"['s', 'r']","['Stratego', 'Risk']","[-0.15, 0.5]","[0.15, 0.5]",1,1,,,,,,,,,,,,,,,,,0,4,4,4,0,4,4,3,,,,,,,,,,,,,,,,,,,,,,,,,,,,,,,,,,,,,,,,,,,,,,,893.6035090169999,None,893.6035090169999,None,893.6035090169999,None,r,1,1.2971330489999673,895.1538992989999,None,895.1538992989999,None,895.1538992989999,None,896.5041441889998,None,896.5041441889998,None,896.5041441889998,None,896.5041441889998,None,,,,,,,,,,,,,,,,,,,,,,,,,,,,,,,,,,,,,,,,,,,,001,104,2020_Feb_11_1000,spring_faces,3.1.5,60.00254086762889,
