condsFile,subStage,cue1,cue2,correct,responseKeys,responseNames,cue1Position,cue2Position,cue1Opacity,cue2Opacity,stageLoop0.thisRepN,stageLoop0.thisTrialN,stageLoop0.thisN,stageLoop0.thisIndex,blockLoop0.thisRepN,blockLoop0.thisTrialN,blockLoop0.thisN,blockLoop0.thisIndex,stage1Loop.thisRepN,stage1Loop.thisTrialN,stage1Loop.thisN,stage1Loop.thisIndex,blockLoop1.thisRepN,blockLoop1.thisTrialN,blockLoop1.thisN,blockLoop1.thisIndex,stage2Loop.thisRepN,stage2Loop.thisTrialN,stage2Loop.thisN,stage2Loop.thisIndex,blockLoop2.thisRepN,blockLoop2.thisTrialN,blockLoop2.thisN,blockLoop2.thisIndex,testLoop.thisRepN,testLoop.thisTrialN,testLoop.thisN,testLoop.thisIndex,blockLoopTest.thisRepN,blockLoopTest.thisTrialN,blockLoopTest.thisN,blockLoopTest.thisIndex,cuePics,id_instr_text.started,id_instr_text.stopped,space_to_continue_2.started,space_to_continue_2.stopped,end_instructions_resp_3.keys,end_instructions_resp_3.rt,end_instructions_resp_3.started,end_instructions_resp_3.stopped,id_input_instr.started,id_input_instr.stopped,id_input_rect.started,id_input_rect.stopped,id_input_resp.keys,id_input_resp.rt,id_input_resp.started,id_input_resp.stopped,sonaID,id_input_text.started,id_input_text.stopped,final_text.started,final_text.stopped,instructions.started,instructions.stopped,end_instructions_resp.keys,end_instructions_resp.rt,end_instructions_resp.started,end_instructions_resp.stopped,space_to_continue.started,space_to_continue.stopped,instructions_stage0.started,instructions_stage0.stopped,end_instructions_resp_stage0.keys,end_instructions_resp_stage0.rt,end_instructions_resp_stage0.started,end_instructions_resp_stage0.stopped,space_to_continue_stage0.started,space_to_continue_stage0.stopped,text.started,text.stopped,resp_text1.started,resp_text1.stopped,resp_text2.started,resp_text2.stopped,trial_resp.keys,trial_resp.corr,trial_resp.rt,trial_resp.started,trial_resp.stopped,cue1Image.started,cue1Image.stopped,cue2Image.started,cue2Image.stopped,cue1Image_fb.started,cue1Image_fb.stopped,cue2Image_fb.started,cue2Image_fb.stopped,fb_text_answer.started,fb_text_answer.stopped,feedback_image.started,feedback_image.stopped,instructions_stage1.started,instructions_stage1.stopped,end_instructions_resp_stage1.keys,end_instructions_resp_stage1.rt,end_instructions_resp_stage1.started,end_instructions_resp_stage1.stopped,space_to_continue_stage1.started,space_to_continue_stage1.stopped,instructions_2.started,instructions_2.stopped,end_instructions_resp_2.keys,end_instructions_resp_2.rt,end_instructions_resp_2.started,end_instructions_resp_2.stopped,press_space_to_continue_stage2.started,press_space_to_continue_stage2.stopped,instructions_testStage1.started,instructions_testStage1.stopped,end_instructions_resp_test1.keys,end_instructions_resp_test1.rt,end_instructions_resp_test1.started,end_instructions_resp_test1.stopped,press_space_to_continue_test1.started,press_space_to_continue_test1.stopped,cue1Image_testChoice.started,cue1Image_testChoice.stopped,cue2Image_testChoice.started,cue2Image_testChoice.stopped,test_resp.keys,test_resp.corr,test_resp.rt,test_resp.started,test_resp.stopped,cue1Image_testConf.started,cue1Image_testConf.stopped,cue2Image_testConf.started,cue2Image_testConf.stopped,conf_reminder.started,conf_reminder.stopped,conf_rating.response,conf_rating.rt,conf_rating.started,conf_rating.stopped,session,participant,date,expName,psychopyVersion,frameRate,
,,,,,,,,,,,,,,,,,,,,,,,,,,,,,,,,,,,,,,,,,,,"{'none': 'pictures/20M_AN_C.png', 'alpha': 'pictures/SHINEd_melon.png', 'beta': 'pictures/SHINEd_pepper.png', 'theta': 'pictures/SHINEd_pear.png', 'phi': 'pictures/SHINEd_apple.png', 'T1': 'pictures/34M_AN_C.png', 'T2': 'pictures/38M_AN_C.png', 'T3': 'pictures/36M_AN_C.png', 'T4': 'pictures/31M_AN_C.png', 'T5': 'pictures/33M_AN_C.png', 'T6': 'pictures/22M_AN_C.png', 'B1': 'pictures/25M_NE_C.png', 'B2': 'pictures/26M_NE_C.png', 'B3': 'pictures/32M_NE_C.png', 'B4': 'pictures/20M_NE_C.png', 'B5': 'pictures/23M_NE_C.png', 'B6': 'pictures/37M_NE_C.png'}",139.66736946500032,None,144.66710324400037,None,space,52.09820928499994,144.66710324400037,None,,,,,,,,,,,,,,,,,,,,,,,,,,,,,,,,,,,,,,,,,,,,,,,,,,,,,,,,,,,,,,,,,,,,,,,,,,,,,,,,,,,,,,,,,,,,,,,,001,105,2020_Feb_11_1024,spring_faces,3.1.5,60.09924187811626,
,,,,,,,,,,,,,,,,,,,,,,,,,,,,,,,,,,,,,,,,,,,,,,,,,,,,197.13562477800042,None,197.13562477800042,None,"['1', '2', '1', '6', 'e', 'd', 'a', 's', 'f']","[16.66970537799989, 17.021687236999696, 23.437708956999813, 23.901692403999732, 31.693668721999984, 32.04569082299986, 36.9096829289997, 37.21369578799977, 37.565659866999795]",197.13562477800042,None,,,,,,,,,,,,,,,,,,,,,,,,,,,,,,,,,,,,,,,,,,,,,,,,,,,,,,,,,,,,,,,,,,,,,,,,,,,,,,,,,,,,,,,,001,105,2020_Feb_11_1024,spring_faces,3.1.5,60.09924187811626,
,,,,,,,,,,,,,,,,,,,,,,,,,,,,,,,,,,,,,,,,,,,,,,,,,,,,,,,,,,,,1216edasf,197.13562477800042,None,197.13562477800042,None,239.78369149100035,None,space,3.485267356999884,244.78400899500002,None,,,,,,,,,,,,,,,,,,,,,,,,,,,,,,,,,,,,,,,,,,,,,,,,,,,,,,,,,,,,,,,,,,,,,,,,,,,,,001,105,2020_Feb_11_1024,spring_faces,3.1.5,60.09924187811626,
,,,,,,,,,,,,,,,,,,,,,,,,,,,,,,,,,,,,,,,,,,,,,,,,,,,,,,,,,,,,,,,,,,,,,,,244.78400899500002,None,248.3174855680004,None,space,19.78393776899975,253.31734703600023,None,,,,,,,,,,,,,,,,,,,,,,,,,,,,,,,,,,,,,,,,,,,,,,,,,,,,,,,,,,,,,,,,,,,,,001,105,2020_Feb_11_1024,spring_faces,3.1.5,60.09924187811626,
condition files/Stage0a.xlsx,0a,beta,none,g,"['h', 'g']","['Chess', 'Go']","[0, 0.5]","[0, 0]",1,0,0,0,0,0,0,0,0,1,,,,,,,,,,,,,,,,,,,,,,,,,,,,,,,,,,,,,,,,,,,,,,,,,,,,,,,,,,,,,253.31734703600023,None,273.1675941110002,None,273.1675941110002,None,273.1675941110002,None,g,1,4.174533680999957,274.7508397690003,None,274.7508397690003,None,274.7508397690003,None,279.000606908,None,279.000606908,None,279.000606908,None,279.000606908,None,,,,,,,,,,,,,,,,,,,,,,,,,,,,,,,,,,,,,,,,,,,,001,105,2020_Feb_11_1024,spring_faces,3.1.5,60.09924187811626,
condition files/Stage0a.xlsx,0a,alpha,none,h,"['h', 'g']","['Chess', 'Go']","[0, 0.5]","[0, 0]",1,0,0,0,0,0,0,1,1,0,,,,,,,,,,,,,,,,,,,,,,,,,,,,,,,,,,,,,,,,,,,,,,,,,,,,,,,,,,,,,,,280.9504529220003,None,280.9504529220003,None,280.9504529220003,None,h,1,2.600450966000153,282.48483701700025,None,282.48483701700025,None,282.48483701700025,None,285.150922539,None,285.150922539,None,285.150922539,None,285.150922539,None,,,,,,,,,,,,,,,,,,,,,,,,,,,,,,,,,,,,,,,,,,,,001,105,2020_Feb_11_1024,spring_faces,3.1.5,60.09924187811626,
condition files/Stage0a.xlsx,0a,alpha,none,h,"['h', 'g']","['Chess', 'Go']","[0, 0.5]","[0, 0]",1,0,0,1,1,1,0,0,0,0,,,,,,,,,,,,,,,,,,,,,,,,,,,,,,,,,,,,,,,,,,,,,,,,,,,,,,,,,,,,,,,287.1339118100004,None,287.1339118100004,None,287.1339118100004,None,h,1,1.5525361529998918,288.66879166900026,None,288.66879166900026,None,288.66879166900026,None,290.284213463,None,290.284213463,None,290.284213463,None,290.284213463,None,,,,,,,,,,,,,,,,,,,,,,,,,,,,,,,,,,,,,,,,,,,,001,105,2020_Feb_11_1024,spring_faces,3.1.5,60.09924187811626,
condition files/Stage0a.xlsx,0a,beta,none,g,"['h', 'g']","['Chess', 'Go']","[0, 0.5]","[0, 0]",1,0,0,1,1,1,0,1,1,1,,,,,,,,,,,,,,,,,,,,,,,,,,,,,,,,,,,,,,,,,,,,,,,,,,,,,,,,,,,,,,,292.2505120300002,None,292.2505120300002,None,292.2505120300002,None,g,1,1.4618212079999466,293.7834876090001,None,293.7834876090001,None,293.7834876090001,None,295.300576998,None,295.300576998,None,295.300576998,None,295.300576998,None,,,,,,,,,,,,,,,,,,,,,,,,,,,,,,,,,,,,,,,,,,,,001,105,2020_Feb_11_1024,spring_faces,3.1.5,60.09924187811626,
condition files/Stage0a.xlsx,0a,alpha,none,h,"['h', 'g']","['Chess', 'Go']","[0, 0.5]","[0, 0]",1,0,0,2,2,2,0,0,0,0,,,,,,,,,,,,,,,,,,,,,,,,,,,,,,,,,,,,,,,,,,,,,,,,,,,,,,,,,,,,,,,297.28367190300014,None,297.28367190300014,None,297.28367190300014,None,h,1,0.7004258110000592,298.8168686040003,None,298.8168686040003,None,298.8168686040003,None,299.5697595700003,None,299.5697595700003,None,299.5697595700003,None,299.5697595700003,None,,,,,,,,,,,,,,,,,,,,,,,,,,,,,,,,,,,,,,,,,,,,001,105,2020_Feb_11_1024,spring_faces,3.1.5,60.09924187811626,
condition files/Stage0a.xlsx,0a,beta,none,g,"['h', 'g']","['Chess', 'Go']","[0, 0.5]","[0, 0]",1,0,0,2,2,2,0,1,1,1,,,,,,,,,,,,,,,,,,,,,,,,,,,,,,,,,,,,,,,,,,,,,,,,,,,,,,,,,,,,,,,301.5339433270001,None,301.5339433270001,None,301.5339433270001,None,g,1,0.7223028799999156,303.06702564900024,None,303.06702564900024,None,303.06702564900024,None,303.8508174010003,None,303.8508174010003,None,303.8508174010003,None,303.8508174010003,None,,,,,,,,,,,,,,,,,,,,,,,,,,,,,,,,,,,,,,,,,,,,001,105,2020_Feb_11_1024,spring_faces,3.1.5,60.09924187811626,
condition files/Stage0a.xlsx,0a,alpha,none,h,"['h', 'g']","['Chess', 'Go']","[0, 0.5]","[0, 0]",1,0,0,3,3,3,0,0,0,0,,,,,,,,,,,,,,,,,,,,,,,,,,,,,,,,,,,,,,,,,,,,,,,,,,,,,,,,,,,,,,,305.834389096,None,305.834389096,None,305.834389096,None,h,1,0.5666943119999814,307.35062468700016,None,307.35062468700016,None,307.35062468700016,None,307.966960792,None,307.966960792,None,307.966960792,None,307.966960792,None,,,,,,,,,,,,,,,,,,,,,,,,,,,,,,,,,,,,,,,,,,,,001,105,2020_Feb_11_1024,spring_faces,3.1.5,60.09924187811626,
condition files/Stage0a.xlsx,0a,beta,none,g,"['h', 'g']","['Chess', 'Go']","[0, 0.5]","[0, 0]",1,0,0,3,3,3,0,1,1,1,,,,,,,,,,,,,,,,,,,,,,,,,,,,,,,,,,,,,,,,,,,,,,,,,,,,,,,,,,,,,,,309.93386709900005,None,309.93386709900005,None,309.93386709900005,None,g,1,0.8497615790001873,311.46753453300016,None,311.46753453300016,None,311.46753453300016,None,312.3668443710003,None,312.3668443710003,None,312.3668443710003,None,312.3668443710003,None,,,,,,,,,,,,,,,,,,,,,,,,,,,,,,,,,,,,,,,,,,,,001,105,2020_Feb_11_1024,spring_faces,3.1.5,60.09924187811626,
condition files/Stage0a.xlsx,0a,alpha,none,h,"['h', 'g']","['Chess', 'Go']","[0, 0.5]","[0, 0]",1,0,0,4,4,4,0,0,0,0,,,,,,,,,,,,,,,,,,,,,,,,,,,,,,,,,,,,,,,,,,,,,,,,,,,,,,,,,,,,,,,314.3501696340004,None,314.3501696340004,None,314.3501696340004,None,h,1,1.1697342020001997,315.88357252800006,None,315.88357252800006,None,315.88357252800006,None,317.1175201000001,None,317.1175201000001,None,317.1175201000001,None,317.1175201000001,None,,,,,,,,,,,,,,,,,,,,,,,,,,,,,,,,,,,,,,,,,,,,001,105,2020_Feb_11_1024,spring_faces,3.1.5,60.09924187811626,
condition files/Stage0a.xlsx,0a,beta,none,g,"['h', 'g']","['Chess', 'Go']","[0, 0.5]","[0, 0]",1,0,0,4,4,4,0,1,1,1,,,,,,,,,,,,,,,,,,,,,,,,,,,,,,,,,,,,,,,,,,,,,,,,,,,,,,,,,,,,,,,319.08336654000004,None,319.08336654000004,None,319.08336654000004,None,g,1,0.7562465260002682,320.61708202900036,None,320.61708202900036,None,320.61708202900036,None,321.4336594710003,None,321.4336594710003,None,321.4336594710003,None,321.4336594710003,None,,,,,,,,,,,,,,,,,,,,,,,,,,,,,,,,,,,,,,,,,,,,001,105,2020_Feb_11_1024,spring_faces,3.1.5,60.09924187811626,
condition files/Stage0a.xlsx,0a,alpha,none,h,"['h', 'g']","['Chess', 'Go']","[0, 0.5]","[0, 0]",1,0,0,5,5,5,0,0,0,0,,,,,,,,,,,,,,,,,,,,,,,,,,,,,,,,,,,,,,,,,,,,,,,,,,,,,,,,,,,,,,,323.41751540500036,None,323.41751540500036,None,323.41751540500036,None,h,1,0.5662106449999555,324.95111333600016,None,324.95111333600016,None,324.95111333600016,None,325.567267507,None,325.567267507,None,325.567267507,None,325.567267507,None,,,,,,,,,,,,,,,,,,,,,,,,,,,,,,,,,,,,,,,,,,,,001,105,2020_Feb_11_1024,spring_faces,3.1.5,60.09924187811626,
condition files/Stage0a.xlsx,0a,beta,none,g,"['h', 'g']","['Chess', 'Go']","[0, 0.5]","[0, 0]",1,0,0,5,5,5,0,1,1,1,,,,,,,,,,,,,,,,,,,,,,,,,,,,,,,,,,,,,,,,,,,,,,,,,,,,,,,,,,,,,,,327.5338272810004,None,327.5338272810004,None,327.5338272810004,None,g,1,0.49739356300005966,329.06790813900034,None,329.06790813900034,None,329.06790813900034,None,329.61689421300025,None,329.61689421300025,None,329.61689421300025,None,329.61689421300025,None,,,,,,,,,,,,,,,,,,,,,,,,,,,,,,,,,,,,,,,,,,,,001,105,2020_Feb_11_1024,spring_faces,3.1.5,60.09924187811626,
condition files/Stage0b_1.xlsx,0b,none,beta,g,"['h', 'g']","['Chess', 'Go']","[-0.15, 0.5]","[0.15, 0.5]",0,1,0,6,6,6,0,0,0,1,,,,,,,,,,,,,,,,,,,,,,,,,,,,,,,,,,,,,,,,,,,,,,,,,,,,,,,,,,,,,,,331.6009856830001,None,331.6009856830001,None,331.6009856830001,None,g,1,0.9425121740000577,333.1508945090004,None,333.1508945090004,None,333.1508945090004,None,334.1536137390003,None,334.1536137390003,None,334.1536137390003,None,334.1536137390003,None,,,,,,,,,,,,,,,,,,,,,,,,,,,,,,,,,,,,,,,,,,,,001,105,2020_Feb_11_1024,spring_faces,3.1.5,60.09924187811626,
condition files/Stage0b_1.xlsx,0b,alpha,none,h,"['h', 'g']","['Chess', 'Go']","[-0.15, 0.5]","[0.15, 0.5]",1,0,0,6,6,6,0,1,1,0,,,,,,,,,,,,,,,,,,,,,,,,,,,,,,,,,,,,,,,,,,,,,,,,,,,,,,,,,,,,,,,336.1172141660004,None,336.1172141660004,None,336.1172141660004,None,h,1,0.6638485680000485,337.65345983700036,None,337.65345983700036,None,337.65345983700036,None,338.38421278800024,None,338.38421278800024,None,338.38421278800024,None,338.38421278800024,None,,,,,,,,,,,,,,,,,,,,,,,,,,,,,,,,,,,,,,,,,,,,001,105,2020_Feb_11_1024,spring_faces,3.1.5,60.09924187811626,
condition files/Stage0b_2.xlsx,0b,none,alpha,h,"['h', 'g']","['Chess', 'Go']","[-0.15, 0.5]","[0.15, 0.5]",0,1,0,7,7,7,0,0,0,0,,,,,,,,,,,,,,,,,,,,,,,,,,,,,,,,,,,,,,,,,,,,,,,,,,,,,,,,,,,,,,,340.35028172600005,None,340.35028172600005,None,340.35028172600005,None,h,1,0.5925570399999742,341.900834647,None,341.900834647,None,341.900834647,None,342.5504265460004,None,342.5504265460004,None,342.5504265460004,None,342.5504265460004,None,,,,,,,,,,,,,,,,,,,,,,,,,,,,,,,,,,,,,,,,,,,,001,105,2020_Feb_11_1024,spring_faces,3.1.5,60.09924187811626,
condition files/Stage0b_2.xlsx,0b,beta,none,g,"['h', 'g']","['Chess', 'Go']","[-0.15, 0.5]","[0.15, 0.5]",1,0,0,7,7,7,0,1,1,1,,,,,,,,,,,,,,,,,,,,,,,,,,,,,,,,,,,,,,,,,,,,,,,,,,,,,,,,,,,,,,,344.5171756970003,None,344.5171756970003,None,344.5171756970003,None,g,1,0.5043432660004328,346.053027894,None,346.053027894,None,346.053027894,None,346.61915906700006,None,346.61915906700006,None,346.61915906700006,None,346.61915906700006,None,,,,,,,,,,,,,,,,,,,,,,,,,,,,,,,,,,,,,,,,,,,,001,105,2020_Feb_11_1024,spring_faces,3.1.5,60.09924187811626,
condition files/Stage0b_1.xlsx,0b,alpha,none,h,"['h', 'g']","['Chess', 'Go']","[-0.15, 0.5]","[0.15, 0.5]",1,0,0,8,8,8,0,0,0,0,,,,,,,,,,,,,,,,,,,,,,,,,,,,,,,,,,,,,,,,,,,,,,,,,,,,,,,,,,,,,,,348.6008396360003,None,348.6008396360003,None,348.6008396360003,None,h,1,0.6474735589999909,350.13383323900007,None,350.13383323900007,None,350.13383323900007,None,350.83432314200036,None,350.83432314200036,None,350.83432314200036,None,350.83432314200036,None,,,,,,,,,,,,,,,,,,,,,,,,,,,,,,,,,,,,,,,,,,,,001,105,2020_Feb_11_1024,spring_faces,3.1.5,60.09924187811626,
condition files/Stage0b_1.xlsx,0b,none,beta,g,"['h', 'g']","['Chess', 'Go']","[-0.15, 0.5]","[0.15, 0.5]",0,1,0,8,8,8,0,1,1,1,,,,,,,,,,,,,,,,,,,,,,,,,,,,,,,,,,,,,,,,,,,,,,,,,,,,,,,,,,,,,,,352.8000464820002,None,352.8000464820002,None,352.8000464820002,None,g,1,0.5103390949998357,354.35097433600004,None,354.35097433600004,None,354.35097433600004,None,354.9213598190004,None,354.9213598190004,None,354.9213598190004,None,354.9213598190004,None,,,,,,,,,,,,,,,,,,,,,,,,,,,,,,,,,,,,,,,,,,,,001,105,2020_Feb_11_1024,spring_faces,3.1.5,60.09924187811626,
condition files/Stage0b_2.xlsx,0b,beta,none,g,"['h', 'g']","['Chess', 'Go']","[-0.15, 0.5]","[0.15, 0.5]",1,0,0,9,9,9,0,0,0,1,,,,,,,,,,,,,,,,,,,,,,,,,,,,,,,,,,,,,,,,,,,,,,,,,,,,,,,,,,,,,,,356.9009283170003,None,356.9009283170003,None,356.9009283170003,None,g,1,1.510869523999645,358.4384317070003,None,358.4384317070003,None,358.4384317070003,None,360.0007475450002,None,360.0007475450002,None,360.0007475450002,None,360.0007475450002,None,,,,,,,,,,,,,,,,,,,,,,,,,,,,,,,,,,,,,,,,,,,,001,105,2020_Feb_11_1024,spring_faces,3.1.5,60.09924187811626,
condition files/Stage0b_2.xlsx,0b,none,alpha,h,"['h', 'g']","['Chess', 'Go']","[-0.15, 0.5]","[0.15, 0.5]",0,1,0,9,9,9,0,1,1,0,,,,,,,,,,,,,,,,,,,,,,,,,,,,,,,,,,,,,,,,,,,,,,,,,,,,,,,,,,,,,,,361.96705446800024,None,361.96705446800024,None,361.96705446800024,None,h,1,0.38152565100017455,363.5037586130002,None,363.5037586130002,None,363.5037586130002,None,363.95323732600036,None,363.95323732600036,None,363.95323732600036,None,363.95323732600036,None,,,,,,,,,,,,,,,,,,,,,,,,,,,,,,,,,,,,,,,,,,,,001,105,2020_Feb_11_1024,spring_faces,3.1.5,60.09924187811626,
condition files/Stage0b_1.xlsx,0b,none,beta,g,"['h', 'g']","['Chess', 'Go']","[-0.15, 0.5]","[0.15, 0.5]",0,1,0,10,10,10,0,0,0,1,,,,,,,,,,,,,,,,,,,,,,,,,,,,,,,,,,,,,,,,,,,,,,,,,,,,,,,,,,,,,,,365.9339639970003,None,365.9339639970003,None,365.9339639970003,None,h,0,0.6404508409996197,367.4689356409999,None,367.4689356409999,None,367.4689356409999,None,368.167828912,None,368.167828912,None,368.167828912,None,368.167828912,None,,,,,,,,,,,,,,,,,,,,,,,,,,,,,,,,,,,,,,,,,,,,001,105,2020_Feb_11_1024,spring_faces,3.1.5,60.09924187811626,
condition files/Stage0b_1.xlsx,0b,alpha,none,h,"['h', 'g']","['Chess', 'Go']","[-0.15, 0.5]","[0.15, 0.5]",1,0,0,10,10,10,0,1,1,0,,,,,,,,,,,,,,,,,,,,,,,,,,,,,,,,,,,,,,,,,,,,,,,,,,,,,,,,,,,,,,,370.13386283900036,None,370.13386283900036,None,370.13386283900036,None,h,1,1.0015993639999579,371.6836711599999,None,371.6836711599999,None,371.6836711599999,None,372.75615123100033,None,372.75615123100033,None,372.75615123100033,None,372.75615123100033,None,,,,,,,,,,,,,,,,,,,,,,,,,,,,,,,,,,,,,,,,,,,,001,105,2020_Feb_11_1024,spring_faces,3.1.5,60.09924187811626,
condition files/Stage0b_2.xlsx,0b,none,alpha,h,"['h', 'g']","['Chess', 'Go']","[-0.15, 0.5]","[0.15, 0.5]",0,1,0,11,11,11,0,0,0,0,,,,,,,,,,,,,,,,,,,,,,,,,,,,,,,,,,,,,,,,,,,,,,,,,,,,,,,,,,,,,,,374.73415115100033,None,374.73415115100033,None,374.73415115100033,None,h,1,0.6212386170000173,376.27214106300016,None,376.27214106300016,None,376.27214106300016,None,376.95096419699985,None,376.95096419699985,None,376.95096419699985,None,376.95096419699985,None,,,,,,,,,,,,,,,,,,,,,,,,,,,,,,,,,,,,,,,,,,,,001,105,2020_Feb_11_1024,spring_faces,3.1.5,60.09924187811626,
condition files/Stage0b_2.xlsx,0b,beta,none,g,"['h', 'g']","['Chess', 'Go']","[-0.15, 0.5]","[0.15, 0.5]",1,0,0,11,11,11,0,1,1,1,,,,,,,,,,,,,,,,,,,,,,,,,,,,,,,,,,,,,,,,,,,,,,,,,,,,,,,,,,,,,,,378.9164936040006,None,378.9164936040006,None,378.9164936040006,None,g,1,1.274059448999651,380.45132554300017,None,380.45132554300017,None,380.45132554300017,None,381.78592457800005,None,381.78592457800005,None,381.78592457800005,None,381.78592457800005,None,,,,,,,,,,,,,,,,,,,,,,,,,,,,,,,,,,,,,,,,,,,,001,105,2020_Feb_11_1024,spring_faces,3.1.5,60.09924187811626,
condition files/Stage0c_1.xlsx,0c,alpha,phi,h,"['h', 'g']","['Chess', 'Go']","[-0.15, 0.5]","[0.15, 0.5]",1,1,0,12,12,12,0,0,0,1,,,,,,,,,,,,,,,,,,,,,,,,,,,,,,,,,,,,,,,,,,,,,,,,,,,,,,,,,,,,,,,383.76735989200006,None,383.76735989200006,None,383.76735989200006,None,g,0,3.640343027000199,385.3010140030001,None,385.3010140030001,None,385.3010140030001,None,389.00299141100004,None,389.00299141100004,None,389.00299141100004,None,389.00299141100004,None,,,,,,,,,,,,,,,,,,,,,,,,,,,,,,,,,,,,,,,,,,,,001,105,2020_Feb_11_1024,spring_faces,3.1.5,60.09924187811626,
condition files/Stage0c_1.xlsx,0c,phi,beta,g,"['h', 'g']","['Chess', 'Go']","[-0.15, 0.5]","[0.15, 0.5]",1,1,0,12,12,12,0,1,1,3,,,,,,,,,,,,,,,,,,,,,,,,,,,,,,,,,,,,,,,,,,,,,,,,,,,,,,,,,,,,,,,390.9672106930002,None,390.9672106930002,None,390.9672106930002,None,g,1,1.3364967530005742,392.50081201300054,None,392.50081201300054,None,392.50081201300054,None,393.9005800069999,None,393.9005800069999,None,393.9005800069999,None,393.9005800069999,None,,,,,,,,,,,,,,,,,,,,,,,,,,,,,,,,,,,,,,,,,,,,001,105,2020_Feb_11_1024,spring_faces,3.1.5,60.09924187811626,
condition files/Stage0c_1.xlsx,0c,theta,alpha,h,"['h', 'g']","['Chess', 'Go']","[-0.15, 0.5]","[0.15, 0.5]",1,1,0,12,12,12,0,2,2,0,,,,,,,,,,,,,,,,,,,,,,,,,,,,,,,,,,,,,,,,,,,,,,,,,,,,,,,,,,,,,,,395.8673338059998,None,395.8673338059998,None,395.8673338059998,None,h,1,0.8531726629998957,397.4001296189999,None,397.4001296189999,None,397.4001296189999,None,398.3166396260003,None,398.3166396260003,None,398.3166396260003,None,398.3166396260003,None,,,,,,,,,,,,,,,,,,,,,,,,,,,,,,,,,,,,,,,,,,,,001,105,2020_Feb_11_1024,spring_faces,3.1.5,60.09924187811626,
condition files/Stage0c_1.xlsx,0c,beta,theta,g,"['h', 'g']","['Chess', 'Go']","[-0.15, 0.5]","[0.15, 0.5]",1,1,0,12,12,12,0,3,3,2,,,,,,,,,,,,,,,,,,,,,,,,,,,,,,,,,,,,,,,,,,,,,,,,,,,,,,,,,,,,,,,400.28395342600015,None,400.28395342600015,None,400.28395342600015,None,g,1,2.963939047000167,401.81735672000013,None,401.81735672000013,None,401.81735672000013,None,404.8335672660005,None,404.8335672660005,None,404.8335672660005,None,404.8335672660005,None,,,,,,,,,,,,,,,,,,,,,,,,,,,,,,,,,,,,,,,,,,,,001,105,2020_Feb_11_1024,spring_faces,3.1.5,60.09924187811626,
condition files/Stage0c_2.xlsx,0c,phi,alpha,h,"['h', 'g']","['Chess', 'Go']","[-0.15, 0.5]","[0.15, 0.5]",1,1,0,13,13,13,0,0,0,1,,,,,,,,,,,,,,,,,,,,,,,,,,,,,,,,,,,,,,,,,,,,,,,,,,,,,,,,,,,,,,,406.81757789400035,None,406.81757789400035,None,406.81757789400035,None,h,1,2.3984344390000842,408.3508741229998,None,408.3508741229998,None,408.3508741229998,None,410.8009695870005,None,410.8009695870005,None,410.8009695870005,None,410.8009695870005,None,,,,,,,,,,,,,,,,,,,,,,,,,,,,,,,,,,,,,,,,,,,,001,105,2020_Feb_11_1024,spring_faces,3.1.5,60.09924187811626,
condition files/Stage0c_2.xlsx,0c,alpha,theta,h,"['h', 'g']","['Chess', 'Go']","[-0.15, 0.5]","[0.15, 0.5]",1,1,0,13,13,13,0,1,1,0,,,,,,,,,,,,,,,,,,,,,,,,,,,,,,,,,,,,,,,,,,,,,,,,,,,,,,,,,,,,,,,412.7668902060004,None,412.7668902060004,None,412.7668902060004,None,h,1,1.440400999999838,414.30096528500053,None,414.30096528500053,None,414.30096528500053,None,415.78406512400034,None,415.78406512400034,None,415.78406512400034,None,415.78406512400034,None,,,,,,,,,,,,,,,,,,,,,,,,,,,,,,,,,,,,,,,,,,,,001,105,2020_Feb_11_1024,spring_faces,3.1.5,60.09924187811626,
condition files/Stage0c_2.xlsx,0c,theta,beta,g,"['h', 'g']","['Chess', 'Go']","[-0.15, 0.5]","[0.15, 0.5]",1,1,0,13,13,13,0,2,2,2,,,,,,,,,,,,,,,,,,,,,,,,,,,,,,,,,,,,,,,,,,,,,,,,,,,,,,,,,,,,,,,417.76680318299987,None,417.76680318299987,None,417.76680318299987,None,g,1,1.5444664189999457,419.300828505,None,419.300828505,None,419.300828505,None,420.9000853460002,None,420.9000853460002,None,420.9000853460002,None,420.9000853460002,None,,,,,,,,,,,,,,,,,,,,,,,,,,,,,,,,,,,,,,,,,,,,001,105,2020_Feb_11_1024,spring_faces,3.1.5,60.09924187811626,
condition files/Stage0c_2.xlsx,0c,beta,phi,g,"['h', 'g']","['Chess', 'Go']","[-0.15, 0.5]","[0.15, 0.5]",1,1,0,13,13,13,0,3,3,3,,,,,,,,,,,,,,,,,,,,,,,,,,,,,,,,,,,,,,,,,,,,,,,,,,,,,,,,,,,,,,,422.86669402000007,None,422.86669402000007,None,422.86669402000007,None,g,1,0.9725377999993725,424.4007659910003,None,424.4007659910003,None,424.4007659910003,None,425.41781588400045,None,425.41781588400045,None,425.41781588400045,None,425.41781588400045,None,,,,,,,,,,,,,,,,,,,,,,,,,,,,,,,,,,,,,,,,,,,,001,105,2020_Feb_11_1024,spring_faces,3.1.5,60.09924187811626,
condition files/Stage0c_1.xlsx,0c,theta,alpha,h,"['h', 'g']","['Chess', 'Go']","[-0.15, 0.5]","[0.15, 0.5]",1,1,0,14,14,14,0,0,0,0,,,,,,,,,,,,,,,,,,,,,,,,,,,,,,,,,,,,,,,,,,,,,,,,,,,,,,,,,,,,,,,427.4176396520006,None,427.4176396520006,None,427.4176396520006,None,h,1,0.7426443869999275,428.9507341010003,None,428.9507341010003,None,428.9507341010003,None,429.7510072619998,None,429.7510072619998,None,429.7510072619998,None,429.7510072619998,None,,,,,,,,,,,,,,,,,,,,,,,,,,,,,,,,,,,,,,,,,,,,001,105,2020_Feb_11_1024,spring_faces,3.1.5,60.09924187811626,
condition files/Stage0c_1.xlsx,0c,phi,beta,g,"['h', 'g']","['Chess', 'Go']","[-0.15, 0.5]","[0.15, 0.5]",1,1,0,14,14,14,0,1,1,3,,,,,,,,,,,,,,,,,,,,,,,,,,,,,,,,,,,,,,,,,,,,,,,,,,,,,,,,,,,,,,,431.7171608710005,None,431.7171608710005,None,431.7171608710005,None,g,1,1.6107052609995662,433.2506196680006,None,433.2506196680006,None,433.2506196680006,None,434.9171721550001,None,434.9171721550001,None,434.9171721550001,None,434.9171721550001,None,,,,,,,,,,,,,,,,,,,,,,,,,,,,,,,,,,,,,,,,,,,,001,105,2020_Feb_11_1024,spring_faces,3.1.5,60.09924187811626,
condition files/Stage0c_1.xlsx,0c,alpha,phi,h,"['h', 'g']","['Chess', 'Go']","[-0.15, 0.5]","[0.15, 0.5]",1,1,0,14,14,14,0,2,2,1,,,,,,,,,,,,,,,,,,,,,,,,,,,,,,,,,,,,,,,,,,,,,,,,,,,,,,,,,,,,,,,436.88360604100035,None,436.88360604100035,None,436.88360604100035,None,h,1,0.6675822220004193,438.4176906720004,None,438.4176906720004,None,438.4176906720004,None,439.15063554100016,None,439.15063554100016,None,439.15063554100016,None,439.15063554100016,None,,,,,,,,,,,,,,,,,,,,,,,,,,,,,,,,,,,,,,,,,,,,001,105,2020_Feb_11_1024,spring_faces,3.1.5,60.09924187811626,
condition files/Stage0c_1.xlsx,0c,beta,theta,g,"['h', 'g']","['Chess', 'Go']","[-0.15, 0.5]","[0.15, 0.5]",1,1,0,14,14,14,0,3,3,2,,,,,,,,,,,,,,,,,,,,,,,,,,,,,,,,,,,,,,,,,,,,,,,,,,,,,,,,,,,,,,,441.11695317700014,None,441.11695317700014,None,441.11695317700014,None,g,1,1.8105287170001247,442.6507914720005,None,442.6507914720005,None,442.6507914720005,None,444.51768088100016,None,444.51768088100016,None,444.51768088100016,None,444.51768088100016,None,,,,,,,,,,,,,,,,,,,,,,,,,,,,,,,,,,,,,,,,,,,,001,105,2020_Feb_11_1024,spring_faces,3.1.5,60.09924187811626,
condition files/Stage0c_2.xlsx,0c,phi,alpha,h,"['h', 'g']","['Chess', 'Go']","[-0.15, 0.5]","[0.15, 0.5]",1,1,0,15,15,15,0,0,0,1,,,,,,,,,,,,,,,,,,,,,,,,,,,,,,,,,,,,,,,,,,,,,,,,,,,,,,,,,,,,,,,446.5005537450006,None,446.5005537450006,None,446.5005537450006,None,h,1,0.7795086639998772,448.0338048530002,None,448.0338048530002,None,448.0338048530002,None,448.8675344399999,None,448.8675344399999,None,448.8675344399999,None,448.8675344399999,None,,,,,,,,,,,,,,,,,,,,,,,,,,,,,,,,,,,,,,,,,,,,001,105,2020_Feb_11_1024,spring_faces,3.1.5,60.09924187811626,
condition files/Stage0c_2.xlsx,0c,theta,beta,g,"['h', 'g']","['Chess', 'Go']","[-0.15, 0.5]","[0.15, 0.5]",1,1,0,15,15,15,0,1,1,2,,,,,,,,,,,,,,,,,,,,,,,,,,,,,,,,,,,,,,,,,,,,,,,,,,,,,,,,,,,,,,,450.83383946699996,None,450.83383946699996,None,450.83383946699996,None,g,1,2.093722006000462,452.36755662700034,None,452.36755662700034,None,452.36755662700034,None,454.5174306529998,None,454.5174306529998,None,454.5174306529998,None,454.5174306529998,None,,,,,,,,,,,,,,,,,,,,,,,,,,,,,,,,,,,,,,,,,,,,001,105,2020_Feb_11_1024,spring_faces,3.1.5,60.09924187811626,
condition files/Stage0c_2.xlsx,0c,alpha,theta,h,"['h', 'g']","['Chess', 'Go']","[-0.15, 0.5]","[0.15, 0.5]",1,1,0,15,15,15,0,2,2,0,,,,,,,,,,,,,,,,,,,,,,,,,,,,,,,,,,,,,,,,,,,,,,,,,,,,,,,,,,,,,,,456.48330247300055,None,456.48330247300055,None,456.48330247300055,None,h,1,2.3157550129999436,458.01754455900027,None,458.01754455900027,None,458.01754455900027,None,460.38389215999996,None,460.38389215999996,None,460.38389215999996,None,460.38389215999996,None,,,,,,,,,,,,,,,,,,,,,,,,,,,,,,,,,,,,,,,,,,,,001,105,2020_Feb_11_1024,spring_faces,3.1.5,60.09924187811626,
condition files/Stage0c_2.xlsx,0c,beta,phi,g,"['h', 'g']","['Chess', 'Go']","[-0.15, 0.5]","[0.15, 0.5]",1,1,0,15,15,15,0,3,3,3,,,,,,,,,,,,,,,,,,,,,,,,,,,,,,,,,,,,,,,,,,,,,,,,,,,,,,,,,,,,,,,462.3500400590001,None,462.3500400590001,None,462.3500400590001,None,g,1,1.1375167100004546,463.8837968730004,None,463.8837968730004,None,463.8837968730004,None,465.08419733400024,None,465.08419733400024,None,465.08419733400024,None,465.08419733400024,None,,,,,,,,,,,,,,,,,,,,,,,,,,,,,,,,,,,,,,,,,,,,001,105,2020_Feb_11_1024,spring_faces,3.1.5,60.09924187811626,
condition files/Stage0c_1.xlsx,0c,beta,theta,g,"['h', 'g']","['Chess', 'Go']","[-0.15, 0.5]","[0.15, 0.5]",1,1,0,16,16,16,0,0,0,2,,,,,,,,,,,,,,,,,,,,,,,,,,,,,,,,,,,,,,,,,,,,,,,,,,,,,,,,,,,,,,,467.0668462040003,None,467.0668462040003,None,467.0668462040003,None,g,1,1.3482826279996516,468.60101697400023,None,468.60101697400023,None,468.60101697400023,None,469.9863019129998,None,469.9863019129998,None,469.9863019129998,None,469.9863019129998,None,,,,,,,,,,,,,,,,,,,,,,,,,,,,,,,,,,,,,,,,,,,,001,105,2020_Feb_11_1024,spring_faces,3.1.5,60.09924187811626,
condition files/Stage0c_1.xlsx,0c,alpha,phi,h,"['h', 'g']","['Chess', 'Go']","[-0.15, 0.5]","[0.15, 0.5]",1,1,0,16,16,16,0,1,1,1,,,,,,,,,,,,,,,,,,,,,,,,,,,,,,,,,,,,,,,,,,,,,,,,,,,,,,,,,,,,,,,471.9663964279998,None,471.9663964279998,None,471.9663964279998,None,h,1,1.904259959999763,473.5010528120001,None,473.5010528120001,None,473.5010528120001,None,475.46684934400037,None,475.46684934400037,None,475.46684934400037,None,475.46684934400037,None,,,,,,,,,,,,,,,,,,,,,,,,,,,,,,,,,,,,,,,,,,,,001,105,2020_Feb_11_1024,spring_faces,3.1.5,60.09924187811626,
condition files/Stage0c_1.xlsx,0c,phi,beta,g,"['h', 'g']","['Chess', 'Go']","[-0.15, 0.5]","[0.15, 0.5]",1,1,0,16,16,16,0,2,2,3,,,,,,,,,,,,,,,,,,,,,,,,,,,,,,,,,,,,,,,,,,,,,,,,,,,,,,,,,,,,,,,477.43385723900064,None,477.43385723900064,None,477.43385723900064,None,g,1,0.6458176350006397,478.9674870580002,None,478.9674870580002,None,478.9674870580002,None,479.66745161200015,None,479.66745161200015,None,479.66745161200015,None,479.66745161200015,None,,,,,,,,,,,,,,,,,,,,,,,,,,,,,,,,,,,,,,,,,,,,001,105,2020_Feb_11_1024,spring_faces,3.1.5,60.09924187811626,
condition files/Stage0c_1.xlsx,0c,theta,alpha,h,"['h', 'g']","['Chess', 'Go']","[-0.15, 0.5]","[0.15, 0.5]",1,1,0,16,16,16,0,3,3,0,,,,,,,,,,,,,,,,,,,,,,,,,,,,,,,,,,,,,,,,,,,,,,,,,,,,,,,,,,,,,,,481.63350574800006,None,481.63350574800006,None,481.63350574800006,None,h,1,0.6863874760001636,483.166922462,None,483.166922462,None,483.166922462,None,483.91754952500014,None,483.91754952500014,None,483.91754952500014,None,483.91754952500014,None,,,,,,,,,,,,,,,,,,,,,,,,,,,,,,,,,,,,,,,,,,,,001,105,2020_Feb_11_1024,spring_faces,3.1.5,60.09924187811626,
condition files/Stage0c_2.xlsx,0c,alpha,theta,h,"['h', 'g']","['Chess', 'Go']","[-0.15, 0.5]","[0.15, 0.5]",1,1,0,17,17,17,0,0,0,0,,,,,,,,,,,,,,,,,,,,,,,,,,,,,,,,,,,,,,,,,,,,,,,,,,,,,,,,,,,,,,,485.9008326660005,None,485.9008326660005,None,485.9008326660005,None,h,1,1.171128490999763,487.43419142400035,None,487.43419142400035,None,487.43419142400035,None,488.65405250799995,None,488.65405250799995,None,488.65405250799995,None,488.65405250799995,None,,,,,,,,,,,,,,,,,,,,,,,,,,,,,,,,,,,,,,,,,,,,001,105,2020_Feb_11_1024,spring_faces,3.1.5,60.09924187811626,
condition files/Stage0c_2.xlsx,0c,theta,beta,g,"['h', 'g']","['Chess', 'Go']","[-0.15, 0.5]","[0.15, 0.5]",1,1,0,17,17,17,0,1,1,2,,,,,,,,,,,,,,,,,,,,,,,,,,,,,,,,,,,,,,,,,,,,,,,,,,,,,,,,,,,,,,,490.6339088519999,None,490.6339088519999,None,490.6339088519999,None,g,1,1.0459828330003802,492.16728106499977,None,492.16728106499977,None,492.16728106499977,None,493.267494662,None,493.267494662,None,493.267494662,None,493.267494662,None,,,,,,,,,,,,,,,,,,,,,,,,,,,,,,,,,,,,,,,,,,,,001,105,2020_Feb_11_1024,spring_faces,3.1.5,60.09924187811626,
condition files/Stage0c_2.xlsx,0c,phi,alpha,h,"['h', 'g']","['Chess', 'Go']","[-0.15, 0.5]","[0.15, 0.5]",1,1,0,17,17,17,0,2,2,1,,,,,,,,,,,,,,,,,,,,,,,,,,,,,,,,,,,,,,,,,,,,,,,,,,,,,,,,,,,,,,,495.23395638500006,None,495.23395638500006,None,495.23395638500006,None,h,1,0.6216814700001123,496.767570516,None,496.767570516,None,496.767570516,None,497.4506664979999,None,497.4506664979999,None,497.4506664979999,None,497.4506664979999,None,,,,,,,,,,,,,,,,,,,,,,,,,,,,,,,,,,,,,,,,,,,,001,105,2020_Feb_11_1024,spring_faces,3.1.5,60.09924187811626,
condition files/Stage0c_2.xlsx,0c,beta,phi,g,"['h', 'g']","['Chess', 'Go']","[-0.15, 0.5]","[0.15, 0.5]",1,1,0,17,17,17,0,3,3,3,,,,,,,,,,,,,,,,,,,,,,,,,,,,,,,,,,,,,,,,,,,,,,,,,,,,,,,,,,,,,,,499.417300477,None,499.417300477,None,499.417300477,None,g,1,3.4787871349999477,500.9505196549999,None,500.9505196549999,None,500.9505196549999,None,504.48369333900064,None,504.48369333900064,None,504.48369333900064,None,504.48369333900064,None,,,,,,,,,,,,,,,,,,,,,,,,,,,,,,,,,,,,,,,,,,,,001,105,2020_Feb_11_1024,spring_faces,3.1.5,60.09924187811626,
,,,,,,,,,,,,,,,,,,,,,,,,,,,,,,,,,,,,,,,,,,,,,,,,,,,,,,,,,,,,,,,,,,,,,,,,,,,,,,,,,,,,,,,,,,,,,,,,,,,,,,,,506.46738143400034,None,space,7.410041201999775,511.46734977600045,None,,,,,,,,,,,,,,,,,,,,,,,,,,,,,,,,,,,,,,001,105,2020_Feb_11_1024,spring_faces,3.1.5,60.09924187811626,
condition files/Stage1_1.xlsx,,T4,B3,m,"['c', 'm']","['Clue', 'Monopoly']","[-0.15, 0.5]","[0.15, 0.5]",1,1,,,,,,,,,0,0,0,0,0,0,0,6,,,,,,,,,,,,,,,,,,,,,,,,,,,,,,,,,,,,,,,,,,,,,,,,,,,,,,,518.9340731560005,None,518.9340731560005,None,518.9340731560005,None,c,0,2.6191952439994566,520.4500812750002,None,520.4500812750002,None,520.4500812750002,None,523.150918626,None,523.150918626,None,523.150918626,None,523.150918626,None,,,,,,,511.46734977600045,None,,,,,,,,,,,,,,,,,,,,,,,,,,,,,,,,,,,,001,105,2020_Feb_11_1024,spring_faces,3.1.5,60.09924187811626,
condition files/Stage1_1.xlsx,,B1,T2,c,"['c', 'm']","['Clue', 'Monopoly']","[-0.15, 0.5]","[0.15, 0.5]",1,1,,,,,,,,,0,0,0,0,0,1,1,1,,,,,,,,,,,,,,,,,,,,,,,,,,,,,,,,,,,,,,,,,,,,,,,,,,,,,,,525.1005632690003,None,525.1005632690003,None,525.1005632690003,None,c,1,1.8750417340006607,526.6343556219999,None,526.6343556219999,None,526.6343556219999,None,528.5843742980005,None,528.5843742980005,None,528.5843742980005,None,528.5843742980005,None,,,,,,,,,,,,,,,,,,,,,,,,,,,,,,,,,,,,,,,,,,,,001,105,2020_Feb_11_1024,spring_faces,3.1.5,60.09924187811626,
condition files/Stage1_1.xlsx,,B2,T1,m,"['c', 'm']","['Clue', 'Monopoly']","[-0.15, 0.5]","[0.15, 0.5]",1,1,,,,,,,,,0,0,0,0,0,2,2,2,,,,,,,,,,,,,,,,,,,,,,,,,,,,,,,,,,,,,,,,,,,,,,,,,,,,,,,530.5340882300006,None,530.5340882300006,None,530.5340882300006,None,m,1,0.6004462130003958,532.0688791310004,None,532.0688791310004,None,532.0688791310004,None,532.7365394079998,None,532.7365394079998,None,532.7365394079998,None,532.7365394079998,None,,,,,,,,,,,,,,,,,,,,,,,,,,,,,,,,,,,,,,,,,,,,001,105,2020_Feb_11_1024,spring_faces,3.1.5,60.09924187811626,
condition files/Stage1_1.xlsx,,T3,B4,c,"['c', 'm']","['Clue', 'Monopoly']","[-0.15, 0.5]","[0.15, 0.5]",1,1,,,,,,,,,0,0,0,0,0,3,3,5,,,,,,,,,,,,,,,,,,,,,,,,,,,,,,,,,,,,,,,,,,,,,,,,,,,,,,,534.7006170940003,None,534.7006170940003,None,534.7006170940003,None,c,1,1.7446552419996806,536.3006173140002,None,536.3006173140002,None,536.3006173140002,None,538.1016015200003,None,538.1016015200003,None,538.1016015200003,None,538.1016015200003,None,,,,,,,,,,,,,,,,,,,,,,,,,,,,,,,,,,,,,,,,,,,,001,105,2020_Feb_11_1024,spring_faces,3.1.5,60.09924187811626,
condition files/Stage1_1.xlsx,,B4,T4,m,"['c', 'm']","['Clue', 'Monopoly']","[-0.15, 0.5]","[0.15, 0.5]",1,1,,,,,,,,,0,0,0,0,0,4,4,7,,,,,,,,,,,,,,,,,,,,,,,,,,,,,,,,,,,,,,,,,,,,,,,,,,,,,,,540.0666360140003,None,540.0666360140003,None,540.0666360140003,None,c,0,0.8922466370004258,541.6011624570001,None,541.6011624570001,None,541.6011624570001,None,542.5529396540005,None,542.5529396540005,None,542.5529396540005,None,542.5529396540005,None,,,,,,,,,,,,,,,,,,,,,,,,,,,,,,,,,,,,,,,,,,,,001,105,2020_Feb_11_1024,spring_faces,3.1.5,60.09924187811626,
condition files/Stage1_1.xlsx,,B3,T3,c,"['c', 'm']","['Clue', 'Monopoly']","[-0.15, 0.5]","[0.15, 0.5]",1,1,,,,,,,,,0,0,0,0,0,5,5,4,,,,,,,,,,,,,,,,,,,,,,,,,,,,,,,,,,,,,,,,,,,,,,,,,,,,,,,544.5171290630005,None,544.5171290630005,None,544.5171290630005,None,c,1,1.0826450389995443,546.0506779730003,None,546.0506779730003,None,546.0506779730003,None,547.1856896130002,None,547.1856896130002,None,547.1856896130002,None,547.1856896130002,None,,,,,,,,,,,,,,,,,,,,,,,,,,,,,,,,,,,,,,,,,,,,001,105,2020_Feb_11_1024,spring_faces,3.1.5,60.09924187811626,
condition files/Stage1_1.xlsx,,T1,B1,c,"['c', 'm']","['Clue', 'Monopoly']","[-0.15, 0.5]","[0.15, 0.5]",1,1,,,,,,,,,0,0,0,0,0,6,6,0,,,,,,,,,,,,,,,,,,,,,,,,,,,,,,,,,,,,,,,,,,,,,,,,,,,,,,,549.1508315890005,None,549.1508315890005,None,549.1508315890005,None,m,0,1.2652417069994044,550.6840829250004,None,550.6840829250004,None,550.6840829250004,None,552.0006784400002,None,552.0006784400002,None,552.0006784400002,None,552.0006784400002,None,,,,,,,,,,,,,,,,,,,,,,,,,,,,,,,,,,,,,,,,,,,,001,105,2020_Feb_11_1024,spring_faces,3.1.5,60.09924187811626,
condition files/Stage1_1.xlsx,,T2,B2,m,"['c', 'm']","['Clue', 'Monopoly']","[-0.15, 0.5]","[0.15, 0.5]",1,1,,,,,,,,,0,0,0,0,0,7,7,3,,,,,,,,,,,,,,,,,,,,,,,,,,,,,,,,,,,,,,,,,,,,,,,,,,,,,,,553.9674500520005,None,553.9674500520005,None,553.9674500520005,None,m,1,1.0091612290007106,555.5002345170005,None,555.5002345170005,None,555.5002345170005,None,556.5699244160005,None,556.5699244160005,None,556.5699244160005,None,556.5699244160005,None,,,,,,,,,,,,,,,,,,,,,,,,,,,,,,,,,,,,,,,,,,,,001,105,2020_Feb_11_1024,spring_faces,3.1.5,60.09924187811626,
condition files/Stage1_2.xlsx,,B3,T4,m,"['c', 'm']","['Clue', 'Monopoly']","[-0.15, 0.5]","[0.15, 0.5]",1,1,,,,,,,,,0,1,1,1,0,0,0,6,,,,,,,,,,,,,,,,,,,,,,,,,,,,,,,,,,,,,,,,,,,,,,,,,,,,,,,558.550417118,None,558.550417118,None,558.550417118,None,c,0,0.7765150639997955,560.1008716249999,None,560.1008716249999,None,560.1008716249999,None,560.9354835129998,None,560.9354835129998,None,560.9354835129998,None,560.9354835129998,None,,,,,,,,,,,,,,,,,,,,,,,,,,,,,,,,,,,,,,,,,,,,001,105,2020_Feb_11_1024,spring_faces,3.1.5,60.09924187811626,
condition files/Stage1_2.xlsx,,T1,B2,m,"['c', 'm']","['Clue', 'Monopoly']","[-0.15, 0.5]","[0.15, 0.5]",1,1,,,,,,,,,0,1,1,1,0,1,1,2,,,,,,,,,,,,,,,,,,,,,,,,,,,,,,,,,,,,,,,,,,,,,,,,,,,,,,,562.900204042,None,562.900204042,None,562.900204042,None,c,0,0.7932159120000506,564.4360964850002,None,564.4360964850002,None,564.4360964850002,None,565.2840769620007,None,565.2840769620007,None,565.2840769620007,None,565.2840769620007,None,,,,,,,,,,,,,,,,,,,,,,,,,,,,,,,,,,,,,,,,,,,,001,105,2020_Feb_11_1024,spring_faces,3.1.5,60.09924187811626,
condition files/Stage1_2.xlsx,,B1,T1,c,"['c', 'm']","['Clue', 'Monopoly']","[-0.15, 0.5]","[0.15, 0.5]",1,1,,,,,,,,,0,1,1,1,0,2,2,0,,,,,,,,,,,,,,,,,,,,,,,,,,,,,,,,,,,,,,,,,,,,,,,,,,,,,,,567.2499131920003,None,567.2499131920003,None,567.2499131920003,None,m,0,1.5962274650000836,568.8011468770001,None,568.8011468770001,None,568.8011468770001,None,570.4675070029998,None,570.4675070029998,None,570.4675070029998,None,570.4675070029998,None,,,,,,,,,,,,,,,,,,,,,,,,,,,,,,,,,,,,,,,,,,,,001,105,2020_Feb_11_1024,spring_faces,3.1.5,60.09924187811626,
condition files/Stage1_2.xlsx,,T2,B1,c,"['c', 'm']","['Clue', 'Monopoly']","[-0.15, 0.5]","[0.15, 0.5]",1,1,,,,,,,,,0,1,1,1,0,3,3,1,,,,,,,,,,,,,,,,,,,,,,,,,,,,,,,,,,,,,,,,,,,,,,,,,,,,,,,572.4173689529998,None,572.4173689529998,None,572.4173689529998,None,m,0,0.7968640909994065,573.9524538140004,None,573.9524538140004,None,573.9524538140004,None,574.8007097670006,None,574.8007097670006,None,574.8007097670006,None,574.8007097670006,None,,,,,,,,,,,,,,,,,,,,,,,,,,,,,,,,,,,,,,,,,,,,001,105,2020_Feb_11_1024,spring_faces,3.1.5,60.09924187811626,
condition files/Stage1_2.xlsx,,B4,T3,c,"['c', 'm']","['Clue', 'Monopoly']","[-0.15, 0.5]","[0.15, 0.5]",1,1,,,,,,,,,0,1,1,1,0,4,4,5,,,,,,,,,,,,,,,,,,,,,,,,,,,,,,,,,,,,,,,,,,,,,,,,,,,,,,,576.7666814310005,None,576.7666814310005,None,576.7666814310005,None,m,0,1.2958796309994796,578.3174365720006,None,578.3174365720006,None,578.3174365720006,None,579.667366314,None,579.667366314,None,579.667366314,None,579.667366314,None,,,,,,,,,,,,,,,,,,,,,,,,,,,,,,,,,,,,,,,,,,,,001,105,2020_Feb_11_1024,spring_faces,3.1.5,60.09924187811626,
condition files/Stage1_2.xlsx,,B2,T2,m,"['c', 'm']","['Clue', 'Monopoly']","[-0.15, 0.5]","[0.15, 0.5]",1,1,,,,,,,,,0,1,1,1,0,5,5,3,,,,,,,,,,,,,,,,,,,,,,,,,,,,,,,,,,,,,,,,,,,,,,,,,,,,,,,581.633936659,None,581.633936659,None,581.633936659,None,c,0,0.5095171220000339,583.1838767130002,None,583.1838767130002,None,583.1838767130002,None,583.7676091590001,None,583.7676091590001,None,583.7676091590001,None,583.7676091590001,None,,,,,,,,,,,,,,,,,,,,,,,,,,,,,,,,,,,,,,,,,,,,001,105,2020_Feb_11_1024,spring_faces,3.1.5,60.09924187811626,
condition files/Stage1_2.xlsx,,T4,B4,m,"['c', 'm']","['Clue', 'Monopoly']","[-0.15, 0.5]","[0.15, 0.5]",1,1,,,,,,,,,0,1,1,1,0,6,6,7,,,,,,,,,,,,,,,,,,,,,,,,,,,,,,,,,,,,,,,,,,,,,,,,,,,,,,,585.7167982720002,None,585.7167982720002,None,585.7167982720002,None,c,0,1.27283966899995,587.2525500470001,None,587.2525500470001,None,587.2525500470001,None,588.5836312790007,None,588.5836312790007,None,588.5836312790007,None,588.5836312790007,None,,,,,,,,,,,,,,,,,,,,,,,,,,,,,,,,,,,,,,,,,,,,001,105,2020_Feb_11_1024,spring_faces,3.1.5,60.09924187811626,
condition files/Stage1_2.xlsx,,T3,B3,c,"['c', 'm']","['Clue', 'Monopoly']","[-0.15, 0.5]","[0.15, 0.5]",1,1,,,,,,,,,0,1,1,1,0,7,7,4,,,,,,,,,,,,,,,,,,,,,,,,,,,,,,,,,,,,,,,,,,,,,,,,,,,,,,,590.5515121570006,None,590.5515121570006,None,590.5515121570006,None,c,1,2.8094135709998227,592.0839925170003,None,592.0839925170003,None,592.0839925170003,None,594.9514561490005,None,594.9514561490005,None,594.9514561490005,None,594.9514561490005,None,,,,,,,,,,,,,,,,,,,,,,,,,,,,,,,,,,,,,,,,,,,,001,105,2020_Feb_11_1024,spring_faces,3.1.5,60.09924187811626,
condition files/Stage1_1.xlsx,,T3,B4,c,"['c', 'm']","['Clue', 'Monopoly']","[-0.15, 0.5]","[0.15, 0.5]",1,1,,,,,,,,,0,2,2,2,0,0,0,5,,,,,,,,,,,,,,,,,,,,,,,,,,,,,,,,,,,,,,,,,,,,,,,,,,,,,,,596.9340030929998,None,596.9340030929998,None,596.9340030929998,None,c,1,1.5459031690006668,598.4674317810004,None,598.4674317810004,None,598.4674317810004,None,600.0674588070005,None,600.0674588070005,None,600.0674588070005,None,600.0674588070005,None,,,,,,,,,,,,,,,,,,,,,,,,,,,,,,,,,,,,,,,,,,,,001,105,2020_Feb_11_1024,spring_faces,3.1.5,60.09924187811626,
condition files/Stage1_1.xlsx,,B2,T1,m,"['c', 'm']","['Clue', 'Monopoly']","[-0.15, 0.5]","[0.15, 0.5]",1,1,,,,,,,,,0,2,2,2,0,1,1,2,,,,,,,,,,,,,,,,,,,,,,,,,,,,,,,,,,,,,,,,,,,,,,,,,,,,,,,602.0338023929999,None,602.0338023929999,None,602.0338023929999,None,m,1,0.7178120989992749,603.5675168120006,None,603.5675168120006,None,603.5675168120006,None,604.3675974420003,None,604.3675974420003,None,604.3675974420003,None,604.3675974420003,None,,,,,,,,,,,,,,,,,,,,,,,,,,,,,,,,,,,,,,,,,,,,001,105,2020_Feb_11_1024,spring_faces,3.1.5,60.09924187811626,
condition files/Stage1_1.xlsx,,T2,B2,m,"['c', 'm']","['Clue', 'Monopoly']","[-0.15, 0.5]","[0.15, 0.5]",1,1,,,,,,,,,0,2,2,2,0,2,2,3,,,,,,,,,,,,,,,,,,,,,,,,,,,,,,,,,,,,,,,,,,,,,,,,,,,,,,,606.3170880580001,None,606.3170880580001,None,606.3170880580001,None,m,1,0.94465925699933,607.8526922430001,None,607.8526922430001,None,607.8526922430001,None,608.8502471820002,None,608.8502471820002,None,608.8502471820002,None,608.8502471820002,None,,,,,,,,,,,,,,,,,,,,,,,,,,,,,,,,,,,,,,,,,,,,001,105,2020_Feb_11_1024,spring_faces,3.1.5,60.09924187811626,
condition files/Stage1_1.xlsx,,T4,B3,m,"['c', 'm']","['Clue', 'Monopoly']","[-0.15, 0.5]","[0.15, 0.5]",1,1,,,,,,,,,0,2,2,2,0,3,3,6,,,,,,,,,,,,,,,,,,,,,,,,,,,,,,,,,,,,,,,,,,,,,,,,,,,,,,,610.8174800160004,None,610.8174800160004,None,610.8174800160004,None,m,1,1.6297679700001027,612.367620477,None,612.367620477,None,612.367620477,None,614.0510143470001,None,614.0510143470001,None,614.0510143470001,None,614.0510143470001,None,,,,,,,,,,,,,,,,,,,,,,,,,,,,,,,,,,,,,,,,,,,,001,105,2020_Feb_11_1024,spring_faces,3.1.5,60.09924187811626,
condition files/Stage1_1.xlsx,,B4,T4,m,"['c', 'm']","['Clue', 'Monopoly']","[-0.15, 0.5]","[0.15, 0.5]",1,1,,,,,,,,,0,2,2,2,0,4,4,7,,,,,,,,,,,,,,,,,,,,,,,,,,,,,,,,,,,,,,,,,,,,,,,,,,,,,,,616.0169999580003,None,616.0169999580003,None,616.0169999580003,None,c,0,1.2617085330002737,617.5516157399998,None,617.5516157399998,None,617.5516157399998,None,618.867149965,None,618.867149965,None,618.867149965,None,618.867149965,None,,,,,,,,,,,,,,,,,,,,,,,,,,,,,,,,,,,,,,,,,,,,001,105,2020_Feb_11_1024,spring_faces,3.1.5,60.09924187811626,
condition files/Stage1_1.xlsx,,B1,T2,c,"['c', 'm']","['Clue', 'Monopoly']","[-0.15, 0.5]","[0.15, 0.5]",1,1,,,,,,,,,0,2,2,2,0,5,5,1,,,,,,,,,,,,,,,,,,,,,,,,,,,,,,,,,,,,,,,,,,,,,,,,,,,,,,,620.834584452,None,620.834584452,None,620.834584452,None,c,1,1.3408480060006696,622.3685534790002,None,622.3685534790002,None,622.3685534790002,None,623.7836848229999,None,623.7836848229999,None,623.7836848229999,None,623.7836848229999,None,,,,,,,,,,,,,,,,,,,,,,,,,,,,,,,,,,,,,,,,,,,,001,105,2020_Feb_11_1024,spring_faces,3.1.5,60.09924187811626,
condition files/Stage1_1.xlsx,,B3,T3,c,"['c', 'm']","['Clue', 'Monopoly']","[-0.15, 0.5]","[0.15, 0.5]",1,1,,,,,,,,,0,2,2,2,0,6,6,4,,,,,,,,,,,,,,,,,,,,,,,,,,,,,,,,,,,,,,,,,,,,,,,,,,,,,,,625.7334586430006,None,625.7334586430006,None,625.7334586430006,None,c,1,1.6571601249997912,627.2842051470006,None,627.2842051470006,None,627.2842051470006,None,629.0008829320004,None,629.0008829320004,None,629.0008829320004,None,629.0008829320004,None,,,,,,,,,,,,,,,,,,,,,,,,,,,,,,,,,,,,,,,,,,,,001,105,2020_Feb_11_1024,spring_faces,3.1.5,60.09924187811626,
condition files/Stage1_1.xlsx,,T1,B1,c,"['c', 'm']","['Clue', 'Monopoly']","[-0.15, 0.5]","[0.15, 0.5]",1,1,,,,,,,,,0,2,2,2,0,7,7,0,,,,,,,,,,,,,,,,,,,,,,,,,,,,,,,,,,,,,,,,,,,,,,,,,,,,,,,630.9666001579999,None,630.9666001579999,None,630.9666001579999,None,m,0,0.9670655340005396,632.5022120330004,None,632.5022120330004,None,632.5022120330004,None,633.534324102,None,633.534324102,None,633.534324102,None,633.534324102,None,,,,,,,,,,,,,,,,,,,,,,,,,,,,,,,,,,,,,,,,,,,,001,105,2020_Feb_11_1024,spring_faces,3.1.5,60.09924187811626,
condition files/Stage1_2.xlsx,,T3,B3,c,"['c', 'm']","['Clue', 'Monopoly']","[-0.15, 0.5]","[0.15, 0.5]",1,1,,,,,,,,,0,3,3,3,0,0,0,4,,,,,,,,,,,,,,,,,,,,,,,,,,,,,,,,,,,,,,,,,,,,,,,,,,,,,,,635.5172571290004,None,635.5172571290004,None,635.5172571290004,None,c,1,2.112737276000189,637.0525897240004,None,637.0525897240004,None,637.0525897240004,None,639.217622102,None,639.217622102,None,639.217622102,None,639.217622102,None,,,,,,,,,,,,,,,,,,,,,,,,,,,,,,,,,,,,,,,,,,,,001,105,2020_Feb_11_1024,spring_faces,3.1.5,60.09924187811626,
condition files/Stage1_2.xlsx,,B3,T4,m,"['c', 'm']","['Clue', 'Monopoly']","[-0.15, 0.5]","[0.15, 0.5]",1,1,,,,,,,,,0,3,3,3,0,1,1,6,,,,,,,,,,,,,,,,,,,,,,,,,,,,,,,,,,,,,,,,,,,,,,,,,,,,,,,641.1837797440003,None,641.1837797440003,None,641.1837797440003,None,c,0,1.5672785500000828,642.718002349,None,642.718002349,None,642.718002349,None,644.3524177999998,None,644.3524177999998,None,644.3524177999998,None,644.3524177999998,None,,,,,,,,,,,,,,,,,,,,,,,,,,,,,,,,,,,,,,,,,,,,001,105,2020_Feb_11_1024,spring_faces,3.1.5,60.09924187811626,
condition files/Stage1_2.xlsx,,B1,T1,c,"['c', 'm']","['Clue', 'Monopoly']","[-0.15, 0.5]","[0.15, 0.5]",1,1,,,,,,,,,0,3,3,3,0,2,2,0,,,,,,,,,,,,,,,,,,,,,,,,,,,,,,,,,,,,,,,,,,,,,,,,,,,,,,,646.3169129779999,None,646.3169129779999,None,646.3169129779999,None,m,0,1.8085631929998272,647.852769479,None,647.852769479,None,647.852769479,None,649.7343440989998,None,649.7343440989998,None,649.7343440989998,None,649.7343440989998,None,,,,,,,,,,,,,,,,,,,,,,,,,,,,,,,,,,,,,,,,,,,,001,105,2020_Feb_11_1024,spring_faces,3.1.5,60.09924187811626,
condition files/Stage1_2.xlsx,,T4,B4,m,"['c', 'm']","['Clue', 'Monopoly']","[-0.15, 0.5]","[0.15, 0.5]",1,1,,,,,,,,,0,3,3,3,0,3,3,7,,,,,,,,,,,,,,,,,,,,,,,,,,,,,,,,,,,,,,,,,,,,,,,,,,,,,,,651.6834404290003,None,651.6834404290003,None,651.6834404290003,None,m,1,0.9545983899997736,653.2187860949998,None,653.2187860949998,None,653.2187860949998,None,654.236721403,None,654.236721403,None,654.236721403,None,654.236721403,None,,,,,,,,,,,,,,,,,,,,,,,,,,,,,,,,,,,,,,,,,,,,001,105,2020_Feb_11_1024,spring_faces,3.1.5,60.09924187811626,
condition files/Stage1_2.xlsx,,B4,T3,c,"['c', 'm']","['Clue', 'Monopoly']","[-0.15, 0.5]","[0.15, 0.5]",1,1,,,,,,,,,0,3,3,3,0,4,4,5,,,,,,,,,,,,,,,,,,,,,,,,,,,,,,,,,,,,,,,,,,,,,,,,,,,,,,,656.2002164690002,None,656.2002164690002,None,656.2002164690002,None,m,0,1.3184761500006061,657.7508312210002,None,657.7508312210002,None,657.7508312210002,None,659.1351307220002,None,659.1351307220002,None,659.1351307220002,None,659.1351307220002,None,,,,,,,,,,,,,,,,,,,,,,,,,,,,,,,,,,,,,,,,,,,,001,105,2020_Feb_11_1024,spring_faces,3.1.5,60.09924187811626,
condition files/Stage1_2.xlsx,,T1,B2,m,"['c', 'm']","['Clue', 'Monopoly']","[-0.15, 0.5]","[0.15, 0.5]",1,1,,,,,,,,,0,3,3,3,0,5,5,2,,,,,,,,,,,,,,,,,,,,,,,,,,,,,,,,,,,,,,,,,,,,,,,,,,,,,,,661.1001840549998,None,661.1001840549998,None,661.1001840549998,None,m,1,2.177652773000773,662.635667863,None,662.635667863,None,662.635667863,None,664.8676858959998,None,664.8676858959998,None,664.8676858959998,None,664.8676858959998,None,,,,,,,,,,,,,,,,,,,,,,,,,,,,,,,,,,,,,,,,,,,,001,105,2020_Feb_11_1024,spring_faces,3.1.5,60.09924187811626,
condition files/Stage1_2.xlsx,,B2,T2,m,"['c', 'm']","['Clue', 'Monopoly']","[-0.15, 0.5]","[0.15, 0.5]",1,1,,,,,,,,,0,3,3,3,0,6,6,3,,,,,,,,,,,,,,,,,,,,,,,,,,,,,,,,,,,,,,,,,,,,,,,,,,,,,,,666.8330524800003,None,666.8330524800003,None,666.8330524800003,None,m,1,1.1161294680005085,668.3691134730007,None,668.3691134730007,None,668.3691134730007,None,669.5509615770006,None,669.5509615770006,None,669.5509615770006,None,669.5509615770006,None,,,,,,,,,,,,,,,,,,,,,,,,,,,,,,,,,,,,,,,,,,,,001,105,2020_Feb_11_1024,spring_faces,3.1.5,60.09924187811626,
condition files/Stage1_2.xlsx,,T2,B1,c,"['c', 'm']","['Clue', 'Monopoly']","[-0.15, 0.5]","[0.15, 0.5]",1,1,,,,,,,,,0,3,3,3,0,7,7,1,,,,,,,,,,,,,,,,,,,,,,,,,,,,,,,,,,,,,,,,,,,,,,,,,,,,,,,671.5167824910004,None,671.5167824910004,None,671.5167824910004,None,m,0,0.7704135019994283,673.0669021920003,None,673.0669021920003,None,673.0669021920003,None,673.9171752720003,None,673.9171752720003,None,673.9171752720003,None,673.9171752720003,None,,,,,,,,,,,,,,,,,,,,,,,,,,,,,,,,,,,,,,,,,,,,001,105,2020_Feb_11_1024,spring_faces,3.1.5,60.09924187811626,
condition files/Stage1_1.xlsx,,B3,T3,c,"['c', 'm']","['Clue', 'Monopoly']","[-0.15, 0.5]","[0.15, 0.5]",1,1,,,,,,,,,0,4,4,4,0,0,0,4,,,,,,,,,,,,,,,,,,,,,,,,,,,,,,,,,,,,,,,,,,,,,,,,,,,,,,,675.8837608499998,None,675.8837608499998,None,675.8837608499998,None,c,1,3.6194965130007404,677.4178541970005,None,677.4178541970005,None,677.4178541970005,None,681.1006717250002,None,681.1006717250002,None,681.1006717250002,None,681.1006717250002,None,,,,,,,,,,,,,,,,,,,,,,,,,,,,,,,,,,,,,,,,,,,,001,105,2020_Feb_11_1024,spring_faces,3.1.5,60.09924187811626,
condition files/Stage1_1.xlsx,,T2,B2,m,"['c', 'm']","['Clue', 'Monopoly']","[-0.15, 0.5]","[0.15, 0.5]",1,1,,,,,,,,,0,4,4,4,0,1,1,3,,,,,,,,,,,,,,,,,,,,,,,,,,,,,,,,,,,,,,,,,,,,,,,,,,,,,,,683.0669775010001,None,683.0669775010001,None,683.0669775010001,None,m,1,1.299812027000371,684.6174916489999,None,684.6174916489999,None,684.6174916489999,None,685.9838787770004,None,685.9838787770004,None,685.9838787770004,None,685.9838787770004,None,,,,,,,,,,,,,,,,,,,,,,,,,,,,,,,,,,,,,,,,,,,,001,105,2020_Feb_11_1024,spring_faces,3.1.5,60.09924187811626,
condition files/Stage1_1.xlsx,,T4,B3,m,"['c', 'm']","['Clue', 'Monopoly']","[-0.15, 0.5]","[0.15, 0.5]",1,1,,,,,,,,,0,4,4,4,0,2,2,6,,,,,,,,,,,,,,,,,,,,,,,,,,,,,,,,,,,,,,,,,,,,,,,,,,,,,,,687.9338711210003,None,687.9338711210003,None,687.9338711210003,None,m,1,0.9618200059994706,689.4675151840001,None,689.4675151840001,None,689.4675151840001,None,690.4845558850002,None,690.4845558850002,None,690.4845558850002,None,690.4845558850002,None,,,,,,,,,,,,,,,,,,,,,,,,,,,,,,,,,,,,,,,,,,,,001,105,2020_Feb_11_1024,spring_faces,3.1.5,60.09924187811626,
condition files/Stage1_1.xlsx,,B4,T4,m,"['c', 'm']","['Clue', 'Monopoly']","[-0.15, 0.5]","[0.15, 0.5]",1,1,,,,,,,,,0,4,4,4,0,3,3,7,,,,,,,,,,,,,,,,,,,,,,,,,,,,,,,,,,,,,,,,,,,,,,,,,,,,,,,692.4505190770005,None,692.4505190770005,None,692.4505190770005,None,m,1,2.4443205670004318,693.9849573609999,None,693.9849573609999,None,693.9849573609999,None,696.4850342400005,None,696.4850342400005,None,696.4850342400005,None,696.4850342400005,None,,,,,,,,,,,,,,,,,,,,,,,,,,,,,,,,,,,,,,,,,,,,001,105,2020_Feb_11_1024,spring_faces,3.1.5,60.09924187811626,
condition files/Stage1_1.xlsx,,T1,B1,c,"['c', 'm']","['Clue', 'Monopoly']","[-0.15, 0.5]","[0.15, 0.5]",1,1,,,,,,,,,0,4,4,4,0,4,4,0,,,,,,,,,,,,,,,,,,,,,,,,,,,,,,,,,,,,,,,,,,,,,,,,,,,,,,,698.450080998,None,698.450080998,None,698.450080998,None,m,0,1.132926801999929,700.000375132,None,700.000375132,None,700.000375132,None,701.1861598880005,None,701.1861598880005,None,701.1861598880005,None,701.1861598880005,None,,,,,,,,,,,,,,,,,,,,,,,,,,,,,,,,,,,,,,,,,,,,001,105,2020_Feb_11_1024,spring_faces,3.1.5,60.09924187811626,
condition files/Stage1_1.xlsx,,T3,B4,c,"['c', 'm']","['Clue', 'Monopoly']","[-0.15, 0.5]","[0.15, 0.5]",1,1,,,,,,,,,0,4,4,4,0,5,5,5,,,,,,,,,,,,,,,,,,,,,,,,,,,,,,,,,,,,,,,,,,,,,,,,,,,,,,,703.1502568960004,None,703.1502568960004,None,703.1502568960004,None,c,1,2.369156591999854,704.684124245,None,704.684124245,None,704.684124245,None,707.1173276420004,None,707.1173276420004,None,707.1173276420004,None,707.1173276420004,None,,,,,,,,,,,,,,,,,,,,,,,,,,,,,,,,,,,,,,,,,,,,001,105,2020_Feb_11_1024,spring_faces,3.1.5,60.09924187811626,
condition files/Stage1_1.xlsx,,B2,T1,m,"['c', 'm']","['Clue', 'Monopoly']","[-0.15, 0.5]","[0.15, 0.5]",1,1,,,,,,,,,0,4,4,4,0,6,6,2,,,,,,,,,,,,,,,,,,,,,,,,,,,,,,,,,,,,,,,,,,,,,,,,,,,,,,,709.0840239070003,None,709.0840239070003,None,709.0840239070003,None,m,1,1.2344457950002834,710.6188851860006,None,710.6188851860006,None,710.6188851860006,None,711.9168173570006,None,711.9168173570006,None,711.9168173570006,None,711.9168173570006,None,,,,,,,,,,,,,,,,,,,,,,,,,,,,,,,,,,,,,,,,,,,,001,105,2020_Feb_11_1024,spring_faces,3.1.5,60.09924187811626,
condition files/Stage1_1.xlsx,,B1,T2,c,"['c', 'm']","['Clue', 'Monopoly']","[-0.15, 0.5]","[0.15, 0.5]",1,1,,,,,,,,,0,4,4,4,0,7,7,1,,,,,,,,,,,,,,,,,,,,,,,,,,,,,,,,,,,,,,,,,,,,,,,,,,,,,,,713.883849756,None,713.883849756,None,713.883849756,None,c,1,0.9635668910004824,715.4177453470002,None,715.4177453470002,None,715.4177453470002,None,716.4505323180001,None,716.4505323180001,None,716.4505323180001,None,716.4505323180001,None,,,,,,,,,,,,,,,,,,,,,,,,,,,,,,,,,,,,,,,,,,,,001,105,2020_Feb_11_1024,spring_faces,3.1.5,60.09924187811626,
condition files/Stage1_2.xlsx,,T1,B2,m,"['c', 'm']","['Clue', 'Monopoly']","[-0.15, 0.5]","[0.15, 0.5]",1,1,,,,,,,,,0,5,5,5,0,0,0,2,,,,,,,,,,,,,,,,,,,,,,,,,,,,,,,,,,,,,,,,,,,,,,,,,,,,,,,718.4175752780002,None,718.4175752780002,None,718.4175752780002,None,m,1,1.3737198129992976,719.9676630439999,None,719.9676630439999,None,719.9676630439999,None,721.4001186000005,None,721.4001186000005,None,721.4001186000005,None,721.4001186000005,None,,,,,,,,,,,,,,,,,,,,,,,,,,,,,,,,,,,,,,,,,,,,001,105,2020_Feb_11_1024,spring_faces,3.1.5,60.09924187811626,
condition files/Stage1_2.xlsx,,B2,T2,m,"['c', 'm']","['Clue', 'Monopoly']","[-0.15, 0.5]","[0.15, 0.5]",1,1,,,,,,,,,0,5,5,5,0,1,1,3,,,,,,,,,,,,,,,,,,,,,,,,,,,,,,,,,,,,,,,,,,,,,,,,,,,,,,,723.3671281910001,None,723.3671281910001,None,723.3671281910001,None,m,1,0.7288120190005429,724.9005267110006,None,724.9005267110006,None,724.9005267110006,None,725.6835603190002,None,725.6835603190002,None,725.6835603190002,None,725.6835603190002,None,,,,,,,,,,,,,,,,,,,,,,,,,,,,,,,,,,,,,,,,,,,,001,105,2020_Feb_11_1024,spring_faces,3.1.5,60.09924187811626,
condition files/Stage1_2.xlsx,,B3,T4,m,"['c', 'm']","['Clue', 'Monopoly']","[-0.15, 0.5]","[0.15, 0.5]",1,1,,,,,,,,,0,5,5,5,0,2,2,6,,,,,,,,,,,,,,,,,,,,,,,,,,,,,,,,,,,,,,,,,,,,,,,,,,,,,,,727.6501507600005,None,727.6501507600005,None,727.6501507600005,None,m,1,1.035571248999986,729.185771255,None,729.185771255,None,729.185771255,None,730.2838293539999,None,730.2838293539999,None,730.2838293539999,None,730.2838293539999,None,,,,,,,,,,,,,,,,,,,,,,,,,,,,,,,,,,,,,,,,,,,,001,105,2020_Feb_11_1024,spring_faces,3.1.5,60.09924187811626,
condition files/Stage1_2.xlsx,,T3,B3,c,"['c', 'm']","['Clue', 'Monopoly']","[-0.15, 0.5]","[0.15, 0.5]",1,1,,,,,,,,,0,5,5,5,0,3,3,4,,,,,,,,,,,,,,,,,,,,,,,,,,,,,,,,,,,,,,,,,,,,,,,,,,,,,,,732.2505694230003,None,732.2505694230003,None,732.2505694230003,None,c,1,2.5180258489999687,733.783245269,None,733.783245269,None,733.783245269,None,736.3690037160004,None,736.3690037160004,None,736.3690037160004,None,736.3690037160004,None,,,,,,,,,,,,,,,,,,,,,,,,,,,,,,,,,,,,,,,,,,,,001,105,2020_Feb_11_1024,spring_faces,3.1.5,60.09924187811626,
condition files/Stage1_2.xlsx,,T2,B1,c,"['c', 'm']","['Clue', 'Monopoly']","[-0.15, 0.5]","[0.15, 0.5]",1,1,,,,,,,,,0,5,5,5,0,4,4,1,,,,,,,,,,,,,,,,,,,,,,,,,,,,,,,,,,,,,,,,,,,,,,,,,,,,,,,738.3338114110002,None,738.3338114110002,None,738.3338114110002,None,c,1,1.2482342599996628,739.869108078,None,739.869108078,None,739.869108078,None,741.1677494590003,None,741.1677494590003,None,741.1677494590003,None,741.1677494590003,None,,,,,,,,,,,,,,,,,,,,,,,,,,,,,,,,,,,,,,,,,,,,001,105,2020_Feb_11_1024,spring_faces,3.1.5,60.09924187811626,
condition files/Stage1_2.xlsx,,B1,T1,c,"['c', 'm']","['Clue', 'Monopoly']","[-0.15, 0.5]","[0.15, 0.5]",1,1,,,,,,,,,0,5,5,5,0,5,5,0,,,,,,,,,,,,,,,,,,,,,,,,,,,,,,,,,,,,,,,,,,,,,,,,,,,,,,,743.1342993489998,None,743.1342993489998,None,743.1342993489998,None,c,1,1.1377984329992614,744.683514591,None,744.683514591,None,744.683514591,None,745.8841982210006,None,745.8841982210006,None,745.8841982210006,None,745.8841982210006,None,,,,,,,,,,,,,,,,,,,,,,,,,,,,,,,,,,,,,,,,,,,,001,105,2020_Feb_11_1024,spring_faces,3.1.5,60.09924187811626,
condition files/Stage1_2.xlsx,,T4,B4,m,"['c', 'm']","['Clue', 'Monopoly']","[-0.15, 0.5]","[0.15, 0.5]",1,1,,,,,,,,,0,5,5,5,0,6,6,7,,,,,,,,,,,,,,,,,,,,,,,,,,,,,,,,,,,,,,,,,,,,,,,,,,,,,,,747.8505598060001,None,747.8505598060001,None,747.8505598060001,None,m,1,0.8362398780000149,749.3850918110002,None,749.3850918110002,None,749.3850918110002,None,750.2851139499999,None,750.2851139499999,None,750.2851139499999,None,750.2851139499999,None,,,,,,,,,,,,,,,,,,,,,,,,,,,,,,,,,,,,,,,,,,,,001,105,2020_Feb_11_1024,spring_faces,3.1.5,60.09924187811626,
condition files/Stage1_2.xlsx,,B4,T3,c,"['c', 'm']","['Clue', 'Monopoly']","[-0.15, 0.5]","[0.15, 0.5]",1,1,,,,,,,,,0,5,5,5,0,7,7,5,,,,,,,,,,,,,,,,,,,,,,,,,,,,,,,,,,,,,,,,,,,,,,,,,,,,,,,752.2504831920005,None,752.2504831920005,None,752.2504831920005,None,m,0,0.7571631629998592,753.8002147930001,None,753.8002147930001,None,753.8002147930001,None,754.617334865,None,754.617334865,None,754.617334865,None,754.617334865,None,,,,,,,,,,,,,,,,,,,,,,,,,,,,,,,,,,,,,,,,,,,,001,105,2020_Feb_11_1024,spring_faces,3.1.5,60.09924187811626,
condition files/Stage1_1.xlsx,,B3,T3,c,"['c', 'm']","['Clue', 'Monopoly']","[-0.15, 0.5]","[0.15, 0.5]",1,1,,,,,,,,,0,6,6,6,0,0,0,4,,,,,,,,,,,,,,,,,,,,,,,,,,,,,,,,,,,,,,,,,,,,,,,,,,,,,,,756.6006391620003,None,756.6006391620003,None,756.6006391620003,None,c,1,2.342860736000148,758.1345278480003,None,758.1345278480003,None,758.1345278480003,None,760.5335330240005,None,760.5335330240005,None,760.5335330240005,None,760.5335330240005,None,,,,,,,,,,,,,,,,,,,,,,,,,,,,,,,,,,,,,,,,,,,,001,105,2020_Feb_11_1024,spring_faces,3.1.5,60.09924187811626,
condition files/Stage1_1.xlsx,,B1,T2,c,"['c', 'm']","['Clue', 'Monopoly']","[-0.15, 0.5]","[0.15, 0.5]",1,1,,,,,,,,,0,6,6,6,0,1,1,1,,,,,,,,,,,,,,,,,,,,,,,,,,,,,,,,,,,,,,,,,,,,,,,,,,,,,,,762.5003408379998,None,762.5003408379998,None,762.5003408379998,None,c,1,1.0497033089995966,764.0355936980004,None,764.0355936980004,None,764.0355936980004,None,765.1504910580006,None,765.1504910580006,None,765.1504910580006,None,765.1504910580006,None,,,,,,,,,,,,,,,,,,,,,,,,,,,,,,,,,,,,,,,,,,,,001,105,2020_Feb_11_1024,spring_faces,3.1.5,60.09924187811626,
condition files/Stage1_1.xlsx,,B4,T4,m,"['c', 'm']","['Clue', 'Monopoly']","[-0.15, 0.5]","[0.15, 0.5]",1,1,,,,,,,,,0,6,6,6,0,2,2,7,,,,,,,,,,,,,,,,,,,,,,,,,,,,,,,,,,,,,,,,,,,,,,,,,,,,,,,767.1172330500003,None,767.1172330500003,None,767.1172330500003,None,m,1,0.9138743989997238,768.6674354160004,None,768.6674354160004,None,768.6674354160004,None,769.6338212210003,None,769.6338212210003,None,769.6338212210003,None,769.6338212210003,None,,,,,,,,,,,,,,,,,,,,,,,,,,,,,,,,,,,,,,,,,,,,001,105,2020_Feb_11_1024,spring_faces,3.1.5,60.09924187811626,
condition files/Stage1_1.xlsx,,T2,B2,m,"['c', 'm']","['Clue', 'Monopoly']","[-0.15, 0.5]","[0.15, 0.5]",1,1,,,,,,,,,0,6,6,6,0,3,3,3,,,,,,,,,,,,,,,,,,,,,,,,,,,,,,,,,,,,,,,,,,,,,,,,,,,,,,,771.6005592270003,None,771.6005592270003,None,771.6005592270003,None,m,1,0.7195166949995837,773.1338181870005,None,773.1338181870005,None,773.1338181870005,None,773.9174475010004,None,773.9174475010004,None,773.9174475010004,None,773.9174475010004,None,,,,,,,,,,,,,,,,,,,,,,,,,,,,,,,,,,,,,,,,,,,,001,105,2020_Feb_11_1024,spring_faces,3.1.5,60.09924187811626,
condition files/Stage1_1.xlsx,,T4,B3,m,"['c', 'm']","['Clue', 'Monopoly']","[-0.15, 0.5]","[0.15, 0.5]",1,1,,,,,,,,,0,6,6,6,0,4,4,6,,,,,,,,,,,,,,,,,,,,,,,,,,,,,,,,,,,,,,,,,,,,,,,,,,,,,,,775.8833518030006,None,775.8833518030006,None,775.8833518030006,None,m,1,1.379221989999678,777.4340544810002,None,777.4340544810002,None,777.4340544810002,None,778.8674318310004,None,778.8674318310004,None,778.8674318310004,None,778.8674318310004,None,,,,,,,,,,,,,,,,,,,,,,,,,,,,,,,,,,,,,,,,,,,,001,105,2020_Feb_11_1024,spring_faces,3.1.5,60.09924187811626,
condition files/Stage1_1.xlsx,,T1,B1,c,"['c', 'm']","['Clue', 'Monopoly']","[-0.15, 0.5]","[0.15, 0.5]",1,1,,,,,,,,,0,6,6,6,0,5,5,0,,,,,,,,,,,,,,,,,,,,,,,,,,,,,,,,,,,,,,,,,,,,,,,,,,,,,,,780.8339176529998,None,780.8339176529998,None,780.8339176529998,None,c,1,1.2928500349999013,782.3684955130002,None,782.3684955130002,None,782.3684955130002,None,783.7335334280006,None,783.7335334280006,None,783.7335334280006,None,783.7335334280006,None,,,,,,,,,,,,,,,,,,,,,,,,,,,,,,,,,,,,,,,,,,,,001,105,2020_Feb_11_1024,spring_faces,3.1.5,60.09924187811626,
condition files/Stage1_1.xlsx,,B2,T1,m,"['c', 'm']","['Clue', 'Monopoly']","[-0.15, 0.5]","[0.15, 0.5]",1,1,,,,,,,,,0,6,6,6,0,6,6,2,,,,,,,,,,,,,,,,,,,,,,,,,,,,,,,,,,,,,,,,,,,,,,,,,,,,,,,785.6831793199999,None,785.6831793199999,None,785.6831793199999,None,m,1,0.9392855750002127,787.2181019970003,None,787.2181019970003,None,787.2181019970003,None,788.2178070939999,None,788.2178070939999,None,788.2178070939999,None,788.2178070939999,None,,,,,,,,,,,,,,,,,,,,,,,,,,,,,,,,,,,,,,,,,,,,001,105,2020_Feb_11_1024,spring_faces,3.1.5,60.09924187811626,
condition files/Stage1_1.xlsx,,T3,B4,c,"['c', 'm']","['Clue', 'Monopoly']","[-0.15, 0.5]","[0.15, 0.5]",1,1,,,,,,,,,0,6,6,6,0,7,7,5,,,,,,,,,,,,,,,,,,,,,,,,,,,,,,,,,,,,,,,,,,,,,,,,,,,,,,,790.1838987540004,None,790.1838987540004,None,790.1838987540004,None,c,1,1.4634500009997282,791.733953983,None,791.733953983,None,791.733953983,None,793.25198284,None,793.25198284,None,793.25198284,None,793.25198284,None,,,,,,,,,,,,,,,,,,,,,,,,,,,,,,,,,,,,,,,,,,,,001,105,2020_Feb_11_1024,spring_faces,3.1.5,60.09924187811626,
condition files/Stage1_2.xlsx,,B2,T2,m,"['c', 'm']","['Clue', 'Monopoly']","[-0.15, 0.5]","[0.15, 0.5]",1,1,,,,,,,,,0,7,7,7,0,0,0,3,,,,,,,,,,,,,,,,,,,,,,,,,,,,,,,,,,,,,,,,,,,,,,,,,,,,,,,795.234368292,None,795.234368292,None,795.234368292,None,m,1,0.6371578770003907,796.7841711320007,None,796.7841711320007,None,796.7841711320007,None,797.4840173009998,None,797.4840173009998,None,797.4840173009998,None,797.4840173009998,None,,,,,,,,,,,,,,,,,,,,,,,,,,,,,,,,,,,,,,,,,,,,001,105,2020_Feb_11_1024,spring_faces,3.1.5,60.09924187811626,
condition files/Stage1_2.xlsx,,T1,B2,m,"['c', 'm']","['Clue', 'Monopoly']","[-0.15, 0.5]","[0.15, 0.5]",1,1,,,,,,,,,0,7,7,7,0,1,1,2,,,,,,,,,,,,,,,,,,,,,,,,,,,,,,,,,,,,,,,,,,,,,,,,,,,,,,,799.4505732460002,None,799.4505732460002,None,799.4505732460002,None,m,1,1.12582695600031,800.983553137,None,800.983553137,None,800.983553137,None,802.1684111690001,None,802.1684111690001,None,802.1684111690001,None,802.1684111690001,None,,,,,,,,,,,,,,,,,,,,,,,,,,,,,,,,,,,,,,,,,,,,001,105,2020_Feb_11_1024,spring_faces,3.1.5,60.09924187811626,
condition files/Stage1_2.xlsx,,B4,T3,c,"['c', 'm']","['Clue', 'Monopoly']","[-0.15, 0.5]","[0.15, 0.5]",1,1,,,,,,,,,0,7,7,7,0,2,2,5,,,,,,,,,,,,,,,,,,,,,,,,,,,,,,,,,,,,,,,,,,,,,,,,,,,,,,,804.1340740619999,None,804.1340740619999,None,804.1340740619999,None,c,1,1.033410953999919,805.6678807779999,None,805.6678807779999,None,805.6678807779999,None,806.7675152460006,None,806.7675152460006,None,806.7675152460006,None,806.7675152460006,None,,,,,,,,,,,,,,,,,,,,,,,,,,,,,,,,,,,,,,,,,,,,001,105,2020_Feb_11_1024,spring_faces,3.1.5,60.09924187811626,
condition files/Stage1_2.xlsx,,T3,B3,c,"['c', 'm']","['Clue', 'Monopoly']","[-0.15, 0.5]","[0.15, 0.5]",1,1,,,,,,,,,0,7,7,7,0,3,3,4,,,,,,,,,,,,,,,,,,,,,,,,,,,,,,,,,,,,,,,,,,,,,,,,,,,,,,,808.733553471,None,808.733553471,None,808.733553471,None,c,1,0.8645739539997521,810.2687459389999,None,810.2687459389999,None,810.2687459389999,None,811.1843426330006,None,811.1843426330006,None,811.1843426330006,None,811.1843426330006,None,,,,,,,,,,,,,,,,,,,,,,,,,,,,,,,,,,,,,,,,,,,,001,105,2020_Feb_11_1024,spring_faces,3.1.5,60.09924187811626,
condition files/Stage1_2.xlsx,,T4,B4,m,"['c', 'm']","['Clue', 'Monopoly']","[-0.15, 0.5]","[0.15, 0.5]",1,1,,,,,,,,,0,7,7,7,0,4,4,7,,,,,,,,,,,,,,,,,,,,,,,,,,,,,,,,,,,,,,,,,,,,,,,,,,,,,,,813.1503798140002,None,813.1503798140002,None,813.1503798140002,None,m,1,0.719604247999996,814.6857422889998,None,814.6857422889998,None,814.6857422889998,None,815.4669526890002,None,815.4669526890002,None,815.4669526890002,None,815.4669526890002,None,,,,,,,,,,,,,,,,,,,,,,,,,,,,,,,,,,,,,,,,,,,,001,105,2020_Feb_11_1024,spring_faces,3.1.5,60.09924187811626,
condition files/Stage1_2.xlsx,,T2,B1,c,"['c', 'm']","['Clue', 'Monopoly']","[-0.15, 0.5]","[0.15, 0.5]",1,1,,,,,,,,,0,7,7,7,0,5,5,1,,,,,,,,,,,,,,,,,,,,,,,,,,,,,,,,,,,,,,,,,,,,,,,,,,,,,,,817.4339063770003,None,817.4339063770003,None,817.4339063770003,None,c,1,1.270306311999775,818.9670227400002,None,818.9670227400002,None,818.9670227400002,None,820.302229592,None,820.302229592,None,820.302229592,None,820.302229592,None,,,,,,,,,,,,,,,,,,,,,,,,,,,,,,,,,,,,,,,,,,,,001,105,2020_Feb_11_1024,spring_faces,3.1.5,60.09924187811626,
condition files/Stage1_2.xlsx,,B1,T1,c,"['c', 'm']","['Clue', 'Monopoly']","[-0.15, 0.5]","[0.15, 0.5]",1,1,,,,,,,,,0,7,7,7,0,6,6,0,,,,,,,,,,,,,,,,,,,,,,,,,,,,,,,,,,,,,,,,,,,,,,,,,,,,,,,822.2671920869998,None,822.2671920869998,None,822.2671920869998,None,c,1,1.027756663999753,823.8175064739999,None,823.8175064739999,None,823.8175064739999,None,824.9008814520002,None,824.9008814520002,None,824.9008814520002,None,824.9008814520002,None,,,,,,,,,,,,,,,,,,,,,,,,,,,,,,,,,,,,,,,,,,,,001,105,2020_Feb_11_1024,spring_faces,3.1.5,60.09924187811626,
condition files/Stage1_2.xlsx,,B3,T4,m,"['c', 'm']","['Clue', 'Monopoly']","[-0.15, 0.5]","[0.15, 0.5]",1,1,,,,,,,,,0,7,7,7,0,7,7,6,,,,,,,,,,,,,,,,,,,,,,,,,,,,,,,,,,,,,,,,,,,,,,,,,,,,,,,826.8666709870004,None,826.8666709870004,None,826.8666709870004,None,m,1,0.8924156000002768,828.400972763,None,828.400972763,None,828.400972763,None,829.350928627,None,829.350928627,None,829.350928627,None,829.350928627,None,,,,,,,,,,,,,,,,,,,,,,,,,,,,,,,,,,,,,,,,,,,,001,105,2020_Feb_11_1024,spring_faces,3.1.5,60.09924187811626,
condition files/Stage1_1.xlsx,,T4,B3,m,"['c', 'm']","['Clue', 'Monopoly']","[-0.15, 0.5]","[0.15, 0.5]",1,1,,,,,,,,,0,8,8,8,0,0,0,6,,,,,,,,,,,,,,,,,,,,,,,,,,,,,,,,,,,,,,,,,,,,,,,,,,,,,,,831.3342511629999,None,831.3342511629999,None,831.3342511629999,None,m,1,0.9050046120000843,832.8843288220005,None,832.8843288220005,None,832.8843288220005,None,833.8508478889999,None,833.8508478889999,None,833.8508478889999,None,833.8508478889999,None,,,,,,,,,,,,,,,,,,,,,,,,,,,,,,,,,,,,,,,,,,,,001,105,2020_Feb_11_1024,spring_faces,3.1.5,60.09924187811626,
condition files/Stage1_1.xlsx,,T3,B4,c,"['c', 'm']","['Clue', 'Monopoly']","[-0.15, 0.5]","[0.15, 0.5]",1,1,,,,,,,,,0,8,8,8,0,1,1,5,,,,,,,,,,,,,,,,,,,,,,,,,,,,,,,,,,,,,,,,,,,,,,,,,,,,,,,835.8164705119998,None,835.8164705119998,None,835.8164705119998,None,c,1,2.9022616389993345,837.3510781370005,None,837.3510781370005,None,837.3510781370005,None,840.317661694,None,840.317661694,None,840.317661694,None,840.317661694,None,,,,,,,,,,,,,,,,,,,,,,,,,,,,,,,,,,,,,,,,,,,,001,105,2020_Feb_11_1024,spring_faces,3.1.5,60.09924187811626,
condition files/Stage1_1.xlsx,,B4,T4,m,"['c', 'm']","['Clue', 'Monopoly']","[-0.15, 0.5]","[0.15, 0.5]",1,1,,,,,,,,,0,8,8,8,0,2,2,7,,,,,,,,,,,,,,,,,,,,,,,,,,,,,,,,,,,,,,,,,,,,,,,,,,,,,,,842.2839905840001,None,842.2839905840001,None,842.2839905840001,None,m,1,0.6272723900001438,843.8341227700002,None,843.8341227700002,None,843.8341227700002,None,844.5193295110003,None,844.5193295110003,None,844.5193295110003,None,844.5193295110003,None,,,,,,,,,,,,,,,,,,,,,,,,,,,,,,,,,,,,,,,,,,,,001,105,2020_Feb_11_1024,spring_faces,3.1.5,60.09924187811626,
condition files/Stage1_1.xlsx,,B3,T3,c,"['c', 'm']","['Clue', 'Monopoly']","[-0.15, 0.5]","[0.15, 0.5]",1,1,,,,,,,,,0,8,8,8,0,3,3,4,,,,,,,,,,,,,,,,,,,,,,,,,,,,,,,,,,,,,,,,,,,,,,,,,,,,,,,846.4840833779999,None,846.4840833779999,None,846.4840833779999,None,c,1,1.06758083800014,848.0177070970003,None,848.0177070970003,None,848.0177070970003,None,849.1523893570002,None,849.1523893570002,None,849.1523893570002,None,849.1523893570002,None,,,,,,,,,,,,,,,,,,,,,,,,,,,,,,,,,,,,,,,,,,,,001,105,2020_Feb_11_1024,spring_faces,3.1.5,60.09924187811626,
condition files/Stage1_1.xlsx,,B2,T1,m,"['c', 'm']","['Clue', 'Monopoly']","[-0.15, 0.5]","[0.15, 0.5]",1,1,,,,,,,,,0,8,8,8,0,4,4,2,,,,,,,,,,,,,,,,,,,,,,,,,,,,,,,,,,,,,,,,,,,,,,,,,,,,,,,851.1173949909999,None,851.1173949909999,None,851.1173949909999,None,m,1,0.7056905220006229,852.667694617,None,852.667694617,None,852.667694617,None,853.4343448549998,None,853.4343448549998,None,853.4343448549998,None,853.4343448549998,None,,,,,,,,,,,,,,,,,,,,,,,,,,,,,,,,,,,,,,,,,,,,001,105,2020_Feb_11_1024,spring_faces,3.1.5,60.09924187811626,
condition files/Stage1_1.xlsx,,T1,B1,c,"['c', 'm']","['Clue', 'Monopoly']","[-0.15, 0.5]","[0.15, 0.5]",1,1,,,,,,,,,0,8,8,8,0,5,5,0,,,,,,,,,,,,,,,,,,,,,,,,,,,,,,,,,,,,,,,,,,,,,,,,,,,,,,,855.4005325380003,None,855.4005325380003,None,855.4005325380003,None,c,1,0.8229899689995364,856.9503849290004,None,856.9503849290004,None,856.9503849290004,None,857.8362505559999,None,857.8362505559999,None,857.8362505559999,None,857.8362505559999,None,,,,,,,,,,,,,,,,,,,,,,,,,,,,,,,,,,,,,,,,,,,,001,105,2020_Feb_11_1024,spring_faces,3.1.5,60.09924187811626,
condition files/Stage1_1.xlsx,,T2,B2,m,"['c', 'm']","['Clue', 'Monopoly']","[-0.15, 0.5]","[0.15, 0.5]",1,1,,,,,,,,,0,8,8,8,0,6,6,3,,,,,,,,,,,,,,,,,,,,,,,,,,,,,,,,,,,,,,,,,,,,,,,,,,,,,,,859.8006310740002,None,859.8006310740002,None,859.8006310740002,None,m,1,1.4465110239998467,861.3508246090005,None,861.3508246090005,None,861.3508246090005,None,862.8529340229998,None,862.8529340229998,None,862.8529340229998,None,862.8529340229998,None,,,,,,,,,,,,,,,,,,,,,,,,,,,,,,,,,,,,,,,,,,,,001,105,2020_Feb_11_1024,spring_faces,3.1.5,60.09924187811626,
condition files/Stage1_1.xlsx,,B1,T2,c,"['c', 'm']","['Clue', 'Monopoly']","[-0.15, 0.5]","[0.15, 0.5]",1,1,,,,,,,,,0,8,8,8,0,7,7,1,,,,,,,,,,,,,,,,,,,,,,,,,,,,,,,,,,,,,,,,,,,,,,,,,,,,,,,864.8171946319999,None,864.8171946319999,None,864.8171946319999,None,c,1,1.1495163539993882,866.3517843449999,None,866.3517843449999,None,866.3517843449999,None,867.5685611819999,None,867.5685611819999,None,867.5685611819999,None,867.5685611819999,None,,,,,,,,,,,,,,,,,,,,,,,,,,,,,,,,,,,,,,,,,,,,001,105,2020_Feb_11_1024,spring_faces,3.1.5,60.09924187811626,
condition files/Stage1_2.xlsx,,B2,T2,m,"['c', 'm']","['Clue', 'Monopoly']","[-0.15, 0.5]","[0.15, 0.5]",1,1,,,,,,,,,0,9,9,9,0,0,0,3,,,,,,,,,,,,,,,,,,,,,,,,,,,,,,,,,,,,,,,,,,,,,,,,,,,,,,,869.5511978920003,None,869.5511978920003,None,869.5511978920003,None,m,1,0.8952511070001492,871.0860803860005,None,871.0860803860005,None,871.0860803860005,None,872.0359067890004,None,872.0359067890004,None,872.0359067890004,None,872.0359067890004,None,,,,,,,,,,,,,,,,,,,,,,,,,,,,,,,,,,,,,,,,,,,,001,105,2020_Feb_11_1024,spring_faces,3.1.5,60.09924187811626,
condition files/Stage1_2.xlsx,,T3,B3,c,"['c', 'm']","['Clue', 'Monopoly']","[-0.15, 0.5]","[0.15, 0.5]",1,1,,,,,,,,,0,9,9,9,0,1,1,4,,,,,,,,,,,,,,,,,,,,,,,,,,,,,,,,,,,,,,,,,,,,,,,,,,,,,,,874.0006234960001,None,874.0006234960001,None,874.0006234960001,None,c,1,0.9267219100001967,875.5346735200001,None,875.5346735200001,None,875.5346735200001,None,876.5187602810001,None,876.5187602810001,None,876.5187602810001,None,876.5187602810001,None,,,,,,,,,,,,,,,,,,,,,,,,,,,,,,,,,,,,,,,,,,,,001,105,2020_Feb_11_1024,spring_faces,3.1.5,60.09924187811626,
condition files/Stage1_2.xlsx,,B1,T1,c,"['c', 'm']","['Clue', 'Monopoly']","[-0.15, 0.5]","[0.15, 0.5]",1,1,,,,,,,,,0,9,9,9,0,2,2,0,,,,,,,,,,,,,,,,,,,,,,,,,,,,,,,,,,,,,,,,,,,,,,,,,,,,,,,878.4833290180004,None,878.4833290180004,None,878.4833290180004,None,c,1,1.1624672039997677,880.0188548490005,None,880.0188548490005,None,880.0188548490005,None,881.2341338300002,None,881.2341338300002,None,881.2341338300002,None,881.2341338300002,None,,,,,,,,,,,,,,,,,,,,,,,,,,,,,,,,,,,,,,,,,,,,001,105,2020_Feb_11_1024,spring_faces,3.1.5,60.09924187811626,
condition files/Stage1_2.xlsx,,T2,B1,c,"['c', 'm']","['Clue', 'Monopoly']","[-0.15, 0.5]","[0.15, 0.5]",1,1,,,,,,,,,0,9,9,9,0,3,3,1,,,,,,,,,,,,,,,,,,,,,,,,,,,,,,,,,,,,,,,,,,,,,,,,,,,,,,,883.2003204160001,None,883.2003204160001,None,883.2003204160001,None,c,1,1.1985389679994114,884.7347886810003,None,884.7347886810003,None,884.7347886810003,None,885.9841154420001,None,885.9841154420001,None,885.9841154420001,None,885.9841154420001,None,,,,,,,,,,,,,,,,,,,,,,,,,,,,,,,,,,,,,,,,,,,,001,105,2020_Feb_11_1024,spring_faces,3.1.5,60.09924187811626,
condition files/Stage1_2.xlsx,,T4,B4,m,"['c', 'm']","['Clue', 'Monopoly']","[-0.15, 0.5]","[0.15, 0.5]",1,1,,,,,,,,,0,9,9,9,0,4,4,7,,,,,,,,,,,,,,,,,,,,,,,,,,,,,,,,,,,,,,,,,,,,,,,,,,,,,,,887.9502781720003,None,887.9502781720003,None,887.9502781720003,None,m,1,0.6723725199999535,889.4850066910003,None,889.4850066910003,None,889.4850066910003,None,890.2195861790005,None,890.2195861790005,None,890.2195861790005,None,890.2195861790005,None,,,,,,,,,,,,,,,,,,,,,,,,,,,,,,,,,,,,,,,,,,,,001,105,2020_Feb_11_1024,spring_faces,3.1.5,60.09924187811626,
condition files/Stage1_2.xlsx,,T1,B2,m,"['c', 'm']","['Clue', 'Monopoly']","[-0.15, 0.5]","[0.15, 0.5]",1,1,,,,,,,,,0,9,9,9,0,5,5,2,,,,,,,,,,,,,,,,,,,,,,,,,,,,,,,,,,,,,,,,,,,,,,,,,,,,,,,892.1838787180004,None,892.1838787180004,None,892.1838787180004,None,m,1,1.1749842810004338,893.7184341640004,None,893.7184341640004,None,893.7184341640004,None,894.9507332769999,None,894.9507332769999,None,894.9507332769999,None,894.9507332769999,None,,,,,,,,,,,,,,,,,,,,,,,,,,,,,,,,,,,,,,,,,,,,001,105,2020_Feb_11_1024,spring_faces,3.1.5,60.09924187811626,
condition files/Stage1_2.xlsx,,B4,T3,c,"['c', 'm']","['Clue', 'Monopoly']","[-0.15, 0.5]","[0.15, 0.5]",1,1,,,,,,,,,0,9,9,9,0,6,6,5,,,,,,,,,,,,,,,,,,,,,,,,,,,,,,,,,,,,,,,,,,,,,,,,,,,,,,,896.9173134640005,None,896.9173134640005,None,896.9173134640005,None,c,1,1.4178879869996308,898.4513895509999,None,898.4513895509999,None,898.4513895509999,None,899.9349208970007,None,899.9349208970007,None,899.9349208970007,None,899.9349208970007,None,,,,,,,,,,,,,,,,,,,,,,,,,,,,,,,,,,,,,,,,,,,,001,105,2020_Feb_11_1024,spring_faces,3.1.5,60.09924187811626,
condition files/Stage1_2.xlsx,,B3,T4,m,"['c', 'm']","['Clue', 'Monopoly']","[-0.15, 0.5]","[0.15, 0.5]",1,1,,,,,,,,,0,9,9,9,0,7,7,6,,,,,,,,,,,,,,,,,,,,,,,,,,,,,,,,,,,,,,,,,,,,,,,,,,,,,,,901.9005246810002,None,901.9005246810002,None,901.9005246810002,None,m,1,0.9624528160002228,903.4508623780002,None,903.4508623780002,None,903.4508623780002,None,904.4679681490006,None,904.4679681490006,None,904.4679681490006,None,904.4679681490006,None,,,,,,,,,,,,,,,,,,,,,,,,,,,,,,,,,,,,,,,,,,,,001,105,2020_Feb_11_1024,spring_faces,3.1.5,60.09924187811626,
condition files/Stage1_1.xlsx,,B3,T3,c,"['c', 'm']","['Clue', 'Monopoly']","[-0.15, 0.5]","[0.15, 0.5]",1,1,,,,,,,,,0,10,10,10,0,0,0,4,,,,,,,,,,,,,,,,,,,,,,,,,,,,,,,,,,,,,,,,,,,,,,,,,,,,,,,906.4506757710005,None,906.4506757710005,None,906.4506757710005,None,c,1,1.004591932999574,908.0007368189999,None,908.0007368189999,None,908.0007368189999,None,909.0674377559999,None,909.0674377559999,None,909.0674377559999,None,909.0674377559999,None,,,,,,,,,,,,,,,,,,,,,,,,,,,,,,,,,,,,,,,,,,,,001,105,2020_Feb_11_1024,spring_faces,3.1.5,60.09924187811626,
condition files/Stage1_1.xlsx,,T2,B2,m,"['c', 'm']","['Clue', 'Monopoly']","[-0.15, 0.5]","[0.15, 0.5]",1,1,,,,,,,,,0,10,10,10,0,1,1,3,,,,,,,,,,,,,,,,,,,,,,,,,,,,,,,,,,,,,,,,,,,,,,,,,,,,,,,911.033901922,None,911.033901922,None,911.033901922,None,m,1,0.6463027480003802,912.5669765150005,None,912.5669765150005,None,912.5669765150005,None,913.2687117410005,None,913.2687117410005,None,913.2687117410005,None,913.2687117410005,None,,,,,,,,,,,,,,,,,,,,,,,,,,,,,,,,,,,,,,,,,,,,001,105,2020_Feb_11_1024,spring_faces,3.1.5,60.09924187811626,
condition files/Stage1_1.xlsx,,T1,B1,c,"['c', 'm']","['Clue', 'Monopoly']","[-0.15, 0.5]","[0.15, 0.5]",1,1,,,,,,,,,0,10,10,10,0,2,2,0,,,,,,,,,,,,,,,,,,,,,,,,,,,,,,,,,,,,,,,,,,,,,,,,,,,,,,,915.2335413740002,None,915.2335413740002,None,915.2335413740002,None,c,1,0.7333311980000872,916.767962762,None,916.767962762,None,916.767962762,None,917.5695672840002,None,917.5695672840002,None,917.5695672840002,None,917.5695672840002,None,,,,,,,,,,,,,,,,,,,,,,,,,,,,,,,,,,,,,,,,,,,,001,105,2020_Feb_11_1024,spring_faces,3.1.5,60.09924187811626,
condition files/Stage1_1.xlsx,,B2,T1,m,"['c', 'm']","['Clue', 'Monopoly']","[-0.15, 0.5]","[0.15, 0.5]",1,1,,,,,,,,,0,10,10,10,0,3,3,2,,,,,,,,,,,,,,,,,,,,,,,,,,,,,,,,,,,,,,,,,,,,,,,,,,,,,,,919.5339288610003,None,919.5339288610003,None,919.5339288610003,None,m,1,0.7050460939999539,921.0842840189998,None,921.0842840189998,None,921.0842840189998,None,921.8505676860004,None,921.8505676860004,None,921.8505676860004,None,921.8505676860004,None,,,,,,,,,,,,,,,,,,,,,,,,,,,,,,,,,,,,,,,,,,,,001,105,2020_Feb_11_1024,spring_faces,3.1.5,60.09924187811626,
condition files/Stage1_1.xlsx,,B4,T4,m,"['c', 'm']","['Clue', 'Monopoly']","[-0.15, 0.5]","[0.15, 0.5]",1,1,,,,,,,,,0,10,10,10,0,4,4,7,,,,,,,,,,,,,,,,,,,,,,,,,,,,,,,,,,,,,,,,,,,,,,,,,,,,,,,923.8168844900001,None,923.8168844900001,None,923.8168844900001,None,m,1,0.8382681799994316,925.3670650570002,None,925.3670650570002,None,925.3670650570002,None,926.2677424630001,None,926.2677424630001,None,926.2677424630001,None,926.2677424630001,None,,,,,,,,,,,,,,,,,,,,,,,,,,,,,,,,,,,,,,,,,,,,001,105,2020_Feb_11_1024,spring_faces,3.1.5,60.09924187811626,
condition files/Stage1_1.xlsx,,T3,B4,c,"['c', 'm']","['Clue', 'Monopoly']","[-0.15, 0.5]","[0.15, 0.5]",1,1,,,,,,,,,0,10,10,10,0,5,5,5,,,,,,,,,,,,,,,,,,,,,,,,,,,,,,,,,,,,,,,,,,,,,,,,,,,,,,,928.2341109400004,None,928.2341109400004,None,928.2341109400004,None,c,1,1.2856631310005469,929.7676668690001,None,929.7676668690001,None,929.7676668690001,None,931.1184362980002,None,931.1184362980002,None,931.1184362980002,None,931.1184362980002,None,,,,,,,,,,,,,,,,,,,,,,,,,,,,,,,,,,,,,,,,,,,,001,105,2020_Feb_11_1024,spring_faces,3.1.5,60.09924187811626,
condition files/Stage1_1.xlsx,,B1,T2,c,"['c', 'm']","['Clue', 'Monopoly']","[-0.15, 0.5]","[0.15, 0.5]",1,1,,,,,,,,,0,10,10,10,0,6,6,1,,,,,,,,,,,,,,,,,,,,,,,,,,,,,,,,,,,,,,,,,,,,,,,,,,,,,,,933.0838983310005,None,933.0838983310005,None,933.0838983310005,None,c,1,1.6657786989999295,934.6194767790003,None,934.6194767790003,None,934.6194767790003,None,936.351161044,None,936.351161044,None,936.351161044,None,936.351161044,None,,,,,,,,,,,,,,,,,,,,,,,,,,,,,,,,,,,,,,,,,,,,001,105,2020_Feb_11_1024,spring_faces,3.1.5,60.09924187811626,
condition files/Stage1_1.xlsx,,T4,B3,m,"['c', 'm']","['Clue', 'Monopoly']","[-0.15, 0.5]","[0.15, 0.5]",1,1,,,,,,,,,0,10,10,10,0,7,7,6,,,,,,,,,,,,,,,,,,,,,,,,,,,,,,,,,,,,,,,,,,,,,,,,,,,,,,,938.3170688360005,None,938.3170688360005,None,938.3170688360005,None,m,1,0.7697165240006143,939.8676057359999,None,939.8676057359999,None,939.8676057359999,None,940.7017091890002,None,940.7017091890002,None,940.7017091890002,None,940.7017091890002,None,,,,,,,,,,,,,,,,,,,,,,,,,,,,,,,,,,,,,,,,,,,,001,105,2020_Feb_11_1024,spring_faces,3.1.5,60.09924187811626,
condition files/Stage1_2.xlsx,,B3,T4,m,"['c', 'm']","['Clue', 'Monopoly']","[-0.15, 0.5]","[0.15, 0.5]",1,1,,,,,,,,,0,11,11,11,0,0,0,6,,,,,,,,,,,,,,,,,,,,,,,,,,,,,,,,,,,,,,,,,,,,,,,,,,,,,,,942.683482417,None,942.683482417,None,942.683482417,None,m,1,1.0271701000001485,944.2341570810004,None,944.2341570810004,None,944.2341570810004,None,945.3174482510003,None,945.3174482510003,None,945.3174482510003,None,945.3174482510003,None,,,,,,,,,,,,,,,,,,,,,,,,,,,,,,,,,,,,,,,,,,,,001,105,2020_Feb_11_1024,spring_faces,3.1.5,60.09924187811626,
condition files/Stage1_2.xlsx,,T1,B2,m,"['c', 'm']","['Clue', 'Monopoly']","[-0.15, 0.5]","[0.15, 0.5]",1,1,,,,,,,,,0,11,11,11,0,1,1,2,,,,,,,,,,,,,,,,,,,,,,,,,,,,,,,,,,,,,,,,,,,,,,,,,,,,,,,947.2839031240001,None,947.2839031240001,None,947.2839031240001,None,c,0,1.6588492760001827,948.818537266,None,948.818537266,None,948.818537266,None,950.5340906769998,None,950.5340906769998,None,950.5340906769998,None,950.5340906769998,None,,,,,,,,,,,,,,,,,,,,,,,,,,,,,,,,,,,,,,,,,,,,001,105,2020_Feb_11_1024,spring_faces,3.1.5,60.09924187811626,
condition files/Stage1_2.xlsx,,T2,B1,c,"['c', 'm']","['Clue', 'Monopoly']","[-0.15, 0.5]","[0.15, 0.5]",1,1,,,,,,,,,0,11,11,11,0,2,2,1,,,,,,,,,,,,,,,,,,,,,,,,,,,,,,,,,,,,,,,,,,,,,,,,,,,,,,,952.4999692850006,None,952.4999692850006,None,952.4999692850006,None,c,1,0.7612644350001574,954.0362798800006,None,954.0362798800006,None,954.0362798800006,None,954.8534607920001,None,954.8534607920001,None,954.8534607920001,None,954.8534607920001,None,,,,,,,,,,,,,,,,,,,,,,,,,,,,,,,,,,,,,,,,,,,,001,105,2020_Feb_11_1024,spring_faces,3.1.5,60.09924187811626,
condition files/Stage1_2.xlsx,,B4,T3,c,"['c', 'm']","['Clue', 'Monopoly']","[-0.15, 0.5]","[0.15, 0.5]",1,1,,,,,,,,,0,11,11,11,0,3,3,5,,,,,,,,,,,,,,,,,,,,,,,,,,,,,,,,,,,,,,,,,,,,,,,,,,,,,,,956.817649005,None,956.817649005,None,956.817649005,None,c,1,1.247119880000355,958.3503792709998,None,958.3503792709998,None,958.3503792709998,None,959.6501622780006,None,959.6501622780006,None,959.6501622780006,None,959.6501622780006,None,,,,,,,,,,,,,,,,,,,,,,,,,,,,,,,,,,,,,,,,,,,,001,105,2020_Feb_11_1024,spring_faces,3.1.5,60.09924187811626,
condition files/Stage1_2.xlsx,,T3,B3,c,"['c', 'm']","['Clue', 'Monopoly']","[-0.15, 0.5]","[0.15, 0.5]",1,1,,,,,,,,,0,11,11,11,0,4,4,4,,,,,,,,,,,,,,,,,,,,,,,,,,,,,,,,,,,,,,,,,,,,,,,,,,,,,,,961.6172016979999,None,961.6172016979999,None,961.6172016979999,None,c,1,0.9576521600001797,963.1677130670005,None,963.1677130670005,None,963.1677130670005,None,964.184149658,None,964.184149658,None,964.184149658,None,964.184149658,None,,,,,,,,,,,,,,,,,,,,,,,,,,,,,,,,,,,,,,,,,,,,001,105,2020_Feb_11_1024,spring_faces,3.1.5,60.09924187811626,
condition files/Stage1_2.xlsx,,B1,T1,c,"['c', 'm']","['Clue', 'Monopoly']","[-0.15, 0.5]","[0.15, 0.5]",1,1,,,,,,,,,0,11,11,11,0,5,5,0,,,,,,,,,,,,,,,,,,,,,,,,,,,,,,,,,,,,,,,,,,,,,,,,,,,,,,,966.1505374150001,None,966.1505374150001,None,966.1505374150001,None,c,1,0.9034130589998313,967.6859203630002,None,967.6859203630002,None,967.6859203630002,None,968.650777932,None,968.650777932,None,968.650777932,None,968.650777932,None,,,,,,,,,,,,,,,,,,,,,,,,,,,,,,,,,,,,,,,,,,,,001,105,2020_Feb_11_1024,spring_faces,3.1.5,60.09924187811626,
condition files/Stage1_2.xlsx,,T4,B4,m,"['c', 'm']","['Clue', 'Monopoly']","[-0.15, 0.5]","[0.15, 0.5]",1,1,,,,,,,,,0,11,11,11,0,6,6,7,,,,,,,,,,,,,,,,,,,,,,,,,,,,,,,,,,,,,,,,,,,,,,,,,,,,,,,970.6172486610003,None,970.6172486610003,None,970.6172486610003,None,m,1,0.45404154999960156,972.1672771960002,None,972.1672771960002,None,972.1672771960002,None,972.6840248620001,None,972.6840248620001,None,972.6840248620001,None,972.6840248620001,None,,,,,,,,,,,,,,,,,,,,,,,,,,,,,,,,,,,,,,,,,,,,001,105,2020_Feb_11_1024,spring_faces,3.1.5,60.09924187811626,
condition files/Stage1_2.xlsx,,B2,T2,m,"['c', 'm']","['Clue', 'Monopoly']","[-0.15, 0.5]","[0.15, 0.5]",1,1,,,,,,,,,0,11,11,11,0,7,7,3,,,,,,,,,,,,,,,,,,,,,,,,,,,,,,,,,,,,,,,,,,,,,,,,,,,,,,,974.6507533350004,None,974.6507533350004,None,974.6507533350004,None,m,1,0.9487407300002815,976.2005741620005,None,976.2005741620005,None,976.2005741620005,None,977.2011006210005,None,977.2011006210005,None,977.2011006210005,None,977.2011006210005,None,,,,,,,,,,,,,,,,,,,,,,,,,,,,,,,,,,,,,,,,,,,,001,105,2020_Feb_11_1024,spring_faces,3.1.5,60.09924187811626,
,,,,,,,,,,,,,,,,,,,,,,,,,,,,,,,,,,,,,,,,,,,,,,,,,,,,,,,,,,,,,,,,,,,,,,,,,,,,,,,,,,,,,,,,,,,,,,,,,,,,,,,,,,,,,,,,979.1844777980004,None,space,7.957276901000114,984.1841359910004,None,,,,,,,,,,,,,,,,,,,,,,,,,,,,,,001,105,2020_Feb_11_1024,spring_faces,3.1.5,60.09924187811626,
condition files/Stage2_1.xlsx,,T1,B1,s,"['s', 'r']","['Stratego', 'Risk']","[-0.15, 0.5]","[0.15, 0.5]",1,1,,,,,,,,,,,,,,,,,0,0,0,0,0,0,0,2,,,,,,,,,,,,,,,,,,,,,,,,,,,,,,,,,,,,,,,,,,,,,,,992.200481764,None,992.200481764,None,992.200481764,None,s,1,1.0947614240003531,993.7345603350004,None,993.7345603350004,None,993.7345603350004,None,994.8850300419999,None,994.8850300419999,None,994.8850300419999,None,994.8850300419999,None,,,,,,,,,,,,,,,984.1841359910004,None,,,,,,,,,,,,,,,,,,,,,,,,,,,,001,105,2020_Feb_11_1024,spring_faces,3.1.5,60.09924187811626,
condition files/Stage2_1.xlsx,,T5,B5,s,"['s', 'r']","['Stratego', 'Risk']","[-0.15, 0.5]","[0.15, 0.5]",1,1,,,,,,,,,,,,,,,,,0,0,0,0,0,1,1,0,,,,,,,,,,,,,,,,,,,,,,,,,,,,,,,,,,,,,,,,,,,,,,,996.8505664820004,None,996.8505664820004,None,996.8505664820004,None,r,0,1.2441450639998948,998.3851025459999,None,998.3851025459999,None,998.3851025459999,None,999.6835360040004,None,999.6835360040004,None,999.6835360040004,None,999.6835360040004,None,,,,,,,,,,,,,,,,,,,,,,,,,,,,,,,,,,,,,,,,,,,,001,105,2020_Feb_11_1024,spring_faces,3.1.5,60.09924187811626,
condition files/Stage2_1.xlsx,,T3,B3,s,"['s', 'r']","['Stratego', 'Risk']","[-0.15, 0.5]","[0.15, 0.5]",1,1,,,,,,,,,,,,,,,,,0,0,0,0,0,2,2,4,,,,,,,,,,,,,,,,,,,,,,,,,,,,,,,,,,,,,,,,,,,,,,,1001.6505797509999,None,1001.6505797509999,None,1001.6505797509999,None,s,1,0.9569089870001335,1003.1844990300006,None,1003.1844990300006,None,1003.1844990300006,None,1004.2008456100002,None,1004.2008456100002,None,1004.2008456100002,None,1004.2008456100002,None,,,,,,,,,,,,,,,,,,,,,,,,,,,,,,,,,,,,,,,,,,,,001,105,2020_Feb_11_1024,spring_faces,3.1.5,60.09924187811626,
condition files/Stage2_1.xlsx,,B2,T2,r,"['s', 'r']","['Stratego', 'Risk']","[-0.15, 0.5]","[0.15, 0.5]",1,1,,,,,,,,,,,,,,,,,0,0,0,0,0,3,3,3,,,,,,,,,,,,,,,,,,,,,,,,,,,,,,,,,,,,,,,,,,,,,,,1006.1674349290006,None,1006.1674349290006,None,1006.1674349290006,None,r,1,0.8718624220000493,1007.7174705940006,None,1007.7174705940006,None,1007.7174705940006,None,1008.6500857740002,None,1008.6500857740002,None,1008.6500857740002,None,1008.6500857740002,None,,,,,,,,,,,,,,,,,,,,,,,,,,,,,,,,,,,,,,,,,,,,001,105,2020_Feb_11_1024,spring_faces,3.1.5,60.09924187811626,
condition files/Stage2_1.xlsx,,B6,T6,r,"['s', 'r']","['Stratego', 'Risk']","[-0.15, 0.5]","[0.15, 0.5]",1,1,,,,,,,,,,,,,,,,,0,0,0,0,0,4,4,1,,,,,,,,,,,,,,,,,,,,,,,,,,,,,,,,,,,,,,,,,,,,,,,1010.6172383230005,None,1010.6172383230005,None,1010.6172383230005,None,r,1,1.0287572189999992,1012.1525728670003,None,1012.1525728670003,None,1012.1525728670003,None,1013.2342261860003,None,1013.2342261860003,None,1013.2342261860003,None,1013.2342261860003,None,,,,,,,,,,,,,,,,,,,,,,,,,,,,,,,,,,,,,,,,,,,,001,105,2020_Feb_11_1024,spring_faces,3.1.5,60.09924187811626,
condition files/Stage2_1.xlsx,,B4,T4,r,"['s', 'r']","['Stratego', 'Risk']","[-0.15, 0.5]","[0.15, 0.5]",1,1,,,,,,,,,,,,,,,,,0,0,0,0,0,5,5,5,,,,,,,,,,,,,,,,,,,,,,,,,,,,,,,,,,,,,,,,,,,,,,,1015.2003171440001,None,1015.2003171440001,None,1015.2003171440001,None,r,1,0.8637069050000719,1016.7337819049999,None,1016.7337819049999,None,1016.7337819049999,None,1017.6509086470005,None,1017.6509086470005,None,1017.6509086470005,None,1017.6509086470005,None,,,,,,,,,,,,,,,,,,,,,,,,,,,,,,,,,,,,,,,,,,,,001,105,2020_Feb_11_1024,spring_faces,3.1.5,60.09924187811626,
condition files/Stage2_2.xlsx,,B5,T5,s,"['s', 'r']","['Stratego', 'Risk']","[-0.15, 0.5]","[0.15, 0.5]",1,1,,,,,,,,,,,,,,,,,0,1,1,1,0,0,0,0,,,,,,,,,,,,,,,,,,,,,,,,,,,,,,,,,,,,,,,,,,,,,,,1019.6341161760001,None,1019.6341161760001,None,1019.6341161760001,None,s,1,1.02059761000055,1021.1687324069999,None,1021.1687324069999,None,1021.1687324069999,None,1022.2526263999998,None,1022.2526263999998,None,1022.2526263999998,None,1022.2526263999998,None,,,,,,,,,,,,,,,,,,,,,,,,,,,,,,,,,,,,,,,,,,,,001,105,2020_Feb_11_1024,spring_faces,3.1.5,60.09924187811626,
condition files/Stage2_2.xlsx,,B1,T1,s,"['s', 'r']","['Stratego', 'Risk']","[-0.15, 0.5]","[0.15, 0.5]",1,1,,,,,,,,,,,,,,,,,0,1,1,1,0,1,1,2,,,,,,,,,,,,,,,,,,,,,,,,,,,,,,,,,,,,,,,,,,,,,,,1024.2173115100004,None,1024.2173115100004,None,1024.2173115100004,None,s,1,0.5326314479998473,1025.7526802080001,None,1025.7526802080001,None,1025.7526802080001,None,1026.350432411,None,1026.350432411,None,1026.350432411,None,1026.350432411,None,,,,,,,,,,,,,,,,,,,,,,,,,,,,,,,,,,,,,,,,,,,,001,105,2020_Feb_11_1024,spring_faces,3.1.5,60.09924187811626,
condition files/Stage2_2.xlsx,,B3,T3,s,"['s', 'r']","['Stratego', 'Risk']","[-0.15, 0.5]","[0.15, 0.5]",1,1,,,,,,,,,,,,,,,,,0,1,1,1,0,2,2,4,,,,,,,,,,,,,,,,,,,,,,,,,,,,,,,,,,,,,,,,,,,,,,,1028.3171933470003,None,1028.3171933470003,None,1028.3171933470003,None,s,1,0.9296968540002126,1029.8676213859999,None,1029.8676213859999,None,1029.8676213859999,None,1030.8502452009998,None,1030.8502452009998,None,1030.8502452009998,None,1030.8502452009998,None,,,,,,,,,,,,,,,,,,,,,,,,,,,,,,,,,,,,,,,,,,,,001,105,2020_Feb_11_1024,spring_faces,3.1.5,60.09924187811626,
condition files/Stage2_2.xlsx,,T2,B2,r,"['s', 'r']","['Stratego', 'Risk']","[-0.15, 0.5]","[0.15, 0.5]",1,1,,,,,,,,,,,,,,,,,0,1,1,1,0,3,3,3,,,,,,,,,,,,,,,,,,,,,,,,,,,,,,,,,,,,,,,,,,,,,,,1032.8172779120005,None,1032.8172779120005,None,1032.8172779120005,None,r,1,0.7807854989996486,1034.3525432300003,None,1034.3525432300003,None,1034.3525432300003,None,1035.185520956,None,1035.185520956,None,1035.185520956,None,1035.185520956,None,,,,,,,,,,,,,,,,,,,,,,,,,,,,,,,,,,,,,,,,,,,,001,105,2020_Feb_11_1024,spring_faces,3.1.5,60.09924187811626,
condition files/Stage2_2.xlsx,,T6,B6,r,"['s', 'r']","['Stratego', 'Risk']","[-0.15, 0.5]","[0.15, 0.5]",1,1,,,,,,,,,,,,,,,,,0,1,1,1,0,4,4,1,,,,,,,,,,,,,,,,,,,,,,,,,,,,,,,,,,,,,,,,,,,,,,,1037.1506657400005,None,1037.1506657400005,None,1037.1506657400005,None,s,0,0.7050738970001476,1038.7002490180002,None,1038.7002490180002,None,1038.7002490180002,None,1039.466932071,None,1039.466932071,None,1039.466932071,None,1039.466932071,None,,,,,,,,,,,,,,,,,,,,,,,,,,,,,,,,,,,,,,,,,,,,001,105,2020_Feb_11_1024,spring_faces,3.1.5,60.09924187811626,
condition files/Stage2_2.xlsx,,T4,B4,r,"['s', 'r']","['Stratego', 'Risk']","[-0.15, 0.5]","[0.15, 0.5]",1,1,,,,,,,,,,,,,,,,,0,1,1,1,0,5,5,5,,,,,,,,,,,,,,,,,,,,,,,,,,,,,,,,,,,,,,,,,,,,,,,1041.4339494590004,None,1041.4339494590004,None,1041.4339494590004,None,r,1,0.7576033370005462,1042.9837916040005,None,1042.9837916040005,None,1042.9837916040005,None,1043.8008521970005,None,1043.8008521970005,None,1043.8008521970005,None,1043.8008521970005,None,,,,,,,,,,,,,,,,,,,,,,,,,,,,,,,,,,,,,,,,,,,,001,105,2020_Feb_11_1024,spring_faces,3.1.5,60.09924187811626,
condition files/Stage2_1.xlsx,,B6,T6,r,"['s', 'r']","['Stratego', 'Risk']","[-0.15, 0.5]","[0.15, 0.5]",1,1,,,,,,,,,,,,,,,,,0,2,2,2,0,0,0,1,,,,,,,,,,,,,,,,,,,,,,,,,,,,,,,,,,,,,,,,,,,,,,,1045.7841587860003,None,1045.7841587860003,None,1045.7841587860003,None,r,1,1.1594293810003364,1047.3339977760006,None,1047.3339977760006,None,1047.3339977760006,None,1048.5509310349998,None,1048.5509310349998,None,1048.5509310349998,None,1048.5509310349998,None,,,,,,,,,,,,,,,,,,,,,,,,,,,,,,,,,,,,,,,,,,,,001,105,2020_Feb_11_1024,spring_faces,3.1.5,60.09924187811626,
condition files/Stage2_1.xlsx,,B4,T4,r,"['s', 'r']","['Stratego', 'Risk']","[-0.15, 0.5]","[0.15, 0.5]",1,1,,,,,,,,,,,,,,,,,0,2,2,2,0,1,1,5,,,,,,,,,,,,,,,,,,,,,,,,,,,,,,,,,,,,,,,,,,,,,,,1050.5166735530001,None,1050.5166735530001,None,1050.5166735530001,None,r,1,0.7781188589997328,1052.0511273760003,None,1052.0511273760003,None,1052.0511273760003,None,1052.8836813070002,None,1052.8836813070002,None,1052.8836813070002,None,1052.8836813070002,None,,,,,,,,,,,,,,,,,,,,,,,,,,,,,,,,,,,,,,,,,,,,001,105,2020_Feb_11_1024,spring_faces,3.1.5,60.09924187811626,
condition files/Stage2_1.xlsx,,T1,B1,s,"['s', 'r']","['Stratego', 'Risk']","[-0.15, 0.5]","[0.15, 0.5]",1,1,,,,,,,,,,,,,,,,,0,2,2,2,0,2,2,2,,,,,,,,,,,,,,,,,,,,,,,,,,,,,,,,,,,,,,,,,,,,,,,1054.8505866040005,None,1054.8505866040005,None,1054.8505866040005,None,s,1,0.7951190890007638,1056.3862109890006,None,1056.3862109890006,None,1056.3862109890006,None,1057.2341123330007,None,1057.2341123330007,None,1057.2341123330007,None,1057.2341123330007,None,,,,,,,,,,,,,,,,,,,,,,,,,,,,,,,,,,,,,,,,,,,,001,105,2020_Feb_11_1024,spring_faces,3.1.5,60.09924187811626,
condition files/Stage2_1.xlsx,,T3,B3,s,"['s', 'r']","['Stratego', 'Risk']","[-0.15, 0.5]","[0.15, 0.5]",1,1,,,,,,,,,,,,,,,,,0,2,2,2,0,3,3,4,,,,,,,,,,,,,,,,,,,,,,,,,,,,,,,,,,,,,,,,,,,,,,,1059.200549493,None,1059.200549493,None,1059.200549493,None,s,1,1.6154190420002124,1060.7338977930003,None,1060.7338977930003,None,1060.7338977930003,None,1062.4004995559999,None,1062.4004995559999,None,1062.4004995559999,None,1062.4004995559999,None,,,,,,,,,,,,,,,,,,,,,,,,,,,,,,,,,,,,,,,,,,,,001,105,2020_Feb_11_1024,spring_faces,3.1.5,60.09924187811626,
condition files/Stage2_1.xlsx,,B2,T2,r,"['s', 'r']","['Stratego', 'Risk']","[-0.15, 0.5]","[0.15, 0.5]",1,1,,,,,,,,,,,,,,,,,0,2,2,2,0,4,4,3,,,,,,,,,,,,,,,,,,,,,,,,,,,,,,,,,,,,,,,,,,,,,,,1064.3667898049998,None,1064.3667898049998,None,1064.3667898049998,None,r,1,1.4559683699999368,1065.9174085690001,None,1065.9174085690001,None,1065.9174085690001,None,1067.4337686010003,None,1067.4337686010003,None,1067.4337686010003,None,1067.4337686010003,None,,,,,,,,,,,,,,,,,,,,,,,,,,,,,,,,,,,,,,,,,,,,001,105,2020_Feb_11_1024,spring_faces,3.1.5,60.09924187811626,
condition files/Stage2_1.xlsx,,T5,B5,s,"['s', 'r']","['Stratego', 'Risk']","[-0.15, 0.5]","[0.15, 0.5]",1,1,,,,,,,,,,,,,,,,,0,2,2,2,0,5,5,0,,,,,,,,,,,,,,,,,,,,,,,,,,,,,,,,,,,,,,,,,,,,,,,1069.4005204659998,None,1069.4005204659998,None,1069.4005204659998,None,s,1,1.1747356119994947,1070.9506457759999,None,1070.9506457759999,None,1070.9506457759999,None,1072.1867904700002,None,1072.1867904700002,None,1072.1867904700002,None,1072.1867904700002,None,,,,,,,,,,,,,,,,,,,,,,,,,,,,,,,,,,,,,,,,,,,,001,105,2020_Feb_11_1024,spring_faces,3.1.5,60.09924187811626,
condition files/Stage2_2.xlsx,,T6,B6,r,"['s', 'r']","['Stratego', 'Risk']","[-0.15, 0.5]","[0.15, 0.5]",1,1,,,,,,,,,,,,,,,,,0,3,3,3,0,0,0,1,,,,,,,,,,,,,,,,,,,,,,,,,,,,,,,,,,,,,,,,,,,,,,,1074.16739565,None,1074.16739565,None,1074.16739565,None,r,1,0.8396398679997219,1075.7177619129998,None,1075.7177619129998,None,1075.7177619129998,None,1076.6337301570002,None,1076.6337301570002,None,1076.6337301570002,None,1076.6337301570002,None,,,,,,,,,,,,,,,,,,,,,,,,,,,,,,,,,,,,,,,,,,,,001,105,2020_Feb_11_1024,spring_faces,3.1.5,60.09924187811626,
condition files/Stage2_2.xlsx,,T4,B4,r,"['s', 'r']","['Stratego', 'Risk']","[-0.15, 0.5]","[0.15, 0.5]",1,1,,,,,,,,,,,,,,,,,0,3,3,3,0,1,1,5,,,,,,,,,,,,,,,,,,,,,,,,,,,,,,,,,,,,,,,,,,,,,,,1078.58385378,None,1078.58385378,None,1078.58385378,None,r,1,1.1906170529991869,1080.1187838670003,None,1080.1187838670003,None,1080.1187838670003,None,1081.367743715,None,1081.367743715,None,1081.367743715,None,1081.367743715,None,,,,,,,,,,,,,,,,,,,,,,,,,,,,,,,,,,,,,,,,,,,,001,105,2020_Feb_11_1024,spring_faces,3.1.5,60.09924187811626,
condition files/Stage2_2.xlsx,,T2,B2,r,"['s', 'r']","['Stratego', 'Risk']","[-0.15, 0.5]","[0.15, 0.5]",1,1,,,,,,,,,,,,,,,,,0,3,3,3,0,2,2,3,,,,,,,,,,,,,,,,,,,,,,,,,,,,,,,,,,,,,,,,,,,,,,,1083.3336434230005,None,1083.3336434230005,None,1083.3336434230005,None,r,1,1.193608212000072,1084.8837732520005,None,1084.8837732520005,None,1084.8837732520005,None,1086.134535952,None,1086.134535952,None,1086.134535952,None,1086.134535952,None,,,,,,,,,,,,,,,,,,,,,,,,,,,,,,,,,,,,,,,,,,,,001,105,2020_Feb_11_1024,spring_faces,3.1.5,60.09924187811626,
condition files/Stage2_2.xlsx,,B5,T5,s,"['s', 'r']","['Stratego', 'Risk']","[-0.15, 0.5]","[0.15, 0.5]",1,1,,,,,,,,,,,,,,,,,0,3,3,3,0,3,3,0,,,,,,,,,,,,,,,,,,,,,,,,,,,,,,,,,,,,,,,,,,,,,,,1088.0999581659999,None,1088.0999581659999,None,1088.0999581659999,None,r,0,-0.004380158999993,1089.633708116,None,1089.633708116,None,1089.633708116,None,1089.6844229320004,None,1089.6844229320004,None,1089.6844229320004,None,1089.6844229320004,None,,,,,,,,,,,,,,,,,,,,,,,,,,,,,,,,,,,,,,,,,,,,001,105,2020_Feb_11_1024,spring_faces,3.1.5,60.09924187811626,
condition files/Stage2_2.xlsx,,B3,T3,s,"['s', 'r']","['Stratego', 'Risk']","[-0.15, 0.5]","[0.15, 0.5]",1,1,,,,,,,,,,,,,,,,,0,3,3,3,0,4,4,4,,,,,,,,,,,,,,,,,,,,,,,,,,,,,,,,,,,,,,,,,,,,,,,1091.650243983,None,1091.650243983,None,1091.650243983,None,s,1,0.9070446850000735,1093.186376961,None,1093.186376961,None,1093.186376961,None,1094.1501536260002,None,1094.1501536260002,None,1094.1501536260002,None,1094.1501536260002,None,,,,,,,,,,,,,,,,,,,,,,,,,,,,,,,,,,,,,,,,,,,,001,105,2020_Feb_11_1024,spring_faces,3.1.5,60.09924187811626,
condition files/Stage2_2.xlsx,,B1,T1,s,"['s', 'r']","['Stratego', 'Risk']","[-0.15, 0.5]","[0.15, 0.5]",1,1,,,,,,,,,,,,,,,,,0,3,3,3,0,5,5,2,,,,,,,,,,,,,,,,,,,,,,,,,,,,,,,,,,,,,,,,,,,,,,,1096.1172539160007,None,1096.1172539160007,None,1096.1172539160007,None,s,1,0.713773843999661,1097.6515544840004,None,1097.6515544840004,None,1097.6515544840004,None,1098.4175502980006,None,1098.4175502980006,None,1098.4175502980006,None,1098.4175502980006,None,,,,,,,,,,,,,,,,,,,,,,,,,,,,,,,,,,,,,,,,,,,,001,105,2020_Feb_11_1024,spring_faces,3.1.5,60.09924187811626,
condition files/Stage2_1.xlsx,,B6,T6,r,"['s', 'r']","['Stratego', 'Risk']","[-0.15, 0.5]","[0.15, 0.5]",1,1,,,,,,,,,,,,,,,,,0,4,4,4,0,0,0,1,,,,,,,,,,,,,,,,,,,,,,,,,,,,,,,,,,,,,,,,,,,,,,,1100.4008082930004,None,1100.4008082930004,None,1100.4008082930004,None,r,1,0.8458951279999383,1101.9354431230004,None,1101.9354431230004,None,1101.9354431230004,None,1102.8349313200006,None,1102.8349313200006,None,1102.8349313200006,None,1102.8349313200006,None,,,,,,,,,,,,,,,,,,,,,,,,,,,,,,,,,,,,,,,,,,,,001,105,2020_Feb_11_1024,spring_faces,3.1.5,60.09924187811626,
condition files/Stage2_1.xlsx,,B4,T4,r,"['s', 'r']","['Stratego', 'Risk']","[-0.15, 0.5]","[0.15, 0.5]",1,1,,,,,,,,,,,,,,,,,0,4,4,4,0,1,1,5,,,,,,,,,,,,,,,,,,,,,,,,,,,,,,,,,,,,,,,,,,,,,,,1104.800792694,None,1104.800792694,None,1104.800792694,None,r,1,0.6054920140004469,1106.3359186490006,None,1106.3359186490006,None,1106.3359186490006,None,1107.0004390670001,None,1107.0004390670001,None,1107.0004390670001,None,1107.0004390670001,None,,,,,,,,,,,,,,,,,,,,,,,,,,,,,,,,,,,,,,,,,,,,001,105,2020_Feb_11_1024,spring_faces,3.1.5,60.09924187811626,
condition files/Stage2_1.xlsx,,T5,B5,s,"['s', 'r']","['Stratego', 'Risk']","[-0.15, 0.5]","[0.15, 0.5]",1,1,,,,,,,,,,,,,,,,,0,4,4,4,0,2,2,0,,,,,,,,,,,,,,,,,,,,,,,,,,,,,,,,,,,,,,,,,,,,,,,1108.9670158979998,None,1108.9670158979998,None,1108.9670158979998,None,s,1,0.6957249699999011,1110.51754376,None,1110.51754376,None,1110.51754376,None,1111.2690795580002,None,1111.2690795580002,None,1111.2690795580002,None,1111.2690795580002,None,,,,,,,,,,,,,,,,,,,,,,,,,,,,,,,,,,,,,,,,,,,,001,105,2020_Feb_11_1024,spring_faces,3.1.5,60.09924187811626,
condition files/Stage2_1.xlsx,,B2,T2,r,"['s', 'r']","['Stratego', 'Risk']","[-0.15, 0.5]","[0.15, 0.5]",1,1,,,,,,,,,,,,,,,,,0,4,4,4,0,3,3,3,,,,,,,,,,,,,,,,,,,,,,,,,,,,,,,,,,,,,,,,,,,,,,,1113.2339197230003,None,1113.2339197230003,None,1113.2339197230003,None,r,1,0.733633865000229,1114.7836822110003,None,1114.7836822110003,None,1114.7836822110003,None,1115.584440867,None,1115.584440867,None,1115.584440867,None,1115.584440867,None,,,,,,,,,,,,,,,,,,,,,,,,,,,,,,,,,,,,,,,,,,,,001,105,2020_Feb_11_1024,spring_faces,3.1.5,60.09924187811626,
condition files/Stage2_1.xlsx,,T3,B3,s,"['s', 'r']","['Stratego', 'Risk']","[-0.15, 0.5]","[0.15, 0.5]",1,1,,,,,,,,,,,,,,,,,0,4,4,4,0,4,4,4,,,,,,,,,,,,,,,,,,,,,,,,,,,,,,,,,,,,,,,,,,,,,,,1117.533414433,None,1117.533414433,None,1117.533414433,None,s,1,0.9443567590005841,1119.0689791610002,None,1119.0689791610002,None,1119.0689791610002,None,1120.0683789149998,None,1120.0683789149998,None,1120.0683789149998,None,1120.0683789149998,None,,,,,,,,,,,,,,,,,,,,,,,,,,,,,,,,,,,,,,,,,,,,001,105,2020_Feb_11_1024,spring_faces,3.1.5,60.09924187811626,
