condsFile,subStage,cue1,cue2,correct,responseKeys,responseNames,cue1Position,cue2Position,cue1Opacity,cue2Opacity,stageLoop0.thisRepN,stageLoop0.thisTrialN,stageLoop0.thisN,stageLoop0.thisIndex,blockLoop0.thisRepN,blockLoop0.thisTrialN,blockLoop0.thisN,blockLoop0.thisIndex,stage1Loop.thisRepN,stage1Loop.thisTrialN,stage1Loop.thisN,stage1Loop.thisIndex,blockLoop1.thisRepN,blockLoop1.thisTrialN,blockLoop1.thisN,blockLoop1.thisIndex,stage2Loop.thisRepN,stage2Loop.thisTrialN,stage2Loop.thisN,stage2Loop.thisIndex,blockLoop2.thisRepN,blockLoop2.thisTrialN,blockLoop2.thisN,blockLoop2.thisIndex,testLoop.thisRepN,testLoop.thisTrialN,testLoop.thisN,testLoop.thisIndex,blockLoopTest.thisRepN,blockLoopTest.thisTrialN,blockLoopTest.thisN,blockLoopTest.thisIndex,cuePics,id_instr_text.started,id_instr_text.stopped,space_to_continue_2.started,space_to_continue_2.stopped,end_instructions_resp_3.keys,end_instructions_resp_3.rt,end_instructions_resp_3.started,end_instructions_resp_3.stopped,id_input_instr.started,id_input_instr.stopped,id_input_rect.started,id_input_rect.stopped,id_input_resp.keys,id_input_resp.rt,id_input_resp.started,id_input_resp.stopped,sonaID,id_input_text.started,id_input_text.stopped,final_text.started,final_text.stopped,instructions.started,instructions.stopped,end_instructions_resp.keys,end_instructions_resp.rt,end_instructions_resp.started,end_instructions_resp.stopped,space_to_continue.started,space_to_continue.stopped,instructions_stage0.started,instructions_stage0.stopped,end_instructions_resp_stage0.keys,end_instructions_resp_stage0.rt,end_instructions_resp_stage0.started,end_instructions_resp_stage0.stopped,space_to_continue_stage0.started,space_to_continue_stage0.stopped,text.started,text.stopped,resp_text1.started,resp_text1.stopped,resp_text2.started,resp_text2.stopped,trial_resp.keys,trial_resp.corr,trial_resp.rt,trial_resp.started,trial_resp.stopped,cue1Image.started,cue1Image.stopped,cue2Image.started,cue2Image.stopped,cue1Image_fb.started,cue1Image_fb.stopped,cue2Image_fb.started,cue2Image_fb.stopped,fb_text_answer.started,fb_text_answer.stopped,feedback_image.started,feedback_image.stopped,instructions_stage1.started,instructions_stage1.stopped,end_instructions_resp_stage1.keys,end_instructions_resp_stage1.rt,end_instructions_resp_stage1.started,end_instructions_resp_stage1.stopped,space_to_continue_stage1.started,space_to_continue_stage1.stopped,instructions_2.started,instructions_2.stopped,end_instructions_resp_2.keys,end_instructions_resp_2.rt,end_instructions_resp_2.started,end_instructions_resp_2.stopped,press_space_to_continue_stage2.started,press_space_to_continue_stage2.stopped,instructions_testStage1.started,instructions_testStage1.stopped,end_instructions_resp_test1.keys,end_instructions_resp_test1.rt,end_instructions_resp_test1.started,end_instructions_resp_test1.stopped,press_space_to_continue_test1.started,press_space_to_continue_test1.stopped,cue1Image_testChoice.started,cue1Image_testChoice.stopped,cue2Image_testChoice.started,cue2Image_testChoice.stopped,test_resp.keys,test_resp.corr,test_resp.rt,test_resp.started,test_resp.stopped,cue1Image_testConf.started,cue1Image_testConf.stopped,cue2Image_testConf.started,cue2Image_testConf.stopped,conf_reminder.started,conf_reminder.stopped,conf_rating.response,conf_rating.rt,conf_rating.started,conf_rating.stopped,session,participant,date,expName,psychopyVersion,frameRate,
,,,,,,,,,,,,,,,,,,,,,,,,,,,,,,,,,,,,,,,,,,,"{'none': 'pictures/20M_AN_C.png', 'alpha': 'pictures/SHINEd_apple.png', 'beta': 'pictures/SHINEd_melon.png', 'theta': 'pictures/SHINEd_pepper.png', 'phi': 'pictures/SHINEd_pear.png', 'T1': 'pictures/33M_AN_C.png', 'T2': 'pictures/36M_AN_C.png', 'T3': 'pictures/34M_AN_C.png', 'T4': 'pictures/31M_AN_C.png', 'T5': 'pictures/38M_AN_C.png', 'T6': 'pictures/26M_AN_C.png', 'B1': 'pictures/23M_NE_C.png', 'B2': 'pictures/25M_NE_C.png', 'B3': 'pictures/32M_NE_C.png', 'B4': 'pictures/37M_NE_C.png', 'B5': 'pictures/20M_NE_C.png', 'B6': 'pictures/22M_NE_C.png'}",155.588921476,None,160.58680769700004,None,space,13.29852571200081,160.58680769700004,None,,,,,,,,,,,,,,,,,,,,,,,,,,,,,,,,,,,,,,,,,,,,,,,,,,,,,,,,,,,,,,,,,,,,,,,,,,,,,,,,,,,,,,,,,,,,,,,,001,108,2020_Feb_11_1214,spring_faces,3.1.5,60.05608517710116,
,,,,,,,,,,,,,,,,,,,,,,,,,,,,,,,,,,,,,,,,,,,,,,,,,,,,174.3868770909994,None,174.3868770909994,None,"['0', '7', '1', '6', 'l', 'y', 'e', 'a', 's']","[6.762414466999871, 7.242490051000459, 13.43439275899982, 13.722457543000019, 20.026430777000314, 20.298449238999638, 23.35445726600028, 23.65847961899999, 23.866464441999597]",174.3868770909994,None,,,,,,,,,,,,,,,,,,,,,,,,,,,,,,,,,,,,,,,,,,,,,,,,,,,,,,,,,,,,,,,,,,,,,,,,,,,,,,,,,,,,,,,,001,108,2020_Feb_11_1214,spring_faces,3.1.5,60.05608517710116,
,,,,,,,,,,,,,,,,,,,,,,,,,,,,,,,,,,,,,,,,,,,,,,,,,,,,,,,,,,,,0716lyeas,174.3868770909994,None,174.3868770909994,None,203.32046842399996,None,space,3.1009052339995833,208.3203562560002,None,,,,,,,,,,,,,,,,,,,,,,,,,,,,,,,,,,,,,,,,,,,,,,,,,,,,,,,,,,,,,,,,,,,,,,,,,,,,,001,108,2020_Feb_11_1214,spring_faces,3.1.5,60.05608517710116,
,,,,,,,,,,,,,,,,,,,,,,,,,,,,,,,,,,,,,,,,,,,,,,,,,,,,,,,,,,,,,,,,,,,,,,,208.3203562560002,None,211.47063760799938,None,space,3.094971744999384,216.47029668599953,None,,,,,,,,,,,,,,,,,,,,,,,,,,,,,,,,,,,,,,,,,,,,,,,,,,,,,,,,,,,,,,,,,,,,,001,108,2020_Feb_11_1214,spring_faces,3.1.5,60.05608517710116,
condition files/Stage0a.xlsx,0a,alpha,none,h,"['h', 'g']","['Chess', 'Go']","[0, 0.5]","[0, 0]",1,0,0,0,0,0,0,0,0,0,,,,,,,,,,,,,,,,,,,,,,,,,,,,,,,,,,,,,,,,,,,,,,,,,,,,,,,,,,,,,216.47029668599953,None,219.67060343100002,None,219.67060343100002,None,219.67060343100002,None,g,0,4.019059735000155,221.38625382600003,None,221.38625382600003,None,221.38625382600003,None,225.48670985599983,None,225.48670985599983,None,225.48670985599983,None,225.48670985599983,None,,,,,,,,,,,,,,,,,,,,,,,,,,,,,,,,,,,,,,,,,,,,001,108,2020_Feb_11_1214,spring_faces,3.1.5,60.05608517710116,
condition files/Stage0a.xlsx,0a,beta,none,g,"['h', 'g']","['Chess', 'Go']","[0, 0.5]","[0, 0]",1,0,0,0,0,0,0,1,1,1,,,,,,,,,,,,,,,,,,,,,,,,,,,,,,,,,,,,,,,,,,,,,,,,,,,,,,,,,,,,,,,227.43694443099957,None,227.43694443099957,None,227.43694443099957,None,h,0,2.0013177099999666,229.0039520270002,None,229.0039520270002,None,229.0039520270002,None,231.07024757499948,None,231.07024757499948,None,231.07024757499948,None,231.07024757499948,None,,,,,,,,,,,,,,,,,,,,,,,,,,,,,,,,,,,,,,,,,,,,001,108,2020_Feb_11_1214,spring_faces,3.1.5,60.05608517710116,
condition files/Stage0a.xlsx,0a,alpha,none,h,"['h', 'g']","['Chess', 'Go']","[0, 0.5]","[0, 0]",1,0,0,1,1,1,0,0,0,0,,,,,,,,,,,,,,,,,,,,,,,,,,,,,,,,,,,,,,,,,,,,,,,,,,,,,,,,,,,,,,,233.05404557899965,None,233.05404557899965,None,233.05404557899965,None,h,1,2.1138622299995404,234.58744161399954,None,234.58744161399954,None,234.58744161399954,None,236.7539899129997,None,236.7539899129997,None,236.7539899129997,None,236.7539899129997,None,,,,,,,,,,,,,,,,,,,,,,,,,,,,,,,,,,,,,,,,,,,,001,108,2020_Feb_11_1214,spring_faces,3.1.5,60.05608517710116,
condition files/Stage0a.xlsx,0a,beta,none,g,"['h', 'g']","['Chess', 'Go']","[0, 0.5]","[0, 0]",1,0,0,1,1,1,0,1,1,1,,,,,,,,,,,,,,,,,,,,,,,,,,,,,,,,,,,,,,,,,,,,,,,,,,,,,,,,,,,,,,,238.72079254300024,None,238.72079254300024,None,238.72079254300024,None,g,1,0.3507302680000066,240.2705460699999,None,240.2705460699999,None,240.2705460699999,None,240.6871820669994,None,240.6871820669994,None,240.6871820669994,None,240.6871820669994,None,,,,,,,,,,,,,,,,,,,,,,,,,,,,,,,,,,,,,,,,,,,,001,108,2020_Feb_11_1214,spring_faces,3.1.5,60.05608517710116,
condition files/Stage0a.xlsx,0a,alpha,none,h,"['h', 'g']","['Chess', 'Go']","[0, 0.5]","[0, 0]",1,0,0,2,2,2,0,0,0,0,,,,,,,,,,,,,,,,,,,,,,,,,,,,,,,,,,,,,,,,,,,,,,,,,,,,,,,,,,,,,,,242.6706752099999,None,242.6706752099999,None,242.6706752099999,None,h,1,1.794113001000369,244.20325662199957,None,244.20325662199957,None,244.20325662199957,None,246.05412570299995,None,246.05412570299995,None,246.05412570299995,None,246.05412570299995,None,,,,,,,,,,,,,,,,,,,,,,,,,,,,,,,,,,,,,,,,,,,,001,108,2020_Feb_11_1214,spring_faces,3.1.5,60.05608517710116,
condition files/Stage0a.xlsx,0a,beta,none,g,"['h', 'g']","['Chess', 'Go']","[0, 0.5]","[0, 0]",1,0,0,2,2,2,0,1,1,1,,,,,,,,,,,,,,,,,,,,,,,,,,,,,,,,,,,,,,,,,,,,,,,,,,,,,,,,,,,,,,,248.02028895799958,None,248.02028895799958,None,248.02028895799958,None,g,1,0.3478151050003362,249.55348295600015,None,249.55348295600015,None,249.55348295600015,None,249.95360615400023,None,249.95360615400023,None,249.95360615400023,None,249.95360615400023,None,,,,,,,,,,,,,,,,,,,,,,,,,,,,,,,,,,,,,,,,,,,,001,108,2020_Feb_11_1214,spring_faces,3.1.5,60.05608517710116,
condition files/Stage0a.xlsx,0a,alpha,none,h,"['h', 'g']","['Chess', 'Go']","[0, 0.5]","[0, 0]",1,0,0,3,3,3,0,0,0,0,,,,,,,,,,,,,,,,,,,,,,,,,,,,,,,,,,,,,,,,,,,,,,,,,,,,,,,,,,,,,,,251.9370685670001,None,251.9370685670001,None,251.9370685670001,None,h,1,0.42897041400010494,253.4723543330001,None,253.4723543330001,None,253.4723543330001,None,253.95427046500026,None,253.95427046500026,None,253.95427046500026,None,253.95427046500026,None,,,,,,,,,,,,,,,,,,,,,,,,,,,,,,,,,,,,,,,,,,,,001,108,2020_Feb_11_1214,spring_faces,3.1.5,60.05608517710116,
condition files/Stage0a.xlsx,0a,beta,none,g,"['h', 'g']","['Chess', 'Go']","[0, 0.5]","[0, 0]",1,0,0,3,3,3,0,1,1,1,,,,,,,,,,,,,,,,,,,,,,,,,,,,,,,,,,,,,,,,,,,,,,,,,,,,,,,,,,,,,,,255.92027852499996,None,255.92027852499996,None,255.92027852499996,None,g,1,0.48005425599967566,257.45326429099987,None,257.45326429099987,None,257.45326429099987,None,257.9870884739994,None,257.9870884739994,None,257.9870884739994,None,257.9870884739994,None,,,,,,,,,,,,,,,,,,,,,,,,,,,,,,,,,,,,,,,,,,,,001,108,2020_Feb_11_1214,spring_faces,3.1.5,60.05608517710116,
condition files/Stage0a.xlsx,0a,beta,none,g,"['h', 'g']","['Chess', 'Go']","[0, 0.5]","[0, 0]",1,0,0,4,4,4,0,0,0,1,,,,,,,,,,,,,,,,,,,,,,,,,,,,,,,,,,,,,,,,,,,,,,,,,,,,,,,,,,,,,,,259.9705959639996,None,259.9705959639996,None,259.9705959639996,None,g,1,0.9261216840004636,261.503255783,None,261.503255783,None,261.503255783,None,262.4873690349996,None,262.4873690349996,None,262.4873690349996,None,262.4873690349996,None,,,,,,,,,,,,,,,,,,,,,,,,,,,,,,,,,,,,,,,,,,,,001,108,2020_Feb_11_1214,spring_faces,3.1.5,60.05608517710116,
condition files/Stage0a.xlsx,0a,alpha,none,h,"['h', 'g']","['Chess', 'Go']","[0, 0.5]","[0, 0]",1,0,0,4,4,4,0,1,1,0,,,,,,,,,,,,,,,,,,,,,,,,,,,,,,,,,,,,,,,,,,,,,,,,,,,,,,,,,,,,,,,264.45377409999946,None,264.45377409999946,None,264.45377409999946,None,h,1,0.4898511880001024,265.9875082939998,None,265.9875082939998,None,265.9875082939998,None,266.5383046400002,None,266.5383046400002,None,266.5383046400002,None,266.5383046400002,None,,,,,,,,,,,,,,,,,,,,,,,,,,,,,,,,,,,,,,,,,,,,001,108,2020_Feb_11_1214,spring_faces,3.1.5,60.05608517710116,
condition files/Stage0a.xlsx,0a,alpha,none,h,"['h', 'g']","['Chess', 'Go']","[0, 0.5]","[0, 0]",1,0,0,5,5,5,0,0,0,0,,,,,,,,,,,,,,,,,,,,,,,,,,,,,,,,,,,,,,,,,,,,,,,,,,,,,,,,,,,,,,,268.5206093449997,None,268.5206093449997,None,268.5206093449997,None,h,1,2.007420449000165,270.05394961899947,None,270.05394961899947,None,270.05394961899947,None,272.1203046749997,None,272.1203046749997,None,272.1203046749997,None,272.1203046749997,None,,,,,,,,,,,,,,,,,,,,,,,,,,,,,,,,,,,,,,,,,,,,001,108,2020_Feb_11_1214,spring_faces,3.1.5,60.05608517710116,
condition files/Stage0a.xlsx,0a,beta,none,g,"['h', 'g']","['Chess', 'Go']","[0, 0.5]","[0, 0]",1,0,0,5,5,5,0,1,1,1,,,,,,,,,,,,,,,,,,,,,,,,,,,,,,,,,,,,,,,,,,,,,,,,,,,,,,,,,,,,,,,274.0867290999995,None,274.0867290999995,None,274.0867290999995,None,g,1,0.6166735759998119,275.62057960199945,None,275.62057960199945,None,275.62057960199945,None,276.2873480999997,None,276.2873480999997,None,276.2873480999997,None,276.2873480999997,None,,,,,,,,,,,,,,,,,,,,,,,,,,,,,,,,,,,,,,,,,,,,001,108,2020_Feb_11_1214,spring_faces,3.1.5,60.05608517710116,
condition files/Stage0b_1.xlsx,0b,none,beta,g,"['h', 'g']","['Chess', 'Go']","[-0.15, 0.5]","[0.15, 0.5]",0,1,0,6,6,6,0,0,0,1,,,,,,,,,,,,,,,,,,,,,,,,,,,,,,,,,,,,,,,,,,,,,,,,,,,,,,,,,,,,,,,278.3038807459998,None,278.3038807459998,None,278.3038807459998,None,g,1,0.7046131360002619,279.82071860499946,None,279.82071860499946,None,279.82071860499946,None,280.58859143599966,None,280.58859143599966,None,280.58859143599966,None,280.58859143599966,None,,,,,,,,,,,,,,,,,,,,,,,,,,,,,,,,,,,,,,,,,,,,001,108,2020_Feb_11_1214,spring_faces,3.1.5,60.05608517710116,
condition files/Stage0b_1.xlsx,0b,alpha,none,h,"['h', 'g']","['Chess', 'Go']","[-0.15, 0.5]","[0.15, 0.5]",1,0,0,6,6,6,0,1,1,0,,,,,,,,,,,,,,,,,,,,,,,,,,,,,,,,,,,,,,,,,,,,,,,,,,,,,,,,,,,,,,,282.5536334640001,None,282.5536334640001,None,282.5536334640001,None,h,1,0.9819016020001072,284.1034212220002,None,284.1034212220002,None,284.1034212220002,None,285.1383852609997,None,285.1383852609997,None,285.1383852609997,None,285.1383852609997,None,,,,,,,,,,,,,,,,,,,,,,,,,,,,,,,,,,,,,,,,,,,,001,108,2020_Feb_11_1214,spring_faces,3.1.5,60.05608517710116,
condition files/Stage0b_2.xlsx,0b,none,alpha,h,"['h', 'g']","['Chess', 'Go']","[-0.15, 0.5]","[0.15, 0.5]",0,1,0,7,7,7,0,0,0,0,,,,,,,,,,,,,,,,,,,,,,,,,,,,,,,,,,,,,,,,,,,,,,,,,,,,,,,,,,,,,,,287.1552426019998,None,287.1552426019998,None,287.1552426019998,None,h,1,0.604579580999598,288.6567877769994,None,288.6567877769994,None,288.6567877769994,None,289.320582499,None,289.320582499,None,289.320582499,None,289.320582499,None,,,,,,,,,,,,,,,,,,,,,,,,,,,,,,,,,,,,,,,,,,,,001,108,2020_Feb_11_1214,spring_faces,3.1.5,60.05608517710116,
condition files/Stage0b_2.xlsx,0b,beta,none,g,"['h', 'g']","['Chess', 'Go']","[-0.15, 0.5]","[0.15, 0.5]",1,0,0,7,7,7,0,1,1,1,,,,,,,,,,,,,,,,,,,,,,,,,,,,,,,,,,,,,,,,,,,,,,,,,,,,,,,,,,,,,,,291.28697487299996,None,291.28697487299996,None,291.28697487299996,None,g,1,0.6961113589995875,292.837211045,None,292.837211045,None,292.837211045,None,293.58920927300005,None,293.58920927300005,None,293.58920927300005,None,293.58920927300005,None,,,,,,,,,,,,,,,,,,,,,,,,,,,,,,,,,,,,,,,,,,,,001,108,2020_Feb_11_1214,spring_faces,3.1.5,60.05608517710116,
condition files/Stage0b_1.xlsx,0b,none,beta,g,"['h', 'g']","['Chess', 'Go']","[-0.15, 0.5]","[0.15, 0.5]",0,1,0,8,8,8,0,0,0,1,,,,,,,,,,,,,,,,,,,,,,,,,,,,,,,,,,,,,,,,,,,,,,,,,,,,,,,,,,,,,,,295.5705748239998,None,295.5705748239998,None,295.5705748239998,None,g,1,0.7950075480002852,297.1063224270001,None,297.1063224270001,None,297.1063224270001,None,297.9537062190002,None,297.9537062190002,None,297.9537062190002,None,297.9537062190002,None,,,,,,,,,,,,,,,,,,,,,,,,,,,,,,,,,,,,,,,,,,,,001,108,2020_Feb_11_1214,spring_faces,3.1.5,60.05608517710116,
condition files/Stage0b_1.xlsx,0b,alpha,none,h,"['h', 'g']","['Chess', 'Go']","[-0.15, 0.5]","[0.15, 0.5]",1,0,0,8,8,8,0,1,1,0,,,,,,,,,,,,,,,,,,,,,,,,,,,,,,,,,,,,,,,,,,,,,,,,,,,,,,,,,,,,,,,299.9203042250001,None,299.9203042250001,None,299.9203042250001,None,h,1,0.7332494209995275,301.45606760699957,None,301.45606760699957,None,301.45606760699957,None,302.25421783299953,None,302.25421783299953,None,302.25421783299953,None,302.25421783299953,None,,,,,,,,,,,,,,,,,,,,,,,,,,,,,,,,,,,,,,,,,,,,001,108,2020_Feb_11_1214,spring_faces,3.1.5,60.05608517710116,
condition files/Stage0b_2.xlsx,0b,none,alpha,h,"['h', 'g']","['Chess', 'Go']","[-0.15, 0.5]","[0.15, 0.5]",0,1,0,9,9,9,0,0,0,0,,,,,,,,,,,,,,,,,,,,,,,,,,,,,,,,,,,,,,,,,,,,,,,,,,,,,,,,,,,,,,,304.23713816300005,None,304.23713816300005,None,304.23713816300005,None,h,1,1.2334373399999095,305.77183665600023,None,305.77183665600023,None,305.77183665600023,None,307.0702751959998,None,307.0702751959998,None,307.0702751959998,None,307.0702751959998,None,,,,,,,,,,,,,,,,,,,,,,,,,,,,,,,,,,,,,,,,,,,,001,108,2020_Feb_11_1214,spring_faces,3.1.5,60.05608517710116,
condition files/Stage0b_2.xlsx,0b,beta,none,g,"['h', 'g']","['Chess', 'Go']","[-0.15, 0.5]","[0.15, 0.5]",1,0,0,9,9,9,0,1,1,1,,,,,,,,,,,,,,,,,,,,,,,,,,,,,,,,,,,,,,,,,,,,,,,,,,,,,,,,,,,,,,,309.0372857860002,None,309.0372857860002,None,309.0372857860002,None,g,1,0.449549408999701,310.5717267729997,None,310.5717267729997,None,310.5717267729997,None,311.08913035099977,None,311.08913035099977,None,311.08913035099977,None,311.08913035099977,None,,,,,,,,,,,,,,,,,,,,,,,,,,,,,,,,,,,,,,,,,,,,001,108,2020_Feb_11_1214,spring_faces,3.1.5,60.05608517710116,
condition files/Stage0b_1.xlsx,0b,none,beta,g,"['h', 'g']","['Chess', 'Go']","[-0.15, 0.5]","[0.15, 0.5]",0,1,0,10,10,10,0,0,0,1,,,,,,,,,,,,,,,,,,,,,,,,,,,,,,,,,,,,,,,,,,,,,,,,,,,,,,,,,,,,,,,313.06992512099987,None,313.06992512099987,None,313.06992512099987,None,g,1,0.7046416419998422,314.62069467499987,None,314.62069467499987,None,314.62069467499987,None,315.3875151980001,None,315.3875151980001,None,315.3875151980001,None,315.3875151980001,None,,,,,,,,,,,,,,,,,,,,,,,,,,,,,,,,,,,,,,,,,,,,001,108,2020_Feb_11_1214,spring_faces,3.1.5,60.05608517710116,
condition files/Stage0b_1.xlsx,0b,alpha,none,h,"['h', 'g']","['Chess', 'Go']","[-0.15, 0.5]","[0.15, 0.5]",1,0,0,10,10,10,0,1,1,0,,,,,,,,,,,,,,,,,,,,,,,,,,,,,,,,,,,,,,,,,,,,,,,,,,,,,,,,,,,,,,,317.35402482300015,None,317.35402482300015,None,317.35402482300015,None,h,1,0.5980778200000714,318.88725737299956,None,318.88725737299956,None,318.88725737299956,None,319.53838567,None,319.53838567,None,319.53838567,None,319.53838567,None,,,,,,,,,,,,,,,,,,,,,,,,,,,,,,,,,,,,,,,,,,,,001,108,2020_Feb_11_1214,spring_faces,3.1.5,60.05608517710116,
condition files/Stage0b_2.xlsx,0b,none,alpha,h,"['h', 'g']","['Chess', 'Go']","[-0.15, 0.5]","[0.15, 0.5]",0,1,0,11,11,11,0,0,0,0,,,,,,,,,,,,,,,,,,,,,,,,,,,,,,,,,,,,,,,,,,,,,,,,,,,,,,,,,,,,,,,321.52055760799976,None,321.52055760799976,None,321.52055760799976,None,h,1,0.861149220999323,323.0561083900002,None,323.0561083900002,None,323.0561083900002,None,323.97016166999947,None,323.97016166999947,None,323.97016166999947,None,323.97016166999947,None,,,,,,,,,,,,,,,,,,,,,,,,,,,,,,,,,,,,,,,,,,,,001,108,2020_Feb_11_1214,spring_faces,3.1.5,60.05608517710116,
condition files/Stage0b_2.xlsx,0b,beta,none,g,"['h', 'g']","['Chess', 'Go']","[-0.15, 0.5]","[0.15, 0.5]",1,0,0,11,11,11,0,1,1,1,,,,,,,,,,,,,,,,,,,,,,,,,,,,,,,,,,,,,,,,,,,,,,,,,,,,,,,,,,,,,,,325.9362710639998,None,325.9362710639998,None,325.9362710639998,None,g,1,0.7180493699997896,327.48721290899994,None,327.48721290899994,None,327.48721290899994,None,328.27313389400024,None,328.27313389400024,None,328.27313389400024,None,328.27313389400024,None,,,,,,,,,,,,,,,,,,,,,,,,,,,,,,,,,,,,,,,,,,,,001,108,2020_Feb_11_1214,spring_faces,3.1.5,60.05608517710116,
condition files/Stage0c_1.xlsx,0c,theta,alpha,h,"['h', 'g']","['Chess', 'Go']","[-0.15, 0.5]","[0.15, 0.5]",1,1,0,12,12,12,0,0,0,0,,,,,,,,,,,,,,,,,,,,,,,,,,,,,,,,,,,,,,,,,,,,,,,,,,,,,,,,,,,,,,,330.2537171670001,None,330.2537171670001,None,330.2537171670001,None,h,1,2.2570109690004756,331.820265288,None,331.820265288,None,331.820265288,None,334.1369289839995,None,334.1369289839995,None,334.1369289839995,None,334.1369289839995,None,,,,,,,,,,,,,,,,,,,,,,,,,,,,,,,,,,,,,,,,,,,,001,108,2020_Feb_11_1214,spring_faces,3.1.5,60.05608517710116,
condition files/Stage0c_1.xlsx,0c,phi,beta,g,"['h', 'g']","['Chess', 'Go']","[-0.15, 0.5]","[0.15, 0.5]",1,1,0,12,12,12,0,1,1,3,,,,,,,,,,,,,,,,,,,,,,,,,,,,,,,,,,,,,,,,,,,,,,,,,,,,,,,,,,,,,,,336.1036401499996,None,336.1036401499996,None,336.1036401499996,None,g,1,0.6752187780002714,337.6740729859994,None,337.6740729859994,None,337.6740729859994,None,338.4036597630002,None,338.4036597630002,None,338.4036597630002,None,338.4036597630002,None,,,,,,,,,,,,,,,,,,,,,,,,,,,,,,,,,,,,,,,,,,,,001,108,2020_Feb_11_1214,spring_faces,3.1.5,60.05608517710116,
condition files/Stage0c_1.xlsx,0c,alpha,phi,h,"['h', 'g']","['Chess', 'Go']","[-0.15, 0.5]","[0.15, 0.5]",1,1,0,12,12,12,0,2,2,1,,,,,,,,,,,,,,,,,,,,,,,,,,,,,,,,,,,,,,,,,,,,,,,,,,,,,,,,,,,,,,,340.37032497200016,None,340.37032497200016,None,340.37032497200016,None,h,1,3.453429538999444,341.90390839500014,None,341.90390839500014,None,341.90390839500014,None,345.420090908,None,345.420090908,None,345.420090908,None,345.420090908,None,,,,,,,,,,,,,,,,,,,,,,,,,,,,,,,,,,,,,,,,,,,,001,108,2020_Feb_11_1214,spring_faces,3.1.5,60.05608517710116,
condition files/Stage0c_1.xlsx,0c,beta,theta,g,"['h', 'g']","['Chess', 'Go']","[-0.15, 0.5]","[0.15, 0.5]",1,1,0,12,12,12,0,3,3,2,,,,,,,,,,,,,,,,,,,,,,,,,,,,,,,,,,,,,,,,,,,,,,,,,,,,,,,,,,,,,,,347.3871113289997,None,347.3871113289997,None,347.3871113289997,None,g,1,2.1008454759994493,348.9204086620002,None,348.9204086620002,None,348.9204086620002,None,351.08752222600015,None,351.08752222600015,None,351.08752222600015,None,351.08752222600015,None,,,,,,,,,,,,,,,,,,,,,,,,,,,,,,,,,,,,,,,,,,,,001,108,2020_Feb_11_1214,spring_faces,3.1.5,60.05608517710116,
condition files/Stage0c_2.xlsx,0c,beta,phi,g,"['h', 'g']","['Chess', 'Go']","[-0.15, 0.5]","[0.15, 0.5]",1,1,0,13,13,13,0,0,0,3,,,,,,,,,,,,,,,,,,,,,,,,,,,,,,,,,,,,,,,,,,,,,,,,,,,,,,,,,,,,,,,353.1201583379998,None,353.1201583379998,None,353.1201583379998,None,g,1,0.9616531749998103,354.6036578510002,None,354.6036578510002,None,354.6036578510002,None,355.606187632,None,355.606187632,None,355.606187632,None,355.606187632,None,,,,,,,,,,,,,,,,,,,,,,,,,,,,,,,,,,,,,,,,,,,,001,108,2020_Feb_11_1214,spring_faces,3.1.5,60.05608517710116,
condition files/Stage0c_2.xlsx,0c,phi,alpha,h,"['h', 'g']","['Chess', 'Go']","[-0.15, 0.5]","[0.15, 0.5]",1,1,0,13,13,13,0,1,1,1,,,,,,,,,,,,,,,,,,,,,,,,,,,,,,,,,,,,,,,,,,,,,,,,,,,,,,,,,,,,,,,357.5870257159995,None,357.5870257159995,None,357.5870257159995,None,h,1,3.1170579429999634,359.12029086799976,None,359.12029086799976,None,359.12029086799976,None,362.2874123089996,None,362.2874123089996,None,362.2874123089996,None,362.2874123089996,None,,,,,,,,,,,,,,,,,,,,,,,,,,,,,,,,,,,,,,,,,,,,001,108,2020_Feb_11_1214,spring_faces,3.1.5,60.05608517710116,
condition files/Stage0c_2.xlsx,0c,alpha,theta,h,"['h', 'g']","['Chess', 'Go']","[-0.15, 0.5]","[0.15, 0.5]",1,1,0,13,13,13,0,2,2,0,,,,,,,,,,,,,,,,,,,,,,,,,,,,,,,,,,,,,,,,,,,,,,,,,,,,,,,,,,,,,,,364.25375208900005,None,364.25375208900005,None,364.25375208900005,None,h,1,0.6261859599999298,365.78712793999966,None,365.78712793999966,None,365.78712793999966,None,366.4548542329994,None,366.4548542329994,None,366.4548542329994,None,366.4548542329994,None,,,,,,,,,,,,,,,,,,,,,,,,,,,,,,,,,,,,,,,,,,,,001,108,2020_Feb_11_1214,spring_faces,3.1.5,60.05608517710116,
condition files/Stage0c_2.xlsx,0c,theta,beta,g,"['h', 'g']","['Chess', 'Go']","[-0.15, 0.5]","[0.15, 0.5]",1,1,0,13,13,13,0,3,3,2,,,,,,,,,,,,,,,,,,,,,,,,,,,,,,,,,,,,,,,,,,,,,,,,,,,,,,,,,,,,,,,368.43695790999936,None,368.43695790999936,None,368.43695790999936,None,g,1,1.1628356049996,369.970479607,None,369.970479607,None,369.970479607,None,371.1871288889997,None,371.1871288889997,None,371.1871288889997,None,371.1871288889997,None,,,,,,,,,,,,,,,,,,,,,,,,,,,,,,,,,,,,,,,,,,,,001,108,2020_Feb_11_1214,spring_faces,3.1.5,60.05608517710116,
condition files/Stage0c_1.xlsx,0c,beta,theta,g,"['h', 'g']","['Chess', 'Go']","[-0.15, 0.5]","[0.15, 0.5]",1,1,0,14,14,14,0,0,0,2,,,,,,,,,,,,,,,,,,,,,,,,,,,,,,,,,,,,,,,,,,,,,,,,,,,,,,,,,,,,,,,373.1703469919994,None,373.1703469919994,None,373.1703469919994,None,g,1,0.9577802459998566,374.7035967900001,None,374.7035967900001,None,374.7035967900001,None,375.7068283359995,None,375.7068283359995,None,375.7068283359995,None,375.7068283359995,None,,,,,,,,,,,,,,,,,,,,,,,,,,,,,,,,,,,,,,,,,,,,001,108,2020_Feb_11_1214,spring_faces,3.1.5,60.05608517710116,
condition files/Stage0c_1.xlsx,0c,theta,alpha,h,"['h', 'g']","['Chess', 'Go']","[-0.15, 0.5]","[0.15, 0.5]",1,1,0,14,14,14,0,1,1,0,,,,,,,,,,,,,,,,,,,,,,,,,,,,,,,,,,,,,,,,,,,,,,,,,,,,,,,,,,,,,,,377.68628710600024,None,377.68628710600024,None,377.68628710600024,None,h,1,1.0965785540001889,379.2206706520001,None,379.2206706520001,None,379.2206706520001,None,380.37055078699996,None,380.37055078699996,None,380.37055078699996,None,380.37055078699996,None,,,,,,,,,,,,,,,,,,,,,,,,,,,,,,,,,,,,,,,,,,,,001,108,2020_Feb_11_1214,spring_faces,3.1.5,60.05608517710116,
condition files/Stage0c_1.xlsx,0c,phi,beta,g,"['h', 'g']","['Chess', 'Go']","[-0.15, 0.5]","[0.15, 0.5]",1,1,0,14,14,14,0,2,2,3,,,,,,,,,,,,,,,,,,,,,,,,,,,,,,,,,,,,,,,,,,,,,,,,,,,,,,,,,,,,,,,382.3367443930001,None,382.3367443930001,None,382.3367443930001,None,g,1,0.8627385419995335,383.8705836629997,None,383.8705836629997,None,383.8705836629997,None,384.7873075839998,None,384.7873075839998,None,384.7873075839998,None,384.7873075839998,None,,,,,,,,,,,,,,,,,,,,,,,,,,,,,,,,,,,,,,,,,,,,001,108,2020_Feb_11_1214,spring_faces,3.1.5,60.05608517710116,
condition files/Stage0c_1.xlsx,0c,alpha,phi,h,"['h', 'g']","['Chess', 'Go']","[-0.15, 0.5]","[0.15, 0.5]",1,1,0,14,14,14,0,3,3,1,,,,,,,,,,,,,,,,,,,,,,,,,,,,,,,,,,,,,,,,,,,,,,,,,,,,,,,,,,,,,,,386.75321035399975,None,386.75321035399975,None,386.75321035399975,None,h,1,1.886443961000623,388.2868905999994,None,388.2868905999994,None,388.2868905999994,None,390.2370851879996,None,390.2370851879996,None,390.2370851879996,None,390.2370851879996,None,,,,,,,,,,,,,,,,,,,,,,,,,,,,,,,,,,,,,,,,,,,,001,108,2020_Feb_11_1214,spring_faces,3.1.5,60.05608517710116,
condition files/Stage0c_2.xlsx,0c,beta,phi,g,"['h', 'g']","['Chess', 'Go']","[-0.15, 0.5]","[0.15, 0.5]",1,1,0,15,15,15,0,0,0,3,,,,,,,,,,,,,,,,,,,,,,,,,,,,,,,,,,,,,,,,,,,,,,,,,,,,,,,,,,,,,,,392.2205775779994,None,392.2205775779994,None,392.2205775779994,None,g,1,0.8994058649996077,393.7539348499995,None,393.7539348499995,None,393.7539348499995,None,394.7039909919995,None,394.7039909919995,None,394.7039909919995,None,394.7039909919995,None,,,,,,,,,,,,,,,,,,,,,,,,,,,,,,,,,,,,,,,,,,,,001,108,2020_Feb_11_1214,spring_faces,3.1.5,60.05608517710116,
condition files/Stage0c_2.xlsx,0c,phi,alpha,h,"['h', 'g']","['Chess', 'Go']","[-0.15, 0.5]","[0.15, 0.5]",1,1,0,15,15,15,0,1,1,1,,,,,,,,,,,,,,,,,,,,,,,,,,,,,,,,,,,,,,,,,,,,,,,,,,,,,,,,,,,,,,,396.6702766640001,None,396.6702766640001,None,396.6702766640001,None,g,0,0.8818224110000301,398.2035046789997,None,398.2035046789997,None,398.2035046789997,None,399.1373207830002,None,399.1373207830002,None,399.1373207830002,None,399.1373207830002,None,,,,,,,,,,,,,,,,,,,,,,,,,,,,,,,,,,,,,,,,,,,,001,108,2020_Feb_11_1214,spring_faces,3.1.5,60.05608517710116,
condition files/Stage0c_2.xlsx,0c,theta,beta,g,"['h', 'g']","['Chess', 'Go']","[-0.15, 0.5]","[0.15, 0.5]",1,1,0,15,15,15,0,2,2,2,,,,,,,,,,,,,,,,,,,,,,,,,,,,,,,,,,,,,,,,,,,,,,,,,,,,,,,,,,,,,,,401.103433667,None,401.103433667,None,401.103433667,None,g,1,2.4958534059996964,402.6374663529996,None,402.6374663529996,None,402.6374663529996,None,405.18727698099974,None,405.18727698099974,None,405.18727698099974,None,405.18727698099974,None,,,,,,,,,,,,,,,,,,,,,,,,,,,,,,,,,,,,,,,,,,,,001,108,2020_Feb_11_1214,spring_faces,3.1.5,60.05608517710116,
condition files/Stage0c_2.xlsx,0c,alpha,theta,h,"['h', 'g']","['Chess', 'Go']","[-0.15, 0.5]","[0.15, 0.5]",1,1,0,15,15,15,0,3,3,0,,,,,,,,,,,,,,,,,,,,,,,,,,,,,,,,,,,,,,,,,,,,,,,,,,,,,,,,,,,,,,,407.1538945809998,None,407.1538945809998,None,407.1538945809998,None,h,1,0.8780130510003801,408.6872636629996,None,408.6872636629996,None,408.6872636629996,None,409.62058018900007,None,409.62058018900007,None,409.62058018900007,None,409.62058018900007,None,,,,,,,,,,,,,,,,,,,,,,,,,,,,,,,,,,,,,,,,,,,,001,108,2020_Feb_11_1214,spring_faces,3.1.5,60.05608517710116,
condition files/Stage0c_1.xlsx,0c,theta,alpha,h,"['h', 'g']","['Chess', 'Go']","[-0.15, 0.5]","[0.15, 0.5]",1,1,0,16,16,16,0,0,0,0,,,,,,,,,,,,,,,,,,,,,,,,,,,,,,,,,,,,,,,,,,,,,,,,,,,,,,,,,,,,,,,411.6042308639999,None,411.6042308639999,None,411.6042308639999,None,h,1,0.7798912919997747,413.13736161699944,None,413.13736161699944,None,413.13736161699944,None,413.95523534699987,None,413.95523534699987,None,413.95523534699987,None,413.95523534699987,None,,,,,,,,,,,,,,,,,,,,,,,,,,,,,,,,,,,,,,,,,,,,001,108,2020_Feb_11_1214,spring_faces,3.1.5,60.05608517710116,
condition files/Stage0c_1.xlsx,0c,beta,theta,g,"['h', 'g']","['Chess', 'Go']","[-0.15, 0.5]","[0.15, 0.5]",1,1,0,16,16,16,0,1,1,2,,,,,,,,,,,,,,,,,,,,,,,,,,,,,,,,,,,,,,,,,,,,,,,,,,,,,,,,,,,,,,,415.93695203399966,None,415.93695203399966,None,415.93695203399966,None,g,1,0.7667093250001926,417.4705691429999,None,417.4705691429999,None,417.4705691429999,None,418.286781541,None,418.286781541,None,418.286781541,None,418.286781541,None,,,,,,,,,,,,,,,,,,,,,,,,,,,,,,,,,,,,,,,,,,,,001,108,2020_Feb_11_1214,spring_faces,3.1.5,60.05608517710116,
condition files/Stage0c_1.xlsx,0c,alpha,phi,h,"['h', 'g']","['Chess', 'Go']","[-0.15, 0.5]","[0.15, 0.5]",1,1,0,16,16,16,0,2,2,1,,,,,,,,,,,,,,,,,,,,,,,,,,,,,,,,,,,,,,,,,,,,,,,,,,,,,,,,,,,,,,,420.25327481800014,None,420.25327481800014,None,420.25327481800014,None,h,1,0.7060703449997163,421.78725771300014,None,421.78725771300014,None,421.78725771300014,None,422.55373084999974,None,422.55373084999974,None,422.55373084999974,None,422.55373084999974,None,,,,,,,,,,,,,,,,,,,,,,,,,,,,,,,,,,,,,,,,,,,,001,108,2020_Feb_11_1214,spring_faces,3.1.5,60.05608517710116,
condition files/Stage0c_1.xlsx,0c,phi,beta,g,"['h', 'g']","['Chess', 'Go']","[-0.15, 0.5]","[0.15, 0.5]",1,1,0,16,16,16,0,3,3,3,,,,,,,,,,,,,,,,,,,,,,,,,,,,,,,,,,,,,,,,,,,,,,,,,,,,,,,,,,,,,,,424.5202671469997,None,424.5202671469997,None,424.5202671469997,None,g,1,1.4635536089999732,426.0537065560002,None,426.0537065560002,None,426.0537065560002,None,427.5707899199997,None,427.5707899199997,None,427.5707899199997,None,427.5707899199997,None,,,,,,,,,,,,,,,,,,,,,,,,,,,,,,,,,,,,,,,,,,,,001,108,2020_Feb_11_1214,spring_faces,3.1.5,60.05608517710116,
condition files/Stage0c_2.xlsx,0c,beta,phi,g,"['h', 'g']","['Chess', 'Go']","[-0.15, 0.5]","[0.15, 0.5]",1,1,0,17,17,17,0,0,0,3,,,,,,,,,,,,,,,,,,,,,,,,,,,,,,,,,,,,,,,,,,,,,,,,,,,,,,,,,,,,,,,429.5539420059995,None,429.5539420059995,None,429.5539420059995,None,g,1,0.7823114480006552,431.0870399939995,None,431.0870399939995,None,431.0870399939995,None,431.9057709970002,None,431.9057709970002,None,431.9057709970002,None,431.9057709970002,None,,,,,,,,,,,,,,,,,,,,,,,,,,,,,,,,,,,,,,,,,,,,001,108,2020_Feb_11_1214,spring_faces,3.1.5,60.05608517710116,
condition files/Stage0c_2.xlsx,0c,phi,alpha,h,"['h', 'g']","['Chess', 'Go']","[-0.15, 0.5]","[0.15, 0.5]",1,1,0,17,17,17,0,1,1,1,,,,,,,,,,,,,,,,,,,,,,,,,,,,,,,,,,,,,,,,,,,,,,,,,,,,,,,,,,,,,,,433.88718921599957,None,433.88718921599957,None,433.88718921599957,None,g,0,0.7849999109994314,435.420322508,None,435.420322508,None,435.420322508,None,436.27033848799965,None,436.27033848799965,None,436.27033848799965,None,436.27033848799965,None,,,,,,,,,,,,,,,,,,,,,,,,,,,,,,,,,,,,,,,,,,,,001,108,2020_Feb_11_1214,spring_faces,3.1.5,60.05608517710116,
condition files/Stage0c_2.xlsx,0c,alpha,theta,h,"['h', 'g']","['Chess', 'Go']","[-0.15, 0.5]","[0.15, 0.5]",1,1,0,17,17,17,0,2,2,0,,,,,,,,,,,,,,,,,,,,,,,,,,,,,,,,,,,,,,,,,,,,,,,,,,,,,,,,,,,,,,,438.2366292830002,None,438.2366292830002,None,438.2366292830002,None,h,1,0.8993292450004446,439.770011652,None,439.770011652,None,439.770011652,None,440.7050139109997,None,440.7050139109997,None,440.7050139109997,None,440.7050139109997,None,,,,,,,,,,,,,,,,,,,,,,,,,,,,,,,,,,,,,,,,,,,,001,108,2020_Feb_11_1214,spring_faces,3.1.5,60.05608517710116,
condition files/Stage0c_2.xlsx,0c,theta,beta,g,"['h', 'g']","['Chess', 'Go']","[-0.15, 0.5]","[0.15, 0.5]",1,1,0,17,17,17,0,3,3,2,,,,,,,,,,,,,,,,,,,,,,,,,,,,,,,,,,,,,,,,,,,,,,,,,,,,,,,,,,,,,,,442.6871931759997,None,442.6871931759997,None,442.6871931759997,None,g,1,0.9127015350004513,444.22061862099963,None,444.22061862099963,None,444.22061862099963,None,445.18725804299993,None,445.18725804299993,None,445.18725804299993,None,445.18725804299993,None,,,,,,,,,,,,,,,,,,,,,,,,,,,,,,,,,,,,,,,,,,,,001,108,2020_Feb_11_1214,spring_faces,3.1.5,60.05608517710116,
,,,,,,,,,,,,,,,,,,,,,,,,,,,,,,,,,,,,,,,,,,,,,,,,,,,,,,,,,,,,,,,,,,,,,,,,,,,,,,,,,,,,,,,,,,,,,,,,,,,,,,,,447.17058040400025,None,space,0.7390187719993264,452.1703364340001,None,,,,,,,,,,,,,,,,,,,,,,,,,,,,,,,,,,,,,,001,108,2020_Feb_11_1214,spring_faces,3.1.5,60.05608517710116,
condition files/Stage1_1.xlsx,,B2,T1,m,"['c', 'm']","['Clue', 'Monopoly']","[-0.15, 0.5]","[0.15, 0.5]",1,1,,,,,,,,,0,0,0,0,0,0,0,2,,,,,,,,,,,,,,,,,,,,,,,,,,,,,,,,,,,,,,,,,,,,,,,,,,,,,,,453.0206206060002,None,453.0206206060002,None,453.0206206060002,None,m,1,2.228465559000142,454.53681460999996,None,454.53681460999996,None,454.53681460999996,None,456.83622065300005,None,456.83622065300005,None,456.83622065300005,None,456.83622065300005,None,,,,,,,452.1703364340001,None,,,,,,,,,,,,,,,,,,,,,,,,,,,,,,,,,,,,001,108,2020_Feb_11_1214,spring_faces,3.1.5,60.05608517710116,
condition files/Stage1_1.xlsx,,T3,B4,c,"['c', 'm']","['Clue', 'Monopoly']","[-0.15, 0.5]","[0.15, 0.5]",1,1,,,,,,,,,0,0,0,0,0,1,1,5,,,,,,,,,,,,,,,,,,,,,,,,,,,,,,,,,,,,,,,,,,,,,,,,,,,,,,,458.7870548949995,None,458.7870548949995,None,458.7870548949995,None,c,1,1.0040234480002255,460.3533133969995,None,460.3533133969995,None,460.3533133969995,None,461.42317936499967,None,461.42317936499967,None,461.42317936499967,None,461.42317936499967,None,,,,,,,,,,,,,,,,,,,,,,,,,,,,,,,,,,,,,,,,,,,,001,108,2020_Feb_11_1214,spring_faces,3.1.5,60.05608517710116,
condition files/Stage1_1.xlsx,,T2,B2,m,"['c', 'm']","['Clue', 'Monopoly']","[-0.15, 0.5]","[0.15, 0.5]",1,1,,,,,,,,,0,0,0,0,0,2,2,3,,,,,,,,,,,,,,,,,,,,,,,,,,,,,,,,,,,,,,,,,,,,,,,,,,,,,,,463.38730407,None,463.38730407,None,463.38730407,None,c,0,1.0904618419999679,464.97089105399937,None,464.97089105399937,None,464.97089105399937,None,466.1209165809996,None,466.1209165809996,None,466.1209165809996,None,466.1209165809996,None,,,,,,,,,,,,,,,,,,,,,,,,,,,,,,,,,,,,,,,,,,,,001,108,2020_Feb_11_1214,spring_faces,3.1.5,60.05608517710116,
condition files/Stage1_1.xlsx,,T4,B3,m,"['c', 'm']","['Clue', 'Monopoly']","[-0.15, 0.5]","[0.15, 0.5]",1,1,,,,,,,,,0,0,0,0,0,3,3,6,,,,,,,,,,,,,,,,,,,,,,,,,,,,,,,,,,,,,,,,,,,,,,,,,,,,,,,468.08710732500003,None,468.08710732500003,None,468.08710732500003,None,m,1,1.6882583900005557,469.6370767769995,None,469.6370767769995,None,469.6370767769995,None,471.387235403,None,471.387235403,None,471.387235403,None,471.387235403,None,,,,,,,,,,,,,,,,,,,,,,,,,,,,,,,,,,,,,,,,,,,,001,108,2020_Feb_11_1214,spring_faces,3.1.5,60.05608517710116,
condition files/Stage1_1.xlsx,,B4,T4,m,"['c', 'm']","['Clue', 'Monopoly']","[-0.15, 0.5]","[0.15, 0.5]",1,1,,,,,,,,,0,0,0,0,0,4,4,7,,,,,,,,,,,,,,,,,,,,,,,,,,,,,,,,,,,,,,,,,,,,,,,,,,,,,,,473.35364986900004,None,473.35364986900004,None,473.35364986900004,None,c,0,1.5881157940002595,474.8892673139999,None,474.8892673139999,None,474.8892673139999,None,476.53735149099975,None,476.53735149099975,None,476.53735149099975,None,476.53735149099975,None,,,,,,,,,,,,,,,,,,,,,,,,,,,,,,,,,,,,,,,,,,,,001,108,2020_Feb_11_1214,spring_faces,3.1.5,60.05608517710116,
condition files/Stage1_1.xlsx,,T1,B1,c,"['c', 'm']","['Clue', 'Monopoly']","[-0.15, 0.5]","[0.15, 0.5]",1,1,,,,,,,,,0,0,0,0,0,5,5,0,,,,,,,,,,,,,,,,,,,,,,,,,,,,,,,,,,,,,,,,,,,,,,,,,,,,,,,478.5039564509998,None,478.5039564509998,None,478.5039564509998,None,m,0,1.8798572660007267,480.05343047299993,None,480.05343047299993,None,480.05343047299993,None,481.98802619100024,None,481.98802619100024,None,481.98802619100024,None,481.98802619100024,None,,,,,,,,,,,,,,,,,,,,,,,,,,,,,,,,,,,,,,,,,,,,001,108,2020_Feb_11_1214,spring_faces,3.1.5,60.05608517710116,
condition files/Stage1_1.xlsx,,B1,T2,c,"['c', 'm']","['Clue', 'Monopoly']","[-0.15, 0.5]","[0.15, 0.5]",1,1,,,,,,,,,0,0,0,0,0,6,6,1,,,,,,,,,,,,,,,,,,,,,,,,,,,,,,,,,,,,,,,,,,,,,,,,,,,,,,,483.9533579829995,None,483.9533579829995,None,483.9533579829995,None,m,0,1.2460598509996998,485.4872280459995,None,485.4872280459995,None,485.4872280459995,None,486.7868659280002,None,486.7868659280002,None,486.7868659280002,None,486.7868659280002,None,,,,,,,,,,,,,,,,,,,,,,,,,,,,,,,,,,,,,,,,,,,,001,108,2020_Feb_11_1214,spring_faces,3.1.5,60.05608517710116,
condition files/Stage1_1.xlsx,,B3,T3,c,"['c', 'm']","['Clue', 'Monopoly']","[-0.15, 0.5]","[0.15, 0.5]",1,1,,,,,,,,,0,0,0,0,0,7,7,4,,,,,,,,,,,,,,,,,,,,,,,,,,,,,,,,,,,,,,,,,,,,,,,,,,,,,,,488.7536050239996,None,488.7536050239996,None,488.7536050239996,None,m,0,1.7904492200004825,490.2869381089995,None,490.2869381089995,None,490.2869381089995,None,492.13655990200004,None,492.13655990200004,None,492.13655990200004,None,492.13655990200004,None,,,,,,,,,,,,,,,,,,,,,,,,,,,,,,,,,,,,,,,,,,,,001,108,2020_Feb_11_1214,spring_faces,3.1.5,60.05608517710116,
condition files/Stage1_2.xlsx,,T1,B2,m,"['c', 'm']","['Clue', 'Monopoly']","[-0.15, 0.5]","[0.15, 0.5]",1,1,,,,,,,,,0,1,1,1,0,0,0,2,,,,,,,,,,,,,,,,,,,,,,,,,,,,,,,,,,,,,,,,,,,,,,,,,,,,,,,494.1197679850002,None,494.1197679850002,None,494.1197679850002,None,c,0,0.7905890359998011,495.65480242800004,None,495.65480242800004,None,495.65480242800004,None,496.5056218330001,None,496.5056218330001,None,496.5056218330001,None,496.5056218330001,None,,,,,,,,,,,,,,,,,,,,,,,,,,,,,,,,,,,,,,,,,,,,001,108,2020_Feb_11_1214,spring_faces,3.1.5,60.05608517710116,
condition files/Stage1_2.xlsx,,T4,B4,m,"['c', 'm']","['Clue', 'Monopoly']","[-0.15, 0.5]","[0.15, 0.5]",1,1,,,,,,,,,0,1,1,1,0,1,1,7,,,,,,,,,,,,,,,,,,,,,,,,,,,,,,,,,,,,,,,,,,,,,,,,,,,,,,,498.47040737799944,None,498.47040737799944,None,498.47040737799944,None,c,0,1.6418059580000772,500.0035789630001,None,500.0035789630001,None,500.0035789630001,None,501.7039385709995,None,501.7039385709995,None,501.7039385709995,None,501.7039385709995,None,,,,,,,,,,,,,,,,,,,,,,,,,,,,,,,,,,,,,,,,,,,,001,108,2020_Feb_11_1214,spring_faces,3.1.5,60.05608517710116,
condition files/Stage1_2.xlsx,,T2,B1,c,"['c', 'm']","['Clue', 'Monopoly']","[-0.15, 0.5]","[0.15, 0.5]",1,1,,,,,,,,,0,1,1,1,0,2,2,1,,,,,,,,,,,,,,,,,,,,,,,,,,,,,,,,,,,,,,,,,,,,,,,,,,,,,,,503.6700415939995,None,503.6700415939995,None,503.6700415939995,None,m,0,0.7753341090001413,505.2059902359997,None,505.2059902359997,None,505.2059902359997,None,506.0400618220001,None,506.0400618220001,None,506.0400618220001,None,506.0400618220001,None,,,,,,,,,,,,,,,,,,,,,,,,,,,,,,,,,,,,,,,,,,,,001,108,2020_Feb_11_1214,spring_faces,3.1.5,60.05608517710116,
condition files/Stage1_2.xlsx,,B1,T1,c,"['c', 'm']","['Clue', 'Monopoly']","[-0.15, 0.5]","[0.15, 0.5]",1,1,,,,,,,,,0,1,1,1,0,3,3,0,,,,,,,,,,,,,,,,,,,,,,,,,,,,,,,,,,,,,,,,,,,,,,,,,,,,,,,508.0036061239998,None,508.0036061239998,None,508.0036061239998,None,m,0,0.4443903080000382,509.53688028099987,None,509.53688028099987,None,509.53688028099987,None,510.03672082899993,None,510.03672082899993,None,510.03672082899993,None,510.03672082899993,None,,,,,,,,,,,,,,,,,,,,,,,,,,,,,,,,,,,,,,,,,,,,001,108,2020_Feb_11_1214,spring_faces,3.1.5,60.05608517710116,
condition files/Stage1_2.xlsx,,B4,T3,c,"['c', 'm']","['Clue', 'Monopoly']","[-0.15, 0.5]","[0.15, 0.5]",1,1,,,,,,,,,0,1,1,1,0,4,4,5,,,,,,,,,,,,,,,,,,,,,,,,,,,,,,,,,,,,,,,,,,,,,,,,,,,,,,,512.0036644679994,None,512.0036644679994,None,512.0036644679994,None,c,1,1.6916721200004758,513.5377201219999,None,513.5377201219999,None,513.5377201219999,None,515.2870062639995,None,515.2870062639995,None,515.2870062639995,None,515.2870062639995,None,,,,,,,,,,,,,,,,,,,,,,,,,,,,,,,,,,,,,,,,,,,,001,108,2020_Feb_11_1214,spring_faces,3.1.5,60.05608517710116,
condition files/Stage1_2.xlsx,,B2,T2,m,"['c', 'm']","['Clue', 'Monopoly']","[-0.15, 0.5]","[0.15, 0.5]",1,1,,,,,,,,,0,1,1,1,0,5,5,3,,,,,,,,,,,,,,,,,,,,,,,,,,,,,,,,,,,,,,,,,,,,,,,,,,,,,,,517.2536571310002,None,517.2536571310002,None,517.2536571310002,None,m,1,1.4326681379998263,518.788627979,None,518.788627979,None,518.788627979,None,520.2872012399994,None,520.2872012399994,None,520.2872012399994,None,520.2872012399994,None,,,,,,,,,,,,,,,,,,,,,,,,,,,,,,,,,,,,,,,,,,,,001,108,2020_Feb_11_1214,spring_faces,3.1.5,60.05608517710116,
condition files/Stage1_2.xlsx,,T3,B3,c,"['c', 'm']","['Clue', 'Monopoly']","[-0.15, 0.5]","[0.15, 0.5]",1,1,,,,,,,,,0,1,1,1,0,6,6,4,,,,,,,,,,,,,,,,,,,,,,,,,,,,,,,,,,,,,,,,,,,,,,,,,,,,,,,522.253675641,None,522.253675641,None,522.253675641,None,c,1,1.296593054999903,523.7887498959999,None,523.7887498959999,None,523.7887498959999,None,525.1539592059999,None,525.1539592059999,None,525.1539592059999,None,525.1539592059999,None,,,,,,,,,,,,,,,,,,,,,,,,,,,,,,,,,,,,,,,,,,,,001,108,2020_Feb_11_1214,spring_faces,3.1.5,60.05608517710116,
condition files/Stage1_2.xlsx,,B3,T4,m,"['c', 'm']","['Clue', 'Monopoly']","[-0.15, 0.5]","[0.15, 0.5]",1,1,,,,,,,,,0,1,1,1,0,7,7,6,,,,,,,,,,,,,,,,,,,,,,,,,,,,,,,,,,,,,,,,,,,,,,,,,,,,,,,527.1034181519999,None,527.1034181519999,None,527.1034181519999,None,m,1,1.9842265750003207,528.637054115,None,528.637054115,None,528.637054115,None,530.6895549259998,None,530.6895549259998,None,530.6895549259998,None,530.6895549259998,None,,,,,,,,,,,,,,,,,,,,,,,,,,,,,,,,,,,,,,,,,,,,001,108,2020_Feb_11_1214,spring_faces,3.1.5,60.05608517710116,
condition files/Stage1_1.xlsx,,B3,T3,c,"['c', 'm']","['Clue', 'Monopoly']","[-0.15, 0.5]","[0.15, 0.5]",1,1,,,,,,,,,0,2,2,2,0,0,0,4,,,,,,,,,,,,,,,,,,,,,,,,,,,,,,,,,,,,,,,,,,,,,,,,,,,,,,,532.6706037630001,None,532.6706037630001,None,532.6706037630001,None,m,0,3.21754095399956,534.2037601659995,None,534.2037601659995,None,534.2037601659995,None,537.4867694759996,None,537.4867694759996,None,537.4867694759996,None,537.4867694759996,None,,,,,,,,,,,,,,,,,,,,,,,,,,,,,,,,,,,,,,,,,,,,001,108,2020_Feb_11_1214,spring_faces,3.1.5,60.05608517710116,
condition files/Stage1_1.xlsx,,T2,B2,m,"['c', 'm']","['Clue', 'Monopoly']","[-0.15, 0.5]","[0.15, 0.5]",1,1,,,,,,,,,0,2,2,2,0,1,1,3,,,,,,,,,,,,,,,,,,,,,,,,,,,,,,,,,,,,,,,,,,,,,,,,,,,,,,,539.4529330469995,None,539.4529330469995,None,539.4529330469995,None,m,1,1.282789739000691,540.986568888,None,540.986568888,None,540.986568888,None,542.3219915089994,None,542.3219915089994,None,542.3219915089994,None,542.3219915089994,None,,,,,,,,,,,,,,,,,,,,,,,,,,,,,,,,,,,,,,,,,,,,001,108,2020_Feb_11_1214,spring_faces,3.1.5,60.05608517710116,
condition files/Stage1_1.xlsx,,B2,T1,m,"['c', 'm']","['Clue', 'Monopoly']","[-0.15, 0.5]","[0.15, 0.5]",1,1,,,,,,,,,0,2,2,2,0,2,2,2,,,,,,,,,,,,,,,,,,,,,,,,,,,,,,,,,,,,,,,,,,,,,,,,,,,,,,,544.2870796890002,None,544.2870796890002,None,544.2870796890002,None,m,1,1.4730718709997745,545.8202443949995,None,545.8202443949995,None,545.8202443949995,None,547.3533559259995,None,547.3533559259995,None,547.3533559259995,None,547.3533559259995,None,,,,,,,,,,,,,,,,,,,,,,,,,,,,,,,,,,,,,,,,,,,,001,108,2020_Feb_11_1214,spring_faces,3.1.5,60.05608517710116,
condition files/Stage1_1.xlsx,,B1,T2,c,"['c', 'm']","['Clue', 'Monopoly']","[-0.15, 0.5]","[0.15, 0.5]",1,1,,,,,,,,,0,2,2,2,0,3,3,1,,,,,,,,,,,,,,,,,,,,,,,,,,,,,,,,,,,,,,,,,,,,,,,,,,,,,,,549.3198421039997,None,549.3198421039997,None,549.3198421039997,None,m,0,0.7599439200002962,550.8533728829998,None,550.8533728829998,None,550.8533728829998,None,551.6726175160002,None,551.6726175160002,None,551.6726175160002,None,551.6726175160002,None,,,,,,,,,,,,,,,,,,,,,,,,,,,,,,,,,,,,,,,,,,,,001,108,2020_Feb_11_1214,spring_faces,3.1.5,60.05608517710116,
condition files/Stage1_1.xlsx,,B4,T4,m,"['c', 'm']","['Clue', 'Monopoly']","[-0.15, 0.5]","[0.15, 0.5]",1,1,,,,,,,,,0,2,2,2,0,4,4,7,,,,,,,,,,,,,,,,,,,,,,,,,,,,,,,,,,,,,,,,,,,,,,,,,,,,,,,553.6370000329998,None,553.6370000329998,None,553.6370000329998,None,m,1,1.8020485130000452,555.1713115969997,None,555.1713115969997,None,555.1713115969997,None,557.0537430069999,None,557.0537430069999,None,557.0537430069999,None,557.0537430069999,None,,,,,,,,,,,,,,,,,,,,,,,,,,,,,,,,,,,,,,,,,,,,001,108,2020_Feb_11_1214,spring_faces,3.1.5,60.05608517710116,
condition files/Stage1_1.xlsx,,T4,B3,m,"['c', 'm']","['Clue', 'Monopoly']","[-0.15, 0.5]","[0.15, 0.5]",1,1,,,,,,,,,0,2,2,2,0,5,5,6,,,,,,,,,,,,,,,,,,,,,,,,,,,,,,,,,,,,,,,,,,,,,,,,,,,,,,,559.0033571200001,None,559.0033571200001,None,559.0033571200001,None,m,1,1.3000050669998018,560.5373749949995,None,560.5373749949995,None,560.5373749949995,None,561.8876681969996,None,561.8876681969996,None,561.8876681969996,None,561.8876681969996,None,,,,,,,,,,,,,,,,,,,,,,,,,,,,,,,,,,,,,,,,,,,,001,108,2020_Feb_11_1214,spring_faces,3.1.5,60.05608517710116,
condition files/Stage1_1.xlsx,,T1,B1,c,"['c', 'm']","['Clue', 'Monopoly']","[-0.15, 0.5]","[0.15, 0.5]",1,1,,,,,,,,,0,2,2,2,0,6,6,0,,,,,,,,,,,,,,,,,,,,,,,,,,,,,,,,,,,,,,,,,,,,,,,,,,,,,,,563.8534733340002,None,563.8534733340002,None,563.8534733340002,None,c,1,3.6186598650001542,565.3866276419994,None,565.3866276419994,None,565.3866276419994,None,569.0720071989999,None,569.0720071989999,None,569.0720071989999,None,569.0720071989999,None,,,,,,,,,,,,,,,,,,,,,,,,,,,,,,,,,,,,,,,,,,,,001,108,2020_Feb_11_1214,spring_faces,3.1.5,60.05608517710116,
condition files/Stage1_1.xlsx,,T3,B4,c,"['c', 'm']","['Clue', 'Monopoly']","[-0.15, 0.5]","[0.15, 0.5]",1,1,,,,,,,,,0,2,2,2,0,7,7,5,,,,,,,,,,,,,,,,,,,,,,,,,,,,,,,,,,,,,,,,,,,,,,,,,,,,,,,571.0369452269997,None,571.0369452269997,None,571.0369452269997,None,c,1,1.3625399800002924,572.5867887389995,None,572.5867887389995,None,572.5867887389995,None,574.0035612689999,None,574.0035612689999,None,574.0035612689999,None,574.0035612689999,None,,,,,,,,,,,,,,,,,,,,,,,,,,,,,,,,,,,,,,,,,,,,001,108,2020_Feb_11_1214,spring_faces,3.1.5,60.05608517710116,
condition files/Stage1_2.xlsx,,B2,T2,m,"['c', 'm']","['Clue', 'Monopoly']","[-0.15, 0.5]","[0.15, 0.5]",1,1,,,,,,,,,0,3,3,3,0,0,0,3,,,,,,,,,,,,,,,,,,,,,,,,,,,,,,,,,,,,,,,,,,,,,,,,,,,,,,,575.9872247100002,None,575.9872247100002,None,575.9872247100002,None,m,1,1.3710783930000616,577.5222485699996,None,577.5222485699996,None,577.5222485699996,None,578.9565209909997,None,578.9565209909997,None,578.9565209909997,None,578.9565209909997,None,,,,,,,,,,,,,,,,,,,,,,,,,,,,,,,,,,,,,,,,,,,,001,108,2020_Feb_11_1214,spring_faces,3.1.5,60.05608517710116,
condition files/Stage1_2.xlsx,,B4,T3,c,"['c', 'm']","['Clue', 'Monopoly']","[-0.15, 0.5]","[0.15, 0.5]",1,1,,,,,,,,,0,3,3,3,0,1,1,5,,,,,,,,,,,,,,,,,,,,,,,,,,,,,,,,,,,,,,,,,,,,,,,,,,,,,,,580.9207889049994,None,580.9207889049994,None,580.9207889049994,None,m,0,1.5435648479997326,582.4538319570001,None,582.4538319570001,None,582.4538319570001,None,584.0546678359997,None,584.0546678359997,None,584.0546678359997,None,584.0546678359997,None,,,,,,,,,,,,,,,,,,,,,,,,,,,,,,,,,,,,,,,,,,,,001,108,2020_Feb_11_1214,spring_faces,3.1.5,60.05608517710116,
condition files/Stage1_2.xlsx,,T2,B1,c,"['c', 'm']","['Clue', 'Monopoly']","[-0.15, 0.5]","[0.15, 0.5]",1,1,,,,,,,,,0,3,3,3,0,2,2,1,,,,,,,,,,,,,,,,,,,,,,,,,,,,,,,,,,,,,,,,,,,,,,,,,,,,,,,586.0203588309996,None,586.0203588309996,None,586.0203588309996,None,m,0,1.435905126999387,587.5534407489995,None,587.5534407489995,None,587.5534407489995,None,589.0535342409994,None,589.0535342409994,None,589.0535342409994,None,589.0535342409994,None,,,,,,,,,,,,,,,,,,,,,,,,,,,,,,,,,,,,,,,,,,,,001,108,2020_Feb_11_1214,spring_faces,3.1.5,60.05608517710116,
condition files/Stage1_2.xlsx,,B1,T1,c,"['c', 'm']","['Clue', 'Monopoly']","[-0.15, 0.5]","[0.15, 0.5]",1,1,,,,,,,,,0,3,3,3,0,3,3,0,,,,,,,,,,,,,,,,,,,,,,,,,,,,,,,,,,,,,,,,,,,,,,,,,,,,,,,591.0201120219999,None,591.0201120219999,None,591.0201120219999,None,m,0,5.250963505999607,592.5543089309995,None,592.5543089309995,None,592.5543089309995,None,597.8705790679996,None,597.8705790679996,None,597.8705790679996,None,597.8705790679996,None,,,,,,,,,,,,,,,,,,,,,,,,,,,,,,,,,,,,,,,,,,,,001,108,2020_Feb_11_1214,spring_faces,3.1.5,60.05608517710116,
condition files/Stage1_2.xlsx,,T4,B4,m,"['c', 'm']","['Clue', 'Monopoly']","[-0.15, 0.5]","[0.15, 0.5]",1,1,,,,,,,,,0,3,3,3,0,4,4,7,,,,,,,,,,,,,,,,,,,,,,,,,,,,,,,,,,,,,,,,,,,,,,,,,,,,,,,599.8368665649996,None,599.8368665649996,None,599.8368665649996,None,m,1,3.2332217330003914,601.3721206649998,None,601.3721206649998,None,601.3721206649998,None,604.6716130039995,None,604.6716130039995,None,604.6716130039995,None,604.6716130039995,None,,,,,,,,,,,,,,,,,,,,,,,,,,,,,,,,,,,,,,,,,,,,001,108,2020_Feb_11_1214,spring_faces,3.1.5,60.05608517710116,
condition files/Stage1_2.xlsx,,T1,B2,m,"['c', 'm']","['Clue', 'Monopoly']","[-0.15, 0.5]","[0.15, 0.5]",1,1,,,,,,,,,0,3,3,3,0,5,5,2,,,,,,,,,,,,,,,,,,,,,,,,,,,,,,,,,,,,,,,,,,,,,,,,,,,,,,,606.6370480449996,None,606.6370480449996,None,606.6370480449996,None,c,0,1.8106077989996265,608.186771138,None,608.186771138,None,608.186771138,None,610.0541348409997,None,610.0541348409997,None,610.0541348409997,None,610.0541348409997,None,,,,,,,,,,,,,,,,,,,,,,,,,,,,,,,,,,,,,,,,,,,,001,108,2020_Feb_11_1214,spring_faces,3.1.5,60.05608517710116,
condition files/Stage1_2.xlsx,,T3,B3,c,"['c', 'm']","['Clue', 'Monopoly']","[-0.15, 0.5]","[0.15, 0.5]",1,1,,,,,,,,,0,3,3,3,0,6,6,4,,,,,,,,,,,,,,,,,,,,,,,,,,,,,,,,,,,,,,,,,,,,,,,,,,,,,,,612.0197893229997,None,612.0197893229997,None,612.0197893229997,None,c,1,1.1477945299993735,613.5535315030002,None,613.5535315030002,None,613.5535315030002,None,614.7548500749999,None,614.7548500749999,None,614.7548500749999,None,614.7548500749999,None,,,,,,,,,,,,,,,,,,,,,,,,,,,,,,,,,,,,,,,,,,,,001,108,2020_Feb_11_1214,spring_faces,3.1.5,60.05608517710116,
condition files/Stage1_2.xlsx,,B3,T4,m,"['c', 'm']","['Clue', 'Monopoly']","[-0.15, 0.5]","[0.15, 0.5]",1,1,,,,,,,,,0,3,3,3,0,7,7,6,,,,,,,,,,,,,,,,,,,,,,,,,,,,,,,,,,,,,,,,,,,,,,,,,,,,,,,616.7202263089994,None,616.7202263089994,None,616.7202263089994,None,m,1,2.3677243380006985,618.2535916520001,None,618.2535916520001,None,618.2535916520001,None,620.6867463459994,None,620.6867463459994,None,620.6867463459994,None,620.6867463459994,None,,,,,,,,,,,,,,,,,,,,,,,,,,,,,,,,,,,,,,,,,,,,001,108,2020_Feb_11_1214,spring_faces,3.1.5,60.05608517710116,
condition files/Stage1_1.xlsx,,T1,B1,c,"['c', 'm']","['Clue', 'Monopoly']","[-0.15, 0.5]","[0.15, 0.5]",1,1,,,,,,,,,0,4,4,4,0,0,0,0,,,,,,,,,,,,,,,,,,,,,,,,,,,,,,,,,,,,,,,,,,,,,,,,,,,,,,,622.6702144829997,None,622.6702144829997,None,622.6702144829997,None,c,1,1.9527056470005846,624.2046582490002,None,624.2046582490002,None,624.2046582490002,None,626.2206821689997,None,626.2206821689997,None,626.2206821689997,None,626.2206821689997,None,,,,,,,,,,,,,,,,,,,,,,,,,,,,,,,,,,,,,,,,,,,,001,108,2020_Feb_11_1214,spring_faces,3.1.5,60.05608517710116,
condition files/Stage1_1.xlsx,,B1,T2,c,"['c', 'm']","['Clue', 'Monopoly']","[-0.15, 0.5]","[0.15, 0.5]",1,1,,,,,,,,,0,4,4,4,0,1,1,1,,,,,,,,,,,,,,,,,,,,,,,,,,,,,,,,,,,,,,,,,,,,,,,,,,,,,,,628.1873668079998,None,628.1873668079998,None,628.1873668079998,None,c,1,2.805036824999661,629.7203139439998,None,629.7203139439998,None,629.7203139439998,None,632.5872546760002,None,632.5872546760002,None,632.5872546760002,None,632.5872546760002,None,,,,,,,,,,,,,,,,,,,,,,,,,,,,,,,,,,,,,,,,,,,,001,108,2020_Feb_11_1214,spring_faces,3.1.5,60.05608517710116,
condition files/Stage1_1.xlsx,,T3,B4,c,"['c', 'm']","['Clue', 'Monopoly']","[-0.15, 0.5]","[0.15, 0.5]",1,1,,,,,,,,,0,4,4,4,0,2,2,5,,,,,,,,,,,,,,,,,,,,,,,,,,,,,,,,,,,,,,,,,,,,,,,,,,,,,,,634.5531587799996,None,634.5531587799996,None,634.5531587799996,None,c,1,2.006612117000259,636.0866517389995,None,636.0866517389995,None,636.0866517389995,None,638.1539195679998,None,638.1539195679998,None,638.1539195679998,None,638.1539195679998,None,,,,,,,,,,,,,,,,,,,,,,,,,,,,,,,,,,,,,,,,,,,,001,108,2020_Feb_11_1214,spring_faces,3.1.5,60.05608517710116,
condition files/Stage1_1.xlsx,,B2,T1,m,"['c', 'm']","['Clue', 'Monopoly']","[-0.15, 0.5]","[0.15, 0.5]",1,1,,,,,,,,,0,4,4,4,0,3,3,2,,,,,,,,,,,,,,,,,,,,,,,,,,,,,,,,,,,,,,,,,,,,,,,,,,,,,,,640.1202116619997,None,640.1202116619997,None,640.1202116619997,None,m,1,1.5748247969995646,641.6544743160002,None,641.6544743160002,None,641.6544743160002,None,643.3041999709994,None,643.3041999709994,None,643.3041999709994,None,643.3041999709994,None,,,,,,,,,,,,,,,,,,,,,,,,,,,,,,,,,,,,,,,,,,,,001,108,2020_Feb_11_1214,spring_faces,3.1.5,60.05608517710116,
condition files/Stage1_1.xlsx,,T2,B2,m,"['c', 'm']","['Clue', 'Monopoly']","[-0.15, 0.5]","[0.15, 0.5]",1,1,,,,,,,,,0,4,4,4,0,4,4,3,,,,,,,,,,,,,,,,,,,,,,,,,,,,,,,,,,,,,,,,,,,,,,,,,,,,,,,645.253801631,None,645.253801631,None,645.253801631,None,c,0,1.0337350879999576,646.8035626069995,None,646.8035626069995,None,646.8035626069995,None,647.8866026850001,None,647.8866026850001,None,647.8866026850001,None,647.8866026850001,None,,,,,,,,,,,,,,,,,,,,,,,,,,,,,,,,,,,,,,,,,,,,001,108,2020_Feb_11_1214,spring_faces,3.1.5,60.05608517710116,
condition files/Stage1_1.xlsx,,B4,T4,m,"['c', 'm']","['Clue', 'Monopoly']","[-0.15, 0.5]","[0.15, 0.5]",1,1,,,,,,,,,0,4,4,4,0,5,5,7,,,,,,,,,,,,,,,,,,,,,,,,,,,,,,,,,,,,,,,,,,,,,,,,,,,,,,,649.8533006399994,None,649.8533006399994,None,649.8533006399994,None,m,1,1.7770910359995469,651.4041846989994,None,651.4041846989994,None,651.4041846989994,None,653.236962979,None,653.236962979,None,653.236962979,None,653.236962979,None,,,,,,,,,,,,,,,,,,,,,,,,,,,,,,,,,,,,,,,,,,,,001,108,2020_Feb_11_1214,spring_faces,3.1.5,60.05608517710116,
condition files/Stage1_1.xlsx,,B3,T3,c,"['c', 'm']","['Clue', 'Monopoly']","[-0.15, 0.5]","[0.15, 0.5]",1,1,,,,,,,,,0,4,4,4,0,6,6,4,,,,,,,,,,,,,,,,,,,,,,,,,,,,,,,,,,,,,,,,,,,,,,,,,,,,,,,655.2036778450001,None,655.2036778450001,None,655.2036778450001,None,m,0,2.8757885120003266,656.7375417859994,None,656.7375417859994,None,656.7375417859994,None,659.6705465959994,None,659.6705465959994,None,659.6705465959994,None,659.6705465959994,None,,,,,,,,,,,,,,,,,,,,,,,,,,,,,,,,,,,,,,,,,,,,001,108,2020_Feb_11_1214,spring_faces,3.1.5,60.05608517710116,
condition files/Stage1_1.xlsx,,T4,B3,m,"['c', 'm']","['Clue', 'Monopoly']","[-0.15, 0.5]","[0.15, 0.5]",1,1,,,,,,,,,0,4,4,4,0,7,7,6,,,,,,,,,,,,,,,,,,,,,,,,,,,,,,,,,,,,,,,,,,,,,,,,,,,,,,,661.6371512959995,None,661.6371512959995,None,661.6371512959995,None,m,1,1.6430503080000562,663.1702957159996,None,663.1702957159996,None,663.1702957159996,None,664.8873694249996,None,664.8873694249996,None,664.8873694249996,None,664.8873694249996,None,,,,,,,,,,,,,,,,,,,,,,,,,,,,,,,,,,,,,,,,,,,,001,108,2020_Feb_11_1214,spring_faces,3.1.5,60.05608517710116,
condition files/Stage1_2.xlsx,,B1,T1,c,"['c', 'm']","['Clue', 'Monopoly']","[-0.15, 0.5]","[0.15, 0.5]",1,1,,,,,,,,,0,5,5,5,0,0,0,0,,,,,,,,,,,,,,,,,,,,,,,,,,,,,,,,,,,,,,,,,,,,,,,,,,,,,,,666.8540019269994,None,666.8540019269994,None,666.8540019269994,None,m,0,1.8025606769997466,668.3867663539995,None,668.3867663539995,None,668.3867663539995,None,670.2535176410001,None,670.2535176410001,None,670.2535176410001,None,670.2535176410001,None,,,,,,,,,,,,,,,,,,,,,,,,,,,,,,,,,,,,,,,,,,,,001,108,2020_Feb_11_1214,spring_faces,3.1.5,60.05608517710116,
condition files/Stage1_2.xlsx,,T3,B3,c,"['c', 'm']","['Clue', 'Monopoly']","[-0.15, 0.5]","[0.15, 0.5]",1,1,,,,,,,,,0,5,5,5,0,1,1,4,,,,,,,,,,,,,,,,,,,,,,,,,,,,,,,,,,,,,,,,,,,,,,,,,,,,,,,672.2196112289994,None,672.2196112289994,None,672.2196112289994,None,m,0,4.355538935999903,673.7538075169996,None,673.7538075169996,None,673.7538075169996,None,678.1703755500002,None,678.1703755500002,None,678.1703755500002,None,678.1703755500002,None,,,,,,,,,,,,,,,,,,,,,,,,,,,,,,,,,,,,,,,,,,,,001,108,2020_Feb_11_1214,spring_faces,3.1.5,60.05608517710116,
condition files/Stage1_2.xlsx,,T1,B2,m,"['c', 'm']","['Clue', 'Monopoly']","[-0.15, 0.5]","[0.15, 0.5]",1,1,,,,,,,,,0,5,5,5,0,2,2,2,,,,,,,,,,,,,,,,,,,,,,,,,,,,,,,,,,,,,,,,,,,,,,,,,,,,,,,680.1370098389998,None,680.1370098389998,None,680.1370098389998,None,m,1,3.7164564989998325,681.6728772139995,None,681.6728772139995,None,681.6728772139995,None,685.4546387959999,None,685.4546387959999,None,685.4546387959999,None,685.4546387959999,None,,,,,,,,,,,,,,,,,,,,,,,,,,,,,,,,,,,,,,,,,,,,001,108,2020_Feb_11_1214,spring_faces,3.1.5,60.05608517710116,
condition files/Stage1_2.xlsx,,B4,T3,c,"['c', 'm']","['Clue', 'Monopoly']","[-0.15, 0.5]","[0.15, 0.5]",1,1,,,,,,,,,0,5,5,5,0,3,3,5,,,,,,,,,,,,,,,,,,,,,,,,,,,,,,,,,,,,,,,,,,,,,,,,,,,,,,,687.4205052669995,None,687.4205052669995,None,687.4205052669995,None,m,0,10.164061305999894,688.9534768049998,None,688.9534768049998,None,688.9534768049998,None,699.1716884850002,None,699.1716884850002,None,699.1716884850002,None,699.1716884850002,None,,,,,,,,,,,,,,,,,,,,,,,,,,,,,,,,,,,,,,,,,,,,001,108,2020_Feb_11_1214,spring_faces,3.1.5,60.05608517710116,
condition files/Stage1_2.xlsx,,T2,B1,c,"['c', 'm']","['Clue', 'Monopoly']","[-0.15, 0.5]","[0.15, 0.5]",1,1,,,,,,,,,0,5,5,5,0,4,4,1,,,,,,,,,,,,,,,,,,,,,,,,,,,,,,,,,,,,,,,,,,,,,,,,,,,,,,,701.1369602479999,None,701.1369602479999,None,701.1369602479999,None,m,0,3.245279773999755,702.6720452509999,None,702.6720452509999,None,702.6720452509999,None,705.9706440829996,None,705.9706440829996,None,705.9706440829996,None,705.9706440829996,None,,,,,,,,,,,,,,,,,,,,,,,,,,,,,,,,,,,,,,,,,,,,001,108,2020_Feb_11_1214,spring_faces,3.1.5,60.05608517710116,
condition files/Stage1_2.xlsx,,B2,T2,m,"['c', 'm']","['Clue', 'Monopoly']","[-0.15, 0.5]","[0.15, 0.5]",1,1,,,,,,,,,0,5,5,5,0,5,5,3,,,,,,,,,,,,,,,,,,,,,,,,,,,,,,,,,,,,,,,,,,,,,,,,,,,,,,,707.9369507419997,None,707.9369507419997,None,707.9369507419997,None,m,1,3.694790646999536,709.4704730409994,None,709.4704730409994,None,709.4704730409994,None,713.2226967380002,None,713.2226967380002,None,713.2226967380002,None,713.2226967380002,None,,,,,,,,,,,,,,,,,,,,,,,,,,,,,,,,,,,,,,,,,,,,001,108,2020_Feb_11_1214,spring_faces,3.1.5,60.05608517710116,
condition files/Stage1_2.xlsx,,T4,B4,m,"['c', 'm']","['Clue', 'Monopoly']","[-0.15, 0.5]","[0.15, 0.5]",1,1,,,,,,,,,0,5,5,5,0,6,6,7,,,,,,,,,,,,,,,,,,,,,,,,,,,,,,,,,,,,,,,,,,,,,,,,,,,,,,,715.1866587909999,None,715.1866587909999,None,715.1866587909999,None,m,1,9.324885977000122,716.720510223,None,716.720510223,None,716.720510223,None,726.103877517,None,726.103877517,None,726.103877517,None,726.103877517,None,,,,,,,,,,,,,,,,,,,,,,,,,,,,,,,,,,,,,,,,,,,,001,108,2020_Feb_11_1214,spring_faces,3.1.5,60.05608517710116,
condition files/Stage1_2.xlsx,,B3,T4,m,"['c', 'm']","['Clue', 'Monopoly']","[-0.15, 0.5]","[0.15, 0.5]",1,1,,,,,,,,,0,5,5,5,0,7,7,6,,,,,,,,,,,,,,,,,,,,,,,,,,,,,,,,,,,,,,,,,,,,,,,,,,,,,,,728.069758695,None,728.069758695,None,728.069758695,None,c,0,1.8180137350000223,729.603270951,None,729.603270951,None,729.603270951,None,731.4874374259998,None,731.4874374259998,None,731.4874374259998,None,731.4874374259998,None,,,,,,,,,,,,,,,,,,,,,,,,,,,,,,,,,,,,,,,,,,,,001,108,2020_Feb_11_1214,spring_faces,3.1.5,60.05608517710116,
condition files/Stage1_1.xlsx,,T1,B1,c,"['c', 'm']","['Clue', 'Monopoly']","[-0.15, 0.5]","[0.15, 0.5]",1,1,,,,,,,,,0,6,6,6,0,0,0,0,,,,,,,,,,,,,,,,,,,,,,,,,,,,,,,,,,,,,,,,,,,,,,,,,,,,,,,733.4703730969995,None,733.4703730969995,None,733.4703730969995,None,c,1,2.1458529840001574,735.0034588789995,None,735.0034588789995,None,735.0034588789995,None,737.2204760029999,None,737.2204760029999,None,737.2204760029999,None,737.2204760029999,None,,,,,,,,,,,,,,,,,,,,,,,,,,,,,,,,,,,,,,,,,,,,001,108,2020_Feb_11_1214,spring_faces,3.1.5,60.05608517710116,
condition files/Stage1_1.xlsx,,T3,B4,c,"['c', 'm']","['Clue', 'Monopoly']","[-0.15, 0.5]","[0.15, 0.5]",1,1,,,,,,,,,0,6,6,6,0,1,1,5,,,,,,,,,,,,,,,,,,,,,,,,,,,,,,,,,,,,,,,,,,,,,,,,,,,,,,,739.1704201009998,None,739.1704201009998,None,739.1704201009998,None,c,1,1.261147412000355,740.7041746539999,None,740.7041746539999,None,740.7041746539999,None,742.0206195609999,None,742.0206195609999,None,742.0206195609999,None,742.0206195609999,None,,,,,,,,,,,,,,,,,,,,,,,,,,,,,,,,,,,,,,,,,,,,001,108,2020_Feb_11_1214,spring_faces,3.1.5,60.05608517710116,
condition files/Stage1_1.xlsx,,B4,T4,m,"['c', 'm']","['Clue', 'Monopoly']","[-0.15, 0.5]","[0.15, 0.5]",1,1,,,,,,,,,0,6,6,6,0,2,2,7,,,,,,,,,,,,,,,,,,,,,,,,,,,,,,,,,,,,,,,,,,,,,,,,,,,,,,,743.9864032919995,None,743.9864032919995,None,743.9864032919995,None,m,1,0.49316487800024333,745.5201532589999,None,745.5201532589999,None,745.5201532589999,None,746.0873144449997,None,746.0873144449997,None,746.0873144449997,None,746.0873144449997,None,,,,,,,,,,,,,,,,,,,,,,,,,,,,,,,,,,,,,,,,,,,,001,108,2020_Feb_11_1214,spring_faces,3.1.5,60.05608517710116,
condition files/Stage1_1.xlsx,,T2,B2,m,"['c', 'm']","['Clue', 'Monopoly']","[-0.15, 0.5]","[0.15, 0.5]",1,1,,,,,,,,,0,6,6,6,0,3,3,3,,,,,,,,,,,,,,,,,,,,,,,,,,,,,,,,,,,,,,,,,,,,,,,,,,,,,,,748.0370334239997,None,748.0370334239997,None,748.0370334239997,None,m,1,0.41008696100016095,749.5872913619996,None,749.5872913619996,None,749.5872913619996,None,750.0538700589996,None,750.0538700589996,None,750.0538700589996,None,750.0538700589996,None,,,,,,,,,,,,,,,,,,,,,,,,,,,,,,,,,,,,,,,,,,,,001,108,2020_Feb_11_1214,spring_faces,3.1.5,60.05608517710116,
condition files/Stage1_1.xlsx,,B1,T2,c,"['c', 'm']","['Clue', 'Monopoly']","[-0.15, 0.5]","[0.15, 0.5]",1,1,,,,,,,,,0,6,6,6,0,4,4,1,,,,,,,,,,,,,,,,,,,,,,,,,,,,,,,,,,,,,,,,,,,,,,,,,,,,,,,752.0204203879994,None,752.0204203879994,None,752.0204203879994,None,m,0,0.427498087999993,753.5698783819998,None,753.5698783819998,None,753.5698783819998,None,754.0539276700001,None,754.0539276700001,None,754.0539276700001,None,754.0539276700001,None,,,,,,,,,,,,,,,,,,,,,,,,,,,,,,,,,,,,,,,,,,,,001,108,2020_Feb_11_1214,spring_faces,3.1.5,60.05608517710116,
condition files/Stage1_1.xlsx,,B3,T3,c,"['c', 'm']","['Clue', 'Monopoly']","[-0.15, 0.5]","[0.15, 0.5]",1,1,,,,,,,,,0,6,6,6,0,5,5,4,,,,,,,,,,,,,,,,,,,,,,,,,,,,,,,,,,,,,,,,,,,,,,,,,,,,,,,756.0201454070002,None,756.0201454070002,None,756.0201454070002,None,c,1,0.6675347100008366,757.5537656639999,None,757.5537656639999,None,757.5537656639999,None,758.2873070420001,None,758.2873070420001,None,758.2873070420001,None,758.2873070420001,None,,,,,,,,,,,,,,,,,,,,,,,,,,,,,,,,,,,,,,,,,,,,001,108,2020_Feb_11_1214,spring_faces,3.1.5,60.05608517710116,
condition files/Stage1_1.xlsx,,T4,B3,m,"['c', 'm']","['Clue', 'Monopoly']","[-0.15, 0.5]","[0.15, 0.5]",1,1,,,,,,,,,0,6,6,6,0,6,6,6,,,,,,,,,,,,,,,,,,,,,,,,,,,,,,,,,,,,,,,,,,,,,,,,,,,,,,,760.253824294,None,760.253824294,None,760.253824294,None,m,1,0.8501309919993219,761.7871522329997,None,761.7871522329997,None,761.7871522329997,None,762.7038880780001,None,762.7038880780001,None,762.7038880780001,None,762.7038880780001,None,,,,,,,,,,,,,,,,,,,,,,,,,,,,,,,,,,,,,,,,,,,,001,108,2020_Feb_11_1214,spring_faces,3.1.5,60.05608517710116,
condition files/Stage1_1.xlsx,,B2,T1,m,"['c', 'm']","['Clue', 'Monopoly']","[-0.15, 0.5]","[0.15, 0.5]",1,1,,,,,,,,,0,6,6,6,0,7,7,2,,,,,,,,,,,,,,,,,,,,,,,,,,,,,,,,,,,,,,,,,,,,,,,,,,,,,,,764.6540136599997,None,764.6540136599997,None,764.6540136599997,None,c,0,0.4660898490001273,766.1872792189997,None,766.1872792189997,None,766.1872792189997,None,766.703242861,None,766.703242861,None,766.703242861,None,766.703242861,None,,,,,,,,,,,,,,,,,,,,,,,,,,,,,,,,,,,,,,,,,,,,001,108,2020_Feb_11_1214,spring_faces,3.1.5,60.05608517710116,
condition files/Stage1_2.xlsx,,B2,T2,m,"['c', 'm']","['Clue', 'Monopoly']","[-0.15, 0.5]","[0.15, 0.5]",1,1,,,,,,,,,0,7,7,7,0,0,0,3,,,,,,,,,,,,,,,,,,,,,,,,,,,,,,,,,,,,,,,,,,,,,,,,,,,,,,,768.6870405939999,None,768.6870405939999,None,768.6870405939999,None,c,0,1.0087144479994095,770.2206625529998,None,770.2206625529998,None,770.2206625529998,None,771.28699418,None,771.28699418,None,771.28699418,None,771.28699418,None,,,,,,,,,,,,,,,,,,,,,,,,,,,,,,,,,,,,,,,,,,,,001,108,2020_Feb_11_1214,spring_faces,3.1.5,60.05608517710116,
condition files/Stage1_2.xlsx,,T1,B2,m,"['c', 'm']","['Clue', 'Monopoly']","[-0.15, 0.5]","[0.15, 0.5]",1,1,,,,,,,,,0,7,7,7,0,1,1,2,,,,,,,,,,,,,,,,,,,,,,,,,,,,,,,,,,,,,,,,,,,,,,,,,,,,,,,773.253561599,None,773.253561599,None,773.253561599,None,c,0,1.7864263440005743,774.7869067060001,None,774.7869067060001,None,774.7869067060001,None,776.6372625039994,None,776.6372625039994,None,776.6372625039994,None,776.6372625039994,None,,,,,,,,,,,,,,,,,,,,,,,,,,,,,,,,,,,,,,,,,,,,001,108,2020_Feb_11_1214,spring_faces,3.1.5,60.05608517710116,
condition files/Stage1_2.xlsx,,T4,B4,m,"['c', 'm']","['Clue', 'Monopoly']","[-0.15, 0.5]","[0.15, 0.5]",1,1,,,,,,,,,0,7,7,7,0,2,2,7,,,,,,,,,,,,,,,,,,,,,,,,,,,,,,,,,,,,,,,,,,,,,,,,,,,,,,,778.6037194379996,None,778.6037194379996,None,778.6037194379996,None,m,1,1.4918206579995967,780.1375755009994,None,780.1375755009994,None,780.1375755009994,None,781.6873330809995,None,781.6873330809995,None,781.6873330809995,None,781.6873330809995,None,,,,,,,,,,,,,,,,,,,,,,,,,,,,,,,,,,,,,,,,,,,,001,108,2020_Feb_11_1214,spring_faces,3.1.5,60.05608517710116,
condition files/Stage1_2.xlsx,,B1,T1,c,"['c', 'm']","['Clue', 'Monopoly']","[-0.15, 0.5]","[0.15, 0.5]",1,1,,,,,,,,,0,7,7,7,0,3,3,0,,,,,,,,,,,,,,,,,,,,,,,,,,,,,,,,,,,,,,,,,,,,,,,,,,,,,,,783.6530030980002,None,783.6530030980002,None,783.6530030980002,None,m,0,1.5623991109996496,785.1868999609997,None,785.1868999609997,None,785.1868999609997,None,786.8063102659999,None,786.8063102659999,None,786.8063102659999,None,786.8063102659999,None,,,,,,,,,,,,,,,,,,,,,,,,,,,,,,,,,,,,,,,,,,,,001,108,2020_Feb_11_1214,spring_faces,3.1.5,60.05608517710116,
condition files/Stage1_2.xlsx,,B3,T4,m,"['c', 'm']","['Clue', 'Monopoly']","[-0.15, 0.5]","[0.15, 0.5]",1,1,,,,,,,,,0,7,7,7,0,4,4,6,,,,,,,,,,,,,,,,,,,,,,,,,,,,,,,,,,,,,,,,,,,,,,,,,,,,,,,788.7699369800002,None,788.7699369800002,None,788.7699369800002,None,m,1,1.261182252999788,790.3201652399994,None,790.3201652399994,None,790.3201652399994,None,791.6394760419998,None,791.6394760419998,None,791.6394760419998,None,791.6394760419998,None,,,,,,,,,,,,,,,,,,,,,,,,,,,,,,,,,,,,,,,,,,,,001,108,2020_Feb_11_1214,spring_faces,3.1.5,60.05608517710116,
condition files/Stage1_2.xlsx,,B4,T3,c,"['c', 'm']","['Clue', 'Monopoly']","[-0.15, 0.5]","[0.15, 0.5]",1,1,,,,,,,,,0,7,7,7,0,5,5,5,,,,,,,,,,,,,,,,,,,,,,,,,,,,,,,,,,,,,,,,,,,,,,,,,,,,,,,793.6033411649996,None,793.6033411649996,None,793.6033411649996,None,c,1,4.604159569999865,795.137197045,None,795.137197045,None,795.137197045,None,799.806643379,None,799.806643379,None,799.806643379,None,799.806643379,None,,,,,,,,,,,,,,,,,,,,,,,,,,,,,,,,,,,,,,,,,,,,001,108,2020_Feb_11_1214,spring_faces,3.1.5,60.05608517710116,
condition files/Stage1_2.xlsx,,T2,B1,c,"['c', 'm']","['Clue', 'Monopoly']","[-0.15, 0.5]","[0.15, 0.5]",1,1,,,,,,,,,0,7,7,7,0,6,6,1,,,,,,,,,,,,,,,,,,,,,,,,,,,,,,,,,,,,,,,,,,,,,,,,,,,,,,,801.77013824,None,801.77013824,None,801.77013824,None,m,0,1.4297498680007266,803.303568284,None,803.303568284,None,803.303568284,None,804.787313582,None,804.787313582,None,804.787313582,None,804.787313582,None,,,,,,,,,,,,,,,,,,,,,,,,,,,,,,,,,,,,,,,,,,,,001,108,2020_Feb_11_1214,spring_faces,3.1.5,60.05608517710116,
condition files/Stage1_2.xlsx,,T3,B3,c,"['c', 'm']","['Clue', 'Monopoly']","[-0.15, 0.5]","[0.15, 0.5]",1,1,,,,,,,,,0,7,7,7,0,7,7,4,,,,,,,,,,,,,,,,,,,,,,,,,,,,,,,,,,,,,,,,,,,,,,,,,,,,,,,806.7538098320001,None,806.7538098320001,None,806.7538098320001,None,m,0,1.3742477250007141,808.2871497179995,None,808.2871497179995,None,808.2871497179995,None,809.7205730169999,None,809.7205730169999,None,809.7205730169999,None,809.7205730169999,None,,,,,,,,,,,,,,,,,,,,,,,,,,,,,,,,,,,,,,,,,,,,001,108,2020_Feb_11_1214,spring_faces,3.1.5,60.05608517710116,
condition files/Stage1_1.xlsx,,T4,B3,m,"['c', 'm']","['Clue', 'Monopoly']","[-0.15, 0.5]","[0.15, 0.5]",1,1,,,,,,,,,0,8,8,8,0,0,0,6,,,,,,,,,,,,,,,,,,,,,,,,,,,,,,,,,,,,,,,,,,,,,,,,,,,,,,,811.7036588020001,None,811.7036588020001,None,811.7036588020001,None,m,1,2.5030996800005596,813.2382597129999,None,813.2382597129999,None,813.2382597129999,None,815.8203450359997,None,815.8203450359997,None,815.8203450359997,None,815.8203450359997,None,,,,,,,,,,,,,,,,,,,,,,,,,,,,,,,,,,,,,,,,,,,,001,108,2020_Feb_11_1214,spring_faces,3.1.5,60.05608517710116,
condition files/Stage1_1.xlsx,,B2,T1,m,"['c', 'm']","['Clue', 'Monopoly']","[-0.15, 0.5]","[0.15, 0.5]",1,1,,,,,,,,,0,8,8,8,0,1,1,2,,,,,,,,,,,,,,,,,,,,,,,,,,,,,,,,,,,,,,,,,,,,,,,,,,,,,,,817.7701882749998,None,817.7701882749998,None,817.7701882749998,None,m,1,1.0927014150001924,819.3206300900001,None,819.3206300900001,None,819.3206300900001,None,820.4701153469996,None,820.4701153469996,None,820.4701153469996,None,820.4701153469996,None,,,,,,,,,,,,,,,,,,,,,,,,,,,,,,,,,,,,,,,,,,,,001,108,2020_Feb_11_1214,spring_faces,3.1.5,60.05608517710116,
condition files/Stage1_1.xlsx,,B1,T2,c,"['c', 'm']","['Clue', 'Monopoly']","[-0.15, 0.5]","[0.15, 0.5]",1,1,,,,,,,,,0,8,8,8,0,2,2,1,,,,,,,,,,,,,,,,,,,,,,,,,,,,,,,,,,,,,,,,,,,,,,,,,,,,,,,822.4370148600001,None,822.4370148600001,None,822.4370148600001,None,m,0,1.291011351000634,823.9703639069994,None,823.9703639069994,None,823.9703639069994,None,825.3234133309998,None,825.3234133309998,None,825.3234133309998,None,825.3234133309998,None,,,,,,,,,,,,,,,,,,,,,,,,,,,,,,,,,,,,,,,,,,,,001,108,2020_Feb_11_1214,spring_faces,3.1.5,60.05608517710116,
condition files/Stage1_1.xlsx,,T2,B2,m,"['c', 'm']","['Clue', 'Monopoly']","[-0.15, 0.5]","[0.15, 0.5]",1,1,,,,,,,,,0,8,8,8,0,3,3,3,,,,,,,,,,,,,,,,,,,,,,,,,,,,,,,,,,,,,,,,,,,,,,,,,,,,,,,827.2870237520001,None,827.2870237520001,None,827.2870237520001,None,c,0,1.2410543870000765,828.820340796,None,828.820340796,None,828.820340796,None,830.1224861829996,None,830.1224861829996,None,830.1224861829996,None,830.1224861829996,None,,,,,,,,,,,,,,,,,,,,,,,,,,,,,,,,,,,,,,,,,,,,001,108,2020_Feb_11_1214,spring_faces,3.1.5,60.05608517710116,
condition files/Stage1_1.xlsx,,B4,T4,m,"['c', 'm']","['Clue', 'Monopoly']","[-0.15, 0.5]","[0.15, 0.5]",1,1,,,,,,,,,0,8,8,8,0,4,4,7,,,,,,,,,,,,,,,,,,,,,,,,,,,,,,,,,,,,,,,,,,,,,,,,,,,,,,,832.0874793679995,None,832.0874793679995,None,832.0874793679995,None,m,1,1.2565190839995921,833.6368219549995,None,833.6368219549995,None,833.6368219549995,None,834.9534350019994,None,834.9534350019994,None,834.9534350019994,None,834.9534350019994,None,,,,,,,,,,,,,,,,,,,,,,,,,,,,,,,,,,,,,,,,,,,,001,108,2020_Feb_11_1214,spring_faces,3.1.5,60.05608517710116,
condition files/Stage1_1.xlsx,,T1,B1,c,"['c', 'm']","['Clue', 'Monopoly']","[-0.15, 0.5]","[0.15, 0.5]",1,1,,,,,,,,,0,8,8,8,0,5,5,0,,,,,,,,,,,,,,,,,,,,,,,,,,,,,,,,,,,,,,,,,,,,,,,,,,,,,,,836.9204320609997,None,836.9204320609997,None,836.9204320609997,None,c,1,1.4290376259996265,838.4563110899999,None,838.4563110899999,None,838.4563110899999,None,839.9384311140002,None,839.9384311140002,None,839.9384311140002,None,839.9384311140002,None,,,,,,,,,,,,,,,,,,,,,,,,,,,,,,,,,,,,,,,,,,,,001,108,2020_Feb_11_1214,spring_faces,3.1.5,60.05608517710116,
condition files/Stage1_1.xlsx,,T3,B4,c,"['c', 'm']","['Clue', 'Monopoly']","[-0.15, 0.5]","[0.15, 0.5]",1,1,,,,,,,,,0,8,8,8,0,6,6,5,,,,,,,,,,,,,,,,,,,,,,,,,,,,,,,,,,,,,,,,,,,,,,,,,,,,,,,841.9037771189996,None,841.9037771189996,None,841.9037771189996,None,c,1,1.1369484499991813,843.4363905640002,None,843.4363905640002,None,843.4363905640002,None,844.6366552299996,None,844.6366552299996,None,844.6366552299996,None,844.6366552299996,None,,,,,,,,,,,,,,,,,,,,,,,,,,,,,,,,,,,,,,,,,,,,001,108,2020_Feb_11_1214,spring_faces,3.1.5,60.05608517710116,
condition files/Stage1_1.xlsx,,B3,T3,c,"['c', 'm']","['Clue', 'Monopoly']","[-0.15, 0.5]","[0.15, 0.5]",1,1,,,,,,,,,0,8,8,8,0,7,7,4,,,,,,,,,,,,,,,,,,,,,,,,,,,,,,,,,,,,,,,,,,,,,,,,,,,,,,,846.6041676659997,None,846.6041676659997,None,846.6041676659997,None,c,1,0.9645856329998423,848.1367315059997,None,848.1367315059997,None,848.1367315059997,None,849.1538302789995,None,849.1538302789995,None,849.1538302789995,None,849.1538302789995,None,,,,,,,,,,,,,,,,,,,,,,,,,,,,,,,,,,,,,,,,,,,,001,108,2020_Feb_11_1214,spring_faces,3.1.5,60.05608517710116,
condition files/Stage1_2.xlsx,,B2,T2,m,"['c', 'm']","['Clue', 'Monopoly']","[-0.15, 0.5]","[0.15, 0.5]",1,1,,,,,,,,,0,9,9,9,0,0,0,3,,,,,,,,,,,,,,,,,,,,,,,,,,,,,,,,,,,,,,,,,,,,,,,,,,,,,,,851.1373313220001,None,851.1373313220001,None,851.1373313220001,None,c,0,1.0533125890005977,852.672082948,None,852.672082948,None,852.672082948,None,853.7882276210003,None,853.7882276210003,None,853.7882276210003,None,853.7882276210003,None,,,,,,,,,,,,,,,,,,,,,,,,,,,,,,,,,,,,,,,,,,,,001,108,2020_Feb_11_1214,spring_faces,3.1.5,60.05608517710116,
condition files/Stage1_2.xlsx,,T3,B3,c,"['c', 'm']","['Clue', 'Monopoly']","[-0.15, 0.5]","[0.15, 0.5]",1,1,,,,,,,,,0,9,9,9,0,1,1,4,,,,,,,,,,,,,,,,,,,,,,,,,,,,,,,,,,,,,,,,,,,,,,,,,,,,,,,855.7537254489998,None,855.7537254489998,None,855.7537254489998,None,c,1,1.2226544609993653,857.2867040419997,None,857.2867040419997,None,857.2867040419997,None,858.5723014679998,None,858.5723014679998,None,858.5723014679998,None,858.5723014679998,None,,,,,,,,,,,,,,,,,,,,,,,,,,,,,,,,,,,,,,,,,,,,001,108,2020_Feb_11_1214,spring_faces,3.1.5,60.05608517710116,
condition files/Stage1_2.xlsx,,B1,T1,c,"['c', 'm']","['Clue', 'Monopoly']","[-0.15, 0.5]","[0.15, 0.5]",1,1,,,,,,,,,0,9,9,9,0,2,2,0,,,,,,,,,,,,,,,,,,,,,,,,,,,,,,,,,,,,,,,,,,,,,,,,,,,,,,,860.5369932550002,None,860.5369932550002,None,860.5369932550002,None,c,1,1.5111094309995678,862.0702179259997,None,862.0702179259997,None,862.0702179259997,None,863.6367241849994,None,863.6367241849994,None,863.6367241849994,None,863.6367241849994,None,,,,,,,,,,,,,,,,,,,,,,,,,,,,,,,,,,,,,,,,,,,,001,108,2020_Feb_11_1214,spring_faces,3.1.5,60.05608517710116,
condition files/Stage1_2.xlsx,,T2,B1,c,"['c', 'm']","['Clue', 'Monopoly']","[-0.15, 0.5]","[0.15, 0.5]",1,1,,,,,,,,,0,9,9,9,0,3,3,1,,,,,,,,,,,,,,,,,,,,,,,,,,,,,,,,,,,,,,,,,,,,,,,,,,,,,,,865.6032642809996,None,865.6032642809996,None,865.6032642809996,None,c,1,1.0999928250002995,867.1373160630001,None,867.1373160630001,None,867.1373160630001,None,868.2872696329996,None,868.2872696329996,None,868.2872696329996,None,868.2872696329996,None,,,,,,,,,,,,,,,,,,,,,,,,,,,,,,,,,,,,,,,,,,,,001,108,2020_Feb_11_1214,spring_faces,3.1.5,60.05608517710116,
condition files/Stage1_2.xlsx,,T4,B4,m,"['c', 'm']","['Clue', 'Monopoly']","[-0.15, 0.5]","[0.15, 0.5]",1,1,,,,,,,,,0,9,9,9,0,4,4,7,,,,,,,,,,,,,,,,,,,,,,,,,,,,,,,,,,,,,,,,,,,,,,,,,,,,,,,870.2536440599997,None,870.2536440599997,None,870.2536440599997,None,c,0,1.1200150470003791,871.789340583,None,871.789340583,None,871.789340583,None,872.9712094329998,None,872.9712094329998,None,872.9712094329998,None,872.9712094329998,None,,,,,,,,,,,,,,,,,,,,,,,,,,,,,,,,,,,,,,,,,,,,001,108,2020_Feb_11_1214,spring_faces,3.1.5,60.05608517710116,
condition files/Stage1_2.xlsx,,T1,B2,m,"['c', 'm']","['Clue', 'Monopoly']","[-0.15, 0.5]","[0.15, 0.5]",1,1,,,,,,,,,0,9,9,9,0,5,5,2,,,,,,,,,,,,,,,,,,,,,,,,,,,,,,,,,,,,,,,,,,,,,,,,,,,,,,,874.9370047639995,None,874.9370047639995,None,874.9370047639995,None,m,1,2.021486382999683,876.4718388339998,None,876.4718388339998,None,876.4718388339998,None,878.5537000759996,None,878.5537000759996,None,878.5537000759996,None,878.5537000759996,None,,,,,,,,,,,,,,,,,,,,,,,,,,,,,,,,,,,,,,,,,,,,001,108,2020_Feb_11_1214,spring_faces,3.1.5,60.05608517710116,
condition files/Stage1_2.xlsx,,B3,T4,m,"['c', 'm']","['Clue', 'Monopoly']","[-0.15, 0.5]","[0.15, 0.5]",1,1,,,,,,,,,0,9,9,9,0,6,6,6,,,,,,,,,,,,,,,,,,,,,,,,,,,,,,,,,,,,,,,,,,,,,,,,,,,,,,,880.5202886090001,None,880.5202886090001,None,880.5202886090001,None,m,1,1.5907738760006396,882.0546229209995,None,882.0546229209995,None,882.0546229209995,None,883.7038499509999,None,883.7038499509999,None,883.7038499509999,None,883.7038499509999,None,,,,,,,,,,,,,,,,,,,,,,,,,,,,,,,,,,,,,,,,,,,,001,108,2020_Feb_11_1214,spring_faces,3.1.5,60.05608517710116,
condition files/Stage1_2.xlsx,,B4,T3,c,"['c', 'm']","['Clue', 'Monopoly']","[-0.15, 0.5]","[0.15, 0.5]",1,1,,,,,,,,,0,9,9,9,0,7,7,5,,,,,,,,,,,,,,,,,,,,,,,,,,,,,,,,,,,,,,,,,,,,,,,,,,,,,,,885.6704830130002,None,885.6704830130002,None,885.6704830130002,None,m,0,1.768649564000043,887.2206691279998,None,887.2206691279998,None,887.2206691279998,None,889.0532774579997,None,889.0532774579997,None,889.0532774579997,None,889.0532774579997,None,,,,,,,,,,,,,,,,,,,,,,,,,,,,,,,,,,,,,,,,,,,,001,108,2020_Feb_11_1214,spring_faces,3.1.5,60.05608517710116,
condition files/Stage1_1.xlsx,,B1,T2,c,"['c', 'm']","['Clue', 'Monopoly']","[-0.15, 0.5]","[0.15, 0.5]",1,1,,,,,,,,,0,10,10,10,0,0,0,1,,,,,,,,,,,,,,,,,,,,,,,,,,,,,,,,,,,,,,,,,,,,,,,,,,,,,,,891.0367687389999,None,891.0367687389999,None,891.0367687389999,None,c,1,2.6110129950002374,892.5703285939999,None,892.5703285939999,None,892.5703285939999,None,895.237404554,None,895.237404554,None,895.237404554,None,895.237404554,None,,,,,,,,,,,,,,,,,,,,,,,,,,,,,,,,,,,,,,,,,,,,001,108,2020_Feb_11_1214,spring_faces,3.1.5,60.05608517710116,
condition files/Stage1_1.xlsx,,T1,B1,c,"['c', 'm']","['Clue', 'Monopoly']","[-0.15, 0.5]","[0.15, 0.5]",1,1,,,,,,,,,0,10,10,10,0,1,1,0,,,,,,,,,,,,,,,,,,,,,,,,,,,,,,,,,,,,,,,,,,,,,,,,,,,,,,,897.2040376169998,None,897.2040376169998,None,897.2040376169998,None,c,1,3.4194429340004717,898.7539056269998,None,898.7539056269998,None,898.7539056269998,None,902.23727702,None,902.23727702,None,902.23727702,None,902.23727702,None,,,,,,,,,,,,,,,,,,,,,,,,,,,,,,,,,,,,,,,,,,,,001,108,2020_Feb_11_1214,spring_faces,3.1.5,60.05608517710116,
condition files/Stage1_1.xlsx,,T3,B4,c,"['c', 'm']","['Clue', 'Monopoly']","[-0.15, 0.5]","[0.15, 0.5]",1,1,,,,,,,,,0,10,10,10,0,2,2,5,,,,,,,,,,,,,,,,,,,,,,,,,,,,,,,,,,,,,,,,,,,,,,,,,,,,,,,904.2036542850001,None,904.2036542850001,None,904.2036542850001,None,c,1,1.9697953780005264,905.7395666319999,None,905.7395666319999,None,905.7395666319999,None,907.770634986,None,907.770634986,None,907.770634986,None,907.770634986,None,,,,,,,,,,,,,,,,,,,,,,,,,,,,,,,,,,,,,,,,,,,,001,108,2020_Feb_11_1214,spring_faces,3.1.5,60.05608517710116,
condition files/Stage1_1.xlsx,,B3,T3,c,"['c', 'm']","['Clue', 'Monopoly']","[-0.15, 0.5]","[0.15, 0.5]",1,1,,,,,,,,,0,10,10,10,0,3,3,4,,,,,,,,,,,,,,,,,,,,,,,,,,,,,,,,,,,,,,,,,,,,,,,,,,,,,,,909.7371340889995,None,909.7371340889995,None,909.7371340889995,None,c,1,1.3670452410005964,911.2702794119996,None,911.2702794119996,None,911.2702794119996,None,912.6871777059996,None,912.6871777059996,None,912.6871777059996,None,912.6871777059996,None,,,,,,,,,,,,,,,,,,,,,,,,,,,,,,,,,,,,,,,,,,,,001,108,2020_Feb_11_1214,spring_faces,3.1.5,60.05608517710116,
condition files/Stage1_1.xlsx,,T2,B2,m,"['c', 'm']","['Clue', 'Monopoly']","[-0.15, 0.5]","[0.15, 0.5]",1,1,,,,,,,,,0,10,10,10,0,4,4,3,,,,,,,,,,,,,,,,,,,,,,,,,,,,,,,,,,,,,,,,,,,,,,,,,,,,,,,914.6537378989997,None,914.6537378989997,None,914.6537378989997,None,c,0,1.3605249829997774,916.1888065530002,None,916.1888065530002,None,916.1888065530002,None,917.6057850500001,None,917.6057850500001,None,917.6057850500001,None,917.6057850500001,None,,,,,,,,,,,,,,,,,,,,,,,,,,,,,,,,,,,,,,,,,,,,001,108,2020_Feb_11_1214,spring_faces,3.1.5,60.05608517710116,
condition files/Stage1_1.xlsx,,B2,T1,m,"['c', 'm']","['Clue', 'Monopoly']","[-0.15, 0.5]","[0.15, 0.5]",1,1,,,,,,,,,0,10,10,10,0,5,5,2,,,,,,,,,,,,,,,,,,,,,,,,,,,,,,,,,,,,,,,,,,,,,,,,,,,,,,,919.569874021,None,919.569874021,None,919.569874021,None,c,0,1.4043709950001357,921.1049874579994,None,921.1049874579994,None,921.1049874579994,None,922.5706737459996,None,922.5706737459996,None,922.5706737459996,None,922.5706737459996,None,,,,,,,,,,,,,,,,,,,,,,,,,,,,,,,,,,,,,,,,,,,,001,108,2020_Feb_11_1214,spring_faces,3.1.5,60.05608517710116,
condition files/Stage1_1.xlsx,,T4,B3,m,"['c', 'm']","['Clue', 'Monopoly']","[-0.15, 0.5]","[0.15, 0.5]",1,1,,,,,,,,,0,10,10,10,0,6,6,6,,,,,,,,,,,,,,,,,,,,,,,,,,,,,,,,,,,,,,,,,,,,,,,,,,,,,,,924.5371978429994,None,924.5371978429994,None,924.5371978429994,None,m,1,1.5907081099994684,926.0706814129999,None,926.0706814129999,None,926.0706814129999,None,927.7203060169995,None,927.7203060169995,None,927.7203060169995,None,927.7203060169995,None,,,,,,,,,,,,,,,,,,,,,,,,,,,,,,,,,,,,,,,,,,,,001,108,2020_Feb_11_1214,spring_faces,3.1.5,60.05608517710116,
condition files/Stage1_1.xlsx,,B4,T4,m,"['c', 'm']","['Clue', 'Monopoly']","[-0.15, 0.5]","[0.15, 0.5]",1,1,,,,,,,,,0,10,10,10,0,7,7,7,,,,,,,,,,,,,,,,,,,,,,,,,,,,,,,,,,,,,,,,,,,,,,,,,,,,,,,929.6871604369999,None,929.6871604369999,None,929.6871604369999,None,m,1,1.5290472630003933,931.2202499389996,None,931.2202499389996,None,931.2202499389996,None,932.8037426969995,None,932.8037426969995,None,932.8037426969995,None,932.8037426969995,None,,,,,,,,,,,,,,,,,,,,,,,,,,,,,,,,,,,,,,,,,,,,001,108,2020_Feb_11_1214,spring_faces,3.1.5,60.05608517710116,
condition files/Stage1_2.xlsx,,B4,T3,c,"['c', 'm']","['Clue', 'Monopoly']","[-0.15, 0.5]","[0.15, 0.5]",1,1,,,,,,,,,0,11,11,11,0,0,0,5,,,,,,,,,,,,,,,,,,,,,,,,,,,,,,,,,,,,,,,,,,,,,,,,,,,,,,,934.7869656430003,None,934.7869656430003,None,934.7869656430003,None,c,1,1.2442670509999516,936.337062308,None,936.337062308,None,936.337062308,None,937.6387714299999,None,937.6387714299999,None,937.6387714299999,None,937.6387714299999,None,,,,,,,,,,,,,,,,,,,,,,,,,,,,,,,,,,,,,,,,,,,,001,108,2020_Feb_11_1214,spring_faces,3.1.5,60.05608517710116,
condition files/Stage1_2.xlsx,,T4,B4,m,"['c', 'm']","['Clue', 'Monopoly']","[-0.15, 0.5]","[0.15, 0.5]",1,1,,,,,,,,,0,11,11,11,0,1,1,7,,,,,,,,,,,,,,,,,,,,,,,,,,,,,,,,,,,,,,,,,,,,,,,,,,,,,,,939.6036250779998,None,939.6036250779998,None,939.6036250779998,None,m,1,1.3403373560004184,941.1370446109995,None,941.1370446109995,None,941.1370446109995,None,942.5392371709995,None,942.5392371709995,None,942.5392371709995,None,942.5392371709995,None,,,,,,,,,,,,,,,,,,,,,,,,,,,,,,,,,,,,,,,,,,,,001,108,2020_Feb_11_1214,spring_faces,3.1.5,60.05608517710116,
condition files/Stage1_2.xlsx,,B1,T1,c,"['c', 'm']","['Clue', 'Monopoly']","[-0.15, 0.5]","[0.15, 0.5]",1,1,,,,,,,,,0,11,11,11,0,2,2,0,,,,,,,,,,,,,,,,,,,,,,,,,,,,,,,,,,,,,,,,,,,,,,,,,,,,,,,944.503635176,None,944.503635176,None,944.503635176,None,c,1,1.8476498509999146,946.0377004780003,None,946.0377004780003,None,946.0377004780003,None,947.9538834979994,None,947.9538834979994,None,947.9538834979994,None,947.9538834979994,None,,,,,,,,,,,,,,,,,,,,,,,,,,,,,,,,,,,,,,,,,,,,001,108,2020_Feb_11_1214,spring_faces,3.1.5,60.05608517710116,
condition files/Stage1_2.xlsx,,T1,B2,m,"['c', 'm']","['Clue', 'Monopoly']","[-0.15, 0.5]","[0.15, 0.5]",1,1,,,,,,,,,0,11,11,11,0,3,3,2,,,,,,,,,,,,,,,,,,,,,,,,,,,,,,,,,,,,,,,,,,,,,,,,,,,,,,,949.9037568409994,None,949.9037568409994,None,949.9037568409994,None,c,0,1.792292813000131,951.437101087,None,951.437101087,None,951.437101087,None,953.2897767300001,None,953.2897767300001,None,953.2897767300001,None,953.2897767300001,None,,,,,,,,,,,,,,,,,,,,,,,,,,,,,,,,,,,,,,,,,,,,001,108,2020_Feb_11_1214,spring_faces,3.1.5,60.05608517710116,
condition files/Stage1_2.xlsx,,B2,T2,m,"['c', 'm']","['Clue', 'Monopoly']","[-0.15, 0.5]","[0.15, 0.5]",1,1,,,,,,,,,0,11,11,11,0,4,4,3,,,,,,,,,,,,,,,,,,,,,,,,,,,,,,,,,,,,,,,,,,,,,,,,,,,,,,,955.2533080029998,None,955.2533080029998,None,955.2533080029998,None,m,1,1.1780014500000107,956.8032885060002,None,956.8032885060002,None,956.8032885060002,None,958.0372620809994,None,958.0372620809994,None,958.0372620809994,None,958.0372620809994,None,,,,,,,,,,,,,,,,,,,,,,,,,,,,,,,,,,,,,,,,,,,,001,108,2020_Feb_11_1214,spring_faces,3.1.5,60.05608517710116,
condition files/Stage1_2.xlsx,,T2,B1,c,"['c', 'm']","['Clue', 'Monopoly']","[-0.15, 0.5]","[0.15, 0.5]",1,1,,,,,,,,,0,11,11,11,0,5,5,1,,,,,,,,,,,,,,,,,,,,,,,,,,,,,,,,,,,,,,,,,,,,,,,,,,,,,,,960.0036499279995,None,960.0036499279995,None,960.0036499279995,None,m,0,1.5151737750002212,961.5541725040002,None,961.5541725040002,None,961.5541725040002,None,963.1208758319999,None,963.1208758319999,None,963.1208758319999,None,963.1208758319999,None,,,,,,,,,,,,,,,,,,,,,,,,,,,,,,,,,,,,,,,,,,,,001,108,2020_Feb_11_1214,spring_faces,3.1.5,60.05608517710116,
condition files/Stage1_2.xlsx,,T3,B3,c,"['c', 'm']","['Clue', 'Monopoly']","[-0.15, 0.5]","[0.15, 0.5]",1,1,,,,,,,,,0,11,11,11,0,6,6,4,,,,,,,,,,,,,,,,,,,,,,,,,,,,,,,,,,,,,,,,,,,,,,,,,,,,,,,965.0869325599997,None,965.0869325599997,None,965.0869325599997,None,c,1,5.727032308000162,966.6222842679999,None,966.6222842679999,None,966.6222842679999,None,972.4034425230002,None,972.4034425230002,None,972.4034425230002,None,972.4034425230002,None,,,,,,,,,,,,,,,,,,,,,,,,,,,,,,,,,,,,,,,,,,,,001,108,2020_Feb_11_1214,spring_faces,3.1.5,60.05608517710116,
condition files/Stage1_2.xlsx,,B3,T4,m,"['c', 'm']","['Clue', 'Monopoly']","[-0.15, 0.5]","[0.15, 0.5]",1,1,,,,,,,,,0,11,11,11,0,7,7,6,,,,,,,,,,,,,,,,,,,,,,,,,,,,,,,,,,,,,,,,,,,,,,,,,,,,,,,974.369849746,None,974.369849746,None,974.369849746,None,m,1,5.2455264800000805,975.9037855819997,None,975.9037855819997,None,975.9037855819997,None,981.2207232089995,None,981.2207232089995,None,981.2207232089995,None,981.2207232089995,None,,,,,,,,,,,,,,,,,,,,,,,,,,,,,,,,,,,,,,,,,,,,001,108,2020_Feb_11_1214,spring_faces,3.1.5,60.05608517710116,
,,,,,,,,,,,,,,,,,,,,,,,,,,,,,,,,,,,,,,,,,,,,,,,,,,,,,,,,,,,,,,,,,,,,,,,,,,,,,,,,,,,,,,,,,,,,,,,,,,,,,,,,,,,,,,,,983.1873463579996,None,space,3.53839363500083,988.1869630860001,None,,,,,,,,,,,,,,,,,,,,,,,,,,,,,,001,108,2020_Feb_11_1214,spring_faces,3.1.5,60.05608517710116,
condition files/Stage2_1.xlsx,,T5,B5,s,"['s', 'r']","['Stratego', 'Risk']","[-0.15, 0.5]","[0.15, 0.5]",1,1,,,,,,,,,,,,,,,,,0,0,0,0,0,0,0,0,,,,,,,,,,,,,,,,,,,,,,,,,,,,,,,,,,,,,,,,,,,,,,,991.820294612,None,991.820294612,None,991.820294612,None,s,1,4.22792494999976,993.3534511589996,None,993.3534511589996,None,993.3534511589996,None,997.6532469389995,None,997.6532469389995,None,997.6532469389995,None,997.6532469389995,None,,,,,,,,,,,,,,,988.1869630860001,None,,,,,,,,,,,,,,,,,,,,,,,,,,,,001,108,2020_Feb_11_1214,spring_faces,3.1.5,60.05608517710116,
condition files/Stage2_1.xlsx,,B4,T4,r,"['s', 'r']","['Stratego', 'Risk']","[-0.15, 0.5]","[0.15, 0.5]",1,1,,,,,,,,,,,,,,,,,0,0,0,0,0,1,1,5,,,,,,,,,,,,,,,,,,,,,,,,,,,,,,,,,,,,,,,,,,,,,,,999.6036807669998,None,999.6036807669998,None,999.6036807669998,None,r,1,1.915731654999945,1001.1376319829997,None,1001.1376319829997,None,1001.1376319829997,None,1003.1200108479998,None,1003.1200108479998,None,1003.1200108479998,None,1003.1200108479998,None,,,,,,,,,,,,,,,,,,,,,,,,,,,,,,,,,,,,,,,,,,,,001,108,2020_Feb_11_1214,spring_faces,3.1.5,60.05608517710116,
condition files/Stage2_1.xlsx,,T1,B1,s,"['s', 'r']","['Stratego', 'Risk']","[-0.15, 0.5]","[0.15, 0.5]",1,1,,,,,,,,,,,,,,,,,0,0,0,0,0,2,2,2,,,,,,,,,,,,,,,,,,,,,,,,,,,,,,,,,,,,,,,,,,,,,,,1005.0704898879994,None,1005.0704898879994,None,1005.0704898879994,None,r,0,1.1845020740001928,1006.6207854630002,None,1006.6207854630002,None,1006.6207854630002,None,1007.8719149429999,None,1007.8719149429999,None,1007.8719149429999,None,1007.8719149429999,None,,,,,,,,,,,,,,,,,,,,,,,,,,,,,,,,,,,,,,,,,,,,001,108,2020_Feb_11_1214,spring_faces,3.1.5,60.05608517710116,
condition files/Stage2_1.xlsx,,B6,T6,r,"['s', 'r']","['Stratego', 'Risk']","[-0.15, 0.5]","[0.15, 0.5]",1,1,,,,,,,,,,,,,,,,,0,0,0,0,0,3,3,1,,,,,,,,,,,,,,,,,,,,,,,,,,,,,,,,,,,,,,,,,,,,,,,1009.8369532779998,None,1009.8369532779998,None,1009.8369532779998,None,s,0,3.3920628289997694,1011.4373195199996,None,1011.4373195199996,None,1011.4373195199996,None,1014.889164016,None,1014.889164016,None,1014.889164016,None,1014.889164016,None,,,,,,,,,,,,,,,,,,,,,,,,,,,,,,,,,,,,,,,,,,,,001,108,2020_Feb_11_1214,spring_faces,3.1.5,60.05608517710116,
condition files/Stage2_1.xlsx,,B2,T2,r,"['s', 'r']","['Stratego', 'Risk']","[-0.15, 0.5]","[0.15, 0.5]",1,1,,,,,,,,,,,,,,,,,0,0,0,0,0,4,4,3,,,,,,,,,,,,,,,,,,,,,,,,,,,,,,,,,,,,,,,,,,,,,,,1016.8537448259995,None,1016.8537448259995,None,1016.8537448259995,None,s,0,0.7140584559992931,1018.3872816080002,None,1018.3872816080002,None,1018.3872816080002,None,1019.1540562319997,None,1019.1540562319997,None,1019.1540562319997,None,1019.1540562319997,None,,,,,,,,,,,,,,,,,,,,,,,,,,,,,,,,,,,,,,,,,,,,001,108,2020_Feb_11_1214,spring_faces,3.1.5,60.05608517710116,
condition files/Stage2_1.xlsx,,T3,B3,s,"['s', 'r']","['Stratego', 'Risk']","[-0.15, 0.5]","[0.15, 0.5]",1,1,,,,,,,,,,,,,,,,,0,0,0,0,0,5,5,4,,,,,,,,,,,,,,,,,,,,,,,,,,,,,,,,,,,,,,,,,,,,,,,1021.1202614389995,None,1021.1202614389995,None,1021.1202614389995,None,r,0,6.287059475000206,1022.6702856309994,None,1022.6702856309994,None,1022.6702856309994,None,1029.0211616509996,None,1029.0211616509996,None,1029.0211616509996,None,1029.0211616509996,None,,,,,,,,,,,,,,,,,,,,,,,,,,,,,,,,,,,,,,,,,,,,001,108,2020_Feb_11_1214,spring_faces,3.1.5,60.05608517710116,
condition files/Stage2_2.xlsx,,T4,B4,r,"['s', 'r']","['Stratego', 'Risk']","[-0.15, 0.5]","[0.15, 0.5]",1,1,,,,,,,,,,,,,,,,,0,1,1,1,0,0,0,5,,,,,,,,,,,,,,,,,,,,,,,,,,,,,,,,,,,,,,,,,,,,,,,1031.053953044,None,1031.053953044,None,1031.053953044,None,r,1,1.2837453770007414,1032.537568228,None,1032.537568228,None,1032.537568228,None,1033.88693144,None,1033.88693144,None,1033.88693144,None,1033.88693144,None,,,,,,,,,,,,,,,,,,,,,,,,,,,,,,,,,,,,,,,,,,,,001,108,2020_Feb_11_1214,spring_faces,3.1.5,60.05608517710116,
condition files/Stage2_2.xlsx,,B5,T5,s,"['s', 'r']","['Stratego', 'Risk']","[-0.15, 0.5]","[0.15, 0.5]",1,1,,,,,,,,,,,,,,,,,0,1,1,1,0,1,1,0,,,,,,,,,,,,,,,,,,,,,,,,,,,,,,,,,,,,,,,,,,,,,,,1035.853539234,None,1035.853539234,None,1035.853539234,None,s,1,1.5535792639993815,1037.4037651190001,None,1037.4037651190001,None,1037.4037651190001,None,1039.022268277,None,1039.022268277,None,1039.022268277,None,1039.022268277,None,,,,,,,,,,,,,,,,,,,,,,,,,,,,,,,,,,,,,,,,,,,,001,108,2020_Feb_11_1214,spring_faces,3.1.5,60.05608517710116,
condition files/Stage2_2.xlsx,,T2,B2,r,"['s', 'r']","['Stratego', 'Risk']","[-0.15, 0.5]","[0.15, 0.5]",1,1,,,,,,,,,,,,,,,,,0,1,1,1,0,2,2,3,,,,,,,,,,,,,,,,,,,,,,,,,,,,,,,,,,,,,,,,,,,,,,,1040.9869548729994,None,1040.9869548729994,None,1040.9869548729994,None,r,1,2.3880441840001367,1042.5213237970002,None,1042.5213237970002,None,1042.5213237970002,None,1044.971807506,None,1044.971807506,None,1044.971807506,None,1044.971807506,None,,,,,,,,,,,,,,,,,,,,,,,,,,,,,,,,,,,,,,,,,,,,001,108,2020_Feb_11_1214,spring_faces,3.1.5,60.05608517710116,
condition files/Stage2_2.xlsx,,T6,B6,r,"['s', 'r']","['Stratego', 'Risk']","[-0.15, 0.5]","[0.15, 0.5]",1,1,,,,,,,,,,,,,,,,,0,1,1,1,0,3,3,1,,,,,,,,,,,,,,,,,,,,,,,,,,,,,,,,,,,,,,,,,,,,,,,1046.9369789789998,None,1046.9369789789998,None,1046.9369789789998,None,r,1,2.14870861899999,1048.4725924079994,None,1048.4725924079994,None,1048.4725924079994,None,1050.6871815939994,None,1050.6871815939994,None,1050.6871815939994,None,1050.6871815939994,None,,,,,,,,,,,,,,,,,,,,,,,,,,,,,,,,,,,,,,,,,,,,001,108,2020_Feb_11_1214,spring_faces,3.1.5,60.05608517710116,
condition files/Stage2_2.xlsx,,B1,T1,s,"['s', 'r']","['Stratego', 'Risk']","[-0.15, 0.5]","[0.15, 0.5]",1,1,,,,,,,,,,,,,,,,,0,1,1,1,0,4,4,2,,,,,,,,,,,,,,,,,,,,,,,,,,,,,,,,,,,,,,,,,,,,,,,1052.653448778,None,1052.653448778,None,1052.653448778,None,s,1,1.32918364499983,1054.1881300999994,None,1054.1881300999994,None,1054.1881300999994,None,1055.5873299759996,None,1055.5873299759996,None,1055.5873299759996,None,1055.5873299759996,None,,,,,,,,,,,,,,,,,,,,,,,,,,,,,,,,,,,,,,,,,,,,001,108,2020_Feb_11_1214,spring_faces,3.1.5,60.05608517710116,
condition files/Stage2_2.xlsx,,B3,T3,s,"['s', 'r']","['Stratego', 'Risk']","[-0.15, 0.5]","[0.15, 0.5]",1,1,,,,,,,,,,,,,,,,,0,1,1,1,0,5,5,4,,,,,,,,,,,,,,,,,,,,,,,,,,,,,,,,,,,,,,,,,,,,,,,1057.5370674719998,None,1057.5370674719998,None,1057.5370674719998,None,r,0,2.1428272960001777,1059.0705141950002,None,1059.0705141950002,None,1059.0705141950002,None,1061.2706851659996,None,1061.2706851659996,None,1061.2706851659996,None,1061.2706851659996,None,,,,,,,,,,,,,,,,,,,,,,,,,,,,,,,,,,,,,,,,,,,,001,108,2020_Feb_11_1214,spring_faces,3.1.5,60.05608517710116,
condition files/Stage2_1.xlsx,,B2,T2,r,"['s', 'r']","['Stratego', 'Risk']","[-0.15, 0.5]","[0.15, 0.5]",1,1,,,,,,,,,,,,,,,,,0,2,2,2,0,0,0,3,,,,,,,,,,,,,,,,,,,,,,,,,,,,,,,,,,,,,,,,,,,,,,,1063.253897138,None,1063.253897138,None,1063.253897138,None,r,1,1.0190977170004771,1064.770206051,None,1064.770206051,None,1064.770206051,None,1065.8539948970001,None,1065.8539948970001,None,1065.8539948970001,None,1065.8539948970001,None,,,,,,,,,,,,,,,,,,,,,,,,,,,,,,,,,,,,,,,,,,,,001,108,2020_Feb_11_1214,spring_faces,3.1.5,60.05608517710116,
condition files/Stage2_1.xlsx,,T5,B5,s,"['s', 'r']","['Stratego', 'Risk']","[-0.15, 0.5]","[0.15, 0.5]",1,1,,,,,,,,,,,,,,,,,0,2,2,2,0,1,1,0,,,,,,,,,,,,,,,,,,,,,,,,,,,,,,,,,,,,,,,,,,,,,,,1067.82036882,None,1067.82036882,None,1067.82036882,None,s,1,1.6030943759997172,1069.3702478039995,None,1069.3702478039995,None,1069.3702478039995,None,1071.0387516009996,None,1071.0387516009996,None,1071.0387516009996,None,1071.0387516009996,None,,,,,,,,,,,,,,,,,,,,,,,,,,,,,,,,,,,,,,,,,,,,001,108,2020_Feb_11_1214,spring_faces,3.1.5,60.05608517710116,
condition files/Stage2_1.xlsx,,B6,T6,r,"['s', 'r']","['Stratego', 'Risk']","[-0.15, 0.5]","[0.15, 0.5]",1,1,,,,,,,,,,,,,,,,,0,2,2,2,0,2,2,1,,,,,,,,,,,,,,,,,,,,,,,,,,,,,,,,,,,,,,,,,,,,,,,1073.0036137529996,None,1073.0036137529996,None,1073.0036137529996,None,r,1,1.3320944989991403,1074.5532494849995,None,1074.5532494849995,None,1074.5532494849995,None,1075.9395094069996,None,1075.9395094069996,None,1075.9395094069996,None,1075.9395094069996,None,,,,,,,,,,,,,,,,,,,,,,,,,,,,,,,,,,,,,,,,,,,,001,108,2020_Feb_11_1214,spring_faces,3.1.5,60.05608517710116,
condition files/Stage2_1.xlsx,,T1,B1,s,"['s', 'r']","['Stratego', 'Risk']","[-0.15, 0.5]","[0.15, 0.5]",1,1,,,,,,,,,,,,,,,,,0,2,2,2,0,3,3,2,,,,,,,,,,,,,,,,,,,,,,,,,,,,,,,,,,,,,,,,,,,,,,,1077.90310227,None,1077.90310227,None,1077.90310227,None,s,1,1.7279195720002463,1079.453426295,None,1079.453426295,None,1079.453426295,None,1081.2399831049997,None,1081.2399831049997,None,1081.2399831049997,None,1081.2399831049997,None,,,,,,,,,,,,,,,,,,,,,,,,,,,,,,,,,,,,,,,,,,,,001,108,2020_Feb_11_1214,spring_faces,3.1.5,60.05608517710116,
condition files/Stage2_1.xlsx,,B4,T4,r,"['s', 'r']","['Stratego', 'Risk']","[-0.15, 0.5]","[0.15, 0.5]",1,1,,,,,,,,,,,,,,,,,0,2,2,2,0,4,4,5,,,,,,,,,,,,,,,,,,,,,,,,,,,,,,,,,,,,,,,,,,,,,,,1083.203757235,None,1083.203757235,None,1083.203757235,None,s,0,2.684811697000441,1084.736478058,None,1084.736478058,None,1084.736478058,None,1087.503945259,None,1087.503945259,None,1087.503945259,None,1087.503945259,None,,,,,,,,,,,,,,,,,,,,,,,,,,,,,,,,,,,,,,,,,,,,001,108,2020_Feb_11_1214,spring_faces,3.1.5,60.05608517710116,
condition files/Stage2_1.xlsx,,T3,B3,s,"['s', 'r']","['Stratego', 'Risk']","[-0.15, 0.5]","[0.15, 0.5]",1,1,,,,,,,,,,,,,,,,,0,2,2,2,0,5,5,4,,,,,,,,,,,,,,,,,,,,,,,,,,,,,,,,,,,,,,,,,,,,,,,1089.4537963559997,None,1089.4537963559997,None,1089.4537963559997,None,s,1,3.1848736900001313,1090.9884851039997,None,1090.9884851039997,None,1090.9884851039997,None,1094.2383777309997,None,1094.2383777309997,None,1094.2383777309997,None,1094.2383777309997,None,,,,,,,,,,,,,,,,,,,,,,,,,,,,,,,,,,,,,,,,,,,,001,108,2020_Feb_11_1214,spring_faces,3.1.5,60.05608517710116,
condition files/Stage2_2.xlsx,,T2,B2,r,"['s', 'r']","['Stratego', 'Risk']","[-0.15, 0.5]","[0.15, 0.5]",1,1,,,,,,,,,,,,,,,,,0,3,3,3,0,0,0,3,,,,,,,,,,,,,,,,,,,,,,,,,,,,,,,,,,,,,,,,,,,,,,,1096.2199927049996,None,1096.2199927049996,None,1096.2199927049996,None,r,1,1.0752282699995703,1097.7541795380002,None,1097.7541795380002,None,1097.7541795380002,None,1098.8897768349998,None,1098.8897768349998,None,1098.8897768349998,None,1098.8897768349998,None,,,,,,,,,,,,,,,,,,,,,,,,,,,,,,,,,,,,,,,,,,,,001,108,2020_Feb_11_1214,spring_faces,3.1.5,60.05608517710116,
condition files/Stage2_2.xlsx,,B1,T1,s,"['s', 'r']","['Stratego', 'Risk']","[-0.15, 0.5]","[0.15, 0.5]",1,1,,,,,,,,,,,,,,,,,0,3,3,3,0,1,1,2,,,,,,,,,,,,,,,,,,,,,,,,,,,,,,,,,,,,,,,,,,,,,,,1100.853647985,None,1100.853647985,None,1100.853647985,None,s,1,1.193973573999756,1102.3873630569997,None,1102.3873630569997,None,1102.3873630569997,None,1103.6399284970003,None,1103.6399284970003,None,1103.6399284970003,None,1103.6399284970003,None,,,,,,,,,,,,,,,,,,,,,,,,,,,,,,,,,,,,,,,,,,,,001,108,2020_Feb_11_1214,spring_faces,3.1.5,60.05608517710116,
condition files/Stage2_2.xlsx,,B5,T5,s,"['s', 'r']","['Stratego', 'Risk']","[-0.15, 0.5]","[0.15, 0.5]",1,1,,,,,,,,,,,,,,,,,0,3,3,3,0,2,2,0,,,,,,,,,,,,,,,,,,,,,,,,,,,,,,,,,,,,,,,,,,,,,,,1105.6030854359997,None,1105.6030854359997,None,1105.6030854359997,None,s,1,2.505838121999659,1107.1395696250001,None,1107.1395696250001,None,1107.1395696250001,None,1109.7039216579997,None,1109.7039216579997,None,1109.7039216579997,None,1109.7039216579997,None,,,,,,,,,,,,,,,,,,,,,,,,,,,,,,,,,,,,,,,,,,,,001,108,2020_Feb_11_1214,spring_faces,3.1.5,60.05608517710116,
condition files/Stage2_2.xlsx,,T4,B4,r,"['s', 'r']","['Stratego', 'Risk']","[-0.15, 0.5]","[0.15, 0.5]",1,1,,,,,,,,,,,,,,,,,0,3,3,3,0,3,3,5,,,,,,,,,,,,,,,,,,,,,,,,,,,,,,,,,,,,,,,,,,,,,,,1111.6705519729994,None,1111.6705519729994,None,1111.6705519729994,None,r,1,4.712582509999265,1113.2207493619999,None,1113.2207493619999,None,1113.2207493619999,None,1118.0035870809998,None,1118.0035870809998,None,1118.0035870809998,None,1118.0035870809998,None,,,,,,,,,,,,,,,,,,,,,,,,,,,,,,,,,,,,,,,,,,,,001,108,2020_Feb_11_1214,spring_faces,3.1.5,60.05608517710116,
condition files/Stage2_2.xlsx,,T6,B6,r,"['s', 'r']","['Stratego', 'Risk']","[-0.15, 0.5]","[0.15, 0.5]",1,1,,,,,,,,,,,,,,,,,0,3,3,3,0,4,4,1,,,,,,,,,,,,,,,,,,,,,,,,,,,,,,,,,,,,,,,,,,,,,,,1119.9533439489996,None,1119.9533439489996,None,1119.9533439489996,None,r,1,1.48623416800001,1121.4871324649994,None,1121.4871324649994,None,1121.4871324649994,None,1123.0371986749997,None,1123.0371986749997,None,1123.0371986749997,None,1123.0371986749997,None,,,,,,,,,,,,,,,,,,,,,,,,,,,,,,,,,,,,,,,,,,,,001,108,2020_Feb_11_1214,spring_faces,3.1.5,60.05608517710116,
condition files/Stage2_2.xlsx,,B3,T3,s,"['s', 'r']","['Stratego', 'Risk']","[-0.15, 0.5]","[0.15, 0.5]",1,1,,,,,,,,,,,,,,,,,0,3,3,3,0,5,5,4,,,,,,,,,,,,,,,,,,,,,,,,,,,,,,,,,,,,,,,,,,,,,,,1125.0034760769995,None,1125.0034760769995,None,1125.0034760769995,None,s,1,3.187151953000466,1126.5382151980002,None,1126.5382151980002,None,1126.5382151980002,None,1129.787299017,None,1129.787299017,None,1129.787299017,None,1129.787299017,None,,,,,,,,,,,,,,,,,,,,,,,,,,,,,,,,,,,,,,,,,,,,001,108,2020_Feb_11_1214,spring_faces,3.1.5,60.05608517710116,
condition files/Stage2_1.xlsx,,B4,T4,r,"['s', 'r']","['Stratego', 'Risk']","[-0.15, 0.5]","[0.15, 0.5]",1,1,,,,,,,,,,,,,,,,,0,4,4,4,0,0,0,5,,,,,,,,,,,,,,,,,,,,,,,,,,,,,,,,,,,,,,,,,,,,,,,1131.770324901,None,1131.770324901,None,1131.770324901,None,r,1,0.8212782059999881,1133.3040689809995,None,1133.3040689809995,None,1133.3040689809995,None,1134.1879970149994,None,1134.1879970149994,None,1134.1879970149994,None,1134.1879970149994,None,,,,,,,,,,,,,,,,,,,,,,,,,,,,,,,,,,,,,,,,,,,,001,108,2020_Feb_11_1214,spring_faces,3.1.5,60.05608517710116,
condition files/Stage2_1.xlsx,,T1,B1,s,"['s', 'r']","['Stratego', 'Risk']","[-0.15, 0.5]","[0.15, 0.5]",1,1,,,,,,,,,,,,,,,,,0,4,4,4,0,1,1,2,,,,,,,,,,,,,,,,,,,,,,,,,,,,,,,,,,,,,,,,,,,,,,,1136.153709651,None,1136.153709651,None,1136.153709651,None,s,1,3.3982242219999534,1137.6871188309997,None,1137.6871188309997,None,1137.6871188309997,None,1141.153910979,None,1141.153910979,None,1141.153910979,None,1141.153910979,None,,,,,,,,,,,,,,,,,,,,,,,,,,,,,,,,,,,,,,,,,,,,001,108,2020_Feb_11_1214,spring_faces,3.1.5,60.05608517710116,
condition files/Stage2_1.xlsx,,T3,B3,s,"['s', 'r']","['Stratego', 'Risk']","[-0.15, 0.5]","[0.15, 0.5]",1,1,,,,,,,,,,,,,,,,,0,4,4,4,0,2,2,4,,,,,,,,,,,,,,,,,,,,,,,,,,,,,,,,,,,,,,,,,,,,,,,1143.1031821320003,None,1143.1031821320003,None,1143.1031821320003,None,s,1,1.216501591999986,1144.6368747759998,None,1144.6368747759998,None,1144.6368747759998,None,1145.9036743279994,None,1145.9036743279994,None,1145.9036743279994,None,1145.9036743279994,None,,,,,,,,,,,,,,,,,,,,,,,,,,,,,,,,,,,,,,,,,,,,001,108,2020_Feb_11_1214,spring_faces,3.1.5,60.05608517710116,
condition files/Stage2_1.xlsx,,B2,T2,r,"['s', 'r']","['Stratego', 'Risk']","[-0.15, 0.5]","[0.15, 0.5]",1,1,,,,,,,,,,,,,,,,,0,4,4,4,0,3,3,3,,,,,,,,,,,,,,,,,,,,,,,,,,,,,,,,,,,,,,,,,,,,,,,1147.870316679,None,1147.870316679,None,1147.870316679,None,r,1,1.377302626000528,1149.4040038909998,None,1149.4040038909998,None,1149.4040038909998,None,1150.8399402349996,None,1150.8399402349996,None,1150.8399402349996,None,1150.8399402349996,None,,,,,,,,,,,,,,,,,,,,,,,,,,,,,,,,,,,,,,,,,,,,001,108,2020_Feb_11_1214,spring_faces,3.1.5,60.05608517710116,
condition files/Stage2_1.xlsx,,B6,T6,r,"['s', 'r']","['Stratego', 'Risk']","[-0.15, 0.5]","[0.15, 0.5]",1,1,,,,,,,,,,,,,,,,,0,4,4,4,0,4,4,1,,,,,,,,,,,,,,,,,,,,,,,,,,,,,,,,,,,,,,,,,,,,,,,1152.8034567200002,None,1152.8034567200002,None,1152.8034567200002,None,r,1,1.369879994999792,1154.3394895359997,None,1154.3394895359997,None,1154.3394895359997,None,1155.7703643139994,None,1155.7703643139994,None,1155.7703643139994,None,1155.7703643139994,None,,,,,,,,,,,,,,,,,,,,,,,,,,,,,,,,,,,,,,,,,,,,001,108,2020_Feb_11_1214,spring_faces,3.1.5,60.05608517710116,
