condsFile,subStage,cue1,cue2,correct,responseKeys,responseNames,cue1Position,cue2Position,cue1Opacity,cue2Opacity,stageLoop0.thisRepN,stageLoop0.thisTrialN,stageLoop0.thisN,stageLoop0.thisIndex,blockLoop0.thisRepN,blockLoop0.thisTrialN,blockLoop0.thisN,blockLoop0.thisIndex,stage1Loop.thisRepN,stage1Loop.thisTrialN,stage1Loop.thisN,stage1Loop.thisIndex,blockLoop1.thisRepN,blockLoop1.thisTrialN,blockLoop1.thisN,blockLoop1.thisIndex,stage2Loop.thisRepN,stage2Loop.thisTrialN,stage2Loop.thisN,stage2Loop.thisIndex,blockLoop2.thisRepN,blockLoop2.thisTrialN,blockLoop2.thisN,blockLoop2.thisIndex,testLoop.thisRepN,testLoop.thisTrialN,testLoop.thisN,testLoop.thisIndex,blockLoopTest.thisRepN,blockLoopTest.thisTrialN,blockLoopTest.thisN,blockLoopTest.thisIndex,cuePics,id_instr_text.started,id_instr_text.stopped,space_to_continue_2.started,space_to_continue_2.stopped,end_instructions_resp_3.keys,end_instructions_resp_3.rt,end_instructions_resp_3.started,end_instructions_resp_3.stopped,id_input_instr.started,id_input_instr.stopped,id_input_rect.started,id_input_rect.stopped,id_input_resp.keys,id_input_resp.rt,id_input_resp.started,id_input_resp.stopped,sonaID,id_input_text.started,id_input_text.stopped,final_text.started,final_text.stopped,instructions.started,instructions.stopped,end_instructions_resp.keys,end_instructions_resp.rt,end_instructions_resp.started,end_instructions_resp.stopped,space_to_continue.started,space_to_continue.stopped,instructions_stage0.started,instructions_stage0.stopped,end_instructions_resp_stage0.keys,end_instructions_resp_stage0.rt,end_instructions_resp_stage0.started,end_instructions_resp_stage0.stopped,space_to_continue_stage0.started,space_to_continue_stage0.stopped,text.started,text.stopped,resp_text1.started,resp_text1.stopped,resp_text2.started,resp_text2.stopped,trial_resp.keys,trial_resp.corr,trial_resp.rt,trial_resp.started,trial_resp.stopped,cue1Image.started,cue1Image.stopped,cue2Image.started,cue2Image.stopped,cue1Image_fb.started,cue1Image_fb.stopped,cue2Image_fb.started,cue2Image_fb.stopped,fb_text_answer.started,fb_text_answer.stopped,feedback_image.started,feedback_image.stopped,instructions_stage1.started,instructions_stage1.stopped,end_instructions_resp_stage1.keys,end_instructions_resp_stage1.rt,end_instructions_resp_stage1.started,end_instructions_resp_stage1.stopped,space_to_continue_stage1.started,space_to_continue_stage1.stopped,instructions_2.started,instructions_2.stopped,end_instructions_resp_2.keys,end_instructions_resp_2.rt,end_instructions_resp_2.started,end_instructions_resp_2.stopped,press_space_to_continue_stage2.started,press_space_to_continue_stage2.stopped,instructions_testStage1.started,instructions_testStage1.stopped,end_instructions_resp_test1.keys,end_instructions_resp_test1.rt,end_instructions_resp_test1.started,end_instructions_resp_test1.stopped,press_space_to_continue_test1.started,press_space_to_continue_test1.stopped,cue1Image_testChoice.started,cue1Image_testChoice.stopped,cue2Image_testChoice.started,cue2Image_testChoice.stopped,test_resp.keys,test_resp.corr,test_resp.rt,test_resp.started,test_resp.stopped,cue1Image_testConf.started,cue1Image_testConf.stopped,cue2Image_testConf.started,cue2Image_testConf.stopped,conf_reminder.started,conf_reminder.stopped,conf_rating.response,conf_rating.rt,conf_rating.started,conf_rating.stopped,session,participant,date,expName,psychopyVersion,frameRate,
,,,,,,,,,,,,,,,,,,,,,,,,,,,,,,,,,,,,,,,,,,,"{'none': 'pictures/20M_AN_C.png', 'alpha': 'pictures/SHINEd_apple.png', 'beta': 'pictures/SHINEd_pepper.png', 'theta': 'pictures/SHINEd_melon.png', 'phi': 'pictures/SHINEd_pear.png', 'T1': 'pictures/34M_AN_C.png', 'T2': 'pictures/23M_AN_C.png', 'T3': 'pictures/25M_AN_C.png', 'T4': 'pictures/32M_AN_C.png', 'T5': 'pictures/37M_AN_C.png', 'T6': 'pictures/33M_AN_C.png', 'B1': 'pictures/26M_NE_C.png', 'B2': 'pictures/22M_NE_C.png', 'B3': 'pictures/36M_NE_C.png', 'B4': 'pictures/31M_NE_C.png', 'B5': 'pictures/20M_NE_C.png', 'B6': 'pictures/38M_NE_C.png'}",15.893939142002637,None,20.89413513100226,None,space,28.70683553300114,20.89413513100226,None,,,,,,,,,,,,,,,,,,,,,,,,,,,,,,,,,,,,,,,,,,,,,,,,,,,,,,,,,,,,,,,,,,,,,,,,,,,,,,,,,,,,,,,,,,,,,,,,001,111,2020_Feb_11_1423,spring_faces,3.1.5,60.26178357542029,
,,,,,,,,,,,,,,,,,,,,,,,,,,,,,,,,,,,,,,,,,,,,,,,,,,,,49.97801521800284,None,49.97801521800284,None,"['1', '2', '0', '1', 'k', 'e', 'a', 'r', 'm']","[13.73486767400027, 13.814868679997744, 15.766820648997964, 16.00682293600039, 21.86307616100021, 21.990941667998413, 29.54293075500027, 29.734820232999482, 29.926883501000702]",49.97801521800284,None,,,,,,,,,,,,,,,,,,,,,,,,,,,,,,,,,,,,,,,,,,,,,,,,,,,,,,,,,,,,,,,,,,,,,,,,,,,,,,,,,,,,,,,,001,111,2020_Feb_11_1423,spring_faces,3.1.5,60.26178357542029,
,,,,,,,,,,,,,,,,,,,,,,,,,,,,,,,,,,,,,,,,,,,,,,,,,,,,,,,,,,,,1201kearm,49.97801521800284,None,49.97801521800284,None,84.9771799370028,None,space,5.591915717999655,89.97689688500031,None,,,,,,,,,,,,,,,,,,,,,,,,,,,,,,,,,,,,,,,,,,,,,,,,,,,,,,,,,,,,,,,,,,,,,,,,,,,,,001,111,2020_Feb_11_1423,spring_faces,3.1.5,60.26178357542029,
,,,,,,,,,,,,,,,,,,,,,,,,,,,,,,,,,,,,,,,,,,,,,,,,,,,,,,,,,,,,,,,,,,,,,,,89.97689688500031,None,95.61058658500042,None,space,8.702182832003018,100.6106766940029,None,,,,,,,,,,,,,,,,,,,,,,,,,,,,,,,,,,,,,,,,,,,,,,,,,,,,,,,,,,,,,,,,,,,,,001,111,2020_Feb_11_1423,spring_faces,3.1.5,60.26178357542029,
condition files/Stage0a.xlsx,0a,beta,none,g,"['h', 'g']","['Chess', 'Go']","[0, 0.5]","[0, 0]",1,0,0,0,0,0,0,0,0,1,,,,,,,,,,,,,,,,,,,,,,,,,,,,,,,,,,,,,,,,,,,,,,,,,,,,,,,,,,,,,100.6106766940029,None,109.37707063500056,None,109.37707063500056,None,109.37707063500056,None,h,0,8.63983677899887,110.96100674400077,None,110.96100674400077,None,110.96100674400077,None,119.67706652100242,None,119.67706652100242,None,119.67706652100242,None,119.67706652100242,None,,,,,,,,,,,,,,,,,,,,,,,,,,,,,,,,,,,,,,,,,,,,001,111,2020_Feb_11_1423,spring_faces,3.1.5,60.26178357542029,
condition files/Stage0a.xlsx,0a,alpha,none,h,"['h', 'g']","['Chess', 'Go']","[0, 0.5]","[0, 0]",1,0,0,0,0,0,0,1,1,0,,,,,,,,,,,,,,,,,,,,,,,,,,,,,,,,,,,,,,,,,,,,,,,,,,,,,,,,,,,,,,,121.62706103800156,None,121.62706103800156,None,121.62706103800156,None,h,1,9.815865824999491,123.17703434600116,None,123.17703434600116,None,123.17703434600116,None,133.04405366300125,None,133.04405366300125,None,133.04405366300125,None,133.04405366300125,None,,,,,,,,,,,,,,,,,,,,,,,,,,,,,,,,,,,,,,,,,,,,001,111,2020_Feb_11_1423,spring_faces,3.1.5,60.26178357542029,
condition files/Stage0a.xlsx,0a,alpha,none,h,"['h', 'g']","['Chess', 'Go']","[0, 0.5]","[0, 0]",1,0,0,1,1,1,0,0,0,0,,,,,,,,,,,,,,,,,,,,,,,,,,,,,,,,,,,,,,,,,,,,,,,,,,,,,,,,,,,,,,,135.02750010400268,None,135.02750010400268,None,135.02750010400268,None,h,1,2.8958150660000683,136.561076582002,None,136.561076582002,None,136.561076582002,None,139.5112181250006,None,139.5112181250006,None,139.5112181250006,None,139.5112181250006,None,,,,,,,,,,,,,,,,,,,,,,,,,,,,,,,,,,,,,,,,,,,,001,111,2020_Feb_11_1423,spring_faces,3.1.5,60.26178357542029,
condition files/Stage0a.xlsx,0a,beta,none,g,"['h', 'g']","['Chess', 'Go']","[0, 0.5]","[0, 0]",1,0,0,1,1,1,0,1,1,1,,,,,,,,,,,,,,,,,,,,,,,,,,,,,,,,,,,,,,,,,,,,,,,,,,,,,,,,,,,,,,,141.47732303400335,None,141.47732303400335,None,141.47732303400335,None,g,1,1.614338224997482,143.0105121960005,None,143.0105121960005,None,143.0105121960005,None,144.67731766200086,None,144.67731766200086,None,144.67731766200086,None,144.67731766200086,None,,,,,,,,,,,,,,,,,,,,,,,,,,,,,,,,,,,,,,,,,,,,001,111,2020_Feb_11_1423,spring_faces,3.1.5,60.26178357542029,
condition files/Stage0a.xlsx,0a,beta,none,g,"['h', 'g']","['Chess', 'Go']","[0, 0.5]","[0, 0]",1,0,0,2,2,2,0,0,0,1,,,,,,,,,,,,,,,,,,,,,,,,,,,,,,,,,,,,,,,,,,,,,,,,,,,,,,,,,,,,,,,146.66089630100032,None,146.66089630100032,None,146.66089630100032,None,g,1,1.1343424760016205,148.19451185300204,None,148.19451185300204,None,148.19451185300204,None,149.39454388300146,None,149.39454388300146,None,149.39454388300146,None,149.39454388300146,None,,,,,,,,,,,,,,,,,,,,,,,,,,,,,,,,,,,,,,,,,,,,001,111,2020_Feb_11_1423,spring_faces,3.1.5,60.26178357542029,
condition files/Stage0a.xlsx,0a,alpha,none,h,"['h', 'g']","['Chess', 'Go']","[0, 0.5]","[0, 0]",1,0,0,2,2,2,0,1,1,0,,,,,,,,,,,,,,,,,,,,,,,,,,,,,,,,,,,,,,,,,,,,,,,,,,,,,,,,,,,,,,,151.36078231100328,None,151.36078231100328,None,151.36078231100328,None,h,1,1.0588384450020385,152.89410619500268,None,152.89410619500268,None,152.89410619500268,None,154.01185710900245,None,154.01185710900245,None,154.01185710900245,None,154.01185710900245,None,,,,,,,,,,,,,,,,,,,,,,,,,,,,,,,,,,,,,,,,,,,,001,111,2020_Feb_11_1423,spring_faces,3.1.5,60.26178357542029,
condition files/Stage0a.xlsx,0a,beta,none,g,"['h', 'g']","['Chess', 'Go']","[0, 0.5]","[0, 0]",1,0,0,3,3,3,0,0,0,1,,,,,,,,,,,,,,,,,,,,,,,,,,,,,,,,,,,,,,,,,,,,,,,,,,,,,,,,,,,,,,,155.99460713400185,None,155.99460713400185,None,155.99460713400185,None,g,1,0.8896409110020613,157.51129822200164,None,157.51129822200164,None,157.51129822200164,None,158.46054180600186,None,158.46054180600186,None,158.46054180600186,None,158.46054180600186,None,,,,,,,,,,,,,,,,,,,,,,,,,,,,,,,,,,,,,,,,,,,,001,111,2020_Feb_11_1423,spring_faces,3.1.5,60.26178357542029,
condition files/Stage0a.xlsx,0a,alpha,none,h,"['h', 'g']","['Chess', 'Go']","[0, 0.5]","[0, 0]",1,0,0,3,3,3,0,1,1,0,,,,,,,,,,,,,,,,,,,,,,,,,,,,,,,,,,,,,,,,,,,,,,,,,,,,,,,,,,,,,,,160.42720337100036,None,160.42720337100036,None,160.42720337100036,None,g,0,5.223632174998784,161.96131553300074,None,161.96131553300074,None,161.96131553300074,None,167.24407857000188,None,167.24407857000188,None,167.24407857000188,None,167.24407857000188,None,,,,,,,,,,,,,,,,,,,,,,,,,,,,,,,,,,,,,,,,,,,,001,111,2020_Feb_11_1423,spring_faces,3.1.5,60.26178357542029,
condition files/Stage0a.xlsx,0a,alpha,none,h,"['h', 'g']","['Chess', 'Go']","[0, 0.5]","[0, 0]",1,0,0,4,4,4,0,0,0,0,,,,,,,,,,,,,,,,,,,,,,,,,,,,,,,,,,,,,,,,,,,,,,,,,,,,,,,,,,,,,,,169.2277330220022,None,169.2277330220022,None,169.2277330220022,None,h,1,0.6645747420006956,170.76031379800042,None,170.76031379800042,None,170.76031379800042,None,171.47717187000308,None,171.47717187000308,None,171.47717187000308,None,171.47717187000308,None,,,,,,,,,,,,,,,,,,,,,,,,,,,,,,,,,,,,,,,,,,,,001,111,2020_Feb_11_1423,spring_faces,3.1.5,60.26178357542029,
condition files/Stage0a.xlsx,0a,beta,none,g,"['h', 'g']","['Chess', 'Go']","[0, 0.5]","[0, 0]",1,0,0,4,4,4,0,1,1,1,,,,,,,,,,,,,,,,,,,,,,,,,,,,,,,,,,,,,,,,,,,,,,,,,,,,,,,,,,,,,,,173.44408263400328,None,173.44408263400328,None,173.44408263400328,None,g,1,1.0397094740001194,174.97715102800066,None,174.97715102800066,None,174.97715102800066,None,176.0772178310035,None,176.0772178310035,None,176.0772178310035,None,176.0772178310035,None,,,,,,,,,,,,,,,,,,,,,,,,,,,,,,,,,,,,,,,,,,,,001,111,2020_Feb_11_1423,spring_faces,3.1.5,60.26178357542029,
condition files/Stage0a.xlsx,0a,beta,none,g,"['h', 'g']","['Chess', 'Go']","[0, 0.5]","[0, 0]",1,0,0,5,5,5,0,0,0,1,,,,,,,,,,,,,,,,,,,,,,,,,,,,,,,,,,,,,,,,,,,,,,,,,,,,,,,,,,,,,,,178.06076916200254,None,178.06076916200254,None,178.06076916200254,None,g,1,0.6791393760031497,179.59378626300168,None,179.59378626300168,None,179.59378626300168,None,180.32793086900347,None,180.32793086900347,None,180.32793086900347,None,180.32793086900347,None,,,,,,,,,,,,,,,,,,,,,,,,,,,,,,,,,,,,,,,,,,,,001,111,2020_Feb_11_1423,spring_faces,3.1.5,60.26178357542029,
condition files/Stage0a.xlsx,0a,alpha,none,h,"['h', 'g']","['Chess', 'Go']","[0, 0.5]","[0, 0]",1,0,0,5,5,5,0,1,1,0,,,,,,,,,,,,,,,,,,,,,,,,,,,,,,,,,,,,,,,,,,,,,,,,,,,,,,,,,,,,,,,182.29415955400327,None,182.29415955400327,None,182.29415955400327,None,h,1,3.085392288001458,183.82749826000145,None,183.82749826000145,None,183.82749826000145,None,186.9771207360027,None,186.9771207360027,None,186.9771207360027,None,186.9771207360027,None,,,,,,,,,,,,,,,,,,,,,,,,,,,,,,,,,,,,,,,,,,,,001,111,2020_Feb_11_1423,spring_faces,3.1.5,60.26178357542029,
condition files/Stage0b_1.xlsx,0b,none,beta,g,"['h', 'g']","['Chess', 'Go']","[-0.15, 0.5]","[0.15, 0.5]",0,1,0,6,6,6,0,0,0,1,,,,,,,,,,,,,,,,,,,,,,,,,,,,,,,,,,,,,,,,,,,,,,,,,,,,,,,,,,,,,,,188.96110696100004,None,188.96110696100004,None,188.96110696100004,None,g,1,5.3940648210009385,190.51091166900005,None,190.51091166900005,None,190.51091166900005,None,195.97712007800146,None,195.97712007800146,None,195.97712007800146,None,195.97712007800146,None,,,,,,,,,,,,,,,,,,,,,,,,,,,,,,,,,,,,,,,,,,,,001,111,2020_Feb_11_1423,spring_faces,3.1.5,60.26178357542029,
condition files/Stage0b_1.xlsx,0b,alpha,none,h,"['h', 'g']","['Chess', 'Go']","[-0.15, 0.5]","[0.15, 0.5]",1,0,0,6,6,6,0,1,1,0,,,,,,,,,,,,,,,,,,,,,,,,,,,,,,,,,,,,,,,,,,,,,,,,,,,,,,,,,,,,,,,197.92749607500082,None,197.92749607500082,None,197.92749607500082,None,h,1,0.9670060680000461,199.46589967399996,None,199.46589967399996,None,199.46589967399996,None,200.4982928260033,None,200.4982928260033,None,200.4982928260033,None,200.4982928260033,None,,,,,,,,,,,,,,,,,,,,,,,,,,,,,,,,,,,,,,,,,,,,001,111,2020_Feb_11_1423,spring_faces,3.1.5,60.26178357542029,
condition files/Stage0b_2.xlsx,0b,none,alpha,h,"['h', 'g']","['Chess', 'Go']","[-0.15, 0.5]","[0.15, 0.5]",0,1,0,7,7,7,0,0,0,0,,,,,,,,,,,,,,,,,,,,,,,,,,,,,,,,,,,,,,,,,,,,,,,,,,,,,,,,,,,,,,,202.47780673000307,None,202.47780673000307,None,202.47780673000307,None,h,1,1.3767292929987889,204.01614280800277,None,204.01614280800277,None,204.01614280800277,None,205.44438837800044,None,205.44438837800044,None,205.44438837800044,None,205.44438837800044,None,,,,,,,,,,,,,,,,,,,,,,,,,,,,,,,,,,,,,,,,,,,,001,111,2020_Feb_11_1423,spring_faces,3.1.5,60.26178357542029,
condition files/Stage0b_2.xlsx,0b,beta,none,g,"['h', 'g']","['Chess', 'Go']","[-0.15, 0.5]","[0.15, 0.5]",1,0,0,7,7,7,0,1,1,1,,,,,,,,,,,,,,,,,,,,,,,,,,,,,,,,,,,,,,,,,,,,,,,,,,,,,,,,,,,,,,,207.409911165003,None,207.409911165003,None,207.409911165003,None,g,1,1.02137804800077,208.94758893200196,None,208.94758893200196,None,208.94758893200196,None,210.02783615800217,None,210.02783615800217,None,210.02783615800217,None,210.02783615800217,None,,,,,,,,,,,,,,,,,,,,,,,,,,,,,,,,,,,,,,,,,,,,001,111,2020_Feb_11_1423,spring_faces,3.1.5,60.26178357542029,
condition files/Stage0b_1.xlsx,0b,none,beta,g,"['h', 'g']","['Chess', 'Go']","[-0.15, 0.5]","[0.15, 0.5]",0,1,0,8,8,8,0,0,0,1,,,,,,,,,,,,,,,,,,,,,,,,,,,,,,,,,,,,,,,,,,,,,,,,,,,,,,,,,,,,,,,212.0108114800023,None,212.0108114800023,None,212.0108114800023,None,g,1,0.8395458750019316,213.54543061799995,None,213.54543061799995,None,213.54543061799995,None,214.44675913100218,None,214.44675913100218,None,214.44675913100218,None,214.44675913100218,None,,,,,,,,,,,,,,,,,,,,,,,,,,,,,,,,,,,,,,,,,,,,001,111,2020_Feb_11_1423,spring_faces,3.1.5,60.26178357542029,
condition files/Stage0b_1.xlsx,0b,alpha,none,h,"['h', 'g']","['Chess', 'Go']","[-0.15, 0.5]","[0.15, 0.5]",1,0,0,8,8,8,0,1,1,0,,,,,,,,,,,,,,,,,,,,,,,,,,,,,,,,,,,,,,,,,,,,,,,,,,,,,,,,,,,,,,,216.4107254490009,None,216.4107254490009,None,216.4107254490009,None,h,1,1.206309749999491,217.94665995200194,None,217.94665995200194,None,217.94665995200194,None,219.2126378690009,None,219.2126378690009,None,219.2126378690009,None,219.2126378690009,None,,,,,,,,,,,,,,,,,,,,,,,,,,,,,,,,,,,,,,,,,,,,001,111,2020_Feb_11_1423,spring_faces,3.1.5,60.26178357542029,
condition files/Stage0b_2.xlsx,0b,none,alpha,h,"['h', 'g']","['Chess', 'Go']","[-0.15, 0.5]","[0.15, 0.5]",0,1,0,9,9,9,0,0,0,0,,,,,,,,,,,,,,,,,,,,,,,,,,,,,,,,,,,,,,,,,,,,,,,,,,,,,,,,,,,,,,,221.19393433799996,None,221.19393433799996,None,221.19393433799996,None,h,1,0.6458331890025875,222.7310783940011,None,222.7310783940011,None,222.7310783940011,None,223.42799029600064,None,223.42799029600064,None,223.42799029600064,None,223.42799029600064,None,,,,,,,,,,,,,,,,,,,,,,,,,,,,,,,,,,,,,,,,,,,,001,111,2020_Feb_11_1423,spring_faces,3.1.5,60.26178357542029,
condition files/Stage0b_2.xlsx,0b,beta,none,g,"['h', 'g']","['Chess', 'Go']","[-0.15, 0.5]","[0.15, 0.5]",1,0,0,9,9,9,0,1,1,1,,,,,,,,,,,,,,,,,,,,,,,,,,,,,,,,,,,,,,,,,,,,,,,,,,,,,,,,,,,,,,,225.39427021800293,None,225.39427021800293,None,225.39427021800293,None,g,1,0.8307750729982217,226.93006989700007,None,226.93006989700007,None,226.93006989700007,None,227.8111935400011,None,227.8111935400011,None,227.8111935400011,None,227.8111935400011,None,,,,,,,,,,,,,,,,,,,,,,,,,,,,,,,,,,,,,,,,,,,,001,111,2020_Feb_11_1423,spring_faces,3.1.5,60.26178357542029,
condition files/Stage0b_1.xlsx,0b,alpha,none,h,"['h', 'g']","['Chess', 'Go']","[-0.15, 0.5]","[0.15, 0.5]",1,0,0,10,10,10,0,0,0,0,,,,,,,,,,,,,,,,,,,,,,,,,,,,,,,,,,,,,,,,,,,,,,,,,,,,,,,,,,,,,,,229.79407606000314,None,229.79407606000314,None,229.79407606000314,None,h,1,1.8255253969982732,231.32742872400195,None,231.32742872400195,None,231.32742872400195,None,233.21071503700296,None,233.21071503700296,None,233.21071503700296,None,233.21071503700296,None,,,,,,,,,,,,,,,,,,,,,,,,,,,,,,,,,,,,,,,,,,,,001,111,2020_Feb_11_1423,spring_faces,3.1.5,60.26178357542029,
condition files/Stage0b_1.xlsx,0b,none,beta,g,"['h', 'g']","['Chess', 'Go']","[-0.15, 0.5]","[0.15, 0.5]",0,1,0,10,10,10,0,1,1,1,,,,,,,,,,,,,,,,,,,,,,,,,,,,,,,,,,,,,,,,,,,,,,,,,,,,,,,,,,,,,,,235.17749504400126,None,235.17749504400126,None,235.17749504400126,None,g,1,0.6132980219990714,236.71553994800342,None,236.71553994800342,None,236.71553994800342,None,237.39508933800244,None,237.39508933800244,None,237.39508933800244,None,237.39508933800244,None,,,,,,,,,,,,,,,,,,,,,,,,,,,,,,,,,,,,,,,,,,,,001,111,2020_Feb_11_1423,spring_faces,3.1.5,60.26178357542029,
condition files/Stage0b_2.xlsx,0b,beta,none,g,"['h', 'g']","['Chess', 'Go']","[-0.15, 0.5]","[0.15, 0.5]",1,0,0,11,11,11,0,0,0,1,,,,,,,,,,,,,,,,,,,,,,,,,,,,,,,,,,,,,,,,,,,,,,,,,,,,,,,,,,,,,,,239.37786523500108,None,239.37786523500108,None,239.37786523500108,None,g,1,0.5611834240007738,240.92770321600256,None,240.92770321600256,None,240.92770321600256,None,241.5441076140014,None,241.5441076140014,None,241.5441076140014,None,241.5441076140014,None,,,,,,,,,,,,,,,,,,,,,,,,,,,,,,,,,,,,,,,,,,,,001,111,2020_Feb_11_1423,spring_faces,3.1.5,60.26178357542029,
condition files/Stage0b_2.xlsx,0b,none,alpha,h,"['h', 'g']","['Chess', 'Go']","[-0.15, 0.5]","[0.15, 0.5]",0,1,0,11,11,11,0,1,1,0,,,,,,,,,,,,,,,,,,,,,,,,,,,,,,,,,,,,,,,,,,,,,,,,,,,,,,,,,,,,,,,243.510556250003,None,243.510556250003,None,243.510556250003,None,h,1,0.6846215240002493,245.04422860200066,None,245.04422860200066,None,245.04422860200066,None,245.79551508200166,None,245.79551508200166,None,245.79551508200166,None,245.79551508200166,None,,,,,,,,,,,,,,,,,,,,,,,,,,,,,,,,,,,,,,,,,,,,001,111,2020_Feb_11_1423,spring_faces,3.1.5,60.26178357542029,
condition files/Stage0c_1.xlsx,0c,alpha,phi,h,"['h', 'g']","['Chess', 'Go']","[-0.15, 0.5]","[0.15, 0.5]",1,1,0,12,12,12,0,0,0,1,,,,,,,,,,,,,,,,,,,,,,,,,,,,,,,,,,,,,,,,,,,,,,,,,,,,,,,,,,,,,,,247.77773633700053,None,247.77773633700053,None,247.77773633700053,None,h,1,6.657294901000569,249.31168468900069,None,249.31168468900069,None,249.31168468900069,None,256.0283814510003,None,256.0283814510003,None,256.0283814510003,None,256.0283814510003,None,,,,,,,,,,,,,,,,,,,,,,,,,,,,,,,,,,,,,,,,,,,,001,111,2020_Feb_11_1423,spring_faces,3.1.5,60.26178357542029,
condition files/Stage0c_1.xlsx,0c,theta,alpha,h,"['h', 'g']","['Chess', 'Go']","[-0.15, 0.5]","[0.15, 0.5]",1,1,0,12,12,12,0,1,1,0,,,,,,,,,,,,,,,,,,,,,,,,,,,,,,,,,,,,,,,,,,,,,,,,,,,,,,,,,,,,,,,257.9941566280031,None,257.9941566280031,None,257.9941566280031,None,h,1,3.3051598999991256,259.52773253500345,None,259.52773253500345,None,259.52773253500345,None,262.88022597000236,None,262.88022597000236,None,262.88022597000236,None,262.88022597000236,None,,,,,,,,,,,,,,,,,,,,,,,,,,,,,,,,,,,,,,,,,,,,001,111,2020_Feb_11_1423,spring_faces,3.1.5,60.26178357542029,
condition files/Stage0c_1.xlsx,0c,phi,beta,g,"['h', 'g']","['Chess', 'Go']","[-0.15, 0.5]","[0.15, 0.5]",1,1,0,12,12,12,0,2,2,3,,,,,,,,,,,,,,,,,,,,,,,,,,,,,,,,,,,,,,,,,,,,,,,,,,,,,,,,,,,,,,,264.86022323400175,None,264.86022323400175,None,264.86022323400175,None,g,1,4.342654243002471,266.3943028770009,None,266.3943028770009,None,266.3943028770009,None,270.7944375170009,None,270.7944375170009,None,270.7944375170009,None,270.7944375170009,None,,,,,,,,,,,,,,,,,,,,,,,,,,,,,,,,,,,,,,,,,,,,001,111,2020_Feb_11_1423,spring_faces,3.1.5,60.26178357542029,
condition files/Stage0c_1.xlsx,0c,beta,theta,g,"['h', 'g']","['Chess', 'Go']","[-0.15, 0.5]","[0.15, 0.5]",1,1,0,12,12,12,0,3,3,2,,,,,,,,,,,,,,,,,,,,,,,,,,,,,,,,,,,,,,,,,,,,,,,,,,,,,,,,,,,,,,,272.7602642360034,None,272.7602642360034,None,272.7602642360034,None,g,1,2.7787500109989196,274.2941425380013,None,274.2941425380013,None,274.2941425380013,None,277.12778203200287,None,277.12778203200287,None,277.12778203200287,None,277.12778203200287,None,,,,,,,,,,,,,,,,,,,,,,,,,,,,,,,,,,,,,,,,,,,,001,111,2020_Feb_11_1423,spring_faces,3.1.5,60.26178357542029,
condition files/Stage0c_2.xlsx,0c,theta,beta,g,"['h', 'g']","['Chess', 'Go']","[-0.15, 0.5]","[0.15, 0.5]",1,1,0,13,13,13,0,0,0,2,,,,,,,,,,,,,,,,,,,,,,,,,,,,,,,,,,,,,,,,,,,,,,,,,,,,,,,,,,,,,,,279.110890543001,None,279.110890543001,None,279.110890543001,None,g,1,1.293168305997824,280.64380135500323,None,280.64380135500323,None,280.64380135500323,None,281.978552882003,None,281.978552882003,None,281.978552882003,None,281.978552882003,None,,,,,,,,,,,,,,,,,,,,,,,,,,,,,,,,,,,,,,,,,,,,001,111,2020_Feb_11_1423,spring_faces,3.1.5,60.26178357542029,
condition files/Stage0c_2.xlsx,0c,beta,phi,g,"['h', 'g']","['Chess', 'Go']","[-0.15, 0.5]","[0.15, 0.5]",1,1,0,13,13,13,0,1,1,3,,,,,,,,,,,,,,,,,,,,,,,,,,,,,,,,,,,,,,,,,,,,,,,,,,,,,,,,,,,,,,,283.9609514790027,None,283.9609514790027,None,283.9609514790027,None,g,1,1.370600349000597,285.4942979740008,None,285.4942979740008,None,285.4942979740008,None,286.910371897,None,286.910371897,None,286.910371897,None,286.910371897,None,,,,,,,,,,,,,,,,,,,,,,,,,,,,,,,,,,,,,,,,,,,,001,111,2020_Feb_11_1423,spring_faces,3.1.5,60.26178357542029,
condition files/Stage0c_2.xlsx,0c,phi,alpha,h,"['h', 'g']","['Chess', 'Go']","[-0.15, 0.5]","[0.15, 0.5]",1,1,0,13,13,13,0,2,2,1,,,,,,,,,,,,,,,,,,,,,,,,,,,,,,,,,,,,,,,,,,,,,,,,,,,,,,,,,,,,,,,288.8940485170024,None,288.8940485170024,None,288.8940485170024,None,h,1,2.8692557649992523,290.4276337480005,None,290.4276337480005,None,290.4276337480005,None,293.3603266250029,None,293.3603266250029,None,293.3603266250029,None,293.3603266250029,None,,,,,,,,,,,,,,,,,,,,,,,,,,,,,,,,,,,,,,,,,,,,001,111,2020_Feb_11_1423,spring_faces,3.1.5,60.26178357542029,
condition files/Stage0c_2.xlsx,0c,alpha,theta,h,"['h', 'g']","['Chess', 'Go']","[-0.15, 0.5]","[0.15, 0.5]",1,1,0,13,13,13,0,3,3,0,,,,,,,,,,,,,,,,,,,,,,,,,,,,,,,,,,,,,,,,,,,,,,,,,,,,,,,,,,,,,,,295.32758115400065,None,295.32758115400065,None,295.32758115400065,None,h,1,2.099770703000104,296.8611222190011,None,296.8611222190011,None,296.8611222190011,None,298.99506932400254,None,298.99506932400254,None,298.99506932400254,None,298.99506932400254,None,,,,,,,,,,,,,,,,,,,,,,,,,,,,,,,,,,,,,,,,,,,,001,111,2020_Feb_11_1423,spring_faces,3.1.5,60.26178357542029,
condition files/Stage0c_1.xlsx,0c,alpha,phi,h,"['h', 'g']","['Chess', 'Go']","[-0.15, 0.5]","[0.15, 0.5]",1,1,0,14,14,14,0,0,0,1,,,,,,,,,,,,,,,,,,,,,,,,,,,,,,,,,,,,,,,,,,,,,,,,,,,,,,,,,,,,,,,300.99393679100103,None,300.99393679100103,None,300.99393679100103,None,h,1,1.52108238800065,302.5278180290006,None,302.5278180290006,None,302.5278180290006,None,304.0943220170011,None,304.0943220170011,None,304.0943220170011,None,304.0943220170011,None,,,,,,,,,,,,,,,,,,,,,,,,,,,,,,,,,,,,,,,,,,,,001,111,2020_Feb_11_1423,spring_faces,3.1.5,60.26178357542029,
condition files/Stage0c_1.xlsx,0c,phi,beta,g,"['h', 'g']","['Chess', 'Go']","[-0.15, 0.5]","[0.15, 0.5]",1,1,0,14,14,14,0,1,1,3,,,,,,,,,,,,,,,,,,,,,,,,,,,,,,,,,,,,,,,,,,,,,,,,,,,,,,,,,,,,,,,306.0774550770002,None,306.0774550770002,None,306.0774550770002,None,g,1,3.8624581139993097,307.61045335900053,None,307.61045335900053,None,307.61045335900053,None,311.5270134860002,None,311.5270134860002,None,311.5270134860002,None,311.5270134860002,None,,,,,,,,,,,,,,,,,,,,,,,,,,,,,,,,,,,,,,,,,,,,001,111,2020_Feb_11_1423,spring_faces,3.1.5,60.26178357542029,
condition files/Stage0c_1.xlsx,0c,theta,alpha,h,"['h', 'g']","['Chess', 'Go']","[-0.15, 0.5]","[0.15, 0.5]",1,1,0,14,14,14,0,2,2,0,,,,,,,,,,,,,,,,,,,,,,,,,,,,,,,,,,,,,,,,,,,,,,,,,,,,,,,,,,,,,,,313.4942073530001,None,313.4942073530001,None,313.4942073530001,None,h,1,1.08508024099865,315.02780719000293,None,315.02780719000293,None,315.02780719000293,None,316.17741106000176,None,316.17741106000176,None,316.17741106000176,None,316.17741106000176,None,,,,,,,,,,,,,,,,,,,,,,,,,,,,,,,,,,,,,,,,,,,,001,111,2020_Feb_11_1423,spring_faces,3.1.5,60.26178357542029,
condition files/Stage0c_1.xlsx,0c,beta,theta,g,"['h', 'g']","['Chess', 'Go']","[-0.15, 0.5]","[0.15, 0.5]",1,1,0,14,14,14,0,3,3,2,,,,,,,,,,,,,,,,,,,,,,,,,,,,,,,,,,,,,,,,,,,,,,,,,,,,,,,,,,,,,,,318.1438236040012,None,318.1438236040012,None,318.1438236040012,None,g,1,0.8192644760019903,319.6776364640027,None,319.6776364640027,None,319.6776364640027,None,320.56134187200223,None,320.56134187200223,None,320.56134187200223,None,320.56134187200223,None,,,,,,,,,,,,,,,,,,,,,,,,,,,,,,,,,,,,,,,,,,,,001,111,2020_Feb_11_1423,spring_faces,3.1.5,60.26178357542029,
condition files/Stage0c_2.xlsx,0c,beta,phi,g,"['h', 'g']","['Chess', 'Go']","[-0.15, 0.5]","[0.15, 0.5]",1,1,0,15,15,15,0,0,0,3,,,,,,,,,,,,,,,,,,,,,,,,,,,,,,,,,,,,,,,,,,,,,,,,,,,,,,,,,,,,,,,322.54415879000226,None,322.54415879000226,None,322.54415879000226,None,g,1,2.8198251920002804,324.0770752480021,None,324.0770752480021,None,324.0770752480021,None,326.94387573900167,None,326.94387573900167,None,326.94387573900167,None,326.94387573900167,None,,,,,,,,,,,,,,,,,,,,,,,,,,,,,,,,,,,,,,,,,,,,001,111,2020_Feb_11_1423,spring_faces,3.1.5,60.26178357542029,
condition files/Stage0c_2.xlsx,0c,alpha,theta,h,"['h', 'g']","['Chess', 'Go']","[-0.15, 0.5]","[0.15, 0.5]",1,1,0,15,15,15,0,1,1,0,,,,,,,,,,,,,,,,,,,,,,,,,,,,,,,,,,,,,,,,,,,,,,,,,,,,,,,,,,,,,,,328.92747667000003,None,328.92747667000003,None,328.92747667000003,None,h,1,0.7558048319988302,330.46108815400294,None,330.46108815400294,None,330.46108815400294,None,331.2779219660006,None,331.2779219660006,None,331.2779219660006,None,331.2779219660006,None,,,,,,,,,,,,,,,,,,,,,,,,,,,,,,,,,,,,,,,,,,,,001,111,2020_Feb_11_1423,spring_faces,3.1.5,60.26178357542029,
condition files/Stage0c_2.xlsx,0c,theta,beta,g,"['h', 'g']","['Chess', 'Go']","[-0.15, 0.5]","[0.15, 0.5]",1,1,0,15,15,15,0,2,2,2,,,,,,,,,,,,,,,,,,,,,,,,,,,,,,,,,,,,,,,,,,,,,,,,,,,,,,,,,,,,,,,333.2442241980025,None,333.2442241980025,None,333.2442241980025,None,g,1,2.567081443998177,334.77778338200005,None,334.77778338200005,None,334.77778338200005,None,337.41067255200323,None,337.41067255200323,None,337.41067255200323,None,337.41067255200323,None,,,,,,,,,,,,,,,,,,,,,,,,,,,,,,,,,,,,,,,,,,,,001,111,2020_Feb_11_1423,spring_faces,3.1.5,60.26178357542029,
condition files/Stage0c_2.xlsx,0c,phi,alpha,h,"['h', 'g']","['Chess', 'Go']","[-0.15, 0.5]","[0.15, 0.5]",1,1,0,15,15,15,0,3,3,1,,,,,,,,,,,,,,,,,,,,,,,,,,,,,,,,,,,,,,,,,,,,,,,,,,,,,,,,,,,,,,,339.3776157650027,None,339.3776157650027,None,339.3776157650027,None,h,1,0.769930813999963,340.9109709760014,None,340.9109709760014,None,340.9109709760014,None,341.74407084700215,None,341.74407084700215,None,341.74407084700215,None,341.74407084700215,None,,,,,,,,,,,,,,,,,,,,,,,,,,,,,,,,,,,,,,,,,,,,001,111,2020_Feb_11_1423,spring_faces,3.1.5,60.26178357542029,
condition files/Stage0c_1.xlsx,0c,phi,beta,g,"['h', 'g']","['Chess', 'Go']","[-0.15, 0.5]","[0.15, 0.5]",1,1,0,16,16,16,0,0,0,3,,,,,,,,,,,,,,,,,,,,,,,,,,,,,,,,,,,,,,,,,,,,,,,,,,,,,,,,,,,,,,,343.727273075001,None,343.727273075001,None,343.727273075001,None,g,1,0.6437875180017727,345.26112810199993,None,345.26112810199993,None,345.26112810199993,None,345.96078693800155,None,345.96078693800155,None,345.96078693800155,None,345.96078693800155,None,,,,,,,,,,,,,,,,,,,,,,,,,,,,,,,,,,,,,,,,,,,,001,111,2020_Feb_11_1423,spring_faces,3.1.5,60.26178357542029,
condition files/Stage0c_1.xlsx,0c,theta,alpha,h,"['h', 'g']","['Chess', 'Go']","[-0.15, 0.5]","[0.15, 0.5]",1,1,0,16,16,16,0,1,1,0,,,,,,,,,,,,,,,,,,,,,,,,,,,,,,,,,,,,,,,,,,,,,,,,,,,,,,,,,,,,,,,347.9275403890024,None,347.9275403890024,None,347.9275403890024,None,h,1,0.49185072800173657,349.4611040790005,None,349.4611040790005,None,349.4611040790005,None,350.0111821740029,None,350.0111821740029,None,350.0111821740029,None,350.0111821740029,None,,,,,,,,,,,,,,,,,,,,,,,,,,,,,,,,,,,,,,,,,,,,001,111,2020_Feb_11_1423,spring_faces,3.1.5,60.26178357542029,
condition files/Stage0c_1.xlsx,0c,beta,theta,g,"['h', 'g']","['Chess', 'Go']","[-0.15, 0.5]","[0.15, 0.5]",1,1,0,16,16,16,0,2,2,2,,,,,,,,,,,,,,,,,,,,,,,,,,,,,,,,,,,,,,,,,,,,,,,,,,,,,,,,,,,,,,,351.97737360700194,None,351.97737360700194,None,351.97737360700194,None,g,1,0.5697750020008243,353.5111193900011,None,353.5111193900011,None,353.5111193900011,None,354.14408937100234,None,354.14408937100234,None,354.14408937100234,None,354.14408937100234,None,,,,,,,,,,,,,,,,,,,,,,,,,,,,,,,,,,,,,,,,,,,,001,111,2020_Feb_11_1423,spring_faces,3.1.5,60.26178357542029,
condition files/Stage0c_1.xlsx,0c,alpha,phi,h,"['h', 'g']","['Chess', 'Go']","[-0.15, 0.5]","[0.15, 0.5]",1,1,0,16,16,16,0,3,3,1,,,,,,,,,,,,,,,,,,,,,,,,,,,,,,,,,,,,,,,,,,,,,,,,,,,,,,,,,,,,,,,356.1108342410007,None,356.1108342410007,None,356.1108342410007,None,h,1,0.5811096420002286,357.643778716003,None,357.643778716003,None,357.643778716003,None,358.27748226900076,None,358.27748226900076,None,358.27748226900076,None,358.27748226900076,None,,,,,,,,,,,,,,,,,,,,,,,,,,,,,,,,,,,,,,,,,,,,001,111,2020_Feb_11_1423,spring_faces,3.1.5,60.26178357542029,
condition files/Stage0c_2.xlsx,0c,phi,alpha,h,"['h', 'g']","['Chess', 'Go']","[-0.15, 0.5]","[0.15, 0.5]",1,1,0,17,17,17,0,0,0,1,,,,,,,,,,,,,,,,,,,,,,,,,,,,,,,,,,,,,,,,,,,,,,,,,,,,,,,,,,,,,,,360.26112110300164,None,360.26112110300164,None,360.26112110300164,None,h,1,0.6385430529990117,361.7943659240009,None,361.7943659240009,None,361.7943659240009,None,362.4777648570016,None,362.4777648570016,None,362.4777648570016,None,362.4777648570016,None,,,,,,,,,,,,,,,,,,,,,,,,,,,,,,,,,,,,,,,,,,,,001,111,2020_Feb_11_1423,spring_faces,3.1.5,60.26178357542029,
condition files/Stage0c_2.xlsx,0c,alpha,theta,h,"['h', 'g']","['Chess', 'Go']","[-0.15, 0.5]","[0.15, 0.5]",1,1,0,17,17,17,0,1,1,0,,,,,,,,,,,,,,,,,,,,,,,,,,,,,,,,,,,,,,,,,,,,,,,,,,,,,,,,,,,,,,,364.46092910300285,None,364.46092910300285,None,364.46092910300285,None,h,1,0.6147826059968793,365.9941029440015,None,365.9941029440015,None,365.9941029440015,None,366.645095879001,None,366.645095879001,None,366.645095879001,None,366.645095879001,None,,,,,,,,,,,,,,,,,,,,,,,,,,,,,,,,,,,,,,,,,,,,001,111,2020_Feb_11_1423,spring_faces,3.1.5,60.26178357542029,
condition files/Stage0c_2.xlsx,0c,theta,beta,g,"['h', 'g']","['Chess', 'Go']","[-0.15, 0.5]","[0.15, 0.5]",1,1,0,17,17,17,0,2,2,2,,,,,,,,,,,,,,,,,,,,,,,,,,,,,,,,,,,,,,,,,,,,,,,,,,,,,,,,,,,,,,,368.6279301240029,None,368.6279301240029,None,368.6279301240029,None,g,1,0.9921358850006072,370.1608183600001,None,370.1608183600001,None,370.1608183600001,None,371.21058697800254,None,371.21058697800254,None,371.21058697800254,None,371.21058697800254,None,,,,,,,,,,,,,,,,,,,,,,,,,,,,,,,,,,,,,,,,,,,,001,111,2020_Feb_11_1423,spring_faces,3.1.5,60.26178357542029,
condition files/Stage0c_2.xlsx,0c,beta,phi,g,"['h', 'g']","['Chess', 'Go']","[-0.15, 0.5]","[0.15, 0.5]",1,1,0,17,17,17,0,3,3,3,,,,,,,,,,,,,,,,,,,,,,,,,,,,,,,,,,,,,,,,,,,,,,,,,,,,,,,,,,,,,,,373.1769655540011,None,373.1769655540011,None,373.1769655540011,None,g,1,1.5618869070021901,374.7110261230009,None,374.7110261230009,None,374.7110261230009,None,376.31263059699995,None,376.31263059699995,None,376.31263059699995,None,376.31263059699995,None,,,,,,,,,,,,,,,,,,,,,,,,,,,,,,,,,,,,,,,,,,,,001,111,2020_Feb_11_1423,spring_faces,3.1.5,60.26178357542029,
,,,,,,,,,,,,,,,,,,,,,,,,,,,,,,,,,,,,,,,,,,,,,,,,,,,,,,,,,,,,,,,,,,,,,,,,,,,,,,,,,,,,,,,,,,,,,,,,,,,,,,,,378.31111389700163,None,space,6.929995050002617,383.31089926700224,None,,,,,,,,,,,,,,,,,,,,,,,,,,,,,,,,,,,,,,001,111,2020_Feb_11_1423,spring_faces,3.1.5,60.26178357542029,
condition files/Stage1_1.xlsx,,T4,B3,m,"['c', 'm']","['Clue', 'Monopoly']","[-0.15, 0.5]","[0.15, 0.5]",1,1,,,,,,,,,0,0,0,0,0,0,0,6,,,,,,,,,,,,,,,,,,,,,,,,,,,,,,,,,,,,,,,,,,,,,,,,,,,,,,,390.2944153790013,None,390.2944153790013,None,390.2944153790013,None,m,1,3.70960076999836,391.82738401700044,None,391.82738401700044,None,391.82738401700044,None,395.61034786800155,None,395.61034786800155,None,395.61034786800155,None,395.61034786800155,None,,,,,,,383.31089926700224,None,,,,,,,,,,,,,,,,,,,,,,,,,,,,,,,,,,,,001,111,2020_Feb_11_1423,spring_faces,3.1.5,60.26178357542029,
condition files/Stage1_1.xlsx,,B4,T4,m,"['c', 'm']","['Clue', 'Monopoly']","[-0.15, 0.5]","[0.15, 0.5]",1,1,,,,,,,,,0,0,0,0,0,1,1,7,,,,,,,,,,,,,,,,,,,,,,,,,,,,,,,,,,,,,,,,,,,,,,,,,,,,,,,397.5607243850027,None,397.5607243850027,None,397.5607243850027,None,m,1,1.448354855998332,399.0965274950031,None,399.0965274950031,None,399.0965274950031,None,400.61101167800007,None,400.61101167800007,None,400.61101167800007,None,400.61101167800007,None,,,,,,,,,,,,,,,,,,,,,,,,,,,,,,,,,,,,,,,,,,,,001,111,2020_Feb_11_1423,spring_faces,3.1.5,60.26178357542029,
condition files/Stage1_1.xlsx,,B2,T1,m,"['c', 'm']","['Clue', 'Monopoly']","[-0.15, 0.5]","[0.15, 0.5]",1,1,,,,,,,,,0,0,0,0,0,2,2,2,,,,,,,,,,,,,,,,,,,,,,,,,,,,,,,,,,,,,,,,,,,,,,,,,,,,,,,402.5775350940021,None,402.5775350940021,None,402.5775350940021,None,c,0,1.4583138250018237,404.11065959100233,None,404.11065959100233,None,404.11065959100233,None,405.62784132600063,None,405.62784132600063,None,405.62784132600063,None,405.62784132600063,None,,,,,,,,,,,,,,,,,,,,,,,,,,,,,,,,,,,,,,,,,,,,001,111,2020_Feb_11_1423,spring_faces,3.1.5,60.26178357542029,
condition files/Stage1_1.xlsx,,T1,B1,c,"['c', 'm']","['Clue', 'Monopoly']","[-0.15, 0.5]","[0.15, 0.5]",1,1,,,,,,,,,0,0,0,0,0,3,3,0,,,,,,,,,,,,,,,,,,,,,,,,,,,,,,,,,,,,,,,,,,,,,,,,,,,,,,,407.59415862400056,None,407.59415862400056,None,407.59415862400056,None,m,0,2.632630276002601,409.14425544700134,None,409.14425544700134,None,409.14425544700134,None,411.82785118600077,None,411.82785118600077,None,411.82785118600077,None,411.82785118600077,None,,,,,,,,,,,,,,,,,,,,,,,,,,,,,,,,,,,,,,,,,,,,001,111,2020_Feb_11_1423,spring_faces,3.1.5,60.26178357542029,
condition files/Stage1_1.xlsx,,T3,B4,c,"['c', 'm']","['Clue', 'Monopoly']","[-0.15, 0.5]","[0.15, 0.5]",1,1,,,,,,,,,0,0,0,0,0,4,4,5,,,,,,,,,,,,,,,,,,,,,,,,,,,,,,,,,,,,,,,,,,,,,,,,,,,,,,,413.79386233900004,None,413.79386233900004,None,413.79386233900004,None,m,0,4.430962697999348,415.32994073900045,None,415.32994073900045,None,415.32994073900045,None,419.81127596100123,None,419.81127596100123,None,419.81127596100123,None,419.81127596100123,None,,,,,,,,,,,,,,,,,,,,,,,,,,,,,,,,,,,,,,,,,,,,001,111,2020_Feb_11_1423,spring_faces,3.1.5,60.26178357542029,
condition files/Stage1_1.xlsx,,T2,B2,m,"['c', 'm']","['Clue', 'Monopoly']","[-0.15, 0.5]","[0.15, 0.5]",1,1,,,,,,,,,0,0,0,0,0,5,5,3,,,,,,,,,,,,,,,,,,,,,,,,,,,,,,,,,,,,,,,,,,,,,,,,,,,,,,,421.7768313180022,None,421.7768313180022,None,421.7768313180022,None,c,0,6.369252148000669,423.3276524660032,None,423.3276524660032,None,423.3276524660032,None,429.7605149510018,None,429.7605149510018,None,429.7605149510018,None,429.7605149510018,None,,,,,,,,,,,,,,,,,,,,,,,,,,,,,,,,,,,,,,,,,,,,001,111,2020_Feb_11_1423,spring_faces,3.1.5,60.26178357542029,
condition files/Stage1_1.xlsx,,B1,T2,c,"['c', 'm']","['Clue', 'Monopoly']","[-0.15, 0.5]","[0.15, 0.5]",1,1,,,,,,,,,0,0,0,0,0,6,6,1,,,,,,,,,,,,,,,,,,,,,,,,,,,,,,,,,,,,,,,,,,,,,,,,,,,,,,,431.72845685500215,None,431.72845685500215,None,431.72845685500215,None,m,0,1.7640305519998947,433.2608634900025,None,433.2608634900025,None,433.2608634900025,None,435.07806970800084,None,435.07806970800084,None,435.07806970800084,None,435.07806970800084,None,,,,,,,,,,,,,,,,,,,,,,,,,,,,,,,,,,,,,,,,,,,,001,111,2020_Feb_11_1423,spring_faces,3.1.5,60.26178357542029,
condition files/Stage1_1.xlsx,,B3,T3,c,"['c', 'm']","['Clue', 'Monopoly']","[-0.15, 0.5]","[0.15, 0.5]",1,1,,,,,,,,,0,0,0,0,0,7,7,4,,,,,,,,,,,,,,,,,,,,,,,,,,,,,,,,,,,,,,,,,,,,,,,,,,,,,,,437.0442054060004,None,437.0442054060004,None,437.0442054060004,None,m,0,2.655400814997847,438.5775126300032,None,438.5775126300032,None,438.5775126300032,None,441.29454401600015,None,441.29454401600015,None,441.29454401600015,None,441.29454401600015,None,,,,,,,,,,,,,,,,,,,,,,,,,,,,,,,,,,,,,,,,,,,,001,111,2020_Feb_11_1423,spring_faces,3.1.5,60.26178357542029,
condition files/Stage1_2.xlsx,,B1,T1,c,"['c', 'm']","['Clue', 'Monopoly']","[-0.15, 0.5]","[0.15, 0.5]",1,1,,,,,,,,,0,1,1,1,0,0,0,0,,,,,,,,,,,,,,,,,,,,,,,,,,,,,,,,,,,,,,,,,,,,,,,,,,,,,,,443.2776138470035,None,443.2776138470035,None,443.2776138470035,None,c,1,1.9259862250000879,444.8110195980007,None,444.8110195980007,None,444.8110195980007,None,446.7947532230028,None,446.7947532230028,None,446.7947532230028,None,446.7947532230028,None,,,,,,,,,,,,,,,,,,,,,,,,,,,,,,,,,,,,,,,,,,,,001,111,2020_Feb_11_1423,spring_faces,3.1.5,60.26178357542029,
condition files/Stage1_2.xlsx,,B2,T2,m,"['c', 'm']","['Clue', 'Monopoly']","[-0.15, 0.5]","[0.15, 0.5]",1,1,,,,,,,,,0,1,1,1,0,1,1,3,,,,,,,,,,,,,,,,,,,,,,,,,,,,,,,,,,,,,,,,,,,,,,,,,,,,,,,448.76079993000167,None,448.76079993000167,None,448.76079993000167,None,c,0,1.3709465829997498,450.2939727080011,None,450.2939727080011,None,450.2939727080011,None,451.7288092480012,None,451.7288092480012,None,451.7288092480012,None,451.7288092480012,None,,,,,,,,,,,,,,,,,,,,,,,,,,,,,,,,,,,,,,,,,,,,001,111,2020_Feb_11_1423,spring_faces,3.1.5,60.26178357542029,
condition files/Stage1_2.xlsx,,T4,B4,m,"['c', 'm']","['Clue', 'Monopoly']","[-0.15, 0.5]","[0.15, 0.5]",1,1,,,,,,,,,0,1,1,1,0,2,2,7,,,,,,,,,,,,,,,,,,,,,,,,,,,,,,,,,,,,,,,,,,,,,,,,,,,,,,,453.69418584600135,None,453.69418584600135,None,453.69418584600135,None,c,0,1.8454654329980258,455.2273730090019,None,455.2273730090019,None,455.2273730090019,None,457.1279258430004,None,457.1279258430004,None,457.1279258430004,None,457.1279258430004,None,,,,,,,,,,,,,,,,,,,,,,,,,,,,,,,,,,,,,,,,,,,,001,111,2020_Feb_11_1423,spring_faces,3.1.5,60.26178357542029,
condition files/Stage1_2.xlsx,,B4,T3,c,"['c', 'm']","['Clue', 'Monopoly']","[-0.15, 0.5]","[0.15, 0.5]",1,1,,,,,,,,,0,1,1,1,0,3,3,5,,,,,,,,,,,,,,,,,,,,,,,,,,,,,,,,,,,,,,,,,,,,,,,,,,,,,,,459.0936468980035,None,459.0936468980035,None,459.0936468980035,None,m,0,2.875152592001541,460.62977577100173,None,460.62977577100173,None,460.62977577100173,None,463.57746189700265,None,463.57746189700265,None,463.57746189700265,None,463.57746189700265,None,,,,,,,,,,,,,,,,,,,,,,,,,,,,,,,,,,,,,,,,,,,,001,111,2020_Feb_11_1423,spring_faces,3.1.5,60.26178357542029,
condition files/Stage1_2.xlsx,,T3,B3,c,"['c', 'm']","['Clue', 'Monopoly']","[-0.15, 0.5]","[0.15, 0.5]",1,1,,,,,,,,,0,1,1,1,0,4,4,4,,,,,,,,,,,,,,,,,,,,,,,,,,,,,,,,,,,,,,,,,,,,,,,,,,,,,,,465.52762529400206,None,465.52762529400206,None,465.52762529400206,None,m,0,7.243568006000714,467.0773924740024,None,467.0773924740024,None,467.0773924740024,None,474.3771361910003,None,474.3771361910003,None,474.3771361910003,None,474.3771361910003,None,,,,,,,,,,,,,,,,,,,,,,,,,,,,,,,,,,,,,,,,,,,,001,111,2020_Feb_11_1423,spring_faces,3.1.5,60.26178357542029,
condition files/Stage1_2.xlsx,,T2,B1,c,"['c', 'm']","['Clue', 'Monopoly']","[-0.15, 0.5]","[0.15, 0.5]",1,1,,,,,,,,,0,1,1,1,0,5,5,1,,,,,,,,,,,,,,,,,,,,,,,,,,,,,,,,,,,,,,,,,,,,,,,,,,,,,,,476.3442600720009,None,476.3442600720009,None,476.3442600720009,None,m,0,4.6499348010001995,477.87889668700154,None,477.87889668700154,None,477.87889668700154,None,482.59389038800145,None,482.59389038800145,None,482.59389038800145,None,482.59389038800145,None,,,,,,,,,,,,,,,,,,,,,,,,,,,,,,,,,,,,,,,,,,,,001,111,2020_Feb_11_1423,spring_faces,3.1.5,60.26178357542029,
condition files/Stage1_2.xlsx,,T1,B2,m,"['c', 'm']","['Clue', 'Monopoly']","[-0.15, 0.5]","[0.15, 0.5]",1,1,,,,,,,,,0,1,1,1,0,6,6,2,,,,,,,,,,,,,,,,,,,,,,,,,,,,,,,,,,,,,,,,,,,,,,,,,,,,,,,484.5608261720008,None,484.5608261720008,None,484.5608261720008,None,m,1,2.162459168001078,486.1104585339999,None,486.1104585339999,None,486.1104585339999,None,488.3279543630015,None,488.3279543630015,None,488.3279543630015,None,488.3279543630015,None,,,,,,,,,,,,,,,,,,,,,,,,,,,,,,,,,,,,,,,,,,,,001,111,2020_Feb_11_1423,spring_faces,3.1.5,60.26178357542029,
condition files/Stage1_2.xlsx,,B3,T4,m,"['c', 'm']","['Clue', 'Monopoly']","[-0.15, 0.5]","[0.15, 0.5]",1,1,,,,,,,,,0,1,1,1,0,7,7,6,,,,,,,,,,,,,,,,,,,,,,,,,,,,,,,,,,,,,,,,,,,,,,,,,,,,,,,490.29415394100215,None,490.29415394100215,None,490.29415394100215,None,c,0,1.5630698499990103,491.8298406870017,None,491.8298406870017,None,491.8298406870017,None,493.4449077180034,None,493.4449077180034,None,493.4449077180034,None,493.4449077180034,None,,,,,,,,,,,,,,,,,,,,,,,,,,,,,,,,,,,,,,,,,,,,001,111,2020_Feb_11_1423,spring_faces,3.1.5,60.26178357542029,
condition files/Stage1_1.xlsx,,B2,T1,m,"['c', 'm']","['Clue', 'Monopoly']","[-0.15, 0.5]","[0.15, 0.5]",1,1,,,,,,,,,0,2,2,2,0,0,0,2,,,,,,,,,,,,,,,,,,,,,,,,,,,,,,,,,,,,,,,,,,,,,,,,,,,,,,,495.42771148300017,None,495.42771148300017,None,495.42771148300017,None,m,1,2.047066402999917,496.9618444680018,None,496.9618444680018,None,496.9618444680018,None,499.06088312000065,None,499.06088312000065,None,499.06088312000065,None,499.06088312000065,None,,,,,,,,,,,,,,,,,,,,,,,,,,,,,,,,,,,,,,,,,,,,001,111,2020_Feb_11_1423,spring_faces,3.1.5,60.26178357542029,
condition files/Stage1_1.xlsx,,T4,B3,m,"['c', 'm']","['Clue', 'Monopoly']","[-0.15, 0.5]","[0.15, 0.5]",1,1,,,,,,,,,0,2,2,2,0,1,1,6,,,,,,,,,,,,,,,,,,,,,,,,,,,,,,,,,,,,,,,,,,,,,,,,,,,,,,,501.02747717900274,None,501.02747717900274,None,501.02747717900274,None,m,1,2.3023479729999963,502.5625719760028,None,502.5625719760028,None,502.5625719760028,None,504.9273396630015,None,504.9273396630015,None,504.9273396630015,None,504.9273396630015,None,,,,,,,,,,,,,,,,,,,,,,,,,,,,,,,,,,,,,,,,,,,,001,111,2020_Feb_11_1423,spring_faces,3.1.5,60.26178357542029,
condition files/Stage1_1.xlsx,,B4,T4,m,"['c', 'm']","['Clue', 'Monopoly']","[-0.15, 0.5]","[0.15, 0.5]",1,1,,,,,,,,,0,2,2,2,0,2,2,7,,,,,,,,,,,,,,,,,,,,,,,,,,,,,,,,,,,,,,,,,,,,,,,,,,,,,,,506.89423757900295,None,506.89423757900295,None,506.89423757900295,None,m,1,5.445650338999258,508.4272252300034,None,508.4272252300034,None,508.4272252300034,None,513.9277816090034,None,513.9277816090034,None,513.9277816090034,None,513.9277816090034,None,,,,,,,,,,,,,,,,,,,,,,,,,,,,,,,,,,,,,,,,,,,,001,111,2020_Feb_11_1423,spring_faces,3.1.5,60.26178357542029,
condition files/Stage1_1.xlsx,,T3,B4,c,"['c', 'm']","['Clue', 'Monopoly']","[-0.15, 0.5]","[0.15, 0.5]",1,1,,,,,,,,,0,2,2,2,0,3,3,5,,,,,,,,,,,,,,,,,,,,,,,,,,,,,,,,,,,,,,,,,,,,,,,,,,,,,,,515.8934492880035,None,515.8934492880035,None,515.8934492880035,None,m,0,1.3237519550020806,517.4292345820031,None,517.4292345820031,None,517.4292345820031,None,518.8111569340035,None,518.8111569340035,None,518.8111569340035,None,518.8111569340035,None,,,,,,,,,,,,,,,,,,,,,,,,,,,,,,,,,,,,,,,,,,,,001,111,2020_Feb_11_1423,spring_faces,3.1.5,60.26178357542029,
condition files/Stage1_1.xlsx,,B1,T2,c,"['c', 'm']","['Clue', 'Monopoly']","[-0.15, 0.5]","[0.15, 0.5]",1,1,,,,,,,,,0,2,2,2,0,4,4,1,,,,,,,,,,,,,,,,,,,,,,,,,,,,,,,,,,,,,,,,,,,,,,,,,,,,,,,520.7776040650024,None,520.7776040650024,None,520.7776040650024,None,m,0,3.4979863799999293,522.3109252210015,None,522.3109252210015,None,522.3109252210015,None,525.8609213440031,None,525.8609213440031,None,525.8609213440031,None,525.8609213440031,None,,,,,,,,,,,,,,,,,,,,,,,,,,,,,,,,,,,,,,,,,,,,001,111,2020_Feb_11_1423,spring_faces,3.1.5,60.26178357542029,
condition files/Stage1_1.xlsx,,T1,B1,c,"['c', 'm']","['Clue', 'Monopoly']","[-0.15, 0.5]","[0.15, 0.5]",1,1,,,,,,,,,0,2,2,2,0,5,5,0,,,,,,,,,,,,,,,,,,,,,,,,,,,,,,,,,,,,,,,,,,,,,,,,,,,,,,,527.827484505,None,527.827484505,None,527.827484505,None,c,1,2.831876807998924,529.3610321030028,None,529.3610321030028,None,529.3610321030028,None,532.2443786910007,None,532.2443786910007,None,532.2443786910007,None,532.2443786910007,None,,,,,,,,,,,,,,,,,,,,,,,,,,,,,,,,,,,,,,,,,,,,001,111,2020_Feb_11_1423,spring_faces,3.1.5,60.26178357542029,
condition files/Stage1_1.xlsx,,B3,T3,c,"['c', 'm']","['Clue', 'Monopoly']","[-0.15, 0.5]","[0.15, 0.5]",1,1,,,,,,,,,0,2,2,2,0,6,6,4,,,,,,,,,,,,,,,,,,,,,,,,,,,,,,,,,,,,,,,,,,,,,,,,,,,,,,,534.2107970830002,None,534.2107970830002,None,534.2107970830002,None,m,0,11.26435494299949,535.7605375940002,None,535.7605375940002,None,535.7605375940002,None,547.0780019500016,None,547.0780019500016,None,547.0780019500016,None,547.0780019500016,None,,,,,,,,,,,,,,,,,,,,,,,,,,,,,,,,,,,,,,,,,,,,001,111,2020_Feb_11_1423,spring_faces,3.1.5,60.26178357542029,
condition files/Stage1_1.xlsx,,T2,B2,m,"['c', 'm']","['Clue', 'Monopoly']","[-0.15, 0.5]","[0.15, 0.5]",1,1,,,,,,,,,0,2,2,2,0,7,7,3,,,,,,,,,,,,,,,,,,,,,,,,,,,,,,,,,,,,,,,,,,,,,,,,,,,,,,,549.044515708003,None,549.044515708003,None,549.044515708003,None,m,1,1.2630970719983452,550.5938026750009,None,550.5938026750009,None,550.5938026750009,None,551.9108677760014,None,551.9108677760014,None,551.9108677760014,None,551.9108677760014,None,,,,,,,,,,,,,,,,,,,,,,,,,,,,,,,,,,,,,,,,,,,,001,111,2020_Feb_11_1423,spring_faces,3.1.5,60.26178357542029,
condition files/Stage1_2.xlsx,,B2,T2,m,"['c', 'm']","['Clue', 'Monopoly']","[-0.15, 0.5]","[0.15, 0.5]",1,1,,,,,,,,,0,3,3,3,0,0,0,3,,,,,,,,,,,,,,,,,,,,,,,,,,,,,,,,,,,,,,,,,,,,,,,,,,,,,,,553.8944546160019,None,553.8944546160019,None,553.8944546160019,None,m,1,6.5722412089999125,555.4287505440006,None,555.4287505440006,None,555.4287505440006,None,562.0606517190026,None,562.0606517190026,None,562.0606517190026,None,562.0606517190026,None,,,,,,,,,,,,,,,,,,,,,,,,,,,,,,,,,,,,,,,,,,,,001,111,2020_Feb_11_1423,spring_faces,3.1.5,60.26178357542029,
condition files/Stage1_2.xlsx,,B1,T1,c,"['c', 'm']","['Clue', 'Monopoly']","[-0.15, 0.5]","[0.15, 0.5]",1,1,,,,,,,,,0,3,3,3,0,1,1,0,,,,,,,,,,,,,,,,,,,,,,,,,,,,,,,,,,,,,,,,,,,,,,,,,,,,,,,564.0273870750025,None,564.0273870750025,None,564.0273870750025,None,c,1,4.919654258002993,565.5612561690032,None,565.5612561690032,None,565.5612561690032,None,570.5465902630021,None,570.5465902630021,None,570.5465902630021,None,570.5465902630021,None,,,,,,,,,,,,,,,,,,,,,,,,,,,,,,,,,,,,,,,,,,,,001,111,2020_Feb_11_1423,spring_faces,3.1.5,60.26178357542029,
condition files/Stage1_2.xlsx,,B4,T3,c,"['c', 'm']","['Clue', 'Monopoly']","[-0.15, 0.5]","[0.15, 0.5]",1,1,,,,,,,,,0,3,3,3,0,2,2,5,,,,,,,,,,,,,,,,,,,,,,,,,,,,,,,,,,,,,,,,,,,,,,,,,,,,,,,572.510769880002,None,572.510769880002,None,572.510769880002,None,m,0,5.300118942999688,574.0447353570016,None,574.0447353570016,None,574.0447353570016,None,579.4111169860007,None,579.4111169860007,None,579.4111169860007,None,579.4111169860007,None,,,,,,,,,,,,,,,,,,,,,,,,,,,,,,,,,,,,,,,,,,,,001,111,2020_Feb_11_1423,spring_faces,3.1.5,60.26178357542029,
condition files/Stage1_2.xlsx,,B3,T4,m,"['c', 'm']","['Clue', 'Monopoly']","[-0.15, 0.5]","[0.15, 0.5]",1,1,,,,,,,,,0,3,3,3,0,3,3,6,,,,,,,,,,,,,,,,,,,,,,,,,,,,,,,,,,,,,,,,,,,,,,,,,,,,,,,581.3769894030011,None,581.3769894030011,None,581.3769894030011,None,c,0,1.5047240359999705,582.9122639640009,None,582.9122639640009,None,582.9122639640009,None,584.4945531470003,None,584.4945531470003,None,584.4945531470003,None,584.4945531470003,None,,,,,,,,,,,,,,,,,,,,,,,,,,,,,,,,,,,,,,,,,,,,001,111,2020_Feb_11_1423,spring_faces,3.1.5,60.26178357542029,
condition files/Stage1_2.xlsx,,T2,B1,c,"['c', 'm']","['Clue', 'Monopoly']","[-0.15, 0.5]","[0.15, 0.5]",1,1,,,,,,,,,0,3,3,3,0,4,4,1,,,,,,,,,,,,,,,,,,,,,,,,,,,,,,,,,,,,,,,,,,,,,,,,,,,,,,,586.4441158760019,None,586.4441158760019,None,586.4441158760019,None,c,1,7.8158264929988945,587.9770900140029,None,587.9770900140029,None,587.9770900140029,None,595.8455554510001,None,595.8455554510001,None,595.8455554510001,None,595.8455554510001,None,,,,,,,,,,,,,,,,,,,,,,,,,,,,,,,,,,,,,,,,,,,,001,111,2020_Feb_11_1423,spring_faces,3.1.5,60.26178357542029,
condition files/Stage1_2.xlsx,,T4,B4,m,"['c', 'm']","['Clue', 'Monopoly']","[-0.15, 0.5]","[0.15, 0.5]",1,1,,,,,,,,,0,3,3,3,0,5,5,7,,,,,,,,,,,,,,,,,,,,,,,,,,,,,,,,,,,,,,,,,,,,,,,,,,,,,,,597.8109219410035,None,597.8109219410035,None,597.8109219410035,None,m,1,2.241093174998241,599.3438835270026,None,599.3438835270026,None,599.3438835270026,None,601.660347426001,None,601.660347426001,None,601.660347426001,None,601.660347426001,None,,,,,,,,,,,,,,,,,,,,,,,,,,,,,,,,,,,,,,,,,,,,001,111,2020_Feb_11_1423,spring_faces,3.1.5,60.26178357542029,
condition files/Stage1_2.xlsx,,T3,B3,c,"['c', 'm']","['Clue', 'Monopoly']","[-0.15, 0.5]","[0.15, 0.5]",1,1,,,,,,,,,0,3,3,3,0,6,6,4,,,,,,,,,,,,,,,,,,,,,,,,,,,,,,,,,,,,,,,,,,,,,,,,,,,,,,,603.6106042810025,None,603.6106042810025,None,603.6106042810025,None,c,1,4.025117973000306,605.143883085002,None,605.143883085002,None,605.143883085002,None,609.2441339960023,None,609.2441339960023,None,609.2441339960023,None,609.2441339960023,None,,,,,,,,,,,,,,,,,,,,,,,,,,,,,,,,,,,,,,,,,,,,001,111,2020_Feb_11_1423,spring_faces,3.1.5,60.26178357542029,
condition files/Stage1_2.xlsx,,T1,B2,m,"['c', 'm']","['Clue', 'Monopoly']","[-0.15, 0.5]","[0.15, 0.5]",1,1,,,,,,,,,0,3,3,3,0,7,7,2,,,,,,,,,,,,,,,,,,,,,,,,,,,,,,,,,,,,,,,,,,,,,,,,,,,,,,,611.1938205140032,None,611.1938205140032,None,611.1938205140032,None,m,1,9.177568535000319,612.7273285150004,None,612.7273285150004,None,612.7273285150004,None,621.9608447440005,None,621.9608447440005,None,621.9608447440005,None,621.9608447440005,None,,,,,,,,,,,,,,,,,,,,,,,,,,,,,,,,,,,,,,,,,,,,001,111,2020_Feb_11_1423,spring_faces,3.1.5,60.26178357542029,
condition files/Stage1_1.xlsx,,T1,B1,c,"['c', 'm']","['Clue', 'Monopoly']","[-0.15, 0.5]","[0.15, 0.5]",1,1,,,,,,,,,0,4,4,4,0,0,0,0,,,,,,,,,,,,,,,,,,,,,,,,,,,,,,,,,,,,,,,,,,,,,,,,,,,,,,,623.9446713820034,None,623.9446713820034,None,623.9446713820034,None,m,0,2.3620702839980368,625.4948403130002,None,625.4948403130002,None,625.4948403130002,None,627.9137465080021,None,627.9137465080021,None,627.9137465080021,None,627.9137465080021,None,,,,,,,,,,,,,,,,,,,,,,,,,,,,,,,,,,,,,,,,,,,,001,111,2020_Feb_11_1423,spring_faces,3.1.5,60.26178357542029,
condition files/Stage1_1.xlsx,,T3,B4,c,"['c', 'm']","['Clue', 'Monopoly']","[-0.15, 0.5]","[0.15, 0.5]",1,1,,,,,,,,,0,4,4,4,0,1,1,5,,,,,,,,,,,,,,,,,,,,,,,,,,,,,,,,,,,,,,,,,,,,,,,,,,,,,,,629.876885515001,None,629.876885515001,None,629.876885515001,None,m,0,2.653433931998734,631.4114899550004,None,631.4114899550004,None,631.4114899550004,None,634.1273991530034,None,634.1273991530034,None,634.1273991530034,None,634.1273991530034,None,,,,,,,,,,,,,,,,,,,,,,,,,,,,,,,,,,,,,,,,,,,,001,111,2020_Feb_11_1423,spring_faces,3.1.5,60.26178357542029,
condition files/Stage1_1.xlsx,,B4,T4,m,"['c', 'm']","['Clue', 'Monopoly']","[-0.15, 0.5]","[0.15, 0.5]",1,1,,,,,,,,,0,4,4,4,0,2,2,7,,,,,,,,,,,,,,,,,,,,,,,,,,,,,,,,,,,,,,,,,,,,,,,,,,,,,,,636.0941273090029,None,636.0941273090029,None,636.0941273090029,None,m,1,1.5721412370003236,637.6288532160033,None,637.6288532160033,None,637.6288532160033,None,639.2779684870002,None,639.2779684870002,None,639.2779684870002,None,639.2779684870002,None,,,,,,,,,,,,,,,,,,,,,,,,,,,,,,,,,,,,,,,,,,,,001,111,2020_Feb_11_1423,spring_faces,3.1.5,60.26178357542029,
condition files/Stage1_1.xlsx,,T2,B2,m,"['c', 'm']","['Clue', 'Monopoly']","[-0.15, 0.5]","[0.15, 0.5]",1,1,,,,,,,,,0,4,4,4,0,3,3,3,,,,,,,,,,,,,,,,,,,,,,,,,,,,,,,,,,,,,,,,,,,,,,,,,,,,,,,641.2269942590028,None,641.2269942590028,None,641.2269942590028,None,m,1,1.6550994989993342,642.7778027230015,None,642.7778027230015,None,642.7778027230015,None,644.4936833110005,None,644.4936833110005,None,644.4936833110005,None,644.4936833110005,None,,,,,,,,,,,,,,,,,,,,,,,,,,,,,,,,,,,,,,,,,,,,001,111,2020_Feb_11_1423,spring_faces,3.1.5,60.26178357542029,
condition files/Stage1_1.xlsx,,B3,T3,c,"['c', 'm']","['Clue', 'Monopoly']","[-0.15, 0.5]","[0.15, 0.5]",1,1,,,,,,,,,0,4,4,4,0,4,4,4,,,,,,,,,,,,,,,,,,,,,,,,,,,,,,,,,,,,,,,,,,,,,,,,,,,,,,,646.4602663380028,None,646.4602663380028,None,646.4602663380028,None,m,0,3.3497727239991946,648.0111236410012,None,648.0111236410012,None,648.0111236410012,None,651.427753639,None,651.427753639,None,651.427753639,None,651.427753639,None,,,,,,,,,,,,,,,,,,,,,,,,,,,,,,,,,,,,,,,,,,,,001,111,2020_Feb_11_1423,spring_faces,3.1.5,60.26178357542029,
condition files/Stage1_1.xlsx,,T4,B3,m,"['c', 'm']","['Clue', 'Monopoly']","[-0.15, 0.5]","[0.15, 0.5]",1,1,,,,,,,,,0,4,4,4,0,5,5,6,,,,,,,,,,,,,,,,,,,,,,,,,,,,,,,,,,,,,,,,,,,,,,,,,,,,,,,653.3775647470029,None,653.3775647470029,None,653.3775647470029,None,c,0,1.53715888899751,654.9277559080001,None,654.9277559080001,None,654.9277559080001,None,656.5268687810021,None,656.5268687810021,None,656.5268687810021,None,656.5268687810021,None,,,,,,,,,,,,,,,,,,,,,,,,,,,,,,,,,,,,,,,,,,,,001,111,2020_Feb_11_1423,spring_faces,3.1.5,60.26178357542029,
condition files/Stage1_1.xlsx,,B1,T2,c,"['c', 'm']","['Clue', 'Monopoly']","[-0.15, 0.5]","[0.15, 0.5]",1,1,,,,,,,,,0,4,4,4,0,6,6,1,,,,,,,,,,,,,,,,,,,,,,,,,,,,,,,,,,,,,,,,,,,,,,,,,,,,,,,658.4938250000014,None,658.4938250000014,None,658.4938250000014,None,m,0,10.213683945999946,660.0272262460021,None,660.0272262460021,None,660.0272262460021,None,670.2955700310013,None,670.2955700310013,None,670.2955700310013,None,670.2955700310013,None,,,,,,,,,,,,,,,,,,,,,,,,,,,,,,,,,,,,,,,,,,,,001,111,2020_Feb_11_1423,spring_faces,3.1.5,60.26178357542029,
condition files/Stage1_1.xlsx,,B2,T1,m,"['c', 'm']","['Clue', 'Monopoly']","[-0.15, 0.5]","[0.15, 0.5]",1,1,,,,,,,,,0,4,4,4,0,7,7,2,,,,,,,,,,,,,,,,,,,,,,,,,,,,,,,,,,,,,,,,,,,,,,,,,,,,,,,672.2607687580021,None,672.2607687580021,None,672.2607687580021,None,m,1,9.039086449000024,673.793838329002,None,673.793838329002,None,673.793838329002,None,682.897021945002,None,682.897021945002,None,682.897021945002,None,682.897021945002,None,,,,,,,,,,,,,,,,,,,,,,,,,,,,,,,,,,,,,,,,,,,,001,111,2020_Feb_11_1423,spring_faces,3.1.5,60.26178357542029,
condition files/Stage1_2.xlsx,,T4,B4,m,"['c', 'm']","['Clue', 'Monopoly']","[-0.15, 0.5]","[0.15, 0.5]",1,1,,,,,,,,,0,5,5,5,0,0,0,7,,,,,,,,,,,,,,,,,,,,,,,,,,,,,,,,,,,,,,,,,,,,,,,,,,,,,,,684.8776731520011,None,684.8776731520011,None,684.8776731520011,None,m,1,4.725080535998131,686.4119250770018,None,686.4119250770018,None,686.4119250770018,None,691.1943058720026,None,691.1943058720026,None,691.1943058720026,None,691.1943058720026,None,,,,,,,,,,,,,,,,,,,,,,,,,,,,,,,,,,,,,,,,,,,,001,111,2020_Feb_11_1423,spring_faces,3.1.5,60.26178357542029,
condition files/Stage1_2.xlsx,,B1,T1,c,"['c', 'm']","['Clue', 'Monopoly']","[-0.15, 0.5]","[0.15, 0.5]",1,1,,,,,,,,,0,5,5,5,0,1,1,0,,,,,,,,,,,,,,,,,,,,,,,,,,,,,,,,,,,,,,,,,,,,,,,,,,,,,,,693.1608843060021,None,693.1608843060021,None,693.1608843060021,None,m,0,2.1858805979973113,694.7110040590014,None,694.7110040590014,None,694.7110040590014,None,696.9777712230025,None,696.9777712230025,None,696.9777712230025,None,696.9777712230025,None,,,,,,,,,,,,,,,,,,,,,,,,,,,,,,,,,,,,,,,,,,,,001,111,2020_Feb_11_1423,spring_faces,3.1.5,60.26178357542029,
condition files/Stage1_2.xlsx,,T3,B3,c,"['c', 'm']","['Clue', 'Monopoly']","[-0.15, 0.5]","[0.15, 0.5]",1,1,,,,,,,,,0,5,5,5,0,2,2,4,,,,,,,,,,,,,,,,,,,,,,,,,,,,,,,,,,,,,,,,,,,,,,,,,,,,,,,698.927466111003,None,698.927466111003,None,698.927466111003,None,m,0,3.7467931989995122,700.4781037580033,None,700.4781037580033,None,700.4781037580033,None,704.2772969970028,None,704.2772969970028,None,704.2772969970028,None,704.2772969970028,None,,,,,,,,,,,,,,,,,,,,,,,,,,,,,,,,,,,,,,,,,,,,001,111,2020_Feb_11_1423,spring_faces,3.1.5,60.26178357542029,
condition files/Stage1_2.xlsx,,B2,T2,m,"['c', 'm']","['Clue', 'Monopoly']","[-0.15, 0.5]","[0.15, 0.5]",1,1,,,,,,,,,0,5,5,5,0,3,3,3,,,,,,,,,,,,,,,,,,,,,,,,,,,,,,,,,,,,,,,,,,,,,,,,,,,,,,,706.2442112070021,None,706.2442112070021,None,706.2442112070021,None,m,1,1.5017645260013524,707.7791543700005,None,707.7791543700005,None,707.7791543700005,None,709.3612744680031,None,709.3612744680031,None,709.3612744680031,None,709.3612744680031,None,,,,,,,,,,,,,,,,,,,,,,,,,,,,,,,,,,,,,,,,,,,,001,111,2020_Feb_11_1423,spring_faces,3.1.5,60.26178357542029,
condition files/Stage1_2.xlsx,,B4,T3,c,"['c', 'm']","['Clue', 'Monopoly']","[-0.15, 0.5]","[0.15, 0.5]",1,1,,,,,,,,,0,5,5,5,0,4,4,5,,,,,,,,,,,,,,,,,,,,,,,,,,,,,,,,,,,,,,,,,,,,,,,,,,,,,,,711.3107679040004,None,711.3107679040004,None,711.3107679040004,None,m,0,3.267833380999946,712.861037411003,None,712.861037411003,None,712.861037411003,None,716.1966583780013,None,716.1966583780013,None,716.1966583780013,None,716.1966583780013,None,,,,,,,,,,,,,,,,,,,,,,,,,,,,,,,,,,,,,,,,,,,,001,111,2020_Feb_11_1423,spring_faces,3.1.5,60.26178357542029,
condition files/Stage1_2.xlsx,,T2,B1,c,"['c', 'm']","['Clue', 'Monopoly']","[-0.15, 0.5]","[0.15, 0.5]",1,1,,,,,,,,,0,5,5,5,0,5,5,1,,,,,,,,,,,,,,,,,,,,,,,,,,,,,,,,,,,,,,,,,,,,,,,,,,,,,,,718.1605267240011,None,718.1605267240011,None,718.1605267240011,None,m,0,21.410411382003076,719.6945238610024,None,719.6945238610024,None,719.6945238610024,None,741.1610495480018,None,741.1610495480018,None,741.1610495480018,None,741.1610495480018,None,,,,,,,,,,,,,,,,,,,,,,,,,,,,,,,,,,,,,,,,,,,,001,111,2020_Feb_11_1423,spring_faces,3.1.5,60.26178357542029,
condition files/Stage1_2.xlsx,,T1,B2,m,"['c', 'm']","['Clue', 'Monopoly']","[-0.15, 0.5]","[0.15, 0.5]",1,1,,,,,,,,,0,5,5,5,0,6,6,2,,,,,,,,,,,,,,,,,,,,,,,,,,,,,,,,,,,,,,,,,,,,,,,,,,,,,,,743.1275351090007,None,743.1275351090007,None,743.1275351090007,None,m,1,1.388263011998788,744.6606532559999,None,744.6606532559999,None,744.6606532559999,None,746.1109359200018,None,746.1109359200018,None,746.1109359200018,None,746.1109359200018,None,,,,,,,,,,,,,,,,,,,,,,,,,,,,,,,,,,,,,,,,,,,,001,111,2020_Feb_11_1423,spring_faces,3.1.5,60.26178357542029,
condition files/Stage1_2.xlsx,,B3,T4,m,"['c', 'm']","['Clue', 'Monopoly']","[-0.15, 0.5]","[0.15, 0.5]",1,1,,,,,,,,,0,5,5,5,0,7,7,6,,,,,,,,,,,,,,,,,,,,,,,,,,,,,,,,,,,,,,,,,,,,,,,,,,,,,,,748.0774155060026,None,748.0774155060026,None,748.0774155060026,None,m,1,3.5718488400016213,749.6131478870011,None,749.6131478870011,None,749.6131478870011,None,753.2446166120026,None,753.2446166120026,None,753.2446166120026,None,753.2446166120026,None,,,,,,,,,,,,,,,,,,,,,,,,,,,,,,,,,,,,,,,,,,,,001,111,2020_Feb_11_1423,spring_faces,3.1.5,60.26178357542029,
condition files/Stage1_1.xlsx,,T2,B2,m,"['c', 'm']","['Clue', 'Monopoly']","[-0.15, 0.5]","[0.15, 0.5]",1,1,,,,,,,,,0,6,6,6,0,0,0,3,,,,,,,,,,,,,,,,,,,,,,,,,,,,,,,,,,,,,,,,,,,,,,,,,,,,,,,755.227917809003,None,755.227917809003,None,755.227917809003,None,m,1,4.40807507199861,756.7609224150001,None,756.7609224150001,None,756.7609224150001,None,761.2278602570004,None,761.2278602570004,None,761.2278602570004,None,761.2278602570004,None,,,,,,,,,,,,,,,,,,,,,,,,,,,,,,,,,,,,,,,,,,,,001,111,2020_Feb_11_1423,spring_faces,3.1.5,60.26178357542029,
condition files/Stage1_1.xlsx,,B1,T2,c,"['c', 'm']","['Clue', 'Monopoly']","[-0.15, 0.5]","[0.15, 0.5]",1,1,,,,,,,,,0,6,6,6,0,1,1,1,,,,,,,,,,,,,,,,,,,,,,,,,,,,,,,,,,,,,,,,,,,,,,,,,,,,,,,763.1941540020016,None,763.1941540020016,None,763.1941540020016,None,c,1,2.2648753500034218,764.7280374000002,None,764.7280374000002,None,764.7280374000002,None,767.0610798110029,None,767.0610798110029,None,767.0610798110029,None,767.0610798110029,None,,,,,,,,,,,,,,,,,,,,,,,,,,,,,,,,,,,,,,,,,,,,001,111,2020_Feb_11_1423,spring_faces,3.1.5,60.26178357542029,
condition files/Stage1_1.xlsx,,B3,T3,c,"['c', 'm']","['Clue', 'Monopoly']","[-0.15, 0.5]","[0.15, 0.5]",1,1,,,,,,,,,0,6,6,6,0,2,2,4,,,,,,,,,,,,,,,,,,,,,,,,,,,,,,,,,,,,,,,,,,,,,,,,,,,,,,,769.0107340090035,None,769.0107340090035,None,769.0107340090035,None,c,1,2.159938257998874,770.5610274350001,None,770.5610274350001,None,770.5610274350001,None,772.7771286570023,None,772.7771286570023,None,772.7771286570023,None,772.7771286570023,None,,,,,,,,,,,,,,,,,,,,,,,,,,,,,,,,,,,,,,,,,,,,001,111,2020_Feb_11_1423,spring_faces,3.1.5,60.26178357542029,
condition files/Stage1_1.xlsx,,T3,B4,c,"['c', 'm']","['Clue', 'Monopoly']","[-0.15, 0.5]","[0.15, 0.5]",1,1,,,,,,,,,0,6,6,6,0,3,3,5,,,,,,,,,,,,,,,,,,,,,,,,,,,,,,,,,,,,,,,,,,,,,,,,,,,,,,,774.744292221003,None,774.744292221003,None,774.744292221003,None,m,0,2.0426436639972962,776.2783557710027,None,776.2783557710027,None,776.2783557710027,None,778.3776585450032,None,778.3776585450032,None,778.3776585450032,None,778.3776585450032,None,,,,,,,,,,,,,,,,,,,,,,,,,,,,,,,,,,,,,,,,,,,,001,111,2020_Feb_11_1423,spring_faces,3.1.5,60.26178357542029,
condition files/Stage1_1.xlsx,,B4,T4,m,"['c', 'm']","['Clue', 'Monopoly']","[-0.15, 0.5]","[0.15, 0.5]",1,1,,,,,,,,,0,6,6,6,0,4,4,7,,,,,,,,,,,,,,,,,,,,,,,,,,,,,,,,,,,,,,,,,,,,,,,,,,,,,,,780.3437040420031,None,780.3437040420031,None,780.3437040420031,None,m,1,1.5467959720008366,781.8941031500035,None,781.8941031500035,None,781.8941031500035,None,783.511288398,None,783.511288398,None,783.511288398,None,783.511288398,None,,,,,,,,,,,,,,,,,,,,,,,,,,,,,,,,,,,,,,,,,,,,001,111,2020_Feb_11_1423,spring_faces,3.1.5,60.26178357542029,
condition files/Stage1_1.xlsx,,T1,B1,c,"['c', 'm']","['Clue', 'Monopoly']","[-0.15, 0.5]","[0.15, 0.5]",1,1,,,,,,,,,0,6,6,6,0,5,5,0,,,,,,,,,,,,,,,,,,,,,,,,,,,,,,,,,,,,,,,,,,,,,,,,,,,,,,,785.4610399050034,None,785.4610399050034,None,785.4610399050034,None,c,1,2.5259866939995845,786.9950031790031,None,786.9950031790031,None,786.9950031790031,None,789.593871811001,None,789.593871811001,None,789.593871811001,None,789.593871811001,None,,,,,,,,,,,,,,,,,,,,,,,,,,,,,,,,,,,,,,,,,,,,001,111,2020_Feb_11_1423,spring_faces,3.1.5,60.26178357542029,
condition files/Stage1_1.xlsx,,T4,B3,m,"['c', 'm']","['Clue', 'Monopoly']","[-0.15, 0.5]","[0.15, 0.5]",1,1,,,,,,,,,0,6,6,6,0,6,6,6,,,,,,,,,,,,,,,,,,,,,,,,,,,,,,,,,,,,,,,,,,,,,,,,,,,,,,,791.5440264880017,None,791.5440264880017,None,791.5440264880017,None,m,1,2.4598123139985546,793.0771791460029,None,793.0771791460029,None,793.0771791460029,None,795.5956307430024,None,795.5956307430024,None,795.5956307430024,None,795.5956307430024,None,,,,,,,,,,,,,,,,,,,,,,,,,,,,,,,,,,,,,,,,,,,,001,111,2020_Feb_11_1423,spring_faces,3.1.5,60.26178357542029,
condition files/Stage1_1.xlsx,,B2,T1,m,"['c', 'm']","['Clue', 'Monopoly']","[-0.15, 0.5]","[0.15, 0.5]",1,1,,,,,,,,,0,6,6,6,0,7,7,2,,,,,,,,,,,,,,,,,,,,,,,,,,,,,,,,,,,,,,,,,,,,,,,,,,,,,,,797.5609652359999,None,797.5609652359999,None,797.5609652359999,None,m,1,2.059066454999993,799.0939030879999,None,799.0939030879999,None,799.0939030879999,None,801.2110158890027,None,801.2110158890027,None,801.2110158890027,None,801.2110158890027,None,,,,,,,,,,,,,,,,,,,,,,,,,,,,,,,,,,,,,,,,,,,,001,111,2020_Feb_11_1423,spring_faces,3.1.5,60.26178357542029,
condition files/Stage1_2.xlsx,,T3,B3,c,"['c', 'm']","['Clue', 'Monopoly']","[-0.15, 0.5]","[0.15, 0.5]",1,1,,,,,,,,,0,7,7,7,0,0,0,4,,,,,,,,,,,,,,,,,,,,,,,,,,,,,,,,,,,,,,,,,,,,,,,,,,,,,,,803.1943726080026,None,803.1943726080026,None,803.1943726080026,None,m,0,8.183243204999599,804.7296855720015,None,804.7296855720015,None,804.7296855720015,None,812.9787104780007,None,812.9787104780007,None,812.9787104780007,None,812.9787104780007,None,,,,,,,,,,,,,,,,,,,,,,,,,,,,,,,,,,,,,,,,,,,,001,111,2020_Feb_11_1423,spring_faces,3.1.5,60.26178357542029,
condition files/Stage1_2.xlsx,,T1,B2,m,"['c', 'm']","['Clue', 'Monopoly']","[-0.15, 0.5]","[0.15, 0.5]",1,1,,,,,,,,,0,7,7,7,0,1,1,2,,,,,,,,,,,,,,,,,,,,,,,,,,,,,,,,,,,,,,,,,,,,,,,,,,,,,,,814.9440792810019,None,814.9440792810019,None,814.9440792810019,None,m,1,1.2351315429987153,816.4777937950021,None,816.4777937950021,None,816.4777937950021,None,817.7777921320012,None,817.7777921320012,None,817.7777921320012,None,817.7777921320012,None,,,,,,,,,,,,,,,,,,,,,,,,,,,,,,,,,,,,,,,,,,,,001,111,2020_Feb_11_1423,spring_faces,3.1.5,60.26178357542029,
condition files/Stage1_2.xlsx,,B1,T1,c,"['c', 'm']","['Clue', 'Monopoly']","[-0.15, 0.5]","[0.15, 0.5]",1,1,,,,,,,,,0,7,7,7,0,2,2,0,,,,,,,,,,,,,,,,,,,,,,,,,,,,,,,,,,,,,,,,,,,,,,,,,,,,,,,819.7442786380016,None,819.7442786380016,None,819.7442786380016,None,c,1,2.099378406001051,821.2775409200003,None,821.2775409200003,None,821.2775409200003,None,823.4447074210002,None,823.4447074210002,None,823.4447074210002,None,823.4447074210002,None,,,,,,,,,,,,,,,,,,,,,,,,,,,,,,,,,,,,,,,,,,,,001,111,2020_Feb_11_1423,spring_faces,3.1.5,60.26178357542029,
condition files/Stage1_2.xlsx,,T2,B1,c,"['c', 'm']","['Clue', 'Monopoly']","[-0.15, 0.5]","[0.15, 0.5]",1,1,,,,,,,,,0,7,7,7,0,3,3,1,,,,,,,,,,,,,,,,,,,,,,,,,,,,,,,,,,,,,,,,,,,,,,,,,,,,,,,825.393568827003,None,825.393568827003,None,825.393568827003,None,m,0,10.369150228998478,826.9277711430004,None,826.9277711430004,None,826.9277711430004,None,837.3610159740019,None,837.3610159740019,None,837.3610159740019,None,837.3610159740019,None,,,,,,,,,,,,,,,,,,,,,,,,,,,,,,,,,,,,,,,,,,,,001,111,2020_Feb_11_1423,spring_faces,3.1.5,60.26178357542029,
condition files/Stage1_2.xlsx,,T4,B4,m,"['c', 'm']","['Clue', 'Monopoly']","[-0.15, 0.5]","[0.15, 0.5]",1,1,,,,,,,,,0,7,7,7,0,4,4,7,,,,,,,,,,,,,,,,,,,,,,,,,,,,,,,,,,,,,,,,,,,,,,,,,,,,,,,839.3271140360011,None,839.3271140360011,None,839.3271140360011,None,m,1,4.884025051000208,840.8608564160022,None,840.8608564160022,None,840.8608564160022,None,845.8273509130013,None,845.8273509130013,None,845.8273509130013,None,845.8273509130013,None,,,,,,,,,,,,,,,,,,,,,,,,,,,,,,,,,,,,,,,,,,,,001,111,2020_Feb_11_1423,spring_faces,3.1.5,60.26178357542029,
condition files/Stage1_2.xlsx,,B4,T3,c,"['c', 'm']","['Clue', 'Monopoly']","[-0.15, 0.5]","[0.15, 0.5]",1,1,,,,,,,,,0,7,7,7,0,5,5,5,,,,,,,,,,,,,,,,,,,,,,,,,,,,,,,,,,,,,,,,,,,,,,,,,,,,,,,847.77802075,None,847.77802075,None,847.77802075,None,m,0,4.401442015998327,849.3114773380003,None,849.3114773380003,None,849.3114773380003,None,853.7776202320019,None,853.7776202320019,None,853.7776202320019,None,853.7776202320019,None,,,,,,,,,,,,,,,,,,,,,,,,,,,,,,,,,,,,,,,,,,,,001,111,2020_Feb_11_1423,spring_faces,3.1.5,60.26178357542029,
condition files/Stage1_2.xlsx,,B3,T4,m,"['c', 'm']","['Clue', 'Monopoly']","[-0.15, 0.5]","[0.15, 0.5]",1,1,,,,,,,,,0,7,7,7,0,6,6,6,,,,,,,,,,,,,,,,,,,,,,,,,,,,,,,,,,,,,,,,,,,,,,,,,,,,,,,855.7442895940003,None,855.7442895940003,None,855.7442895940003,None,c,0,9.58565433900003,857.2792836760018,None,857.2792836760018,None,857.2792836760018,None,866.9444286140024,None,866.9444286140024,None,866.9444286140024,None,866.9444286140024,None,,,,,,,,,,,,,,,,,,,,,,,,,,,,,,,,,,,,,,,,,,,,001,111,2020_Feb_11_1423,spring_faces,3.1.5,60.26178357542029,
condition files/Stage1_2.xlsx,,B2,T2,m,"['c', 'm']","['Clue', 'Monopoly']","[-0.15, 0.5]","[0.15, 0.5]",1,1,,,,,,,,,0,7,7,7,0,7,7,3,,,,,,,,,,,,,,,,,,,,,,,,,,,,,,,,,,,,,,,,,,,,,,,,,,,,,,,868.894172802,None,868.894172802,None,868.894172802,None,m,1,1.9895175940000627,870.4274031480018,None,870.4274031480018,None,870.4274031480018,None,872.477067535001,None,872.477067535001,None,872.477067535001,None,872.477067535001,None,,,,,,,,,,,,,,,,,,,,,,,,,,,,,,,,,,,,,,,,,,,,001,111,2020_Feb_11_1423,spring_faces,3.1.5,60.26178357542029,
condition files/Stage1_1.xlsx,,T1,B1,c,"['c', 'm']","['Clue', 'Monopoly']","[-0.15, 0.5]","[0.15, 0.5]",1,1,,,,,,,,,0,8,8,8,0,0,0,0,,,,,,,,,,,,,,,,,,,,,,,,,,,,,,,,,,,,,,,,,,,,,,,,,,,,,,,874.4610711040004,None,874.4610711040004,None,874.4610711040004,None,m,0,7.637897927001177,875.9950366200028,None,875.9950366200028,None,875.9950366200028,None,883.6963933160005,None,883.6963933160005,None,883.6963933160005,None,883.6963933160005,None,,,,,,,,,,,,,,,,,,,,,,,,,,,,,,,,,,,,,,,,,,,,001,111,2020_Feb_11_1423,spring_faces,3.1.5,60.26178357542029,
condition files/Stage1_1.xlsx,,B1,T2,c,"['c', 'm']","['Clue', 'Monopoly']","[-0.15, 0.5]","[0.15, 0.5]",1,1,,,,,,,,,0,8,8,8,0,1,1,1,,,,,,,,,,,,,,,,,,,,,,,,,,,,,,,,,,,,,,,,,,,,,,,,,,,,,,,885.660799608002,None,885.660799608002,None,885.660799608002,None,c,1,12.230725770998106,887.1941946940024,None,887.1941946940024,None,887.1941946940024,None,899.4777130060029,None,899.4777130060029,None,899.4777130060029,None,899.4777130060029,None,,,,,,,,,,,,,,,,,,,,,,,,,,,,,,,,,,,,,,,,,,,,001,111,2020_Feb_11_1423,spring_faces,3.1.5,60.26178357542029,
condition files/Stage1_1.xlsx,,B3,T3,c,"['c', 'm']","['Clue', 'Monopoly']","[-0.15, 0.5]","[0.15, 0.5]",1,1,,,,,,,,,0,8,8,8,0,2,2,4,,,,,,,,,,,,,,,,,,,,,,,,,,,,,,,,,,,,,,,,,,,,,,,,,,,,,,,901.4437115310029,None,901.4437115310029,None,901.4437115310029,None,m,0,10.399080162998871,902.9778410409999,None,902.9778410409999,None,902.9778410409999,None,913.427473355001,None,913.427473355001,None,913.427473355001,None,913.427473355001,None,,,,,,,,,,,,,,,,,,,,,,,,,,,,,,,,,,,,,,,,,,,,001,111,2020_Feb_11_1423,spring_faces,3.1.5,60.26178357542029,
condition files/Stage1_1.xlsx,,T3,B4,c,"['c', 'm']","['Clue', 'Monopoly']","[-0.15, 0.5]","[0.15, 0.5]",1,1,,,,,,,,,0,8,8,8,0,3,3,5,,,,,,,,,,,,,,,,,,,,,,,,,,,,,,,,,,,,,,,,,,,,,,,,,,,,,,,915.394342415002,None,915.394342415002,None,915.394342415002,None,m,0,2.895040474999405,916.9298821890006,None,916.9298821890006,None,916.9298821890006,None,919.8772771300028,None,919.8772771300028,None,919.8772771300028,None,919.8772771300028,None,,,,,,,,,,,,,,,,,,,,,,,,,,,,,,,,,,,,,,,,,,,,001,111,2020_Feb_11_1423,spring_faces,3.1.5,60.26178357542029,
condition files/Stage1_1.xlsx,,B2,T1,m,"['c', 'm']","['Clue', 'Monopoly']","[-0.15, 0.5]","[0.15, 0.5]",1,1,,,,,,,,,0,8,8,8,0,4,4,2,,,,,,,,,,,,,,,,,,,,,,,,,,,,,,,,,,,,,,,,,,,,,,,,,,,,,,,921.8436320220026,None,921.8436320220026,None,921.8436320220026,None,m,1,0.9271856390005269,923.3777474740018,None,923.3777474740018,None,923.3777474740018,None,924.3634668860032,None,924.3634668860032,None,924.3634668860032,None,924.3634668860032,None,,,,,,,,,,,,,,,,,,,,,,,,,,,,,,,,,,,,,,,,,,,,001,111,2020_Feb_11_1423,spring_faces,3.1.5,60.26178357542029,
condition files/Stage1_1.xlsx,,T2,B2,m,"['c', 'm']","['Clue', 'Monopoly']","[-0.15, 0.5]","[0.15, 0.5]",1,1,,,,,,,,,0,8,8,8,0,5,5,3,,,,,,,,,,,,,,,,,,,,,,,,,,,,,,,,,,,,,,,,,,,,,,,,,,,,,,,926.3269050880008,None,926.3269050880008,None,926.3269050880008,None,m,1,0.8443051159993047,927.860611883003,None,927.860611883003,None,927.860611883003,None,928.7611219740029,None,928.7611219740029,None,928.7611219740029,None,928.7611219740029,None,,,,,,,,,,,,,,,,,,,,,,,,,,,,,,,,,,,,,,,,,,,,001,111,2020_Feb_11_1423,spring_faces,3.1.5,60.26178357542029,
condition files/Stage1_1.xlsx,,T4,B3,m,"['c', 'm']","['Clue', 'Monopoly']","[-0.15, 0.5]","[0.15, 0.5]",1,1,,,,,,,,,0,8,8,8,0,6,6,6,,,,,,,,,,,,,,,,,,,,,,,,,,,,,,,,,,,,,,,,,,,,,,,,,,,,,,,930.7275043460031,None,930.7275043460031,None,930.7275043460031,None,m,1,3.1159383749982226,932.260979617,None,932.260979617,None,932.260979617,None,935.4274395990033,None,935.4274395990033,None,935.4274395990033,None,935.4274395990033,None,,,,,,,,,,,,,,,,,,,,,,,,,,,,,,,,,,,,,,,,,,,,001,111,2020_Feb_11_1423,spring_faces,3.1.5,60.26178357542029,
condition files/Stage1_1.xlsx,,B4,T4,m,"['c', 'm']","['Clue', 'Monopoly']","[-0.15, 0.5]","[0.15, 0.5]",1,1,,,,,,,,,0,8,8,8,0,7,7,7,,,,,,,,,,,,,,,,,,,,,,,,,,,,,,,,,,,,,,,,,,,,,,,,,,,,,,,937.393646212,None,937.393646212,None,937.393646212,None,m,1,3.1692435959994327,938.9276847260007,None,938.9276847260007,None,938.9276847260007,None,942.1613865610016,None,942.1613865610016,None,942.1613865610016,None,942.1613865610016,None,,,,,,,,,,,,,,,,,,,,,,,,,,,,,,,,,,,,,,,,,,,,001,111,2020_Feb_11_1423,spring_faces,3.1.5,60.26178357542029,
condition files/Stage1_2.xlsx,,T3,B3,c,"['c', 'm']","['Clue', 'Monopoly']","[-0.15, 0.5]","[0.15, 0.5]",1,1,,,,,,,,,0,9,9,9,0,0,0,4,,,,,,,,,,,,,,,,,,,,,,,,,,,,,,,,,,,,,,,,,,,,,,,,,,,,,,,944.1440320910006,None,944.1440320910006,None,944.1440320910006,None,m,0,4.6904589849982585,945.678528907003,None,945.678528907003,None,945.678528907003,None,950.4296506350001,None,950.4296506350001,None,950.4296506350001,None,950.4296506350001,None,,,,,,,,,,,,,,,,,,,,,,,,,,,,,,,,,,,,,,,,,,,,001,111,2020_Feb_11_1423,spring_faces,3.1.5,60.26178357542029,
condition files/Stage1_2.xlsx,,B2,T2,m,"['c', 'm']","['Clue', 'Monopoly']","[-0.15, 0.5]","[0.15, 0.5]",1,1,,,,,,,,,0,9,9,9,0,1,1,3,,,,,,,,,,,,,,,,,,,,,,,,,,,,,,,,,,,,,,,,,,,,,,,,,,,,,,,952.3938116930003,None,952.3938116930003,None,952.3938116930003,None,m,1,1.897113580002042,953.9278103680008,None,953.9278103680008,None,953.9278103680008,None,955.8770454850019,None,955.8770454850019,None,955.8770454850019,None,955.8770454850019,None,,,,,,,,,,,,,,,,,,,,,,,,,,,,,,,,,,,,,,,,,,,,001,111,2020_Feb_11_1423,spring_faces,3.1.5,60.26178357542029,
condition files/Stage1_2.xlsx,,B3,T4,m,"['c', 'm']","['Clue', 'Monopoly']","[-0.15, 0.5]","[0.15, 0.5]",1,1,,,,,,,,,0,9,9,9,0,2,2,6,,,,,,,,,,,,,,,,,,,,,,,,,,,,,,,,,,,,,,,,,,,,,,,,,,,,,,,957.8439096980001,None,957.8439096980001,None,957.8439096980001,None,m,1,3.389852799999062,959.3791339690033,None,959.3791339690033,None,959.3791339690033,None,962.8270561940008,None,962.8270561940008,None,962.8270561940008,None,962.8270561940008,None,,,,,,,,,,,,,,,,,,,,,,,,,,,,,,,,,,,,,,,,,,,,001,111,2020_Feb_11_1423,spring_faces,3.1.5,60.26178357542029,
condition files/Stage1_2.xlsx,,B4,T3,c,"['c', 'm']","['Clue', 'Monopoly']","[-0.15, 0.5]","[0.15, 0.5]",1,1,,,,,,,,,0,9,9,9,0,3,3,5,,,,,,,,,,,,,,,,,,,,,,,,,,,,,,,,,,,,,,,,,,,,,,,,,,,,,,,964.7945943150007,None,964.7945943150007,None,964.7945943150007,None,m,0,5.464790441998048,966.3281324750023,None,966.3281324750023,None,966.3281324750023,None,971.8446832180016,None,971.8446832180016,None,971.8446832180016,None,971.8446832180016,None,,,,,,,,,,,,,,,,,,,,,,,,,,,,,,,,,,,,,,,,,,,,001,111,2020_Feb_11_1423,spring_faces,3.1.5,60.26178357542029,
condition files/Stage1_2.xlsx,,T4,B4,m,"['c', 'm']","['Clue', 'Monopoly']","[-0.15, 0.5]","[0.15, 0.5]",1,1,,,,,,,,,0,9,9,9,0,4,4,7,,,,,,,,,,,,,,,,,,,,,,,,,,,,,,,,,,,,,,,,,,,,,,,,,,,,,,,973.810282444003,None,973.810282444003,None,973.810282444003,None,m,1,4.9449637360012275,975.3439108450002,None,975.3439108450002,None,975.3439108450002,None,980.3439445630029,None,980.3439445630029,None,980.3439445630029,None,980.3439445630029,None,,,,,,,,,,,,,,,,,,,,,,,,,,,,,,,,,,,,,,,,,,,,001,111,2020_Feb_11_1423,spring_faces,3.1.5,60.26178357542029,
condition files/Stage1_2.xlsx,,T2,B1,c,"['c', 'm']","['Clue', 'Monopoly']","[-0.15, 0.5]","[0.15, 0.5]",1,1,,,,,,,,,0,9,9,9,0,5,5,1,,,,,,,,,,,,,,,,,,,,,,,,,,,,,,,,,,,,,,,,,,,,,,,,,,,,,,,982.3109323660028,None,982.3109323660028,None,982.3109323660028,None,c,1,5.116570293997938,983.8443316830017,None,983.8443316830017,None,983.8443316830017,None,989.0279087770032,None,989.0279087770032,None,989.0279087770032,None,989.0279087770032,None,,,,,,,,,,,,,,,,,,,,,,,,,,,,,,,,,,,,,,,,,,,,001,111,2020_Feb_11_1423,spring_faces,3.1.5,60.26178357542029,
condition files/Stage1_2.xlsx,,T1,B2,m,"['c', 'm']","['Clue', 'Monopoly']","[-0.15, 0.5]","[0.15, 0.5]",1,1,,,,,,,,,0,9,9,9,0,6,6,2,,,,,,,,,,,,,,,,,,,,,,,,,,,,,,,,,,,,,,,,,,,,,,,,,,,,,,,990.9776304270017,None,990.9776304270017,None,990.9776304270017,None,m,1,0.9623632279981393,992.5105249950029,None,992.5105249950029,None,992.5105249950029,None,993.5275814460001,None,993.5275814460001,None,993.5275814460001,None,993.5275814460001,None,,,,,,,,,,,,,,,,,,,,,,,,,,,,,,,,,,,,,,,,,,,,001,111,2020_Feb_11_1423,spring_faces,3.1.5,60.26178357542029,
condition files/Stage1_2.xlsx,,B1,T1,c,"['c', 'm']","['Clue', 'Monopoly']","[-0.15, 0.5]","[0.15, 0.5]",1,1,,,,,,,,,0,9,9,9,0,7,7,0,,,,,,,,,,,,,,,,,,,,,,,,,,,,,,,,,,,,,,,,,,,,,,,,,,,,,,,995.4942318820031,None,995.4942318820031,None,995.4942318820031,None,m,0,20.85925347599914,997.029641866,None,997.029641866,None,997.029641866,None,1017.9436608590004,None,1017.9436608590004,None,1017.9436608590004,None,1017.9436608590004,None,,,,,,,,,,,,,,,,,,,,,,,,,,,,,,,,,,,,,,,,,,,,001,111,2020_Feb_11_1423,spring_faces,3.1.5,60.26178357542029,
condition files/Stage1_1.xlsx,,B4,T4,m,"['c', 'm']","['Clue', 'Monopoly']","[-0.15, 0.5]","[0.15, 0.5]",1,1,,,,,,,,,0,10,10,10,0,0,0,7,,,,,,,,,,,,,,,,,,,,,,,,,,,,,,,,,,,,,,,,,,,,,,,,,,,,,,,1019.9273098970007,None,1019.9273098970007,None,1019.9273098970007,None,m,1,3.6759257209996576,1021.4770624320008,None,1021.4770624320008,None,1021.4770624320008,None,1025.2130026480008,None,1025.2130026480008,None,1025.2130026480008,None,1025.2130026480008,None,,,,,,,,,,,,,,,,,,,,,,,,,,,,,,,,,,,,,,,,,,,,001,111,2020_Feb_11_1423,spring_faces,3.1.5,60.26178357542029,
condition files/Stage1_1.xlsx,,T1,B1,c,"['c', 'm']","['Clue', 'Monopoly']","[-0.15, 0.5]","[0.15, 0.5]",1,1,,,,,,,,,0,10,10,10,0,1,1,0,,,,,,,,,,,,,,,,,,,,,,,,,,,,,,,,,,,,,,,,,,,,,,,,,,,,,,,1027.1775172680027,None,1027.1775172680027,None,1027.1775172680027,None,m,0,4.937198611001804,1028.727719567003,None,1028.727719567003,None,1028.727719567003,None,1033.729261675002,None,1033.729261675002,None,1033.729261675002,None,1033.729261675002,None,,,,,,,,,,,,,,,,,,,,,,,,,,,,,,,,,,,,,,,,,,,,001,111,2020_Feb_11_1423,spring_faces,3.1.5,60.26178357542029,
condition files/Stage1_1.xlsx,,T2,B2,m,"['c', 'm']","['Clue', 'Monopoly']","[-0.15, 0.5]","[0.15, 0.5]",1,1,,,,,,,,,0,10,10,10,0,2,2,3,,,,,,,,,,,,,,,,,,,,,,,,,,,,,,,,,,,,,,,,,,,,,,,,,,,,,,,1035.6938733360003,None,1035.6938733360003,None,1035.6938733360003,None,m,1,1.5258173309994163,1037.227171347,None,1037.227171347,None,1037.227171347,None,1038.8114576080006,None,1038.8114576080006,None,1038.8114576080006,None,1038.8114576080006,None,,,,,,,,,,,,,,,,,,,,,,,,,,,,,,,,,,,,,,,,,,,,001,111,2020_Feb_11_1423,spring_faces,3.1.5,60.26178357542029,
condition files/Stage1_1.xlsx,,B3,T3,c,"['c', 'm']","['Clue', 'Monopoly']","[-0.15, 0.5]","[0.15, 0.5]",1,1,,,,,,,,,0,10,10,10,0,3,3,4,,,,,,,,,,,,,,,,,,,,,,,,,,,,,,,,,,,,,,,,,,,,,,,,,,,,,,,1040.7774654610002,None,1040.7774654610002,None,1040.7774654610002,None,c,1,8.744557385001826,1042.3123731910018,None,1042.3123731910018,None,1042.3123731910018,None,1051.1126126080017,None,1051.1126126080017,None,1051.1126126080017,None,1051.1126126080017,None,,,,,,,,,,,,,,,,,,,,,,,,,,,,,,,,,,,,,,,,,,,,001,111,2020_Feb_11_1423,spring_faces,3.1.5,60.26178357542029,
condition files/Stage1_1.xlsx,,T4,B3,m,"['c', 'm']","['Clue', 'Monopoly']","[-0.15, 0.5]","[0.15, 0.5]",1,1,,,,,,,,,0,10,10,10,0,4,4,6,,,,,,,,,,,,,,,,,,,,,,,,,,,,,,,,,,,,,,,,,,,,,,,,,,,,,,,1053.0771823030009,None,1053.0771823030009,None,1053.0771823030009,None,m,1,4.621268450999196,1054.6276545800029,None,1054.6276545800029,None,1054.6276545800029,None,1059.3120026720026,None,1059.3120026720026,None,1059.3120026720026,None,1059.3120026720026,None,,,,,,,,,,,,,,,,,,,,,,,,,,,,,,,,,,,,,,,,,,,,001,111,2020_Feb_11_1423,spring_faces,3.1.5,60.26178357542029,
condition files/Stage1_1.xlsx,,B1,T2,c,"['c', 'm']","['Clue', 'Monopoly']","[-0.15, 0.5]","[0.15, 0.5]",1,1,,,,,,,,,0,10,10,10,0,5,5,1,,,,,,,,,,,,,,,,,,,,,,,,,,,,,,,,,,,,,,,,,,,,,,,,,,,,,,,1061.2774147420023,None,1061.2774147420023,None,1061.2774147420023,None,c,1,5.060849990997667,1062.8120294340006,None,1062.8120294340006,None,1062.8120294340006,None,1067.9291168140007,None,1067.9291168140007,None,1067.9291168140007,None,1067.9291168140007,None,,,,,,,,,,,,,,,,,,,,,,,,,,,,,,,,,,,,,,,,,,,,001,111,2020_Feb_11_1423,spring_faces,3.1.5,60.26178357542029,
condition files/Stage1_1.xlsx,,T3,B4,c,"['c', 'm']","['Clue', 'Monopoly']","[-0.15, 0.5]","[0.15, 0.5]",1,1,,,,,,,,,0,10,10,10,0,6,6,5,,,,,,,,,,,,,,,,,,,,,,,,,,,,,,,,,,,,,,,,,,,,,,,,,,,,,,,1069.8941669850028,None,1069.8941669850028,None,1069.8941669850028,None,m,0,3.7240432260005036,1071.4289571510017,None,1071.4289571510017,None,1071.4289571510017,None,1075.2110505280034,None,1075.2110505280034,None,1075.2110505280034,None,1075.2110505280034,None,,,,,,,,,,,,,,,,,,,,,,,,,,,,,,,,,,,,,,,,,,,,001,111,2020_Feb_11_1423,spring_faces,3.1.5,60.26178357542029,
condition files/Stage1_1.xlsx,,B2,T1,m,"['c', 'm']","['Clue', 'Monopoly']","[-0.15, 0.5]","[0.15, 0.5]",1,1,,,,,,,,,0,10,10,10,0,7,7,2,,,,,,,,,,,,,,,,,,,,,,,,,,,,,,,,,,,,,,,,,,,,,,,,,,,,,,,1077.1775122460022,None,1077.1775122460022,None,1077.1775122460022,None,m,1,0.9998002569991513,1078.7131242470023,None,1078.7131242470023,None,1078.7131242470023,None,1079.7777227000006,None,1079.7777227000006,None,1079.7777227000006,None,1079.7777227000006,None,,,,,,,,,,,,,,,,,,,,,,,,,,,,,,,,,,,,,,,,,,,,001,111,2020_Feb_11_1423,spring_faces,3.1.5,60.26178357542029,
condition files/Stage1_2.xlsx,,B4,T3,c,"['c', 'm']","['Clue', 'Monopoly']","[-0.15, 0.5]","[0.15, 0.5]",1,1,,,,,,,,,0,11,11,11,0,0,0,5,,,,,,,,,,,,,,,,,,,,,,,,,,,,,,,,,,,,,,,,,,,,,,,,,,,,,,,1081.7612414040013,None,1081.7612414040013,None,1081.7612414040013,None,m,0,1.7622778990007646,1083.3106106360028,None,1083.3106106360028,None,1083.3106106360028,None,1085.1443857360027,None,1085.1443857360027,None,1085.1443857360027,None,1085.1443857360027,None,,,,,,,,,,,,,,,,,,,,,,,,,,,,,,,,,,,,,,,,,,,,001,111,2020_Feb_11_1423,spring_faces,3.1.5,60.26178357542029,
condition files/Stage1_2.xlsx,,T2,B1,c,"['c', 'm']","['Clue', 'Monopoly']","[-0.15, 0.5]","[0.15, 0.5]",1,1,,,,,,,,,0,11,11,11,0,1,1,1,,,,,,,,,,,,,,,,,,,,,,,,,,,,,,,,,,,,,,,,,,,,,,,,,,,,,,,1087.094065430003,None,1087.094065430003,None,1087.094065430003,None,c,1,3.9482479489997786,1088.628678211,None,1088.628678211,None,1088.628678211,None,1092.627172908,None,1092.627172908,None,1092.627172908,None,1092.627172908,None,,,,,,,,,,,,,,,,,,,,,,,,,,,,,,,,,,,,,,,,,,,,001,111,2020_Feb_11_1423,spring_faces,3.1.5,60.26178357542029,
condition files/Stage1_2.xlsx,,B2,T2,m,"['c', 'm']","['Clue', 'Monopoly']","[-0.15, 0.5]","[0.15, 0.5]",1,1,,,,,,,,,0,11,11,11,0,2,2,3,,,,,,,,,,,,,,,,,,,,,,,,,,,,,,,,,,,,,,,,,,,,,,,,,,,,,,,1094.5941950940032,None,1094.5941950940032,None,1094.5941950940032,None,m,1,2.672998354999436,1096.1279947660005,None,1096.1279947660005,None,1096.1279947660005,None,1098.8637242640034,None,1098.8637242640034,None,1098.8637242640034,None,1098.8637242640034,None,,,,,,,,,,,,,,,,,,,,,,,,,,,,,,,,,,,,,,,,,,,,001,111,2020_Feb_11_1423,spring_faces,3.1.5,60.26178357542029,
condition files/Stage1_2.xlsx,,T3,B3,c,"['c', 'm']","['Clue', 'Monopoly']","[-0.15, 0.5]","[0.15, 0.5]",1,1,,,,,,,,,0,11,11,11,0,3,3,4,,,,,,,,,,,,,,,,,,,,,,,,,,,,,,,,,,,,,,,,,,,,,,,,,,,,,,,1100.8268612290012,None,1100.8268612290012,None,1100.8268612290012,None,c,1,4.214972943002067,1102.3779405540008,None,1102.3779405540008,None,1102.3779405540008,None,1106.6609491550007,None,1106.6609491550007,None,1106.6609491550007,None,1106.6609491550007,None,,,,,,,,,,,,,,,,,,,,,,,,,,,,,,,,,,,,,,,,,,,,001,111,2020_Feb_11_1423,spring_faces,3.1.5,60.26178357542029,
condition files/Stage1_2.xlsx,,T1,B2,m,"['c', 'm']","['Clue', 'Monopoly']","[-0.15, 0.5]","[0.15, 0.5]",1,1,,,,,,,,,0,11,11,11,0,4,4,2,,,,,,,,,,,,,,,,,,,,,,,,,,,,,,,,,,,,,,,,,,,,,,,,,,,,,,,1108.6111309560001,None,1108.6111309560001,None,1108.6111309560001,None,m,1,0.9448116050007229,1110.1440837520022,None,1110.1440837520022,None,1110.1440837520022,None,1111.1458542160035,None,1111.1458542160035,None,1111.1458542160035,None,1111.1458542160035,None,,,,,,,,,,,,,,,,,,,,,,,,,,,,,,,,,,,,,,,,,,,,001,111,2020_Feb_11_1423,spring_faces,3.1.5,60.26178357542029,
condition files/Stage1_2.xlsx,,B3,T4,m,"['c', 'm']","['Clue', 'Monopoly']","[-0.15, 0.5]","[0.15, 0.5]",1,1,,,,,,,,,0,11,11,11,0,5,5,6,,,,,,,,,,,,,,,,,,,,,,,,,,,,,,,,,,,,,,,,,,,,,,,,,,,,,,,1113.111014481001,None,1113.111014481001,None,1113.111014481001,None,m,1,12.892528151001898,1114.6444862030003,None,1114.6444862030003,None,1114.6444862030003,None,1127.5938357700034,None,1127.5938357700034,None,1127.5938357700034,None,1127.5938357700034,None,,,,,,,,,,,,,,,,,,,,,,,,,,,,,,,,,,,,,,,,,,,,001,111,2020_Feb_11_1423,spring_faces,3.1.5,60.26178357542029,
condition files/Stage1_2.xlsx,,B1,T1,c,"['c', 'm']","['Clue', 'Monopoly']","[-0.15, 0.5]","[0.15, 0.5]",1,1,,,,,,,,,0,11,11,11,0,6,6,0,,,,,,,,,,,,,,,,,,,,,,,,,,,,,,,,,,,,,,,,,,,,,,,,,,,,,,,1129.5605547930027,None,1129.5605547930027,None,1129.5605547930027,None,c,1,3.0664953609993972,1131.094379389,None,1131.094379389,None,1131.094379389,None,1134.227782748003,None,1134.227782748003,None,1134.227782748003,None,1134.227782748003,None,,,,,,,,,,,,,,,,,,,,,,,,,,,,,,,,,,,,,,,,,,,,001,111,2020_Feb_11_1423,spring_faces,3.1.5,60.26178357542029,
condition files/Stage1_2.xlsx,,T4,B4,m,"['c', 'm']","['Clue', 'Monopoly']","[-0.15, 0.5]","[0.15, 0.5]",1,1,,,,,,,,,0,11,11,11,0,7,7,7,,,,,,,,,,,,,,,,,,,,,,,,,,,,,,,,,,,,,,,,,,,,,,,,,,,,,,,1136.1769766880025,None,1136.1769766880025,None,1136.1769766880025,None,m,1,3.138287367000885,1137.7106401980018,None,1137.7106401980018,None,1137.7106401980018,None,1140.911330484003,None,1140.911330484003,None,1140.911330484003,None,1140.911330484003,None,,,,,,,,,,,,,,,,,,,,,,,,,,,,,,,,,,,,,,,,,,,,001,111,2020_Feb_11_1423,spring_faces,3.1.5,60.26178357542029,
,,,,,,,,,,,,,,,,,,,,,,,,,,,,,,,,,,,,,,,,,,,,,,,,,,,,,,,,,,,,,,,,,,,,,,,,,,,,,,,,,,,,,,,,,,,,,,,,,,,,,,,,,,,,,,,,1142.8941689990024,None,space,23.49873677800133,1147.8941812290032,None,,,,,,,,,,,,,,,,,,,,,,,,,,,,,,001,111,2020_Feb_11_1423,spring_faces,3.1.5,60.26178357542029,
condition files/Stage2_1.xlsx,,B2,T2,r,"['s', 'r']","['Stratego', 'Risk']","[-0.15, 0.5]","[0.15, 0.5]",1,1,,,,,,,,,,,,,,,,,0,0,0,0,0,0,0,3,,,,,,,,,,,,,,,,,,,,,,,,,,,,,,,,,,,,,,,,,,,,,,,1171.4444906890021,None,1171.4444906890021,None,1171.4444906890021,None,r,1,8.845815977001621,1172.9631136310018,None,1172.9631136310018,None,1172.9631136310018,None,1181.8605906880002,None,1181.8605906880002,None,1181.8605906880002,None,1181.8605906880002,None,,,,,,,,,,,,,,,1147.8941812290032,None,,,,,,,,,,,,,,,,,,,,,,,,,,,,001,111,2020_Feb_11_1423,spring_faces,3.1.5,60.26178357542029,
condition files/Stage2_1.xlsx,,B4,T4,r,"['s', 'r']","['Stratego', 'Risk']","[-0.15, 0.5]","[0.15, 0.5]",1,1,,,,,,,,,,,,,,,,,0,0,0,0,0,1,1,5,,,,,,,,,,,,,,,,,,,,,,,,,,,,,,,,,,,,,,,,,,,,,,,1183.8275558230016,None,1183.8275558230016,None,1183.8275558230016,None,s,0,2.317816335998941,1185.363114576001,None,1185.363114576001,None,1185.363114576001,None,1187.7439640050034,None,1187.7439640050034,None,1187.7439640050034,None,1187.7439640050034,None,,,,,,,,,,,,,,,,,,,,,,,,,,,,,,,,,,,,,,,,,,,,001,111,2020_Feb_11_1423,spring_faces,3.1.5,60.26178357542029,
condition files/Stage2_1.xlsx,,T3,B3,s,"['s', 'r']","['Stratego', 'Risk']","[-0.15, 0.5]","[0.15, 0.5]",1,1,,,,,,,,,,,,,,,,,0,0,0,0,0,2,2,4,,,,,,,,,,,,,,,,,,,,,,,,,,,,,,,,,,,,,,,,,,,,,,,1189.7101883170035,None,1189.7101883170035,None,1189.7101883170035,None,r,0,2.756934855999134,1191.2440559510032,None,1191.2440559510032,None,1191.2440559510032,None,1194.06268481,None,1194.06268481,None,1194.06268481,None,1194.06268481,None,,,,,,,,,,,,,,,,,,,,,,,,,,,,,,,,,,,,,,,,,,,,001,111,2020_Feb_11_1423,spring_faces,3.1.5,60.26178357542029,
condition files/Stage2_1.xlsx,,T1,B1,s,"['s', 'r']","['Stratego', 'Risk']","[-0.15, 0.5]","[0.15, 0.5]",1,1,,,,,,,,,,,,,,,,,0,0,0,0,0,3,3,2,,,,,,,,,,,,,,,,,,,,,,,,,,,,,,,,,,,,,,,,,,,,,,,1196.0270175840014,None,1196.0270175840014,None,1196.0270175840014,None,s,1,21.0162768400005,1197.560644559002,None,1197.560644559002,None,1197.560644559002,None,1218.6279791740017,None,1218.6279791740017,None,1218.6279791740017,None,1218.6279791740017,None,,,,,,,,,,,,,,,,,,,,,,,,,,,,,,,,,,,,,,,,,,,,001,111,2020_Feb_11_1423,spring_faces,3.1.5,60.26178357542029,
condition files/Stage2_1.xlsx,,B6,T6,r,"['s', 'r']","['Stratego', 'Risk']","[-0.15, 0.5]","[0.15, 0.5]",1,1,,,,,,,,,,,,,,,,,0,0,0,0,0,4,4,1,,,,,,,,,,,,,,,,,,,,,,,,,,,,,,,,,,,,,,,,,,,,,,,1220.5943780810012,None,1220.5943780810012,None,1220.5943780810012,None,s,0,4.592848807002156,1222.128165756003,None,1222.128165756003,None,1222.128165756003,None,1226.7777275140033,None,1226.7777275140033,None,1226.7777275140033,None,1226.7777275140033,None,,,,,,,,,,,,,,,,,,,,,,,,,,,,,,,,,,,,,,,,,,,,001,111,2020_Feb_11_1423,spring_faces,3.1.5,60.26178357542029,
condition files/Stage2_1.xlsx,,T5,B5,s,"['s', 'r']","['Stratego', 'Risk']","[-0.15, 0.5]","[0.15, 0.5]",1,1,,,,,,,,,,,,,,,,,0,0,0,0,0,5,5,0,,,,,,,,,,,,,,,,,,,,,,,,,,,,,,,,,,,,,,,,,,,,,,,1228.743937700001,None,1228.743937700001,None,1228.743937700001,None,r,0,2.713916771001095,1230.2790085300003,None,1230.2790085300003,None,1230.2790085300003,None,1233.0469328260006,None,1233.0469328260006,None,1233.0469328260006,None,1233.0469328260006,None,,,,,,,,,,,,,,,,,,,,,,,,,,,,,,,,,,,,,,,,,,,,001,111,2020_Feb_11_1423,spring_faces,3.1.5,60.26178357542029,
condition files/Stage2_2.xlsx,,B3,T3,s,"['s', 'r']","['Stratego', 'Risk']","[-0.15, 0.5]","[0.15, 0.5]",1,1,,,,,,,,,,,,,,,,,0,1,1,1,0,0,0,4,,,,,,,,,,,,,,,,,,,,,,,,,,,,,,,,,,,,,,,,,,,,,,,1235.0280445660028,None,1235.0280445660028,None,1235.0280445660028,None,r,0,4.5118610489989806,1236.5610545380005,None,1236.5610545380005,None,1236.5610545380005,None,1241.1272488390023,None,1241.1272488390023,None,1241.1272488390023,None,1241.1272488390023,None,,,,,,,,,,,,,,,,,,,,,,,,,,,,,,,,,,,,,,,,,,,,001,111,2020_Feb_11_1423,spring_faces,3.1.5,60.26178357542029,
condition files/Stage2_2.xlsx,,B1,T1,s,"['s', 'r']","['Stratego', 'Risk']","[-0.15, 0.5]","[0.15, 0.5]",1,1,,,,,,,,,,,,,,,,,0,1,1,1,0,1,1,2,,,,,,,,,,,,,,,,,,,,,,,,,,,,,,,,,,,,,,,,,,,,,,,1243.0941485860021,None,1243.0941485860021,None,1243.0941485860021,None,r,0,13.405391848998988,1244.6275321360008,None,1244.6275321360008,None,1244.6275321360008,None,1258.094034847003,None,1258.094034847003,None,1258.094034847003,None,1258.094034847003,None,,,,,,,,,,,,,,,,,,,,,,,,,,,,,,,,,,,,,,,,,,,,001,111,2020_Feb_11_1423,spring_faces,3.1.5,60.26178357542029,
condition files/Stage2_2.xlsx,,T4,B4,r,"['s', 'r']","['Stratego', 'Risk']","[-0.15, 0.5]","[0.15, 0.5]",1,1,,,,,,,,,,,,,,,,,0,1,1,1,0,2,2,5,,,,,,,,,,,,,,,,,,,,,,,,,,,,,,,,,,,,,,,,,,,,,,,1260.0601929330005,None,1260.0601929330005,None,1260.0601929330005,None,r,1,26.74250115900213,1261.594511157,None,1261.594511157,None,1261.594511157,None,1288.39491413,None,1288.39491413,None,1288.39491413,None,1288.39491413,None,,,,,,,,,,,,,,,,,,,,,,,,,,,,,,,,,,,,,,,,,,,,001,111,2020_Feb_11_1423,spring_faces,3.1.5,60.26178357542029,
condition files/Stage2_2.xlsx,,T2,B2,r,"['s', 'r']","['Stratego', 'Risk']","[-0.15, 0.5]","[0.15, 0.5]",1,1,,,,,,,,,,,,,,,,,0,1,1,1,0,3,3,3,,,,,,,,,,,,,,,,,,,,,,,,,,,,,,,,,,,,,,,,,,,,,,,1290.3608666110013,None,1290.3608666110013,None,1290.3608666110013,None,r,1,1.8964940360019682,1291.8964341220017,None,1291.8964341220017,None,1291.8964341220017,None,1293.844317080002,None,1293.844317080002,None,1293.844317080002,None,1293.844317080002,None,,,,,,,,,,,,,,,,,,,,,,,,,,,,,,,,,,,,,,,,,,,,001,111,2020_Feb_11_1423,spring_faces,3.1.5,60.26178357542029,
condition files/Stage2_2.xlsx,,B5,T5,s,"['s', 'r']","['Stratego', 'Risk']","[-0.15, 0.5]","[0.15, 0.5]",1,1,,,,,,,,,,,,,,,,,0,1,1,1,0,4,4,0,,,,,,,,,,,,,,,,,,,,,,,,,,,,,,,,,,,,,,,,,,,,,,,1295.8109221820014,None,1295.8109221820014,None,1295.8109221820014,None,r,0,3.2640810839984624,1297.3448486460002,None,1297.3448486460002,None,1297.3448486460002,None,1300.6636870930015,None,1300.6636870930015,None,1300.6636870930015,None,1300.6636870930015,None,,,,,,,,,,,,,,,,,,,,,,,,,,,,,,,,,,,,,,,,,,,,001,111,2020_Feb_11_1423,spring_faces,3.1.5,60.26178357542029,
condition files/Stage2_2.xlsx,,T6,B6,r,"['s', 'r']","['Stratego', 'Risk']","[-0.15, 0.5]","[0.15, 0.5]",1,1,,,,,,,,,,,,,,,,,0,1,1,1,0,5,5,1,,,,,,,,,,,,,,,,,,,,,,,,,,,,,,,,,,,,,,,,,,,,,,,1302.6275485750011,None,1302.6275485750011,None,1302.6275485750011,None,r,1,8.351899736000632,1304.161030364001,None,1304.161030364001,None,1304.161030364001,None,1312.578174694001,None,1312.578174694001,None,1312.578174694001,None,1312.578174694001,None,,,,,,,,,,,,,,,,,,,,,,,,,,,,,,,,,,,,,,,,,,,,001,111,2020_Feb_11_1423,spring_faces,3.1.5,60.26178357542029,
condition files/Stage2_1.xlsx,,T1,B1,s,"['s', 'r']","['Stratego', 'Risk']","[-0.15, 0.5]","[0.15, 0.5]",1,1,,,,,,,,,,,,,,,,,0,2,2,2,0,0,0,2,,,,,,,,,,,,,,,,,,,,,,,,,,,,,,,,,,,,,,,,,,,,,,,1314.5610479660027,None,1314.5610479660027,None,1314.5610479660027,None,r,0,3.82517474999986,1316.095809683,None,1316.095809683,None,1316.095809683,None,1319.9797098530034,None,1319.9797098530034,None,1319.9797098530034,None,1319.9797098530034,None,,,,,,,,,,,,,,,,,,,,,,,,,,,,,,,,,,,,,,,,,,,,001,111,2020_Feb_11_1423,spring_faces,3.1.5,60.26178357542029,
condition files/Stage2_1.xlsx,,B6,T6,r,"['s', 'r']","['Stratego', 'Risk']","[-0.15, 0.5]","[0.15, 0.5]",1,1,,,,,,,,,,,,,,,,,0,2,2,2,0,1,1,1,,,,,,,,,,,,,,,,,,,,,,,,,,,,,,,,,,,,,,,,,,,,,,,1321.943937125001,None,1321.943937125001,None,1321.943937125001,None,r,1,1.7381029600001057,1323.4788742400015,None,1323.4788742400015,None,1323.4788742400015,None,1325.2771355180012,None,1325.2771355180012,None,1325.2771355180012,None,1325.2771355180012,None,,,,,,,,,,,,,,,,,,,,,,,,,,,,,,,,,,,,,,,,,,,,001,111,2020_Feb_11_1423,spring_faces,3.1.5,60.26178357542029,
condition files/Stage2_1.xlsx,,B4,T4,r,"['s', 'r']","['Stratego', 'Risk']","[-0.15, 0.5]","[0.15, 0.5]",1,1,,,,,,,,,,,,,,,,,0,2,2,2,0,2,2,5,,,,,,,,,,,,,,,,,,,,,,,,,,,,,,,,,,,,,,,,,,,,,,,1327.2438758020035,None,1327.2438758020035,None,1327.2438758020035,None,r,1,2.551052910999715,1328.7778544050016,None,1328.7778544050016,None,1328.7778544050016,None,1331.3937300290017,None,1331.3937300290017,None,1331.3937300290017,None,1331.3937300290017,None,,,,,,,,,,,,,,,,,,,,,,,,,,,,,,,,,,,,,,,,,,,,001,111,2020_Feb_11_1423,spring_faces,3.1.5,60.26178357542029,
condition files/Stage2_1.xlsx,,T5,B5,s,"['s', 'r']","['Stratego', 'Risk']","[-0.15, 0.5]","[0.15, 0.5]",1,1,,,,,,,,,,,,,,,,,0,2,2,2,0,3,3,0,,,,,,,,,,,,,,,,,,,,,,,,,,,,,,,,,,,,,,,,,,,,,,,1333.3610829470017,None,1333.3610829470017,None,1333.3610829470017,None,r,0,1.8746059830009472,1334.9103740320024,None,1334.9103740320024,None,1334.9103740320024,None,1336.845109476002,None,1336.845109476002,None,1336.845109476002,None,1336.845109476002,None,,,,,,,,,,,,,,,,,,,,,,,,,,,,,,,,,,,,,,,,,,,,001,111,2020_Feb_11_1423,spring_faces,3.1.5,60.26178357542029,
condition files/Stage2_1.xlsx,,B2,T2,r,"['s', 'r']","['Stratego', 'Risk']","[-0.15, 0.5]","[0.15, 0.5]",1,1,,,,,,,,,,,,,,,,,0,2,2,2,0,4,4,3,,,,,,,,,,,,,,,,,,,,,,,,,,,,,,,,,,,,,,,,,,,,,,,1338.8104213550032,None,1338.8104213550032,None,1338.8104213550032,None,r,1,2.2482587060003425,1340.3446666950003,None,1340.3446666950003,None,1340.3446666950003,None,1342.6444713160017,None,1342.6444713160017,None,1342.6444713160017,None,1342.6444713160017,None,,,,,,,,,,,,,,,,,,,,,,,,,,,,,,,,,,,,,,,,,,,,001,111,2020_Feb_11_1423,spring_faces,3.1.5,60.26178357542029,
condition files/Stage2_1.xlsx,,T3,B3,s,"['s', 'r']","['Stratego', 'Risk']","[-0.15, 0.5]","[0.15, 0.5]",1,1,,,,,,,,,,,,,,,,,0,2,2,2,0,5,5,4,,,,,,,,,,,,,,,,,,,,,,,,,,,,,,,,,,,,,,,,,,,,,,,1344.61074774,None,1344.61074774,None,1344.61074774,None,r,0,27.505008518000977,1346.1439367540006,None,1346.1439367540006,None,1346.1439367540006,None,1373.713297608003,None,1373.713297608003,None,1373.713297608003,None,1373.713297608003,None,,,,,,,,,,,,,,,,,,,,,,,,,,,,,,,,,,,,,,,,,,,,001,111,2020_Feb_11_1423,spring_faces,3.1.5,60.26178357542029,
condition files/Stage2_2.xlsx,,T4,B4,r,"['s', 'r']","['Stratego', 'Risk']","[-0.15, 0.5]","[0.15, 0.5]",1,1,,,,,,,,,,,,,,,,,0,3,3,3,0,0,0,5,,,,,,,,,,,,,,,,,,,,,,,,,,,,,,,,,,,,,,,,,,,,,,,1375.6944705040005,None,1375.6944705040005,None,1375.6944705040005,None,r,1,21.780784024998866,1377.2441377640025,None,1377.2441377640025,None,1377.2441377640025,None,1399.0942421510008,None,1399.0942421510008,None,1399.0942421510008,None,1399.0942421510008,None,,,,,,,,,,,,,,,,,,,,,,,,,,,,,,,,,,,,,,,,,,,,001,111,2020_Feb_11_1423,spring_faces,3.1.5,60.26178357542029,
condition files/Stage2_2.xlsx,,B3,T3,s,"['s', 'r']","['Stratego', 'Risk']","[-0.15, 0.5]","[0.15, 0.5]",1,1,,,,,,,,,,,,,,,,,0,3,3,3,0,1,1,4,,,,,,,,,,,,,,,,,,,,,,,,,,,,,,,,,,,,,,,,,,,,,,,1401.044276628003,None,1401.044276628003,None,1401.044276628003,None,r,0,2.7672779300010006,1402.5776133060026,None,1402.5776133060026,None,1402.5776133060026,None,1405.4135835200032,None,1405.4135835200032,None,1405.4135835200032,None,1405.4135835200032,None,,,,,,,,,,,,,,,,,,,,,,,,,,,,,,,,,,,,,,,,,,,,001,111,2020_Feb_11_1423,spring_faces,3.1.5,60.26178357542029,
condition files/Stage2_2.xlsx,,B5,T5,s,"['s', 'r']","['Stratego', 'Risk']","[-0.15, 0.5]","[0.15, 0.5]",1,1,,,,,,,,,,,,,,,,,0,3,3,3,0,2,2,0,,,,,,,,,,,,,,,,,,,,,,,,,,,,,,,,,,,,,,,,,,,,,,,1407.3770879230033,None,1407.3770879230033,None,1407.3770879230033,None,r,0,1.4566288640016865,1408.9123709290034,None,1408.9123709290034,None,1408.9123709290034,None,1410.426846442002,None,1410.426846442002,None,1410.426846442002,None,1410.426846442002,None,,,,,,,,,,,,,,,,,,,,,,,,,,,,,,,,,,,,,,,,,,,,001,111,2020_Feb_11_1423,spring_faces,3.1.5,60.26178357542029,
condition files/Stage2_2.xlsx,,T2,B2,r,"['s', 'r']","['Stratego', 'Risk']","[-0.15, 0.5]","[0.15, 0.5]",1,1,,,,,,,,,,,,,,,,,0,3,3,3,0,3,3,3,,,,,,,,,,,,,,,,,,,,,,,,,,,,,,,,,,,,,,,,,,,,,,,1412.3942363830029,None,1412.3942363830029,None,1412.3942363830029,None,r,1,1.544230626001081,1413.9446830470006,None,1413.9446830470006,None,1413.9446830470006,None,1415.5452700000023,None,1415.5452700000023,None,1415.5452700000023,None,1415.5452700000023,None,,,,,,,,,,,,,,,,,,,,,,,,,,,,,,,,,,,,,,,,,,,,001,111,2020_Feb_11_1423,spring_faces,3.1.5,60.26178357542029,
condition files/Stage2_2.xlsx,,T6,B6,r,"['s', 'r']","['Stratego', 'Risk']","[-0.15, 0.5]","[0.15, 0.5]",1,1,,,,,,,,,,,,,,,,,0,3,3,3,0,4,4,1,,,,,,,,,,,,,,,,,,,,,,,,,,,,,,,,,,,,,,,,,,,,,,,1417.5102213420032,None,1417.5102213420032,None,1417.5102213420032,None,r,1,4.332184236001922,1419.0447249080025,None,1419.0447249080025,None,1419.0447249080025,None,1423.427330452003,None,1423.427330452003,None,1423.427330452003,None,1423.427330452003,None,,,,,,,,,,,,,,,,,,,,,,,,,,,,,,,,,,,,,,,,,,,,001,111,2020_Feb_11_1423,spring_faces,3.1.5,60.26178357542029,
condition files/Stage2_2.xlsx,,B1,T1,s,"['s', 'r']","['Stratego', 'Risk']","[-0.15, 0.5]","[0.15, 0.5]",1,1,,,,,,,,,,,,,,,,,0,3,3,3,0,5,5,2,,,,,,,,,,,,,,,,,,,,,,,,,,,,,,,,,,,,,,,,,,,,,,,1425.3943946650033,None,1425.3943946650033,None,1425.3943946650033,None,s,1,6.862902433000272,1426.930032409,None,1426.930032409,None,1426.930032409,None,1433.8455836660032,None,1433.8455836660032,None,1433.8455836660032,None,1433.8455836660032,None,,,,,,,,,,,,,,,,,,,,,,,,,,,,,,,,,,,,,,,,,,,,001,111,2020_Feb_11_1423,spring_faces,3.1.5,60.26178357542029,
condition files/Stage2_1.xlsx,,T1,B1,s,"['s', 'r']","['Stratego', 'Risk']","[-0.15, 0.5]","[0.15, 0.5]",1,1,,,,,,,,,,,,,,,,,0,4,4,4,0,0,0,2,,,,,,,,,,,,,,,,,,,,,,,,,,,,,,,,,,,,,,,,,,,,,,,1435.8275425150023,None,1435.8275425150023,None,1435.8275425150023,None,s,1,2.4162092019978445,1437.3607306780032,None,1437.3607306780032,None,1437.3607306780032,None,1439.8266818830016,None,1439.8266818830016,None,1439.8266818830016,None,1439.8266818830016,None,,,,,,,,,,,,,,,,,,,,,,,,,,,,,,,,,,,,,,,,,,,,001,111,2020_Feb_11_1423,spring_faces,3.1.5,60.26178357542029,
condition files/Stage2_1.xlsx,,T3,B3,s,"['s', 'r']","['Stratego', 'Risk']","[-0.15, 0.5]","[0.15, 0.5]",1,1,,,,,,,,,,,,,,,,,0,4,4,4,0,1,1,4,,,,,,,,,,,,,,,,,,,,,,,,,,,,,,,,,,,,,,,,,,,,,,,1441.7940622820024,None,1441.7940622820024,None,1441.7940622820024,None,r,0,7.84165101599865,1443.3273513480017,None,1443.3273513480017,None,1443.3273513480017,None,1451.2274413230007,None,1451.2274413230007,None,1451.2274413230007,None,1451.2274413230007,None,,,,,,,,,,,,,,,,,,,,,,,,,,,,,,,,,,,,,,,,,,,,001,111,2020_Feb_11_1423,spring_faces,3.1.5,60.26178357542029,
condition files/Stage2_1.xlsx,,B2,T2,r,"['s', 'r']","['Stratego', 'Risk']","[-0.15, 0.5]","[0.15, 0.5]",1,1,,,,,,,,,,,,,,,,,0,4,4,4,0,2,2,3,,,,,,,,,,,,,,,,,,,,,,,,,,,,,,,,,,,,,,,,,,,,,,,1453.1937278270016,None,1453.1937278270016,None,1453.1937278270016,None,r,1,5.098199726999155,1454.7267336570003,None,1454.7267336570003,None,1454.7267336570003,None,1459.8773171850007,None,1459.8773171850007,None,1459.8773171850007,None,1459.8773171850007,None,,,,,,,,,,,,,,,,,,,,,,,,,,,,,,,,,,,,,,,,,,,,001,111,2020_Feb_11_1423,spring_faces,3.1.5,60.26178357542029,
