condsFile,subStage,cue1,cue2,correct,responseKeys,responseNames,cue1Position,cue2Position,cue1Opacity,cue2Opacity,stageLoop0.thisRepN,stageLoop0.thisTrialN,stageLoop0.thisN,stageLoop0.thisIndex,blockLoop0.thisRepN,blockLoop0.thisTrialN,blockLoop0.thisN,blockLoop0.thisIndex,stage1Loop.thisRepN,stage1Loop.thisTrialN,stage1Loop.thisN,stage1Loop.thisIndex,blockLoop1.thisRepN,blockLoop1.thisTrialN,blockLoop1.thisN,blockLoop1.thisIndex,stage2Loop.thisRepN,stage2Loop.thisTrialN,stage2Loop.thisN,stage2Loop.thisIndex,blockLoop2.thisRepN,blockLoop2.thisTrialN,blockLoop2.thisN,blockLoop2.thisIndex,testLoop.thisRepN,testLoop.thisTrialN,testLoop.thisN,testLoop.thisIndex,blockLoopTest.thisRepN,blockLoopTest.thisTrialN,blockLoopTest.thisN,blockLoopTest.thisIndex,cuePics,id_instr_text.started,id_instr_text.stopped,space_to_continue_2.started,space_to_continue_2.stopped,end_instructions_resp_3.keys,end_instructions_resp_3.rt,end_instructions_resp_3.started,end_instructions_resp_3.stopped,id_input_instr.started,id_input_instr.stopped,id_input_rect.started,id_input_rect.stopped,id_input_resp.keys,id_input_resp.rt,id_input_resp.started,id_input_resp.stopped,sonaID,id_input_text.started,id_input_text.stopped,final_text.started,final_text.stopped,instructions.started,instructions.stopped,end_instructions_resp.keys,end_instructions_resp.rt,end_instructions_resp.started,end_instructions_resp.stopped,space_to_continue.started,space_to_continue.stopped,instructions_stage0.started,instructions_stage0.stopped,end_instructions_resp_stage0.keys,end_instructions_resp_stage0.rt,end_instructions_resp_stage0.started,end_instructions_resp_stage0.stopped,space_to_continue_stage0.started,space_to_continue_stage0.stopped,text.started,text.stopped,resp_text1.started,resp_text1.stopped,resp_text2.started,resp_text2.stopped,trial_resp.keys,trial_resp.corr,trial_resp.rt,trial_resp.started,trial_resp.stopped,cue1Image.started,cue1Image.stopped,cue2Image.started,cue2Image.stopped,cue1Image_fb.started,cue1Image_fb.stopped,cue2Image_fb.started,cue2Image_fb.stopped,fb_text_answer.started,fb_text_answer.stopped,feedback_image.started,feedback_image.stopped,instructions_stage1.started,instructions_stage1.stopped,end_instructions_resp_stage1.keys,end_instructions_resp_stage1.rt,end_instructions_resp_stage1.started,end_instructions_resp_stage1.stopped,space_to_continue_stage1.started,space_to_continue_stage1.stopped,instructions_2.started,instructions_2.stopped,end_instructions_resp_2.keys,end_instructions_resp_2.rt,end_instructions_resp_2.started,end_instructions_resp_2.stopped,press_space_to_continue_stage2.started,press_space_to_continue_stage2.stopped,instructions_testStage1.started,instructions_testStage1.stopped,end_instructions_resp_test1.keys,end_instructions_resp_test1.rt,end_instructions_resp_test1.started,end_instructions_resp_test1.stopped,press_space_to_continue_test1.started,press_space_to_continue_test1.stopped,cue1Image_testChoice.started,cue1Image_testChoice.stopped,cue2Image_testChoice.started,cue2Image_testChoice.stopped,test_resp.keys,test_resp.corr,test_resp.rt,test_resp.started,test_resp.stopped,cue1Image_testConf.started,cue1Image_testConf.stopped,cue2Image_testConf.started,cue2Image_testConf.stopped,conf_reminder.started,conf_reminder.stopped,conf_rating.response,conf_rating.rt,conf_rating.started,conf_rating.stopped,session,participant,date,expName,psychopyVersion,frameRate,
,,,,,,,,,,,,,,,,,,,,,,,,,,,,,,,,,,,,,,,,,,,"{'none': 'pictures/20M_AN_C.png', 'alpha': 'pictures/SHINEd_melon.png', 'beta': 'pictures/SHINEd_pepper.png', 'theta': 'pictures/SHINEd_pear.png', 'phi': 'pictures/SHINEd_apple.png', 'T1': 'pictures/22M_AN_C.png', 'T2': 'pictures/25M_AN_C.png', 'T3': 'pictures/26M_AN_C.png', 'T4': 'pictures/32M_AN_C.png', 'T5': 'pictures/34M_AN_C.png', 'T6': 'pictures/20M_AN_C.png', 'B1': 'pictures/31M_NE_C.png', 'B2': 'pictures/37M_NE_C.png', 'B3': 'pictures/23M_NE_C.png', 'B4': 'pictures/36M_NE_C.png', 'B5': 'pictures/38M_NE_C.png', 'B6': 'pictures/33M_NE_C.png'}",9.138136722001946,None,14.138487422002072,None,space,6.034570597999846,14.138487422002072,None,,,,,,,,,,,,,,,,,,,,,,,,,,,,,,,,,,,,,,,,,,,,,,,,,,,,,,,,,,,,,,,,,,,,,,,,,,,,,,,,,,,,,,,,,,,,,,,,001,113,2020_Feb_11_1525,spring_faces,3.1.5,60.159457574864824,
,,,,,,,,,,,,,,,,,,,,,,,,,,,,,,,,,,,,,,,,,,,,,,,,,,,,20.55655537200073,None,20.55655537200073,None,"['0', '6', '0', '5', 't', 'a', 'h', 'a', 'w', '0', '6', '0', '5', 't', 'a', 'backspace', 'i', 'h', 'a', 'w', 'backspace', '0', '6', '0', '5', 'c', 'h', 'h', 'a', 'w']","[4.336575313998765, 4.608519517998502, 5.264562970998668, 5.520574329999363, 10.24061362700013, 10.512560023998958, 12.656633178998163, 13.984562400997675, 15.28055447999941, 21.808562352998706, 22.16052386999945, 22.46455810599946, 23.120584925000003, 23.58456534799916, 23.888580946997536, 25.24856816999818, 25.60051447799924, 26.01651478399799, 26.176561226999183, 26.352581521998218, 28.96063060099914, 32.6726239439995, 33.008530784998584, 33.45662996899773, 33.74456706499768, 34.80052168700058, 35.00855458099977, 36.00051227499716, 36.208570984999824, 36.368519242998445]",20.55655537200073,None,,,,,,,,,,,,,,,,,,,,,,,,,,,,,,,,,,,,,,,,,,,,,,,,,,,,,,,,,,,,,,,,,,,,,,,,,,,,,,,,,,,,,,,,001,113,2020_Feb_11_1525,spring_faces,3.1.5,60.159457574864824,
,,,,,,,,,,,,,,,,,,,,,,,,,,,,,,,,,,,,,,,,,,,,,,,,,,,,,,,,,,,,0605chhaw,20.55655537200073,None,20.55655537200073,None,62.00575113300147,None,space,5.391732891999709,67.00544376200196,None,,,,,,,,,,,,,,,,,,,,,,,,,,,,,,,,,,,,,,,,,,,,,,,,,,,,,,,,,,,,,,,,,,,,,,,,,,,,,001,113,2020_Feb_11_1525,spring_faces,3.1.5,60.159457574864824,
,,,,,,,,,,,,,,,,,,,,,,,,,,,,,,,,,,,,,,,,,,,,,,,,,,,,,,,,,,,,,,,,,,,,,,,67.00544376200196,None,72.43853764900268,None,space,6.894380475001526,77.43874857500123,None,,,,,,,,,,,,,,,,,,,,,,,,,,,,,,,,,,,,,,,,,,,,,,,,,,,,,,,,,,,,,,,,,,,,,001,113,2020_Feb_11_1525,spring_faces,3.1.5,60.159457574864824,
condition files/Stage0a.xlsx,0a,alpha,none,h,"['h', 'g']","['Chess', 'Go']","[0, 0.5]","[0, 0]",1,0,0,0,0,0,0,0,0,0,,,,,,,,,,,,,,,,,,,,,,,,,,,,,,,,,,,,,,,,,,,,,,,,,,,,,,,,,,,,,77.43874857500123,None,84.38909565400172,None,84.38909565400172,None,84.38909565400172,None,h,1,1.5771775249995699,85.97199957900011,None,85.97199957900011,None,85.97199957900011,None,87.6214387330001,None,87.6214387330001,None,87.6214387330001,None,87.6214387330001,None,,,,,,,,,,,,,,,,,,,,,,,,,,,,,,,,,,,,,,,,,,,,001,113,2020_Feb_11_1525,spring_faces,3.1.5,60.159457574864824,
condition files/Stage0a.xlsx,0a,beta,none,g,"['h', 'g']","['Chess', 'Go']","[0, 0.5]","[0, 0]",1,0,0,0,0,0,0,1,1,1,,,,,,,,,,,,,,,,,,,,,,,,,,,,,,,,,,,,,,,,,,,,,,,,,,,,,,,,,,,,,,,89.57190129000082,None,89.57190129000082,None,89.57190129000082,None,g,1,0.6513467750010022,91.12168571400252,None,91.12168571400252,None,91.12168571400252,None,91.83845605600072,None,91.83845605600072,None,91.83845605600072,None,91.83845605600072,None,,,,,,,,,,,,,,,,,,,,,,,,,,,,,,,,,,,,,,,,,,,,001,113,2020_Feb_11_1525,spring_faces,3.1.5,60.159457574864824,
condition files/Stage0a.xlsx,0a,beta,none,g,"['h', 'g']","['Chess', 'Go']","[0, 0.5]","[0, 0]",1,0,0,1,1,1,0,0,0,1,,,,,,,,,,,,,,,,,,,,,,,,,,,,,,,,,,,,,,,,,,,,,,,,,,,,,,,,,,,,,,,93.82197628500217,None,93.82197628500217,None,93.82197628500217,None,h,0,0.6099242589989444,95.35517091200018,None,95.35517091200018,None,95.35517091200018,None,96.02176262300054,None,96.02176262300054,None,96.02176262300054,None,96.02176262300054,None,,,,,,,,,,,,,,,,,,,,,,,,,,,,,,,,,,,,,,,,,,,,001,113,2020_Feb_11_1525,spring_faces,3.1.5,60.159457574864824,
condition files/Stage0a.xlsx,0a,alpha,none,h,"['h', 'g']","['Chess', 'Go']","[0, 0.5]","[0, 0]",1,0,0,1,1,1,0,1,1,0,,,,,,,,,,,,,,,,,,,,,,,,,,,,,,,,,,,,,,,,,,,,,,,,,,,,,,,,,,,,,,,97.98852629100293,None,97.98852629100293,None,97.98852629100293,None,h,1,1.2912485159977223,99.52191187200151,None,99.52191187200151,None,99.52191187200151,None,100.87210769600279,None,100.87210769600279,None,100.87210769600279,None,100.87210769600279,None,,,,,,,,,,,,,,,,,,,,,,,,,,,,,,,,,,,,,,,,,,,,001,113,2020_Feb_11_1525,spring_faces,3.1.5,60.159457574864824,
condition files/Stage0a.xlsx,0a,beta,none,g,"['h', 'g']","['Chess', 'Go']","[0, 0.5]","[0, 0]",1,0,0,2,2,2,0,0,0,1,,,,,,,,,,,,,,,,,,,,,,,,,,,,,,,,,,,,,,,,,,,,,,,,,,,,,,,,,,,,,,,102.85525153500203,None,102.85525153500203,None,102.85525153500203,None,g,1,0.3769412639994698,104.38818152000022,None,104.38818152000022,None,104.38818152000022,None,104.82155203300135,None,104.82155203300135,None,104.82155203300135,None,104.82155203300135,None,,,,,,,,,,,,,,,,,,,,,,,,,,,,,,,,,,,,,,,,,,,,001,113,2020_Feb_11_1525,spring_faces,3.1.5,60.159457574864824,
condition files/Stage0a.xlsx,0a,alpha,none,h,"['h', 'g']","['Chess', 'Go']","[0, 0.5]","[0, 0]",1,0,0,2,2,2,0,1,1,0,,,,,,,,,,,,,,,,,,,,,,,,,,,,,,,,,,,,,,,,,,,,,,,,,,,,,,,,,,,,,,,106.78826832500272,None,106.78826832500272,None,106.78826832500272,None,h,1,0.4275949969996873,108.32157667200227,None,108.32157667200227,None,108.32157667200227,None,108.80529706699963,None,108.80529706699963,None,108.80529706699963,None,108.80529706699963,None,,,,,,,,,,,,,,,,,,,,,,,,,,,,,,,,,,,,,,,,,,,,001,113,2020_Feb_11_1525,spring_faces,3.1.5,60.159457574864824,
condition files/Stage0a.xlsx,0a,alpha,none,h,"['h', 'g']","['Chess', 'Go']","[0, 0.5]","[0, 0]",1,0,0,3,3,3,0,0,0,0,,,,,,,,,,,,,,,,,,,,,,,,,,,,,,,,,,,,,,,,,,,,,,,,,,,,,,,,,,,,,,,110.78839008300201,None,110.78839008300201,None,110.78839008300201,None,g,0,0.5549931040004594,112.32212853100282,None,112.32212853100282,None,112.32212853100282,None,112.93828261300223,None,112.93828261300223,None,112.93828261300223,None,112.93828261300223,None,,,,,,,,,,,,,,,,,,,,,,,,,,,,,,,,,,,,,,,,,,,,001,113,2020_Feb_11_1525,spring_faces,3.1.5,60.159457574864824,
condition files/Stage0a.xlsx,0a,beta,none,g,"['h', 'g']","['Chess', 'Go']","[0, 0.5]","[0, 0]",1,0,0,3,3,3,0,1,1,1,,,,,,,,,,,,,,,,,,,,,,,,,,,,,,,,,,,,,,,,,,,,,,,,,,,,,,,,,,,,,,,114.90511527000126,None,114.90511527000126,None,114.90511527000126,None,g,1,1.1425648769982217,116.438594397001,None,116.438594397001,None,116.438594397001,None,117.63845545500226,None,117.63845545500226,None,117.63845545500226,None,117.63845545500226,None,,,,,,,,,,,,,,,,,,,,,,,,,,,,,,,,,,,,,,,,,,,,001,113,2020_Feb_11_1525,spring_faces,3.1.5,60.159457574864824,
condition files/Stage0a.xlsx,0a,beta,none,g,"['h', 'g']","['Chess', 'Go']","[0, 0.5]","[0, 0]",1,0,0,4,4,4,0,0,0,1,,,,,,,,,,,,,,,,,,,,,,,,,,,,,,,,,,,,,,,,,,,,,,,,,,,,,,,,,,,,,,,119.62156086899995,None,119.62156086899995,None,119.62156086899995,None,g,1,1.098233379998419,121.1548897740031,None,121.1548897740031,None,121.1548897740031,None,122.3051827010022,None,122.3051827010022,None,122.3051827010022,None,122.3051827010022,None,,,,,,,,,,,,,,,,,,,,,,,,,,,,,,,,,,,,,,,,,,,,001,113,2020_Feb_11_1525,spring_faces,3.1.5,60.159457574864824,
condition files/Stage0a.xlsx,0a,alpha,none,h,"['h', 'g']","['Chess', 'Go']","[0, 0.5]","[0, 0]",1,0,0,4,4,4,0,1,1,0,,,,,,,,,,,,,,,,,,,,,,,,,,,,,,,,,,,,,,,,,,,,,,,,,,,,,,,,,,,,,,,124.27131942800042,None,124.27131942800042,None,124.27131942800042,None,h,1,0.7363397830013128,125.8047440320006,None,125.8047440320006,None,125.8047440320006,None,126.60533420900174,None,126.60533420900174,None,126.60533420900174,None,126.60533420900174,None,,,,,,,,,,,,,,,,,,,,,,,,,,,,,,,,,,,,,,,,,,,,001,113,2020_Feb_11_1525,spring_faces,3.1.5,60.159457574864824,
condition files/Stage0a.xlsx,0a,beta,none,g,"['h', 'g']","['Chess', 'Go']","[0, 0.5]","[0, 0]",1,0,0,5,5,5,0,0,0,1,,,,,,,,,,,,,,,,,,,,,,,,,,,,,,,,,,,,,,,,,,,,,,,,,,,,,,,,,,,,,,,128.5881596870022,None,128.5881596870022,None,128.5881596870022,None,g,1,1.0590993689984316,130.12207850100094,None,130.12207850100094,None,130.12207850100094,None,131.23889240000062,None,131.23889240000062,None,131.23889240000062,None,131.23889240000062,None,,,,,,,,,,,,,,,,,,,,,,,,,,,,,,,,,,,,,,,,,,,,001,113,2020_Feb_11_1525,spring_faces,3.1.5,60.159457574864824,
condition files/Stage0a.xlsx,0a,alpha,none,h,"['h', 'g']","['Chess', 'Go']","[0, 0.5]","[0, 0]",1,0,0,5,5,5,0,1,1,0,,,,,,,,,,,,,,,,,,,,,,,,,,,,,,,,,,,,,,,,,,,,,,,,,,,,,,,,,,,,,,,133.2050678710002,None,133.2050678710002,None,133.2050678710002,None,h,1,0.5382427449985698,134.73885638400316,None,134.73885638400316,None,134.73885638400316,None,135.33863726100026,None,135.33863726100026,None,135.33863726100026,None,135.33863726100026,None,,,,,,,,,,,,,,,,,,,,,,,,,,,,,,,,,,,,,,,,,,,,001,113,2020_Feb_11_1525,spring_faces,3.1.5,60.159457574864824,
condition files/Stage0b_1.xlsx,0b,alpha,none,h,"['h', 'g']","['Chess', 'Go']","[-0.15, 0.5]","[0.15, 0.5]",1,0,0,6,6,6,0,0,0,0,,,,,,,,,,,,,,,,,,,,,,,,,,,,,,,,,,,,,,,,,,,,,,,,,,,,,,,,,,,,,,,137.32148148300257,None,137.32148148300257,None,137.32148148300257,None,h,1,0.7261084999990999,138.85507522000262,None,138.85507522000262,None,138.85507522000262,None,139.63874967100128,None,139.63874967100128,None,139.63874967100128,None,139.63874967100128,None,,,,,,,,,,,,,,,,,,,,,,,,,,,,,,,,,,,,,,,,,,,,001,113,2020_Feb_11_1525,spring_faces,3.1.5,60.159457574864824,
condition files/Stage0b_1.xlsx,0b,none,beta,g,"['h', 'g']","['Chess', 'Go']","[-0.15, 0.5]","[0.15, 0.5]",0,1,0,6,6,6,0,1,1,1,,,,,,,,,,,,,,,,,,,,,,,,,,,,,,,,,,,,,,,,,,,,,,,,,,,,,,,,,,,,,,,141.6051099210017,None,141.6051099210017,None,141.6051099210017,None,g,1,1.2260057570019853,143.1551695670023,None,143.1551695670023,None,143.1551695670023,None,144.44206905600004,None,144.44206905600004,None,144.44206905600004,None,144.44206905600004,None,,,,,,,,,,,,,,,,,,,,,,,,,,,,,,,,,,,,,,,,,,,,001,113,2020_Feb_11_1525,spring_faces,3.1.5,60.159457574864824,
condition files/Stage0b_2.xlsx,0b,beta,none,g,"['h', 'g']","['Chess', 'Go']","[-0.15, 0.5]","[0.15, 0.5]",1,0,0,7,7,7,0,0,0,1,,,,,,,,,,,,,,,,,,,,,,,,,,,,,,,,,,,,,,,,,,,,,,,,,,,,,,,,,,,,,,,146.42185442300251,None,146.42185442300251,None,146.42185442300251,None,g,1,0.9012505470018368,147.95988548100286,None,147.95988548100286,None,147.95988548100286,None,148.92209952100166,None,148.92209952100166,None,148.92209952100166,None,148.92209952100166,None,,,,,,,,,,,,,,,,,,,,,,,,,,,,,,,,,,,,,,,,,,,,001,113,2020_Feb_11_1525,spring_faces,3.1.5,60.159457574864824,
condition files/Stage0b_2.xlsx,0b,none,alpha,h,"['h', 'g']","['Chess', 'Go']","[-0.15, 0.5]","[0.15, 0.5]",0,1,0,7,7,7,0,1,1,0,,,,,,,,,,,,,,,,,,,,,,,,,,,,,,,,,,,,,,,,,,,,,,,,,,,,,,,,,,,,,,,150.88823552800022,None,150.88823552800022,None,150.88823552800022,None,h,1,0.8226066310016904,152.43852265100213,None,152.43852265100213,None,152.43852265100213,None,153.32193809599994,None,153.32193809599994,None,153.32193809599994,None,153.32193809599994,None,,,,,,,,,,,,,,,,,,,,,,,,,,,,,,,,,,,,,,,,,,,,001,113,2020_Feb_11_1525,spring_faces,3.1.5,60.159457574864824,
condition files/Stage0b_1.xlsx,0b,alpha,none,h,"['h', 'g']","['Chess', 'Go']","[-0.15, 0.5]","[0.15, 0.5]",1,0,0,8,8,8,0,0,0,0,,,,,,,,,,,,,,,,,,,,,,,,,,,,,,,,,,,,,,,,,,,,,,,,,,,,,,,,,,,,,,,155.3050117010025,None,155.3050117010025,None,155.3050117010025,None,h,1,0.6113296250005078,156.84179229000074,None,156.84179229000074,None,156.84179229000074,None,157.50527473900001,None,157.50527473900001,None,157.50527473900001,None,157.50527473900001,None,,,,,,,,,,,,,,,,,,,,,,,,,,,,,,,,,,,,,,,,,,,,001,113,2020_Feb_11_1525,spring_faces,3.1.5,60.159457574864824,
condition files/Stage0b_1.xlsx,0b,none,beta,g,"['h', 'g']","['Chess', 'Go']","[-0.15, 0.5]","[0.15, 0.5]",0,1,0,8,8,8,0,1,1,1,,,,,,,,,,,,,,,,,,,,,,,,,,,,,,,,,,,,,,,,,,,,,,,,,,,,,,,,,,,,,,,159.47184479400312,None,159.47184479400312,None,159.47184479400312,None,h,0,3.405319823999889,161.007865339001,None,161.007865339001,None,161.007865339001,None,164.47185461700064,None,164.47185461700064,None,164.47185461700064,None,164.47185461700064,None,,,,,,,,,,,,,,,,,,,,,,,,,,,,,,,,,,,,,,,,,,,,001,113,2020_Feb_11_1525,spring_faces,3.1.5,60.159457574864824,
condition files/Stage0b_2.xlsx,0b,none,alpha,h,"['h', 'g']","['Chess', 'Go']","[-0.15, 0.5]","[0.15, 0.5]",0,1,0,9,9,9,0,0,0,0,,,,,,,,,,,,,,,,,,,,,,,,,,,,,,,,,,,,,,,,,,,,,,,,,,,,,,,,,,,,,,,166.455086416001,None,166.455086416001,None,166.455086416001,None,g,0,1.2082369109994033,167.98894677000135,None,167.98894677000135,None,167.98894677000135,None,169.25519433700174,None,169.25519433700174,None,169.25519433700174,None,169.25519433700174,None,,,,,,,,,,,,,,,,,,,,,,,,,,,,,,,,,,,,,,,,,,,,001,113,2020_Feb_11_1525,spring_faces,3.1.5,60.159457574864824,
condition files/Stage0b_2.xlsx,0b,beta,none,g,"['h', 'g']","['Chess', 'Go']","[-0.15, 0.5]","[0.15, 0.5]",1,0,0,9,9,9,0,1,1,1,,,,,,,,,,,,,,,,,,,,,,,,,,,,,,,,,,,,,,,,,,,,,,,,,,,,,,,,,,,,,,,171.2217745320013,None,171.2217745320013,None,171.2217745320013,None,g,1,1.6887672550001298,172.77234433299964,None,172.77234433299964,None,172.77234433299964,None,174.52457745100037,None,174.52457745100037,None,174.52457745100037,None,174.52457745100037,None,,,,,,,,,,,,,,,,,,,,,,,,,,,,,,,,,,,,,,,,,,,,001,113,2020_Feb_11_1525,spring_faces,3.1.5,60.159457574864824,
condition files/Stage0b_1.xlsx,0b,none,beta,g,"['h', 'g']","['Chess', 'Go']","[-0.15, 0.5]","[0.15, 0.5]",0,1,0,10,10,10,0,0,0,1,,,,,,,,,,,,,,,,,,,,,,,,,,,,,,,,,,,,,,,,,,,,,,,,,,,,,,,,,,,,,,,176.50492166000186,None,176.50492166000186,None,176.50492166000186,None,g,1,1.0297716399982164,178.03935109800295,None,178.03935109800295,None,178.03935109800295,None,179.12201393000214,None,179.12201393000214,None,179.12201393000214,None,179.12201393000214,None,,,,,,,,,,,,,,,,,,,,,,,,,,,,,,,,,,,,,,,,,,,,001,113,2020_Feb_11_1525,spring_faces,3.1.5,60.159457574864824,
condition files/Stage0b_1.xlsx,0b,alpha,none,h,"['h', 'g']","['Chess', 'Go']","[-0.15, 0.5]","[0.15, 0.5]",1,0,0,10,10,10,0,1,1,0,,,,,,,,,,,,,,,,,,,,,,,,,,,,,,,,,,,,,,,,,,,,,,,,,,,,,,,,,,,,,,,181.0883318180022,None,181.0883318180022,None,181.0883318180022,None,h,1,0.6659876220001024,182.62712026400186,None,182.62712026400186,None,182.62712026400186,None,183.35478392700315,None,183.35478392700315,None,183.35478392700315,None,183.35478392700315,None,,,,,,,,,,,,,,,,,,,,,,,,,,,,,,,,,,,,,,,,,,,,001,113,2020_Feb_11_1525,spring_faces,3.1.5,60.159457574864824,
condition files/Stage0b_2.xlsx,0b,none,alpha,h,"['h', 'g']","['Chess', 'Go']","[-0.15, 0.5]","[0.15, 0.5]",0,1,0,11,11,11,0,0,0,0,,,,,,,,,,,,,,,,,,,,,,,,,,,,,,,,,,,,,,,,,,,,,,,,,,,,,,,,,,,,,,,185.33835576000274,None,185.33835576000274,None,185.33835576000274,None,h,1,0.6935410250007408,186.87158181400082,None,186.87158181400082,None,186.87158181400082,None,187.62172131900297,None,187.62172131900297,None,187.62172131900297,None,187.62172131900297,None,,,,,,,,,,,,,,,,,,,,,,,,,,,,,,,,,,,,,,,,,,,,001,113,2020_Feb_11_1525,spring_faces,3.1.5,60.159457574864824,
condition files/Stage0b_2.xlsx,0b,beta,none,g,"['h', 'g']","['Chess', 'Go']","[-0.15, 0.5]","[0.15, 0.5]",1,0,0,11,11,11,0,1,1,1,,,,,,,,,,,,,,,,,,,,,,,,,,,,,,,,,,,,,,,,,,,,,,,,,,,,,,,,,,,,,,,189.58838453499993,None,189.58838453499993,None,189.58838453499993,None,g,1,0.9062998179979331,191.13880750800308,None,191.13880750800308,None,191.13880750800308,None,192.1064392549997,None,192.1064392549997,None,192.1064392549997,None,192.1064392549997,None,,,,,,,,,,,,,,,,,,,,,,,,,,,,,,,,,,,,,,,,,,,,001,113,2020_Feb_11_1525,spring_faces,3.1.5,60.159457574864824,
condition files/Stage0c_1.xlsx,0c,theta,alpha,h,"['h', 'g']","['Chess', 'Go']","[-0.15, 0.5]","[0.15, 0.5]",1,1,0,12,12,12,0,0,0,0,,,,,,,,,,,,,,,,,,,,,,,,,,,,,,,,,,,,,,,,,,,,,,,,,,,,,,,,,,,,,,,194.08880984700227,None,194.08880984700227,None,194.08880984700227,None,h,1,2.3752294500009157,195.6219460780012,None,195.6219460780012,None,195.6219460780012,None,198.05471899000258,None,198.05471899000258,None,198.05471899000258,None,198.05471899000258,None,,,,,,,,,,,,,,,,,,,,,,,,,,,,,,,,,,,,,,,,,,,,001,113,2020_Feb_11_1525,spring_faces,3.1.5,60.159457574864824,
condition files/Stage0c_1.xlsx,0c,phi,beta,g,"['h', 'g']","['Chess', 'Go']","[-0.15, 0.5]","[0.15, 0.5]",1,1,0,12,12,12,0,1,1,3,,,,,,,,,,,,,,,,,,,,,,,,,,,,,,,,,,,,,,,,,,,,,,,,,,,,,,,,,,,,,,,200.02182861500114,None,200.02182861500114,None,200.02182861500114,None,g,1,0.8581887760010432,201.5549816260027,None,201.5549816260027,None,201.5549816260027,None,202.47213726799964,None,202.47213726799964,None,202.47213726799964,None,202.47213726799964,None,,,,,,,,,,,,,,,,,,,,,,,,,,,,,,,,,,,,,,,,,,,,001,113,2020_Feb_11_1525,spring_faces,3.1.5,60.159457574864824,
condition files/Stage0c_1.xlsx,0c,beta,theta,g,"['h', 'g']","['Chess', 'Go']","[-0.15, 0.5]","[0.15, 0.5]",1,1,0,12,12,12,0,2,2,2,,,,,,,,,,,,,,,,,,,,,,,,,,,,,,,,,,,,,,,,,,,,,,,,,,,,,,,,,,,,,,,204.43845139300174,None,204.43845139300174,None,204.43845139300174,None,g,1,3.78479445999983,205.97230776200013,None,205.97230776200013,None,205.97230776200013,None,209.82167414500145,None,209.82167414500145,None,209.82167414500145,None,209.82167414500145,None,,,,,,,,,,,,,,,,,,,,,,,,,,,,,,,,,,,,,,,,,,,,001,113,2020_Feb_11_1525,spring_faces,3.1.5,60.159457574864824,
condition files/Stage0c_1.xlsx,0c,alpha,phi,h,"['h', 'g']","['Chess', 'Go']","[-0.15, 0.5]","[0.15, 0.5]",1,1,0,12,12,12,0,3,3,1,,,,,,,,,,,,,,,,,,,,,,,,,,,,,,,,,,,,,,,,,,,,,,,,,,,,,,,,,,,,,,,211.7880821960025,None,211.7880821960025,None,211.7880821960025,None,h,1,2.5312322310019226,213.3218696719996,None,213.3218696719996,None,213.3218696719996,None,215.90524932500193,None,215.90524932500193,None,215.90524932500193,None,215.90524932500193,None,,,,,,,,,,,,,,,,,,,,,,,,,,,,,,,,,,,,,,,,,,,,001,113,2020_Feb_11_1525,spring_faces,3.1.5,60.159457574864824,
condition files/Stage0c_2.xlsx,0c,beta,phi,g,"['h', 'g']","['Chess', 'Go']","[-0.15, 0.5]","[0.15, 0.5]",1,1,0,13,13,13,0,0,0,3,,,,,,,,,,,,,,,,,,,,,,,,,,,,,,,,,,,,,,,,,,,,,,,,,,,,,,,,,,,,,,,217.8889312320025,None,217.8889312320025,None,217.8889312320025,None,g,1,1.1355353990002186,219.4215755969999,None,219.4215755969999,None,219.4215755969999,None,220.6218385200009,None,220.6218385200009,None,220.6218385200009,None,220.6218385200009,None,,,,,,,,,,,,,,,,,,,,,,,,,,,,,,,,,,,,,,,,,,,,001,113,2020_Feb_11_1525,spring_faces,3.1.5,60.159457574864824,
condition files/Stage0c_2.xlsx,0c,alpha,theta,h,"['h', 'g']","['Chess', 'Go']","[-0.15, 0.5]","[0.15, 0.5]",1,1,0,13,13,13,0,1,1,0,,,,,,,,,,,,,,,,,,,,,,,,,,,,,,,,,,,,,,,,,,,,,,,,,,,,,,,,,,,,,,,222.58815299500202,None,222.58815299500202,None,222.58815299500202,None,h,1,1.0116493850000552,224.121448746002,None,224.121448746002,None,224.121448746002,None,225.1885432220006,None,225.1885432220006,None,225.1885432220006,None,225.1885432220006,None,,,,,,,,,,,,,,,,,,,,,,,,,,,,,,,,,,,,,,,,,,,,001,113,2020_Feb_11_1525,spring_faces,3.1.5,60.159457574864824,
condition files/Stage0c_2.xlsx,0c,theta,beta,g,"['h', 'g']","['Chess', 'Go']","[-0.15, 0.5]","[0.15, 0.5]",1,1,0,13,13,13,0,2,2,2,,,,,,,,,,,,,,,,,,,,,,,,,,,,,,,,,,,,,,,,,,,,,,,,,,,,,,,,,,,,,,,227.15511818100276,None,227.15511818100276,None,227.15511818100276,None,g,1,0.8762714869990305,228.68882618000134,None,228.68882618000134,None,228.68882618000134,None,229.6219146270014,None,229.6219146270014,None,229.6219146270014,None,229.6219146270014,None,,,,,,,,,,,,,,,,,,,,,,,,,,,,,,,,,,,,,,,,,,,,001,113,2020_Feb_11_1525,spring_faces,3.1.5,60.159457574864824,
condition files/Stage0c_2.xlsx,0c,phi,alpha,h,"['h', 'g']","['Chess', 'Go']","[-0.15, 0.5]","[0.15, 0.5]",1,1,0,13,13,13,0,3,3,1,,,,,,,,,,,,,,,,,,,,,,,,,,,,,,,,,,,,,,,,,,,,,,,,,,,,,,,,,,,,,,,231.58846211400305,None,231.58846211400305,None,231.58846211400305,None,h,1,1.115304096001637,233.1217926160025,None,233.1217926160025,None,233.1217926160025,None,234.2884987150028,None,234.2884987150028,None,234.2884987150028,None,234.2884987150028,None,,,,,,,,,,,,,,,,,,,,,,,,,,,,,,,,,,,,,,,,,,,,001,113,2020_Feb_11_1525,spring_faces,3.1.5,60.159457574864824,
condition files/Stage0c_1.xlsx,0c,theta,alpha,h,"['h', 'g']","['Chess', 'Go']","[-0.15, 0.5]","[0.15, 0.5]",1,1,0,14,14,14,0,0,0,0,,,,,,,,,,,,,,,,,,,,,,,,,,,,,,,,,,,,,,,,,,,,,,,,,,,,,,,,,,,,,,,236.27215438400162,None,236.27215438400162,None,236.27215438400162,None,h,1,0.9597793790017022,237.80527760900077,None,237.80527760900077,None,237.80527760900077,None,238.8215752190008,None,238.8215752190008,None,238.8215752190008,None,238.8215752190008,None,,,,,,,,,,,,,,,,,,,,,,,,,,,,,,,,,,,,,,,,,,,,001,113,2020_Feb_11_1525,spring_faces,3.1.5,60.159457574864824,
condition files/Stage0c_1.xlsx,0c,alpha,phi,h,"['h', 'g']","['Chess', 'Go']","[-0.15, 0.5]","[0.15, 0.5]",1,1,0,14,14,14,0,1,1,1,,,,,,,,,,,,,,,,,,,,,,,,,,,,,,,,,,,,,,,,,,,,,,,,,,,,,,,,,,,,,,,240.78842051000174,None,240.78842051000174,None,240.78842051000174,None,h,1,1.403177317999507,242.32197929800168,None,242.32197929800168,None,242.32197929800168,None,243.77184753300025,None,243.77184753300025,None,243.77184753300025,None,243.77184753300025,None,,,,,,,,,,,,,,,,,,,,,,,,,,,,,,,,,,,,,,,,,,,,001,113,2020_Feb_11_1525,spring_faces,3.1.5,60.159457574864824,
condition files/Stage0c_1.xlsx,0c,beta,theta,g,"['h', 'g']","['Chess', 'Go']","[-0.15, 0.5]","[0.15, 0.5]",1,1,0,14,14,14,0,2,2,2,,,,,,,,,,,,,,,,,,,,,,,,,,,,,,,,,,,,,,,,,,,,,,,,,,,,,,,,,,,,,,,245.75498128000254,None,245.75498128000254,None,245.75498128000254,None,g,1,0.78879493599743,247.28824149400316,None,247.28824149400316,None,247.28824149400316,None,248.13871749700047,None,248.13871749700047,None,248.13871749700047,None,248.13871749700047,None,,,,,,,,,,,,,,,,,,,,,,,,,,,,,,,,,,,,,,,,,,,,001,113,2020_Feb_11_1525,spring_faces,3.1.5,60.159457574864824,
condition files/Stage0c_1.xlsx,0c,phi,beta,g,"['h', 'g']","['Chess', 'Go']","[-0.15, 0.5]","[0.15, 0.5]",1,1,0,14,14,14,0,3,3,3,,,,,,,,,,,,,,,,,,,,,,,,,,,,,,,,,,,,,,,,,,,,,,,,,,,,,,,,,,,,,,,250.1051110210028,None,250.1051110210028,None,250.1051110210028,None,g,1,0.9346814499986067,251.63836172500305,None,251.63836172500305,None,251.63836172500305,None,252.6218245630007,None,252.6218245630007,None,252.6218245630007,None,252.6218245630007,None,,,,,,,,,,,,,,,,,,,,,,,,,,,,,,,,,,,,,,,,,,,,001,113,2020_Feb_11_1525,spring_faces,3.1.5,60.159457574864824,
condition files/Stage0c_2.xlsx,0c,theta,beta,g,"['h', 'g']","['Chess', 'Go']","[-0.15, 0.5]","[0.15, 0.5]",1,1,0,15,15,15,0,0,0,2,,,,,,,,,,,,,,,,,,,,,,,,,,,,,,,,,,,,,,,,,,,,,,,,,,,,,,,,,,,,,,,254.62179168500006,None,254.62179168500006,None,254.62179168500006,None,h,0,0.9300061239991919,256.15511582900217,None,256.15511582900217,None,256.15511582900217,None,257.12307389499983,None,257.12307389499983,None,257.12307389499983,None,257.12307389499983,None,,,,,,,,,,,,,,,,,,,,,,,,,,,,,,,,,,,,,,,,,,,,001,113,2020_Feb_11_1525,spring_faces,3.1.5,60.159457574864824,
condition files/Stage0c_2.xlsx,0c,beta,phi,g,"['h', 'g']","['Chess', 'Go']","[-0.15, 0.5]","[0.15, 0.5]",1,1,0,15,15,15,0,1,1,3,,,,,,,,,,,,,,,,,,,,,,,,,,,,,,,,,,,,,,,,,,,,,,,,,,,,,,,,,,,,,,,259.1048502600024,None,259.1048502600024,None,259.1048502600024,None,h,0,0.9264391950018762,260.6386555550016,None,260.6386555550016,None,260.6386555550016,None,261.6214988460015,None,261.6214988460015,None,261.6214988460015,None,261.6214988460015,None,,,,,,,,,,,,,,,,,,,,,,,,,,,,,,,,,,,,,,,,,,,,001,113,2020_Feb_11_1525,spring_faces,3.1.5,60.159457574864824,
condition files/Stage0c_2.xlsx,0c,alpha,theta,h,"['h', 'g']","['Chess', 'Go']","[-0.15, 0.5]","[0.15, 0.5]",1,1,0,15,15,15,0,2,2,0,,,,,,,,,,,,,,,,,,,,,,,,,,,,,,,,,,,,,,,,,,,,,,,,,,,,,,,,,,,,,,,263.5885685460016,None,263.5885685460016,None,263.5885685460016,None,g,0,0.8118293719999201,265.1212795720021,None,265.1212795720021,None,265.1212795720021,None,265.98818223000126,None,265.98818223000126,None,265.98818223000126,None,265.98818223000126,None,,,,,,,,,,,,,,,,,,,,,,,,,,,,,,,,,,,,,,,,,,,,001,113,2020_Feb_11_1525,spring_faces,3.1.5,60.159457574864824,
condition files/Stage0c_2.xlsx,0c,phi,alpha,h,"['h', 'g']","['Chess', 'Go']","[-0.15, 0.5]","[0.15, 0.5]",1,1,0,15,15,15,0,3,3,1,,,,,,,,,,,,,,,,,,,,,,,,,,,,,,,,,,,,,,,,,,,,,,,,,,,,,,,,,,,,,,,267.95512425299967,None,267.95512425299967,None,267.95512425299967,None,h,1,0.9405046960018808,269.48866987099973,None,269.48866987099973,None,269.48866987099973,None,270.47282350500245,None,270.47282350500245,None,270.47282350500245,None,270.47282350500245,None,,,,,,,,,,,,,,,,,,,,,,,,,,,,,,,,,,,,,,,,,,,,001,113,2020_Feb_11_1525,spring_faces,3.1.5,60.159457574864824,
condition files/Stage0c_1.xlsx,0c,beta,theta,g,"['h', 'g']","['Chess', 'Go']","[-0.15, 0.5]","[0.15, 0.5]",1,1,0,16,16,16,0,0,0,2,,,,,,,,,,,,,,,,,,,,,,,,,,,,,,,,,,,,,,,,,,,,,,,,,,,,,,,,,,,,,,,272.47172291800234,None,272.47172291800234,None,272.47172291800234,None,g,1,1.752267068000947,274.00484766200316,None,274.00484766200316,None,274.00484766200316,None,275.8218140930003,None,275.8218140930003,None,275.8218140930003,None,275.8218140930003,None,,,,,,,,,,,,,,,,,,,,,,,,,,,,,,,,,,,,,,,,,,,,001,113,2020_Feb_11_1525,spring_faces,3.1.5,60.159457574864824,
condition files/Stage0c_1.xlsx,0c,phi,beta,g,"['h', 'g']","['Chess', 'Go']","[-0.15, 0.5]","[0.15, 0.5]",1,1,0,16,16,16,0,1,1,3,,,,,,,,,,,,,,,,,,,,,,,,,,,,,,,,,,,,,,,,,,,,,,,,,,,,,,,,,,,,,,,277.78843859799963,None,277.78843859799963,None,277.78843859799963,None,g,1,1.1710849740011327,279.3220362630018,None,279.3220362630018,None,279.3220362630018,None,280.54004730200177,None,280.54004730200177,None,280.54004730200177,None,280.54004730200177,None,,,,,,,,,,,,,,,,,,,,,,,,,,,,,,,,,,,,,,,,,,,,001,113,2020_Feb_11_1525,spring_faces,3.1.5,60.159457574864824,
condition files/Stage0c_1.xlsx,0c,alpha,phi,h,"['h', 'g']","['Chess', 'Go']","[-0.15, 0.5]","[0.15, 0.5]",1,1,0,16,16,16,0,2,2,1,,,,,,,,,,,,,,,,,,,,,,,,,,,,,,,,,,,,,,,,,,,,,,,,,,,,,,,,,,,,,,,282.5219587930005,None,282.5219587930005,None,282.5219587930005,None,h,1,0.03784145399913541,284.0552683450005,None,284.0552683450005,None,284.0552683450005,None,284.15533850400243,None,284.15533850400243,None,284.15533850400243,None,284.15533850400243,None,,,,,,,,,,,,,,,,,,,,,,,,,,,,,,,,,,,,,,,,,,,,001,113,2020_Feb_11_1525,spring_faces,3.1.5,60.159457574864824,
condition files/Stage0c_1.xlsx,0c,theta,alpha,h,"['h', 'g']","['Chess', 'Go']","[-0.15, 0.5]","[0.15, 0.5]",1,1,0,16,16,16,0,3,3,0,,,,,,,,,,,,,,,,,,,,,,,,,,,,,,,,,,,,,,,,,,,,,,,,,,,,,,,,,,,,,,,286.12166447100026,None,286.12166447100026,None,286.12166447100026,None,h,1,0.8540839819979738,287.65502330800155,None,287.65502330800155,None,287.65502330800155,None,288.55700936500216,None,288.55700936500216,None,288.55700936500216,None,288.55700936500216,None,,,,,,,,,,,,,,,,,,,,,,,,,,,,,,,,,,,,,,,,,,,,001,113,2020_Feb_11_1525,spring_faces,3.1.5,60.159457574864824,
condition files/Stage0c_2.xlsx,0c,alpha,theta,h,"['h', 'g']","['Chess', 'Go']","[-0.15, 0.5]","[0.15, 0.5]",1,1,0,17,17,17,0,0,0,0,,,,,,,,,,,,,,,,,,,,,,,,,,,,,,,,,,,,,,,,,,,,,,,,,,,,,,,,,,,,,,,290.55498762000207,None,290.55498762000207,None,290.55498762000207,None,h,1,0.8212688690000505,292.0718472910012,None,292.0718472910012,None,292.0718472910012,None,292.93829416000153,None,292.93829416000153,None,292.93829416000153,None,292.93829416000153,None,,,,,,,,,,,,,,,,,,,,,,,,,,,,,,,,,,,,,,,,,,,,001,113,2020_Feb_11_1525,spring_faces,3.1.5,60.159457574864824,
condition files/Stage0c_2.xlsx,0c,theta,beta,g,"['h', 'g']","['Chess', 'Go']","[-0.15, 0.5]","[0.15, 0.5]",1,1,0,17,17,17,0,1,1,2,,,,,,,,,,,,,,,,,,,,,,,,,,,,,,,,,,,,,,,,,,,,,,,,,,,,,,,,,,,,,,,294.92192463600077,None,294.92192463600077,None,294.92192463600077,None,g,1,2.421584965002694,296.4555259610024,None,296.4555259610024,None,296.4555259610024,None,298.93856919800237,None,298.93856919800237,None,298.93856919800237,None,298.93856919800237,None,,,,,,,,,,,,,,,,,,,,,,,,,,,,,,,,,,,,,,,,,,,,001,113,2020_Feb_11_1525,spring_faces,3.1.5,60.159457574864824,
condition files/Stage0c_2.xlsx,0c,beta,phi,g,"['h', 'g']","['Chess', 'Go']","[-0.15, 0.5]","[0.15, 0.5]",1,1,0,17,17,17,0,2,2,3,,,,,,,,,,,,,,,,,,,,,,,,,,,,,,,,,,,,,,,,,,,,,,,,,,,,,,,,,,,,,,,300.90491590500096,None,300.90491590500096,None,300.90491590500096,None,h,0,0.8230831979999493,302.4380412440005,None,302.4380412440005,None,302.4380412440005,None,303.3071961240021,None,303.3071961240021,None,303.3071961240021,None,303.3071961240021,None,,,,,,,,,,,,,,,,,,,,,,,,,,,,,,,,,,,,,,,,,,,,001,113,2020_Feb_11_1525,spring_faces,3.1.5,60.159457574864824,
condition files/Stage0c_2.xlsx,0c,phi,alpha,h,"['h', 'g']","['Chess', 'Go']","[-0.15, 0.5]","[0.15, 0.5]",1,1,0,17,17,17,0,3,3,1,,,,,,,,,,,,,,,,,,,,,,,,,,,,,,,,,,,,,,,,,,,,,,,,,,,,,,,,,,,,,,,305.2884787840012,None,305.2884787840012,None,305.2884787840012,None,h,1,0.8872029020021728,306.82189870100046,None,306.82189870100046,None,306.82189870100046,None,307.77173186800064,None,307.77173186800064,None,307.77173186800064,None,307.77173186800064,None,,,,,,,,,,,,,,,,,,,,,,,,,,,,,,,,,,,,,,,,,,,,001,113,2020_Feb_11_1525,spring_faces,3.1.5,60.159457574864824,
,,,,,,,,,,,,,,,,,,,,,,,,,,,,,,,,,,,,,,,,,,,,,,,,,,,,,,,,,,,,,,,,,,,,,,,,,,,,,,,,,,,,,,,,,,,,,,,,,,,,,,,,309.75538323900037,None,space,6.2500517030021,314.7550844090001,None,,,,,,,,,,,,,,,,,,,,,,,,,,,,,,,,,,,,,,001,113,2020_Feb_11_1525,spring_faces,3.1.5,60.159457574864824,
condition files/Stage1_1.xlsx,,B1,T2,c,"['c', 'm']","['Clue', 'Monopoly']","[-0.15, 0.5]","[0.15, 0.5]",1,1,,,,,,,,,0,0,0,0,0,0,0,1,,,,,,,,,,,,,,,,,,,,,,,,,,,,,,,,,,,,,,,,,,,,,,,,,,,,,,,321.054794589003,None,321.054794589003,None,321.054794589003,None,c,1,1.2644698830008565,322.5886409470004,None,322.5886409470004,None,322.5886409470004,None,323.9217875450013,None,323.9217875450013,None,323.9217875450013,None,323.9217875450013,None,,,,,,,314.7550844090001,None,,,,,,,,,,,,,,,,,,,,,,,,,,,,,,,,,,,,001,113,2020_Feb_11_1525,spring_faces,3.1.5,60.159457574864824,
condition files/Stage1_1.xlsx,,B2,T1,m,"['c', 'm']","['Clue', 'Monopoly']","[-0.15, 0.5]","[0.15, 0.5]",1,1,,,,,,,,,0,0,0,0,0,1,1,2,,,,,,,,,,,,,,,,,,,,,,,,,,,,,,,,,,,,,,,,,,,,,,,,,,,,,,,325.87184296800115,None,325.87184296800115,None,325.87184296800115,None,m,1,1.1023257809974893,327.45477644900166,None,327.45477644900166,None,327.45477644900166,None,328.6384825360001,None,328.6384825360001,None,328.6384825360001,None,328.6384825360001,None,,,,,,,,,,,,,,,,,,,,,,,,,,,,,,,,,,,,,,,,,,,,001,113,2020_Feb_11_1525,spring_faces,3.1.5,60.159457574864824,
condition files/Stage1_1.xlsx,,T2,B2,m,"['c', 'm']","['Clue', 'Monopoly']","[-0.15, 0.5]","[0.15, 0.5]",1,1,,,,,,,,,0,0,0,0,0,2,2,3,,,,,,,,,,,,,,,,,,,,,,,,,,,,,,,,,,,,,,,,,,,,,,,,,,,,,,,330.5882326650026,None,330.5882326650026,None,330.5882326650026,None,c,0,0.7713929700003064,332.1217408270022,None,332.1217408270022,None,332.1217408270022,None,332.9551596960009,None,332.9551596960009,None,332.9551596960009,None,332.9551596960009,None,,,,,,,,,,,,,,,,,,,,,,,,,,,,,,,,,,,,,,,,,,,,001,113,2020_Feb_11_1525,spring_faces,3.1.5,60.159457574864824,
condition files/Stage1_1.xlsx,,B3,T3,c,"['c', 'm']","['Clue', 'Monopoly']","[-0.15, 0.5]","[0.15, 0.5]",1,1,,,,,,,,,0,0,0,0,0,3,3,4,,,,,,,,,,,,,,,,,,,,,,,,,,,,,,,,,,,,,,,,,,,,,,,,,,,,,,,334.9218169650012,None,334.9218169650012,None,334.9218169650012,None,c,1,1.2697649080000701,336.4553750110026,None,336.4553750110026,None,336.4553750110026,None,337.80535714600046,None,337.80535714600046,None,337.80535714600046,None,337.80535714600046,None,,,,,,,,,,,,,,,,,,,,,,,,,,,,,,,,,,,,,,,,,,,,001,113,2020_Feb_11_1525,spring_faces,3.1.5,60.159457574864824,
condition files/Stage1_1.xlsx,,T3,B4,c,"['c', 'm']","['Clue', 'Monopoly']","[-0.15, 0.5]","[0.15, 0.5]",1,1,,,,,,,,,0,0,0,0,0,4,4,5,,,,,,,,,,,,,,,,,,,,,,,,,,,,,,,,,,,,,,,,,,,,,,,,,,,,,,,339.75508419499965,None,339.75508419499965,None,339.75508419499965,None,m,0,0.5798274070002662,341.30528153600244,None,341.30528153600244,None,341.30528153600244,None,341.93865410200306,None,341.93865410200306,None,341.93865410200306,None,341.93865410200306,None,,,,,,,,,,,,,,,,,,,,,,,,,,,,,,,,,,,,,,,,,,,,001,113,2020_Feb_11_1525,spring_faces,3.1.5,60.159457574864824,
condition files/Stage1_1.xlsx,,B4,T4,m,"['c', 'm']","['Clue', 'Monopoly']","[-0.15, 0.5]","[0.15, 0.5]",1,1,,,,,,,,,0,0,0,0,0,5,5,7,,,,,,,,,,,,,,,,,,,,,,,,,,,,,,,,,,,,,,,,,,,,,,,,,,,,,,,343.9050360140027,None,343.9050360140027,None,343.9050360140027,None,c,0,1.0695314289987436,345.4715808530018,None,345.4715808530018,None,345.4715808530018,None,346.62200778199986,None,346.62200778199986,None,346.62200778199986,None,346.62200778199986,None,,,,,,,,,,,,,,,,,,,,,,,,,,,,,,,,,,,,,,,,,,,,001,113,2020_Feb_11_1525,spring_faces,3.1.5,60.159457574864824,
condition files/Stage1_1.xlsx,,T4,B3,m,"['c', 'm']","['Clue', 'Monopoly']","[-0.15, 0.5]","[0.15, 0.5]",1,1,,,,,,,,,0,0,0,0,0,6,6,6,,,,,,,,,,,,,,,,,,,,,,,,,,,,,,,,,,,,,,,,,,,,,,,,,,,,,,,348.5722007510012,None,348.5722007510012,None,348.5722007510012,None,m,1,0.6423649770003976,350.10684006000156,None,350.10684006000156,None,350.10684006000156,None,350.80475561700223,None,350.80475561700223,None,350.80475561700223,None,350.80475561700223,None,,,,,,,,,,,,,,,,,,,,,,,,,,,,,,,,,,,,,,,,,,,,001,113,2020_Feb_11_1525,spring_faces,3.1.5,60.159457574864824,
condition files/Stage1_1.xlsx,,T1,B1,c,"['c', 'm']","['Clue', 'Monopoly']","[-0.15, 0.5]","[0.15, 0.5]",1,1,,,,,,,,,0,0,0,0,0,7,7,0,,,,,,,,,,,,,,,,,,,,,,,,,,,,,,,,,,,,,,,,,,,,,,,,,,,,,,,352.77214136300245,None,352.77214136300245,None,352.77214136300245,None,c,1,2.3801092520006932,354.30525350800235,None,354.30525350800235,None,354.30525350800235,None,356.740586584001,None,356.740586584001,None,356.740586584001,None,356.740586584001,None,,,,,,,,,,,,,,,,,,,,,,,,,,,,,,,,,,,,,,,,,,,,001,113,2020_Feb_11_1525,spring_faces,3.1.5,60.159457574864824,
condition files/Stage1_2.xlsx,,B4,T3,c,"['c', 'm']","['Clue', 'Monopoly']","[-0.15, 0.5]","[0.15, 0.5]",1,1,,,,,,,,,0,1,1,1,0,0,0,5,,,,,,,,,,,,,,,,,,,,,,,,,,,,,,,,,,,,,,,,,,,,,,,,,,,,,,,358.7218324170026,None,358.7218324170026,None,358.7218324170026,None,m,0,0.6059615400008624,360.25516006100224,None,360.25516006100224,None,360.25516006100224,None,360.9218029240001,None,360.9218029240001,None,360.9218029240001,None,360.9218029240001,None,,,,,,,,,,,,,,,,,,,,,,,,,,,,,,,,,,,,,,,,,,,,001,113,2020_Feb_11_1525,spring_faces,3.1.5,60.159457574864824,
condition files/Stage1_2.xlsx,,T1,B2,m,"['c', 'm']","['Clue', 'Monopoly']","[-0.15, 0.5]","[0.15, 0.5]",1,1,,,,,,,,,0,1,1,1,0,1,1,2,,,,,,,,,,,,,,,,,,,,,,,,,,,,,,,,,,,,,,,,,,,,,,,,,,,,,,,362.8885560380004,None,362.8885560380004,None,362.8885560380004,None,c,0,0.870720272003382,364.4224090860007,None,364.4224090860007,None,364.4224090860007,None,365.3550698450017,None,365.3550698450017,None,365.3550698450017,None,365.3550698450017,None,,,,,,,,,,,,,,,,,,,,,,,,,,,,,,,,,,,,,,,,,,,,001,113,2020_Feb_11_1525,spring_faces,3.1.5,60.159457574864824,
condition files/Stage1_2.xlsx,,T4,B4,m,"['c', 'm']","['Clue', 'Monopoly']","[-0.15, 0.5]","[0.15, 0.5]",1,1,,,,,,,,,0,1,1,1,0,2,2,7,,,,,,,,,,,,,,,,,,,,,,,,,,,,,,,,,,,,,,,,,,,,,,,,,,,,,,,367.32184697900084,None,367.32184697900084,None,367.32184697900084,None,m,1,0.6284159199967689,368.8569167880014,None,368.8569167880014,None,368.8569167880014,None,369.5380053650006,None,369.5380053650006,None,369.5380053650006,None,369.5380053650006,None,,,,,,,,,,,,,,,,,,,,,,,,,,,,,,,,,,,,,,,,,,,,001,113,2020_Feb_11_1525,spring_faces,3.1.5,60.159457574864824,
condition files/Stage1_2.xlsx,,T3,B3,c,"['c', 'm']","['Clue', 'Monopoly']","[-0.15, 0.5]","[0.15, 0.5]",1,1,,,,,,,,,0,1,1,1,0,3,3,4,,,,,,,,,,,,,,,,,,,,,,,,,,,,,,,,,,,,,,,,,,,,,,,,,,,,,,,371.5052335580003,None,371.5052335580003,None,371.5052335580003,None,c,1,0.7320466800010763,373.0410511150003,None,373.0410511150003,None,373.0410511150003,None,373.839693629001,None,373.839693629001,None,373.839693629001,None,373.839693629001,None,,,,,,,,,,,,,,,,,,,,,,,,,,,,,,,,,,,,,,,,,,,,001,113,2020_Feb_11_1525,spring_faces,3.1.5,60.159457574864824,
condition files/Stage1_2.xlsx,,B3,T4,m,"['c', 'm']","['Clue', 'Monopoly']","[-0.15, 0.5]","[0.15, 0.5]",1,1,,,,,,,,,0,1,1,1,0,4,4,6,,,,,,,,,,,,,,,,,,,,,,,,,,,,,,,,,,,,,,,,,,,,,,,,,,,,,,,375.8051904269996,None,375.8051904269996,None,375.8051904269996,None,m,1,0.7870871329978399,377.3380582919999,None,377.3380582919999,None,377.3380582919999,None,378.1908522220001,None,378.1908522220001,None,378.1908522220001,None,378.1908522220001,None,,,,,,,,,,,,,,,,,,,,,,,,,,,,,,,,,,,,,,,,,,,,001,113,2020_Feb_11_1525,spring_faces,3.1.5,60.159457574864824,
condition files/Stage1_2.xlsx,,T2,B1,c,"['c', 'm']","['Clue', 'Monopoly']","[-0.15, 0.5]","[0.15, 0.5]",1,1,,,,,,,,,0,1,1,1,0,5,5,1,,,,,,,,,,,,,,,,,,,,,,,,,,,,,,,,,,,,,,,,,,,,,,,,,,,,,,,380.1550880340001,None,380.1550880340001,None,380.1550880340001,None,m,0,0.9490262680010346,381.688081272001,None,381.688081272001,None,381.688081272001,None,382.70474970600117,None,382.70474970600117,None,382.70474970600117,None,382.70474970600117,None,,,,,,,,,,,,,,,,,,,,,,,,,,,,,,,,,,,,,,,,,,,,001,113,2020_Feb_11_1525,spring_faces,3.1.5,60.159457574864824,
condition files/Stage1_2.xlsx,,B1,T1,c,"['c', 'm']","['Clue', 'Monopoly']","[-0.15, 0.5]","[0.15, 0.5]",1,1,,,,,,,,,0,1,1,1,0,6,6,0,,,,,,,,,,,,,,,,,,,,,,,,,,,,,,,,,,,,,,,,,,,,,,,,,,,,,,,384.6552838429998,None,384.6552838429998,None,384.6552838429998,None,c,1,0.5287607179998304,386.1883109440023,None,386.1883109440023,None,386.1883109440023,None,386.77201558300294,None,386.77201558300294,None,386.77201558300294,None,386.77201558300294,None,,,,,,,,,,,,,,,,,,,,,,,,,,,,,,,,,,,,,,,,,,,,001,113,2020_Feb_11_1525,spring_faces,3.1.5,60.159457574864824,
condition files/Stage1_2.xlsx,,B2,T2,m,"['c', 'm']","['Clue', 'Monopoly']","[-0.15, 0.5]","[0.15, 0.5]",1,1,,,,,,,,,0,1,1,1,0,7,7,3,,,,,,,,,,,,,,,,,,,,,,,,,,,,,,,,,,,,,,,,,,,,,,,,,,,,,,,388.73841242600247,None,388.73841242600247,None,388.73841242600247,None,m,1,0.7010714520001784,390.2720274320018,None,390.2720274320018,None,390.2720274320018,None,391.04144938399986,None,391.04144938399986,None,391.04144938399986,None,391.04144938399986,None,,,,,,,,,,,,,,,,,,,,,,,,,,,,,,,,,,,,,,,,,,,,001,113,2020_Feb_11_1525,spring_faces,3.1.5,60.159457574864824,
condition files/Stage1_1.xlsx,,T2,B2,m,"['c', 'm']","['Clue', 'Monopoly']","[-0.15, 0.5]","[0.15, 0.5]",1,1,,,,,,,,,0,2,2,2,0,0,0,3,,,,,,,,,,,,,,,,,,,,,,,,,,,,,,,,,,,,,,,,,,,,,,,,,,,,,,,393.0217973729996,None,393.0217973729996,None,393.0217973729996,None,m,1,1.0254010440003185,394.57179380600064,None,394.57179380600064,None,394.57179380600064,None,395.65578020900284,None,395.65578020900284,None,395.65578020900284,None,395.65578020900284,None,,,,,,,,,,,,,,,,,,,,,,,,,,,,,,,,,,,,,,,,,,,,001,113,2020_Feb_11_1525,spring_faces,3.1.5,60.159457574864824,
condition files/Stage1_1.xlsx,,B4,T4,m,"['c', 'm']","['Clue', 'Monopoly']","[-0.15, 0.5]","[0.15, 0.5]",1,1,,,,,,,,,0,2,2,2,0,1,1,7,,,,,,,,,,,,,,,,,,,,,,,,,,,,,,,,,,,,,,,,,,,,,,,,,,,,,,,397.62173245899976,None,397.62173245899976,None,397.62173245899976,None,c,0,1.960713118998683,399.15642905999994,None,399.15642905999994,None,399.15642905999994,None,401.1723384700017,None,401.1723384700017,None,401.1723384700017,None,401.1723384700017,None,,,,,,,,,,,,,,,,,,,,,,,,,,,,,,,,,,,,,,,,,,,,001,113,2020_Feb_11_1525,spring_faces,3.1.5,60.159457574864824,
condition files/Stage1_1.xlsx,,T3,B4,c,"['c', 'm']","['Clue', 'Monopoly']","[-0.15, 0.5]","[0.15, 0.5]",1,1,,,,,,,,,0,2,2,2,0,2,2,5,,,,,,,,,,,,,,,,,,,,,,,,,,,,,,,,,,,,,,,,,,,,,,,,,,,,,,,403.13785642600124,None,403.13785642600124,None,403.13785642600124,None,m,0,1.13306827300039,404.6720642220025,None,404.6720642220025,None,404.6720642220025,None,405.87172480700247,None,405.87172480700247,None,405.87172480700247,None,405.87172480700247,None,,,,,,,,,,,,,,,,,,,,,,,,,,,,,,,,,,,,,,,,,,,,001,113,2020_Feb_11_1525,spring_faces,3.1.5,60.159457574864824,
condition files/Stage1_1.xlsx,,B1,T2,c,"['c', 'm']","['Clue', 'Monopoly']","[-0.15, 0.5]","[0.15, 0.5]",1,1,,,,,,,,,0,2,2,2,0,3,3,1,,,,,,,,,,,,,,,,,,,,,,,,,,,,,,,,,,,,,,,,,,,,,,,,,,,,,,,407.82183817100304,None,407.82183817100304,None,407.82183817100304,None,m,0,2.13033720599924,409.35494486000243,None,409.35494486000243,None,409.35494486000243,None,411.53843755100024,None,411.53843755100024,None,411.53843755100024,None,411.53843755100024,None,,,,,,,,,,,,,,,,,,,,,,,,,,,,,,,,,,,,,,,,,,,,001,113,2020_Feb_11_1525,spring_faces,3.1.5,60.159457574864824,
condition files/Stage1_1.xlsx,,B3,T3,c,"['c', 'm']","['Clue', 'Monopoly']","[-0.15, 0.5]","[0.15, 0.5]",1,1,,,,,,,,,0,2,2,2,0,4,4,4,,,,,,,,,,,,,,,,,,,,,,,,,,,,,,,,,,,,,,,,,,,,,,,,,,,,,,,413.5052535520008,None,413.5052535520008,None,413.5052535520008,None,c,1,3.0060955570006627,415.0550214590003,None,415.0550214590003,None,415.0550214590003,None,418.12149594600123,None,418.12149594600123,None,418.12149594600123,None,418.12149594600123,None,,,,,,,,,,,,,,,,,,,,,,,,,,,,,,,,,,,,,,,,,,,,001,113,2020_Feb_11_1525,spring_faces,3.1.5,60.159457574864824,
condition files/Stage1_1.xlsx,,B2,T1,m,"['c', 'm']","['Clue', 'Monopoly']","[-0.15, 0.5]","[0.15, 0.5]",1,1,,,,,,,,,0,2,2,2,0,5,5,2,,,,,,,,,,,,,,,,,,,,,,,,,,,,,,,,,,,,,,,,,,,,,,,,,,,,,,,420.0884937580013,None,420.0884937580013,None,420.0884937580013,None,m,1,1.3024937129994214,421.6386123850025,None,421.6386123850025,None,421.6386123850025,None,423.0070277070008,None,423.0070277070008,None,423.0070277070008,None,423.0070277070008,None,,,,,,,,,,,,,,,,,,,,,,,,,,,,,,,,,,,,,,,,,,,,001,113,2020_Feb_11_1525,spring_faces,3.1.5,60.159457574864824,
condition files/Stage1_1.xlsx,,T4,B3,m,"['c', 'm']","['Clue', 'Monopoly']","[-0.15, 0.5]","[0.15, 0.5]",1,1,,,,,,,,,0,2,2,2,0,6,6,6,,,,,,,,,,,,,,,,,,,,,,,,,,,,,,,,,,,,,,,,,,,,,,,,,,,,,,,424.97185435900246,None,424.97185435900246,None,424.97185435900246,None,c,0,1.4114570019992243,426.50566233300196,None,426.50566233300196,None,426.50566233300196,None,427.9719834589996,None,427.9719834589996,None,427.9719834589996,None,427.9719834589996,None,,,,,,,,,,,,,,,,,,,,,,,,,,,,,,,,,,,,,,,,,,,,001,113,2020_Feb_11_1525,spring_faces,3.1.5,60.159457574864824,
condition files/Stage1_1.xlsx,,T1,B1,c,"['c', 'm']","['Clue', 'Monopoly']","[-0.15, 0.5]","[0.15, 0.5]",1,1,,,,,,,,,0,2,2,2,0,7,7,0,,,,,,,,,,,,,,,,,,,,,,,,,,,,,,,,,,,,,,,,,,,,,,,,,,,,,,,429.938629237,None,429.938629237,None,429.938629237,None,m,0,1.0356738029986445,431.47346054100126,None,431.47346054100126,None,431.47346054100126,None,432.5732058570029,None,432.5732058570029,None,432.5732058570029,None,432.5732058570029,None,,,,,,,,,,,,,,,,,,,,,,,,,,,,,,,,,,,,,,,,,,,,001,113,2020_Feb_11_1525,spring_faces,3.1.5,60.159457574864824,
condition files/Stage1_2.xlsx,,B3,T4,m,"['c', 'm']","['Clue', 'Monopoly']","[-0.15, 0.5]","[0.15, 0.5]",1,1,,,,,,,,,0,3,3,3,0,0,0,6,,,,,,,,,,,,,,,,,,,,,,,,,,,,,,,,,,,,,,,,,,,,,,,,,,,,,,,434.5547918580014,None,434.5547918580014,None,434.5547918580014,None,c,0,0.5944195449992549,436.09072271900004,None,436.09072271900004,None,436.09072271900004,None,436.75462108000283,None,436.75462108000283,None,436.75462108000283,None,436.75462108000283,None,,,,,,,,,,,,,,,,,,,,,,,,,,,,,,,,,,,,,,,,,,,,001,113,2020_Feb_11_1525,spring_faces,3.1.5,60.159457574864824,
condition files/Stage1_2.xlsx,,B2,T2,m,"['c', 'm']","['Clue', 'Monopoly']","[-0.15, 0.5]","[0.15, 0.5]",1,1,,,,,,,,,0,3,3,3,0,1,1,3,,,,,,,,,,,,,,,,,,,,,,,,,,,,,,,,,,,,,,,,,,,,,,,,,,,,,,,438.7050903030031,None,438.7050903030031,None,438.7050903030031,None,m,1,1.148705585001153,440.2403919440003,None,440.2403919440003,None,440.2403919440003,None,441.45530549400064,None,441.45530549400064,None,441.45530549400064,None,441.45530549400064,None,,,,,,,,,,,,,,,,,,,,,,,,,,,,,,,,,,,,,,,,,,,,001,113,2020_Feb_11_1525,spring_faces,3.1.5,60.159457574864824,
condition files/Stage1_2.xlsx,,T4,B4,m,"['c', 'm']","['Clue', 'Monopoly']","[-0.15, 0.5]","[0.15, 0.5]",1,1,,,,,,,,,0,3,3,3,0,2,2,7,,,,,,,,,,,,,,,,,,,,,,,,,,,,,,,,,,,,,,,,,,,,,,,,,,,,,,,443.4218888550022,None,443.4218888550022,None,443.4218888550022,None,c,0,0.8647043410019251,444.95641622400217,None,444.95641622400217,None,444.95641622400217,None,445.8718434000002,None,445.8718434000002,None,445.8718434000002,None,445.8718434000002,None,,,,,,,,,,,,,,,,,,,,,,,,,,,,,,,,,,,,,,,,,,,,001,113,2020_Feb_11_1525,spring_faces,3.1.5,60.159457574864824,
condition files/Stage1_2.xlsx,,T3,B3,c,"['c', 'm']","['Clue', 'Monopoly']","[-0.15, 0.5]","[0.15, 0.5]",1,1,,,,,,,,,0,3,3,3,0,3,3,4,,,,,,,,,,,,,,,,,,,,,,,,,,,,,,,,,,,,,,,,,,,,,,,,,,,,,,,447.83846926000115,None,447.83846926000115,None,447.83846926000115,None,m,0,1.9211167489993386,449.38799714700144,None,449.38799714700144,None,449.38799714700144,None,451.3712756320019,None,451.3712756320019,None,451.3712756320019,None,451.3712756320019,None,,,,,,,,,,,,,,,,,,,,,,,,,,,,,,,,,,,,,,,,,,,,001,113,2020_Feb_11_1525,spring_faces,3.1.5,60.159457574864824,
condition files/Stage1_2.xlsx,,T1,B2,m,"['c', 'm']","['Clue', 'Monopoly']","[-0.15, 0.5]","[0.15, 0.5]",1,1,,,,,,,,,0,3,3,3,0,4,4,2,,,,,,,,,,,,,,,,,,,,,,,,,,,,,,,,,,,,,,,,,,,,,,,,,,,,,,,453.33885571000064,None,453.33885571000064,None,453.33885571000064,None,c,0,4.101593557999877,454.8714913650001,None,454.8714913650001,None,454.8714913650001,None,459.0393382000002,None,459.0393382000002,None,459.0393382000002,None,459.0393382000002,None,,,,,,,,,,,,,,,,,,,,,,,,,,,,,,,,,,,,,,,,,,,,001,113,2020_Feb_11_1525,spring_faces,3.1.5,60.159457574864824,
condition files/Stage1_2.xlsx,,B4,T3,c,"['c', 'm']","['Clue', 'Monopoly']","[-0.15, 0.5]","[0.15, 0.5]",1,1,,,,,,,,,0,3,3,3,0,5,5,5,,,,,,,,,,,,,,,,,,,,,,,,,,,,,,,,,,,,,,,,,,,,,,,,,,,,,,,461.00439976300186,None,461.00439976300186,None,461.00439976300186,None,m,0,1.4882485849993827,462.54092950999984,None,462.54092950999984,None,462.54092950999984,None,464.0905910210022,None,464.0905910210022,None,464.0905910210022,None,464.0905910210022,None,,,,,,,,,,,,,,,,,,,,,,,,,,,,,,,,,,,,,,,,,,,,001,113,2020_Feb_11_1525,spring_faces,3.1.5,60.159457574864824,
condition files/Stage1_2.xlsx,,B1,T1,c,"['c', 'm']","['Clue', 'Monopoly']","[-0.15, 0.5]","[0.15, 0.5]",1,1,,,,,,,,,0,3,3,3,0,6,6,0,,,,,,,,,,,,,,,,,,,,,,,,,,,,,,,,,,,,,,,,,,,,,,,,,,,,,,,466.0552114990023,None,466.0552114990023,None,466.0552114990023,None,c,1,0.6643028840007901,467.5888174840002,None,467.5888174840002,None,467.5888174840002,None,468.3053991939996,None,468.3053991939996,None,468.3053991939996,None,468.3053991939996,None,,,,,,,,,,,,,,,,,,,,,,,,,,,,,,,,,,,,,,,,,,,,001,113,2020_Feb_11_1525,spring_faces,3.1.5,60.159457574864824,
condition files/Stage1_2.xlsx,,T2,B1,c,"['c', 'm']","['Clue', 'Monopoly']","[-0.15, 0.5]","[0.15, 0.5]",1,1,,,,,,,,,0,3,3,3,0,7,7,1,,,,,,,,,,,,,,,,,,,,,,,,,,,,,,,,,,,,,,,,,,,,,,,,,,,,,,,470.271424939001,None,470.271424939001,None,470.271424939001,None,c,1,1.4721821150014875,471.80493739600206,None,471.80493739600206,None,471.80493739600206,None,473.3389431880023,None,473.3389431880023,None,473.3389431880023,None,473.3389431880023,None,,,,,,,,,,,,,,,,,,,,,,,,,,,,,,,,,,,,,,,,,,,,001,113,2020_Feb_11_1525,spring_faces,3.1.5,60.159457574864824,
condition files/Stage1_1.xlsx,,T1,B1,c,"['c', 'm']","['Clue', 'Monopoly']","[-0.15, 0.5]","[0.15, 0.5]",1,1,,,,,,,,,0,4,4,4,0,0,0,0,,,,,,,,,,,,,,,,,,,,,,,,,,,,,,,,,,,,,,,,,,,,,,,,,,,,,,,475.32197317600003,None,475.32197317600003,None,475.32197317600003,None,m,0,0.6296864319992892,476.87139320999995,None,476.87139320999995,None,476.87139320999995,None,477.55488997000066,None,477.55488997000066,None,477.55488997000066,None,477.55488997000066,None,,,,,,,,,,,,,,,,,,,,,,,,,,,,,,,,,,,,,,,,,,,,001,113,2020_Feb_11_1525,spring_faces,3.1.5,60.159457574864824,
condition files/Stage1_1.xlsx,,T3,B4,c,"['c', 'm']","['Clue', 'Monopoly']","[-0.15, 0.5]","[0.15, 0.5]",1,1,,,,,,,,,0,4,4,4,0,1,1,5,,,,,,,,,,,,,,,,,,,,,,,,,,,,,,,,,,,,,,,,,,,,,,,,,,,,,,,479.5218144690007,None,479.5218144690007,None,479.5218144690007,None,c,1,1.292874742001004,481.072200933002,None,481.072200933002,None,481.072200933002,None,482.42194663600094,None,482.42194663600094,None,482.42194663600094,None,482.42194663600094,None,,,,,,,,,,,,,,,,,,,,,,,,,,,,,,,,,,,,,,,,,,,,001,113,2020_Feb_11_1525,spring_faces,3.1.5,60.159457574864824,
condition files/Stage1_1.xlsx,,B2,T1,m,"['c', 'm']","['Clue', 'Monopoly']","[-0.15, 0.5]","[0.15, 0.5]",1,1,,,,,,,,,0,4,4,4,0,2,2,2,,,,,,,,,,,,,,,,,,,,,,,,,,,,,,,,,,,,,,,,,,,,,,,,,,,,,,,484.38801529600096,None,484.38801529600096,None,484.38801529600096,None,c,0,0.8905296530028863,485.92266546300016,None,485.92266546300016,None,485.92266546300016,None,486.8727988040009,None,486.8727988040009,None,486.8727988040009,None,486.8727988040009,None,,,,,,,,,,,,,,,,,,,,,,,,,,,,,,,,,,,,,,,,,,,,001,113,2020_Feb_11_1525,spring_faces,3.1.5,60.159457574864824,
condition files/Stage1_1.xlsx,,B1,T2,c,"['c', 'm']","['Clue', 'Monopoly']","[-0.15, 0.5]","[0.15, 0.5]",1,1,,,,,,,,,0,4,4,4,0,3,3,1,,,,,,,,,,,,,,,,,,,,,,,,,,,,,,,,,,,,,,,,,,,,,,,,,,,,,,,488.83866465600295,None,488.83866465600295,None,488.83866465600295,None,m,0,0.7118568840014632,490.3734477979997,None,490.3734477979997,None,490.3734477979997,None,491.15523171600216,None,491.15523171600216,None,491.15523171600216,None,491.15523171600216,None,,,,,,,,,,,,,,,,,,,,,,,,,,,,,,,,,,,,,,,,,,,,001,113,2020_Feb_11_1525,spring_faces,3.1.5,60.159457574864824,
condition files/Stage1_1.xlsx,,B3,T3,c,"['c', 'm']","['Clue', 'Monopoly']","[-0.15, 0.5]","[0.15, 0.5]",1,1,,,,,,,,,0,4,4,4,0,4,4,4,,,,,,,,,,,,,,,,,,,,,,,,,,,,,,,,,,,,,,,,,,,,,,,,,,,,,,,493.10511216000305,None,493.10511216000305,None,493.10511216000305,None,c,1,0.6697520580019045,494.65537469800256,None,494.65537469800256,None,494.65537469800256,None,495.3885487080006,None,495.3885487080006,None,495.3885487080006,None,495.3885487080006,None,,,,,,,,,,,,,,,,,,,,,,,,,,,,,,,,,,,,,,,,,,,,001,113,2020_Feb_11_1525,spring_faces,3.1.5,60.159457574864824,
condition files/Stage1_1.xlsx,,T2,B2,m,"['c', 'm']","['Clue', 'Monopoly']","[-0.15, 0.5]","[0.15, 0.5]",1,1,,,,,,,,,0,4,4,4,0,5,5,3,,,,,,,,,,,,,,,,,,,,,,,,,,,,,,,,,,,,,,,,,,,,,,,,,,,,,,,497.35511712399966,None,497.35511712399966,None,497.35511712399966,None,m,1,1.0752293349978572,498.8898921070031,None,498.8898921070031,None,498.8898921070031,None,500.03860758200244,None,500.03860758200244,None,500.03860758200244,None,500.03860758200244,None,,,,,,,,,,,,,,,,,,,,,,,,,,,,,,,,,,,,,,,,,,,,001,113,2020_Feb_11_1525,spring_faces,3.1.5,60.159457574864824,
condition files/Stage1_1.xlsx,,T4,B3,m,"['c', 'm']","['Clue', 'Monopoly']","[-0.15, 0.5]","[0.15, 0.5]",1,1,,,,,,,,,0,4,4,4,0,6,6,6,,,,,,,,,,,,,,,,,,,,,,,,,,,,,,,,,,,,,,,,,,,,,,,,,,,,,,,501.98852545800037,None,501.98852545800037,None,501.98852545800037,None,m,1,0.6183847100001003,503.5227389310021,None,503.5227389310021,None,503.5227389310021,None,504.205361231001,None,504.205361231001,None,504.205361231001,None,504.205361231001,None,,,,,,,,,,,,,,,,,,,,,,,,,,,,,,,,,,,,,,,,,,,,001,113,2020_Feb_11_1525,spring_faces,3.1.5,60.159457574864824,
condition files/Stage1_1.xlsx,,B4,T4,m,"['c', 'm']","['Clue', 'Monopoly']","[-0.15, 0.5]","[0.15, 0.5]",1,1,,,,,,,,,0,4,4,4,0,7,7,7,,,,,,,,,,,,,,,,,,,,,,,,,,,,,,,,,,,,,,,,,,,,,,,,,,,,,,,506.17182658500315,None,506.17182658500315,None,506.17182658500315,None,c,0,0.8030269619994215,507.7220907310002,None,507.7220907310002,None,507.7220907310002,None,508.5886989030005,None,508.5886989030005,None,508.5886989030005,None,508.5886989030005,None,,,,,,,,,,,,,,,,,,,,,,,,,,,,,,,,,,,,,,,,,,,,001,113,2020_Feb_11_1525,spring_faces,3.1.5,60.159457574864824,
condition files/Stage1_2.xlsx,,T3,B3,c,"['c', 'm']","['Clue', 'Monopoly']","[-0.15, 0.5]","[0.15, 0.5]",1,1,,,,,,,,,0,5,5,5,0,0,0,4,,,,,,,,,,,,,,,,,,,,,,,,,,,,,,,,,,,,,,,,,,,,,,,,,,,,,,,510.57225044400184,None,510.57225044400184,None,510.57225044400184,None,m,0,0.9476986440022301,512.1054261450008,None,512.1054261450008,None,512.1054261450008,None,513.1070129520012,None,513.1070129520012,None,513.1070129520012,None,513.1070129520012,None,,,,,,,,,,,,,,,,,,,,,,,,,,,,,,,,,,,,,,,,,,,,001,113,2020_Feb_11_1525,spring_faces,3.1.5,60.159457574864824,
condition files/Stage1_2.xlsx,,B1,T1,c,"['c', 'm']","['Clue', 'Monopoly']","[-0.15, 0.5]","[0.15, 0.5]",1,1,,,,,,,,,0,5,5,5,0,1,1,0,,,,,,,,,,,,,,,,,,,,,,,,,,,,,,,,,,,,,,,,,,,,,,,,,,,,,,,515.0716744090023,None,515.0716744090023,None,515.0716744090023,None,c,1,0.6565243100012594,516.6045958720024,None,516.6045958720024,None,516.6045958720024,None,517.3219713560029,None,517.3219713560029,None,517.3219713560029,None,517.3219713560029,None,,,,,,,,,,,,,,,,,,,,,,,,,,,,,,,,,,,,,,,,,,,,001,113,2020_Feb_11_1525,spring_faces,3.1.5,60.159457574864824,
condition files/Stage1_2.xlsx,,T2,B1,c,"['c', 'm']","['Clue', 'Monopoly']","[-0.15, 0.5]","[0.15, 0.5]",1,1,,,,,,,,,0,5,5,5,0,2,2,1,,,,,,,,,,,,,,,,,,,,,,,,,,,,,,,,,,,,,,,,,,,,,,,,,,,,,,,519.2882891879999,None,519.2882891879999,None,519.2882891879999,None,m,0,0.6944800180026505,520.8386196280007,None,520.8386196280007,None,520.8386196280007,None,521.5881092130003,None,521.5881092130003,None,521.5881092130003,None,521.5881092130003,None,,,,,,,,,,,,,,,,,,,,,,,,,,,,,,,,,,,,,,,,,,,,001,113,2020_Feb_11_1525,spring_faces,3.1.5,60.159457574864824,
condition files/Stage1_2.xlsx,,B2,T2,m,"['c', 'm']","['Clue', 'Monopoly']","[-0.15, 0.5]","[0.15, 0.5]",1,1,,,,,,,,,0,5,5,5,0,3,3,3,,,,,,,,,,,,,,,,,,,,,,,,,,,,,,,,,,,,,,,,,,,,,,,,,,,,,,,523.5551871250027,None,523.5551871250027,None,523.5551871250027,None,c,0,0.6518949089986563,525.0892500219998,None,525.0892500219998,None,525.0892500219998,None,525.8219194030025,None,525.8219194030025,None,525.8219194030025,None,525.8219194030025,None,,,,,,,,,,,,,,,,,,,,,,,,,,,,,,,,,,,,,,,,,,,,001,113,2020_Feb_11_1525,spring_faces,3.1.5,60.159457574864824,
condition files/Stage1_2.xlsx,,T4,B4,m,"['c', 'm']","['Clue', 'Monopoly']","[-0.15, 0.5]","[0.15, 0.5]",1,1,,,,,,,,,0,5,5,5,0,4,4,7,,,,,,,,,,,,,,,,,,,,,,,,,,,,,,,,,,,,,,,,,,,,,,,,,,,,,,,527.7717119580011,None,527.7717119580011,None,527.7717119580011,None,m,1,0.11452382200150169,529.306597439001,None,529.306597439001,None,529.306597439001,None,529.4724032289996,None,529.4724032289996,None,529.4724032289996,None,529.4724032289996,None,,,,,,,,,,,,,,,,,,,,,,,,,,,,,,,,,,,,,,,,,,,,001,113,2020_Feb_11_1525,spring_faces,3.1.5,60.159457574864824,
condition files/Stage1_2.xlsx,,B3,T4,m,"['c', 'm']","['Clue', 'Monopoly']","[-0.15, 0.5]","[0.15, 0.5]",1,1,,,,,,,,,0,5,5,5,0,5,5,6,,,,,,,,,,,,,,,,,,,,,,,,,,,,,,,,,,,,,,,,,,,,,,,,,,,,,,,531.4384821610001,None,531.4384821610001,None,531.4384821610001,None,c,0,2.609222020000743,532.9719756270024,None,532.9719756270024,None,532.9719756270024,None,535.6382221910026,None,535.6382221910026,None,535.6382221910026,None,535.6382221910026,None,,,,,,,,,,,,,,,,,,,,,,,,,,,,,,,,,,,,,,,,,,,,001,113,2020_Feb_11_1525,spring_faces,3.1.5,60.159457574864824,
condition files/Stage1_2.xlsx,,B4,T3,c,"['c', 'm']","['Clue', 'Monopoly']","[-0.15, 0.5]","[0.15, 0.5]",1,1,,,,,,,,,0,5,5,5,0,6,6,5,,,,,,,,,,,,,,,,,,,,,,,,,,,,,,,,,,,,,,,,,,,,,,,,,,,,,,,537.6045731970007,None,537.6045731970007,None,537.6045731970007,None,m,0,0.4744221020009718,539.1387743360028,None,539.1387743360028,None,539.1387743360028,None,539.6887844590019,None,539.6887844590019,None,539.6887844590019,None,539.6887844590019,None,,,,,,,,,,,,,,,,,,,,,,,,,,,,,,,,,,,,,,,,,,,,001,113,2020_Feb_11_1525,spring_faces,3.1.5,60.159457574864824,
condition files/Stage1_2.xlsx,,T1,B2,m,"['c', 'm']","['Clue', 'Monopoly']","[-0.15, 0.5]","[0.15, 0.5]",1,1,,,,,,,,,0,5,5,5,0,7,7,2,,,,,,,,,,,,,,,,,,,,,,,,,,,,,,,,,,,,,,,,,,,,,,,,,,,,,,,541.6385204550024,None,541.6385204550024,None,541.6385204550024,None,c,0,1.0971529100024782,543.171968591003,None,543.171968591003,None,543.171968591003,None,544.321910343002,None,544.321910343002,None,544.321910343002,None,544.321910343002,None,,,,,,,,,,,,,,,,,,,,,,,,,,,,,,,,,,,,,,,,,,,,001,113,2020_Feb_11_1525,spring_faces,3.1.5,60.159457574864824,
condition files/Stage1_1.xlsx,,T2,B2,m,"['c', 'm']","['Clue', 'Monopoly']","[-0.15, 0.5]","[0.15, 0.5]",1,1,,,,,,,,,0,6,6,6,0,0,0,3,,,,,,,,,,,,,,,,,,,,,,,,,,,,,,,,,,,,,,,,,,,,,,,,,,,,,,,546.3047124840014,None,546.3047124840014,None,546.3047124840014,None,c,0,1.5661236529995222,547.8549818150022,None,547.8549818150022,None,547.8549818150022,None,549.4714205640012,None,549.4714205640012,None,549.4714205640012,None,549.4714205640012,None,,,,,,,,,,,,,,,,,,,,,,,,,,,,,,,,,,,,,,,,,,,,001,113,2020_Feb_11_1525,spring_faces,3.1.5,60.159457574864824,
condition files/Stage1_1.xlsx,,B1,T2,c,"['c', 'm']","['Clue', 'Monopoly']","[-0.15, 0.5]","[0.15, 0.5]",1,1,,,,,,,,,0,6,6,6,0,1,1,1,,,,,,,,,,,,,,,,,,,,,,,,,,,,,,,,,,,,,,,,,,,,,,,,,,,,,,,551.4384618410004,None,551.4384618410004,None,551.4384618410004,None,m,0,0.46544102099869633,552.9716786810022,None,552.9716786810022,None,552.9716786810022,None,553.4877240330025,None,553.4877240330025,None,553.4877240330025,None,553.4877240330025,None,,,,,,,,,,,,,,,,,,,,,,,,,,,,,,,,,,,,,,,,,,,,001,113,2020_Feb_11_1525,spring_faces,3.1.5,60.159457574864824,
condition files/Stage1_1.xlsx,,T4,B3,m,"['c', 'm']","['Clue', 'Monopoly']","[-0.15, 0.5]","[0.15, 0.5]",1,1,,,,,,,,,0,6,6,6,0,2,2,6,,,,,,,,,,,,,,,,,,,,,,,,,,,,,,,,,,,,,,,,,,,,,,,,,,,,,,,555.4551432250009,None,555.4551432250009,None,555.4551432250009,None,c,0,0.3181879399999161,556.9909544520015,None,556.9909544520015,None,556.9909544520015,None,557.3732488170026,None,557.3732488170026,None,557.3732488170026,None,557.3732488170026,None,,,,,,,,,,,,,,,,,,,,,,,,,,,,,,,,,,,,,,,,,,,,001,113,2020_Feb_11_1525,spring_faces,3.1.5,60.159457574864824,
condition files/Stage1_1.xlsx,,B2,T1,m,"['c', 'm']","['Clue', 'Monopoly']","[-0.15, 0.5]","[0.15, 0.5]",1,1,,,,,,,,,0,6,6,6,0,3,3,2,,,,,,,,,,,,,,,,,,,,,,,,,,,,,,,,,,,,,,,,,,,,,,,,,,,,,,,559.3384181380025,None,559.3384181380025,None,559.3384181380025,None,m,1,0.8530717480025487,560.8880448210002,None,560.8880448210002,None,560.8880448210002,None,561.805638400001,None,561.805638400001,None,561.805638400001,None,561.805638400001,None,,,,,,,,,,,,,,,,,,,,,,,,,,,,,,,,,,,,,,,,,,,,001,113,2020_Feb_11_1525,spring_faces,3.1.5,60.159457574864824,
condition files/Stage1_1.xlsx,,B4,T4,m,"['c', 'm']","['Clue', 'Monopoly']","[-0.15, 0.5]","[0.15, 0.5]",1,1,,,,,,,,,0,6,6,6,0,4,4,7,,,,,,,,,,,,,,,,,,,,,,,,,,,,,,,,,,,,,,,,,,,,,,,,,,,,,,,563.7718133900016,None,563.7718133900016,None,563.7718133900016,None,m,1,0.8832749020002666,565.3058053090026,None,565.3058053090026,None,565.3058053090026,None,566.2556480100029,None,566.2556480100029,None,566.2556480100029,None,566.2556480100029,None,,,,,,,,,,,,,,,,,,,,,,,,,,,,,,,,,,,,,,,,,,,,001,113,2020_Feb_11_1525,spring_faces,3.1.5,60.159457574864824,
condition files/Stage1_1.xlsx,,T3,B4,c,"['c', 'm']","['Clue', 'Monopoly']","[-0.15, 0.5]","[0.15, 0.5]",1,1,,,,,,,,,0,6,6,6,0,5,5,5,,,,,,,,,,,,,,,,,,,,,,,,,,,,,,,,,,,,,,,,,,,,,,,,,,,,,,,568.2218648859998,None,568.2218648859998,None,568.2218648859998,None,m,0,0.8170767980009259,569.7560368190025,None,569.7560368190025,None,569.7560368190025,None,570.6407785510019,None,570.6407785510019,None,570.6407785510019,None,570.6407785510019,None,,,,,,,,,,,,,,,,,,,,,,,,,,,,,,,,,,,,,,,,,,,,001,113,2020_Feb_11_1525,spring_faces,3.1.5,60.159457574864824,
condition files/Stage1_1.xlsx,,T1,B1,c,"['c', 'm']","['Clue', 'Monopoly']","[-0.15, 0.5]","[0.15, 0.5]",1,1,,,,,,,,,0,6,6,6,0,6,6,0,,,,,,,,,,,,,,,,,,,,,,,,,,,,,,,,,,,,,,,,,,,,,,,,,,,,,,,572.6047375020025,None,572.6047375020025,None,572.6047375020025,None,c,1,0.7068387400031497,574.1383679120008,None,574.1383679120008,None,574.1383679120008,None,574.9053349280002,None,574.9053349280002,None,574.9053349280002,None,574.9053349280002,None,,,,,,,,,,,,,,,,,,,,,,,,,,,,,,,,,,,,,,,,,,,,001,113,2020_Feb_11_1525,spring_faces,3.1.5,60.159457574864824,
condition files/Stage1_1.xlsx,,B3,T3,c,"['c', 'm']","['Clue', 'Monopoly']","[-0.15, 0.5]","[0.15, 0.5]",1,1,,,,,,,,,0,6,6,6,0,7,7,4,,,,,,,,,,,,,,,,,,,,,,,,,,,,,,,,,,,,,,,,,,,,,,,,,,,,,,,576.871773412,None,576.871773412,None,576.871773412,None,c,1,1.1111084689982818,578.421979693001,None,578.421979693001,None,578.421979693001,None,579.5880231299998,None,579.5880231299998,None,579.5880231299998,None,579.5880231299998,None,,,,,,,,,,,,,,,,,,,,,,,,,,,,,,,,,,,,,,,,,,,,001,113,2020_Feb_11_1525,spring_faces,3.1.5,60.159457574864824,
condition files/Stage1_2.xlsx,,T3,B3,c,"['c', 'm']","['Clue', 'Monopoly']","[-0.15, 0.5]","[0.15, 0.5]",1,1,,,,,,,,,0,7,7,7,0,0,0,4,,,,,,,,,,,,,,,,,,,,,,,,,,,,,,,,,,,,,,,,,,,,,,,,,,,,,,,581.5724092950004,None,581.5724092950004,None,581.5724092950004,None,c,1,1.4983121909972397,583.1068172600026,None,583.1068172600026,None,583.1068172600026,None,584.6553775440007,None,584.6553775440007,None,584.6553775440007,None,584.6553775440007,None,,,,,,,,,,,,,,,,,,,,,,,,,,,,,,,,,,,,,,,,,,,,001,113,2020_Feb_11_1525,spring_faces,3.1.5,60.159457574864824,
condition files/Stage1_2.xlsx,,B3,T4,m,"['c', 'm']","['Clue', 'Monopoly']","[-0.15, 0.5]","[0.15, 0.5]",1,1,,,,,,,,,0,7,7,7,0,1,1,6,,,,,,,,,,,,,,,,,,,,,,,,,,,,,,,,,,,,,,,,,,,,,,,,,,,,,,,586.6216334790006,None,586.6216334790006,None,586.6216334790006,None,c,0,1.1849782620010956,588.1561557990026,None,588.1561557990026,None,588.1561557990026,None,589.4077296830001,None,589.4077296830001,None,589.4077296830001,None,589.4077296830001,None,,,,,,,,,,,,,,,,,,,,,,,,,,,,,,,,,,,,,,,,,,,,001,113,2020_Feb_11_1525,spring_faces,3.1.5,60.159457574864824,
condition files/Stage1_2.xlsx,,T4,B4,m,"['c', 'm']","['Clue', 'Monopoly']","[-0.15, 0.5]","[0.15, 0.5]",1,1,,,,,,,,,0,7,7,7,0,2,2,7,,,,,,,,,,,,,,,,,,,,,,,,,,,,,,,,,,,,,,,,,,,,,,,,,,,,,,,591.3712520240006,None,591.3712520240006,None,591.3712520240006,None,m,1,0.9951402110018535,592.9059550210004,None,592.9059550210004,None,592.9059550210004,None,593.9550819930009,None,593.9550819930009,None,593.9550819930009,None,593.9550819930009,None,,,,,,,,,,,,,,,,,,,,,,,,,,,,,,,,,,,,,,,,,,,,001,113,2020_Feb_11_1525,spring_faces,3.1.5,60.159457574864824,
condition files/Stage1_2.xlsx,,B2,T2,m,"['c', 'm']","['Clue', 'Monopoly']","[-0.15, 0.5]","[0.15, 0.5]",1,1,,,,,,,,,0,7,7,7,0,3,3,3,,,,,,,,,,,,,,,,,,,,,,,,,,,,,,,,,,,,,,,,,,,,,,,,,,,,,,,595.9218542190029,None,595.9218542190029,None,595.9218542190029,None,m,1,0.9732965709990822,597.4718846180003,None,597.4718846180003,None,597.4718846180003,None,598.5050175870019,None,598.5050175870019,None,598.5050175870019,None,598.5050175870019,None,,,,,,,,,,,,,,,,,,,,,,,,,,,,,,,,,,,,,,,,,,,,001,113,2020_Feb_11_1525,spring_faces,3.1.5,60.159457574864824,
condition files/Stage1_2.xlsx,,T2,B1,c,"['c', 'm']","['Clue', 'Monopoly']","[-0.15, 0.5]","[0.15, 0.5]",1,1,,,,,,,,,0,7,7,7,0,4,4,1,,,,,,,,,,,,,,,,,,,,,,,,,,,,,,,,,,,,,,,,,,,,,,,,,,,,,,,600.4717693750026,None,600.4717693750026,None,600.4717693750026,None,m,0,1.3357325540018792,602.0054067510027,None,602.0054067510027,None,602.0054067510027,None,603.4073876630027,None,603.4073876630027,None,603.4073876630027,None,603.4073876630027,None,,,,,,,,,,,,,,,,,,,,,,,,,,,,,,,,,,,,,,,,,,,,001,113,2020_Feb_11_1525,spring_faces,3.1.5,60.159457574864824,
condition files/Stage1_2.xlsx,,B4,T3,c,"['c', 'm']","['Clue', 'Monopoly']","[-0.15, 0.5]","[0.15, 0.5]",1,1,,,,,,,,,0,7,7,7,0,5,5,5,,,,,,,,,,,,,,,,,,,,,,,,,,,,,,,,,,,,,,,,,,,,,,,,,,,,,,,605.3717572400019,None,605.3717572400019,None,605.3717572400019,None,c,1,0.6742687539990584,606.9069284640027,None,606.9069284640027,None,606.9069284640027,None,607.6381283920018,None,607.6381283920018,None,607.6381283920018,None,607.6381283920018,None,,,,,,,,,,,,,,,,,,,,,,,,,,,,,,,,,,,,,,,,,,,,001,113,2020_Feb_11_1525,spring_faces,3.1.5,60.159457574864824,
condition files/Stage1_2.xlsx,,B1,T1,c,"['c', 'm']","['Clue', 'Monopoly']","[-0.15, 0.5]","[0.15, 0.5]",1,1,,,,,,,,,0,7,7,7,0,6,6,0,,,,,,,,,,,,,,,,,,,,,,,,,,,,,,,,,,,,,,,,,,,,,,,,,,,,,,,609.6051626530025,None,609.6051626530025,None,609.6051626530025,None,m,0,0.6348337090021232,611.1382685509998,None,611.1382685509998,None,611.1382685509998,None,611.8386957490002,None,611.8386957490002,None,611.8386957490002,None,611.8386957490002,None,,,,,,,,,,,,,,,,,,,,,,,,,,,,,,,,,,,,,,,,,,,,001,113,2020_Feb_11_1525,spring_faces,3.1.5,60.159457574864824,
condition files/Stage1_2.xlsx,,T1,B2,m,"['c', 'm']","['Clue', 'Monopoly']","[-0.15, 0.5]","[0.15, 0.5]",1,1,,,,,,,,,0,7,7,7,0,7,7,2,,,,,,,,,,,,,,,,,,,,,,,,,,,,,,,,,,,,,,,,,,,,,,,,,,,,,,,613.8052807120002,None,613.8052807120002,None,613.8052807120002,None,c,0,0.5288124350008729,615.3403145869997,None,615.3403145869997,None,615.3403145869997,None,615.9216438850017,None,615.9216438850017,None,615.9216438850017,None,615.9216438850017,None,,,,,,,,,,,,,,,,,,,,,,,,,,,,,,,,,,,,,,,,,,,,001,113,2020_Feb_11_1525,spring_faces,3.1.5,60.159457574864824,
condition files/Stage1_1.xlsx,,T2,B2,m,"['c', 'm']","['Clue', 'Monopoly']","[-0.15, 0.5]","[0.15, 0.5]",1,1,,,,,,,,,0,8,8,8,0,0,0,3,,,,,,,,,,,,,,,,,,,,,,,,,,,,,,,,,,,,,,,,,,,,,,,,,,,,,,,617.9050268179999,None,617.9050268179999,None,617.9050268179999,None,m,1,0.493945859001542,619.4552557099996,None,619.4552557099996,None,619.4552557099996,None,620.0043589190027,None,620.0043589190027,None,620.0043589190027,None,620.0043589190027,None,,,,,,,,,,,,,,,,,,,,,,,,,,,,,,,,,,,,,,,,,,,,001,113,2020_Feb_11_1525,spring_faces,3.1.5,60.159457574864824,
condition files/Stage1_1.xlsx,,B3,T3,c,"['c', 'm']","['Clue', 'Monopoly']","[-0.15, 0.5]","[0.15, 0.5]",1,1,,,,,,,,,0,8,8,8,0,1,1,4,,,,,,,,,,,,,,,,,,,,,,,,,,,,,,,,,,,,,,,,,,,,,,,,,,,,,,,621.971760982,None,621.971760982,None,621.971760982,None,c,1,2.042726023002615,623.506498736002,None,623.506498736002,None,623.506498736002,None,625.6056866090003,None,625.6056866090003,None,625.6056866090003,None,625.6056866090003,None,,,,,,,,,,,,,,,,,,,,,,,,,,,,,,,,,,,,,,,,,,,,001,113,2020_Feb_11_1525,spring_faces,3.1.5,60.159457574864824,
condition files/Stage1_1.xlsx,,T1,B1,c,"['c', 'm']","['Clue', 'Monopoly']","[-0.15, 0.5]","[0.15, 0.5]",1,1,,,,,,,,,0,8,8,8,0,2,2,0,,,,,,,,,,,,,,,,,,,,,,,,,,,,,,,,,,,,,,,,,,,,,,,,,,,,,,,627.5719865120009,None,627.5719865120009,None,627.5719865120009,None,c,1,0.6032631829984894,629.1058706530021,None,629.1058706530021,None,629.1058706530021,None,629.7719936370013,None,629.7719936370013,None,629.7719936370013,None,629.7719936370013,None,,,,,,,,,,,,,,,,,,,,,,,,,,,,,,,,,,,,,,,,,,,,001,113,2020_Feb_11_1525,spring_faces,3.1.5,60.159457574864824,
condition files/Stage1_1.xlsx,,T4,B3,m,"['c', 'm']","['Clue', 'Monopoly']","[-0.15, 0.5]","[0.15, 0.5]",1,1,,,,,,,,,0,8,8,8,0,3,3,6,,,,,,,,,,,,,,,,,,,,,,,,,,,,,,,,,,,,,,,,,,,,,,,,,,,,,,,631.7385843510019,None,631.7385843510019,None,631.7385843510019,None,m,1,0.5806902990007075,633.2884192720012,None,633.2884192720012,None,633.2884192720012,None,633.9382820410028,None,633.9382820410028,None,633.9382820410028,None,633.9382820410028,None,,,,,,,,,,,,,,,,,,,,,,,,,,,,,,,,,,,,,,,,,,,,001,113,2020_Feb_11_1525,spring_faces,3.1.5,60.159457574864824,
condition files/Stage1_1.xlsx,,B1,T2,c,"['c', 'm']","['Clue', 'Monopoly']","[-0.15, 0.5]","[0.15, 0.5]",1,1,,,,,,,,,0,8,8,8,0,4,4,1,,,,,,,,,,,,,,,,,,,,,,,,,,,,,,,,,,,,,,,,,,,,,,,,,,,,,,,635.8884941920005,None,635.8884941920005,None,635.8884941920005,None,m,0,0.734464425000624,637.4385905810013,None,637.4385905810013,None,637.4385905810013,None,638.255305542003,None,638.255305542003,None,638.255305542003,None,638.255305542003,None,,,,,,,,,,,,,,,,,,,,,,,,,,,,,,,,,,,,,,,,,,,,001,113,2020_Feb_11_1525,spring_faces,3.1.5,60.159457574864824,
condition files/Stage1_1.xlsx,,B2,T1,m,"['c', 'm']","['Clue', 'Monopoly']","[-0.15, 0.5]","[0.15, 0.5]",1,1,,,,,,,,,0,8,8,8,0,5,5,2,,,,,,,,,,,,,,,,,,,,,,,,,,,,,,,,,,,,,,,,,,,,,,,,,,,,,,,640.2050114840022,None,640.2050114840022,None,640.2050114840022,None,c,0,0.41835534700294374,641.7546993140022,None,641.7546993140022,None,641.7546993140022,None,642.2556574190021,None,642.2556574190021,None,642.2556574190021,None,642.2556574190021,None,,,,,,,,,,,,,,,,,,,,,,,,,,,,,,,,,,,,,,,,,,,,001,113,2020_Feb_11_1525,spring_faces,3.1.5,60.159457574864824,
condition files/Stage1_1.xlsx,,T3,B4,c,"['c', 'm']","['Clue', 'Monopoly']","[-0.15, 0.5]","[0.15, 0.5]",1,1,,,,,,,,,0,8,8,8,0,6,6,5,,,,,,,,,,,,,,,,,,,,,,,,,,,,,,,,,,,,,,,,,,,,,,,,,,,,,,,644.2048870020008,None,644.2048870020008,None,644.2048870020008,None,m,0,0.5623550359996443,645.7387417620012,None,645.7387417620012,None,645.7387417620012,None,646.3720573820028,None,646.3720573820028,None,646.3720573820028,None,646.3720573820028,None,,,,,,,,,,,,,,,,,,,,,,,,,,,,,,,,,,,,,,,,,,,,001,113,2020_Feb_11_1525,spring_faces,3.1.5,60.159457574864824,
condition files/Stage1_1.xlsx,,B4,T4,m,"['c', 'm']","['Clue', 'Monopoly']","[-0.15, 0.5]","[0.15, 0.5]",1,1,,,,,,,,,0,8,8,8,0,7,7,7,,,,,,,,,,,,,,,,,,,,,,,,,,,,,,,,,,,,,,,,,,,,,,,,,,,,,,,648.3218380870021,None,648.3218380870021,None,648.3218380870021,None,m,1,0.7167536850029137,649.8723194350023,None,649.8723194350023,None,649.8723194350023,None,650.6574233630017,None,650.6574233630017,None,650.6574233630017,None,650.6574233630017,None,,,,,,,,,,,,,,,,,,,,,,,,,,,,,,,,,,,,,,,,,,,,001,113,2020_Feb_11_1525,spring_faces,3.1.5,60.159457574864824,
condition files/Stage1_2.xlsx,,T1,B2,m,"['c', 'm']","['Clue', 'Monopoly']","[-0.15, 0.5]","[0.15, 0.5]",1,1,,,,,,,,,0,9,9,9,0,0,0,2,,,,,,,,,,,,,,,,,,,,,,,,,,,,,,,,,,,,,,,,,,,,,,,,,,,,,,,652.6382180020009,None,652.6382180020009,None,652.6382180020009,None,m,1,3.521039008999651,654.1721116000008,None,654.1721116000008,None,654.1721116000008,None,657.7554026720027,None,657.7554026720027,None,657.7554026720027,None,657.7554026720027,None,,,,,,,,,,,,,,,,,,,,,,,,,,,,,,,,,,,,,,,,,,,,001,113,2020_Feb_11_1525,spring_faces,3.1.5,60.159457574864824,
condition files/Stage1_2.xlsx,,T2,B1,c,"['c', 'm']","['Clue', 'Monopoly']","[-0.15, 0.5]","[0.15, 0.5]",1,1,,,,,,,,,0,9,9,9,0,1,1,1,,,,,,,,,,,,,,,,,,,,,,,,,,,,,,,,,,,,,,,,,,,,,,,,,,,,,,,659.7218310570024,None,659.7218310570024,None,659.7218310570024,None,c,1,3.5741169120010454,661.2550890810016,None,661.2550890810016,None,661.2550890810016,None,664.890635746,None,664.890635746,None,664.890635746,None,664.890635746,None,,,,,,,,,,,,,,,,,,,,,,,,,,,,,,,,,,,,,,,,,,,,001,113,2020_Feb_11_1525,spring_faces,3.1.5,60.159457574864824,
condition files/Stage1_2.xlsx,,B2,T2,m,"['c', 'm']","['Clue', 'Monopoly']","[-0.15, 0.5]","[0.15, 0.5]",1,1,,,,,,,,,0,9,9,9,0,2,2,3,,,,,,,,,,,,,,,,,,,,,,,,,,,,,,,,,,,,,,,,,,,,,,,,,,,,,,,666.855145501002,None,666.855145501002,None,666.855145501002,None,m,1,1.6239577519991144,668.3892477860027,None,668.3892477860027,None,668.3892477860027,None,670.0886693300017,None,670.0886693300017,None,670.0886693300017,None,670.0886693300017,None,,,,,,,,,,,,,,,,,,,,,,,,,,,,,,,,,,,,,,,,,,,,001,113,2020_Feb_11_1525,spring_faces,3.1.5,60.159457574864824,
condition files/Stage1_2.xlsx,,B3,T4,m,"['c', 'm']","['Clue', 'Monopoly']","[-0.15, 0.5]","[0.15, 0.5]",1,1,,,,,,,,,0,9,9,9,0,3,3,6,,,,,,,,,,,,,,,,,,,,,,,,,,,,,,,,,,,,,,,,,,,,,,,,,,,,,,,672.0384452760009,None,672.0384452760009,None,672.0384452760009,None,m,1,1.1764124010005617,673.5727956770024,None,673.5727956770024,None,673.5727956770024,None,674.8053257660031,None,674.8053257660031,None,674.8053257660031,None,674.8053257660031,None,,,,,,,,,,,,,,,,,,,,,,,,,,,,,,,,,,,,,,,,,,,,001,113,2020_Feb_11_1525,spring_faces,3.1.5,60.159457574864824,
condition files/Stage1_2.xlsx,,T3,B3,c,"['c', 'm']","['Clue', 'Monopoly']","[-0.15, 0.5]","[0.15, 0.5]",1,1,,,,,,,,,0,9,9,9,0,4,4,4,,,,,,,,,,,,,,,,,,,,,,,,,,,,,,,,,,,,,,,,,,,,,,,,,,,,,,,676.7717293390015,None,676.7717293390015,None,676.7717293390015,None,c,1,0.2504867759998888,678.3065881030016,None,678.3065881030016,None,678.3065881030016,None,678.6233456139998,None,678.6233456139998,None,678.6233456139998,None,678.6233456139998,None,,,,,,,,,,,,,,,,,,,,,,,,,,,,,,,,,,,,,,,,,,,,001,113,2020_Feb_11_1525,spring_faces,3.1.5,60.159457574864824,
condition files/Stage1_2.xlsx,,B4,T3,c,"['c', 'm']","['Clue', 'Monopoly']","[-0.15, 0.5]","[0.15, 0.5]",1,1,,,,,,,,,0,9,9,9,0,5,5,5,,,,,,,,,,,,,,,,,,,,,,,,,,,,,,,,,,,,,,,,,,,,,,,,,,,,,,,680.5884026550011,None,680.5884026550011,None,680.5884026550011,None,c,1,0.30709753900009673,682.1380895290022,None,682.1380895290022,None,682.1380895290022,None,682.5048102479996,None,682.5048102479996,None,682.5048102479996,None,682.5048102479996,None,,,,,,,,,,,,,,,,,,,,,,,,,,,,,,,,,,,,,,,,,,,,001,113,2020_Feb_11_1525,spring_faces,3.1.5,60.159457574864824,
condition files/Stage1_2.xlsx,,B1,T1,c,"['c', 'm']","['Clue', 'Monopoly']","[-0.15, 0.5]","[0.15, 0.5]",1,1,,,,,,,,,0,9,9,9,0,6,6,0,,,,,,,,,,,,,,,,,,,,,,,,,,,,,,,,,,,,,,,,,,,,,,,,,,,,,,,684.4718363650027,None,684.4718363650027,None,684.4718363650027,None,m,0,0.615833746996941,686.0052920529997,None,686.0052920529997,None,686.0052920529997,None,686.6722448300025,None,686.6722448300025,None,686.6722448300025,None,686.6722448300025,None,,,,,,,,,,,,,,,,,,,,,,,,,,,,,,,,,,,,,,,,,,,,001,113,2020_Feb_11_1525,spring_faces,3.1.5,60.159457574864824,
condition files/Stage1_2.xlsx,,T4,B4,m,"['c', 'm']","['Clue', 'Monopoly']","[-0.15, 0.5]","[0.15, 0.5]",1,1,,,,,,,,,0,9,9,9,0,7,7,7,,,,,,,,,,,,,,,,,,,,,,,,,,,,,,,,,,,,,,,,,,,,,,,,,,,,,,,688.6384300390018,None,688.6384300390018,None,688.6384300390018,None,m,1,0.41617565200067475,690.1889389280004,None,690.1889389280004,None,690.1889389280004,None,690.6717748280025,None,690.6717748280025,None,690.6717748280025,None,690.6717748280025,None,,,,,,,,,,,,,,,,,,,,,,,,,,,,,,,,,,,,,,,,,,,,001,113,2020_Feb_11_1525,spring_faces,3.1.5,60.159457574864824,
condition files/Stage1_1.xlsx,,B4,T4,m,"['c', 'm']","['Clue', 'Monopoly']","[-0.15, 0.5]","[0.15, 0.5]",1,1,,,,,,,,,0,10,10,10,0,0,0,7,,,,,,,,,,,,,,,,,,,,,,,,,,,,,,,,,,,,,,,,,,,,,,,,,,,,,,,692.6386970359999,None,692.6386970359999,None,692.6386970359999,None,m,1,0.36821567800143384,694.1888855440011,None,694.1888855440011,None,694.1888855440011,None,694.6220252400017,None,694.6220252400017,None,694.6220252400017,None,694.6220252400017,None,,,,,,,,,,,,,,,,,,,,,,,,,,,,,,,,,,,,,,,,,,,,001,113,2020_Feb_11_1525,spring_faces,3.1.5,60.159457574864824,
condition files/Stage1_1.xlsx,,T3,B4,c,"['c', 'm']","['Clue', 'Monopoly']","[-0.15, 0.5]","[0.15, 0.5]",1,1,,,,,,,,,0,10,10,10,0,1,1,5,,,,,,,,,,,,,,,,,,,,,,,,,,,,,,,,,,,,,,,,,,,,,,,,,,,,,,,696.5883088030023,None,696.5883088030023,None,696.5883088030023,None,m,0,0.6435217619982723,698.1216075150005,None,698.1216075150005,None,698.1216075150005,None,698.8231255490027,None,698.8231255490027,None,698.8231255490027,None,698.8231255490027,None,,,,,,,,,,,,,,,,,,,,,,,,,,,,,,,,,,,,,,,,,,,,001,113,2020_Feb_11_1525,spring_faces,3.1.5,60.159457574864824,
condition files/Stage1_1.xlsx,,T4,B3,m,"['c', 'm']","['Clue', 'Monopoly']","[-0.15, 0.5]","[0.15, 0.5]",1,1,,,,,,,,,0,10,10,10,0,2,2,6,,,,,,,,,,,,,,,,,,,,,,,,,,,,,,,,,,,,,,,,,,,,,,,,,,,,,,,700.788441972003,None,700.788441972003,None,700.788441972003,None,c,0,0.17159855700083426,702.3215455820027,None,702.3215455820027,None,702.3215455820027,None,702.5715763650005,None,702.5715763650005,None,702.5715763650005,None,702.5715763650005,None,,,,,,,,,,,,,,,,,,,,,,,,,,,,,,,,,,,,,,,,,,,,001,113,2020_Feb_11_1525,spring_faces,3.1.5,60.159457574864824,
condition files/Stage1_1.xlsx,,T2,B2,m,"['c', 'm']","['Clue', 'Monopoly']","[-0.15, 0.5]","[0.15, 0.5]",1,1,,,,,,,,,0,10,10,10,0,3,3,3,,,,,,,,,,,,,,,,,,,,,,,,,,,,,,,,,,,,,,,,,,,,,,,,,,,,,,,704.5216286490031,None,704.5216286490031,None,704.5216286490031,None,c,0,0.5325722289999248,706.056534075,None,706.056534075,None,706.056534075,None,706.6552118110012,None,706.6552118110012,None,706.6552118110012,None,706.6552118110012,None,,,,,,,,,,,,,,,,,,,,,,,,,,,,,,,,,,,,,,,,,,,,001,113,2020_Feb_11_1525,spring_faces,3.1.5,60.159457574864824,
condition files/Stage1_1.xlsx,,T1,B1,c,"['c', 'm']","['Clue', 'Monopoly']","[-0.15, 0.5]","[0.15, 0.5]",1,1,,,,,,,,,0,10,10,10,0,4,4,0,,,,,,,,,,,,,,,,,,,,,,,,,,,,,,,,,,,,,,,,,,,,,,,,,,,,,,,708.6218820520007,None,708.6218820520007,None,708.6218820520007,None,m,0,1.0582016210028087,710.155010051003,None,710.155010051003,None,710.155010051003,None,711.2881570730024,None,711.2881570730024,None,711.2881570730024,None,711.2881570730024,None,,,,,,,,,,,,,,,,,,,,,,,,,,,,,,,,,,,,,,,,,,,,001,113,2020_Feb_11_1525,spring_faces,3.1.5,60.159457574864824,
condition files/Stage1_1.xlsx,,B2,T1,m,"['c', 'm']","['Clue', 'Monopoly']","[-0.15, 0.5]","[0.15, 0.5]",1,1,,,,,,,,,0,10,10,10,0,5,5,2,,,,,,,,,,,,,,,,,,,,,,,,,,,,,,,,,,,,,,,,,,,,,,,,,,,,,,,713.2384829930015,None,713.2384829930015,None,713.2384829930015,None,c,0,0.7593763260010746,714.7737313750004,None,714.7737313750004,None,714.7737313750004,None,715.5903260170016,None,715.5903260170016,None,715.5903260170016,None,715.5903260170016,None,,,,,,,,,,,,,,,,,,,,,,,,,,,,,,,,,,,,,,,,,,,,001,113,2020_Feb_11_1525,spring_faces,3.1.5,60.159457574864824,
condition files/Stage1_1.xlsx,,B3,T3,c,"['c', 'm']","['Clue', 'Monopoly']","[-0.15, 0.5]","[0.15, 0.5]",1,1,,,,,,,,,0,10,10,10,0,6,6,4,,,,,,,,,,,,,,,,,,,,,,,,,,,,,,,,,,,,,,,,,,,,,,,,,,,,,,,717.5569583480028,None,717.5569583480028,None,717.5569583480028,None,m,0,0.7483592520002276,719.0887651550001,None,719.0887651550001,None,719.0887651550001,None,719.8912576520015,None,719.8912576520015,None,719.8912576520015,None,719.8912576520015,None,,,,,,,,,,,,,,,,,,,,,,,,,,,,,,,,,,,,,,,,,,,,001,113,2020_Feb_11_1525,spring_faces,3.1.5,60.159457574864824,
condition files/Stage1_1.xlsx,,B1,T2,c,"['c', 'm']","['Clue', 'Monopoly']","[-0.15, 0.5]","[0.15, 0.5]",1,1,,,,,,,,,0,10,10,10,0,7,7,1,,,,,,,,,,,,,,,,,,,,,,,,,,,,,,,,,,,,,,,,,,,,,,,,,,,,,,,721.854851565,None,721.854851565,None,721.854851565,None,m,0,2.1759884230013995,723.4051978390016,None,723.4051978390016,None,723.4051978390016,None,725.6387713500008,None,725.6387713500008,None,725.6387713500008,None,725.6387713500008,None,,,,,,,,,,,,,,,,,,,,,,,,,,,,,,,,,,,,,,,,,,,,001,113,2020_Feb_11_1525,spring_faces,3.1.5,60.159457574864824,
condition files/Stage1_2.xlsx,,B1,T1,c,"['c', 'm']","['Clue', 'Monopoly']","[-0.15, 0.5]","[0.15, 0.5]",1,1,,,,,,,,,0,11,11,11,0,0,0,0,,,,,,,,,,,,,,,,,,,,,,,,,,,,,,,,,,,,,,,,,,,,,,,,,,,,,,,727.6220289740013,None,727.6220289740013,None,727.6220289740013,None,c,1,1.3835980339972593,729.1575365400022,None,729.1575365400022,None,729.1575365400022,None,730.6049730750019,None,730.6049730750019,None,730.6049730750019,None,730.6049730750019,None,,,,,,,,,,,,,,,,,,,,,,,,,,,,,,,,,,,,,,,,,,,,001,113,2020_Feb_11_1525,spring_faces,3.1.5,60.159457574864824,
condition files/Stage1_2.xlsx,,T3,B3,c,"['c', 'm']","['Clue', 'Monopoly']","[-0.15, 0.5]","[0.15, 0.5]",1,1,,,,,,,,,0,11,11,11,0,1,1,4,,,,,,,,,,,,,,,,,,,,,,,,,,,,,,,,,,,,,,,,,,,,,,,,,,,,,,,732.5722357740015,None,732.5722357740015,None,732.5722357740015,None,c,1,0.7230236779978441,734.1061697600016,None,734.1061697600016,None,734.1061697600016,None,734.8884902710015,None,734.8884902710015,None,734.8884902710015,None,734.8884902710015,None,,,,,,,,,,,,,,,,,,,,,,,,,,,,,,,,,,,,,,,,,,,,001,113,2020_Feb_11_1525,spring_faces,3.1.5,60.159457574864824,
condition files/Stage1_2.xlsx,,B4,T3,c,"['c', 'm']","['Clue', 'Monopoly']","[-0.15, 0.5]","[0.15, 0.5]",1,1,,,,,,,,,0,11,11,11,0,2,2,5,,,,,,,,,,,,,,,,,,,,,,,,,,,,,,,,,,,,,,,,,,,,,,,,,,,,,,,736.8551092540001,None,736.8551092540001,None,736.8551092540001,None,m,0,0.43986271799803944,738.4053285260015,None,738.4053285260015,None,738.4053285260015,None,738.9051185259996,None,738.9051185259996,None,738.9051185259996,None,738.9051185259996,None,,,,,,,,,,,,,,,,,,,,,,,,,,,,,,,,,,,,,,,,,,,,001,113,2020_Feb_11_1525,spring_faces,3.1.5,60.159457574864824,
condition files/Stage1_2.xlsx,,T1,B2,m,"['c', 'm']","['Clue', 'Monopoly']","[-0.15, 0.5]","[0.15, 0.5]",1,1,,,,,,,,,0,11,11,11,0,3,3,2,,,,,,,,,,,,,,,,,,,,,,,,,,,,,,,,,,,,,,,,,,,,,,,,,,,,,,,740.8716169060026,None,740.8716169060026,None,740.8716169060026,None,c,0,0.27988219799954095,742.4055081200022,None,742.4055081200022,None,742.4055081200022,None,742.7551414410009,None,742.7551414410009,None,742.7551414410009,None,742.7551414410009,None,,,,,,,,,,,,,,,,,,,,,,,,,,,,,,,,,,,,,,,,,,,,001,113,2020_Feb_11_1525,spring_faces,3.1.5,60.159457574864824,
condition files/Stage1_2.xlsx,,B3,T4,m,"['c', 'm']","['Clue', 'Monopoly']","[-0.15, 0.5]","[0.15, 0.5]",1,1,,,,,,,,,0,11,11,11,0,4,4,6,,,,,,,,,,,,,,,,,,,,,,,,,,,,,,,,,,,,,,,,,,,,,,,,,,,,,,,744.70518189,None,744.70518189,None,744.70518189,None,m,1,0.5116249960010464,746.2375859250023,None,746.2375859250023,None,746.2375859250023,None,746.8053408570013,None,746.8053408570013,None,746.8053408570013,None,746.8053408570013,None,,,,,,,,,,,,,,,,,,,,,,,,,,,,,,,,,,,,,,,,,,,,001,113,2020_Feb_11_1525,spring_faces,3.1.5,60.159457574864824,
condition files/Stage1_2.xlsx,,T4,B4,m,"['c', 'm']","['Clue', 'Monopoly']","[-0.15, 0.5]","[0.15, 0.5]",1,1,,,,,,,,,0,11,11,11,0,5,5,7,,,,,,,,,,,,,,,,,,,,,,,,,,,,,,,,,,,,,,,,,,,,,,,,,,,,,,,748.7717979490008,None,748.7717979490008,None,748.7717979490008,None,m,1,0.42866661500011105,750.3044382910011,None,750.3044382910011,None,750.3044382910011,None,750.7884803020024,None,750.7884803020024,None,750.7884803020024,None,750.7884803020024,None,,,,,,,,,,,,,,,,,,,,,,,,,,,,,,,,,,,,,,,,,,,,001,113,2020_Feb_11_1525,spring_faces,3.1.5,60.159457574864824,
condition files/Stage1_2.xlsx,,T2,B1,c,"['c', 'm']","['Clue', 'Monopoly']","[-0.15, 0.5]","[0.15, 0.5]",1,1,,,,,,,,,0,11,11,11,0,6,6,1,,,,,,,,,,,,,,,,,,,,,,,,,,,,,,,,,,,,,,,,,,,,,,,,,,,,,,,752.7551725520025,None,752.7551725520025,None,752.7551725520025,None,c,1,0.3801866969988623,754.2889444300017,None,754.2889444300017,None,754.2889444300017,None,754.7235628620001,None,754.7235628620001,None,754.7235628620001,None,754.7235628620001,None,,,,,,,,,,,,,,,,,,,,,,,,,,,,,,,,,,,,,,,,,,,,001,113,2020_Feb_11_1525,spring_faces,3.1.5,60.159457574864824,
condition files/Stage1_2.xlsx,,B2,T2,m,"['c', 'm']","['Clue', 'Monopoly']","[-0.15, 0.5]","[0.15, 0.5]",1,1,,,,,,,,,0,11,11,11,0,7,7,3,,,,,,,,,,,,,,,,,,,,,,,,,,,,,,,,,,,,,,,,,,,,,,,,,,,,,,,756.6885286780016,None,756.6885286780016,None,756.6885286780016,None,m,1,0.49495123000087915,758.2221927470018,None,758.2221927470018,None,758.2221927470018,None,758.7886693540022,None,758.7886693540022,None,758.7886693540022,None,758.7886693540022,None,,,,,,,,,,,,,,,,,,,,,,,,,,,,,,,,,,,,,,,,,,,,001,113,2020_Feb_11_1525,spring_faces,3.1.5,60.159457574864824,
,,,,,,,,,,,,,,,,,,,,,,,,,,,,,,,,,,,,,,,,,,,,,,,,,,,,,,,,,,,,,,,,,,,,,,,,,,,,,,,,,,,,,,,,,,,,,,,,,,,,,,,,,,,,,,,,760.7551050930015,None,space,6.417976903001545,765.755118062003,None,,,,,,,,,,,,,,,,,,,,,,,,,,,,,,001,113,2020_Feb_11_1525,spring_faces,3.1.5,60.159457574864824,
condition files/Stage2_1.xlsx,,T3,B3,s,"['s', 'r']","['Stratego', 'Risk']","[-0.15, 0.5]","[0.15, 0.5]",1,1,,,,,,,,,,,,,,,,,0,0,0,0,0,0,0,4,,,,,,,,,,,,,,,,,,,,,,,,,,,,,,,,,,,,,,,,,,,,,,,772.238620854001,None,772.238620854001,None,772.238620854001,None,s,1,7.07355027399899,773.7556446380004,None,773.7556446380004,None,773.7556446380004,None,780.9053430820022,None,780.9053430820022,None,780.9053430820022,None,780.9053430820022,None,,,,,,,,,,,,,,,765.755118062003,None,,,,,,,,,,,,,,,,,,,,,,,,,,,,001,113,2020_Feb_11_1525,spring_faces,3.1.5,60.159457574864824,
condition files/Stage2_1.xlsx,,B6,T6,r,"['s', 'r']","['Stratego', 'Risk']","[-0.15, 0.5]","[0.15, 0.5]",1,1,,,,,,,,,,,,,,,,,0,0,0,0,0,1,1,1,,,,,,,,,,,,,,,,,,,,,,,,,,,,,,,,,,,,,,,,,,,,,,,782.855093068003,None,782.855093068003,None,782.855093068003,None,r,1,1.2543086339974252,784.3908887200014,None,784.3908887200014,None,784.3908887200014,None,785.7219321299999,None,785.7219321299999,None,785.7219321299999,None,785.7219321299999,None,,,,,,,,,,,,,,,,,,,,,,,,,,,,,,,,,,,,,,,,,,,,001,113,2020_Feb_11_1525,spring_faces,3.1.5,60.159457574864824,
condition files/Stage2_1.xlsx,,B2,T2,r,"['s', 'r']","['Stratego', 'Risk']","[-0.15, 0.5]","[0.15, 0.5]",1,1,,,,,,,,,,,,,,,,,0,0,0,0,0,2,2,3,,,,,,,,,,,,,,,,,,,,,,,,,,,,,,,,,,,,,,,,,,,,,,,787.671789201002,None,787.671789201002,None,787.671789201002,None,s,0,0.6790674429976207,789.2220520490009,None,789.2220520490009,None,789.2220520490009,None,789.9551793060018,None,789.9551793060018,None,789.9551793060018,None,789.9551793060018,None,,,,,,,,,,,,,,,,,,,,,,,,,,,,,,,,,,,,,,,,,,,,001,113,2020_Feb_11_1525,spring_faces,3.1.5,60.159457574864824,
condition files/Stage2_1.xlsx,,B4,T4,r,"['s', 'r']","['Stratego', 'Risk']","[-0.15, 0.5]","[0.15, 0.5]",1,1,,,,,,,,,,,,,,,,,0,0,0,0,0,3,3,5,,,,,,,,,,,,,,,,,,,,,,,,,,,,,,,,,,,,,,,,,,,,,,,791.9218247220015,None,791.9218247220015,None,791.9218247220015,None,r,1,1.1157626479980536,793.4572974930015,None,793.4572974930015,None,793.4572974930015,None,794.638881654002,None,794.638881654002,None,794.638881654002,None,794.638881654002,None,,,,,,,,,,,,,,,,,,,,,,,,,,,,,,,,,,,,,,,,,,,,001,113,2020_Feb_11_1525,spring_faces,3.1.5,60.159457574864824,
condition files/Stage2_1.xlsx,,T5,B5,s,"['s', 'r']","['Stratego', 'Risk']","[-0.15, 0.5]","[0.15, 0.5]",1,1,,,,,,,,,,,,,,,,,0,0,0,0,0,4,4,0,,,,,,,,,,,,,,,,,,,,,,,,,,,,,,,,,,,,,,,,,,,,,,,796.6052181190025,None,796.6052181190025,None,796.6052181190025,None,r,0,0.7551853049990314,798.137954126003,None,798.137954126003,None,798.137954126003,None,798.9570494720028,None,798.9570494720028,None,798.9570494720028,None,798.9570494720028,None,,,,,,,,,,,,,,,,,,,,,,,,,,,,,,,,,,,,,,,,,,,,001,113,2020_Feb_11_1525,spring_faces,3.1.5,60.159457574864824,
condition files/Stage2_1.xlsx,,T1,B1,s,"['s', 'r']","['Stratego', 'Risk']","[-0.15, 0.5]","[0.15, 0.5]",1,1,,,,,,,,,,,,,,,,,0,0,0,0,0,5,5,2,,,,,,,,,,,,,,,,,,,,,,,,,,,,,,,,,,,,,,,,,,,,,,,800.9218592739999,None,800.9218592739999,None,800.9218592739999,None,s,1,0.6146889960000408,802.454439496003,None,802.454439496003,None,802.454439496003,None,803.1221316629999,None,803.1221316629999,None,803.1221316629999,None,803.1221316629999,None,,,,,,,,,,,,,,,,,,,,,,,,,,,,,,,,,,,,,,,,,,,,001,113,2020_Feb_11_1525,spring_faces,3.1.5,60.159457574864824,
condition files/Stage2_2.xlsx,,B3,T3,s,"['s', 'r']","['Stratego', 'Risk']","[-0.15, 0.5]","[0.15, 0.5]",1,1,,,,,,,,,,,,,,,,,0,1,1,1,0,0,0,4,,,,,,,,,,,,,,,,,,,,,,,,,,,,,,,,,,,,,,,,,,,,,,,805.1055815680011,None,805.1055815680011,None,805.1055815680011,None,r,0,0.5257105130003765,806.6554712690013,None,806.6554712690013,None,806.6554712690013,None,807.2386490410026,None,807.2386490410026,None,807.2386490410026,None,807.2386490410026,None,,,,,,,,,,,,,,,,,,,,,,,,,,,,,,,,,,,,,,,,,,,,001,113,2020_Feb_11_1525,spring_faces,3.1.5,60.159457574864824,
condition files/Stage2_2.xlsx,,B1,T1,s,"['s', 'r']","['Stratego', 'Risk']","[-0.15, 0.5]","[0.15, 0.5]",1,1,,,,,,,,,,,,,,,,,0,1,1,1,0,1,1,2,,,,,,,,,,,,,,,,,,,,,,,,,,,,,,,,,,,,,,,,,,,,,,,809.2047649640008,None,809.2047649640008,None,809.2047649640008,None,s,1,0.41016821899756906,810.7390394380018,None,810.7390394380018,None,810.7390394380018,None,811.2047276430021,None,811.2047276430021,None,811.2047276430021,None,811.2047276430021,None,,,,,,,,,,,,,,,,,,,,,,,,,,,,,,,,,,,,,,,,,,,,001,113,2020_Feb_11_1525,spring_faces,3.1.5,60.159457574864824,
condition files/Stage2_2.xlsx,,T2,B2,r,"['s', 'r']","['Stratego', 'Risk']","[-0.15, 0.5]","[0.15, 0.5]",1,1,,,,,,,,,,,,,,,,,0,1,1,1,0,2,2,3,,,,,,,,,,,,,,,,,,,,,,,,,,,,,,,,,,,,,,,,,,,,,,,813.1720988030029,None,813.1720988030029,None,813.1720988030029,None,s,0,0.3801711849991989,814.7052308519997,None,814.7052308519997,None,814.7052308519997,None,815.1404581080023,None,815.1404581080023,None,815.1404581080023,None,815.1404581080023,None,,,,,,,,,,,,,,,,,,,,,,,,,,,,,,,,,,,,,,,,,,,,001,113,2020_Feb_11_1525,spring_faces,3.1.5,60.159457574864824,
condition files/Stage2_2.xlsx,,T4,B4,r,"['s', 'r']","['Stratego', 'Risk']","[-0.15, 0.5]","[0.15, 0.5]",1,1,,,,,,,,,,,,,,,,,0,1,1,1,0,3,3,5,,,,,,,,,,,,,,,,,,,,,,,,,,,,,,,,,,,,,,,,,,,,,,,817.1052678610031,None,817.1052678610031,None,817.1052678610031,None,r,1,1.1002371920003498,818.6408968620017,None,818.6408968620017,None,818.6408968620017,None,819.8053203260024,None,819.8053203260024,None,819.8053203260024,None,819.8053203260024,None,,,,,,,,,,,,,,,,,,,,,,,,,,,,,,,,,,,,,,,,,,,,001,113,2020_Feb_11_1525,spring_faces,3.1.5,60.159457574864824,
condition files/Stage2_2.xlsx,,B5,T5,s,"['s', 'r']","['Stratego', 'Risk']","[-0.15, 0.5]","[0.15, 0.5]",1,1,,,,,,,,,,,,,,,,,0,1,1,1,0,4,4,0,,,,,,,,,,,,,,,,,,,,,,,,,,,,,,,,,,,,,,,,,,,,,,,821.7717864780025,None,821.7717864780025,None,821.7717864780025,None,s,1,1.5875088520006102,823.305609099003,None,823.305609099003,None,823.305609099003,None,824.9722788750005,None,824.9722788750005,None,824.9722788750005,None,824.9722788750005,None,,,,,,,,,,,,,,,,,,,,,,,,,,,,,,,,,,,,,,,,,,,,001,113,2020_Feb_11_1525,spring_faces,3.1.5,60.159457574864824,
condition files/Stage2_2.xlsx,,T6,B6,r,"['s', 'r']","['Stratego', 'Risk']","[-0.15, 0.5]","[0.15, 0.5]",1,1,,,,,,,,,,,,,,,,,0,1,1,1,0,5,5,1,,,,,,,,,,,,,,,,,,,,,,,,,,,,,,,,,,,,,,,,,,,,,,,826.921596147,None,826.921596147,None,826.921596147,None,r,1,0.7746841429980122,828.4545273770018,None,828.4545273770018,None,828.4545273770018,None,829.2895173329998,None,829.2895173329998,None,829.2895173329998,None,829.2895173329998,None,,,,,,,,,,,,,,,,,,,,,,,,,,,,,,,,,,,,,,,,,,,,001,113,2020_Feb_11_1525,spring_faces,3.1.5,60.159457574864824,
condition files/Stage2_1.xlsx,,T5,B5,s,"['s', 'r']","['Stratego', 'Risk']","[-0.15, 0.5]","[0.15, 0.5]",1,1,,,,,,,,,,,,,,,,,0,2,2,2,0,0,0,0,,,,,,,,,,,,,,,,,,,,,,,,,,,,,,,,,,,,,,,,,,,,,,,831.2718014370002,None,831.2718014370002,None,831.2718014370002,None,s,1,0.9678262540001015,832.8052603070028,None,832.8052603070028,None,832.8052603070028,None,833.8547833840021,None,833.8547833840021,None,833.8547833840021,None,833.8547833840021,None,,,,,,,,,,,,,,,,,,,,,,,,,,,,,,,,,,,,,,,,,,,,001,113,2020_Feb_11_1525,spring_faces,3.1.5,60.159457574864824,
condition files/Stage2_1.xlsx,,B4,T4,r,"['s', 'r']","['Stratego', 'Risk']","[-0.15, 0.5]","[0.15, 0.5]",1,1,,,,,,,,,,,,,,,,,0,2,2,2,0,1,1,5,,,,,,,,,,,,,,,,,,,,,,,,,,,,,,,,,,,,,,,,,,,,,,,835.8043808639995,None,835.8043808639995,None,835.8043808639995,None,r,1,0.5777035789978981,837.3394223700016,None,837.3394223700016,None,837.3394223700016,None,837.9883612459998,None,837.9883612459998,None,837.9883612459998,None,837.9883612459998,None,,,,,,,,,,,,,,,,,,,,,,,,,,,,,,,,,,,,,,,,,,,,001,113,2020_Feb_11_1525,spring_faces,3.1.5,60.159457574864824,
condition files/Stage2_1.xlsx,,B6,T6,r,"['s', 'r']","['Stratego', 'Risk']","[-0.15, 0.5]","[0.15, 0.5]",1,1,,,,,,,,,,,,,,,,,0,2,2,2,0,2,2,1,,,,,,,,,,,,,,,,,,,,,,,,,,,,,,,,,,,,,,,,,,,,,,,839.938466312,None,839.938466312,None,839.938466312,None,r,1,1.9793047759994806,841.4738206080001,None,841.4738206080001,None,841.4738206080001,None,843.5048185550004,None,843.5048185550004,None,843.5048185550004,None,843.5048185550004,None,,,,,,,,,,,,,,,,,,,,,,,,,,,,,,,,,,,,,,,,,,,,001,113,2020_Feb_11_1525,spring_faces,3.1.5,60.159457574864824,
condition files/Stage2_1.xlsx,,B2,T2,r,"['s', 'r']","['Stratego', 'Risk']","[-0.15, 0.5]","[0.15, 0.5]",1,1,,,,,,,,,,,,,,,,,0,2,2,2,0,3,3,3,,,,,,,,,,,,,,,,,,,,,,,,,,,,,,,,,,,,,,,,,,,,,,,845.4718898650026,None,845.4718898650026,None,845.4718898650026,None,r,1,1.1348396930006857,847.0063083550012,None,847.0063083550012,None,847.0063083550012,None,848.2052089950012,None,848.2052089950012,None,848.2052089950012,None,848.2052089950012,None,,,,,,,,,,,,,,,,,,,,,,,,,,,,,,,,,,,,,,,,,,,,001,113,2020_Feb_11_1525,spring_faces,3.1.5,60.159457574864824,
condition files/Stage2_1.xlsx,,T1,B1,s,"['s', 'r']","['Stratego', 'Risk']","[-0.15, 0.5]","[0.15, 0.5]",1,1,,,,,,,,,,,,,,,,,0,2,2,2,0,4,4,2,,,,,,,,,,,,,,,,,,,,,,,,,,,,,,,,,,,,,,,,,,,,,,,850.1715566940002,None,850.1715566940002,None,850.1715566940002,None,s,1,1.6838149590003013,851.7053087960012,None,851.7053087960012,None,851.7053087960012,None,853.4554565850012,None,853.4554565850012,None,853.4554565850012,None,853.4554565850012,None,,,,,,,,,,,,,,,,,,,,,,,,,,,,,,,,,,,,,,,,,,,,001,113,2020_Feb_11_1525,spring_faces,3.1.5,60.159457574864824,
condition files/Stage2_1.xlsx,,T3,B3,s,"['s', 'r']","['Stratego', 'Risk']","[-0.15, 0.5]","[0.15, 0.5]",1,1,,,,,,,,,,,,,,,,,0,2,2,2,0,5,5,4,,,,,,,,,,,,,,,,,,,,,,,,,,,,,,,,,,,,,,,,,,,,,,,855.4218167120016,None,855.4218167120016,None,855.4218167120016,None,r,0,1.13708074600072,856.9560655679998,None,856.9560655679998,None,856.9560655679998,None,858.1551163650001,None,858.1551163650001,None,858.1551163650001,None,858.1551163650001,None,,,,,,,,,,,,,,,,,,,,,,,,,,,,,,,,,,,,,,,,,,,,001,113,2020_Feb_11_1525,spring_faces,3.1.5,60.159457574864824,
condition files/Stage2_2.xlsx,,B5,T5,s,"['s', 'r']","['Stratego', 'Risk']","[-0.15, 0.5]","[0.15, 0.5]",1,1,,,,,,,,,,,,,,,,,0,3,3,3,0,0,0,0,,,,,,,,,,,,,,,,,,,,,,,,,,,,,,,,,,,,,,,,,,,,,,,860.1389695480029,None,860.1389695480029,None,860.1389695480029,None,r,0,0.916026229999261,861.673074448001,None,861.673074448001,None,861.673074448001,None,862.6552630110018,None,862.6552630110018,None,862.6552630110018,None,862.6552630110018,None,,,,,,,,,,,,,,,,,,,,,,,,,,,,,,,,,,,,,,,,,,,,001,113,2020_Feb_11_1525,spring_faces,3.1.5,60.159457574864824,
condition files/Stage2_2.xlsx,,B3,T3,s,"['s', 'r']","['Stratego', 'Risk']","[-0.15, 0.5]","[0.15, 0.5]",1,1,,,,,,,,,,,,,,,,,0,3,3,3,0,1,1,4,,,,,,,,,,,,,,,,,,,,,,,,,,,,,,,,,,,,,,,,,,,,,,,864.6214758450005,None,864.6214758450005,None,864.6214758450005,None,s,1,1.2011103990007541,866.1720119900019,None,866.1720119900019,None,866.1720119900019,None,867.4385611979997,None,867.4385611979997,None,867.4385611979997,None,867.4385611979997,None,,,,,,,,,,,,,,,,,,,,,,,,,,,,,,,,,,,,,,,,,,,,001,113,2020_Feb_11_1525,spring_faces,3.1.5,60.159457574864824,
condition files/Stage2_2.xlsx,,T2,B2,r,"['s', 'r']","['Stratego', 'Risk']","[-0.15, 0.5]","[0.15, 0.5]",1,1,,,,,,,,,,,,,,,,,0,3,3,3,0,2,2,3,,,,,,,,,,,,,,,,,,,,,,,,,,,,,,,,,,,,,,,,,,,,,,,869.4048015810004,None,869.4048015810004,None,869.4048015810004,None,r,1,0.9617493369987642,870.9553475200009,None,870.9553475200009,None,870.9553475200009,None,871.9886592220028,None,871.9886592220028,None,871.9886592220028,None,871.9886592220028,None,,,,,,,,,,,,,,,,,,,,,,,,,,,,,,,,,,,,,,,,,,,,001,113,2020_Feb_11_1525,spring_faces,3.1.5,60.159457574864824,
condition files/Stage2_2.xlsx,,T6,B6,r,"['s', 'r']","['Stratego', 'Risk']","[-0.15, 0.5]","[0.15, 0.5]",1,1,,,,,,,,,,,,,,,,,0,3,3,3,0,3,3,1,,,,,,,,,,,,,,,,,,,,,,,,,,,,,,,,,,,,,,,,,,,,,,,873.9386503530004,None,873.9386503530004,None,873.9386503530004,None,r,1,0.8447866150017944,875.4723209550029,None,875.4723209550029,None,875.4723209550029,None,876.371292529002,None,876.371292529002,None,876.371292529002,None,876.371292529002,None,,,,,,,,,,,,,,,,,,,,,,,,,,,,,,,,,,,,,,,,,,,,001,113,2020_Feb_11_1525,spring_faces,3.1.5,60.159457574864824,
condition files/Stage2_2.xlsx,,B1,T1,s,"['s', 'r']","['Stratego', 'Risk']","[-0.15, 0.5]","[0.15, 0.5]",1,1,,,,,,,,,,,,,,,,,0,3,3,3,0,4,4,2,,,,,,,,,,,,,,,,,,,,,,,,,,,,,,,,,,,,,,,,,,,,,,,878.3385877830005,None,878.3385877830005,None,878.3385877830005,None,r,0,1.194735386998218,879.8744501399997,None,879.8744501399997,None,879.8744501399997,None,881.124670276,None,881.124670276,None,881.124670276,None,881.124670276,None,,,,,,,,,,,,,,,,,,,,,,,,,,,,,,,,,,,,,,,,,,,,001,113,2020_Feb_11_1525,spring_faces,3.1.5,60.159457574864824,
condition files/Stage2_2.xlsx,,T4,B4,r,"['s', 'r']","['Stratego', 'Risk']","[-0.15, 0.5]","[0.15, 0.5]",1,1,,,,,,,,,,,,,,,,,0,3,3,3,0,5,5,5,,,,,,,,,,,,,,,,,,,,,,,,,,,,,,,,,,,,,,,,,,,,,,,883.0885865110031,None,883.0885865110031,None,883.0885865110031,None,s,0,0.557555035000405,884.623651209,None,884.623651209,None,884.623651209,None,885.2406236710012,None,885.2406236710012,None,885.2406236710012,None,885.2406236710012,None,,,,,,,,,,,,,,,,,,,,,,,,,,,,,,,,,,,,,,,,,,,,001,113,2020_Feb_11_1525,spring_faces,3.1.5,60.159457574864824,
condition files/Stage2_1.xlsx,,B4,T4,r,"['s', 'r']","['Stratego', 'Risk']","[-0.15, 0.5]","[0.15, 0.5]",1,1,,,,,,,,,,,,,,,,,0,4,4,4,0,0,0,5,,,,,,,,,,,,,,,,,,,,,,,,,,,,,,,,,,,,,,,,,,,,,,,887.2217421400019,None,887.2217421400019,None,887.2217421400019,None,r,1,0.40905897799893864,888.7721338280026,None,888.7721338280026,None,888.7721338280026,None,889.2384529800001,None,889.2384529800001,None,889.2384529800001,None,889.2384529800001,None,,,,,,,,,,,,,,,,,,,,,,,,,,,,,,,,,,,,,,,,,,,,001,113,2020_Feb_11_1525,spring_faces,3.1.5,60.159457574864824,
condition files/Stage2_1.xlsx,,B2,T2,r,"['s', 'r']","['Stratego', 'Risk']","[-0.15, 0.5]","[0.15, 0.5]",1,1,,,,,,,,,,,,,,,,,0,4,4,4,0,1,1,3,,,,,,,,,,,,,,,,,,,,,,,,,,,,,,,,,,,,,,,,,,,,,,,891.2048810180022,None,891.2048810180022,None,891.2048810180022,None,r,1,0.7460298530022555,892.739373735003,None,892.739373735003,None,892.739373735003,None,893.5383086210022,None,893.5383086210022,None,893.5383086210022,None,893.5383086210022,None,,,,,,,,,,,,,,,,,,,,,,,,,,,,,,,,,,,,,,,,,,,,001,113,2020_Feb_11_1525,spring_faces,3.1.5,60.159457574864824,
