condsFile,subStage,cue1,cue2,correct,responseKeys,responseNames,cue1Position,cue2Position,cue1Opacity,cue2Opacity,stageLoop0.thisRepN,stageLoop0.thisTrialN,stageLoop0.thisN,stageLoop0.thisIndex,blockLoop0.thisRepN,blockLoop0.thisTrialN,blockLoop0.thisN,blockLoop0.thisIndex,stage1Loop.thisRepN,stage1Loop.thisTrialN,stage1Loop.thisN,stage1Loop.thisIndex,blockLoop1.thisRepN,blockLoop1.thisTrialN,blockLoop1.thisN,blockLoop1.thisIndex,stage2Loop.thisRepN,stage2Loop.thisTrialN,stage2Loop.thisN,stage2Loop.thisIndex,blockLoop2.thisRepN,blockLoop2.thisTrialN,blockLoop2.thisN,blockLoop2.thisIndex,testLoop.thisRepN,testLoop.thisTrialN,testLoop.thisN,testLoop.thisIndex,blockLoopTest.thisRepN,blockLoopTest.thisTrialN,blockLoopTest.thisN,blockLoopTest.thisIndex,cuePics,id_instr_text.started,id_instr_text.stopped,space_to_continue_2.started,space_to_continue_2.stopped,end_instructions_resp_3.keys,end_instructions_resp_3.rt,end_instructions_resp_3.started,end_instructions_resp_3.stopped,id_input_instr.started,id_input_instr.stopped,id_input_rect.started,id_input_rect.stopped,id_input_resp.keys,id_input_resp.rt,id_input_resp.started,id_input_resp.stopped,sonaID,id_input_text.started,id_input_text.stopped,final_text.started,final_text.stopped,instructions.started,instructions.stopped,end_instructions_resp.keys,end_instructions_resp.rt,end_instructions_resp.started,end_instructions_resp.stopped,space_to_continue.started,space_to_continue.stopped,instructions_stage0.started,instructions_stage0.stopped,end_instructions_resp_stage0.keys,end_instructions_resp_stage0.rt,end_instructions_resp_stage0.started,end_instructions_resp_stage0.stopped,space_to_continue_stage0.started,space_to_continue_stage0.stopped,text.started,text.stopped,resp_text1.started,resp_text1.stopped,resp_text2.started,resp_text2.stopped,trial_resp.keys,trial_resp.corr,trial_resp.rt,trial_resp.started,trial_resp.stopped,cue1Image.started,cue1Image.stopped,cue2Image.started,cue2Image.stopped,cue1Image_fb.started,cue1Image_fb.stopped,cue2Image_fb.started,cue2Image_fb.stopped,fb_text_answer.started,fb_text_answer.stopped,feedback_image.started,feedback_image.stopped,instructions_stage1.started,instructions_stage1.stopped,end_instructions_resp_stage1.keys,end_instructions_resp_stage1.rt,end_instructions_resp_stage1.started,end_instructions_resp_stage1.stopped,space_to_continue_stage1.started,space_to_continue_stage1.stopped,instructions_2.started,instructions_2.stopped,end_instructions_resp_2.keys,end_instructions_resp_2.rt,end_instructions_resp_2.started,end_instructions_resp_2.stopped,press_space_to_continue_stage2.started,press_space_to_continue_stage2.stopped,instructions_testStage1.started,instructions_testStage1.stopped,end_instructions_resp_test1.keys,end_instructions_resp_test1.rt,end_instructions_resp_test1.started,end_instructions_resp_test1.stopped,press_space_to_continue_test1.started,press_space_to_continue_test1.stopped,cue1Image_testChoice.started,cue1Image_testChoice.stopped,cue2Image_testChoice.started,cue2Image_testChoice.stopped,test_resp.keys,test_resp.corr,test_resp.rt,test_resp.started,test_resp.stopped,cue1Image_testConf.started,cue1Image_testConf.stopped,cue2Image_testConf.started,cue2Image_testConf.stopped,conf_reminder.started,conf_reminder.stopped,conf_rating.response,conf_rating.rt,conf_rating.started,conf_rating.stopped,session,participant,date,expName,psychopyVersion,frameRate,
,,,,,,,,,,,,,,,,,,,,,,,,,,,,,,,,,,,,,,,,,,,"{'none': 'pictures/20M_AN_C.png', 'alpha': 'pictures/SHINEd_apple.png', 'beta': 'pictures/SHINEd_pear.png', 'theta': 'pictures/SHINEd_pepper.png', 'phi': 'pictures/SHINEd_melon.png', 'T1': 'pictures/23M_AN_C.png', 'T2': 'pictures/22M_AN_C.png', 'T3': 'pictures/34M_AN_C.png', 'T4': 'pictures/20M_AN_C.png', 'T5': 'pictures/37M_AN_C.png', 'T6': 'pictures/36M_AN_C.png', 'B1': 'pictures/26M_NE_C.png', 'B2': 'pictures/25M_NE_C.png', 'B3': 'pictures/38M_NE_C.png', 'B4': 'pictures/32M_NE_C.png', 'B5': 'pictures/31M_NE_C.png', 'B6': 'pictures/33M_NE_C.png'}",11.805182336999678,None,16.788515767999797,None,space,7.1356991769998785,16.788515767999797,None,,,,,,,,,,,,,,,,,,,,,,,,,,,,,,,,,,,,,,,,,,,,,,,,,,,,,,,,,,,,,,,,,,,,,,,,,,,,,,,,,,,,,,,,,,,,,,,,001,116,2020_Feb_13_1006,spring_faces,3.2.3,59.98948828184386,
,,,,,,,,,,,,,,,,,,,,,,,,,,,,,,,,,,,,,,,,,,,,,,,,,,,,24.421018635999644,None,24.421018635999644,None,"['0', '3', '2', '8', 'q', 'backspace', 'a', 'l', 'b', 'i', 'h', 'backspace', '0', '3', '2', '8', 'a', 'l', 'b', 'i', 's', 'h', 'backspace', '0', '3', '2', '8', 'a', 'l', 'g', 'o', 'r']","[10.927415385000131, 11.183461329000238, 15.935296885999833, 16.735300175000248, 21.75938895199988, 22.91138811000019, 24.415375469000082, 24.86332471700007, 31.663319345000218, 32.09539680499984, 32.55938666500015, 33.071394456000235, 44.15939635699988, 44.575337047000176, 45.77537337400008, 46.19136813100022, 47.02336831999992, 47.439370985000096, 48.19136766600013, 48.55938368299985, 48.94339493799998, 49.23138982899991, 57.10328592399992, 59.74340047299984, 60.14338684099994, 61.45536390400002, 61.98348456700023, 67.10328794899988, 67.951294599, 68.89539938400003, 69.26332543599983, 70.06332440300002]",24.421018635999644,None,,,,,,,,,,,,,,,,,,,,,,,,,,,,,,,,,,,,,,,,,,,,,,,,,,,,,,,,,,,,,,,,,,,,,,,,,,,,,,,,,,,,,,,,001,116,2020_Feb_13_1006,spring_faces,3.2.3,59.98948828184386,
,,,,,,,,,,,,,,,,,,,,,,,,,,,,,,,,,,,,,,,,,,,,,,,,,,,,,,,,,,,,0328algor,24.421018635999644,None,24.421018635999644,None,99.538520221,None,space,1.3705279989999326,104.52183103700008,None,,,,,,,,,,,,,,,,,,,,,,,,,,,,,,,,,,,,,,,,,,,,,,,,,,,,,,,,,,,,,,,,,,,,,,,,,,,,,001,116,2020_Feb_13_1006,spring_faces,3.2.3,59.98948828184386,
,,,,,,,,,,,,,,,,,,,,,,,,,,,,,,,,,,,,,,,,,,,,,,,,,,,,,,,,,,,,,,,,,,,,,,,104.52183103700008,None,105.92186232699987,None,space,3.1152927560001444,110.90517435599986,None,,,,,,,,,,,,,,,,,,,,,,,,,,,,,,,,,,,,,,,,,,,,,,,,,,,,,,,,,,,,,,,,,,,,,001,116,2020_Feb_13_1006,spring_faces,3.2.3,59.98948828184386,
condition files/Stage0a.xlsx,0a,beta,none,g,"['h', 'g']","['Chess', 'Go']","[0, 0.5]","[0, 0]",1,0,0,0,0,0,0,0,0,1,,,,,,,,,,,,,,,,,,,,,,,,,,,,,,,,,,,,,,,,,,,,,,,,,,,,,,,,,,,,,110.90517435599986,None,114.40513963400008,None,114.40513963400008,None,114.40513963400008,None,g,1,2.248137977999704,115.8043400849997,None,115.8043400849997,None,115.8043400849997,None,118.15515584399964,None,118.15515584399964,None,118.15515584399964,None,118.15515584399964,None,,,,,,,,,,,,,,,,,,,,,,,,,,,,,,,,,,,,,,,,,,,,001,116,2020_Feb_13_1006,spring_faces,3.2.3,59.98948828184386,
condition files/Stage0a.xlsx,0a,alpha,none,h,"['h', 'g']","['Chess', 'Go']","[0, 0.5]","[0, 0]",1,0,0,0,0,0,0,1,1,0,,,,,,,,,,,,,,,,,,,,,,,,,,,,,,,,,,,,,,,,,,,,,,,,,,,,,,,,,,,,,,,120.08850018699968,None,120.08850018699968,None,120.08850018699968,None,g,0,1.6466363690001344,121.62179877399967,None,121.62179877399967,None,121.62179877399967,None,123.33850293599971,None,123.33850293599971,None,123.33850293599971,None,123.33850293599971,None,,,,,,,,,,,,,,,,,,,,,,,,,,,,,,,,,,,,,,,,,,,,001,116,2020_Feb_13_1006,spring_faces,3.2.3,59.98948828184386,
condition files/Stage0a.xlsx,0a,alpha,none,h,"['h', 'g']","['Chess', 'Go']","[0, 0.5]","[0, 0]",1,0,0,1,1,1,0,0,0,0,,,,,,,,,,,,,,,,,,,,,,,,,,,,,,,,,,,,,,,,,,,,,,,,,,,,,,,,,,,,,,,125.32184326700008,None,125.32184326700008,None,125.32184326700008,None,h,1,1.1171604500000285,126.85519014800002,None,126.85519014800002,None,126.85519014800002,None,128.03847373100007,None,128.03847373100007,None,128.03847373100007,None,128.03847373100007,None,,,,,,,,,,,,,,,,,,,,,,,,,,,,,,,,,,,,,,,,,,,,001,116,2020_Feb_13_1006,spring_faces,3.2.3,59.98948828184386,
condition files/Stage0a.xlsx,0a,beta,none,g,"['h', 'g']","['Chess', 'Go']","[0, 0.5]","[0, 0]",1,0,0,1,1,1,0,1,1,1,,,,,,,,,,,,,,,,,,,,,,,,,,,,,,,,,,,,,,,,,,,,,,,,,,,,,,,,,,,,,,,130.02186698199966,None,130.02186698199966,None,130.02186698199966,None,g,1,0.8011145579998811,131.55517467399977,None,131.55517467399977,None,131.55517467399977,None,132.43851276799978,None,132.43851276799978,None,132.43851276799978,None,132.43851276799978,None,,,,,,,,,,,,,,,,,,,,,,,,,,,,,,,,,,,,,,,,,,,,001,116,2020_Feb_13_1006,spring_faces,3.2.3,59.98948828184386,
condition files/Stage0a.xlsx,0a,alpha,none,h,"['h', 'g']","['Chess', 'Go']","[0, 0.5]","[0, 0]",1,0,0,2,2,2,0,0,0,0,,,,,,,,,,,,,,,,,,,,,,,,,,,,,,,,,,,,,,,,,,,,,,,,,,,,,,,,,,,,,,,134.42179601399994,None,134.42179601399994,None,134.42179601399994,None,h,1,0.7531870120001258,135.95518015800008,None,135.95518015800008,None,135.95518015800008,None,136.7885250899999,None,136.7885250899999,None,136.7885250899999,None,136.7885250899999,None,,,,,,,,,,,,,,,,,,,,,,,,,,,,,,,,,,,,,,,,,,,,001,116,2020_Feb_13_1006,spring_faces,3.2.3,59.98948828184386,
condition files/Stage0a.xlsx,0a,beta,none,g,"['h', 'g']","['Chess', 'Go']","[0, 0.5]","[0, 0]",1,0,0,2,2,2,0,1,1,1,,,,,,,,,,,,,,,,,,,,,,,,,,,,,,,,,,,,,,,,,,,,,,,,,,,,,,,,,,,,,,,138.75518847800004,None,138.75518847800004,None,138.75518847800004,None,g,1,1.8118518729997959,140.28853874700008,None,140.28853874700008,None,140.28853874700008,None,142.17189383100003,None,142.17189383100003,None,142.17189383100003,None,142.17189383100003,None,,,,,,,,,,,,,,,,,,,,,,,,,,,,,,,,,,,,,,,,,,,,001,116,2020_Feb_13_1006,spring_faces,3.2.3,59.98948828184386,
condition files/Stage0a.xlsx,0a,beta,none,g,"['h', 'g']","['Chess', 'Go']","[0, 0.5]","[0, 0]",1,0,0,3,3,3,0,0,0,1,,,,,,,,,,,,,,,,,,,,,,,,,,,,,,,,,,,,,,,,,,,,,,,,,,,,,,,,,,,,,,,144.1551885419999,None,144.1551885419999,None,144.1551885419999,None,g,1,5.4998841869996795,145.6885376289997,None,145.6885376289997,None,145.6885376289997,None,151.23850320199972,None,151.23850320199972,None,151.23850320199972,None,151.23850320199972,None,,,,,,,,,,,,,,,,,,,,,,,,,,,,,,,,,,,,,,,,,,,,001,116,2020_Feb_13_1006,spring_faces,3.2.3,59.98948828184386,
condition files/Stage0a.xlsx,0a,alpha,none,h,"['h', 'g']","['Chess', 'Go']","[0, 0.5]","[0, 0]",1,0,0,3,3,3,0,1,1,0,,,,,,,,,,,,,,,,,,,,,,,,,,,,,,,,,,,,,,,,,,,,,,,,,,,,,,,,,,,,,,,153.2217815009999,None,153.2217815009999,None,153.2217815009999,None,h,1,1.985013864999928,154.75524648200008,None,154.75524648200008,None,154.75524648200008,None,156.82178958199984,None,156.82178958199984,None,156.82178958199984,None,156.82178958199984,None,,,,,,,,,,,,,,,,,,,,,,,,,,,,,,,,,,,,,,,,,,,,001,116,2020_Feb_13_1006,spring_faces,3.2.3,59.98948828184386,
condition files/Stage0a.xlsx,0a,beta,none,g,"['h', 'g']","['Chess', 'Go']","[0, 0.5]","[0, 0]",1,0,0,4,4,4,0,0,0,1,,,,,,,,,,,,,,,,,,,,,,,,,,,,,,,,,,,,,,,,,,,,,,,,,,,,,,,,,,,,,,,158.80512404299998,None,158.80512404299998,None,158.80512404299998,None,g,1,1.10585730899993,160.33851386900005,None,160.33851386900005,None,160.33851386900005,None,161.5218435329998,None,161.5218435329998,None,161.5218435329998,None,161.5218435329998,None,,,,,,,,,,,,,,,,,,,,,,,,,,,,,,,,,,,,,,,,,,,,001,116,2020_Feb_13_1006,spring_faces,3.2.3,59.98948828184386,
condition files/Stage0a.xlsx,0a,alpha,none,h,"['h', 'g']","['Chess', 'Go']","[0, 0.5]","[0, 0]",1,0,0,4,4,4,0,1,1,0,,,,,,,,,,,,,,,,,,,,,,,,,,,,,,,,,,,,,,,,,,,,,,,,,,,,,,,,,,,,,,,163.48850067800004,None,163.48850067800004,None,163.48850067800004,None,h,1,0.8385095180001372,165.02184771699967,None,165.02184771699967,None,165.02184771699967,None,165.93850584899974,None,165.93850584899974,None,165.93850584899974,None,165.93850584899974,None,,,,,,,,,,,,,,,,,,,,,,,,,,,,,,,,,,,,,,,,,,,,001,116,2020_Feb_13_1006,spring_faces,3.2.3,59.98948828184386,
condition files/Stage0a.xlsx,0a,alpha,none,h,"['h', 'g']","['Chess', 'Go']","[0, 0.5]","[0, 0]",1,0,0,5,5,5,0,0,0,0,,,,,,,,,,,,,,,,,,,,,,,,,,,,,,,,,,,,,,,,,,,,,,,,,,,,,,,,,,,,,,,167.92183288299975,None,167.92183288299975,None,167.92183288299975,None,h,1,1.8291032209999685,169.45519790199978,None,169.45519790199978,None,169.45519790199978,None,171.33852530099966,None,171.33852530099966,None,171.33852530099966,None,171.33852530099966,None,,,,,,,,,,,,,,,,,,,,,,,,,,,,,,,,,,,,,,,,,,,,001,116,2020_Feb_13_1006,spring_faces,3.2.3,59.98948828184386,
condition files/Stage0a.xlsx,0a,beta,none,g,"['h', 'g']","['Chess', 'Go']","[0, 0.5]","[0, 0]",1,0,0,5,5,5,0,1,1,1,,,,,,,,,,,,,,,,,,,,,,,,,,,,,,,,,,,,,,,,,,,,,,,,,,,,,,,,,,,,,,,173.32183513799964,None,173.32183513799964,None,173.32183513799964,None,g,1,1.7732558699999572,174.85513760599997,None,174.85513760599997,None,174.85513760599997,None,176.6885069699997,None,176.6885069699997,None,176.6885069699997,None,176.6885069699997,None,,,,,,,,,,,,,,,,,,,,,,,,,,,,,,,,,,,,,,,,,,,,001,116,2020_Feb_13_1006,spring_faces,3.2.3,59.98948828184386,
condition files/Stage0b_1.xlsx,0b,alpha,none,h,"['h', 'g']","['Chess', 'Go']","[-0.15, 0.5]","[0.15, 0.5]",1,0,0,6,6,6,0,0,0,0,,,,,,,,,,,,,,,,,,,,,,,,,,,,,,,,,,,,,,,,,,,,,,,,,,,,,,,,,,,,,,,179.00518409100005,None,179.00518409100005,None,179.00518409100005,None,h,1,1.6865172160000839,180.22184936999975,None,180.22184936999975,None,180.22184936999975,None,181.9883928649997,None,181.9883928649997,None,181.9883928649997,None,181.9883928649997,None,,,,,,,,,,,,,,,,,,,,,,,,,,,,,,,,,,,,,,,,,,,,001,116,2020_Feb_13_1006,spring_faces,3.2.3,59.98948828184386,
condition files/Stage0b_1.xlsx,0b,none,beta,g,"['h', 'g']","['Chess', 'Go']","[-0.15, 0.5]","[0.15, 0.5]",0,1,0,6,6,6,0,1,1,1,,,,,,,,,,,,,,,,,,,,,,,,,,,,,,,,,,,,,,,,,,,,,,,,,,,,,,,,,,,,,,,183.95519212699992,None,183.95519212699992,None,183.95519212699992,None,g,1,0.7245031970001037,185.4879044139998,None,185.4879044139998,None,185.4879044139998,None,186.28837273,None,186.28837273,None,186.28837273,None,186.28837273,None,,,,,,,,,,,,,,,,,,,,,,,,,,,,,,,,,,,,,,,,,,,,001,116,2020_Feb_13_1006,spring_faces,3.2.3,59.98948828184386,
condition files/Stage0b_2.xlsx,0b,none,alpha,h,"['h', 'g']","['Chess', 'Go']","[-0.15, 0.5]","[0.15, 0.5]",0,1,0,7,7,7,0,0,0,0,,,,,,,,,,,,,,,,,,,,,,,,,,,,,,,,,,,,,,,,,,,,,,,,,,,,,,,,,,,,,,,188.57136918700007,None,188.57136918700007,None,188.57136918700007,None,h,1,0.7112295530000665,189.80517290999978,None,189.80517290999978,None,189.80517290999978,None,190.57173786899966,None,190.57173786899966,None,190.57173786899966,None,190.57173786899966,None,,,,,,,,,,,,,,,,,,,,,,,,,,,,,,,,,,,,,,,,,,,,001,116,2020_Feb_13_1006,spring_faces,3.2.3,59.98948828184386,
condition files/Stage0b_2.xlsx,0b,beta,none,g,"['h', 'g']","['Chess', 'Go']","[-0.15, 0.5]","[0.15, 0.5]",1,0,0,7,7,7,0,1,1,1,,,,,,,,,,,,,,,,,,,,,,,,,,,,,,,,,,,,,,,,,,,,,,,,,,,,,,,,,,,,,,,192.55522004399973,None,192.55522004399973,None,192.55522004399973,None,g,1,0.8282078600000204,194.08819737299973,None,194.08819737299973,None,194.08819737299973,None,194.98851211200008,None,194.98851211200008,None,194.98851211200008,None,194.98851211200008,None,,,,,,,,,,,,,,,,,,,,,,,,,,,,,,,,,,,,,,,,,,,,001,116,2020_Feb_13_1006,spring_faces,3.2.3,59.98948828184386,
condition files/Stage0b_1.xlsx,0b,none,beta,g,"['h', 'g']","['Chess', 'Go']","[-0.15, 0.5]","[0.15, 0.5]",0,1,0,8,8,8,0,0,0,1,,,,,,,,,,,,,,,,,,,,,,,,,,,,,,,,,,,,,,,,,,,,,,,,,,,,,,,,,,,,,,,196.9718354339998,None,196.9718354339998,None,196.9718354339998,None,h,0,0.9551875100000871,198.50518958799967,None,198.50518958799967,None,198.50518958799967,None,199.53855399299982,None,199.53855399299982,None,199.53855399299982,None,199.53855399299982,None,,,,,,,,,,,,,,,,,,,,,,,,,,,,,,,,,,,,,,,,,,,,001,116,2020_Feb_13_1006,spring_faces,3.2.3,59.98948828184386,
condition files/Stage0b_1.xlsx,0b,alpha,none,h,"['h', 'g']","['Chess', 'Go']","[-0.15, 0.5]","[0.15, 0.5]",1,0,0,8,8,8,0,1,1,0,,,,,,,,,,,,,,,,,,,,,,,,,,,,,,,,,,,,,,,,,,,,,,,,,,,,,,,,,,,,,,,201.5052227729998,None,201.5052227729998,None,201.5052227729998,None,h,1,1.4461922999998933,203.038142075,None,203.038142075,None,203.038142075,None,204.55493810999997,None,204.55493810999997,None,204.55493810999997,None,204.55493810999997,None,,,,,,,,,,,,,,,,,,,,,,,,,,,,,,,,,,,,,,,,,,,,001,116,2020_Feb_13_1006,spring_faces,3.2.3,59.98948828184386,
condition files/Stage0b_2.xlsx,0b,beta,none,g,"['h', 'g']","['Chess', 'Go']","[-0.15, 0.5]","[0.15, 0.5]",1,0,0,9,9,9,0,0,0,1,,,,,,,,,,,,,,,,,,,,,,,,,,,,,,,,,,,,,,,,,,,,,,,,,,,,,,,,,,,,,,,206.53852089699967,None,206.53852089699967,None,206.53852089699967,None,g,1,0.9565234030001193,208.07186825999997,None,208.07186825999997,None,208.07186825999997,None,209.10517035799967,None,209.10517035799967,None,209.10517035799967,None,209.10517035799967,None,,,,,,,,,,,,,,,,,,,,,,,,,,,,,,,,,,,,,,,,,,,,001,116,2020_Feb_13_1006,spring_faces,3.2.3,59.98948828184386,
condition files/Stage0b_2.xlsx,0b,none,alpha,h,"['h', 'g']","['Chess', 'Go']","[-0.15, 0.5]","[0.15, 0.5]",0,1,0,9,9,9,0,1,1,0,,,,,,,,,,,,,,,,,,,,,,,,,,,,,,,,,,,,,,,,,,,,,,,,,,,,,,,,,,,,,,,211.07183201999987,None,211.07183201999987,None,211.07183201999987,None,h,1,0.47118818799981455,212.60517290500002,None,212.60517290500002,None,212.60517290500002,None,213.1551648069999,None,213.1551648069999,None,213.1551648069999,None,213.1551648069999,None,,,,,,,,,,,,,,,,,,,,,,,,,,,,,,,,,,,,,,,,,,,,001,116,2020_Feb_13_1006,spring_faces,3.2.3,59.98948828184386,
condition files/Stage0b_1.xlsx,0b,alpha,none,h,"['h', 'g']","['Chess', 'Go']","[-0.15, 0.5]","[0.15, 0.5]",1,0,0,10,10,10,0,0,0,0,,,,,,,,,,,,,,,,,,,,,,,,,,,,,,,,,,,,,,,,,,,,,,,,,,,,,,,,,,,,,,,215.13851885099984,None,215.13851885099984,None,215.13851885099984,None,g,0,0.46866572399994766,216.67166512999984,None,216.67166512999984,None,216.67166512999984,None,217.22161839399996,None,217.22161839399996,None,217.22161839399996,None,217.22161839399996,None,,,,,,,,,,,,,,,,,,,,,,,,,,,,,,,,,,,,,,,,,,,,001,116,2020_Feb_13_1006,spring_faces,3.2.3,59.98948828184386,
condition files/Stage0b_1.xlsx,0b,none,beta,g,"['h', 'g']","['Chess', 'Go']","[-0.15, 0.5]","[0.15, 0.5]",0,1,0,10,10,10,0,1,1,1,,,,,,,,,,,,,,,,,,,,,,,,,,,,,,,,,,,,,,,,,,,,,,,,,,,,,,,,,,,,,,,219.1885078639998,None,219.1885078639998,None,219.1885078639998,None,g,1,2.530597460000081,220.72184493799978,None,220.72184493799978,None,220.72184493799978,None,223.3218824999999,None,223.3218824999999,None,223.3218824999999,None,223.3218824999999,None,,,,,,,,,,,,,,,,,,,,,,,,,,,,,,,,,,,,,,,,,,,,001,116,2020_Feb_13_1006,spring_faces,3.2.3,59.98948828184386,
condition files/Stage0b_2.xlsx,0b,none,alpha,h,"['h', 'g']","['Chess', 'Go']","[-0.15, 0.5]","[0.15, 0.5]",0,1,0,11,11,11,0,0,0,0,,,,,,,,,,,,,,,,,,,,,,,,,,,,,,,,,,,,,,,,,,,,,,,,,,,,,,,,,,,,,,,225.30518531500002,None,225.30518531500002,None,225.30518531500002,None,h,1,0.7177688940000735,226.83853039899986,None,226.83853039899986,None,226.83853039899986,None,227.63846913499992,None,227.63846913499992,None,227.63846913499992,None,227.63846913499992,None,,,,,,,,,,,,,,,,,,,,,,,,,,,,,,,,,,,,,,,,,,,,001,116,2020_Feb_13_1006,spring_faces,3.2.3,59.98948828184386,
condition files/Stage0b_2.xlsx,0b,beta,none,g,"['h', 'g']","['Chess', 'Go']","[-0.15, 0.5]","[0.15, 0.5]",1,0,0,11,11,11,0,1,1,1,,,,,,,,,,,,,,,,,,,,,,,,,,,,,,,,,,,,,,,,,,,,,,,,,,,,,,,,,,,,,,,229.60517558899983,None,229.60517558899983,None,229.60517558899983,None,g,1,0.9301487909997377,231.1382944779998,None,231.1382944779998,None,231.1382944779998,None,232.1385593939999,None,232.1385593939999,None,232.1385593939999,None,232.1385593939999,None,,,,,,,,,,,,,,,,,,,,,,,,,,,,,,,,,,,,,,,,,,,,001,116,2020_Feb_13_1006,spring_faces,3.2.3,59.98948828184386,
condition files/Stage0c_1.xlsx,0c,alpha,phi,h,"['h', 'g']","['Chess', 'Go']","[-0.15, 0.5]","[0.15, 0.5]",1,1,0,12,12,12,0,0,0,1,,,,,,,,,,,,,,,,,,,,,,,,,,,,,,,,,,,,,,,,,,,,,,,,,,,,,,,,,,,,,,,234.42185805999998,None,234.42185805999998,None,234.42185805999998,None,h,1,2.5240206919997945,235.68834217999984,None,235.68834217999984,None,235.68834217999984,None,238.288550535,None,238.288550535,None,238.288550535,None,238.288550535,None,,,,,,,,,,,,,,,,,,,,,,,,,,,,,,,,,,,,,,,,,,,,001,116,2020_Feb_13_1006,spring_faces,3.2.3,59.98948828184386,
condition files/Stage0c_1.xlsx,0c,theta,alpha,h,"['h', 'g']","['Chess', 'Go']","[-0.15, 0.5]","[0.15, 0.5]",1,1,0,12,12,12,0,1,1,0,,,,,,,,,,,,,,,,,,,,,,,,,,,,,,,,,,,,,,,,,,,,,,,,,,,,,,,,,,,,,,,240.25518772799978,None,240.25518772799978,None,240.25518772799978,None,h,1,1.0945004019999942,241.82189343399978,None,241.82189343399978,None,241.82189343399978,None,242.97195310899997,None,242.97195310899997,None,242.97195310899997,None,242.97195310899997,None,,,,,,,,,,,,,,,,,,,,,,,,,,,,,,,,,,,,,,,,,,,,001,116,2020_Feb_13_1006,spring_faces,3.2.3,59.98948828184386,
condition files/Stage0c_1.xlsx,0c,beta,theta,g,"['h', 'g']","['Chess', 'Go']","[-0.15, 0.5]","[0.15, 0.5]",1,1,0,12,12,12,0,2,2,2,,,,,,,,,,,,,,,,,,,,,,,,,,,,,,,,,,,,,,,,,,,,,,,,,,,,,,,,,,,,,,,244.95516880199966,None,244.95516880199966,None,244.95516880199966,None,g,1,1.2758629120003206,246.48852228799979,None,246.48852228799979,None,246.48852228799979,None,247.82186128199965,None,247.82186128199965,None,247.82186128199965,None,247.82186128199965,None,,,,,,,,,,,,,,,,,,,,,,,,,,,,,,,,,,,,,,,,,,,,001,116,2020_Feb_13_1006,spring_faces,3.2.3,59.98948828184386,
condition files/Stage0c_1.xlsx,0c,phi,beta,g,"['h', 'g']","['Chess', 'Go']","[-0.15, 0.5]","[0.15, 0.5]",1,1,0,12,12,12,0,3,3,3,,,,,,,,,,,,,,,,,,,,,,,,,,,,,,,,,,,,,,,,,,,,,,,,,,,,,,,,,,,,,,,249.82185635999986,None,249.82185635999986,None,249.82185635999986,None,g,1,2.394017714000256,251.33840005000002,None,251.33840005000002,None,251.33840005000002,None,253.7885186389999,None,253.7885186389999,None,253.7885186389999,None,253.7885186389999,None,,,,,,,,,,,,,,,,,,,,,,,,,,,,,,,,,,,,,,,,,,,,001,116,2020_Feb_13_1006,spring_faces,3.2.3,59.98948828184386,
condition files/Stage0c_2.xlsx,0c,alpha,theta,h,"['h', 'g']","['Chess', 'Go']","[-0.15, 0.5]","[0.15, 0.5]",1,1,0,13,13,13,0,0,0,0,,,,,,,,,,,,,,,,,,,,,,,,,,,,,,,,,,,,,,,,,,,,,,,,,,,,,,,,,,,,,,,255.83848755999998,None,255.83848755999998,None,255.83848755999998,None,h,1,1.9306037080000351,257.3218494399998,None,257.3218494399998,None,257.3218494399998,None,259.3051819729999,None,259.3051819729999,None,259.3051819729999,None,259.3051819729999,None,,,,,,,,,,,,,,,,,,,,,,,,,,,,,,,,,,,,,,,,,,,,001,116,2020_Feb_13_1006,spring_faces,3.2.3,59.98948828184386,
condition files/Stage0c_2.xlsx,0c,phi,alpha,h,"['h', 'g']","['Chess', 'Go']","[-0.15, 0.5]","[0.15, 0.5]",1,1,0,13,13,13,0,1,1,1,,,,,,,,,,,,,,,,,,,,,,,,,,,,,,,,,,,,,,,,,,,,,,,,,,,,,,,,,,,,,,,261.2885128459998,None,261.2885128459998,None,261.2885128459998,None,h,1,1.3276666570000089,262.80472456999996,None,262.80472456999996,None,262.80472456999996,None,264.1885533569998,None,264.1885533569998,None,264.1885533569998,None,264.1885533569998,None,,,,,,,,,,,,,,,,,,,,,,,,,,,,,,,,,,,,,,,,,,,,001,116,2020_Feb_13_1006,spring_faces,3.2.3,59.98948828184386,
condition files/Stage0c_2.xlsx,0c,theta,beta,g,"['h', 'g']","['Chess', 'Go']","[-0.15, 0.5]","[0.15, 0.5]",1,1,0,13,13,13,0,2,2,2,,,,,,,,,,,,,,,,,,,,,,,,,,,,,,,,,,,,,,,,,,,,,,,,,,,,,,,,,,,,,,,266.1883765429998,None,266.1883765429998,None,266.1883765429998,None,g,1,1.2276701410000896,267.70474959600006,None,267.70474959600006,None,267.70474959600006,None,268.9885266269998,None,268.9885266269998,None,268.9885266269998,None,268.9885266269998,None,,,,,,,,,,,,,,,,,,,,,,,,,,,,,,,,,,,,,,,,,,,,001,116,2020_Feb_13_1006,spring_faces,3.2.3,59.98948828184386,
condition files/Stage0c_2.xlsx,0c,beta,phi,g,"['h', 'g']","['Chess', 'Go']","[-0.15, 0.5]","[0.15, 0.5]",1,1,0,13,13,13,0,3,3,3,,,,,,,,,,,,,,,,,,,,,,,,,,,,,,,,,,,,,,,,,,,,,,,,,,,,,,,,,,,,,,,270.9718375039997,None,270.9718375039997,None,270.9718375039997,None,g,1,1.4031765680001627,272.50516923099985,None,272.50516923099985,None,272.50516923099985,None,273.971854378,None,273.971854378,None,273.971854378,None,273.971854378,None,,,,,,,,,,,,,,,,,,,,,,,,,,,,,,,,,,,,,,,,,,,,001,116,2020_Feb_13_1006,spring_faces,3.2.3,59.98948828184386,
condition files/Stage0c_1.xlsx,0c,theta,alpha,h,"['h', 'g']","['Chess', 'Go']","[-0.15, 0.5]","[0.15, 0.5]",1,1,0,14,14,14,0,0,0,0,,,,,,,,,,,,,,,,,,,,,,,,,,,,,,,,,,,,,,,,,,,,,,,,,,,,,,,,,,,,,,,275.97185880100005,None,275.97185880100005,None,275.97185880100005,None,g,0,0.7080385949998345,277.4883614539999,None,277.4883614539999,None,277.4883614539999,None,278.25517725500004,None,278.25517725500004,None,278.25517725500004,None,278.25517725500004,None,,,,,,,,,,,,,,,,,,,,,,,,,,,,,,,,,,,,,,,,,,,,001,116,2020_Feb_13_1006,spring_faces,3.2.3,59.98948828184386,
condition files/Stage0c_1.xlsx,0c,beta,theta,g,"['h', 'g']","['Chess', 'Go']","[-0.15, 0.5]","[0.15, 0.5]",1,1,0,14,14,14,0,1,1,2,,,,,,,,,,,,,,,,,,,,,,,,,,,,,,,,,,,,,,,,,,,,,,,,,,,,,,,,,,,,,,,280.2385164929997,None,280.2385164929997,None,280.2385164929997,None,g,1,0.777384587999677,281.75503744499974,None,281.75503744499974,None,281.75503744499974,None,282.5885075729998,None,282.5885075729998,None,282.5885075729998,None,282.5885075729998,None,,,,,,,,,,,,,,,,,,,,,,,,,,,,,,,,,,,,,,,,,,,,001,116,2020_Feb_13_1006,spring_faces,3.2.3,59.98948828184386,
condition files/Stage0c_1.xlsx,0c,phi,beta,g,"['h', 'g']","['Chess', 'Go']","[-0.15, 0.5]","[0.15, 0.5]",1,1,0,14,14,14,0,2,2,3,,,,,,,,,,,,,,,,,,,,,,,,,,,,,,,,,,,,,,,,,,,,,,,,,,,,,,,,,,,,,,,284.571862537,None,284.571862537,None,284.571862537,None,g,1,1.4360749969996505,286.08827987999985,None,286.08827987999985,None,286.08827987999985,None,287.58851202200003,None,287.58851202200003,None,287.58851202200003,None,287.58851202200003,None,,,,,,,,,,,,,,,,,,,,,,,,,,,,,,,,,,,,,,,,,,,,001,116,2020_Feb_13_1006,spring_faces,3.2.3,59.98948828184386,
condition files/Stage0c_1.xlsx,0c,alpha,phi,h,"['h', 'g']","['Chess', 'Go']","[-0.15, 0.5]","[0.15, 0.5]",1,1,0,14,14,14,0,3,3,1,,,,,,,,,,,,,,,,,,,,,,,,,,,,,,,,,,,,,,,,,,,,,,,,,,,,,,,,,,,,,,,289.57169256299994,None,289.57169256299994,None,289.57169256299994,None,h,1,0.7719834469999114,291.0883771919998,None,291.0883771919998,None,291.0883771919998,None,291.9218379199997,None,291.9218379199997,None,291.9218379199997,None,291.9218379199997,None,,,,,,,,,,,,,,,,,,,,,,,,,,,,,,,,,,,,,,,,,,,,001,116,2020_Feb_13_1006,spring_faces,3.2.3,59.98948828184386,
condition files/Stage0c_2.xlsx,0c,phi,alpha,h,"['h', 'g']","['Chess', 'Go']","[-0.15, 0.5]","[0.15, 0.5]",1,1,0,15,15,15,0,0,0,1,,,,,,,,,,,,,,,,,,,,,,,,,,,,,,,,,,,,,,,,,,,,,,,,,,,,,,,,,,,,,,,293.9218590679998,None,293.9218590679998,None,293.9218590679998,None,h,1,1.045201514999917,295.4552024679997,None,295.4552024679997,None,295.4552024679997,None,296.555267187,None,296.555267187,None,296.555267187,None,296.555267187,None,,,,,,,,,,,,,,,,,,,,,,,,,,,,,,,,,,,,,,,,,,,,001,116,2020_Feb_13_1006,spring_faces,3.2.3,59.98948828184386,
condition files/Stage0c_2.xlsx,0c,alpha,theta,h,"['h', 'g']","['Chess', 'Go']","[-0.15, 0.5]","[0.15, 0.5]",1,1,0,15,15,15,0,1,1,0,,,,,,,,,,,,,,,,,,,,,,,,,,,,,,,,,,,,,,,,,,,,,,,,,,,,,,,,,,,,,,,298.53850411899975,None,298.53850411899975,None,298.53850411899975,None,h,1,0.7493532429998595,300.05510309500005,None,300.05510309500005,None,300.05510309500005,None,300.8551238780001,None,300.8551238780001,None,300.8551238780001,None,300.8551238780001,None,,,,,,,,,,,,,,,,,,,,,,,,,,,,,,,,,,,,,,,,,,,,001,116,2020_Feb_13_1006,spring_faces,3.2.3,59.98948828184386,
condition files/Stage0c_2.xlsx,0c,theta,beta,g,"['h', 'g']","['Chess', 'Go']","[-0.15, 0.5]","[0.15, 0.5]",1,1,0,15,15,15,0,2,2,2,,,,,,,,,,,,,,,,,,,,,,,,,,,,,,,,,,,,,,,,,,,,,,,,,,,,,,,,,,,,,,,302.8384590269998,None,302.8384590269998,None,302.8384590269998,None,h,0,0.8652664280002682,304.35505094799964,None,304.35505094799964,None,304.35505094799964,None,305.27184579799996,None,305.27184579799996,None,305.27184579799996,None,305.27184579799996,None,,,,,,,,,,,,,,,,,,,,,,,,,,,,,,,,,,,,,,,,,,,,001,116,2020_Feb_13_1006,spring_faces,3.2.3,59.98948828184386,
condition files/Stage0c_2.xlsx,0c,beta,phi,g,"['h', 'g']","['Chess', 'Go']","[-0.15, 0.5]","[0.15, 0.5]",1,1,0,15,15,15,0,3,3,3,,,,,,,,,,,,,,,,,,,,,,,,,,,,,,,,,,,,,,,,,,,,,,,,,,,,,,,,,,,,,,,307.25512425399984,None,307.25512425399984,None,307.25512425399984,None,g,1,2.6239129010000397,308.7884633399999,None,308.7884633399999,None,308.7884633399999,None,311.47182965599995,None,311.47182965599995,None,311.47182965599995,None,311.47182965599995,None,,,,,,,,,,,,,,,,,,,,,,,,,,,,,,,,,,,,,,,,,,,,001,116,2020_Feb_13_1006,spring_faces,3.2.3,59.98948828184386,
condition files/Stage0c_1.xlsx,0c,beta,theta,g,"['h', 'g']","['Chess', 'Go']","[-0.15, 0.5]","[0.15, 0.5]",1,1,0,16,16,16,0,0,0,2,,,,,,,,,,,,,,,,,,,,,,,,,,,,,,,,,,,,,,,,,,,,,,,,,,,,,,,,,,,,,,,313.4718583589997,None,313.4718583589997,None,313.4718583589997,None,g,1,0.6640006889997494,314.988476732,None,314.988476732,None,314.988476732,None,315.70510840399993,None,315.70510840399993,None,315.70510840399993,None,315.70510840399993,None,,,,,,,,,,,,,,,,,,,,,,,,,,,,,,,,,,,,,,,,,,,,001,116,2020_Feb_13_1006,spring_faces,3.2.3,59.98948828184386,
condition files/Stage0c_1.xlsx,0c,phi,beta,g,"['h', 'g']","['Chess', 'Go']","[-0.15, 0.5]","[0.15, 0.5]",1,1,0,16,16,16,0,1,1,3,,,,,,,,,,,,,,,,,,,,,,,,,,,,,,,,,,,,,,,,,,,,,,,,,,,,,,,,,,,,,,,317.688511029,None,317.688511029,None,317.688511029,None,g,1,0.7833693829998083,319.2050438729998,None,319.2050438729998,None,319.2050438729998,None,320.03848677999986,None,320.03848677999986,None,320.03848677999986,None,320.03848677999986,None,,,,,,,,,,,,,,,,,,,,,,,,,,,,,,,,,,,,,,,,,,,,001,116,2020_Feb_13_1006,spring_faces,3.2.3,59.98948828184386,
condition files/Stage0c_1.xlsx,0c,alpha,phi,h,"['h', 'g']","['Chess', 'Go']","[-0.15, 0.5]","[0.15, 0.5]",1,1,0,16,16,16,0,2,2,1,,,,,,,,,,,,,,,,,,,,,,,,,,,,,,,,,,,,,,,,,,,,,,,,,,,,,,,,,,,,,,,322.0217712670001,None,322.0217712670001,None,322.0217712670001,None,h,1,0.7698511560001862,323.538510372,None,323.538510372,None,323.538510372,None,324.37184160800007,None,324.37184160800007,None,324.37184160800007,None,324.37184160800007,None,,,,,,,,,,,,,,,,,,,,,,,,,,,,,,,,,,,,,,,,,,,,001,116,2020_Feb_13_1006,spring_faces,3.2.3,59.98948828184386,
condition files/Stage0c_1.xlsx,0c,theta,alpha,h,"['h', 'g']","['Chess', 'Go']","[-0.15, 0.5]","[0.15, 0.5]",1,1,0,16,16,16,0,3,3,0,,,,,,,,,,,,,,,,,,,,,,,,,,,,,,,,,,,,,,,,,,,,,,,,,,,,,,,,,,,,,,,326.3551936599997,None,326.3551936599997,None,326.3551936599997,None,h,1,1.2358039739997366,327.8885319269998,None,327.8885319269998,None,327.8885319269998,None,329.1886120989998,None,329.1886120989998,None,329.1886120989998,None,329.1886120989998,None,,,,,,,,,,,,,,,,,,,,,,,,,,,,,,,,,,,,,,,,,,,,001,116,2020_Feb_13_1006,spring_faces,3.2.3,59.98948828184386,
condition files/Stage0c_2.xlsx,0c,alpha,theta,h,"['h', 'g']","['Chess', 'Go']","[-0.15, 0.5]","[0.15, 0.5]",1,1,0,17,17,17,0,0,0,0,,,,,,,,,,,,,,,,,,,,,,,,,,,,,,,,,,,,,,,,,,,,,,,,,,,,,,,,,,,,,,,331.18852512099966,None,331.18852512099966,None,331.18852512099966,None,h,1,0.8504149119999056,332.7218683179999,None,332.7218683179999,None,332.7218683179999,None,333.63845183700005,None,333.63845183700005,None,333.63845183700005,None,333.63845183700005,None,,,,,,,,,,,,,,,,,,,,,,,,,,,,,,,,,,,,,,,,,,,,001,116,2020_Feb_13_1006,spring_faces,3.2.3,59.98948828184386,
condition files/Stage0c_2.xlsx,0c,phi,alpha,h,"['h', 'g']","['Chess', 'Go']","[-0.15, 0.5]","[0.15, 0.5]",1,1,0,17,17,17,0,1,1,1,,,,,,,,,,,,,,,,,,,,,,,,,,,,,,,,,,,,,,,,,,,,,,,,,,,,,,,,,,,,,,,335.6218691509998,None,335.6218691509998,None,335.6218691509998,None,h,1,0.6582702509999763,337.1381084609998,None,337.1381084609998,None,337.1381084609998,None,337.85519103399974,None,337.85519103399974,None,337.85519103399974,None,337.85519103399974,None,,,,,,,,,,,,,,,,,,,,,,,,,,,,,,,,,,,,,,,,,,,,001,116,2020_Feb_13_1006,spring_faces,3.2.3,59.98948828184386,
condition files/Stage0c_2.xlsx,0c,beta,phi,g,"['h', 'g']","['Chess', 'Go']","[-0.15, 0.5]","[0.15, 0.5]",1,1,0,17,17,17,0,2,2,3,,,,,,,,,,,,,,,,,,,,,,,,,,,,,,,,,,,,,,,,,,,,,,,,,,,,,,,,,,,,,,,339.8385372539997,None,339.8385372539997,None,339.8385372539997,None,g,1,0.4573193269998228,341.3550921870001,None,341.3550921870001,None,341.3550921870001,None,341.87184478499967,None,341.87184478499967,None,341.87184478499967,None,341.87184478499967,None,,,,,,,,,,,,,,,,,,,,,,,,,,,,,,,,,,,,,,,,,,,,001,116,2020_Feb_13_1006,spring_faces,3.2.3,59.98948828184386,
condition files/Stage0c_2.xlsx,0c,theta,beta,g,"['h', 'g']","['Chess', 'Go']","[-0.15, 0.5]","[0.15, 0.5]",1,1,0,17,17,17,0,3,3,2,,,,,,,,,,,,,,,,,,,,,,,,,,,,,,,,,,,,,,,,,,,,,,,,,,,,,,,,,,,,,,,343.87187004199995,None,343.87187004199995,None,343.87187004199995,None,g,1,0.45586501800016777,345.3885322629999,None,345.3885322629999,None,345.3885322629999,None,345.9051929899997,None,345.9051929899997,None,345.9051929899997,None,345.9051929899997,None,,,,,,,,,,,,,,,,,,,,,,,,,,,,,,,,,,,,,,,,,,,,001,116,2020_Feb_13_1006,spring_faces,3.2.3,59.98948828184386,
,,,,,,,,,,,,,,,,,,,,,,,,,,,,,,,,,,,,,,,,,,,,,,,,,,,,,,,,,,,,,,,,,,,,,,,,,,,,,,,,,,,,,,,,,,,,,,,,,,,,,,,,347.8884670729999,None,space,3.1806142200002796,352.87184157699994,None,,,,,,,,,,,,,,,,,,,,,,,,,,,,,,,,,,,,,,001,116,2020_Feb_13_1006,spring_faces,3.2.3,59.98948828184386,
condition files/Stage1_1.xlsx,,B3,T3,c,"['c', 'm']","['Clue', 'Monopoly']","[-0.15, 0.5]","[0.15, 0.5]",1,1,,,,,,,,,0,0,0,0,0,0,0,4,,,,,,,,,,,,,,,,,,,,,,,,,,,,,,,,,,,,,,,,,,,,,,,,,,,,,,,356.1547147709998,None,356.1547147709998,None,356.1547147709998,None,m,0,5.0665265120001095,357.7218596859998,None,357.7218596859998,None,357.7218596859998,None,362.85496028299985,None,362.85496028299985,None,362.85496028299985,None,362.85496028299985,None,,,,,,,352.87184157699994,None,,,,,,,,,,,,,,,,,,,,,,,,,,,,,,,,,,,,001,116,2020_Feb_13_1006,spring_faces,3.2.3,59.98948828184386,
condition files/Stage1_1.xlsx,,T2,B2,m,"['c', 'm']","['Clue', 'Monopoly']","[-0.15, 0.5]","[0.15, 0.5]",1,1,,,,,,,,,0,0,0,0,0,1,1,3,,,,,,,,,,,,,,,,,,,,,,,,,,,,,,,,,,,,,,,,,,,,,,,,,,,,,,,364.82180632799964,None,364.82180632799964,None,364.82180632799964,None,m,1,1.6198393709996708,366.68852338399984,None,366.68852338399984,None,366.68852338399984,None,368.3885079349998,None,368.3885079349998,None,368.3885079349998,None,368.3885079349998,None,,,,,,,,,,,,,,,,,,,,,,,,,,,,,,,,,,,,,,,,,,,,001,116,2020_Feb_13_1006,spring_faces,3.2.3,59.98948828184386,
condition files/Stage1_1.xlsx,,T3,B4,c,"['c', 'm']","['Clue', 'Monopoly']","[-0.15, 0.5]","[0.15, 0.5]",1,1,,,,,,,,,0,0,0,0,0,2,2,5,,,,,,,,,,,,,,,,,,,,,,,,,,,,,,,,,,,,,,,,,,,,,,,,,,,,,,,370.3551891439997,None,370.3551891439997,None,370.3551891439997,None,m,0,0.7218513269999676,371.93851476200007,None,371.93851476200007,None,371.93851476200007,None,372.7385341439999,None,372.7385341439999,None,372.7385341439999,None,372.7385341439999,None,,,,,,,,,,,,,,,,,,,,,,,,,,,,,,,,,,,,,,,,,,,,001,116,2020_Feb_13_1006,spring_faces,3.2.3,59.98948828184386,
condition files/Stage1_1.xlsx,,T4,B3,m,"['c', 'm']","['Clue', 'Monopoly']","[-0.15, 0.5]","[0.15, 0.5]",1,1,,,,,,,,,0,0,0,0,0,3,3,6,,,,,,,,,,,,,,,,,,,,,,,,,,,,,,,,,,,,,,,,,,,,,,,,,,,,,,,374.70518803100003,None,374.70518803100003,None,374.70518803100003,None,m,1,1.7017688550004095,376.238531729,None,376.238531729,None,376.238531729,None,378.02182162300005,None,378.02182162300005,None,378.02182162300005,None,378.02182162300005,None,,,,,,,,,,,,,,,,,,,,,,,,,,,,,,,,,,,,,,,,,,,,001,116,2020_Feb_13_1006,spring_faces,3.2.3,59.98948828184386,
condition files/Stage1_1.xlsx,,B2,T1,m,"['c', 'm']","['Clue', 'Monopoly']","[-0.15, 0.5]","[0.15, 0.5]",1,1,,,,,,,,,0,0,0,0,0,4,4,2,,,,,,,,,,,,,,,,,,,,,,,,,,,,,,,,,,,,,,,,,,,,,,,,,,,,,,,379.9885297579999,None,379.9885297579999,None,379.9885297579999,None,c,0,0.6931939820001389,381.8551959639999,None,381.8551959639999,None,381.8551959639999,None,382.62183920300004,None,382.62183920300004,None,382.62183920300004,None,382.62183920300004,None,,,,,,,,,,,,,,,,,,,,,,,,,,,,,,,,,,,,,,,,,,,,001,116,2020_Feb_13_1006,spring_faces,3.2.3,59.98948828184386,
condition files/Stage1_1.xlsx,,T1,B1,c,"['c', 'm']","['Clue', 'Monopoly']","[-0.15, 0.5]","[0.15, 0.5]",1,1,,,,,,,,,0,0,0,0,0,5,5,0,,,,,,,,,,,,,,,,,,,,,,,,,,,,,,,,,,,,,,,,,,,,,,,,,,,,,,,384.5885172999997,None,384.5885172999997,None,384.5885172999997,None,c,1,4.889157779000016,386.1552103619997,None,386.1552103619997,None,386.1552103619997,None,391.1218645119998,None,391.1218645119998,None,391.1218645119998,None,391.1218645119998,None,,,,,,,,,,,,,,,,,,,,,,,,,,,,,,,,,,,,,,,,,,,,001,116,2020_Feb_13_1006,spring_faces,3.2.3,59.98948828184386,
condition files/Stage1_1.xlsx,,B1,T2,c,"['c', 'm']","['Clue', 'Monopoly']","[-0.15, 0.5]","[0.15, 0.5]",1,1,,,,,,,,,0,0,0,0,0,6,6,1,,,,,,,,,,,,,,,,,,,,,,,,,,,,,,,,,,,,,,,,,,,,,,,,,,,,,,,393.0885563359998,None,393.0885563359998,None,393.0885563359998,None,c,1,3.0145798389999072,394.62186839900005,None,394.62186839900005,None,394.62186839900005,None,397.68856002999973,None,397.68856002999973,None,397.68856002999973,None,397.68856002999973,None,,,,,,,,,,,,,,,,,,,,,,,,,,,,,,,,,,,,,,,,,,,,001,116,2020_Feb_13_1006,spring_faces,3.2.3,59.98948828184386,
condition files/Stage1_1.xlsx,,B4,T4,m,"['c', 'm']","['Clue', 'Monopoly']","[-0.15, 0.5]","[0.15, 0.5]",1,1,,,,,,,,,0,0,0,0,0,7,7,7,,,,,,,,,,,,,,,,,,,,,,,,,,,,,,,,,,,,,,,,,,,,,,,,,,,,,,,399.67186647699964,None,399.67186647699964,None,399.67186647699964,None,m,1,1.247327893000147,401.2051223479998,None,401.2051223479998,None,401.2051223479998,None,402.5218317599997,None,402.5218317599997,None,402.5218317599997,None,402.5218317599997,None,,,,,,,,,,,,,,,,,,,,,,,,,,,,,,,,,,,,,,,,,,,,001,116,2020_Feb_13_1006,spring_faces,3.2.3,59.98948828184386,
condition files/Stage1_2.xlsx,,T4,B4,m,"['c', 'm']","['Clue', 'Monopoly']","[-0.15, 0.5]","[0.15, 0.5]",1,1,,,,,,,,,0,1,1,1,0,0,0,7,,,,,,,,,,,,,,,,,,,,,,,,,,,,,,,,,,,,,,,,,,,,,,,,,,,,,,,404.53852484399977,None,404.53852484399977,None,404.53852484399977,None,c,0,1.805872191999697,406.03851099099984,None,406.03851099099984,None,406.03851099099984,None,407.92174543300007,None,407.92174543300007,None,407.92174543300007,None,407.92174543300007,None,,,,,,,,,,,,,,,,,,,,,,,,,,,,,,,,,,,,,,,,,,,,001,116,2020_Feb_13_1006,spring_faces,3.2.3,59.98948828184386,
condition files/Stage1_2.xlsx,,B4,T3,c,"['c', 'm']","['Clue', 'Monopoly']","[-0.15, 0.5]","[0.15, 0.5]",1,1,,,,,,,,,0,1,1,1,0,1,1,5,,,,,,,,,,,,,,,,,,,,,,,,,,,,,,,,,,,,,,,,,,,,,,,,,,,,,,,409.8884988579998,None,409.8884988579998,None,409.8884988579998,None,c,1,1.4306095789997926,411.42184127699966,None,411.42184127699966,None,411.42184127699966,None,412.92186334400003,None,412.92186334400003,None,412.92186334400003,None,412.92186334400003,None,,,,,,,,,,,,,,,,,,,,,,,,,,,,,,,,,,,,,,,,,,,,001,116,2020_Feb_13_1006,spring_faces,3.2.3,59.98948828184386,
condition files/Stage1_2.xlsx,,B3,T4,m,"['c', 'm']","['Clue', 'Monopoly']","[-0.15, 0.5]","[0.15, 0.5]",1,1,,,,,,,,,0,1,1,1,0,2,2,6,,,,,,,,,,,,,,,,,,,,,,,,,,,,,,,,,,,,,,,,,,,,,,,,,,,,,,,414.8885264739997,None,414.8885264739997,None,414.8885264739997,None,m,1,2.7345060640000156,416.421812776,None,416.421812776,None,416.421812776,None,419.23828366399994,None,419.23828366399994,None,419.23828366399994,None,419.23828366399994,None,,,,,,,,,,,,,,,,,,,,,,,,,,,,,,,,,,,,,,,,,,,,001,116,2020_Feb_13_1006,spring_faces,3.2.3,59.98948828184386,
condition files/Stage1_2.xlsx,,T3,B3,c,"['c', 'm']","['Clue', 'Monopoly']","[-0.15, 0.5]","[0.15, 0.5]",1,1,,,,,,,,,0,1,1,1,0,3,3,4,,,,,,,,,,,,,,,,,,,,,,,,,,,,,,,,,,,,,,,,,,,,,,,,,,,,,,,421.205148044,None,421.205148044,None,421.205148044,None,c,1,1.3298131550000107,422.73852890199987,None,422.73852890199987,None,422.73852890199987,None,424.13851734499985,None,424.13851734499985,None,424.13851734499985,None,424.13851734499985,None,,,,,,,,,,,,,,,,,,,,,,,,,,,,,,,,,,,,,,,,,,,,001,116,2020_Feb_13_1006,spring_faces,3.2.3,59.98948828184386,
condition files/Stage1_2.xlsx,,T2,B1,c,"['c', 'm']","['Clue', 'Monopoly']","[-0.15, 0.5]","[0.15, 0.5]",1,1,,,,,,,,,0,1,1,1,0,4,4,1,,,,,,,,,,,,,,,,,,,,,,,,,,,,,,,,,,,,,,,,,,,,,,,,,,,,,,,426.10516540599974,None,426.10516540599974,None,426.10516540599974,None,c,1,1.4378501370001686,427.638514065,None,427.638514065,None,427.638514065,None,429.138415592,None,429.138415592,None,429.138415592,None,429.138415592,None,,,,,,,,,,,,,,,,,,,,,,,,,,,,,,,,,,,,,,,,,,,,001,116,2020_Feb_13_1006,spring_faces,3.2.3,59.98948828184386,
condition files/Stage1_2.xlsx,,B1,T1,c,"['c', 'm']","['Clue', 'Monopoly']","[-0.15, 0.5]","[0.15, 0.5]",1,1,,,,,,,,,0,1,1,1,0,5,5,0,,,,,,,,,,,,,,,,,,,,,,,,,,,,,,,,,,,,,,,,,,,,,,,,,,,,,,,431.1218748409997,None,431.1218748409997,None,431.1218748409997,None,m,0,1.541175263000241,432.655204656,None,432.655204656,None,432.655204656,None,434.25520077300007,None,434.25520077300007,None,434.25520077300007,None,434.25520077300007,None,,,,,,,,,,,,,,,,,,,,,,,,,,,,,,,,,,,,,,,,,,,,001,116,2020_Feb_13_1006,spring_faces,3.2.3,59.98948828184386,
condition files/Stage1_2.xlsx,,B2,T2,m,"['c', 'm']","['Clue', 'Monopoly']","[-0.15, 0.5]","[0.15, 0.5]",1,1,,,,,,,,,0,1,1,1,0,6,6,3,,,,,,,,,,,,,,,,,,,,,,,,,,,,,,,,,,,,,,,,,,,,,,,,,,,,,,,436.23851990699995,None,436.23851990699995,None,436.23851990699995,None,c,0,1.736523008000404,437.7718437179997,None,437.7718437179997,None,437.7718437179997,None,439.588508413,None,439.588508413,None,439.588508413,None,439.588508413,None,,,,,,,,,,,,,,,,,,,,,,,,,,,,,,,,,,,,,,,,,,,,001,116,2020_Feb_13_1006,spring_faces,3.2.3,59.98948828184386,
condition files/Stage1_2.xlsx,,T1,B2,m,"['c', 'm']","['Clue', 'Monopoly']","[-0.15, 0.5]","[0.15, 0.5]",1,1,,,,,,,,,0,1,1,1,0,7,7,2,,,,,,,,,,,,,,,,,,,,,,,,,,,,,,,,,,,,,,,,,,,,,,,,,,,,,,,441.55518409399974,None,441.55518409399974,None,441.55518409399974,None,c,0,2.227888532000179,443.0885124859997,None,443.0885124859997,None,443.0885124859997,None,445.38852779399986,None,445.38852779399986,None,445.38852779399986,None,445.38852779399986,None,,,,,,,,,,,,,,,,,,,,,,,,,,,,,,,,,,,,,,,,,,,,001,116,2020_Feb_13_1006,spring_faces,3.2.3,59.98948828184386,
condition files/Stage1_1.xlsx,,B2,T1,m,"['c', 'm']","['Clue', 'Monopoly']","[-0.15, 0.5]","[0.15, 0.5]",1,1,,,,,,,,,0,2,2,2,0,0,0,2,,,,,,,,,,,,,,,,,,,,,,,,,,,,,,,,,,,,,,,,,,,,,,,,,,,,,,,447.3718670919998,None,447.3718670919998,None,447.3718670919998,None,m,1,1.0832209879999937,448.90518632099975,None,448.90518632099975,None,448.90518632099975,None,450.0551449219997,None,450.0551449219997,None,450.0551449219997,None,450.0551449219997,None,,,,,,,,,,,,,,,,,,,,,,,,,,,,,,,,,,,,,,,,,,,,001,116,2020_Feb_13_1006,spring_faces,3.2.3,59.98948828184386,
condition files/Stage1_1.xlsx,,B4,T4,m,"['c', 'm']","['Clue', 'Monopoly']","[-0.15, 0.5]","[0.15, 0.5]",1,1,,,,,,,,,0,2,2,2,0,1,1,7,,,,,,,,,,,,,,,,,,,,,,,,,,,,,,,,,,,,,,,,,,,,,,,,,,,,,,,452.02179583,None,452.02179583,None,452.02179583,None,m,1,3.137170314999821,453.5551950179997,None,453.5551950179997,None,453.5551950179997,None,456.7718651309997,None,456.7718651309997,None,456.7718651309997,None,456.7718651309997,None,,,,,,,,,,,,,,,,,,,,,,,,,,,,,,,,,,,,,,,,,,,,001,116,2020_Feb_13_1006,spring_faces,3.2.3,59.98948828184386,
condition files/Stage1_1.xlsx,,T4,B3,m,"['c', 'm']","['Clue', 'Monopoly']","[-0.15, 0.5]","[0.15, 0.5]",1,1,,,,,,,,,0,2,2,2,0,2,2,6,,,,,,,,,,,,,,,,,,,,,,,,,,,,,,,,,,,,,,,,,,,,,,,,,,,,,,,458.73853619700003,None,458.73853619700003,None,458.73853619700003,None,m,1,1.0124658570002794,460.27186164999966,None,460.27186164999966,None,460.27186164999966,None,461.3385305510001,None,461.3385305510001,None,461.3385305510001,None,461.3385305510001,None,,,,,,,,,,,,,,,,,,,,,,,,,,,,,,,,,,,,,,,,,,,,001,116,2020_Feb_13_1006,spring_faces,3.2.3,59.98948828184386,
condition files/Stage1_1.xlsx,,T2,B2,m,"['c', 'm']","['Clue', 'Monopoly']","[-0.15, 0.5]","[0.15, 0.5]",1,1,,,,,,,,,0,2,2,2,0,3,3,3,,,,,,,,,,,,,,,,,,,,,,,,,,,,,,,,,,,,,,,,,,,,,,,,,,,,,,,463.3218444449999,None,463.3218444449999,None,463.3218444449999,None,m,1,1.4852054319999297,464.855117223,None,464.855117223,None,464.855117223,None,466.42186680299983,None,466.42186680299983,None,466.42186680299983,None,466.42186680299983,None,,,,,,,,,,,,,,,,,,,,,,,,,,,,,,,,,,,,,,,,,,,,001,116,2020_Feb_13_1006,spring_faces,3.2.3,59.98948828184386,
condition files/Stage1_1.xlsx,,T1,B1,c,"['c', 'm']","['Clue', 'Monopoly']","[-0.15, 0.5]","[0.15, 0.5]",1,1,,,,,,,,,0,2,2,2,0,4,4,0,,,,,,,,,,,,,,,,,,,,,,,,,,,,,,,,,,,,,,,,,,,,,,,,,,,,,,,468.38854459699996,None,468.38854459699996,None,468.38854459699996,None,c,1,0.9145208469999488,469.92186625899967,None,469.92186625899967,None,469.92186625899967,None,470.9051885419999,None,470.9051885419999,None,470.9051885419999,None,470.9051885419999,None,,,,,,,,,,,,,,,,,,,,,,,,,,,,,,,,,,,,,,,,,,,,001,116,2020_Feb_13_1006,spring_faces,3.2.3,59.98948828184386,
condition files/Stage1_1.xlsx,,B1,T2,c,"['c', 'm']","['Clue', 'Monopoly']","[-0.15, 0.5]","[0.15, 0.5]",1,1,,,,,,,,,0,2,2,2,0,5,5,1,,,,,,,,,,,,,,,,,,,,,,,,,,,,,,,,,,,,,,,,,,,,,,,,,,,,,,,472.87186791199974,None,472.87186791199974,None,472.87186791199974,None,m,0,1.183233848999862,474.4051523019998,None,474.4051523019998,None,474.4051523019998,None,475.63847213400004,None,475.63847213400004,None,475.63847213400004,None,475.63847213400004,None,,,,,,,,,,,,,,,,,,,,,,,,,,,,,,,,,,,,,,,,,,,,001,116,2020_Feb_13_1006,spring_faces,3.2.3,59.98948828184386,
condition files/Stage1_1.xlsx,,T3,B4,c,"['c', 'm']","['Clue', 'Monopoly']","[-0.15, 0.5]","[0.15, 0.5]",1,1,,,,,,,,,0,2,2,2,0,6,6,5,,,,,,,,,,,,,,,,,,,,,,,,,,,,,,,,,,,,,,,,,,,,,,,,,,,,,,,477.62177715200005,None,477.62177715200005,None,477.62177715200005,None,c,1,4.4171253689996774,479.1551756690001,None,479.1551756690001,None,479.1551756690001,None,483.63848141499966,None,483.63848141499966,None,483.63848141499966,None,483.63848141499966,None,,,,,,,,,,,,,,,,,,,,,,,,,,,,,,,,,,,,,,,,,,,,001,116,2020_Feb_13_1006,spring_faces,3.2.3,59.98948828184386,
condition files/Stage1_1.xlsx,,B3,T3,c,"['c', 'm']","['Clue', 'Monopoly']","[-0.15, 0.5]","[0.15, 0.5]",1,1,,,,,,,,,0,2,2,2,0,7,7,4,,,,,,,,,,,,,,,,,,,,,,,,,,,,,,,,,,,,,,,,,,,,,,,,,,,,,,,485.62178195199976,None,485.62178195199976,None,485.62178195199976,None,c,1,1.7132591730000968,487.1551808720001,None,487.1551808720001,None,487.1551808720001,None,488.938515929,None,488.938515929,None,488.938515929,None,488.938515929,None,,,,,,,,,,,,,,,,,,,,,,,,,,,,,,,,,,,,,,,,,,,,001,116,2020_Feb_13_1006,spring_faces,3.2.3,59.98948828184386,
condition files/Stage1_2.xlsx,,T4,B4,m,"['c', 'm']","['Clue', 'Monopoly']","[-0.15, 0.5]","[0.15, 0.5]",1,1,,,,,,,,,0,3,3,3,0,0,0,7,,,,,,,,,,,,,,,,,,,,,,,,,,,,,,,,,,,,,,,,,,,,,,,,,,,,,,,490.9218349009998,None,490.9218349009998,None,490.9218349009998,None,m,1,1.0372648540001137,492.455128133,None,492.455128133,None,492.455128133,None,493.57186244800005,None,493.57186244800005,None,493.57186244800005,None,493.57186244800005,None,,,,,,,,,,,,,,,,,,,,,,,,,,,,,,,,,,,,,,,,,,,,001,116,2020_Feb_13_1006,spring_faces,3.2.3,59.98948828184386,
condition files/Stage1_2.xlsx,,B2,T2,m,"['c', 'm']","['Clue', 'Monopoly']","[-0.15, 0.5]","[0.15, 0.5]",1,1,,,,,,,,,0,3,3,3,0,1,1,3,,,,,,,,,,,,,,,,,,,,,,,,,,,,,,,,,,,,,,,,,,,,,,,,,,,,,,,495.5385208329999,None,495.5385208329999,None,495.5385208329999,None,m,1,1.6365174689999549,497.07184999699984,None,497.07184999699984,None,497.07184999699984,None,498.77184914400004,None,498.77184914400004,None,498.77184914400004,None,498.77184914400004,None,,,,,,,,,,,,,,,,,,,,,,,,,,,,,,,,,,,,,,,,,,,,001,116,2020_Feb_13_1006,spring_faces,3.2.3,59.98948828184386,
condition files/Stage1_2.xlsx,,T2,B1,c,"['c', 'm']","['Clue', 'Monopoly']","[-0.15, 0.5]","[0.15, 0.5]",1,1,,,,,,,,,0,3,3,3,0,2,2,1,,,,,,,,,,,,,,,,,,,,,,,,,,,,,,,,,,,,,,,,,,,,,,,,,,,,,,,500.75519082799974,None,500.75519082799974,None,500.75519082799974,None,m,0,2.3878229939996345,502.28853668700003,None,502.28853668700003,None,502.28853668700003,None,504.7551765369999,None,504.7551765369999,None,504.7551765369999,None,504.7551765369999,None,,,,,,,,,,,,,,,,,,,,,,,,,,,,,,,,,,,,,,,,,,,,001,116,2020_Feb_13_1006,spring_faces,3.2.3,59.98948828184386,
condition files/Stage1_2.xlsx,,T3,B3,c,"['c', 'm']","['Clue', 'Monopoly']","[-0.15, 0.5]","[0.15, 0.5]",1,1,,,,,,,,,0,3,3,3,0,3,3,4,,,,,,,,,,,,,,,,,,,,,,,,,,,,,,,,,,,,,,,,,,,,,,,,,,,,,,,506.72183954499997,None,506.72183954499997,None,506.72183954499997,None,m,0,0.03720076399986283,508.2551740409999,None,508.2551740409999,None,508.2551740409999,None,508.3550262079998,None,508.3550262079998,None,508.3550262079998,None,508.3550262079998,None,,,,,,,,,,,,,,,,,,,,,,,,,,,,,,,,,,,,,,,,,,,,001,116,2020_Feb_13_1006,spring_faces,3.2.3,59.98948828184386,
condition files/Stage1_2.xlsx,,B4,T3,c,"['c', 'm']","['Clue', 'Monopoly']","[-0.15, 0.5]","[0.15, 0.5]",1,1,,,,,,,,,0,3,3,3,0,4,4,5,,,,,,,,,,,,,,,,,,,,,,,,,,,,,,,,,,,,,,,,,,,,,,,,,,,,,,,510.3385618389998,None,510.3385618389998,None,510.3385618389998,None,c,1,1.8445180230000915,511.871866725,None,511.871866725,None,511.871866725,None,513.771413642,None,513.771413642,None,513.771413642,None,513.771413642,None,,,,,,,,,,,,,,,,,,,,,,,,,,,,,,,,,,,,,,,,,,,,001,116,2020_Feb_13_1006,spring_faces,3.2.3,59.98948828184386,
condition files/Stage1_2.xlsx,,B3,T4,m,"['c', 'm']","['Clue', 'Monopoly']","[-0.15, 0.5]","[0.15, 0.5]",1,1,,,,,,,,,0,3,3,3,0,5,5,6,,,,,,,,,,,,,,,,,,,,,,,,,,,,,,,,,,,,,,,,,,,,,,,,,,,,,,,515.7552114370001,None,515.7552114370001,None,515.7552114370001,None,m,1,1.5159509820000494,517.2885191279997,None,517.2885191279997,None,517.2885191279997,None,518.8717466469998,None,518.8717466469998,None,518.8717466469998,None,518.8717466469998,None,,,,,,,,,,,,,,,,,,,,,,,,,,,,,,,,,,,,,,,,,,,,001,116,2020_Feb_13_1006,spring_faces,3.2.3,59.98948828184386,
condition files/Stage1_2.xlsx,,B1,T1,c,"['c', 'm']","['Clue', 'Monopoly']","[-0.15, 0.5]","[0.15, 0.5]",1,1,,,,,,,,,0,3,3,3,0,6,6,0,,,,,,,,,,,,,,,,,,,,,,,,,,,,,,,,,,,,,,,,,,,,,,,,,,,,,,,520.8384453119997,None,520.8384453119997,None,520.8384453119997,None,c,1,2.2085389640001267,522.371850991,None,522.371850991,None,522.371850991,None,524.65518393,None,524.65518393,None,524.65518393,None,524.65518393,None,,,,,,,,,,,,,,,,,,,,,,,,,,,,,,,,,,,,,,,,,,,,001,116,2020_Feb_13_1006,spring_faces,3.2.3,59.98948828184386,
condition files/Stage1_2.xlsx,,T1,B2,m,"['c', 'm']","['Clue', 'Monopoly']","[-0.15, 0.5]","[0.15, 0.5]",1,1,,,,,,,,,0,3,3,3,0,7,7,2,,,,,,,,,,,,,,,,,,,,,,,,,,,,,,,,,,,,,,,,,,,,,,,,,,,,,,,526.6218529049997,None,526.6218529049997,None,526.6218529049997,None,c,0,5.417122681999899,528.1551820479999,None,528.1551820479999,None,528.1551820479999,None,533.655206978,None,533.655206978,None,533.655206978,None,533.655206978,None,,,,,,,,,,,,,,,,,,,,,,,,,,,,,,,,,,,,,,,,,,,,001,116,2020_Feb_13_1006,spring_faces,3.2.3,59.98948828184386,
condition files/Stage1_1.xlsx,,B1,T2,c,"['c', 'm']","['Clue', 'Monopoly']","[-0.15, 0.5]","[0.15, 0.5]",1,1,,,,,,,,,0,4,4,4,0,0,0,1,,,,,,,,,,,,,,,,,,,,,,,,,,,,,,,,,,,,,,,,,,,,,,,,,,,,,,,535.6384619390001,None,535.6384619390001,None,535.6384619390001,None,m,0,1.0564993540001524,537.171844724,None,537.171844724,None,537.171844724,None,538.3052014479999,None,538.3052014479999,None,538.3052014479999,None,538.3052014479999,None,,,,,,,,,,,,,,,,,,,,,,,,,,,,,,,,,,,,,,,,,,,,001,116,2020_Feb_13_1006,spring_faces,3.2.3,59.98948828184386,
condition files/Stage1_1.xlsx,,T2,B2,m,"['c', 'm']","['Clue', 'Monopoly']","[-0.15, 0.5]","[0.15, 0.5]",1,1,,,,,,,,,0,4,4,4,0,1,1,3,,,,,,,,,,,,,,,,,,,,,,,,,,,,,,,,,,,,,,,,,,,,,,,,,,,,,,,540.2718776659999,None,540.2718776659999,None,540.2718776659999,None,c,0,1.4951855490003254,541.8052151769998,None,541.8052151769998,None,541.8052151769998,None,543.3718490429997,None,543.3718490429997,None,543.3718490429997,None,543.3718490429997,None,,,,,,,,,,,,,,,,,,,,,,,,,,,,,,,,,,,,,,,,,,,,001,116,2020_Feb_13_1006,spring_faces,3.2.3,59.98948828184386,
condition files/Stage1_1.xlsx,,B4,T4,m,"['c', 'm']","['Clue', 'Monopoly']","[-0.15, 0.5]","[0.15, 0.5]",1,1,,,,,,,,,0,4,4,4,0,2,2,7,,,,,,,,,,,,,,,,,,,,,,,,,,,,,,,,,,,,,,,,,,,,,,,,,,,,,,,545.338521529,None,545.338521529,None,545.338521529,None,m,1,1.1325615129999278,546.8718055469999,None,546.8718055469999,None,546.8718055469999,None,548.0718047,None,548.0718047,None,548.0718047,None,548.0718047,None,,,,,,,,,,,,,,,,,,,,,,,,,,,,,,,,,,,,,,,,,,,,001,116,2020_Feb_13_1006,spring_faces,3.2.3,59.98948828184386,
condition files/Stage1_1.xlsx,,B3,T3,c,"['c', 'm']","['Clue', 'Monopoly']","[-0.15, 0.5]","[0.15, 0.5]",1,1,,,,,,,,,0,4,4,4,0,3,3,4,,,,,,,,,,,,,,,,,,,,,,,,,,,,,,,,,,,,,,,,,,,,,,,,,,,,,,,550.0385459989998,None,550.0385459989998,None,550.0385459989998,None,m,0,1.4245231389995752,551.5718782079998,None,551.5718782079998,None,551.5718782079998,None,553.0718464299998,None,553.0718464299998,None,553.0718464299998,None,553.0718464299998,None,,,,,,,,,,,,,,,,,,,,,,,,,,,,,,,,,,,,,,,,,,,,001,116,2020_Feb_13_1006,spring_faces,3.2.3,59.98948828184386,
condition files/Stage1_1.xlsx,,T3,B4,c,"['c', 'm']","['Clue', 'Monopoly']","[-0.15, 0.5]","[0.15, 0.5]",1,1,,,,,,,,,0,4,4,4,0,4,4,5,,,,,,,,,,,,,,,,,,,,,,,,,,,,,,,,,,,,,,,,,,,,,,,,,,,,,,,555.0385205160001,None,555.0385205160001,None,555.0385205160001,None,c,1,1.4165349449999667,556.5718467279999,None,556.5718467279999,None,556.5718467279999,None,558.0551177739999,None,558.0551177739999,None,558.0551177739999,None,558.0551177739999,None,,,,,,,,,,,,,,,,,,,,,,,,,,,,,,,,,,,,,,,,,,,,001,116,2020_Feb_13_1006,spring_faces,3.2.3,59.98948828184386,
condition files/Stage1_1.xlsx,,T1,B1,c,"['c', 'm']","['Clue', 'Monopoly']","[-0.15, 0.5]","[0.15, 0.5]",1,1,,,,,,,,,0,4,4,4,0,5,5,0,,,,,,,,,,,,,,,,,,,,,,,,,,,,,,,,,,,,,,,,,,,,,,,,,,,,,,,560.021855594,None,560.021855594,None,560.021855594,None,m,0,1.3932068849999268,561.555176196,None,561.555176196,None,561.555176196,None,563.005203013,None,563.005203013,None,563.005203013,None,563.005203013,None,,,,,,,,,,,,,,,,,,,,,,,,,,,,,,,,,,,,,,,,,,,,001,116,2020_Feb_13_1006,spring_faces,3.2.3,59.98948828184386,
condition files/Stage1_1.xlsx,,B2,T1,m,"['c', 'm']","['Clue', 'Monopoly']","[-0.15, 0.5]","[0.15, 0.5]",1,1,,,,,,,,,0,4,4,4,0,6,6,2,,,,,,,,,,,,,,,,,,,,,,,,,,,,,,,,,,,,,,,,,,,,,,,,,,,,,,,564.9885478239999,None,564.9885478239999,None,564.9885478239999,None,c,0,1.4665198389998295,566.521862268,None,566.521862268,None,566.521862268,None,568.0551446239997,None,568.0551446239997,None,568.0551446239997,None,568.0551446239997,None,,,,,,,,,,,,,,,,,,,,,,,,,,,,,,,,,,,,,,,,,,,,001,116,2020_Feb_13_1006,spring_faces,3.2.3,59.98948828184386,
condition files/Stage1_1.xlsx,,T4,B3,m,"['c', 'm']","['Clue', 'Monopoly']","[-0.15, 0.5]","[0.15, 0.5]",1,1,,,,,,,,,0,4,4,4,0,7,7,6,,,,,,,,,,,,,,,,,,,,,,,,,,,,,,,,,,,,,,,,,,,,,,,,,,,,,,,570.0217955349999,None,570.0217955349999,None,570.0217955349999,None,m,1,1.7132369700002528,571.5552007779997,None,571.5552007779997,None,571.5552007779997,None,573.3385395509999,None,573.3385395509999,None,573.3385395509999,None,573.3385395509999,None,,,,,,,,,,,,,,,,,,,,,,,,,,,,,,,,,,,,,,,,,,,,001,116,2020_Feb_13_1006,spring_faces,3.2.3,59.98948828184386,
condition files/Stage1_2.xlsx,,B4,T3,c,"['c', 'm']","['Clue', 'Monopoly']","[-0.15, 0.5]","[0.15, 0.5]",1,1,,,,,,,,,0,5,5,5,0,0,0,5,,,,,,,,,,,,,,,,,,,,,,,,,,,,,,,,,,,,,,,,,,,,,,,,,,,,,,,575.3218535719998,None,575.3218535719998,None,575.3218535719998,None,m,0,5.261196185999779,576.8552021299997,None,576.8552021299997,None,576.8552021299997,None,582.1885274900001,None,582.1885274900001,None,582.1885274900001,None,582.1885274900001,None,,,,,,,,,,,,,,,,,,,,,,,,,,,,,,,,,,,,,,,,,,,,001,116,2020_Feb_13_1006,spring_faces,3.2.3,59.98948828184386,
condition files/Stage1_2.xlsx,,T3,B3,c,"['c', 'm']","['Clue', 'Monopoly']","[-0.15, 0.5]","[0.15, 0.5]",1,1,,,,,,,,,0,5,5,5,0,1,1,4,,,,,,,,,,,,,,,,,,,,,,,,,,,,,,,,,,,,,,,,,,,,,,,,,,,,,,,584.1551805069998,None,584.1551805069998,None,584.1551805069998,None,c,1,2.7319518929998594,585.6885328179997,None,585.6885328179997,None,585.6885328179997,None,588.4718617559997,None,588.4718617559997,None,588.4718617559997,None,588.4718617559997,None,,,,,,,,,,,,,,,,,,,,,,,,,,,,,,,,,,,,,,,,,,,,001,116,2020_Feb_13_1006,spring_faces,3.2.3,59.98948828184386,
condition files/Stage1_2.xlsx,,B2,T2,m,"['c', 'm']","['Clue', 'Monopoly']","[-0.15, 0.5]","[0.15, 0.5]",1,1,,,,,,,,,0,5,5,5,0,2,2,3,,,,,,,,,,,,,,,,,,,,,,,,,,,,,,,,,,,,,,,,,,,,,,,,,,,,,,,590.4551869429997,None,590.4551869429997,None,590.4551869429997,None,c,0,3.7278735660001985,591.9885124309999,None,591.9885124309999,None,591.9885124309999,None,595.78853334,None,595.78853334,None,595.78853334,None,595.78853334,None,,,,,,,,,,,,,,,,,,,,,,,,,,,,,,,,,,,,,,,,,,,,001,116,2020_Feb_13_1006,spring_faces,3.2.3,59.98948828184386,
condition files/Stage1_2.xlsx,,B3,T4,m,"['c', 'm']","['Clue', 'Monopoly']","[-0.15, 0.5]","[0.15, 0.5]",1,1,,,,,,,,,0,5,5,5,0,3,3,6,,,,,,,,,,,,,,,,,,,,,,,,,,,,,,,,,,,,,,,,,,,,,,,,,,,,,,,597.7552325679999,None,597.7552325679999,None,597.7552325679999,None,c,0,1.5319443109997337,599.2885408329998,None,599.2885408329998,None,599.2885408329998,None,600.8885219839999,None,600.8885219839999,None,600.8885219839999,None,600.8885219839999,None,,,,,,,,,,,,,,,,,,,,,,,,,,,,,,,,,,,,,,,,,,,,001,116,2020_Feb_13_1006,spring_faces,3.2.3,59.98948828184386,
condition files/Stage1_2.xlsx,,T4,B4,m,"['c', 'm']","['Clue', 'Monopoly']","[-0.15, 0.5]","[0.15, 0.5]",1,1,,,,,,,,,0,5,5,5,0,4,4,7,,,,,,,,,,,,,,,,,,,,,,,,,,,,,,,,,,,,,,,,,,,,,,,,,,,,,,,602.8551776859999,None,602.8551776859999,None,602.8551776859999,None,m,1,3.2797942869997314,604.3886442059998,None,604.3886442059998,None,604.3886442059998,None,607.721856102,None,607.721856102,None,607.721856102,None,607.721856102,None,,,,,,,,,,,,,,,,,,,,,,,,,,,,,,,,,,,,,,,,,,,,001,116,2020_Feb_13_1006,spring_faces,3.2.3,59.98948828184386,
condition files/Stage1_2.xlsx,,B1,T1,c,"['c', 'm']","['Clue', 'Monopoly']","[-0.15, 0.5]","[0.15, 0.5]",1,1,,,,,,,,,0,5,5,5,0,5,5,0,,,,,,,,,,,,,,,,,,,,,,,,,,,,,,,,,,,,,,,,,,,,,,,,,,,,,,,609.7051954069998,None,609.7051954069998,None,609.7051954069998,None,m,0,3.4059013989999585,611.2384895109999,None,611.2384895109999,None,611.2384895109999,None,614.7218786509998,None,614.7218786509998,None,614.7218786509998,None,614.7218786509998,None,,,,,,,,,,,,,,,,,,,,,,,,,,,,,,,,,,,,,,,,,,,,001,116,2020_Feb_13_1006,spring_faces,3.2.3,59.98948828184386,
condition files/Stage1_2.xlsx,,T2,B1,c,"['c', 'm']","['Clue', 'Monopoly']","[-0.15, 0.5]","[0.15, 0.5]",1,1,,,,,,,,,0,5,5,5,0,6,6,1,,,,,,,,,,,,,,,,,,,,,,,,,,,,,,,,,,,,,,,,,,,,,,,,,,,,,,,616.6885399119997,None,616.6885399119997,None,616.6885399119997,None,c,1,1.0785359639999115,618.221868956,None,618.221868956,None,618.221868956,None,619.37186776,None,619.37186776,None,619.37186776,None,619.37186776,None,,,,,,,,,,,,,,,,,,,,,,,,,,,,,,,,,,,,,,,,,,,,001,116,2020_Feb_13_1006,spring_faces,3.2.3,59.98948828184386,
condition files/Stage1_2.xlsx,,T1,B2,m,"['c', 'm']","['Clue', 'Monopoly']","[-0.15, 0.5]","[0.15, 0.5]",1,1,,,,,,,,,0,5,5,5,0,7,7,2,,,,,,,,,,,,,,,,,,,,,,,,,,,,,,,,,,,,,,,,,,,,,,,,,,,,,,,621.3385316059998,None,621.3385316059998,None,621.3385316059998,None,c,0,0.9084653279996928,622.871813059,None,622.871813059,None,622.871813059,None,623.8552012329997,None,623.8552012329997,None,623.8552012329997,None,623.8552012329997,None,,,,,,,,,,,,,,,,,,,,,,,,,,,,,,,,,,,,,,,,,,,,001,116,2020_Feb_13_1006,spring_faces,3.2.3,59.98948828184386,
condition files/Stage1_1.xlsx,,B3,T3,c,"['c', 'm']","['Clue', 'Monopoly']","[-0.15, 0.5]","[0.15, 0.5]",1,1,,,,,,,,,0,6,6,6,0,0,0,4,,,,,,,,,,,,,,,,,,,,,,,,,,,,,,,,,,,,,,,,,,,,,,,,,,,,,,,625.8385478709997,None,625.8385478709997,None,625.8385478709997,None,m,0,2.3124663680000594,627.3718804669998,None,627.3718804669998,None,627.3718804669998,None,629.7552111709997,None,629.7552111709997,None,629.7552111709997,None,629.7552111709997,None,,,,,,,,,,,,,,,,,,,,,,,,,,,,,,,,,,,,,,,,,,,,001,116,2020_Feb_13_1006,spring_faces,3.2.3,59.98948828184386,
condition files/Stage1_1.xlsx,,T4,B3,m,"['c', 'm']","['Clue', 'Monopoly']","[-0.15, 0.5]","[0.15, 0.5]",1,1,,,,,,,,,0,6,6,6,0,1,1,6,,,,,,,,,,,,,,,,,,,,,,,,,,,,,,,,,,,,,,,,,,,,,,,,,,,,,,,631.721856782,None,631.721856782,None,631.721856782,None,m,1,1.7892476739998529,633.255143032,None,633.255143032,None,633.255143032,None,635.1218542379997,None,635.1218542379997,None,635.1218542379997,None,635.1218542379997,None,,,,,,,,,,,,,,,,,,,,,,,,,,,,,,,,,,,,,,,,,,,,001,116,2020_Feb_13_1006,spring_faces,3.2.3,59.98948828184386,
condition files/Stage1_1.xlsx,,T2,B2,m,"['c', 'm']","['Clue', 'Monopoly']","[-0.15, 0.5]","[0.15, 0.5]",1,1,,,,,,,,,0,6,6,6,0,2,2,3,,,,,,,,,,,,,,,,,,,,,,,,,,,,,,,,,,,,,,,,,,,,,,,,,,,,,,,637.088511467,None,637.088511467,None,637.088511467,None,c,0,5.33445822099975,638.6218508679999,None,638.6218508679999,None,638.6218508679999,None,644.0218347559999,None,644.0218347559999,None,644.0218347559999,None,644.0218347559999,None,,,,,,,,,,,,,,,,,,,,,,,,,,,,,,,,,,,,,,,,,,,,001,116,2020_Feb_13_1006,spring_faces,3.2.3,59.98948828184386,
condition files/Stage1_1.xlsx,,T1,B1,c,"['c', 'm']","['Clue', 'Monopoly']","[-0.15, 0.5]","[0.15, 0.5]",1,1,,,,,,,,,0,6,6,6,0,3,3,0,,,,,,,,,,,,,,,,,,,,,,,,,,,,,,,,,,,,,,,,,,,,,,,,,,,,,,,646.0051649329998,None,646.0051649329998,None,646.0051649329998,None,c,1,1.3299005119997673,647.5385358389999,None,647.5385358389999,None,647.5385358389999,None,648.9385182649999,None,648.9385182649999,None,648.9385182649999,None,648.9385182649999,None,,,,,,,,,,,,,,,,,,,,,,,,,,,,,,,,,,,,,,,,,,,,001,116,2020_Feb_13_1006,spring_faces,3.2.3,59.98948828184386,
condition files/Stage1_1.xlsx,,B1,T2,c,"['c', 'm']","['Clue', 'Monopoly']","[-0.15, 0.5]","[0.15, 0.5]",1,1,,,,,,,,,0,6,6,6,0,4,4,1,,,,,,,,,,,,,,,,,,,,,,,,,,,,,,,,,,,,,,,,,,,,,,,,,,,,,,,650.9051614539999,None,650.9051614539999,None,650.9051614539999,None,m,0,0.7499302510000234,652.4384720499997,None,652.4384720499997,None,652.4384720499997,None,653.2384309679996,None,653.2384309679996,None,653.2384309679996,None,653.2384309679996,None,,,,,,,,,,,,,,,,,,,,,,,,,,,,,,,,,,,,,,,,,,,,001,116,2020_Feb_13_1006,spring_faces,3.2.3,59.98948828184386,
condition files/Stage1_1.xlsx,,B2,T1,m,"['c', 'm']","['Clue', 'Monopoly']","[-0.15, 0.5]","[0.15, 0.5]",1,1,,,,,,,,,0,6,6,6,0,5,5,2,,,,,,,,,,,,,,,,,,,,,,,,,,,,,,,,,,,,,,,,,,,,,,,,,,,,,,,655.2217976429997,None,655.2217976429997,None,655.2217976429997,None,m,1,3.1531684689998656,656.75520607,None,656.75520607,None,656.75520607,None,659.9885194479998,None,659.9885194479998,None,659.9885194479998,None,659.9885194479998,None,,,,,,,,,,,,,,,,,,,,,,,,,,,,,,,,,,,,,,,,,,,,001,116,2020_Feb_13_1006,spring_faces,3.2.3,59.98948828184386,
condition files/Stage1_1.xlsx,,B4,T4,m,"['c', 'm']","['Clue', 'Monopoly']","[-0.15, 0.5]","[0.15, 0.5]",1,1,,,,,,,,,0,6,6,6,0,6,6,7,,,,,,,,,,,,,,,,,,,,,,,,,,,,,,,,,,,,,,,,,,,,,,,,,,,,,,,661.95518627,None,661.95518627,None,661.95518627,None,m,1,3.011858695999763,663.488526394,None,663.488526394,None,663.488526394,None,666.5718543319999,None,666.5718543319999,None,666.5718543319999,None,666.5718543319999,None,,,,,,,,,,,,,,,,,,,,,,,,,,,,,,,,,,,,,,,,,,,,001,116,2020_Feb_13_1006,spring_faces,3.2.3,59.98948828184386,
condition files/Stage1_1.xlsx,,T3,B4,c,"['c', 'm']","['Clue', 'Monopoly']","[-0.15, 0.5]","[0.15, 0.5]",1,1,,,,,,,,,0,6,6,6,0,7,7,5,,,,,,,,,,,,,,,,,,,,,,,,,,,,,,,,,,,,,,,,,,,,,,,,,,,,,,,668.5385224459997,None,668.5385224459997,None,668.5385224459997,None,m,0,1.7246168760002547,670.0717988319998,None,670.0717988319998,None,670.0717988319998,None,671.8718718569999,None,671.8718718569999,None,671.8718718569999,None,671.8718718569999,None,,,,,,,,,,,,,,,,,,,,,,,,,,,,,,,,,,,,,,,,,,,,001,116,2020_Feb_13_1006,spring_faces,3.2.3,59.98948828184386,
condition files/Stage1_2.xlsx,,T4,B4,m,"['c', 'm']","['Clue', 'Monopoly']","[-0.15, 0.5]","[0.15, 0.5]",1,1,,,,,,,,,0,7,7,7,0,0,0,7,,,,,,,,,,,,,,,,,,,,,,,,,,,,,,,,,,,,,,,,,,,,,,,,,,,,,,,673.855214449,None,673.855214449,None,673.855214449,None,m,1,2.0238732990001154,675.3885345399999,None,675.3885345399999,None,675.3885345399999,None,677.4885207309999,None,677.4885207309999,None,677.4885207309999,None,677.4885207309999,None,,,,,,,,,,,,,,,,,,,,,,,,,,,,,,,,,,,,,,,,,,,,001,116,2020_Feb_13_1006,spring_faces,3.2.3,59.98948828184386,
condition files/Stage1_2.xlsx,,T1,B2,m,"['c', 'm']","['Clue', 'Monopoly']","[-0.15, 0.5]","[0.15, 0.5]",1,1,,,,,,,,,0,7,7,7,0,1,1,2,,,,,,,,,,,,,,,,,,,,,,,,,,,,,,,,,,,,,,,,,,,,,,,,,,,,,,,679.4551750749997,None,679.4551750749997,None,679.4551750749997,None,c,0,1.479928626000401,680.9885150380001,None,680.9885150380001,None,680.9885150380001,None,682.5218276819996,None,682.5218276819996,None,682.5218276819996,None,682.5218276819996,None,,,,,,,,,,,,,,,,,,,,,,,,,,,,,,,,,,,,,,,,,,,,001,116,2020_Feb_13_1006,spring_faces,3.2.3,59.98948828184386,
condition files/Stage1_2.xlsx,,B4,T3,c,"['c', 'm']","['Clue', 'Monopoly']","[-0.15, 0.5]","[0.15, 0.5]",1,1,,,,,,,,,0,7,7,7,0,2,2,5,,,,,,,,,,,,,,,,,,,,,,,,,,,,,,,,,,,,,,,,,,,,,,,,,,,,,,,684.5051867679999,None,684.5051867679999,None,684.5051867679999,None,c,1,5.005886698999802,686.0385078569998,None,686.0385078569998,None,686.0385078569998,None,691.1218771989998,None,691.1218771989998,None,691.1218771989998,None,691.1218771989998,None,,,,,,,,,,,,,,,,,,,,,,,,,,,,,,,,,,,,,,,,,,,,001,116,2020_Feb_13_1006,spring_faces,3.2.3,59.98948828184386,
condition files/Stage1_2.xlsx,,B3,T4,m,"['c', 'm']","['Clue', 'Monopoly']","[-0.15, 0.5]","[0.15, 0.5]",1,1,,,,,,,,,0,7,7,7,0,3,3,6,,,,,,,,,,,,,,,,,,,,,,,,,,,,,,,,,,,,,,,,,,,,,,,,,,,,,,,693.0885490850001,None,693.0885490850001,None,693.0885490850001,None,m,1,1.7826866810000865,694.6218173980001,None,694.6218173980001,None,694.6218173980001,None,696.471820927,None,696.471820927,None,696.471820927,None,696.471820927,None,,,,,,,,,,,,,,,,,,,,,,,,,,,,,,,,,,,,,,,,,,,,001,116,2020_Feb_13_1006,spring_faces,3.2.3,59.98948828184386,
condition files/Stage1_2.xlsx,,T2,B1,c,"['c', 'm']","['Clue', 'Monopoly']","[-0.15, 0.5]","[0.15, 0.5]",1,1,,,,,,,,,0,7,7,7,0,4,4,1,,,,,,,,,,,,,,,,,,,,,,,,,,,,,,,,,,,,,,,,,,,,,,,,,,,,,,,698.4384692069998,None,698.4384692069998,None,698.4384692069998,None,c,1,4.960510787999738,699.9718753009997,None,699.9718753009997,None,699.9718753009997,None,705.0051828579999,None,705.0051828579999,None,705.0051828579999,None,705.0051828579999,None,,,,,,,,,,,,,,,,,,,,,,,,,,,,,,,,,,,,,,,,,,,,001,116,2020_Feb_13_1006,spring_faces,3.2.3,59.98948828184386,
condition files/Stage1_2.xlsx,,B1,T1,c,"['c', 'm']","['Clue', 'Monopoly']","[-0.15, 0.5]","[0.15, 0.5]",1,1,,,,,,,,,0,7,7,7,0,5,5,0,,,,,,,,,,,,,,,,,,,,,,,,,,,,,,,,,,,,,,,,,,,,,,,,,,,,,,,706.97185378,None,706.97185378,None,706.97185378,None,m,0,3.451131900999826,708.5051777099998,None,708.5051777099998,None,708.5051777099998,None,712.021867033,None,712.021867033,None,712.021867033,None,712.021867033,None,,,,,,,,,,,,,,,,,,,,,,,,,,,,,,,,,,,,,,,,,,,,001,116,2020_Feb_13_1006,spring_faces,3.2.3,59.98948828184386,
condition files/Stage1_2.xlsx,,T3,B3,c,"['c', 'm']","['Clue', 'Monopoly']","[-0.15, 0.5]","[0.15, 0.5]",1,1,,,,,,,,,0,7,7,7,0,6,6,4,,,,,,,,,,,,,,,,,,,,,,,,,,,,,,,,,,,,,,,,,,,,,,,,,,,,,,,714.0051184409999,None,714.0051184409999,None,714.0051184409999,None,m,0,1.6018057760002193,715.5385088389999,None,715.5385088389999,None,715.5385088389999,None,717.2050043599997,None,717.2050043599997,None,717.2050043599997,None,717.2050043599997,None,,,,,,,,,,,,,,,,,,,,,,,,,,,,,,,,,,,,,,,,,,,,001,116,2020_Feb_13_1006,spring_faces,3.2.3,59.98948828184386,
condition files/Stage1_2.xlsx,,B2,T2,m,"['c', 'm']","['Clue', 'Monopoly']","[-0.15, 0.5]","[0.15, 0.5]",1,1,,,,,,,,,0,7,7,7,0,7,7,3,,,,,,,,,,,,,,,,,,,,,,,,,,,,,,,,,,,,,,,,,,,,,,,,,,,,,,,719.1885378819998,None,719.1885378819998,None,719.1885378819998,None,c,0,7.44253946300023,720.721868139,None,720.721868139,None,720.721868139,None,728.2385495029998,None,728.2385495029998,None,728.2385495029998,None,728.2385495029998,None,,,,,,,,,,,,,,,,,,,,,,,,,,,,,,,,,,,,,,,,,,,,001,116,2020_Feb_13_1006,spring_faces,3.2.3,59.98948828184386,
condition files/Stage1_1.xlsx,,T3,B4,c,"['c', 'm']","['Clue', 'Monopoly']","[-0.15, 0.5]","[0.15, 0.5]",1,1,,,,,,,,,0,8,8,8,0,0,0,5,,,,,,,,,,,,,,,,,,,,,,,,,,,,,,,,,,,,,,,,,,,,,,,,,,,,,,,730.2218820029998,None,730.2218820029998,None,730.2218820029998,None,c,1,1.177193413999703,731.7552238559997,None,731.7552238559997,None,731.7552238559997,None,733.0052100499997,None,733.0052100499997,None,733.0052100499997,None,733.0052100499997,None,,,,,,,,,,,,,,,,,,,,,,,,,,,,,,,,,,,,,,,,,,,,001,116,2020_Feb_13_1006,spring_faces,3.2.3,59.98948828184386,
condition files/Stage1_1.xlsx,,T2,B2,m,"['c', 'm']","['Clue', 'Monopoly']","[-0.15, 0.5]","[0.15, 0.5]",1,1,,,,,,,,,0,8,8,8,0,1,1,3,,,,,,,,,,,,,,,,,,,,,,,,,,,,,,,,,,,,,,,,,,,,,,,,,,,,,,,734.9718966820001,None,734.9718966820001,None,734.9718966820001,None,m,1,2.7312863840002137,736.5051939569998,None,736.5051939569998,None,736.5051939569998,None,739.3051727439997,None,739.3051727439997,None,739.3051727439997,None,739.3051727439997,None,,,,,,,,,,,,,,,,,,,,,,,,,,,,,,,,,,,,,,,,,,,,001,116,2020_Feb_13_1006,spring_faces,3.2.3,59.98948828184386,
condition files/Stage1_1.xlsx,,B4,T4,m,"['c', 'm']","['Clue', 'Monopoly']","[-0.15, 0.5]","[0.15, 0.5]",1,1,,,,,,,,,0,8,8,8,0,2,2,7,,,,,,,,,,,,,,,,,,,,,,,,,,,,,,,,,,,,,,,,,,,,,,,,,,,,,,,741.271879421,None,741.271879421,None,741.271879421,None,c,0,1.1351146179999887,742.8051911459997,None,742.8051911459997,None,742.8051911459997,None,744.0051363979996,None,744.0051363979996,None,744.0051363979996,None,744.0051363979996,None,,,,,,,,,,,,,,,,,,,,,,,,,,,,,,,,,,,,,,,,,,,,001,116,2020_Feb_13_1006,spring_faces,3.2.3,59.98948828184386,
condition files/Stage1_1.xlsx,,B2,T1,m,"['c', 'm']","['Clue', 'Monopoly']","[-0.15, 0.5]","[0.15, 0.5]",1,1,,,,,,,,,0,8,8,8,0,3,3,2,,,,,,,,,,,,,,,,,,,,,,,,,,,,,,,,,,,,,,,,,,,,,,,,,,,,,,,745.9885392429997,None,745.9885392429997,None,745.9885392429997,None,c,0,1.3465631439999015,747.5218702669999,None,747.5218702669999,None,747.5218702669999,None,748.938419524,None,748.938419524,None,748.938419524,None,748.938419524,None,,,,,,,,,,,,,,,,,,,,,,,,,,,,,,,,,,,,,,,,,,,,001,116,2020_Feb_13_1006,spring_faces,3.2.3,59.98948828184386,
condition files/Stage1_1.xlsx,,T1,B1,c,"['c', 'm']","['Clue', 'Monopoly']","[-0.15, 0.5]","[0.15, 0.5]",1,1,,,,,,,,,0,8,8,8,0,4,4,0,,,,,,,,,,,,,,,,,,,,,,,,,,,,,,,,,,,,,,,,,,,,,,,,,,,,,,,750.9052343640001,None,750.9052343640001,None,750.9052343640001,None,m,0,0.7338401930001055,752.4384816439997,None,752.4384816439997,None,752.4384816439997,None,753.2552088799998,None,753.2552088799998,None,753.2552088799998,None,753.2552088799998,None,,,,,,,,,,,,,,,,,,,,,,,,,,,,,,,,,,,,,,,,,,,,001,116,2020_Feb_13_1006,spring_faces,3.2.3,59.98948828184386,
condition files/Stage1_1.xlsx,,B1,T2,c,"['c', 'm']","['Clue', 'Monopoly']","[-0.15, 0.5]","[0.15, 0.5]",1,1,,,,,,,,,0,8,8,8,0,5,5,1,,,,,,,,,,,,,,,,,,,,,,,,,,,,,,,,,,,,,,,,,,,,,,,,,,,,,,,755.221805181,None,755.221805181,None,755.221805181,None,m,0,1.0891749870002059,756.7552013869999,None,756.7552013869999,None,756.7552013869999,None,757.9051851529998,None,757.9051851529998,None,757.9051851529998,None,757.9051851529998,None,,,,,,,,,,,,,,,,,,,,,,,,,,,,,,,,,,,,,,,,,,,,001,116,2020_Feb_13_1006,spring_faces,3.2.3,59.98948828184386,
condition files/Stage1_1.xlsx,,T4,B3,m,"['c', 'm']","['Clue', 'Monopoly']","[-0.15, 0.5]","[0.15, 0.5]",1,1,,,,,,,,,0,8,8,8,0,6,6,6,,,,,,,,,,,,,,,,,,,,,,,,,,,,,,,,,,,,,,,,,,,,,,,,,,,,,,,759.8885634799999,None,759.8885634799999,None,759.8885634799999,None,c,0,1.4785333239997271,761.4218765639998,None,761.4218765639998,None,761.4218765639998,None,762.9718731759999,None,762.9718731759999,None,762.9718731759999,None,762.9718731759999,None,,,,,,,,,,,,,,,,,,,,,,,,,,,,,,,,,,,,,,,,,,,,001,116,2020_Feb_13_1006,spring_faces,3.2.3,59.98948828184386,
condition files/Stage1_1.xlsx,,B3,T3,c,"['c', 'm']","['Clue', 'Monopoly']","[-0.15, 0.5]","[0.15, 0.5]",1,1,,,,,,,,,0,8,8,8,0,7,7,4,,,,,,,,,,,,,,,,,,,,,,,,,,,,,,,,,,,,,,,,,,,,,,,,,,,,,,,764.938529735,None,764.938529735,None,764.938529735,None,m,0,1.148674638999637,766.4718161999999,None,766.4718161999999,None,766.4718161999999,None,767.6885397719998,None,767.6885397719998,None,767.6885397719998,None,767.6885397719998,None,,,,,,,,,,,,,,,,,,,,,,,,,,,,,,,,,,,,,,,,,,,,001,116,2020_Feb_13_1006,spring_faces,3.2.3,59.98948828184386,
condition files/Stage1_2.xlsx,,T1,B2,m,"['c', 'm']","['Clue', 'Monopoly']","[-0.15, 0.5]","[0.15, 0.5]",1,1,,,,,,,,,0,9,9,9,0,0,0,2,,,,,,,,,,,,,,,,,,,,,,,,,,,,,,,,,,,,,,,,,,,,,,,,,,,,,,,769.671821594,None,769.671821594,None,769.671821594,None,c,0,1.9511273580001216,771.2051993579998,None,771.2051993579998,None,771.2051993579998,None,773.2384558879999,None,773.2384558879999,None,773.2384558879999,None,773.2384558879999,None,,,,,,,,,,,,,,,,,,,,,,,,,,,,,,,,,,,,,,,,,,,,001,116,2020_Feb_13_1006,spring_faces,3.2.3,59.98948828184386,
condition files/Stage1_2.xlsx,,T2,B1,c,"['c', 'm']","['Clue', 'Monopoly']","[-0.15, 0.5]","[0.15, 0.5]",1,1,,,,,,,,,0,9,9,9,0,1,1,1,,,,,,,,,,,,,,,,,,,,,,,,,,,,,,,,,,,,,,,,,,,,,,,,,,,,,,,775.205187857,None,775.205187857,None,775.205187857,None,c,1,1.3778862600001958,776.7385223739998,None,776.7385223739998,None,776.7385223739998,None,778.1885336129999,None,778.1885336129999,None,778.1885336129999,None,778.1885336129999,None,,,,,,,,,,,,,,,,,,,,,,,,,,,,,,,,,,,,,,,,,,,,001,116,2020_Feb_13_1006,spring_faces,3.2.3,59.98948828184386,
condition files/Stage1_2.xlsx,,T4,B4,m,"['c', 'm']","['Clue', 'Monopoly']","[-0.15, 0.5]","[0.15, 0.5]",1,1,,,,,,,,,0,9,9,9,0,2,2,7,,,,,,,,,,,,,,,,,,,,,,,,,,,,,,,,,,,,,,,,,,,,,,,,,,,,,,,780.1551870899998,None,780.1551870899998,None,780.1551870899998,None,m,1,4.283781048000037,781.6885374559997,None,781.6885374559997,None,781.6885374559997,None,786.0551545549997,None,786.0551545549997,None,786.0551545549997,None,786.0551545549997,None,,,,,,,,,,,,,,,,,,,,,,,,,,,,,,,,,,,,,,,,,,,,001,116,2020_Feb_13_1006,spring_faces,3.2.3,59.98948828184386,
condition files/Stage1_2.xlsx,,B3,T4,m,"['c', 'm']","['Clue', 'Monopoly']","[-0.15, 0.5]","[0.15, 0.5]",1,1,,,,,,,,,0,9,9,9,0,3,3,6,,,,,,,,,,,,,,,,,,,,,,,,,,,,,,,,,,,,,,,,,,,,,,,,,,,,,,,788.0219046799998,None,788.0219046799998,None,788.0219046799998,None,m,1,1.169152299000416,789.555203546,None,789.555203546,None,789.555203546,None,790.7885475939997,None,790.7885475939997,None,790.7885475939997,None,790.7885475939997,None,,,,,,,,,,,,,,,,,,,,,,,,,,,,,,,,,,,,,,,,,,,,001,116,2020_Feb_13_1006,spring_faces,3.2.3,59.98948828184386,
condition files/Stage1_2.xlsx,,T3,B3,c,"['c', 'm']","['Clue', 'Monopoly']","[-0.15, 0.5]","[0.15, 0.5]",1,1,,,,,,,,,0,9,9,9,0,4,4,4,,,,,,,,,,,,,,,,,,,,,,,,,,,,,,,,,,,,,,,,,,,,,,,,,,,,,,,792.771856677,None,792.771856677,None,792.771856677,None,c,1,1.747262437000245,794.305185271,None,794.305185271,None,794.305185271,None,796.1218520069997,None,796.1218520069997,None,796.1218520069997,None,796.1218520069997,None,,,,,,,,,,,,,,,,,,,,,,,,,,,,,,,,,,,,,,,,,,,,001,116,2020_Feb_13_1006,spring_faces,3.2.3,59.98948828184386,
condition files/Stage1_2.xlsx,,B1,T1,c,"['c', 'm']","['Clue', 'Monopoly']","[-0.15, 0.5]","[0.15, 0.5]",1,1,,,,,,,,,0,9,9,9,0,5,5,0,,,,,,,,,,,,,,,,,,,,,,,,,,,,,,,,,,,,,,,,,,,,,,,,,,,,,,,798.0885157829998,None,798.0885157829998,None,798.0885157829998,None,c,1,1.5986269420000099,799.6218551049997,None,799.6218551049997,None,799.6218551049997,None,801.2885945959997,None,801.2885945959997,None,801.2885945959997,None,801.2885945959997,None,,,,,,,,,,,,,,,,,,,,,,,,,,,,,,,,,,,,,,,,,,,,001,116,2020_Feb_13_1006,spring_faces,3.2.3,59.98948828184386,
condition files/Stage1_2.xlsx,,B4,T3,c,"['c', 'm']","['Clue', 'Monopoly']","[-0.15, 0.5]","[0.15, 0.5]",1,1,,,,,,,,,0,9,9,9,0,6,6,5,,,,,,,,,,,,,,,,,,,,,,,,,,,,,,,,,,,,,,,,,,,,,,,,,,,,,,,803.255080894,None,803.255080894,None,803.255080894,None,c,1,2.767696158000035,804.788563088,None,804.788563088,None,804.788563088,None,807.6384872509998,None,807.6384872509998,None,807.6384872509998,None,807.6384872509998,None,,,,,,,,,,,,,,,,,,,,,,,,,,,,,,,,,,,,,,,,,,,,001,116,2020_Feb_13_1006,spring_faces,3.2.3,59.98948828184386,
condition files/Stage1_2.xlsx,,B2,T2,m,"['c', 'm']","['Clue', 'Monopoly']","[-0.15, 0.5]","[0.15, 0.5]",1,1,,,,,,,,,0,9,9,9,0,7,7,3,,,,,,,,,,,,,,,,,,,,,,,,,,,,,,,,,,,,,,,,,,,,,,,,,,,,,,,809.6051620909998,None,809.6051620909998,None,809.6051620909998,None,m,1,1.0897920639999938,811.1385391569997,None,811.1385391569997,None,811.1385391569997,None,812.3052338079997,None,812.3052338079997,None,812.3052338079997,None,812.3052338079997,None,,,,,,,,,,,,,,,,,,,,,,,,,,,,,,,,,,,,,,,,,,,,001,116,2020_Feb_13_1006,spring_faces,3.2.3,59.98948828184386,
condition files/Stage1_1.xlsx,,T2,B2,m,"['c', 'm']","['Clue', 'Monopoly']","[-0.15, 0.5]","[0.15, 0.5]",1,1,,,,,,,,,0,10,10,10,0,0,0,3,,,,,,,,,,,,,,,,,,,,,,,,,,,,,,,,,,,,,,,,,,,,,,,,,,,,,,,814.288523577,None,814.288523577,None,814.288523577,None,c,0,1.9905343929999617,815.8218716050001,None,815.8218716050001,None,815.8218716050001,None,817.8885394529998,None,817.8885394529998,None,817.8885394529998,None,817.8885394529998,None,,,,,,,,,,,,,,,,,,,,,,,,,,,,,,,,,,,,,,,,,,,,001,116,2020_Feb_13_1006,spring_faces,3.2.3,59.98948828184386,
condition files/Stage1_1.xlsx,,T3,B4,c,"['c', 'm']","['Clue', 'Monopoly']","[-0.15, 0.5]","[0.15, 0.5]",1,1,,,,,,,,,0,10,10,10,0,1,1,5,,,,,,,,,,,,,,,,,,,,,,,,,,,,,,,,,,,,,,,,,,,,,,,,,,,,,,,819.8552273599998,None,819.8552273599998,None,819.8552273599998,None,c,1,1.3998867709997285,821.3885334229999,None,821.3885334229999,None,821.3885334229999,None,822.8551433349999,None,822.8551433349999,None,822.8551433349999,None,822.8551433349999,None,,,,,,,,,,,,,,,,,,,,,,,,,,,,,,,,,,,,,,,,,,,,001,116,2020_Feb_13_1006,spring_faces,3.2.3,59.98948828184386,
condition files/Stage1_1.xlsx,,B4,T4,m,"['c', 'm']","['Clue', 'Monopoly']","[-0.15, 0.5]","[0.15, 0.5]",1,1,,,,,,,,,0,10,10,10,0,2,2,7,,,,,,,,,,,,,,,,,,,,,,,,,,,,,,,,,,,,,,,,,,,,,,,,,,,,,,,824.8217021159999,None,824.8217021159999,None,824.8217021159999,None,m,1,0.9772163880002154,826.3551898649998,None,826.3551898649998,None,826.3551898649998,None,827.4051914359998,None,827.4051914359998,None,827.4051914359998,None,827.4051914359998,None,,,,,,,,,,,,,,,,,,,,,,,,,,,,,,,,,,,,,,,,,,,,001,116,2020_Feb_13_1006,spring_faces,3.2.3,59.98948828184386,
condition files/Stage1_1.xlsx,,B3,T3,c,"['c', 'm']","['Clue', 'Monopoly']","[-0.15, 0.5]","[0.15, 0.5]",1,1,,,,,,,,,0,10,10,10,0,3,3,4,,,,,,,,,,,,,,,,,,,,,,,,,,,,,,,,,,,,,,,,,,,,,,,,,,,,,,,829.3718032080001,None,829.3718032080001,None,829.3718032080001,None,c,1,1.4511172600000464,830.9051900069999,None,830.9051900069999,None,830.9051900069999,None,832.4384849069997,None,832.4384849069997,None,832.4384849069997,None,832.4384849069997,None,,,,,,,,,,,,,,,,,,,,,,,,,,,,,,,,,,,,,,,,,,,,001,116,2020_Feb_13_1006,spring_faces,3.2.3,59.98948828184386,
condition files/Stage1_1.xlsx,,T4,B3,m,"['c', 'm']","['Clue', 'Monopoly']","[-0.15, 0.5]","[0.15, 0.5]",1,1,,,,,,,,,0,10,10,10,0,4,4,6,,,,,,,,,,,,,,,,,,,,,,,,,,,,,,,,,,,,,,,,,,,,,,,,,,,,,,,834.4052018969996,None,834.4052018969996,None,834.4052018969996,None,c,0,1.6017660899997281,835.938543921,None,835.938543921,None,835.938543921,None,837.6218788259998,None,837.6218788259998,None,837.6218788259998,None,837.6218788259998,None,,,,,,,,,,,,,,,,,,,,,,,,,,,,,,,,,,,,,,,,,,,,001,116,2020_Feb_13_1006,spring_faces,3.2.3,59.98948828184386,
condition files/Stage1_1.xlsx,,B1,T2,c,"['c', 'm']","['Clue', 'Monopoly']","[-0.15, 0.5]","[0.15, 0.5]",1,1,,,,,,,,,0,10,10,10,0,5,5,1,,,,,,,,,,,,,,,,,,,,,,,,,,,,,,,,,,,,,,,,,,,,,,,,,,,,,,,839.5885709149998,None,839.5885709149998,None,839.5885709149998,None,m,0,0.8504111409997677,841.1218765079998,None,841.1218765079998,None,841.1218765079998,None,842.0384234799999,None,842.0384234799999,None,842.0384234799999,None,842.0384234799999,None,,,,,,,,,,,,,,,,,,,,,,,,,,,,,,,,,,,,,,,,,,,,001,116,2020_Feb_13_1006,spring_faces,3.2.3,59.98948828184386,
condition files/Stage1_1.xlsx,,B2,T1,m,"['c', 'm']","['Clue', 'Monopoly']","[-0.15, 0.5]","[0.15, 0.5]",1,1,,,,,,,,,0,10,10,10,0,6,6,2,,,,,,,,,,,,,,,,,,,,,,,,,,,,,,,,,,,,,,,,,,,,,,,,,,,,,,,844.0218990559997,None,844.0218990559997,None,844.0218990559997,None,c,0,1.217122401999859,845.5552117259999,None,845.5552117259999,None,845.5552117259999,None,846.8551399409998,None,846.8551399409998,None,846.8551399409998,None,846.8551399409998,None,,,,,,,,,,,,,,,,,,,,,,,,,,,,,,,,,,,,,,,,,,,,001,116,2020_Feb_13_1006,spring_faces,3.2.3,59.98948828184386,
condition files/Stage1_1.xlsx,,T1,B1,c,"['c', 'm']","['Clue', 'Monopoly']","[-0.15, 0.5]","[0.15, 0.5]",1,1,,,,,,,,,0,10,10,10,0,7,7,0,,,,,,,,,,,,,,,,,,,,,,,,,,,,,,,,,,,,,,,,,,,,,,,,,,,,,,,848.8217793619997,None,848.8217793619997,None,848.8217793619997,None,m,0,1.0412085630000547,850.355187311,None,850.355187311,None,850.355187311,None,851.4718619529999,None,851.4718619529999,None,851.4718619529999,None,851.4718619529999,None,,,,,,,,,,,,,,,,,,,,,,,,,,,,,,,,,,,,,,,,,,,,001,116,2020_Feb_13_1006,spring_faces,3.2.3,59.98948828184386,
condition files/Stage1_2.xlsx,,B3,T4,m,"['c', 'm']","['Clue', 'Monopoly']","[-0.15, 0.5]","[0.15, 0.5]",1,1,,,,,,,,,0,11,11,11,0,0,0,6,,,,,,,,,,,,,,,,,,,,,,,,,,,,,,,,,,,,,,,,,,,,,,,,,,,,,,,853.4551798819998,None,853.4551798819998,None,853.4551798819998,None,c,0,2.823215712000092,855.0051955129998,None,855.0051955129998,None,855.0051955129998,None,857.9052109889999,None,857.9052109889999,None,857.9052109889999,None,857.9052109889999,None,,,,,,,,,,,,,,,,,,,,,,,,,,,,,,,,,,,,,,,,,,,,001,116,2020_Feb_13_1006,spring_faces,3.2.3,59.98948828184386,
condition files/Stage1_2.xlsx,,T4,B4,m,"['c', 'm']","['Clue', 'Monopoly']","[-0.15, 0.5]","[0.15, 0.5]",1,1,,,,,,,,,0,11,11,11,0,1,1,7,,,,,,,,,,,,,,,,,,,,,,,,,,,,,,,,,,,,,,,,,,,,,,,,,,,,,,,859.8718790909998,None,859.8718790909998,None,859.8718790909998,None,m,1,3.8951800049999292,861.4052248779999,None,861.4052248779999,None,861.4052248779999,None,865.3551548789997,None,865.3551548789997,None,865.3551548789997,None,865.3551548789997,None,,,,,,,,,,,,,,,,,,,,,,,,,,,,,,,,,,,,,,,,,,,,001,116,2020_Feb_13_1006,spring_faces,3.2.3,59.98948828184386,
condition files/Stage1_2.xlsx,,T1,B2,m,"['c', 'm']","['Clue', 'Monopoly']","[-0.15, 0.5]","[0.15, 0.5]",1,1,,,,,,,,,0,11,11,11,0,2,2,2,,,,,,,,,,,,,,,,,,,,,,,,,,,,,,,,,,,,,,,,,,,,,,,,,,,,,,,867.3385465910001,None,867.3385465910001,None,867.3385465910001,None,m,1,1.4044970099998864,868.8718714649999,None,868.8718714649999,None,868.8718714649999,None,870.3385639479998,None,870.3385639479998,None,870.3385639479998,None,870.3385639479998,None,,,,,,,,,,,,,,,,,,,,,,,,,,,,,,,,,,,,,,,,,,,,001,116,2020_Feb_13_1006,spring_faces,3.2.3,59.98948828184386,
condition files/Stage1_2.xlsx,,B1,T1,c,"['c', 'm']","['Clue', 'Monopoly']","[-0.15, 0.5]","[0.15, 0.5]",1,1,,,,,,,,,0,11,11,11,0,3,3,0,,,,,,,,,,,,,,,,,,,,,,,,,,,,,,,,,,,,,,,,,,,,,,,,,,,,,,,872.321867655,None,872.321867655,None,872.321867655,None,c,1,2.197278460000234,873.8551859549998,None,873.8551859549998,None,873.8551859549998,None,876.1218873779999,None,876.1218873779999,None,876.1218873779999,None,876.1218873779999,None,,,,,,,,,,,,,,,,,,,,,,,,,,,,,,,,,,,,,,,,,,,,001,116,2020_Feb_13_1006,spring_faces,3.2.3,59.98948828184386,
condition files/Stage1_2.xlsx,,T3,B3,c,"['c', 'm']","['Clue', 'Monopoly']","[-0.15, 0.5]","[0.15, 0.5]",1,1,,,,,,,,,0,11,11,11,0,4,4,4,,,,,,,,,,,,,,,,,,,,,,,,,,,,,,,,,,,,,,,,,,,,,,,,,,,,,,,878.088572917,None,878.088572917,None,878.088572917,None,c,1,1.3589319699999578,879.6215063219997,None,879.6215063219997,None,879.6215063219997,None,881.0385268769996,None,881.0385268769996,None,881.0385268769996,None,881.0385268769996,None,,,,,,,,,,,,,,,,,,,,,,,,,,,,,,,,,,,,,,,,,,,,001,116,2020_Feb_13_1006,spring_faces,3.2.3,59.98948828184386,
condition files/Stage1_2.xlsx,,T2,B1,c,"['c', 'm']","['Clue', 'Monopoly']","[-0.15, 0.5]","[0.15, 0.5]",1,1,,,,,,,,,0,11,11,11,0,5,5,1,,,,,,,,,,,,,,,,,,,,,,,,,,,,,,,,,,,,,,,,,,,,,,,,,,,,,,,883.021886347,None,883.021886347,None,883.021886347,None,m,0,3.3051637510002365,884.555215328,None,884.555215328,None,884.555215328,None,887.9218709849997,None,887.9218709849997,None,887.9218709849997,None,887.9218709849997,None,,,,,,,,,,,,,,,,,,,,,,,,,,,,,,,,,,,,,,,,,,,,001,116,2020_Feb_13_1006,spring_faces,3.2.3,59.98948828184386,
condition files/Stage1_2.xlsx,,B2,T2,m,"['c', 'm']","['Clue', 'Monopoly']","[-0.15, 0.5]","[0.15, 0.5]",1,1,,,,,,,,,0,11,11,11,0,6,6,3,,,,,,,,,,,,,,,,,,,,,,,,,,,,,,,,,,,,,,,,,,,,,,,,,,,,,,,889.9051992559998,None,889.9051992559998,None,889.9051992559998,None,c,0,1.2058590510000613,891.438525777,None,891.438525777,None,891.438525777,None,892.7218555939999,None,892.7218555939999,None,892.7218555939999,None,892.7218555939999,None,,,,,,,,,,,,,,,,,,,,,,,,,,,,,,,,,,,,,,,,,,,,001,116,2020_Feb_13_1006,spring_faces,3.2.3,59.98948828184386,
condition files/Stage1_2.xlsx,,B4,T3,c,"['c', 'm']","['Clue', 'Monopoly']","[-0.15, 0.5]","[0.15, 0.5]",1,1,,,,,,,,,0,11,11,11,0,7,7,5,,,,,,,,,,,,,,,,,,,,,,,,,,,,,,,,,,,,,,,,,,,,,,,,,,,,,,,894.688518512,None,894.688518512,None,894.688518512,None,m,0,0.9025210469999365,896.2218562159997,None,896.2218562159997,None,896.2218562159997,None,897.20514693,None,897.20514693,None,897.20514693,None,897.20514693,None,,,,,,,,,,,,,,,,,,,,,,,,,,,,,,,,,,,,,,,,,,,,001,116,2020_Feb_13_1006,spring_faces,3.2.3,59.98948828184386,
,,,,,,,,,,,,,,,,,,,,,,,,,,,,,,,,,,,,,,,,,,,,,,,,,,,,,,,,,,,,,,,,,,,,,,,,,,,,,,,,,,,,,,,,,,,,,,,,,,,,,,,,,,,,,,,,899.1718532229997,None,space,6.713247972999852,904.155208998,None,,,,,,,,,,,,,,,,,,,,,,,,,,,,,,001,116,2020_Feb_13_1006,spring_faces,3.2.3,59.98948828184386,
condition files/Stage2_1.xlsx,,B4,T4,r,"['s', 'r']","['Stratego', 'Risk']","[-0.15, 0.5]","[0.15, 0.5]",1,1,,,,,,,,,,,,,,,,,0,0,0,0,0,0,0,5,,,,,,,,,,,,,,,,,,,,,,,,,,,,,,,,,,,,,,,,,,,,,,,910.9552034079998,None,910.9552034079998,None,910.9552034079998,None,s,0,2.7820268779996695,912.4384794959997,None,912.4384794959997,None,912.4384794959997,None,915.288542104,None,915.288542104,None,915.288542104,None,915.288542104,None,,,,,,,,,,,,,,,904.155208998,None,,,,,,,,,,,,,,,,,,,,,,,,,,,,001,116,2020_Feb_13_1006,spring_faces,3.2.3,59.98948828184386,
condition files/Stage2_1.xlsx,,T1,B1,s,"['s', 'r']","['Stratego', 'Risk']","[-0.15, 0.5]","[0.15, 0.5]",1,1,,,,,,,,,,,,,,,,,0,0,0,0,0,1,1,2,,,,,,,,,,,,,,,,,,,,,,,,,,,,,,,,,,,,,,,,,,,,,,,917.2551976539999,None,917.2551976539999,None,917.2551976539999,None,r,0,0.8319582309995894,918.7885308109999,None,918.7885308109999,None,918.7885308109999,None,919.6884159269998,None,919.6884159269998,None,919.6884159269998,None,919.6884159269998,None,,,,,,,,,,,,,,,,,,,,,,,,,,,,,,,,,,,,,,,,,,,,001,116,2020_Feb_13_1006,spring_faces,3.2.3,59.98948828184386,
condition files/Stage2_1.xlsx,,B6,T6,r,"['s', 'r']","['Stratego', 'Risk']","[-0.15, 0.5]","[0.15, 0.5]",1,1,,,,,,,,,,,,,,,,,0,0,0,0,0,2,2,1,,,,,,,,,,,,,,,,,,,,,,,,,,,,,,,,,,,,,,,,,,,,,,,921.6551331369997,None,921.6551331369997,None,921.6551331369997,None,s,0,1.3951958269999523,923.5052112509998,None,923.5052112509998,None,923.5052112509998,None,924.971685691,None,924.971685691,None,924.971685691,None,924.971685691,None,,,,,,,,,,,,,,,,,,,,,,,,,,,,,,,,,,,,,,,,,,,,001,116,2020_Feb_13_1006,spring_faces,3.2.3,59.98948828184386,
condition files/Stage2_1.xlsx,,T3,B3,s,"['s', 'r']","['Stratego', 'Risk']","[-0.15, 0.5]","[0.15, 0.5]",1,1,,,,,,,,,,,,,,,,,0,0,0,0,0,3,3,4,,,,,,,,,,,,,,,,,,,,,,,,,,,,,,,,,,,,,,,,,,,,,,,926.9385443219999,None,926.9385443219999,None,926.9385443219999,None,s,1,1.0045613970000886,928.4718017289997,None,928.4718017289997,None,928.4718017289997,None,929.5552112539999,None,929.5552112539999,None,929.5552112539999,None,929.5552112539999,None,,,,,,,,,,,,,,,,,,,,,,,,,,,,,,,,,,,,,,,,,,,,001,116,2020_Feb_13_1006,spring_faces,3.2.3,59.98948828184386,
condition files/Stage2_1.xlsx,,B2,T2,r,"['s', 'r']","['Stratego', 'Risk']","[-0.15, 0.5]","[0.15, 0.5]",1,1,,,,,,,,,,,,,,,,,0,0,0,0,0,4,4,3,,,,,,,,,,,,,,,,,,,,,,,,,,,,,,,,,,,,,,,,,,,,,,,931.521784824,None,931.521784824,None,931.521784824,None,r,1,0.9492949690002206,933.0551863749997,None,933.0551863749997,None,933.0551863749997,None,934.0718402799998,None,934.0718402799998,None,934.0718402799998,None,934.0718402799998,None,,,,,,,,,,,,,,,,,,,,,,,,,,,,,,,,,,,,,,,,,,,,001,116,2020_Feb_13_1006,spring_faces,3.2.3,59.98948828184386,
condition files/Stage2_1.xlsx,,T5,B5,s,"['s', 'r']","['Stratego', 'Risk']","[-0.15, 0.5]","[0.15, 0.5]",1,1,,,,,,,,,,,,,,,,,0,0,0,0,0,5,5,0,,,,,,,,,,,,,,,,,,,,,,,,,,,,,,,,,,,,,,,,,,,,,,,936.0384274869998,None,936.0384274869998,None,936.0384274869998,None,r,0,1.18786084400017,937.88852185,None,937.88852185,None,937.88852185,None,939.155215154,None,939.155215154,None,939.155215154,None,939.155215154,None,,,,,,,,,,,,,,,,,,,,,,,,,,,,,,,,,,,,,,,,,,,,001,116,2020_Feb_13_1006,spring_faces,3.2.3,59.98948828184386,
condition files/Stage2_2.xlsx,,B5,T5,s,"['s', 'r']","['Stratego', 'Risk']","[-0.15, 0.5]","[0.15, 0.5]",1,1,,,,,,,,,,,,,,,,,0,1,1,1,0,0,0,0,,,,,,,,,,,,,,,,,,,,,,,,,,,,,,,,,,,,,,,,,,,,,,,941.188548613,None,941.188548613,None,941.188548613,None,r,0,1.092561817999922,942.6718666299998,None,942.6718666299998,None,942.6718666299998,None,943.838540616,None,943.838540616,None,943.838540616,None,943.838540616,None,,,,,,,,,,,,,,,,,,,,,,,,,,,,,,,,,,,,,,,,,,,,001,116,2020_Feb_13_1006,spring_faces,3.2.3,59.98948828184386,
condition files/Stage2_2.xlsx,,T6,B6,r,"['s', 'r']","['Stratego', 'Risk']","[-0.15, 0.5]","[0.15, 0.5]",1,1,,,,,,,,,,,,,,,,,0,1,1,1,0,1,1,1,,,,,,,,,,,,,,,,,,,,,,,,,,,,,,,,,,,,,,,,,,,,,,,945.8052192969999,None,945.8052192969999,None,945.8052192969999,None,s,0,0.9218321189996459,947.3385426739997,None,947.3385426739997,None,947.3385426739997,None,948.3385206879998,None,948.3385206879998,None,948.3385206879998,None,948.3385206879998,None,,,,,,,,,,,,,,,,,,,,,,,,,,,,,,,,,,,,,,,,,,,,001,116,2020_Feb_13_1006,spring_faces,3.2.3,59.98948828184386,
condition files/Stage2_2.xlsx,,B1,T1,s,"['s', 'r']","['Stratego', 'Risk']","[-0.15, 0.5]","[0.15, 0.5]",1,1,,,,,,,,,,,,,,,,,0,1,1,1,0,2,2,2,,,,,,,,,,,,,,,,,,,,,,,,,,,,,,,,,,,,,,,,,,,,,,,950.3051807090001,None,950.3051807090001,None,950.3051807090001,None,s,1,1.3819417740000972,951.838524366,None,951.838524366,None,951.838524366,None,953.2885325719999,None,953.2885325719999,None,953.2885325719999,None,953.2885325719999,None,,,,,,,,,,,,,,,,,,,,,,,,,,,,,,,,,,,,,,,,,,,,001,116,2020_Feb_13_1006,spring_faces,3.2.3,59.98948828184386,
condition files/Stage2_2.xlsx,,T2,B2,r,"['s', 'r']","['Stratego', 'Risk']","[-0.15, 0.5]","[0.15, 0.5]",1,1,,,,,,,,,,,,,,,,,0,1,1,1,0,3,3,3,,,,,,,,,,,,,,,,,,,,,,,,,,,,,,,,,,,,,,,,,,,,,,,955.25520185,None,955.25520185,None,955.25520185,None,s,0,1.5197813120003048,956.7885080599999,None,956.7885080599999,None,956.7885080599999,None,958.3886545129999,None,958.3886545129999,None,958.3886545129999,None,958.3886545129999,None,,,,,,,,,,,,,,,,,,,,,,,,,,,,,,,,,,,,,,,,,,,,001,116,2020_Feb_13_1006,spring_faces,3.2.3,59.98948828184386,
condition files/Stage2_2.xlsx,,T4,B4,r,"['s', 'r']","['Stratego', 'Risk']","[-0.15, 0.5]","[0.15, 0.5]",1,1,,,,,,,,,,,,,,,,,0,1,1,1,0,4,4,5,,,,,,,,,,,,,,,,,,,,,,,,,,,,,,,,,,,,,,,,,,,,,,,960.355241411,None,960.355241411,None,960.355241411,None,r,1,2.4837409960000514,961.8885601489997,None,961.8885601489997,None,961.8885601489997,None,964.4383129610001,None,964.4383129610001,None,964.4383129610001,None,964.4383129610001,None,,,,,,,,,,,,,,,,,,,,,,,,,,,,,,,,,,,,,,,,,,,,001,116,2020_Feb_13_1006,spring_faces,3.2.3,59.98948828184386,
condition files/Stage2_2.xlsx,,B3,T3,s,"['s', 'r']","['Stratego', 'Risk']","[-0.15, 0.5]","[0.15, 0.5]",1,1,,,,,,,,,,,,,,,,,0,1,1,1,0,5,5,4,,,,,,,,,,,,,,,,,,,,,,,,,,,,,,,,,,,,,,,,,,,,,,,966.42188283,None,966.42188283,None,966.42188283,None,s,1,1.6011007259999133,967.955213753,None,967.955213753,None,967.955213753,None,969.6384964659997,None,969.6384964659997,None,969.6384964659997,None,969.6384964659997,None,,,,,,,,,,,,,,,,,,,,,,,,,,,,,,,,,,,,,,,,,,,,001,116,2020_Feb_13_1006,spring_faces,3.2.3,59.98948828184386,
condition files/Stage2_1.xlsx,,T1,B1,s,"['s', 'r']","['Stratego', 'Risk']","[-0.15, 0.5]","[0.15, 0.5]",1,1,,,,,,,,,,,,,,,,,0,2,2,2,0,0,0,2,,,,,,,,,,,,,,,,,,,,,,,,,,,,,,,,,,,,,,,,,,,,,,,971.621836968,None,971.621836968,None,971.621836968,None,r,0,3.1531713419999505,973.155212223,None,973.155212223,None,973.155212223,None,976.3885785439998,None,976.3885785439998,None,976.3885785439998,None,976.3885785439998,None,,,,,,,,,,,,,,,,,,,,,,,,,,,,,,,,,,,,,,,,,,,,001,116,2020_Feb_13_1006,spring_faces,3.2.3,59.98948828184386,
condition files/Stage2_1.xlsx,,B4,T4,r,"['s', 'r']","['Stratego', 'Risk']","[-0.15, 0.5]","[0.15, 0.5]",1,1,,,,,,,,,,,,,,,,,0,2,2,2,0,1,1,5,,,,,,,,,,,,,,,,,,,,,,,,,,,,,,,,,,,,,,,,,,,,,,,978.3552210119997,None,978.3552210119997,None,978.3552210119997,None,r,1,1.171854870000061,979.8885252370001,None,979.8885252370001,None,979.8885252370001,None,981.1385246509999,None,981.1385246509999,None,981.1385246509999,None,981.1385246509999,None,,,,,,,,,,,,,,,,,,,,,,,,,,,,,,,,,,,,,,,,,,,,001,116,2020_Feb_13_1006,spring_faces,3.2.3,59.98948828184386,
condition files/Stage2_1.xlsx,,B2,T2,r,"['s', 'r']","['Stratego', 'Risk']","[-0.15, 0.5]","[0.15, 0.5]",1,1,,,,,,,,,,,,,,,,,0,2,2,2,0,2,2,3,,,,,,,,,,,,,,,,,,,,,,,,,,,,,,,,,,,,,,,,,,,,,,,983.1052213349999,None,983.1052213349999,None,983.1052213349999,None,s,0,1.4458253019997755,984.6385162359998,None,984.6385162359998,None,984.6385162359998,None,986.1385294229999,None,986.1385294229999,None,986.1385294229999,None,986.1385294229999,None,,,,,,,,,,,,,,,,,,,,,,,,,,,,,,,,,,,,,,,,,,,,001,116,2020_Feb_13_1006,spring_faces,3.2.3,59.98948828184386,
condition files/Stage2_1.xlsx,,B6,T6,r,"['s', 'r']","['Stratego', 'Risk']","[-0.15, 0.5]","[0.15, 0.5]",1,1,,,,,,,,,,,,,,,,,0,2,2,2,0,3,3,1,,,,,,,,,,,,,,,,,,,,,,,,,,,,,,,,,,,,,,,,,,,,,,,988.1218691949998,None,988.1218691949998,None,988.1218691949998,None,r,1,0.9572647309996682,989.65515835,None,989.65515835,None,989.65515835,None,990.688522552,None,990.688522552,None,990.688522552,None,990.688522552,None,,,,,,,,,,,,,,,,,,,,,,,,,,,,,,,,,,,,,,,,,,,,001,116,2020_Feb_13_1006,spring_faces,3.2.3,59.98948828184386,
condition files/Stage2_1.xlsx,,T5,B5,s,"['s', 'r']","['Stratego', 'Risk']","[-0.15, 0.5]","[0.15, 0.5]",1,1,,,,,,,,,,,,,,,,,0,2,2,2,0,4,4,0,,,,,,,,,,,,,,,,,,,,,,,,,,,,,,,,,,,,,,,,,,,,,,,992.6550520799997,None,992.6550520799997,None,992.6550520799997,None,s,1,1.5118867050000517,994.1885265319997,None,994.1885265319997,None,994.1885265319997,None,995.7718546020001,None,995.7718546020001,None,995.7718546020001,None,995.7718546020001,None,,,,,,,,,,,,,,,,,,,,,,,,,,,,,,,,,,,,,,,,,,,,001,116,2020_Feb_13_1006,spring_faces,3.2.3,59.98948828184386,
condition files/Stage2_1.xlsx,,T3,B3,s,"['s', 'r']","['Stratego', 'Risk']","[-0.15, 0.5]","[0.15, 0.5]",1,1,,,,,,,,,,,,,,,,,0,2,2,2,0,5,5,4,,,,,,,,,,,,,,,,,,,,,,,,,,,,,,,,,,,,,,,,,,,,,,,997.7385300789997,None,997.7385300789997,None,997.7385300789997,None,r,0,1.6445533319997594,999.2718574959999,None,999.2718574959999,None,999.2718574959999,None,1000.9718664719999,None,1000.9718664719999,None,1000.9718664719999,None,1000.9718664719999,None,,,,,,,,,,,,,,,,,,,,,,,,,,,,,,,,,,,,,,,,,,,,001,116,2020_Feb_13_1006,spring_faces,3.2.3,59.98948828184386,
condition files/Stage2_2.xlsx,,B3,T3,s,"['s', 'r']","['Stratego', 'Risk']","[-0.15, 0.5]","[0.15, 0.5]",1,1,,,,,,,,,,,,,,,,,0,3,3,3,0,0,0,4,,,,,,,,,,,,,,,,,,,,,,,,,,,,,,,,,,,,,,,,,,,,,,,1002.9718762369998,None,1002.9718762369998,None,1002.9718762369998,None,r,0,1.7871916379999675,1004.5052026949998,None,1004.5052026949998,None,1004.5052026949998,None,1006.355095548,None,1006.355095548,None,1006.355095548,None,1006.355095548,None,,,,,,,,,,,,,,,,,,,,,,,,,,,,,,,,,,,,,,,,,,,,001,116,2020_Feb_13_1006,spring_faces,3.2.3,59.98948828184386,
condition files/Stage2_2.xlsx,,B1,T1,s,"['s', 'r']","['Stratego', 'Risk']","[-0.15, 0.5]","[0.15, 0.5]",1,1,,,,,,,,,,,,,,,,,0,3,3,3,0,1,1,2,,,,,,,,,,,,,,,,,,,,,,,,,,,,,,,,,,,,,,,,,,,,,,,1008.3385641770001,None,1008.3385641770001,None,1008.3385641770001,None,r,0,5.060532545000115,1009.8718802849999,None,1009.8718802849999,None,1009.8718802849999,None,1015.0051963689998,None,1015.0051963689998,None,1015.0051963689998,None,1015.0051963689998,None,,,,,,,,,,,,,,,,,,,,,,,,,,,,,,,,,,,,,,,,,,,,001,116,2020_Feb_13_1006,spring_faces,3.2.3,59.98948828184386,
condition files/Stage2_2.xlsx,,B5,T5,s,"['s', 'r']","['Stratego', 'Risk']","[-0.15, 0.5]","[0.15, 0.5]",1,1,,,,,,,,,,,,,,,,,0,3,3,3,0,2,2,0,,,,,,,,,,,,,,,,,,,,,,,,,,,,,,,,,,,,,,,,,,,,,,,1016.9718548769997,None,1016.9718548769997,None,1016.9718548769997,None,r,0,0.8432282849998955,1018.5051805769999,None,1018.5051805769999,None,1018.5051805769999,None,1019.4051846709999,None,1019.4051846709999,None,1019.4051846709999,None,1019.4051846709999,None,,,,,,,,,,,,,,,,,,,,,,,,,,,,,,,,,,,,,,,,,,,,001,116,2020_Feb_13_1006,spring_faces,3.2.3,59.98948828184386,
condition files/Stage2_2.xlsx,,T6,B6,r,"['s', 'r']","['Stratego', 'Risk']","[-0.15, 0.5]","[0.15, 0.5]",1,1,,,,,,,,,,,,,,,,,0,3,3,3,0,3,3,1,,,,,,,,,,,,,,,,,,,,,,,,,,,,,,,,,,,,,,,,,,,,,,,1021.388572629,None,1021.388572629,None,1021.388572629,None,r,1,1.0184329300000172,1022.9218802279997,None,1022.9218802279997,None,1022.9218802279997,None,1024.021864762,None,1024.021864762,None,1024.021864762,None,1024.021864762,None,,,,,,,,,,,,,,,,,,,,,,,,,,,,,,,,,,,,,,,,,,,,001,116,2020_Feb_13_1006,spring_faces,3.2.3,59.98948828184386,
condition files/Stage2_2.xlsx,,T4,B4,r,"['s', 'r']","['Stratego', 'Risk']","[-0.15, 0.5]","[0.15, 0.5]",1,1,,,,,,,,,,,,,,,,,0,3,3,3,0,4,4,5,,,,,,,,,,,,,,,,,,,,,,,,,,,,,,,,,,,,,,,,,,,,,,,1025.9885714019997,None,1025.9885714019997,None,1025.9885714019997,None,r,1,1.570521867000025,1027.5218548059997,None,1027.5218548059997,None,1027.5218548059997,None,1029.1551849389998,None,1029.1551849389998,None,1029.1551849389998,None,1029.1551849389998,None,,,,,,,,,,,,,,,,,,,,,,,,,,,,,,,,,,,,,,,,,,,,001,116,2020_Feb_13_1006,spring_faces,3.2.3,59.98948828184386,
condition files/Stage2_2.xlsx,,T2,B2,r,"['s', 'r']","['Stratego', 'Risk']","[-0.15, 0.5]","[0.15, 0.5]",1,1,,,,,,,,,,,,,,,,,0,3,3,3,0,5,5,3,,,,,,,,,,,,,,,,,,,,,,,,,,,,,,,,,,,,,,,,,,,,,,,1031.1385662099997,None,1031.1385662099997,None,1031.1385662099997,None,s,0,0.9645969149996745,1032.6718731299998,None,1032.6718731299998,None,1032.6718731299998,None,1033.688525525,None,1033.688525525,None,1033.688525525,None,1033.688525525,None,,,,,,,,,,,,,,,,,,,,,,,,,,,,,,,,,,,,,,,,,,,,001,116,2020_Feb_13_1006,spring_faces,3.2.3,59.98948828184386,
condition files/Stage2_1.xlsx,,B2,T2,r,"['s', 'r']","['Stratego', 'Risk']","[-0.15, 0.5]","[0.15, 0.5]",1,1,,,,,,,,,,,,,,,,,0,4,4,4,0,0,0,3,,,,,,,,,,,,,,,,,,,,,,,,,,,,,,,,,,,,,,,,,,,,,,,1035.6885605319999,None,1035.6885605319999,None,1035.6885605319999,None,r,1,0.9905353949998243,1037.2218798499998,None,1037.2218798499998,None,1037.2218798499998,None,1038.2885296269997,None,1038.2885296269997,None,1038.2885296269997,None,1038.2885296269997,None,,,,,,,,,,,,,,,,,,,,,,,,,,,,,,,,,,,,,,,,,,,,001,116,2020_Feb_13_1006,spring_faces,3.2.3,59.98948828184386,
condition files/Stage2_1.xlsx,,B4,T4,r,"['s', 'r']","['Stratego', 'Risk']","[-0.15, 0.5]","[0.15, 0.5]",1,1,,,,,,,,,,,,,,,,,0,4,4,4,0,1,1,5,,,,,,,,,,,,,,,,,,,,,,,,,,,,,,,,,,,,,,,,,,,,,,,1040.255187754,None,1040.255187754,None,1040.255187754,None,r,1,2.183790259000034,1041.788531358,None,1041.788531358,None,1041.788531358,None,1044.038489349,None,1044.038489349,None,1044.038489349,None,1044.038489349,None,,,,,,,,,,,,,,,,,,,,,,,,,,,,,,,,,,,,,,,,,,,,001,116,2020_Feb_13_1006,spring_faces,3.2.3,59.98948828184386,
condition files/Stage2_1.xlsx,,T5,B5,s,"['s', 'r']","['Stratego', 'Risk']","[-0.15, 0.5]","[0.15, 0.5]",1,1,,,,,,,,,,,,,,,,,0,4,4,4,0,2,2,0,,,,,,,,,,,,,,,,,,,,,,,,,,,,,,,,,,,,,,,,,,,,,,,1046.021795019,None,1046.021795019,None,1046.021795019,None,r,0,2.193221490000269,1047.555192412,None,1047.555192412,None,1047.555192412,None,1049.821882061,None,1049.821882061,None,1049.821882061,None,1049.821882061,None,,,,,,,,,,,,,,,,,,,,,,,,,,,,,,,,,,,,,,,,,,,,001,116,2020_Feb_13_1006,spring_faces,3.2.3,59.98948828184386,
condition files/Stage2_1.xlsx,,T3,B3,s,"['s', 'r']","['Stratego', 'Risk']","[-0.15, 0.5]","[0.15, 0.5]",1,1,,,,,,,,,,,,,,,,,0,4,4,4,0,3,3,4,,,,,,,,,,,,,,,,,,,,,,,,,,,,,,,,,,,,,,,,,,,,,,,1051.7885862489998,None,1051.7885862489998,None,1051.7885862489998,None,s,1,0.7945297930000379,1053.3218813129997,None,1053.3218813129997,None,1053.3218813129997,None,1054.1714114309998,None,1054.1714114309998,None,1054.1714114309998,None,1054.1714114309998,None,,,,,,,,,,,,,,,,,,,,,,,,,,,,,,,,,,,,,,,,,,,,001,116,2020_Feb_13_1006,spring_faces,3.2.3,59.98948828184386,
