condsFile,subStage,cue1,cue2,correct,responseKeys,responseNames,cue1Position,cue2Position,cue1Opacity,cue2Opacity,stageLoop0.thisRepN,stageLoop0.thisTrialN,stageLoop0.thisN,stageLoop0.thisIndex,blockLoop0.thisRepN,blockLoop0.thisTrialN,blockLoop0.thisN,blockLoop0.thisIndex,stage1Loop.thisRepN,stage1Loop.thisTrialN,stage1Loop.thisN,stage1Loop.thisIndex,blockLoop1.thisRepN,blockLoop1.thisTrialN,blockLoop1.thisN,blockLoop1.thisIndex,stage2Loop.thisRepN,stage2Loop.thisTrialN,stage2Loop.thisN,stage2Loop.thisIndex,blockLoop2.thisRepN,blockLoop2.thisTrialN,blockLoop2.thisN,blockLoop2.thisIndex,testLoop.thisRepN,testLoop.thisTrialN,testLoop.thisN,testLoop.thisIndex,blockLoopTest.thisRepN,blockLoopTest.thisTrialN,blockLoopTest.thisN,blockLoopTest.thisIndex,cuePics,id_instr_text.started,id_instr_text.stopped,space_to_continue_2.started,space_to_continue_2.stopped,end_instructions_resp_3.keys,end_instructions_resp_3.rt,end_instructions_resp_3.started,end_instructions_resp_3.stopped,id_input_instr.started,id_input_instr.stopped,id_input_rect.started,id_input_rect.stopped,id_input_resp.keys,id_input_resp.rt,id_input_resp.started,id_input_resp.stopped,sonaID,id_input_text.started,id_input_text.stopped,final_text.started,final_text.stopped,instructions.started,instructions.stopped,end_instructions_resp.keys,end_instructions_resp.rt,end_instructions_resp.started,end_instructions_resp.stopped,space_to_continue.started,space_to_continue.stopped,instructions_stage0.started,instructions_stage0.stopped,end_instructions_resp_stage0.keys,end_instructions_resp_stage0.rt,end_instructions_resp_stage0.started,end_instructions_resp_stage0.stopped,space_to_continue_stage0.started,space_to_continue_stage0.stopped,text.started,text.stopped,resp_text1.started,resp_text1.stopped,resp_text2.started,resp_text2.stopped,trial_resp.keys,trial_resp.corr,trial_resp.rt,trial_resp.started,trial_resp.stopped,cue1Image.started,cue1Image.stopped,cue2Image.started,cue2Image.stopped,cue1Image_fb.started,cue1Image_fb.stopped,cue2Image_fb.started,cue2Image_fb.stopped,fb_text_answer.started,fb_text_answer.stopped,feedback_image.started,feedback_image.stopped,instructions_stage1.started,instructions_stage1.stopped,end_instructions_resp_stage1.keys,end_instructions_resp_stage1.rt,end_instructions_resp_stage1.started,end_instructions_resp_stage1.stopped,space_to_continue_stage1.started,space_to_continue_stage1.stopped,instructions_2.started,instructions_2.stopped,end_instructions_resp_2.keys,end_instructions_resp_2.rt,end_instructions_resp_2.started,end_instructions_resp_2.stopped,press_space_to_continue_stage2.started,press_space_to_continue_stage2.stopped,instructions_testStage1.started,instructions_testStage1.stopped,end_instructions_resp_test1.keys,end_instructions_resp_test1.rt,end_instructions_resp_test1.started,end_instructions_resp_test1.stopped,press_space_to_continue_test1.started,press_space_to_continue_test1.stopped,cue1Image_testChoice.started,cue1Image_testChoice.stopped,cue2Image_testChoice.started,cue2Image_testChoice.stopped,test_resp.keys,test_resp.corr,test_resp.rt,test_resp.started,test_resp.stopped,cue1Image_testConf.started,cue1Image_testConf.stopped,cue2Image_testConf.started,cue2Image_testConf.stopped,conf_reminder.started,conf_reminder.stopped,conf_rating.response,conf_rating.rt,conf_rating.started,conf_rating.stopped,session,participant,date,expName,psychopyVersion,frameRate,
,,,,,,,,,,,,,,,,,,,,,,,,,,,,,,,,,,,,,,,,,,,"{'none': 'pictures/20M_AN_C.png', 'alpha': 'pictures/SHINEd_melon.png', 'beta': 'pictures/SHINEd_apple.png', 'theta': 'pictures/SHINEd_pear.png', 'phi': 'pictures/SHINEd_pepper.png', 'T1': 'pictures/37M_AN_C.png', 'T2': 'pictures/23M_AN_C.png', 'T3': 'pictures/26M_AN_C.png', 'T4': 'pictures/31M_AN_C.png', 'T5': 'pictures/38M_AN_C.png', 'T6': 'pictures/20M_AN_C.png', 'B1': 'pictures/25M_NE_C.png', 'B2': 'pictures/34M_NE_C.png', 'B3': 'pictures/22M_NE_C.png', 'B4': 'pictures/32M_NE_C.png', 'B5': 'pictures/33M_NE_C.png', 'B6': 'pictures/36M_NE_C.png'}",344.628237506,None,349.62851558500006,None,space,80.17358102300022,349.62851558500006,None,,,,,,,,,,,,,,,,,,,,,,,,,,,,,,,,,,,,,,,,,,,,,,,,,,,,,,,,,,,,,,,,,,,,,,,,,,,,,,,,,,,,,,,,,,,,,,,,001,117,2020_Feb_13_1025,spring_faces,3.1.5,60.077921785361454,
,,,,,,,,,,,,,,,,,,,,,,,,,,,,,,,,,,,,,,,,,,,,,,,,,,,,430.29578108800024,None,430.29578108800024,None,"['0', '5', '0', '2', 'j', 'e', 'e', 'l', 'i', '0', '4', '0', '2', 'j', 'e', 'e', 'l', 'i', '0', '4', '0', '2', 'j', 'e', 'backspace', 'backspace', 'j', 'e', 'e', 'l', 'i']","[17.682263436000085, 18.69022014500024, 26.242150903000038, 26.450207384999885, 31.682266937999884, 31.810235667000143, 40.25830769200002, 40.466204008000204, 40.67429797500017, 47.474299142999826, 49.362232891000076, 51.57027136900024, 52.578231635000066, 53.55428184499988, 54.258309181000186, 54.85019932200021, 54.994223578999936, 55.20224463100021, 63.42630510000026, 63.71424194000019, 68.32224623399998, 68.51423622999982, 72.88227066299987, 73.29826810600025, 74.21031118000019, 74.46618609500001, 74.97829058600018, 76.37027370199985, 83.21819417100005, 83.50626943899988, 83.8263064140001]",430.29578108800024,None,,,,,,,,,,,,,,,,,,,,,,,,,,,,,,,,,,,,,,,,,,,,,,,,,,,,,,,,,,,,,,,,,,,,,,,,,,,,,,,,,,,,,,,,001,117,2020_Feb_13_1025,spring_faces,3.1.5,60.077921785361454,
,,,,,,,,,,,,,,,,,,,,,,,,,,,,,,,,,,,,,,,,,,,,,,,,,,,,,,,,,,,,0402jeeli,430.29578108800024,None,430.29578108800024,None,519.1956919280001,None,space,2.550657067999964,524.1953234120001,None,,,,,,,,,,,,,,,,,,,,,,,,,,,,,,,,,,,,,,,,,,,,,,,,,,,,,,,,,,,,,,,,,,,,,,,,,,,,,001,117,2020_Feb_13_1025,spring_faces,3.1.5,60.077921785361454,
,,,,,,,,,,,,,,,,,,,,,,,,,,,,,,,,,,,,,,,,,,,,,,,,,,,,,,,,,,,,,,,,,,,,,,,524.1953234120001,None,526.7955853170001,None,space,15.910732357999677,531.7952869840001,None,,,,,,,,,,,,,,,,,,,,,,,,,,,,,,,,,,,,,,,,,,,,,,,,,,,,,,,,,,,,,,,,,,,,,001,117,2020_Feb_13_1025,spring_faces,3.1.5,60.077921785361454,
condition files/Stage0a.xlsx,0a,alpha,none,h,"['h', 'g']","['Chess', 'Go']","[0, 0.5]","[0, 0]",1,0,0,0,0,0,0,0,0,0,,,,,,,,,,,,,,,,,,,,,,,,,,,,,,,,,,,,,,,,,,,,,,,,,,,,,,,,,,,,,531.7952869840001,None,547.811788638,None,547.811788638,None,547.811788638,None,h,1,6.692536769000071,549.4615539030001,None,549.4615539030001,None,549.4615539030001,None,556.2784525040001,None,556.2784525040001,None,556.2784525040001,None,556.2784525040001,None,,,,,,,,,,,,,,,,,,,,,,,,,,,,,,,,,,,,,,,,,,,,001,117,2020_Feb_13_1025,spring_faces,3.1.5,60.077921785361454,
condition files/Stage0a.xlsx,0a,beta,none,g,"['h', 'g']","['Chess', 'Go']","[0, 0.5]","[0, 0]",1,0,0,0,0,0,0,1,1,1,,,,,,,,,,,,,,,,,,,,,,,,,,,,,,,,,,,,,,,,,,,,,,,,,,,,,,,,,,,,,,,558.178450075,None,558.178450075,None,558.178450075,None,g,1,4.199938385000223,559.7300620169999,None,559.7300620169999,None,559.7300620169999,None,563.994922156,None,563.994922156,None,563.994922156,None,563.994922156,None,,,,,,,,,,,,,,,,,,,,,,,,,,,,,,,,,,,,,,,,,,,,001,117,2020_Feb_13_1025,spring_faces,3.1.5,60.077921785361454,
condition files/Stage0a.xlsx,0a,alpha,none,h,"['h', 'g']","['Chess', 'Go']","[0, 0.5]","[0, 0]",1,0,0,1,1,1,0,0,0,0,,,,,,,,,,,,,,,,,,,,,,,,,,,,,,,,,,,,,,,,,,,,,,,,,,,,,,,,,,,,,,,565.9787846640002,None,565.9787846640002,None,565.9787846640002,None,h,1,1.1864678500000991,567.5115763379999,None,567.5115763379999,None,567.5115763379999,None,568.7622884269999,None,568.7622884269999,None,568.7622884269999,None,568.7622884269999,None,,,,,,,,,,,,,,,,,,,,,,,,,,,,,,,,,,,,,,,,,,,,001,117,2020_Feb_13_1025,spring_faces,3.1.5,60.077921785361454,
condition files/Stage0a.xlsx,0a,beta,none,g,"['h', 'g']","['Chess', 'Go']","[0, 0.5]","[0, 0]",1,0,0,1,1,1,0,1,1,1,,,,,,,,,,,,,,,,,,,,,,,,,,,,,,,,,,,,,,,,,,,,,,,,,,,,,,,,,,,,,,,570.7278316030001,None,570.7278316030001,None,570.7278316030001,None,g,1,0.6438980900002207,572.2620965390001,None,572.2620965390001,None,572.2620965390001,None,572.9623129390002,None,572.9623129390002,None,572.9623129390002,None,572.9623129390002,None,,,,,,,,,,,,,,,,,,,,,,,,,,,,,,,,,,,,,,,,,,,,001,117,2020_Feb_13_1025,spring_faces,3.1.5,60.077921785361454,
condition files/Stage0a.xlsx,0a,alpha,none,h,"['h', 'g']","['Chess', 'Go']","[0, 0.5]","[0, 0]",1,0,0,2,2,2,0,0,0,0,,,,,,,,,,,,,,,,,,,,,,,,,,,,,,,,,,,,,,,,,,,,,,,,,,,,,,,,,,,,,,,574.9457734120001,None,574.9457734120001,None,574.9457734120001,None,h,1,0.6352818020000086,576.4787613070002,None,576.4787613070002,None,576.4787613070002,None,577.178376454,None,577.178376454,None,577.178376454,None,577.178376454,None,,,,,,,,,,,,,,,,,,,,,,,,,,,,,,,,,,,,,,,,,,,,001,117,2020_Feb_13_1025,spring_faces,3.1.5,60.077921785361454,
condition files/Stage0a.xlsx,0a,beta,none,g,"['h', 'g']","['Chess', 'Go']","[0, 0.5]","[0, 0]",1,0,0,2,2,2,0,1,1,1,,,,,,,,,,,,,,,,,,,,,,,,,,,,,,,,,,,,,,,,,,,,,,,,,,,,,,,,,,,,,,,579.1450384039999,None,579.1450384039999,None,579.1450384039999,None,g,1,0.4355169569998907,580.6785107710002,None,580.6785107710002,None,580.6785107710002,None,581.178543343,None,581.178543343,None,581.178543343,None,581.178543343,None,,,,,,,,,,,,,,,,,,,,,,,,,,,,,,,,,,,,,,,,,,,,001,117,2020_Feb_13_1025,spring_faces,3.1.5,60.077921785361454,
condition files/Stage0a.xlsx,0a,alpha,none,h,"['h', 'g']","['Chess', 'Go']","[0, 0.5]","[0, 0]",1,0,0,3,3,3,0,0,0,0,,,,,,,,,,,,,,,,,,,,,,,,,,,,,,,,,,,,,,,,,,,,,,,,,,,,,,,,,,,,,,,583.1621257279999,None,583.1621257279999,None,583.1621257279999,None,h,1,0.5303479720000723,584.6956785890002,None,584.6956785890002,None,584.6956785890002,None,585.2779629800002,None,585.2779629800002,None,585.2779629800002,None,585.2779629800002,None,,,,,,,,,,,,,,,,,,,,,,,,,,,,,,,,,,,,,,,,,,,,001,117,2020_Feb_13_1025,spring_faces,3.1.5,60.077921785361454,
condition files/Stage0a.xlsx,0a,beta,none,g,"['h', 'g']","['Chess', 'Go']","[0, 0.5]","[0, 0]",1,0,0,3,3,3,0,1,1,1,,,,,,,,,,,,,,,,,,,,,,,,,,,,,,,,,,,,,,,,,,,,,,,,,,,,,,,,,,,,,,,587.2452078810002,None,587.2452078810002,None,587.2452078810002,None,g,1,0.5437212930000896,588.7783648600002,None,588.7783648600002,None,588.7783648600002,None,589.3791746430002,None,589.3791746430002,None,589.3791746430002,None,589.3791746430002,None,,,,,,,,,,,,,,,,,,,,,,,,,,,,,,,,,,,,,,,,,,,,001,117,2020_Feb_13_1025,spring_faces,3.1.5,60.077921785361454,
condition files/Stage0a.xlsx,0a,beta,none,g,"['h', 'g']","['Chess', 'Go']","[0, 0.5]","[0, 0]",1,0,0,4,4,4,0,0,0,1,,,,,,,,,,,,,,,,,,,,,,,,,,,,,,,,,,,,,,,,,,,,,,,,,,,,,,,,,,,,,,,591.3621438170003,None,591.3621438170003,None,591.3621438170003,None,g,1,2.2183277920003093,592.8956930180002,None,592.8956930180002,None,592.8956930180002,None,595.1788266980002,None,595.1788266980002,None,595.1788266980002,None,595.1788266980002,None,,,,,,,,,,,,,,,,,,,,,,,,,,,,,,,,,,,,,,,,,,,,001,117,2020_Feb_13_1025,spring_faces,3.1.5,60.077921785361454,
condition files/Stage0a.xlsx,0a,alpha,none,h,"['h', 'g']","['Chess', 'Go']","[0, 0.5]","[0, 0]",1,0,0,4,4,4,0,1,1,0,,,,,,,,,,,,,,,,,,,,,,,,,,,,,,,,,,,,,,,,,,,,,,,,,,,,,,,,,,,,,,,597.1448488460001,None,597.1448488460001,None,597.1448488460001,None,h,1,0.7072806579999451,598.6788052530001,None,598.6788052530001,None,598.6788052530001,None,599.4448915590001,None,599.4448915590001,None,599.4448915590001,None,599.4448915590001,None,,,,,,,,,,,,,,,,,,,,,,,,,,,,,,,,,,,,,,,,,,,,001,117,2020_Feb_13_1025,spring_faces,3.1.5,60.077921785361454,
condition files/Stage0a.xlsx,0a,alpha,none,h,"['h', 'g']","['Chess', 'Go']","[0, 0.5]","[0, 0]",1,0,0,5,5,5,0,0,0,0,,,,,,,,,,,,,,,,,,,,,,,,,,,,,,,,,,,,,,,,,,,,,,,,,,,,,,,,,,,,,,,601.4290485199999,None,601.4290485199999,None,601.4290485199999,None,h,1,0.8084238120000009,602.9616792340003,None,602.9616792340003,None,602.9616792340003,None,603.828459717,None,603.828459717,None,603.828459717,None,603.828459717,None,,,,,,,,,,,,,,,,,,,,,,,,,,,,,,,,,,,,,,,,,,,,001,117,2020_Feb_13_1025,spring_faces,3.1.5,60.077921785361454,
condition files/Stage0a.xlsx,0a,beta,none,g,"['h', 'g']","['Chess', 'Go']","[0, 0.5]","[0, 0]",1,0,0,5,5,5,0,1,1,1,,,,,,,,,,,,,,,,,,,,,,,,,,,,,,,,,,,,,,,,,,,,,,,,,,,,,,,,,,,,,,,605.7945995370001,None,605.7945995370001,None,605.7945995370001,None,g,1,0.5860781020001014,607.327999092,None,607.327999092,None,607.327999092,None,607.9782219470003,None,607.9782219470003,None,607.9782219470003,None,607.9782219470003,None,,,,,,,,,,,,,,,,,,,,,,,,,,,,,,,,,,,,,,,,,,,,001,117,2020_Feb_13_1025,spring_faces,3.1.5,60.077921785361454,
condition files/Stage0b_1.xlsx,0b,alpha,none,h,"['h', 'g']","['Chess', 'Go']","[-0.15, 0.5]","[0.15, 0.5]",1,0,0,6,6,6,0,0,0,0,,,,,,,,,,,,,,,,,,,,,,,,,,,,,,,,,,,,,,,,,,,,,,,,,,,,,,,,,,,,,,,609.9787297410003,None,609.9787297410003,None,609.9787297410003,None,h,1,0.9463276400001632,611.495626205,None,611.495626205,None,611.495626205,None,612.4947472040003,None,612.4947472040003,None,612.4947472040003,None,612.4947472040003,None,,,,,,,,,,,,,,,,,,,,,,,,,,,,,,,,,,,,,,,,,,,,001,117,2020_Feb_13_1025,spring_faces,3.1.5,60.077921785361454,
condition files/Stage0b_1.xlsx,0b,none,beta,g,"['h', 'g']","['Chess', 'Go']","[-0.15, 0.5]","[0.15, 0.5]",0,1,0,6,6,6,0,1,1,1,,,,,,,,,,,,,,,,,,,,,,,,,,,,,,,,,,,,,,,,,,,,,,,,,,,,,,,,,,,,,,,614.4623480710002,None,614.4623480710002,None,614.4623480710002,None,g,1,0.7336956419999296,616.0122996600003,None,616.0122996600003,None,616.0122996600003,None,616.8143624580002,None,616.8143624580002,None,616.8143624580002,None,616.8143624580002,None,,,,,,,,,,,,,,,,,,,,,,,,,,,,,,,,,,,,,,,,,,,,001,117,2020_Feb_13_1025,spring_faces,3.1.5,60.077921785361454,
condition files/Stage0b_2.xlsx,0b,beta,none,g,"['h', 'g']","['Chess', 'Go']","[-0.15, 0.5]","[0.15, 0.5]",1,0,0,7,7,7,0,0,0,1,,,,,,,,,,,,,,,,,,,,,,,,,,,,,,,,,,,,,,,,,,,,,,,,,,,,,,,,,,,,,,,618.812224792,None,618.812224792,None,618.812224792,None,g,1,1.4082814280000093,620.3458178599999,None,620.3458178599999,None,620.3458178599999,None,621.8122211320001,None,621.8122211320001,None,621.8122211320001,None,621.8122211320001,None,,,,,,,,,,,,,,,,,,,,,,,,,,,,,,,,,,,,,,,,,,,,001,117,2020_Feb_13_1025,spring_faces,3.1.5,60.077921785361454,
condition files/Stage0b_2.xlsx,0b,none,alpha,h,"['h', 'g']","['Chess', 'Go']","[-0.15, 0.5]","[0.15, 0.5]",0,1,0,7,7,7,0,1,1,0,,,,,,,,,,,,,,,,,,,,,,,,,,,,,,,,,,,,,,,,,,,,,,,,,,,,,,,,,,,,,,,623.778163943,None,623.778163943,None,623.778163943,None,h,1,0.6957533820000208,625.314311827,None,625.314311827,None,625.314311827,None,626.062642112,None,626.062642112,None,626.062642112,None,626.062642112,None,,,,,,,,,,,,,,,,,,,,,,,,,,,,,,,,,,,,,,,,,,,,001,117,2020_Feb_13_1025,spring_faces,3.1.5,60.077921785361454,
condition files/Stage0b_1.xlsx,0b,none,beta,g,"['h', 'g']","['Chess', 'Go']","[-0.15, 0.5]","[0.15, 0.5]",0,1,0,8,8,8,0,0,0,1,,,,,,,,,,,,,,,,,,,,,,,,,,,,,,,,,,,,,,,,,,,,,,,,,,,,,,,,,,,,,,,628.0454240980002,None,628.0454240980002,None,628.0454240980002,None,g,1,1.0876203170000736,629.5784307170002,None,629.5784307170002,None,629.5784307170002,None,630.7292042170002,None,630.7292042170002,None,630.7292042170002,None,630.7292042170002,None,,,,,,,,,,,,,,,,,,,,,,,,,,,,,,,,,,,,,,,,,,,,001,117,2020_Feb_13_1025,spring_faces,3.1.5,60.077921785361454,
condition files/Stage0b_1.xlsx,0b,alpha,none,h,"['h', 'g']","['Chess', 'Go']","[-0.15, 0.5]","[0.15, 0.5]",1,0,0,8,8,8,0,1,1,0,,,,,,,,,,,,,,,,,,,,,,,,,,,,,,,,,,,,,,,,,,,,,,,,,,,,,,,,,,,,,,,632.6954751920002,None,632.6954751920002,None,632.6954751920002,None,h,1,0.7885874620001232,634.245461127,None,634.245461127,None,634.245461127,None,635.0980177360002,None,635.0980177360002,None,635.0980177360002,None,635.0980177360002,None,,,,,,,,,,,,,,,,,,,,,,,,,,,,,,,,,,,,,,,,,,,,001,117,2020_Feb_13_1025,spring_faces,3.1.5,60.077921785361454,
condition files/Stage0b_2.xlsx,0b,none,alpha,h,"['h', 'g']","['Chess', 'Go']","[-0.15, 0.5]","[0.15, 0.5]",0,1,0,9,9,9,0,0,0,0,,,,,,,,,,,,,,,,,,,,,,,,,,,,,,,,,,,,,,,,,,,,,,,,,,,,,,,,,,,,,,,637.078755306,None,637.078755306,None,637.078755306,None,h,1,0.5491938899999695,638.6288516670002,None,638.6288516670002,None,638.6288516670002,None,639.2292280850002,None,639.2292280850002,None,639.2292280850002,None,639.2292280850002,None,,,,,,,,,,,,,,,,,,,,,,,,,,,,,,,,,,,,,,,,,,,,001,117,2020_Feb_13_1025,spring_faces,3.1.5,60.077921785361454,
condition files/Stage0b_2.xlsx,0b,beta,none,g,"['h', 'g']","['Chess', 'Go']","[-0.15, 0.5]","[0.15, 0.5]",1,0,0,9,9,9,0,1,1,1,,,,,,,,,,,,,,,,,,,,,,,,,,,,,,,,,,,,,,,,,,,,,,,,,,,,,,,,,,,,,,,641.1951429710002,None,641.1951429710002,None,641.1951429710002,None,g,1,0.6208471559998543,642.733274364,None,642.733274364,None,642.733274364,None,643.4123337030001,None,643.4123337030001,None,643.4123337030001,None,643.4123337030001,None,,,,,,,,,,,,,,,,,,,,,,,,,,,,,,,,,,,,,,,,,,,,001,117,2020_Feb_13_1025,spring_faces,3.1.5,60.077921785361454,
condition files/Stage0b_1.xlsx,0b,alpha,none,h,"['h', 'g']","['Chess', 'Go']","[-0.15, 0.5]","[0.15, 0.5]",1,0,0,10,10,10,0,0,0,0,,,,,,,,,,,,,,,,,,,,,,,,,,,,,,,,,,,,,,,,,,,,,,,,,,,,,,,,,,,,,,,645.3955193290003,None,645.3955193290003,None,645.3955193290003,None,h,1,0.5858336569999665,646.9282008150003,None,646.9282008150003,None,646.9282008150003,None,647.5788629040003,None,647.5788629040003,None,647.5788629040003,None,647.5788629040003,None,,,,,,,,,,,,,,,,,,,,,,,,,,,,,,,,,,,,,,,,,,,,001,117,2020_Feb_13_1025,spring_faces,3.1.5,60.077921785361454,
condition files/Stage0b_1.xlsx,0b,none,beta,g,"['h', 'g']","['Chess', 'Go']","[-0.15, 0.5]","[0.15, 0.5]",0,1,0,10,10,10,0,1,1,1,,,,,,,,,,,,,,,,,,,,,,,,,,,,,,,,,,,,,,,,,,,,,,,,,,,,,,,,,,,,,,,649.5451051640002,None,649.5451051640002,None,649.5451051640002,None,g,1,0.79933707400005,651.08270386,None,651.08270386,None,651.08270386,None,651.946691656,None,651.946691656,None,651.946691656,None,651.946691656,None,,,,,,,,,,,,,,,,,,,,,,,,,,,,,,,,,,,,,,,,,,,,001,117,2020_Feb_13_1025,spring_faces,3.1.5,60.077921785361454,
condition files/Stage0b_2.xlsx,0b,none,alpha,h,"['h', 'g']","['Chess', 'Go']","[-0.15, 0.5]","[0.15, 0.5]",0,1,0,11,11,11,0,0,0,0,,,,,,,,,,,,,,,,,,,,,,,,,,,,,,,,,,,,,,,,,,,,,,,,,,,,,,,,,,,,,,,653.9289728900003,None,653.9289728900003,None,653.9289728900003,None,h,1,0.8355176889999711,655.4625364409999,None,655.4625364409999,None,655.4625364409999,None,656.361685884,None,656.361685884,None,656.361685884,None,656.361685884,None,,,,,,,,,,,,,,,,,,,,,,,,,,,,,,,,,,,,,,,,,,,,001,117,2020_Feb_13_1025,spring_faces,3.1.5,60.077921785361454,
condition files/Stage0b_2.xlsx,0b,beta,none,g,"['h', 'g']","['Chess', 'Go']","[-0.15, 0.5]","[0.15, 0.5]",1,0,0,11,11,11,0,1,1,1,,,,,,,,,,,,,,,,,,,,,,,,,,,,,,,,,,,,,,,,,,,,,,,,,,,,,,,,,,,,,,,658.3284453830001,None,658.3284453830001,None,658.3284453830001,None,g,1,0.6271634409999933,659.8788611499999,None,659.8788611499999,None,659.8788611499999,None,660.5669421580001,None,660.5669421580001,None,660.5669421580001,None,660.5669421580001,None,,,,,,,,,,,,,,,,,,,,,,,,,,,,,,,,,,,,,,,,,,,,001,117,2020_Feb_13_1025,spring_faces,3.1.5,60.077921785361454,
condition files/Stage0c_1.xlsx,0c,alpha,phi,h,"['h', 'g']","['Chess', 'Go']","[-0.15, 0.5]","[0.15, 0.5]",1,1,0,12,12,12,0,0,0,1,,,,,,,,,,,,,,,,,,,,,,,,,,,,,,,,,,,,,,,,,,,,,,,,,,,,,,,,,,,,,,,662.5451255309999,None,662.5451255309999,None,662.5451255309999,None,h,1,1.561316431999785,664.1287106059999,None,664.1287106059999,None,664.1287106059999,None,665.744820674,None,665.744820674,None,665.744820674,None,665.744820674,None,,,,,,,,,,,,,,,,,,,,,,,,,,,,,,,,,,,,,,,,,,,,001,117,2020_Feb_13_1025,spring_faces,3.1.5,60.077921785361454,
condition files/Stage0c_1.xlsx,0c,theta,alpha,h,"['h', 'g']","['Chess', 'Go']","[-0.15, 0.5]","[0.15, 0.5]",1,1,0,12,12,12,0,1,1,0,,,,,,,,,,,,,,,,,,,,,,,,,,,,,,,,,,,,,,,,,,,,,,,,,,,,,,,,,,,,,,,667.7118867029999,None,667.7118867029999,None,667.7118867029999,None,h,1,1.2919637049999437,669.2621392720002,None,669.2621392720002,None,669.2621392720002,None,670.6119798750001,None,670.6119798750001,None,670.6119798750001,None,670.6119798750001,None,,,,,,,,,,,,,,,,,,,,,,,,,,,,,,,,,,,,,,,,,,,,001,117,2020_Feb_13_1025,spring_faces,3.1.5,60.077921785361454,
condition files/Stage0c_1.xlsx,0c,phi,beta,g,"['h', 'g']","['Chess', 'Go']","[-0.15, 0.5]","[0.15, 0.5]",1,1,0,12,12,12,0,2,2,3,,,,,,,,,,,,,,,,,,,,,,,,,,,,,,,,,,,,,,,,,,,,,,,,,,,,,,,,,,,,,,,672.5784319029999,None,672.5784319029999,None,672.5784319029999,None,g,1,0.9694753710000441,674.1125693640001,None,674.1125693640001,None,674.1125693640001,None,675.1445997250003,None,675.1445997250003,None,675.1445997250003,None,675.1445997250003,None,,,,,,,,,,,,,,,,,,,,,,,,,,,,,,,,,,,,,,,,,,,,001,117,2020_Feb_13_1025,spring_faces,3.1.5,60.077921785361454,
condition files/Stage0c_1.xlsx,0c,beta,theta,g,"['h', 'g']","['Chess', 'Go']","[-0.15, 0.5]","[0.15, 0.5]",1,1,0,12,12,12,0,3,3,2,,,,,,,,,,,,,,,,,,,,,,,,,,,,,,,,,,,,,,,,,,,,,,,,,,,,,,,,,,,,,,,677.1115622689999,None,677.1115622689999,None,677.1115622689999,None,g,1,2.644442713999979,678.6455689980003,None,678.6455689980003,None,678.6455689980003,None,681.3301114840001,None,681.3301114840001,None,681.3301114840001,None,681.3301114840001,None,,,,,,,,,,,,,,,,,,,,,,,,,,,,,,,,,,,,,,,,,,,,001,117,2020_Feb_13_1025,spring_faces,3.1.5,60.077921785361454,
condition files/Stage0c_2.xlsx,0c,beta,phi,g,"['h', 'g']","['Chess', 'Go']","[-0.15, 0.5]","[0.15, 0.5]",1,1,0,13,13,13,0,0,0,3,,,,,,,,,,,,,,,,,,,,,,,,,,,,,,,,,,,,,,,,,,,,,,,,,,,,,,,,,,,,,,,683.3787536099999,None,683.3787536099999,None,683.3787536099999,None,g,1,1.4518173900000875,684.8622186000002,None,684.8622186000002,None,684.8622186000002,None,686.3616585230002,None,686.3616585230002,None,686.3616585230002,None,686.3616585230002,None,,,,,,,,,,,,,,,,,,,,,,,,,,,,,,,,,,,,,,,,,,,,001,117,2020_Feb_13_1025,spring_faces,3.1.5,60.077921785361454,
condition files/Stage0c_2.xlsx,0c,phi,alpha,h,"['h', 'g']","['Chess', 'Go']","[-0.15, 0.5]","[0.15, 0.5]",1,1,0,13,13,13,0,1,1,1,,,,,,,,,,,,,,,,,,,,,,,,,,,,,,,,,,,,,,,,,,,,,,,,,,,,,,,,,,,,,,,688.3452546809999,None,688.3452546809999,None,688.3452546809999,None,h,1,1.1232057440001881,689.8787923990003,None,689.8787923990003,None,689.8787923990003,None,691.0620148910002,None,691.0620148910002,None,691.0620148910002,None,691.0620148910002,None,,,,,,,,,,,,,,,,,,,,,,,,,,,,,,,,,,,,,,,,,,,,001,117,2020_Feb_13_1025,spring_faces,3.1.5,60.077921785361454,
condition files/Stage0c_2.xlsx,0c,alpha,theta,h,"['h', 'g']","['Chess', 'Go']","[-0.15, 0.5]","[0.15, 0.5]",1,1,0,13,13,13,0,2,2,0,,,,,,,,,,,,,,,,,,,,,,,,,,,,,,,,,,,,,,,,,,,,,,,,,,,,,,,,,,,,,,,693.0284633300002,None,693.0284633300002,None,693.0284633300002,None,h,1,0.9680010140000377,694.5619947109999,None,694.5619947109999,None,694.5619947109999,None,695.580257996,None,695.580257996,None,695.580257996,None,695.580257996,None,,,,,,,,,,,,,,,,,,,,,,,,,,,,,,,,,,,,,,,,,,,,001,117,2020_Feb_13_1025,spring_faces,3.1.5,60.077921785361454,
condition files/Stage0c_2.xlsx,0c,theta,beta,g,"['h', 'g']","['Chess', 'Go']","[-0.15, 0.5]","[0.15, 0.5]",1,1,0,13,13,13,0,3,3,2,,,,,,,,,,,,,,,,,,,,,,,,,,,,,,,,,,,,,,,,,,,,,,,,,,,,,,,,,,,,,,,697.5618359180003,None,697.5618359180003,None,697.5618359180003,None,g,1,1.9703735509997387,699.0956552880002,None,699.0956552880002,None,699.0956552880002,None,701.1286890639999,None,701.1286890639999,None,701.1286890639999,None,701.1286890639999,None,,,,,,,,,,,,,,,,,,,,,,,,,,,,,,,,,,,,,,,,,,,,001,117,2020_Feb_13_1025,spring_faces,3.1.5,60.077921785361454,
condition files/Stage0c_1.xlsx,0c,phi,beta,g,"['h', 'g']","['Chess', 'Go']","[-0.15, 0.5]","[0.15, 0.5]",1,1,0,14,14,14,0,0,0,3,,,,,,,,,,,,,,,,,,,,,,,,,,,,,,,,,,,,,,,,,,,,,,,,,,,,,,,,,,,,,,,703.1118435640001,None,703.1118435640001,None,703.1118435640001,None,g,1,1.221019090000027,704.645022402,None,704.645022402,None,704.645022402,None,705.913196084,None,705.913196084,None,705.913196084,None,705.913196084,None,,,,,,,,,,,,,,,,,,,,,,,,,,,,,,,,,,,,,,,,,,,,001,117,2020_Feb_13_1025,spring_faces,3.1.5,60.077921785361454,
condition files/Stage0c_1.xlsx,0c,beta,theta,g,"['h', 'g']","['Chess', 'Go']","[-0.15, 0.5]","[0.15, 0.5]",1,1,0,14,14,14,0,1,1,2,,,,,,,,,,,,,,,,,,,,,,,,,,,,,,,,,,,,,,,,,,,,,,,,,,,,,,,,,,,,,,,707.8952664590001,None,707.8952664590001,None,707.8952664590001,None,g,1,1.0293959420000647,709.4286612840001,None,709.4286612840001,None,709.4286612840001,None,710.495921237,None,710.495921237,None,710.495921237,None,710.495921237,None,,,,,,,,,,,,,,,,,,,,,,,,,,,,,,,,,,,,,,,,,,,,001,117,2020_Feb_13_1025,spring_faces,3.1.5,60.077921785361454,
condition files/Stage0c_1.xlsx,0c,theta,alpha,h,"['h', 'g']","['Chess', 'Go']","[-0.15, 0.5]","[0.15, 0.5]",1,1,0,14,14,14,0,2,2,0,,,,,,,,,,,,,,,,,,,,,,,,,,,,,,,,,,,,,,,,,,,,,,,,,,,,,,,,,,,,,,,712.4784938779999,None,712.4784938779999,None,712.4784938779999,None,h,1,1.021958105000067,714.0120608689999,None,714.0120608689999,None,714.0120608689999,None,715.0954557250002,None,715.0954557250002,None,715.0954557250002,None,715.0954557250002,None,,,,,,,,,,,,,,,,,,,,,,,,,,,,,,,,,,,,,,,,,,,,001,117,2020_Feb_13_1025,spring_faces,3.1.5,60.077921785361454,
condition files/Stage0c_1.xlsx,0c,alpha,phi,h,"['h', 'g']","['Chess', 'Go']","[-0.15, 0.5]","[0.15, 0.5]",1,1,0,14,14,14,0,3,3,1,,,,,,,,,,,,,,,,,,,,,,,,,,,,,,,,,,,,,,,,,,,,,,,,,,,,,,,,,,,,,,,717.0614440710001,None,717.0614440710001,None,717.0614440710001,None,h,1,1.6229292050002186,718.595110491,None,718.595110491,None,718.595110491,None,720.2786030770003,None,720.2786030770003,None,720.2786030770003,None,720.2786030770003,None,,,,,,,,,,,,,,,,,,,,,,,,,,,,,,,,,,,,,,,,,,,,001,117,2020_Feb_13_1025,spring_faces,3.1.5,60.077921785361454,
condition files/Stage0c_2.xlsx,0c,beta,phi,g,"['h', 'g']","['Chess', 'Go']","[-0.15, 0.5]","[0.15, 0.5]",1,1,0,15,15,15,0,0,0,3,,,,,,,,,,,,,,,,,,,,,,,,,,,,,,,,,,,,,,,,,,,,,,,,,,,,,,,,,,,,,,,722.2622236299999,None,722.2622236299999,None,722.2622236299999,None,g,1,0.598965385000156,723.7950641030002,None,723.7950641030002,None,723.7950641030002,None,724.4454665650001,None,724.4454665650001,None,724.4454665650001,None,724.4454665650001,None,,,,,,,,,,,,,,,,,,,,,,,,,,,,,,,,,,,,,,,,,,,,001,117,2020_Feb_13_1025,spring_faces,3.1.5,60.077921785361454,
condition files/Stage0c_2.xlsx,0c,theta,beta,g,"['h', 'g']","['Chess', 'Go']","[-0.15, 0.5]","[0.15, 0.5]",1,1,0,15,15,15,0,1,1,2,,,,,,,,,,,,,,,,,,,,,,,,,,,,,,,,,,,,,,,,,,,,,,,,,,,,,,,,,,,,,,,726.4119610820003,None,726.4119610820003,None,726.4119610820003,None,g,1,1.3923892709999564,727.945646142,None,727.945646142,None,727.945646142,None,729.379563122,None,729.379563122,None,729.379563122,None,729.379563122,None,,,,,,,,,,,,,,,,,,,,,,,,,,,,,,,,,,,,,,,,,,,,001,117,2020_Feb_13_1025,spring_faces,3.1.5,60.077921785361454,
condition files/Stage0c_2.xlsx,0c,alpha,theta,h,"['h', 'g']","['Chess', 'Go']","[-0.15, 0.5]","[0.15, 0.5]",1,1,0,15,15,15,0,2,2,0,,,,,,,,,,,,,,,,,,,,,,,,,,,,,,,,,,,,,,,,,,,,,,,,,,,,,,,,,,,,,,,731.3615770260003,None,731.3615770260003,None,731.3615770260003,None,h,1,1.0344268329999977,732.8955923809999,None,732.8955923809999,None,732.8955923809999,None,733.9955941840003,None,733.9955941840003,None,733.9955941840003,None,733.9955941840003,None,,,,,,,,,,,,,,,,,,,,,,,,,,,,,,,,,,,,,,,,,,,,001,117,2020_Feb_13_1025,spring_faces,3.1.5,60.077921785361454,
condition files/Stage0c_2.xlsx,0c,phi,alpha,h,"['h', 'g']","['Chess', 'Go']","[-0.15, 0.5]","[0.15, 0.5]",1,1,0,15,15,15,0,3,3,1,,,,,,,,,,,,,,,,,,,,,,,,,,,,,,,,,,,,,,,,,,,,,,,,,,,,,,,,,,,,,,,735.962242611,None,735.962242611,None,735.962242611,None,h,1,3.0263647080000737,737.4957292019999,None,737.4957292019999,None,737.4957292019999,None,740.563078912,None,740.563078912,None,740.563078912,None,740.563078912,None,,,,,,,,,,,,,,,,,,,,,,,,,,,,,,,,,,,,,,,,,,,,001,117,2020_Feb_13_1025,spring_faces,3.1.5,60.077921785361454,
condition files/Stage0c_1.xlsx,0c,phi,beta,g,"['h', 'g']","['Chess', 'Go']","[-0.15, 0.5]","[0.15, 0.5]",1,1,0,16,16,16,0,0,0,3,,,,,,,,,,,,,,,,,,,,,,,,,,,,,,,,,,,,,,,,,,,,,,,,,,,,,,,,,,,,,,,742.562240576,None,742.562240576,None,742.562240576,None,g,1,0.922509287000139,744.0955288340001,None,744.0955288340001,None,744.0955288340001,None,745.078875225,None,745.078875225,None,745.078875225,None,745.078875225,None,,,,,,,,,,,,,,,,,,,,,,,,,,,,,,,,,,,,,,,,,,,,001,117,2020_Feb_13_1025,spring_faces,3.1.5,60.077921785361454,
condition files/Stage0c_1.xlsx,0c,beta,theta,g,"['h', 'g']","['Chess', 'Go']","[-0.15, 0.5]","[0.15, 0.5]",1,1,0,16,16,16,0,1,1,2,,,,,,,,,,,,,,,,,,,,,,,,,,,,,,,,,,,,,,,,,,,,,,,,,,,,,,,,,,,,,,,747.0449465470001,None,747.0449465470001,None,747.0449465470001,None,g,1,0.9675537999996777,748.578440579,None,748.578440579,None,748.578440579,None,749.5950957290001,None,749.5950957290001,None,749.5950957290001,None,749.5950957290001,None,,,,,,,,,,,,,,,,,,,,,,,,,,,,,,,,,,,,,,,,,,,,001,117,2020_Feb_13_1025,spring_faces,3.1.5,60.077921785361454,
condition files/Stage0c_1.xlsx,0c,alpha,phi,h,"['h', 'g']","['Chess', 'Go']","[-0.15, 0.5]","[0.15, 0.5]",1,1,0,16,16,16,0,2,2,1,,,,,,,,,,,,,,,,,,,,,,,,,,,,,,,,,,,,,,,,,,,,,,,,,,,,,,,,,,,,,,,751.5785908000003,None,751.5785908000003,None,751.5785908000003,None,h,1,0.9778406509999513,753.1121417190002,None,753.1121417190002,None,753.1121417190002,None,754.145527402,None,754.145527402,None,754.145527402,None,754.145527402,None,,,,,,,,,,,,,,,,,,,,,,,,,,,,,,,,,,,,,,,,,,,,001,117,2020_Feb_13_1025,spring_faces,3.1.5,60.077921785361454,
condition files/Stage0c_1.xlsx,0c,theta,alpha,h,"['h', 'g']","['Chess', 'Go']","[-0.15, 0.5]","[0.15, 0.5]",1,1,0,16,16,16,0,3,3,0,,,,,,,,,,,,,,,,,,,,,,,,,,,,,,,,,,,,,,,,,,,,,,,,,,,,,,,,,,,,,,,756.1121171469999,None,756.1121171469999,None,756.1121171469999,None,h,1,0.7327376209996146,757.6452843679999,None,757.6452843679999,None,757.6452843679999,None,758.4129259420001,None,758.4129259420001,None,758.4129259420001,None,758.4129259420001,None,,,,,,,,,,,,,,,,,,,,,,,,,,,,,,,,,,,,,,,,,,,,001,117,2020_Feb_13_1025,spring_faces,3.1.5,60.077921785361454,
condition files/Stage0c_2.xlsx,0c,beta,phi,g,"['h', 'g']","['Chess', 'Go']","[-0.15, 0.5]","[0.15, 0.5]",1,1,0,17,17,17,0,0,0,3,,,,,,,,,,,,,,,,,,,,,,,,,,,,,,,,,,,,,,,,,,,,,,,,,,,,,,,,,,,,,,,760.4118210350002,None,760.4118210350002,None,760.4118210350002,None,g,1,0.704534902999967,761.945511032,None,761.945511032,None,761.945511032,None,762.7121308740002,None,762.7121308740002,None,762.7121308740002,None,762.7121308740002,None,,,,,,,,,,,,,,,,,,,,,,,,,,,,,,,,,,,,,,,,,,,,001,117,2020_Feb_13_1025,spring_faces,3.1.5,60.077921785361454,
condition files/Stage0c_2.xlsx,0c,phi,alpha,h,"['h', 'g']","['Chess', 'Go']","[-0.15, 0.5]","[0.15, 0.5]",1,1,0,17,17,17,0,1,1,1,,,,,,,,,,,,,,,,,,,,,,,,,,,,,,,,,,,,,,,,,,,,,,,,,,,,,,,,,,,,,,,764.678497199,None,764.678497199,None,764.678497199,None,h,1,0.870650010999725,766.2113812100001,None,766.2113812100001,None,766.2113812100001,None,767.145716984,None,767.145716984,None,767.145716984,None,767.145716984,None,,,,,,,,,,,,,,,,,,,,,,,,,,,,,,,,,,,,,,,,,,,,001,117,2020_Feb_13_1025,spring_faces,3.1.5,60.077921785361454,
condition files/Stage0c_2.xlsx,0c,theta,beta,g,"['h', 'g']","['Chess', 'Go']","[-0.15, 0.5]","[0.15, 0.5]",1,1,0,17,17,17,0,2,2,2,,,,,,,,,,,,,,,,,,,,,,,,,,,,,,,,,,,,,,,,,,,,,,,,,,,,,,,,,,,,,,,769.1120183400003,None,769.1120183400003,None,769.1120183400003,None,g,1,1.5406753090001075,770.645410397,None,770.645410397,None,770.645410397,None,772.245497675,None,772.245497675,None,772.245497675,None,772.245497675,None,,,,,,,,,,,,,,,,,,,,,,,,,,,,,,,,,,,,,,,,,,,,001,117,2020_Feb_13_1025,spring_faces,3.1.5,60.077921785361454,
condition files/Stage0c_2.xlsx,0c,alpha,theta,h,"['h', 'g']","['Chess', 'Go']","[-0.15, 0.5]","[0.15, 0.5]",1,1,0,17,17,17,0,3,3,0,,,,,,,,,,,,,,,,,,,,,,,,,,,,,,,,,,,,,,,,,,,,,,,,,,,,,,,,,,,,,,,774.211806794,None,774.211806794,None,774.211806794,None,h,1,0.9043344890001208,775.7456971050001,None,775.7456971050001,None,775.7456971050001,None,776.7120858430003,None,776.7120858430003,None,776.7120858430003,None,776.7120858430003,None,,,,,,,,,,,,,,,,,,,,,,,,,,,,,,,,,,,,,,,,,,,,001,117,2020_Feb_13_1025,spring_faces,3.1.5,60.077921785361454,
,,,,,,,,,,,,,,,,,,,,,,,,,,,,,,,,,,,,,,,,,,,,,,,,,,,,,,,,,,,,,,,,,,,,,,,,,,,,,,,,,,,,,,,,,,,,,,,,,,,,,,,,778.695510004,None,space,2.4428870339997957,783.6951734859999,None,,,,,,,,,,,,,,,,,,,,,,,,,,,,,,,,,,,,,,001,117,2020_Feb_13_1025,spring_faces,3.1.5,60.077921785361454,
condition files/Stage1_1.xlsx,,B4,T4,m,"['c', 'm']","['Clue', 'Monopoly']","[-0.15, 0.5]","[0.15, 0.5]",1,1,,,,,,,,,0,0,0,0,0,0,0,7,,,,,,,,,,,,,,,,,,,,,,,,,,,,,,,,,,,,,,,,,,,,,,,,,,,,,,,786.2614052459999,None,786.2614052459999,None,786.2614052459999,None,c,0,3.880260202000045,787.7617191500003,None,787.7617191500003,None,787.7617191500003,None,791.714483315,None,791.714483315,None,791.714483315,None,791.714483315,None,,,,,,,783.6951734859999,None,,,,,,,,,,,,,,,,,,,,,,,,,,,,,,,,,,,,001,117,2020_Feb_13_1025,spring_faces,3.1.5,60.077921785361454,
condition files/Stage1_1.xlsx,,T1,B1,c,"['c', 'm']","['Clue', 'Monopoly']","[-0.15, 0.5]","[0.15, 0.5]",1,1,,,,,,,,,0,0,0,0,0,1,1,0,,,,,,,,,,,,,,,,,,,,,,,,,,,,,,,,,,,,,,,,,,,,,,,,,,,,,,,793.6618088320001,None,793.6618088320001,None,793.6618088320001,None,m,0,2.4462351759998455,795.2118191990003,None,795.2118191990003,None,795.2118191990003,None,797.712131838,None,797.712131838,None,797.712131838,None,797.712131838,None,,,,,,,,,,,,,,,,,,,,,,,,,,,,,,,,,,,,,,,,,,,,001,117,2020_Feb_13_1025,spring_faces,3.1.5,60.077921785361454,
condition files/Stage1_1.xlsx,,T3,B4,c,"['c', 'm']","['Clue', 'Monopoly']","[-0.15, 0.5]","[0.15, 0.5]",1,1,,,,,,,,,0,0,0,0,0,2,2,5,,,,,,,,,,,,,,,,,,,,,,,,,,,,,,,,,,,,,,,,,,,,,,,,,,,,,,,799.6785447400002,None,799.6785447400002,None,799.6785447400002,None,c,1,3.6594427019999785,801.2626610530001,None,801.2626610530001,None,801.2626610530001,None,804.978424856,None,804.978424856,None,804.978424856,None,804.978424856,None,,,,,,,,,,,,,,,,,,,,,,,,,,,,,,,,,,,,,,,,,,,,001,117,2020_Feb_13_1025,spring_faces,3.1.5,60.077921785361454,
condition files/Stage1_1.xlsx,,B3,T3,c,"['c', 'm']","['Clue', 'Monopoly']","[-0.15, 0.5]","[0.15, 0.5]",1,1,,,,,,,,,0,0,0,0,0,3,3,4,,,,,,,,,,,,,,,,,,,,,,,,,,,,,,,,,,,,,,,,,,,,,,,,,,,,,,,806.945261632,None,806.945261632,None,806.945261632,None,c,1,2.1217013589998714,808.5283557339999,None,808.5283557339999,None,808.5283557339999,None,810.712162761,None,810.712162761,None,810.712162761,None,810.712162761,None,,,,,,,,,,,,,,,,,,,,,,,,,,,,,,,,,,,,,,,,,,,,001,117,2020_Feb_13_1025,spring_faces,3.1.5,60.077921785361454,
condition files/Stage1_1.xlsx,,B2,T1,m,"['c', 'm']","['Clue', 'Monopoly']","[-0.15, 0.5]","[0.15, 0.5]",1,1,,,,,,,,,0,0,0,0,0,4,4,2,,,,,,,,,,,,,,,,,,,,,,,,,,,,,,,,,,,,,,,,,,,,,,,,,,,,,,,812.678504986,None,812.678504986,None,812.678504986,None,m,1,1.6215634969998973,814.2285038740001,None,814.2285038740001,None,814.2285038740001,None,815.9288897060001,None,815.9288897060001,None,815.9288897060001,None,815.9288897060001,None,,,,,,,,,,,,,,,,,,,,,,,,,,,,,,,,,,,,,,,,,,,,001,117,2020_Feb_13_1025,spring_faces,3.1.5,60.077921785361454,
condition files/Stage1_1.xlsx,,T4,B3,m,"['c', 'm']","['Clue', 'Monopoly']","[-0.15, 0.5]","[0.15, 0.5]",1,1,,,,,,,,,0,0,0,0,0,5,5,6,,,,,,,,,,,,,,,,,,,,,,,,,,,,,,,,,,,,,,,,,,,,,,,,,,,,,,,817.878642313,None,817.878642313,None,817.878642313,None,c,0,4.278237309999895,819.4118018110003,None,819.4118018110003,None,819.4118018110003,None,823.7456328379999,None,823.7456328379999,None,823.7456328379999,None,823.7456328379999,None,,,,,,,,,,,,,,,,,,,,,,,,,,,,,,,,,,,,,,,,,,,,001,117,2020_Feb_13_1025,spring_faces,3.1.5,60.077921785361454,
condition files/Stage1_1.xlsx,,B1,T2,c,"['c', 'm']","['Clue', 'Monopoly']","[-0.15, 0.5]","[0.15, 0.5]",1,1,,,,,,,,,0,0,0,0,0,6,6,1,,,,,,,,,,,,,,,,,,,,,,,,,,,,,,,,,,,,,,,,,,,,,,,,,,,,,,,825.711773041,None,825.711773041,None,825.711773041,None,m,0,4.139998200000264,827.2620914690001,None,827.2620914690001,None,827.2620914690001,None,831.4645361500002,None,831.4645361500002,None,831.4645361500002,None,831.4645361500002,None,,,,,,,,,,,,,,,,,,,,,,,,,,,,,,,,,,,,,,,,,,,,001,117,2020_Feb_13_1025,spring_faces,3.1.5,60.077921785361454,
condition files/Stage1_1.xlsx,,T2,B2,m,"['c', 'm']","['Clue', 'Monopoly']","[-0.15, 0.5]","[0.15, 0.5]",1,1,,,,,,,,,0,0,0,0,0,7,7,3,,,,,,,,,,,,,,,,,,,,,,,,,,,,,,,,,,,,,,,,,,,,,,,,,,,,,,,833.4284406930001,None,833.4284406930001,None,833.4284406930001,None,m,1,1.5125886629998604,834.9614515640001,None,834.9614515640001,None,834.9614515640001,None,836.530037471,None,836.530037471,None,836.530037471,None,836.530037471,None,,,,,,,,,,,,,,,,,,,,,,,,,,,,,,,,,,,,,,,,,,,,001,117,2020_Feb_13_1025,spring_faces,3.1.5,60.077921785361454,
condition files/Stage1_2.xlsx,,T4,B4,m,"['c', 'm']","['Clue', 'Monopoly']","[-0.15, 0.5]","[0.15, 0.5]",1,1,,,,,,,,,0,1,1,1,0,0,0,7,,,,,,,,,,,,,,,,,,,,,,,,,,,,,,,,,,,,,,,,,,,,,,,,,,,,,,,838.545569074,None,838.545569074,None,838.545569074,None,m,1,3.372310883999944,840.06175773,None,840.06175773,None,840.06175773,None,843.495716338,None,843.495716338,None,843.495716338,None,843.495716338,None,,,,,,,,,,,,,,,,,,,,,,,,,,,,,,,,,,,,,,,,,,,,001,117,2020_Feb_13_1025,spring_faces,3.1.5,60.077921785361454,
condition files/Stage1_2.xlsx,,T3,B3,c,"['c', 'm']","['Clue', 'Monopoly']","[-0.15, 0.5]","[0.15, 0.5]",1,1,,,,,,,,,0,1,1,1,0,1,1,4,,,,,,,,,,,,,,,,,,,,,,,,,,,,,,,,,,,,,,,,,,,,,,,,,,,,,,,845.4617665989999,None,845.4617665989999,None,845.4617665989999,None,c,1,1.3482502520000708,846.9977637860002,None,846.9977637860002,None,846.9977637860002,None,848.4112944170001,None,848.4112944170001,None,848.4112944170001,None,848.4112944170001,None,,,,,,,,,,,,,,,,,,,,,,,,,,,,,,,,,,,,,,,,,,,,001,117,2020_Feb_13_1025,spring_faces,3.1.5,60.077921785361454,
condition files/Stage1_2.xlsx,,B3,T4,m,"['c', 'm']","['Clue', 'Monopoly']","[-0.15, 0.5]","[0.15, 0.5]",1,1,,,,,,,,,0,1,1,1,0,2,2,6,,,,,,,,,,,,,,,,,,,,,,,,,,,,,,,,,,,,,,,,,,,,,,,,,,,,,,,850.3782039560001,None,850.3782039560001,None,850.3782039560001,None,m,1,1.7612329029998364,851.9287684280002,None,851.9287684280002,None,851.9287684280002,None,853.7466842260001,None,853.7466842260001,None,853.7466842260001,None,853.7466842260001,None,,,,,,,,,,,,,,,,,,,,,,,,,,,,,,,,,,,,,,,,,,,,001,117,2020_Feb_13_1025,spring_faces,3.1.5,60.077921785361454,
condition files/Stage1_2.xlsx,,B2,T2,m,"['c', 'm']","['Clue', 'Monopoly']","[-0.15, 0.5]","[0.15, 0.5]",1,1,,,,,,,,,0,1,1,1,0,3,3,3,,,,,,,,,,,,,,,,,,,,,,,,,,,,,,,,,,,,,,,,,,,,,,,,,,,,,,,855.7118236390002,None,855.7118236390002,None,855.7118236390002,None,m,1,4.460399432000031,857.2456406310002,None,857.2456406310002,None,857.2456406310002,None,861.7617089099999,None,861.7617089099999,None,861.7617089099999,None,861.7617089099999,None,,,,,,,,,,,,,,,,,,,,,,,,,,,,,,,,,,,,,,,,,,,,001,117,2020_Feb_13_1025,spring_faces,3.1.5,60.077921785361454,
condition files/Stage1_2.xlsx,,T1,B2,m,"['c', 'm']","['Clue', 'Monopoly']","[-0.15, 0.5]","[0.15, 0.5]",1,1,,,,,,,,,0,1,1,1,0,4,4,2,,,,,,,,,,,,,,,,,,,,,,,,,,,,,,,,,,,,,,,,,,,,,,,,,,,,,,,863.727943844,None,863.727943844,None,863.727943844,None,c,0,4.458705503999681,865.2633899719999,None,865.2633899719999,None,865.2633899719999,None,869.7777419070003,None,869.7777419070003,None,869.7777419070003,None,869.7777419070003,None,,,,,,,,,,,,,,,,,,,,,,,,,,,,,,,,,,,,,,,,,,,,001,117,2020_Feb_13_1025,spring_faces,3.1.5,60.077921785361454,
condition files/Stage1_2.xlsx,,T2,B1,c,"['c', 'm']","['Clue', 'Monopoly']","[-0.15, 0.5]","[0.15, 0.5]",1,1,,,,,,,,,0,1,1,1,0,5,5,1,,,,,,,,,,,,,,,,,,,,,,,,,,,,,,,,,,,,,,,,,,,,,,,,,,,,,,,871.7451413970002,None,871.7451413970002,None,871.7451413970002,None,m,0,1.0827202780001244,873.2793751100003,None,873.2793751100003,None,873.2793751100003,None,874.4131798829999,None,874.4131798829999,None,874.4131798829999,None,874.4131798829999,None,,,,,,,,,,,,,,,,,,,,,,,,,,,,,,,,,,,,,,,,,,,,001,117,2020_Feb_13_1025,spring_faces,3.1.5,60.077921785361454,
condition files/Stage1_2.xlsx,,B1,T1,c,"['c', 'm']","['Clue', 'Monopoly']","[-0.15, 0.5]","[0.15, 0.5]",1,1,,,,,,,,,0,1,1,1,0,6,6,0,,,,,,,,,,,,,,,,,,,,,,,,,,,,,,,,,,,,,,,,,,,,,,,,,,,,,,,876.3788362370001,None,876.3788362370001,None,876.3788362370001,None,c,1,2.1298464920000697,877.9121635830002,None,877.9121635830002,None,877.9121635830002,None,880.0955742430001,None,880.0955742430001,None,880.0955742430001,None,880.0955742430001,None,,,,,,,,,,,,,,,,,,,,,,,,,,,,,,,,,,,,,,,,,,,,001,117,2020_Feb_13_1025,spring_faces,3.1.5,60.077921785361454,
condition files/Stage1_2.xlsx,,B4,T3,c,"['c', 'm']","['Clue', 'Monopoly']","[-0.15, 0.5]","[0.15, 0.5]",1,1,,,,,,,,,0,1,1,1,0,7,7,5,,,,,,,,,,,,,,,,,,,,,,,,,,,,,,,,,,,,,,,,,,,,,,,,,,,,,,,882.0616043290001,None,882.0616043290001,None,882.0616043290001,None,c,1,1.2139221030001863,883.612099939,None,883.612099939,None,883.612099939,None,884.8784179220002,None,884.8784179220002,None,884.8784179220002,None,884.8784179220002,None,,,,,,,,,,,,,,,,,,,,,,,,,,,,,,,,,,,,,,,,,,,,001,117,2020_Feb_13_1025,spring_faces,3.1.5,60.077921785361454,
condition files/Stage1_1.xlsx,,T1,B1,c,"['c', 'm']","['Clue', 'Monopoly']","[-0.15, 0.5]","[0.15, 0.5]",1,1,,,,,,,,,0,2,2,2,0,0,0,0,,,,,,,,,,,,,,,,,,,,,,,,,,,,,,,,,,,,,,,,,,,,,,,,,,,,,,,886.861518492,None,886.861518492,None,886.861518492,None,m,0,0.8938524569998663,888.4121911780003,None,888.4121911780003,None,888.4121911780003,None,889.3621360510001,None,889.3621360510001,None,889.3621360510001,None,889.3621360510001,None,,,,,,,,,,,,,,,,,,,,,,,,,,,,,,,,,,,,,,,,,,,,001,117,2020_Feb_13_1025,spring_faces,3.1.5,60.077921785361454,
condition files/Stage1_1.xlsx,,B3,T3,c,"['c', 'm']","['Clue', 'Monopoly']","[-0.15, 0.5]","[0.15, 0.5]",1,1,,,,,,,,,0,2,2,2,0,1,1,4,,,,,,,,,,,,,,,,,,,,,,,,,,,,,,,,,,,,,,,,,,,,,,,,,,,,,,,891.3278461980003,None,891.3278461980003,None,891.3278461980003,None,c,1,1.036252145999697,892.8618269409999,None,892.8618269409999,None,892.8618269409999,None,893.9622747460003,None,893.9622747460003,None,893.9622747460003,None,893.9622747460003,None,,,,,,,,,,,,,,,,,,,,,,,,,,,,,,,,,,,,,,,,,,,,001,117,2020_Feb_13_1025,spring_faces,3.1.5,60.077921785361454,
condition files/Stage1_1.xlsx,,T4,B3,m,"['c', 'm']","['Clue', 'Monopoly']","[-0.15, 0.5]","[0.15, 0.5]",1,1,,,,,,,,,0,2,2,2,0,2,2,6,,,,,,,,,,,,,,,,,,,,,,,,,,,,,,,,,,,,,,,,,,,,,,,,,,,,,,,895.9282393110002,None,895.9282393110002,None,895.9282393110002,None,m,1,2.1643237279999994,897.4616926100002,None,897.4616926100002,None,897.4616926100002,None,899.69491337,None,899.69491337,None,899.69491337,None,899.69491337,None,,,,,,,,,,,,,,,,,,,,,,,,,,,,,,,,,,,,,,,,,,,,001,117,2020_Feb_13_1025,spring_faces,3.1.5,60.077921785361454,
condition files/Stage1_1.xlsx,,B1,T2,c,"['c', 'm']","['Clue', 'Monopoly']","[-0.15, 0.5]","[0.15, 0.5]",1,1,,,,,,,,,0,2,2,2,0,3,3,1,,,,,,,,,,,,,,,,,,,,,,,,,,,,,,,,,,,,,,,,,,,,,,,,,,,,,,,901.6454230190002,None,901.6454230190002,None,901.6454230190002,None,m,0,1.102697349999744,903.1953464789999,None,903.1953464789999,None,903.1953464789999,None,904.3787738139999,None,904.3787738139999,None,904.3787738139999,None,904.3787738139999,None,,,,,,,,,,,,,,,,,,,,,,,,,,,,,,,,,,,,,,,,,,,,001,117,2020_Feb_13_1025,spring_faces,3.1.5,60.077921785361454,
condition files/Stage1_1.xlsx,,B2,T1,m,"['c', 'm']","['Clue', 'Monopoly']","[-0.15, 0.5]","[0.15, 0.5]",1,1,,,,,,,,,0,2,2,2,0,4,4,2,,,,,,,,,,,,,,,,,,,,,,,,,,,,,,,,,,,,,,,,,,,,,,,,,,,,,,,906.328458431,None,906.328458431,None,906.328458431,None,m,1,0.9949525480001284,907.8630838660001,None,907.8630838660001,None,907.8630838660001,None,908.9284670770003,None,908.9284670770003,None,908.9284670770003,None,908.9284670770003,None,,,,,,,,,,,,,,,,,,,,,,,,,,,,,,,,,,,,,,,,,,,,001,117,2020_Feb_13_1025,spring_faces,3.1.5,60.077921785361454,
condition files/Stage1_1.xlsx,,B4,T4,m,"['c', 'm']","['Clue', 'Monopoly']","[-0.15, 0.5]","[0.15, 0.5]",1,1,,,,,,,,,0,2,2,2,0,5,5,7,,,,,,,,,,,,,,,,,,,,,,,,,,,,,,,,,,,,,,,,,,,,,,,,,,,,,,,910.878477536,None,910.878477536,None,910.878477536,None,m,1,1.6140983550003511,912.4119242790002,None,912.4119242790002,None,912.4119242790002,None,914.0783218360002,None,914.0783218360002,None,914.0783218360002,None,914.0783218360002,None,,,,,,,,,,,,,,,,,,,,,,,,,,,,,,,,,,,,,,,,,,,,001,117,2020_Feb_13_1025,spring_faces,3.1.5,60.077921785361454,
condition files/Stage1_1.xlsx,,T2,B2,m,"['c', 'm']","['Clue', 'Monopoly']","[-0.15, 0.5]","[0.15, 0.5]",1,1,,,,,,,,,0,2,2,2,0,6,6,3,,,,,,,,,,,,,,,,,,,,,,,,,,,,,,,,,,,,,,,,,,,,,,,,,,,,,,,916.0451782670002,None,916.0451782670002,None,916.0451782670002,None,c,0,4.174565956999686,917.595514612,None,917.595514612,None,917.595514612,None,921.8287704510003,None,921.8287704510003,None,921.8287704510003,None,921.8287704510003,None,,,,,,,,,,,,,,,,,,,,,,,,,,,,,,,,,,,,,,,,,,,,001,117,2020_Feb_13_1025,spring_faces,3.1.5,60.077921785361454,
condition files/Stage1_1.xlsx,,T3,B4,c,"['c', 'm']","['Clue', 'Monopoly']","[-0.15, 0.5]","[0.15, 0.5]",1,1,,,,,,,,,0,2,2,2,0,7,7,5,,,,,,,,,,,,,,,,,,,,,,,,,,,,,,,,,,,,,,,,,,,,,,,,,,,,,,,923.795181517,None,923.795181517,None,923.795181517,None,c,1,1.896607894999761,925.329483559,None,925.329483559,None,925.329483559,None,927.2804505879999,None,927.2804505879999,None,927.2804505879999,None,927.2804505879999,None,,,,,,,,,,,,,,,,,,,,,,,,,,,,,,,,,,,,,,,,,,,,001,117,2020_Feb_13_1025,spring_faces,3.1.5,60.077921785361454,
condition files/Stage1_2.xlsx,,T2,B1,c,"['c', 'm']","['Clue', 'Monopoly']","[-0.15, 0.5]","[0.15, 0.5]",1,1,,,,,,,,,0,3,3,3,0,0,0,1,,,,,,,,,,,,,,,,,,,,,,,,,,,,,,,,,,,,,,,,,,,,,,,,,,,,,,,929.2622517,None,929.2622517,None,929.2622517,None,m,0,0.9891727320000427,930.79693907,None,930.79693907,None,930.79693907,None,931.8450332070001,None,931.8450332070001,None,931.8450332070001,None,931.8450332070001,None,,,,,,,,,,,,,,,,,,,,,,,,,,,,,,,,,,,,,,,,,,,,001,117,2020_Feb_13_1025,spring_faces,3.1.5,60.077921785361454,
condition files/Stage1_2.xlsx,,T4,B4,m,"['c', 'm']","['Clue', 'Monopoly']","[-0.15, 0.5]","[0.15, 0.5]",1,1,,,,,,,,,0,3,3,3,0,1,1,7,,,,,,,,,,,,,,,,,,,,,,,,,,,,,,,,,,,,,,,,,,,,,,,,,,,,,,,933.8118136500002,None,933.8118136500002,None,933.8118136500002,None,m,1,1.0959385250002924,935.362024262,None,935.362024262,None,935.362024262,None,936.513968712,None,936.513968712,None,936.513968712,None,936.513968712,None,,,,,,,,,,,,,,,,,,,,,,,,,,,,,,,,,,,,,,,,,,,,001,117,2020_Feb_13_1025,spring_faces,3.1.5,60.077921785361454,
condition files/Stage1_2.xlsx,,T3,B3,c,"['c', 'm']","['Clue', 'Monopoly']","[-0.15, 0.5]","[0.15, 0.5]",1,1,,,,,,,,,0,3,3,3,0,2,2,4,,,,,,,,,,,,,,,,,,,,,,,,,,,,,,,,,,,,,,,,,,,,,,,,,,,,,,,938.4786132200002,None,938.4786132200002,None,938.4786132200002,None,c,1,0.5734108120000201,940.0126988669999,None,940.0126988669999,None,940.0126988669999,None,940.6472270489999,None,940.6472270489999,None,940.6472270489999,None,940.6472270489999,None,,,,,,,,,,,,,,,,,,,,,,,,,,,,,,,,,,,,,,,,,,,,001,117,2020_Feb_13_1025,spring_faces,3.1.5,60.077921785361454,
condition files/Stage1_2.xlsx,,T1,B2,m,"['c', 'm']","['Clue', 'Monopoly']","[-0.15, 0.5]","[0.15, 0.5]",1,1,,,,,,,,,0,3,3,3,0,3,3,2,,,,,,,,,,,,,,,,,,,,,,,,,,,,,,,,,,,,,,,,,,,,,,,,,,,,,,,942.6115349430002,None,942.6115349430002,None,942.6115349430002,None,m,1,1.6237806220001403,944.146305148,None,944.146305148,None,944.146305148,None,945.845311088,None,945.845311088,None,945.845311088,None,945.845311088,None,,,,,,,,,,,,,,,,,,,,,,,,,,,,,,,,,,,,,,,,,,,,001,117,2020_Feb_13_1025,spring_faces,3.1.5,60.077921785361454,
condition files/Stage1_2.xlsx,,B4,T3,c,"['c', 'm']","['Clue', 'Monopoly']","[-0.15, 0.5]","[0.15, 0.5]",1,1,,,,,,,,,0,3,3,3,0,4,4,5,,,,,,,,,,,,,,,,,,,,,,,,,,,,,,,,,,,,,,,,,,,,,,,,,,,,,,,947.7947705720003,None,947.7947705720003,None,947.7947705720003,None,c,1,1.0645756950002578,949.345468258,None,949.345468258,None,949.345468258,None,950.4635889250003,None,950.4635889250003,None,950.4635889250003,None,950.4635889250003,None,,,,,,,,,,,,,,,,,,,,,,,,,,,,,,,,,,,,,,,,,,,,001,117,2020_Feb_13_1025,spring_faces,3.1.5,60.077921785361454,
condition files/Stage1_2.xlsx,,B1,T1,c,"['c', 'm']","['Clue', 'Monopoly']","[-0.15, 0.5]","[0.15, 0.5]",1,1,,,,,,,,,0,3,3,3,0,5,5,0,,,,,,,,,,,,,,,,,,,,,,,,,,,,,,,,,,,,,,,,,,,,,,,,,,,,,,,952.4280451990003,None,952.4280451990003,None,952.4280451990003,None,c,1,2.0148581530002048,953.9791900710002,None,953.9791900710002,None,953.9791900710002,None,956.0458753980001,None,956.0458753980001,None,956.0458753980001,None,956.0458753980001,None,,,,,,,,,,,,,,,,,,,,,,,,,,,,,,,,,,,,,,,,,,,,001,117,2020_Feb_13_1025,spring_faces,3.1.5,60.077921785361454,
condition files/Stage1_2.xlsx,,B2,T2,m,"['c', 'm']","['Clue', 'Monopoly']","[-0.15, 0.5]","[0.15, 0.5]",1,1,,,,,,,,,0,3,3,3,0,6,6,3,,,,,,,,,,,,,,,,,,,,,,,,,,,,,,,,,,,,,,,,,,,,,,,,,,,,,,,958.0112553859999,None,958.0112553859999,None,958.0112553859999,None,m,1,0.9608415069997136,959.545148274,None,959.545148274,None,959.545148274,None,960.5641505940002,None,960.5641505940002,None,960.5641505940002,None,960.5641505940002,None,,,,,,,,,,,,,,,,,,,,,,,,,,,,,,,,,,,,,,,,,,,,001,117,2020_Feb_13_1025,spring_faces,3.1.5,60.077921785361454,
condition files/Stage1_2.xlsx,,B3,T4,m,"['c', 'm']","['Clue', 'Monopoly']","[-0.15, 0.5]","[0.15, 0.5]",1,1,,,,,,,,,0,3,3,3,0,7,7,6,,,,,,,,,,,,,,,,,,,,,,,,,,,,,,,,,,,,,,,,,,,,,,,,,,,,,,,962.5290033770002,None,962.5290033770002,None,962.5290033770002,None,m,1,2.9071184569997968,964.0629961330001,None,964.0629961330001,None,964.0629961330001,None,967.0284737450002,None,967.0284737450002,None,967.0284737450002,None,967.0284737450002,None,,,,,,,,,,,,,,,,,,,,,,,,,,,,,,,,,,,,,,,,,,,,001,117,2020_Feb_13_1025,spring_faces,3.1.5,60.077921785361454,
condition files/Stage1_1.xlsx,,B4,T4,m,"['c', 'm']","['Clue', 'Monopoly']","[-0.15, 0.5]","[0.15, 0.5]",1,1,,,,,,,,,0,4,4,4,0,0,0,7,,,,,,,,,,,,,,,,,,,,,,,,,,,,,,,,,,,,,,,,,,,,,,,,,,,,,,,969.012229213,None,969.012229213,None,969.012229213,None,m,1,1.3357371279998915,970.5463508150001,None,970.5463508150001,None,970.5463508150001,None,971.9455820359999,None,971.9455820359999,None,971.9455820359999,None,971.9455820359999,None,,,,,,,,,,,,,,,,,,,,,,,,,,,,,,,,,,,,,,,,,,,,001,117,2020_Feb_13_1025,spring_faces,3.1.5,60.077921785361454,
condition files/Stage1_1.xlsx,,B1,T2,c,"['c', 'm']","['Clue', 'Monopoly']","[-0.15, 0.5]","[0.15, 0.5]",1,1,,,,,,,,,0,4,4,4,0,1,1,1,,,,,,,,,,,,,,,,,,,,,,,,,,,,,,,,,,,,,,,,,,,,,,,,,,,,,,,973.9115830280002,None,973.9115830280002,None,973.9115830280002,None,m,0,1.4120758029998797,975.4619490959999,None,975.4619490959999,None,975.4619490959999,None,976.94559931,None,976.94559931,None,976.94559931,None,976.94559931,None,,,,,,,,,,,,,,,,,,,,,,,,,,,,,,,,,,,,,,,,,,,,001,117,2020_Feb_13_1025,spring_faces,3.1.5,60.077921785361454,
condition files/Stage1_1.xlsx,,T3,B4,c,"['c', 'm']","['Clue', 'Monopoly']","[-0.15, 0.5]","[0.15, 0.5]",1,1,,,,,,,,,0,4,4,4,0,2,2,5,,,,,,,,,,,,,,,,,,,,,,,,,,,,,,,,,,,,,,,,,,,,,,,,,,,,,,,978.8952953779999,None,978.8952953779999,None,978.8952953779999,None,c,1,1.1640379020000182,980.430037777,None,980.430037777,None,980.430037777,None,981.645526451,None,981.645526451,None,981.645526451,None,981.645526451,None,,,,,,,,,,,,,,,,,,,,,,,,,,,,,,,,,,,,,,,,,,,,001,117,2020_Feb_13_1025,spring_faces,3.1.5,60.077921785361454,
condition files/Stage1_1.xlsx,,B3,T3,c,"['c', 'm']","['Clue', 'Monopoly']","[-0.15, 0.5]","[0.15, 0.5]",1,1,,,,,,,,,0,4,4,4,0,3,3,4,,,,,,,,,,,,,,,,,,,,,,,,,,,,,,,,,,,,,,,,,,,,,,,,,,,,,,,983.6114108460001,None,983.6114108460001,None,983.6114108460001,None,c,1,1.0556328069997107,985.162408745,None,985.162408745,None,985.162408745,None,986.2782816590002,None,986.2782816590002,None,986.2782816590002,None,986.2782816590002,None,,,,,,,,,,,,,,,,,,,,,,,,,,,,,,,,,,,,,,,,,,,,001,117,2020_Feb_13_1025,spring_faces,3.1.5,60.077921785361454,
condition files/Stage1_1.xlsx,,T1,B1,c,"['c', 'm']","['Clue', 'Monopoly']","[-0.15, 0.5]","[0.15, 0.5]",1,1,,,,,,,,,0,4,4,4,0,4,4,0,,,,,,,,,,,,,,,,,,,,,,,,,,,,,,,,,,,,,,,,,,,,,,,,,,,,,,,988.2449131220001,None,988.2449131220001,None,988.2449131220001,None,c,1,1.2545434419998855,989.7955346230001,None,989.7955346230001,None,989.7955346230001,None,991.1122369110003,None,991.1122369110003,None,991.1122369110003,None,991.1122369110003,None,,,,,,,,,,,,,,,,,,,,,,,,,,,,,,,,,,,,,,,,,,,,001,117,2020_Feb_13_1025,spring_faces,3.1.5,60.077921785361454,
condition files/Stage1_1.xlsx,,B2,T1,m,"['c', 'm']","['Clue', 'Monopoly']","[-0.15, 0.5]","[0.15, 0.5]",1,1,,,,,,,,,0,4,4,4,0,5,5,2,,,,,,,,,,,,,,,,,,,,,,,,,,,,,,,,,,,,,,,,,,,,,,,,,,,,,,,993.0782608939999,None,993.0782608939999,None,993.0782608939999,None,c,0,1.1565511609996975,994.6135608120003,None,994.6135608120003,None,994.6135608120003,None,995.845110621,None,995.845110621,None,995.845110621,None,995.845110621,None,,,,,,,,,,,,,,,,,,,,,,,,,,,,,,,,,,,,,,,,,,,,001,117,2020_Feb_13_1025,spring_faces,3.1.5,60.077921785361454,
condition files/Stage1_1.xlsx,,T4,B3,m,"['c', 'm']","['Clue', 'Monopoly']","[-0.15, 0.5]","[0.15, 0.5]",1,1,,,,,,,,,0,4,4,4,0,6,6,6,,,,,,,,,,,,,,,,,,,,,,,,,,,,,,,,,,,,,,,,,,,,,,,,,,,,,,,997.7948599840001,None,997.7948599840001,None,997.7948599840001,None,m,1,1.5299454679998234,999.3280777519999,None,999.3280777519999,None,999.3280777519999,None,1000.911801232,None,1000.911801232,None,1000.911801232,None,1000.911801232,None,,,,,,,,,,,,,,,,,,,,,,,,,,,,,,,,,,,,,,,,,,,,001,117,2020_Feb_13_1025,spring_faces,3.1.5,60.077921785361454,
condition files/Stage1_1.xlsx,,T2,B2,m,"['c', 'm']","['Clue', 'Monopoly']","[-0.15, 0.5]","[0.15, 0.5]",1,1,,,,,,,,,0,4,4,4,0,7,7,3,,,,,,,,,,,,,,,,,,,,,,,,,,,,,,,,,,,,,,,,,,,,,,,,,,,,,,,1002.878536318,None,1002.878536318,None,1002.878536318,None,c,0,1.5171925200002079,1004.4287884650003,None,1004.4287884650003,None,1004.4287884650003,None,1006.0118507030002,None,1006.0118507030002,None,1006.0118507030002,None,1006.0118507030002,None,,,,,,,,,,,,,,,,,,,,,,,,,,,,,,,,,,,,,,,,,,,,001,117,2020_Feb_13_1025,spring_faces,3.1.5,60.077921785361454,
condition files/Stage1_2.xlsx,,B1,T1,c,"['c', 'm']","['Clue', 'Monopoly']","[-0.15, 0.5]","[0.15, 0.5]",1,1,,,,,,,,,0,5,5,5,0,0,0,0,,,,,,,,,,,,,,,,,,,,,,,,,,,,,,,,,,,,,,,,,,,,,,,,,,,,,,,1007.994734505,None,1007.994734505,None,1007.994734505,None,m,0,0.22384945599969797,1009.53024302,None,1009.53024302,None,1009.53024302,None,1009.8138657439999,None,1009.8138657439999,None,1009.8138657439999,None,1009.8138657439999,None,,,,,,,,,,,,,,,,,,,,,,,,,,,,,,,,,,,,,,,,,,,,001,117,2020_Feb_13_1025,spring_faces,3.1.5,60.077921785361454,
condition files/Stage1_2.xlsx,,T2,B1,c,"['c', 'm']","['Clue', 'Monopoly']","[-0.15, 0.5]","[0.15, 0.5]",1,1,,,,,,,,,0,5,5,5,0,1,1,1,,,,,,,,,,,,,,,,,,,,,,,,,,,,,,,,,,,,,,,,,,,,,,,,,,,,,,,1011.7784542530003,None,1011.7784542530003,None,1011.7784542530003,None,c,1,0.28188920399998096,1013.3121468150002,None,1013.3121468150002,None,1013.3121468150002,None,1013.6448309960001,None,1013.6448309960001,None,1013.6448309960001,None,1013.6448309960001,None,,,,,,,,,,,,,,,,,,,,,,,,,,,,,,,,,,,,,,,,,,,,001,117,2020_Feb_13_1025,spring_faces,3.1.5,60.077921785361454,
condition files/Stage1_2.xlsx,,B2,T2,m,"['c', 'm']","['Clue', 'Monopoly']","[-0.15, 0.5]","[0.15, 0.5]",1,1,,,,,,,,,0,5,5,5,0,2,2,3,,,,,,,,,,,,,,,,,,,,,,,,,,,,,,,,,,,,,,,,,,,,,,,,,,,,,,,1015.6118251990001,None,1015.6118251990001,None,1015.6118251990001,None,c,0,0.015921666000394907,1017.162186989,None,1017.162186989,None,1017.162186989,None,1017.2454384030002,None,1017.2454384030002,None,1017.2454384030002,None,1017.2454384030002,None,,,,,,,,,,,,,,,,,,,,,,,,,,,,,,,,,,,,,,,,,,,,001,117,2020_Feb_13_1025,spring_faces,3.1.5,60.077921785361454,
condition files/Stage1_2.xlsx,,T1,B2,m,"['c', 'm']","['Clue', 'Monopoly']","[-0.15, 0.5]","[0.15, 0.5]",1,1,,,,,,,,,0,5,5,5,0,3,3,2,,,,,,,,,,,,,,,,,,,,,,,,,,,,,,,,,,,,,,,,,,,,,,,,,,,,,,,1019.19526748,None,1019.19526748,None,1019.19526748,None,c,0,0.2889341609998155,1020.7451325239999,None,1020.7451325239999,None,1020.7451325239999,None,1021.0954623329999,None,1021.0954623329999,None,1021.0954623329999,None,1021.0954623329999,None,,,,,,,,,,,,,,,,,,,,,,,,,,,,,,,,,,,,,,,,,,,,001,117,2020_Feb_13_1025,spring_faces,3.1.5,60.077921785361454,
condition files/Stage1_2.xlsx,,T3,B3,c,"['c', 'm']","['Clue', 'Monopoly']","[-0.15, 0.5]","[0.15, 0.5]",1,1,,,,,,,,,0,5,5,5,0,4,4,4,,,,,,,,,,,,,,,,,,,,,,,,,,,,,,,,,,,,,,,,,,,,,,,,,,,,,,,1023.0618349740002,None,1023.0618349740002,None,1023.0618349740002,None,c,1,0.2303235490003317,1024.611802766,None,1024.611802766,None,1024.611802766,None,1024.8974456280002,None,1024.8974456280002,None,1024.8974456280002,None,1024.8974456280002,None,,,,,,,,,,,,,,,,,,,,,,,,,,,,,,,,,,,,,,,,,,,,001,117,2020_Feb_13_1025,spring_faces,3.1.5,60.077921785361454,
condition files/Stage1_2.xlsx,,T4,B4,m,"['c', 'm']","['Clue', 'Monopoly']","[-0.15, 0.5]","[0.15, 0.5]",1,1,,,,,,,,,0,5,5,5,0,5,5,7,,,,,,,,,,,,,,,,,,,,,,,,,,,,,,,,,,,,,,,,,,,,,,,,,,,,,,,1026.8615731600003,None,1026.8615731600003,None,1026.8615731600003,None,m,1,0.19027846800008774,1028.4118152639999,None,1028.4118152639999,None,1028.4118152639999,None,1028.66339461,None,1028.66339461,None,1028.66339461,None,1028.66339461,None,,,,,,,,,,,,,,,,,,,,,,,,,,,,,,,,,,,,,,,,,,,,001,117,2020_Feb_13_1025,spring_faces,3.1.5,60.077921785361454,
condition files/Stage1_2.xlsx,,B3,T4,m,"['c', 'm']","['Clue', 'Monopoly']","[-0.15, 0.5]","[0.15, 0.5]",1,1,,,,,,,,,0,5,5,5,0,6,6,6,,,,,,,,,,,,,,,,,,,,,,,,,,,,,,,,,,,,,,,,,,,,,,,,,,,,,,,1030.6285315180003,None,1030.6285315180003,None,1030.6285315180003,None,m,1,0.5032607959997222,1032.178794031,None,1032.178794031,None,1032.178794031,None,1032.74485344,None,1032.74485344,None,1032.74485344,None,1032.74485344,None,,,,,,,,,,,,,,,,,,,,,,,,,,,,,,,,,,,,,,,,,,,,001,117,2020_Feb_13_1025,spring_faces,3.1.5,60.077921785361454,
condition files/Stage1_2.xlsx,,B4,T3,c,"['c', 'm']","['Clue', 'Monopoly']","[-0.15, 0.5]","[0.15, 0.5]",1,1,,,,,,,,,0,5,5,5,0,7,7,5,,,,,,,,,,,,,,,,,,,,,,,,,,,,,,,,,,,,,,,,,,,,,,,,,,,,,,,1034.711507332,None,1034.711507332,None,1034.711507332,None,c,1,0.5000617720002083,1036.2459289490002,None,1036.2459289490002,None,1036.2459289490002,None,1036.81335115,None,1036.81335115,None,1036.81335115,None,1036.81335115,None,,,,,,,,,,,,,,,,,,,,,,,,,,,,,,,,,,,,,,,,,,,,001,117,2020_Feb_13_1025,spring_faces,3.1.5,60.077921785361454,
condition files/Stage1_1.xlsx,,T2,B2,m,"['c', 'm']","['Clue', 'Monopoly']","[-0.15, 0.5]","[0.15, 0.5]",1,1,,,,,,,,,0,6,6,6,0,0,0,3,,,,,,,,,,,,,,,,,,,,,,,,,,,,,,,,,,,,,,,,,,,,,,,,,,,,,,,1038.7951976550003,None,1038.7951976550003,None,1038.7951976550003,None,m,1,0.896302538999862,1040.345735709,None,1040.345735709,None,1040.345735709,None,1041.2976886229999,None,1041.2976886229999,None,1041.2976886229999,None,1041.2976886229999,None,,,,,,,,,,,,,,,,,,,,,,,,,,,,,,,,,,,,,,,,,,,,001,117,2020_Feb_13_1025,spring_faces,3.1.5,60.077921785361454,
condition files/Stage1_1.xlsx,,B4,T4,m,"['c', 'm']","['Clue', 'Monopoly']","[-0.15, 0.5]","[0.15, 0.5]",1,1,,,,,,,,,0,6,6,6,0,1,1,7,,,,,,,,,,,,,,,,,,,,,,,,,,,,,,,,,,,,,,,,,,,,,,,,,,,,,,,1043.261980449,None,1043.261980449,None,1043.261980449,None,c,0,3.501848597999924,1044.812185241,None,1044.812185241,None,1044.812185241,None,1048.378770022,None,1048.378770022,None,1048.378770022,None,1048.378770022,None,,,,,,,,,,,,,,,,,,,,,,,,,,,,,,,,,,,,,,,,,,,,001,117,2020_Feb_13_1025,spring_faces,3.1.5,60.077921785361454,
condition files/Stage1_1.xlsx,,T3,B4,c,"['c', 'm']","['Clue', 'Monopoly']","[-0.15, 0.5]","[0.15, 0.5]",1,1,,,,,,,,,0,6,6,6,0,2,2,5,,,,,,,,,,,,,,,,,,,,,,,,,,,,,,,,,,,,,,,,,,,,,,,,,,,,,,,1050.3451796610002,None,1050.3451796610002,None,1050.3451796610002,None,m,0,0.30695432499987874,1051.879140691,None,1051.879140691,None,1051.879140691,None,1052.261949543,None,1052.261949543,None,1052.261949543,None,1052.261949543,None,,,,,,,,,,,,,,,,,,,,,,,,,,,,,,,,,,,,,,,,,,,,001,117,2020_Feb_13_1025,spring_faces,3.1.5,60.077921785361454,
condition files/Stage1_1.xlsx,,B2,T1,m,"['c', 'm']","['Clue', 'Monopoly']","[-0.15, 0.5]","[0.15, 0.5]",1,1,,,,,,,,,0,6,6,6,0,3,3,2,,,,,,,,,,,,,,,,,,,,,,,,,,,,,,,,,,,,,,,,,,,,,,,,,,,,,,,1054.2118322330002,None,1054.2118322330002,None,1054.2118322330002,None,m,1,0.9025680130002911,1055.747512637,None,1055.747512637,None,1055.747512637,None,1056.7291159360002,None,1056.7291159360002,None,1056.7291159360002,None,1056.7291159360002,None,,,,,,,,,,,,,,,,,,,,,,,,,,,,,,,,,,,,,,,,,,,,001,117,2020_Feb_13_1025,spring_faces,3.1.5,60.077921785361454,
condition files/Stage1_1.xlsx,,B1,T2,c,"['c', 'm']","['Clue', 'Monopoly']","[-0.15, 0.5]","[0.15, 0.5]",1,1,,,,,,,,,0,6,6,6,0,4,4,1,,,,,,,,,,,,,,,,,,,,,,,,,,,,,,,,,,,,,,,,,,,,,,,,,,,,,,,1058.6785200550003,None,1058.6785200550003,None,1058.6785200550003,None,c,1,1.2212632419996226,1060.2287919579999,None,1060.2287919579999,None,1060.2287919579999,None,1061.513118632,None,1061.513118632,None,1061.513118632,None,1061.513118632,None,,,,,,,,,,,,,,,,,,,,,,,,,,,,,,,,,,,,,,,,,,,,001,117,2020_Feb_13_1025,spring_faces,3.1.5,60.077921785361454,
condition files/Stage1_1.xlsx,,B3,T3,c,"['c', 'm']","['Clue', 'Monopoly']","[-0.15, 0.5]","[0.15, 0.5]",1,1,,,,,,,,,0,6,6,6,0,5,5,4,,,,,,,,,,,,,,,,,,,,,,,,,,,,,,,,,,,,,,,,,,,,,,,,,,,,,,,1063.4783021420003,None,1063.4783021420003,None,1063.4783021420003,None,m,0,0.7418338749998838,1065.0122752410002,None,1065.0122752410002,None,1065.0122752410002,None,1065.811909742,None,1065.811909742,None,1065.811909742,None,1065.811909742,None,,,,,,,,,,,,,,,,,,,,,,,,,,,,,,,,,,,,,,,,,,,,001,117,2020_Feb_13_1025,spring_faces,3.1.5,60.077921785361454,
condition files/Stage1_1.xlsx,,T1,B1,c,"['c', 'm']","['Clue', 'Monopoly']","[-0.15, 0.5]","[0.15, 0.5]",1,1,,,,,,,,,0,6,6,6,0,6,6,0,,,,,,,,,,,,,,,,,,,,,,,,,,,,,,,,,,,,,,,,,,,,,,,,,,,,,,,1067.778135439,None,1067.778135439,None,1067.778135439,None,m,0,1.0011486409998724,1069.3287990170002,None,1069.3287990170002,None,1069.3287990170002,None,1070.395534845,None,1070.395534845,None,1070.395534845,None,1070.395534845,None,,,,,,,,,,,,,,,,,,,,,,,,,,,,,,,,,,,,,,,,,,,,001,117,2020_Feb_13_1025,spring_faces,3.1.5,60.077921785361454,
condition files/Stage1_1.xlsx,,T4,B3,m,"['c', 'm']","['Clue', 'Monopoly']","[-0.15, 0.5]","[0.15, 0.5]",1,1,,,,,,,,,0,6,6,6,0,7,7,6,,,,,,,,,,,,,,,,,,,,,,,,,,,,,,,,,,,,,,,,,,,,,,,,,,,,,,,1072.3618579050003,None,1072.3618579050003,None,1072.3618579050003,None,m,1,0.9444870420002189,1073.897510791,None,1073.897510791,None,1073.897510791,None,1074.8950282179999,None,1074.8950282179999,None,1074.8950282179999,None,1074.8950282179999,None,,,,,,,,,,,,,,,,,,,,,,,,,,,,,,,,,,,,,,,,,,,,001,117,2020_Feb_13_1025,spring_faces,3.1.5,60.077921785361454,
condition files/Stage1_2.xlsx,,T3,B3,c,"['c', 'm']","['Clue', 'Monopoly']","[-0.15, 0.5]","[0.15, 0.5]",1,1,,,,,,,,,0,7,7,7,0,0,0,4,,,,,,,,,,,,,,,,,,,,,,,,,,,,,,,,,,,,,,,,,,,,,,,,,,,,,,,1076.8787878920002,None,1076.8787878920002,None,1076.8787878920002,None,m,0,0.25334642300003907,1078.428736375,None,1078.428736375,None,1078.428736375,None,1078.762275815,None,1078.762275815,None,1078.762275815,None,1078.762275815,None,,,,,,,,,,,,,,,,,,,,,,,,,,,,,,,,,,,,,,,,,,,,001,117,2020_Feb_13_1025,spring_faces,3.1.5,60.077921785361454,
condition files/Stage1_2.xlsx,,B3,T4,m,"['c', 'm']","['Clue', 'Monopoly']","[-0.15, 0.5]","[0.15, 0.5]",1,1,,,,,,,,,0,7,7,7,0,1,1,6,,,,,,,,,,,,,,,,,,,,,,,,,,,,,,,,,,,,,,,,,,,,,,,,,,,,,,,1080.7118549720003,None,1080.7118549720003,None,1080.7118549720003,None,c,0,0.27668797400019685,1082.245412187,None,1082.245412187,None,1082.245412187,None,1082.579695553,None,1082.579695553,None,1082.579695553,None,1082.579695553,None,,,,,,,,,,,,,,,,,,,,,,,,,,,,,,,,,,,,,,,,,,,,001,117,2020_Feb_13_1025,spring_faces,3.1.5,60.077921785361454,
condition files/Stage1_2.xlsx,,T1,B2,m,"['c', 'm']","['Clue', 'Monopoly']","[-0.15, 0.5]","[0.15, 0.5]",1,1,,,,,,,,,0,7,7,7,0,2,2,2,,,,,,,,,,,,,,,,,,,,,,,,,,,,,,,,,,,,,,,,,,,,,,,,,,,,,,,1084.544990722,None,1084.544990722,None,1084.544990722,None,m,1,0.23465948099965317,1086.0793897419999,None,1086.0793897419999,None,1086.0793897419999,None,1086.378586416,None,1086.378586416,None,1086.378586416,None,1086.378586416,None,,,,,,,,,,,,,,,,,,,,,,,,,,,,,,,,,,,,,,,,,,,,001,117,2020_Feb_13_1025,spring_faces,3.1.5,60.077921785361454,
condition files/Stage1_2.xlsx,,T4,B4,m,"['c', 'm']","['Clue', 'Monopoly']","[-0.15, 0.5]","[0.15, 0.5]",1,1,,,,,,,,,0,7,7,7,0,3,3,7,,,,,,,,,,,,,,,,,,,,,,,,,,,,,,,,,,,,,,,,,,,,,,,,,,,,,,,1088.3451518040001,None,1088.3451518040001,None,1088.3451518040001,None,m,1,0.6743651249998948,1089.879745022,None,1089.879745022,None,1089.879745022,None,1090.6117425520001,None,1090.6117425520001,None,1090.6117425520001,None,1090.6117425520001,None,,,,,,,,,,,,,,,,,,,,,,,,,,,,,,,,,,,,,,,,,,,,001,117,2020_Feb_13_1025,spring_faces,3.1.5,60.077921785361454,
condition files/Stage1_2.xlsx,,B2,T2,m,"['c', 'm']","['Clue', 'Monopoly']","[-0.15, 0.5]","[0.15, 0.5]",1,1,,,,,,,,,0,7,7,7,0,4,4,3,,,,,,,,,,,,,,,,,,,,,,,,,,,,,,,,,,,,,,,,,,,,,,,,,,,,,,,1092.5785661170003,None,1092.5785661170003,None,1092.5785661170003,None,m,1,0.44194335000020146,1094.112172794,None,1094.112172794,None,1094.112172794,None,1094.611633857,None,1094.611633857,None,1094.611633857,None,1094.611633857,None,,,,,,,,,,,,,,,,,,,,,,,,,,,,,,,,,,,,,,,,,,,,001,117,2020_Feb_13_1025,spring_faces,3.1.5,60.077921785361454,
condition files/Stage1_2.xlsx,,B1,T1,c,"['c', 'm']","['Clue', 'Monopoly']","[-0.15, 0.5]","[0.15, 0.5]",1,1,,,,,,,,,0,7,7,7,0,5,5,0,,,,,,,,,,,,,,,,,,,,,,,,,,,,,,,,,,,,,,,,,,,,,,,,,,,,,,,1096.578526533,None,1096.578526533,None,1096.578526533,None,m,0,1.0015659860000596,1098.1284086660003,None,1098.1284086660003,None,1098.1284086660003,None,1099.1958221650002,None,1099.1958221650002,None,1099.1958221650002,None,1099.1958221650002,None,,,,,,,,,,,,,,,,,,,,,,,,,,,,,,,,,,,,,,,,,,,,001,117,2020_Feb_13_1025,spring_faces,3.1.5,60.077921785361454,
condition files/Stage1_2.xlsx,,T2,B1,c,"['c', 'm']","['Clue', 'Monopoly']","[-0.15, 0.5]","[0.15, 0.5]",1,1,,,,,,,,,0,7,7,7,0,6,6,1,,,,,,,,,,,,,,,,,,,,,,,,,,,,,,,,,,,,,,,,,,,,,,,,,,,,,,,1101.1614619770003,None,1101.1614619770003,None,1101.1614619770003,None,c,1,2.6592761390002124,1102.694836924,None,1102.694836924,None,1102.694836924,None,1105.4120699710002,None,1105.4120699710002,None,1105.4120699710002,None,1105.4120699710002,None,,,,,,,,,,,,,,,,,,,,,,,,,,,,,,,,,,,,,,,,,,,,001,117,2020_Feb_13_1025,spring_faces,3.1.5,60.077921785361454,
condition files/Stage1_2.xlsx,,B4,T3,c,"['c', 'm']","['Clue', 'Monopoly']","[-0.15, 0.5]","[0.15, 0.5]",1,1,,,,,,,,,0,7,7,7,0,7,7,5,,,,,,,,,,,,,,,,,,,,,,,,,,,,,,,,,,,,,,,,,,,,,,,,,,,,,,,1107.3782509900002,None,1107.3782509900002,None,1107.3782509900002,None,c,1,1.6892858679998426,1108.928807283,None,1108.928807283,None,1108.928807283,None,1110.6785453100001,None,1110.6785453100001,None,1110.6785453100001,None,1110.6785453100001,None,,,,,,,,,,,,,,,,,,,,,,,,,,,,,,,,,,,,,,,,,,,,001,117,2020_Feb_13_1025,spring_faces,3.1.5,60.077921785361454,
condition files/Stage1_1.xlsx,,T1,B1,c,"['c', 'm']","['Clue', 'Monopoly']","[-0.15, 0.5]","[0.15, 0.5]",1,1,,,,,,,,,0,8,8,8,0,0,0,0,,,,,,,,,,,,,,,,,,,,,,,,,,,,,,,,,,,,,,,,,,,,,,,,,,,,,,,1112.662358868,None,1112.662358868,None,1112.662358868,None,m,0,1.0616373200000453,1114.212333853,None,1114.212333853,None,1114.212333853,None,1115.328780928,None,1115.328780928,None,1115.328780928,None,1115.328780928,None,,,,,,,,,,,,,,,,,,,,,,,,,,,,,,,,,,,,,,,,,,,,001,117,2020_Feb_13_1025,spring_faces,3.1.5,60.077921785361454,
condition files/Stage1_1.xlsx,,T4,B3,m,"['c', 'm']","['Clue', 'Monopoly']","[-0.15, 0.5]","[0.15, 0.5]",1,1,,,,,,,,,0,8,8,8,0,1,1,6,,,,,,,,,,,,,,,,,,,,,,,,,,,,,,,,,,,,,,,,,,,,,,,,,,,,,,,1117.295008268,None,1117.295008268,None,1117.295008268,None,c,0,0.2995639820001088,1118.830436403,None,1118.830436403,None,1118.830436403,None,1119.194908768,None,1119.194908768,None,1119.194908768,None,1119.194908768,None,,,,,,,,,,,,,,,,,,,,,,,,,,,,,,,,,,,,,,,,,,,,001,117,2020_Feb_13_1025,spring_faces,3.1.5,60.077921785361454,
condition files/Stage1_1.xlsx,,B3,T3,c,"['c', 'm']","['Clue', 'Monopoly']","[-0.15, 0.5]","[0.15, 0.5]",1,1,,,,,,,,,0,8,8,8,0,2,2,4,,,,,,,,,,,,,,,,,,,,,,,,,,,,,,,,,,,,,,,,,,,,,,,,,,,,,,,1121.162031678,None,1121.162031678,None,1121.162031678,None,c,1,0.1953987199999574,1122.694618849,None,1122.694618849,None,1122.694618849,None,1122.946906702,None,1122.946906702,None,1122.946906702,None,1122.946906702,None,,,,,,,,,,,,,,,,,,,,,,,,,,,,,,,,,,,,,,,,,,,,001,117,2020_Feb_13_1025,spring_faces,3.1.5,60.077921785361454,
condition files/Stage1_1.xlsx,,T2,B2,m,"['c', 'm']","['Clue', 'Monopoly']","[-0.15, 0.5]","[0.15, 0.5]",1,1,,,,,,,,,0,8,8,8,0,3,3,3,,,,,,,,,,,,,,,,,,,,,,,,,,,,,,,,,,,,,,,,,,,,,,,,,,,,,,,1124.9119492210002,None,1124.9119492210002,None,1124.9119492210002,None,c,0,1.0358201530002589,1126.4462431310003,None,1126.4462431310003,None,1126.4462431310003,None,1127.561857189,None,1127.561857189,None,1127.561857189,None,1127.561857189,None,,,,,,,,,,,,,,,,,,,,,,,,,,,,,,,,,,,,,,,,,,,,001,117,2020_Feb_13_1025,spring_faces,3.1.5,60.077921785361454,
condition files/Stage1_1.xlsx,,B1,T2,c,"['c', 'm']","['Clue', 'Monopoly']","[-0.15, 0.5]","[0.15, 0.5]",1,1,,,,,,,,,0,8,8,8,0,4,4,1,,,,,,,,,,,,,,,,,,,,,,,,,,,,,,,,,,,,,,,,,,,,,,,,,,,,,,,1129.511820662,None,1129.511820662,None,1129.511820662,None,m,0,0.2606586300003073,1131.0614490379999,None,1131.0614490379999,None,1131.0614490379999,None,1131.380564391,None,1131.380564391,None,1131.380564391,None,1131.380564391,None,,,,,,,,,,,,,,,,,,,,,,,,,,,,,,,,,,,,,,,,,,,,001,117,2020_Feb_13_1025,spring_faces,3.1.5,60.077921785361454,
condition files/Stage1_1.xlsx,,B2,T1,m,"['c', 'm']","['Clue', 'Monopoly']","[-0.15, 0.5]","[0.15, 0.5]",1,1,,,,,,,,,0,8,8,8,0,5,5,2,,,,,,,,,,,,,,,,,,,,,,,,,,,,,,,,,,,,,,,,,,,,,,,,,,,,,,,1133.34525536,None,1133.34525536,None,1133.34525536,None,c,0,0.2829973450002399,1134.8789596689999,None,1134.8789596689999,None,1134.8789596689999,None,1135.2288927089999,None,1135.2288927089999,None,1135.2288927089999,None,1135.2288927089999,None,,,,,,,,,,,,,,,,,,,,,,,,,,,,,,,,,,,,,,,,,,,,001,117,2020_Feb_13_1025,spring_faces,3.1.5,60.077921785361454,
condition files/Stage1_1.xlsx,,B4,T4,m,"['c', 'm']","['Clue', 'Monopoly']","[-0.15, 0.5]","[0.15, 0.5]",1,1,,,,,,,,,0,8,8,8,0,6,6,7,,,,,,,,,,,,,,,,,,,,,,,,,,,,,,,,,,,,,,,,,,,,,,,,,,,,,,,1137.17851238,None,1137.17851238,None,1137.17851238,None,m,1,0.20867973300028098,1138.713417891,None,1138.713417891,None,1138.713417891,None,1138.978519015,None,1138.978519015,None,1138.978519015,None,1138.978519015,None,,,,,,,,,,,,,,,,,,,,,,,,,,,,,,,,,,,,,,,,,,,,001,117,2020_Feb_13_1025,spring_faces,3.1.5,60.077921785361454,
condition files/Stage1_1.xlsx,,T3,B4,c,"['c', 'm']","['Clue', 'Monopoly']","[-0.15, 0.5]","[0.15, 0.5]",1,1,,,,,,,,,0,8,8,8,0,7,7,5,,,,,,,,,,,,,,,,,,,,,,,,,,,,,,,,,,,,,,,,,,,,,,,,,,,,,,,1140.9451650830001,None,1140.9451650830001,None,1140.9451650830001,None,c,1,0.218426609999824,1142.4956135890002,None,1142.4956135890002,None,1142.4956135890002,None,1142.779957453,None,1142.779957453,None,1142.779957453,None,1142.779957453,None,,,,,,,,,,,,,,,,,,,,,,,,,,,,,,,,,,,,,,,,,,,,001,117,2020_Feb_13_1025,spring_faces,3.1.5,60.077921785361454,
condition files/Stage1_2.xlsx,,B3,T4,m,"['c', 'm']","['Clue', 'Monopoly']","[-0.15, 0.5]","[0.15, 0.5]",1,1,,,,,,,,,0,9,9,9,0,0,0,6,,,,,,,,,,,,,,,,,,,,,,,,,,,,,,,,,,,,,,,,,,,,,,,,,,,,,,,1144.761896436,None,1144.761896436,None,1144.761896436,None,m,1,0.3224885180002275,1146.295617676,None,1146.295617676,None,1146.295617676,None,1146.680638203,None,1146.680638203,None,1146.680638203,None,1146.680638203,None,,,,,,,,,,,,,,,,,,,,,,,,,,,,,,,,,,,,,,,,,,,,001,117,2020_Feb_13_1025,spring_faces,3.1.5,60.077921785361454,
condition files/Stage1_2.xlsx,,T1,B2,m,"['c', 'm']","['Clue', 'Monopoly']","[-0.15, 0.5]","[0.15, 0.5]",1,1,,,,,,,,,0,9,9,9,0,1,1,2,,,,,,,,,,,,,,,,,,,,,,,,,,,,,,,,,,,,,,,,,,,,,,,,,,,,,,,1148.6450453030002,None,1148.6450453030002,None,1148.6450453030002,None,c,0,0.981378840999696,1150.180629005,None,1150.180629005,None,1150.180629005,None,1151.2117571490003,None,1151.2117571490003,None,1151.2117571490003,None,1151.2117571490003,None,,,,,,,,,,,,,,,,,,,,,,,,,,,,,,,,,,,,,,,,,,,,001,117,2020_Feb_13_1025,spring_faces,3.1.5,60.077921785361454,
condition files/Stage1_2.xlsx,,T3,B3,c,"['c', 'm']","['Clue', 'Monopoly']","[-0.15, 0.5]","[0.15, 0.5]",1,1,,,,,,,,,0,9,9,9,0,2,2,4,,,,,,,,,,,,,,,,,,,,,,,,,,,,,,,,,,,,,,,,,,,,,,,,,,,,,,,1153.178150999,None,1153.178150999,None,1153.178150999,None,m,0,0.19346761199994944,1154.7286346710002,None,1154.7286346710002,None,1154.7286346710002,None,1154.97864081,None,1154.97864081,None,1154.97864081,None,1154.97864081,None,,,,,,,,,,,,,,,,,,,,,,,,,,,,,,,,,,,,,,,,,,,,001,117,2020_Feb_13_1025,spring_faces,3.1.5,60.077921785361454,
condition files/Stage1_2.xlsx,,B4,T3,c,"['c', 'm']","['Clue', 'Monopoly']","[-0.15, 0.5]","[0.15, 0.5]",1,1,,,,,,,,,0,9,9,9,0,3,3,5,,,,,,,,,,,,,,,,,,,,,,,,,,,,,,,,,,,,,,,,,,,,,,,,,,,,,,,1156.9452371460002,None,1156.9452371460002,None,1156.9452371460002,None,c,1,0.07455773200035765,1158.4795577640002,None,1158.4795577640002,None,1158.4795577640002,None,1158.611911735,None,1158.611911735,None,1158.611911735,None,1158.611911735,None,,,,,,,,,,,,,,,,,,,,,,,,,,,,,,,,,,,,,,,,,,,,001,117,2020_Feb_13_1025,spring_faces,3.1.5,60.077921785361454,
condition files/Stage1_2.xlsx,,B2,T2,m,"['c', 'm']","['Clue', 'Monopoly']","[-0.15, 0.5]","[0.15, 0.5]",1,1,,,,,,,,,0,9,9,9,0,4,4,3,,,,,,,,,,,,,,,,,,,,,,,,,,,,,,,,,,,,,,,,,,,,,,,,,,,,,,,1160.5782060820002,None,1160.5782060820002,None,1160.5782060820002,None,m,1,1.657330785999875,1162.1127828560002,None,1162.1127828560002,None,1162.1127828560002,None,1163.845407154,None,1163.845407154,None,1163.845407154,None,1163.845407154,None,,,,,,,,,,,,,,,,,,,,,,,,,,,,,,,,,,,,,,,,,,,,001,117,2020_Feb_13_1025,spring_faces,3.1.5,60.077921785361454,
condition files/Stage1_2.xlsx,,T2,B1,c,"['c', 'm']","['Clue', 'Monopoly']","[-0.15, 0.5]","[0.15, 0.5]",1,1,,,,,,,,,0,9,9,9,0,5,5,1,,,,,,,,,,,,,,,,,,,,,,,,,,,,,,,,,,,,,,,,,,,,,,,,,,,,,,,1165.794939672,None,1165.794939672,None,1165.794939672,None,c,1,1.0157950460002212,1167.330220663,None,1167.330220663,None,1167.330220663,None,1168.411409158,None,1168.411409158,None,1168.411409158,None,1168.411409158,None,,,,,,,,,,,,,,,,,,,,,,,,,,,,,,,,,,,,,,,,,,,,001,117,2020_Feb_13_1025,spring_faces,3.1.5,60.077921785361454,
condition files/Stage1_2.xlsx,,T4,B4,m,"['c', 'm']","['Clue', 'Monopoly']","[-0.15, 0.5]","[0.15, 0.5]",1,1,,,,,,,,,0,9,9,9,0,6,6,7,,,,,,,,,,,,,,,,,,,,,,,,,,,,,,,,,,,,,,,,,,,,,,,,,,,,,,,1170.3785404730002,None,1170.3785404730002,None,1170.3785404730002,None,m,1,1.2652251029999206,1171.9288270480001,None,1171.9288270480001,None,1171.9288270480001,None,1173.247538046,None,1173.247538046,None,1173.247538046,None,1173.247538046,None,,,,,,,,,,,,,,,,,,,,,,,,,,,,,,,,,,,,,,,,,,,,001,117,2020_Feb_13_1025,spring_faces,3.1.5,60.077921785361454,
condition files/Stage1_2.xlsx,,B1,T1,c,"['c', 'm']","['Clue', 'Monopoly']","[-0.15, 0.5]","[0.15, 0.5]",1,1,,,,,,,,,0,9,9,9,0,7,7,0,,,,,,,,,,,,,,,,,,,,,,,,,,,,,,,,,,,,,,,,,,,,,,,,,,,,,,,1175.2118974280002,None,1175.2118974280002,None,1175.2118974280002,None,m,0,4.67191837099972,1176.762149194,None,1176.762149194,None,1176.762149194,None,1181.4961575940001,None,1181.4961575940001,None,1181.4961575940001,None,1181.4961575940001,None,,,,,,,,,,,,,,,,,,,,,,,,,,,,,,,,,,,,,,,,,,,,001,117,2020_Feb_13_1025,spring_faces,3.1.5,60.077921785361454,
condition files/Stage1_1.xlsx,,B2,T1,m,"['c', 'm']","['Clue', 'Monopoly']","[-0.15, 0.5]","[0.15, 0.5]",1,1,,,,,,,,,0,10,10,10,0,0,0,2,,,,,,,,,,,,,,,,,,,,,,,,,,,,,,,,,,,,,,,,,,,,,,,,,,,,,,,1183.478887575,None,1183.478887575,None,1183.478887575,None,c,0,0.7892478120002124,1185.028853845,None,1185.028853845,None,1185.028853845,None,1185.895234342,None,1185.895234342,None,1185.895234342,None,1185.895234342,None,,,,,,,,,,,,,,,,,,,,,,,,,,,,,,,,,,,,,,,,,,,,001,117,2020_Feb_13_1025,spring_faces,3.1.5,60.077921785361454,
condition files/Stage1_1.xlsx,,T4,B3,m,"['c', 'm']","['Clue', 'Monopoly']","[-0.15, 0.5]","[0.15, 0.5]",1,1,,,,,,,,,0,10,10,10,0,1,1,6,,,,,,,,,,,,,,,,,,,,,,,,,,,,,,,,,,,,,,,,,,,,,,,,,,,,,,,1187.8450126370003,None,1187.8450126370003,None,1187.8450126370003,None,m,1,0.43918694900003175,1189.378878819,None,1189.378878819,None,1189.378878819,None,1189.8788250470002,None,1189.8788250470002,None,1189.8788250470002,None,1189.8788250470002,None,,,,,,,,,,,,,,,,,,,,,,,,,,,,,,,,,,,,,,,,,,,,001,117,2020_Feb_13_1025,spring_faces,3.1.5,60.077921785361454,
condition files/Stage1_1.xlsx,,T1,B1,c,"['c', 'm']","['Clue', 'Monopoly']","[-0.15, 0.5]","[0.15, 0.5]",1,1,,,,,,,,,0,10,10,10,0,2,2,0,,,,,,,,,,,,,,,,,,,,,,,,,,,,,,,,,,,,,,,,,,,,,,,,,,,,,,,1191.8447703839997,None,1191.8447703839997,None,1191.8447703839997,None,c,1,1.6389358420001372,1193.3791829080005,None,1193.3791829080005,None,1193.3791829080005,None,1195.0799857329998,None,1195.0799857329998,None,1195.0799857329998,None,1195.0799857329998,None,,,,,,,,,,,,,,,,,,,,,,,,,,,,,,,,,,,,,,,,,,,,001,117,2020_Feb_13_1025,spring_faces,3.1.5,60.077921785361454,
condition files/Stage1_1.xlsx,,B3,T3,c,"['c', 'm']","['Clue', 'Monopoly']","[-0.15, 0.5]","[0.15, 0.5]",1,1,,,,,,,,,0,10,10,10,0,3,3,4,,,,,,,,,,,,,,,,,,,,,,,,,,,,,,,,,,,,,,,,,,,,,,,,,,,,,,,1197.0453188260003,None,1197.0453188260003,None,1197.0453188260003,None,m,0,0.8221743970007083,1198.5799325250005,None,1198.5799325250005,None,1198.5799325250005,None,1199.4624766379998,None,1199.4624766379998,None,1199.4624766379998,None,1199.4624766379998,None,,,,,,,,,,,,,,,,,,,,,,,,,,,,,,,,,,,,,,,,,,,,001,117,2020_Feb_13_1025,spring_faces,3.1.5,60.077921785361454,
condition files/Stage1_1.xlsx,,T3,B4,c,"['c', 'm']","['Clue', 'Monopoly']","[-0.15, 0.5]","[0.15, 0.5]",1,1,,,,,,,,,0,10,10,10,0,4,4,5,,,,,,,,,,,,,,,,,,,,,,,,,,,,,,,,,,,,,,,,,,,,,,,,,,,,,,,1201.4284792640005,None,1201.4284792640005,None,1201.4284792640005,None,c,1,2.775292346999777,1202.978792421,None,1202.978792421,None,1202.978792421,None,1205.8116550259997,None,1205.8116550259997,None,1205.8116550259997,None,1205.8116550259997,None,,,,,,,,,,,,,,,,,,,,,,,,,,,,,,,,,,,,,,,,,,,,001,117,2020_Feb_13_1025,spring_faces,3.1.5,60.077921785361454,
condition files/Stage1_1.xlsx,,T2,B2,m,"['c', 'm']","['Clue', 'Monopoly']","[-0.15, 0.5]","[0.15, 0.5]",1,1,,,,,,,,,0,10,10,10,0,5,5,3,,,,,,,,,,,,,,,,,,,,,,,,,,,,,,,,,,,,,,,,,,,,,,,,,,,,,,,1207.7784657910001,None,1207.7784657910001,None,1207.7784657910001,None,m,1,1.9300258180001038,1209.3119363789997,None,1209.3119363789997,None,1209.3119363789997,None,1211.2962533690002,None,1211.2962533690002,None,1211.2962533690002,None,1211.2962533690002,None,,,,,,,,,,,,,,,,,,,,,,,,,,,,,,,,,,,,,,,,,,,,001,117,2020_Feb_13_1025,spring_faces,3.1.5,60.077921785361454,
condition files/Stage1_1.xlsx,,B4,T4,m,"['c', 'm']","['Clue', 'Monopoly']","[-0.15, 0.5]","[0.15, 0.5]",1,1,,,,,,,,,0,10,10,10,0,6,6,7,,,,,,,,,,,,,,,,,,,,,,,,,,,,,,,,,,,,,,,,,,,,,,,,,,,,,,,1213.2618246939996,None,1213.2618246939996,None,1213.2618246939996,None,m,1,1.1658916819997103,1214.8121686549998,None,1214.8121686549998,None,1214.8121686549998,None,1216.0284517730001,None,1216.0284517730001,None,1216.0284517730001,None,1216.0284517730001,None,,,,,,,,,,,,,,,,,,,,,,,,,,,,,,,,,,,,,,,,,,,,001,117,2020_Feb_13_1025,spring_faces,3.1.5,60.077921785361454,
condition files/Stage1_1.xlsx,,B1,T2,c,"['c', 'm']","['Clue', 'Monopoly']","[-0.15, 0.5]","[0.15, 0.5]",1,1,,,,,,,,,0,10,10,10,0,7,7,1,,,,,,,,,,,,,,,,,,,,,,,,,,,,,,,,,,,,,,,,,,,,,,,,,,,,,,,1217.9951978659997,None,1217.9951978659997,None,1217.9951978659997,None,m,0,1.8726623530001234,1219.5294556760005,None,1219.5294556760005,None,1219.5294556760005,None,1221.4787700479997,None,1221.4787700479997,None,1221.4787700479997,None,1221.4787700479997,None,,,,,,,,,,,,,,,,,,,,,,,,,,,,,,,,,,,,,,,,,,,,001,117,2020_Feb_13_1025,spring_faces,3.1.5,60.077921785361454,
condition files/Stage1_2.xlsx,,T1,B2,m,"['c', 'm']","['Clue', 'Monopoly']","[-0.15, 0.5]","[0.15, 0.5]",1,1,,,,,,,,,0,11,11,11,0,0,0,2,,,,,,,,,,,,,,,,,,,,,,,,,,,,,,,,,,,,,,,,,,,,,,,,,,,,,,,1223.445624474,None,1223.445624474,None,1223.445624474,None,c,0,0.8077976399999898,1224.9783315130003,None,1224.9783315130003,None,1224.9783315130003,None,1225.8457672540003,None,1225.8457672540003,None,1225.8457672540003,None,1225.8457672540003,None,,,,,,,,,,,,,,,,,,,,,,,,,,,,,,,,,,,,,,,,,,,,001,117,2020_Feb_13_1025,spring_faces,3.1.5,60.077921785361454,
condition files/Stage1_2.xlsx,,B4,T3,c,"['c', 'm']","['Clue', 'Monopoly']","[-0.15, 0.5]","[0.15, 0.5]",1,1,,,,,,,,,0,11,11,11,0,1,1,5,,,,,,,,,,,,,,,,,,,,,,,,,,,,,,,,,,,,,,,,,,,,,,,,,,,,,,,1227.811904144,None,1227.811904144,None,1227.811904144,None,m,0,0.18377677300031792,1229.36222082,None,1229.36222082,None,1229.36222082,None,1229.614647117,None,1229.614647117,None,1229.614647117,None,1229.614647117,None,,,,,,,,,,,,,,,,,,,,,,,,,,,,,,,,,,,,,,,,,,,,001,117,2020_Feb_13_1025,spring_faces,3.1.5,60.077921785361454,
condition files/Stage1_2.xlsx,,B2,T2,m,"['c', 'm']","['Clue', 'Monopoly']","[-0.15, 0.5]","[0.15, 0.5]",1,1,,,,,,,,,0,11,11,11,0,2,2,3,,,,,,,,,,,,,,,,,,,,,,,,,,,,,,,,,,,,,,,,,,,,,,,,,,,,,,,1231.5785701279997,None,1231.5785701279997,None,1231.5785701279997,None,m,1,1.1053740320003271,1233.1286915770002,None,1233.1286915770002,None,1233.1286915770002,None,1234.3116456780003,None,1234.3116456780003,None,1234.3116456780003,None,1234.3116456780003,None,,,,,,,,,,,,,,,,,,,,,,,,,,,,,,,,,,,,,,,,,,,,001,117,2020_Feb_13_1025,spring_faces,3.1.5,60.077921785361454,
condition files/Stage1_2.xlsx,,T2,B1,c,"['c', 'm']","['Clue', 'Monopoly']","[-0.15, 0.5]","[0.15, 0.5]",1,1,,,,,,,,,0,11,11,11,0,3,3,1,,,,,,,,,,,,,,,,,,,,,,,,,,,,,,,,,,,,,,,,,,,,,,,,,,,,,,,1236.261821789,None,1236.261821789,None,1236.261821789,None,c,1,1.5892358999999487,1237.7968799000005,None,1237.7968799000005,None,1237.7968799000005,None,1239.4470160289998,None,1239.4470160289998,None,1239.4470160289998,None,1239.4470160289998,None,,,,,,,,,,,,,,,,,,,,,,,,,,,,,,,,,,,,,,,,,,,,001,117,2020_Feb_13_1025,spring_faces,3.1.5,60.077921785361454,
condition files/Stage1_2.xlsx,,T4,B4,m,"['c', 'm']","['Clue', 'Monopoly']","[-0.15, 0.5]","[0.15, 0.5]",1,1,,,,,,,,,0,11,11,11,0,4,4,7,,,,,,,,,,,,,,,,,,,,,,,,,,,,,,,,,,,,,,,,,,,,,,,,,,,,,,,1241.411857267,None,1241.411857267,None,1241.411857267,None,m,1,0.8388846819998435,1242.9472341690002,None,1242.9472341690002,None,1242.9472341690002,None,1243.8469386040001,None,1243.8469386040001,None,1243.8469386040001,None,1243.8469386040001,None,,,,,,,,,,,,,,,,,,,,,,,,,,,,,,,,,,,,,,,,,,,,001,117,2020_Feb_13_1025,spring_faces,3.1.5,60.077921785361454,
condition files/Stage1_2.xlsx,,B3,T4,m,"['c', 'm']","['Clue', 'Monopoly']","[-0.15, 0.5]","[0.15, 0.5]",1,1,,,,,,,,,0,11,11,11,0,5,5,6,,,,,,,,,,,,,,,,,,,,,,,,,,,,,,,,,,,,,,,,,,,,,,,,,,,,,,,1245.8119271500004,None,1245.8119271500004,None,1245.8119271500004,None,m,1,1.5604918229992109,1247.345529525,None,1247.345529525,None,1247.345529525,None,1248.9621427790003,None,1248.9621427790003,None,1248.9621427790003,None,1248.9621427790003,None,,,,,,,,,,,,,,,,,,,,,,,,,,,,,,,,,,,,,,,,,,,,001,117,2020_Feb_13_1025,spring_faces,3.1.5,60.077921785361454,
condition files/Stage1_2.xlsx,,B1,T1,c,"['c', 'm']","['Clue', 'Monopoly']","[-0.15, 0.5]","[0.15, 0.5]",1,1,,,,,,,,,0,11,11,11,0,6,6,0,,,,,,,,,,,,,,,,,,,,,,,,,,,,,,,,,,,,,,,,,,,,,,,,,,,,,,,1250.9281576260005,None,1250.9281576260005,None,1250.9281576260005,None,c,1,3.291286871000011,1252.4788209430003,None,1252.4788209430003,None,1252.4788209430003,None,1255.8311004170005,None,1255.8311004170005,None,1255.8311004170005,None,1255.8311004170005,None,,,,,,,,,,,,,,,,,,,,,,,,,,,,,,,,,,,,,,,,,,,,001,117,2020_Feb_13_1025,spring_faces,3.1.5,60.077921785361454,
condition files/Stage1_2.xlsx,,T3,B3,c,"['c', 'm']","['Clue', 'Monopoly']","[-0.15, 0.5]","[0.15, 0.5]",1,1,,,,,,,,,0,11,11,11,0,7,7,4,,,,,,,,,,,,,,,,,,,,,,,,,,,,,,,,,,,,,,,,,,,,,,,,,,,,,,,1257.7952448910005,None,1257.7952448910005,None,1257.7952448910005,None,c,1,0.8725055019995125,1259.3455918490004,None,1259.3455918490004,None,1259.3455918490004,None,1260.278821976,None,1260.278821976,None,1260.278821976,None,1260.278821976,None,,,,,,,,,,,,,,,,,,,,,,,,,,,,,,,,,,,,,,,,,,,,001,117,2020_Feb_13_1025,spring_faces,3.1.5,60.077921785361454,
,,,,,,,,,,,,,,,,,,,,,,,,,,,,,,,,,,,,,,,,,,,,,,,,,,,,,,,,,,,,,,,,,,,,,,,,,,,,,,,,,,,,,,,,,,,,,,,,,,,,,,,,,,,,,,,,1262.2621709580003,None,space,8.380504335000296,1267.261817819,None,,,,,,,,,,,,,,,,,,,,,,,,,,,,,,001,117,2020_Feb_13_1025,spring_faces,3.1.5,60.077921785361454,
condition files/Stage2_1.xlsx,,B6,T6,r,"['s', 'r']","['Stratego', 'Risk']","[-0.15, 0.5]","[0.15, 0.5]",1,1,,,,,,,,,,,,,,,,,0,0,0,0,0,0,0,1,,,,,,,,,,,,,,,,,,,,,,,,,,,,,,,,,,,,,,,,,,,,,,,1275.7455364969996,None,1275.7455364969996,None,1275.7455364969996,None,s,0,4.34933015399929,1277.228761334,None,1277.228761334,None,1277.228761334,None,1281.6454362159998,None,1281.6454362159998,None,1281.6454362159998,None,1281.6454362159998,None,,,,,,,,,,,,,,,1267.261817819,None,,,,,,,,,,,,,,,,,,,,,,,,,,,,001,117,2020_Feb_13_1025,spring_faces,3.1.5,60.077921785361454,
condition files/Stage2_1.xlsx,,B4,T4,r,"['s', 'r']","['Stratego', 'Risk']","[-0.15, 0.5]","[0.15, 0.5]",1,1,,,,,,,,,,,,,,,,,0,0,0,0,0,1,1,5,,,,,,,,,,,,,,,,,,,,,,,,,,,,,,,,,,,,,,,,,,,,,,,1283.5948023180003,None,1283.5948023180003,None,1283.5948023180003,None,r,1,0.3201212329995542,1285.1299671640004,None,1285.1299671640004,None,1285.1299671640004,None,1285.5117261760001,None,1285.5117261760001,None,1285.5117261760001,None,1285.5117261760001,None,,,,,,,,,,,,,,,,,,,,,,,,,,,,,,,,,,,,,,,,,,,,001,117,2020_Feb_13_1025,spring_faces,3.1.5,60.077921785361454,
condition files/Stage2_1.xlsx,,T3,B3,s,"['s', 'r']","['Stratego', 'Risk']","[-0.15, 0.5]","[0.15, 0.5]",1,1,,,,,,,,,,,,,,,,,0,0,0,0,0,2,2,4,,,,,,,,,,,,,,,,,,,,,,,,,,,,,,,,,,,,,,,,,,,,,,,1287.4784835169999,None,1287.4784835169999,None,1287.4784835169999,None,r,0,0.7080481080001846,1289.0140862160001,None,1289.0140862160001,None,1289.0140862160001,None,1289.7954901870003,None,1289.7954901870003,None,1289.7954901870003,None,1289.7954901870003,None,,,,,,,,,,,,,,,,,,,,,,,,,,,,,,,,,,,,,,,,,,,,001,117,2020_Feb_13_1025,spring_faces,3.1.5,60.077921785361454,
condition files/Stage2_1.xlsx,,B2,T2,r,"['s', 'r']","['Stratego', 'Risk']","[-0.15, 0.5]","[0.15, 0.5]",1,1,,,,,,,,,,,,,,,,,0,0,0,0,0,3,3,3,,,,,,,,,,,,,,,,,,,,,,,,,,,,,,,,,,,,,,,,,,,,,,,1291.745127779,None,1291.745127779,None,1291.745127779,None,r,1,0.8913023069999326,1293.278801131,None,1293.278801131,None,1293.278801131,None,1294.230678286,None,1294.230678286,None,1294.230678286,None,1294.230678286,None,,,,,,,,,,,,,,,,,,,,,,,,,,,,,,,,,,,,,,,,,,,,001,117,2020_Feb_13_1025,spring_faces,3.1.5,60.077921785361454,
condition files/Stage2_1.xlsx,,T5,B5,s,"['s', 'r']","['Stratego', 'Risk']","[-0.15, 0.5]","[0.15, 0.5]",1,1,,,,,,,,,,,,,,,,,0,0,0,0,0,4,4,0,,,,,,,,,,,,,,,,,,,,,,,,,,,,,,,,,,,,,,,,,,,,,,,1296.1956630999998,None,1296.1956630999998,None,1296.1956630999998,None,s,1,1.6232545399998344,1297.7628703670002,None,1297.7628703670002,None,1297.7628703670002,None,1299.4469679540002,None,1299.4469679540002,None,1299.4469679540002,None,1299.4469679540002,None,,,,,,,,,,,,,,,,,,,,,,,,,,,,,,,,,,,,,,,,,,,,001,117,2020_Feb_13_1025,spring_faces,3.1.5,60.077921785361454,
condition files/Stage2_1.xlsx,,T1,B1,s,"['s', 'r']","['Stratego', 'Risk']","[-0.15, 0.5]","[0.15, 0.5]",1,1,,,,,,,,,,,,,,,,,0,0,0,0,0,5,5,2,,,,,,,,,,,,,,,,,,,,,,,,,,,,,,,,,,,,,,,,,,,,,,,1301.4119446939999,None,1301.4119446939999,None,1301.4119446939999,None,r,0,0.007722636000835337,1302.9623703130005,None,1302.9623703130005,None,1302.9623703130005,None,1303.0284867000005,None,1303.0284867000005,None,1303.0284867000005,None,1303.0284867000005,None,,,,,,,,,,,,,,,,,,,,,,,,,,,,,,,,,,,,,,,,,,,,001,117,2020_Feb_13_1025,spring_faces,3.1.5,60.077921785361454,
condition files/Stage2_2.xlsx,,B3,T3,s,"['s', 'r']","['Stratego', 'Risk']","[-0.15, 0.5]","[0.15, 0.5]",1,1,,,,,,,,,,,,,,,,,0,1,1,1,0,0,0,4,,,,,,,,,,,,,,,,,,,,,,,,,,,,,,,,,,,,,,,,,,,,,,,1305.0623395830003,None,1305.0623395830003,None,1305.0623395830003,None,r,0,0.21627559900025517,1306.5618110729997,None,1306.5618110729997,None,1306.5618110729997,None,1306.829035452,None,1306.829035452,None,1306.829035452,None,1306.829035452,None,,,,,,,,,,,,,,,,,,,,,,,,,,,,,,,,,,,,,,,,,,,,001,117,2020_Feb_13_1025,spring_faces,3.1.5,60.077921785361454,
condition files/Stage2_2.xlsx,,T6,B6,r,"['s', 'r']","['Stratego', 'Risk']","[-0.15, 0.5]","[0.15, 0.5]",1,1,,,,,,,,,,,,,,,,,0,1,1,1,0,1,1,1,,,,,,,,,,,,,,,,,,,,,,,,,,,,,,,,,,,,,,,,,,,,,,,1308.795232117,None,1308.795232117,None,1308.795232117,None,r,1,0.2231010489995242,1310.3310168620005,None,1310.3310168620005,None,1310.3310168620005,None,1310.6146716899998,None,1310.6146716899998,None,1310.6146716899998,None,1310.6146716899998,None,,,,,,,,,,,,,,,,,,,,,,,,,,,,,,,,,,,,,,,,,,,,001,117,2020_Feb_13_1025,spring_faces,3.1.5,60.077921785361454,
condition files/Stage2_2.xlsx,,T4,B4,r,"['s', 'r']","['Stratego', 'Risk']","[-0.15, 0.5]","[0.15, 0.5]",1,1,,,,,,,,,,,,,,,,,0,1,1,1,0,2,2,5,,,,,,,,,,,,,,,,,,,,,,,,,,,,,,,,,,,,,,,,,,,,,,,1312.5783047440004,None,1312.5783047440004,None,1312.5783047440004,None,r,1,1.0018276979999428,1314.1281981509997,None,1314.1281981509997,None,1314.1281981509997,None,1315.1955560359997,None,1315.1955560359997,None,1315.1955560359997,None,1315.1955560359997,None,,,,,,,,,,,,,,,,,,,,,,,,,,,,,,,,,,,,,,,,,,,,001,117,2020_Feb_13_1025,spring_faces,3.1.5,60.077921785361454,
condition files/Stage2_2.xlsx,,B5,T5,s,"['s', 'r']","['Stratego', 'Risk']","[-0.15, 0.5]","[0.15, 0.5]",1,1,,,,,,,,,,,,,,,,,0,1,1,1,0,3,3,0,,,,,,,,,,,,,,,,,,,,,,,,,,,,,,,,,,,,,,,,,,,,,,,1317.161844957,None,1317.161844957,None,1317.161844957,None,r,0,1.2986339429999134,1318.6954305880004,None,1318.6954305880004,None,1318.6954305880004,None,1320.0481200259997,None,1320.0481200259997,None,1320.0481200259997,None,1320.0481200259997,None,,,,,,,,,,,,,,,,,,,,,,,,,,,,,,,,,,,,,,,,,,,,001,117,2020_Feb_13_1025,spring_faces,3.1.5,60.077921785361454,
condition files/Stage2_2.xlsx,,B1,T1,s,"['s', 'r']","['Stratego', 'Risk']","[-0.15, 0.5]","[0.15, 0.5]",1,1,,,,,,,,,,,,,,,,,0,1,1,1,0,4,4,2,,,,,,,,,,,,,,,,,,,,,,,,,,,,,,,,,,,,,,,,,,,,,,,1322.011312571,None,1322.011312571,None,1322.011312571,None,s,1,1.5038032850006857,1323.5622628490005,None,1323.5622628490005,None,1323.5622628490005,None,1325.1279095780005,None,1325.1279095780005,None,1325.1279095780005,None,1325.1279095780005,None,,,,,,,,,,,,,,,,,,,,,,,,,,,,,,,,,,,,,,,,,,,,001,117,2020_Feb_13_1025,spring_faces,3.1.5,60.077921785361454,
condition files/Stage2_2.xlsx,,T2,B2,r,"['s', 'r']","['Stratego', 'Risk']","[-0.15, 0.5]","[0.15, 0.5]",1,1,,,,,,,,,,,,,,,,,0,1,1,1,0,5,5,3,,,,,,,,,,,,,,,,,,,,,,,,,,,,,,,,,,,,,,,,,,,,,,,1327.0951159620004,None,1327.0951159620004,None,1327.0951159620004,None,s,0,0.7405347579997397,1328.62957504,None,1328.62957504,None,1328.62957504,None,1329.429888354,None,1329.429888354,None,1329.429888354,None,1329.429888354,None,,,,,,,,,,,,,,,,,,,,,,,,,,,,,,,,,,,,,,,,,,,,001,117,2020_Feb_13_1025,spring_faces,3.1.5,60.077921785361454,
condition files/Stage2_1.xlsx,,T5,B5,s,"['s', 'r']","['Stratego', 'Risk']","[-0.15, 0.5]","[0.15, 0.5]",1,1,,,,,,,,,,,,,,,,,0,2,2,2,0,0,0,0,,,,,,,,,,,,,,,,,,,,,,,,,,,,,,,,,,,,,,,,,,,,,,,1331.4124714710001,None,1331.4124714710001,None,1331.4124714710001,None,s,1,0.13574048400005267,1332.9623520330001,None,1332.9623520330001,None,1332.9623520330001,None,1333.1788794899999,None,1333.1788794899999,None,1333.1788794899999,None,1333.1788794899999,None,,,,,,,,,,,,,,,,,,,,,,,,,,,,,,,,,,,,,,,,,,,,001,117,2020_Feb_13_1025,spring_faces,3.1.5,60.077921785361454,
condition files/Stage2_1.xlsx,,T1,B1,s,"['s', 'r']","['Stratego', 'Risk']","[-0.15, 0.5]","[0.15, 0.5]",1,1,,,,,,,,,,,,,,,,,0,2,2,2,0,1,1,2,,,,,,,,,,,,,,,,,,,,,,,,,,,,,,,,,,,,,,,,,,,,,,,1335.128736778,None,1335.128736778,None,1335.128736778,None,s,1,0.4512075940001523,1336.6788035330005,None,1336.6788035330005,None,1336.6788035330005,None,1337.1962674339998,None,1337.1962674339998,None,1337.1962674339998,None,1337.1962674339998,None,,,,,,,,,,,,,,,,,,,,,,,,,,,,,,,,,,,,,,,,,,,,001,117,2020_Feb_13_1025,spring_faces,3.1.5,60.077921785361454,
condition files/Stage2_1.xlsx,,T3,B3,s,"['s', 'r']","['Stratego', 'Risk']","[-0.15, 0.5]","[0.15, 0.5]",1,1,,,,,,,,,,,,,,,,,0,2,2,2,0,2,2,4,,,,,,,,,,,,,,,,,,,,,,,,,,,,,,,,,,,,,,,,,,,,,,,1339.1620585369997,None,1339.1620585369997,None,1339.1620585369997,None,r,0,0.13039461100015615,1340.6956576509997,None,1340.6956576509997,None,1340.6956576509997,None,1340.8793420939996,None,1340.8793420939996,None,1340.8793420939996,None,1340.8793420939996,None,,,,,,,,,,,,,,,,,,,,,,,,,,,,,,,,,,,,,,,,,,,,001,117,2020_Feb_13_1025,spring_faces,3.1.5,60.077921785361454,
condition files/Stage2_1.xlsx,,B4,T4,r,"['s', 'r']","['Stratego', 'Risk']","[-0.15, 0.5]","[0.15, 0.5]",1,1,,,,,,,,,,,,,,,,,0,2,2,2,0,3,3,5,,,,,,,,,,,,,,,,,,,,,,,,,,,,,,,,,,,,,,,,,,,,,,,1342.845030864,None,1342.845030864,None,1342.845030864,None,s,0,0.4144616349994976,1344.3795831940001,None,1344.3795831940001,None,1344.3795831940001,None,1344.8621134070004,None,1344.8621134070004,None,1344.8621134070004,None,1344.8621134070004,None,,,,,,,,,,,,,,,,,,,,,,,,,,,,,,,,,,,,,,,,,,,,001,117,2020_Feb_13_1025,spring_faces,3.1.5,60.077921785361454,
condition files/Stage2_1.xlsx,,B2,T2,r,"['s', 'r']","['Stratego', 'Risk']","[-0.15, 0.5]","[0.15, 0.5]",1,1,,,,,,,,,,,,,,,,,0,2,2,2,0,4,4,3,,,,,,,,,,,,,,,,,,,,,,,,,,,,,,,,,,,,,,,,,,,,,,,1346.8117022050005,None,1346.8117022050005,None,1346.8117022050005,None,r,1,-0.00015481699938391102,1348.3622203190002,None,1348.3622203190002,None,1348.3622203190002,None,1348.4117996549999,None,1348.4117996549999,None,1348.4117996549999,None,1348.4117996549999,None,,,,,,,,,,,,,,,,,,,,,,,,,,,,,,,,,,,,,,,,,,,,001,117,2020_Feb_13_1025,spring_faces,3.1.5,60.077921785361454,
condition files/Stage2_1.xlsx,,B6,T6,r,"['s', 'r']","['Stratego', 'Risk']","[-0.15, 0.5]","[0.15, 0.5]",1,1,,,,,,,,,,,,,,,,,0,2,2,2,0,5,5,1,,,,,,,,,,,,,,,,,,,,,,,,,,,,,,,,,,,,,,,,,,,,,,,1350.378969594,None,1350.378969594,None,1350.378969594,None,r,1,0.32117938800001866,1351.9288922800001,None,1351.9288922800001,None,1351.9288922800001,None,1352.3117363309998,None,1352.3117363309998,None,1352.3117363309998,None,1352.3117363309998,None,,,,,,,,,,,,,,,,,,,,,,,,,,,,,,,,,,,,,,,,,,,,001,117,2020_Feb_13_1025,spring_faces,3.1.5,60.077921785361454,
condition files/Stage2_2.xlsx,,T4,B4,r,"['s', 'r']","['Stratego', 'Risk']","[-0.15, 0.5]","[0.15, 0.5]",1,1,,,,,,,,,,,,,,,,,0,3,3,3,0,0,0,5,,,,,,,,,,,,,,,,,,,,,,,,,,,,,,,,,,,,,,,,,,,,,,,1354.295716989,None,1354.295716989,None,1354.295716989,None,r,1,0.4840640290003648,1355.8299587040005,None,1355.8299587040005,None,1355.8299587040005,None,1356.378934422,None,1356.378934422,None,1356.378934422,None,1356.378934422,None,,,,,,,,,,,,,,,,,,,,,,,,,,,,,,,,,,,,,,,,,,,,001,117,2020_Feb_13_1025,spring_faces,3.1.5,60.077921785361454,
condition files/Stage2_2.xlsx,,B1,T1,s,"['s', 'r']","['Stratego', 'Risk']","[-0.15, 0.5]","[0.15, 0.5]",1,1,,,,,,,,,,,,,,,,,0,3,3,3,0,1,1,2,,,,,,,,,,,,,,,,,,,,,,,,,,,,,,,,,,,,,,,,,,,,,,,1358.3449723930003,None,1358.3449723930003,None,1358.3449723930003,None,r,0,0.4975698469997951,1359.8805141870002,None,1359.8805141870002,None,1359.8805141870002,None,1360.4457017830005,None,1360.4457017830005,None,1360.4457017830005,None,1360.4457017830005,None,,,,,,,,,,,,,,,,,,,,,,,,,,,,,,,,,,,,,,,,,,,,001,117,2020_Feb_13_1025,spring_faces,3.1.5,60.077921785361454,
condition files/Stage2_2.xlsx,,T6,B6,r,"['s', 'r']","['Stratego', 'Risk']","[-0.15, 0.5]","[0.15, 0.5]",1,1,,,,,,,,,,,,,,,,,0,3,3,3,0,2,2,1,,,,,,,,,,,,,,,,,,,,,,,,,,,,,,,,,,,,,,,,,,,,,,,1362.3949419840005,None,1362.3949419840005,None,1362.3949419840005,None,s,0,0.0328619259998959,1363.9452154599999,None,1363.9452154599999,None,1363.9452154599999,None,1364.0448211799999,None,1364.0448211799999,None,1364.0448211799999,None,1364.0448211799999,None,,,,,,,,,,,,,,,,,,,,,,,,,,,,,,,,,,,,,,,,,,,,001,117,2020_Feb_13_1025,spring_faces,3.1.5,60.077921785361454,
condition files/Stage2_2.xlsx,,T2,B2,r,"['s', 'r']","['Stratego', 'Risk']","[-0.15, 0.5]","[0.15, 0.5]",1,1,,,,,,,,,,,,,,,,,0,3,3,3,0,3,3,3,,,,,,,,,,,,,,,,,,,,,,,,,,,,,,,,,,,,,,,,,,,,,,,1365.9952422399997,None,1365.9952422399997,None,1365.9952422399997,None,r,1,0.30482669999946665,1367.5452466170004,None,1367.5452466170004,None,1367.5452466170004,None,1367.9118088440005,None,1367.9118088440005,None,1367.9118088440005,None,1367.9118088440005,None,,,,,,,,,,,,,,,,,,,,,,,,,,,,,,,,,,,,,,,,,,,,001,117,2020_Feb_13_1025,spring_faces,3.1.5,60.077921785361454,
condition files/Stage2_2.xlsx,,B3,T3,s,"['s', 'r']","['Stratego', 'Risk']","[-0.15, 0.5]","[0.15, 0.5]",1,1,,,,,,,,,,,,,,,,,0,3,3,3,0,4,4,4,,,,,,,,,,,,,,,,,,,,,,,,,,,,,,,,,,,,,,,,,,,,,,,1369.8786600110002,None,1369.8786600110002,None,1369.8786600110002,None,s,1,0.3902460070003144,1371.4118689450002,None,1371.4118689450002,None,1371.4118689450002,None,1371.8788906840005,None,1371.8788906840005,None,1371.8788906840005,None,1371.8788906840005,None,,,,,,,,,,,,,,,,,,,,,,,,,,,,,,,,,,,,,,,,,,,,001,117,2020_Feb_13_1025,spring_faces,3.1.5,60.077921785361454,
condition files/Stage2_2.xlsx,,B5,T5,s,"['s', 'r']","['Stratego', 'Risk']","[-0.15, 0.5]","[0.15, 0.5]",1,1,,,,,,,,,,,,,,,,,0,3,3,3,0,5,5,0,,,,,,,,,,,,,,,,,,,,,,,,,,,,,,,,,,,,,,,,,,,,,,,1373.8285558820003,None,1373.8285558820003,None,1373.8285558820003,None,r,0,0.2322260439996171,1375.3618566420005,None,1375.3618566420005,None,1375.3618566420005,None,1375.645400842,None,1375.645400842,None,1375.645400842,None,1375.645400842,None,,,,,,,,,,,,,,,,,,,,,,,,,,,,,,,,,,,,,,,,,,,,001,117,2020_Feb_13_1025,spring_faces,3.1.5,60.077921785361454,
condition files/Stage2_1.xlsx,,T1,B1,s,"['s', 'r']","['Stratego', 'Risk']","[-0.15, 0.5]","[0.15, 0.5]",1,1,,,,,,,,,,,,,,,,,0,4,4,4,0,0,0,2,,,,,,,,,,,,,,,,,,,,,,,,,,,,,,,,,,,,,,,,,,,,,,,1377.6284859929997,None,1377.6284859929997,None,1377.6284859929997,None,s,1,0.30330486000002566,1379.1787741880003,None,1379.1787741880003,None,1379.1787741880003,None,1379.546470709,None,1379.546470709,None,1379.546470709,None,1379.546470709,None,,,,,,,,,,,,,,,,,,,,,,,,,,,,,,,,,,,,,,,,,,,,001,117,2020_Feb_13_1025,spring_faces,3.1.5,60.077921785361454,
condition files/Stage2_1.xlsx,,B6,T6,r,"['s', 'r']","['Stratego', 'Risk']","[-0.15, 0.5]","[0.15, 0.5]",1,1,,,,,,,,,,,,,,,,,0,4,4,4,0,1,1,1,,,,,,,,,,,,,,,,,,,,,,,,,,,,,,,,,,,,,,,,,,,,,,,1381.5111166780002,None,1381.5111166780002,None,1381.5111166780002,None,r,1,0.11595744599981117,1383.062112217,None,1383.062112217,None,1383.062112217,None,1383.245619109,None,1383.245619109,None,1383.245619109,None,1383.245619109,None,,,,,,,,,,,,,,,,,,,,,,,,,,,,,,,,,,,,,,,,,,,,001,117,2020_Feb_13_1025,spring_faces,3.1.5,60.077921785361454,
condition files/Stage2_1.xlsx,,T3,B3,s,"['s', 'r']","['Stratego', 'Risk']","[-0.15, 0.5]","[0.15, 0.5]",1,1,,,,,,,,,,,,,,,,,0,4,4,4,0,2,2,4,,,,,,,,,,,,,,,,,,,,,,,,,,,,,,,,,,,,,,,,,,,,,,,1385.195287004,None,1385.195287004,None,1385.195287004,None,r,0,0.38451741300013964,1386.7454588340001,None,1386.7454588340001,None,1386.7454588340001,None,1387.2116853720004,None,1387.2116853720004,None,1387.2116853720004,None,1387.2116853720004,None,,,,,,,,,,,,,,,,,,,,,,,,,,,,,,,,,,,,,,,,,,,,001,117,2020_Feb_13_1025,spring_faces,3.1.5,60.077921785361454,
condition files/Stage2_1.xlsx,,B4,T4,r,"['s', 'r']","['Stratego', 'Risk']","[-0.15, 0.5]","[0.15, 0.5]",1,1,,,,,,,,,,,,,,,,,0,4,4,4,0,3,3,5,,,,,,,,,,,,,,,,,,,,,,,,,,,,,,,,,,,,,,,,,,,,,,,1389.1624020679997,None,1389.1624020679997,None,1389.1624020679997,None,s,0,0.24234375199921487,1390.7117561179998,None,1390.7117561179998,None,1390.7117561179998,None,1391.02892199,None,1391.02892199,None,1391.02892199,None,1391.02892199,None,,,,,,,,,,,,,,,,,,,,,,,,,,,,,,,,,,,,,,,,,,,,001,117,2020_Feb_13_1025,spring_faces,3.1.5,60.077921785361454,
condition files/Stage2_1.xlsx,,T5,B5,s,"['s', 'r']","['Stratego', 'Risk']","[-0.15, 0.5]","[0.15, 0.5]",1,1,,,,,,,,,,,,,,,,,0,4,4,4,0,4,4,0,,,,,,,,,,,,,,,,,,,,,,,,,,,,,,,,,,,,,,,,,,,,,,,1392.9782956229997,None,1392.9782956229997,None,1392.9782956229997,None,r,0,0.2483092870006658,1394.513770356,None,1394.513770356,None,1394.513770356,None,1394.8146593160004,None,1394.8146593160004,None,1394.8146593160004,None,1394.8146593160004,None,,,,,,,,,,,,,,,,,,,,,,,,,,,,,,,,,,,,,,,,,,,,001,117,2020_Feb_13_1025,spring_faces,3.1.5,60.077921785361454,
