condsFile,subStage,cue1,cue2,correct,responseKeys,responseNames,cue1Position,cue2Position,cue1Opacity,cue2Opacity,stageLoop0.thisRepN,stageLoop0.thisTrialN,stageLoop0.thisN,stageLoop0.thisIndex,blockLoop0.thisRepN,blockLoop0.thisTrialN,blockLoop0.thisN,blockLoop0.thisIndex,stage1Loop.thisRepN,stage1Loop.thisTrialN,stage1Loop.thisN,stage1Loop.thisIndex,blockLoop1.thisRepN,blockLoop1.thisTrialN,blockLoop1.thisN,blockLoop1.thisIndex,stage2Loop.thisRepN,stage2Loop.thisTrialN,stage2Loop.thisN,stage2Loop.thisIndex,blockLoop2.thisRepN,blockLoop2.thisTrialN,blockLoop2.thisN,blockLoop2.thisIndex,testLoop.thisRepN,testLoop.thisTrialN,testLoop.thisN,testLoop.thisIndex,blockLoopTest.thisRepN,blockLoopTest.thisTrialN,blockLoopTest.thisN,blockLoopTest.thisIndex,cuePics,id_instr_text.started,id_instr_text.stopped,space_to_continue_2.started,space_to_continue_2.stopped,end_instructions_resp_3.keys,end_instructions_resp_3.rt,end_instructions_resp_3.started,end_instructions_resp_3.stopped,id_input_instr.started,id_input_instr.stopped,id_input_rect.started,id_input_rect.stopped,id_input_resp.keys,id_input_resp.rt,id_input_resp.started,id_input_resp.stopped,sonaID,id_input_text.started,id_input_text.stopped,final_text.started,final_text.stopped,instructions.started,instructions.stopped,end_instructions_resp.keys,end_instructions_resp.rt,end_instructions_resp.started,end_instructions_resp.stopped,space_to_continue.started,space_to_continue.stopped,instructions_stage0.started,instructions_stage0.stopped,end_instructions_resp_stage0.keys,end_instructions_resp_stage0.rt,end_instructions_resp_stage0.started,end_instructions_resp_stage0.stopped,space_to_continue_stage0.started,space_to_continue_stage0.stopped,text.started,text.stopped,resp_text1.started,resp_text1.stopped,resp_text2.started,resp_text2.stopped,trial_resp.keys,trial_resp.corr,trial_resp.rt,trial_resp.started,trial_resp.stopped,cue1Image.started,cue1Image.stopped,cue2Image.started,cue2Image.stopped,cue1Image_fb.started,cue1Image_fb.stopped,cue2Image_fb.started,cue2Image_fb.stopped,fb_text_answer.started,fb_text_answer.stopped,feedback_image.started,feedback_image.stopped,instructions_stage1.started,instructions_stage1.stopped,end_instructions_resp_stage1.keys,end_instructions_resp_stage1.rt,end_instructions_resp_stage1.started,end_instructions_resp_stage1.stopped,space_to_continue_stage1.started,space_to_continue_stage1.stopped,instructions_2.started,instructions_2.stopped,end_instructions_resp_2.keys,end_instructions_resp_2.rt,end_instructions_resp_2.started,end_instructions_resp_2.stopped,press_space_to_continue_stage2.started,press_space_to_continue_stage2.stopped,instructions_testStage1.started,instructions_testStage1.stopped,end_instructions_resp_test1.keys,end_instructions_resp_test1.rt,end_instructions_resp_test1.started,end_instructions_resp_test1.stopped,press_space_to_continue_test1.started,press_space_to_continue_test1.stopped,cue1Image_testChoice.started,cue1Image_testChoice.stopped,cue2Image_testChoice.started,cue2Image_testChoice.stopped,test_resp.keys,test_resp.corr,test_resp.rt,test_resp.started,test_resp.stopped,cue1Image_testConf.started,cue1Image_testConf.stopped,cue2Image_testConf.started,cue2Image_testConf.stopped,conf_reminder.started,conf_reminder.stopped,conf_rating.response,conf_rating.rt,conf_rating.started,conf_rating.stopped,session,participant,date,expName,psychopyVersion,frameRate,
,,,,,,,,,,,,,,,,,,,,,,,,,,,,,,,,,,,,,,,,,,,"{'none': 'pictures/20M_AN_C.png', 'alpha': 'pictures/SHINEd_melon.png', 'beta': 'pictures/SHINEd_pear.png', 'theta': 'pictures/SHINEd_apple.png', 'phi': 'pictures/SHINEd_pepper.png', 'T1': 'pictures/31M_AN_C.png', 'T2': 'pictures/22M_AN_C.png', 'T3': 'pictures/33M_AN_C.png', 'T4': 'pictures/32M_AN_C.png', 'T5': 'pictures/38M_AN_C.png', 'T6': 'pictures/23M_AN_C.png', 'B1': 'pictures/20M_NE_C.png', 'B2': 'pictures/37M_NE_C.png', 'B3': 'pictures/36M_NE_C.png', 'B4': 'pictures/34M_NE_C.png', 'B5': 'pictures/26M_NE_C.png', 'B6': 'pictures/25M_NE_C.png'}",43.565173504000086,None,48.54845765899972,None,space,15.24323076399969,48.54845765899972,None,,,,,,,,,,,,,,,,,,,,,,,,,,,,,,,,,,,,,,,,,,,,,,,,,,,,,,,,,,,,,,,,,,,,,,,,,,,,,,,,,,,,,,,,,,,,,,,,001,118,2020_Feb_13_1030,spring_faces,3.2.3,59.92728279687701,
,,,,,,,,,,,,,,,,,,,,,,,,,,,,,,,,,,,,,,,,,,,,,,,,,,,,64.21513536900011,None,64.21513536900011,None,"['0', '5', '2', '2', 'k', 'a', 'f', 'a', 'i', '0', '5', '2', '2', 'k', 'a', 'f', 'a', 'i', '0', '5', '2', '2', 'k', 'a', 'f', 'h', 's']","[14.600454064000132, 14.968413553000119, 19.448601474000043, 19.672514995000256, 22.728541280000172, 23.032611551000173, 27.2244541150003, 27.432522927000264, 27.640513585000008, 37.20853510000006, 38.856520790000104, 42.07252498700018, 42.312472122000145, 43.512476230000175, 44.16844826600027, 48.40853394500027, 48.61652086400045, 50.85650993700028, 57.99252780900042, 58.18444548300022, 58.7605457640002, 58.936442836000424, 60.69658400000026, 60.936489455000356, 61.432609700000285, 61.60853748300042, 61.752432112000406]",64.21513536900011,None,,,,,,,,,,,,,,,,,,,,,,,,,,,,,,,,,,,,,,,,,,,,,,,,,,,,,,,,,,,,,,,,,,,,,,,,,,,,,,,,,,,,,,,,001,118,2020_Feb_13_1030,spring_faces,3.2.3,59.92728279687701,
,,,,,,,,,,,,,,,,,,,,,,,,,,,,,,,,,,,,,,,,,,,,,,,,,,,,,,,,,,,,0522kafhs,64.21513536900011,None,64.21513536900011,None,131.0318183139998,None,space,1.4885322479999559,136.01513922200002,None,,,,,,,,,,,,,,,,,,,,,,,,,,,,,,,,,,,,,,,,,,,,,,,,,,,,,,,,,,,,,,,,,,,,,,,,,,,,,001,118,2020_Feb_13_1030,spring_faces,3.2.3,59.92728279687701,
,,,,,,,,,,,,,,,,,,,,,,,,,,,,,,,,,,,,,,,,,,,,,,,,,,,,,,,,,,,,,,,,,,,,,,,136.01513922200002,None,137.53181608199975,None,space,6.252511736000088,142.515086161,None,,,,,,,,,,,,,,,,,,,,,,,,,,,,,,,,,,,,,,,,,,,,,,,,,,,,,,,,,,,,,,,,,,,,,001,118,2020_Feb_13_1030,spring_faces,3.2.3,59.92728279687701,
condition files/Stage0a.xlsx,0a,beta,none,g,"['h', 'g']","['Chess', 'Go']","[0, 0.5]","[0, 0]",1,0,0,0,0,0,0,0,0,1,,,,,,,,,,,,,,,,,,,,,,,,,,,,,,,,,,,,,,,,,,,,,,,,,,,,,,,,,,,,,142.515086161,None,148.83187222900006,None,148.83187222900006,None,148.83187222900006,None,g,1,2.576547921999918,150.415129041,None,150.415129041,None,150.415129041,None,153.06513530599977,None,153.06513530599977,None,153.06513530599977,None,153.06513530599977,None,,,,,,,,,,,,,,,,,,,,,,,,,,,,,,,,,,,,,,,,,,,,001,118,2020_Feb_13_1030,spring_faces,3.2.3,59.92728279687701,
condition files/Stage0a.xlsx,0a,alpha,none,h,"['h', 'g']","['Chess', 'Go']","[0, 0.5]","[0, 0]",1,0,0,0,0,0,0,1,1,0,,,,,,,,,,,,,,,,,,,,,,,,,,,,,,,,,,,,,,,,,,,,,,,,,,,,,,,,,,,,,,,155.03179950699996,None,155.03179950699996,None,155.03179950699996,None,g,0,1.9785460709999825,156.56515474499975,None,156.56515474499975,None,156.56515474499975,None,158.59847793900008,None,158.59847793900008,None,158.59847793900008,None,158.59847793900008,None,,,,,,,,,,,,,,,,,,,,,,,,,,,,,,,,,,,,,,,,,,,,001,118,2020_Feb_13_1030,spring_faces,3.2.3,59.92728279687701,
condition files/Stage0a.xlsx,0a,alpha,none,h,"['h', 'g']","['Chess', 'Go']","[0, 0.5]","[0, 0]",1,0,0,1,1,1,0,0,0,0,,,,,,,,,,,,,,,,,,,,,,,,,,,,,,,,,,,,,,,,,,,,,,,,,,,,,,,,,,,,,,,160.59849223499987,None,160.59849223499987,None,160.59849223499987,None,h,1,1.1799061679998886,162.13183112499974,None,162.13183112499974,None,162.13183112499974,None,163.36516384100014,None,163.36516384100014,None,163.36516384100014,None,163.36516384100014,None,,,,,,,,,,,,,,,,,,,,,,,,,,,,,,,,,,,,,,,,,,,,001,118,2020_Feb_13_1030,spring_faces,3.2.3,59.92728279687701,
condition files/Stage0a.xlsx,0a,beta,none,g,"['h', 'g']","['Chess', 'Go']","[0, 0.5]","[0, 0]",1,0,0,1,1,1,0,1,1,1,,,,,,,,,,,,,,,,,,,,,,,,,,,,,,,,,,,,,,,,,,,,,,,,,,,,,,,,,,,,,,,165.348464875,None,165.348464875,None,165.348464875,None,g,1,0.7660154449999936,166.88174660000004,None,166.88174660000004,None,166.88174660000004,None,167.71487207400014,None,167.71487207400014,None,167.71487207400014,None,167.71487207400014,None,,,,,,,,,,,,,,,,,,,,,,,,,,,,,,,,,,,,,,,,,,,,001,118,2020_Feb_13_1030,spring_faces,3.2.3,59.92728279687701,
condition files/Stage0a.xlsx,0a,beta,none,g,"['h', 'g']","['Chess', 'Go']","[0, 0.5]","[0, 0]",1,0,0,2,2,2,0,0,0,1,,,,,,,,,,,,,,,,,,,,,,,,,,,,,,,,,,,,,,,,,,,,,,,,,,,,,,,,,,,,,,,169.6984405190001,None,169.6984405190001,None,169.6984405190001,None,g,1,0.6079617259997576,171.23174663999998,None,171.23174663999998,None,171.23174663999998,None,171.8984930470001,None,171.8984930470001,None,171.8984930470001,None,171.8984930470001,None,,,,,,,,,,,,,,,,,,,,,,,,,,,,,,,,,,,,,,,,,,,,001,118,2020_Feb_13_1030,spring_faces,3.2.3,59.92728279687701,
condition files/Stage0a.xlsx,0a,alpha,none,h,"['h', 'g']","['Chess', 'Go']","[0, 0.5]","[0, 0]",1,0,0,2,2,2,0,1,1,0,,,,,,,,,,,,,,,,,,,,,,,,,,,,,,,,,,,,,,,,,,,,,,,,,,,,,,,,,,,,,,,173.88180073400008,None,173.88180073400008,None,173.88180073400008,None,h,1,0.7605178600001636,175.4151451749999,None,175.4151451749999,None,175.4151451749999,None,176.23184609700002,None,176.23184609700002,None,176.23184609700002,None,176.23184609700002,None,,,,,,,,,,,,,,,,,,,,,,,,,,,,,,,,,,,,,,,,,,,,001,118,2020_Feb_13_1030,spring_faces,3.2.3,59.92728279687701,
condition files/Stage0a.xlsx,0a,beta,none,g,"['h', 'g']","['Chess', 'Go']","[0, 0.5]","[0, 0]",1,0,0,3,3,3,0,0,0,1,,,,,,,,,,,,,,,,,,,,,,,,,,,,,,,,,,,,,,,,,,,,,,,,,,,,,,,,,,,,,,,178.23180086699995,None,178.23180086699995,None,178.23180086699995,None,g,1,0.7785553439998694,179.76513655000008,None,179.76513655000008,None,179.76513655000008,None,180.61513959900003,None,180.61513959900003,None,180.61513959900003,None,180.61513959900003,None,,,,,,,,,,,,,,,,,,,,,,,,,,,,,,,,,,,,,,,,,,,,001,118,2020_Feb_13_1030,spring_faces,3.2.3,59.92728279687701,
condition files/Stage0a.xlsx,0a,alpha,none,h,"['h', 'g']","['Chess', 'Go']","[0, 0.5]","[0, 0]",1,0,0,3,3,3,0,1,1,0,,,,,,,,,,,,,,,,,,,,,,,,,,,,,,,,,,,,,,,,,,,,,,,,,,,,,,,,,,,,,,,182.58176768700014,None,182.58176768700014,None,182.58176768700014,None,h,1,0.6525705469998684,184.11507483600008,None,184.11507483600008,None,184.11507483600008,None,184.84844756599978,None,184.84844756599978,None,184.84844756599978,None,184.84844756599978,None,,,,,,,,,,,,,,,,,,,,,,,,,,,,,,,,,,,,,,,,,,,,001,118,2020_Feb_13_1030,spring_faces,3.2.3,59.92728279687701,
condition files/Stage0a.xlsx,0a,beta,none,g,"['h', 'g']","['Chess', 'Go']","[0, 0.5]","[0, 0]",1,0,0,4,4,4,0,0,0,1,,,,,,,,,,,,,,,,,,,,,,,,,,,,,,,,,,,,,,,,,,,,,,,,,,,,,,,,,,,,,,,186.83190246499998,None,186.83190246499998,None,186.83190246499998,None,g,1,0.9785175660003915,188.36516770499975,None,188.36516770499975,None,188.36516770499975,None,189.41516879499977,None,189.41516879499977,None,189.41516879499977,None,189.41516879499977,None,,,,,,,,,,,,,,,,,,,,,,,,,,,,,,,,,,,,,,,,,,,,001,118,2020_Feb_13_1030,spring_faces,3.2.3,59.92728279687701,
condition files/Stage0a.xlsx,0a,alpha,none,h,"['h', 'g']","['Chess', 'Go']","[0, 0.5]","[0, 0]",1,0,0,4,4,4,0,1,1,0,,,,,,,,,,,,,,,,,,,,,,,,,,,,,,,,,,,,,,,,,,,,,,,,,,,,,,,,,,,,,,,191.3818548979998,None,191.3818548979998,None,191.3818548979998,None,h,1,0.8606004890002623,192.9151012819998,None,192.9151012819998,None,192.9151012819998,None,193.83181378500012,None,193.83181378500012,None,193.83181378500012,None,193.83181378500012,None,,,,,,,,,,,,,,,,,,,,,,,,,,,,,,,,,,,,,,,,,,,,001,118,2020_Feb_13_1030,spring_faces,3.2.3,59.92728279687701,
condition files/Stage0a.xlsx,0a,alpha,none,h,"['h', 'g']","['Chess', 'Go']","[0, 0.5]","[0, 0]",1,0,0,5,5,5,0,0,0,0,,,,,,,,,,,,,,,,,,,,,,,,,,,,,,,,,,,,,,,,,,,,,,,,,,,,,,,,,,,,,,,195.831839168,None,195.831839168,None,195.831839168,None,h,1,0.8585419659998479,197.3651541539998,None,197.3651541539998,None,197.3651541539998,None,198.28179829500004,None,198.28179829500004,None,198.28179829500004,None,198.28179829500004,None,,,,,,,,,,,,,,,,,,,,,,,,,,,,,,,,,,,,,,,,,,,,001,118,2020_Feb_13_1030,spring_faces,3.2.3,59.92728279687701,
condition files/Stage0a.xlsx,0a,beta,none,g,"['h', 'g']","['Chess', 'Go']","[0, 0.5]","[0, 0]",1,0,0,5,5,5,0,1,1,1,,,,,,,,,,,,,,,,,,,,,,,,,,,,,,,,,,,,,,,,,,,,,,,,,,,,,,,,,,,,,,,200.26514887899975,None,200.26514887899975,None,200.26514887899975,None,g,1,0.9691523899996355,201.7984833559999,None,201.7984833559999,None,201.7984833559999,None,202.83185710999987,None,202.83185710999987,None,202.83185710999987,None,202.83185710999987,None,,,,,,,,,,,,,,,,,,,,,,,,,,,,,,,,,,,,,,,,,,,,001,118,2020_Feb_13_1030,spring_faces,3.2.3,59.92728279687701,
condition files/Stage0b_1.xlsx,0b,none,beta,g,"['h', 'g']","['Chess', 'Go']","[-0.15, 0.5]","[0.15, 0.5]",0,1,0,6,6,6,0,0,0,1,,,,,,,,,,,,,,,,,,,,,,,,,,,,,,,,,,,,,,,,,,,,,,,,,,,,,,,,,,,,,,,204.831914677,None,204.831914677,None,204.831914677,None,g,1,1.137847882999722,206.38182486200003,None,206.38182486200003,None,206.38182486200003,None,207.59821614800012,None,207.59821614800012,None,207.59821614800012,None,207.59821614800012,None,,,,,,,,,,,,,,,,,,,,,,,,,,,,,,,,,,,,,,,,,,,,001,118,2020_Feb_13_1030,spring_faces,3.2.3,59.92728279687701,
condition files/Stage0b_1.xlsx,0b,alpha,none,h,"['h', 'g']","['Chess', 'Go']","[-0.15, 0.5]","[0.15, 0.5]",1,0,0,6,6,6,0,1,1,0,,,,,,,,,,,,,,,,,,,,,,,,,,,,,,,,,,,,,,,,,,,,,,,,,,,,,,,,,,,,,,,209.56515383999977,None,209.56515383999977,None,209.56515383999977,None,h,1,0.6773937250000017,211.09832142899995,None,211.09832142899995,None,211.09832142899995,None,211.848494759,None,211.848494759,None,211.848494759,None,211.848494759,None,,,,,,,,,,,,,,,,,,,,,,,,,,,,,,,,,,,,,,,,,,,,001,118,2020_Feb_13_1030,spring_faces,3.2.3,59.92728279687701,
condition files/Stage0b_2.xlsx,0b,none,alpha,h,"['h', 'g']","['Chess', 'Go']","[-0.15, 0.5]","[0.15, 0.5]",0,1,0,7,7,7,0,0,0,0,,,,,,,,,,,,,,,,,,,,,,,,,,,,,,,,,,,,,,,,,,,,,,,,,,,,,,,,,,,,,,,213.831802402,None,213.831802402,None,213.831802402,None,h,1,0.8905341130002853,215.36513356099977,None,215.36513356099977,None,215.36513356099977,None,216.31513127400012,None,216.31513127400012,None,216.31513127400012,None,216.31513127400012,None,,,,,,,,,,,,,,,,,,,,,,,,,,,,,,,,,,,,,,,,,,,,001,118,2020_Feb_13_1030,spring_faces,3.2.3,59.92728279687701,
condition files/Stage0b_2.xlsx,0b,beta,none,g,"['h', 'g']","['Chess', 'Go']","[-0.15, 0.5]","[0.15, 0.5]",1,0,0,7,7,7,0,1,1,1,,,,,,,,,,,,,,,,,,,,,,,,,,,,,,,,,,,,,,,,,,,,,,,,,,,,,,,,,,,,,,,218.29848921899975,None,218.29848921899975,None,218.29848921899975,None,g,1,0.7602360579999186,219.83146067000007,None,219.83146067000007,None,219.83146067000007,None,220.66520816000002,None,220.66520816000002,None,220.66520816000002,None,220.66520816000002,None,,,,,,,,,,,,,,,,,,,,,,,,,,,,,,,,,,,,,,,,,,,,001,118,2020_Feb_13_1030,spring_faces,3.2.3,59.92728279687701,
condition files/Stage0b_1.xlsx,0b,alpha,none,h,"['h', 'g']","['Chess', 'Go']","[-0.15, 0.5]","[0.15, 0.5]",1,0,0,8,8,8,0,0,0,0,,,,,,,,,,,,,,,,,,,,,,,,,,,,,,,,,,,,,,,,,,,,,,,,,,,,,,,,,,,,,,,222.6478922809997,None,222.6478922809997,None,222.6478922809997,None,h,1,1.0017975140003728,224.18180239999992,None,224.18180239999992,None,224.18180239999992,None,225.265167562,None,225.265167562,None,225.265167562,None,225.265167562,None,,,,,,,,,,,,,,,,,,,,,,,,,,,,,,,,,,,,,,,,,,,,001,118,2020_Feb_13_1030,spring_faces,3.2.3,59.92728279687701,
condition files/Stage0b_1.xlsx,0b,none,beta,g,"['h', 'g']","['Chess', 'Go']","[-0.15, 0.5]","[0.15, 0.5]",0,1,0,8,8,8,0,1,1,1,,,,,,,,,,,,,,,,,,,,,,,,,,,,,,,,,,,,,,,,,,,,,,,,,,,,,,,,,,,,,,,227.23177514400004,None,227.23177514400004,None,227.23177514400004,None,g,1,0.9465844860001198,228.76513698100007,None,228.76513698100007,None,228.76513698100007,None,229.7818062309998,None,229.7818062309998,None,229.7818062309998,None,229.7818062309998,None,,,,,,,,,,,,,,,,,,,,,,,,,,,,,,,,,,,,,,,,,,,,001,118,2020_Feb_13_1030,spring_faces,3.2.3,59.92728279687701,
condition files/Stage0b_2.xlsx,0b,none,alpha,h,"['h', 'g']","['Chess', 'Go']","[-0.15, 0.5]","[0.15, 0.5]",0,1,0,9,9,9,0,0,0,0,,,,,,,,,,,,,,,,,,,,,,,,,,,,,,,,,,,,,,,,,,,,,,,,,,,,,,,,,,,,,,,231.765129119,None,231.765129119,None,231.765129119,None,h,1,0.7332698660002279,233.29840913599992,None,233.29840913599992,None,233.29840913599992,None,234.09849829299992,None,234.09849829299992,None,234.09849829299992,None,234.09849829299992,None,,,,,,,,,,,,,,,,,,,,,,,,,,,,,,,,,,,,,,,,,,,,001,118,2020_Feb_13_1030,spring_faces,3.2.3,59.92728279687701,
condition files/Stage0b_2.xlsx,0b,beta,none,g,"['h', 'g']","['Chess', 'Go']","[-0.15, 0.5]","[0.15, 0.5]",1,0,0,9,9,9,0,1,1,1,,,,,,,,,,,,,,,,,,,,,,,,,,,,,,,,,,,,,,,,,,,,,,,,,,,,,,,,,,,,,,,236.06508484799997,None,236.06508484799997,None,236.06508484799997,None,g,1,1.329402953999761,237.59822676399972,None,237.59822676399972,None,237.59822676399972,None,238.99847972499992,None,238.99847972499992,None,238.99847972499992,None,238.99847972499992,None,,,,,,,,,,,,,,,,,,,,,,,,,,,,,,,,,,,,,,,,,,,,001,118,2020_Feb_13_1030,spring_faces,3.2.3,59.92728279687701,
condition files/Stage0b_1.xlsx,0b,alpha,none,h,"['h', 'g']","['Chess', 'Go']","[-0.15, 0.5]","[0.15, 0.5]",1,0,0,10,10,10,0,0,0,0,,,,,,,,,,,,,,,,,,,,,,,,,,,,,,,,,,,,,,,,,,,,,,,,,,,,,,,,,,,,,,,240.98180160499987,None,240.98180160499987,None,240.98180160499987,None,h,1,0.8125536839997949,242.51508529900002,None,242.51508529900002,None,242.51508529900002,None,243.3984690799998,None,243.3984690799998,None,243.3984690799998,None,243.3984690799998,None,,,,,,,,,,,,,,,,,,,,,,,,,,,,,,,,,,,,,,,,,,,,001,118,2020_Feb_13_1030,spring_faces,3.2.3,59.92728279687701,
condition files/Stage0b_1.xlsx,0b,none,beta,g,"['h', 'g']","['Chess', 'Go']","[-0.15, 0.5]","[0.15, 0.5]",0,1,0,10,10,10,0,1,1,1,,,,,,,,,,,,,,,,,,,,,,,,,,,,,,,,,,,,,,,,,,,,,,,,,,,,,,,,,,,,,,,245.36513839600002,None,245.36513839600002,None,245.36513839600002,None,g,1,0.6852150290001191,246.89840888699973,None,246.89840888699973,None,246.89840888699973,None,247.66508380200003,None,247.66508380200003,None,247.66508380200003,None,247.66508380200003,None,,,,,,,,,,,,,,,,,,,,,,,,,,,,,,,,,,,,,,,,,,,,001,118,2020_Feb_13_1030,spring_faces,3.2.3,59.92728279687701,
condition files/Stage0b_2.xlsx,0b,beta,none,g,"['h', 'g']","['Chess', 'Go']","[-0.15, 0.5]","[0.15, 0.5]",1,0,0,11,11,11,0,0,0,1,,,,,,,,,,,,,,,,,,,,,,,,,,,,,,,,,,,,,,,,,,,,,,,,,,,,,,,,,,,,,,,249.64848940699994,None,249.64848940699994,None,249.64848940699994,None,g,1,1.074192108999796,251.18151140400005,None,251.18151140400005,None,251.18151140400005,None,252.33184008399985,None,252.33184008399985,None,252.33184008399985,None,252.33184008399985,None,,,,,,,,,,,,,,,,,,,,,,,,,,,,,,,,,,,,,,,,,,,,001,118,2020_Feb_13_1030,spring_faces,3.2.3,59.92728279687701,
condition files/Stage0b_2.xlsx,0b,none,alpha,h,"['h', 'g']","['Chess', 'Go']","[-0.15, 0.5]","[0.15, 0.5]",0,1,0,11,11,11,0,1,1,0,,,,,,,,,,,,,,,,,,,,,,,,,,,,,,,,,,,,,,,,,,,,,,,,,,,,,,,,,,,,,,,254.29850366499977,None,254.29850366499977,None,254.29850366499977,None,h,1,0.679875266000181,255.83183505599982,None,255.83183505599982,None,255.83183505599982,None,256.5818782010001,None,256.5818782010001,None,256.5818782010001,None,256.5818782010001,None,,,,,,,,,,,,,,,,,,,,,,,,,,,,,,,,,,,,,,,,,,,,001,118,2020_Feb_13_1030,spring_faces,3.2.3,59.92728279687701,
condition files/Stage0c_1.xlsx,0c,alpha,phi,h,"['h', 'g']","['Chess', 'Go']","[-0.15, 0.5]","[0.15, 0.5]",1,1,0,12,12,12,0,0,0,1,,,,,,,,,,,,,,,,,,,,,,,,,,,,,,,,,,,,,,,,,,,,,,,,,,,,,,,,,,,,,,,258.5651297489999,None,258.5651297489999,None,258.5651297489999,None,h,1,2.493342569000106,260.0983703009997,None,260.0983703009997,None,260.0983703009997,None,262.6483388249999,None,262.6483388249999,None,262.6483388249999,None,262.6483388249999,None,,,,,,,,,,,,,,,,,,,,,,,,,,,,,,,,,,,,,,,,,,,,001,118,2020_Feb_13_1030,spring_faces,3.2.3,59.92728279687701,
condition files/Stage0c_1.xlsx,0c,phi,beta,g,"['h', 'g']","['Chess', 'Go']","[-0.15, 0.5]","[0.15, 0.5]",1,1,0,12,12,12,0,1,1,3,,,,,,,,,,,,,,,,,,,,,,,,,,,,,,,,,,,,,,,,,,,,,,,,,,,,,,,,,,,,,,,264.6318601419998,None,264.6318601419998,None,264.6318601419998,None,g,1,2.618435490000138,266.16515433099994,None,266.16515433099994,None,266.16515433099994,None,268.8484320970001,None,268.8484320970001,None,268.8484320970001,None,268.8484320970001,None,,,,,,,,,,,,,,,,,,,,,,,,,,,,,,,,,,,,,,,,,,,,001,118,2020_Feb_13_1030,spring_faces,3.2.3,59.92728279687701,
condition files/Stage0c_1.xlsx,0c,beta,theta,g,"['h', 'g']","['Chess', 'Go']","[-0.15, 0.5]","[0.15, 0.5]",1,1,0,12,12,12,0,2,2,2,,,,,,,,,,,,,,,,,,,,,,,,,,,,,,,,,,,,,,,,,,,,,,,,,,,,,,,,,,,,,,,270.83193204500003,None,270.83193204500003,None,270.83193204500003,None,h,0,1.7624479740002243,272.3651648770001,None,272.3651648770001,None,272.3651648770001,None,274.18180558099994,None,274.18180558099994,None,274.18180558099994,None,274.18180558099994,None,,,,,,,,,,,,,,,,,,,,,,,,,,,,,,,,,,,,,,,,,,,,001,118,2020_Feb_13_1030,spring_faces,3.2.3,59.92728279687701,
condition files/Stage0c_1.xlsx,0c,theta,alpha,h,"['h', 'g']","['Chess', 'Go']","[-0.15, 0.5]","[0.15, 0.5]",1,1,0,12,12,12,0,3,3,0,,,,,,,,,,,,,,,,,,,,,,,,,,,,,,,,,,,,,,,,,,,,,,,,,,,,,,,,,,,,,,,276.1651755600001,None,276.1651755600001,None,276.1651755600001,None,h,1,0.973165527999754,277.69850233399984,None,277.69850233399984,None,277.69850233399984,None,278.7485038259997,None,278.7485038259997,None,278.7485038259997,None,278.7485038259997,None,,,,,,,,,,,,,,,,,,,,,,,,,,,,,,,,,,,,,,,,,,,,001,118,2020_Feb_13_1030,spring_faces,3.2.3,59.92728279687701,
condition files/Stage0c_2.xlsx,0c,beta,phi,g,"['h', 'g']","['Chess', 'Go']","[-0.15, 0.5]","[0.15, 0.5]",1,1,0,13,13,13,0,0,0,3,,,,,,,,,,,,,,,,,,,,,,,,,,,,,,,,,,,,,,,,,,,,,,,,,,,,,,,,,,,,,,,280.73182470799975,None,280.73182470799975,None,280.73182470799975,None,g,1,1.5905250160003561,282.2651633579999,None,282.2651633579999,None,282.2651633579999,None,283.915132436,None,283.915132436,None,283.915132436,None,283.915132436,None,,,,,,,,,,,,,,,,,,,,,,,,,,,,,,,,,,,,,,,,,,,,001,118,2020_Feb_13_1030,spring_faces,3.2.3,59.92728279687701,
condition files/Stage0c_2.xlsx,0c,phi,alpha,h,"['h', 'g']","['Chess', 'Go']","[-0.15, 0.5]","[0.15, 0.5]",1,1,0,13,13,13,0,1,1,1,,,,,,,,,,,,,,,,,,,,,,,,,,,,,,,,,,,,,,,,,,,,,,,,,,,,,,,,,,,,,,,285.89848754700006,None,285.89848754700006,None,285.89848754700006,None,h,1,1.1608011409998653,287.41490701199973,None,287.41490701199973,None,287.41490701199973,None,288.63182140599974,None,288.63182140599974,None,288.63182140599974,None,288.63182140599974,None,,,,,,,,,,,,,,,,,,,,,,,,,,,,,,,,,,,,,,,,,,,,001,118,2020_Feb_13_1030,spring_faces,3.2.3,59.92728279687701,
condition files/Stage0c_2.xlsx,0c,alpha,theta,h,"['h', 'g']","['Chess', 'Go']","[-0.15, 0.5]","[0.15, 0.5]",1,1,0,13,13,13,0,2,2,0,,,,,,,,,,,,,,,,,,,,,,,,,,,,,,,,,,,,,,,,,,,,,,,,,,,,,,,,,,,,,,,290.61516760899985,None,290.61516760899985,None,290.61516760899985,None,h,1,0.7799344899999596,292.13180134799995,None,292.13180134799995,None,292.13180134799995,None,292.9651636479998,None,292.9651636479998,None,292.9651636479998,None,292.9651636479998,None,,,,,,,,,,,,,,,,,,,,,,,,,,,,,,,,,,,,,,,,,,,,001,118,2020_Feb_13_1030,spring_faces,3.2.3,59.92728279687701,
condition files/Stage0c_2.xlsx,0c,theta,beta,g,"['h', 'g']","['Chess', 'Go']","[-0.15, 0.5]","[0.15, 0.5]",1,1,0,13,13,13,0,3,3,2,,,,,,,,,,,,,,,,,,,,,,,,,,,,,,,,,,,,,,,,,,,,,,,,,,,,,,,,,,,,,,,294.9484652880001,None,294.9484652880001,None,294.9484652880001,None,g,1,1.0388719359998504,296.4648026249997,None,296.4648026249997,None,296.4648026249997,None,297.56514008099975,None,297.56514008099975,None,297.56514008099975,None,297.56514008099975,None,,,,,,,,,,,,,,,,,,,,,,,,,,,,,,,,,,,,,,,,,,,,001,118,2020_Feb_13_1030,spring_faces,3.2.3,59.92728279687701,
condition files/Stage0c_1.xlsx,0c,alpha,phi,h,"['h', 'g']","['Chess', 'Go']","[-0.15, 0.5]","[0.15, 0.5]",1,1,0,14,14,14,0,0,0,1,,,,,,,,,,,,,,,,,,,,,,,,,,,,,,,,,,,,,,,,,,,,,,,,,,,,,,,,,,,,,,,299.565158117,None,299.565158117,None,299.565158117,None,h,1,1.3983114869997735,301.0814781250001,None,301.0814781250001,None,301.0814781250001,None,302.53180877099976,None,302.53180877099976,None,302.53180877099976,None,302.53180877099976,None,,,,,,,,,,,,,,,,,,,,,,,,,,,,,,,,,,,,,,,,,,,,001,118,2020_Feb_13_1030,spring_faces,3.2.3,59.92728279687701,
condition files/Stage0c_1.xlsx,0c,beta,theta,g,"['h', 'g']","['Chess', 'Go']","[-0.15, 0.5]","[0.15, 0.5]",1,1,0,14,14,14,0,1,1,2,,,,,,,,,,,,,,,,,,,,,,,,,,,,,,,,,,,,,,,,,,,,,,,,,,,,,,,,,,,,,,,304.5151909359997,None,304.5151909359997,None,304.5151909359997,None,g,1,0.7038816310000584,306.0316750940001,None,306.0316750940001,None,306.0316750940001,None,306.7985145919997,None,306.7985145919997,None,306.7985145919997,None,306.7985145919997,None,,,,,,,,,,,,,,,,,,,,,,,,,,,,,,,,,,,,,,,,,,,,001,118,2020_Feb_13_1030,spring_faces,3.2.3,59.92728279687701,
condition files/Stage0c_1.xlsx,0c,phi,beta,g,"['h', 'g']","['Chess', 'Go']","[-0.15, 0.5]","[0.15, 0.5]",1,1,0,14,14,14,0,2,2,3,,,,,,,,,,,,,,,,,,,,,,,,,,,,,,,,,,,,,,,,,,,,,,,,,,,,,,,,,,,,,,,308.78182965899987,None,308.78182965899987,None,308.78182965899987,None,g,1,1.34864369800016,310.315141778,None,310.315141778,None,310.315141778,None,311.71508500599975,None,311.71508500599975,None,311.71508500599975,None,311.71508500599975,None,,,,,,,,,,,,,,,,,,,,,,,,,,,,,,,,,,,,,,,,,,,,001,118,2020_Feb_13_1030,spring_faces,3.2.3,59.92728279687701,
condition files/Stage0c_1.xlsx,0c,theta,alpha,h,"['h', 'g']","['Chess', 'Go']","[-0.15, 0.5]","[0.15, 0.5]",1,1,0,14,14,14,0,3,3,0,,,,,,,,,,,,,,,,,,,,,,,,,,,,,,,,,,,,,,,,,,,,,,,,,,,,,,,,,,,,,,,313.6984072999999,None,313.6984072999999,None,313.6984072999999,None,h,1,0.7357348919999822,315.2319031799998,None,315.2319031799998,None,315.2319031799998,None,316.03189608599996,None,316.03189608599996,None,316.03189608599996,None,316.03189608599996,None,,,,,,,,,,,,,,,,,,,,,,,,,,,,,,,,,,,,,,,,,,,,001,118,2020_Feb_13_1030,spring_faces,3.2.3,59.92728279687701,
condition files/Stage0c_2.xlsx,0c,theta,beta,g,"['h', 'g']","['Chess', 'Go']","[-0.15, 0.5]","[0.15, 0.5]",1,1,0,15,15,15,0,0,0,2,,,,,,,,,,,,,,,,,,,,,,,,,,,,,,,,,,,,,,,,,,,,,,,,,,,,,,,,,,,,,,,318.031747385,None,318.031747385,None,318.031747385,None,g,1,0.8826191829998606,319.56515553500003,None,319.56515553500003,None,319.56515553500003,None,320.4984218939999,None,320.4984218939999,None,320.4984218939999,None,320.4984218939999,None,,,,,,,,,,,,,,,,,,,,,,,,,,,,,,,,,,,,,,,,,,,,001,118,2020_Feb_13_1030,spring_faces,3.2.3,59.92728279687701,
condition files/Stage0c_2.xlsx,0c,alpha,theta,h,"['h', 'g']","['Chess', 'Go']","[-0.15, 0.5]","[0.15, 0.5]",1,1,0,15,15,15,0,1,1,0,,,,,,,,,,,,,,,,,,,,,,,,,,,,,,,,,,,,,,,,,,,,,,,,,,,,,,,,,,,,,,,322.481833373,None,322.481833373,None,322.481833373,None,h,1,1.0413626399999885,323.99831677099974,None,323.99831677099974,None,323.99831677099974,None,325.09849400899975,None,325.09849400899975,None,325.09849400899975,None,325.09849400899975,None,,,,,,,,,,,,,,,,,,,,,,,,,,,,,,,,,,,,,,,,,,,,001,118,2020_Feb_13_1030,spring_faces,3.2.3,59.92728279687701,
condition files/Stage0c_2.xlsx,0c,beta,phi,g,"['h', 'g']","['Chess', 'Go']","[-0.15, 0.5]","[0.15, 0.5]",1,1,0,15,15,15,0,2,2,3,,,,,,,,,,,,,,,,,,,,,,,,,,,,,,,,,,,,,,,,,,,,,,,,,,,,,,,,,,,,,,,327.0818003559998,None,327.0818003559998,None,327.0818003559998,None,g,1,0.9215717710003446,328.59812632700005,None,328.59812632700005,None,328.59812632700005,None,329.58184337800003,None,329.58184337800003,None,329.58184337800003,None,329.58184337800003,None,,,,,,,,,,,,,,,,,,,,,,,,,,,,,,,,,,,,,,,,,,,,001,118,2020_Feb_13_1030,spring_faces,3.2.3,59.92728279687701,
condition files/Stage0c_2.xlsx,0c,phi,alpha,h,"['h', 'g']","['Chess', 'Go']","[-0.15, 0.5]","[0.15, 0.5]",1,1,0,15,15,15,0,3,3,1,,,,,,,,,,,,,,,,,,,,,,,,,,,,,,,,,,,,,,,,,,,,,,,,,,,,,,,,,,,,,,,331.5651506129998,None,331.5651506129998,None,331.5651506129998,None,h,1,1.1570925569999417,333.09847809099983,None,333.09847809099983,None,333.09847809099983,None,334.31515458900003,None,334.31515458900003,None,334.31515458900003,None,334.31515458900003,None,,,,,,,,,,,,,,,,,,,,,,,,,,,,,,,,,,,,,,,,,,,,001,118,2020_Feb_13_1030,spring_faces,3.2.3,59.92728279687701,
condition files/Stage0c_1.xlsx,0c,alpha,phi,h,"['h', 'g']","['Chess', 'Go']","[-0.15, 0.5]","[0.15, 0.5]",1,1,0,16,16,16,0,0,0,1,,,,,,,,,,,,,,,,,,,,,,,,,,,,,,,,,,,,,,,,,,,,,,,,,,,,,,,,,,,,,,,336.3151280779998,None,336.3151280779998,None,336.3151280779998,None,h,1,0.9998546760002682,337.8318242810001,None,337.8318242810001,None,337.8318242810001,None,338.8817126929998,None,338.8817126929998,None,338.8817126929998,None,338.8817126929998,None,,,,,,,,,,,,,,,,,,,,,,,,,,,,,,,,,,,,,,,,,,,,001,118,2020_Feb_13_1030,spring_faces,3.2.3,59.92728279687701,
condition files/Stage0c_1.xlsx,0c,beta,theta,g,"['h', 'g']","['Chess', 'Go']","[-0.15, 0.5]","[0.15, 0.5]",1,1,0,16,16,16,0,1,1,2,,,,,,,,,,,,,,,,,,,,,,,,,,,,,,,,,,,,,,,,,,,,,,,,,,,,,,,,,,,,,,,340.8650520450001,None,340.8650520450001,None,340.8650520450001,None,g,1,0.5932198099999368,342.3984695280001,None,342.3984695280001,None,342.3984695280001,None,343.048492679,None,343.048492679,None,343.048492679,None,343.048492679,None,,,,,,,,,,,,,,,,,,,,,,,,,,,,,,,,,,,,,,,,,,,,001,118,2020_Feb_13_1030,spring_faces,3.2.3,59.92728279687701,
condition files/Stage0c_1.xlsx,0c,theta,alpha,h,"['h', 'g']","['Chess', 'Go']","[-0.15, 0.5]","[0.15, 0.5]",1,1,0,16,16,16,0,2,2,0,,,,,,,,,,,,,,,,,,,,,,,,,,,,,,,,,,,,,,,,,,,,,,,,,,,,,,,,,,,,,,,345.0318332940001,None,345.0318332940001,None,345.0318332940001,None,h,1,1.3232707990000563,346.54838021700016,None,346.54838021700016,None,346.54838021700016,None,347.931834727,None,347.931834727,None,347.931834727,None,347.931834727,None,,,,,,,,,,,,,,,,,,,,,,,,,,,,,,,,,,,,,,,,,,,,001,118,2020_Feb_13_1030,spring_faces,3.2.3,59.92728279687701,
condition files/Stage0c_1.xlsx,0c,phi,beta,g,"['h', 'g']","['Chess', 'Go']","[-0.15, 0.5]","[0.15, 0.5]",1,1,0,16,16,16,0,3,3,3,,,,,,,,,,,,,,,,,,,,,,,,,,,,,,,,,,,,,,,,,,,,,,,,,,,,,,,,,,,,,,,349.9151494929997,None,349.9151494929997,None,349.9151494929997,None,g,1,0.791213436000362,351.4484730979998,None,351.4484730979998,None,351.4484730979998,None,352.2985010039997,None,352.2985010039997,None,352.2985010039997,None,352.2985010039997,None,,,,,,,,,,,,,,,,,,,,,,,,,,,,,,,,,,,,,,,,,,,,001,118,2020_Feb_13_1030,spring_faces,3.2.3,59.92728279687701,
condition files/Stage0c_2.xlsx,0c,theta,beta,g,"['h', 'g']","['Chess', 'Go']","[-0.15, 0.5]","[0.15, 0.5]",1,1,0,17,17,17,0,0,0,2,,,,,,,,,,,,,,,,,,,,,,,,,,,,,,,,,,,,,,,,,,,,,,,,,,,,,,,,,,,,,,,354.2984685229999,None,354.2984685229999,None,354.2984685229999,None,g,1,0.8878543509999872,355.83182038999985,None,355.83182038999985,None,355.83182038999985,None,356.781829776,None,356.781829776,None,356.781829776,None,356.781829776,None,,,,,,,,,,,,,,,,,,,,,,,,,,,,,,,,,,,,,,,,,,,,001,118,2020_Feb_13_1030,spring_faces,3.2.3,59.92728279687701,
condition files/Stage0c_2.xlsx,0c,alpha,theta,h,"['h', 'g']","['Chess', 'Go']","[-0.15, 0.5]","[0.15, 0.5]",1,1,0,17,17,17,0,1,1,0,,,,,,,,,,,,,,,,,,,,,,,,,,,,,,,,,,,,,,,,,,,,,,,,,,,,,,,,,,,,,,,358.76506273999985,None,358.76506273999985,None,358.76506273999985,None,h,1,0.7252002189998166,360.29848147699977,None,360.29848147699977,None,360.29848147699977,None,361.08182956400015,None,361.08182956400015,None,361.08182956400015,None,361.08182956400015,None,,,,,,,,,,,,,,,,,,,,,,,,,,,,,,,,,,,,,,,,,,,,001,118,2020_Feb_13_1030,spring_faces,3.2.3,59.92728279687701,
condition files/Stage0c_2.xlsx,0c,phi,alpha,h,"['h', 'g']","['Chess', 'Go']","[-0.15, 0.5]","[0.15, 0.5]",1,1,0,17,17,17,0,2,2,1,,,,,,,,,,,,,,,,,,,,,,,,,,,,,,,,,,,,,,,,,,,,,,,,,,,,,,,,,,,,,,,363.0651631229998,None,363.0651631229998,None,363.0651631229998,None,h,1,0.8252719770002841,364.598437309,None,364.598437309,None,364.598437309,None,365.4818289609998,None,365.4818289609998,None,365.4818289609998,None,365.4818289609998,None,,,,,,,,,,,,,,,,,,,,,,,,,,,,,,,,,,,,,,,,,,,,001,118,2020_Feb_13_1030,spring_faces,3.2.3,59.92728279687701,
condition files/Stage0c_2.xlsx,0c,beta,phi,g,"['h', 'g']","['Chess', 'Go']","[-0.15, 0.5]","[0.15, 0.5]",1,1,0,17,17,17,0,3,3,3,,,,,,,,,,,,,,,,,,,,,,,,,,,,,,,,,,,,,,,,,,,,,,,,,,,,,,,,,,,,,,,367.4651438779997,None,367.4651438779997,None,367.4651438779997,None,g,1,0.6020993629999793,368.9815281729998,None,368.9815281729998,None,368.9815281729998,None,369.6484882750001,None,369.6484882750001,None,369.6484882750001,None,369.6484882750001,None,,,,,,,,,,,,,,,,,,,,,,,,,,,,,,,,,,,,,,,,,,,,001,118,2020_Feb_13_1030,spring_faces,3.2.3,59.92728279687701,
,,,,,,,,,,,,,,,,,,,,,,,,,,,,,,,,,,,,,,,,,,,,,,,,,,,,,,,,,,,,,,,,,,,,,,,,,,,,,,,,,,,,,,,,,,,,,,,,,,,,,,,,371.6318722269998,None,space,1.1446867409999868,376.61503912399985,None,,,,,,,,,,,,,,,,,,,,,,,,,,,,,,,,,,,,,,001,118,2020_Feb_13_1030,spring_faces,3.2.3,59.92728279687701,
condition files/Stage1_1.xlsx,,T1,B1,c,"['c', 'm']","['Clue', 'Monopoly']","[-0.15, 0.5]","[0.15, 0.5]",1,1,,,,,,,,,0,0,0,0,0,0,0,0,,,,,,,,,,,,,,,,,,,,,,,,,,,,,,,,,,,,,,,,,,,,,,,,,,,,,,,377.81514797499995,None,377.81514797499995,None,377.81514797499995,None,c,1,0.6544979410000451,379.6651762649999,None,379.6651762649999,None,379.6651762649999,None,380.41496807800013,None,380.41496807800013,None,380.41496807800013,None,380.41496807800013,None,,,,,,,376.61503912399985,None,,,,,,,,,,,,,,,,,,,,,,,,,,,,,,,,,,,,001,118,2020_Feb_13_1030,spring_faces,3.2.3,59.92728279687701,
condition files/Stage1_1.xlsx,,B3,T3,c,"['c', 'm']","['Clue', 'Monopoly']","[-0.15, 0.5]","[0.15, 0.5]",1,1,,,,,,,,,0,0,0,0,0,1,1,4,,,,,,,,,,,,,,,,,,,,,,,,,,,,,,,,,,,,,,,,,,,,,,,,,,,,,,,382.3651820099999,None,382.3651820099999,None,382.3651820099999,None,m,0,0.899276091000047,383.9484817049997,None,383.9484817049997,None,383.9484817049997,None,384.91497702200013,None,384.91497702200013,None,384.91497702200013,None,384.91497702200013,None,,,,,,,,,,,,,,,,,,,,,,,,,,,,,,,,,,,,,,,,,,,,001,118,2020_Feb_13_1030,spring_faces,3.2.3,59.92728279687701,
condition files/Stage1_1.xlsx,,T2,B2,m,"['c', 'm']","['Clue', 'Monopoly']","[-0.15, 0.5]","[0.15, 0.5]",1,1,,,,,,,,,0,0,0,0,0,2,2,3,,,,,,,,,,,,,,,,,,,,,,,,,,,,,,,,,,,,,,,,,,,,,,,,,,,,,,,386.88183196299997,None,386.88183196299997,None,386.88183196299997,None,m,1,1.0245510990002913,388.4151390779998,None,388.4151390779998,None,388.4151390779998,None,389.5151625230001,None,389.5151625230001,None,389.5151625230001,None,389.5151625230001,None,,,,,,,,,,,,,,,,,,,,,,,,,,,,,,,,,,,,,,,,,,,,001,118,2020_Feb_13_1030,spring_faces,3.2.3,59.92728279687701,
condition files/Stage1_1.xlsx,,T4,B3,m,"['c', 'm']","['Clue', 'Monopoly']","[-0.15, 0.5]","[0.15, 0.5]",1,1,,,,,,,,,0,0,0,0,0,3,3,6,,,,,,,,,,,,,,,,,,,,,,,,,,,,,,,,,,,,,,,,,,,,,,,,,,,,,,,391.4818480609997,None,391.4818480609997,None,391.4818480609997,None,c,0,1.0965422109998144,393.01517908100004,None,393.01517908100004,None,393.01517908100004,None,394.16515463899987,None,394.16515463899987,None,394.16515463899987,None,394.16515463899987,None,,,,,,,,,,,,,,,,,,,,,,,,,,,,,,,,,,,,,,,,,,,,001,118,2020_Feb_13_1030,spring_faces,3.2.3,59.92728279687701,
condition files/Stage1_1.xlsx,,B1,T2,c,"['c', 'm']","['Clue', 'Monopoly']","[-0.15, 0.5]","[0.15, 0.5]",1,1,,,,,,,,,0,0,0,0,0,4,4,1,,,,,,,,,,,,,,,,,,,,,,,,,,,,,,,,,,,,,,,,,,,,,,,,,,,,,,,396.148500279,None,396.148500279,None,396.148500279,None,m,0,1.2619401240003754,397.68176572899984,None,397.68176572899984,None,397.68176572899984,None,399.0151563149998,None,399.0151563149998,None,399.0151563149998,None,399.0151563149998,None,,,,,,,,,,,,,,,,,,,,,,,,,,,,,,,,,,,,,,,,,,,,001,118,2020_Feb_13_1030,spring_faces,3.2.3,59.92728279687701,
condition files/Stage1_1.xlsx,,B4,T4,m,"['c', 'm']","['Clue', 'Monopoly']","[-0.15, 0.5]","[0.15, 0.5]",1,1,,,,,,,,,0,0,0,0,0,5,5,7,,,,,,,,,,,,,,,,,,,,,,,,,,,,,,,,,,,,,,,,,,,,,,,,,,,,,,,400.9818075369999,None,400.9818075369999,None,400.9818075369999,None,m,1,0.8606661959997837,402.5150423360001,None,402.5150423360001,None,402.5150423360001,None,403.44850423499975,None,403.44850423499975,None,403.44850423499975,None,403.44850423499975,None,,,,,,,,,,,,,,,,,,,,,,,,,,,,,,,,,,,,,,,,,,,,001,118,2020_Feb_13_1030,spring_faces,3.2.3,59.92728279687701,
condition files/Stage1_1.xlsx,,T3,B4,c,"['c', 'm']","['Clue', 'Monopoly']","[-0.15, 0.5]","[0.15, 0.5]",1,1,,,,,,,,,0,0,0,0,0,6,6,5,,,,,,,,,,,,,,,,,,,,,,,,,,,,,,,,,,,,,,,,,,,,,,,,,,,,,,,405.4151794569998,None,405.4151794569998,None,405.4151794569998,None,c,1,1.4191521459997603,406.9484953719998,None,406.9484953719998,None,406.9484953719998,None,408.448474542,None,408.448474542,None,408.448474542,None,408.448474542,None,,,,,,,,,,,,,,,,,,,,,,,,,,,,,,,,,,,,,,,,,,,,001,118,2020_Feb_13_1030,spring_faces,3.2.3,59.92728279687701,
condition files/Stage1_1.xlsx,,B2,T1,m,"['c', 'm']","['Clue', 'Monopoly']","[-0.15, 0.5]","[0.15, 0.5]",1,1,,,,,,,,,0,0,0,0,0,7,7,2,,,,,,,,,,,,,,,,,,,,,,,,,,,,,,,,,,,,,,,,,,,,,,,,,,,,,,,410.4151334549997,None,410.4151334549997,None,410.4151334549997,None,c,0,0.8351049100001546,411.9484765809998,None,411.9484765809998,None,411.9484765809998,None,412.8650900419998,None,412.8650900419998,None,412.8650900419998,None,412.8650900419998,None,,,,,,,,,,,,,,,,,,,,,,,,,,,,,,,,,,,,,,,,,,,,001,118,2020_Feb_13_1030,spring_faces,3.2.3,59.92728279687701,
condition files/Stage1_2.xlsx,,B3,T4,m,"['c', 'm']","['Clue', 'Monopoly']","[-0.15, 0.5]","[0.15, 0.5]",1,1,,,,,,,,,0,1,1,1,0,0,0,6,,,,,,,,,,,,,,,,,,,,,,,,,,,,,,,,,,,,,,,,,,,,,,,,,,,,,,,414.84841898000013,None,414.84841898000013,None,414.84841898000013,None,m,1,1.601797094000176,416.38181100099973,None,416.38181100099973,None,416.38181100099973,None,418.065139501,None,418.065139501,None,418.065139501,None,418.065139501,None,,,,,,,,,,,,,,,,,,,,,,,,,,,,,,,,,,,,,,,,,,,,001,118,2020_Feb_13_1030,spring_faces,3.2.3,59.92728279687701,
condition files/Stage1_2.xlsx,,T2,B1,c,"['c', 'm']","['Clue', 'Monopoly']","[-0.15, 0.5]","[0.15, 0.5]",1,1,,,,,,,,,0,1,1,1,0,1,1,1,,,,,,,,,,,,,,,,,,,,,,,,,,,,,,,,,,,,,,,,,,,,,,,,,,,,,,,420.03185879600005,None,420.03185879600005,None,420.03185879600005,None,c,1,1.7945442879999973,421.56514562899974,None,421.56514562899974,None,421.56514562899974,None,423.43183230199975,None,423.43183230199975,None,423.43183230199975,None,423.43183230199975,None,,,,,,,,,,,,,,,,,,,,,,,,,,,,,,,,,,,,,,,,,,,,001,118,2020_Feb_13_1030,spring_faces,3.2.3,59.92728279687701,
condition files/Stage1_2.xlsx,,T4,B4,m,"['c', 'm']","['Clue', 'Monopoly']","[-0.15, 0.5]","[0.15, 0.5]",1,1,,,,,,,,,0,1,1,1,0,2,2,7,,,,,,,,,,,,,,,,,,,,,,,,,,,,,,,,,,,,,,,,,,,,,,,,,,,,,,,425.39850019000005,None,425.39850019000005,None,425.39850019000005,None,m,1,3.4998098779997235,426.93188764800016,None,426.93188764800016,None,426.93188764800016,None,430.49843014199996,None,430.49843014199996,None,430.49843014199996,None,430.49843014199996,None,,,,,,,,,,,,,,,,,,,,,,,,,,,,,,,,,,,,,,,,,,,,001,118,2020_Feb_13_1030,spring_faces,3.2.3,59.92728279687701,
condition files/Stage1_2.xlsx,,T1,B2,m,"['c', 'm']","['Clue', 'Monopoly']","[-0.15, 0.5]","[0.15, 0.5]",1,1,,,,,,,,,0,1,1,1,0,3,3,2,,,,,,,,,,,,,,,,,,,,,,,,,,,,,,,,,,,,,,,,,,,,,,,,,,,,,,,432.46507090700015,None,432.46507090700015,None,432.46507090700015,None,c,0,2.0011253249999754,433.9984676109998,None,433.9984676109998,None,433.9984676109998,None,436.081816376,None,436.081816376,None,436.081816376,None,436.081816376,None,,,,,,,,,,,,,,,,,,,,,,,,,,,,,,,,,,,,,,,,,,,,001,118,2020_Feb_13_1030,spring_faces,3.2.3,59.92728279687701,
condition files/Stage1_2.xlsx,,B1,T1,c,"['c', 'm']","['Clue', 'Monopoly']","[-0.15, 0.5]","[0.15, 0.5]",1,1,,,,,,,,,0,1,1,1,0,4,4,0,,,,,,,,,,,,,,,,,,,,,,,,,,,,,,,,,,,,,,,,,,,,,,,,,,,,,,,438.0484058500001,None,438.0484058500001,None,438.0484058500001,None,m,0,1.0897791379998125,439.58181945399974,None,439.58181945399974,None,439.58181945399974,None,440.7485006080001,None,440.7485006080001,None,440.7485006080001,None,440.7485006080001,None,,,,,,,,,,,,,,,,,,,,,,,,,,,,,,,,,,,,,,,,,,,,001,118,2020_Feb_13_1030,spring_faces,3.2.3,59.92728279687701,
condition files/Stage1_2.xlsx,,B2,T2,m,"['c', 'm']","['Clue', 'Monopoly']","[-0.15, 0.5]","[0.15, 0.5]",1,1,,,,,,,,,0,1,1,1,0,5,5,3,,,,,,,,,,,,,,,,,,,,,,,,,,,,,,,,,,,,,,,,,,,,,,,,,,,,,,,442.71515922599974,None,442.71515922599974,None,442.71515922599974,None,c,0,1.4152402199997596,444.24850427399997,None,444.24850427399997,None,444.24850427399997,None,445.73187961899976,None,445.73187961899976,None,445.73187961899976,None,445.73187961899976,None,,,,,,,,,,,,,,,,,,,,,,,,,,,,,,,,,,,,,,,,,,,,001,118,2020_Feb_13_1030,spring_faces,3.2.3,59.92728279687701,
condition files/Stage1_2.xlsx,,B4,T3,c,"['c', 'm']","['Clue', 'Monopoly']","[-0.15, 0.5]","[0.15, 0.5]",1,1,,,,,,,,,0,1,1,1,0,6,6,5,,,,,,,,,,,,,,,,,,,,,,,,,,,,,,,,,,,,,,,,,,,,,,,,,,,,,,,447.6985285989999,None,447.6985285989999,None,447.6985285989999,None,c,1,2.4798959609997837,449.2318314869999,None,449.2318314869999,None,449.2318314869999,None,451.78183517399975,None,451.78183517399975,None,451.78183517399975,None,451.78183517399975,None,,,,,,,,,,,,,,,,,,,,,,,,,,,,,,,,,,,,,,,,,,,,001,118,2020_Feb_13_1030,spring_faces,3.2.3,59.92728279687701,
condition files/Stage1_2.xlsx,,T3,B3,c,"['c', 'm']","['Clue', 'Monopoly']","[-0.15, 0.5]","[0.15, 0.5]",1,1,,,,,,,,,0,1,1,1,0,7,7,4,,,,,,,,,,,,,,,,,,,,,,,,,,,,,,,,,,,,,,,,,,,,,,,,,,,,,,,453.74850091100006,None,453.74850091100006,None,453.74850091100006,None,c,1,1.133760102999986,455.28183576499987,None,455.28183576499987,None,455.28183576499987,None,456.4817797830001,None,456.4817797830001,None,456.4817797830001,None,456.4817797830001,None,,,,,,,,,,,,,,,,,,,,,,,,,,,,,,,,,,,,,,,,,,,,001,118,2020_Feb_13_1030,spring_faces,3.2.3,59.92728279687701,
condition files/Stage1_1.xlsx,,B3,T3,c,"['c', 'm']","['Clue', 'Monopoly']","[-0.15, 0.5]","[0.15, 0.5]",1,1,,,,,,,,,0,2,2,2,0,0,0,4,,,,,,,,,,,,,,,,,,,,,,,,,,,,,,,,,,,,,,,,,,,,,,,,,,,,,,,458.48180475499976,None,458.48180475499976,None,458.48180475499976,None,c,1,1.072527596999862,460.0151458,None,460.0151458,None,460.0151458,None,461.165145038,None,461.165145038,None,461.165145038,None,461.165145038,None,,,,,,,,,,,,,,,,,,,,,,,,,,,,,,,,,,,,,,,,,,,,001,118,2020_Feb_13_1030,spring_faces,3.2.3,59.92728279687701,
condition files/Stage1_1.xlsx,,T3,B4,c,"['c', 'm']","['Clue', 'Monopoly']","[-0.15, 0.5]","[0.15, 0.5]",1,1,,,,,,,,,0,2,2,2,0,1,1,5,,,,,,,,,,,,,,,,,,,,,,,,,,,,,,,,,,,,,,,,,,,,,,,,,,,,,,,463.13179695100007,None,463.13179695100007,None,463.13179695100007,None,c,1,0.7745350909999615,464.665139449,None,464.665139449,None,464.665139449,None,465.49847741099984,None,465.49847741099984,None,465.49847741099984,None,465.49847741099984,None,,,,,,,,,,,,,,,,,,,,,,,,,,,,,,,,,,,,,,,,,,,,001,118,2020_Feb_13_1030,spring_faces,3.2.3,59.92728279687701,
condition files/Stage1_1.xlsx,,T1,B1,c,"['c', 'm']","['Clue', 'Monopoly']","[-0.15, 0.5]","[0.15, 0.5]",1,1,,,,,,,,,0,2,2,2,0,2,2,0,,,,,,,,,,,,,,,,,,,,,,,,,,,,,,,,,,,,,,,,,,,,,,,,,,,,,,,467.4818314459999,None,467.4818314459999,None,467.4818314459999,None,m,0,1.112451623999732,469.01516577899974,None,469.01516577899974,None,469.01516577899974,None,470.18184984699974,None,470.18184984699974,None,470.18184984699974,None,470.18184984699974,None,,,,,,,,,,,,,,,,,,,,,,,,,,,,,,,,,,,,,,,,,,,,001,118,2020_Feb_13_1030,spring_faces,3.2.3,59.92728279687701,
condition files/Stage1_1.xlsx,,T2,B2,m,"['c', 'm']","['Clue', 'Monopoly']","[-0.15, 0.5]","[0.15, 0.5]",1,1,,,,,,,,,0,2,2,2,0,3,3,3,,,,,,,,,,,,,,,,,,,,,,,,,,,,,,,,,,,,,,,,,,,,,,,,,,,,,,,472.1651434729997,None,472.1651434729997,None,472.1651434729997,None,c,0,2.3331851650000317,473.6984753349998,None,473.6984753349998,None,473.6984753349998,None,476.0985030699999,None,476.0985030699999,None,476.0985030699999,None,476.0985030699999,None,,,,,,,,,,,,,,,,,,,,,,,,,,,,,,,,,,,,,,,,,,,,001,118,2020_Feb_13_1030,spring_faces,3.2.3,59.92728279687701,
condition files/Stage1_1.xlsx,,B2,T1,m,"['c', 'm']","['Clue', 'Monopoly']","[-0.15, 0.5]","[0.15, 0.5]",1,1,,,,,,,,,0,2,2,2,0,4,4,2,,,,,,,,,,,,,,,,,,,,,,,,,,,,,,,,,,,,,,,,,,,,,,,,,,,,,,,478.0650836159998,None,478.0650836159998,None,478.0650836159998,None,m,1,1.4731157569999596,479.59849111699987,None,479.59849111699987,None,479.59849111699987,None,481.1485100959999,None,481.1485100959999,None,481.1485100959999,None,481.1485100959999,None,,,,,,,,,,,,,,,,,,,,,,,,,,,,,,,,,,,,,,,,,,,,001,118,2020_Feb_13_1030,spring_faces,3.2.3,59.92728279687701,
condition files/Stage1_1.xlsx,,T4,B3,m,"['c', 'm']","['Clue', 'Monopoly']","[-0.15, 0.5]","[0.15, 0.5]",1,1,,,,,,,,,0,2,2,2,0,5,5,6,,,,,,,,,,,,,,,,,,,,,,,,,,,,,,,,,,,,,,,,,,,,,,,,,,,,,,,483.11517172599997,None,483.11517172599997,None,483.11517172599997,None,m,1,2.08714223700008,484.6485161999999,None,484.6485161999999,None,484.6485161999999,None,486.79847412399977,None,486.79847412399977,None,486.79847412399977,None,486.79847412399977,None,,,,,,,,,,,,,,,,,,,,,,,,,,,,,,,,,,,,,,,,,,,,001,118,2020_Feb_13_1030,spring_faces,3.2.3,59.92728279687701,
condition files/Stage1_1.xlsx,,B4,T4,m,"['c', 'm']","['Clue', 'Monopoly']","[-0.15, 0.5]","[0.15, 0.5]",1,1,,,,,,,,,0,2,2,2,0,6,6,7,,,,,,,,,,,,,,,,,,,,,,,,,,,,,,,,,,,,,,,,,,,,,,,,,,,,,,,488.781864004,None,488.781864004,None,488.781864004,None,c,0,2.708428618000198,490.31516691900015,None,490.31516691900015,None,490.31516691900015,None,493.0818253749999,None,493.0818253749999,None,493.0818253749999,None,493.0818253749999,None,,,,,,,,,,,,,,,,,,,,,,,,,,,,,,,,,,,,,,,,,,,,001,118,2020_Feb_13_1030,spring_faces,3.2.3,59.92728279687701,
condition files/Stage1_1.xlsx,,B1,T2,c,"['c', 'm']","['Clue', 'Monopoly']","[-0.15, 0.5]","[0.15, 0.5]",1,1,,,,,,,,,0,2,2,2,0,7,7,1,,,,,,,,,,,,,,,,,,,,,,,,,,,,,,,,,,,,,,,,,,,,,,,,,,,,,,,495.0651425830001,None,495.0651425830001,None,495.0651425830001,None,c,1,1.5932035629998609,496.5984746109998,None,496.5984746109998,None,496.5984746109998,None,498.2651851559999,None,498.2651851559999,None,498.2651851559999,None,498.2651851559999,None,,,,,,,,,,,,,,,,,,,,,,,,,,,,,,,,,,,,,,,,,,,,001,118,2020_Feb_13_1030,spring_faces,3.2.3,59.92728279687701,
condition files/Stage1_2.xlsx,,T2,B1,c,"['c', 'm']","['Clue', 'Monopoly']","[-0.15, 0.5]","[0.15, 0.5]",1,1,,,,,,,,,0,3,3,3,0,0,0,1,,,,,,,,,,,,,,,,,,,,,,,,,,,,,,,,,,,,,,,,,,,,,,,,,,,,,,,500.2485180429999,None,500.2485180429999,None,500.2485180429999,None,c,1,1.7858199069996772,501.7818321499999,None,501.7818321499999,None,501.7818321499999,None,503.63191547199995,None,503.63191547199995,None,503.63191547199995,None,503.63191547199995,None,,,,,,,,,,,,,,,,,,,,,,,,,,,,,,,,,,,,,,,,,,,,001,118,2020_Feb_13_1030,spring_faces,3.2.3,59.92728279687701,
condition files/Stage1_2.xlsx,,T1,B2,m,"['c', 'm']","['Clue', 'Monopoly']","[-0.15, 0.5]","[0.15, 0.5]",1,1,,,,,,,,,0,3,3,3,0,1,1,2,,,,,,,,,,,,,,,,,,,,,,,,,,,,,,,,,,,,,,,,,,,,,,,,,,,,,,,505.6151859470001,None,505.6151859470001,None,505.6151859470001,None,m,1,1.5711517280001317,507.1485118309997,None,507.1485118309997,None,507.1485118309997,None,508.798502267,None,508.798502267,None,508.798502267,None,508.798502267,None,,,,,,,,,,,,,,,,,,,,,,,,,,,,,,,,,,,,,,,,,,,,001,118,2020_Feb_13_1030,spring_faces,3.2.3,59.92728279687701,
condition files/Stage1_2.xlsx,,T3,B3,c,"['c', 'm']","['Clue', 'Monopoly']","[-0.15, 0.5]","[0.15, 0.5]",1,1,,,,,,,,,0,3,3,3,0,2,2,4,,,,,,,,,,,,,,,,,,,,,,,,,,,,,,,,,,,,,,,,,,,,,,,,,,,,,,,510.76520216300014,None,510.76520216300014,None,510.76520216300014,None,c,1,1.4132048840001517,512.2985193,None,512.2985193,None,512.2985193,None,513.7818492719998,None,513.7818492719998,None,513.7818492719998,None,513.7818492719998,None,,,,,,,,,,,,,,,,,,,,,,,,,,,,,,,,,,,,,,,,,,,,001,118,2020_Feb_13_1030,spring_faces,3.2.3,59.92728279687701,
condition files/Stage1_2.xlsx,,B4,T3,c,"['c', 'm']","['Clue', 'Monopoly']","[-0.15, 0.5]","[0.15, 0.5]",1,1,,,,,,,,,0,3,3,3,0,3,3,5,,,,,,,,,,,,,,,,,,,,,,,,,,,,,,,,,,,,,,,,,,,,,,,,,,,,,,,515.7485151149999,None,515.7485151149999,None,515.7485151149999,None,c,1,0.8458087349999914,517.2818268850001,None,517.2818268850001,None,517.2818268850001,None,518.1818392669998,None,518.1818392669998,None,518.1818392669998,None,518.1818392669998,None,,,,,,,,,,,,,,,,,,,,,,,,,,,,,,,,,,,,,,,,,,,,001,118,2020_Feb_13_1030,spring_faces,3.2.3,59.92728279687701,
condition files/Stage1_2.xlsx,,B3,T4,m,"['c', 'm']","['Clue', 'Monopoly']","[-0.15, 0.5]","[0.15, 0.5]",1,1,,,,,,,,,0,3,3,3,0,4,4,6,,,,,,,,,,,,,,,,,,,,,,,,,,,,,,,,,,,,,,,,,,,,,,,,,,,,,,,520.1651431279997,None,520.1651431279997,None,520.1651431279997,None,m,1,1.1972774480000226,521.6984600350002,None,521.6984600350002,None,521.6984600350002,None,522.9651625359998,None,522.9651625359998,None,522.9651625359998,None,522.9651625359998,None,,,,,,,,,,,,,,,,,,,,,,,,,,,,,,,,,,,,,,,,,,,,001,118,2020_Feb_13_1030,spring_faces,3.2.3,59.92728279687701,
condition files/Stage1_2.xlsx,,T4,B4,m,"['c', 'm']","['Clue', 'Monopoly']","[-0.15, 0.5]","[0.15, 0.5]",1,1,,,,,,,,,0,3,3,3,0,5,5,7,,,,,,,,,,,,,,,,,,,,,,,,,,,,,,,,,,,,,,,,,,,,,,,,,,,,,,,524.9318208939999,None,524.9318208939999,None,524.9318208939999,None,m,1,0.8946322960000543,526.465081196,None,526.465081196,None,526.465081196,None,527.415157203,None,527.415157203,None,527.415157203,None,527.415157203,None,,,,,,,,,,,,,,,,,,,,,,,,,,,,,,,,,,,,,,,,,,,,001,118,2020_Feb_13_1030,spring_faces,3.2.3,59.92728279687701,
condition files/Stage1_2.xlsx,,B2,T2,m,"['c', 'm']","['Clue', 'Monopoly']","[-0.15, 0.5]","[0.15, 0.5]",1,1,,,,,,,,,0,3,3,3,0,6,6,3,,,,,,,,,,,,,,,,,,,,,,,,,,,,,,,,,,,,,,,,,,,,,,,,,,,,,,,529.39846648,None,529.39846648,None,529.39846648,None,m,1,2.31600773900027,530.9318442379999,None,530.9318442379999,None,530.9318442379999,None,533.3151793259999,None,533.3151793259999,None,533.3151793259999,None,533.3151793259999,None,,,,,,,,,,,,,,,,,,,,,,,,,,,,,,,,,,,,,,,,,,,,001,118,2020_Feb_13_1030,spring_faces,3.2.3,59.92728279687701,
condition files/Stage1_2.xlsx,,B1,T1,c,"['c', 'm']","['Clue', 'Monopoly']","[-0.15, 0.5]","[0.15, 0.5]",1,1,,,,,,,,,0,3,3,3,0,7,7,0,,,,,,,,,,,,,,,,,,,,,,,,,,,,,,,,,,,,,,,,,,,,,,,,,,,,,,,535.2817639350001,None,535.2817639350001,None,535.2817639350001,None,c,1,1.1364814080002361,536.8151831350001,None,536.8151831350001,None,536.8151831350001,None,538.0318757,None,538.0318757,None,538.0318757,None,538.0318757,None,,,,,,,,,,,,,,,,,,,,,,,,,,,,,,,,,,,,,,,,,,,,001,118,2020_Feb_13_1030,spring_faces,3.2.3,59.92728279687701,
condition files/Stage1_1.xlsx,,T1,B1,c,"['c', 'm']","['Clue', 'Monopoly']","[-0.15, 0.5]","[0.15, 0.5]",1,1,,,,,,,,,0,4,4,4,0,0,0,0,,,,,,,,,,,,,,,,,,,,,,,,,,,,,,,,,,,,,,,,,,,,,,,,,,,,,,,540.0151632869997,None,540.0151632869997,None,540.0151632869997,None,c,1,1.2032832049999342,541.5483922979997,None,541.5483922979997,None,541.5483922979997,None,542.8318379879997,None,542.8318379879997,None,542.8318379879997,None,542.8318379879997,None,,,,,,,,,,,,,,,,,,,,,,,,,,,,,,,,,,,,,,,,,,,,001,118,2020_Feb_13_1030,spring_faces,3.2.3,59.92728279687701,
condition files/Stage1_1.xlsx,,B3,T3,c,"['c', 'm']","['Clue', 'Monopoly']","[-0.15, 0.5]","[0.15, 0.5]",1,1,,,,,,,,,0,4,4,4,0,1,1,4,,,,,,,,,,,,,,,,,,,,,,,,,,,,,,,,,,,,,,,,,,,,,,,,,,,,,,,544.7985093369998,None,544.7985093369998,None,544.7985093369998,None,c,1,1.1718254319998778,546.331833752,None,546.331833752,None,546.331833752,None,547.5651645069997,None,547.5651645069997,None,547.5651645069997,None,547.5651645069997,None,,,,,,,,,,,,,,,,,,,,,,,,,,,,,,,,,,,,,,,,,,,,001,118,2020_Feb_13_1030,spring_faces,3.2.3,59.92728279687701,
condition files/Stage1_1.xlsx,,T3,B4,c,"['c', 'm']","['Clue', 'Monopoly']","[-0.15, 0.5]","[0.15, 0.5]",1,1,,,,,,,,,0,4,4,4,0,2,2,5,,,,,,,,,,,,,,,,,,,,,,,,,,,,,,,,,,,,,,,,,,,,,,,,,,,,,,,549.5484695069999,None,549.5484695069999,None,549.5484695069999,None,c,1,0.6139292379998551,551.0818151929998,None,551.0818151929998,None,551.0818151929998,None,551.7484579709999,None,551.7484579709999,None,551.7484579709999,None,551.7484579709999,None,,,,,,,,,,,,,,,,,,,,,,,,,,,,,,,,,,,,,,,,,,,,001,118,2020_Feb_13_1030,spring_faces,3.2.3,59.92728279687701,
condition files/Stage1_1.xlsx,,B1,T2,c,"['c', 'm']","['Clue', 'Monopoly']","[-0.15, 0.5]","[0.15, 0.5]",1,1,,,,,,,,,0,4,4,4,0,3,3,1,,,,,,,,,,,,,,,,,,,,,,,,,,,,,,,,,,,,,,,,,,,,,,,,,,,,,,,553.7318470529999,None,553.7318470529999,None,553.7318470529999,None,c,1,1.022543327999756,555.2651275359999,None,555.2651275359999,None,555.2651275359999,None,556.3651401769998,None,556.3651401769998,None,556.3651401769998,None,556.3651401769998,None,,,,,,,,,,,,,,,,,,,,,,,,,,,,,,,,,,,,,,,,,,,,001,118,2020_Feb_13_1030,spring_faces,3.2.3,59.92728279687701,
condition files/Stage1_1.xlsx,,B2,T1,m,"['c', 'm']","['Clue', 'Monopoly']","[-0.15, 0.5]","[0.15, 0.5]",1,1,,,,,,,,,0,4,4,4,0,4,4,2,,,,,,,,,,,,,,,,,,,,,,,,,,,,,,,,,,,,,,,,,,,,,,,,,,,,,,,558.3318141769996,None,558.3318141769996,None,558.3318141769996,None,m,1,1.174643871000626,559.8651009839996,None,559.8651009839996,None,559.8651009839996,None,561.1151436279997,None,561.1151436279997,None,561.1151436279997,None,561.1151436279997,None,,,,,,,,,,,,,,,,,,,,,,,,,,,,,,,,,,,,,,,,,,,,001,118,2020_Feb_13_1030,spring_faces,3.2.3,59.92728279687701,
condition files/Stage1_1.xlsx,,T2,B2,m,"['c', 'm']","['Clue', 'Monopoly']","[-0.15, 0.5]","[0.15, 0.5]",1,1,,,,,,,,,0,4,4,4,0,5,5,3,,,,,,,,,,,,,,,,,,,,,,,,,,,,,,,,,,,,,,,,,,,,,,,,,,,,,,,563.0818131119995,None,563.0818131119995,None,563.0818131119995,None,m,1,0.9205050379996464,564.6151582279999,None,564.6151582279999,None,564.6151582279999,None,565.6151686619996,None,565.6151686619996,None,565.6151686619996,None,565.6151686619996,None,,,,,,,,,,,,,,,,,,,,,,,,,,,,,,,,,,,,,,,,,,,,001,118,2020_Feb_13_1030,spring_faces,3.2.3,59.92728279687701,
condition files/Stage1_1.xlsx,,B4,T4,m,"['c', 'm']","['Clue', 'Monopoly']","[-0.15, 0.5]","[0.15, 0.5]",1,1,,,,,,,,,0,4,4,4,0,6,6,7,,,,,,,,,,,,,,,,,,,,,,,,,,,,,,,,,,,,,,,,,,,,,,,,,,,,,,,567.5818502579996,None,567.5818502579996,None,567.5818502579996,None,m,1,1.2044996249996984,569.1151590669997,None,569.1151590669997,None,569.1151590669997,None,570.3985073860003,None,570.3985073860003,None,570.3985073860003,None,570.3985073860003,None,,,,,,,,,,,,,,,,,,,,,,,,,,,,,,,,,,,,,,,,,,,,001,118,2020_Feb_13_1030,spring_faces,3.2.3,59.92728279687701,
condition files/Stage1_1.xlsx,,T4,B3,m,"['c', 'm']","['Clue', 'Monopoly']","[-0.15, 0.5]","[0.15, 0.5]",1,1,,,,,,,,,0,4,4,4,0,7,7,6,,,,,,,,,,,,,,,,,,,,,,,,,,,,,,,,,,,,,,,,,,,,,,,,,,,,,,,572.3651992260002,None,572.3651992260002,None,572.3651992260002,None,m,1,0.6931663130008019,573.8985276789999,None,573.8985276789999,None,573.8985276789999,None,574.6651691139996,None,574.6651691139996,None,574.6651691139996,None,574.6651691139996,None,,,,,,,,,,,,,,,,,,,,,,,,,,,,,,,,,,,,,,,,,,,,001,118,2020_Feb_13_1030,spring_faces,3.2.3,59.92728279687701,
condition files/Stage1_2.xlsx,,B4,T3,c,"['c', 'm']","['Clue', 'Monopoly']","[-0.15, 0.5]","[0.15, 0.5]",1,1,,,,,,,,,0,5,5,5,0,0,0,5,,,,,,,,,,,,,,,,,,,,,,,,,,,,,,,,,,,,,,,,,,,,,,,,,,,,,,,576.6484632860002,None,576.6484632860002,None,576.6484632860002,None,c,1,0.8578777100001389,578.1818268050001,None,578.1818268050001,None,578.1818268050001,None,579.115171552,None,579.115171552,None,579.115171552,None,579.115171552,None,,,,,,,,,,,,,,,,,,,,,,,,,,,,,,,,,,,,,,,,,,,,001,118,2020_Feb_13_1030,spring_faces,3.2.3,59.92728279687701,
condition files/Stage1_2.xlsx,,T1,B2,m,"['c', 'm']","['Clue', 'Monopoly']","[-0.15, 0.5]","[0.15, 0.5]",1,1,,,,,,,,,0,5,5,5,0,1,1,2,,,,,,,,,,,,,,,,,,,,,,,,,,,,,,,,,,,,,,,,,,,,,,,,,,,,,,,581.0818379689999,None,581.0818379689999,None,581.0818379689999,None,m,1,1.3364949110000452,582.6151689970002,None,582.6151689970002,None,582.6151689970002,None,584.0319683219996,None,584.0319683219996,None,584.0319683219996,None,584.0319683219996,None,,,,,,,,,,,,,,,,,,,,,,,,,,,,,,,,,,,,,,,,,,,,001,118,2020_Feb_13_1030,spring_faces,3.2.3,59.92728279687701,
condition files/Stage1_2.xlsx,,B1,T1,c,"['c', 'm']","['Clue', 'Monopoly']","[-0.15, 0.5]","[0.15, 0.5]",1,1,,,,,,,,,0,5,5,5,0,2,2,0,,,,,,,,,,,,,,,,,,,,,,,,,,,,,,,,,,,,,,,,,,,,,,,,,,,,,,,585.9985100189997,None,585.9985100189997,None,585.9985100189997,None,c,1,0.6598540309996679,587.5318338669995,None,587.5318338669995,None,587.5318338669995,None,588.2651503509996,None,588.2651503509996,None,588.2651503509996,None,588.2651503509996,None,,,,,,,,,,,,,,,,,,,,,,,,,,,,,,,,,,,,,,,,,,,,001,118,2020_Feb_13_1030,spring_faces,3.2.3,59.92728279687701,
condition files/Stage1_2.xlsx,,T4,B4,m,"['c', 'm']","['Clue', 'Monopoly']","[-0.15, 0.5]","[0.15, 0.5]",1,1,,,,,,,,,0,5,5,5,0,3,3,7,,,,,,,,,,,,,,,,,,,,,,,,,,,,,,,,,,,,,,,,,,,,,,,,,,,,,,,590.2318174780003,None,590.2318174780003,None,590.2318174780003,None,m,1,1.530643451999822,591.76509558,None,591.76509558,None,591.76509558,None,593.3651656800002,None,593.3651656800002,None,593.3651656800002,None,593.3651656800002,None,,,,,,,,,,,,,,,,,,,,,,,,,,,,,,,,,,,,,,,,,,,,001,118,2020_Feb_13_1030,spring_faces,3.2.3,59.92728279687701,
condition files/Stage1_2.xlsx,,B3,T4,m,"['c', 'm']","['Clue', 'Monopoly']","[-0.15, 0.5]","[0.15, 0.5]",1,1,,,,,,,,,0,5,5,5,0,4,4,6,,,,,,,,,,,,,,,,,,,,,,,,,,,,,,,,,,,,,,,,,,,,,,,,,,,,,,,595.3318488550003,None,595.3318488550003,None,595.3318488550003,None,m,1,0.7986463810002533,596.865132598,None,596.865132598,None,596.865132598,None,597.7151388450002,None,597.7151388450002,None,597.7151388450002,None,597.7151388450002,None,,,,,,,,,,,,,,,,,,,,,,,,,,,,,,,,,,,,,,,,,,,,001,118,2020_Feb_13_1030,spring_faces,3.2.3,59.92728279687701,
condition files/Stage1_2.xlsx,,T2,B1,c,"['c', 'm']","['Clue', 'Monopoly']","[-0.15, 0.5]","[0.15, 0.5]",1,1,,,,,,,,,0,5,5,5,0,5,5,1,,,,,,,,,,,,,,,,,,,,,,,,,,,,,,,,,,,,,,,,,,,,,,,,,,,,,,,599.6984284629998,None,599.6984284629998,None,599.6984284629998,None,c,1,0.6877208959995187,601.2319465609999,None,601.2319465609999,None,601.2319465609999,None,601.9984940619997,None,601.9984940619997,None,601.9984940619997,None,601.9984940619997,None,,,,,,,,,,,,,,,,,,,,,,,,,,,,,,,,,,,,,,,,,,,,001,118,2020_Feb_13_1030,spring_faces,3.2.3,59.92728279687701,
condition files/Stage1_2.xlsx,,T3,B3,c,"['c', 'm']","['Clue', 'Monopoly']","[-0.15, 0.5]","[0.15, 0.5]",1,1,,,,,,,,,0,5,5,5,0,6,6,4,,,,,,,,,,,,,,,,,,,,,,,,,,,,,,,,,,,,,,,,,,,,,,,,,,,,,,,603.9651435469996,None,603.9651435469996,None,603.9651435469996,None,c,1,0.645197126000312,605.498484789,None,605.498484789,None,605.498484789,None,606.198478708,None,606.198478708,None,606.198478708,None,606.198478708,None,,,,,,,,,,,,,,,,,,,,,,,,,,,,,,,,,,,,,,,,,,,,001,118,2020_Feb_13_1030,spring_faces,3.2.3,59.92728279687701,
condition files/Stage1_2.xlsx,,B2,T2,m,"['c', 'm']","['Clue', 'Monopoly']","[-0.15, 0.5]","[0.15, 0.5]",1,1,,,,,,,,,0,5,5,5,0,7,7,3,,,,,,,,,,,,,,,,,,,,,,,,,,,,,,,,,,,,,,,,,,,,,,,,,,,,,,,608.1818368209997,None,608.1818368209997,None,608.1818368209997,None,m,1,0.6685055860007196,609.7151078070001,None,609.7151078070001,None,609.7151078070001,None,610.4651811719996,None,610.4651811719996,None,610.4651811719996,None,610.4651811719996,None,,,,,,,,,,,,,,,,,,,,,,,,,,,,,,,,,,,,,,,,,,,,001,118,2020_Feb_13_1030,spring_faces,3.2.3,59.92728279687701,
condition files/Stage1_1.xlsx,,B4,T4,m,"['c', 'm']","['Clue', 'Monopoly']","[-0.15, 0.5]","[0.15, 0.5]",1,1,,,,,,,,,0,6,6,6,0,0,0,7,,,,,,,,,,,,,,,,,,,,,,,,,,,,,,,,,,,,,,,,,,,,,,,,,,,,,,,612.4484519609996,None,612.4484519609996,None,612.4484519609996,None,m,1,0.9138936879999164,613.981838275,None,613.981838275,None,613.981838275,None,614.9484799350003,None,614.9484799350003,None,614.9484799350003,None,614.9484799350003,None,,,,,,,,,,,,,,,,,,,,,,,,,,,,,,,,,,,,,,,,,,,,001,118,2020_Feb_13_1030,spring_faces,3.2.3,59.92728279687701,
condition files/Stage1_1.xlsx,,T4,B3,m,"['c', 'm']","['Clue', 'Monopoly']","[-0.15, 0.5]","[0.15, 0.5]",1,1,,,,,,,,,0,6,6,6,0,1,1,6,,,,,,,,,,,,,,,,,,,,,,,,,,,,,,,,,,,,,,,,,,,,,,,,,,,,,,,616.9318195810001,None,616.9318195810001,None,616.9318195810001,None,m,1,0.8945949360004306,618.4651007550001,None,618.4651007550001,None,618.4651007550001,None,619.4151888249999,None,619.4151888249999,None,619.4151888249999,None,619.4151888249999,None,,,,,,,,,,,,,,,,,,,,,,,,,,,,,,,,,,,,,,,,,,,,001,118,2020_Feb_13_1030,spring_faces,3.2.3,59.92728279687701,
condition files/Stage1_1.xlsx,,T1,B1,c,"['c', 'm']","['Clue', 'Monopoly']","[-0.15, 0.5]","[0.15, 0.5]",1,1,,,,,,,,,0,6,6,6,0,2,2,0,,,,,,,,,,,,,,,,,,,,,,,,,,,,,,,,,,,,,,,,,,,,,,,,,,,,,,,621.3985017739997,None,621.3985017739997,None,621.3985017739997,None,c,1,1.1958066659999531,622.931833183,None,622.931833183,None,622.931833183,None,624.1984947410001,None,624.1984947410001,None,624.1984947410001,None,624.1984947410001,None,,,,,,,,,,,,,,,,,,,,,,,,,,,,,,,,,,,,,,,,,,,,001,118,2020_Feb_13_1030,spring_faces,3.2.3,59.92728279687701,
condition files/Stage1_1.xlsx,,T2,B2,m,"['c', 'm']","['Clue', 'Monopoly']","[-0.15, 0.5]","[0.15, 0.5]",1,1,,,,,,,,,0,6,6,6,0,3,3,3,,,,,,,,,,,,,,,,,,,,,,,,,,,,,,,,,,,,,,,,,,,,,,,,,,,,,,,626.1651562030002,None,626.1651562030002,None,626.1651562030002,None,m,1,1.7091829769997275,627.6985108090003,None,627.6985108090003,None,627.6985108090003,None,629.4818537740002,None,629.4818537740002,None,629.4818537740002,None,629.4818537740002,None,,,,,,,,,,,,,,,,,,,,,,,,,,,,,,,,,,,,,,,,,,,,001,118,2020_Feb_13_1030,spring_faces,3.2.3,59.92728279687701,
condition files/Stage1_1.xlsx,,B3,T3,c,"['c', 'm']","['Clue', 'Monopoly']","[-0.15, 0.5]","[0.15, 0.5]",1,1,,,,,,,,,0,6,6,6,0,4,4,4,,,,,,,,,,,,,,,,,,,,,,,,,,,,,,,,,,,,,,,,,,,,,,,,,,,,,,,631.4485154530003,None,631.4485154530003,None,631.4485154530003,None,c,1,0.985818596000172,632.9818371299998,None,632.9818371299998,None,632.9818371299998,None,634.0484399959996,None,634.0484399959996,None,634.0484399959996,None,634.0484399959996,None,,,,,,,,,,,,,,,,,,,,,,,,,,,,,,,,,,,,,,,,,,,,001,118,2020_Feb_13_1030,spring_faces,3.2.3,59.92728279687701,
condition files/Stage1_1.xlsx,,B1,T2,c,"['c', 'm']","['Clue', 'Monopoly']","[-0.15, 0.5]","[0.15, 0.5]",1,1,,,,,,,,,0,6,6,6,0,5,5,1,,,,,,,,,,,,,,,,,,,,,,,,,,,,,,,,,,,,,,,,,,,,,,,,,,,,,,,636.0151782359999,None,636.0151782359999,None,636.0151782359999,None,c,1,0.9152678519994879,637.5484865400003,None,637.5484865400003,None,637.5484865400003,None,638.5150361340002,None,638.5150361340002,None,638.5150361340002,None,638.5150361340002,None,,,,,,,,,,,,,,,,,,,,,,,,,,,,,,,,,,,,,,,,,,,,001,118,2020_Feb_13_1030,spring_faces,3.2.3,59.92728279687701,
condition files/Stage1_1.xlsx,,T3,B4,c,"['c', 'm']","['Clue', 'Monopoly']","[-0.15, 0.5]","[0.15, 0.5]",1,1,,,,,,,,,0,6,6,6,0,6,6,5,,,,,,,,,,,,,,,,,,,,,,,,,,,,,,,,,,,,,,,,,,,,,,,,,,,,,,,640.4984240909998,None,640.4984240909998,None,640.4984240909998,None,c,1,0.9277544199994736,642.0319334099995,None,642.0319334099995,None,642.0319334099995,None,643.015145112,None,643.015145112,None,643.015145112,None,643.015145112,None,,,,,,,,,,,,,,,,,,,,,,,,,,,,,,,,,,,,,,,,,,,,001,118,2020_Feb_13_1030,spring_faces,3.2.3,59.92728279687701,
condition files/Stage1_1.xlsx,,B2,T1,m,"['c', 'm']","['Clue', 'Monopoly']","[-0.15, 0.5]","[0.15, 0.5]",1,1,,,,,,,,,0,6,6,6,0,7,7,2,,,,,,,,,,,,,,,,,,,,,,,,,,,,,,,,,,,,,,,,,,,,,,,,,,,,,,,644.998563741,None,644.998563741,None,644.998563741,None,m,1,2.0438665230003608,646.5318278639998,None,646.5318278639998,None,646.5318278639998,None,648.6485037980001,None,648.6485037980001,None,648.6485037980001,None,648.6485037980001,None,,,,,,,,,,,,,,,,,,,,,,,,,,,,,,,,,,,,,,,,,,,,001,118,2020_Feb_13_1030,spring_faces,3.2.3,59.92728279687701,
condition files/Stage1_2.xlsx,,T1,B2,m,"['c', 'm']","['Clue', 'Monopoly']","[-0.15, 0.5]","[0.15, 0.5]",1,1,,,,,,,,,0,7,7,7,0,0,0,2,,,,,,,,,,,,,,,,,,,,,,,,,,,,,,,,,,,,,,,,,,,,,,,,,,,,,,,650.6318754080003,None,650.6318754080003,None,650.6318754080003,None,m,1,1.4665506640003514,652.1651722269999,None,652.1651722269999,None,652.1651722269999,None,653.6817478160001,None,653.6817478160001,None,653.6817478160001,None,653.6817478160001,None,,,,,,,,,,,,,,,,,,,,,,,,,,,,,,,,,,,,,,,,,,,,001,118,2020_Feb_13_1030,spring_faces,3.2.3,59.92728279687701,
condition files/Stage1_2.xlsx,,T2,B1,c,"['c', 'm']","['Clue', 'Monopoly']","[-0.15, 0.5]","[0.15, 0.5]",1,1,,,,,,,,,0,7,7,7,0,1,1,1,,,,,,,,,,,,,,,,,,,,,,,,,,,,,,,,,,,,,,,,,,,,,,,,,,,,,,,655.6650825340002,None,655.6650825340002,None,655.6650825340002,None,c,1,0.8332067800001823,657.1985033170004,None,657.1985033170004,None,657.1985033170004,None,658.0984022789999,None,658.0984022789999,None,658.0984022789999,None,658.0984022789999,None,,,,,,,,,,,,,,,,,,,,,,,,,,,,,,,,,,,,,,,,,,,,001,118,2020_Feb_13_1030,spring_faces,3.2.3,59.92728279687701,
condition files/Stage1_2.xlsx,,T3,B3,c,"['c', 'm']","['Clue', 'Monopoly']","[-0.15, 0.5]","[0.15, 0.5]",1,1,,,,,,,,,0,7,7,7,0,2,2,4,,,,,,,,,,,,,,,,,,,,,,,,,,,,,,,,,,,,,,,,,,,,,,,,,,,,,,,660.0650733619996,None,660.0650733619996,None,660.0650733619996,None,c,1,1.2171240799998486,661.5984739180003,None,661.5984739180003,None,661.5984739180003,None,662.881842062,None,662.881842062,None,662.881842062,None,662.881842062,None,,,,,,,,,,,,,,,,,,,,,,,,,,,,,,,,,,,,,,,,,,,,001,118,2020_Feb_13_1030,spring_faces,3.2.3,59.92728279687701,
condition files/Stage1_2.xlsx,,B2,T2,m,"['c', 'm']","['Clue', 'Monopoly']","[-0.15, 0.5]","[0.15, 0.5]",1,1,,,,,,,,,0,7,7,7,0,3,3,3,,,,,,,,,,,,,,,,,,,,,,,,,,,,,,,,,,,,,,,,,,,,,,,,,,,,,,,664.8651669609999,None,664.8651669609999,None,664.8651669609999,None,m,1,1.5051747449997492,666.3984877499997,None,666.3984877499997,None,666.3984877499997,None,667.9818147770002,None,667.9818147770002,None,667.9818147770002,None,667.9818147770002,None,,,,,,,,,,,,,,,,,,,,,,,,,,,,,,,,,,,,,,,,,,,,001,118,2020_Feb_13_1030,spring_faces,3.2.3,59.92728279687701,
condition files/Stage1_2.xlsx,,B4,T3,c,"['c', 'm']","['Clue', 'Monopoly']","[-0.15, 0.5]","[0.15, 0.5]",1,1,,,,,,,,,0,7,7,7,0,4,4,5,,,,,,,,,,,,,,,,,,,,,,,,,,,,,,,,,,,,,,,,,,,,,,,,,,,,,,,669.9484800600003,None,669.9484800600003,None,669.9484800600003,None,c,1,0.9819534379994366,671.4818107889996,None,671.4818107889996,None,671.4818107889996,None,672.5318731509997,None,672.5318731509997,None,672.5318731509997,None,672.5318731509997,None,,,,,,,,,,,,,,,,,,,,,,,,,,,,,,,,,,,,,,,,,,,,001,118,2020_Feb_13_1030,spring_faces,3.2.3,59.92728279687701,
condition files/Stage1_2.xlsx,,B3,T4,m,"['c', 'm']","['Clue', 'Monopoly']","[-0.15, 0.5]","[0.15, 0.5]",1,1,,,,,,,,,0,7,7,7,0,5,5,6,,,,,,,,,,,,,,,,,,,,,,,,,,,,,,,,,,,,,,,,,,,,,,,,,,,,,,,674.4984305790003,None,674.4984305790003,None,674.4984305790003,None,m,1,0.7517714759997034,676.0318163259999,None,676.0318163259999,None,676.0318163259999,None,676.865120126,None,676.865120126,None,676.865120126,None,676.865120126,None,,,,,,,,,,,,,,,,,,,,,,,,,,,,,,,,,,,,,,,,,,,,001,118,2020_Feb_13_1030,spring_faces,3.2.3,59.92728279687701,
condition files/Stage1_2.xlsx,,T4,B4,m,"['c', 'm']","['Clue', 'Monopoly']","[-0.15, 0.5]","[0.15, 0.5]",1,1,,,,,,,,,0,7,7,7,0,6,6,7,,,,,,,,,,,,,,,,,,,,,,,,,,,,,,,,,,,,,,,,,,,,,,,,,,,,,,,678.8318418190001,None,678.8318418190001,None,678.8318418190001,None,m,1,1.0585012980000101,680.3651917569996,None,680.3651917569996,None,680.3651917569996,None,681.481812733,None,681.481812733,None,681.481812733,None,681.481812733,None,,,,,,,,,,,,,,,,,,,,,,,,,,,,,,,,,,,,,,,,,,,,001,118,2020_Feb_13_1030,spring_faces,3.2.3,59.92728279687701,
condition files/Stage1_2.xlsx,,B1,T1,c,"['c', 'm']","['Clue', 'Monopoly']","[-0.15, 0.5]","[0.15, 0.5]",1,1,,,,,,,,,0,7,7,7,0,7,7,0,,,,,,,,,,,,,,,,,,,,,,,,,,,,,,,,,,,,,,,,,,,,,,,,,,,,,,,683.4651635680002,None,683.4651635680002,None,683.4651635680002,None,c,1,0.6652469419996123,684.9985118719997,None,684.9985118719997,None,684.9985118719997,None,685.73185354,None,685.73185354,None,685.73185354,None,685.73185354,None,,,,,,,,,,,,,,,,,,,,,,,,,,,,,,,,,,,,,,,,,,,,001,118,2020_Feb_13_1030,spring_faces,3.2.3,59.92728279687701,
condition files/Stage1_1.xlsx,,B2,T1,m,"['c', 'm']","['Clue', 'Monopoly']","[-0.15, 0.5]","[0.15, 0.5]",1,1,,,,,,,,,0,8,8,8,0,0,0,2,,,,,,,,,,,,,,,,,,,,,,,,,,,,,,,,,,,,,,,,,,,,,,,,,,,,,,,687.7151370519996,None,687.7151370519996,None,687.7151370519996,None,m,1,0.8473410240003432,689.2484270790001,None,689.2484270790001,None,689.2484270790001,None,690.1651422200002,None,690.1651422200002,None,690.1651422200002,None,690.1651422200002,None,,,,,,,,,,,,,,,,,,,,,,,,,,,,,,,,,,,,,,,,,,,,001,118,2020_Feb_13_1030,spring_faces,3.2.3,59.92728279687701,
condition files/Stage1_1.xlsx,,T4,B3,m,"['c', 'm']","['Clue', 'Monopoly']","[-0.15, 0.5]","[0.15, 0.5]",1,1,,,,,,,,,0,8,8,8,0,1,1,6,,,,,,,,,,,,,,,,,,,,,,,,,,,,,,,,,,,,,,,,,,,,,,,,,,,,,,,692.1318611679999,None,692.1318611679999,None,692.1318611679999,None,m,1,0.7344326390002607,693.6651643499999,None,693.6651643499999,None,693.6651643499999,None,694.4818126660002,None,694.4818126660002,None,694.4818126660002,None,694.4818126660002,None,,,,,,,,,,,,,,,,,,,,,,,,,,,,,,,,,,,,,,,,,,,,001,118,2020_Feb_13_1030,spring_faces,3.2.3,59.92728279687701,
condition files/Stage1_1.xlsx,,T2,B2,m,"['c', 'm']","['Clue', 'Monopoly']","[-0.15, 0.5]","[0.15, 0.5]",1,1,,,,,,,,,0,8,8,8,0,2,2,3,,,,,,,,,,,,,,,,,,,,,,,,,,,,,,,,,,,,,,,,,,,,,,,,,,,,,,,696.4484120859997,None,696.4484120859997,None,696.4484120859997,None,m,1,1.1058584140000676,697.9818076310003,None,697.9818076310003,None,697.9818076310003,None,699.1651513879997,None,699.1651513879997,None,699.1651513879997,None,699.1651513879997,None,,,,,,,,,,,,,,,,,,,,,,,,,,,,,,,,,,,,,,,,,,,,001,118,2020_Feb_13_1030,spring_faces,3.2.3,59.92728279687701,
condition files/Stage1_1.xlsx,,T3,B4,c,"['c', 'm']","['Clue', 'Monopoly']","[-0.15, 0.5]","[0.15, 0.5]",1,1,,,,,,,,,0,8,8,8,0,3,3,5,,,,,,,,,,,,,,,,,,,,,,,,,,,,,,,,,,,,,,,,,,,,,,,,,,,,,,,701.1318553989995,None,701.1318553989995,None,701.1318553989995,None,c,1,0.5826237430001129,702.6651532759997,None,702.6651532759997,None,702.6651532759997,None,703.3150927629995,None,703.3150927629995,None,703.3150927629995,None,703.3150927629995,None,,,,,,,,,,,,,,,,,,,,,,,,,,,,,,,,,,,,,,,,,,,,001,118,2020_Feb_13_1030,spring_faces,3.2.3,59.92728279687701,
condition files/Stage1_1.xlsx,,B4,T4,m,"['c', 'm']","['Clue', 'Monopoly']","[-0.15, 0.5]","[0.15, 0.5]",1,1,,,,,,,,,0,8,8,8,0,4,4,7,,,,,,,,,,,,,,,,,,,,,,,,,,,,,,,,,,,,,,,,,,,,,,,,,,,,,,,705.2818307859998,None,705.2818307859998,None,705.2818307859998,None,m,1,1.024548457000492,706.815148146,None,706.815148146,None,706.815148146,None,707.9151752870002,None,707.9151752870002,None,707.9151752870002,None,707.9151752870002,None,,,,,,,,,,,,,,,,,,,,,,,,,,,,,,,,,,,,,,,,,,,,001,118,2020_Feb_13_1030,spring_faces,3.2.3,59.92728279687701,
condition files/Stage1_1.xlsx,,T1,B1,c,"['c', 'm']","['Clue', 'Monopoly']","[-0.15, 0.5]","[0.15, 0.5]",1,1,,,,,,,,,0,8,8,8,0,5,5,0,,,,,,,,,,,,,,,,,,,,,,,,,,,,,,,,,,,,,,,,,,,,,,,,,,,,,,,709.8818480760001,None,709.8818480760001,None,709.8818480760001,None,c,1,1.2564362410003014,711.4151710309998,None,711.4151710309998,None,711.4151710309998,None,712.7484888050003,None,712.7484888050003,None,712.7484888050003,None,712.7484888050003,None,,,,,,,,,,,,,,,,,,,,,,,,,,,,,,,,,,,,,,,,,,,,001,118,2020_Feb_13_1030,spring_faces,3.2.3,59.92728279687701,
condition files/Stage1_1.xlsx,,B1,T2,c,"['c', 'm']","['Clue', 'Monopoly']","[-0.15, 0.5]","[0.15, 0.5]",1,1,,,,,,,,,0,8,8,8,0,6,6,1,,,,,,,,,,,,,,,,,,,,,,,,,,,,,,,,,,,,,,,,,,,,,,,,,,,,,,,714.7151816409996,None,714.7151816409996,None,714.7151816409996,None,c,1,0.6791392860004635,716.248484793,None,716.248484793,None,716.248484793,None,716.9818056129998,None,716.9818056129998,None,716.9818056129998,None,716.9818056129998,None,,,,,,,,,,,,,,,,,,,,,,,,,,,,,,,,,,,,,,,,,,,,001,118,2020_Feb_13_1030,spring_faces,3.2.3,59.92728279687701,
condition files/Stage1_1.xlsx,,B3,T3,c,"['c', 'm']","['Clue', 'Monopoly']","[-0.15, 0.5]","[0.15, 0.5]",1,1,,,,,,,,,0,8,8,8,0,7,7,4,,,,,,,,,,,,,,,,,,,,,,,,,,,,,,,,,,,,,,,,,,,,,,,,,,,,,,,718.9651933220002,None,718.9651933220002,None,718.9651933220002,None,c,1,1.0691795310003727,720.4984720279999,None,720.4984720279999,None,720.4984720279999,None,721.6318115140002,None,721.6318115140002,None,721.6318115140002,None,721.6318115140002,None,,,,,,,,,,,,,,,,,,,,,,,,,,,,,,,,,,,,,,,,,,,,001,118,2020_Feb_13_1030,spring_faces,3.2.3,59.92728279687701,
condition files/Stage1_2.xlsx,,T2,B1,c,"['c', 'm']","['Clue', 'Monopoly']","[-0.15, 0.5]","[0.15, 0.5]",1,1,,,,,,,,,0,9,9,9,0,0,0,1,,,,,,,,,,,,,,,,,,,,,,,,,,,,,,,,,,,,,,,,,,,,,,,,,,,,,,,723.6318232869999,None,723.6318232869999,None,723.6318232869999,None,c,1,1.7465281700006017,725.1651460900002,None,725.1651460900002,None,725.1651460900002,None,726.9649109350003,None,726.9649109350003,None,726.9649109350003,None,726.9649109350003,None,,,,,,,,,,,,,,,,,,,,,,,,,,,,,,,,,,,,,,,,,,,,001,118,2020_Feb_13_1030,spring_faces,3.2.3,59.92728279687701,
condition files/Stage1_2.xlsx,,T4,B4,m,"['c', 'm']","['Clue', 'Monopoly']","[-0.15, 0.5]","[0.15, 0.5]",1,1,,,,,,,,,0,9,9,9,0,1,1,7,,,,,,,,,,,,,,,,,,,,,,,,,,,,,,,,,,,,,,,,,,,,,,,,,,,,,,,728.9485117149998,None,728.9485117149998,None,728.9485117149998,None,m,1,0.8938680729997941,730.481839909,None,730.481839909,None,730.481839909,None,731.448505456,None,731.448505456,None,731.448505456,None,731.448505456,None,,,,,,,,,,,,,,,,,,,,,,,,,,,,,,,,,,,,,,,,,,,,001,118,2020_Feb_13_1030,spring_faces,3.2.3,59.92728279687701,
condition files/Stage1_2.xlsx,,B1,T1,c,"['c', 'm']","['Clue', 'Monopoly']","[-0.15, 0.5]","[0.15, 0.5]",1,1,,,,,,,,,0,9,9,9,0,2,2,0,,,,,,,,,,,,,,,,,,,,,,,,,,,,,,,,,,,,,,,,,,,,,,,,,,,,,,,733.4151709380003,None,733.4151709380003,None,733.4151709380003,None,c,1,0.6511038940006983,734.9484900489997,None,734.9484900489997,None,734.9484900489997,None,735.6817825329999,None,735.6817825329999,None,735.6817825329999,None,735.6817825329999,None,,,,,,,,,,,,,,,,,,,,,,,,,,,,,,,,,,,,,,,,,,,,001,118,2020_Feb_13_1030,spring_faces,3.2.3,59.92728279687701,
condition files/Stage1_2.xlsx,,T1,B2,m,"['c', 'm']","['Clue', 'Monopoly']","[-0.15, 0.5]","[0.15, 0.5]",1,1,,,,,,,,,0,9,9,9,0,3,3,2,,,,,,,,,,,,,,,,,,,,,,,,,,,,,,,,,,,,,,,,,,,,,,,,,,,,,,,737.6484571379997,None,737.6484571379997,None,737.6484571379997,None,m,1,2.241848652999579,739.1818338550001,None,739.1818338550001,None,739.1818338550001,None,741.4985036799999,None,741.4985036799999,None,741.4985036799999,None,741.4985036799999,None,,,,,,,,,,,,,,,,,,,,,,,,,,,,,,,,,,,,,,,,,,,,001,118,2020_Feb_13_1030,spring_faces,3.2.3,59.92728279687701,
condition files/Stage1_2.xlsx,,B2,T2,m,"['c', 'm']","['Clue', 'Monopoly']","[-0.15, 0.5]","[0.15, 0.5]",1,1,,,,,,,,,0,9,9,9,0,4,4,3,,,,,,,,,,,,,,,,,,,,,,,,,,,,,,,,,,,,,,,,,,,,,,,,,,,,,,,743.4651818639995,None,743.4651818639995,None,743.4651818639995,None,m,1,1.833207270999992,744.9984990699995,None,744.9984990699995,None,744.9984990699995,None,746.881804011,None,746.881804011,None,746.881804011,None,746.881804011,None,,,,,,,,,,,,,,,,,,,,,,,,,,,,,,,,,,,,,,,,,,,,001,118,2020_Feb_13_1030,spring_faces,3.2.3,59.92728279687701,
condition files/Stage1_2.xlsx,,T3,B3,c,"['c', 'm']","['Clue', 'Monopoly']","[-0.15, 0.5]","[0.15, 0.5]",1,1,,,,,,,,,0,9,9,9,0,5,5,4,,,,,,,,,,,,,,,,,,,,,,,,,,,,,,,,,,,,,,,,,,,,,,,,,,,,,,,748.8650694449998,None,748.8650694449998,None,748.8650694449998,None,c,1,0.5771973320006509,750.398497835,None,750.398497835,None,750.398497835,None,751.0485154930002,None,751.0485154930002,None,751.0485154930002,None,751.0485154930002,None,,,,,,,,,,,,,,,,,,,,,,,,,,,,,,,,,,,,,,,,,,,,001,118,2020_Feb_13_1030,spring_faces,3.2.3,59.92728279687701,
condition files/Stage1_2.xlsx,,B4,T3,c,"['c', 'm']","['Clue', 'Monopoly']","[-0.15, 0.5]","[0.15, 0.5]",1,1,,,,,,,,,0,9,9,9,0,6,6,5,,,,,,,,,,,,,,,,,,,,,,,,,,,,,,,,,,,,,,,,,,,,,,,,,,,,,,,753.0151711830003,None,753.0151711830003,None,753.0151711830003,None,c,1,0.8112073279999095,754.5484935839995,None,754.5484935839995,None,754.5484935839995,None,755.4151754859995,None,755.4151754859995,None,755.4151754859995,None,755.4151754859995,None,,,,,,,,,,,,,,,,,,,,,,,,,,,,,,,,,,,,,,,,,,,,001,118,2020_Feb_13_1030,spring_faces,3.2.3,59.92728279687701,
condition files/Stage1_2.xlsx,,B3,T4,m,"['c', 'm']","['Clue', 'Monopoly']","[-0.15, 0.5]","[0.15, 0.5]",1,1,,,,,,,,,0,9,9,9,0,7,7,6,,,,,,,,,,,,,,,,,,,,,,,,,,,,,,,,,,,,,,,,,,,,,,,,,,,,,,,757.3985088580002,None,757.3985088580002,None,757.3985088580002,None,m,1,0.8278347729992674,758.9318628190003,None,758.9318628190003,None,758.9318628190003,None,759.831849061,None,759.831849061,None,759.831849061,None,759.831849061,None,,,,,,,,,,,,,,,,,,,,,,,,,,,,,,,,,,,,,,,,,,,,001,118,2020_Feb_13_1030,spring_faces,3.2.3,59.92728279687701,
condition files/Stage1_1.xlsx,,B2,T1,m,"['c', 'm']","['Clue', 'Monopoly']","[-0.15, 0.5]","[0.15, 0.5]",1,1,,,,,,,,,0,10,10,10,0,0,0,2,,,,,,,,,,,,,,,,,,,,,,,,,,,,,,,,,,,,,,,,,,,,,,,,,,,,,,,761.8151968789998,None,761.8151968789998,None,761.8151968789998,None,c,0,1.2271949320002022,763.3485101739998,None,763.3485101739998,None,763.3485101739998,None,764.648481663,None,764.648481663,None,764.648481663,None,764.648481663,None,,,,,,,,,,,,,,,,,,,,,,,,,,,,,,,,,,,,,,,,,,,,001,118,2020_Feb_13_1030,spring_faces,3.2.3,59.92728279687701,
condition files/Stage1_1.xlsx,,T2,B2,m,"['c', 'm']","['Clue', 'Monopoly']","[-0.15, 0.5]","[0.15, 0.5]",1,1,,,,,,,,,0,10,10,10,0,1,1,3,,,,,,,,,,,,,,,,,,,,,,,,,,,,,,,,,,,,,,,,,,,,,,,,,,,,,,,766.6151571660002,None,766.6151571660002,None,766.6151571660002,None,m,1,1.1632425330008118,768.1484849970002,None,768.1484849970002,None,768.1484849970002,None,769.3818381399997,None,769.3818381399997,None,769.3818381399997,None,769.3818381399997,None,,,,,,,,,,,,,,,,,,,,,,,,,,,,,,,,,,,,,,,,,,,,001,118,2020_Feb_13_1030,spring_faces,3.2.3,59.92728279687701,
condition files/Stage1_1.xlsx,,T4,B3,m,"['c', 'm']","['Clue', 'Monopoly']","[-0.15, 0.5]","[0.15, 0.5]",1,1,,,,,,,,,0,10,10,10,0,2,2,6,,,,,,,,,,,,,,,,,,,,,,,,,,,,,,,,,,,,,,,,,,,,,,,,,,,,,,,771.3485300479997,None,771.3485300479997,None,771.3485300479997,None,m,1,1.037798907999786,772.8818625889999,None,772.8818625889999,None,772.8818625889999,None,773.9818319579999,None,773.9818319579999,None,773.9818319579999,None,773.9818319579999,None,,,,,,,,,,,,,,,,,,,,,,,,,,,,,,,,,,,,,,,,,,,,001,118,2020_Feb_13_1030,spring_faces,3.2.3,59.92728279687701,
condition files/Stage1_1.xlsx,,B3,T3,c,"['c', 'm']","['Clue', 'Monopoly']","[-0.15, 0.5]","[0.15, 0.5]",1,1,,,,,,,,,0,10,10,10,0,3,3,4,,,,,,,,,,,,,,,,,,,,,,,,,,,,,,,,,,,,,,,,,,,,,,,,,,,,,,,775.9651785260003,None,775.9651785260003,None,775.9651785260003,None,c,1,1.0932243610004662,777.4984811269996,None,777.4984811269996,None,777.4984811269996,None,778.6651818359996,None,778.6651818359996,None,778.6651818359996,None,778.6651818359996,None,,,,,,,,,,,,,,,,,,,,,,,,,,,,,,,,,,,,,,,,,,,,001,118,2020_Feb_13_1030,spring_faces,3.2.3,59.92728279687701,
condition files/Stage1_1.xlsx,,B1,T2,c,"['c', 'm']","['Clue', 'Monopoly']","[-0.15, 0.5]","[0.15, 0.5]",1,1,,,,,,,,,0,10,10,10,0,4,4,1,,,,,,,,,,,,,,,,,,,,,,,,,,,,,,,,,,,,,,,,,,,,,,,,,,,,,,,780.6318005719995,None,780.6318005719995,None,780.6318005719995,None,c,1,1.8827392819994202,782.1650403439999,None,782.1650403439999,None,782.1650403439999,None,784.0984414189998,None,784.0984414189998,None,784.0984414189998,None,784.0984414189998,None,,,,,,,,,,,,,,,,,,,,,,,,,,,,,,,,,,,,,,,,,,,,001,118,2020_Feb_13_1030,spring_faces,3.2.3,59.92728279687701,
condition files/Stage1_1.xlsx,,T1,B1,c,"['c', 'm']","['Clue', 'Monopoly']","[-0.15, 0.5]","[0.15, 0.5]",1,1,,,,,,,,,0,10,10,10,0,5,5,0,,,,,,,,,,,,,,,,,,,,,,,,,,,,,,,,,,,,,,,,,,,,,,,,,,,,,,,786.0817323900001,None,786.0817323900001,None,786.0817323900001,None,c,1,1.0885112659998413,787.6151362310002,None,787.6151362310002,None,787.6151362310002,None,788.7647212009997,None,788.7647212009997,None,788.7647212009997,None,788.7647212009997,None,,,,,,,,,,,,,,,,,,,,,,,,,,,,,,,,,,,,,,,,,,,,001,118,2020_Feb_13_1030,spring_faces,3.2.3,59.92728279687701,
condition files/Stage1_1.xlsx,,T3,B4,c,"['c', 'm']","['Clue', 'Monopoly']","[-0.15, 0.5]","[0.15, 0.5]",1,1,,,,,,,,,0,10,10,10,0,6,6,5,,,,,,,,,,,,,,,,,,,,,,,,,,,,,,,,,,,,,,,,,,,,,,,,,,,,,,,790.7485316579996,None,790.7485316579996,None,790.7485316579996,None,c,1,0.8858483840003828,792.2818073899998,None,792.2818073899998,None,792.2818073899998,None,793.23177975,None,793.23177975,None,793.23177975,None,793.23177975,None,,,,,,,,,,,,,,,,,,,,,,,,,,,,,,,,,,,,,,,,,,,,001,118,2020_Feb_13_1030,spring_faces,3.2.3,59.92728279687701,
condition files/Stage1_1.xlsx,,B4,T4,m,"['c', 'm']","['Clue', 'Monopoly']","[-0.15, 0.5]","[0.15, 0.5]",1,1,,,,,,,,,0,10,10,10,0,7,7,7,,,,,,,,,,,,,,,,,,,,,,,,,,,,,,,,,,,,,,,,,,,,,,,,,,,,,,,795.2151513769995,None,795.2151513769995,None,795.2151513769995,None,m,1,1.6671819940002024,796.7484149809998,None,796.7484149809998,None,796.7484149809998,None,798.4984997089996,None,798.4984997089996,None,798.4984997089996,None,798.4984997089996,None,,,,,,,,,,,,,,,,,,,,,,,,,,,,,,,,,,,,,,,,,,,,001,118,2020_Feb_13_1030,spring_faces,3.2.3,59.92728279687701,
condition files/Stage1_2.xlsx,,T2,B1,c,"['c', 'm']","['Clue', 'Monopoly']","[-0.15, 0.5]","[0.15, 0.5]",1,1,,,,,,,,,0,11,11,11,0,0,0,1,,,,,,,,,,,,,,,,,,,,,,,,,,,,,,,,,,,,,,,,,,,,,,,,,,,,,,,800.4818147079995,None,800.4818147079995,None,800.4818147079995,None,c,1,1.8405539330005922,802.0151435959997,None,802.0151435959997,None,802.0151435959997,None,803.931823635,None,803.931823635,None,803.931823635,None,803.931823635,None,,,,,,,,,,,,,,,,,,,,,,,,,,,,,,,,,,,,,,,,,,,,001,118,2020_Feb_13_1030,spring_faces,3.2.3,59.92728279687701,
condition files/Stage1_2.xlsx,,T4,B4,m,"['c', 'm']","['Clue', 'Monopoly']","[-0.15, 0.5]","[0.15, 0.5]",1,1,,,,,,,,,0,11,11,11,0,1,1,7,,,,,,,,,,,,,,,,,,,,,,,,,,,,,,,,,,,,,,,,,,,,,,,,,,,,,,,805.8984853940001,None,805.8984853940001,None,805.8984853940001,None,m,1,2.647935768000025,807.4318252149997,None,807.4318252149997,None,807.4318252149997,None,810.1484848959999,None,810.1484848959999,None,810.1484848959999,None,810.1484848959999,None,,,,,,,,,,,,,,,,,,,,,,,,,,,,,,,,,,,,,,,,,,,,001,118,2020_Feb_13_1030,spring_faces,3.2.3,59.92728279687701,
condition files/Stage1_2.xlsx,,B3,T4,m,"['c', 'm']","['Clue', 'Monopoly']","[-0.15, 0.5]","[0.15, 0.5]",1,1,,,,,,,,,0,11,11,11,0,2,2,6,,,,,,,,,,,,,,,,,,,,,,,,,,,,,,,,,,,,,,,,,,,,,,,,,,,,,,,812.1150586619997,None,812.1150586619997,None,812.1150586619997,None,m,1,1.2792017589999887,813.6484413970002,None,813.6484413970002,None,813.6484413970002,None,814.998476148,None,814.998476148,None,814.998476148,None,814.998476148,None,,,,,,,,,,,,,,,,,,,,,,,,,,,,,,,,,,,,,,,,,,,,001,118,2020_Feb_13_1030,spring_faces,3.2.3,59.92728279687701,
condition files/Stage1_2.xlsx,,B1,T1,c,"['c', 'm']","['Clue', 'Monopoly']","[-0.15, 0.5]","[0.15, 0.5]",1,1,,,,,,,,,0,11,11,11,0,3,3,0,,,,,,,,,,,,,,,,,,,,,,,,,,,,,,,,,,,,,,,,,,,,,,,,,,,,,,,816.9651568899999,None,816.9651568899999,None,816.9651568899999,None,c,1,1.3573785819999102,818.4983424860002,None,818.4983424860002,None,818.4983424860002,None,819.9318413430001,None,819.9318413430001,None,819.9318413430001,None,819.9318413430001,None,,,,,,,,,,,,,,,,,,,,,,,,,,,,,,,,,,,,,,,,,,,,001,118,2020_Feb_13_1030,spring_faces,3.2.3,59.92728279687701,
condition files/Stage1_2.xlsx,,B2,T2,m,"['c', 'm']","['Clue', 'Monopoly']","[-0.15, 0.5]","[0.15, 0.5]",1,1,,,,,,,,,0,11,11,11,0,4,4,3,,,,,,,,,,,,,,,,,,,,,,,,,,,,,,,,,,,,,,,,,,,,,,,,,,,,,,,821.8983556040002,None,821.8983556040002,None,821.8983556040002,None,m,1,1.4798324529992897,823.4318849989995,None,823.4318849989995,None,823.4318849989995,None,824.9818387770001,None,824.9818387770001,None,824.9818387770001,None,824.9818387770001,None,,,,,,,,,,,,,,,,,,,,,,,,,,,,,,,,,,,,,,,,,,,,001,118,2020_Feb_13_1030,spring_faces,3.2.3,59.92728279687701,
condition files/Stage1_2.xlsx,,T3,B3,c,"['c', 'm']","['Clue', 'Monopoly']","[-0.15, 0.5]","[0.15, 0.5]",1,1,,,,,,,,,0,11,11,11,0,5,5,4,,,,,,,,,,,,,,,,,,,,,,,,,,,,,,,,,,,,,,,,,,,,,,,,,,,,,,,826.9485456709999,None,826.9485456709999,None,826.9485456709999,None,c,1,0.7338250410002729,828.4817955139997,None,828.4817955139997,None,828.4817955139997,None,829.2985093429998,None,829.2985093429998,None,829.2985093429998,None,829.2985093429998,None,,,,,,,,,,,,,,,,,,,,,,,,,,,,,,,,,,,,,,,,,,,,001,118,2020_Feb_13_1030,spring_faces,3.2.3,59.92728279687701,
condition files/Stage1_2.xlsx,,T1,B2,m,"['c', 'm']","['Clue', 'Monopoly']","[-0.15, 0.5]","[0.15, 0.5]",1,1,,,,,,,,,0,11,11,11,0,6,6,2,,,,,,,,,,,,,,,,,,,,,,,,,,,,,,,,,,,,,,,,,,,,,,,,,,,,,,,831.2650733359997,None,831.2650733359997,None,831.2650733359997,None,m,1,1.9531551380005112,832.7985105289999,None,832.7985105289999,None,832.7985105289999,None,834.8318204649995,None,834.8318204649995,None,834.8318204649995,None,834.8318204649995,None,,,,,,,,,,,,,,,,,,,,,,,,,,,,,,,,,,,,,,,,,,,,001,118,2020_Feb_13_1030,spring_faces,3.2.3,59.92728279687701,
condition files/Stage1_2.xlsx,,B4,T3,c,"['c', 'm']","['Clue', 'Monopoly']","[-0.15, 0.5]","[0.15, 0.5]",1,1,,,,,,,,,0,11,11,11,0,7,7,5,,,,,,,,,,,,,,,,,,,,,,,,,,,,,,,,,,,,,,,,,,,,,,,,,,,,,,,836.7985154389999,None,836.7985154389999,None,836.7985154389999,None,c,1,1.1238727770005426,838.3318179600001,None,838.3318179600001,None,838.3318179600001,None,839.5318438659997,None,839.5318438659997,None,839.5318438659997,None,839.5318438659997,None,,,,,,,,,,,,,,,,,,,,,,,,,,,,,,,,,,,,,,,,,,,,001,118,2020_Feb_13_1030,spring_faces,3.2.3,59.92728279687701,
,,,,,,,,,,,,,,,,,,,,,,,,,,,,,,,,,,,,,,,,,,,,,,,,,,,,,,,,,,,,,,,,,,,,,,,,,,,,,,,,,,,,,,,,,,,,,,,,,,,,,,,,,,,,,,,,841.4985067870002,None,space,4.157962991000204,846.4817495260004,None,,,,,,,,,,,,,,,,,,,,,,,,,,,,,,001,118,2020_Feb_13_1030,spring_faces,3.2.3,59.92728279687701,
condition files/Stage2_1.xlsx,,B6,T6,r,"['s', 'r']","['Stratego', 'Risk']","[-0.15, 0.5]","[0.15, 0.5]",1,1,,,,,,,,,,,,,,,,,0,0,0,0,0,0,0,1,,,,,,,,,,,,,,,,,,,,,,,,,,,,,,,,,,,,,,,,,,,,,,,850.6985014700003,None,850.6985014700003,None,850.6985014700003,None,s,0,1.1926606350007205,852.2150526369996,None,852.2150526369996,None,852.2150526369996,None,853.4818444120001,None,853.4818444120001,None,853.4818444120001,None,853.4818444120001,None,,,,,,,,,,,,,,,846.4817495260004,None,,,,,,,,,,,,,,,,,,,,,,,,,,,,001,118,2020_Feb_13_1030,spring_faces,3.2.3,59.92728279687701,
condition files/Stage2_1.xlsx,,B4,T4,r,"['s', 'r']","['Stratego', 'Risk']","[-0.15, 0.5]","[0.15, 0.5]",1,1,,,,,,,,,,,,,,,,,0,0,0,0,0,1,1,5,,,,,,,,,,,,,,,,,,,,,,,,,,,,,,,,,,,,,,,,,,,,,,,855.4485301550003,None,855.4485301550003,None,855.4485301550003,None,s,0,1.4819088809999812,856.9818496309999,None,856.9818496309999,None,856.9818496309999,None,858.5150982200003,None,858.5150982200003,None,858.5150982200003,None,858.5150982200003,None,,,,,,,,,,,,,,,,,,,,,,,,,,,,,,,,,,,,,,,,,,,,001,118,2020_Feb_13_1030,spring_faces,3.2.3,59.92728279687701,
condition files/Stage2_1.xlsx,,T3,B3,s,"['s', 'r']","['Stratego', 'Risk']","[-0.15, 0.5]","[0.15, 0.5]",1,1,,,,,,,,,,,,,,,,,0,0,0,0,0,2,2,4,,,,,,,,,,,,,,,,,,,,,,,,,,,,,,,,,,,,,,,,,,,,,,,860.4984152099996,None,860.4984152099996,None,860.4984152099996,None,s,1,0.6878493730000628,862.0318191039996,None,862.0318191039996,None,862.0318191039996,None,862.7985295190001,None,862.7985295190001,None,862.7985295190001,None,862.7985295190001,None,,,,,,,,,,,,,,,,,,,,,,,,,,,,,,,,,,,,,,,,,,,,001,118,2020_Feb_13_1030,spring_faces,3.2.3,59.92728279687701,
condition files/Stage2_1.xlsx,,T1,B1,s,"['s', 'r']","['Stratego', 'Risk']","[-0.15, 0.5]","[0.15, 0.5]",1,1,,,,,,,,,,,,,,,,,0,0,0,0,0,3,3,2,,,,,,,,,,,,,,,,,,,,,,,,,,,,,,,,,,,,,,,,,,,,,,,864.7650041059997,None,864.7650041059997,None,864.7650041059997,None,s,1,1.4451863360000061,866.2985116259997,None,866.2985116259997,None,866.2985116259997,None,867.7984703530001,None,867.7984703530001,None,867.7984703530001,None,867.7984703530001,None,,,,,,,,,,,,,,,,,,,,,,,,,,,,,,,,,,,,,,,,,,,,001,118,2020_Feb_13_1030,spring_faces,3.2.3,59.92728279687701,
condition files/Stage2_1.xlsx,,T5,B5,s,"['s', 'r']","['Stratego', 'Risk']","[-0.15, 0.5]","[0.15, 0.5]",1,1,,,,,,,,,,,,,,,,,0,0,0,0,0,4,4,0,,,,,,,,,,,,,,,,,,,,,,,,,,,,,,,,,,,,,,,,,,,,,,,869.7818125679996,None,869.7818125679996,None,869.7818125679996,None,s,1,1.0878362210005434,871.631820394,None,871.631820394,None,871.631820394,None,872.7985159549999,None,872.7985159549999,None,872.7985159549999,None,872.7985159549999,None,,,,,,,,,,,,,,,,,,,,,,,,,,,,,,,,,,,,,,,,,,,,001,118,2020_Feb_13_1030,spring_faces,3.2.3,59.92728279687701,
condition files/Stage2_1.xlsx,,B2,T2,r,"['s', 'r']","['Stratego', 'Risk']","[-0.15, 0.5]","[0.15, 0.5]",1,1,,,,,,,,,,,,,,,,,0,0,0,0,0,5,5,3,,,,,,,,,,,,,,,,,,,,,,,,,,,,,,,,,,,,,,,,,,,,,,,874.7652247380001,None,874.7652247380001,None,874.7652247380001,None,r,1,1.3972389720001956,876.2985248619998,None,876.2985248619998,None,876.2985248619998,None,877.7651428259996,None,877.7651428259996,None,877.7651428259996,None,877.7651428259996,None,,,,,,,,,,,,,,,,,,,,,,,,,,,,,,,,,,,,,,,,,,,,001,118,2020_Feb_13_1030,spring_faces,3.2.3,59.92728279687701,
condition files/Stage2_2.xlsx,,B3,T3,s,"['s', 'r']","['Stratego', 'Risk']","[-0.15, 0.5]","[0.15, 0.5]",1,1,,,,,,,,,,,,,,,,,0,1,1,1,0,0,0,4,,,,,,,,,,,,,,,,,,,,,,,,,,,,,,,,,,,,,,,,,,,,,,,879.7484847269998,None,879.7484847269998,None,879.7484847269998,None,r,0,1.1499595659997794,881.2817806319999,None,881.2817806319999,None,881.2817806319999,None,882.4983722449997,None,882.4983722449997,None,882.4983722449997,None,882.4983722449997,None,,,,,,,,,,,,,,,,,,,,,,,,,,,,,,,,,,,,,,,,,,,,001,118,2020_Feb_13_1030,spring_faces,3.2.3,59.92728279687701,
condition files/Stage2_2.xlsx,,T4,B4,r,"['s', 'r']","['Stratego', 'Risk']","[-0.15, 0.5]","[0.15, 0.5]",1,1,,,,,,,,,,,,,,,,,0,1,1,1,0,1,1,5,,,,,,,,,,,,,,,,,,,,,,,,,,,,,,,,,,,,,,,,,,,,,,,884.4651018149998,None,884.4651018149998,None,884.4651018149998,None,r,1,1.2011153990006278,885.9984867820003,None,885.9984867820003,None,885.9984867820003,None,887.2818226580002,None,887.2818226580002,None,887.2818226580002,None,887.2818226580002,None,,,,,,,,,,,,,,,,,,,,,,,,,,,,,,,,,,,,,,,,,,,,001,118,2020_Feb_13_1030,spring_faces,3.2.3,59.92728279687701,
condition files/Stage2_2.xlsx,,T2,B2,r,"['s', 'r']","['Stratego', 'Risk']","[-0.15, 0.5]","[0.15, 0.5]",1,1,,,,,,,,,,,,,,,,,0,1,1,1,0,2,2,3,,,,,,,,,,,,,,,,,,,,,,,,,,,,,,,,,,,,,,,,,,,,,,,889.2484168929996,None,889.2484168929996,None,889.2484168929996,None,r,1,1.2017809819999457,890.781818247,None,890.781818247,None,890.781818247,None,892.0484410609997,None,892.0484410609997,None,892.0484410609997,None,892.0484410609997,None,,,,,,,,,,,,,,,,,,,,,,,,,,,,,,,,,,,,,,,,,,,,001,118,2020_Feb_13_1030,spring_faces,3.2.3,59.92728279687701,
condition files/Stage2_2.xlsx,,B5,T5,s,"['s', 'r']","['Stratego', 'Risk']","[-0.15, 0.5]","[0.15, 0.5]",1,1,,,,,,,,,,,,,,,,,0,1,1,1,0,3,3,0,,,,,,,,,,,,,,,,,,,,,,,,,,,,,,,,,,,,,,,,,,,,,,,894.0318174889999,None,894.0318174889999,None,894.0318174889999,None,s,1,1.0905047879996346,895.5651817509997,None,895.5651817509997,None,895.5651817509997,None,896.7318171010002,None,896.7318171010002,None,896.7318171010002,None,896.7318171010002,None,,,,,,,,,,,,,,,,,,,,,,,,,,,,,,,,,,,,,,,,,,,,001,118,2020_Feb_13_1030,spring_faces,3.2.3,59.92728279687701,
condition files/Stage2_2.xlsx,,B1,T1,s,"['s', 'r']","['Stratego', 'Risk']","[-0.15, 0.5]","[0.15, 0.5]",1,1,,,,,,,,,,,,,,,,,0,1,1,1,0,4,4,2,,,,,,,,,,,,,,,,,,,,,,,,,,,,,,,,,,,,,,,,,,,,,,,898.6985082929996,None,898.6985082929996,None,898.6985082929996,None,s,1,1.863918478999949,900.2318235459998,None,900.2318235459998,None,900.2318235459998,None,902.165172946,None,902.165172946,None,902.165172946,None,902.165172946,None,,,,,,,,,,,,,,,,,,,,,,,,,,,,,,,,,,,,,,,,,,,,001,118,2020_Feb_13_1030,spring_faces,3.2.3,59.92728279687701,
condition files/Stage2_2.xlsx,,T6,B6,r,"['s', 'r']","['Stratego', 'Risk']","[-0.15, 0.5]","[0.15, 0.5]",1,1,,,,,,,,,,,,,,,,,0,1,1,1,0,5,5,1,,,,,,,,,,,,,,,,,,,,,,,,,,,,,,,,,,,,,,,,,,,,,,,904.1318381450001,None,904.1318381450001,None,904.1318381450001,None,r,1,1.7105902800003605,905.6651269129998,None,905.6651269129998,None,905.6651269129998,None,907.4485536639995,None,907.4485536639995,None,907.4485536639995,None,907.4485536639995,None,,,,,,,,,,,,,,,,,,,,,,,,,,,,,,,,,,,,,,,,,,,,001,118,2020_Feb_13_1030,spring_faces,3.2.3,59.92728279687701,
condition files/Stage2_1.xlsx,,B2,T2,r,"['s', 'r']","['Stratego', 'Risk']","[-0.15, 0.5]","[0.15, 0.5]",1,1,,,,,,,,,,,,,,,,,0,2,2,2,0,0,0,3,,,,,,,,,,,,,,,,,,,,,,,,,,,,,,,,,,,,,,,,,,,,,,,909.4318396380004,None,909.4318396380004,None,909.4318396380004,None,r,1,2.602488595000068,910.9651732760003,None,910.9651732760003,None,910.9651732760003,None,913.6484694000001,None,913.6484694000001,None,913.6484694000001,None,913.6484694000001,None,,,,,,,,,,,,,,,,,,,,,,,,,,,,,,,,,,,,,,,,,,,,001,118,2020_Feb_13_1030,spring_faces,3.2.3,59.92728279687701,
condition files/Stage2_1.xlsx,,T5,B5,s,"['s', 'r']","['Stratego', 'Risk']","[-0.15, 0.5]","[0.15, 0.5]",1,1,,,,,,,,,,,,,,,,,0,2,2,2,0,1,1,0,,,,,,,,,,,,,,,,,,,,,,,,,,,,,,,,,,,,,,,,,,,,,,,915.6152178679995,None,915.6152178679995,None,915.6152178679995,None,s,1,1.2831646849999743,917.1485056020001,None,917.1485056020001,None,917.1485056020001,None,918.4985111819997,None,918.4985111819997,None,918.4985111819997,None,918.4985111819997,None,,,,,,,,,,,,,,,,,,,,,,,,,,,,,,,,,,,,,,,,,,,,001,118,2020_Feb_13_1030,spring_faces,3.2.3,59.92728279687701,
condition files/Stage2_1.xlsx,,B4,T4,r,"['s', 'r']","['Stratego', 'Risk']","[-0.15, 0.5]","[0.15, 0.5]",1,1,,,,,,,,,,,,,,,,,0,2,2,2,0,2,2,5,,,,,,,,,,,,,,,,,,,,,,,,,,,,,,,,,,,,,,,,,,,,,,,920.4651264209997,None,920.4651264209997,None,920.4651264209997,None,r,1,1.2010802980003064,921.9985298149995,None,921.9985298149995,None,921.9985298149995,None,923.2817894029995,None,923.2817894029995,None,923.2817894029995,None,923.2817894029995,None,,,,,,,,,,,,,,,,,,,,,,,,,,,,,,,,,,,,,,,,,,,,001,118,2020_Feb_13_1030,spring_faces,3.2.3,59.92728279687701,
condition files/Stage2_1.xlsx,,T1,B1,s,"['s', 'r']","['Stratego', 'Risk']","[-0.15, 0.5]","[0.15, 0.5]",1,1,,,,,,,,,,,,,,,,,0,2,2,2,0,3,3,2,,,,,,,,,,,,,,,,,,,,,,,,,,,,,,,,,,,,,,,,,,,,,,,925.2484610660003,None,925.2484610660003,None,925.2484610660003,None,r,0,1.2819363489998068,926.7818413940004,None,926.7818413940004,None,926.7818413940004,None,928.13185978,None,928.13185978,None,928.13185978,None,928.13185978,None,,,,,,,,,,,,,,,,,,,,,,,,,,,,,,,,,,,,,,,,,,,,001,118,2020_Feb_13_1030,spring_faces,3.2.3,59.92728279687701,
condition files/Stage2_1.xlsx,,B6,T6,r,"['s', 'r']","['Stratego', 'Risk']","[-0.15, 0.5]","[0.15, 0.5]",1,1,,,,,,,,,,,,,,,,,0,2,2,2,0,4,4,1,,,,,,,,,,,,,,,,,,,,,,,,,,,,,,,,,,,,,,,,,,,,,,,930.0984321209999,None,930.0984321209999,None,930.0984321209999,None,r,1,1.5836510670005737,931.6319606670004,None,931.6319606670004,None,931.6319606670004,None,933.2983347930003,None,933.2983347930003,None,933.2983347930003,None,933.2983347930003,None,,,,,,,,,,,,,,,,,,,,,,,,,,,,,,,,,,,,,,,,,,,,001,118,2020_Feb_13_1030,spring_faces,3.2.3,59.92728279687701,
condition files/Stage2_1.xlsx,,T3,B3,s,"['s', 'r']","['Stratego', 'Risk']","[-0.15, 0.5]","[0.15, 0.5]",1,1,,,,,,,,,,,,,,,,,0,2,2,2,0,5,5,4,,,,,,,,,,,,,,,,,,,,,,,,,,,,,,,,,,,,,,,,,,,,,,,935.2650568480003,None,935.2650568480003,None,935.2650568480003,None,r,0,1.0570748390000517,936.7984795880002,None,936.7984795880002,None,936.7984795880002,None,937.9318606409997,None,937.9318606409997,None,937.9318606409997,None,937.9318606409997,None,,,,,,,,,,,,,,,,,,,,,,,,,,,,,,,,,,,,,,,,,,,,001,118,2020_Feb_13_1030,spring_faces,3.2.3,59.92728279687701,
condition files/Stage2_2.xlsx,,B1,T1,s,"['s', 'r']","['Stratego', 'Risk']","[-0.15, 0.5]","[0.15, 0.5]",1,1,,,,,,,,,,,,,,,,,0,3,3,3,0,0,0,2,,,,,,,,,,,,,,,,,,,,,,,,,,,,,,,,,,,,,,,,,,,,,,,939.9151713009996,None,939.9151713009996,None,939.9151713009996,None,r,0,1.1591956689999279,941.4485133919998,None,941.4485133919998,None,941.4485133919998,None,942.6647192800001,None,942.6647192800001,None,942.6647192800001,None,942.6647192800001,None,,,,,,,,,,,,,,,,,,,,,,,,,,,,,,,,,,,,,,,,,,,,001,118,2020_Feb_13_1030,spring_faces,3.2.3,59.92728279687701,
condition files/Stage2_2.xlsx,,B3,T3,s,"['s', 'r']","['Stratego', 'Risk']","[-0.15, 0.5]","[0.15, 0.5]",1,1,,,,,,,,,,,,,,,,,0,3,3,3,0,1,1,4,,,,,,,,,,,,,,,,,,,,,,,,,,,,,,,,,,,,,,,,,,,,,,,944.6485392140003,None,944.6485392140003,None,944.6485392140003,None,s,1,0.9218086909995691,946.1818584160001,None,946.1818584160001,None,946.1818584160001,None,947.1650050460003,None,947.1650050460003,None,947.1650050460003,None,947.1650050460003,None,,,,,,,,,,,,,,,,,,,,,,,,,,,,,,,,,,,,,,,,,,,,001,118,2020_Feb_13_1030,spring_faces,3.2.3,59.92728279687701,
condition files/Stage2_2.xlsx,,T6,B6,r,"['s', 'r']","['Stratego', 'Risk']","[-0.15, 0.5]","[0.15, 0.5]",1,1,,,,,,,,,,,,,,,,,0,3,3,3,0,2,2,1,,,,,,,,,,,,,,,,,,,,,,,,,,,,,,,,,,,,,,,,,,,,,,,949.1485016919996,None,949.1485016919996,None,949.1485016919996,None,r,1,1.2058281770005124,950.6818404819996,None,950.6818404819996,None,950.6818404819996,None,951.9651940759995,None,951.9651940759995,None,951.9651940759995,None,951.9651940759995,None,,,,,,,,,,,,,,,,,,,,,,,,,,,,,,,,,,,,,,,,,,,,001,118,2020_Feb_13_1030,spring_faces,3.2.3,59.92728279687701,
condition files/Stage2_2.xlsx,,T2,B2,r,"['s', 'r']","['Stratego', 'Risk']","[-0.15, 0.5]","[0.15, 0.5]",1,1,,,,,,,,,,,,,,,,,0,3,3,3,0,3,3,3,,,,,,,,,,,,,,,,,,,,,,,,,,,,,,,,,,,,,,,,,,,,,,,953.9318684700002,None,953.9318684700002,None,953.9318684700002,None,s,0,1.0945017180001742,955.4651820399995,None,955.4651820399995,None,955.4651820399995,None,956.6318236739999,None,956.6318236739999,None,956.6318236739999,None,956.6318236739999,None,,,,,,,,,,,,,,,,,,,,,,,,,,,,,,,,,,,,,,,,,,,,001,118,2020_Feb_13_1030,spring_faces,3.2.3,59.92728279687701,
condition files/Stage2_2.xlsx,,T4,B4,r,"['s', 'r']","['Stratego', 'Risk']","[-0.15, 0.5]","[0.15, 0.5]",1,1,,,,,,,,,,,,,,,,,0,3,3,3,0,4,4,5,,,,,,,,,,,,,,,,,,,,,,,,,,,,,,,,,,,,,,,,,,,,,,,958.6151523279996,None,958.6151523279996,None,958.6151523279996,None,r,1,1.0031973100003597,960.1484875899996,None,960.1484875899996,None,960.1484875899996,None,961.2151941430002,None,961.2151941430002,None,961.2151941430002,None,961.2151941430002,None,,,,,,,,,,,,,,,,,,,,,,,,,,,,,,,,,,,,,,,,,,,,001,118,2020_Feb_13_1030,spring_faces,3.2.3,59.92728279687701,
condition files/Stage2_2.xlsx,,B5,T5,s,"['s', 'r']","['Stratego', 'Risk']","[-0.15, 0.5]","[0.15, 0.5]",1,1,,,,,,,,,,,,,,,,,0,3,3,3,0,5,5,0,,,,,,,,,,,,,,,,,,,,,,,,,,,,,,,,,,,,,,,,,,,,,,,963.1985202619999,None,963.1985202619999,None,963.1985202619999,None,s,1,0.8359439670002757,964.7317211070003,None,964.7317211070003,None,964.7317211070003,None,965.6484757870003,None,965.6484757870003,None,965.6484757870003,None,965.6484757870003,None,,,,,,,,,,,,,,,,,,,,,,,,,,,,,,,,,,,,,,,,,,,,001,118,2020_Feb_13_1030,spring_faces,3.2.3,59.92728279687701,
condition files/Stage2_1.xlsx,,T5,B5,s,"['s', 'r']","['Stratego', 'Risk']","[-0.15, 0.5]","[0.15, 0.5]",1,1,,,,,,,,,,,,,,,,,0,4,4,4,0,0,0,0,,,,,,,,,,,,,,,,,,,,,,,,,,,,,,,,,,,,,,,,,,,,,,,967.6318657189995,None,967.6318657189995,None,967.6318657189995,None,s,1,0.7225078599994958,969.1651766389996,None,969.1651766389996,None,969.1651766389996,None,969.9651704540001,None,969.9651704540001,None,969.9651704540001,None,969.9651704540001,None,,,,,,,,,,,,,,,,,,,,,,,,,,,,,,,,,,,,,,,,,,,,001,118,2020_Feb_13_1030,spring_faces,3.2.3,59.92728279687701,
condition files/Stage2_1.xlsx,,B2,T2,r,"['s', 'r']","['Stratego', 'Risk']","[-0.15, 0.5]","[0.15, 0.5]",1,1,,,,,,,,,,,,,,,,,0,4,4,4,0,1,1,3,,,,,,,,,,,,,,,,,,,,,,,,,,,,,,,,,,,,,,,,,,,,,,,971.9318136769998,None,971.9318136769998,None,971.9318136769998,None,r,1,0.966544204999991,973.4651545139996,None,973.4651545139996,None,973.4651545139996,None,974.4985112369995,None,974.4985112369995,None,974.4985112369995,None,974.4985112369995,None,,,,,,,,,,,,,,,,,,,,,,,,,,,,,,,,,,,,,,,,,,,,001,118,2020_Feb_13_1030,spring_faces,3.2.3,59.92728279687701,
condition files/Stage2_1.xlsx,,B4,T4,r,"['s', 'r']","['Stratego', 'Risk']","[-0.15, 0.5]","[0.15, 0.5]",1,1,,,,,,,,,,,,,,,,,0,4,4,4,0,2,2,5,,,,,,,,,,,,,,,,,,,,,,,,,,,,,,,,,,,,,,,,,,,,,,,976.4651102939997,None,976.4651102939997,None,976.4651102939997,None,r,1,0.6251797200002329,977.9985183099998,None,977.9985183099998,None,977.9985183099998,None,978.6818251510003,None,978.6818251510003,None,978.6818251510003,None,978.6818251510003,None,,,,,,,,,,,,,,,,,,,,,,,,,,,,,,,,,,,,,,,,,,,,001,118,2020_Feb_13_1030,spring_faces,3.2.3,59.92728279687701,
condition files/Stage2_1.xlsx,,B6,T6,r,"['s', 'r']","['Stratego', 'Risk']","[-0.15, 0.5]","[0.15, 0.5]",1,1,,,,,,,,,,,,,,,,,0,4,4,4,0,3,3,1,,,,,,,,,,,,,,,,,,,,,,,,,,,,,,,,,,,,,,,,,,,,,,,980.665206568,None,980.665206568,None,980.665206568,None,r,1,0.761188076999133,982.1985135960003,None,982.1985135960003,None,982.1985135960003,None,983.0151808680002,None,983.0151808680002,None,983.0151808680002,None,983.0151808680002,None,,,,,,,,,,,,,,,,,,,,,,,,,,,,,,,,,,,,,,,,,,,,001,118,2020_Feb_13_1030,spring_faces,3.2.3,59.92728279687701,
