condsFile,subStage,cue1,cue2,correct,responseKeys,responseNames,cue1Position,cue2Position,cue1Opacity,cue2Opacity,stageLoop0.thisRepN,stageLoop0.thisTrialN,stageLoop0.thisN,stageLoop0.thisIndex,blockLoop0.thisRepN,blockLoop0.thisTrialN,blockLoop0.thisN,blockLoop0.thisIndex,stage1Loop.thisRepN,stage1Loop.thisTrialN,stage1Loop.thisN,stage1Loop.thisIndex,blockLoop1.thisRepN,blockLoop1.thisTrialN,blockLoop1.thisN,blockLoop1.thisIndex,stage2Loop.thisRepN,stage2Loop.thisTrialN,stage2Loop.thisN,stage2Loop.thisIndex,blockLoop2.thisRepN,blockLoop2.thisTrialN,blockLoop2.thisN,blockLoop2.thisIndex,testLoop.thisRepN,testLoop.thisTrialN,testLoop.thisN,testLoop.thisIndex,blockLoopTest.thisRepN,blockLoopTest.thisTrialN,blockLoopTest.thisN,blockLoopTest.thisIndex,cuePics,id_instr_text.started,id_instr_text.stopped,space_to_continue_2.started,space_to_continue_2.stopped,end_instructions_resp_3.keys,end_instructions_resp_3.rt,end_instructions_resp_3.started,end_instructions_resp_3.stopped,id_input_instr.started,id_input_instr.stopped,id_input_rect.started,id_input_rect.stopped,id_input_resp.keys,id_input_resp.rt,id_input_resp.started,id_input_resp.stopped,sonaID,id_input_text.started,id_input_text.stopped,final_text.started,final_text.stopped,instructions.started,instructions.stopped,end_instructions_resp.keys,end_instructions_resp.rt,end_instructions_resp.started,end_instructions_resp.stopped,space_to_continue.started,space_to_continue.stopped,instructions_stage0.started,instructions_stage0.stopped,end_instructions_resp_stage0.keys,end_instructions_resp_stage0.rt,end_instructions_resp_stage0.started,end_instructions_resp_stage0.stopped,space_to_continue_stage0.started,space_to_continue_stage0.stopped,text.started,text.stopped,resp_text1.started,resp_text1.stopped,resp_text2.started,resp_text2.stopped,trial_resp.keys,trial_resp.corr,trial_resp.rt,trial_resp.started,trial_resp.stopped,cue1Image.started,cue1Image.stopped,cue2Image.started,cue2Image.stopped,cue1Image_fb.started,cue1Image_fb.stopped,cue2Image_fb.started,cue2Image_fb.stopped,fb_text_answer.started,fb_text_answer.stopped,feedback_image.started,feedback_image.stopped,instructions_stage1.started,instructions_stage1.stopped,end_instructions_resp_stage1.keys,end_instructions_resp_stage1.rt,end_instructions_resp_stage1.started,end_instructions_resp_stage1.stopped,space_to_continue_stage1.started,space_to_continue_stage1.stopped,instructions_2.started,instructions_2.stopped,end_instructions_resp_2.keys,end_instructions_resp_2.rt,end_instructions_resp_2.started,end_instructions_resp_2.stopped,press_space_to_continue_stage2.started,press_space_to_continue_stage2.stopped,instructions_testStage1.started,instructions_testStage1.stopped,end_instructions_resp_test1.keys,end_instructions_resp_test1.rt,end_instructions_resp_test1.started,end_instructions_resp_test1.stopped,press_space_to_continue_test1.started,press_space_to_continue_test1.stopped,cue1Image_testChoice.started,cue1Image_testChoice.stopped,cue2Image_testChoice.started,cue2Image_testChoice.stopped,test_resp.keys,test_resp.corr,test_resp.rt,test_resp.started,test_resp.stopped,cue1Image_testConf.started,cue1Image_testConf.stopped,cue2Image_testConf.started,cue2Image_testConf.stopped,conf_reminder.started,conf_reminder.stopped,conf_rating.response,conf_rating.rt,conf_rating.started,conf_rating.stopped,session,participant,date,expName,psychopyVersion,frameRate,
,,,,,,,,,,,,,,,,,,,,,,,,,,,,,,,,,,,,,,,,,,,"{'none': 'pictures/20M_AN_C.png', 'alpha': 'pictures/SHINEd_pear.png', 'beta': 'pictures/SHINEd_apple.png', 'theta': 'pictures/SHINEd_pepper.png', 'phi': 'pictures/SHINEd_melon.png', 'T1': 'pictures/32M_AN_C.png', 'T2': 'pictures/25M_AN_C.png', 'T3': 'pictures/26M_AN_C.png', 'T4': 'pictures/23M_AN_C.png', 'T5': 'pictures/36M_AN_C.png', 'T6': 'pictures/31M_AN_C.png', 'B1': 'pictures/20M_NE_C.png', 'B2': 'pictures/37M_NE_C.png', 'B3': 'pictures/34M_NE_C.png', 'B4': 'pictures/22M_NE_C.png', 'B5': 'pictures/33M_NE_C.png', 'B6': 'pictures/38M_NE_C.png'}",1559.7124773240012,None,1564.712736505,None,space,1.9898625900004845,1564.712736505,None,,,,,,,,,,,,,,,,,,,,,,,,,,,,,,,,,,,,,,,,,,,,,,,,,,,,,,,,,,,,,,,,,,,,,,,,,,,,,,,,,,,,,,,,,,,,,,,,001,121,2020_Feb_11_1417,spring_faces,3.1.5,60.0039176556649,
,,,,,,,,,,,,,,,,,,,,,,,,,,,,,,,,,,,,,,,,,,,,,,,,,,,,1567.0958470630012,None,1567.0958470630012,None,"['0', '8', '2', '2', 's', 'u', 's', 'k', 'y']","[12.13464569000098, 14.054714428999432, 17.33463480899991, 17.542763340999954, 23.17473469700053, 24.422728805000588, 28.50270503899992, 29.126632003999475, 29.654723473999184]",1567.0958470630012,None,,,,,,,,,,,,,,,,,,,,,,,,,,,,,,,,,,,,,,,,,,,,,,,,,,,,,,,,,,,,,,,,,,,,,,,,,,,,,,,,,,,,,,,,001,121,2020_Feb_11_1417,spring_faces,3.1.5,60.0039176556649,
,,,,,,,,,,,,,,,,,,,,,,,,,,,,,,,,,,,,,,,,,,,,,,,,,,,,,,,,,,,,0822susky,1567.0958470630012,None,1567.0958470630012,None,1601.8300620049995,None,space,4.689113411001017,1606.829443994,None,,,,,,,,,,,,,,,,,,,,,,,,,,,,,,,,,,,,,,,,,,,,,,,,,,,,,,,,,,,,,,,,,,,,,,,,,,,,,001,121,2020_Feb_11_1417,spring_faces,3.1.5,60.0039176556649,
,,,,,,,,,,,,,,,,,,,,,,,,,,,,,,,,,,,,,,,,,,,,,,,,,,,,,,,,,,,,,,,,,,,,,,,1606.829443994,None,1611.5626359279995,None,space,9.243900154000585,1616.562716208,None,,,,,,,,,,,,,,,,,,,,,,,,,,,,,,,,,,,,,,,,,,,,,,,,,,,,,,,,,,,,,,,,,,,,,001,121,2020_Feb_11_1417,spring_faces,3.1.5,60.0039176556649,
condition files/Stage0a.xlsx,0a,alpha,none,h,"['h', 'g']","['Chess', 'Go']","[0, 0.5]","[0, 0]",1,0,0,0,0,0,0,0,0,0,,,,,,,,,,,,,,,,,,,,,,,,,,,,,,,,,,,,,,,,,,,,,,,,,,,,,,,,,,,,,1616.562716208,None,1625.8629767040002,None,1625.8629767040002,None,1625.8629767040002,None,h,1,1.9922335330011265,1627.446368885001,None,1627.446368885001,None,1627.446368885001,None,1629.512771527001,None,1629.512771527001,None,1629.512771527001,None,1629.512771527001,None,,,,,,,,,,,,,,,,,,,,,,,,,,,,,,,,,,,,,,,,,,,,001,121,2020_Feb_11_1417,spring_faces,3.1.5,60.0039176556649,
condition files/Stage0a.xlsx,0a,beta,none,g,"['h', 'g']","['Chess', 'Go']","[0, 0.5]","[0, 0]",1,0,0,0,0,0,0,1,1,1,,,,,,,,,,,,,,,,,,,,,,,,,,,,,,,,,,,,,,,,,,,,,,,,,,,,,,,,,,,,,,,1631.4626539990004,None,1631.4626539990004,None,1631.4626539990004,None,g,1,1.2729640510005993,1633.0136176199994,None,1633.0136176199994,None,1633.0136176199994,None,1634.3460307530004,None,1634.3460307530004,None,1634.3460307530004,None,1634.3460307530004,None,,,,,,,,,,,,,,,,,,,,,,,,,,,,,,,,,,,,,,,,,,,,001,121,2020_Feb_11_1417,spring_faces,3.1.5,60.0039176556649,
condition files/Stage0a.xlsx,0a,alpha,none,h,"['h', 'g']","['Chess', 'Go']","[0, 0.5]","[0, 0]",1,0,0,1,1,1,0,0,0,0,,,,,,,,,,,,,,,,,,,,,,,,,,,,,,,,,,,,,,,,,,,,,,,,,,,,,,,,,,,,,,,1636.329637072,None,1636.329637072,None,1636.329637072,None,h,1,0.8078888380005083,1637.862730488001,None,1637.862730488001,None,1637.862730488001,None,1638.72897525,None,1638.72897525,None,1638.72897525,None,1638.72897525,None,,,,,,,,,,,,,,,,,,,,,,,,,,,,,,,,,,,,,,,,,,,,001,121,2020_Feb_11_1417,spring_faces,3.1.5,60.0039176556649,
condition files/Stage0a.xlsx,0a,beta,none,g,"['h', 'g']","['Chess', 'Go']","[0, 0.5]","[0, 0]",1,0,0,1,1,1,0,1,1,1,,,,,,,,,,,,,,,,,,,,,,,,,,,,,,,,,,,,,,,,,,,,,,,,,,,,,,,,,,,,,,,1640.697305658001,None,1640.697305658001,None,1640.697305658001,None,g,1,0.6011795329995948,1642.2293470010009,None,1642.2293470010009,None,1642.2293470010009,None,1642.8960166810011,None,1642.8960166810011,None,1642.8960166810011,None,1642.8960166810011,None,,,,,,,,,,,,,,,,,,,,,,,,,,,,,,,,,,,,,,,,,,,,001,121,2020_Feb_11_1417,spring_faces,3.1.5,60.0039176556649,
condition files/Stage0a.xlsx,0a,alpha,none,h,"['h', 'g']","['Chess', 'Go']","[0, 0.5]","[0, 0]",1,0,0,2,2,2,0,0,0,0,,,,,,,,,,,,,,,,,,,,,,,,,,,,,,,,,,,,,,,,,,,,,,,,,,,,,,,,,,,,,,,1644.8795024160008,None,1644.8795024160008,None,1644.8795024160008,None,h,1,0.6257631940006831,1646.4128475760008,None,1646.4128475760008,None,1646.4128475760008,None,1647.0963258320007,None,1647.0963258320007,None,1647.0963258320007,None,1647.0963258320007,None,,,,,,,,,,,,,,,,,,,,,,,,,,,,,,,,,,,,,,,,,,,,001,121,2020_Feb_11_1417,spring_faces,3.1.5,60.0039176556649,
condition files/Stage0a.xlsx,0a,beta,none,g,"['h', 'g']","['Chess', 'Go']","[0, 0.5]","[0, 0]",1,0,0,2,2,2,0,1,1,1,,,,,,,,,,,,,,,,,,,,,,,,,,,,,,,,,,,,,,,,,,,,,,,,,,,,,,,,,,,,,,,1649.0626569800006,None,1649.0626569800006,None,1649.0626569800006,None,g,1,0.8254357919995527,1650.597053546,None,1650.597053546,None,1650.597053546,None,1651.4790362610001,None,1651.4790362610001,None,1651.4790362610001,None,1651.4790362610001,None,,,,,,,,,,,,,,,,,,,,,,,,,,,,,,,,,,,,,,,,,,,,001,121,2020_Feb_11_1417,spring_faces,3.1.5,60.0039176556649,
condition files/Stage0a.xlsx,0a,beta,none,g,"['h', 'g']","['Chess', 'Go']","[0, 0.5]","[0, 0]",1,0,0,3,3,3,0,0,0,1,,,,,,,,,,,,,,,,,,,,,,,,,,,,,,,,,,,,,,,,,,,,,,,,,,,,,,,,,,,,,,,1653.463372049,None,1653.463372049,None,1653.463372049,None,g,1,0.8259124340002018,1654.9965675460007,None,1654.9965675460007,None,1654.9965675460007,None,1655.8795480160006,None,1655.8795480160006,None,1655.8795480160006,None,1655.8795480160006,None,,,,,,,,,,,,,,,,,,,,,,,,,,,,,,,,,,,,,,,,,,,,001,121,2020_Feb_11_1417,spring_faces,3.1.5,60.0039176556649,
condition files/Stage0a.xlsx,0a,alpha,none,h,"['h', 'g']","['Chess', 'Go']","[0, 0.5]","[0, 0]",1,0,0,3,3,3,0,1,1,0,,,,,,,,,,,,,,,,,,,,,,,,,,,,,,,,,,,,,,,,,,,,,,,,,,,,,,,,,,,,,,,1657.845330948001,None,1657.845330948001,None,1657.845330948001,None,h,1,0.8749177549998421,1659.3796828079994,None,1659.3796828079994,None,1659.3796828079994,None,1660.3147614240006,None,1660.3147614240006,None,1660.3147614240006,None,1660.3147614240006,None,,,,,,,,,,,,,,,,,,,,,,,,,,,,,,,,,,,,,,,,,,,,001,121,2020_Feb_11_1417,spring_faces,3.1.5,60.0039176556649,
condition files/Stage0a.xlsx,0a,alpha,none,h,"['h', 'g']","['Chess', 'Go']","[0, 0.5]","[0, 0]",1,0,0,4,4,4,0,0,0,0,,,,,,,,,,,,,,,,,,,,,,,,,,,,,,,,,,,,,,,,,,,,,,,,,,,,,,,,,,,,,,,1662.2956859170008,None,1662.2956859170008,None,1662.2956859170008,None,h,1,1.9767432099997677,1663.829867847,None,1663.829867847,None,1663.829867847,None,1665.8631941540007,None,1665.8631941540007,None,1665.8631941540007,None,1665.8631941540007,None,,,,,,,,,,,,,,,,,,,,,,,,,,,,,,,,,,,,,,,,,,,,001,121,2020_Feb_11_1417,spring_faces,3.1.5,60.0039176556649,
condition files/Stage0a.xlsx,0a,beta,none,g,"['h', 'g']","['Chess', 'Go']","[0, 0.5]","[0, 0]",1,0,0,4,4,4,0,1,1,1,,,,,,,,,,,,,,,,,,,,,,,,,,,,,,,,,,,,,,,,,,,,,,,,,,,,,,,,,,,,,,,1667.8293375900012,None,1667.8293375900012,None,1667.8293375900012,None,g,1,0.6681951780010422,1669.362300443001,None,1669.362300443001,None,1669.362300443001,None,1670.096060797001,None,1670.096060797001,None,1670.096060797001,None,1670.096060797001,None,,,,,,,,,,,,,,,,,,,,,,,,,,,,,,,,,,,,,,,,,,,,001,121,2020_Feb_11_1417,spring_faces,3.1.5,60.0039176556649,
condition files/Stage0a.xlsx,0a,alpha,none,h,"['h', 'g']","['Chess', 'Go']","[0, 0.5]","[0, 0]",1,0,0,5,5,5,0,0,0,0,,,,,,,,,,,,,,,,,,,,,,,,,,,,,,,,,,,,,,,,,,,,,,,,,,,,,,,,,,,,,,,1672.0792305079995,None,1672.0792305079995,None,1672.0792305079995,None,h,1,0.5137560790008138,1673.612827496001,None,1673.612827496001,None,1673.612827496001,None,1674.1792712099996,None,1674.1792712099996,None,1674.1792712099996,None,1674.1792712099996,None,,,,,,,,,,,,,,,,,,,,,,,,,,,,,,,,,,,,,,,,,,,,001,121,2020_Feb_11_1417,spring_faces,3.1.5,60.0039176556649,
condition files/Stage0a.xlsx,0a,beta,none,g,"['h', 'g']","['Chess', 'Go']","[0, 0.5]","[0, 0]",1,0,0,5,5,5,0,1,1,1,,,,,,,,,,,,,,,,,,,,,,,,,,,,,,,,,,,,,,,,,,,,,,,,,,,,,,,,,,,,,,,1676.1459788619995,None,1676.1459788619995,None,1676.1459788619995,None,g,1,0.7353796299994428,1677.679150416001,None,1677.679150416001,None,1677.679150416001,None,1678.4793794199995,None,1678.4793794199995,None,1678.4793794199995,None,1678.4793794199995,None,,,,,,,,,,,,,,,,,,,,,,,,,,,,,,,,,,,,,,,,,,,,001,121,2020_Feb_11_1417,spring_faces,3.1.5,60.0039176556649,
condition files/Stage0b_1.xlsx,0b,alpha,none,h,"['h', 'g']","['Chess', 'Go']","[-0.15, 0.5]","[0.15, 0.5]",1,0,0,6,6,6,0,0,0,0,,,,,,,,,,,,,,,,,,,,,,,,,,,,,,,,,,,,,,,,,,,,,,,,,,,,,,,,,,,,,,,1680.4623460660005,None,1680.4623460660005,None,1680.4623460660005,None,h,1,0.8179725779991713,1681.9965186690006,None,1681.9965186690006,None,1681.9965186690006,None,1682.8792216149996,None,1682.8792216149996,None,1682.8792216149996,None,1682.8792216149996,None,,,,,,,,,,,,,,,,,,,,,,,,,,,,,,,,,,,,,,,,,,,,001,121,2020_Feb_11_1417,spring_faces,3.1.5,60.0039176556649,
condition files/Stage0b_1.xlsx,0b,none,beta,g,"['h', 'g']","['Chess', 'Go']","[-0.15, 0.5]","[0.15, 0.5]",0,1,0,6,6,6,0,1,1,1,,,,,,,,,,,,,,,,,,,,,,,,,,,,,,,,,,,,,,,,,,,,,,,,,,,,,,,,,,,,,,,1684.8460618540012,None,1684.8460618540012,None,1684.8460618540012,None,g,1,1.3304879259994777,1686.396058503,None,1686.396058503,None,1686.396058503,None,1687.7843230340004,None,1687.7843230340004,None,1687.7843230340004,None,1687.7843230340004,None,,,,,,,,,,,,,,,,,,,,,,,,,,,,,,,,,,,,,,,,,,,,001,121,2020_Feb_11_1417,spring_faces,3.1.5,60.0039176556649,
condition files/Stage0b_2.xlsx,0b,beta,none,g,"['h', 'g']","['Chess', 'Go']","[-0.15, 0.5]","[0.15, 0.5]",1,0,0,7,7,7,0,0,0,1,,,,,,,,,,,,,,,,,,,,,,,,,,,,,,,,,,,,,,,,,,,,,,,,,,,,,,,,,,,,,,,1689.762413665001,None,1689.762413665001,None,1689.762413665001,None,g,1,1.1978607080000074,1691.3126801460003,None,1691.3126801460003,None,1691.3126801460003,None,1692.5632303080001,None,1692.5632303080001,None,1692.5632303080001,None,1692.5632303080001,None,,,,,,,,,,,,,,,,,,,,,,,,,,,,,,,,,,,,,,,,,,,,001,121,2020_Feb_11_1417,spring_faces,3.1.5,60.0039176556649,
condition files/Stage0b_2.xlsx,0b,none,alpha,h,"['h', 'g']","['Chess', 'Go']","[-0.15, 0.5]","[0.15, 0.5]",0,1,0,7,7,7,0,1,1,0,,,,,,,,,,,,,,,,,,,,,,,,,,,,,,,,,,,,,,,,,,,,,,,,,,,,,,,,,,,,,,,1694.529377697001,None,1694.529377697001,None,1694.529377697001,None,h,1,0.7339880649997212,1696.0645580149994,None,1696.0645580149994,None,1696.0645580149994,None,1696.8627010630007,None,1696.8627010630007,None,1696.8627010630007,None,1696.8627010630007,None,,,,,,,,,,,,,,,,,,,,,,,,,,,,,,,,,,,,,,,,,,,,001,121,2020_Feb_11_1417,spring_faces,3.1.5,60.0039176556649,
condition files/Stage0b_1.xlsx,0b,alpha,none,h,"['h', 'g']","['Chess', 'Go']","[-0.15, 0.5]","[0.15, 0.5]",1,0,0,8,8,8,0,0,0,0,,,,,,,,,,,,,,,,,,,,,,,,,,,,,,,,,,,,,,,,,,,,,,,,,,,,,,,,,,,,,,,1698.8462383959995,None,1698.8462383959995,None,1698.8462383959995,None,h,1,0.8779547009999078,1700.3845664889996,None,1700.3845664889996,None,1700.3845664889996,None,1701.3122375300009,None,1701.3122375300009,None,1701.3122375300009,None,1701.3122375300009,None,,,,,,,,,,,,,,,,,,,,,,,,,,,,,,,,,,,,,,,,,,,,001,121,2020_Feb_11_1417,spring_faces,3.1.5,60.0039176556649,
condition files/Stage0b_1.xlsx,0b,none,beta,g,"['h', 'g']","['Chess', 'Go']","[-0.15, 0.5]","[0.15, 0.5]",0,1,0,8,8,8,0,1,1,1,,,,,,,,,,,,,,,,,,,,,,,,,,,,,,,,,,,,,,,,,,,,,,,,,,,,,,,,,,,,,,,1703.279405020001,None,1703.279405020001,None,1703.279405020001,None,g,1,0.8653356529994198,1704.8132171830002,None,1704.8132171830002,None,1704.8132171830002,None,1705.730589525001,None,1705.730589525001,None,1705.730589525001,None,1705.730589525001,None,,,,,,,,,,,,,,,,,,,,,,,,,,,,,,,,,,,,,,,,,,,,001,121,2020_Feb_11_1417,spring_faces,3.1.5,60.0039176556649,
condition files/Stage0b_2.xlsx,0b,beta,none,g,"['h', 'g']","['Chess', 'Go']","[-0.15, 0.5]","[0.15, 0.5]",1,0,0,9,9,9,0,0,0,1,,,,,,,,,,,,,,,,,,,,,,,,,,,,,,,,,,,,,,,,,,,,,,,,,,,,,,,,,,,,,,,1707.7130161670011,None,1707.7130161670011,None,1707.7130161670011,None,g,1,1.117915532000552,1709.248648582001,None,1709.248648582001,None,1709.248648582001,None,1710.4293965190009,None,1710.4293965190009,None,1710.4293965190009,None,1710.4293965190009,None,,,,,,,,,,,,,,,,,,,,,,,,,,,,,,,,,,,,,,,,,,,,001,121,2020_Feb_11_1417,spring_faces,3.1.5,60.0039176556649,
condition files/Stage0b_2.xlsx,0b,none,alpha,h,"['h', 'g']","['Chess', 'Go']","[-0.15, 0.5]","[0.15, 0.5]",0,1,0,9,9,9,0,1,1,0,,,,,,,,,,,,,,,,,,,,,,,,,,,,,,,,,,,,,,,,,,,,,,,,,,,,,,,,,,,,,,,1712.3959733869997,None,1712.3959733869997,None,1712.3959733869997,None,h,1,0.8693240539996623,1713.9292235040011,None,1713.9292235040011,None,1713.9292235040011,None,1714.8627024920006,None,1714.8627024920006,None,1714.8627024920006,None,1714.8627024920006,None,,,,,,,,,,,,,,,,,,,,,,,,,,,,,,,,,,,,,,,,,,,,001,121,2020_Feb_11_1417,spring_faces,3.1.5,60.0039176556649,
condition files/Stage0b_1.xlsx,0b,alpha,none,h,"['h', 'g']","['Chess', 'Go']","[-0.15, 0.5]","[0.15, 0.5]",1,0,0,10,10,10,0,0,0,0,,,,,,,,,,,,,,,,,,,,,,,,,,,,,,,,,,,,,,,,,,,,,,,,,,,,,,,,,,,,,,,1716.8462535800008,None,1716.8462535800008,None,1716.8462535800008,None,h,1,0.9448123130005115,1718.3818408099996,None,1718.3818408099996,None,1718.3818408099996,None,1719.3795474840008,None,1719.3795474840008,None,1719.3795474840008,None,1719.3795474840008,None,,,,,,,,,,,,,,,,,,,,,,,,,,,,,,,,,,,,,,,,,,,,001,121,2020_Feb_11_1417,spring_faces,3.1.5,60.0039176556649,
condition files/Stage0b_1.xlsx,0b,none,beta,g,"['h', 'g']","['Chess', 'Go']","[-0.15, 0.5]","[0.15, 0.5]",0,1,0,10,10,10,0,1,1,1,,,,,,,,,,,,,,,,,,,,,,,,,,,,,,,,,,,,,,,,,,,,,,,,,,,,,,,,,,,,,,,1721.3462660660007,None,1721.3462660660007,None,1721.3462660660007,None,g,1,0.7506670959992334,1722.8798589369999,None,1722.8798589369999,None,1722.8798589369999,None,1723.6960823480003,None,1723.6960823480003,None,1723.6960823480003,None,1723.6960823480003,None,,,,,,,,,,,,,,,,,,,,,,,,,,,,,,,,,,,,,,,,,,,,001,121,2020_Feb_11_1417,spring_faces,3.1.5,60.0039176556649,
condition files/Stage0b_2.xlsx,0b,none,alpha,h,"['h', 'g']","['Chess', 'Go']","[-0.15, 0.5]","[0.15, 0.5]",0,1,0,11,11,11,0,0,0,0,,,,,,,,,,,,,,,,,,,,,,,,,,,,,,,,,,,,,,,,,,,,,,,,,,,,,,,,,,,,,,,1725.6797087739997,None,1725.6797087739997,None,1725.6797087739997,None,h,1,1.024485971998729,1727.214144601001,None,1727.214144601001,None,1727.214144601001,None,1728.2953618700012,None,1728.2953618700012,None,1728.2953618700012,None,1728.2953618700012,None,,,,,,,,,,,,,,,,,,,,,,,,,,,,,,,,,,,,,,,,,,,,001,121,2020_Feb_11_1417,spring_faces,3.1.5,60.0039176556649,
condition files/Stage0b_2.xlsx,0b,beta,none,g,"['h', 'g']","['Chess', 'Go']","[-0.15, 0.5]","[0.15, 0.5]",1,0,0,11,11,11,0,1,1,1,,,,,,,,,,,,,,,,,,,,,,,,,,,,,,,,,,,,,,,,,,,,,,,,,,,,,,,,,,,,,,,1730.262449533,None,1730.262449533,None,1730.262449533,None,g,1,0.505826029999298,1731.8127210700004,None,1731.8127210700004,None,1731.8127210700004,None,1732.3962170430004,None,1732.3962170430004,None,1732.3962170430004,None,1732.3962170430004,None,,,,,,,,,,,,,,,,,,,,,,,,,,,,,,,,,,,,,,,,,,,,001,121,2020_Feb_11_1417,spring_faces,3.1.5,60.0039176556649,
condition files/Stage0c_1.xlsx,0c,beta,theta,g,"['h', 'g']","['Chess', 'Go']","[-0.15, 0.5]","[0.15, 0.5]",1,1,0,12,12,12,0,0,0,2,,,,,,,,,,,,,,,,,,,,,,,,,,,,,,,,,,,,,,,,,,,,,,,,,,,,,,,,,,,,,,,1734.3630546450004,None,1734.3630546450004,None,1734.3630546450004,None,g,1,1.846644641000239,1735.8959148859994,None,1735.8959148859994,None,1735.8959148859994,None,1737.7964578850006,None,1737.7964578850006,None,1737.7964578850006,None,1737.7964578850006,None,,,,,,,,,,,,,,,,,,,,,,,,,,,,,,,,,,,,,,,,,,,,001,121,2020_Feb_11_1417,spring_faces,3.1.5,60.0039176556649,
condition files/Stage0c_1.xlsx,0c,theta,alpha,h,"['h', 'g']","['Chess', 'Go']","[-0.15, 0.5]","[0.15, 0.5]",1,1,0,12,12,12,0,1,1,0,,,,,,,,,,,,,,,,,,,,,,,,,,,,,,,,,,,,,,,,,,,,,,,,,,,,,,,,,,,,,,,1739.7626630989998,None,1739.7626630989998,None,1739.7626630989998,None,h,1,1.4702431480000087,1741.296293753001,None,1741.296293753001,None,1741.296293753001,None,1742.829866598,None,1742.829866598,None,1742.829866598,None,1742.829866598,None,,,,,,,,,,,,,,,,,,,,,,,,,,,,,,,,,,,,,,,,,,,,001,121,2020_Feb_11_1417,spring_faces,3.1.5,60.0039176556649,
condition files/Stage0c_1.xlsx,0c,phi,beta,g,"['h', 'g']","['Chess', 'Go']","[-0.15, 0.5]","[0.15, 0.5]",1,1,0,12,12,12,0,2,2,3,,,,,,,,,,,,,,,,,,,,,,,,,,,,,,,,,,,,,,,,,,,,,,,,,,,,,,,,,,,,,,,1744.7953768629995,None,1744.7953768629995,None,1744.7953768629995,None,g,1,1.5892998139988777,1746.3292427249999,None,1746.3292427249999,None,1746.3292427249999,None,1747.9797857270005,None,1747.9797857270005,None,1747.9797857270005,None,1747.9797857270005,None,,,,,,,,,,,,,,,,,,,,,,,,,,,,,,,,,,,,,,,,,,,,001,121,2020_Feb_11_1417,spring_faces,3.1.5,60.0039176556649,
condition files/Stage0c_1.xlsx,0c,alpha,phi,h,"['h', 'g']","['Chess', 'Go']","[-0.15, 0.5]","[0.15, 0.5]",1,1,0,12,12,12,0,3,3,1,,,,,,,,,,,,,,,,,,,,,,,,,,,,,,,,,,,,,,,,,,,,,,,,,,,,,,,,,,,,,,,1749.9462603440006,None,1749.9462603440006,None,1749.9462603440006,None,h,1,1.303036190000057,1751.4794961709995,None,1751.4794961709995,None,1751.4794961709995,None,1752.8460577019996,None,1752.8460577019996,None,1752.8460577019996,None,1752.8460577019996,None,,,,,,,,,,,,,,,,,,,,,,,,,,,,,,,,,,,,,,,,,,,,001,121,2020_Feb_11_1417,spring_faces,3.1.5,60.0039176556649,
condition files/Stage0c_2.xlsx,0c,theta,beta,g,"['h', 'g']","['Chess', 'Go']","[-0.15, 0.5]","[0.15, 0.5]",1,1,0,13,13,13,0,0,0,2,,,,,,,,,,,,,,,,,,,,,,,,,,,,,,,,,,,,,,,,,,,,,,,,,,,,,,,,,,,,,,,1754.8296054820003,None,1754.8296054820003,None,1754.8296054820003,None,g,1,0.979500093999377,1756.3629393310002,None,1756.3629393310002,None,1756.3629393310002,None,1757.3957730260008,None,1757.3957730260008,None,1757.3957730260008,None,1757.3957730260008,None,,,,,,,,,,,,,,,,,,,,,,,,,,,,,,,,,,,,,,,,,,,,001,121,2020_Feb_11_1417,spring_faces,3.1.5,60.0039176556649,
condition files/Stage0c_2.xlsx,0c,beta,phi,g,"['h', 'g']","['Chess', 'Go']","[-0.15, 0.5]","[0.15, 0.5]",1,1,0,13,13,13,0,1,1,3,,,,,,,,,,,,,,,,,,,,,,,,,,,,,,,,,,,,,,,,,,,,,,,,,,,,,,,,,,,,,,,1759.3625983010006,None,1759.3625983010006,None,1759.3625983010006,None,g,1,1.246322055998462,1760.8962173560012,None,1760.8962173560012,None,1760.8962173560012,None,1762.1809061250005,None,1762.1809061250005,None,1762.1809061250005,None,1762.1809061250005,None,,,,,,,,,,,,,,,,,,,,,,,,,,,,,,,,,,,,,,,,,,,,001,121,2020_Feb_11_1417,spring_faces,3.1.5,60.0039176556649,
condition files/Stage0c_2.xlsx,0c,alpha,theta,h,"['h', 'g']","['Chess', 'Go']","[-0.15, 0.5]","[0.15, 0.5]",1,1,0,13,13,13,0,2,2,0,,,,,,,,,,,,,,,,,,,,,,,,,,,,,,,,,,,,,,,,,,,,,,,,,,,,,,,,,,,,,,,1764.16279305,None,1764.16279305,None,1764.16279305,None,h,1,0.9743582139999489,1765.6962385669995,None,1765.6962385669995,None,1765.6962385669995,None,1766.729329529,None,1766.729329529,None,1766.729329529,None,1766.729329529,None,,,,,,,,,,,,,,,,,,,,,,,,,,,,,,,,,,,,,,,,,,,,001,121,2020_Feb_11_1417,spring_faces,3.1.5,60.0039176556649,
condition files/Stage0c_2.xlsx,0c,phi,alpha,h,"['h', 'g']","['Chess', 'Go']","[-0.15, 0.5]","[0.15, 0.5]",1,1,0,13,13,13,0,3,3,1,,,,,,,,,,,,,,,,,,,,,,,,,,,,,,,,,,,,,,,,,,,,,,,,,,,,,,,,,,,,,,,1768.69572084,None,1768.69572084,None,1768.69572084,None,h,1,1.0968583949997992,1770.2295947840012,None,1770.2295947840012,None,1770.2295947840012,None,1771.3638125550005,None,1771.3638125550005,None,1771.3638125550005,None,1771.3638125550005,None,,,,,,,,,,,,,,,,,,,,,,,,,,,,,,,,,,,,,,,,,,,,001,121,2020_Feb_11_1417,spring_faces,3.1.5,60.0039176556649,
condition files/Stage0c_1.xlsx,0c,phi,beta,g,"['h', 'g']","['Chess', 'Go']","[-0.15, 0.5]","[0.15, 0.5]",1,1,0,14,14,14,0,0,0,3,,,,,,,,,,,,,,,,,,,,,,,,,,,,,,,,,,,,,,,,,,,,,,,,,,,,,,,,,,,,,,,1773.3621908549994,None,1773.3621908549994,None,1773.3621908549994,None,g,1,1.774389735001023,1774.8962146060003,None,1774.8962146060003,None,1774.8962146060003,None,1776.729600468001,None,1776.729600468001,None,1776.729600468001,None,1776.729600468001,None,,,,,,,,,,,,,,,,,,,,,,,,,,,,,,,,,,,,,,,,,,,,001,121,2020_Feb_11_1417,spring_faces,3.1.5,60.0039176556649,
condition files/Stage0c_1.xlsx,0c,alpha,phi,h,"['h', 'g']","['Chess', 'Go']","[-0.15, 0.5]","[0.15, 0.5]",1,1,0,14,14,14,0,1,1,1,,,,,,,,,,,,,,,,,,,,,,,,,,,,,,,,,,,,,,,,,,,,,,,,,,,,,,,,,,,,,,,1778.6959844909998,None,1778.6959844909998,None,1778.6959844909998,None,h,1,1.1126668079996307,1780.2298751340004,None,1780.2298751340004,None,1780.2298751340004,None,1781.3955588560002,None,1781.3955588560002,None,1781.3955588560002,None,1781.3955588560002,None,,,,,,,,,,,,,,,,,,,,,,,,,,,,,,,,,,,,,,,,,,,,001,121,2020_Feb_11_1417,spring_faces,3.1.5,60.0039176556649,
condition files/Stage0c_1.xlsx,0c,theta,alpha,h,"['h', 'g']","['Chess', 'Go']","[-0.15, 0.5]","[0.15, 0.5]",1,1,0,14,14,14,0,2,2,0,,,,,,,,,,,,,,,,,,,,,,,,,,,,,,,,,,,,,,,,,,,,,,,,,,,,,,,,,,,,,,,1783.3622083339997,None,1783.3622083339997,None,1783.3622083339997,None,h,1,1.2302013539992913,1784.8962997729996,None,1784.8962997729996,None,1784.8962997729996,None,1786.1639743209998,None,1786.1639743209998,None,1786.1639743209998,None,1786.1639743209998,None,,,,,,,,,,,,,,,,,,,,,,,,,,,,,,,,,,,,,,,,,,,,001,121,2020_Feb_11_1417,spring_faces,3.1.5,60.0039176556649,
condition files/Stage0c_1.xlsx,0c,beta,theta,g,"['h', 'g']","['Chess', 'Go']","[-0.15, 0.5]","[0.15, 0.5]",1,1,0,14,14,14,0,3,3,2,,,,,,,,,,,,,,,,,,,,,,,,,,,,,,,,,,,,,,,,,,,,,,,,,,,,,,,,,,,,,,,1788.1462651399997,None,1788.1462651399997,None,1788.1462651399997,None,g,1,2.3032999469996867,1789.6792841999995,None,1789.6792841999995,None,1789.6792841999995,None,1792.0464137420004,None,1792.0464137420004,None,1792.0464137420004,None,1792.0464137420004,None,,,,,,,,,,,,,,,,,,,,,,,,,,,,,,,,,,,,,,,,,,,,001,121,2020_Feb_11_1417,spring_faces,3.1.5,60.0039176556649,
condition files/Stage0c_2.xlsx,0c,theta,beta,g,"['h', 'g']","['Chess', 'Go']","[-0.15, 0.5]","[0.15, 0.5]",1,1,0,15,15,15,0,0,0,2,,,,,,,,,,,,,,,,,,,,,,,,,,,,,,,,,,,,,,,,,,,,,,,,,,,,,,,,,,,,,,,1794.029715752,None,1794.029715752,None,1794.029715752,None,g,1,1.5561760279997543,1795.5623757060002,None,1795.5623757060002,None,1795.5623757060002,None,1797.1656418380007,None,1797.1656418380007,None,1797.1656418380007,None,1797.1656418380007,None,,,,,,,,,,,,,,,,,,,,,,,,,,,,,,,,,,,,,,,,,,,,001,121,2020_Feb_11_1417,spring_faces,3.1.5,60.0039176556649,
condition files/Stage0c_2.xlsx,0c,alpha,theta,h,"['h', 'g']","['Chess', 'Go']","[-0.15, 0.5]","[0.15, 0.5]",1,1,0,15,15,15,0,1,1,0,,,,,,,,,,,,,,,,,,,,,,,,,,,,,,,,,,,,,,,,,,,,,,,,,,,,,,,,,,,,,,,1799.1460745980003,None,1799.1460745980003,None,1799.1460745980003,None,h,1,1.718626795000091,1800.679913336,None,1800.679913336,None,1800.679913336,None,1802.4627120679997,None,1802.4627120679997,None,1802.4627120679997,None,1802.4627120679997,None,,,,,,,,,,,,,,,,,,,,,,,,,,,,,,,,,,,,,,,,,,,,001,121,2020_Feb_11_1417,spring_faces,3.1.5,60.0039176556649,
condition files/Stage0c_2.xlsx,0c,beta,phi,g,"['h', 'g']","['Chess', 'Go']","[-0.15, 0.5]","[0.15, 0.5]",1,1,0,15,15,15,0,2,2,3,,,,,,,,,,,,,,,,,,,,,,,,,,,,,,,,,,,,,,,,,,,,,,,,,,,,,,,,,,,,,,,1804.4290598420012,None,1804.4290598420012,None,1804.4290598420012,None,g,1,0.7076707380001608,1805.96292609,None,1805.96292609,None,1805.96292609,None,1806.729280503001,None,1806.729280503001,None,1806.729280503001,None,1806.729280503001,None,,,,,,,,,,,,,,,,,,,,,,,,,,,,,,,,,,,,,,,,,,,,001,121,2020_Feb_11_1417,spring_faces,3.1.5,60.0039176556649,
condition files/Stage0c_2.xlsx,0c,phi,alpha,h,"['h', 'g']","['Chess', 'Go']","[-0.15, 0.5]","[0.15, 0.5]",1,1,0,15,15,15,0,3,3,1,,,,,,,,,,,,,,,,,,,,,,,,,,,,,,,,,,,,,,,,,,,,,,,,,,,,,,,,,,,,,,,1808.6954480149998,None,1808.6954480149998,None,1808.6954480149998,None,h,1,1.1926754209998762,1810.2298806630006,None,1810.2298806630006,None,1810.2298806630006,None,1811.4787744950008,None,1811.4787744950008,None,1811.4787744950008,None,1811.4787744950008,None,,,,,,,,,,,,,,,,,,,,,,,,,,,,,,,,,,,,,,,,,,,,001,121,2020_Feb_11_1417,spring_faces,3.1.5,60.0039176556649,
condition files/Stage0c_1.xlsx,0c,phi,beta,g,"['h', 'g']","['Chess', 'Go']","[-0.15, 0.5]","[0.15, 0.5]",1,1,0,16,16,16,0,0,0,3,,,,,,,,,,,,,,,,,,,,,,,,,,,,,,,,,,,,,,,,,,,,,,,,,,,,,,,,,,,,,,,1813.4626392640002,None,1813.4626392640002,None,1813.4626392640002,None,g,1,1.466090557998541,1814.9964521130005,None,1814.9964521130005,None,1814.9964521130005,None,1816.5129871059999,None,1816.5129871059999,None,1816.5129871059999,None,1816.5129871059999,None,,,,,,,,,,,,,,,,,,,,,,,,,,,,,,,,,,,,,,,,,,,,001,121,2020_Feb_11_1417,spring_faces,3.1.5,60.0039176556649,
condition files/Stage0c_1.xlsx,0c,alpha,phi,h,"['h', 'g']","['Chess', 'Go']","[-0.15, 0.5]","[0.15, 0.5]",1,1,0,16,16,16,0,1,1,1,,,,,,,,,,,,,,,,,,,,,,,,,,,,,,,,,,,,,,,,,,,,,,,,,,,,,,,,,,,,,,,1818.4794120490005,None,1818.4794120490005,None,1818.4794120490005,None,h,1,0.8660859599985997,1820.012449361,None,1820.012449361,None,1820.012449361,None,1820.9299219639997,None,1820.9299219639997,None,1820.9299219639997,None,1820.9299219639997,None,,,,,,,,,,,,,,,,,,,,,,,,,,,,,,,,,,,,,,,,,,,,001,121,2020_Feb_11_1417,spring_faces,3.1.5,60.0039176556649,
condition files/Stage0c_1.xlsx,0c,theta,alpha,h,"['h', 'g']","['Chess', 'Go']","[-0.15, 0.5]","[0.15, 0.5]",1,1,0,16,16,16,0,2,2,0,,,,,,,,,,,,,,,,,,,,,,,,,,,,,,,,,,,,,,,,,,,,,,,,,,,,,,,,,,,,,,,1822.8954833000007,None,1822.8954833000007,None,1822.8954833000007,None,h,1,0.8969045850008115,1824.4296869930004,None,1824.4296869930004,None,1824.4296869930004,None,1825.3641517609994,None,1825.3641517609994,None,1825.3641517609994,None,1825.3641517609994,None,,,,,,,,,,,,,,,,,,,,,,,,,,,,,,,,,,,,,,,,,,,,001,121,2020_Feb_11_1417,spring_faces,3.1.5,60.0039176556649,
condition files/Stage0c_1.xlsx,0c,beta,theta,g,"['h', 'g']","['Chess', 'Go']","[-0.15, 0.5]","[0.15, 0.5]",1,1,0,16,16,16,0,3,3,2,,,,,,,,,,,,,,,,,,,,,,,,,,,,,,,,,,,,,,,,,,,,,,,,,,,,,,,,,,,,,,,1827.363239331,None,1827.363239331,None,1827.363239331,None,g,1,0.7513158100009605,1828.879196445001,None,1828.879196445001,None,1828.879196445001,None,1829.6955698800011,None,1829.6955698800011,None,1829.6955698800011,None,1829.6955698800011,None,,,,,,,,,,,,,,,,,,,,,,,,,,,,,,,,,,,,,,,,,,,,001,121,2020_Feb_11_1417,spring_faces,3.1.5,60.0039176556649,
condition files/Stage0c_2.xlsx,0c,theta,beta,g,"['h', 'g']","['Chess', 'Go']","[-0.15, 0.5]","[0.15, 0.5]",1,1,0,17,17,17,0,0,0,2,,,,,,,,,,,,,,,,,,,,,,,,,,,,,,,,,,,,,,,,,,,,,,,,,,,,,,,,,,,,,,,1831.6796742179995,None,1831.6796742179995,None,1831.6796742179995,None,g,1,1.362236025999664,1833.1962827030002,None,1833.1962827030002,None,1833.1962827030002,None,1834.5985942139996,None,1834.5985942139996,None,1834.5985942139996,None,1834.5985942139996,None,,,,,,,,,,,,,,,,,,,,,,,,,,,,,,,,,,,,,,,,,,,,001,121,2020_Feb_11_1417,spring_faces,3.1.5,60.0039176556649,
condition files/Stage0c_2.xlsx,0c,alpha,theta,h,"['h', 'g']","['Chess', 'Go']","[-0.15, 0.5]","[0.15, 0.5]",1,1,0,17,17,17,0,1,1,0,,,,,,,,,,,,,,,,,,,,,,,,,,,,,,,,,,,,,,,,,,,,,,,,,,,,,,,,,,,,,,,1836.5792645399997,None,1836.5792645399997,None,1836.5792645399997,None,h,1,0.8776223130007565,1838.1128989080007,None,1838.1128989080007,None,1838.1128989080007,None,1839.0459915169995,None,1839.0459915169995,None,1839.0459915169995,None,1839.0459915169995,None,,,,,,,,,,,,,,,,,,,,,,,,,,,,,,,,,,,,,,,,,,,,001,121,2020_Feb_11_1417,spring_faces,3.1.5,60.0039176556649,
condition files/Stage0c_2.xlsx,0c,phi,alpha,h,"['h', 'g']","['Chess', 'Go']","[-0.15, 0.5]","[0.15, 0.5]",1,1,0,17,17,17,0,2,2,1,,,,,,,,,,,,,,,,,,,,,,,,,,,,,,,,,,,,,,,,,,,,,,,,,,,,,,,,,,,,,,,1841.0120505650011,None,1841.0120505650011,None,1841.0120505650011,None,h,1,0.9249566809994576,1842.5456394659996,None,1842.5456394659996,None,1842.5456394659996,None,1843.5132672510008,None,1843.5132672510008,None,1843.5132672510008,None,1843.5132672510008,None,,,,,,,,,,,,,,,,,,,,,,,,,,,,,,,,,,,,,,,,,,,,001,121,2020_Feb_11_1417,spring_faces,3.1.5,60.0039176556649,
condition files/Stage0c_2.xlsx,0c,beta,phi,g,"['h', 'g']","['Chess', 'Go']","[-0.15, 0.5]","[0.15, 0.5]",1,1,0,17,17,17,0,3,3,3,,,,,,,,,,,,,,,,,,,,,,,,,,,,,,,,,,,,,,,,,,,,,,,,,,,,,,,,,,,,,,,1845.4954456220003,None,1845.4954456220003,None,1845.4954456220003,None,g,1,1.0326795919991127,1847.0298490820005,None,1847.0298490820005,None,1847.0298490820005,None,1848.1126739049996,None,1848.1126739049996,None,1848.1126739049996,None,1848.1126739049996,None,,,,,,,,,,,,,,,,,,,,,,,,,,,,,,,,,,,,,,,,,,,,001,121,2020_Feb_11_1417,spring_faces,3.1.5,60.0039176556649,
,,,,,,,,,,,,,,,,,,,,,,,,,,,,,,,,,,,,,,,,,,,,,,,,,,,,,,,,,,,,,,,,,,,,,,,,,,,,,,,,,,,,,,,,,,,,,,,,,,,,,,,,1850.096163686001,None,space,1.126402280999173,1855.0960902509996,None,,,,,,,,,,,,,,,,,,,,,,,,,,,,,,,,,,,,,,001,121,2020_Feb_11_1417,spring_faces,3.1.5,60.0039176556649,
condition files/Stage1_1.xlsx,,T1,B1,c,"['c', 'm']","['Clue', 'Monopoly']","[-0.15, 0.5]","[0.15, 0.5]",1,1,,,,,,,,,0,0,0,0,0,0,0,0,,,,,,,,,,,,,,,,,,,,,,,,,,,,,,,,,,,,,,,,,,,,,,,,,,,,,,,1856.2797885090004,None,1856.2797885090004,None,1856.2797885090004,None,c,1,1.0938310740002635,1857.8487564099996,None,1857.8487564099996,None,1857.8487564099996,None,1859.014609883001,None,1859.014609883001,None,1859.014609883001,None,1859.014609883001,None,,,,,,,1855.0960902509996,None,,,,,,,,,,,,,,,,,,,,,,,,,,,,,,,,,,,,001,121,2020_Feb_11_1417,spring_faces,3.1.5,60.0039176556649,
condition files/Stage1_1.xlsx,,B3,T3,c,"['c', 'm']","['Clue', 'Monopoly']","[-0.15, 0.5]","[0.15, 0.5]",1,1,,,,,,,,,0,0,0,0,0,1,1,4,,,,,,,,,,,,,,,,,,,,,,,,,,,,,,,,,,,,,,,,,,,,,,,,,,,,,,,1860.962964421,None,1860.962964421,None,1860.962964421,None,m,0,0.9087906960012333,1862.5458138329996,None,1862.5458138329996,None,1862.5458138329996,None,1863.512508836,None,1863.512508836,None,1863.512508836,None,1863.512508836,None,,,,,,,,,,,,,,,,,,,,,,,,,,,,,,,,,,,,,,,,,,,,001,121,2020_Feb_11_1417,spring_faces,3.1.5,60.0039176556649,
condition files/Stage1_1.xlsx,,T2,B2,m,"['c', 'm']","['Clue', 'Monopoly']","[-0.15, 0.5]","[0.15, 0.5]",1,1,,,,,,,,,0,0,0,0,0,2,2,3,,,,,,,,,,,,,,,,,,,,,,,,,,,,,,,,,,,,,,,,,,,,,,,,,,,,,,,1865.4792304109997,None,1865.4792304109997,None,1865.4792304109997,None,c,0,1.2235716329996649,1867.015045473001,None,1867.015045473001,None,1867.015045473001,None,1868.3129783420009,None,1868.3129783420009,None,1868.3129783420009,None,1868.3129783420009,None,,,,,,,,,,,,,,,,,,,,,,,,,,,,,,,,,,,,,,,,,,,,001,121,2020_Feb_11_1417,spring_faces,3.1.5,60.0039176556649,
condition files/Stage1_1.xlsx,,B4,T4,m,"['c', 'm']","['Clue', 'Monopoly']","[-0.15, 0.5]","[0.15, 0.5]",1,1,,,,,,,,,0,0,0,0,0,3,3,7,,,,,,,,,,,,,,,,,,,,,,,,,,,,,,,,,,,,,,,,,,,,,,,,,,,,,,,1870.2627234880001,None,1870.2627234880001,None,1870.2627234880001,None,c,0,1.24047007199988,1871.846128141,None,1871.846128141,None,1871.846128141,None,1873.1460786469997,None,1873.1460786469997,None,1873.1460786469997,None,1873.1460786469997,None,,,,,,,,,,,,,,,,,,,,,,,,,,,,,,,,,,,,,,,,,,,,001,121,2020_Feb_11_1417,spring_faces,3.1.5,60.0039176556649,
condition files/Stage1_1.xlsx,,B1,T2,c,"['c', 'm']","['Clue', 'Monopoly']","[-0.15, 0.5]","[0.15, 0.5]",1,1,,,,,,,,,0,0,0,0,0,4,4,1,,,,,,,,,,,,,,,,,,,,,,,,,,,,,,,,,,,,,,,,,,,,,,,,,,,,,,,1875.1120834989997,None,1875.1120834989997,None,1875.1120834989997,None,c,1,1.3820786939995742,1876.6484342839994,None,1876.6484342839994,None,1876.6484342839994,None,1878.1129541490009,None,1878.1129541490009,None,1878.1129541490009,None,1878.1129541490009,None,,,,,,,,,,,,,,,,,,,,,,,,,,,,,,,,,,,,,,,,,,,,001,121,2020_Feb_11_1417,spring_faces,3.1.5,60.0039176556649,
condition files/Stage1_1.xlsx,,B2,T1,m,"['c', 'm']","['Clue', 'Monopoly']","[-0.15, 0.5]","[0.15, 0.5]",1,1,,,,,,,,,0,0,0,0,0,5,5,2,,,,,,,,,,,,,,,,,,,,,,,,,,,,,,,,,,,,,,,,,,,,,,,,,,,,,,,1880.0621247990002,None,1880.0621247990002,None,1880.0621247990002,None,m,1,1.0414574850001372,1881.6131322729998,None,1881.6131322729998,None,1881.6131322729998,None,1882.713615443001,None,1882.713615443001,None,1882.713615443001,None,1882.713615443001,None,,,,,,,,,,,,,,,,,,,,,,,,,,,,,,,,,,,,,,,,,,,,001,121,2020_Feb_11_1417,spring_faces,3.1.5,60.0039176556649,
condition files/Stage1_1.xlsx,,T4,B3,m,"['c', 'm']","['Clue', 'Monopoly']","[-0.15, 0.5]","[0.15, 0.5]",1,1,,,,,,,,,0,0,0,0,0,6,6,6,,,,,,,,,,,,,,,,,,,,,,,,,,,,,,,,,,,,,,,,,,,,,,,,,,,,,,,1884.678874688001,None,1884.678874688001,None,1884.678874688001,None,c,0,1.3685309070006042,1886.214030129,None,1886.214030129,None,1886.214030129,None,1887.646003019001,None,1887.646003019001,None,1887.646003019001,None,1887.646003019001,None,,,,,,,,,,,,,,,,,,,,,,,,,,,,,,,,,,,,,,,,,,,,001,121,2020_Feb_11_1417,spring_faces,3.1.5,60.0039176556649,
condition files/Stage1_1.xlsx,,T3,B4,c,"['c', 'm']","['Clue', 'Monopoly']","[-0.15, 0.5]","[0.15, 0.5]",1,1,,,,,,,,,0,0,0,0,0,7,7,5,,,,,,,,,,,,,,,,,,,,,,,,,,,,,,,,,,,,,,,,,,,,,,,,,,,,,,,1889.6129834759995,None,1889.6129834759995,None,1889.6129834759995,None,c,1,1.2685861350000778,1891.1459612279996,None,1891.1459612279996,None,1891.1459612279996,None,1892.4957751559996,None,1892.4957751559996,None,1892.4957751559996,None,1892.4957751559996,None,,,,,,,,,,,,,,,,,,,,,,,,,,,,,,,,,,,,,,,,,,,,001,121,2020_Feb_11_1417,spring_faces,3.1.5,60.0039176556649,
condition files/Stage1_2.xlsx,,B4,T3,c,"['c', 'm']","['Clue', 'Monopoly']","[-0.15, 0.5]","[0.15, 0.5]",1,1,,,,,,,,,0,1,1,1,0,0,0,5,,,,,,,,,,,,,,,,,,,,,,,,,,,,,,,,,,,,,,,,,,,,,,,,,,,,,,,1894.462988493,None,1894.462988493,None,1894.462988493,None,m,0,1.7298690949992306,1896.0126811690006,None,1896.0126811690006,None,1896.0126811690006,None,1897.796482781001,None,1897.796482781001,None,1897.796482781001,None,1897.796482781001,None,,,,,,,,,,,,,,,,,,,,,,,,,,,,,,,,,,,,,,,,,,,,001,121,2020_Feb_11_1417,spring_faces,3.1.5,60.0039176556649,
condition files/Stage1_2.xlsx,,B2,T2,m,"['c', 'm']","['Clue', 'Monopoly']","[-0.15, 0.5]","[0.15, 0.5]",1,1,,,,,,,,,0,1,1,1,0,1,1,3,,,,,,,,,,,,,,,,,,,,,,,,,,,,,,,,,,,,,,,,,,,,,,,,,,,,,,,1899.7626999109998,None,1899.7626999109998,None,1899.7626999109998,None,m,1,1.742118799000309,1901.3124836850002,None,1901.3124836850002,None,1901.3124836850002,None,1903.1291283259998,None,1903.1291283259998,None,1903.1291283259998,None,1903.1291283259998,None,,,,,,,,,,,,,,,,,,,,,,,,,,,,,,,,,,,,,,,,,,,,001,121,2020_Feb_11_1417,spring_faces,3.1.5,60.0039176556649,
condition files/Stage1_2.xlsx,,T4,B4,m,"['c', 'm']","['Clue', 'Monopoly']","[-0.15, 0.5]","[0.15, 0.5]",1,1,,,,,,,,,0,1,1,1,0,2,2,7,,,,,,,,,,,,,,,,,,,,,,,,,,,,,,,,,,,,,,,,,,,,,,,,,,,,,,,1905.0793332369994,None,1905.0793332369994,None,1905.0793332369994,None,c,0,2.104692322998744,1906.6138722739997,None,1906.6138722739997,None,1906.6138722739997,None,1908.7799564239995,None,1908.7799564239995,None,1908.7799564239995,None,1908.7799564239995,None,,,,,,,,,,,,,,,,,,,,,,,,,,,,,,,,,,,,,,,,,,,,001,121,2020_Feb_11_1417,spring_faces,3.1.5,60.0039176556649,
condition files/Stage1_2.xlsx,,B1,T1,c,"['c', 'm']","['Clue', 'Monopoly']","[-0.15, 0.5]","[0.15, 0.5]",1,1,,,,,,,,,0,1,1,1,0,3,3,0,,,,,,,,,,,,,,,,,,,,,,,,,,,,,,,,,,,,,,,,,,,,,,,,,,,,,,,1910.7453892640006,None,1910.7453892640006,None,1910.7453892640006,None,c,1,1.156904958999803,1912.2817126339996,None,1912.2817126339996,None,1912.2817126339996,None,1913.4985683890009,None,1913.4985683890009,None,1913.4985683890009,None,1913.4985683890009,None,,,,,,,,,,,,,,,,,,,,,,,,,,,,,,,,,,,,,,,,,,,,001,121,2020_Feb_11_1417,spring_faces,3.1.5,60.0039176556649,
condition files/Stage1_2.xlsx,,T2,B1,c,"['c', 'm']","['Clue', 'Monopoly']","[-0.15, 0.5]","[0.15, 0.5]",1,1,,,,,,,,,0,1,1,1,0,4,4,1,,,,,,,,,,,,,,,,,,,,,,,,,,,,,,,,,,,,,,,,,,,,,,,,,,,,,,,1915.462106725001,None,1915.462106725001,None,1915.462106725001,None,c,1,1.0970045260000916,1916.9975443269996,None,1916.9975443269996,None,1916.9975443269996,None,1918.1462506839998,None,1918.1462506839998,None,1918.1462506839998,None,1918.1462506839998,None,,,,,,,,,,,,,,,,,,,,,,,,,,,,,,,,,,,,,,,,,,,,001,121,2020_Feb_11_1417,spring_faces,3.1.5,60.0039176556649,
condition files/Stage1_2.xlsx,,B3,T4,m,"['c', 'm']","['Clue', 'Monopoly']","[-0.15, 0.5]","[0.15, 0.5]",1,1,,,,,,,,,0,1,1,1,0,5,5,6,,,,,,,,,,,,,,,,,,,,,,,,,,,,,,,,,,,,,,,,,,,,,,,,,,,,,,,1920.112051831,None,1920.112051831,None,1920.112051831,None,m,1,0.49552158400001645,1921.6470400060007,None,1921.6470400060007,None,1921.6470400060007,None,1922.1974929440003,None,1922.1974929440003,None,1922.1974929440003,None,1922.1974929440003,None,,,,,,,,,,,,,,,,,,,,,,,,,,,,,,,,,,,,,,,,,,,,001,121,2020_Feb_11_1417,spring_faces,3.1.5,60.0039176556649,
condition files/Stage1_2.xlsx,,T3,B3,c,"['c', 'm']","['Clue', 'Monopoly']","[-0.15, 0.5]","[0.15, 0.5]",1,1,,,,,,,,,0,1,1,1,0,6,6,4,,,,,,,,,,,,,,,,,,,,,,,,,,,,,,,,,,,,,,,,,,,,,,,,,,,,,,,1924.1621197519999,None,1924.1621197519999,None,1924.1621197519999,None,c,1,0.9096608139989257,1925.696965481,None,1925.696965481,None,1925.696965481,None,1926.6795331089997,None,1926.6795331089997,None,1926.6795331089997,None,1926.6795331089997,None,,,,,,,,,,,,,,,,,,,,,,,,,,,,,,,,,,,,,,,,,,,,001,121,2020_Feb_11_1417,spring_faces,3.1.5,60.0039176556649,
condition files/Stage1_2.xlsx,,T1,B2,m,"['c', 'm']","['Clue', 'Monopoly']","[-0.15, 0.5]","[0.15, 0.5]",1,1,,,,,,,,,0,1,1,1,0,7,7,2,,,,,,,,,,,,,,,,,,,,,,,,,,,,,,,,,,,,,,,,,,,,,,,,,,,,,,,1928.629069480001,None,1928.629069480001,None,1928.629069480001,None,m,1,0.9856168619990058,1930.1649406230008,None,1930.1649406230008,None,1930.1649406230008,None,1931.2150025520004,None,1931.2150025520004,None,1931.2150025520004,None,1931.2150025520004,None,,,,,,,,,,,,,,,,,,,,,,,,,,,,,,,,,,,,,,,,,,,,001,121,2020_Feb_11_1417,spring_faces,3.1.5,60.0039176556649,
condition files/Stage1_1.xlsx,,B3,T3,c,"['c', 'm']","['Clue', 'Monopoly']","[-0.15, 0.5]","[0.15, 0.5]",1,1,,,,,,,,,0,2,2,2,0,0,0,4,,,,,,,,,,,,,,,,,,,,,,,,,,,,,,,,,,,,,,,,,,,,,,,,,,,,,,,1933.196294628,None,1933.196294628,None,1933.196294628,None,c,1,1.5077699720004603,1934.7308531649996,None,1934.7308531649996,None,1934.7308531649996,None,1936.3130472880002,None,1936.3130472880002,None,1936.3130472880002,None,1936.3130472880002,None,,,,,,,,,,,,,,,,,,,,,,,,,,,,,,,,,,,,,,,,,,,,001,121,2020_Feb_11_1417,spring_faces,3.1.5,60.0039176556649,
condition files/Stage1_1.xlsx,,T1,B1,c,"['c', 'm']","['Clue', 'Monopoly']","[-0.15, 0.5]","[0.15, 0.5]",1,1,,,,,,,,,0,2,2,2,0,1,1,0,,,,,,,,,,,,,,,,,,,,,,,,,,,,,,,,,,,,,,,,,,,,,,,,,,,,,,,1938.2619107570008,None,1938.2619107570008,None,1938.2619107570008,None,c,1,1.337666862000333,1939.7968941050003,None,1939.7968941050003,None,1939.7968941050003,None,1941.196256309,None,1941.196256309,None,1941.196256309,None,1941.196256309,None,,,,,,,,,,,,,,,,,,,,,,,,,,,,,,,,,,,,,,,,,,,,001,121,2020_Feb_11_1417,spring_faces,3.1.5,60.0039176556649,
condition files/Stage1_1.xlsx,,T3,B4,c,"['c', 'm']","['Clue', 'Monopoly']","[-0.15, 0.5]","[0.15, 0.5]",1,1,,,,,,,,,0,2,2,2,0,2,2,5,,,,,,,,,,,,,,,,,,,,,,,,,,,,,,,,,,,,,,,,,,,,,,,,,,,,,,,1943.1628038710005,None,1943.1628038710005,None,1943.1628038710005,None,c,1,1.735245488000146,1944.6952525270008,None,1944.6952525270008,None,1944.6952525270008,None,1946.4957400940002,None,1946.4957400940002,None,1946.4957400940002,None,1946.4957400940002,None,,,,,,,,,,,,,,,,,,,,,,,,,,,,,,,,,,,,,,,,,,,,001,121,2020_Feb_11_1417,spring_faces,3.1.5,60.0039176556649,
condition files/Stage1_1.xlsx,,B1,T2,c,"['c', 'm']","['Clue', 'Monopoly']","[-0.15, 0.5]","[0.15, 0.5]",1,1,,,,,,,,,0,2,2,2,0,3,3,1,,,,,,,,,,,,,,,,,,,,,,,,,,,,,,,,,,,,,,,,,,,,,,,,,,,,,,,1948.4621629520007,None,1948.4621629520007,None,1948.4621629520007,None,c,1,1.5706144340001629,1949.9959435929995,None,1949.9959435929995,None,1949.9959435929995,None,1951.630338682,None,1951.630338682,None,1951.630338682,None,1951.630338682,None,,,,,,,,,,,,,,,,,,,,,,,,,,,,,,,,,,,,,,,,,,,,001,121,2020_Feb_11_1417,spring_faces,3.1.5,60.0039176556649,
condition files/Stage1_1.xlsx,,B4,T4,m,"['c', 'm']","['Clue', 'Monopoly']","[-0.15, 0.5]","[0.15, 0.5]",1,1,,,,,,,,,0,2,2,2,0,4,4,7,,,,,,,,,,,,,,,,,,,,,,,,,,,,,,,,,,,,,,,,,,,,,,,,,,,,,,,1953.5957708770002,None,1953.5957708770002,None,1953.5957708770002,None,m,1,2.58076786699894,1955.129787760001,None,1955.129787760001,None,1955.129787760001,None,1957.7791799490005,None,1957.7791799490005,None,1957.7791799490005,None,1957.7791799490005,None,,,,,,,,,,,,,,,,,,,,,,,,,,,,,,,,,,,,,,,,,,,,001,121,2020_Feb_11_1417,spring_faces,3.1.5,60.0039176556649,
condition files/Stage1_1.xlsx,,T2,B2,m,"['c', 'm']","['Clue', 'Monopoly']","[-0.15, 0.5]","[0.15, 0.5]",1,1,,,,,,,,,0,2,2,2,0,5,5,3,,,,,,,,,,,,,,,,,,,,,,,,,,,,,,,,,,,,,,,,,,,,,,,,,,,,,,,1959.7291071990003,None,1959.7291071990003,None,1959.7291071990003,None,m,1,1.3108542040008615,1961.2796679210005,None,1961.2796679210005,None,1961.2796679210005,None,1962.6463444559995,None,1962.6463444559995,None,1962.6463444559995,None,1962.6463444559995,None,,,,,,,,,,,,,,,,,,,,,,,,,,,,,,,,,,,,,,,,,,,,001,121,2020_Feb_11_1417,spring_faces,3.1.5,60.0039176556649,
condition files/Stage1_1.xlsx,,B2,T1,m,"['c', 'm']","['Clue', 'Monopoly']","[-0.15, 0.5]","[0.15, 0.5]",1,1,,,,,,,,,0,2,2,2,0,6,6,2,,,,,,,,,,,,,,,,,,,,,,,,,,,,,,,,,,,,,,,,,,,,,,,,,,,,,,,1964.6120305839995,None,1964.6120305839995,None,1964.6120305839995,None,m,1,0.7800492000005761,1966.1624979030003,None,1966.1624979030003,None,1966.1624979030003,None,1966.9955884600004,None,1966.9955884600004,None,1966.9955884600004,None,1966.9955884600004,None,,,,,,,,,,,,,,,,,,,,,,,,,,,,,,,,,,,,,,,,,,,,001,121,2020_Feb_11_1417,spring_faces,3.1.5,60.0039176556649,
condition files/Stage1_1.xlsx,,T4,B3,m,"['c', 'm']","['Clue', 'Monopoly']","[-0.15, 0.5]","[0.15, 0.5]",1,1,,,,,,,,,0,2,2,2,0,7,7,6,,,,,,,,,,,,,,,,,,,,,,,,,,,,,,,,,,,,,,,,,,,,,,,,,,,,,,,1968.9623020150011,None,1968.9623020150011,None,1968.9623020150011,None,c,0,1.6616169700009777,1970.5128572640006,None,1970.5128572640006,None,1970.5128572640006,None,1972.229140902,None,1972.229140902,None,1972.229140902,None,1972.229140902,None,,,,,,,,,,,,,,,,,,,,,,,,,,,,,,,,,,,,,,,,,,,,001,121,2020_Feb_11_1417,spring_faces,3.1.5,60.0039176556649,
condition files/Stage1_2.xlsx,,B4,T3,c,"['c', 'm']","['Clue', 'Monopoly']","[-0.15, 0.5]","[0.15, 0.5]",1,1,,,,,,,,,0,3,3,3,0,0,0,5,,,,,,,,,,,,,,,,,,,,,,,,,,,,,,,,,,,,,,,,,,,,,,,,,,,,,,,1974.212510333,None,1974.212510333,None,1974.212510333,None,m,0,3.34108492499945,1975.7455400529998,None,1975.7455400529998,None,1975.7455400529998,None,1979.1464824510003,None,1979.1464824510003,None,1979.1464824510003,None,1979.1464824510003,None,,,,,,,,,,,,,,,,,,,,,,,,,,,,,,,,,,,,,,,,,,,,001,121,2020_Feb_11_1417,spring_faces,3.1.5,60.0039176556649,
condition files/Stage1_2.xlsx,,T2,B1,c,"['c', 'm']","['Clue', 'Monopoly']","[-0.15, 0.5]","[0.15, 0.5]",1,1,,,,,,,,,0,3,3,3,0,1,1,1,,,,,,,,,,,,,,,,,,,,,,,,,,,,,,,,,,,,,,,,,,,,,,,,,,,,,,,1981.1126152220004,None,1981.1126152220004,None,1981.1126152220004,None,c,1,1.288411248000557,1982.6461584900007,None,1982.6461584900007,None,1982.6461584900007,None,1983.9956926859995,None,1983.9956926859995,None,1983.9956926859995,None,1983.9956926859995,None,,,,,,,,,,,,,,,,,,,,,,,,,,,,,,,,,,,,,,,,,,,,001,121,2020_Feb_11_1417,spring_faces,3.1.5,60.0039176556649,
condition files/Stage1_2.xlsx,,T1,B2,m,"['c', 'm']","['Clue', 'Monopoly']","[-0.15, 0.5]","[0.15, 0.5]",1,1,,,,,,,,,0,3,3,3,0,2,2,2,,,,,,,,,,,,,,,,,,,,,,,,,,,,,,,,,,,,,,,,,,,,,,,,,,,,,,,1985.9626848320004,None,1985.9626848320004,None,1985.9626848320004,None,m,1,1.1104480789999798,1987.4961714399997,None,1987.4961714399997,None,1987.4961714399997,None,1988.6796532480002,None,1988.6796532480002,None,1988.6796532480002,None,1988.6796532480002,None,,,,,,,,,,,,,,,,,,,,,,,,,,,,,,,,,,,,,,,,,,,,001,121,2020_Feb_11_1417,spring_faces,3.1.5,60.0039176556649,
condition files/Stage1_2.xlsx,,B3,T4,m,"['c', 'm']","['Clue', 'Monopoly']","[-0.15, 0.5]","[0.15, 0.5]",1,1,,,,,,,,,0,3,3,3,0,3,3,6,,,,,,,,,,,,,,,,,,,,,,,,,,,,,,,,,,,,,,,,,,,,,,,,,,,,,,,1990.629615932001,None,1990.629615932001,None,1990.629615932001,None,c,0,1.9790598469990073,1992.1635402749998,None,1992.1635402749998,None,1992.1635402749998,None,1994.1962706169998,None,1994.1962706169998,None,1994.1962706169998,None,1994.1962706169998,None,,,,,,,,,,,,,,,,,,,,,,,,,,,,,,,,,,,,,,,,,,,,001,121,2020_Feb_11_1417,spring_faces,3.1.5,60.0039176556649,
condition files/Stage1_2.xlsx,,B1,T1,c,"['c', 'm']","['Clue', 'Monopoly']","[-0.15, 0.5]","[0.15, 0.5]",1,1,,,,,,,,,0,3,3,3,0,4,4,0,,,,,,,,,,,,,,,,,,,,,,,,,,,,,,,,,,,,,,,,,,,,,,,,,,,,,,,1996.1621057579996,None,1996.1621057579996,None,1996.1621057579996,None,c,1,1.8217636350000248,1997.7127833920003,None,1997.7127833920003,None,1997.7127833920003,None,1999.6124323900003,None,1999.6124323900003,None,1999.6124323900003,None,1999.6124323900003,None,,,,,,,,,,,,,,,,,,,,,,,,,,,,,,,,,,,,,,,,,,,,001,121,2020_Feb_11_1417,spring_faces,3.1.5,60.0039176556649,
condition files/Stage1_2.xlsx,,T3,B3,c,"['c', 'm']","['Clue', 'Monopoly']","[-0.15, 0.5]","[0.15, 0.5]",1,1,,,,,,,,,0,3,3,3,0,5,5,4,,,,,,,,,,,,,,,,,,,,,,,,,,,,,,,,,,,,,,,,,,,,,,,,,,,,,,,2001.562341529001,None,2001.562341529001,None,2001.562341529001,None,c,1,2.2768675419993087,2003.097620714001,None,2003.097620714001,None,2003.097620714001,None,2005.4293984110009,None,2005.4293984110009,None,2005.4293984110009,None,2005.4293984110009,None,,,,,,,,,,,,,,,,,,,,,,,,,,,,,,,,,,,,,,,,,,,,001,121,2020_Feb_11_1417,spring_faces,3.1.5,60.0039176556649,
condition files/Stage1_2.xlsx,,B2,T2,m,"['c', 'm']","['Clue', 'Monopoly']","[-0.15, 0.5]","[0.15, 0.5]",1,1,,,,,,,,,0,3,3,3,0,6,6,3,,,,,,,,,,,,,,,,,,,,,,,,,,,,,,,,,,,,,,,,,,,,,,,,,,,,,,,2007.395645187,None,2007.395645187,None,2007.395645187,None,m,1,1.2760514900000999,2008.9305764609999,None,2008.9305764609999,None,2008.9305764609999,None,2010.2796414740005,None,2010.2796414740005,None,2010.2796414740005,None,2010.2796414740005,None,,,,,,,,,,,,,,,,,,,,,,,,,,,,,,,,,,,,,,,,,,,,001,121,2020_Feb_11_1417,spring_faces,3.1.5,60.0039176556649,
condition files/Stage1_2.xlsx,,T4,B4,m,"['c', 'm']","['Clue', 'Monopoly']","[-0.15, 0.5]","[0.15, 0.5]",1,1,,,,,,,,,0,3,3,3,0,7,7,7,,,,,,,,,,,,,,,,,,,,,,,,,,,,,,,,,,,,,,,,,,,,,,,,,,,,,,,2012.2289283490009,None,2012.2289283490009,None,2012.2289283490009,None,m,1,1.947892761998446,2013.7626598280003,None,2013.7626598280003,None,2013.7626598280003,None,2015.7629879369997,None,2015.7629879369997,None,2015.7629879369997,None,2015.7629879369997,None,,,,,,,,,,,,,,,,,,,,,,,,,,,,,,,,,,,,,,,,,,,,001,121,2020_Feb_11_1417,spring_faces,3.1.5,60.0039176556649,
condition files/Stage1_1.xlsx,,B3,T3,c,"['c', 'm']","['Clue', 'Monopoly']","[-0.15, 0.5]","[0.15, 0.5]",1,1,,,,,,,,,0,4,4,4,0,0,0,4,,,,,,,,,,,,,,,,,,,,,,,,,,,,,,,,,,,,,,,,,,,,,,,,,,,,,,,2017.746288321001,None,2017.746288321001,None,2017.746288321001,None,c,1,1.7409840189993702,2019.2815066740004,None,2019.2815066740004,None,2019.2815066740004,None,2021.0812043320002,None,2021.0812043320002,None,2021.0812043320002,None,2021.0812043320002,None,,,,,,,,,,,,,,,,,,,,,,,,,,,,,,,,,,,,,,,,,,,,001,121,2020_Feb_11_1417,spring_faces,3.1.5,60.0039176556649,
condition files/Stage1_1.xlsx,,B2,T1,m,"['c', 'm']","['Clue', 'Monopoly']","[-0.15, 0.5]","[0.15, 0.5]",1,1,,,,,,,,,0,4,4,4,0,1,1,2,,,,,,,,,,,,,,,,,,,,,,,,,,,,,,,,,,,,,,,,,,,,,,,,,,,,,,,2023.0452985699994,None,2023.0452985699994,None,2023.0452985699994,None,m,1,0.8100878349996492,2024.580429873,None,2024.580429873,None,2024.580429873,None,2025.4460115809998,None,2025.4460115809998,None,2025.4460115809998,None,2025.4460115809998,None,,,,,,,,,,,,,,,,,,,,,,,,,,,,,,,,,,,,,,,,,,,,001,121,2020_Feb_11_1417,spring_faces,3.1.5,60.0039176556649,
condition files/Stage1_1.xlsx,,B1,T2,c,"['c', 'm']","['Clue', 'Monopoly']","[-0.15, 0.5]","[0.15, 0.5]",1,1,,,,,,,,,0,4,4,4,0,2,2,1,,,,,,,,,,,,,,,,,,,,,,,,,,,,,,,,,,,,,,,,,,,,,,,,,,,,,,,2027.412089214,None,2027.412089214,None,2027.412089214,None,c,1,1.883637994998935,2028.946914510001,None,2028.946914510001,None,2028.946914510001,None,2030.9129952799994,None,2030.9129952799994,None,2030.9129952799994,None,2030.9129952799994,None,,,,,,,,,,,,,,,,,,,,,,,,,,,,,,,,,,,,,,,,,,,,001,121,2020_Feb_11_1417,spring_faces,3.1.5,60.0039176556649,
condition files/Stage1_1.xlsx,,T1,B1,c,"['c', 'm']","['Clue', 'Monopoly']","[-0.15, 0.5]","[0.15, 0.5]",1,1,,,,,,,,,0,4,4,4,0,3,3,0,,,,,,,,,,,,,,,,,,,,,,,,,,,,,,,,,,,,,,,,,,,,,,,,,,,,,,,2032.8620970840002,None,2032.8620970840002,None,2032.8620970840002,None,c,1,2.096630207999624,2034.397923822,None,2034.397923822,None,2034.397923822,None,2036.546215462,None,2036.546215462,None,2036.546215462,None,2036.546215462,None,,,,,,,,,,,,,,,,,,,,,,,,,,,,,,,,,,,,,,,,,,,,001,121,2020_Feb_11_1417,spring_faces,3.1.5,60.0039176556649,
condition files/Stage1_1.xlsx,,T2,B2,m,"['c', 'm']","['Clue', 'Monopoly']","[-0.15, 0.5]","[0.15, 0.5]",1,1,,,,,,,,,0,4,4,4,0,4,4,3,,,,,,,,,,,,,,,,,,,,,,,,,,,,,,,,,,,,,,,,,,,,,,,,,,,,,,,2038.5121311880011,None,2038.5121311880011,None,2038.5121311880011,None,m,1,1.2475939119995019,2040.062938686,None,2040.062938686,None,2040.062938686,None,2041.3796326730007,None,2041.3796326730007,None,2041.3796326730007,None,2041.3796326730007,None,,,,,,,,,,,,,,,,,,,,,,,,,,,,,,,,,,,,,,,,,,,,001,121,2020_Feb_11_1417,spring_faces,3.1.5,60.0039176556649,
condition files/Stage1_1.xlsx,,B4,T4,m,"['c', 'm']","['Clue', 'Monopoly']","[-0.15, 0.5]","[0.15, 0.5]",1,1,,,,,,,,,0,4,4,4,0,5,5,7,,,,,,,,,,,,,,,,,,,,,,,,,,,,,,,,,,,,,,,,,,,,,,,,,,,,,,,2043.3293895980005,None,2043.3293895980005,None,2043.3293895980005,None,m,1,3.950881938000748,2044.863678873,None,2044.863678873,None,2044.863678873,None,2048.8793552610005,None,2048.8793552610005,None,2048.8793552610005,None,2048.8793552610005,None,,,,,,,,,,,,,,,,,,,,,,,,,,,,,,,,,,,,,,,,,,,,001,121,2020_Feb_11_1417,spring_faces,3.1.5,60.0039176556649,
condition files/Stage1_1.xlsx,,T3,B4,c,"['c', 'm']","['Clue', 'Monopoly']","[-0.15, 0.5]","[0.15, 0.5]",1,1,,,,,,,,,0,4,4,4,0,6,6,5,,,,,,,,,,,,,,,,,,,,,,,,,,,,,,,,,,,,,,,,,,,,,,,,,,,,,,,2050.845717026001,None,2050.845717026001,None,2050.845717026001,None,c,1,3.777731814001527,2052.3807992929997,None,2052.3807992929997,None,2052.3807992929997,None,2056.215213626001,None,2056.215213626001,None,2056.215213626001,None,2056.215213626001,None,,,,,,,,,,,,,,,,,,,,,,,,,,,,,,,,,,,,,,,,,,,,001,121,2020_Feb_11_1417,spring_faces,3.1.5,60.0039176556649,
condition files/Stage1_1.xlsx,,T4,B3,m,"['c', 'm']","['Clue', 'Monopoly']","[-0.15, 0.5]","[0.15, 0.5]",1,1,,,,,,,,,0,4,4,4,0,7,7,6,,,,,,,,,,,,,,,,,,,,,,,,,,,,,,,,,,,,,,,,,,,,,,,,,,,,,,,2058.1793835339995,None,2058.1793835339995,None,2058.1793835339995,None,m,1,1.90127008500167,2059.71325626,None,2059.71325626,None,2059.71325626,None,2061.680740097001,None,2061.680740097001,None,2061.680740097001,None,2061.680740097001,None,,,,,,,,,,,,,,,,,,,,,,,,,,,,,,,,,,,,,,,,,,,,001,121,2020_Feb_11_1417,spring_faces,3.1.5,60.0039176556649,
condition files/Stage1_2.xlsx,,B1,T1,c,"['c', 'm']","['Clue', 'Monopoly']","[-0.15, 0.5]","[0.15, 0.5]",1,1,,,,,,,,,0,5,5,5,0,0,0,0,,,,,,,,,,,,,,,,,,,,,,,,,,,,,,,,,,,,,,,,,,,,,,,,,,,,,,,2063.662707513,None,2063.662707513,None,2063.662707513,None,c,1,0.7694101979996049,2065.2131413629995,None,2065.2131413629995,None,2065.2131413629995,None,2066.0463437550006,None,2066.0463437550006,None,2066.0463437550006,None,2066.0463437550006,None,,,,,,,,,,,,,,,,,,,,,,,,,,,,,,,,,,,,,,,,,,,,001,121,2020_Feb_11_1417,spring_faces,3.1.5,60.0039176556649,
condition files/Stage1_2.xlsx,,B4,T3,c,"['c', 'm']","['Clue', 'Monopoly']","[-0.15, 0.5]","[0.15, 0.5]",1,1,,,,,,,,,0,5,5,5,0,1,1,5,,,,,,,,,,,,,,,,,,,,,,,,,,,,,,,,,,,,,,,,,,,,,,,,,,,,,,,2068.0127227909998,None,2068.0127227909998,None,2068.0127227909998,None,m,0,2.0366827480011125,2069.5458728859994,None,2069.5458728859994,None,2069.5458728859994,None,2071.6459309069996,None,2071.6459309069996,None,2071.6459309069996,None,2071.6459309069996,None,,,,,,,,,,,,,,,,,,,,,,,,,,,,,,,,,,,,,,,,,,,,001,121,2020_Feb_11_1417,spring_faces,3.1.5,60.0039176556649,
condition files/Stage1_2.xlsx,,T2,B1,c,"['c', 'm']","['Clue', 'Monopoly']","[-0.15, 0.5]","[0.15, 0.5]",1,1,,,,,,,,,0,5,5,5,0,2,2,1,,,,,,,,,,,,,,,,,,,,,,,,,,,,,,,,,,,,,,,,,,,,,,,,,,,,,,,2073.612802085001,None,2073.612802085001,None,2073.612802085001,None,c,1,1.155689203998918,2075.146933809001,None,2075.146933809001,None,2075.146933809001,None,2076.3627081600007,None,2076.3627081600007,None,2076.3627081600007,None,2076.3627081600007,None,,,,,,,,,,,,,,,,,,,,,,,,,,,,,,,,,,,,,,,,,,,,001,121,2020_Feb_11_1417,spring_faces,3.1.5,60.0039176556649,
condition files/Stage1_2.xlsx,,T3,B3,c,"['c', 'm']","['Clue', 'Monopoly']","[-0.15, 0.5]","[0.15, 0.5]",1,1,,,,,,,,,0,5,5,5,0,3,3,4,,,,,,,,,,,,,,,,,,,,,,,,,,,,,,,,,,,,,,,,,,,,,,,,,,,,,,,2078.328892022,None,2078.328892022,None,2078.328892022,None,m,0,1.7834424580014456,2079.8630664869997,None,2079.8630664869997,None,2079.8630664869997,None,2081.713109849001,None,2081.713109849001,None,2081.713109849001,None,2081.713109849001,None,,,,,,,,,,,,,,,,,,,,,,,,,,,,,,,,,,,,,,,,,,,,001,121,2020_Feb_11_1417,spring_faces,3.1.5,60.0039176556649,
condition files/Stage1_2.xlsx,,T4,B4,m,"['c', 'm']","['Clue', 'Monopoly']","[-0.15, 0.5]","[0.15, 0.5]",1,1,,,,,,,,,0,5,5,5,0,4,4,7,,,,,,,,,,,,,,,,,,,,,,,,,,,,,,,,,,,,,,,,,,,,,,,,,,,,,,,2083.678814453,None,2083.678814453,None,2083.678814453,None,c,0,2.592632878000586,2085.229845148,None,2085.229845148,None,2085.229845148,None,2087.896455580001,None,2087.896455580001,None,2087.896455580001,None,2087.896455580001,None,,,,,,,,,,,,,,,,,,,,,,,,,,,,,,,,,,,,,,,,,,,,001,121,2020_Feb_11_1417,spring_faces,3.1.5,60.0039176556649,
condition files/Stage1_2.xlsx,,B2,T2,m,"['c', 'm']","['Clue', 'Monopoly']","[-0.15, 0.5]","[0.15, 0.5]",1,1,,,,,,,,,0,5,5,5,0,5,5,3,,,,,,,,,,,,,,,,,,,,,,,,,,,,,,,,,,,,,,,,,,,,,,,,,,,,,,,2089.8455166149997,None,2089.8455166149997,None,2089.8455166149997,None,m,1,0.9386792429995694,2091.3958746030003,None,2091.3958746030003,None,2091.3958746030003,None,2092.395971043001,None,2092.395971043001,None,2092.395971043001,None,2092.395971043001,None,,,,,,,,,,,,,,,,,,,,,,,,,,,,,,,,,,,,,,,,,,,,001,121,2020_Feb_11_1417,spring_faces,3.1.5,60.0039176556649,
condition files/Stage1_2.xlsx,,B3,T4,m,"['c', 'm']","['Clue', 'Monopoly']","[-0.15, 0.5]","[0.15, 0.5]",1,1,,,,,,,,,0,5,5,5,0,6,6,6,,,,,,,,,,,,,,,,,,,,,,,,,,,,,,,,,,,,,,,,,,,,,,,,,,,,,,,2094.362171678,None,2094.362171678,None,2094.362171678,None,c,0,2.8529784590009513,2095.8975776810003,None,2095.8975776810003,None,2095.8975776810003,None,2098.8131636960006,None,2098.8131636960006,None,2098.8131636960006,None,2098.8131636960006,None,,,,,,,,,,,,,,,,,,,,,,,,,,,,,,,,,,,,,,,,,,,,001,121,2020_Feb_11_1417,spring_faces,3.1.5,60.0039176556649,
condition files/Stage1_2.xlsx,,T1,B2,m,"['c', 'm']","['Clue', 'Monopoly']","[-0.15, 0.5]","[0.15, 0.5]",1,1,,,,,,,,,0,5,5,5,0,7,7,2,,,,,,,,,,,,,,,,,,,,,,,,,,,,,,,,,,,,,,,,,,,,,,,,,,,,,,,2100.7793955279994,None,2100.7793955279994,None,2100.7793955279994,None,m,1,0.8688728109991644,2102.3296671490007,None,2102.3296671490007,None,2102.3296671490007,None,2103.2628807050005,None,2103.2628807050005,None,2103.2628807050005,None,2103.2628807050005,None,,,,,,,,,,,,,,,,,,,,,,,,,,,,,,,,,,,,,,,,,,,,001,121,2020_Feb_11_1417,spring_faces,3.1.5,60.0039176556649,
condition files/Stage1_1.xlsx,,T1,B1,c,"['c', 'm']","['Clue', 'Monopoly']","[-0.15, 0.5]","[0.15, 0.5]",1,1,,,,,,,,,0,6,6,6,0,0,0,0,,,,,,,,,,,,,,,,,,,,,,,,,,,,,,,,,,,,,,,,,,,,,,,,,,,,,,,2105.2461046669996,None,2105.2461046669996,None,2105.2461046669996,None,c,1,1.1394347310015291,2106.779156140001,None,2106.779156140001,None,2106.779156140001,None,2107.9792938009996,None,2107.9792938009996,None,2107.9792938009996,None,2107.9792938009996,None,,,,,,,,,,,,,,,,,,,,,,,,,,,,,,,,,,,,,,,,,,,,001,121,2020_Feb_11_1417,spring_faces,3.1.5,60.0039176556649,
condition files/Stage1_1.xlsx,,B4,T4,m,"['c', 'm']","['Clue', 'Monopoly']","[-0.15, 0.5]","[0.15, 0.5]",1,1,,,,,,,,,0,6,6,6,0,1,1,7,,,,,,,,,,,,,,,,,,,,,,,,,,,,,,,,,,,,,,,,,,,,,,,,,,,,,,,2109.9460881899995,None,2109.9460881899995,None,2109.9460881899995,None,m,1,2.1504343220003648,2111.4800903449996,None,2111.4800903449996,None,2111.4800903449996,None,2113.696754904,None,2113.696754904,None,2113.696754904,None,2113.696754904,None,,,,,,,,,,,,,,,,,,,,,,,,,,,,,,,,,,,,,,,,,,,,001,121,2020_Feb_11_1417,spring_faces,3.1.5,60.0039176556649,
condition files/Stage1_1.xlsx,,T4,B3,m,"['c', 'm']","['Clue', 'Monopoly']","[-0.15, 0.5]","[0.15, 0.5]",1,1,,,,,,,,,0,6,6,6,0,2,2,6,,,,,,,,,,,,,,,,,,,,,,,,,,,,,,,,,,,,,,,,,,,,,,,,,,,,,,,2115.662422577001,None,2115.662422577001,None,2115.662422577001,None,m,1,1.0265249790008966,2117.19594987,None,2117.19594987,None,2117.19594987,None,2118.2794518240007,None,2118.2794518240007,None,2118.2794518240007,None,2118.2794518240007,None,,,,,,,,,,,,,,,,,,,,,,,,,,,,,,,,,,,,,,,,,,,,001,121,2020_Feb_11_1417,spring_faces,3.1.5,60.0039176556649,
condition files/Stage1_1.xlsx,,T2,B2,m,"['c', 'm']","['Clue', 'Monopoly']","[-0.15, 0.5]","[0.15, 0.5]",1,1,,,,,,,,,0,6,6,6,0,3,3,3,,,,,,,,,,,,,,,,,,,,,,,,,,,,,,,,,,,,,,,,,,,,,,,,,,,,,,,2120.245324429001,None,2120.245324429001,None,2120.245324429001,None,m,1,0.8891094989994599,2121.781515953,None,2121.781515953,None,2121.781515953,None,2122.7292606070005,None,2122.7292606070005,None,2122.7292606070005,None,2122.7292606070005,None,,,,,,,,,,,,,,,,,,,,,,,,,,,,,,,,,,,,,,,,,,,,001,121,2020_Feb_11_1417,spring_faces,3.1.5,60.0039176556649,
condition files/Stage1_1.xlsx,,B3,T3,c,"['c', 'm']","['Clue', 'Monopoly']","[-0.15, 0.5]","[0.15, 0.5]",1,1,,,,,,,,,0,6,6,6,0,4,4,4,,,,,,,,,,,,,,,,,,,,,,,,,,,,,,,,,,,,,,,,,,,,,,,,,,,,,,,2124.6957485700004,None,2124.6957485700004,None,2124.6957485700004,None,m,0,1.4804846040005941,2126.246023687001,None,2126.246023687001,None,2126.246023687001,None,2127.7811362360007,None,2127.7811362360007,None,2127.7811362360007,None,2127.7811362360007,None,,,,,,,,,,,,,,,,,,,,,,,,,,,,,,,,,,,,,,,,,,,,001,121,2020_Feb_11_1417,spring_faces,3.1.5,60.0039176556649,
condition files/Stage1_1.xlsx,,B2,T1,m,"['c', 'm']","['Clue', 'Monopoly']","[-0.15, 0.5]","[0.15, 0.5]",1,1,,,,,,,,,0,6,6,6,0,5,5,2,,,,,,,,,,,,,,,,,,,,,,,,,,,,,,,,,,,,,,,,,,,,,,,,,,,,,,,2129.7462067079996,None,2129.7462067079996,None,2129.7462067079996,None,m,1,0.6063614310005505,2131.2962215959997,None,2131.2962215959997,None,2131.2962215959997,None,2131.9625415169994,None,2131.9625415169994,None,2131.9625415169994,None,2131.9625415169994,None,,,,,,,,,,,,,,,,,,,,,,,,,,,,,,,,,,,,,,,,,,,,001,121,2020_Feb_11_1417,spring_faces,3.1.5,60.0039176556649,
condition files/Stage1_1.xlsx,,T3,B4,c,"['c', 'm']","['Clue', 'Monopoly']","[-0.15, 0.5]","[0.15, 0.5]",1,1,,,,,,,,,0,6,6,6,0,6,6,5,,,,,,,,,,,,,,,,,,,,,,,,,,,,,,,,,,,,,,,,,,,,,,,,,,,,,,,2133.928991058001,None,2133.928991058001,None,2133.928991058001,None,c,1,1.575140877001104,2135.463484203001,None,2135.463484203001,None,2135.463484203001,None,2137.0974000450005,None,2137.0974000450005,None,2137.0974000450005,None,2137.0974000450005,None,,,,,,,,,,,,,,,,,,,,,,,,,,,,,,,,,,,,,,,,,,,,001,121,2020_Feb_11_1417,spring_faces,3.1.5,60.0039176556649,
condition files/Stage1_1.xlsx,,B1,T2,c,"['c', 'm']","['Clue', 'Monopoly']","[-0.15, 0.5]","[0.15, 0.5]",1,1,,,,,,,,,0,6,6,6,0,7,7,1,,,,,,,,,,,,,,,,,,,,,,,,,,,,,,,,,,,,,,,,,,,,,,,,,,,,,,,2139.062478639,None,2139.062478639,None,2139.062478639,None,c,1,0.8903436990003684,2140.5962870599997,None,2140.5962870599997,None,2140.5962870599997,None,2141.5463659340003,None,2141.5463659340003,None,2141.5463659340003,None,2141.5463659340003,None,,,,,,,,,,,,,,,,,,,,,,,,,,,,,,,,,,,,,,,,,,,,001,121,2020_Feb_11_1417,spring_faces,3.1.5,60.0039176556649,
condition files/Stage1_2.xlsx,,T4,B4,m,"['c', 'm']","['Clue', 'Monopoly']","[-0.15, 0.5]","[0.15, 0.5]",1,1,,,,,,,,,0,7,7,7,0,0,0,7,,,,,,,,,,,,,,,,,,,,,,,,,,,,,,,,,,,,,,,,,,,,,,,,,,,,,,,2143.5296901849997,None,2143.5296901849997,None,2143.5296901849997,None,m,1,1.750164985000083,2145.0644024760004,None,2145.0644024760004,None,2145.0644024760004,None,2146.896234322001,None,2146.896234322001,None,2146.896234322001,None,2146.896234322001,None,,,,,,,,,,,,,,,,,,,,,,,,,,,,,,,,,,,,,,,,,,,,001,121,2020_Feb_11_1417,spring_faces,3.1.5,60.0039176556649,
condition files/Stage1_2.xlsx,,T3,B3,c,"['c', 'm']","['Clue', 'Monopoly']","[-0.15, 0.5]","[0.15, 0.5]",1,1,,,,,,,,,0,7,7,7,0,1,1,4,,,,,,,,,,,,,,,,,,,,,,,,,,,,,,,,,,,,,,,,,,,,,,,,,,,,,,,2148.8456837350004,None,2148.8456837350004,None,2148.8456837350004,None,c,1,1.9221440509991226,2150.3804797249995,None,2150.3804797249995,None,2150.3804797249995,None,2152.3646501040002,None,2152.3646501040002,None,2152.3646501040002,None,2152.3646501040002,None,,,,,,,,,,,,,,,,,,,,,,,,,,,,,,,,,,,,,,,,,,,,001,121,2020_Feb_11_1417,spring_faces,3.1.5,60.0039176556649,
condition files/Stage1_2.xlsx,,B3,T4,m,"['c', 'm']","['Clue', 'Monopoly']","[-0.15, 0.5]","[0.15, 0.5]",1,1,,,,,,,,,0,7,7,7,0,2,2,6,,,,,,,,,,,,,,,,,,,,,,,,,,,,,,,,,,,,,,,,,,,,,,,,,,,,,,,2154.329420446,None,2154.329420446,None,2154.329420446,None,c,0,0.6636337910003931,2155.862893871001,None,2155.862893871001,None,2155.862893871001,None,2156.596428371,None,2156.596428371,None,2156.596428371,None,2156.596428371,None,,,,,,,,,,,,,,,,,,,,,,,,,,,,,,,,,,,,,,,,,,,,001,121,2020_Feb_11_1417,spring_faces,3.1.5,60.0039176556649,
condition files/Stage1_2.xlsx,,T1,B2,m,"['c', 'm']","['Clue', 'Monopoly']","[-0.15, 0.5]","[0.15, 0.5]",1,1,,,,,,,,,0,7,7,7,0,3,3,2,,,,,,,,,,,,,,,,,,,,,,,,,,,,,,,,,,,,,,,,,,,,,,,,,,,,,,,2158.5455046650004,None,2158.5455046650004,None,2158.5455046650004,None,m,1,0.6863066269997944,2160.096236448,None,2160.096236448,None,2160.096236448,None,2160.846450903,None,2160.846450903,None,2160.846450903,None,2160.846450903,None,,,,,,,,,,,,,,,,,,,,,,,,,,,,,,,,,,,,,,,,,,,,001,121,2020_Feb_11_1417,spring_faces,3.1.5,60.0039176556649,
condition files/Stage1_2.xlsx,,T2,B1,c,"['c', 'm']","['Clue', 'Monopoly']","[-0.15, 0.5]","[0.15, 0.5]",1,1,,,,,,,,,0,7,7,7,0,4,4,1,,,,,,,,,,,,,,,,,,,,,,,,,,,,,,,,,,,,,,,,,,,,,,,,,,,,,,,2162.8126931200004,None,2162.8126931200004,None,2162.8126931200004,None,c,1,1.3962205909992917,2164.3623248740005,None,2164.3623248740005,None,2164.3623248740005,None,2165.814223223,None,2165.814223223,None,2165.814223223,None,2165.814223223,None,,,,,,,,,,,,,,,,,,,,,,,,,,,,,,,,,,,,,,,,,,,,001,121,2020_Feb_11_1417,spring_faces,3.1.5,60.0039176556649,
condition files/Stage1_2.xlsx,,B4,T3,c,"['c', 'm']","['Clue', 'Monopoly']","[-0.15, 0.5]","[0.15, 0.5]",1,1,,,,,,,,,0,7,7,7,0,5,5,5,,,,,,,,,,,,,,,,,,,,,,,,,,,,,,,,,,,,,,,,,,,,,,,,,,,,,,,2167.7790281630005,None,2167.7790281630005,None,2167.7790281630005,None,c,1,3.0835717959998874,2169.3149924709996,None,2169.3149924709996,None,2169.3149924709996,None,2172.4629850870006,None,2172.4629850870006,None,2172.4629850870006,None,2172.4629850870006,None,,,,,,,,,,,,,,,,,,,,,,,,,,,,,,,,,,,,,,,,,,,,001,121,2020_Feb_11_1417,spring_faces,3.1.5,60.0039176556649,
condition files/Stage1_2.xlsx,,B2,T2,m,"['c', 'm']","['Clue', 'Monopoly']","[-0.15, 0.5]","[0.15, 0.5]",1,1,,,,,,,,,0,7,7,7,0,6,6,3,,,,,,,,,,,,,,,,,,,,,,,,,,,,,,,,,,,,,,,,,,,,,,,,,,,,,,,2174.4293323750007,None,2174.4293323750007,None,2174.4293323750007,None,m,1,1.3309599320000416,2175.9636040059995,None,2175.9636040059995,None,2175.9636040059995,None,2177.3631319329997,None,2177.3631319329997,None,2177.3631319329997,None,2177.3631319329997,None,,,,,,,,,,,,,,,,,,,,,,,,,,,,,,,,,,,,,,,,,,,,001,121,2020_Feb_11_1417,spring_faces,3.1.5,60.0039176556649,
condition files/Stage1_2.xlsx,,B1,T1,c,"['c', 'm']","['Clue', 'Monopoly']","[-0.15, 0.5]","[0.15, 0.5]",1,1,,,,,,,,,0,7,7,7,0,7,7,0,,,,,,,,,,,,,,,,,,,,,,,,,,,,,,,,,,,,,,,,,,,,,,,,,,,,,,,2179.312085353,None,2179.312085353,None,2179.312085353,None,c,1,0.8161890539995511,2180.8623517819997,None,2180.8623517819997,None,2180.8623517819997,None,2181.732021115,None,2181.732021115,None,2181.732021115,None,2181.732021115,None,,,,,,,,,,,,,,,,,,,,,,,,,,,,,,,,,,,,,,,,,,,,001,121,2020_Feb_11_1417,spring_faces,3.1.5,60.0039176556649,
condition files/Stage1_1.xlsx,,T2,B2,m,"['c', 'm']","['Clue', 'Monopoly']","[-0.15, 0.5]","[0.15, 0.5]",1,1,,,,,,,,,0,8,8,8,0,0,0,3,,,,,,,,,,,,,,,,,,,,,,,,,,,,,,,,,,,,,,,,,,,,,,,,,,,,,,,2183.713026704001,None,2183.713026704001,None,2183.713026704001,None,m,1,1.0557948090008722,2185.262802219,None,2185.262802219,None,2185.262802219,None,2186.381646990001,None,2186.381646990001,None,2186.381646990001,None,2186.381646990001,None,,,,,,,,,,,,,,,,,,,,,,,,,,,,,,,,,,,,,,,,,,,,001,121,2020_Feb_11_1417,spring_faces,3.1.5,60.0039176556649,
condition files/Stage1_1.xlsx,,B3,T3,c,"['c', 'm']","['Clue', 'Monopoly']","[-0.15, 0.5]","[0.15, 0.5]",1,1,,,,,,,,,0,8,8,8,0,1,1,4,,,,,,,,,,,,,,,,,,,,,,,,,,,,,,,,,,,,,,,,,,,,,,,,,,,,,,,2188.346212722001,None,2188.346212722001,None,2188.346212722001,None,c,1,1.590332113999466,2189.880292060001,None,2189.880292060001,None,2189.880292060001,None,2191.529262232001,None,2191.529262232001,None,2191.529262232001,None,2191.529262232001,None,,,,,,,,,,,,,,,,,,,,,,,,,,,,,,,,,,,,,,,,,,,,001,121,2020_Feb_11_1417,spring_faces,3.1.5,60.0039176556649,
condition files/Stage1_1.xlsx,,B1,T2,c,"['c', 'm']","['Clue', 'Monopoly']","[-0.15, 0.5]","[0.15, 0.5]",1,1,,,,,,,,,0,8,8,8,0,2,2,1,,,,,,,,,,,,,,,,,,,,,,,,,,,,,,,,,,,,,,,,,,,,,,,,,,,,,,,2193.4961419720003,None,2193.4961419720003,None,2193.4961419720003,None,c,1,1.1920159540004533,2195.0305130300003,None,2195.0305130300003,None,2195.0305130300003,None,2196.2789941480005,None,2196.2789941480005,None,2196.2789941480005,None,2196.2789941480005,None,,,,,,,,,,,,,,,,,,,,,,,,,,,,,,,,,,,,,,,,,,,,001,121,2020_Feb_11_1417,spring_faces,3.1.5,60.0039176556649,
condition files/Stage1_1.xlsx,,B2,T1,m,"['c', 'm']","['Clue', 'Monopoly']","[-0.15, 0.5]","[0.15, 0.5]",1,1,,,,,,,,,0,8,8,8,0,3,3,2,,,,,,,,,,,,,,,,,,,,,,,,,,,,,,,,,,,,,,,,,,,,,,,,,,,,,,,2198.2457409340004,None,2198.2457409340004,None,2198.2457409340004,None,m,1,2.650758678000784,2199.7957474560008,None,2199.7957474560008,None,2199.7957474560008,None,2202.5131277670007,None,2202.5131277670007,None,2202.5131277670007,None,2202.5131277670007,None,,,,,,,,,,,,,,,,,,,,,,,,,,,,,,,,,,,,,,,,,,,,001,121,2020_Feb_11_1417,spring_faces,3.1.5,60.0039176556649,
condition files/Stage1_1.xlsx,,T4,B3,m,"['c', 'm']","['Clue', 'Monopoly']","[-0.15, 0.5]","[0.15, 0.5]",1,1,,,,,,,,,0,8,8,8,0,4,4,6,,,,,,,,,,,,,,,,,,,,,,,,,,,,,,,,,,,,,,,,,,,,,,,,,,,,,,,2204.4796362079996,None,2204.4796362079996,None,2204.4796362079996,None,m,1,1.553257499999745,2206.013309852,None,2206.013309852,None,2206.013309852,None,2207.629774903,None,2207.629774903,None,2207.629774903,None,2207.629774903,None,,,,,,,,,,,,,,,,,,,,,,,,,,,,,,,,,,,,,,,,,,,,001,121,2020_Feb_11_1417,spring_faces,3.1.5,60.0039176556649,
condition files/Stage1_1.xlsx,,T1,B1,c,"['c', 'm']","['Clue', 'Monopoly']","[-0.15, 0.5]","[0.15, 0.5]",1,1,,,,,,,,,0,8,8,8,0,5,5,0,,,,,,,,,,,,,,,,,,,,,,,,,,,,,,,,,,,,,,,,,,,,,,,,,,,,,,,2209.5960394699996,None,2209.5960394699996,None,2209.5960394699996,None,c,1,1.6841372420003609,2211.146356528001,None,2211.146356528001,None,2211.146356528001,None,2212.895981818001,None,2212.895981818001,None,2212.895981818001,None,2212.895981818001,None,,,,,,,,,,,,,,,,,,,,,,,,,,,,,,,,,,,,,,,,,,,,001,121,2020_Feb_11_1417,spring_faces,3.1.5,60.0039176556649,
condition files/Stage1_1.xlsx,,B4,T4,m,"['c', 'm']","['Clue', 'Monopoly']","[-0.15, 0.5]","[0.15, 0.5]",1,1,,,,,,,,,0,8,8,8,0,6,6,7,,,,,,,,,,,,,,,,,,,,,,,,,,,,,,,,,,,,,,,,,,,,,,,,,,,,,,,2214.862869533001,None,2214.862869533001,None,2214.862869533001,None,c,0,2.1305864570003905,2216.395957287001,None,2216.395957287001,None,2216.395957287001,None,2218.5814087399995,None,2218.5814087399995,None,2218.5814087399995,None,2218.5814087399995,None,,,,,,,,,,,,,,,,,,,,,,,,,,,,,,,,,,,,,,,,,,,,001,121,2020_Feb_11_1417,spring_faces,3.1.5,60.0039176556649,
condition files/Stage1_1.xlsx,,T3,B4,c,"['c', 'm']","['Clue', 'Monopoly']","[-0.15, 0.5]","[0.15, 0.5]",1,1,,,,,,,,,0,8,8,8,0,7,7,5,,,,,,,,,,,,,,,,,,,,,,,,,,,,,,,,,,,,,,,,,,,,,,,,,,,,,,,2220.546209221,None,2220.546209221,None,2220.546209221,None,c,1,1.2447528470001998,2222.0818010450002,None,2222.0818010450002,None,2222.0818010450002,None,2223.3798865419994,None,2223.3798865419994,None,2223.3798865419994,None,2223.3798865419994,None,,,,,,,,,,,,,,,,,,,,,,,,,,,,,,,,,,,,,,,,,,,,001,121,2020_Feb_11_1417,spring_faces,3.1.5,60.0039176556649,
condition files/Stage1_2.xlsx,,B2,T2,m,"['c', 'm']","['Clue', 'Monopoly']","[-0.15, 0.5]","[0.15, 0.5]",1,1,,,,,,,,,0,9,9,9,0,0,0,3,,,,,,,,,,,,,,,,,,,,,,,,,,,,,,,,,,,,,,,,,,,,,,,,,,,,,,,2225.3627377020002,None,2225.3627377020002,None,2225.3627377020002,None,m,1,0.6702732070007187,2226.9123054730007,None,2226.9123054730007,None,2226.9123054730007,None,2227.647530440001,None,2227.647530440001,None,2227.647530440001,None,2227.647530440001,None,,,,,,,,,,,,,,,,,,,,,,,,,,,,,,,,,,,,,,,,,,,,001,121,2020_Feb_11_1417,spring_faces,3.1.5,60.0039176556649,
condition files/Stage1_2.xlsx,,B4,T3,c,"['c', 'm']","['Clue', 'Monopoly']","[-0.15, 0.5]","[0.15, 0.5]",1,1,,,,,,,,,0,9,9,9,0,1,1,5,,,,,,,,,,,,,,,,,,,,,,,,,,,,,,,,,,,,,,,,,,,,,,,,,,,,,,,2229.612666144001,None,2229.612666144001,None,2229.612666144001,None,c,1,1.6366421030015772,2231.1459229520005,None,2231.1459229520005,None,2231.1459229520005,None,2232.8465378010005,None,2232.8465378010005,None,2232.8465378010005,None,2232.8465378010005,None,,,,,,,,,,,,,,,,,,,,,,,,,,,,,,,,,,,,,,,,,,,,001,121,2020_Feb_11_1417,spring_faces,3.1.5,60.0039176556649,
condition files/Stage1_2.xlsx,,T4,B4,m,"['c', 'm']","['Clue', 'Monopoly']","[-0.15, 0.5]","[0.15, 0.5]",1,1,,,,,,,,,0,9,9,9,0,2,2,7,,,,,,,,,,,,,,,,,,,,,,,,,,,,,,,,,,,,,,,,,,,,,,,,,,,,,,,2234.8127411839996,None,2234.8127411839996,None,2234.8127411839996,None,m,1,1.3966681009987951,2236.3459030640006,None,2236.3459030640006,None,2236.3459030640006,None,2237.798458092,None,2237.798458092,None,2237.798458092,None,2237.798458092,None,,,,,,,,,,,,,,,,,,,,,,,,,,,,,,,,,,,,,,,,,,,,001,121,2020_Feb_11_1417,spring_faces,3.1.5,60.0039176556649,
condition files/Stage1_2.xlsx,,B1,T1,c,"['c', 'm']","['Clue', 'Monopoly']","[-0.15, 0.5]","[0.15, 0.5]",1,1,,,,,,,,,0,9,9,9,0,3,3,0,,,,,,,,,,,,,,,,,,,,,,,,,,,,,,,,,,,,,,,,,,,,,,,,,,,,,,,2239.7628207010002,None,2239.7628207010002,None,2239.7628207010002,None,c,1,0.8284051319988066,2241.298083222,None,2241.298083222,None,2241.298083222,None,2242.196418437001,None,2242.196418437001,None,2242.196418437001,None,2242.196418437001,None,,,,,,,,,,,,,,,,,,,,,,,,,,,,,,,,,,,,,,,,,,,,001,121,2020_Feb_11_1417,spring_faces,3.1.5,60.0039176556649,
condition files/Stage1_2.xlsx,,T1,B2,m,"['c', 'm']","['Clue', 'Monopoly']","[-0.15, 0.5]","[0.15, 0.5]",1,1,,,,,,,,,0,9,9,9,0,4,4,2,,,,,,,,,,,,,,,,,,,,,,,,,,,,,,,,,,,,,,,,,,,,,,,,,,,,,,,2244.1461460459996,None,2244.1461460459996,None,2244.1461460459996,None,m,1,0.974830822999138,2245.6957709920007,None,2245.6957709920007,None,2245.6957709920007,None,2246.730994613001,None,2246.730994613001,None,2246.730994613001,None,2246.730994613001,None,,,,,,,,,,,,,,,,,,,,,,,,,,,,,,,,,,,,,,,,,,,,001,121,2020_Feb_11_1417,spring_faces,3.1.5,60.0039176556649,
condition files/Stage1_2.xlsx,,T3,B3,c,"['c', 'm']","['Clue', 'Monopoly']","[-0.15, 0.5]","[0.15, 0.5]",1,1,,,,,,,,,0,9,9,9,0,5,5,4,,,,,,,,,,,,,,,,,,,,,,,,,,,,,,,,,,,,,,,,,,,,,,,,,,,,,,,2248.6961211300004,None,2248.6961211300004,None,2248.6961211300004,None,c,1,1.704339609001181,2250.2462080019995,None,2250.2462080019995,None,2250.2462080019995,None,2252.0295000549995,None,2252.0295000549995,None,2252.0295000549995,None,2252.0295000549995,None,,,,,,,,,,,,,,,,,,,,,,,,,,,,,,,,,,,,,,,,,,,,001,121,2020_Feb_11_1417,spring_faces,3.1.5,60.0039176556649,
condition files/Stage1_2.xlsx,,T2,B1,c,"['c', 'm']","['Clue', 'Monopoly']","[-0.15, 0.5]","[0.15, 0.5]",1,1,,,,,,,,,0,9,9,9,0,6,6,1,,,,,,,,,,,,,,,,,,,,,,,,,,,,,,,,,,,,,,,,,,,,,,,,,,,,,,,2253.979385824001,None,2253.979385824001,None,2253.979385824001,None,c,1,2.3558425009996427,2255.514777335,None,2255.514777335,None,2255.514777335,None,2257.930214115,None,2257.930214115,None,2257.930214115,None,2257.930214115,None,,,,,,,,,,,,,,,,,,,,,,,,,,,,,,,,,,,,,,,,,,,,001,121,2020_Feb_11_1417,spring_faces,3.1.5,60.0039176556649,
condition files/Stage1_2.xlsx,,B3,T4,m,"['c', 'm']","['Clue', 'Monopoly']","[-0.15, 0.5]","[0.15, 0.5]",1,1,,,,,,,,,0,9,9,9,0,7,7,6,,,,,,,,,,,,,,,,,,,,,,,,,,,,,,,,,,,,,,,,,,,,,,,,,,,,,,,2259.895720261,None,2259.895720261,None,2259.895720261,None,c,0,2.0235915730008855,2261.431048917,None,2261.431048917,None,2261.431048917,None,2263.5131449580003,None,2263.5131449580003,None,2263.5131449580003,None,2263.5131449580003,None,,,,,,,,,,,,,,,,,,,,,,,,,,,,,,,,,,,,,,,,,,,,001,121,2020_Feb_11_1417,spring_faces,3.1.5,60.0039176556649,
condition files/Stage1_1.xlsx,,T4,B3,m,"['c', 'm']","['Clue', 'Monopoly']","[-0.15, 0.5]","[0.15, 0.5]",1,1,,,,,,,,,0,10,10,10,0,0,0,6,,,,,,,,,,,,,,,,,,,,,,,,,,,,,,,,,,,,,,,,,,,,,,,,,,,,,,,2265.496227024001,None,2265.496227024001,None,2265.496227024001,None,m,1,0.984155850001116,2267.0463347990008,None,2267.0463347990008,None,2267.0463347990008,None,2268.096320806,None,2268.096320806,None,2268.096320806,None,2268.096320806,None,,,,,,,,,,,,,,,,,,,,,,,,,,,,,,,,,,,,,,,,,,,,001,121,2020_Feb_11_1417,spring_faces,3.1.5,60.0039176556649,
condition files/Stage1_1.xlsx,,T2,B2,m,"['c', 'm']","['Clue', 'Monopoly']","[-0.15, 0.5]","[0.15, 0.5]",1,1,,,,,,,,,0,10,10,10,0,1,1,3,,,,,,,,,,,,,,,,,,,,,,,,,,,,,,,,,,,,,,,,,,,,,,,,,,,,,,,2270.0626662880004,None,2270.0626662880004,None,2270.0626662880004,None,m,1,0.7524696170003153,2271.598098112001,None,2271.598098112001,None,2271.598098112001,None,2272.4130315910006,None,2272.4130315910006,None,2272.4130315910006,None,2272.4130315910006,None,,,,,,,,,,,,,,,,,,,,,,,,,,,,,,,,,,,,,,,,,,,,001,121,2020_Feb_11_1417,spring_faces,3.1.5,60.0039176556649,
condition files/Stage1_1.xlsx,,B3,T3,c,"['c', 'm']","['Clue', 'Monopoly']","[-0.15, 0.5]","[0.15, 0.5]",1,1,,,,,,,,,0,10,10,10,0,2,2,4,,,,,,,,,,,,,,,,,,,,,,,,,,,,,,,,,,,,,,,,,,,,,,,,,,,,,,,2274.379391962,None,2274.379391962,None,2274.379391962,None,c,1,1.2685907759987458,2275.913977039001,None,2275.913977039001,None,2275.913977039001,None,2277.245881236,None,2277.245881236,None,2277.245881236,None,2277.245881236,None,,,,,,,,,,,,,,,,,,,,,,,,,,,,,,,,,,,,,,,,,,,,001,121,2020_Feb_11_1417,spring_faces,3.1.5,60.0039176556649,
condition files/Stage1_1.xlsx,,B4,T4,m,"['c', 'm']","['Clue', 'Monopoly']","[-0.15, 0.5]","[0.15, 0.5]",1,1,,,,,,,,,0,10,10,10,0,3,3,7,,,,,,,,,,,,,,,,,,,,,,,,,,,,,,,,,,,,,,,,,,,,,,,,,,,,,,,2279.2128920760006,None,2279.2128920760006,None,2279.2128920760006,None,m,1,1.4452327620001597,2280.74528741,None,2280.74528741,None,2280.74528741,None,2282.248758932001,None,2282.248758932001,None,2282.248758932001,None,2282.248758932001,None,,,,,,,,,,,,,,,,,,,,,,,,,,,,,,,,,,,,,,,,,,,,001,121,2020_Feb_11_1417,spring_faces,3.1.5,60.0039176556649,
condition files/Stage1_1.xlsx,,B2,T1,m,"['c', 'm']","['Clue', 'Monopoly']","[-0.15, 0.5]","[0.15, 0.5]",1,1,,,,,,,,,0,10,10,10,0,4,4,2,,,,,,,,,,,,,,,,,,,,,,,,,,,,,,,,,,,,,,,,,,,,,,,,,,,,,,,2284.212405335,None,2284.212405335,None,2284.212405335,None,m,1,2.523510207000072,2285.7630872669997,None,2285.7630872669997,None,2285.7630872669997,None,2288.3460814909995,None,2288.3460814909995,None,2288.3460814909995,None,2288.3460814909995,None,,,,,,,,,,,,,,,,,,,,,,,,,,,,,,,,,,,,,,,,,,,,001,121,2020_Feb_11_1417,spring_faces,3.1.5,60.0039176556649,
condition files/Stage1_1.xlsx,,T3,B4,c,"['c', 'm']","['Clue', 'Monopoly']","[-0.15, 0.5]","[0.15, 0.5]",1,1,,,,,,,,,0,10,10,10,0,5,5,5,,,,,,,,,,,,,,,,,,,,,,,,,,,,,,,,,,,,,,,,,,,,,,,,,,,,,,,2290.312740779,None,2290.312740779,None,2290.312740779,None,c,1,0.9841284319991246,2291.862345742,None,2291.862345742,None,2291.862345742,None,2292.913576535,None,2292.913576535,None,2292.913576535,None,2292.913576535,None,,,,,,,,,,,,,,,,,,,,,,,,,,,,,,,,,,,,,,,,,,,,001,121,2020_Feb_11_1417,spring_faces,3.1.5,60.0039176556649,
condition files/Stage1_1.xlsx,,B1,T2,c,"['c', 'm']","['Clue', 'Monopoly']","[-0.15, 0.5]","[0.15, 0.5]",1,1,,,,,,,,,0,10,10,10,0,6,6,1,,,,,,,,,,,,,,,,,,,,,,,,,,,,,,,,,,,,,,,,,,,,,,,,,,,,,,,2294.8791572339996,None,2294.8791572339996,None,2294.8791572339996,None,c,1,2.368354583000837,2296.414206722,None,2296.414206722,None,2296.414206722,None,2298.8462364879997,None,2298.8462364879997,None,2298.8462364879997,None,2298.8462364879997,None,,,,,,,,,,,,,,,,,,,,,,,,,,,,,,,,,,,,,,,,,,,,001,121,2020_Feb_11_1417,spring_faces,3.1.5,60.0039176556649,
condition files/Stage1_1.xlsx,,T1,B1,c,"['c', 'm']","['Clue', 'Monopoly']","[-0.15, 0.5]","[0.15, 0.5]",1,1,,,,,,,,,0,10,10,10,0,7,7,0,,,,,,,,,,,,,,,,,,,,,,,,,,,,,,,,,,,,,,,,,,,,,,,,,,,,,,,2300.812555785,None,2300.812555785,None,2300.812555785,None,c,1,1.4916689370002132,2302.362943276001,None,2302.362943276001,None,2302.362943276001,None,2303.9131679660004,None,2303.9131679660004,None,2303.9131679660004,None,2303.9131679660004,None,,,,,,,,,,,,,,,,,,,,,,,,,,,,,,,,,,,,,,,,,,,,001,121,2020_Feb_11_1417,spring_faces,3.1.5,60.0039176556649,
condition files/Stage1_2.xlsx,,B1,T1,c,"['c', 'm']","['Clue', 'Monopoly']","[-0.15, 0.5]","[0.15, 0.5]",1,1,,,,,,,,,0,11,11,11,0,0,0,0,,,,,,,,,,,,,,,,,,,,,,,,,,,,,,,,,,,,,,,,,,,,,,,,,,,,,,,2305.8960420580006,None,2305.8960420580006,None,2305.8960420580006,None,c,1,1.5121243510002387,2307.430467190001,None,2307.430467190001,None,2307.430467190001,None,2308.996528144,None,2308.996528144,None,2308.996528144,None,2308.996528144,None,,,,,,,,,,,,,,,,,,,,,,,,,,,,,,,,,,,,,,,,,,,,001,121,2020_Feb_11_1417,spring_faces,3.1.5,60.0039176556649,
condition files/Stage1_2.xlsx,,B2,T2,m,"['c', 'm']","['Clue', 'Monopoly']","[-0.15, 0.5]","[0.15, 0.5]",1,1,,,,,,,,,0,11,11,11,0,1,1,3,,,,,,,,,,,,,,,,,,,,,,,,,,,,,,,,,,,,,,,,,,,,,,,,,,,,,,,2310.9619602349994,None,2310.9619602349994,None,2310.9619602349994,None,m,1,2.7965791579990764,2312.4979827000006,None,2312.4979827000006,None,2312.4979827000006,None,2315.348378558001,None,2315.348378558001,None,2315.348378558001,None,2315.348378558001,None,,,,,,,,,,,,,,,,,,,,,,,,,,,,,,,,,,,,,,,,,,,,001,121,2020_Feb_11_1417,spring_faces,3.1.5,60.0039176556649,
condition files/Stage1_2.xlsx,,B3,T4,m,"['c', 'm']","['Clue', 'Monopoly']","[-0.15, 0.5]","[0.15, 0.5]",1,1,,,,,,,,,0,11,11,11,0,2,2,6,,,,,,,,,,,,,,,,,,,,,,,,,,,,,,,,,,,,,,,,,,,,,,,,,,,,,,,2317.3128539650006,None,2317.3128539650006,None,2317.3128539650006,None,m,1,1.7899417640001047,2318.848676892001,None,2318.848676892001,None,2318.848676892001,None,2320.6958655220005,None,2320.6958655220005,None,2320.6958655220005,None,2320.6958655220005,None,,,,,,,,,,,,,,,,,,,,,,,,,,,,,,,,,,,,,,,,,,,,001,121,2020_Feb_11_1417,spring_faces,3.1.5,60.0039176556649,
condition files/Stage1_2.xlsx,,T4,B4,m,"['c', 'm']","['Clue', 'Monopoly']","[-0.15, 0.5]","[0.15, 0.5]",1,1,,,,,,,,,0,11,11,11,0,3,3,7,,,,,,,,,,,,,,,,,,,,,,,,,,,,,,,,,,,,,,,,,,,,,,,,,,,,,,,2322.662317171,None,2322.662317171,None,2322.662317171,None,m,1,3.257946820998768,2324.196680113,None,2324.196680113,None,2324.196680113,None,2327.5132406110006,None,2327.5132406110006,None,2327.5132406110006,None,2327.5132406110006,None,,,,,,,,,,,,,,,,,,,,,,,,,,,,,,,,,,,,,,,,,,,,001,121,2020_Feb_11_1417,spring_faces,3.1.5,60.0039176556649,
condition files/Stage1_2.xlsx,,T1,B2,m,"['c', 'm']","['Clue', 'Monopoly']","[-0.15, 0.5]","[0.15, 0.5]",1,1,,,,,,,,,0,11,11,11,0,4,4,2,,,,,,,,,,,,,,,,,,,,,,,,,,,,,,,,,,,,,,,,,,,,,,,,,,,,,,,2329.478781232001,None,2329.478781232001,None,2329.478781232001,None,m,1,0.9526125499996851,2331.0299331059996,None,2331.0299331059996,None,2331.0299331059996,None,2332.0463759350005,None,2332.0463759350005,None,2332.0463759350005,None,2332.0463759350005,None,,,,,,,,,,,,,,,,,,,,,,,,,,,,,,,,,,,,,,,,,,,,001,121,2020_Feb_11_1417,spring_faces,3.1.5,60.0039176556649,
condition files/Stage1_2.xlsx,,B4,T3,c,"['c', 'm']","['Clue', 'Monopoly']","[-0.15, 0.5]","[0.15, 0.5]",1,1,,,,,,,,,0,11,11,11,0,5,5,5,,,,,,,,,,,,,,,,,,,,,,,,,,,,,,,,,,,,,,,,,,,,,,,,,,,,,,,2334.01265902,None,2334.01265902,None,2334.01265902,None,c,1,1.4920298470005946,2335.546585528,None,2335.546585528,None,2335.546585528,None,2337.0963896920002,None,2337.0963896920002,None,2337.0963896920002,None,2337.0963896920002,None,,,,,,,,,,,,,,,,,,,,,,,,,,,,,,,,,,,,,,,,,,,,001,121,2020_Feb_11_1417,spring_faces,3.1.5,60.0039176556649,
condition files/Stage1_2.xlsx,,T2,B1,c,"['c', 'm']","['Clue', 'Monopoly']","[-0.15, 0.5]","[0.15, 0.5]",1,1,,,,,,,,,0,11,11,11,0,6,6,1,,,,,,,,,,,,,,,,,,,,,,,,,,,,,,,,,,,,,,,,,,,,,,,,,,,,,,,2339.062162982,None,2339.062162982,None,2339.062162982,None,c,1,2.089532488998884,2340.5970901,None,2340.5970901,None,2340.5970901,None,2342.7462516180003,None,2342.7462516180003,None,2342.7462516180003,None,2342.7462516180003,None,,,,,,,,,,,,,,,,,,,,,,,,,,,,,,,,,,,,,,,,,,,,001,121,2020_Feb_11_1417,spring_faces,3.1.5,60.0039176556649,
condition files/Stage1_2.xlsx,,T3,B3,c,"['c', 'm']","['Clue', 'Monopoly']","[-0.15, 0.5]","[0.15, 0.5]",1,1,,,,,,,,,0,11,11,11,0,7,7,4,,,,,,,,,,,,,,,,,,,,,,,,,,,,,,,,,,,,,,,,,,,,,,,,,,,,,,,2344.712152625001,None,2344.712152625001,None,2344.712152625001,None,c,1,5.128364756001247,2346.2461964760005,None,2346.2461964760005,None,2346.2461964760005,None,2351.4299477879995,None,2351.4299477879995,None,2351.4299477879995,None,2351.4299477879995,None,,,,,,,,,,,,,,,,,,,,,,,,,,,,,,,,,,,,,,,,,,,,001,121,2020_Feb_11_1417,spring_faces,3.1.5,60.0039176556649,
,,,,,,,,,,,,,,,,,,,,,,,,,,,,,,,,,,,,,,,,,,,,,,,,,,,,,,,,,,,,,,,,,,,,,,,,,,,,,,,,,,,,,,,,,,,,,,,,,,,,,,,,,,,,,,,,2353.412890699001,None,space,5.633795955000096,2358.4127079240006,None,,,,,,,,,,,,,,,,,,,,,,,,,,,,,,001,121,2020_Feb_11_1417,spring_faces,3.1.5,60.0039176556649,
condition files/Stage2_1.xlsx,,B2,T2,r,"['s', 'r']","['Stratego', 'Risk']","[-0.15, 0.5]","[0.15, 0.5]",1,1,,,,,,,,,,,,,,,,,0,0,0,0,0,0,0,3,,,,,,,,,,,,,,,,,,,,,,,,,,,,,,,,,,,,,,,,,,,,,,,2364.1127706770003,None,2364.1127706770003,None,2364.1127706770003,None,s,0,0.8808071999992535,2365.6457401000007,None,2365.6457401000007,None,2365.6457401000007,None,2366.5799122850003,None,2366.5799122850003,None,2366.5799122850003,None,2366.5799122850003,None,,,,,,,,,,,,,,,2358.4127079240006,None,,,,,,,,,,,,,,,,,,,,,,,,,,,,001,121,2020_Feb_11_1417,spring_faces,3.1.5,60.0039176556649,
condition files/Stage2_1.xlsx,,B4,T4,r,"['s', 'r']","['Stratego', 'Risk']","[-0.15, 0.5]","[0.15, 0.5]",1,1,,,,,,,,,,,,,,,,,0,0,0,0,0,1,1,5,,,,,,,,,,,,,,,,,,,,,,,,,,,,,,,,,,,,,,,,,,,,,,,2368.5461160720006,None,2368.5461160720006,None,2368.5461160720006,None,s,0,0.9111711400000786,2370.0793341179997,None,2370.0793341179997,None,2370.0793341179997,None,2371.045702317,None,2371.045702317,None,2371.045702317,None,2371.045702317,None,,,,,,,,,,,,,,,,,,,,,,,,,,,,,,,,,,,,,,,,,,,,001,121,2020_Feb_11_1417,spring_faces,3.1.5,60.0039176556649,
condition files/Stage2_1.xlsx,,T3,B3,s,"['s', 'r']","['Stratego', 'Risk']","[-0.15, 0.5]","[0.15, 0.5]",1,1,,,,,,,,,,,,,,,,,0,0,0,0,0,2,2,4,,,,,,,,,,,,,,,,,,,,,,,,,,,,,,,,,,,,,,,,,,,,,,,2373.0128516980003,None,2373.0128516980003,None,2373.0128516980003,None,r,0,0.6191777479998564,2374.5473868570007,None,2374.5473868570007,None,2374.5473868570007,None,2375.246000129,None,2375.246000129,None,2375.246000129,None,2375.246000129,None,,,,,,,,,,,,,,,,,,,,,,,,,,,,,,,,,,,,,,,,,,,,001,121,2020_Feb_11_1417,spring_faces,3.1.5,60.0039176556649,
condition files/Stage2_1.xlsx,,T1,B1,s,"['s', 'r']","['Stratego', 'Risk']","[-0.15, 0.5]","[0.15, 0.5]",1,1,,,,,,,,,,,,,,,,,0,0,0,0,0,3,3,2,,,,,,,,,,,,,,,,,,,,,,,,,,,,,,,,,,,,,,,,,,,,,,,2377.196212168001,None,2377.196212168001,None,2377.196212168001,None,r,0,1.1242242670014093,2378.7303865779995,None,2378.7303865779995,None,2378.7303865779995,None,2379.9131510810003,None,2379.9131510810003,None,2379.9131510810003,None,2379.9131510810003,None,,,,,,,,,,,,,,,,,,,,,,,,,,,,,,,,,,,,,,,,,,,,001,121,2020_Feb_11_1417,spring_faces,3.1.5,60.0039176556649,
condition files/Stage2_1.xlsx,,B6,T6,r,"['s', 'r']","['Stratego', 'Risk']","[-0.15, 0.5]","[0.15, 0.5]",1,1,,,,,,,,,,,,,,,,,0,0,0,0,0,4,4,1,,,,,,,,,,,,,,,,,,,,,,,,,,,,,,,,,,,,,,,,,,,,,,,2381.8790397579996,None,2381.8790397579996,None,2381.8790397579996,None,s,0,0.9837591350005823,2383.4627407999997,None,2383.4627407999997,None,2383.4627407999997,None,2384.512688754001,None,2384.512688754001,None,2384.512688754001,None,2384.512688754001,None,,,,,,,,,,,,,,,,,,,,,,,,,,,,,,,,,,,,,,,,,,,,001,121,2020_Feb_11_1417,spring_faces,3.1.5,60.0039176556649,
condition files/Stage2_1.xlsx,,T5,B5,s,"['s', 'r']","['Stratego', 'Risk']","[-0.15, 0.5]","[0.15, 0.5]",1,1,,,,,,,,,,,,,,,,,0,0,0,0,0,5,5,0,,,,,,,,,,,,,,,,,,,,,,,,,,,,,,,,,,,,,,,,,,,,,,,2386.479400862001,None,2386.479400862001,None,2386.479400862001,None,s,1,0.8958105269994121,2388.062730699001,None,2388.062730699001,None,2388.062730699001,None,2389.029931029001,None,2389.029931029001,None,2389.029931029001,None,2389.029931029001,None,,,,,,,,,,,,,,,,,,,,,,,,,,,,,,,,,,,,,,,,,,,,001,121,2020_Feb_11_1417,spring_faces,3.1.5,60.0039176556649,
condition files/Stage2_2.xlsx,,T4,B4,r,"['s', 'r']","['Stratego', 'Risk']","[-0.15, 0.5]","[0.15, 0.5]",1,1,,,,,,,,,,,,,,,,,0,1,1,1,0,0,0,5,,,,,,,,,,,,,,,,,,,,,,,,,,,,,,,,,,,,,,,,,,,,,,,2390.9964580180003,None,2390.9964580180003,None,2390.9964580180003,None,r,1,1.227458208999451,2392.5311146349995,None,2392.5311146349995,None,2392.5311146349995,None,2393.813235007001,None,2393.813235007001,None,2393.813235007001,None,2393.813235007001,None,,,,,,,,,,,,,,,,,,,,,,,,,,,,,,,,,,,,,,,,,,,,001,121,2020_Feb_11_1417,spring_faces,3.1.5,60.0039176556649,
condition files/Stage2_2.xlsx,,B1,T1,s,"['s', 'r']","['Stratego', 'Risk']","[-0.15, 0.5]","[0.15, 0.5]",1,1,,,,,,,,,,,,,,,,,0,1,1,1,0,1,1,2,,,,,,,,,,,,,,,,,,,,,,,,,,,,,,,,,,,,,,,,,,,,,,,2395.779448272,None,2395.779448272,None,2395.779448272,None,s,1,3.163356543998816,2397.315201427,None,2397.315201427,None,2397.315201427,None,2400.5458459479996,None,2400.5458459479996,None,2400.5458459479996,None,2400.5458459479996,None,,,,,,,,,,,,,,,,,,,,,,,,,,,,,,,,,,,,,,,,,,,,001,121,2020_Feb_11_1417,spring_faces,3.1.5,60.0039176556649,
condition files/Stage2_2.xlsx,,T2,B2,r,"['s', 'r']","['Stratego', 'Risk']","[-0.15, 0.5]","[0.15, 0.5]",1,1,,,,,,,,,,,,,,,,,0,1,1,1,0,2,2,3,,,,,,,,,,,,,,,,,,,,,,,,,,,,,,,,,,,,,,,,,,,,,,,2402.495585785,None,2402.495585785,None,2402.495585785,None,r,1,1.583228217001306,2404.0313099720006,None,2404.0313099720006,None,2404.0313099720006,None,2405.696216949,None,2405.696216949,None,2405.696216949,None,2405.696216949,None,,,,,,,,,,,,,,,,,,,,,,,,,,,,,,,,,,,,,,,,,,,,001,121,2020_Feb_11_1417,spring_faces,3.1.5,60.0039176556649,
condition files/Stage2_2.xlsx,,B3,T3,s,"['s', 'r']","['Stratego', 'Risk']","[-0.15, 0.5]","[0.15, 0.5]",1,1,,,,,,,,,,,,,,,,,0,1,1,1,0,3,3,4,,,,,,,,,,,,,,,,,,,,,,,,,,,,,,,,,,,,,,,,,,,,,,,2407.646009688,None,2407.646009688,None,2407.646009688,None,s,1,1.649181517001125,2409.181330014,None,2409.181330014,None,2409.181330014,None,2410.899103621001,None,2410.899103621001,None,2410.899103621001,None,2410.899103621001,None,,,,,,,,,,,,,,,,,,,,,,,,,,,,,,,,,,,,,,,,,,,,001,121,2020_Feb_11_1417,spring_faces,3.1.5,60.0039176556649,
condition files/Stage2_2.xlsx,,T6,B6,r,"['s', 'r']","['Stratego', 'Risk']","[-0.15, 0.5]","[0.15, 0.5]",1,1,,,,,,,,,,,,,,,,,0,1,1,1,0,4,4,1,,,,,,,,,,,,,,,,,,,,,,,,,,,,,,,,,,,,,,,,,,,,,,,2412.8624190339997,None,2412.8624190339997,None,2412.8624190339997,None,s,0,1.5367399400001887,2414.397839972,None,2414.397839972,None,2414.397839972,None,2415.9962772500003,None,2415.9962772500003,None,2415.9962772500003,None,2415.9962772500003,None,,,,,,,,,,,,,,,,,,,,,,,,,,,,,,,,,,,,,,,,,,,,001,121,2020_Feb_11_1417,spring_faces,3.1.5,60.0039176556649,
condition files/Stage2_2.xlsx,,B5,T5,s,"['s', 'r']","['Stratego', 'Risk']","[-0.15, 0.5]","[0.15, 0.5]",1,1,,,,,,,,,,,,,,,,,0,1,1,1,0,5,5,0,,,,,,,,,,,,,,,,,,,,,,,,,,,,,,,,,,,,,,,,,,,,,,,2417.962684594,None,2417.962684594,None,2417.962684594,None,s,1,1.3026403230014694,2419.495933927001,None,2419.495933927001,None,2419.495933927001,None,2420.8648226759997,None,2420.8648226759997,None,2420.8648226759997,None,2420.8648226759997,None,,,,,,,,,,,,,,,,,,,,,,,,,,,,,,,,,,,,,,,,,,,,001,121,2020_Feb_11_1417,spring_faces,3.1.5,60.0039176556649,
condition files/Stage2_1.xlsx,,T5,B5,s,"['s', 'r']","['Stratego', 'Risk']","[-0.15, 0.5]","[0.15, 0.5]",1,1,,,,,,,,,,,,,,,,,0,2,2,2,0,0,0,0,,,,,,,,,,,,,,,,,,,,,,,,,,,,,,,,,,,,,,,,,,,,,,,2422.8461101390003,None,2422.8461101390003,None,2422.8461101390003,None,s,1,0.723049150999941,2424.379586907,None,2424.379586907,None,2424.379586907,None,2425.1628587020004,None,2425.1628587020004,None,2425.1628587020004,None,2425.1628587020004,None,,,,,,,,,,,,,,,,,,,,,,,,,,,,,,,,,,,,,,,,,,,,001,121,2020_Feb_11_1417,spring_faces,3.1.5,60.0039176556649,
condition files/Stage2_1.xlsx,,B6,T6,r,"['s', 'r']","['Stratego', 'Risk']","[-0.15, 0.5]","[0.15, 0.5]",1,1,,,,,,,,,,,,,,,,,0,2,2,2,0,1,1,1,,,,,,,,,,,,,,,,,,,,,,,,,,,,,,,,,,,,,,,,,,,,,,,2427.1297084920006,None,2427.1297084920006,None,2427.1297084920006,None,r,1,0.9349041410005157,2428.679640681001,None,2428.679640681001,None,2428.679640681001,None,2429.6823895609996,None,2429.6823895609996,None,2429.6823895609996,None,2429.6823895609996,None,,,,,,,,,,,,,,,,,,,,,,,,,,,,,,,,,,,,,,,,,,,,001,121,2020_Feb_11_1417,spring_faces,3.1.5,60.0039176556649,
condition files/Stage2_1.xlsx,,B2,T2,r,"['s', 'r']","['Stratego', 'Risk']","[-0.15, 0.5]","[0.15, 0.5]",1,1,,,,,,,,,,,,,,,,,0,2,2,2,0,2,2,3,,,,,,,,,,,,,,,,,,,,,,,,,,,,,,,,,,,,,,,,,,,,,,,2431.6460415460006,None,2431.6460415460006,None,2431.6460415460006,None,r,1,4.1141162530002475,2433.19643532,None,2433.19643532,None,2433.19643532,None,2437.363198801,None,2437.363198801,None,2437.363198801,None,2437.363198801,None,,,,,,,,,,,,,,,,,,,,,,,,,,,,,,,,,,,,,,,,,,,,001,121,2020_Feb_11_1417,spring_faces,3.1.5,60.0039176556649,
condition files/Stage2_1.xlsx,,T3,B3,s,"['s', 'r']","['Stratego', 'Risk']","[-0.15, 0.5]","[0.15, 0.5]",1,1,,,,,,,,,,,,,,,,,0,2,2,2,0,3,3,4,,,,,,,,,,,,,,,,,,,,,,,,,,,,,,,,,,,,,,,,,,,,,,,2439.328999413001,None,2439.328999413001,None,2439.328999413001,None,s,1,4.254202179001368,2440.864382697,None,2440.864382697,None,2440.864382697,None,2445.181301685001,None,2445.181301685001,None,2445.181301685001,None,2445.181301685001,None,,,,,,,,,,,,,,,,,,,,,,,,,,,,,,,,,,,,,,,,,,,,001,121,2020_Feb_11_1417,spring_faces,3.1.5,60.0039176556649,
condition files/Stage2_1.xlsx,,B4,T4,r,"['s', 'r']","['Stratego', 'Risk']","[-0.15, 0.5]","[0.15, 0.5]",1,1,,,,,,,,,,,,,,,,,0,2,2,2,0,4,4,5,,,,,,,,,,,,,,,,,,,,,,,,,,,,,,,,,,,,,,,,,,,,,,,2447.1460875249995,None,2447.1460875249995,None,2447.1460875249995,None,r,1,1.253843317999781,2448.6807205290006,None,2448.6807205290006,None,2448.6807205290006,None,2450.012957465,None,2450.012957465,None,2450.012957465,None,2450.012957465,None,,,,,,,,,,,,,,,,,,,,,,,,,,,,,,,,,,,,,,,,,,,,001,121,2020_Feb_11_1417,spring_faces,3.1.5,60.0039176556649,
condition files/Stage2_1.xlsx,,T1,B1,s,"['s', 'r']","['Stratego', 'Risk']","[-0.15, 0.5]","[0.15, 0.5]",1,1,,,,,,,,,,,,,,,,,0,2,2,2,0,5,5,2,,,,,,,,,,,,,,,,,,,,,,,,,,,,,,,,,,,,,,,,,,,,,,,2451.962727493001,None,2451.962727493001,None,2451.962727493001,None,s,1,6.13432467200073,2453.496210767,None,2453.496210767,None,2453.496210767,None,2459.712976776,None,2459.712976776,None,2459.712976776,None,2459.712976776,None,,,,,,,,,,,,,,,,,,,,,,,,,,,,,,,,,,,,,,,,,,,,001,121,2020_Feb_11_1417,spring_faces,3.1.5,60.0039176556649,
condition files/Stage2_2.xlsx,,T6,B6,r,"['s', 'r']","['Stratego', 'Risk']","[-0.15, 0.5]","[0.15, 0.5]",1,1,,,,,,,,,,,,,,,,,0,3,3,3,0,0,0,1,,,,,,,,,,,,,,,,,,,,,,,,,,,,,,,,,,,,,,,,,,,,,,,2461.679292472001,None,2461.679292472001,None,2461.679292472001,None,r,1,1.2810551990005479,2463.213508768,None,2463.213508768,None,2463.213508768,None,2464.563201721001,None,2464.563201721001,None,2464.563201721001,None,2464.563201721001,None,,,,,,,,,,,,,,,,,,,,,,,,,,,,,,,,,,,,,,,,,,,,001,121,2020_Feb_11_1417,spring_faces,3.1.5,60.0039176556649,
condition files/Stage2_2.xlsx,,B1,T1,s,"['s', 'r']","['Stratego', 'Risk']","[-0.15, 0.5]","[0.15, 0.5]",1,1,,,,,,,,,,,,,,,,,0,3,3,3,0,1,1,2,,,,,,,,,,,,,,,,,,,,,,,,,,,,,,,,,,,,,,,,,,,,,,,2466.512681982,None,2466.512681982,None,2466.512681982,None,s,1,4.191874213000119,2468.0627368059995,None,2468.0627368059995,None,2468.0627368059995,None,2472.3145895609996,None,2472.3145895609996,None,2472.3145895609996,None,2472.3145895609996,None,,,,,,,,,,,,,,,,,,,,,,,,,,,,,,,,,,,,,,,,,,,,001,121,2020_Feb_11_1417,spring_faces,3.1.5,60.0039176556649,
condition files/Stage2_2.xlsx,,T2,B2,r,"['s', 'r']","['Stratego', 'Risk']","[-0.15, 0.5]","[0.15, 0.5]",1,1,,,,,,,,,,,,,,,,,0,3,3,3,0,2,2,3,,,,,,,,,,,,,,,,,,,,,,,,,,,,,,,,,,,,,,,,,,,,,,,2474.2795352350004,None,2474.2795352350004,None,2474.2795352350004,None,r,1,1.1915871290002542,2475.815044326,None,2475.815044326,None,2475.815044326,None,2477.079895926001,None,2477.079895926001,None,2477.079895926001,None,2477.079895926001,None,,,,,,,,,,,,,,,,,,,,,,,,,,,,,,,,,,,,,,,,,,,,001,121,2020_Feb_11_1417,spring_faces,3.1.5,60.0039176556649,
condition files/Stage2_2.xlsx,,T4,B4,r,"['s', 'r']","['Stratego', 'Risk']","[-0.15, 0.5]","[0.15, 0.5]",1,1,,,,,,,,,,,,,,,,,0,3,3,3,0,3,3,5,,,,,,,,,,,,,,,,,,,,,,,,,,,,,,,,,,,,,,,,,,,,,,,2479.029497990001,None,2479.029497990001,None,2479.029497990001,None,s,0,1.6437763459998678,2480.5628609630003,None,2480.5628609630003,None,2480.5628609630003,None,2482.263138534001,None,2482.263138534001,None,2482.263138534001,None,2482.263138534001,None,,,,,,,,,,,,,,,,,,,,,,,,,,,,,,,,,,,,,,,,,,,,001,121,2020_Feb_11_1417,spring_faces,3.1.5,60.0039176556649,
condition files/Stage2_2.xlsx,,B5,T5,s,"['s', 'r']","['Stratego', 'Risk']","[-0.15, 0.5]","[0.15, 0.5]",1,1,,,,,,,,,,,,,,,,,0,3,3,3,0,4,4,0,,,,,,,,,,,,,,,,,,,,,,,,,,,,,,,,,,,,,,,,,,,,,,,2484.229704202,None,2484.229704202,None,2484.229704202,None,s,1,1.883207290999053,2485.7633262870004,None,2485.7633262870004,None,2485.7633262870004,None,2487.7141062850005,None,2487.7141062850005,None,2487.7141062850005,None,2487.7141062850005,None,,,,,,,,,,,,,,,,,,,,,,,,,,,,,,,,,,,,,,,,,,,,001,121,2020_Feb_11_1417,spring_faces,3.1.5,60.0039176556649,
condition files/Stage2_2.xlsx,,B3,T3,s,"['s', 'r']","['Stratego', 'Risk']","[-0.15, 0.5]","[0.15, 0.5]",1,1,,,,,,,,,,,,,,,,,0,3,3,3,0,5,5,4,,,,,,,,,,,,,,,,,,,,,,,,,,,,,,,,,,,,,,,,,,,,,,,2489.679546237001,None,2489.679546237001,None,2489.679546237001,None,s,1,1.3927624199986894,2491.2297429200007,None,2491.2297429200007,None,2491.2297429200007,None,2492.6794008180004,None,2492.6794008180004,None,2492.6794008180004,None,2492.6794008180004,None,,,,,,,,,,,,,,,,,,,,,,,,,,,,,,,,,,,,,,,,,,,,001,121,2020_Feb_11_1417,spring_faces,3.1.5,60.0039176556649,
condition files/Stage2_1.xlsx,,T1,B1,s,"['s', 'r']","['Stratego', 'Risk']","[-0.15, 0.5]","[0.15, 0.5]",1,1,,,,,,,,,,,,,,,,,0,4,4,4,0,0,0,2,,,,,,,,,,,,,,,,,,,,,,,,,,,,,,,,,,,,,,,,,,,,,,,2494.6625633700005,None,2494.6625633700005,None,2494.6625633700005,None,s,1,2.6334554770000977,2496.1970890779994,None,2496.1970890779994,None,2496.1970890779994,None,2498.8963197819994,None,2498.8963197819994,None,2498.8963197819994,None,2498.8963197819994,None,,,,,,,,,,,,,,,,,,,,,,,,,,,,,,,,,,,,,,,,,,,,001,121,2020_Feb_11_1417,spring_faces,3.1.5,60.0039176556649,
condition files/Stage2_1.xlsx,,T3,B3,s,"['s', 'r']","['Stratego', 'Risk']","[-0.15, 0.5]","[0.15, 0.5]",1,1,,,,,,,,,,,,,,,,,0,4,4,4,0,1,1,4,,,,,,,,,,,,,,,,,,,,,,,,,,,,,,,,,,,,,,,,,,,,,,,2500.862652605001,None,2500.862652605001,None,2500.862652605001,None,s,1,9.64821547199972,2502.3983108840002,None,2502.3983108840002,None,2502.3983108840002,None,2512.112975985001,None,2512.112975985001,None,2512.112975985001,None,2512.112975985001,None,,,,,,,,,,,,,,,,,,,,,,,,,,,,,,,,,,,,,,,,,,,,001,121,2020_Feb_11_1417,spring_faces,3.1.5,60.0039176556649,
condition files/Stage2_1.xlsx,,B4,T4,r,"['s', 'r']","['Stratego', 'Risk']","[-0.15, 0.5]","[0.15, 0.5]",1,1,,,,,,,,,,,,,,,,,0,4,4,4,0,2,2,5,,,,,,,,,,,,,,,,,,,,,,,,,,,,,,,,,,,,,,,,,,,,,,,2514.079244812001,None,2514.079244812001,None,2514.079244812001,None,r,1,0.8651212210006634,2515.6134509599997,None,2515.6134509599997,None,2515.6134509599997,None,2516.5319736380006,None,2516.5319736380006,None,2516.5319736380006,None,2516.5319736380006,None,,,,,,,,,,,,,,,,,,,,,,,,,,,,,,,,,,,,,,,,,,,,001,121,2020_Feb_11_1417,spring_faces,3.1.5,60.0039176556649,
condition files/Stage2_1.xlsx,,B2,T2,r,"['s', 'r']","['Stratego', 'Risk']","[-0.15, 0.5]","[0.15, 0.5]",1,1,,,,,,,,,,,,,,,,,0,4,4,4,0,3,3,3,,,,,,,,,,,,,,,,,,,,,,,,,,,,,,,,,,,,,,,,,,,,,,,2518.4960335880005,None,2518.4960335880005,None,2518.4960335880005,None,r,1,1.423979278000843,2520.0466378700003,None,2520.0466378700003,None,2520.0466378700003,None,2521.529140011,None,2521.529140011,None,2521.529140011,None,2521.529140011,None,,,,,,,,,,,,,,,,,,,,,,,,,,,,,,,,,,,,,,,,,,,,001,121,2020_Feb_11_1417,spring_faces,3.1.5,60.0039176556649,
