condsFile,subStage,cue1,cue2,correct,responseKeys,responseNames,cue1Position,cue2Position,cue1Opacity,cue2Opacity,stageLoop0.thisRepN,stageLoop0.thisTrialN,stageLoop0.thisN,stageLoop0.thisIndex,blockLoop0.thisRepN,blockLoop0.thisTrialN,blockLoop0.thisN,blockLoop0.thisIndex,stage1Loop.thisRepN,stage1Loop.thisTrialN,stage1Loop.thisN,stage1Loop.thisIndex,blockLoop1.thisRepN,blockLoop1.thisTrialN,blockLoop1.thisN,blockLoop1.thisIndex,stage2Loop.thisRepN,stage2Loop.thisTrialN,stage2Loop.thisN,stage2Loop.thisIndex,blockLoop2.thisRepN,blockLoop2.thisTrialN,blockLoop2.thisN,blockLoop2.thisIndex,testLoop.thisRepN,testLoop.thisTrialN,testLoop.thisN,testLoop.thisIndex,blockLoopTest.thisRepN,blockLoopTest.thisTrialN,blockLoopTest.thisN,blockLoopTest.thisIndex,cuePics,id_instr_text.started,id_instr_text.stopped,space_to_continue_2.started,space_to_continue_2.stopped,end_instructions_resp_3.keys,end_instructions_resp_3.rt,end_instructions_resp_3.started,end_instructions_resp_3.stopped,id_input_instr.started,id_input_instr.stopped,id_input_rect.started,id_input_rect.stopped,id_input_resp.keys,id_input_resp.rt,id_input_resp.started,id_input_resp.stopped,sonaID,id_input_text.started,id_input_text.stopped,final_text.started,final_text.stopped,instructions.started,instructions.stopped,end_instructions_resp.keys,end_instructions_resp.rt,end_instructions_resp.started,end_instructions_resp.stopped,space_to_continue.started,space_to_continue.stopped,instructions_stage0.started,instructions_stage0.stopped,end_instructions_resp_stage0.keys,end_instructions_resp_stage0.rt,end_instructions_resp_stage0.started,end_instructions_resp_stage0.stopped,space_to_continue_stage0.started,space_to_continue_stage0.stopped,text.started,text.stopped,resp_text1.started,resp_text1.stopped,resp_text2.started,resp_text2.stopped,trial_resp.keys,trial_resp.corr,trial_resp.rt,trial_resp.started,trial_resp.stopped,cue1Image.started,cue1Image.stopped,cue2Image.started,cue2Image.stopped,cue1Image_fb.started,cue1Image_fb.stopped,cue2Image_fb.started,cue2Image_fb.stopped,fb_text_answer.started,fb_text_answer.stopped,feedback_image.started,feedback_image.stopped,instructions_stage1.started,instructions_stage1.stopped,end_instructions_resp_stage1.keys,end_instructions_resp_stage1.rt,end_instructions_resp_stage1.started,end_instructions_resp_stage1.stopped,space_to_continue_stage1.started,space_to_continue_stage1.stopped,instructions_2.started,instructions_2.stopped,end_instructions_resp_2.keys,end_instructions_resp_2.rt,end_instructions_resp_2.started,end_instructions_resp_2.stopped,press_space_to_continue_stage2.started,press_space_to_continue_stage2.stopped,instructions_testStage1.started,instructions_testStage1.stopped,end_instructions_resp_test1.keys,end_instructions_resp_test1.rt,end_instructions_resp_test1.started,end_instructions_resp_test1.stopped,press_space_to_continue_test1.started,press_space_to_continue_test1.stopped,cue1Image_testChoice.started,cue1Image_testChoice.stopped,cue2Image_testChoice.started,cue2Image_testChoice.stopped,test_resp.keys,test_resp.corr,test_resp.rt,test_resp.started,test_resp.stopped,cue1Image_testConf.started,cue1Image_testConf.stopped,cue2Image_testConf.started,cue2Image_testConf.stopped,conf_reminder.started,conf_reminder.stopped,conf_rating.response,conf_rating.rt,conf_rating.started,conf_rating.stopped,session,participant,date,expName,psychopyVersion,frameRate,
,,,,,,,,,,,,,,,,,,,,,,,,,,,,,,,,,,,,,,,,,,,"{'none': 'pictures/20M_AN_C.png', 'alpha': 'pictures/SHINEd_melon.png', 'beta': 'pictures/SHINEd_pear.png', 'theta': 'pictures/SHINEd_apple.png', 'phi': 'pictures/SHINEd_pepper.png', 'T1': 'pictures/32M_AN_C.png', 'T2': 'pictures/34M_AN_C.png', 'T3': 'pictures/36M_AN_C.png', 'T4': 'pictures/37M_AN_C.png', 'T5': 'pictures/25M_AN_C.png', 'T6': 'pictures/33M_AN_C.png', 'B1': 'pictures/38M_NE_C.png', 'B2': 'pictures/23M_NE_C.png', 'B3': 'pictures/26M_NE_C.png', 'B4': 'pictures/22M_NE_C.png', 'B5': 'pictures/31M_NE_C.png', 'B6': 'pictures/20M_NE_C.png'}",9.549030792999474,None,14.531926875999488,None,space,91.80154609999954,14.531926875999488,None,,,,,,,,,,,,,,,,,,,,,,,,,,,,,,,,,,,,,,,,,,,,,,,,,,,,,,,,,,,,,,,,,,,,,,,,,,,,,,,,,,,,,,,,,,,,,,,,001,121,2020_Feb_13_1209,spring_faces,3.1.5,59.6116707395691,
,,,,,,,,,,,,,,,,,,,,,,,,,,,,,,,,,,,,,,,,,,,,,,,,,,,,106.78188153600058,None,106.78188153600058,None,"['s', 'o', 'backspace', 'o', 'd', 'o', 'u', 'backspace', 'backspace', 'backspace', 'backspace', 'backspace', '0', '8', '1', '6', 's', 'o', 'd', 'o', 'u', '0', '8', '1', '6', 's', 'o', 'd', 'o', 'u', '0', '8', '1', '6', 's', 'o', 'd', 'o', 'u']","[25.8876762839991, 26.207728641998983, 28.671667275999425, 31.983617566000248, 37.583620426999914, 37.711636857000485, 38.015659827999116, 47.69563216899951, 47.88767226100026, 48.047660099000495, 48.20767612800046, 48.38363130799917, 65.1196758799997, 65.3757139270001, 70.60766986300041, 70.81565782600046, 74.31967635599904, 74.54371185399941, 74.8636841309999, 74.95964778000052, 75.18361021199962, 83.11966235599903, 83.55162599899995, 85.23165863800023, 86.09564103000048, 89.4716725039998, 89.88769075299933, 95.61566061600024, 95.95162493600037, 96.12765793799917, 109.18363424199924, 109.61566646000028, 110.46365670500018, 110.91158571000051, 111.3116567369998, 111.5996603450003, 111.887687946999, 112.01566093899964, 112.22373064299973]",106.78188153600058,None,,,,,,,,,,,,,,,,,,,,,,,,,,,,,,,,,,,,,,,,,,,,,,,,,,,,,,,,,,,,,,,,,,,,,,,,,,,,,,,,,,,,,,,,001,121,2020_Feb_13_1209,spring_faces,3.1.5,59.6116707395691,
,,,,,,,,,,,,,,,,,,,,,,,,,,,,,,,,,,,,,,,,,,,,,,,,,,,,,,,,,,,,0816sodou,106.78188153600058,None,106.78188153600058,None,224.08215779000057,None,space,8.499592789999951,229.0819670740002,None,,,,,,,,,,,,,,,,,,,,,,,,,,,,,,,,,,,,,,,,,,,,,,,,,,,,,,,,,,,,,,,,,,,,,,,,,,,,,001,121,2020_Feb_13_1209,spring_faces,3.1.5,59.6116707395691,
,,,,,,,,,,,,,,,,,,,,,,,,,,,,,,,,,,,,,,,,,,,,,,,,,,,,,,,,,,,,,,,,,,,,,,,229.0819670740002,None,237.61542397300036,None,space,6.262312545000896,242.61525369899937,None,,,,,,,,,,,,,,,,,,,,,,,,,,,,,,,,,,,,,,,,,,,,,,,,,,,,,,,,,,,,,,,,,,,,,001,121,2020_Feb_13_1209,spring_faces,3.1.5,59.6116707395691,
condition files/Stage0a.xlsx,0a,alpha,none,h,"['h', 'g']","['Chess', 'Go']","[0, 0.5]","[0, 0]",1,0,0,0,0,0,0,0,0,0,,,,,,,,,,,,,,,,,,,,,,,,,,,,,,,,,,,,,,,,,,,,,,,,,,,,,,,,,,,,,242.61525369899937,None,248.9650761110006,None,248.9650761110006,None,248.9650761110006,None,h,1,3.990962349000256,250.5826676939996,None,250.5826676939996,None,250.5826676939996,None,254.6490224070003,None,254.6490224070003,None,254.6490224070003,None,254.6490224070003,None,,,,,,,,,,,,,,,,,,,,,,,,,,,,,,,,,,,,,,,,,,,,001,121,2020_Feb_13_1209,spring_faces,3.1.5,59.6116707395691,
condition files/Stage0a.xlsx,0a,beta,none,g,"['h', 'g']","['Chess', 'Go']","[0, 0.5]","[0, 0]",1,0,0,0,0,0,0,1,1,1,,,,,,,,,,,,,,,,,,,,,,,,,,,,,,,,,,,,,,,,,,,,,,,,,,,,,,,,,,,,,,,256.59786268599964,None,256.59786268599964,None,256.59786268599964,None,g,1,0.9848727669996151,258.1326855089992,None,258.1326855089992,None,258.1326855089992,None,259.18174693900073,None,259.18174693900073,None,259.18174693900073,None,259.18174693900073,None,,,,,,,,,,,,,,,,,,,,,,,,,,,,,,,,,,,,,,,,,,,,001,121,2020_Feb_13_1209,spring_faces,3.1.5,59.6116707395691,
condition files/Stage0a.xlsx,0a,beta,none,g,"['h', 'g']","['Chess', 'Go']","[0, 0.5]","[0, 0]",1,0,0,1,1,1,0,0,0,1,,,,,,,,,,,,,,,,,,,,,,,,,,,,,,,,,,,,,,,,,,,,,,,,,,,,,,,,,,,,,,,261.1653553310007,None,261.1653553310007,None,261.1653553310007,None,g,1,1.0438367209990247,262.68177245699917,None,262.68177245699917,None,262.68177245699917,None,263.7822706549996,None,263.7822706549996,None,263.7822706549996,None,263.7822706549996,None,,,,,,,,,,,,,,,,,,,,,,,,,,,,,,,,,,,,,,,,,,,,001,121,2020_Feb_13_1209,spring_faces,3.1.5,59.6116707395691,
condition files/Stage0a.xlsx,0a,alpha,none,h,"['h', 'g']","['Chess', 'Go']","[0, 0.5]","[0, 0]",1,0,0,1,1,1,0,1,1,0,,,,,,,,,,,,,,,,,,,,,,,,,,,,,,,,,,,,,,,,,,,,,,,,,,,,,,,,,,,,,,,265.74833048099936,None,265.74833048099936,None,265.74833048099936,None,h,1,0.5237699059998704,267.2818451410003,None,267.2818451410003,None,267.2818451410003,None,267.86510950999946,None,267.86510950999946,None,267.86510950999946,None,267.86510950999946,None,,,,,,,,,,,,,,,,,,,,,,,,,,,,,,,,,,,,,,,,,,,,001,121,2020_Feb_13_1209,spring_faces,3.1.5,59.6116707395691,
condition files/Stage0a.xlsx,0a,beta,none,g,"['h', 'g']","['Chess', 'Go']","[0, 0.5]","[0, 0]",1,0,0,2,2,2,0,0,0,1,,,,,,,,,,,,,,,,,,,,,,,,,,,,,,,,,,,,,,,,,,,,,,,,,,,,,,,,,,,,,,,269.8488314370006,None,269.8488314370006,None,269.8488314370006,None,g,1,0.5037561350000033,271.3818186459994,None,271.3818186459994,None,271.3818186459994,None,271.9490266140001,None,271.9490266140001,None,271.9490266140001,None,271.9490266140001,None,,,,,,,,,,,,,,,,,,,,,,,,,,,,,,,,,,,,,,,,,,,,001,121,2020_Feb_13_1209,spring_faces,3.1.5,59.6116707395691,
condition files/Stage0a.xlsx,0a,alpha,none,h,"['h', 'g']","['Chess', 'Go']","[0, 0.5]","[0, 0]",1,0,0,2,2,2,0,1,1,0,,,,,,,,,,,,,,,,,,,,,,,,,,,,,,,,,,,,,,,,,,,,,,,,,,,,,,,,,,,,,,,273.91508891599915,None,273.91508891599915,None,273.91508891599915,None,h,1,1.0932673579991388,275.4482431619999,None,275.4482431619999,None,275.4482431619999,None,276.5983790350001,None,276.5983790350001,None,276.5983790350001,None,276.5983790350001,None,,,,,,,,,,,,,,,,,,,,,,,,,,,,,,,,,,,,,,,,,,,,001,121,2020_Feb_13_1209,spring_faces,3.1.5,59.6116707395691,
condition files/Stage0a.xlsx,0a,beta,none,g,"['h', 'g']","['Chess', 'Go']","[0, 0.5]","[0, 0]",1,0,0,3,3,3,0,0,0,1,,,,,,,,,,,,,,,,,,,,,,,,,,,,,,,,,,,,,,,,,,,,,,,,,,,,,,,,,,,,,,,278.5821322339998,None,278.5821322339998,None,278.5821322339998,None,g,1,0.5705880380010058,280.1149813960001,None,280.1149813960001,None,280.1149813960001,None,280.7491556629993,None,280.7491556629993,None,280.7491556629993,None,280.7491556629993,None,,,,,,,,,,,,,,,,,,,,,,,,,,,,,,,,,,,,,,,,,,,,001,121,2020_Feb_13_1209,spring_faces,3.1.5,59.6116707395691,
condition files/Stage0a.xlsx,0a,alpha,none,h,"['h', 'g']","['Chess', 'Go']","[0, 0.5]","[0, 0]",1,0,0,3,3,3,0,1,1,0,,,,,,,,,,,,,,,,,,,,,,,,,,,,,,,,,,,,,,,,,,,,,,,,,,,,,,,,,,,,,,,282.71513971999957,None,282.71513971999957,None,282.71513971999957,None,h,1,0.3728969229996437,284.24864702500054,None,284.24864702500054,None,284.24864702500054,None,284.6816898039997,None,284.6816898039997,None,284.6816898039997,None,284.6816898039997,None,,,,,,,,,,,,,,,,,,,,,,,,,,,,,,,,,,,,,,,,,,,,001,121,2020_Feb_13_1209,spring_faces,3.1.5,59.6116707395691,
condition files/Stage0a.xlsx,0a,beta,none,g,"['h', 'g']","['Chess', 'Go']","[0, 0.5]","[0, 0]",1,0,0,4,4,4,0,0,0,1,,,,,,,,,,,,,,,,,,,,,,,,,,,,,,,,,,,,,,,,,,,,,,,,,,,,,,,,,,,,,,,286.6655176540007,None,286.6655176540007,None,286.6655176540007,None,g,1,0.7434250819987938,288.19812712400017,None,288.19812712400017,None,288.19812712400017,None,288.99875945200074,None,288.99875945200074,None,288.99875945200074,None,288.99875945200074,None,,,,,,,,,,,,,,,,,,,,,,,,,,,,,,,,,,,,,,,,,,,,001,121,2020_Feb_13_1209,spring_faces,3.1.5,59.6116707395691,
condition files/Stage0a.xlsx,0a,alpha,none,h,"['h', 'g']","['Chess', 'Go']","[0, 0.5]","[0, 0]",1,0,0,4,4,4,0,1,1,0,,,,,,,,,,,,,,,,,,,,,,,,,,,,,,,,,,,,,,,,,,,,,,,,,,,,,,,,,,,,,,,290.96522276500036,None,290.96522276500036,None,290.96522276500036,None,h,1,0.5711545020003541,292.49841800600007,None,292.49841800600007,None,292.49841800600007,None,293.13119195000036,None,293.13119195000036,None,293.13119195000036,None,293.13119195000036,None,,,,,,,,,,,,,,,,,,,,,,,,,,,,,,,,,,,,,,,,,,,,001,121,2020_Feb_13_1209,spring_faces,3.1.5,59.6116707395691,
condition files/Stage0a.xlsx,0a,beta,none,g,"['h', 'g']","['Chess', 'Go']","[0, 0.5]","[0, 0]",1,0,0,5,5,5,0,0,0,1,,,,,,,,,,,,,,,,,,,,,,,,,,,,,,,,,,,,,,,,,,,,,,,,,,,,,,,,,,,,,,,295.11555001099987,None,295.11555001099987,None,295.11555001099987,None,g,1,2.325641811999958,296.63200017000054,None,296.63200017000054,None,296.63200017000054,None,299.01508554800057,None,299.01508554800057,None,299.01508554800057,None,299.01508554800057,None,,,,,,,,,,,,,,,,,,,,,,,,,,,,,,,,,,,,,,,,,,,,001,121,2020_Feb_13_1209,spring_faces,3.1.5,59.6116707395691,
condition files/Stage0a.xlsx,0a,alpha,none,h,"['h', 'g']","['Chess', 'Go']","[0, 0.5]","[0, 0]",1,0,0,5,5,5,0,1,1,0,,,,,,,,,,,,,,,,,,,,,,,,,,,,,,,,,,,,,,,,,,,,,,,,,,,,,,,,,,,,,,,300.9818453150001,None,300.9818453150001,None,300.9818453150001,None,h,1,0.9542211610005324,302.51532401499935,None,302.51532401499935,None,302.51532401499935,None,303.5317835149999,None,303.5317835149999,None,303.5317835149999,None,303.5317835149999,None,,,,,,,,,,,,,,,,,,,,,,,,,,,,,,,,,,,,,,,,,,,,001,121,2020_Feb_13_1209,spring_faces,3.1.5,59.6116707395691,
condition files/Stage0b_1.xlsx,0b,none,beta,g,"['h', 'g']","['Chess', 'Go']","[-0.15, 0.5]","[0.15, 0.5]",0,1,0,6,6,6,0,0,0,1,,,,,,,,,,,,,,,,,,,,,,,,,,,,,,,,,,,,,,,,,,,,,,,,,,,,,,,,,,,,,,,305.51529151199975,None,305.51529151199975,None,305.51529151199975,None,g,1,1.2683065759993042,307.06526140499955,None,307.06526140499955,None,307.06526140499955,None,308.4154680770007,None,308.4154680770007,None,308.4154680770007,None,308.4154680770007,None,,,,,,,,,,,,,,,,,,,,,,,,,,,,,,,,,,,,,,,,,,,,001,121,2020_Feb_13_1209,spring_faces,3.1.5,59.6116707395691,
condition files/Stage0b_1.xlsx,0b,alpha,none,h,"['h', 'g']","['Chess', 'Go']","[-0.15, 0.5]","[0.15, 0.5]",1,0,0,6,6,6,0,1,1,0,,,,,,,,,,,,,,,,,,,,,,,,,,,,,,,,,,,,,,,,,,,,,,,,,,,,,,,,,,,,,,,310.36515388599946,None,310.36515388599946,None,310.36515388599946,None,h,1,0.7065800059990579,311.9149826689991,None,311.9149826689991,None,311.9149826689991,None,312.6849465039995,None,312.6849465039995,None,312.6849465039995,None,312.6849465039995,None,,,,,,,,,,,,,,,,,,,,,,,,,,,,,,,,,,,,,,,,,,,,001,121,2020_Feb_13_1209,spring_faces,3.1.5,59.6116707395691,
condition files/Stage0b_2.xlsx,0b,beta,none,g,"['h', 'g']","['Chess', 'Go']","[-0.15, 0.5]","[0.15, 0.5]",1,0,0,7,7,7,0,0,0,1,,,,,,,,,,,,,,,,,,,,,,,,,,,,,,,,,,,,,,,,,,,,,,,,,,,,,,,,,,,,,,,314.6654454870004,None,314.6654454870004,None,314.6654454870004,None,g,1,2.775862782000331,316.18176089999906,None,316.18176089999906,None,316.18176089999906,None,319.0157490069996,None,319.0157490069996,None,319.0157490069996,None,319.0157490069996,None,,,,,,,,,,,,,,,,,,,,,,,,,,,,,,,,,,,,,,,,,,,,001,121,2020_Feb_13_1209,spring_faces,3.1.5,59.6116707395691,
condition files/Stage0b_2.xlsx,0b,none,alpha,h,"['h', 'g']","['Chess', 'Go']","[-0.15, 0.5]","[0.15, 0.5]",0,1,0,7,7,7,0,1,1,0,,,,,,,,,,,,,,,,,,,,,,,,,,,,,,,,,,,,,,,,,,,,,,,,,,,,,,,,,,,,,,,320.9819428659994,None,320.9819428659994,None,320.9819428659994,None,h,1,0.9215074510011618,322.53203720700003,None,322.53203720700003,None,322.53203720700003,None,323.51700345899917,None,323.51700345899917,None,323.51700345899917,None,323.51700345899917,None,,,,,,,,,,,,,,,,,,,,,,,,,,,,,,,,,,,,,,,,,,,,001,121,2020_Feb_13_1209,spring_faces,3.1.5,59.6116707395691,
condition files/Stage0b_1.xlsx,0b,none,beta,g,"['h', 'g']","['Chess', 'Go']","[-0.15, 0.5]","[0.15, 0.5]",0,1,0,8,8,8,0,0,0,1,,,,,,,,,,,,,,,,,,,,,,,,,,,,,,,,,,,,,,,,,,,,,,,,,,,,,,,,,,,,,,,325.49875752200023,None,325.49875752200023,None,325.49875752200023,None,g,1,1.366207254000983,327.031341943999,None,327.031341943999,None,327.031341943999,None,328.44782430300074,None,328.44782430300074,None,328.44782430300074,None,328.44782430300074,None,,,,,,,,,,,,,,,,,,,,,,,,,,,,,,,,,,,,,,,,,,,,001,121,2020_Feb_13_1209,spring_faces,3.1.5,59.6116707395691,
condition files/Stage0b_1.xlsx,0b,alpha,none,h,"['h', 'g']","['Chess', 'Go']","[-0.15, 0.5]","[0.15, 0.5]",1,0,0,8,8,8,0,1,1,0,,,,,,,,,,,,,,,,,,,,,,,,,,,,,,,,,,,,,,,,,,,,,,,,,,,,,,,,,,,,,,,330.4152039159999,None,330.4152039159999,None,330.4152039159999,None,h,1,0.8004107159995328,331.9651225050002,None,331.9651225050002,None,331.9651225050002,None,332.83590189999995,None,332.83590189999995,None,332.83590189999995,None,332.83590189999995,None,,,,,,,,,,,,,,,,,,,,,,,,,,,,,,,,,,,,,,,,,,,,001,121,2020_Feb_13_1209,spring_faces,3.1.5,59.6116707395691,
condition files/Stage0b_2.xlsx,0b,none,alpha,h,"['h', 'g']","['Chess', 'Go']","[-0.15, 0.5]","[0.15, 0.5]",0,1,0,9,9,9,0,0,0,0,,,,,,,,,,,,,,,,,,,,,,,,,,,,,,,,,,,,,,,,,,,,,,,,,,,,,,,,,,,,,,,334.8154309849997,None,334.8154309849997,None,334.8154309849997,None,h,1,1.552349616000356,336.3492241919994,None,336.3492241919994,None,336.3492241919994,None,337.9657237770007,None,337.9657237770007,None,337.9657237770007,None,337.9657237770007,None,,,,,,,,,,,,,,,,,,,,,,,,,,,,,,,,,,,,,,,,,,,,001,121,2020_Feb_13_1209,spring_faces,3.1.5,59.6116707395691,
condition files/Stage0b_2.xlsx,0b,beta,none,g,"['h', 'g']","['Chess', 'Go']","[-0.15, 0.5]","[0.15, 0.5]",1,0,0,9,9,9,0,1,1,1,,,,,,,,,,,,,,,,,,,,,,,,,,,,,,,,,,,,,,,,,,,,,,,,,,,,,,,,,,,,,,,339.93197750999934,None,339.93197750999934,None,339.93197750999934,None,g,1,1.1070370630004618,341.4665961699993,None,341.4665961699993,None,341.4665961699993,None,342.6342941080002,None,342.6342941080002,None,342.6342941080002,None,342.6342941080002,None,,,,,,,,,,,,,,,,,,,,,,,,,,,,,,,,,,,,,,,,,,,,001,121,2020_Feb_13_1209,spring_faces,3.1.5,59.6116707395691,
condition files/Stage0b_1.xlsx,0b,alpha,none,h,"['h', 'g']","['Chess', 'Go']","[-0.15, 0.5]","[0.15, 0.5]",1,0,0,10,10,10,0,0,0,0,,,,,,,,,,,,,,,,,,,,,,,,,,,,,,,,,,,,,,,,,,,,,,,,,,,,,,,,,,,,,,,344.6154695770001,None,344.6154695770001,None,344.6154695770001,None,h,1,1.4489713629991456,346.14859147599964,None,346.14859147599964,None,346.14859147599964,None,347.6481132329991,None,347.6481132329991,None,347.6481132329991,None,347.6481132329991,None,,,,,,,,,,,,,,,,,,,,,,,,,,,,,,,,,,,,,,,,,,,,001,121,2020_Feb_13_1209,spring_faces,3.1.5,59.6116707395691,
condition files/Stage0b_1.xlsx,0b,none,beta,g,"['h', 'g']","['Chess', 'Go']","[-0.15, 0.5]","[0.15, 0.5]",0,1,0,10,10,10,0,1,1,1,,,,,,,,,,,,,,,,,,,,,,,,,,,,,,,,,,,,,,,,,,,,,,,,,,,,,,,,,,,,,,,349.6150456510004,None,349.6150456510004,None,349.6150456510004,None,g,1,0.6241990870003065,351.16541038300056,None,351.16541038300056,None,351.16541038300056,None,351.86542973199903,None,351.86542973199903,None,351.86542973199903,None,351.86542973199903,None,,,,,,,,,,,,,,,,,,,,,,,,,,,,,,,,,,,,,,,,,,,,001,121,2020_Feb_13_1209,spring_faces,3.1.5,59.6116707395691,
condition files/Stage0b_2.xlsx,0b,beta,none,g,"['h', 'g']","['Chess', 'Go']","[-0.15, 0.5]","[0.15, 0.5]",1,0,0,11,11,11,0,0,0,1,,,,,,,,,,,,,,,,,,,,,,,,,,,,,,,,,,,,,,,,,,,,,,,,,,,,,,,,,,,,,,,353.8321708420008,None,353.8321708420008,None,353.8321708420008,None,g,1,1.2216661990005377,355.3679564670001,None,355.3679564670001,None,355.3679564670001,None,356.6488770800006,None,356.6488770800006,None,356.6488770800006,None,356.6488770800006,None,,,,,,,,,,,,,,,,,,,,,,,,,,,,,,,,,,,,,,,,,,,,001,121,2020_Feb_13_1209,spring_faces,3.1.5,59.6116707395691,
condition files/Stage0b_2.xlsx,0b,none,alpha,h,"['h', 'g']","['Chess', 'Go']","[-0.15, 0.5]","[0.15, 0.5]",0,1,0,11,11,11,0,1,1,0,,,,,,,,,,,,,,,,,,,,,,,,,,,,,,,,,,,,,,,,,,,,,,,,,,,,,,,,,,,,,,,358.614926577,None,358.614926577,None,358.614926577,None,h,1,0.8087323300005664,360.14890713100067,None,360.14890713100067,None,360.14890713100067,None,361.031813091,None,361.031813091,None,361.031813091,None,361.031813091,None,,,,,,,,,,,,,,,,,,,,,,,,,,,,,,,,,,,,,,,,,,,,001,121,2020_Feb_13_1209,spring_faces,3.1.5,59.6116707395691,
condition files/Stage0c_1.xlsx,0c,theta,alpha,h,"['h', 'g']","['Chess', 'Go']","[-0.15, 0.5]","[0.15, 0.5]",1,1,0,12,12,12,0,0,0,0,,,,,,,,,,,,,,,,,,,,,,,,,,,,,,,,,,,,,,,,,,,,,,,,,,,,,,,,,,,,,,,362.9985909450006,None,362.9985909450006,None,362.9985909450006,None,h,1,5.097160330999031,364.53242451799997,None,364.53242451799997,None,364.53242451799997,None,369.6820583480003,None,369.6820583480003,None,369.6820583480003,None,369.6820583480003,None,,,,,,,,,,,,,,,,,,,,,,,,,,,,,,,,,,,,,,,,,,,,001,121,2020_Feb_13_1209,spring_faces,3.1.5,59.6116707395691,
condition files/Stage0c_1.xlsx,0c,alpha,phi,h,"['h', 'g']","['Chess', 'Go']","[-0.15, 0.5]","[0.15, 0.5]",1,1,0,12,12,12,0,1,1,1,,,,,,,,,,,,,,,,,,,,,,,,,,,,,,,,,,,,,,,,,,,,,,,,,,,,,,,,,,,,,,,371.6476993760007,None,371.6476993760007,None,371.6476993760007,None,h,1,2.239218212000196,373.18233089000023,None,373.18233089000023,None,373.18233089000023,None,375.4820562040004,None,375.4820562040004,None,375.4820562040004,None,375.4820562040004,None,,,,,,,,,,,,,,,,,,,,,,,,,,,,,,,,,,,,,,,,,,,,001,121,2020_Feb_13_1209,spring_faces,3.1.5,59.6116707395691,
condition files/Stage0c_1.xlsx,0c,beta,theta,g,"['h', 'g']","['Chess', 'Go']","[-0.15, 0.5]","[0.15, 0.5]",1,1,0,12,12,12,0,2,2,2,,,,,,,,,,,,,,,,,,,,,,,,,,,,,,,,,,,,,,,,,,,,,,,,,,,,,,,,,,,,,,,377.4487115480006,None,377.4487115480006,None,377.4487115480006,None,g,1,2.7276314419996197,378.9819247609994,None,378.9819247609994,None,378.9819247609994,None,381.7652464669991,None,381.7652464669991,None,381.7652464669991,None,381.7652464669991,None,,,,,,,,,,,,,,,,,,,,,,,,,,,,,,,,,,,,,,,,,,,,001,121,2020_Feb_13_1209,spring_faces,3.1.5,59.6116707395691,
condition files/Stage0c_1.xlsx,0c,phi,beta,g,"['h', 'g']","['Chess', 'Go']","[-0.15, 0.5]","[0.15, 0.5]",1,1,0,12,12,12,0,3,3,3,,,,,,,,,,,,,,,,,,,,,,,,,,,,,,,,,,,,,,,,,,,,,,,,,,,,,,,,,,,,,,,383.731368752,None,383.731368752,None,383.731368752,None,g,1,2.2045356889993855,385.26503406899974,None,385.26503406899974,None,385.26503406899974,None,387.53191628499917,None,387.53191628499917,None,387.53191628499917,None,387.53191628499917,None,,,,,,,,,,,,,,,,,,,,,,,,,,,,,,,,,,,,,,,,,,,,001,121,2020_Feb_13_1209,spring_faces,3.1.5,59.6116707395691,
condition files/Stage0c_2.xlsx,0c,alpha,theta,h,"['h', 'g']","['Chess', 'Go']","[-0.15, 0.5]","[0.15, 0.5]",1,1,0,13,13,13,0,0,0,0,,,,,,,,,,,,,,,,,,,,,,,,,,,,,,,,,,,,,,,,,,,,,,,,,,,,,,,,,,,,,,,389.5153747200002,None,389.5153747200002,None,389.5153747200002,None,h,1,2.709777538999333,391.03174928299995,None,391.03174928299995,None,391.03174928299995,None,393.7987163510006,None,393.7987163510006,None,393.7987163510006,None,393.7987163510006,None,,,,,,,,,,,,,,,,,,,,,,,,,,,,,,,,,,,,,,,,,,,,001,121,2020_Feb_13_1209,spring_faces,3.1.5,59.6116707395691,
condition files/Stage0c_2.xlsx,0c,phi,alpha,h,"['h', 'g']","['Chess', 'Go']","[-0.15, 0.5]","[0.15, 0.5]",1,1,0,13,13,13,0,1,1,1,,,,,,,,,,,,,,,,,,,,,,,,,,,,,,,,,,,,,,,,,,,,,,,,,,,,,,,,,,,,,,,395.7645891100001,None,395.7645891100001,None,395.7645891100001,None,h,1,2.954712164999364,397.2988350760006,None,397.2988350760006,None,397.2988350760006,None,400.299813353,None,400.299813353,None,400.299813353,None,400.299813353,None,,,,,,,,,,,,,,,,,,,,,,,,,,,,,,,,,,,,,,,,,,,,001,121,2020_Feb_13_1209,spring_faces,3.1.5,59.6116707395691,
condition files/Stage0c_2.xlsx,0c,theta,beta,g,"['h', 'g']","['Chess', 'Go']","[-0.15, 0.5]","[0.15, 0.5]",1,1,0,13,13,13,0,2,2,2,,,,,,,,,,,,,,,,,,,,,,,,,,,,,,,,,,,,,,,,,,,,,,,,,,,,,,,,,,,,,,,402.2818878100006,None,402.2818878100006,None,402.2818878100006,None,g,1,1.365910096999869,403.81563850100065,None,403.81563850100065,None,403.81563850100065,None,405.23212227899967,None,405.23212227899967,None,405.23212227899967,None,405.23212227899967,None,,,,,,,,,,,,,,,,,,,,,,,,,,,,,,,,,,,,,,,,,,,,001,121,2020_Feb_13_1209,spring_faces,3.1.5,59.6116707395691,
condition files/Stage0c_2.xlsx,0c,beta,phi,g,"['h', 'g']","['Chess', 'Go']","[-0.15, 0.5]","[0.15, 0.5]",1,1,0,13,13,13,0,3,3,3,,,,,,,,,,,,,,,,,,,,,,,,,,,,,,,,,,,,,,,,,,,,,,,,,,,,,,,,,,,,,,,407.19860289499957,None,407.19860289499957,None,407.19860289499957,None,g,1,2.7694476720007515,408.732107414,None,408.732107414,None,408.732107414,None,411.5490466179999,None,411.5490466179999,None,411.5490466179999,None,411.5490466179999,None,,,,,,,,,,,,,,,,,,,,,,,,,,,,,,,,,,,,,,,,,,,,001,121,2020_Feb_13_1209,spring_faces,3.1.5,59.6116707395691,
condition files/Stage0c_1.xlsx,0c,alpha,phi,h,"['h', 'g']","['Chess', 'Go']","[-0.15, 0.5]","[0.15, 0.5]",1,1,0,14,14,14,0,0,0,1,,,,,,,,,,,,,,,,,,,,,,,,,,,,,,,,,,,,,,,,,,,,,,,,,,,,,,,,,,,,,,,413.54920321200007,None,413.54920321200007,None,413.54920321200007,None,h,1,0.9478818180014059,415.0816739490001,None,415.0816739490001,None,415.0816739490001,None,416.08203898600004,None,416.08203898600004,None,416.08203898600004,None,416.08203898600004,None,,,,,,,,,,,,,,,,,,,,,,,,,,,,,,,,,,,,,,,,,,,,001,121,2020_Feb_13_1209,spring_faces,3.1.5,59.6116707395691,
condition files/Stage0c_1.xlsx,0c,beta,theta,g,"['h', 'g']","['Chess', 'Go']","[-0.15, 0.5]","[0.15, 0.5]",1,1,0,14,14,14,0,1,1,2,,,,,,,,,,,,,,,,,,,,,,,,,,,,,,,,,,,,,,,,,,,,,,,,,,,,,,,,,,,,,,,418.04848226099966,None,418.04848226099966,None,418.04848226099966,None,g,1,0.7994190120007261,419.5821336379995,None,419.5821336379995,None,419.5821336379995,None,420.4320639870002,None,420.4320639870002,None,420.4320639870002,None,420.4320639870002,None,,,,,,,,,,,,,,,,,,,,,,,,,,,,,,,,,,,,,,,,,,,,001,121,2020_Feb_13_1209,spring_faces,3.1.5,59.6116707395691,
condition files/Stage0c_1.xlsx,0c,phi,beta,g,"['h', 'g']","['Chess', 'Go']","[-0.15, 0.5]","[0.15, 0.5]",1,1,0,14,14,14,0,2,2,3,,,,,,,,,,,,,,,,,,,,,,,,,,,,,,,,,,,,,,,,,,,,,,,,,,,,,,,,,,,,,,,422.39850466700045,None,422.39850466700045,None,422.39850466700045,None,g,1,1.5056382840011793,423.9319212039991,None,423.9319212039991,None,423.9319212039991,None,425.4815206919993,None,425.4815206919993,None,425.4815206919993,None,425.4815206919993,None,,,,,,,,,,,,,,,,,,,,,,,,,,,,,,,,,,,,,,,,,,,,001,121,2020_Feb_13_1209,spring_faces,3.1.5,59.6116707395691,
condition files/Stage0c_1.xlsx,0c,theta,alpha,h,"['h', 'g']","['Chess', 'Go']","[-0.15, 0.5]","[0.15, 0.5]",1,1,0,14,14,14,0,3,3,0,,,,,,,,,,,,,,,,,,,,,,,,,,,,,,,,,,,,,,,,,,,,,,,,,,,,,,,,,,,,,,,427.4651206920007,None,427.4651206920007,None,427.4651206920007,None,h,1,1.2554910499984544,428.99807750500077,None,428.99807750500077,None,428.99807750500077,None,430.3156510209992,None,430.3156510209992,None,430.3156510209992,None,430.3156510209992,None,,,,,,,,,,,,,,,,,,,,,,,,,,,,,,,,,,,,,,,,,,,,001,121,2020_Feb_13_1209,spring_faces,3.1.5,59.6116707395691,
condition files/Stage0c_2.xlsx,0c,phi,alpha,h,"['h', 'g']","['Chess', 'Go']","[-0.15, 0.5]","[0.15, 0.5]",1,1,0,15,15,15,0,0,0,1,,,,,,,,,,,,,,,,,,,,,,,,,,,,,,,,,,,,,,,,,,,,,,,,,,,,,,,,,,,,,,,432.2985491399995,None,432.2985491399995,None,432.2985491399995,None,h,1,2.294038639000064,433.81551023499924,None,433.81551023499924,None,433.81551023499924,None,436.14999444599925,None,436.14999444599925,None,436.14999444599925,None,436.14999444599925,None,,,,,,,,,,,,,,,,,,,,,,,,,,,,,,,,,,,,,,,,,,,,001,121,2020_Feb_13_1209,spring_faces,3.1.5,59.6116707395691,
condition files/Stage0c_2.xlsx,0c,theta,beta,g,"['h', 'g']","['Chess', 'Go']","[-0.15, 0.5]","[0.15, 0.5]",1,1,0,15,15,15,0,1,1,2,,,,,,,,,,,,,,,,,,,,,,,,,,,,,,,,,,,,,,,,,,,,,,,,,,,,,,,,,,,,,,,438.131625258,None,438.131625258,None,438.131625258,None,g,1,1.900106073000643,439.66541520899955,None,439.66541520899955,None,439.66541520899955,None,441.6151822640004,None,441.6151822640004,None,441.6151822640004,None,441.6151822640004,None,,,,,,,,,,,,,,,,,,,,,,,,,,,,,,,,,,,,,,,,,,,,001,121,2020_Feb_13_1209,spring_faces,3.1.5,59.6116707395691,
condition files/Stage0c_2.xlsx,0c,beta,phi,g,"['h', 'g']","['Chess', 'Go']","[-0.15, 0.5]","[0.15, 0.5]",1,1,0,15,15,15,0,2,2,3,,,,,,,,,,,,,,,,,,,,,,,,,,,,,,,,,,,,,,,,,,,,,,,,,,,,,,,,,,,,,,,443.58205559899943,None,443.58205559899943,None,443.58205559899943,None,g,1,2.017989468999076,445.11556428699987,None,445.11556428699987,None,445.11556428699987,None,447.1814931810004,None,447.1814931810004,None,447.1814931810004,None,447.1814931810004,None,,,,,,,,,,,,,,,,,,,,,,,,,,,,,,,,,,,,,,,,,,,,001,121,2020_Feb_13_1209,spring_faces,3.1.5,59.6116707395691,
condition files/Stage0c_2.xlsx,0c,alpha,theta,h,"['h', 'g']","['Chess', 'Go']","[-0.15, 0.5]","[0.15, 0.5]",1,1,0,15,15,15,0,3,3,0,,,,,,,,,,,,,,,,,,,,,,,,,,,,,,,,,,,,,,,,,,,,,,,,,,,,,,,,,,,,,,,449.16530464400057,None,449.16530464400057,None,449.16530464400057,None,h,1,1.4588594699998794,450.69879502599906,None,450.69879502599906,None,450.69879502599906,None,452.21540859299967,None,452.21540859299967,None,452.21540859299967,None,452.21540859299967,None,,,,,,,,,,,,,,,,,,,,,,,,,,,,,,,,,,,,,,,,,,,,001,121,2020_Feb_13_1209,spring_faces,3.1.5,59.6116707395691,
condition files/Stage0c_1.xlsx,0c,beta,theta,g,"['h', 'g']","['Chess', 'Go']","[-0.15, 0.5]","[0.15, 0.5]",1,1,0,16,16,16,0,0,0,2,,,,,,,,,,,,,,,,,,,,,,,,,,,,,,,,,,,,,,,,,,,,,,,,,,,,,,,,,,,,,,,454.1987955090008,None,454.1987955090008,None,454.1987955090008,None,g,1,11.513626953999847,455.7318940999994,None,455.7318940999994,None,455.7318940999994,None,467.2988093879994,None,467.2988093879994,None,467.2988093879994,None,467.2988093879994,None,,,,,,,,,,,,,,,,,,,,,,,,,,,,,,,,,,,,,,,,,,,,001,121,2020_Feb_13_1209,spring_faces,3.1.5,59.6116707395691,
condition files/Stage0c_1.xlsx,0c,alpha,phi,h,"['h', 'g']","['Chess', 'Go']","[-0.15, 0.5]","[0.15, 0.5]",1,1,0,16,16,16,0,1,1,1,,,,,,,,,,,,,,,,,,,,,,,,,,,,,,,,,,,,,,,,,,,,,,,,,,,,,,,,,,,,,,,469.2643910320003,None,469.2643910320003,None,469.2643910320003,None,h,1,1.150774215999263,470.7987049019994,None,470.7987049019994,None,470.7987049019994,None,472.0155571539999,None,472.0155571539999,None,472.0155571539999,None,472.0155571539999,None,,,,,,,,,,,,,,,,,,,,,,,,,,,,,,,,,,,,,,,,,,,,001,121,2020_Feb_13_1209,spring_faces,3.1.5,59.6116707395691,
condition files/Stage0c_1.xlsx,0c,theta,alpha,h,"['h', 'g']","['Chess', 'Go']","[-0.15, 0.5]","[0.15, 0.5]",1,1,0,16,16,16,0,2,2,0,,,,,,,,,,,,,,,,,,,,,,,,,,,,,,,,,,,,,,,,,,,,,,,,,,,,,,,,,,,,,,,473.98150612300014,None,473.98150612300014,None,473.98150612300014,None,h,1,1.7781965490012226,475.51534508000077,None,475.51534508000077,None,475.51534508000077,None,477.333432989999,None,477.333432989999,None,477.333432989999,None,477.333432989999,None,,,,,,,,,,,,,,,,,,,,,,,,,,,,,,,,,,,,,,,,,,,,001,121,2020_Feb_13_1209,spring_faces,3.1.5,59.6116707395691,
condition files/Stage0c_1.xlsx,0c,phi,beta,g,"['h', 'g']","['Chess', 'Go']","[-0.15, 0.5]","[0.15, 0.5]",1,1,0,16,16,16,0,3,3,3,,,,,,,,,,,,,,,,,,,,,,,,,,,,,,,,,,,,,,,,,,,,,,,,,,,,,,,,,,,,,,,479.31699520000075,None,479.31699520000075,None,479.31699520000075,None,g,1,1.8047997419998865,480.84876339699986,None,480.84876339699986,None,480.84876339699986,None,482.7155313149997,None,482.7155313149997,None,482.7155313149997,None,482.7155313149997,None,,,,,,,,,,,,,,,,,,,,,,,,,,,,,,,,,,,,,,,,,,,,001,121,2020_Feb_13_1209,spring_faces,3.1.5,59.6116707395691,
condition files/Stage0c_2.xlsx,0c,alpha,theta,h,"['h', 'g']","['Chess', 'Go']","[-0.15, 0.5]","[0.15, 0.5]",1,1,0,17,17,17,0,0,0,0,,,,,,,,,,,,,,,,,,,,,,,,,,,,,,,,,,,,,,,,,,,,,,,,,,,,,,,,,,,,,,,484.6988375010005,None,484.6988375010005,None,484.6988375010005,None,h,1,0.9180086460000894,486.21551819600063,None,486.21551819600063,None,486.21551819600063,None,487.1988077120004,None,487.1988077120004,None,487.1988077120004,None,487.1988077120004,None,,,,,,,,,,,,,,,,,,,,,,,,,,,,,,,,,,,,,,,,,,,,001,121,2020_Feb_13_1209,spring_faces,3.1.5,59.6116707395691,
condition files/Stage0c_2.xlsx,0c,theta,beta,g,"['h', 'g']","['Chess', 'Go']","[-0.15, 0.5]","[0.15, 0.5]",1,1,0,17,17,17,0,1,1,2,,,,,,,,,,,,,,,,,,,,,,,,,,,,,,,,,,,,,,,,,,,,,,,,,,,,,,,,,,,,,,,489.16519501699986,None,489.16519501699986,None,489.16519501699986,None,g,1,1.2823190769995563,490.6992304180003,None,490.6992304180003,None,490.6992304180003,None,492.0321218659992,None,492.0321218659992,None,492.0321218659992,None,492.0321218659992,None,,,,,,,,,,,,,,,,,,,,,,,,,,,,,,,,,,,,,,,,,,,,001,121,2020_Feb_13_1209,spring_faces,3.1.5,59.6116707395691,
condition files/Stage0c_2.xlsx,0c,phi,alpha,h,"['h', 'g']","['Chess', 'Go']","[-0.15, 0.5]","[0.15, 0.5]",1,1,0,17,17,17,0,2,2,1,,,,,,,,,,,,,,,,,,,,,,,,,,,,,,,,,,,,,,,,,,,,,,,,,,,,,,,,,,,,,,,493.99806190100026,None,493.99806190100026,None,493.99806190100026,None,h,1,0.9294072020002204,495.53212512400023,None,495.53212512400023,None,495.53212512400023,None,496.51549369500026,None,496.51549369500026,None,496.51549369500026,None,496.51549369500026,None,,,,,,,,,,,,,,,,,,,,,,,,,,,,,,,,,,,,,,,,,,,,001,121,2020_Feb_13_1209,spring_faces,3.1.5,59.6116707395691,
condition files/Stage0c_2.xlsx,0c,beta,phi,g,"['h', 'g']","['Chess', 'Go']","[-0.15, 0.5]","[0.15, 0.5]",1,1,0,17,17,17,0,3,3,3,,,,,,,,,,,,,,,,,,,,,,,,,,,,,,,,,,,,,,,,,,,,,,,,,,,,,,,,,,,,,,,498.481874264,None,498.481874264,None,498.481874264,None,g,1,0.9260565799995675,500.0154988739996,None,500.0154988739996,None,500.0154988739996,None,500.9988911670007,None,500.9988911670007,None,500.9988911670007,None,500.9988911670007,None,,,,,,,,,,,,,,,,,,,,,,,,,,,,,,,,,,,,,,,,,,,,001,121,2020_Feb_13_1209,spring_faces,3.1.5,59.6116707395691,
,,,,,,,,,,,,,,,,,,,,,,,,,,,,,,,,,,,,,,,,,,,,,,,,,,,,,,,,,,,,,,,,,,,,,,,,,,,,,,,,,,,,,,,,,,,,,,,,,,,,,,,,502.9820739099996,None,space,3.327315088001342,507.9822112290003,None,,,,,,,,,,,,,,,,,,,,,,,,,,,,,,,,,,,,,,001,121,2020_Feb_13_1209,spring_faces,3.1.5,59.6116707395691,
condition files/Stage1_1.xlsx,,T1,B1,c,"['c', 'm']","['Clue', 'Monopoly']","[-0.15, 0.5]","[0.15, 0.5]",1,1,,,,,,,,,0,0,0,0,0,0,0,0,,,,,,,,,,,,,,,,,,,,,,,,,,,,,,,,,,,,,,,,,,,,,,,,,,,,,,,511.36518903899923,None,511.36518903899923,None,511.36518903899923,None,c,1,1.6401747750005597,512.9654573299995,None,512.9654573299995,None,512.9654573299995,None,514.6821279899996,None,514.6821279899996,None,514.6821279899996,None,514.6821279899996,None,,,,,,,507.9822112290003,None,,,,,,,,,,,,,,,,,,,,,,,,,,,,,,,,,,,,001,121,2020_Feb_13_1209,spring_faces,3.1.5,59.6116707395691,
condition files/Stage1_1.xlsx,,B1,T2,c,"['c', 'm']","['Clue', 'Monopoly']","[-0.15, 0.5]","[0.15, 0.5]",1,1,,,,,,,,,0,0,0,0,0,1,1,1,,,,,,,,,,,,,,,,,,,,,,,,,,,,,,,,,,,,,,,,,,,,,,,,,,,,,,,516.631816310999,None,516.631816310999,None,516.631816310999,None,c,1,1.4307277179996163,518.214836228999,None,518.214836228999,None,518.214836228999,None,519.698972782,None,519.698972782,None,519.698972782,None,519.698972782,None,,,,,,,,,,,,,,,,,,,,,,,,,,,,,,,,,,,,,,,,,,,,001,121,2020_Feb_13_1209,spring_faces,3.1.5,59.6116707395691,
condition files/Stage1_1.xlsx,,T3,B4,c,"['c', 'm']","['Clue', 'Monopoly']","[-0.15, 0.5]","[0.15, 0.5]",1,1,,,,,,,,,0,0,0,0,0,2,2,5,,,,,,,,,,,,,,,,,,,,,,,,,,,,,,,,,,,,,,,,,,,,,,,,,,,,,,,521.6648000450004,None,521.6648000450004,None,521.6648000450004,None,m,0,1.0207532360000187,523.2488013099992,None,523.2488013099992,None,523.2488013099992,None,524.3322533810006,None,524.3322533810006,None,524.3322533810006,None,524.3322533810006,None,,,,,,,,,,,,,,,,,,,,,,,,,,,,,,,,,,,,,,,,,,,,001,121,2020_Feb_13_1209,spring_faces,3.1.5,59.6116707395691,
condition files/Stage1_1.xlsx,,T4,B3,m,"['c', 'm']","['Clue', 'Monopoly']","[-0.15, 0.5]","[0.15, 0.5]",1,1,,,,,,,,,0,0,0,0,0,3,3,6,,,,,,,,,,,,,,,,,,,,,,,,,,,,,,,,,,,,,,,,,,,,,,,,,,,,,,,526.2986578479995,None,526.2986578479995,None,526.2986578479995,None,c,0,1.1408519390006404,527.8487707139993,None,527.8487707139993,None,527.8487707139993,None,529.0646790369992,None,529.0646790369992,None,529.0646790369992,None,529.0646790369992,None,,,,,,,,,,,,,,,,,,,,,,,,,,,,,,,,,,,,,,,,,,,,001,121,2020_Feb_13_1209,spring_faces,3.1.5,59.6116707395691,
condition files/Stage1_1.xlsx,,T2,B2,m,"['c', 'm']","['Clue', 'Monopoly']","[-0.15, 0.5]","[0.15, 0.5]",1,1,,,,,,,,,0,0,0,0,0,4,4,3,,,,,,,,,,,,,,,,,,,,,,,,,,,,,,,,,,,,,,,,,,,,,,,,,,,,,,,531.0152570339997,None,531.0152570339997,None,531.0152570339997,None,c,0,1.208390017000056,532.5492813340006,None,532.5492813340006,None,532.5492813340006,None,533.8155416680002,None,533.8155416680002,None,533.8155416680002,None,533.8155416680002,None,,,,,,,,,,,,,,,,,,,,,,,,,,,,,,,,,,,,,,,,,,,,001,121,2020_Feb_13_1209,spring_faces,3.1.5,59.6116707395691,
condition files/Stage1_1.xlsx,,B2,T1,m,"['c', 'm']","['Clue', 'Monopoly']","[-0.15, 0.5]","[0.15, 0.5]",1,1,,,,,,,,,0,0,0,0,0,5,5,2,,,,,,,,,,,,,,,,,,,,,,,,,,,,,,,,,,,,,,,,,,,,,,,,,,,,,,,535.7818249329994,None,535.7818249329994,None,535.7818249329994,None,m,1,0.5386782410005253,537.3148835459997,None,537.3148835459997,None,537.3148835459997,None,537.9153467720007,None,537.9153467720007,None,537.9153467720007,None,537.9153467720007,None,,,,,,,,,,,,,,,,,,,,,,,,,,,,,,,,,,,,,,,,,,,,001,121,2020_Feb_13_1209,spring_faces,3.1.5,59.6116707395691,
condition files/Stage1_1.xlsx,,B4,T4,m,"['c', 'm']","['Clue', 'Monopoly']","[-0.15, 0.5]","[0.15, 0.5]",1,1,,,,,,,,,0,0,0,0,0,6,6,7,,,,,,,,,,,,,,,,,,,,,,,,,,,,,,,,,,,,,,,,,,,,,,,,,,,,,,,539.8818095530005,None,539.8818095530005,None,539.8818095530005,None,m,1,1.237880980999762,541.4156812620004,None,541.4156812620004,None,541.4156812620004,None,542.7155914390005,None,542.7155914390005,None,542.7155914390005,None,542.7155914390005,None,,,,,,,,,,,,,,,,,,,,,,,,,,,,,,,,,,,,,,,,,,,,001,121,2020_Feb_13_1209,spring_faces,3.1.5,59.6116707395691,
condition files/Stage1_1.xlsx,,B3,T3,c,"['c', 'm']","['Clue', 'Monopoly']","[-0.15, 0.5]","[0.15, 0.5]",1,1,,,,,,,,,0,0,0,0,0,7,7,4,,,,,,,,,,,,,,,,,,,,,,,,,,,,,,,,,,,,,,,,,,,,,,,,,,,,,,,544.6822055070006,None,544.6822055070006,None,544.6822055070006,None,m,0,1.8301790820005408,546.2153158929996,None,546.2153158929996,None,546.2153158929996,None,548.098296962,None,548.098296962,None,548.098296962,None,548.098296962,None,,,,,,,,,,,,,,,,,,,,,,,,,,,,,,,,,,,,,,,,,,,,001,121,2020_Feb_13_1209,spring_faces,3.1.5,59.6116707395691,
condition files/Stage1_2.xlsx,,T1,B2,m,"['c', 'm']","['Clue', 'Monopoly']","[-0.15, 0.5]","[0.15, 0.5]",1,1,,,,,,,,,0,1,1,1,0,0,0,2,,,,,,,,,,,,,,,,,,,,,,,,,,,,,,,,,,,,,,,,,,,,,,,,,,,,,,,550.0820812740003,None,550.0820812740003,None,550.0820812740003,None,m,1,0.8625517310010764,551.6149886050007,None,551.6149886050007,None,551.6149886050007,None,552.5338473329994,None,552.5338473329994,None,552.5338473329994,None,552.5338473329994,None,,,,,,,,,,,,,,,,,,,,,,,,,,,,,,,,,,,,,,,,,,,,001,121,2020_Feb_13_1209,spring_faces,3.1.5,59.6116707395691,
condition files/Stage1_2.xlsx,,B4,T3,c,"['c', 'm']","['Clue', 'Monopoly']","[-0.15, 0.5]","[0.15, 0.5]",1,1,,,,,,,,,0,1,1,1,0,1,1,5,,,,,,,,,,,,,,,,,,,,,,,,,,,,,,,,,,,,,,,,,,,,,,,,,,,,,,,554.4984949850004,None,554.4984949850004,None,554.4984949850004,None,c,1,1.1489742849989852,556.0325937430007,None,556.0325937430007,None,556.0325937430007,None,557.2336295490004,None,557.2336295490004,None,557.2336295490004,None,557.2336295490004,None,,,,,,,,,,,,,,,,,,,,,,,,,,,,,,,,,,,,,,,,,,,,001,121,2020_Feb_13_1209,spring_faces,3.1.5,59.6116707395691,
condition files/Stage1_2.xlsx,,B3,T4,m,"['c', 'm']","['Clue', 'Monopoly']","[-0.15, 0.5]","[0.15, 0.5]",1,1,,,,,,,,,0,1,1,1,0,2,2,6,,,,,,,,,,,,,,,,,,,,,,,,,,,,,,,,,,,,,,,,,,,,,,,,,,,,,,,559.1985524560005,None,559.1985524560005,None,559.1985524560005,None,m,1,1.9686559279998619,560.7489030880006,None,560.7489030880006,None,560.7489030880006,None,562.7988551119997,None,562.7988551119997,None,562.7988551119997,None,562.7988551119997,None,,,,,,,,,,,,,,,,,,,,,,,,,,,,,,,,,,,,,,,,,,,,001,121,2020_Feb_13_1209,spring_faces,3.1.5,59.6116707395691,
condition files/Stage1_2.xlsx,,B1,T1,c,"['c', 'm']","['Clue', 'Monopoly']","[-0.15, 0.5]","[0.15, 0.5]",1,1,,,,,,,,,0,1,1,1,0,3,3,0,,,,,,,,,,,,,,,,,,,,,,,,,,,,,,,,,,,,,,,,,,,,,,,,,,,,,,,564.7484549420005,None,564.7484549420005,None,564.7484549420005,None,c,1,1.1707054369999241,566.2988448779997,None,566.2988448779997,None,566.2988448779997,None,567.5318735399997,None,567.5318735399997,None,567.5318735399997,None,567.5318735399997,None,,,,,,,,,,,,,,,,,,,,,,,,,,,,,,,,,,,,,,,,,,,,001,121,2020_Feb_13_1209,spring_faces,3.1.5,59.6116707395691,
condition files/Stage1_2.xlsx,,T2,B1,c,"['c', 'm']","['Clue', 'Monopoly']","[-0.15, 0.5]","[0.15, 0.5]",1,1,,,,,,,,,0,1,1,1,0,4,4,1,,,,,,,,,,,,,,,,,,,,,,,,,,,,,,,,,,,,,,,,,,,,,,,,,,,,,,,569.4985740270004,None,569.4985740270004,None,569.4985740270004,None,c,1,1.5098798210001405,571.0316625989999,None,571.0316625989999,None,571.0316625989999,None,572.5993166570006,None,572.5993166570006,None,572.5993166570006,None,572.5993166570006,None,,,,,,,,,,,,,,,,,,,,,,,,,,,,,,,,,,,,,,,,,,,,001,121,2020_Feb_13_1209,spring_faces,3.1.5,59.6116707395691,
condition files/Stage1_2.xlsx,,B2,T2,m,"['c', 'm']","['Clue', 'Monopoly']","[-0.15, 0.5]","[0.15, 0.5]",1,1,,,,,,,,,0,1,1,1,0,5,5,3,,,,,,,,,,,,,,,,,,,,,,,,,,,,,,,,,,,,,,,,,,,,,,,,,,,,,,,574.5650821050003,None,574.5650821050003,None,574.5650821050003,None,m,1,1.9620562389991392,576.1155016949997,None,576.1155016949997,None,576.1155016949997,None,578.1317551060001,None,578.1317551060001,None,578.1317551060001,None,578.1317551060001,None,,,,,,,,,,,,,,,,,,,,,,,,,,,,,,,,,,,,,,,,,,,,001,121,2020_Feb_13_1209,spring_faces,3.1.5,59.6116707395691,
condition files/Stage1_2.xlsx,,T4,B4,m,"['c', 'm']","['Clue', 'Monopoly']","[-0.15, 0.5]","[0.15, 0.5]",1,1,,,,,,,,,0,1,1,1,0,6,6,7,,,,,,,,,,,,,,,,,,,,,,,,,,,,,,,,,,,,,,,,,,,,,,,,,,,,,,,580.098573027999,None,580.098573027999,None,580.098573027999,None,c,0,1.8205809450009838,581.6489829080001,None,581.6489829080001,None,581.6489829080001,None,583.5317773339993,None,583.5317773339993,None,583.5317773339993,None,583.5317773339993,None,,,,,,,,,,,,,,,,,,,,,,,,,,,,,,,,,,,,,,,,,,,,001,121,2020_Feb_13_1209,spring_faces,3.1.5,59.6116707395691,
condition files/Stage1_2.xlsx,,T3,B3,c,"['c', 'm']","['Clue', 'Monopoly']","[-0.15, 0.5]","[0.15, 0.5]",1,1,,,,,,,,,0,1,1,1,0,7,7,4,,,,,,,,,,,,,,,,,,,,,,,,,,,,,,,,,,,,,,,,,,,,,,,,,,,,,,,585.4982476820005,None,585.4982476820005,None,585.4982476820005,None,m,0,0.9174698919996445,587.0320636369997,None,587.0320636369997,None,587.0320636369997,None,588.0321831839992,None,588.0321831839992,None,588.0321831839992,None,588.0321831839992,None,,,,,,,,,,,,,,,,,,,,,,,,,,,,,,,,,,,,,,,,,,,,001,121,2020_Feb_13_1209,spring_faces,3.1.5,59.6116707395691,
condition files/Stage1_1.xlsx,,T3,B4,c,"['c', 'm']","['Clue', 'Monopoly']","[-0.15, 0.5]","[0.15, 0.5]",1,1,,,,,,,,,0,2,2,2,0,0,0,5,,,,,,,,,,,,,,,,,,,,,,,,,,,,,,,,,,,,,,,,,,,,,,,,,,,,,,,589.9988309119999,None,589.9988309119999,None,589.9988309119999,None,c,1,3.184881533999942,591.5486860300007,None,591.5486860300007,None,591.5486860300007,None,594.7985190790005,None,594.7985190790005,None,594.7985190790005,None,594.7985190790005,None,,,,,,,,,,,,,,,,,,,,,,,,,,,,,,,,,,,,,,,,,,,,001,121,2020_Feb_13_1209,spring_faces,3.1.5,59.6116707395691,
condition files/Stage1_1.xlsx,,T2,B2,m,"['c', 'm']","['Clue', 'Monopoly']","[-0.15, 0.5]","[0.15, 0.5]",1,1,,,,,,,,,0,2,2,2,0,1,1,3,,,,,,,,,,,,,,,,,,,,,,,,,,,,,,,,,,,,,,,,,,,,,,,,,,,,,,,596.7650680219995,None,596.7650680219995,None,596.7650680219995,None,m,1,1.1383056770009716,598.2993049399993,None,598.2993049399993,None,598.2993049399993,None,599.5154246790007,None,599.5154246790007,None,599.5154246790007,None,599.5154246790007,None,,,,,,,,,,,,,,,,,,,,,,,,,,,,,,,,,,,,,,,,,,,,001,121,2020_Feb_13_1209,spring_faces,3.1.5,59.6116707395691,
condition files/Stage1_1.xlsx,,B3,T3,c,"['c', 'm']","['Clue', 'Monopoly']","[-0.15, 0.5]","[0.15, 0.5]",1,1,,,,,,,,,0,2,2,2,0,2,2,4,,,,,,,,,,,,,,,,,,,,,,,,,,,,,,,,,,,,,,,,,,,,,,,,,,,,,,,601.4654877659996,None,601.4654877659996,None,601.4654877659996,None,c,1,0.9505110090012749,603.0149978610007,None,603.0149978610007,None,603.0149978610007,None,604.0312776089995,None,604.0312776089995,None,604.0312776089995,None,604.0312776089995,None,,,,,,,,,,,,,,,,,,,,,,,,,,,,,,,,,,,,,,,,,,,,001,121,2020_Feb_13_1209,spring_faces,3.1.5,59.6116707395691,
condition files/Stage1_1.xlsx,,B1,T2,c,"['c', 'm']","['Clue', 'Monopoly']","[-0.15, 0.5]","[0.15, 0.5]",1,1,,,,,,,,,0,2,2,2,0,3,3,1,,,,,,,,,,,,,,,,,,,,,,,,,,,,,,,,,,,,,,,,,,,,,,,,,,,,,,,605.9986216130001,None,605.9986216130001,None,605.9986216130001,None,m,0,0.8018319029997656,607.5316949879998,None,607.5316949879998,None,607.5316949879998,None,608.3989789980005,None,608.3989789980005,None,608.3989789980005,None,608.3989789980005,None,,,,,,,,,,,,,,,,,,,,,,,,,,,,,,,,,,,,,,,,,,,,001,121,2020_Feb_13_1209,spring_faces,3.1.5,59.6116707395691,
condition files/Stage1_1.xlsx,,T1,B1,c,"['c', 'm']","['Clue', 'Monopoly']","[-0.15, 0.5]","[0.15, 0.5]",1,1,,,,,,,,,0,2,2,2,0,4,4,0,,,,,,,,,,,,,,,,,,,,,,,,,,,,,,,,,,,,,,,,,,,,,,,,,,,,,,,610.3652067069997,None,610.3652067069997,None,610.3652067069997,None,c,1,1.0901423800005432,611.9154740470003,None,611.9154740470003,None,611.9154740470003,None,613.065368698999,None,613.065368698999,None,613.065368698999,None,613.065368698999,None,,,,,,,,,,,,,,,,,,,,,,,,,,,,,,,,,,,,,,,,,,,,001,121,2020_Feb_13_1209,spring_faces,3.1.5,59.6116707395691,
condition files/Stage1_1.xlsx,,T4,B3,m,"['c', 'm']","['Clue', 'Monopoly']","[-0.15, 0.5]","[0.15, 0.5]",1,1,,,,,,,,,0,2,2,2,0,5,5,6,,,,,,,,,,,,,,,,,,,,,,,,,,,,,,,,,,,,,,,,,,,,,,,,,,,,,,,615.0312702419997,None,615.0312702419997,None,615.0312702419997,None,c,0,1.5271539499990467,616.566367510999,None,616.566367510999,None,616.566367510999,None,618.1650567140005,None,618.1650567140005,None,618.1650567140005,None,618.1650567140005,None,,,,,,,,,,,,,,,,,,,,,,,,,,,,,,,,,,,,,,,,,,,,001,121,2020_Feb_13_1209,spring_faces,3.1.5,59.6116707395691,
condition files/Stage1_1.xlsx,,B2,T1,m,"['c', 'm']","['Clue', 'Monopoly']","[-0.15, 0.5]","[0.15, 0.5]",1,1,,,,,,,,,0,2,2,2,0,6,6,2,,,,,,,,,,,,,,,,,,,,,,,,,,,,,,,,,,,,,,,,,,,,,,,,,,,,,,,620.115323254,None,620.115323254,None,620.115323254,None,m,1,1.165439937998599,621.648129145,None,621.648129145,None,621.648129145,None,622.8649014660004,None,622.8649014660004,None,622.8649014660004,None,622.8649014660004,None,,,,,,,,,,,,,,,,,,,,,,,,,,,,,,,,,,,,,,,,,,,,001,121,2020_Feb_13_1209,spring_faces,3.1.5,59.6116707395691,
condition files/Stage1_1.xlsx,,B4,T4,m,"['c', 'm']","['Clue', 'Monopoly']","[-0.15, 0.5]","[0.15, 0.5]",1,1,,,,,,,,,0,2,2,2,0,7,7,7,,,,,,,,,,,,,,,,,,,,,,,,,,,,,,,,,,,,,,,,,,,,,,,,,,,,,,,624.8315588749992,None,624.8315588749992,None,624.8315588749992,None,c,0,2.1126647839992074,626.3648901969991,None,626.3648901969991,None,626.3648901969991,None,628.5319425800008,None,628.5319425800008,None,628.5319425800008,None,628.5319425800008,None,,,,,,,,,,,,,,,,,,,,,,,,,,,,,,,,,,,,,,,,,,,,001,121,2020_Feb_13_1209,spring_faces,3.1.5,59.6116707395691,
condition files/Stage1_2.xlsx,,B4,T3,c,"['c', 'm']","['Clue', 'Monopoly']","[-0.15, 0.5]","[0.15, 0.5]",1,1,,,,,,,,,0,3,3,3,0,0,0,5,,,,,,,,,,,,,,,,,,,,,,,,,,,,,,,,,,,,,,,,,,,,,,,,,,,,,,,630.5154685920006,None,630.5154685920006,None,630.5154685920006,None,c,1,0.7328593019992695,632.0487144210001,None,632.0487144210001,None,632.0487144210001,None,632.8325373629996,None,632.8325373629996,None,632.8325373629996,None,632.8325373629996,None,,,,,,,,,,,,,,,,,,,,,,,,,,,,,,,,,,,,,,,,,,,,001,121,2020_Feb_13_1209,spring_faces,3.1.5,59.6116707395691,
condition files/Stage1_2.xlsx,,B1,T1,c,"['c', 'm']","['Clue', 'Monopoly']","[-0.15, 0.5]","[0.15, 0.5]",1,1,,,,,,,,,0,3,3,3,0,1,1,0,,,,,,,,,,,,,,,,,,,,,,,,,,,,,,,,,,,,,,,,,,,,,,,,,,,,,,,634.798588783,None,634.798588783,None,634.798588783,None,c,1,0.2573631049999676,636.3322845229995,None,636.3322845229995,None,636.3322845229995,None,636.64825294,None,636.64825294,None,636.64825294,None,636.64825294,None,,,,,,,,,,,,,,,,,,,,,,,,,,,,,,,,,,,,,,,,,,,,001,121,2020_Feb_13_1209,spring_faces,3.1.5,59.6116707395691,
condition files/Stage1_2.xlsx,,T1,B2,m,"['c', 'm']","['Clue', 'Monopoly']","[-0.15, 0.5]","[0.15, 0.5]",1,1,,,,,,,,,0,3,3,3,0,2,2,2,,,,,,,,,,,,,,,,,,,,,,,,,,,,,,,,,,,,,,,,,,,,,,,,,,,,,,,638.6148461470002,None,638.6148461470002,None,638.6148461470002,None,c,0,0.26396647399997164,640.1655865470002,None,640.1655865470002,None,640.1655865470002,None,640.4988847200002,None,640.4988847200002,None,640.4988847200002,None,640.4988847200002,None,,,,,,,,,,,,,,,,,,,,,,,,,,,,,,,,,,,,,,,,,,,,001,121,2020_Feb_13_1209,spring_faces,3.1.5,59.6116707395691,
condition files/Stage1_2.xlsx,,B2,T2,m,"['c', 'm']","['Clue', 'Monopoly']","[-0.15, 0.5]","[0.15, 0.5]",1,1,,,,,,,,,0,3,3,3,0,3,3,3,,,,,,,,,,,,,,,,,,,,,,,,,,,,,,,,,,,,,,,,,,,,,,,,,,,,,,,642.4487048030005,None,642.4487048030005,None,642.4487048030005,None,c,0,0.2555742399999872,643.9820122910005,None,643.9820122910005,None,643.9820122910005,None,644.2982823269995,None,644.2982823269995,None,644.2982823269995,None,644.2982823269995,None,,,,,,,,,,,,,,,,,,,,,,,,,,,,,,,,,,,,,,,,,,,,001,121,2020_Feb_13_1209,spring_faces,3.1.5,59.6116707395691,
condition files/Stage1_2.xlsx,,B3,T4,m,"['c', 'm']","['Clue', 'Monopoly']","[-0.15, 0.5]","[0.15, 0.5]",1,1,,,,,,,,,0,3,3,3,0,4,4,6,,,,,,,,,,,,,,,,,,,,,,,,,,,,,,,,,,,,,,,,,,,,,,,,,,,,,,,646.2651564370008,None,646.2651564370008,None,646.2651564370008,None,c,0,1.287385480998637,647.7981577169994,None,647.7981577169994,None,647.7981577169994,None,649.1488645259997,None,649.1488645259997,None,649.1488645259997,None,649.1488645259997,None,,,,,,,,,,,,,,,,,,,,,,,,,,,,,,,,,,,,,,,,,,,,001,121,2020_Feb_13_1209,spring_faces,3.1.5,59.6116707395691,
condition files/Stage1_2.xlsx,,T3,B3,c,"['c', 'm']","['Clue', 'Monopoly']","[-0.15, 0.5]","[0.15, 0.5]",1,1,,,,,,,,,0,3,3,3,0,5,5,4,,,,,,,,,,,,,,,,,,,,,,,,,,,,,,,,,,,,,,,,,,,,,,,,,,,,,,,651.1152094219997,None,651.1152094219997,None,651.1152094219997,None,m,0,0.8850287530003698,652.6485299249998,None,652.6485299249998,None,652.6485299249998,None,653.6155345770003,None,653.6155345770003,None,653.6155345770003,None,653.6155345770003,None,,,,,,,,,,,,,,,,,,,,,,,,,,,,,,,,,,,,,,,,,,,,001,121,2020_Feb_13_1209,spring_faces,3.1.5,59.6116707395691,
condition files/Stage1_2.xlsx,,T2,B1,c,"['c', 'm']","['Clue', 'Monopoly']","[-0.15, 0.5]","[0.15, 0.5]",1,1,,,,,,,,,0,3,3,3,0,6,6,1,,,,,,,,,,,,,,,,,,,,,,,,,,,,,,,,,,,,,,,,,,,,,,,,,,,,,,,655.5652016639997,None,655.5652016639997,None,655.5652016639997,None,m,0,1.5714881780004362,657.0980913950007,None,657.0980913950007,None,657.0980913950007,None,658.7317004159995,None,658.7317004159995,None,658.7317004159995,None,658.7317004159995,None,,,,,,,,,,,,,,,,,,,,,,,,,,,,,,,,,,,,,,,,,,,,001,121,2020_Feb_13_1209,spring_faces,3.1.5,59.6116707395691,
condition files/Stage1_2.xlsx,,T4,B4,m,"['c', 'm']","['Clue', 'Monopoly']","[-0.15, 0.5]","[0.15, 0.5]",1,1,,,,,,,,,0,3,3,3,0,7,7,7,,,,,,,,,,,,,,,,,,,,,,,,,,,,,,,,,,,,,,,,,,,,,,,,,,,,,,,660.6981164850004,None,660.6981164850004,None,660.6981164850004,None,c,0,1.2047153849998722,662.2488424219991,None,662.2488424219991,None,662.2488424219991,None,663.5321536730007,None,663.5321536730007,None,663.5321536730007,None,663.5321536730007,None,,,,,,,,,,,,,,,,,,,,,,,,,,,,,,,,,,,,,,,,,,,,001,121,2020_Feb_13_1209,spring_faces,3.1.5,59.6116707395691,
condition files/Stage1_1.xlsx,,B2,T1,m,"['c', 'm']","['Clue', 'Monopoly']","[-0.15, 0.5]","[0.15, 0.5]",1,1,,,,,,,,,0,4,4,4,0,0,0,2,,,,,,,,,,,,,,,,,,,,,,,,,,,,,,,,,,,,,,,,,,,,,,,,,,,,,,,665.4982293449993,None,665.4982293449993,None,665.4982293449993,None,m,1,0.4210703240005387,667.0485222309999,None,667.0485222309999,None,667.0485222309999,None,667.5315823799992,None,667.5315823799992,None,667.5315823799992,None,667.5315823799992,None,,,,,,,,,,,,,,,,,,,,,,,,,,,,,,,,,,,,,,,,,,,,001,121,2020_Feb_13_1209,spring_faces,3.1.5,59.6116707395691,
condition files/Stage1_1.xlsx,,T4,B3,m,"['c', 'm']","['Clue', 'Monopoly']","[-0.15, 0.5]","[0.15, 0.5]",1,1,,,,,,,,,0,4,4,4,0,1,1,6,,,,,,,,,,,,,,,,,,,,,,,,,,,,,,,,,,,,,,,,,,,,,,,,,,,,,,,669.4984494300006,None,669.4984494300006,None,669.4984494300006,None,m,1,0.8536100999990595,671.0319629759997,None,671.0319629759997,None,671.0319629759997,None,671.9485654609998,None,671.9485654609998,None,671.9485654609998,None,671.9485654609998,None,,,,,,,,,,,,,,,,,,,,,,,,,,,,,,,,,,,,,,,,,,,,001,121,2020_Feb_13_1209,spring_faces,3.1.5,59.6116707395691,
condition files/Stage1_1.xlsx,,T1,B1,c,"['c', 'm']","['Clue', 'Monopoly']","[-0.15, 0.5]","[0.15, 0.5]",1,1,,,,,,,,,0,4,4,4,0,2,2,0,,,,,,,,,,,,,,,,,,,,,,,,,,,,,,,,,,,,,,,,,,,,,,,,,,,,,,,673.9153426649991,None,673.9153426649991,None,673.9153426649991,None,m,0,0.7877878960007365,675.4497950549994,None,675.4497950549994,None,675.4497950549994,None,676.2984783960001,None,676.2984783960001,None,676.2984783960001,None,676.2984783960001,None,,,,,,,,,,,,,,,,,,,,,,,,,,,,,,,,,,,,,,,,,,,,001,121,2020_Feb_13_1209,spring_faces,3.1.5,59.6116707395691,
condition files/Stage1_1.xlsx,,T2,B2,m,"['c', 'm']","['Clue', 'Monopoly']","[-0.15, 0.5]","[0.15, 0.5]",1,1,,,,,,,,,0,4,4,4,0,3,3,3,,,,,,,,,,,,,,,,,,,,,,,,,,,,,,,,,,,,,,,,,,,,,,,,,,,,,,,678.2648343969995,None,678.2648343969995,None,678.2648343969995,None,m,1,0.8072561919998407,679.7983800189995,None,679.7983800189995,None,679.7983800189995,None,680.6681758800005,None,680.6681758800005,None,680.6681758800005,None,680.6681758800005,None,,,,,,,,,,,,,,,,,,,,,,,,,,,,,,,,,,,,,,,,,,,,001,121,2020_Feb_13_1209,spring_faces,3.1.5,59.6116707395691,
condition files/Stage1_1.xlsx,,B1,T2,c,"['c', 'm']","['Clue', 'Monopoly']","[-0.15, 0.5]","[0.15, 0.5]",1,1,,,,,,,,,0,4,4,4,0,4,4,1,,,,,,,,,,,,,,,,,,,,,,,,,,,,,,,,,,,,,,,,,,,,,,,,,,,,,,,682.6319990989996,None,682.6319990989996,None,682.6319990989996,None,c,1,1.9753148220006551,684.1662219739992,None,684.1662219739992,None,684.1662219739992,None,686.198136523999,None,686.198136523999,None,686.198136523999,None,686.198136523999,None,,,,,,,,,,,,,,,,,,,,,,,,,,,,,,,,,,,,,,,,,,,,001,121,2020_Feb_13_1209,spring_faces,3.1.5,59.6116707395691,
condition files/Stage1_1.xlsx,,T3,B4,c,"['c', 'm']","['Clue', 'Monopoly']","[-0.15, 0.5]","[0.15, 0.5]",1,1,,,,,,,,,0,4,4,4,0,5,5,5,,,,,,,,,,,,,,,,,,,,,,,,,,,,,,,,,,,,,,,,,,,,,,,,,,,,,,,688.1646340560001,None,688.1646340560001,None,688.1646340560001,None,m,0,2.1871919770001114,689.6983929399994,None,689.6983929399994,None,689.6983929399994,None,691.9487922440003,None,691.9487922440003,None,691.9487922440003,None,691.9487922440003,None,,,,,,,,,,,,,,,,,,,,,,,,,,,,,,,,,,,,,,,,,,,,001,121,2020_Feb_13_1209,spring_faces,3.1.5,59.6116707395691,
condition files/Stage1_1.xlsx,,B4,T4,m,"['c', 'm']","['Clue', 'Monopoly']","[-0.15, 0.5]","[0.15, 0.5]",1,1,,,,,,,,,0,4,4,4,0,6,6,7,,,,,,,,,,,,,,,,,,,,,,,,,,,,,,,,,,,,,,,,,,,,,,,,,,,,,,,693.9146712210004,None,693.9146712210004,None,693.9146712210004,None,c,0,3.813205361000655,695.4483577939991,None,695.4483577939991,None,695.4483577939991,None,699.3154533979996,None,699.3154533979996,None,699.3154533979996,None,699.3154533979996,None,,,,,,,,,,,,,,,,,,,,,,,,,,,,,,,,,,,,,,,,,,,,001,121,2020_Feb_13_1209,spring_faces,3.1.5,59.6116707395691,
condition files/Stage1_1.xlsx,,B3,T3,c,"['c', 'm']","['Clue', 'Monopoly']","[-0.15, 0.5]","[0.15, 0.5]",1,1,,,,,,,,,0,4,4,4,0,7,7,4,,,,,,,,,,,,,,,,,,,,,,,,,,,,,,,,,,,,,,,,,,,,,,,,,,,,,,,701.2817976360002,None,701.2817976360002,None,701.2817976360002,None,m,0,0.7018547919997218,702.8156643380007,None,702.8156643380007,None,702.8156643380007,None,703.5822515719992,None,703.5822515719992,None,703.5822515719992,None,703.5822515719992,None,,,,,,,,,,,,,,,,,,,,,,,,,,,,,,,,,,,,,,,,,,,,001,121,2020_Feb_13_1209,spring_faces,3.1.5,59.6116707395691,
condition files/Stage1_2.xlsx,,T2,B1,c,"['c', 'm']","['Clue', 'Monopoly']","[-0.15, 0.5]","[0.15, 0.5]",1,1,,,,,,,,,0,5,5,5,0,0,0,1,,,,,,,,,,,,,,,,,,,,,,,,,,,,,,,,,,,,,,,,,,,,,,,,,,,,,,,705.5655483339997,None,705.5655483339997,None,705.5655483339997,None,m,0,6.259166522000669,707.0984795749991,None,707.0984795749991,None,707.0984795749991,None,713.4150183589991,None,713.4150183589991,None,713.4150183589991,None,713.4150183589991,None,,,,,,,,,,,,,,,,,,,,,,,,,,,,,,,,,,,,,,,,,,,,001,121,2020_Feb_13_1209,spring_faces,3.1.5,59.6116707395691,
condition files/Stage1_2.xlsx,,T3,B3,c,"['c', 'm']","['Clue', 'Monopoly']","[-0.15, 0.5]","[0.15, 0.5]",1,1,,,,,,,,,0,5,5,5,0,1,1,4,,,,,,,,,,,,,,,,,,,,,,,,,,,,,,,,,,,,,,,,,,,,,,,,,,,,,,,715.3817556579997,None,715.3817556579997,None,715.3817556579997,None,c,1,0.7766907140012336,716.9168438199995,None,716.9168438199995,None,716.9168438199995,None,717.7488230250001,None,717.7488230250001,None,717.7488230250001,None,717.7488230250001,None,,,,,,,,,,,,,,,,,,,,,,,,,,,,,,,,,,,,,,,,,,,,001,121,2020_Feb_13_1209,spring_faces,3.1.5,59.6116707395691,
condition files/Stage1_2.xlsx,,B4,T3,c,"['c', 'm']","['Clue', 'Monopoly']","[-0.15, 0.5]","[0.15, 0.5]",1,1,,,,,,,,,0,5,5,5,0,2,2,5,,,,,,,,,,,,,,,,,,,,,,,,,,,,,,,,,,,,,,,,,,,,,,,,,,,,,,,719.7149634649995,None,719.7149634649995,None,719.7149634649995,None,c,1,0.829841907001537,721.2477419539991,None,721.2477419539991,None,721.2477419539991,None,722.1314786469993,None,722.1314786469993,None,722.1314786469993,None,722.1314786469993,None,,,,,,,,,,,,,,,,,,,,,,,,,,,,,,,,,,,,,,,,,,,,001,121,2020_Feb_13_1209,spring_faces,3.1.5,59.6116707395691,
condition files/Stage1_2.xlsx,,T1,B2,m,"['c', 'm']","['Clue', 'Monopoly']","[-0.15, 0.5]","[0.15, 0.5]",1,1,,,,,,,,,0,5,5,5,0,3,3,2,,,,,,,,,,,,,,,,,,,,,,,,,,,,,,,,,,,,,,,,,,,,,,,,,,,,,,,724.09815213,None,724.09815213,None,724.09815213,None,m,1,0.8145102560010855,725.631077263999,None,725.631077263999,None,725.631077263999,None,726.5011945049991,None,726.5011945049991,None,726.5011945049991,None,726.5011945049991,None,,,,,,,,,,,,,,,,,,,,,,,,,,,,,,,,,,,,,,,,,,,,001,121,2020_Feb_13_1209,spring_faces,3.1.5,59.6116707395691,
condition files/Stage1_2.xlsx,,B3,T4,m,"['c', 'm']","['Clue', 'Monopoly']","[-0.15, 0.5]","[0.15, 0.5]",1,1,,,,,,,,,0,5,5,5,0,4,4,6,,,,,,,,,,,,,,,,,,,,,,,,,,,,,,,,,,,,,,,,,,,,,,,,,,,,,,,728.4651738619996,None,728.4651738619996,None,728.4651738619996,None,c,0,1.727300094000384,729.9983353879998,None,729.9983353879998,None,729.9983353879998,None,731.7819092909995,None,731.7819092909995,None,731.7819092909995,None,731.7819092909995,None,,,,,,,,,,,,,,,,,,,,,,,,,,,,,,,,,,,,,,,,,,,,001,121,2020_Feb_13_1209,spring_faces,3.1.5,59.6116707395691,
condition files/Stage1_2.xlsx,,B2,T2,m,"['c', 'm']","['Clue', 'Monopoly']","[-0.15, 0.5]","[0.15, 0.5]",1,1,,,,,,,,,0,5,5,5,0,5,5,3,,,,,,,,,,,,,,,,,,,,,,,,,,,,,,,,,,,,,,,,,,,,,,,,,,,,,,,733.7484978789998,None,733.7484978789998,None,733.7484978789998,None,m,1,1.7055289929994615,735.2841193690001,None,735.2841193690001,None,735.2841193690001,None,737.0487901969991,None,737.0487901969991,None,737.0487901969991,None,737.0487901969991,None,,,,,,,,,,,,,,,,,,,,,,,,,,,,,,,,,,,,,,,,,,,,001,121,2020_Feb_13_1209,spring_faces,3.1.5,59.6116707395691,
condition files/Stage1_2.xlsx,,B1,T1,c,"['c', 'm']","['Clue', 'Monopoly']","[-0.15, 0.5]","[0.15, 0.5]",1,1,,,,,,,,,0,5,5,5,0,6,6,0,,,,,,,,,,,,,,,,,,,,,,,,,,,,,,,,,,,,,,,,,,,,,,,,,,,,,,,739.0151936940001,None,739.0151936940001,None,739.0151936940001,None,c,1,0.8073370980000618,740.5502992130005,None,740.5502992130005,None,740.5502992130005,None,741.4150124530006,None,741.4150124530006,None,741.4150124530006,None,741.4150124530006,None,,,,,,,,,,,,,,,,,,,,,,,,,,,,,,,,,,,,,,,,,,,,001,121,2020_Feb_13_1209,spring_faces,3.1.5,59.6116707395691,
condition files/Stage1_2.xlsx,,T4,B4,m,"['c', 'm']","['Clue', 'Monopoly']","[-0.15, 0.5]","[0.15, 0.5]",1,1,,,,,,,,,0,5,5,5,0,7,7,7,,,,,,,,,,,,,,,,,,,,,,,,,,,,,,,,,,,,,,,,,,,,,,,,,,,,,,,743.381894393,None,743.381894393,None,743.381894393,None,m,1,2.8266361109999707,744.9148622400007,None,744.9148622400007,None,744.9148622400007,None,747.7999526660005,None,747.7999526660005,None,747.7999526660005,None,747.7999526660005,None,,,,,,,,,,,,,,,,,,,,,,,,,,,,,,,,,,,,,,,,,,,,001,121,2020_Feb_13_1209,spring_faces,3.1.5,59.6116707395691,
condition files/Stage1_1.xlsx,,T2,B2,m,"['c', 'm']","['Clue', 'Monopoly']","[-0.15, 0.5]","[0.15, 0.5]",1,1,,,,,,,,,0,6,6,6,0,0,0,3,,,,,,,,,,,,,,,,,,,,,,,,,,,,,,,,,,,,,,,,,,,,,,,,,,,,,,,749.7814644709997,None,749.7814644709997,None,749.7814644709997,None,m,1,1.1780906559997675,751.3154186680003,None,751.3154186680003,None,751.3154186680003,None,752.5490530160005,None,752.5490530160005,None,752.5490530160005,None,752.5490530160005,None,,,,,,,,,,,,,,,,,,,,,,,,,,,,,,,,,,,,,,,,,,,,001,121,2020_Feb_13_1209,spring_faces,3.1.5,59.6116707395691,
condition files/Stage1_1.xlsx,,B1,T2,c,"['c', 'm']","['Clue', 'Monopoly']","[-0.15, 0.5]","[0.15, 0.5]",1,1,,,,,,,,,0,6,6,6,0,1,1,1,,,,,,,,,,,,,,,,,,,,,,,,,,,,,,,,,,,,,,,,,,,,,,,,,,,,,,,754.5152081519991,None,754.5152081519991,None,754.5152081519991,None,c,1,0.8294690949987853,756.0481158559996,None,756.0481158559996,None,756.0481158559996,None,756.9324078169993,None,756.9324078169993,None,756.9324078169993,None,756.9324078169993,None,,,,,,,,,,,,,,,,,,,,,,,,,,,,,,,,,,,,,,,,,,,,001,121,2020_Feb_13_1209,spring_faces,3.1.5,59.6116707395691,
condition files/Stage1_1.xlsx,,B4,T4,m,"['c', 'm']","['Clue', 'Monopoly']","[-0.15, 0.5]","[0.15, 0.5]",1,1,,,,,,,,,0,6,6,6,0,2,2,7,,,,,,,,,,,,,,,,,,,,,,,,,,,,,,,,,,,,,,,,,,,,,,,,,,,,,,,758.8982501419996,None,758.8982501419996,None,758.8982501419996,None,c,0,1.9486511089999112,760.4329044360002,None,760.4329044360002,None,760.4329044360002,None,762.448796572,None,762.448796572,None,762.448796572,None,762.448796572,None,,,,,,,,,,,,,,,,,,,,,,,,,,,,,,,,,,,,,,,,,,,,001,121,2020_Feb_13_1209,spring_faces,3.1.5,59.6116707395691,
condition files/Stage1_1.xlsx,,T3,B4,c,"['c', 'm']","['Clue', 'Monopoly']","[-0.15, 0.5]","[0.15, 0.5]",1,1,,,,,,,,,0,6,6,6,0,3,3,5,,,,,,,,,,,,,,,,,,,,,,,,,,,,,,,,,,,,,,,,,,,,,,,,,,,,,,,764.3980443540004,None,764.3980443540004,None,764.3980443540004,None,c,1,1.218122479000158,765.9314231930002,None,765.9314231930002,None,765.9314231930002,None,767.2152226279995,None,767.2152226279995,None,767.2152226279995,None,767.2152226279995,None,,,,,,,,,,,,,,,,,,,,,,,,,,,,,,,,,,,,,,,,,,,,001,121,2020_Feb_13_1209,spring_faces,3.1.5,59.6116707395691,
condition files/Stage1_1.xlsx,,T4,B3,m,"['c', 'm']","['Clue', 'Monopoly']","[-0.15, 0.5]","[0.15, 0.5]",1,1,,,,,,,,,0,6,6,6,0,4,4,6,,,,,,,,,,,,,,,,,,,,,,,,,,,,,,,,,,,,,,,,,,,,,,,,,,,,,,,769.182402037999,None,769.182402037999,None,769.182402037999,None,m,1,1.1063879119992635,770.7152243059991,None,770.7152243059991,None,770.7152243059991,None,771.8830082749992,None,771.8830082749992,None,771.8830082749992,None,771.8830082749992,None,,,,,,,,,,,,,,,,,,,,,,,,,,,,,,,,,,,,,,,,,,,,001,121,2020_Feb_13_1209,spring_faces,3.1.5,59.6116707395691,
condition files/Stage1_1.xlsx,,B2,T1,m,"['c', 'm']","['Clue', 'Monopoly']","[-0.15, 0.5]","[0.15, 0.5]",1,1,,,,,,,,,0,6,6,6,0,5,5,2,,,,,,,,,,,,,,,,,,,,,,,,,,,,,,,,,,,,,,,,,,,,,,,,,,,,,,,773.848427297,None,773.848427297,None,773.848427297,None,m,1,0.43992632100162155,775.3817107800005,None,775.3817107800005,None,775.3817107800005,None,775.8822258010005,None,775.8822258010005,None,775.8822258010005,None,775.8822258010005,None,,,,,,,,,,,,,,,,,,,,,,,,,,,,,,,,,,,,,,,,,,,,001,121,2020_Feb_13_1209,spring_faces,3.1.5,59.6116707395691,
condition files/Stage1_1.xlsx,,T1,B1,c,"['c', 'm']","['Clue', 'Monopoly']","[-0.15, 0.5]","[0.15, 0.5]",1,1,,,,,,,,,0,6,6,6,0,6,6,0,,,,,,,,,,,,,,,,,,,,,,,,,,,,,,,,,,,,,,,,,,,,,,,,,,,,,,,777.8483569649998,None,777.8483569649998,None,777.8483569649998,None,m,0,0.6793275680010993,779.3822346840007,None,779.3822346840007,None,779.3822346840007,None,780.1159488110006,None,780.1159488110006,None,780.1159488110006,None,780.1159488110006,None,,,,,,,,,,,,,,,,,,,,,,,,,,,,,,,,,,,,,,,,,,,,001,121,2020_Feb_13_1209,spring_faces,3.1.5,59.6116707395691,
condition files/Stage1_1.xlsx,,B3,T3,c,"['c', 'm']","['Clue', 'Monopoly']","[-0.15, 0.5]","[0.15, 0.5]",1,1,,,,,,,,,0,6,6,6,0,7,7,4,,,,,,,,,,,,,,,,,,,,,,,,,,,,,,,,,,,,,,,,,,,,,,,,,,,,,,,782.0818343560004,None,782.0818343560004,None,782.0818343560004,None,c,1,1.2465547289993992,783.6150227359994,None,783.6150227359994,None,783.6150227359994,None,784.9152318689994,None,784.9152318689994,None,784.9152318689994,None,784.9152318689994,None,,,,,,,,,,,,,,,,,,,,,,,,,,,,,,,,,,,,,,,,,,,,001,121,2020_Feb_13_1209,spring_faces,3.1.5,59.6116707395691,
condition files/Stage1_2.xlsx,,B4,T3,c,"['c', 'm']","['Clue', 'Monopoly']","[-0.15, 0.5]","[0.15, 0.5]",1,1,,,,,,,,,0,7,7,7,0,0,0,5,,,,,,,,,,,,,,,,,,,,,,,,,,,,,,,,,,,,,,,,,,,,,,,,,,,,,,,786.8986118180001,None,786.8986118180001,None,786.8986118180001,None,m,0,2.1081464039998536,788.4333935129998,None,788.4333935129998,None,788.4333935129998,None,790.5981354119995,None,790.5981354119995,None,790.5981354119995,None,790.5981354119995,None,,,,,,,,,,,,,,,,,,,,,,,,,,,,,,,,,,,,,,,,,,,,001,121,2020_Feb_13_1209,spring_faces,3.1.5,59.6116707395691,
condition files/Stage1_2.xlsx,,B3,T4,m,"['c', 'm']","['Clue', 'Monopoly']","[-0.15, 0.5]","[0.15, 0.5]",1,1,,,,,,,,,0,7,7,7,0,1,1,6,,,,,,,,,,,,,,,,,,,,,,,,,,,,,,,,,,,,,,,,,,,,,,,,,,,,,,,792.5651394710003,None,792.5651394710003,None,792.5651394710003,None,c,0,0.3140605980006512,794.115494878999,None,794.115494878999,None,794.115494878999,None,794.4842135349991,None,794.4842135349991,None,794.4842135349991,None,794.4842135349991,None,,,,,,,,,,,,,,,,,,,,,,,,,,,,,,,,,,,,,,,,,,,,001,121,2020_Feb_13_1209,spring_faces,3.1.5,59.6116707395691,
condition files/Stage1_2.xlsx,,B1,T1,c,"['c', 'm']","['Clue', 'Monopoly']","[-0.15, 0.5]","[0.15, 0.5]",1,1,,,,,,,,,0,7,7,7,0,2,2,0,,,,,,,,,,,,,,,,,,,,,,,,,,,,,,,,,,,,,,,,,,,,,,,,,,,,,,,796.4487001819998,None,796.4487001819998,None,796.4487001819998,None,c,1,0.35215942800095945,797.9814072059999,None,797.9814072059999,None,797.9814072059999,None,798.4153727129997,None,798.4153727129997,None,798.4153727129997,None,798.4153727129997,None,,,,,,,,,,,,,,,,,,,,,,,,,,,,,,,,,,,,,,,,,,,,001,121,2020_Feb_13_1209,spring_faces,3.1.5,59.6116707395691,
condition files/Stage1_2.xlsx,,T3,B3,c,"['c', 'm']","['Clue', 'Monopoly']","[-0.15, 0.5]","[0.15, 0.5]",1,1,,,,,,,,,0,7,7,7,0,3,3,4,,,,,,,,,,,,,,,,,,,,,,,,,,,,,,,,,,,,,,,,,,,,,,,,,,,,,,,800.3649450560006,None,800.3649450560006,None,800.3649450560006,None,c,1,0.8647238909998123,801.9007989099991,None,801.9007989099991,None,801.9007989099991,None,802.8318389069991,None,802.8318389069991,None,802.8318389069991,None,802.8318389069991,None,,,,,,,,,,,,,,,,,,,,,,,,,,,,,,,,,,,,,,,,,,,,001,121,2020_Feb_13_1209,spring_faces,3.1.5,59.6116707395691,
condition files/Stage1_2.xlsx,,B2,T2,m,"['c', 'm']","['Clue', 'Monopoly']","[-0.15, 0.5]","[0.15, 0.5]",1,1,,,,,,,,,0,7,7,7,0,4,4,3,,,,,,,,,,,,,,,,,,,,,,,,,,,,,,,,,,,,,,,,,,,,,,,,,,,,,,,804.7987022880006,None,804.7987022880006,None,804.7987022880006,None,m,1,1.2166511490013363,806.3488639200004,None,806.3488639200004,None,806.3488639200004,None,807.6337460209998,None,807.6337460209998,None,807.6337460209998,None,807.6337460209998,None,,,,,,,,,,,,,,,,,,,,,,,,,,,,,,,,,,,,,,,,,,,,001,121,2020_Feb_13_1209,spring_faces,3.1.5,59.6116707395691,
condition files/Stage1_2.xlsx,,T4,B4,m,"['c', 'm']","['Clue', 'Monopoly']","[-0.15, 0.5]","[0.15, 0.5]",1,1,,,,,,,,,0,7,7,7,0,5,5,7,,,,,,,,,,,,,,,,,,,,,,,,,,,,,,,,,,,,,,,,,,,,,,,,,,,,,,,809.5979284509995,None,809.5979284509995,None,809.5979284509995,None,m,1,4.832694361999529,811.1488541260005,None,811.1488541260005,None,811.1488541260005,None,816.0322639210008,None,816.0322639210008,None,816.0322639210008,None,816.0322639210008,None,,,,,,,,,,,,,,,,,,,,,,,,,,,,,,,,,,,,,,,,,,,,001,121,2020_Feb_13_1209,spring_faces,3.1.5,59.6116707395691,
condition files/Stage1_2.xlsx,,T1,B2,m,"['c', 'm']","['Clue', 'Monopoly']","[-0.15, 0.5]","[0.15, 0.5]",1,1,,,,,,,,,0,7,7,7,0,6,6,2,,,,,,,,,,,,,,,,,,,,,,,,,,,,,,,,,,,,,,,,,,,,,,,,,,,,,,,817.9985977619999,None,817.9985977619999,None,817.9985977619999,None,m,1,1.2806352629995672,819.532930206,None,819.532930206,None,819.532930206,None,820.8652302859991,None,820.8652302859991,None,820.8652302859991,None,820.8652302859991,None,,,,,,,,,,,,,,,,,,,,,,,,,,,,,,,,,,,,,,,,,,,,001,121,2020_Feb_13_1209,spring_faces,3.1.5,59.6116707395691,
condition files/Stage1_2.xlsx,,T2,B1,c,"['c', 'm']","['Clue', 'Monopoly']","[-0.15, 0.5]","[0.15, 0.5]",1,1,,,,,,,,,0,7,7,7,0,7,7,1,,,,,,,,,,,,,,,,,,,,,,,,,,,,,,,,,,,,,,,,,,,,,,,,,,,,,,,822.831823261,None,822.831823261,None,822.831823261,None,c,1,1.8245487160002085,824.3651009879995,None,824.3651009879995,None,824.3651009879995,None,826.249515215999,None,826.249515215999,None,826.249515215999,None,826.249515215999,None,,,,,,,,,,,,,,,,,,,,,,,,,,,,,,,,,,,,,,,,,,,,001,121,2020_Feb_13_1209,spring_faces,3.1.5,59.6116707395691,
condition files/Stage1_1.xlsx,,B4,T4,m,"['c', 'm']","['Clue', 'Monopoly']","[-0.15, 0.5]","[0.15, 0.5]",1,1,,,,,,,,,0,8,8,8,0,0,0,7,,,,,,,,,,,,,,,,,,,,,,,,,,,,,,,,,,,,,,,,,,,,,,,,,,,,,,,828.2323281909994,None,828.2323281909994,None,828.2323281909994,None,c,0,1.224819604998629,829.764834612999,None,829.764834612999,None,829.764834612999,None,831.0495444799999,None,831.0495444799999,None,831.0495444799999,None,831.0495444799999,None,,,,,,,,,,,,,,,,,,,,,,,,,,,,,,,,,,,,,,,,,,,,001,121,2020_Feb_13_1209,spring_faces,3.1.5,59.6116707395691,
condition files/Stage1_1.xlsx,,B3,T3,c,"['c', 'm']","['Clue', 'Monopoly']","[-0.15, 0.5]","[0.15, 0.5]",1,1,,,,,,,,,0,8,8,8,0,1,1,4,,,,,,,,,,,,,,,,,,,,,,,,,,,,,,,,,,,,,,,,,,,,,,,,,,,,,,,833.0151440789996,None,833.0151440789996,None,833.0151440789996,None,m,0,0.6307844420007314,834.5507928719999,None,834.5507928719999,None,834.5507928719999,None,835.2483266349991,None,835.2483266349991,None,835.2483266349991,None,835.2483266349991,None,,,,,,,,,,,,,,,,,,,,,,,,,,,,,,,,,,,,,,,,,,,,001,121,2020_Feb_13_1209,spring_faces,3.1.5,59.6116707395691,
condition files/Stage1_1.xlsx,,B1,T2,c,"['c', 'm']","['Clue', 'Monopoly']","[-0.15, 0.5]","[0.15, 0.5]",1,1,,,,,,,,,0,8,8,8,0,2,2,1,,,,,,,,,,,,,,,,,,,,,,,,,,,,,,,,,,,,,,,,,,,,,,,,,,,,,,,837.1986044909991,None,837.1986044909991,None,837.1986044909991,None,c,1,0.609604978999414,838.7319137619997,None,838.7319137619997,None,838.7319137619997,None,839.3991238309991,None,839.3991238309991,None,839.3991238309991,None,839.3991238309991,None,,,,,,,,,,,,,,,,,,,,,,,,,,,,,,,,,,,,,,,,,,,,001,121,2020_Feb_13_1209,spring_faces,3.1.5,59.6116707395691,
condition files/Stage1_1.xlsx,,T1,B1,c,"['c', 'm']","['Clue', 'Monopoly']","[-0.15, 0.5]","[0.15, 0.5]",1,1,,,,,,,,,0,8,8,8,0,3,3,0,,,,,,,,,,,,,,,,,,,,,,,,,,,,,,,,,,,,,,,,,,,,,,,,,,,,,,,841.3650139380006,None,841.3650139380006,None,841.3650139380006,None,c,1,1.4516114660000312,842.8979058179993,None,842.8979058179993,None,842.8979058179993,None,844.4153080180004,None,844.4153080180004,None,844.4153080180004,None,844.4153080180004,None,,,,,,,,,,,,,,,,,,,,,,,,,,,,,,,,,,,,,,,,,,,,001,121,2020_Feb_13_1209,spring_faces,3.1.5,59.6116707395691,
condition files/Stage1_1.xlsx,,T2,B2,m,"['c', 'm']","['Clue', 'Monopoly']","[-0.15, 0.5]","[0.15, 0.5]",1,1,,,,,,,,,0,8,8,8,0,4,4,3,,,,,,,,,,,,,,,,,,,,,,,,,,,,,,,,,,,,,,,,,,,,,,,,,,,,,,,846.381450588,None,846.381450588,None,846.381450588,None,m,1,0.8186614020014531,847.9148509629995,None,847.9148509629995,None,847.9148509629995,None,848.7982532810001,None,848.7982532810001,None,848.7982532810001,None,848.7982532810001,None,,,,,,,,,,,,,,,,,,,,,,,,,,,,,,,,,,,,,,,,,,,,001,121,2020_Feb_13_1209,spring_faces,3.1.5,59.6116707395691,
condition files/Stage1_1.xlsx,,T4,B3,m,"['c', 'm']","['Clue', 'Monopoly']","[-0.15, 0.5]","[0.15, 0.5]",1,1,,,,,,,,,0,8,8,8,0,5,5,6,,,,,,,,,,,,,,,,,,,,,,,,,,,,,,,,,,,,,,,,,,,,,,,,,,,,,,,850.7651304480005,None,850.7651304480005,None,850.7651304480005,None,c,0,0.9461379249987658,852.3154147049991,None,852.3154147049991,None,852.3154147049991,None,853.3153595759995,None,853.3153595759995,None,853.3153595759995,None,853.3153595759995,None,,,,,,,,,,,,,,,,,,,,,,,,,,,,,,,,,,,,,,,,,,,,001,121,2020_Feb_13_1209,spring_faces,3.1.5,59.6116707395691,
condition files/Stage1_1.xlsx,,B2,T1,m,"['c', 'm']","['Clue', 'Monopoly']","[-0.15, 0.5]","[0.15, 0.5]",1,1,,,,,,,,,0,8,8,8,0,6,6,2,,,,,,,,,,,,,,,,,,,,,,,,,,,,,,,,,,,,,,,,,,,,,,,,,,,,,,,855.2818547040006,None,855.2818547040006,None,855.2818547040006,None,m,1,1.3589318820013432,856.8147087109992,None,856.8147087109992,None,856.8147087109992,None,858.2316915039992,None,858.2316915039992,None,858.2316915039992,None,858.2316915039992,None,,,,,,,,,,,,,,,,,,,,,,,,,,,,,,,,,,,,,,,,,,,,001,121,2020_Feb_13_1209,spring_faces,3.1.5,59.6116707395691,
condition files/Stage1_1.xlsx,,T3,B4,c,"['c', 'm']","['Clue', 'Monopoly']","[-0.15, 0.5]","[0.15, 0.5]",1,1,,,,,,,,,0,8,8,8,0,7,7,5,,,,,,,,,,,,,,,,,,,,,,,,,,,,,,,,,,,,,,,,,,,,,,,,,,,,,,,860.1983043079999,None,860.1983043079999,None,860.1983043079999,None,c,1,1.2256901869986905,861.7319425419992,None,861.7319425419992,None,861.7319425419992,None,863.0151195180006,None,863.0151195180006,None,863.0151195180006,None,863.0151195180006,None,,,,,,,,,,,,,,,,,,,,,,,,,,,,,,,,,,,,,,,,,,,,001,121,2020_Feb_13_1209,spring_faces,3.1.5,59.6116707395691,
condition files/Stage1_2.xlsx,,T1,B2,m,"['c', 'm']","['Clue', 'Monopoly']","[-0.15, 0.5]","[0.15, 0.5]",1,1,,,,,,,,,0,9,9,9,0,0,0,2,,,,,,,,,,,,,,,,,,,,,,,,,,,,,,,,,,,,,,,,,,,,,,,,,,,,,,,864.9989187770007,None,864.9989187770007,None,864.9989187770007,None,m,1,1.0487102829993091,866.5488518189995,None,866.5488518189995,None,866.5488518189995,None,867.6650369149993,None,867.6650369149993,None,867.6650369149993,None,867.6650369149993,None,,,,,,,,,,,,,,,,,,,,,,,,,,,,,,,,,,,,,,,,,,,,001,121,2020_Feb_13_1209,spring_faces,3.1.5,59.6116707395691,
condition files/Stage1_2.xlsx,,B3,T4,m,"['c', 'm']","['Clue', 'Monopoly']","[-0.15, 0.5]","[0.15, 0.5]",1,1,,,,,,,,,0,9,9,9,0,1,1,6,,,,,,,,,,,,,,,,,,,,,,,,,,,,,,,,,,,,,,,,,,,,,,,,,,,,,,,869.6153031409995,None,869.6153031409995,None,869.6153031409995,None,c,0,0.94393235699863,871.1495958699998,None,871.1495958699998,None,871.1495958699998,None,872.1484534459996,None,872.1484534459996,None,872.1484534459996,None,872.1484534459996,None,,,,,,,,,,,,,,,,,,,,,,,,,,,,,,,,,,,,,,,,,,,,001,121,2020_Feb_13_1209,spring_faces,3.1.5,59.6116707395691,
condition files/Stage1_2.xlsx,,B1,T1,c,"['c', 'm']","['Clue', 'Monopoly']","[-0.15, 0.5]","[0.15, 0.5]",1,1,,,,,,,,,0,9,9,9,0,2,2,0,,,,,,,,,,,,,,,,,,,,,,,,,,,,,,,,,,,,,,,,,,,,,,,,,,,,,,,874.1146727819996,None,874.1146727819996,None,874.1146727819996,None,c,1,1.325282806999894,875.6483679039993,None,875.6483679039993,None,875.6483679039993,None,877.0321451140007,None,877.0321451140007,None,877.0321451140007,None,877.0321451140007,None,,,,,,,,,,,,,,,,,,,,,,,,,,,,,,,,,,,,,,,,,,,,001,121,2020_Feb_13_1209,spring_faces,3.1.5,59.6116707395691,
condition files/Stage1_2.xlsx,,T3,B3,c,"['c', 'm']","['Clue', 'Monopoly']","[-0.15, 0.5]","[0.15, 0.5]",1,1,,,,,,,,,0,9,9,9,0,3,3,4,,,,,,,,,,,,,,,,,,,,,,,,,,,,,,,,,,,,,,,,,,,,,,,,,,,,,,,878.9987439479992,None,878.9987439479992,None,878.9987439479992,None,m,0,1.112563754999428,880.5489875429994,None,880.5489875429994,None,880.5489875429994,None,881.7152380389998,None,881.7152380389998,None,881.7152380389998,None,881.7152380389998,None,,,,,,,,,,,,,,,,,,,,,,,,,,,,,,,,,,,,,,,,,,,,001,121,2020_Feb_13_1209,spring_faces,3.1.5,59.6116707395691,
condition files/Stage1_2.xlsx,,B4,T3,c,"['c', 'm']","['Clue', 'Monopoly']","[-0.15, 0.5]","[0.15, 0.5]",1,1,,,,,,,,,0,9,9,9,0,4,4,5,,,,,,,,,,,,,,,,,,,,,,,,,,,,,,,,,,,,,,,,,,,,,,,,,,,,,,,883.6815798659991,None,883.6815798659991,None,883.6815798659991,None,c,1,0.39884629100015445,885.2147004140006,None,885.2147004140006,None,885.2147004140006,None,885.6651220189997,None,885.6651220189997,None,885.6651220189997,None,885.6651220189997,None,,,,,,,,,,,,,,,,,,,,,,,,,,,,,,,,,,,,,,,,,,,,001,121,2020_Feb_13_1209,spring_faces,3.1.5,59.6116707395691,
condition files/Stage1_2.xlsx,,T4,B4,m,"['c', 'm']","['Clue', 'Monopoly']","[-0.15, 0.5]","[0.15, 0.5]",1,1,,,,,,,,,0,9,9,9,0,5,5,7,,,,,,,,,,,,,,,,,,,,,,,,,,,,,,,,,,,,,,,,,,,,,,,,,,,,,,,887.6317044480002,None,887.6317044480002,None,887.6317044480002,None,m,1,2.0797647290000896,889.1658011300005,None,889.1658011300005,None,889.1658011300005,None,891.3156059539997,None,891.3156059539997,None,891.3156059539997,None,891.3156059539997,None,,,,,,,,,,,,,,,,,,,,,,,,,,,,,,,,,,,,,,,,,,,,001,121,2020_Feb_13_1209,spring_faces,3.1.5,59.6116707395691,
condition files/Stage1_2.xlsx,,B2,T2,m,"['c', 'm']","['Clue', 'Monopoly']","[-0.15, 0.5]","[0.15, 0.5]",1,1,,,,,,,,,0,9,9,9,0,6,6,3,,,,,,,,,,,,,,,,,,,,,,,,,,,,,,,,,,,,,,,,,,,,,,,,,,,,,,,893.2652107779995,None,893.2652107779995,None,893.2652107779995,None,m,1,0.9590670060006232,894.7985725710005,None,894.7985725710005,None,894.7985725710005,None,895.815467774999,None,895.815467774999,None,895.815467774999,None,895.815467774999,None,,,,,,,,,,,,,,,,,,,,,,,,,,,,,,,,,,,,,,,,,,,,001,121,2020_Feb_13_1209,spring_faces,3.1.5,59.6116707395691,
condition files/Stage1_2.xlsx,,T2,B1,c,"['c', 'm']","['Clue', 'Monopoly']","[-0.15, 0.5]","[0.15, 0.5]",1,1,,,,,,,,,0,9,9,9,0,7,7,1,,,,,,,,,,,,,,,,,,,,,,,,,,,,,,,,,,,,,,,,,,,,,,,,,,,,,,,897.7819194969998,None,897.7819194969998,None,897.7819194969998,None,c,1,2.074670141999377,899.3149850869995,None,899.3149850869995,None,899.3149850869995,None,901.4485964609994,None,901.4485964609994,None,901.4485964609994,None,901.4485964609994,None,,,,,,,,,,,,,,,,,,,,,,,,,,,,,,,,,,,,,,,,,,,,001,121,2020_Feb_13_1209,spring_faces,3.1.5,59.6116707395691,
condition files/Stage1_1.xlsx,,B2,T1,m,"['c', 'm']","['Clue', 'Monopoly']","[-0.15, 0.5]","[0.15, 0.5]",1,1,,,,,,,,,0,10,10,10,0,0,0,2,,,,,,,,,,,,,,,,,,,,,,,,,,,,,,,,,,,,,,,,,,,,,,,,,,,,,,,903.4317412879991,None,903.4317412879991,None,903.4317412879991,None,m,1,1.751396999001372,904.9821700140001,None,904.9821700140001,None,904.9821700140001,None,906.7987768219991,None,906.7987768219991,None,906.7987768219991,None,906.7987768219991,None,,,,,,,,,,,,,,,,,,,,,,,,,,,,,,,,,,,,,,,,,,,,001,121,2020_Feb_13_1209,spring_faces,3.1.5,59.6116707395691,
condition files/Stage1_1.xlsx,,T2,B2,m,"['c', 'm']","['Clue', 'Monopoly']","[-0.15, 0.5]","[0.15, 0.5]",1,1,,,,,,,,,0,10,10,10,0,1,1,3,,,,,,,,,,,,,,,,,,,,,,,,,,,,,,,,,,,,,,,,,,,,,,,,,,,,,,,908.7652661449993,None,908.7652661449993,None,908.7652661449993,None,m,1,20.707162087999677,910.2984701000005,None,910.2984701000005,None,910.2984701000005,None,931.0646068890001,None,931.0646068890001,None,931.0646068890001,None,931.0646068890001,None,,,,,,,,,,,,,,,,,,,,,,,,,,,,,,,,,,,,,,,,,,,,001,121,2020_Feb_13_1209,spring_faces,3.1.5,59.6116707395691,
condition files/Stage1_1.xlsx,,B4,T4,m,"['c', 'm']","['Clue', 'Monopoly']","[-0.15, 0.5]","[0.15, 0.5]",1,1,,,,,,,,,0,10,10,10,0,2,2,7,,,,,,,,,,,,,,,,,,,,,,,,,,,,,,,,,,,,,,,,,,,,,,,,,,,,,,,933.0318005940007,None,933.0318005940007,None,933.0318005940007,None,c,0,2.43846780900094,934.5671665070004,None,934.5671665070004,None,934.5671665070004,None,937.0647899640007,None,937.0647899640007,None,937.0647899640007,None,937.0647899640007,None,,,,,,,,,,,,,,,,,,,,,,,,,,,,,,,,,,,,,,,,,,,,001,121,2020_Feb_13_1209,spring_faces,3.1.5,59.6116707395691,
condition files/Stage1_1.xlsx,,T3,B4,c,"['c', 'm']","['Clue', 'Monopoly']","[-0.15, 0.5]","[0.15, 0.5]",1,1,,,,,,,,,0,10,10,10,0,3,3,5,,,,,,,,,,,,,,,,,,,,,,,,,,,,,,,,,,,,,,,,,,,,,,,,,,,,,,,939.0318652669994,None,939.0318652669994,None,939.0318652669994,None,m,0,1.7837632130012935,940.565756037,None,940.565756037,None,940.565756037,None,942.416178514999,None,942.416178514999,None,942.416178514999,None,942.416178514999,None,,,,,,,,,,,,,,,,,,,,,,,,,,,,,,,,,,,,,,,,,,,,001,121,2020_Feb_13_1209,spring_faces,3.1.5,59.6116707395691,
condition files/Stage1_1.xlsx,,B1,T2,c,"['c', 'm']","['Clue', 'Monopoly']","[-0.15, 0.5]","[0.15, 0.5]",1,1,,,,,,,,,0,10,10,10,0,4,4,1,,,,,,,,,,,,,,,,,,,,,,,,,,,,,,,,,,,,,,,,,,,,,,,,,,,,,,,944.3819652149996,None,944.3819652149996,None,944.3819652149996,None,c,1,2.176570741999967,945.9169878499997,None,945.9169878499997,None,945.9169878499997,None,948.1488491189994,None,948.1488491189994,None,948.1488491189994,None,948.1488491189994,None,,,,,,,,,,,,,,,,,,,,,,,,,,,,,,,,,,,,,,,,,,,,001,121,2020_Feb_13_1209,spring_faces,3.1.5,59.6116707395691,
condition files/Stage1_1.xlsx,,T4,B3,m,"['c', 'm']","['Clue', 'Monopoly']","[-0.15, 0.5]","[0.15, 0.5]",1,1,,,,,,,,,0,10,10,10,0,5,5,6,,,,,,,,,,,,,,,,,,,,,,,,,,,,,,,,,,,,,,,,,,,,,,,,,,,,,,,950.1152557919995,None,950.1152557919995,None,950.1152557919995,None,m,1,1.181245706999107,951.6483192350006,None,951.6483192350006,None,951.6483192350006,None,952.898866997999,None,952.898866997999,None,952.898866997999,None,952.898866997999,None,,,,,,,,,,,,,,,,,,,,,,,,,,,,,,,,,,,,,,,,,,,,001,121,2020_Feb_13_1209,spring_faces,3.1.5,59.6116707395691,
condition files/Stage1_1.xlsx,,T1,B1,c,"['c', 'm']","['Clue', 'Monopoly']","[-0.15, 0.5]","[0.15, 0.5]",1,1,,,,,,,,,0,10,10,10,0,6,6,0,,,,,,,,,,,,,,,,,,,,,,,,,,,,,,,,,,,,,,,,,,,,,,,,,,,,,,,954.8479695040005,None,954.8479695040005,None,954.8479695040005,None,m,0,10.15721565000058,956.3843238169993,None,956.3843238169993,None,956.3843238169993,None,966.6000555840001,None,966.6000555840001,None,966.6000555840001,None,966.6000555840001,None,,,,,,,,,,,,,,,,,,,,,,,,,,,,,,,,,,,,,,,,,,,,001,121,2020_Feb_13_1209,spring_faces,3.1.5,59.6116707395691,
condition files/Stage1_1.xlsx,,B3,T3,c,"['c', 'm']","['Clue', 'Monopoly']","[-0.15, 0.5]","[0.15, 0.5]",1,1,,,,,,,,,0,10,10,10,0,7,7,4,,,,,,,,,,,,,,,,,,,,,,,,,,,,,,,,,,,,,,,,,,,,,,,,,,,,,,,968.5649073479999,None,968.5649073479999,None,968.5649073479999,None,m,0,5.979121884000051,970.098459629,None,970.098459629,None,970.098459629,None,976.1321067030003,None,976.1321067030003,None,976.1321067030003,None,976.1321067030003,None,,,,,,,,,,,,,,,,,,,,,,,,,,,,,,,,,,,,,,,,,,,,001,121,2020_Feb_13_1209,spring_faces,3.1.5,59.6116707395691,
condition files/Stage1_2.xlsx,,B3,T4,m,"['c', 'm']","['Clue', 'Monopoly']","[-0.15, 0.5]","[0.15, 0.5]",1,1,,,,,,,,,0,11,11,11,0,0,0,6,,,,,,,,,,,,,,,,,,,,,,,,,,,,,,,,,,,,,,,,,,,,,,,,,,,,,,,978.1152808240004,None,978.1152808240004,None,978.1152808240004,None,m,1,0.8602038709996123,979.6654308340003,None,979.6654308340003,None,979.6654308340003,None,980.5987607070001,None,980.5987607070001,None,980.5987607070001,None,980.5987607070001,None,,,,,,,,,,,,,,,,,,,,,,,,,,,,,,,,,,,,,,,,,,,,001,121,2020_Feb_13_1209,spring_faces,3.1.5,59.6116707395691,
condition files/Stage1_2.xlsx,,T3,B3,c,"['c', 'm']","['Clue', 'Monopoly']","[-0.15, 0.5]","[0.15, 0.5]",1,1,,,,,,,,,0,11,11,11,0,1,1,4,,,,,,,,,,,,,,,,,,,,,,,,,,,,,,,,,,,,,,,,,,,,,,,,,,,,,,,982.5485031869994,None,982.5485031869994,None,982.5485031869994,None,c,1,4.137906092000776,984.0837435539997,None,984.0837435539997,None,984.0837435539997,None,988.2821571519999,None,988.2821571519999,None,988.2821571519999,None,988.2821571519999,None,,,,,,,,,,,,,,,,,,,,,,,,,,,,,,,,,,,,,,,,,,,,001,121,2020_Feb_13_1209,spring_faces,3.1.5,59.6116707395691,
condition files/Stage1_2.xlsx,,T1,B2,m,"['c', 'm']","['Clue', 'Monopoly']","[-0.15, 0.5]","[0.15, 0.5]",1,1,,,,,,,,,0,11,11,11,0,2,2,2,,,,,,,,,,,,,,,,,,,,,,,,,,,,,,,,,,,,,,,,,,,,,,,,,,,,,,,990.2481459749997,None,990.2481459749997,None,990.2481459749997,None,m,1,8.312050816999545,991.7814841199997,None,991.7814841199997,None,991.7814841199997,None,1000.1502617250007,None,1000.1502617250007,None,1000.1502617250007,None,1000.1502617250007,None,,,,,,,,,,,,,,,,,,,,,,,,,,,,,,,,,,,,,,,,,,,,001,121,2020_Feb_13_1209,spring_faces,3.1.5,59.6116707395691,
condition files/Stage1_2.xlsx,,B1,T1,c,"['c', 'm']","['Clue', 'Monopoly']","[-0.15, 0.5]","[0.15, 0.5]",1,1,,,,,,,,,0,11,11,11,0,3,3,0,,,,,,,,,,,,,,,,,,,,,,,,,,,,,,,,,,,,,,,,,,,,,,,,,,,,,,,1002.1146931010007,None,1002.1146931010007,None,1002.1146931010007,None,c,1,6.796958516999439,1003.6486455060003,None,1003.6486455060003,None,1003.6486455060003,None,1010.5002087899993,None,1010.5002087899993,None,1010.5002087899993,None,1010.5002087899993,None,,,,,,,,,,,,,,,,,,,,,,,,,,,,,,,,,,,,,,,,,,,,001,121,2020_Feb_13_1209,spring_faces,3.1.5,59.6116707395691,
condition files/Stage1_2.xlsx,,T4,B4,m,"['c', 'm']","['Clue', 'Monopoly']","[-0.15, 0.5]","[0.15, 0.5]",1,1,,,,,,,,,0,11,11,11,0,4,4,7,,,,,,,,,,,,,,,,,,,,,,,,,,,,,,,,,,,,,,,,,,,,,,,,,,,,,,,1012.465006077,None,1012.465006077,None,1012.465006077,None,m,1,1.4864998480006761,1013.9991019949994,None,1013.9991019949994,None,1013.9991019949994,None,1015.5487461859993,None,1015.5487461859993,None,1015.5487461859993,None,1015.5487461859993,None,,,,,,,,,,,,,,,,,,,,,,,,,,,,,,,,,,,,,,,,,,,,001,121,2020_Feb_13_1209,spring_faces,3.1.5,59.6116707395691,
condition files/Stage1_2.xlsx,,B4,T3,c,"['c', 'm']","['Clue', 'Monopoly']","[-0.15, 0.5]","[0.15, 0.5]",1,1,,,,,,,,,0,11,11,11,0,5,5,5,,,,,,,,,,,,,,,,,,,,,,,,,,,,,,,,,,,,,,,,,,,,,,,,,,,,,,,1017.5153083570003,None,1017.5153083570003,None,1017.5153083570003,None,m,0,0.8212047870001697,1019.0483903879995,None,1019.0483903879995,None,1019.0483903879995,None,1019.9336557250008,None,1019.9336557250008,None,1019.9336557250008,None,1019.9336557250008,None,,,,,,,,,,,,,,,,,,,,,,,,,,,,,,,,,,,,,,,,,,,,001,121,2020_Feb_13_1209,spring_faces,3.1.5,59.6116707395691,
condition files/Stage1_2.xlsx,,T2,B1,c,"['c', 'm']","['Clue', 'Monopoly']","[-0.15, 0.5]","[0.15, 0.5]",1,1,,,,,,,,,0,11,11,11,0,6,6,1,,,,,,,,,,,,,,,,,,,,,,,,,,,,,,,,,,,,,,,,,,,,,,,,,,,,,,,1021.8985551839996,None,1021.8985551839996,None,1021.8985551839996,None,c,1,0.7094088499998179,1023.4321573199995,None,1023.4321573199995,None,1023.4321573199995,None,1024.1988075520003,None,1024.1988075520003,None,1024.1988075520003,None,1024.1988075520003,None,,,,,,,,,,,,,,,,,,,,,,,,,,,,,,,,,,,,,,,,,,,,001,121,2020_Feb_13_1209,spring_faces,3.1.5,59.6116707395691,
condition files/Stage1_2.xlsx,,B2,T2,m,"['c', 'm']","['Clue', 'Monopoly']","[-0.15, 0.5]","[0.15, 0.5]",1,1,,,,,,,,,0,11,11,11,0,7,7,3,,,,,,,,,,,,,,,,,,,,,,,,,,,,,,,,,,,,,,,,,,,,,,,,,,,,,,,1026.1650880300003,None,1026.1650880300003,None,1026.1650880300003,None,m,1,1.4512185710009362,1027.698337418,None,1027.698337418,None,1027.698337418,None,1029.2163041900003,None,1029.2163041900003,None,1029.2163041900003,None,1029.2163041900003,None,,,,,,,,,,,,,,,,,,,,,,,,,,,,,,,,,,,,,,,,,,,,001,121,2020_Feb_13_1209,spring_faces,3.1.5,59.6116707395691,
,,,,,,,,,,,,,,,,,,,,,,,,,,,,,,,,,,,,,,,,,,,,,,,,,,,,,,,,,,,,,,,,,,,,,,,,,,,,,,,,,,,,,,,,,,,,,,,,,,,,,,,,,,,,,,,,1031.1982374069994,None,space,12.039020905000143,1036.1985769860003,None,,,,,,,,,,,,,,,,,,,,,,,,,,,,,,001,121,2020_Feb_13_1209,spring_faces,3.1.5,59.6116707395691,
condition files/Stage2_1.xlsx,,B4,T4,r,"['s', 'r']","['Stratego', 'Risk']","[-0.15, 0.5]","[0.15, 0.5]",1,1,,,,,,,,,,,,,,,,,0,0,0,0,0,0,0,5,,,,,,,,,,,,,,,,,,,,,,,,,,,,,,,,,,,,,,,,,,,,,,,1048.298901406999,None,1048.298901406999,None,1048.298901406999,None,s,0,4.278725524000038,1049.8148407049994,None,1049.8148407049994,None,1049.8148407049994,None,1054.1651680539999,None,1054.1651680539999,None,1054.1651680539999,None,1054.1651680539999,None,,,,,,,,,,,,,,,1036.1985769860003,None,,,,,,,,,,,,,,,,,,,,,,,,,,,,001,121,2020_Feb_13_1209,spring_faces,3.1.5,59.6116707395691,
condition files/Stage2_1.xlsx,,T5,B5,s,"['s', 'r']","['Stratego', 'Risk']","[-0.15, 0.5]","[0.15, 0.5]",1,1,,,,,,,,,,,,,,,,,0,0,0,0,0,1,1,0,,,,,,,,,,,,,,,,,,,,,,,,,,,,,,,,,,,,,,,,,,,,,,,1056.1151846550001,None,1056.1151846550001,None,1056.1151846550001,None,r,0,0.4112301400000433,1057.698309456,None,1057.698309456,None,1057.698309456,None,1058.1821397309996,None,1058.1821397309996,None,1058.1821397309996,None,1058.1821397309996,None,,,,,,,,,,,,,,,,,,,,,,,,,,,,,,,,,,,,,,,,,,,,001,121,2020_Feb_13_1209,spring_faces,3.1.5,59.6116707395691,
condition files/Stage2_1.xlsx,,B2,T2,r,"['s', 'r']","['Stratego', 'Risk']","[-0.15, 0.5]","[0.15, 0.5]",1,1,,,,,,,,,,,,,,,,,0,0,0,0,0,2,2,3,,,,,,,,,,,,,,,,,,,,,,,,,,,,,,,,,,,,,,,,,,,,,,,1060.1316841839998,None,1060.1316841839998,None,1060.1316841839998,None,s,0,0.3966895649991784,1061.6648741699992,None,1061.6648741699992,None,1061.6648741699992,None,1062.1173955049999,None,1062.1173955049999,None,1062.1173955049999,None,1062.1173955049999,None,,,,,,,,,,,,,,,,,,,,,,,,,,,,,,,,,,,,,,,,,,,,001,121,2020_Feb_13_1209,spring_faces,3.1.5,59.6116707395691,
condition files/Stage2_1.xlsx,,T3,B3,s,"['s', 'r']","['Stratego', 'Risk']","[-0.15, 0.5]","[0.15, 0.5]",1,1,,,,,,,,,,,,,,,,,0,0,0,0,0,3,3,4,,,,,,,,,,,,,,,,,,,,,,,,,,,,,,,,,,,,,,,,,,,,,,,1064.081344881999,None,1064.081344881999,None,1064.081344881999,None,r,0,0.8456137049997778,1065.6159657209992,None,1065.6159657209992,None,1065.6159657209992,None,1066.5169499389995,None,1066.5169499389995,None,1066.5169499389995,None,1066.5169499389995,None,,,,,,,,,,,,,,,,,,,,,,,,,,,,,,,,,,,,,,,,,,,,001,121,2020_Feb_13_1209,spring_faces,3.1.5,59.6116707395691,
condition files/Stage2_1.xlsx,,B6,T6,r,"['s', 'r']","['Stratego', 'Risk']","[-0.15, 0.5]","[0.15, 0.5]",1,1,,,,,,,,,,,,,,,,,0,0,0,0,0,4,4,1,,,,,,,,,,,,,,,,,,,,,,,,,,,,,,,,,,,,,,,,,,,,,,,1068.4817986529997,None,1068.4817986529997,None,1068.4817986529997,None,r,1,0.7007124029987608,1070.064838843,None,1070.064838843,None,1070.064838843,None,1070.8166291710004,None,1070.8166291710004,None,1070.8166291710004,None,1070.8166291710004,None,,,,,,,,,,,,,,,,,,,,,,,,,,,,,,,,,,,,,,,,,,,,001,121,2020_Feb_13_1209,spring_faces,3.1.5,59.6116707395691,
condition files/Stage2_1.xlsx,,T1,B1,s,"['s', 'r']","['Stratego', 'Risk']","[-0.15, 0.5]","[0.15, 0.5]",1,1,,,,,,,,,,,,,,,,,0,0,0,0,0,5,5,2,,,,,,,,,,,,,,,,,,,,,,,,,,,,,,,,,,,,,,,,,,,,,,,1072.7819244940001,None,1072.7819244940001,None,1072.7819244940001,None,r,0,0.6110911439991469,1074.3145425250004,None,1074.3145425250004,None,1074.3145425250004,None,1074.9832510300002,None,1074.9832510300002,None,1074.9832510300002,None,1074.9832510300002,None,,,,,,,,,,,,,,,,,,,,,,,,,,,,,,,,,,,,,,,,,,,,001,121,2020_Feb_13_1209,spring_faces,3.1.5,59.6116707395691,
condition files/Stage2_2.xlsx,,T2,B2,r,"['s', 'r']","['Stratego', 'Risk']","[-0.15, 0.5]","[0.15, 0.5]",1,1,,,,,,,,,,,,,,,,,0,1,1,1,0,0,0,3,,,,,,,,,,,,,,,,,,,,,,,,,,,,,,,,,,,,,,,,,,,,,,,1076.9654793230002,None,1076.9654793230002,None,1076.9654793230002,None,s,0,0.3300072759993782,1078.515570853,None,1078.515570853,None,1078.515570853,None,1078.899575121999,None,1078.899575121999,None,1078.899575121999,None,1078.899575121999,None,,,,,,,,,,,,,,,,,,,,,,,,,,,,,,,,,,,,,,,,,,,,001,121,2020_Feb_13_1209,spring_faces,3.1.5,59.6116707395691,
condition files/Stage2_2.xlsx,,T4,B4,r,"['s', 'r']","['Stratego', 'Risk']","[-0.15, 0.5]","[0.15, 0.5]",1,1,,,,,,,,,,,,,,,,,0,1,1,1,0,1,1,5,,,,,,,,,,,,,,,,,,,,,,,,,,,,,,,,,,,,,,,,,,,,,,,1080.8652827490005,None,1080.8652827490005,None,1080.8652827490005,None,r,1,0.44674956600101723,1082.3988127810007,None,1082.3988127810007,None,1082.3988127810007,None,1082.8982480470004,None,1082.8982480470004,None,1082.8982480470004,None,1082.8982480470004,None,,,,,,,,,,,,,,,,,,,,,,,,,,,,,,,,,,,,,,,,,,,,001,121,2020_Feb_13_1209,spring_faces,3.1.5,59.6116707395691,
condition files/Stage2_2.xlsx,,B3,T3,s,"['s', 'r']","['Stratego', 'Risk']","[-0.15, 0.5]","[0.15, 0.5]",1,1,,,,,,,,,,,,,,,,,0,1,1,1,0,2,2,4,,,,,,,,,,,,,,,,,,,,,,,,,,,,,,,,,,,,,,,,,,,,,,,1084.8648902759996,None,1084.8648902759996,None,1084.8648902759996,None,r,0,0.3820567200000369,1086.3995084649996,None,1086.3995084649996,None,1086.3995084649996,None,1086.8344927340004,None,1086.8344927340004,None,1086.8344927340004,None,1086.8344927340004,None,,,,,,,,,,,,,,,,,,,,,,,,,,,,,,,,,,,,,,,,,,,,001,121,2020_Feb_13_1209,spring_faces,3.1.5,59.6116707395691,
condition files/Stage2_2.xlsx,,B5,T5,s,"['s', 'r']","['Stratego', 'Risk']","[-0.15, 0.5]","[0.15, 0.5]",1,1,,,,,,,,,,,,,,,,,0,1,1,1,0,3,3,0,,,,,,,,,,,,,,,,,,,,,,,,,,,,,,,,,,,,,,,,,,,,,,,1088.7982453229997,None,1088.7982453229997,None,1088.7982453229997,None,r,0,0.5288210449998587,1090.332719734999,None,1090.332719734999,None,1090.332719734999,None,1090.9153514539994,None,1090.9153514539994,None,1090.9153514539994,None,1090.9153514539994,None,,,,,,,,,,,,,,,,,,,,,,,,,,,,,,,,,,,,,,,,,,,,001,121,2020_Feb_13_1209,spring_faces,3.1.5,59.6116707395691,
condition files/Stage2_2.xlsx,,B1,T1,s,"['s', 'r']","['Stratego', 'Risk']","[-0.15, 0.5]","[0.15, 0.5]",1,1,,,,,,,,,,,,,,,,,0,1,1,1,0,4,4,2,,,,,,,,,,,,,,,,,,,,,,,,,,,,,,,,,,,,,,,,,,,,,,,1092.8819014500004,None,1092.8819014500004,None,1092.8819014500004,None,s,1,0.34953991300062626,1094.415980402,None,1094.415980402,None,1094.415980402,None,1094.8318420329997,None,1094.8318420329997,None,1094.8318420329997,None,1094.8318420329997,None,,,,,,,,,,,,,,,,,,,,,,,,,,,,,,,,,,,,,,,,,,,,001,121,2020_Feb_13_1209,spring_faces,3.1.5,59.6116707395691,
condition files/Stage2_2.xlsx,,T6,B6,r,"['s', 'r']","['Stratego', 'Risk']","[-0.15, 0.5]","[0.15, 0.5]",1,1,,,,,,,,,,,,,,,,,0,1,1,1,0,5,5,1,,,,,,,,,,,,,,,,,,,,,,,,,,,,,,,,,,,,,,,,,,,,,,,1096.7990127520006,None,1096.7990127520006,None,1096.7990127520006,None,s,0,0.33791076300076384,1098.3316794010007,None,1098.3316794010007,None,1098.3316794010007,None,1098.748929813999,None,1098.748929813999,None,1098.748929813999,None,1098.748929813999,None,,,,,,,,,,,,,,,,,,,,,,,,,,,,,,,,,,,,,,,,,,,,001,121,2020_Feb_13_1209,spring_faces,3.1.5,59.6116707395691,
condition files/Stage2_1.xlsx,,T5,B5,s,"['s', 'r']","['Stratego', 'Risk']","[-0.15, 0.5]","[0.15, 0.5]",1,1,,,,,,,,,,,,,,,,,0,2,2,2,0,0,0,0,,,,,,,,,,,,,,,,,,,,,,,,,,,,,,,,,,,,,,,,,,,,,,,1100.715591103999,None,1100.715591103999,None,1100.715591103999,None,s,1,0.30880211900148424,1102.2488253440006,None,1102.2488253440006,None,1102.2488253440006,None,1102.6321201169994,None,1102.6321201169994,None,1102.6321201169994,None,1102.6321201169994,None,,,,,,,,,,,,,,,,,,,,,,,,,,,,,,,,,,,,,,,,,,,,001,121,2020_Feb_13_1209,spring_faces,3.1.5,59.6116707395691,
condition files/Stage2_1.xlsx,,T3,B3,s,"['s', 'r']","['Stratego', 'Risk']","[-0.15, 0.5]","[0.15, 0.5]",1,1,,,,,,,,,,,,,,,,,0,2,2,2,0,1,1,4,,,,,,,,,,,,,,,,,,,,,,,,,,,,,,,,,,,,,,,,,,,,,,,1104.5818678220003,None,1104.5818678220003,None,1104.5818678220003,None,r,0,0.31485598499966727,1106.1147082749994,None,1106.1147082749994,None,1106.1147082749994,None,1106.4816002389998,None,1106.4816002389998,None,1106.4816002389998,None,1106.4816002389998,None,,,,,,,,,,,,,,,,,,,,,,,,,,,,,,,,,,,,,,,,,,,,001,121,2020_Feb_13_1209,spring_faces,3.1.5,59.6116707395691,
condition files/Stage2_1.xlsx,,B6,T6,r,"['s', 'r']","['Stratego', 'Risk']","[-0.15, 0.5]","[0.15, 0.5]",1,1,,,,,,,,,,,,,,,,,0,2,2,2,0,2,2,1,,,,,,,,,,,,,,,,,,,,,,,,,,,,,,,,,,,,,,,,,,,,,,,1108.4483595099991,None,1108.4483595099991,None,1108.4483595099991,None,s,0,0.3506857199990918,1109.9988319370004,None,1109.9988319370004,None,1109.9988319370004,None,1110.4318305889992,None,1110.4318305889992,None,1110.4318305889992,None,1110.4318305889992,None,,,,,,,,,,,,,,,,,,,,,,,,,,,,,,,,,,,,,,,,,,,,001,121,2020_Feb_13_1209,spring_faces,3.1.5,59.6116707395691,
condition files/Stage2_1.xlsx,,B2,T2,r,"['s', 'r']","['Stratego', 'Risk']","[-0.15, 0.5]","[0.15, 0.5]",1,1,,,,,,,,,,,,,,,,,0,2,2,2,0,3,3,3,,,,,,,,,,,,,,,,,,,,,,,,,,,,,,,,,,,,,,,,,,,,,,,1112.3814999900005,None,1112.3814999900005,None,1112.3814999900005,None,s,0,0.40248034700016433,1113.915091842,None,1113.915091842,None,1113.915091842,None,1114.3821750040006,None,1114.3821750040006,None,1114.3821750040006,None,1114.3821750040006,None,,,,,,,,,,,,,,,,,,,,,,,,,,,,,,,,,,,,,,,,,,,,001,121,2020_Feb_13_1209,spring_faces,3.1.5,59.6116707395691,
condition files/Stage2_1.xlsx,,B4,T4,r,"['s', 'r']","['Stratego', 'Risk']","[-0.15, 0.5]","[0.15, 0.5]",1,1,,,,,,,,,,,,,,,,,0,2,2,2,0,4,4,5,,,,,,,,,,,,,,,,,,,,,,,,,,,,,,,,,,,,,,,,,,,,,,,1116.3487753629997,None,1116.3487753629997,None,1116.3487753629997,None,r,1,0.8838755460001266,1117.8816672060002,None,1117.8816672060002,None,1117.8816672060002,None,1118.8320997350002,None,1118.8320997350002,None,1118.8320997350002,None,1118.8320997350002,None,,,,,,,,,,,,,,,,,,,,,,,,,,,,,,,,,,,,,,,,,,,,001,121,2020_Feb_13_1209,spring_faces,3.1.5,59.6116707395691,
condition files/Stage2_1.xlsx,,T1,B1,s,"['s', 'r']","['Stratego', 'Risk']","[-0.15, 0.5]","[0.15, 0.5]",1,1,,,,,,,,,,,,,,,,,0,2,2,2,0,5,5,2,,,,,,,,,,,,,,,,,,,,,,,,,,,,,,,,,,,,,,,,,,,,,,,1120.7986408800007,None,1120.7986408800007,None,1120.7986408800007,None,s,1,0.8493092790013179,1122.3322634479991,None,1122.3322634479991,None,1122.3322634479991,None,1123.2488621970006,None,1123.2488621970006,None,1123.2488621970006,None,1123.2488621970006,None,,,,,,,,,,,,,,,,,,,,,,,,,,,,,,,,,,,,,,,,,,,,001,121,2020_Feb_13_1209,spring_faces,3.1.5,59.6116707395691,
condition files/Stage2_2.xlsx,,B5,T5,s,"['s', 'r']","['Stratego', 'Risk']","[-0.15, 0.5]","[0.15, 0.5]",1,1,,,,,,,,,,,,,,,,,0,3,3,3,0,0,0,0,,,,,,,,,,,,,,,,,,,,,,,,,,,,,,,,,,,,,,,,,,,,,,,1125.2157457289995,None,1125.2157457289995,None,1125.2157457289995,None,s,1,1.4394040850002057,1126.7502582920006,None,1126.7502582920006,None,1126.7502582920006,None,1128.248689259999,None,1128.248689259999,None,1128.248689259999,None,1128.248689259999,None,,,,,,,,,,,,,,,,,,,,,,,,,,,,,,,,,,,,,,,,,,,,001,121,2020_Feb_13_1209,spring_faces,3.1.5,59.6116707395691,
condition files/Stage2_2.xlsx,,T2,B2,r,"['s', 'r']","['Stratego', 'Risk']","[-0.15, 0.5]","[0.15, 0.5]",1,1,,,,,,,,,,,,,,,,,0,3,3,3,0,1,1,3,,,,,,,,,,,,,,,,,,,,,,,,,,,,,,,,,,,,,,,,,,,,,,,1130.2145650170005,None,1130.2145650170005,None,1130.2145650170005,None,r,1,0.8565111900006741,1131.7491338719992,None,1131.7491338719992,None,1131.7491338719992,None,1132.6650244360007,None,1132.6650244360007,None,1132.6650244360007,None,1132.6650244360007,None,,,,,,,,,,,,,,,,,,,,,,,,,,,,,,,,,,,,,,,,,,,,001,121,2020_Feb_13_1209,spring_faces,3.1.5,59.6116707395691,
condition files/Stage2_2.xlsx,,B3,T3,s,"['s', 'r']","['Stratego', 'Risk']","[-0.15, 0.5]","[0.15, 0.5]",1,1,,,,,,,,,,,,,,,,,0,3,3,3,0,2,2,4,,,,,,,,,,,,,,,,,,,,,,,,,,,,,,,,,,,,,,,,,,,,,,,1134.6319660999998,None,1134.6319660999998,None,1134.6319660999998,None,s,1,2.1832920590004505,1136.1662498980004,None,1136.1662498980004,None,1136.1662498980004,None,1138.432523779,None,1138.432523779,None,1138.432523779,None,1138.432523779,None,,,,,,,,,,,,,,,,,,,,,,,,,,,,,,,,,,,,,,,,,,,,001,121,2020_Feb_13_1209,spring_faces,3.1.5,59.6116707395691,
condition files/Stage2_2.xlsx,,T6,B6,r,"['s', 'r']","['Stratego', 'Risk']","[-0.15, 0.5]","[0.15, 0.5]",1,1,,,,,,,,,,,,,,,,,0,3,3,3,0,3,3,1,,,,,,,,,,,,,,,,,,,,,,,,,,,,,,,,,,,,,,,,,,,,,,,1140.381927553999,None,1140.381927553999,None,1140.381927553999,None,r,1,0.5301481860005879,1141.9154041679994,None,1141.9154041679994,None,1141.9154041679994,None,1142.501290176,None,1142.501290176,None,1142.501290176,None,1142.501290176,None,,,,,,,,,,,,,,,,,,,,,,,,,,,,,,,,,,,,,,,,,,,,001,121,2020_Feb_13_1209,spring_faces,3.1.5,59.6116707395691,
condition files/Stage2_2.xlsx,,T4,B4,r,"['s', 'r']","['Stratego', 'Risk']","[-0.15, 0.5]","[0.15, 0.5]",1,1,,,,,,,,,,,,,,,,,0,3,3,3,0,4,4,5,,,,,,,,,,,,,,,,,,,,,,,,,,,,,,,,,,,,,,,,,,,,,,,1144.4647888239997,None,1144.4647888239997,None,1144.4647888239997,None,s,0,0.7979443179992813,1145.999636127999,None,1145.999636127999,None,1145.999636127999,None,1146.8483274150003,None,1146.8483274150003,None,1146.8483274150003,None,1146.8483274150003,None,,,,,,,,,,,,,,,,,,,,,,,,,,,,,,,,,,,,,,,,,,,,001,121,2020_Feb_13_1209,spring_faces,3.1.5,59.6116707395691,
condition files/Stage2_2.xlsx,,B1,T1,s,"['s', 'r']","['Stratego', 'Risk']","[-0.15, 0.5]","[0.15, 0.5]",1,1,,,,,,,,,,,,,,,,,0,3,3,3,0,5,5,2,,,,,,,,,,,,,,,,,,,,,,,,,,,,,,,,,,,,,,,,,,,,,,,1148.8146602319994,None,1148.8146602319994,None,1148.8146602319994,None,r,0,0.5112080889994104,1150.3503683649997,None,1150.3503683649997,None,1150.3503683649997,None,1150.9320834680002,None,1150.9320834680002,None,1150.9320834680002,None,1150.9320834680002,None,,,,,,,,,,,,,,,,,,,,,,,,,,,,,,,,,,,,,,,,,,,,001,121,2020_Feb_13_1209,spring_faces,3.1.5,59.6116707395691,
condition files/Stage2_1.xlsx,,T5,B5,s,"['s', 'r']","['Stratego', 'Risk']","[-0.15, 0.5]","[0.15, 0.5]",1,1,,,,,,,,,,,,,,,,,0,4,4,4,0,0,0,0,,,,,,,,,,,,,,,,,,,,,,,,,,,,,,,,,,,,,,,,,,,,,,,1152.8988956590001,None,1152.8988956590001,None,1152.8988956590001,None,s,1,0.6846823610012507,1154.4488977250003,None,1154.4488977250003,None,1154.4488977250003,None,1155.1986493690001,None,1155.1986493690001,None,1155.1986493690001,None,1155.1986493690001,None,,,,,,,,,,,,,,,,,,,,,,,,,,,,,,,,,,,,,,,,,,,,001,121,2020_Feb_13_1209,spring_faces,3.1.5,59.6116707395691,
condition files/Stage2_1.xlsx,,B4,T4,r,"['s', 'r']","['Stratego', 'Risk']","[-0.15, 0.5]","[0.15, 0.5]",1,1,,,,,,,,,,,,,,,,,0,4,4,4,0,1,1,5,,,,,,,,,,,,,,,,,,,,,,,,,,,,,,,,,,,,,,,,,,,,,,,1157.1651614759994,None,1157.1651614759994,None,1157.1651614759994,None,r,1,1.075391114998638,1158.6982687479995,None,1158.6982687479995,None,1158.6982687479995,None,1159.8328451310008,None,1159.8328451310008,None,1159.8328451310008,None,1159.8328451310008,None,,,,,,,,,,,,,,,,,,,,,,,,,,,,,,,,,,,,,,,,,,,,001,121,2020_Feb_13_1209,spring_faces,3.1.5,59.6116707395691,
condition files/Stage2_1.xlsx,,T3,B3,s,"['s', 'r']","['Stratego', 'Risk']","[-0.15, 0.5]","[0.15, 0.5]",1,1,,,,,,,,,,,,,,,,,0,4,4,4,0,2,2,4,,,,,,,,,,,,,,,,,,,,,,,,,,,,,,,,,,,,,,,,,,,,,,,1161.7984369450005,None,1161.7984369450005,None,1161.7984369450005,None,r,0,1.1770966999993107,1163.3324684220006,None,1163.3324684220006,None,1163.3324684220006,None,1164.5819951680005,None,1164.5819951680005,None,1164.5819951680005,None,1164.5819951680005,None,,,,,,,,,,,,,,,,,,,,,,,,,,,,,,,,,,,,,,,,,,,,001,121,2020_Feb_13_1209,spring_faces,3.1.5,59.6116707395691,
