condsFile,subStage,cue1,cue2,correct,responseKeys,responseNames,cue1Position,cue2Position,cue1Opacity,cue2Opacity,stageLoop0.thisRepN,stageLoop0.thisTrialN,stageLoop0.thisN,stageLoop0.thisIndex,blockLoop0.thisRepN,blockLoop0.thisTrialN,blockLoop0.thisN,blockLoop0.thisIndex,stage1Loop.thisRepN,stage1Loop.thisTrialN,stage1Loop.thisN,stage1Loop.thisIndex,blockLoop1.thisRepN,blockLoop1.thisTrialN,blockLoop1.thisN,blockLoop1.thisIndex,stage2Loop.thisRepN,stage2Loop.thisTrialN,stage2Loop.thisN,stage2Loop.thisIndex,blockLoop2.thisRepN,blockLoop2.thisTrialN,blockLoop2.thisN,blockLoop2.thisIndex,testLoop.thisRepN,testLoop.thisTrialN,testLoop.thisN,testLoop.thisIndex,blockLoopTest.thisRepN,blockLoopTest.thisTrialN,blockLoopTest.thisN,blockLoopTest.thisIndex,cuePics,id_instr_text.started,id_instr_text.stopped,space_to_continue_2.started,space_to_continue_2.stopped,end_instructions_resp_3.keys,end_instructions_resp_3.rt,end_instructions_resp_3.started,end_instructions_resp_3.stopped,id_input_instr.started,id_input_instr.stopped,id_input_rect.started,id_input_rect.stopped,id_input_resp.keys,id_input_resp.rt,id_input_resp.started,id_input_resp.stopped,sonaID,id_input_text.started,id_input_text.stopped,final_text.started,final_text.stopped,instructions.started,instructions.stopped,end_instructions_resp.keys,end_instructions_resp.rt,end_instructions_resp.started,end_instructions_resp.stopped,space_to_continue.started,space_to_continue.stopped,instructions_stage0.started,instructions_stage0.stopped,end_instructions_resp_stage0.keys,end_instructions_resp_stage0.rt,end_instructions_resp_stage0.started,end_instructions_resp_stage0.stopped,space_to_continue_stage0.started,space_to_continue_stage0.stopped,text.started,text.stopped,resp_text1.started,resp_text1.stopped,resp_text2.started,resp_text2.stopped,trial_resp.keys,trial_resp.corr,trial_resp.rt,trial_resp.started,trial_resp.stopped,cue1Image.started,cue1Image.stopped,cue2Image.started,cue2Image.stopped,cue1Image_fb.started,cue1Image_fb.stopped,cue2Image_fb.started,cue2Image_fb.stopped,fb_text_answer.started,fb_text_answer.stopped,feedback_image.started,feedback_image.stopped,instructions_stage1.started,instructions_stage1.stopped,end_instructions_resp_stage1.keys,end_instructions_resp_stage1.rt,end_instructions_resp_stage1.started,end_instructions_resp_stage1.stopped,space_to_continue_stage1.started,space_to_continue_stage1.stopped,instructions_2.started,instructions_2.stopped,end_instructions_resp_2.keys,end_instructions_resp_2.rt,end_instructions_resp_2.started,end_instructions_resp_2.stopped,press_space_to_continue_stage2.started,press_space_to_continue_stage2.stopped,instructions_testStage1.started,instructions_testStage1.stopped,end_instructions_resp_test1.keys,end_instructions_resp_test1.rt,end_instructions_resp_test1.started,end_instructions_resp_test1.stopped,press_space_to_continue_test1.started,press_space_to_continue_test1.stopped,cue1Image_testChoice.started,cue1Image_testChoice.stopped,cue2Image_testChoice.started,cue2Image_testChoice.stopped,test_resp.keys,test_resp.corr,test_resp.rt,test_resp.started,test_resp.stopped,cue1Image_testConf.started,cue1Image_testConf.stopped,cue2Image_testConf.started,cue2Image_testConf.stopped,conf_reminder.started,conf_reminder.stopped,conf_rating.response,conf_rating.rt,conf_rating.started,conf_rating.stopped,session,participant,date,expName,psychopyVersion,frameRate,
,,,,,,,,,,,,,,,,,,,,,,,,,,,,,,,,,,,,,,,,,,,"{'none': 'pictures/20M_AN_C.png', 'alpha': 'pictures/SHINEd_apple.png', 'beta': 'pictures/SHINEd_melon.png', 'theta': 'pictures/SHINEd_pepper.png', 'phi': 'pictures/SHINEd_pear.png', 'T1': 'pictures/33M_AN_C.png', 'T2': 'pictures/22M_AN_C.png', 'T3': 'pictures/26M_AN_C.png', 'T4': 'pictures/31M_AN_C.png', 'T5': 'pictures/25M_AN_C.png', 'T6': 'pictures/38M_AN_C.png', 'B1': 'pictures/34M_NE_C.png', 'B2': 'pictures/20M_NE_C.png', 'B3': 'pictures/23M_NE_C.png', 'B4': 'pictures/37M_NE_C.png', 'B5': 'pictures/36M_NE_C.png', 'B6': 'pictures/32M_NE_C.png'}",16.438061492000998,None,21.42121263900117,None,space,36.501326511001025,21.42121263900117,None,,,,,,,,,,,,,,,,,,,,,,,,,,,,,,,,,,,,,,,,,,,,,,,,,,,,,,,,,,,,,,,,,,,,,,,,,,,,,,,,,,,,,,,,,,,,,,,,001,122,2020_Feb_13_1324,spring_faces,3.1.5,59.94487876563595,
,,,,,,,,,,,,,,,,,,,,,,,,,,,,,,,,,,,,,,,,,,,,,,,,,,,,58.356351223001184,None,58.356351223001184,None,"['1', '0', '3', '0', 'm', 'a', 's', 'k', 'y', '1', '0', '3', '0', 'm', 'a', 's', 'k', 'y', '1', '0', '3', '0', 'm', 'a', 's', 'k', 'y']","[16.734228421000807, 17.246229325999593, 18.798224829999526, 19.294198883999343, 27.662223239000014, 27.96618484800092, 39.18218113100011, 39.40628444600043, 41.166176401000484, 53.2142401960009, 53.486237102000814, 60.30224916999941, 60.59029854899927, 65.31023269499929, 65.6302328590009, 74.49423767500048, 74.71823121899979, 74.95822087099987, 90.7822000390006, 91.00621646599939, 95.16620950799916, 95.43824913299977, 101.31021802900068, 101.61423083999944, 106.59029830700092, 106.73419963900051, 107.08624944700023]",58.356351223001184,None,,,,,,,,,,,,,,,,,,,,,,,,,,,,,,,,,,,,,,,,,,,,,,,,,,,,,,,,,,,,,,,,,,,,,,,,,,,,,,,,,,,,,,,,001,122,2020_Feb_13_1324,spring_faces,3.1.5,59.94487876563595,
,,,,,,,,,,,,,,,,,,,,,,,,,,,,,,,,,,,,,,,,,,,,,,,,,,,,,,,,,,,,1030masky,58.356351223001184,None,58.356351223001184,None,170.52113690100123,None,space,4.8810282009999355,175.52157540400003,None,,,,,,,,,,,,,,,,,,,,,,,,,,,,,,,,,,,,,,,,,,,,,,,,,,,,,,,,,,,,,,,,,,,,,,,,,,,,,001,122,2020_Feb_13_1324,spring_faces,3.1.5,59.94487876563595,
,,,,,,,,,,,,,,,,,,,,,,,,,,,,,,,,,,,,,,,,,,,,,,,,,,,,,,,,,,,,,,,,,,,,,,,175.52157540400003,None,180.43837225800053,None,space,10.357162701000561,185.42151337900032,None,,,,,,,,,,,,,,,,,,,,,,,,,,,,,,,,,,,,,,,,,,,,,,,,,,,,,,,,,,,,,,,,,,,,,001,122,2020_Feb_13_1324,spring_faces,3.1.5,59.94487876563595,
condition files/Stage0a.xlsx,0a,beta,none,g,"['h', 'g']","['Chess', 'Go']","[0, 0.5]","[0, 0]",1,0,0,0,0,0,0,0,0,1,,,,,,,,,,,,,,,,,,,,,,,,,,,,,,,,,,,,,,,,,,,,,,,,,,,,,,,,,,,,,185.42151337900032,None,195.83842084000025,None,195.83842084000025,None,195.83842084000025,None,h,0,2.207853910000267,197.47473896200063,None,197.47473896200063,None,197.47473896200063,None,199.75497276900023,None,199.75497276900023,None,199.75497276900023,None,199.75497276900023,None,,,,,,,,,,,,,,,,,,,,,,,,,,,,,,,,,,,,,,,,,,,,001,122,2020_Feb_13_1324,spring_faces,3.1.5,59.94487876563595,
condition files/Stage0a.xlsx,0a,alpha,none,h,"['h', 'g']","['Chess', 'Go']","[0, 0.5]","[0, 0]",1,0,0,0,0,0,0,1,1,0,,,,,,,,,,,,,,,,,,,,,,,,,,,,,,,,,,,,,,,,,,,,,,,,,,,,,,,,,,,,,,,201.70456628500142,None,201.70456628500142,None,201.70456628500142,None,h,1,1.0832137630004581,203.25534795500062,None,203.25534795500062,None,203.25534795500062,None,204.38808519300073,None,204.38808519300073,None,204.38808519300073,None,204.38808519300073,None,,,,,,,,,,,,,,,,,,,,,,,,,,,,,,,,,,,,,,,,,,,,001,122,2020_Feb_13_1324,spring_faces,3.1.5,59.94487876563595,
condition files/Stage0a.xlsx,0a,beta,none,g,"['h', 'g']","['Chess', 'Go']","[0, 0.5]","[0, 0]",1,0,0,1,1,1,0,0,0,1,,,,,,,,,,,,,,,,,,,,,,,,,,,,,,,,,,,,,,,,,,,,,,,,,,,,,,,,,,,,,,,206.37118041100075,None,206.37118041100075,None,206.37118041100075,None,g,1,0.94563558200025,207.90493221700126,None,207.90493221700126,None,207.90493221700126,None,208.90458752700033,None,208.90458752700033,None,208.90458752700033,None,208.90458752700033,None,,,,,,,,,,,,,,,,,,,,,,,,,,,,,,,,,,,,,,,,,,,,001,122,2020_Feb_13_1324,spring_faces,3.1.5,59.94487876563595,
condition files/Stage0a.xlsx,0a,alpha,none,h,"['h', 'g']","['Chess', 'Go']","[0, 0.5]","[0, 0]",1,0,0,1,1,1,0,1,1,0,,,,,,,,,,,,,,,,,,,,,,,,,,,,,,,,,,,,,,,,,,,,,,,,,,,,,,,,,,,,,,,210.8717577389998,None,210.8717577389998,None,210.8717577389998,None,h,1,0.9100734009989537,212.4044949199997,None,212.4044949199997,None,212.4044949199997,None,213.37120274800145,None,213.37120274800145,None,213.37120274800145,None,213.37120274800145,None,,,,,,,,,,,,,,,,,,,,,,,,,,,,,,,,,,,,,,,,,,,,001,122,2020_Feb_13_1324,spring_faces,3.1.5,59.94487876563595,
condition files/Stage0a.xlsx,0a,alpha,none,h,"['h', 'g']","['Chess', 'Go']","[0, 0.5]","[0, 0]",1,0,0,2,2,2,0,0,0,0,,,,,,,,,,,,,,,,,,,,,,,,,,,,,,,,,,,,,,,,,,,,,,,,,,,,,,,,,,,,,,,215.3550640480007,None,215.3550640480007,None,215.3550640480007,None,h,1,0.8108807459993841,216.87171540600139,None,216.87171540600139,None,216.87171540600139,None,217.73840507800014,None,217.73840507800014,None,217.73840507800014,None,217.73840507800014,None,,,,,,,,,,,,,,,,,,,,,,,,,,,,,,,,,,,,,,,,,,,,001,122,2020_Feb_13_1324,spring_faces,3.1.5,59.94487876563595,
condition files/Stage0a.xlsx,0a,beta,none,g,"['h', 'g']","['Chess', 'Go']","[0, 0.5]","[0, 0]",1,0,0,2,2,2,0,1,1,1,,,,,,,,,,,,,,,,,,,,,,,,,,,,,,,,,,,,,,,,,,,,,,,,,,,,,,,,,,,,,,,219.70455768000102,None,219.70455768000102,None,219.70455768000102,None,g,1,0.9721936169989931,221.2384061770008,None,221.2384061770008,None,221.2384061770008,None,222.27202234600009,None,222.27202234600009,None,222.27202234600009,None,222.27202234600009,None,,,,,,,,,,,,,,,,,,,,,,,,,,,,,,,,,,,,,,,,,,,,001,122,2020_Feb_13_1324,spring_faces,3.1.5,59.94487876563595,
condition files/Stage0a.xlsx,0a,alpha,none,h,"['h', 'g']","['Chess', 'Go']","[0, 0.5]","[0, 0]",1,0,0,3,3,3,0,0,0,0,,,,,,,,,,,,,,,,,,,,,,,,,,,,,,,,,,,,,,,,,,,,,,,,,,,,,,,,,,,,,,,224.25522917400122,None,224.25522917400122,None,224.25522917400122,None,h,1,0.8048369499992987,225.77382158,None,225.77382158,None,225.77382158,None,226.64027990199975,None,226.64027990199975,None,226.64027990199975,None,226.64027990199975,None,,,,,,,,,,,,,,,,,,,,,,,,,,,,,,,,,,,,,,,,,,,,001,122,2020_Feb_13_1324,spring_faces,3.1.5,59.94487876563595,
condition files/Stage0a.xlsx,0a,beta,none,g,"['h', 'g']","['Chess', 'Go']","[0, 0.5]","[0, 0]",1,0,0,3,3,3,0,1,1,1,,,,,,,,,,,,,,,,,,,,,,,,,,,,,,,,,,,,,,,,,,,,,,,,,,,,,,,,,,,,,,,228.60483274000035,None,228.60483274000035,None,228.60483274000035,None,g,1,0.6807478200007608,230.13786745000107,None,230.13786745000107,None,230.13786745000107,None,230.87101491500107,None,230.87101491500107,None,230.87101491500107,None,230.87101491500107,None,,,,,,,,,,,,,,,,,,,,,,,,,,,,,,,,,,,,,,,,,,,,001,122,2020_Feb_13_1324,spring_faces,3.1.5,59.94487876563595,
condition files/Stage0a.xlsx,0a,alpha,none,h,"['h', 'g']","['Chess', 'Go']","[0, 0.5]","[0, 0]",1,0,0,4,4,4,0,0,0,0,,,,,,,,,,,,,,,,,,,,,,,,,,,,,,,,,,,,,,,,,,,,,,,,,,,,,,,,,,,,,,,232.85508782800025,None,232.85508782800025,None,232.85508782800025,None,h,1,1.3584216099989135,234.388242033001,None,234.388242033001,None,234.388242033001,None,235.8046867789999,None,235.8046867789999,None,235.8046867789999,None,235.8046867789999,None,,,,,,,,,,,,,,,,,,,,,,,,,,,,,,,,,,,,,,,,,,,,001,122,2020_Feb_13_1324,spring_faces,3.1.5,59.94487876563595,
condition files/Stage0a.xlsx,0a,beta,none,g,"['h', 'g']","['Chess', 'Go']","[0, 0.5]","[0, 0]",1,0,0,4,4,4,0,1,1,1,,,,,,,,,,,,,,,,,,,,,,,,,,,,,,,,,,,,,,,,,,,,,,,,,,,,,,,,,,,,,,,237.77146461099983,None,237.77146461099983,None,237.77146461099983,None,g,1,1.0495436199998949,239.30504031500095,None,239.30504031500095,None,239.30504031500095,None,240.40459936600018,None,240.40459936600018,None,240.40459936600018,None,240.40459936600018,None,,,,,,,,,,,,,,,,,,,,,,,,,,,,,,,,,,,,,,,,,,,,001,122,2020_Feb_13_1324,spring_faces,3.1.5,59.94487876563595,
condition files/Stage0a.xlsx,0a,alpha,none,h,"['h', 'g']","['Chess', 'Go']","[0, 0.5]","[0, 0]",1,0,0,5,5,5,0,0,0,0,,,,,,,,,,,,,,,,,,,,,,,,,,,,,,,,,,,,,,,,,,,,,,,,,,,,,,,,,,,,,,,242.38872213800096,None,242.38872213800096,None,242.38872213800096,None,h,1,0.6894981940004072,243.92110695700103,None,243.92110695700103,None,243.92110695700103,None,244.6714842800011,None,244.6714842800011,None,244.6714842800011,None,244.6714842800011,None,,,,,,,,,,,,,,,,,,,,,,,,,,,,,,,,,,,,,,,,,,,,001,122,2020_Feb_13_1324,spring_faces,3.1.5,59.94487876563595,
condition files/Stage0a.xlsx,0a,beta,none,g,"['h', 'g']","['Chess', 'Go']","[0, 0.5]","[0, 0]",1,0,0,5,5,5,0,1,1,1,,,,,,,,,,,,,,,,,,,,,,,,,,,,,,,,,,,,,,,,,,,,,,,,,,,,,,,,,,,,,,,246.63815346200136,None,246.63815346200136,None,246.63815346200136,None,g,1,0.9345139319993905,248.1720461140012,None,248.1720461140012,None,248.1720461140012,None,249.17169009400095,None,249.17169009400095,None,249.17169009400095,None,249.17169009400095,None,,,,,,,,,,,,,,,,,,,,,,,,,,,,,,,,,,,,,,,,,,,,001,122,2020_Feb_13_1324,spring_faces,3.1.5,59.94487876563595,
condition files/Stage0b_1.xlsx,0b,none,beta,g,"['h', 'g']","['Chess', 'Go']","[-0.15, 0.5]","[0.15, 0.5]",0,1,0,6,6,6,0,0,0,1,,,,,,,,,,,,,,,,,,,,,,,,,,,,,,,,,,,,,,,,,,,,,,,,,,,,,,,,,,,,,,,251.15517507000004,None,251.15517507000004,None,251.15517507000004,None,g,1,2.097543994001171,252.7050530510005,None,252.7050530510005,None,252.7050530510005,None,254.85605971699988,None,254.85605971699988,None,254.85605971699988,None,254.85605971699988,None,,,,,,,,,,,,,,,,,,,,,,,,,,,,,,,,,,,,,,,,,,,,001,122,2020_Feb_13_1324,spring_faces,3.1.5,59.94487876563595,
condition files/Stage0b_1.xlsx,0b,alpha,none,h,"['h', 'g']","['Chess', 'Go']","[-0.15, 0.5]","[0.15, 0.5]",1,0,0,6,6,6,0,1,1,0,,,,,,,,,,,,,,,,,,,,,,,,,,,,,,,,,,,,,,,,,,,,,,,,,,,,,,,,,,,,,,,256.82090387300013,None,256.82090387300013,None,256.82090387300013,None,h,1,1.0069256449987734,258.3717245000007,None,258.3717245000007,None,258.3717245000007,None,259.45538915700126,None,259.45538915700126,None,259.45538915700126,None,259.45538915700126,None,,,,,,,,,,,,,,,,,,,,,,,,,,,,,,,,,,,,,,,,,,,,001,122,2020_Feb_13_1324,spring_faces,3.1.5,59.94487876563595,
condition files/Stage0b_2.xlsx,0b,none,alpha,h,"['h', 'g']","['Chess', 'Go']","[-0.15, 0.5]","[0.15, 0.5]",0,1,0,7,7,7,0,0,0,0,,,,,,,,,,,,,,,,,,,,,,,,,,,,,,,,,,,,,,,,,,,,,,,,,,,,,,,,,,,,,,,261.4221538620004,None,261.4221538620004,None,261.4221538620004,None,h,1,1.1756592959991394,262.9710016120007,None,262.9710016120007,None,262.9710016120007,None,264.20497329700083,None,264.20497329700083,None,264.20497329700083,None,264.20497329700083,None,,,,,,,,,,,,,,,,,,,,,,,,,,,,,,,,,,,,,,,,,,,,001,122,2020_Feb_13_1324,spring_faces,3.1.5,59.94487876563595,
condition files/Stage0b_2.xlsx,0b,beta,none,g,"['h', 'g']","['Chess', 'Go']","[-0.15, 0.5]","[0.15, 0.5]",1,0,0,7,7,7,0,1,1,1,,,,,,,,,,,,,,,,,,,,,,,,,,,,,,,,,,,,,,,,,,,,,,,,,,,,,,,,,,,,,,,266.17159652400005,None,266.17159652400005,None,266.17159652400005,None,g,1,0.6459651549994305,267.7086238820011,None,267.7086238820011,None,267.7086238820011,None,268.4108145750015,None,268.4108145750015,None,268.4108145750015,None,268.4108145750015,None,,,,,,,,,,,,,,,,,,,,,,,,,,,,,,,,,,,,,,,,,,,,001,122,2020_Feb_13_1324,spring_faces,3.1.5,59.94487876563595,
condition files/Stage0b_1.xlsx,0b,alpha,none,h,"['h', 'g']","['Chess', 'Go']","[-0.15, 0.5]","[0.15, 0.5]",1,0,0,8,8,8,0,0,0,0,,,,,,,,,,,,,,,,,,,,,,,,,,,,,,,,,,,,,,,,,,,,,,,,,,,,,,,,,,,,,,,270.3886433030002,None,270.3886433030002,None,270.3886433030002,None,h,1,0.6568313850002596,271.921772564001,None,271.921772564001,None,271.921772564001,None,272.6380935720008,None,272.6380935720008,None,272.6380935720008,None,272.6380935720008,None,,,,,,,,,,,,,,,,,,,,,,,,,,,,,,,,,,,,,,,,,,,,001,122,2020_Feb_13_1324,spring_faces,3.1.5,59.94487876563595,
condition files/Stage0b_1.xlsx,0b,none,beta,g,"['h', 'g']","['Chess', 'Go']","[-0.15, 0.5]","[0.15, 0.5]",0,1,0,8,8,8,0,1,1,1,,,,,,,,,,,,,,,,,,,,,,,,,,,,,,,,,,,,,,,,,,,,,,,,,,,,,,,,,,,,,,,274.6048893320003,None,274.6048893320003,None,274.6048893320003,None,g,1,0.8236449680007354,276.1549871700008,None,276.1549871700008,None,276.1549871700008,None,277.0550389660002,None,277.0550389660002,None,277.0550389660002,None,277.0550389660002,None,,,,,,,,,,,,,,,,,,,,,,,,,,,,,,,,,,,,,,,,,,,,001,122,2020_Feb_13_1324,spring_faces,3.1.5,59.94487876563595,
condition files/Stage0b_2.xlsx,0b,beta,none,g,"['h', 'g']","['Chess', 'Go']","[-0.15, 0.5]","[0.15, 0.5]",1,0,0,9,9,9,0,0,0,1,,,,,,,,,,,,,,,,,,,,,,,,,,,,,,,,,,,,,,,,,,,,,,,,,,,,,,,,,,,,,,,279.0218636240006,None,279.0218636240006,None,279.0218636240006,None,g,1,1.7468421369994758,280.559704745001,None,280.559704745001,None,280.559704745001,None,282.37203237799986,None,282.37203237799986,None,282.37203237799986,None,282.37203237799986,None,,,,,,,,,,,,,,,,,,,,,,,,,,,,,,,,,,,,,,,,,,,,001,122,2020_Feb_13_1324,spring_faces,3.1.5,59.94487876563595,
condition files/Stage0b_2.xlsx,0b,none,alpha,h,"['h', 'g']","['Chess', 'Go']","[-0.15, 0.5]","[0.15, 0.5]",0,1,0,9,9,9,0,1,1,0,,,,,,,,,,,,,,,,,,,,,,,,,,,,,,,,,,,,,,,,,,,,,,,,,,,,,,,,,,,,,,,284.3382102080013,None,284.3382102080013,None,284.3382102080013,None,h,1,0.8825912249994872,285.8719951940002,None,285.8719951940002,None,285.8719951940002,None,286.80616278399975,None,286.80616278399975,None,286.80616278399975,None,286.80616278399975,None,,,,,,,,,,,,,,,,,,,,,,,,,,,,,,,,,,,,,,,,,,,,001,122,2020_Feb_13_1324,spring_faces,3.1.5,59.94487876563595,
condition files/Stage0b_1.xlsx,0b,alpha,none,h,"['h', 'g']","['Chess', 'Go']","[-0.15, 0.5]","[0.15, 0.5]",1,0,0,10,10,10,0,0,0,0,,,,,,,,,,,,,,,,,,,,,,,,,,,,,,,,,,,,,,,,,,,,,,,,,,,,,,,,,,,,,,,288.78874596400055,None,288.78874596400055,None,288.78874596400055,None,h,1,0.8308359980001114,290.3237729829998,None,290.3237729829998,None,290.3237729829998,None,291.2053637750014,None,291.2053637750014,None,291.2053637750014,None,291.2053637750014,None,,,,,,,,,,,,,,,,,,,,,,,,,,,,,,,,,,,,,,,,,,,,001,122,2020_Feb_13_1324,spring_faces,3.1.5,59.94487876563595,
condition files/Stage0b_1.xlsx,0b,none,beta,g,"['h', 'g']","['Chess', 'Go']","[-0.15, 0.5]","[0.15, 0.5]",0,1,0,10,10,10,0,1,1,1,,,,,,,,,,,,,,,,,,,,,,,,,,,,,,,,,,,,,,,,,,,,,,,,,,,,,,,,,,,,,,,293.1713772010007,None,293.1713772010007,None,293.1713772010007,None,g,1,0.8647793569998612,294.72179489800146,None,294.72179489800146,None,294.72179489800146,None,295.6437822100015,None,295.6437822100015,None,295.6437822100015,None,295.6437822100015,None,,,,,,,,,,,,,,,,,,,,,,,,,,,,,,,,,,,,,,,,,,,,001,122,2020_Feb_13_1324,spring_faces,3.1.5,59.94487876563595,
condition files/Stage0b_2.xlsx,0b,beta,none,g,"['h', 'g']","['Chess', 'Go']","[-0.15, 0.5]","[0.15, 0.5]",1,0,0,11,11,11,0,0,0,1,,,,,,,,,,,,,,,,,,,,,,,,,,,,,,,,,,,,,,,,,,,,,,,,,,,,,,,,,,,,,,,297.62175573900095,None,297.62175573900095,None,297.62175573900095,None,g,1,1.0978601419992629,299.1607431500015,None,299.1607431500015,None,299.1607431500015,None,300.32198917700043,None,300.32198917700043,None,300.32198917700043,None,300.32198917700043,None,,,,,,,,,,,,,,,,,,,,,,,,,,,,,,,,,,,,,,,,,,,,001,122,2020_Feb_13_1324,spring_faces,3.1.5,59.94487876563595,
condition files/Stage0b_2.xlsx,0b,none,alpha,h,"['h', 'g']","['Chess', 'Go']","[-0.15, 0.5]","[0.15, 0.5]",0,1,0,11,11,11,0,1,1,0,,,,,,,,,,,,,,,,,,,,,,,,,,,,,,,,,,,,,,,,,,,,,,,,,,,,,,,,,,,,,,,302.28754483300145,None,302.28754483300145,None,302.28754483300145,None,h,1,0.9481974339996668,303.8224025590007,None,303.8224025590007,None,303.8224025590007,None,304.8267631480012,None,304.8267631480012,None,304.8267631480012,None,304.8267631480012,None,,,,,,,,,,,,,,,,,,,,,,,,,,,,,,,,,,,,,,,,,,,,001,122,2020_Feb_13_1324,spring_faces,3.1.5,59.94487876563595,
condition files/Stage0c_1.xlsx,0c,beta,theta,g,"['h', 'g']","['Chess', 'Go']","[-0.15, 0.5]","[0.15, 0.5]",1,1,0,12,12,12,0,0,0,2,,,,,,,,,,,,,,,,,,,,,,,,,,,,,,,,,,,,,,,,,,,,,,,,,,,,,,,,,,,,,,,306.80524242400134,None,306.80524242400134,None,306.80524242400134,None,g,1,2.1763577019992226,308.338240901001,None,308.338240901001,None,308.338240901001,None,310.57185648000086,None,310.57185648000086,None,310.57185648000086,None,310.57185648000086,None,,,,,,,,,,,,,,,,,,,,,,,,,,,,,,,,,,,,,,,,,,,,001,122,2020_Feb_13_1324,spring_faces,3.1.5,59.94487876563595,
condition files/Stage0c_1.xlsx,0c,phi,beta,g,"['h', 'g']","['Chess', 'Go']","[-0.15, 0.5]","[0.15, 0.5]",1,1,0,12,12,12,0,1,1,3,,,,,,,,,,,,,,,,,,,,,,,,,,,,,,,,,,,,,,,,,,,,,,,,,,,,,,,,,,,,,,,312.5380228140002,None,312.5380228140002,None,312.5380228140002,None,g,1,1.7708251449985255,314.0717780940013,None,314.0717780940013,None,314.0717780940013,None,315.9052076280004,None,315.9052076280004,None,315.9052076280004,None,315.9052076280004,None,,,,,,,,,,,,,,,,,,,,,,,,,,,,,,,,,,,,,,,,,,,,001,122,2020_Feb_13_1324,spring_faces,3.1.5,59.94487876563595,
condition files/Stage0c_1.xlsx,0c,alpha,phi,h,"['h', 'g']","['Chess', 'Go']","[-0.15, 0.5]","[0.15, 0.5]",1,1,0,12,12,12,0,2,2,1,,,,,,,,,,,,,,,,,,,,,,,,,,,,,,,,,,,,,,,,,,,,,,,,,,,,,,,,,,,,,,,317.87153646800107,None,317.87153646800107,None,317.87153646800107,None,h,1,4.390276387000995,319.4043142690007,None,319.4043142690007,None,319.4043142690007,None,323.8546734820011,None,323.8546734820011,None,323.8546734820011,None,323.8546734820011,None,,,,,,,,,,,,,,,,,,,,,,,,,,,,,,,,,,,,,,,,,,,,001,122,2020_Feb_13_1324,spring_faces,3.1.5,59.94487876563595,
condition files/Stage0c_1.xlsx,0c,theta,alpha,h,"['h', 'g']","['Chess', 'Go']","[-0.15, 0.5]","[0.15, 0.5]",1,1,0,12,12,12,0,3,3,0,,,,,,,,,,,,,,,,,,,,,,,,,,,,,,,,,,,,,,,,,,,,,,,,,,,,,,,,,,,,,,,325.821449598001,None,325.821449598001,None,325.821449598001,None,h,1,1.015670949998821,327.3549199650006,None,327.3549199650006,None,327.3549199650006,None,328.40668843800086,None,328.40668843800086,None,328.40668843800086,None,328.40668843800086,None,,,,,,,,,,,,,,,,,,,,,,,,,,,,,,,,,,,,,,,,,,,,001,122,2020_Feb_13_1324,spring_faces,3.1.5,59.94487876563595,
condition files/Stage0c_2.xlsx,0c,beta,phi,g,"['h', 'g']","['Chess', 'Go']","[-0.15, 0.5]","[0.15, 0.5]",1,1,0,13,13,13,0,0,0,3,,,,,,,,,,,,,,,,,,,,,,,,,,,,,,,,,,,,,,,,,,,,,,,,,,,,,,,,,,,,,,,330.4051234010003,None,330.4051234010003,None,330.4051234010003,None,g,1,1.0402048079995438,331.9384360870008,None,331.9384360870008,None,331.9384360870008,None,333.0380893190013,None,333.0380893190013,None,333.0380893190013,None,333.0380893190013,None,,,,,,,,,,,,,,,,,,,,,,,,,,,,,,,,,,,,,,,,,,,,001,122,2020_Feb_13_1324,spring_faces,3.1.5,59.94487876563595,
condition files/Stage0c_2.xlsx,0c,alpha,theta,h,"['h', 'g']","['Chess', 'Go']","[-0.15, 0.5]","[0.15, 0.5]",1,1,0,13,13,13,0,1,1,0,,,,,,,,,,,,,,,,,,,,,,,,,,,,,,,,,,,,,,,,,,,,,,,,,,,,,,,,,,,,,,,335.00486681999973,None,335.00486681999973,None,335.00486681999973,None,h,1,0.9361082759987767,336.53848113500135,None,336.53848113500135,None,336.53848113500135,None,337.53809722700134,None,337.53809722700134,None,337.53809722700134,None,337.53809722700134,None,,,,,,,,,,,,,,,,,,,,,,,,,,,,,,,,,,,,,,,,,,,,001,122,2020_Feb_13_1324,spring_faces,3.1.5,59.94487876563595,
condition files/Stage0c_2.xlsx,0c,phi,alpha,h,"['h', 'g']","['Chess', 'Go']","[-0.15, 0.5]","[0.15, 0.5]",1,1,0,13,13,13,0,2,2,1,,,,,,,,,,,,,,,,,,,,,,,,,,,,,,,,,,,,,,,,,,,,,,,,,,,,,,,,,,,,,,,339.50477740600036,None,339.50477740600036,None,339.50477740600036,None,h,1,0.8680453039996792,341.03850374600006,None,341.03850374600006,None,341.03850374600006,None,341.9563441999999,None,341.9563441999999,None,341.9563441999999,None,341.9563441999999,None,,,,,,,,,,,,,,,,,,,,,,,,,,,,,,,,,,,,,,,,,,,,001,122,2020_Feb_13_1324,spring_faces,3.1.5,59.94487876563595,
condition files/Stage0c_2.xlsx,0c,theta,beta,g,"['h', 'g']","['Chess', 'Go']","[-0.15, 0.5]","[0.15, 0.5]",1,1,0,13,13,13,0,3,3,2,,,,,,,,,,,,,,,,,,,,,,,,,,,,,,,,,,,,,,,,,,,,,,,,,,,,,,,,,,,,,,,343.93839884200133,None,343.93839884200133,None,343.93839884200133,None,g,1,1.1548813740009791,345.4717206300011,None,345.4717206300011,None,345.4717206300011,None,346.68868434400065,None,346.68868434400065,None,346.68868434400065,None,346.68868434400065,None,,,,,,,,,,,,,,,,,,,,,,,,,,,,,,,,,,,,,,,,,,,,001,122,2020_Feb_13_1324,spring_faces,3.1.5,59.94487876563595,
condition files/Stage0c_1.xlsx,0c,beta,theta,g,"['h', 'g']","['Chess', 'Go']","[-0.15, 0.5]","[0.15, 0.5]",1,1,0,14,14,14,0,0,0,2,,,,,,,,,,,,,,,,,,,,,,,,,,,,,,,,,,,,,,,,,,,,,,,,,,,,,,,,,,,,,,,348.67213743700086,None,348.67213743700086,None,348.67213743700086,None,g,1,1.1093347610003548,350.2052778080015,None,350.2052778080015,None,350.2052778080015,None,351.35718482500124,None,351.35718482500124,None,351.35718482500124,None,351.35718482500124,None,,,,,,,,,,,,,,,,,,,,,,,,,,,,,,,,,,,,,,,,,,,,001,122,2020_Feb_13_1324,spring_faces,3.1.5,59.94487876563595,
condition files/Stage0c_1.xlsx,0c,phi,beta,g,"['h', 'g']","['Chess', 'Go']","[-0.15, 0.5]","[0.15, 0.5]",1,1,0,14,14,14,0,1,1,3,,,,,,,,,,,,,,,,,,,,,,,,,,,,,,,,,,,,,,,,,,,,,,,,,,,,,,,,,,,,,,,353.33797359300115,None,353.33797359300115,None,353.33797359300115,None,g,1,1.5469403520000924,354.871628719,None,354.871628719,None,354.871628719,None,356.4558733499998,None,356.4558733499998,None,356.4558733499998,None,356.4558733499998,None,,,,,,,,,,,,,,,,,,,,,,,,,,,,,,,,,,,,,,,,,,,,001,122,2020_Feb_13_1324,spring_faces,3.1.5,59.94487876563595,
condition files/Stage0c_1.xlsx,0c,theta,alpha,h,"['h', 'g']","['Chess', 'Go']","[-0.15, 0.5]","[0.15, 0.5]",1,1,0,14,14,14,0,2,2,0,,,,,,,,,,,,,,,,,,,,,,,,,,,,,,,,,,,,,,,,,,,,,,,,,,,,,,,,,,,,,,,358.43829810900024,None,358.43829810900024,None,358.43829810900024,None,h,1,0.8308530340000289,359.97173819100135,None,359.97173819100135,None,359.97173819100135,None,360.8550996590002,None,360.8550996590002,None,360.8550996590002,None,360.8550996590002,None,,,,,,,,,,,,,,,,,,,,,,,,,,,,,,,,,,,,,,,,,,,,001,122,2020_Feb_13_1324,spring_faces,3.1.5,59.94487876563595,
condition files/Stage0c_1.xlsx,0c,alpha,phi,h,"['h', 'g']","['Chess', 'Go']","[-0.15, 0.5]","[0.15, 0.5]",1,1,0,14,14,14,0,3,3,1,,,,,,,,,,,,,,,,,,,,,,,,,,,,,,,,,,,,,,,,,,,,,,,,,,,,,,,,,,,,,,,362.8215829560013,None,362.8215829560013,None,362.8215829560013,None,h,1,1.1194975870002963,364.3550950710014,None,364.3550950710014,None,364.3550950710014,None,365.5386871790015,None,365.5386871790015,None,365.5386871790015,None,365.5386871790015,None,,,,,,,,,,,,,,,,,,,,,,,,,,,,,,,,,,,,,,,,,,,,001,122,2020_Feb_13_1324,spring_faces,3.1.5,59.94487876563595,
condition files/Stage0c_2.xlsx,0c,alpha,theta,h,"['h', 'g']","['Chess', 'Go']","[-0.15, 0.5]","[0.15, 0.5]",1,1,0,15,15,15,0,0,0,0,,,,,,,,,,,,,,,,,,,,,,,,,,,,,,,,,,,,,,,,,,,,,,,,,,,,,,,,,,,,,,,367.52170269100134,None,367.52170269100134,None,367.52170269100134,None,h,1,0.8680836990006355,369.03850571800103,None,369.03850571800103,None,369.03850571800103,None,369.9572929920014,None,369.9572929920014,None,369.9572929920014,None,369.9572929920014,None,,,,,,,,,,,,,,,,,,,,,,,,,,,,,,,,,,,,,,,,,,,,001,122,2020_Feb_13_1324,spring_faces,3.1.5,59.94487876563595,
condition files/Stage0c_2.xlsx,0c,theta,beta,g,"['h', 'g']","['Chess', 'Go']","[-0.15, 0.5]","[0.15, 0.5]",1,1,0,15,15,15,0,1,1,2,,,,,,,,,,,,,,,,,,,,,,,,,,,,,,,,,,,,,,,,,,,,,,,,,,,,,,,,,,,,,,,371.9381237260004,None,371.9381237260004,None,371.9381237260004,None,g,1,1.218745031999788,373.47184671500145,None,373.47184671500145,None,373.47184671500145,None,374.7548568660004,None,374.7548568660004,None,374.7548568660004,None,374.7548568660004,None,,,,,,,,,,,,,,,,,,,,,,,,,,,,,,,,,,,,,,,,,,,,001,122,2020_Feb_13_1324,spring_faces,3.1.5,59.94487876563595,
condition files/Stage0c_2.xlsx,0c,phi,alpha,h,"['h', 'g']","['Chess', 'Go']","[-0.15, 0.5]","[0.15, 0.5]",1,1,0,15,15,15,0,2,2,1,,,,,,,,,,,,,,,,,,,,,,,,,,,,,,,,,,,,,,,,,,,,,,,,,,,,,,,,,,,,,,,376.7209856540012,None,376.7209856540012,None,376.7209856540012,None,h,1,1.0114563500010263,378.255133056,None,378.255133056,None,378.255133056,None,379.32150844100033,None,379.32150844100033,None,379.32150844100033,None,379.32150844100033,None,,,,,,,,,,,,,,,,,,,,,,,,,,,,,,,,,,,,,,,,,,,,001,122,2020_Feb_13_1324,spring_faces,3.1.5,59.94487876563595,
condition files/Stage0c_2.xlsx,0c,beta,phi,g,"['h', 'g']","['Chess', 'Go']","[-0.15, 0.5]","[0.15, 0.5]",1,1,0,15,15,15,0,3,3,3,,,,,,,,,,,,,,,,,,,,,,,,,,,,,,,,,,,,,,,,,,,,,,,,,,,,,,,,,,,,,,,381.2879466980012,None,381.2879466980012,None,381.2879466980012,None,g,1,0.9733312480002496,382.8212762580006,None,382.8212762580006,None,382.8212762580006,None,383.8550709600004,None,383.8550709600004,None,383.8550709600004,None,383.8550709600004,None,,,,,,,,,,,,,,,,,,,,,,,,,,,,,,,,,,,,,,,,,,,,001,122,2020_Feb_13_1324,spring_faces,3.1.5,59.94487876563595,
condition files/Stage0c_1.xlsx,0c,beta,theta,g,"['h', 'g']","['Chess', 'Go']","[-0.15, 0.5]","[0.15, 0.5]",1,1,0,16,16,16,0,0,0,2,,,,,,,,,,,,,,,,,,,,,,,,,,,,,,,,,,,,,,,,,,,,,,,,,,,,,,,,,,,,,,,385.83804320499985,None,385.83804320499985,None,385.83804320499985,None,g,1,1.078805524000927,387.37174909500027,None,387.37174909500027,None,387.37174909500027,None,388.49111905500104,None,388.49111905500104,None,388.49111905500104,None,388.49111905500104,None,,,,,,,,,,,,,,,,,,,,,,,,,,,,,,,,,,,,,,,,,,,,001,122,2020_Feb_13_1324,spring_faces,3.1.5,59.94487876563595,
condition files/Stage0c_1.xlsx,0c,phi,beta,g,"['h', 'g']","['Chess', 'Go']","[-0.15, 0.5]","[0.15, 0.5]",1,1,0,16,16,16,0,1,1,3,,,,,,,,,,,,,,,,,,,,,,,,,,,,,,,,,,,,,,,,,,,,,,,,,,,,,,,,,,,,,,,390.4706795860002,None,390.4706795860002,None,390.4706795860002,None,g,1,1.5174037489996408,392.0051294620007,None,392.0051294620007,None,392.0051294620007,None,393.57175653300146,None,393.57175653300146,None,393.57175653300146,None,393.57175653300146,None,,,,,,,,,,,,,,,,,,,,,,,,,,,,,,,,,,,,,,,,,,,,001,122,2020_Feb_13_1324,spring_faces,3.1.5,59.94487876563595,
condition files/Stage0c_1.xlsx,0c,theta,alpha,h,"['h', 'g']","['Chess', 'Go']","[-0.15, 0.5]","[0.15, 0.5]",1,1,0,16,16,16,0,2,2,0,,,,,,,,,,,,,,,,,,,,,,,,,,,,,,,,,,,,,,,,,,,,,,,,,,,,,,,,,,,,,,,395.554933237001,None,395.554933237001,None,395.554933237001,None,h,1,1.0580227979990013,397.08862243300064,None,397.08862243300064,None,397.08862243300064,None,398.20483720800075,None,398.20483720800075,None,398.20483720800075,None,398.20483720800075,None,,,,,,,,,,,,,,,,,,,,,,,,,,,,,,,,,,,,,,,,,,,,001,122,2020_Feb_13_1324,spring_faces,3.1.5,59.94487876563595,
condition files/Stage0c_1.xlsx,0c,alpha,phi,h,"['h', 'g']","['Chess', 'Go']","[-0.15, 0.5]","[0.15, 0.5]",1,1,0,16,16,16,0,3,3,1,,,,,,,,,,,,,,,,,,,,,,,,,,,,,,,,,,,,,,,,,,,,,,,,,,,,,,,,,,,,,,,400.17128552400027,None,400.17128552400027,None,400.17128552400027,None,h,1,1.08202085099947,401.7045659410014,None,401.7045659410014,None,401.7045659410014,None,402.83849571000064,None,402.83849571000064,None,402.83849571000064,None,402.83849571000064,None,,,,,,,,,,,,,,,,,,,,,,,,,,,,,,,,,,,,,,,,,,,,001,122,2020_Feb_13_1324,spring_faces,3.1.5,59.94487876563595,
condition files/Stage0c_2.xlsx,0c,theta,beta,g,"['h', 'g']","['Chess', 'Go']","[-0.15, 0.5]","[0.15, 0.5]",1,1,0,17,17,17,0,0,0,2,,,,,,,,,,,,,,,,,,,,,,,,,,,,,,,,,,,,,,,,,,,,,,,,,,,,,,,,,,,,,,,404.8216117720003,None,404.8216117720003,None,404.8216117720003,None,g,1,1.8074766989993805,406.355188892001,None,406.355188892001,None,406.355188892001,None,408.22127923300104,None,408.22127923300104,None,408.22127923300104,None,408.22127923300104,None,,,,,,,,,,,,,,,,,,,,,,,,,,,,,,,,,,,,,,,,,,,,001,122,2020_Feb_13_1324,spring_faces,3.1.5,59.94487876563595,
condition files/Stage0c_2.xlsx,0c,beta,phi,g,"['h', 'g']","['Chess', 'Go']","[-0.15, 0.5]","[0.15, 0.5]",1,1,0,17,17,17,0,1,1,3,,,,,,,,,,,,,,,,,,,,,,,,,,,,,,,,,,,,,,,,,,,,,,,,,,,,,,,,,,,,,,,410.18808309400083,None,410.18808309400083,None,410.18808309400083,None,g,1,1.7524996500014822,411.7221357260005,None,411.7221357260005,None,411.7221357260005,None,413.52247626900134,None,413.52247626900134,None,413.52247626900134,None,413.52247626900134,None,,,,,,,,,,,,,,,,,,,,,,,,,,,,,,,,,,,,,,,,,,,,001,122,2020_Feb_13_1324,spring_faces,3.1.5,59.94487876563595,
condition files/Stage0c_2.xlsx,0c,alpha,theta,h,"['h', 'g']","['Chess', 'Go']","[-0.15, 0.5]","[0.15, 0.5]",1,1,0,17,17,17,0,2,2,0,,,,,,,,,,,,,,,,,,,,,,,,,,,,,,,,,,,,,,,,,,,,,,,,,,,,,,,,,,,,,,,415.5051796750013,None,415.5051796750013,None,415.5051796750013,None,h,1,1.0608193930002017,417.037831904001,None,417.037831904001,None,417.037831904001,None,418.1546968570001,None,418.1546968570001,None,418.1546968570001,None,418.1546968570001,None,,,,,,,,,,,,,,,,,,,,,,,,,,,,,,,,,,,,,,,,,,,,001,122,2020_Feb_13_1324,spring_faces,3.1.5,59.94487876563595,
condition files/Stage0c_2.xlsx,0c,phi,alpha,h,"['h', 'g']","['Chess', 'Go']","[-0.15, 0.5]","[0.15, 0.5]",1,1,0,17,17,17,0,3,3,1,,,,,,,,,,,,,,,,,,,,,,,,,,,,,,,,,,,,,,,,,,,,,,,,,,,,,,,,,,,,,,,420.12176994400033,None,420.12176994400033,None,420.12176994400033,None,h,1,0.9077631729996938,421.6548901620008,None,421.6548901620008,None,421.6548901620008,None,422.6058657829999,None,422.6058657829999,None,422.6058657829999,None,422.6058657829999,None,,,,,,,,,,,,,,,,,,,,,,,,,,,,,,,,,,,,,,,,,,,,001,122,2020_Feb_13_1324,spring_faces,3.1.5,59.94487876563595,
,,,,,,,,,,,,,,,,,,,,,,,,,,,,,,,,,,,,,,,,,,,,,,,,,,,,,,,,,,,,,,,,,,,,,,,,,,,,,,,,,,,,,,,,,,,,,,,,,,,,,,,,424.60517364000043,None,space,9.341726048000055,429.6049522080011,None,,,,,,,,,,,,,,,,,,,,,,,,,,,,,,,,,,,,,,001,122,2020_Feb_13_1324,spring_faces,3.1.5,59.94487876563595,
condition files/Stage1_1.xlsx,,B3,T3,c,"['c', 'm']","['Clue', 'Monopoly']","[-0.15, 0.5]","[0.15, 0.5]",1,1,,,,,,,,,0,0,0,0,0,0,0,4,,,,,,,,,,,,,,,,,,,,,,,,,,,,,,,,,,,,,,,,,,,,,,,,,,,,,,,439.0047235760012,None,439.0047235760012,None,439.0047235760012,None,c,1,2.0701682259987138,440.5884433910014,None,440.5884433910014,None,440.5884433910014,None,442.73821862300065,None,442.73821862300065,None,442.73821862300065,None,442.73821862300065,None,,,,,,,429.6049522080011,None,,,,,,,,,,,,,,,,,,,,,,,,,,,,,,,,,,,,001,122,2020_Feb_13_1324,spring_faces,3.1.5,59.94487876563595,
condition files/Stage1_1.xlsx,,T4,B3,m,"['c', 'm']","['Clue', 'Monopoly']","[-0.15, 0.5]","[0.15, 0.5]",1,1,,,,,,,,,0,0,0,0,0,1,1,6,,,,,,,,,,,,,,,,,,,,,,,,,,,,,,,,,,,,,,,,,,,,,,,,,,,,,,,444.68810534300064,None,444.68810534300064,None,444.68810534300064,None,m,1,1.3304582879991358,446.2721413390009,None,446.2721413390009,None,446.2721413390009,None,447.67171919000066,None,447.67171919000066,None,447.67171919000066,None,447.67171919000066,None,,,,,,,,,,,,,,,,,,,,,,,,,,,,,,,,,,,,,,,,,,,,001,122,2020_Feb_13_1324,spring_faces,3.1.5,59.94487876563595,
condition files/Stage1_1.xlsx,,B1,T2,c,"['c', 'm']","['Clue', 'Monopoly']","[-0.15, 0.5]","[0.15, 0.5]",1,1,,,,,,,,,0,0,0,0,0,2,2,1,,,,,,,,,,,,,,,,,,,,,,,,,,,,,,,,,,,,,,,,,,,,,,,,,,,,,,,449.62172389199986,None,449.62172389199986,None,449.62172389199986,None,c,1,0.8292046700007631,451.22134996800014,None,451.22134996800014,None,451.22134996800014,None,452.10519769200073,None,452.10519769200073,None,452.10519769200073,None,452.10519769200073,None,,,,,,,,,,,,,,,,,,,,,,,,,,,,,,,,,,,,,,,,,,,,001,122,2020_Feb_13_1324,spring_faces,3.1.5,59.94487876563595,
condition files/Stage1_1.xlsx,,T2,B2,m,"['c', 'm']","['Clue', 'Monopoly']","[-0.15, 0.5]","[0.15, 0.5]",1,1,,,,,,,,,0,0,0,0,0,3,3,3,,,,,,,,,,,,,,,,,,,,,,,,,,,,,,,,,,,,,,,,,,,,,,,,,,,,,,,454.0714823620001,None,454.0714823620001,None,454.0714823620001,None,c,0,1.2297493259993644,455.6048584270011,None,455.6048584270011,None,455.6048584270011,None,456.8894658500012,None,456.8894658500012,None,456.8894658500012,None,456.8894658500012,None,,,,,,,,,,,,,,,,,,,,,,,,,,,,,,,,,,,,,,,,,,,,001,122,2020_Feb_13_1324,spring_faces,3.1.5,59.94487876563595,
condition files/Stage1_1.xlsx,,B4,T4,m,"['c', 'm']","['Clue', 'Monopoly']","[-0.15, 0.5]","[0.15, 0.5]",1,1,,,,,,,,,0,0,0,0,0,4,4,7,,,,,,,,,,,,,,,,,,,,,,,,,,,,,,,,,,,,,,,,,,,,,,,,,,,,,,,458.8548455880009,None,458.8548455880009,None,458.8548455880009,None,m,1,1.6747874400007277,460.4238948150014,None,460.4238948150014,None,460.4238948150014,None,462.155367065001,None,462.155367065001,None,462.155367065001,None,462.155367065001,None,,,,,,,,,,,,,,,,,,,,,,,,,,,,,,,,,,,,,,,,,,,,001,122,2020_Feb_13_1324,spring_faces,3.1.5,59.94487876563595,
condition files/Stage1_1.xlsx,,B2,T1,m,"['c', 'm']","['Clue', 'Monopoly']","[-0.15, 0.5]","[0.15, 0.5]",1,1,,,,,,,,,0,0,0,0,0,5,5,2,,,,,,,,,,,,,,,,,,,,,,,,,,,,,,,,,,,,,,,,,,,,,,,,,,,,,,,464.1218684840005,None,464.1218684840005,None,464.1218684840005,None,c,0,1.7709349649994692,465.6716675380012,None,465.6716675380012,None,465.6716675380012,None,467.504759585001,None,467.504759585001,None,467.504759585001,None,467.504759585001,None,,,,,,,,,,,,,,,,,,,,,,,,,,,,,,,,,,,,,,,,,,,,001,122,2020_Feb_13_1324,spring_faces,3.1.5,59.94487876563595,
condition files/Stage1_1.xlsx,,T1,B1,c,"['c', 'm']","['Clue', 'Monopoly']","[-0.15, 0.5]","[0.15, 0.5]",1,1,,,,,,,,,0,0,0,0,0,6,6,0,,,,,,,,,,,,,,,,,,,,,,,,,,,,,,,,,,,,,,,,,,,,,,,,,,,,,,,469.47129005200077,None,469.47129005200077,None,469.47129005200077,None,m,0,1.428953939999701,471.00566777099993,None,471.00566777099993,None,471.00566777099993,None,472.5050201060003,None,472.5050201060003,None,472.5050201060003,None,472.5050201060003,None,,,,,,,,,,,,,,,,,,,,,,,,,,,,,,,,,,,,,,,,,,,,001,122,2020_Feb_13_1324,spring_faces,3.1.5,59.94487876563595,
condition files/Stage1_1.xlsx,,T3,B4,c,"['c', 'm']","['Clue', 'Monopoly']","[-0.15, 0.5]","[0.15, 0.5]",1,1,,,,,,,,,0,0,0,0,0,7,7,5,,,,,,,,,,,,,,,,,,,,,,,,,,,,,,,,,,,,,,,,,,,,,,,,,,,,,,,474.4549961770008,None,474.4549961770008,None,474.4549961770008,None,c,1,2.267957802001547,475.990651995,None,475.990651995,None,475.990651995,None,478.3217408370001,None,478.3217408370001,None,478.3217408370001,None,478.3217408370001,None,,,,,,,,,,,,,,,,,,,,,,,,,,,,,,,,,,,,,,,,,,,,001,122,2020_Feb_13_1324,spring_faces,3.1.5,59.94487876563595,
condition files/Stage1_2.xlsx,,T2,B1,c,"['c', 'm']","['Clue', 'Monopoly']","[-0.15, 0.5]","[0.15, 0.5]",1,1,,,,,,,,,0,1,1,1,0,0,0,1,,,,,,,,,,,,,,,,,,,,,,,,,,,,,,,,,,,,,,,,,,,,,,,,,,,,,,,480.30534478200025,None,480.30534478200025,None,480.30534478200025,None,c,1,1.3461659539989341,481.8404423440006,None,481.8404423440006,None,481.8404423440006,None,483.2385233490004,None,483.2385233490004,None,483.2385233490004,None,483.2385233490004,None,,,,,,,,,,,,,,,,,,,,,,,,,,,,,,,,,,,,,,,,,,,,001,122,2020_Feb_13_1324,spring_faces,3.1.5,59.94487876563595,
condition files/Stage1_2.xlsx,,T4,B4,m,"['c', 'm']","['Clue', 'Monopoly']","[-0.15, 0.5]","[0.15, 0.5]",1,1,,,,,,,,,0,1,1,1,0,1,1,7,,,,,,,,,,,,,,,,,,,,,,,,,,,,,,,,,,,,,,,,,,,,,,,,,,,,,,,485.20417447900036,None,485.20417447900036,None,485.20417447900036,None,m,1,0.944093188001716,486.7545628890002,None,486.7545628890002,None,486.7545628890002,None,487.77163810599995,None,487.77163810599995,None,487.77163810599995,None,487.77163810599995,None,,,,,,,,,,,,,,,,,,,,,,,,,,,,,,,,,,,,,,,,,,,,001,122,2020_Feb_13_1324,spring_faces,3.1.5,59.94487876563595,
condition files/Stage1_2.xlsx,,B3,T4,m,"['c', 'm']","['Clue', 'Monopoly']","[-0.15, 0.5]","[0.15, 0.5]",1,1,,,,,,,,,0,1,1,1,0,2,2,6,,,,,,,,,,,,,,,,,,,,,,,,,,,,,,,,,,,,,,,,,,,,,,,,,,,,,,,489.72148924000066,None,489.72148924000066,None,489.72148924000066,None,m,1,1.0668363820004743,491.2717346990012,None,491.2717346990012,None,491.2717346990012,None,492.40516863999983,None,492.40516863999983,None,492.40516863999983,None,492.40516863999983,None,,,,,,,,,,,,,,,,,,,,,,,,,,,,,,,,,,,,,,,,,,,,001,122,2020_Feb_13_1324,spring_faces,3.1.5,59.94487876563595,
condition files/Stage1_2.xlsx,,B4,T3,c,"['c', 'm']","['Clue', 'Monopoly']","[-0.15, 0.5]","[0.15, 0.5]",1,1,,,,,,,,,0,1,1,1,0,3,3,5,,,,,,,,,,,,,,,,,,,,,,,,,,,,,,,,,,,,,,,,,,,,,,,,,,,,,,,494.37165457300034,None,494.37165457300034,None,494.37165457300034,None,c,1,1.2476399790011783,495.90696617700087,None,495.90696617700087,None,495.90696617700087,None,497.22124951000114,None,497.22124951000114,None,497.22124951000114,None,497.22124951000114,None,,,,,,,,,,,,,,,,,,,,,,,,,,,,,,,,,,,,,,,,,,,,001,122,2020_Feb_13_1324,spring_faces,3.1.5,59.94487876563595,
condition files/Stage1_2.xlsx,,B1,T1,c,"['c', 'm']","['Clue', 'Monopoly']","[-0.15, 0.5]","[0.15, 0.5]",1,1,,,,,,,,,0,1,1,1,0,4,4,0,,,,,,,,,,,,,,,,,,,,,,,,,,,,,,,,,,,,,,,,,,,,,,,,,,,,,,,499.17143746500005,None,499.17143746500005,None,499.17143746500005,None,c,1,0.9766962839985354,500.72184332899997,None,500.72184332899997,None,500.72184332899997,None,501.75475489600103,None,501.75475489600103,None,501.75475489600103,None,501.75475489600103,None,,,,,,,,,,,,,,,,,,,,,,,,,,,,,,,,,,,,,,,,,,,,001,122,2020_Feb_13_1324,spring_faces,3.1.5,59.94487876563595,
condition files/Stage1_2.xlsx,,T3,B3,c,"['c', 'm']","['Clue', 'Monopoly']","[-0.15, 0.5]","[0.15, 0.5]",1,1,,,,,,,,,0,1,1,1,0,5,5,4,,,,,,,,,,,,,,,,,,,,,,,,,,,,,,,,,,,,,,,,,,,,,,,,,,,,,,,503.7217262129998,None,503.7217262129998,None,503.7217262129998,None,c,1,0.9708555270008219,505.27174402700075,None,505.27174402700075,None,505.27174402700075,None,506.30439353900147,None,506.30439353900147,None,506.30439353900147,None,506.30439353900147,None,,,,,,,,,,,,,,,,,,,,,,,,,,,,,,,,,,,,,,,,,,,,001,122,2020_Feb_13_1324,spring_faces,3.1.5,59.94487876563595,
condition files/Stage1_2.xlsx,,B2,T2,m,"['c', 'm']","['Clue', 'Monopoly']","[-0.15, 0.5]","[0.15, 0.5]",1,1,,,,,,,,,0,1,1,1,0,6,6,3,,,,,,,,,,,,,,,,,,,,,,,,,,,,,,,,,,,,,,,,,,,,,,,,,,,,,,,508.27139681800145,None,508.27139681800145,None,508.27139681800145,None,m,1,3.8614840469999763,509.80511029599984,None,509.80511029599984,None,509.80511029599984,None,513.7216282690006,None,513.7216282690006,None,513.7216282690006,None,513.7216282690006,None,,,,,,,,,,,,,,,,,,,,,,,,,,,,,,,,,,,,,,,,,,,,001,122,2020_Feb_13_1324,spring_faces,3.1.5,59.94487876563595,
condition files/Stage1_2.xlsx,,T1,B2,m,"['c', 'm']","['Clue', 'Monopoly']","[-0.15, 0.5]","[0.15, 0.5]",1,1,,,,,,,,,0,1,1,1,0,7,7,2,,,,,,,,,,,,,,,,,,,,,,,,,,,,,,,,,,,,,,,,,,,,,,,,,,,,,,,515.688287559,None,515.688287559,None,515.688287559,None,m,1,0.9719778050002787,517.2226961280012,None,517.2226961280012,None,517.2226961280012,None,518.2551172760013,None,518.2551172760013,None,518.2551172760013,None,518.2551172760013,None,,,,,,,,,,,,,,,,,,,,,,,,,,,,,,,,,,,,,,,,,,,,001,122,2020_Feb_13_1324,spring_faces,3.1.5,59.94487876563595,
condition files/Stage1_1.xlsx,,T2,B2,m,"['c', 'm']","['Clue', 'Monopoly']","[-0.15, 0.5]","[0.15, 0.5]",1,1,,,,,,,,,0,2,2,2,0,0,0,3,,,,,,,,,,,,,,,,,,,,,,,,,,,,,,,,,,,,,,,,,,,,,,,,,,,,,,,520.2384347320003,None,520.2384347320003,None,520.2384347320003,None,m,1,0.8382692619998124,521.7883432280014,None,521.7883432280014,None,521.7883432280014,None,522.6879482690001,None,522.6879482690001,None,522.6879482690001,None,522.6879482690001,None,,,,,,,,,,,,,,,,,,,,,,,,,,,,,,,,,,,,,,,,,,,,001,122,2020_Feb_13_1324,spring_faces,3.1.5,59.94487876563595,
condition files/Stage1_1.xlsx,,T3,B4,c,"['c', 'm']","['Clue', 'Monopoly']","[-0.15, 0.5]","[0.15, 0.5]",1,1,,,,,,,,,0,2,2,2,0,1,1,5,,,,,,,,,,,,,,,,,,,,,,,,,,,,,,,,,,,,,,,,,,,,,,,,,,,,,,,524.654941099001,None,524.654941099001,None,524.654941099001,None,c,1,1.8614161770001374,526.2051005009998,None,526.2051005009998,None,526.2051005009998,None,528.1218984100014,None,528.1218984100014,None,528.1218984100014,None,528.1218984100014,None,,,,,,,,,,,,,,,,,,,,,,,,,,,,,,,,,,,,,,,,,,,,001,122,2020_Feb_13_1324,spring_faces,3.1.5,59.94487876563595,
condition files/Stage1_1.xlsx,,B1,T2,c,"['c', 'm']","['Clue', 'Monopoly']","[-0.15, 0.5]","[0.15, 0.5]",1,1,,,,,,,,,0,2,2,2,0,2,2,1,,,,,,,,,,,,,,,,,,,,,,,,,,,,,,,,,,,,,,,,,,,,,,,,,,,,,,,530.0883261240015,None,530.0883261240015,None,530.0883261240015,None,c,1,2.2519291099997645,531.6386656169998,None,531.6386656169998,None,531.6386656169998,None,533.9555741149998,None,533.9555741149998,None,533.9555741149998,None,533.9555741149998,None,,,,,,,,,,,,,,,,,,,,,,,,,,,,,,,,,,,,,,,,,,,,001,122,2020_Feb_13_1324,spring_faces,3.1.5,59.94487876563595,
condition files/Stage1_1.xlsx,,B4,T4,m,"['c', 'm']","['Clue', 'Monopoly']","[-0.15, 0.5]","[0.15, 0.5]",1,1,,,,,,,,,0,2,2,2,0,3,3,7,,,,,,,,,,,,,,,,,,,,,,,,,,,,,,,,,,,,,,,,,,,,,,,,,,,,,,,535.9214730660005,None,535.9214730660005,None,535.9214730660005,None,m,1,0.9948690359997272,537.4556987490014,None,537.4556987490014,None,537.4556987490014,None,538.5076956419998,None,538.5076956419998,None,538.5076956419998,None,538.5076956419998,None,,,,,,,,,,,,,,,,,,,,,,,,,,,,,,,,,,,,,,,,,,,,001,122,2020_Feb_13_1324,spring_faces,3.1.5,59.94487876563595,
condition files/Stage1_1.xlsx,,T1,B1,c,"['c', 'm']","['Clue', 'Monopoly']","[-0.15, 0.5]","[0.15, 0.5]",1,1,,,,,,,,,0,2,2,2,0,4,4,0,,,,,,,,,,,,,,,,,,,,,,,,,,,,,,,,,,,,,,,,,,,,,,,,,,,,,,,540.4714713580015,None,540.4714713580015,None,540.4714713580015,None,c,1,2.013871316999939,542.004667483001,None,542.004667483001,None,542.004667483001,None,544.0721508180013,None,544.0721508180013,None,544.0721508180013,None,544.0721508180013,None,,,,,,,,,,,,,,,,,,,,,,,,,,,,,,,,,,,,,,,,,,,,001,122,2020_Feb_13_1324,spring_faces,3.1.5,59.94487876563595,
condition files/Stage1_1.xlsx,,T4,B3,m,"['c', 'm']","['Clue', 'Monopoly']","[-0.15, 0.5]","[0.15, 0.5]",1,1,,,,,,,,,0,2,2,2,0,5,5,6,,,,,,,,,,,,,,,,,,,,,,,,,,,,,,,,,,,,,,,,,,,,,,,,,,,,,,,546.0381987609999,None,546.0381987609999,None,546.0381987609999,None,m,1,0.7336238930001855,547.5729974269998,None,547.5729974269998,None,547.5729974269998,None,548.3885328100005,None,548.3885328100005,None,548.3885328100005,None,548.3885328100005,None,,,,,,,,,,,,,,,,,,,,,,,,,,,,,,,,,,,,,,,,,,,,001,122,2020_Feb_13_1324,spring_faces,3.1.5,59.94487876563595,
condition files/Stage1_1.xlsx,,B2,T1,m,"['c', 'm']","['Clue', 'Monopoly']","[-0.15, 0.5]","[0.15, 0.5]",1,1,,,,,,,,,0,2,2,2,0,6,6,2,,,,,,,,,,,,,,,,,,,,,,,,,,,,,,,,,,,,,,,,,,,,,,,,,,,,,,,550.3378393860003,None,550.3378393860003,None,550.3378393860003,None,m,1,1.4266334390013071,551.872051448001,None,551.872051448001,None,551.872051448001,None,553.3553598060007,None,553.3553598060007,None,553.3553598060007,None,553.3553598060007,None,,,,,,,,,,,,,,,,,,,,,,,,,,,,,,,,,,,,,,,,,,,,001,122,2020_Feb_13_1324,spring_faces,3.1.5,59.94487876563595,
condition files/Stage1_1.xlsx,,B3,T3,c,"['c', 'm']","['Clue', 'Monopoly']","[-0.15, 0.5]","[0.15, 0.5]",1,1,,,,,,,,,0,2,2,2,0,7,7,4,,,,,,,,,,,,,,,,,,,,,,,,,,,,,,,,,,,,,,,,,,,,,,,,,,,,,,,555.3214684470004,None,555.3214684470004,None,555.3214684470004,None,c,1,2.090418405001401,556.8562649070009,None,556.8562649070009,None,556.8562649070009,None,559.0046289210004,None,559.0046289210004,None,559.0046289210004,None,559.0046289210004,None,,,,,,,,,,,,,,,,,,,,,,,,,,,,,,,,,,,,,,,,,,,,001,122,2020_Feb_13_1324,spring_faces,3.1.5,59.94487876563595,
condition files/Stage1_2.xlsx,,T4,B4,m,"['c', 'm']","['Clue', 'Monopoly']","[-0.15, 0.5]","[0.15, 0.5]",1,1,,,,,,,,,0,3,3,3,0,0,0,7,,,,,,,,,,,,,,,,,,,,,,,,,,,,,,,,,,,,,,,,,,,,,,,,,,,,,,,560.987282465001,None,560.987282465001,None,560.987282465001,None,m,1,0.9359798949990363,562.5386290570004,None,562.5386290570004,None,562.5386290570004,None,563.5552938420005,None,563.5552938420005,None,563.5552938420005,None,563.5552938420005,None,,,,,,,,,,,,,,,,,,,,,,,,,,,,,,,,,,,,,,,,,,,,001,122,2020_Feb_13_1324,spring_faces,3.1.5,59.94487876563595,
condition files/Stage1_2.xlsx,,B4,T3,c,"['c', 'm']","['Clue', 'Monopoly']","[-0.15, 0.5]","[0.15, 0.5]",1,1,,,,,,,,,0,3,3,3,0,1,1,5,,,,,,,,,,,,,,,,,,,,,,,,,,,,,,,,,,,,,,,,,,,,,,,,,,,,,,,565.5042914210007,None,565.5042914210007,None,565.5042914210007,None,c,1,1.810409167999751,567.0401679450006,None,567.0401679450006,None,567.0401679450006,None,568.9057656149998,None,568.9057656149998,None,568.9057656149998,None,568.9057656149998,None,,,,,,,,,,,,,,,,,,,,,,,,,,,,,,,,,,,,,,,,,,,,001,122,2020_Feb_13_1324,spring_faces,3.1.5,59.94487876563595,
condition files/Stage1_2.xlsx,,B3,T4,m,"['c', 'm']","['Clue', 'Monopoly']","[-0.15, 0.5]","[0.15, 0.5]",1,1,,,,,,,,,0,3,3,3,0,2,2,6,,,,,,,,,,,,,,,,,,,,,,,,,,,,,,,,,,,,,,,,,,,,,,,,,,,,,,,570.8713663160015,None,570.8713663160015,None,570.8713663160015,None,m,1,1.230006615000093,572.4045871020007,None,572.4045871020007,None,572.4045871020007,None,573.704978455,None,573.704978455,None,573.704978455,None,573.704978455,None,,,,,,,,,,,,,,,,,,,,,,,,,,,,,,,,,,,,,,,,,,,,001,122,2020_Feb_13_1324,spring_faces,3.1.5,59.94487876563595,
condition files/Stage1_2.xlsx,,T2,B1,c,"['c', 'm']","['Clue', 'Monopoly']","[-0.15, 0.5]","[0.15, 0.5]",1,1,,,,,,,,,0,3,3,3,0,3,3,1,,,,,,,,,,,,,,,,,,,,,,,,,,,,,,,,,,,,,,,,,,,,,,,,,,,,,,,575.6549327009998,None,575.6549327009998,None,575.6549327009998,None,c,1,1.3417825240012462,577.1888944330003,None,577.1888944330003,None,577.1888944330003,None,578.5893695070008,None,578.5893695070008,None,578.5893695070008,None,578.5893695070008,None,,,,,,,,,,,,,,,,,,,,,,,,,,,,,,,,,,,,,,,,,,,,001,122,2020_Feb_13_1324,spring_faces,3.1.5,59.94487876563595,
condition files/Stage1_2.xlsx,,B1,T1,c,"['c', 'm']","['Clue', 'Monopoly']","[-0.15, 0.5]","[0.15, 0.5]",1,1,,,,,,,,,0,3,3,3,0,4,4,0,,,,,,,,,,,,,,,,,,,,,,,,,,,,,,,,,,,,,,,,,,,,,,,,,,,,,,,580.5544610790002,None,580.5544610790002,None,580.5544610790002,None,c,1,1.9606676080002217,582.089925182001,None,582.089925182001,None,582.089925182001,None,584.1049294229997,None,584.1049294229997,None,584.1049294229997,None,584.1049294229997,None,,,,,,,,,,,,,,,,,,,,,,,,,,,,,,,,,,,,,,,,,,,,001,122,2020_Feb_13_1324,spring_faces,3.1.5,59.94487876563595,
condition files/Stage1_2.xlsx,,B2,T2,m,"['c', 'm']","['Clue', 'Monopoly']","[-0.15, 0.5]","[0.15, 0.5]",1,1,,,,,,,,,0,3,3,3,0,5,5,3,,,,,,,,,,,,,,,,,,,,,,,,,,,,,,,,,,,,,,,,,,,,,,,,,,,,,,,586.071438971001,None,586.071438971001,None,586.071438971001,None,m,1,1.1338782959992386,587.6046837800004,None,587.6046837800004,None,587.6046837800004,None,588.7909624180011,None,588.7909624180011,None,588.7909624180011,None,588.7909624180011,None,,,,,,,,,,,,,,,,,,,,,,,,,,,,,,,,,,,,,,,,,,,,001,122,2020_Feb_13_1324,spring_faces,3.1.5,59.94487876563595,
condition files/Stage1_2.xlsx,,T3,B3,c,"['c', 'm']","['Clue', 'Monopoly']","[-0.15, 0.5]","[0.15, 0.5]",1,1,,,,,,,,,0,3,3,3,0,6,6,4,,,,,,,,,,,,,,,,,,,,,,,,,,,,,,,,,,,,,,,,,,,,,,,,,,,,,,,590.7547879940012,None,590.7547879940012,None,590.7547879940012,None,c,1,1.0094735689999652,592.3051267650008,None,592.3051267650008,None,592.3051267650008,None,593.3717617260008,None,593.3717617260008,None,593.3717617260008,None,593.3717617260008,None,,,,,,,,,,,,,,,,,,,,,,,,,,,,,,,,,,,,,,,,,,,,001,122,2020_Feb_13_1324,spring_faces,3.1.5,59.94487876563595,
condition files/Stage1_2.xlsx,,T1,B2,m,"['c', 'm']","['Clue', 'Monopoly']","[-0.15, 0.5]","[0.15, 0.5]",1,1,,,,,,,,,0,3,3,3,0,7,7,2,,,,,,,,,,,,,,,,,,,,,,,,,,,,,,,,,,,,,,,,,,,,,,,,,,,,,,,595.3375200340015,None,595.3375200340015,None,595.3375200340015,None,m,1,0.8755538330005948,596.8711111540015,None,596.8711111540015,None,596.8711111540015,None,597.8043836790002,None,597.8043836790002,None,597.8043836790002,None,597.8043836790002,None,,,,,,,,,,,,,,,,,,,,,,,,,,,,,,,,,,,,,,,,,,,,001,122,2020_Feb_13_1324,spring_faces,3.1.5,59.94487876563595,
condition files/Stage1_1.xlsx,,B4,T4,m,"['c', 'm']","['Clue', 'Monopoly']","[-0.15, 0.5]","[0.15, 0.5]",1,1,,,,,,,,,0,4,4,4,0,0,0,7,,,,,,,,,,,,,,,,,,,,,,,,,,,,,,,,,,,,,,,,,,,,,,,,,,,,,,,599.7879782740001,None,599.7879782740001,None,599.7879782740001,None,m,1,0.8228345499992429,601.3238432760008,None,601.3238432760008,None,601.3238432760008,None,602.204200532,None,602.204200532,None,602.204200532,None,602.204200532,None,,,,,,,,,,,,,,,,,,,,,,,,,,,,,,,,,,,,,,,,,,,,001,122,2020_Feb_13_1324,spring_faces,3.1.5,59.94487876563595,
condition files/Stage1_1.xlsx,,B3,T3,c,"['c', 'm']","['Clue', 'Monopoly']","[-0.15, 0.5]","[0.15, 0.5]",1,1,,,,,,,,,0,4,4,4,0,1,1,4,,,,,,,,,,,,,,,,,,,,,,,,,,,,,,,,,,,,,,,,,,,,,,,,,,,,,,,604.1712311230003,None,604.1712311230003,None,604.1712311230003,None,c,1,3.656214352000461,605.7064971939999,None,605.7064971939999,None,605.7064971939999,None,609.4220742140005,None,609.4220742140005,None,609.4220742140005,None,609.4220742140005,None,,,,,,,,,,,,,,,,,,,,,,,,,,,,,,,,,,,,,,,,,,,,001,122,2020_Feb_13_1324,spring_faces,3.1.5,59.94487876563595,
condition files/Stage1_1.xlsx,,B2,T1,m,"['c', 'm']","['Clue', 'Monopoly']","[-0.15, 0.5]","[0.15, 0.5]",1,1,,,,,,,,,0,4,4,4,0,2,2,2,,,,,,,,,,,,,,,,,,,,,,,,,,,,,,,,,,,,,,,,,,,,,,,,,,,,,,,611.3878693940005,None,611.3878693940005,None,611.3878693940005,None,m,1,1.4643313889991987,612.9382675249999,None,612.9382675249999,None,612.9382675249999,None,614.4549717910013,None,614.4549717910013,None,614.4549717910013,None,614.4549717910013,None,,,,,,,,,,,,,,,,,,,,,,,,,,,,,,,,,,,,,,,,,,,,001,122,2020_Feb_13_1324,spring_faces,3.1.5,59.94487876563595,
condition files/Stage1_1.xlsx,,T1,B1,c,"['c', 'm']","['Clue', 'Monopoly']","[-0.15, 0.5]","[0.15, 0.5]",1,1,,,,,,,,,0,4,4,4,0,3,3,0,,,,,,,,,,,,,,,,,,,,,,,,,,,,,,,,,,,,,,,,,,,,,,,,,,,,,,,616.4215718530013,None,616.4215718530013,None,616.4215718530013,None,c,1,0.7987494730004983,617.9718506469999,None,617.9718506469999,None,617.9718506469999,None,618.823606291,None,618.823606291,None,618.823606291,None,618.823606291,None,,,,,,,,,,,,,,,,,,,,,,,,,,,,,,,,,,,,,,,,,,,,001,122,2020_Feb_13_1324,spring_faces,3.1.5,59.94487876563595,
condition files/Stage1_1.xlsx,,T3,B4,c,"['c', 'm']","['Clue', 'Monopoly']","[-0.15, 0.5]","[0.15, 0.5]",1,1,,,,,,,,,0,4,4,4,0,4,4,5,,,,,,,,,,,,,,,,,,,,,,,,,,,,,,,,,,,,,,,,,,,,,,,,,,,,,,,620.7880967180008,None,620.7880967180008,None,620.7880967180008,None,c,1,1.4873356139996758,622.3232640639999,None,622.3232640639999,None,622.3232640639999,None,623.8719485930014,None,623.8719485930014,None,623.8719485930014,None,623.8719485930014,None,,,,,,,,,,,,,,,,,,,,,,,,,,,,,,,,,,,,,,,,,,,,001,122,2020_Feb_13_1324,spring_faces,3.1.5,59.94487876563595,
condition files/Stage1_1.xlsx,,T4,B3,m,"['c', 'm']","['Clue', 'Monopoly']","[-0.15, 0.5]","[0.15, 0.5]",1,1,,,,,,,,,0,4,4,4,0,5,5,6,,,,,,,,,,,,,,,,,,,,,,,,,,,,,,,,,,,,,,,,,,,,,,,,,,,,,,,625.8381769450007,None,625.8381769450007,None,625.8381769450007,None,m,1,0.8541880360007781,627.3884186220002,None,627.3884186220002,None,627.3884186220002,None,628.3217457760002,None,628.3217457760002,None,628.3217457760002,None,628.3217457760002,None,,,,,,,,,,,,,,,,,,,,,,,,,,,,,,,,,,,,,,,,,,,,001,122,2020_Feb_13_1324,spring_faces,3.1.5,59.94487876563595,
condition files/Stage1_1.xlsx,,B1,T2,c,"['c', 'm']","['Clue', 'Monopoly']","[-0.15, 0.5]","[0.15, 0.5]",1,1,,,,,,,,,0,4,4,4,0,6,6,1,,,,,,,,,,,,,,,,,,,,,,,,,,,,,,,,,,,,,,,,,,,,,,,,,,,,,,,630.2715370810001,None,630.2715370810001,None,630.2715370810001,None,c,1,1.6860188089995063,631.8046039310011,None,631.8046039310011,None,631.8046039310011,None,633.5713200490009,None,633.5713200490009,None,633.5713200490009,None,633.5713200490009,None,,,,,,,,,,,,,,,,,,,,,,,,,,,,,,,,,,,,,,,,,,,,001,122,2020_Feb_13_1324,spring_faces,3.1.5,59.94487876563595,
condition files/Stage1_1.xlsx,,T2,B2,m,"['c', 'm']","['Clue', 'Monopoly']","[-0.15, 0.5]","[0.15, 0.5]",1,1,,,,,,,,,0,4,4,4,0,7,7,3,,,,,,,,,,,,,,,,,,,,,,,,,,,,,,,,,,,,,,,,,,,,,,,,,,,,,,,635.5215035729998,None,635.5215035729998,None,635.5215035729998,None,m,1,1.585350548999486,637.0572790639999,None,637.0572790639999,None,637.0572790639999,None,638.7076420930007,None,638.7076420930007,None,638.7076420930007,None,638.7076420930007,None,,,,,,,,,,,,,,,,,,,,,,,,,,,,,,,,,,,,,,,,,,,,001,122,2020_Feb_13_1324,spring_faces,3.1.5,59.94487876563595,
condition files/Stage1_2.xlsx,,B2,T2,m,"['c', 'm']","['Clue', 'Monopoly']","[-0.15, 0.5]","[0.15, 0.5]",1,1,,,,,,,,,0,5,5,5,0,0,0,3,,,,,,,,,,,,,,,,,,,,,,,,,,,,,,,,,,,,,,,,,,,,,,,,,,,,,,,640.6884671480002,None,640.6884671480002,None,640.6884671480002,None,m,1,1.012519803000032,642.2220842320003,None,642.2220842320003,None,642.2220842320003,None,643.2886294540003,None,643.2886294540003,None,643.2886294540003,None,643.2886294540003,None,,,,,,,,,,,,,,,,,,,,,,,,,,,,,,,,,,,,,,,,,,,,001,122,2020_Feb_13_1324,spring_faces,3.1.5,59.94487876563595,
condition files/Stage1_2.xlsx,,T4,B4,m,"['c', 'm']","['Clue', 'Monopoly']","[-0.15, 0.5]","[0.15, 0.5]",1,1,,,,,,,,,0,5,5,5,0,1,1,7,,,,,,,,,,,,,,,,,,,,,,,,,,,,,,,,,,,,,,,,,,,,,,,,,,,,,,,645.254846324,None,645.254846324,None,645.254846324,None,m,1,0.7804414290003479,646.7901627680003,None,646.7901627680003,None,646.7901627680003,None,647.6216913320004,None,647.6216913320004,None,647.6216913320004,None,647.6216913320004,None,,,,,,,,,,,,,,,,,,,,,,,,,,,,,,,,,,,,,,,,,,,,001,122,2020_Feb_13_1324,spring_faces,3.1.5,59.94487876563595,
condition files/Stage1_2.xlsx,,T1,B2,m,"['c', 'm']","['Clue', 'Monopoly']","[-0.15, 0.5]","[0.15, 0.5]",1,1,,,,,,,,,0,5,5,5,0,2,2,2,,,,,,,,,,,,,,,,,,,,,,,,,,,,,,,,,,,,,,,,,,,,,,,,,,,,,,,649.5882274510004,None,649.5882274510004,None,649.5882274510004,None,m,1,1.6173173070001212,651.1212266940001,None,651.1212266940001,None,651.1212266940001,None,652.8048490190013,None,652.8048490190013,None,652.8048490190013,None,652.8048490190013,None,,,,,,,,,,,,,,,,,,,,,,,,,,,,,,,,,,,,,,,,,,,,001,122,2020_Feb_13_1324,spring_faces,3.1.5,59.94487876563595,
condition files/Stage1_2.xlsx,,T3,B3,c,"['c', 'm']","['Clue', 'Monopoly']","[-0.15, 0.5]","[0.15, 0.5]",1,1,,,,,,,,,0,5,5,5,0,3,3,4,,,,,,,,,,,,,,,,,,,,,,,,,,,,,,,,,,,,,,,,,,,,,,,,,,,,,,,654.7716566260005,None,654.7716566260005,None,654.7716566260005,None,c,1,0.8635918399995717,656.3070645320004,None,656.3070645320004,None,656.3070645320004,None,657.2386571030002,None,657.2386571030002,None,657.2386571030002,None,657.2386571030002,None,,,,,,,,,,,,,,,,,,,,,,,,,,,,,,,,,,,,,,,,,,,,001,122,2020_Feb_13_1324,spring_faces,3.1.5,59.94487876563595,
condition files/Stage1_2.xlsx,,T2,B1,c,"['c', 'm']","['Clue', 'Monopoly']","[-0.15, 0.5]","[0.15, 0.5]",1,1,,,,,,,,,0,5,5,5,0,4,4,1,,,,,,,,,,,,,,,,,,,,,,,,,,,,,,,,,,,,,,,,,,,,,,,,,,,,,,,659.1879396100012,None,659.1879396100012,None,659.1879396100012,None,c,1,1.1695479780009919,660.7210502529997,None,660.7210502529997,None,660.7210502529997,None,661.954994451,None,661.954994451,None,661.954994451,None,661.954994451,None,,,,,,,,,,,,,,,,,,,,,,,,,,,,,,,,,,,,,,,,,,,,001,122,2020_Feb_13_1324,spring_faces,3.1.5,59.94487876563595,
condition files/Stage1_2.xlsx,,B4,T3,c,"['c', 'm']","['Clue', 'Monopoly']","[-0.15, 0.5]","[0.15, 0.5]",1,1,,,,,,,,,0,5,5,5,0,5,5,5,,,,,,,,,,,,,,,,,,,,,,,,,,,,,,,,,,,,,,,,,,,,,,,,,,,,,,,663.9216484530007,None,663.9216484530007,None,663.9216484530007,None,c,1,1.155116973000986,665.4555466720012,None,665.4555466720012,None,665.4555466720012,None,666.6717820370013,None,666.6717820370013,None,666.6717820370013,None,666.6717820370013,None,,,,,,,,,,,,,,,,,,,,,,,,,,,,,,,,,,,,,,,,,,,,001,122,2020_Feb_13_1324,spring_faces,3.1.5,59.94487876563595,
condition files/Stage1_2.xlsx,,B3,T4,m,"['c', 'm']","['Clue', 'Monopoly']","[-0.15, 0.5]","[0.15, 0.5]",1,1,,,,,,,,,0,5,5,5,0,6,6,6,,,,,,,,,,,,,,,,,,,,,,,,,,,,,,,,,,,,,,,,,,,,,,,,,,,,,,,668.6381302240006,None,668.6381302240006,None,668.6381302240006,None,m,1,0.8846796350007935,670.1739390769999,None,670.1739390769999,None,670.1739390769999,None,671.1211679300013,None,671.1211679300013,None,671.1211679300013,None,671.1211679300013,None,,,,,,,,,,,,,,,,,,,,,,,,,,,,,,,,,,,,,,,,,,,,001,122,2020_Feb_13_1324,spring_faces,3.1.5,59.94487876563595,
condition files/Stage1_2.xlsx,,B1,T1,c,"['c', 'm']","['Clue', 'Monopoly']","[-0.15, 0.5]","[0.15, 0.5]",1,1,,,,,,,,,0,5,5,5,0,7,7,0,,,,,,,,,,,,,,,,,,,,,,,,,,,,,,,,,,,,,,,,,,,,,,,,,,,,,,,673.0881129080008,None,673.0881129080008,None,673.0881129080008,None,c,1,0.9325486420002562,674.6220442980011,None,674.6220442980011,None,674.6220442980011,None,675.6218042319997,None,675.6218042319997,None,675.6218042319997,None,675.6218042319997,None,,,,,,,,,,,,,,,,,,,,,,,,,,,,,,,,,,,,,,,,,,,,001,122,2020_Feb_13_1324,spring_faces,3.1.5,59.94487876563595,
condition files/Stage1_1.xlsx,,B4,T4,m,"['c', 'm']","['Clue', 'Monopoly']","[-0.15, 0.5]","[0.15, 0.5]",1,1,,,,,,,,,0,6,6,6,0,0,0,7,,,,,,,,,,,,,,,,,,,,,,,,,,,,,,,,,,,,,,,,,,,,,,,,,,,,,,,677.5885887720015,None,677.5885887720015,None,677.5885887720015,None,m,1,1.0724594419989444,679.138109947,None,679.138109947,None,679.138109947,None,680.2724448600002,None,680.2724448600002,None,680.2724448600002,None,680.2724448600002,None,,,,,,,,,,,,,,,,,,,,,,,,,,,,,,,,,,,,,,,,,,,,001,122,2020_Feb_13_1324,spring_faces,3.1.5,59.94487876563595,
condition files/Stage1_1.xlsx,,T3,B4,c,"['c', 'm']","['Clue', 'Monopoly']","[-0.15, 0.5]","[0.15, 0.5]",1,1,,,,,,,,,0,6,6,6,0,1,1,5,,,,,,,,,,,,,,,,,,,,,,,,,,,,,,,,,,,,,,,,,,,,,,,,,,,,,,,682.2380418829998,None,682.2380418829998,None,682.2380418829998,None,c,1,1.094235746000777,683.7883252350002,None,683.7883252350002,None,683.7883252350002,None,684.954747406,None,684.954747406,None,684.954747406,None,684.954747406,None,,,,,,,,,,,,,,,,,,,,,,,,,,,,,,,,,,,,,,,,,,,,001,122,2020_Feb_13_1324,spring_faces,3.1.5,59.94487876563595,
condition files/Stage1_1.xlsx,,B2,T1,m,"['c', 'm']","['Clue', 'Monopoly']","[-0.15, 0.5]","[0.15, 0.5]",1,1,,,,,,,,,0,6,6,6,0,2,2,2,,,,,,,,,,,,,,,,,,,,,,,,,,,,,,,,,,,,,,,,,,,,,,,,,,,,,,,686.9049132720011,None,686.9049132720011,None,686.9049132720011,None,m,1,1.163522714001374,688.4550761040009,None,688.4550761040009,None,688.4550761040009,None,689.6721788340001,None,689.6721788340001,None,689.6721788340001,None,689.6721788340001,None,,,,,,,,,,,,,,,,,,,,,,,,,,,,,,,,,,,,,,,,,,,,001,122,2020_Feb_13_1324,spring_faces,3.1.5,59.94487876563595,
condition files/Stage1_1.xlsx,,T1,B1,c,"['c', 'm']","['Clue', 'Monopoly']","[-0.15, 0.5]","[0.15, 0.5]",1,1,,,,,,,,,0,6,6,6,0,3,3,0,,,,,,,,,,,,,,,,,,,,,,,,,,,,,,,,,,,,,,,,,,,,,,,,,,,,,,,691.6379568500015,None,691.6379568500015,None,691.6379568500015,None,c,1,0.942164344000048,693.1885111150004,None,693.1885111150004,None,693.1885111150004,None,694.1882059340005,None,694.1882059340005,None,694.1882059340005,None,694.1882059340005,None,,,,,,,,,,,,,,,,,,,,,,,,,,,,,,,,,,,,,,,,,,,,001,122,2020_Feb_13_1324,spring_faces,3.1.5,59.94487876563595,
condition files/Stage1_1.xlsx,,B3,T3,c,"['c', 'm']","['Clue', 'Monopoly']","[-0.15, 0.5]","[0.15, 0.5]",1,1,,,,,,,,,0,6,6,6,0,4,4,4,,,,,,,,,,,,,,,,,,,,,,,,,,,,,,,,,,,,,,,,,,,,,,,,,,,,,,,696.1547863970009,None,696.1547863970009,None,696.1547863970009,None,c,1,1.7368844809989241,697.6897307090003,None,697.6897307090003,None,697.6897307090003,None,699.4879600680015,None,699.4879600680015,None,699.4879600680015,None,699.4879600680015,None,,,,,,,,,,,,,,,,,,,,,,,,,,,,,,,,,,,,,,,,,,,,001,122,2020_Feb_13_1324,spring_faces,3.1.5,59.94487876563595,
condition files/Stage1_1.xlsx,,B1,T2,c,"['c', 'm']","['Clue', 'Monopoly']","[-0.15, 0.5]","[0.15, 0.5]",1,1,,,,,,,,,0,6,6,6,0,5,5,1,,,,,,,,,,,,,,,,,,,,,,,,,,,,,,,,,,,,,,,,,,,,,,,,,,,,,,,701.4546895830008,None,701.4546895830008,None,701.4546895830008,None,c,1,3.014174300000377,702.9884377920007,None,702.9884377920007,None,702.9884377920007,None,706.0548346970008,None,706.0548346970008,None,706.0548346970008,None,706.0548346970008,None,,,,,,,,,,,,,,,,,,,,,,,,,,,,,,,,,,,,,,,,,,,,001,122,2020_Feb_13_1324,spring_faces,3.1.5,59.94487876563595,
condition files/Stage1_1.xlsx,,T2,B2,m,"['c', 'm']","['Clue', 'Monopoly']","[-0.15, 0.5]","[0.15, 0.5]",1,1,,,,,,,,,0,6,6,6,0,6,6,3,,,,,,,,,,,,,,,,,,,,,,,,,,,,,,,,,,,,,,,,,,,,,,,,,,,,,,,708.0222681619998,None,708.0222681619998,None,708.0222681619998,None,m,1,0.8316598340006749,709.5549502169997,None,709.5549502169997,None,709.5549502169997,None,710.4382360740001,None,710.4382360740001,None,710.4382360740001,None,710.4382360740001,None,,,,,,,,,,,,,,,,,,,,,,,,,,,,,,,,,,,,,,,,,,,,001,122,2020_Feb_13_1324,spring_faces,3.1.5,59.94487876563595,
condition files/Stage1_1.xlsx,,T4,B3,m,"['c', 'm']","['Clue', 'Monopoly']","[-0.15, 0.5]","[0.15, 0.5]",1,1,,,,,,,,,0,6,6,6,0,7,7,6,,,,,,,,,,,,,,,,,,,,,,,,,,,,,,,,,,,,,,,,,,,,,,,,,,,,,,,712.4051717710008,None,712.4051717710008,None,712.4051717710008,None,m,1,1.5674082000005,713.9551601620005,None,713.9551601620005,None,713.9551601620005,None,715.5885291760005,None,715.5885291760005,None,715.5885291760005,None,715.5885291760005,None,,,,,,,,,,,,,,,,,,,,,,,,,,,,,,,,,,,,,,,,,,,,001,122,2020_Feb_13_1324,spring_faces,3.1.5,59.94487876563595,
condition files/Stage1_2.xlsx,,B1,T1,c,"['c', 'm']","['Clue', 'Monopoly']","[-0.15, 0.5]","[0.15, 0.5]",1,1,,,,,,,,,0,7,7,7,0,0,0,0,,,,,,,,,,,,,,,,,,,,,,,,,,,,,,,,,,,,,,,,,,,,,,,,,,,,,,,717.5717291159999,None,717.5717291159999,None,717.5717291159999,None,c,1,1.9688470750006672,719.1217686210002,None,719.1217686210002,None,719.1217686210002,None,721.1558020390003,None,721.1558020390003,None,721.1558020390003,None,721.1558020390003,None,,,,,,,,,,,,,,,,,,,,,,,,,,,,,,,,,,,,,,,,,,,,001,122,2020_Feb_13_1324,spring_faces,3.1.5,59.94487876563595,
condition files/Stage1_2.xlsx,,T2,B1,c,"['c', 'm']","['Clue', 'Monopoly']","[-0.15, 0.5]","[0.15, 0.5]",1,1,,,,,,,,,0,7,7,7,0,1,1,1,,,,,,,,,,,,,,,,,,,,,,,,,,,,,,,,,,,,,,,,,,,,,,,,,,,,,,,723.1214340750012,None,723.1214340750012,None,723.1214340750012,None,c,1,1.3149385119995713,724.6556726119998,None,724.6556726119998,None,724.6556726119998,None,726.0216627720001,None,726.0216627720001,None,726.0216627720001,None,726.0216627720001,None,,,,,,,,,,,,,,,,,,,,,,,,,,,,,,,,,,,,,,,,,,,,001,122,2020_Feb_13_1324,spring_faces,3.1.5,59.94487876563595,
condition files/Stage1_2.xlsx,,B4,T3,c,"['c', 'm']","['Clue', 'Monopoly']","[-0.15, 0.5]","[0.15, 0.5]",1,1,,,,,,,,,0,7,7,7,0,2,2,5,,,,,,,,,,,,,,,,,,,,,,,,,,,,,,,,,,,,,,,,,,,,,,,,,,,,,,,727.9881370519997,None,727.9881370519997,None,727.9881370519997,None,c,1,1.2161891290015774,729.5384049200002,None,729.5384049200002,None,729.5384049200002,None,730.8049135560013,None,730.8049135560013,None,730.8049135560013,None,730.8049135560013,None,,,,,,,,,,,,,,,,,,,,,,,,,,,,,,,,,,,,,,,,,,,,001,122,2020_Feb_13_1324,spring_faces,3.1.5,59.94487876563595,
condition files/Stage1_2.xlsx,,B3,T4,m,"['c', 'm']","['Clue', 'Monopoly']","[-0.15, 0.5]","[0.15, 0.5]",1,1,,,,,,,,,0,7,7,7,0,3,3,6,,,,,,,,,,,,,,,,,,,,,,,,,,,,,,,,,,,,,,,,,,,,,,,,,,,,,,,732.7715378960002,None,732.7715378960002,None,732.7715378960002,None,m,1,1.2014836039998045,734.3051303040011,None,734.3051303040011,None,734.3051303040011,None,735.5884692440013,None,735.5884692440013,None,735.5884692440013,None,735.5884692440013,None,,,,,,,,,,,,,,,,,,,,,,,,,,,,,,,,,,,,,,,,,,,,001,122,2020_Feb_13_1324,spring_faces,3.1.5,59.94487876563595,
condition files/Stage1_2.xlsx,,T1,B2,m,"['c', 'm']","['Clue', 'Monopoly']","[-0.15, 0.5]","[0.15, 0.5]",1,1,,,,,,,,,0,7,7,7,0,4,4,2,,,,,,,,,,,,,,,,,,,,,,,,,,,,,,,,,,,,,,,,,,,,,,,,,,,,,,,737.5383348089999,None,737.5383348089999,None,737.5383348089999,None,m,1,2.2098740809997253,739.0727123900015,None,739.0727123900015,None,739.0727123900015,None,741.3384676260011,None,741.3384676260011,None,741.3384676260011,None,741.3384676260011,None,,,,,,,,,,,,,,,,,,,,,,,,,,,,,,,,,,,,,,,,,,,,001,122,2020_Feb_13_1324,spring_faces,3.1.5,59.94487876563595,
condition files/Stage1_2.xlsx,,T3,B3,c,"['c', 'm']","['Clue', 'Monopoly']","[-0.15, 0.5]","[0.15, 0.5]",1,1,,,,,,,,,0,7,7,7,0,5,5,4,,,,,,,,,,,,,,,,,,,,,,,,,,,,,,,,,,,,,,,,,,,,,,,,,,,,,,,743.3043754570008,None,743.3043754570008,None,743.3043754570008,None,c,1,3.0840145269994537,744.8545430989998,None,744.8545430989998,None,744.8545430989998,None,748.0051576080004,None,748.0051576080004,None,748.0051576080004,None,748.0051576080004,None,,,,,,,,,,,,,,,,,,,,,,,,,,,,,,,,,,,,,,,,,,,,001,122,2020_Feb_13_1324,spring_faces,3.1.5,59.94487876563595,
condition files/Stage1_2.xlsx,,B2,T2,m,"['c', 'm']","['Clue', 'Monopoly']","[-0.15, 0.5]","[0.15, 0.5]",1,1,,,,,,,,,0,7,7,7,0,6,6,3,,,,,,,,,,,,,,,,,,,,,,,,,,,,,,,,,,,,,,,,,,,,,,,,,,,,,,,749.9550068860008,None,749.9550068860008,None,749.9550068860008,None,c,0,6.161667648999355,751.504879383001,None,751.504879383001,None,751.504879383001,None,757.7383218980012,None,757.7383218980012,None,757.7383218980012,None,757.7383218980012,None,,,,,,,,,,,,,,,,,,,,,,,,,,,,,,,,,,,,,,,,,,,,001,122,2020_Feb_13_1324,spring_faces,3.1.5,59.94487876563595,
condition files/Stage1_2.xlsx,,T4,B4,m,"['c', 'm']","['Clue', 'Monopoly']","[-0.15, 0.5]","[0.15, 0.5]",1,1,,,,,,,,,0,7,7,7,0,7,7,7,,,,,,,,,,,,,,,,,,,,,,,,,,,,,,,,,,,,,,,,,,,,,,,,,,,,,,,759.6877003600002,None,759.6877003600002,None,759.6877003600002,None,m,1,1.1002867060014978,761.2382546820008,None,761.2382546820008,None,761.2382546820008,None,762.4047036570009,None,762.4047036570009,None,762.4047036570009,None,762.4047036570009,None,,,,,,,,,,,,,,,,,,,,,,,,,,,,,,,,,,,,,,,,,,,,001,122,2020_Feb_13_1324,spring_faces,3.1.5,59.94487876563595,
condition files/Stage1_1.xlsx,,T3,B4,c,"['c', 'm']","['Clue', 'Monopoly']","[-0.15, 0.5]","[0.15, 0.5]",1,1,,,,,,,,,0,8,8,8,0,0,0,5,,,,,,,,,,,,,,,,,,,,,,,,,,,,,,,,,,,,,,,,,,,,,,,,,,,,,,,764.3885960490006,None,764.3885960490006,None,764.3885960490006,None,c,1,1.7440468540007714,765.9385291880008,None,765.9385291880008,None,765.9385291880008,None,767.7547783570008,None,767.7547783570008,None,767.7547783570008,None,767.7547783570008,None,,,,,,,,,,,,,,,,,,,,,,,,,,,,,,,,,,,,,,,,,,,,001,122,2020_Feb_13_1324,spring_faces,3.1.5,59.94487876563595,
condition files/Stage1_1.xlsx,,T4,B3,m,"['c', 'm']","['Clue', 'Monopoly']","[-0.15, 0.5]","[0.15, 0.5]",1,1,,,,,,,,,0,8,8,8,0,1,1,6,,,,,,,,,,,,,,,,,,,,,,,,,,,,,,,,,,,,,,,,,,,,,,,,,,,,,,,769.7048128200004,None,769.7048128200004,None,769.7048128200004,None,m,1,1.0668543659994612,771.2397593210007,None,771.2397593210007,None,771.2397593210007,None,772.3887835060013,None,772.3887835060013,None,772.3887835060013,None,772.3887835060013,None,,,,,,,,,,,,,,,,,,,,,,,,,,,,,,,,,,,,,,,,,,,,001,122,2020_Feb_13_1324,spring_faces,3.1.5,59.94487876563595,
condition files/Stage1_1.xlsx,,B2,T1,m,"['c', 'm']","['Clue', 'Monopoly']","[-0.15, 0.5]","[0.15, 0.5]",1,1,,,,,,,,,0,8,8,8,0,2,2,2,,,,,,,,,,,,,,,,,,,,,,,,,,,,,,,,,,,,,,,,,,,,,,,,,,,,,,,774.3379521370007,None,774.3379521370007,None,774.3379521370007,None,m,1,1.522182299000633,775.8884770760014,None,775.8884770760014,None,775.8884770760014,None,777.4715172760007,None,777.4715172760007,None,777.4715172760007,None,777.4715172760007,None,,,,,,,,,,,,,,,,,,,,,,,,,,,,,,,,,,,,,,,,,,,,001,122,2020_Feb_13_1324,spring_faces,3.1.5,59.94487876563595,
condition files/Stage1_1.xlsx,,B4,T4,m,"['c', 'm']","['Clue', 'Monopoly']","[-0.15, 0.5]","[0.15, 0.5]",1,1,,,,,,,,,0,8,8,8,0,3,3,7,,,,,,,,,,,,,,,,,,,,,,,,,,,,,,,,,,,,,,,,,,,,,,,,,,,,,,,779.437966888001,None,779.437966888001,None,779.437966888001,None,m,1,1.108852792000107,780.9737318480002,None,780.9737318480002,None,780.9737318480002,None,782.1384585630003,None,782.1384585630003,None,782.1384585630003,None,782.1384585630003,None,,,,,,,,,,,,,,,,,,,,,,,,,,,,,,,,,,,,,,,,,,,,001,122,2020_Feb_13_1324,spring_faces,3.1.5,59.94487876563595,
condition files/Stage1_1.xlsx,,T1,B1,c,"['c', 'm']","['Clue', 'Monopoly']","[-0.15, 0.5]","[0.15, 0.5]",1,1,,,,,,,,,0,8,8,8,0,4,4,0,,,,,,,,,,,,,,,,,,,,,,,,,,,,,,,,,,,,,,,,,,,,,,,,,,,,,,,784.1045235820002,None,784.1045235820002,None,784.1045235820002,None,c,1,2.7796496320006554,785.6389024710006,None,785.6389024710006,None,785.6389024710006,None,788.471912414001,None,788.471912414001,None,788.471912414001,None,788.471912414001,None,,,,,,,,,,,,,,,,,,,,,,,,,,,,,,,,,,,,,,,,,,,,001,122,2020_Feb_13_1324,spring_faces,3.1.5,59.94487876563595,
condition files/Stage1_1.xlsx,,B3,T3,c,"['c', 'm']","['Clue', 'Monopoly']","[-0.15, 0.5]","[0.15, 0.5]",1,1,,,,,,,,,0,8,8,8,0,5,5,4,,,,,,,,,,,,,,,,,,,,,,,,,,,,,,,,,,,,,,,,,,,,,,,,,,,,,,,790.4379535469998,None,790.4379535469998,None,790.4379535469998,None,c,1,3.2145228089993907,791.9720858729997,None,791.9720858729997,None,791.9720858729997,None,795.2386981520012,None,795.2386981520012,None,795.2386981520012,None,795.2386981520012,None,,,,,,,,,,,,,,,,,,,,,,,,,,,,,,,,,,,,,,,,,,,,001,122,2020_Feb_13_1324,spring_faces,3.1.5,59.94487876563595,
condition files/Stage1_1.xlsx,,T2,B2,m,"['c', 'm']","['Clue', 'Monopoly']","[-0.15, 0.5]","[0.15, 0.5]",1,1,,,,,,,,,0,8,8,8,0,6,6,3,,,,,,,,,,,,,,,,,,,,,,,,,,,,,,,,,,,,,,,,,,,,,,,,,,,,,,,797.2047681740005,None,797.2047681740005,None,797.2047681740005,None,m,1,2.192869325999709,798.7378232589999,None,798.7378232589999,None,798.7378232589999,None,800.9885292390009,None,800.9885292390009,None,800.9885292390009,None,800.9885292390009,None,,,,,,,,,,,,,,,,,,,,,,,,,,,,,,,,,,,,,,,,,,,,001,122,2020_Feb_13_1324,spring_faces,3.1.5,59.94487876563595,
condition files/Stage1_1.xlsx,,B1,T2,c,"['c', 'm']","['Clue', 'Monopoly']","[-0.15, 0.5]","[0.15, 0.5]",1,1,,,,,,,,,0,8,8,8,0,7,7,1,,,,,,,,,,,,,,,,,,,,,,,,,,,,,,,,,,,,,,,,,,,,,,,,,,,,,,,802.9548094190013,None,802.9548094190013,None,802.9548094190013,None,c,1,1.656563931999699,804.4901163720006,None,804.4901163720006,None,804.4901163720006,None,806.2065205070012,None,806.2065205070012,None,806.2065205070012,None,806.2065205070012,None,,,,,,,,,,,,,,,,,,,,,,,,,,,,,,,,,,,,,,,,,,,,001,122,2020_Feb_13_1324,spring_faces,3.1.5,59.94487876563595,
condition files/Stage1_2.xlsx,,T1,B2,m,"['c', 'm']","['Clue', 'Monopoly']","[-0.15, 0.5]","[0.15, 0.5]",1,1,,,,,,,,,0,9,9,9,0,0,0,2,,,,,,,,,,,,,,,,,,,,,,,,,,,,,,,,,,,,,,,,,,,,,,,,,,,,,,,808.1885169950001,None,808.1885169950001,None,808.1885169950001,None,m,1,1.432321926999066,809.7223077119997,None,809.7223077119997,None,809.7223077119997,None,811.2211339309997,None,811.2211339309997,None,811.2211339309997,None,811.2211339309997,None,,,,,,,,,,,,,,,,,,,,,,,,,,,,,,,,,,,,,,,,,,,,001,122,2020_Feb_13_1324,spring_faces,3.1.5,59.94487876563595,
condition files/Stage1_2.xlsx,,T2,B1,c,"['c', 'm']","['Clue', 'Monopoly']","[-0.15, 0.5]","[0.15, 0.5]",1,1,,,,,,,,,0,9,9,9,0,1,1,1,,,,,,,,,,,,,,,,,,,,,,,,,,,,,,,,,,,,,,,,,,,,,,,,,,,,,,,813.1715531139998,None,813.1715531139998,None,813.1715531139998,None,c,1,1.423734648999016,814.7069555779999,None,814.7069555779999,None,814.7069555779999,None,816.1885524810004,None,816.1885524810004,None,816.1885524810004,None,816.1885524810004,None,,,,,,,,,,,,,,,,,,,,,,,,,,,,,,,,,,,,,,,,,,,,001,122,2020_Feb_13_1324,spring_faces,3.1.5,59.94487876563595,
condition files/Stage1_2.xlsx,,B1,T1,c,"['c', 'm']","['Clue', 'Monopoly']","[-0.15, 0.5]","[0.15, 0.5]",1,1,,,,,,,,,0,9,9,9,0,2,2,0,,,,,,,,,,,,,,,,,,,,,,,,,,,,,,,,,,,,,,,,,,,,,,,,,,,,,,,818.1548705730002,None,818.1548705730002,None,818.1548705730002,None,c,1,1.2266677869993146,819.6878899260009,None,819.6878899260009,None,819.6878899260009,None,820.9717228860009,None,820.9717228860009,None,820.9717228860009,None,820.9717228860009,None,,,,,,,,,,,,,,,,,,,,,,,,,,,,,,,,,,,,,,,,,,,,001,122,2020_Feb_13_1324,spring_faces,3.1.5,59.94487876563595,
condition files/Stage1_2.xlsx,,B3,T4,m,"['c', 'm']","['Clue', 'Monopoly']","[-0.15, 0.5]","[0.15, 0.5]",1,1,,,,,,,,,0,9,9,9,0,3,3,6,,,,,,,,,,,,,,,,,,,,,,,,,,,,,,,,,,,,,,,,,,,,,,,,,,,,,,,822.9383134880009,None,822.9383134880009,None,822.9383134880009,None,m,1,0.8741404480006167,824.4885323110011,None,824.4885323110011,None,824.4885323110011,None,825.4384514030007,None,825.4384514030007,None,825.4384514030007,None,825.4384514030007,None,,,,,,,,,,,,,,,,,,,,,,,,,,,,,,,,,,,,,,,,,,,,001,122,2020_Feb_13_1324,spring_faces,3.1.5,59.94487876563595,
condition files/Stage1_2.xlsx,,T4,B4,m,"['c', 'm']","['Clue', 'Monopoly']","[-0.15, 0.5]","[0.15, 0.5]",1,1,,,,,,,,,0,9,9,9,0,4,4,7,,,,,,,,,,,,,,,,,,,,,,,,,,,,,,,,,,,,,,,,,,,,,,,,,,,,,,,827.3882166210005,None,827.3882166210005,None,827.3882166210005,None,m,1,0.6951830800007883,828.9234357490004,None,828.9234357490004,None,828.9234357490004,None,829.671356791001,None,829.671356791001,None,829.671356791001,None,829.671356791001,None,,,,,,,,,,,,,,,,,,,,,,,,,,,,,,,,,,,,,,,,,,,,001,122,2020_Feb_13_1324,spring_faces,3.1.5,59.94487876563595,
condition files/Stage1_2.xlsx,,B4,T3,c,"['c', 'm']","['Clue', 'Monopoly']","[-0.15, 0.5]","[0.15, 0.5]",1,1,,,,,,,,,0,9,9,9,0,5,5,5,,,,,,,,,,,,,,,,,,,,,,,,,,,,,,,,,,,,,,,,,,,,,,,,,,,,,,,831.638417219001,None,831.638417219001,None,831.638417219001,None,c,1,2.2689327110001614,833.173693439001,None,833.173693439001,None,833.173693439001,None,835.5219656770005,None,835.5219656770005,None,835.5219656770005,None,835.5219656770005,None,,,,,,,,,,,,,,,,,,,,,,,,,,,,,,,,,,,,,,,,,,,,001,122,2020_Feb_13_1324,spring_faces,3.1.5,59.94487876563595,
condition files/Stage1_2.xlsx,,T3,B3,c,"['c', 'm']","['Clue', 'Monopoly']","[-0.15, 0.5]","[0.15, 0.5]",1,1,,,,,,,,,0,9,9,9,0,6,6,4,,,,,,,,,,,,,,,,,,,,,,,,,,,,,,,,,,,,,,,,,,,,,,,,,,,,,,,837.4717174300004,None,837.4717174300004,None,837.4717174300004,None,c,1,0.693324694999319,839.02124559,None,839.02124559,None,839.02124559,None,839.7716408410015,None,839.7716408410015,None,839.7716408410015,None,839.7716408410015,None,,,,,,,,,,,,,,,,,,,,,,,,,,,,,,,,,,,,,,,,,,,,001,122,2020_Feb_13_1324,spring_faces,3.1.5,59.94487876563595,
condition files/Stage1_2.xlsx,,B2,T2,m,"['c', 'm']","['Clue', 'Monopoly']","[-0.15, 0.5]","[0.15, 0.5]",1,1,,,,,,,,,0,9,9,9,0,7,7,3,,,,,,,,,,,,,,,,,,,,,,,,,,,,,,,,,,,,,,,,,,,,,,,,,,,,,,,841.7379498080008,None,841.7379498080008,None,841.7379498080008,None,m,1,1.066733251000187,843.2718202350006,None,843.2718202350006,None,843.2718202350006,None,844.4046772350011,None,844.4046772350011,None,844.4046772350011,None,844.4046772350011,None,,,,,,,,,,,,,,,,,,,,,,,,,,,,,,,,,,,,,,,,,,,,001,122,2020_Feb_13_1324,spring_faces,3.1.5,59.94487876563595,
condition files/Stage1_1.xlsx,,B3,T3,c,"['c', 'm']","['Clue', 'Monopoly']","[-0.15, 0.5]","[0.15, 0.5]",1,1,,,,,,,,,0,10,10,10,0,0,0,4,,,,,,,,,,,,,,,,,,,,,,,,,,,,,,,,,,,,,,,,,,,,,,,,,,,,,,,846.3884494129998,None,846.3884494129998,None,846.3884494129998,None,c,1,1.4400530049988447,847.9226268390012,None,847.9226268390012,None,847.9226268390012,None,849.4233985790015,None,849.4233985790015,None,849.4233985790015,None,849.4233985790015,None,,,,,,,,,,,,,,,,,,,,,,,,,,,,,,,,,,,,,,,,,,,,001,122,2020_Feb_13_1324,spring_faces,3.1.5,59.94487876563595,
condition files/Stage1_1.xlsx,,T1,B1,c,"['c', 'm']","['Clue', 'Monopoly']","[-0.15, 0.5]","[0.15, 0.5]",1,1,,,,,,,,,0,10,10,10,0,1,1,0,,,,,,,,,,,,,,,,,,,,,,,,,,,,,,,,,,,,,,,,,,,,,,,,,,,,,,,851.3873432170003,None,851.3873432170003,None,851.3873432170003,None,c,1,1.4961829189996934,852.9384194070008,None,852.9384194070008,None,852.9384194070008,None,854.4884626399999,None,854.4884626399999,None,854.4884626399999,None,854.4884626399999,None,,,,,,,,,,,,,,,,,,,,,,,,,,,,,,,,,,,,,,,,,,,,001,122,2020_Feb_13_1324,spring_faces,3.1.5,59.94487876563595,
condition files/Stage1_1.xlsx,,T4,B3,m,"['c', 'm']","['Clue', 'Monopoly']","[-0.15, 0.5]","[0.15, 0.5]",1,1,,,,,,,,,0,10,10,10,0,2,2,6,,,,,,,,,,,,,,,,,,,,,,,,,,,,,,,,,,,,,,,,,,,,,,,,,,,,,,,856.4546694340006,None,856.4546694340006,None,856.4546694340006,None,m,1,0.7167037500003062,857.9898690680002,None,857.9898690680002,None,857.9898690680002,None,858.7742421120001,None,858.7742421120001,None,858.7742421120001,None,858.7742421120001,None,,,,,,,,,,,,,,,,,,,,,,,,,,,,,,,,,,,,,,,,,,,,001,122,2020_Feb_13_1324,spring_faces,3.1.5,59.94487876563595,
condition files/Stage1_1.xlsx,,T3,B4,c,"['c', 'm']","['Clue', 'Monopoly']","[-0.15, 0.5]","[0.15, 0.5]",1,1,,,,,,,,,0,10,10,10,0,3,3,5,,,,,,,,,,,,,,,,,,,,,,,,,,,,,,,,,,,,,,,,,,,,,,,,,,,,,,,860.7386847430007,None,860.7386847430007,None,860.7386847430007,None,c,1,0.7703850620000594,862.2722457420005,None,862.2722457420005,None,862.2722457420005,None,863.1216265100011,None,863.1216265100011,None,863.1216265100011,None,863.1216265100011,None,,,,,,,,,,,,,,,,,,,,,,,,,,,,,,,,,,,,,,,,,,,,001,122,2020_Feb_13_1324,spring_faces,3.1.5,59.94487876563595,
condition files/Stage1_1.xlsx,,B2,T1,m,"['c', 'm']","['Clue', 'Monopoly']","[-0.15, 0.5]","[0.15, 0.5]",1,1,,,,,,,,,0,10,10,10,0,4,4,2,,,,,,,,,,,,,,,,,,,,,,,,,,,,,,,,,,,,,,,,,,,,,,,,,,,,,,,865.0713217800003,None,865.0713217800003,None,865.0713217800003,None,m,1,0.8055995340000663,866.6050050000013,None,866.6050050000013,None,866.6050050000013,None,867.4884689320006,None,867.4884689320006,None,867.4884689320006,None,867.4884689320006,None,,,,,,,,,,,,,,,,,,,,,,,,,,,,,,,,,,,,,,,,,,,,001,122,2020_Feb_13_1324,spring_faces,3.1.5,59.94487876563595,
condition files/Stage1_1.xlsx,,T2,B2,m,"['c', 'm']","['Clue', 'Monopoly']","[-0.15, 0.5]","[0.15, 0.5]",1,1,,,,,,,,,0,10,10,10,0,5,5,3,,,,,,,,,,,,,,,,,,,,,,,,,,,,,,,,,,,,,,,,,,,,,,,,,,,,,,,869.4380828430003,None,869.4380828430003,None,869.4380828430003,None,m,1,1.8142448470007366,870.9723707130015,None,870.9723707130015,None,870.9723707130015,None,872.8385809130014,None,872.8385809130014,None,872.8385809130014,None,872.8385809130014,None,,,,,,,,,,,,,,,,,,,,,,,,,,,,,,,,,,,,,,,,,,,,001,122,2020_Feb_13_1324,spring_faces,3.1.5,59.94487876563595,
condition files/Stage1_1.xlsx,,B4,T4,m,"['c', 'm']","['Clue', 'Monopoly']","[-0.15, 0.5]","[0.15, 0.5]",1,1,,,,,,,,,0,10,10,10,0,6,6,7,,,,,,,,,,,,,,,,,,,,,,,,,,,,,,,,,,,,,,,,,,,,,,,,,,,,,,,874.804427739,None,874.804427739,None,874.804427739,None,m,1,0.8633390859995416,876.3392744440007,None,876.3392744440007,None,876.3392744440007,None,877.2544562090006,None,877.2544562090006,None,877.2544562090006,None,877.2544562090006,None,,,,,,,,,,,,,,,,,,,,,,,,,,,,,,,,,,,,,,,,,,,,001,122,2020_Feb_13_1324,spring_faces,3.1.5,59.94487876563595,
condition files/Stage1_1.xlsx,,B1,T2,c,"['c', 'm']","['Clue', 'Monopoly']","[-0.15, 0.5]","[0.15, 0.5]",1,1,,,,,,,,,0,10,10,10,0,7,7,1,,,,,,,,,,,,,,,,,,,,,,,,,,,,,,,,,,,,,,,,,,,,,,,,,,,,,,,879.2211768800007,None,879.2211768800007,None,879.2211768800007,None,c,1,0.9416379119993508,880.7570532340014,None,880.7570532340014,None,880.7570532340014,None,881.7546465390005,None,881.7546465390005,None,881.7546465390005,None,881.7546465390005,None,,,,,,,,,,,,,,,,,,,,,,,,,,,,,,,,,,,,,,,,,,,,001,122,2020_Feb_13_1324,spring_faces,3.1.5,59.94487876563595,
condition files/Stage1_2.xlsx,,B3,T4,m,"['c', 'm']","['Clue', 'Monopoly']","[-0.15, 0.5]","[0.15, 0.5]",1,1,,,,,,,,,0,11,11,11,0,0,0,6,,,,,,,,,,,,,,,,,,,,,,,,,,,,,,,,,,,,,,,,,,,,,,,,,,,,,,,883.7380871960013,None,883.7380871960013,None,883.7380871960013,None,m,1,0.8579094859996985,885.2727797349999,None,885.2727797349999,None,885.2727797349999,None,886.2052963750011,None,886.2052963750011,None,886.2052963750011,None,886.2052963750011,None,,,,,,,,,,,,,,,,,,,,,,,,,,,,,,,,,,,,,,,,,,,,001,122,2020_Feb_13_1324,spring_faces,3.1.5,59.94487876563595,
condition files/Stage1_2.xlsx,,B4,T3,c,"['c', 'm']","['Clue', 'Monopoly']","[-0.15, 0.5]","[0.15, 0.5]",1,1,,,,,,,,,0,11,11,11,0,1,1,5,,,,,,,,,,,,,,,,,,,,,,,,,,,,,,,,,,,,,,,,,,,,,,,,,,,,,,,888.154448663001,None,888.154448663001,None,888.154448663001,None,c,1,1.0975227290000475,889.7050767460005,None,889.7050767460005,None,889.7050767460005,None,890.8720722440012,None,890.8720722440012,None,890.8720722440012,None,890.8720722440012,None,,,,,,,,,,,,,,,,,,,,,,,,,,,,,,,,,,,,,,,,,,,,001,122,2020_Feb_13_1324,spring_faces,3.1.5,59.94487876563595,
condition files/Stage1_2.xlsx,,B1,T1,c,"['c', 'm']","['Clue', 'Monopoly']","[-0.15, 0.5]","[0.15, 0.5]",1,1,,,,,,,,,0,11,11,11,0,2,2,0,,,,,,,,,,,,,,,,,,,,,,,,,,,,,,,,,,,,,,,,,,,,,,,,,,,,,,,892.821502320001,None,892.821502320001,None,892.821502320001,None,c,1,1.3269991529996332,894.3555909799998,None,894.3555909799998,None,894.3555909799998,None,895.7376114119998,None,895.7376114119998,None,895.7376114119998,None,895.7376114119998,None,,,,,,,,,,,,,,,,,,,,,,,,,,,,,,,,,,,,,,,,,,,,001,122,2020_Feb_13_1324,spring_faces,3.1.5,59.94487876563595,
condition files/Stage1_2.xlsx,,T2,B1,c,"['c', 'm']","['Clue', 'Monopoly']","[-0.15, 0.5]","[0.15, 0.5]",1,1,,,,,,,,,0,11,11,11,0,3,3,1,,,,,,,,,,,,,,,,,,,,,,,,,,,,,,,,,,,,,,,,,,,,,,,,,,,,,,,897.7048432789998,None,897.7048432789998,None,897.7048432789998,None,c,1,0.8111695799998415,899.2553559120006,None,899.2553559120006,None,899.2553559120006,None,900.121918963001,None,900.121918963001,None,900.121918963001,None,900.121918963001,None,,,,,,,,,,,,,,,,,,,,,,,,,,,,,,,,,,,,,,,,,,,,001,122,2020_Feb_13_1324,spring_faces,3.1.5,59.94487876563595,
condition files/Stage1_2.xlsx,,T1,B2,m,"['c', 'm']","['Clue', 'Monopoly']","[-0.15, 0.5]","[0.15, 0.5]",1,1,,,,,,,,,0,11,11,11,0,4,4,2,,,,,,,,,,,,,,,,,,,,,,,,,,,,,,,,,,,,,,,,,,,,,,,,,,,,,,,902.0879847710003,None,902.0879847710003,None,902.0879847710003,None,c,0,4.891141944000992,903.623423381001,None,903.623423381001,None,903.623423381001,None,908.572328016,None,908.572328016,None,908.572328016,None,908.572328016,None,,,,,,,,,,,,,,,,,,,,,,,,,,,,,,,,,,,,,,,,,,,,001,122,2020_Feb_13_1324,spring_faces,3.1.5,59.94487876563595,
condition files/Stage1_2.xlsx,,B2,T2,m,"['c', 'm']","['Clue', 'Monopoly']","[-0.15, 0.5]","[0.15, 0.5]",1,1,,,,,,,,,0,11,11,11,0,5,5,3,,,,,,,,,,,,,,,,,,,,,,,,,,,,,,,,,,,,,,,,,,,,,,,,,,,,,,,910.537962501001,None,910.537962501001,None,910.537962501001,None,m,1,2.2822452319996955,912.0723754540013,None,912.0723754540013,None,912.0723754540013,None,914.4050907330002,None,914.4050907330002,None,914.4050907330002,None,914.4050907330002,None,,,,,,,,,,,,,,,,,,,,,,,,,,,,,,,,,,,,,,,,,,,,001,122,2020_Feb_13_1324,spring_faces,3.1.5,59.94487876563595,
condition files/Stage1_2.xlsx,,T4,B4,m,"['c', 'm']","['Clue', 'Monopoly']","[-0.15, 0.5]","[0.15, 0.5]",1,1,,,,,,,,,0,11,11,11,0,6,6,7,,,,,,,,,,,,,,,,,,,,,,,,,,,,,,,,,,,,,,,,,,,,,,,,,,,,,,,916.3715602869997,None,916.3715602869997,None,916.3715602869997,None,m,1,1.231194787998902,917.9073847910004,None,917.9073847910004,None,917.9073847910004,None,919.2052313420008,None,919.2052313420008,None,919.2052313420008,None,919.2052313420008,None,,,,,,,,,,,,,,,,,,,,,,,,,,,,,,,,,,,,,,,,,,,,001,122,2020_Feb_13_1324,spring_faces,3.1.5,59.94487876563595,
condition files/Stage1_2.xlsx,,T3,B3,c,"['c', 'm']","['Clue', 'Monopoly']","[-0.15, 0.5]","[0.15, 0.5]",1,1,,,,,,,,,0,11,11,11,0,7,7,4,,,,,,,,,,,,,,,,,,,,,,,,,,,,,,,,,,,,,,,,,,,,,,,,,,,,,,,921.1713998289997,None,921.1713998289997,None,921.1713998289997,None,c,1,1.8089155340003344,922.7217554180006,None,922.7217554180006,None,922.7217554180006,None,924.6054194280005,None,924.6054194280005,None,924.6054194280005,None,924.6054194280005,None,,,,,,,,,,,,,,,,,,,,,,,,,,,,,,,,,,,,,,,,,,,,001,122,2020_Feb_13_1324,spring_faces,3.1.5,59.94487876563595,
,,,,,,,,,,,,,,,,,,,,,,,,,,,,,,,,,,,,,,,,,,,,,,,,,,,,,,,,,,,,,,,,,,,,,,,,,,,,,,,,,,,,,,,,,,,,,,,,,,,,,,,,,,,,,,,,926.5717508990001,None,space,9.327209272998516,931.571487231,None,,,,,,,,,,,,,,,,,,,,,,,,,,,,,,001,122,2020_Feb_13_1324,spring_faces,3.1.5,59.94487876563595,
condition files/Stage2_1.xlsx,,B4,T4,r,"['s', 'r']","['Stratego', 'Risk']","[-0.15, 0.5]","[0.15, 0.5]",1,1,,,,,,,,,,,,,,,,,0,0,0,0,0,0,0,5,,,,,,,,,,,,,,,,,,,,,,,,,,,,,,,,,,,,,,,,,,,,,,,940.9551090460009,None,940.9551090460009,None,940.9551090460009,None,s,0,0.730258870000398,942.4723650730011,None,942.4723650730011,None,942.4723650730011,None,943.2547893190003,None,943.2547893190003,None,943.2547893190003,None,943.2547893190003,None,,,,,,,,,,,,,,,931.571487231,None,,,,,,,,,,,,,,,,,,,,,,,,,,,,001,122,2020_Feb_13_1324,spring_faces,3.1.5,59.94487876563595,
condition files/Stage2_1.xlsx,,B6,T6,r,"['s', 'r']","['Stratego', 'Risk']","[-0.15, 0.5]","[0.15, 0.5]",1,1,,,,,,,,,,,,,,,,,0,0,0,0,0,1,1,1,,,,,,,,,,,,,,,,,,,,,,,,,,,,,,,,,,,,,,,,,,,,,,,945.2214022860007,None,945.2214022860007,None,945.2214022860007,None,s,0,0.9408832059998531,946.8217930680003,None,946.8217930680003,None,946.8217930680003,None,947.8212780810009,None,947.8212780810009,None,947.8212780810009,None,947.8212780810009,None,,,,,,,,,,,,,,,,,,,,,,,,,,,,,,,,,,,,,,,,,,,,001,122,2020_Feb_13_1324,spring_faces,3.1.5,59.94487876563595,
condition files/Stage2_1.xlsx,,T1,B1,s,"['s', 'r']","['Stratego', 'Risk']","[-0.15, 0.5]","[0.15, 0.5]",1,1,,,,,,,,,,,,,,,,,0,0,0,0,0,2,2,2,,,,,,,,,,,,,,,,,,,,,,,,,,,,,,,,,,,,,,,,,,,,,,,949.7877400910002,None,949.7877400910002,None,949.7877400910002,None,s,1,1.465192636998836,951.3214254680006,None,951.3214254680006,None,951.3214254680006,None,952.8386301090013,None,952.8386301090013,None,952.8386301090013,None,952.8386301090013,None,,,,,,,,,,,,,,,,,,,,,,,,,,,,,,,,,,,,,,,,,,,,001,122,2020_Feb_13_1324,spring_faces,3.1.5,59.94487876563595,
condition files/Stage2_1.xlsx,,B2,T2,r,"['s', 'r']","['Stratego', 'Risk']","[-0.15, 0.5]","[0.15, 0.5]",1,1,,,,,,,,,,,,,,,,,0,0,0,0,0,3,3,3,,,,,,,,,,,,,,,,,,,,,,,,,,,,,,,,,,,,,,,,,,,,,,,954.804320407,None,954.804320407,None,954.804320407,None,s,0,1.6005305889993906,956.3380424980005,None,956.3380424980005,None,956.3380424980005,None,958.0049879540002,None,958.0049879540002,None,958.0049879540002,None,958.0049879540002,None,,,,,,,,,,,,,,,,,,,,,,,,,,,,,,,,,,,,,,,,,,,,001,122,2020_Feb_13_1324,spring_faces,3.1.5,59.94487876563595,
condition files/Stage2_1.xlsx,,T5,B5,s,"['s', 'r']","['Stratego', 'Risk']","[-0.15, 0.5]","[0.15, 0.5]",1,1,,,,,,,,,,,,,,,,,0,0,0,0,0,4,4,0,,,,,,,,,,,,,,,,,,,,,,,,,,,,,,,,,,,,,,,,,,,,,,,959.9714650309998,None,959.9714650309998,None,959.9714650309998,None,s,1,0.9755264989998977,961.5551342970011,None,961.5551342970011,None,961.5551342970011,None,962.5889438100003,None,962.5889438100003,None,962.5889438100003,None,962.5889438100003,None,,,,,,,,,,,,,,,,,,,,,,,,,,,,,,,,,,,,,,,,,,,,001,122,2020_Feb_13_1324,spring_faces,3.1.5,59.94487876563595,
condition files/Stage2_1.xlsx,,T3,B3,s,"['s', 'r']","['Stratego', 'Risk']","[-0.15, 0.5]","[0.15, 0.5]",1,1,,,,,,,,,,,,,,,,,0,0,0,0,0,5,5,4,,,,,,,,,,,,,,,,,,,,,,,,,,,,,,,,,,,,,,,,,,,,,,,964.5549109680014,None,964.5549109680014,None,964.5549109680014,None,r,0,1.0981503570001223,966.0884668409999,None,966.0884668409999,None,966.0884668409999,None,967.2383274460008,None,967.2383274460008,None,967.2383274460008,None,967.2383274460008,None,,,,,,,,,,,,,,,,,,,,,,,,,,,,,,,,,,,,,,,,,,,,001,122,2020_Feb_13_1324,spring_faces,3.1.5,59.94487876563595,
condition files/Stage2_2.xlsx,,B1,T1,s,"['s', 'r']","['Stratego', 'Risk']","[-0.15, 0.5]","[0.15, 0.5]",1,1,,,,,,,,,,,,,,,,,0,1,1,1,0,0,0,2,,,,,,,,,,,,,,,,,,,,,,,,,,,,,,,,,,,,,,,,,,,,,,,969.2218211020008,None,969.2218211020008,None,969.2218211020008,None,r,0,1.4075895709993347,970.7551077630014,None,970.7551077630014,None,970.7551077630014,None,972.2214359950012,None,972.2214359950012,None,972.2214359950012,None,972.2214359950012,None,,,,,,,,,,,,,,,,,,,,,,,,,,,,,,,,,,,,,,,,,,,,001,122,2020_Feb_13_1324,spring_faces,3.1.5,59.94487876563595,
condition files/Stage2_2.xlsx,,B5,T5,s,"['s', 'r']","['Stratego', 'Risk']","[-0.15, 0.5]","[0.15, 0.5]",1,1,,,,,,,,,,,,,,,,,0,1,1,1,0,1,1,0,,,,,,,,,,,,,,,,,,,,,,,,,,,,,,,,,,,,,,,,,,,,,,,974.1883252340012,None,974.1883252340012,None,974.1883252340012,None,s,1,1.8643133430014132,975.7382813250006,None,975.7382813250006,None,975.7382813250006,None,977.6553179600014,None,977.6553179600014,None,977.6553179600014,None,977.6553179600014,None,,,,,,,,,,,,,,,,,,,,,,,,,,,,,,,,,,,,,,,,,,,,001,122,2020_Feb_13_1324,spring_faces,3.1.5,59.94487876563595,
condition files/Stage2_2.xlsx,,B3,T3,s,"['s', 'r']","['Stratego', 'Risk']","[-0.15, 0.5]","[0.15, 0.5]",1,1,,,,,,,,,,,,,,,,,0,1,1,1,0,2,2,4,,,,,,,,,,,,,,,,,,,,,,,,,,,,,,,,,,,,,,,,,,,,,,,979.6217742190001,None,979.6217742190001,None,979.6217742190001,None,s,1,1.2159586850011692,981.1546926290011,None,981.1546926290011,None,981.1546926290011,None,982.42159412,None,982.42159412,None,982.42159412,None,982.42159412,None,,,,,,,,,,,,,,,,,,,,,,,,,,,,,,,,,,,,,,,,,,,,001,122,2020_Feb_13_1324,spring_faces,3.1.5,59.94487876563595,
condition files/Stage2_2.xlsx,,T6,B6,r,"['s', 'r']","['Stratego', 'Risk']","[-0.15, 0.5]","[0.15, 0.5]",1,1,,,,,,,,,,,,,,,,,0,1,1,1,0,3,3,1,,,,,,,,,,,,,,,,,,,,,,,,,,,,,,,,,,,,,,,,,,,,,,,984.3884312750015,None,984.3884312750015,None,984.3884312750015,None,r,1,0.511015739000868,985.9235952010004,None,985.9235952010004,None,985.9235952010004,None,986.50501764,None,986.50501764,None,986.50501764,None,986.50501764,None,,,,,,,,,,,,,,,,,,,,,,,,,,,,,,,,,,,,,,,,,,,,001,122,2020_Feb_13_1324,spring_faces,3.1.5,59.94487876563595,
condition files/Stage2_2.xlsx,,T4,B4,r,"['s', 'r']","['Stratego', 'Risk']","[-0.15, 0.5]","[0.15, 0.5]",1,1,,,,,,,,,,,,,,,,,0,1,1,1,0,4,4,5,,,,,,,,,,,,,,,,,,,,,,,,,,,,,,,,,,,,,,,,,,,,,,,988.4548959809999,None,988.4548959809999,None,988.4548959809999,None,r,1,1.8059312559998943,989.9887550840012,None,989.9887550840012,None,989.9887550840012,None,991.8550809059998,None,991.8550809059998,None,991.8550809059998,None,991.8550809059998,None,,,,,,,,,,,,,,,,,,,,,,,,,,,,,,,,,,,,,,,,,,,,001,122,2020_Feb_13_1324,spring_faces,3.1.5,59.94487876563595,
condition files/Stage2_2.xlsx,,T2,B2,r,"['s', 'r']","['Stratego', 'Risk']","[-0.15, 0.5]","[0.15, 0.5]",1,1,,,,,,,,,,,,,,,,,0,1,1,1,0,5,5,3,,,,,,,,,,,,,,,,,,,,,,,,,,,,,,,,,,,,,,,,,,,,,,,993.8211301780011,None,993.8211301780011,None,993.8211301780011,None,s,0,1.7991506130001653,995.3554628399997,None,995.3554628399997,None,995.3554628399997,None,997.2051834770009,None,997.2051834770009,None,997.2051834770009,None,997.2051834770009,None,,,,,,,,,,,,,,,,,,,,,,,,,,,,,,,,,,,,,,,,,,,,001,122,2020_Feb_13_1324,spring_faces,3.1.5,59.94487876563595,
condition files/Stage2_1.xlsx,,B4,T4,r,"['s', 'r']","['Stratego', 'Risk']","[-0.15, 0.5]","[0.15, 0.5]",1,1,,,,,,,,,,,,,,,,,0,2,2,2,0,0,0,5,,,,,,,,,,,,,,,,,,,,,,,,,,,,,,,,,,,,,,,,,,,,,,,999.1885071240013,None,999.1885071240013,None,999.1885071240013,None,r,1,1.1519159159997798,1000.7227021020008,None,1000.7227021020008,None,1000.7227021020008,None,1001.938478606,None,1001.938478606,None,1001.938478606,None,1001.938478606,None,,,,,,,,,,,,,,,,,,,,,,,,,,,,,,,,,,,,,,,,,,,,001,122,2020_Feb_13_1324,spring_faces,3.1.5,59.94487876563595,
condition files/Stage2_1.xlsx,,T5,B5,s,"['s', 'r']","['Stratego', 'Risk']","[-0.15, 0.5]","[0.15, 0.5]",1,1,,,,,,,,,,,,,,,,,0,2,2,2,0,1,1,0,,,,,,,,,,,,,,,,,,,,,,,,,,,,,,,,,,,,,,,,,,,,,,,1003.905024877,None,1003.905024877,None,1003.905024877,None,s,1,0.8840328429996589,1005.454523679,None,1005.454523679,None,1005.454523679,None,1006.4060286830008,None,1006.4060286830008,None,1006.4060286830008,None,1006.4060286830008,None,,,,,,,,,,,,,,,,,,,,,,,,,,,,,,,,,,,,,,,,,,,,001,122,2020_Feb_13_1324,spring_faces,3.1.5,59.94487876563595,
condition files/Stage2_1.xlsx,,T3,B3,s,"['s', 'r']","['Stratego', 'Risk']","[-0.15, 0.5]","[0.15, 0.5]",1,1,,,,,,,,,,,,,,,,,0,2,2,2,0,2,2,4,,,,,,,,,,,,,,,,,,,,,,,,,,,,,,,,,,,,,,,,,,,,,,,1008.371484528001,None,1008.371484528001,None,1008.371484528001,None,s,1,2.7368134400003328,1009.9217981030015,None,1009.9217981030015,None,1009.9217981030015,None,1012.7220247810001,None,1012.7220247810001,None,1012.7220247810001,None,1012.7220247810001,None,,,,,,,,,,,,,,,,,,,,,,,,,,,,,,,,,,,,,,,,,,,,001,122,2020_Feb_13_1324,spring_faces,3.1.5,59.94487876563595,
condition files/Stage2_1.xlsx,,B6,T6,r,"['s', 'r']","['Stratego', 'Risk']","[-0.15, 0.5]","[0.15, 0.5]",1,1,,,,,,,,,,,,,,,,,0,2,2,2,0,3,3,1,,,,,,,,,,,,,,,,,,,,,,,,,,,,,,,,,,,,,,,,,,,,,,,1014.6882258189999,None,1014.6882258189999,None,1014.6882258189999,None,r,1,1.060774384000979,1016.2218190240001,None,1016.2218190240001,None,1016.2218190240001,None,1017.3548167040008,None,1017.3548167040008,None,1017.3548167040008,None,1017.3548167040008,None,,,,,,,,,,,,,,,,,,,,,,,,,,,,,,,,,,,,,,,,,,,,001,122,2020_Feb_13_1324,spring_faces,3.1.5,59.94487876563595,
condition files/Stage2_1.xlsx,,T1,B1,s,"['s', 'r']","['Stratego', 'Risk']","[-0.15, 0.5]","[0.15, 0.5]",1,1,,,,,,,,,,,,,,,,,0,2,2,2,0,4,4,2,,,,,,,,,,,,,,,,,,,,,,,,,,,,,,,,,,,,,,,,,,,,,,,1019.3045283920001,None,1019.3045283920001,None,1019.3045283920001,None,s,1,1.3711392599998362,1020.8554277290004,None,1020.8554277290004,None,1020.8554277290004,None,1022.2881244420005,None,1022.2881244420005,None,1022.2881244420005,None,1022.2881244420005,None,,,,,,,,,,,,,,,,,,,,,,,,,,,,,,,,,,,,,,,,,,,,001,122,2020_Feb_13_1324,spring_faces,3.1.5,59.94487876563595,
condition files/Stage2_1.xlsx,,B2,T2,r,"['s', 'r']","['Stratego', 'Risk']","[-0.15, 0.5]","[0.15, 0.5]",1,1,,,,,,,,,,,,,,,,,0,2,2,2,0,5,5,3,,,,,,,,,,,,,,,,,,,,,,,,,,,,,,,,,,,,,,,,,,,,,,,1024.2548172440002,None,1024.2548172440002,None,1024.2548172440002,None,s,0,0.8224359899995761,1025.7881763700007,None,1025.7881763700007,None,1025.7881763700007,None,1026.688472838001,None,1026.688472838001,None,1026.688472838001,None,1026.688472838001,None,,,,,,,,,,,,,,,,,,,,,,,,,,,,,,,,,,,,,,,,,,,,001,122,2020_Feb_13_1324,spring_faces,3.1.5,59.94487876563595,
condition files/Stage2_2.xlsx,,T6,B6,r,"['s', 'r']","['Stratego', 'Risk']","[-0.15, 0.5]","[0.15, 0.5]",1,1,,,,,,,,,,,,,,,,,0,3,3,3,0,0,0,1,,,,,,,,,,,,,,,,,,,,,,,,,,,,,,,,,,,,,,,,,,,,,,,1028.654828625,None,1028.654828625,None,1028.654828625,None,r,1,0.8528335740011244,1030.1898081529998,None,1030.1898081529998,None,1030.1898081529998,None,1031.1050841760007,None,1031.1050841760007,None,1031.1050841760007,None,1031.1050841760007,None,,,,,,,,,,,,,,,,,,,,,,,,,,,,,,,,,,,,,,,,,,,,001,122,2020_Feb_13_1324,spring_faces,3.1.5,59.94487876563595,
condition files/Stage2_2.xlsx,,T2,B2,r,"['s', 'r']","['Stratego', 'Risk']","[-0.15, 0.5]","[0.15, 0.5]",1,1,,,,,,,,,,,,,,,,,0,3,3,3,0,1,1,3,,,,,,,,,,,,,,,,,,,,,,,,,,,,,,,,,,,,,,,,,,,,,,,1033.071217865001,None,1033.071217865001,None,1033.071217865001,None,r,1,0.83654248700077,1034.6060945280005,None,1034.6060945280005,None,1034.6060945280005,None,1035.5044958899998,None,1035.5044958899998,None,1035.5044958899998,None,1035.5044958899998,None,,,,,,,,,,,,,,,,,,,,,,,,,,,,,,,,,,,,,,,,,,,,001,122,2020_Feb_13_1324,spring_faces,3.1.5,59.94487876563595,
condition files/Stage2_2.xlsx,,B3,T3,s,"['s', 'r']","['Stratego', 'Risk']","[-0.15, 0.5]","[0.15, 0.5]",1,1,,,,,,,,,,,,,,,,,0,3,3,3,0,2,2,4,,,,,,,,,,,,,,,,,,,,,,,,,,,,,,,,,,,,,,,,,,,,,,,1037.4712443600001,None,1037.4712443600001,None,1037.4712443600001,None,s,1,0.9969521139992139,1039.0216430750006,None,1039.0216430750006,None,1039.0216430750006,None,1040.0738576800013,None,1040.0738576800013,None,1040.0738576800013,None,1040.0738576800013,None,,,,,,,,,,,,,,,,,,,,,,,,,,,,,,,,,,,,,,,,,,,,001,122,2020_Feb_13_1324,spring_faces,3.1.5,59.94487876563595,
condition files/Stage2_2.xlsx,,B5,T5,s,"['s', 'r']","['Stratego', 'Risk']","[-0.15, 0.5]","[0.15, 0.5]",1,1,,,,,,,,,,,,,,,,,0,3,3,3,0,3,3,0,,,,,,,,,,,,,,,,,,,,,,,,,,,,,,,,,,,,,,,,,,,,,,,1042.03772337,None,1042.03772337,None,1042.03772337,None,s,1,0.892642958999204,1043.5739364270012,None,1043.5739364270012,None,1043.5739364270012,None,1044.5214493849999,None,1044.5214493849999,None,1044.5214493849999,None,1044.5214493849999,None,,,,,,,,,,,,,,,,,,,,,,,,,,,,,,,,,,,,,,,,,,,,001,122,2020_Feb_13_1324,spring_faces,3.1.5,59.94487876563595,
condition files/Stage2_2.xlsx,,T4,B4,r,"['s', 'r']","['Stratego', 'Risk']","[-0.15, 0.5]","[0.15, 0.5]",1,1,,,,,,,,,,,,,,,,,0,3,3,3,0,4,4,5,,,,,,,,,,,,,,,,,,,,,,,,,,,,,,,,,,,,,,,,,,,,,,,1046.4882934770012,None,1046.4882934770012,None,1046.4882934770012,None,s,0,1.4370007220004481,1048.021628048,None,1048.021628048,None,1048.021628048,None,1049.5214597909999,None,1049.5214597909999,None,1049.5214597909999,None,1049.5214597909999,None,,,,,,,,,,,,,,,,,,,,,,,,,,,,,,,,,,,,,,,,,,,,001,122,2020_Feb_13_1324,spring_faces,3.1.5,59.94487876563595,
condition files/Stage2_2.xlsx,,B1,T1,s,"['s', 'r']","['Stratego', 'Risk']","[-0.15, 0.5]","[0.15, 0.5]",1,1,,,,,,,,,,,,,,,,,0,3,3,3,0,5,5,2,,,,,,,,,,,,,,,,,,,,,,,,,,,,,,,,,,,,,,,,,,,,,,,1051.488157844,None,1051.488157844,None,1051.488157844,None,s,1,1.7810370130009687,1053.021575664001,None,1053.021575664001,None,1053.021575664001,None,1054.8549868460013,None,1054.8549868460013,None,1054.8549868460013,None,1054.8549868460013,None,,,,,,,,,,,,,,,,,,,,,,,,,,,,,,,,,,,,,,,,,,,,001,122,2020_Feb_13_1324,spring_faces,3.1.5,59.94487876563595,
condition files/Stage2_1.xlsx,,B6,T6,r,"['s', 'r']","['Stratego', 'Risk']","[-0.15, 0.5]","[0.15, 0.5]",1,1,,,,,,,,,,,,,,,,,0,4,4,4,0,0,0,1,,,,,,,,,,,,,,,,,,,,,,,,,,,,,,,,,,,,,,,,,,,,,,,1056.8385632940008,None,1056.8385632940008,None,1056.8385632940008,None,r,1,0.6854951680015802,1058.3731381880007,None,1058.3731381880007,None,1058.3731381880007,None,1059.1232948750003,None,1059.1232948750003,None,1059.1232948750003,None,1059.1232948750003,None,,,,,,,,,,,,,,,,,,,,,,,,,,,,,,,,,,,,,,,,,,,,001,122,2020_Feb_13_1324,spring_faces,3.1.5,59.94487876563595,
condition files/Stage2_1.xlsx,,T1,B1,s,"['s', 'r']","['Stratego', 'Risk']","[-0.15, 0.5]","[0.15, 0.5]",1,1,,,,,,,,,,,,,,,,,0,4,4,4,0,1,1,2,,,,,,,,,,,,,,,,,,,,,,,,,,,,,,,,,,,,,,,,,,,,,,,1061.0882177069998,None,1061.0882177069998,None,1061.0882177069998,None,s,1,1.460399662000782,1062.6222125870008,None,1062.6222125870008,None,1062.6222125870008,None,1064.1404895289998,None,1064.1404895289998,None,1064.1404895289998,None,1064.1404895289998,None,,,,,,,,,,,,,,,,,,,,,,,,,,,,,,,,,,,,,,,,,,,,001,122,2020_Feb_13_1324,spring_faces,3.1.5,59.94487876563595,
condition files/Stage2_1.xlsx,,B2,T2,r,"['s', 'r']","['Stratego', 'Risk']","[-0.15, 0.5]","[0.15, 0.5]",1,1,,,,,,,,,,,,,,,,,0,4,4,4,0,2,2,3,,,,,,,,,,,,,,,,,,,,,,,,,,,,,,,,,,,,,,,,,,,,,,,1066.1046546500002,None,1066.1046546500002,None,1066.1046546500002,None,r,1,1.8020784380005352,1067.6405435409997,None,1067.6405435409997,None,1067.6405435409997,None,1069.5054586280003,None,1069.5054586280003,None,1069.5054586280003,None,1069.5054586280003,None,,,,,,,,,,,,,,,,,,,,,,,,,,,,,,,,,,,,,,,,,,,,001,122,2020_Feb_13_1324,spring_faces,3.1.5,59.94487876563595,
