condsFile,subStage,cue1,cue2,correct,responseKeys,responseNames,cue1Position,cue2Position,cue1Opacity,cue2Opacity,stageLoop0.thisRepN,stageLoop0.thisTrialN,stageLoop0.thisN,stageLoop0.thisIndex,blockLoop0.thisRepN,blockLoop0.thisTrialN,blockLoop0.thisN,blockLoop0.thisIndex,stage1Loop.thisRepN,stage1Loop.thisTrialN,stage1Loop.thisN,stage1Loop.thisIndex,blockLoop1.thisRepN,blockLoop1.thisTrialN,blockLoop1.thisN,blockLoop1.thisIndex,stage2Loop.thisRepN,stage2Loop.thisTrialN,stage2Loop.thisN,stage2Loop.thisIndex,blockLoop2.thisRepN,blockLoop2.thisTrialN,blockLoop2.thisN,blockLoop2.thisIndex,testLoop.thisRepN,testLoop.thisTrialN,testLoop.thisN,testLoop.thisIndex,blockLoopTest.thisRepN,blockLoopTest.thisTrialN,blockLoopTest.thisN,blockLoopTest.thisIndex,cuePics,id_instr_text.started,id_instr_text.stopped,space_to_continue_2.started,space_to_continue_2.stopped,end_instructions_resp_3.keys,end_instructions_resp_3.rt,end_instructions_resp_3.started,end_instructions_resp_3.stopped,id_input_instr.started,id_input_instr.stopped,id_input_rect.started,id_input_rect.stopped,id_input_resp.keys,id_input_resp.rt,id_input_resp.started,id_input_resp.stopped,sonaID,id_input_text.started,id_input_text.stopped,final_text.started,final_text.stopped,instructions.started,instructions.stopped,end_instructions_resp.keys,end_instructions_resp.rt,end_instructions_resp.started,end_instructions_resp.stopped,space_to_continue.started,space_to_continue.stopped,instructions_stage0.started,instructions_stage0.stopped,end_instructions_resp_stage0.keys,end_instructions_resp_stage0.rt,end_instructions_resp_stage0.started,end_instructions_resp_stage0.stopped,space_to_continue_stage0.started,space_to_continue_stage0.stopped,text.started,text.stopped,resp_text1.started,resp_text1.stopped,resp_text2.started,resp_text2.stopped,trial_resp.keys,trial_resp.corr,trial_resp.rt,trial_resp.started,trial_resp.stopped,cue1Image.started,cue1Image.stopped,cue2Image.started,cue2Image.stopped,cue1Image_fb.started,cue1Image_fb.stopped,cue2Image_fb.started,cue2Image_fb.stopped,fb_text_answer.started,fb_text_answer.stopped,feedback_image.started,feedback_image.stopped,instructions_stage1.started,instructions_stage1.stopped,end_instructions_resp_stage1.keys,end_instructions_resp_stage1.rt,end_instructions_resp_stage1.started,end_instructions_resp_stage1.stopped,space_to_continue_stage1.started,space_to_continue_stage1.stopped,instructions_2.started,instructions_2.stopped,end_instructions_resp_2.keys,end_instructions_resp_2.rt,end_instructions_resp_2.started,end_instructions_resp_2.stopped,press_space_to_continue_stage2.started,press_space_to_continue_stage2.stopped,instructions_testStage1.started,instructions_testStage1.stopped,end_instructions_resp_test1.keys,end_instructions_resp_test1.rt,end_instructions_resp_test1.started,end_instructions_resp_test1.stopped,press_space_to_continue_test1.started,press_space_to_continue_test1.stopped,cue1Image_testChoice.started,cue1Image_testChoice.stopped,cue2Image_testChoice.started,cue2Image_testChoice.stopped,test_resp.keys,test_resp.corr,test_resp.rt,test_resp.started,test_resp.stopped,cue1Image_testConf.started,cue1Image_testConf.stopped,cue2Image_testConf.started,cue2Image_testConf.stopped,conf_reminder.started,conf_reminder.stopped,conf_rating.response,conf_rating.rt,conf_rating.started,conf_rating.stopped,session,participant,date,expName,psychopyVersion,frameRate,
,,,,,,,,,,,,,,,,,,,,,,,,,,,,,,,,,,,,,,,,,,,"{'none': 'pictures/20M_AN_C.png', 'alpha': 'pictures/SHINEd_pepper.png', 'beta': 'pictures/SHINEd_pear.png', 'theta': 'pictures/SHINEd_melon.png', 'phi': 'pictures/SHINEd_apple.png', 'T1': 'pictures/37M_AN_C.png', 'T2': 'pictures/36M_AN_C.png', 'T3': 'pictures/26M_AN_C.png', 'T4': 'pictures/20M_AN_C.png', 'T5': 'pictures/23M_AN_C.png', 'T6': 'pictures/25M_AN_C.png', 'B1': 'pictures/32M_NE_C.png', 'B2': 'pictures/34M_NE_C.png', 'B3': 'pictures/22M_NE_C.png', 'B4': 'pictures/38M_NE_C.png', 'B5': 'pictures/31M_NE_C.png', 'B6': 'pictures/33M_NE_C.png'}",14.51256668699898,None,19.512984299999516,None,space,27.14277386699905,19.512984299999516,None,,,,,,,,,,,,,,,,,,,,,,,,,,,,,,,,,,,,,,,,,,,,,,,,,,,,,,,,,,,,,,,,,,,,,,,,,,,,,,,,,,,,,,,,,,,,,,,,001,123,2020_Feb_13_1347,spring_faces,3.1.5,59.92462824085173,
,,,,,,,,,,,,,,,,,,,,,,,,,,,,,,,,,,,,,,,,,,,,,,,,,,,,47.078953033998914,None,47.078953033998914,None,"['1', '2', '1', '0', 'l', 'w', 'backspace', 'e', 'g', 'r', 'a']","[32.64882081900032, 32.93674825200105, 41.08076228200116, 41.32082793399968, 47.416830657999526, 47.704830704000415, 49.40077327899962, 49.78477448400008, 55.91280569800074, 56.264788907001275, 56.63282930999958]",47.078953033998914,None,,,,,,,,,,,,,,,,,,,,,,,,,,,,,,,,,,,,,,,,,,,,,,,,,,,,,,,,,,,,,,,,,,,,,,,,,,,,,,,,,,,,,,,,001,123,2020_Feb_13_1347,spring_faces,3.1.5,59.92462824085173,
,,,,,,,,,,,,,,,,,,,,,,,,,,,,,,,,,,,,,,,,,,,,,,,,,,,,,,,,,,,,1210legra,47.078953033998914,None,47.078953033998914,None,108.77918796799895,None,space,2.284332209999775,113.7793755169987,None,,,,,,,,,,,,,,,,,,,,,,,,,,,,,,,,,,,,,,,,,,,,,,,,,,,,,,,,,,,,,,,,,,,,,,,,,,,,,001,123,2020_Feb_13_1347,spring_faces,3.1.5,59.92462824085173,
,,,,,,,,,,,,,,,,,,,,,,,,,,,,,,,,,,,,,,,,,,,,,,,,,,,,,,,,,,,,,,,,,,,,,,,113.7793755169987,None,116.11295078299918,None,space,6.359130246999484,121.11272481899869,None,,,,,,,,,,,,,,,,,,,,,,,,,,,,,,,,,,,,,,,,,,,,,,,,,,,,,,,,,,,,,,,,,,,,,001,123,2020_Feb_13_1347,spring_faces,3.1.5,59.92462824085173,
condition files/Stage0a.xlsx,0a,alpha,none,h,"['h', 'g']","['Chess', 'Go']","[0, 0.5]","[0, 0]",1,0,0,0,0,0,0,0,0,0,,,,,,,,,,,,,,,,,,,,,,,,,,,,,,,,,,,,,,,,,,,,,,,,,,,,,,,,,,,,,121.11272481899869,None,127.52942837199953,None,127.52942837199953,None,127.52942837199953,None,h,1,2.355033657000604,129.1807757489987,None,129.1807757489987,None,129.1807757489987,None,131.6129069339986,None,131.6129069339986,None,131.6129069339986,None,131.6129069339986,None,,,,,,,,,,,,,,,,,,,,,,,,,,,,,,,,,,,,,,,,,,,,001,123,2020_Feb_13_1347,spring_faces,3.1.5,59.92462824085173,
condition files/Stage0a.xlsx,0a,beta,none,g,"['h', 'g']","['Chess', 'Go']","[0, 0.5]","[0, 0]",1,0,0,0,0,0,0,1,1,1,,,,,,,,,,,,,,,,,,,,,,,,,,,,,,,,,,,,,,,,,,,,,,,,,,,,,,,,,,,,,,,133.5626640039991,None,133.5626640039991,None,133.5626640039991,None,g,1,0.9990920799991727,135.09669218999989,None,135.09669218999989,None,135.09669218999989,None,136.14577551299953,None,136.14577551299953,None,136.14577551299953,None,136.14577551299953,None,,,,,,,,,,,,,,,,,,,,,,,,,,,,,,,,,,,,,,,,,,,,001,123,2020_Feb_13_1347,spring_faces,3.1.5,59.92462824085173,
condition files/Stage0a.xlsx,0a,alpha,none,h,"['h', 'g']","['Chess', 'Go']","[0, 0.5]","[0, 0]",1,0,0,1,1,1,0,0,0,0,,,,,,,,,,,,,,,,,,,,,,,,,,,,,,,,,,,,,,,,,,,,,,,,,,,,,,,,,,,,,,,138.12966143299855,None,138.12966143299855,None,138.12966143299855,None,h,1,0.8171944010009611,139.64651628399952,None,139.64651628399952,None,139.64651628399952,None,140.5296175129988,None,140.5296175129988,None,140.5296175129988,None,140.5296175129988,None,,,,,,,,,,,,,,,,,,,,,,,,,,,,,,,,,,,,,,,,,,,,001,123,2020_Feb_13_1347,spring_faces,3.1.5,59.92462824085173,
condition files/Stage0a.xlsx,0a,beta,none,g,"['h', 'g']","['Chess', 'Go']","[0, 0.5]","[0, 0]",1,0,0,1,1,1,0,1,1,1,,,,,,,,,,,,,,,,,,,,,,,,,,,,,,,,,,,,,,,,,,,,,,,,,,,,,,,,,,,,,,,142.49590962899856,None,142.49590962899856,None,142.49590962899856,None,g,1,1.250438856999608,144.02929536800002,None,144.02929536800002,None,144.02929536800002,None,145.34613306799838,None,145.34613306799838,None,145.34613306799838,None,145.34613306799838,None,,,,,,,,,,,,,,,,,,,,,,,,,,,,,,,,,,,,,,,,,,,,001,123,2020_Feb_13_1347,spring_faces,3.1.5,59.92462824085173,
condition files/Stage0a.xlsx,0a,alpha,none,h,"['h', 'g']","['Chess', 'Go']","[0, 0.5]","[0, 0]",1,0,0,2,2,2,0,0,0,0,,,,,,,,,,,,,,,,,,,,,,,,,,,,,,,,,,,,,,,,,,,,,,,,,,,,,,,,,,,,,,,147.32944889099963,None,147.32944889099963,None,147.32944889099963,None,h,1,0.7208731890004856,148.86289603499972,None,148.86289603499972,None,148.86289603499972,None,149.6472244589986,None,149.6472244589986,None,149.6472244589986,None,149.6472244589986,None,,,,,,,,,,,,,,,,,,,,,,,,,,,,,,,,,,,,,,,,,,,,001,123,2020_Feb_13_1347,spring_faces,3.1.5,59.92462824085173,
condition files/Stage0a.xlsx,0a,beta,none,g,"['h', 'g']","['Chess', 'Go']","[0, 0.5]","[0, 0]",1,0,0,2,2,2,0,1,1,1,,,,,,,,,,,,,,,,,,,,,,,,,,,,,,,,,,,,,,,,,,,,,,,,,,,,,,,,,,,,,,,151.6127639669994,None,151.6127639669994,None,151.6127639669994,None,g,1,0.5340569260006305,153.14565230399967,None,153.14565230399967,None,153.14565230399967,None,153.7297533359997,None,153.7297533359997,None,153.7297533359997,None,153.7297533359997,None,,,,,,,,,,,,,,,,,,,,,,,,,,,,,,,,,,,,,,,,,,,,001,123,2020_Feb_13_1347,spring_faces,3.1.5,59.92462824085173,
condition files/Stage0a.xlsx,0a,alpha,none,h,"['h', 'g']","['Chess', 'Go']","[0, 0.5]","[0, 0]",1,0,0,3,3,3,0,0,0,0,,,,,,,,,,,,,,,,,,,,,,,,,,,,,,,,,,,,,,,,,,,,,,,,,,,,,,,,,,,,,,,155.7123308449991,None,155.7123308449991,None,155.7123308449991,None,h,1,0.3705928959989251,157.22917329899974,None,157.22917329899974,None,157.22917329899974,None,157.66260423399945,None,157.66260423399945,None,157.66260423399945,None,157.66260423399945,None,,,,,,,,,,,,,,,,,,,,,,,,,,,,,,,,,,,,,,,,,,,,001,123,2020_Feb_13_1347,spring_faces,3.1.5,59.92462824085173,
condition files/Stage0a.xlsx,0a,beta,none,g,"['h', 'g']","['Chess', 'Go']","[0, 0.5]","[0, 0]",1,0,0,3,3,3,0,1,1,1,,,,,,,,,,,,,,,,,,,,,,,,,,,,,,,,,,,,,,,,,,,,,,,,,,,,,,,,,,,,,,,159.62869376099843,None,159.62869376099843,None,159.62869376099843,None,h,0,0.4213277119997656,161.1624543449998,None,161.1624543449998,None,161.1624543449998,None,161.64605522499915,None,161.64605522499915,None,161.64605522499915,None,161.64605522499915,None,,,,,,,,,,,,,,,,,,,,,,,,,,,,,,,,,,,,,,,,,,,,001,123,2020_Feb_13_1347,spring_faces,3.1.5,59.92462824085173,
condition files/Stage0a.xlsx,0a,beta,none,g,"['h', 'g']","['Chess', 'Go']","[0, 0.5]","[0, 0]",1,0,0,4,4,4,0,0,0,1,,,,,,,,,,,,,,,,,,,,,,,,,,,,,,,,,,,,,,,,,,,,,,,,,,,,,,,,,,,,,,,163.6295944329995,None,163.6295944329995,None,163.6295944329995,None,g,1,0.6126401670007908,165.16311408399997,None,165.16311408399997,None,165.16311408399997,None,165.82945942100014,None,165.82945942100014,None,165.82945942100014,None,165.82945942100014,None,,,,,,,,,,,,,,,,,,,,,,,,,,,,,,,,,,,,,,,,,,,,001,123,2020_Feb_13_1347,spring_faces,3.1.5,59.92462824085173,
condition files/Stage0a.xlsx,0a,alpha,none,h,"['h', 'g']","['Chess', 'Go']","[0, 0.5]","[0, 0]",1,0,0,4,4,4,0,1,1,0,,,,,,,,,,,,,,,,,,,,,,,,,,,,,,,,,,,,,,,,,,,,,,,,,,,,,,,,,,,,,,,167.79597825499877,None,167.79597825499877,None,167.79597825499877,None,h,1,0.5909113060006348,169.32888579899918,None,169.32888579899918,None,169.32888579899918,None,169.97969554599877,None,169.97969554599877,None,169.97969554599877,None,169.97969554599877,None,,,,,,,,,,,,,,,,,,,,,,,,,,,,,,,,,,,,,,,,,,,,001,123,2020_Feb_13_1347,spring_faces,3.1.5,59.92462824085173,
condition files/Stage0a.xlsx,0a,alpha,none,h,"['h', 'g']","['Chess', 'Go']","[0, 0.5]","[0, 0]",1,0,0,5,5,5,0,0,0,0,,,,,,,,,,,,,,,,,,,,,,,,,,,,,,,,,,,,,,,,,,,,,,,,,,,,,,,,,,,,,,,171.96298437099904,None,171.96298437099904,None,171.96298437099904,None,h,1,0.6630509200003871,173.49663975600015,None,173.49663975600015,None,173.49663975600015,None,174.21272357999987,None,174.21272357999987,None,174.21272357999987,None,174.21272357999987,None,,,,,,,,,,,,,,,,,,,,,,,,,,,,,,,,,,,,,,,,,,,,001,123,2020_Feb_13_1347,spring_faces,3.1.5,59.92462824085173,
condition files/Stage0a.xlsx,0a,beta,none,g,"['h', 'g']","['Chess', 'Go']","[0, 0.5]","[0, 0]",1,0,0,5,5,5,0,1,1,1,,,,,,,,,,,,,,,,,,,,,,,,,,,,,,,,,,,,,,,,,,,,,,,,,,,,,,,,,,,,,,,176.17935745399882,None,176.17935745399882,None,176.17935745399882,None,g,1,0.7989301480010909,177.7128383579984,None,177.7128383579984,None,177.7128383579984,None,178.56290552999963,None,178.56290552999963,None,178.56290552999963,None,178.56290552999963,None,,,,,,,,,,,,,,,,,,,,,,,,,,,,,,,,,,,,,,,,,,,,001,123,2020_Feb_13_1347,spring_faces,3.1.5,59.92462824085173,
condition files/Stage0b_1.xlsx,0b,none,beta,g,"['h', 'g']","['Chess', 'Go']","[-0.15, 0.5]","[0.15, 0.5]",0,1,0,6,6,6,0,0,0,1,,,,,,,,,,,,,,,,,,,,,,,,,,,,,,,,,,,,,,,,,,,,,,,,,,,,,,,,,,,,,,,180.54621614799908,None,180.54621614799908,None,180.54621614799908,None,g,1,0.6394645210002636,182.09631226799866,None,182.09631226799866,None,182.09631226799866,None,182.79686134999974,None,182.79686134999974,None,182.79686134999974,None,182.79686134999974,None,,,,,,,,,,,,,,,,,,,,,,,,,,,,,,,,,,,,,,,,,,,,001,123,2020_Feb_13_1347,spring_faces,3.1.5,59.92462824085173,
condition files/Stage0b_1.xlsx,0b,alpha,none,h,"['h', 'g']","['Chess', 'Go']","[-0.15, 0.5]","[0.15, 0.5]",1,0,0,6,6,6,0,1,1,0,,,,,,,,,,,,,,,,,,,,,,,,,,,,,,,,,,,,,,,,,,,,,,,,,,,,,,,,,,,,,,,184.76261727599922,None,184.76261727599922,None,184.76261727599922,None,h,1,0.8074115660001553,186.31239612199897,None,186.31239612199897,None,186.31239612199897,None,187.18225753599836,None,187.18225753599836,None,187.18225753599836,None,187.18225753599836,None,,,,,,,,,,,,,,,,,,,,,,,,,,,,,,,,,,,,,,,,,,,,001,123,2020_Feb_13_1347,spring_faces,3.1.5,59.92462824085173,
condition files/Stage0b_2.xlsx,0b,none,alpha,h,"['h', 'g']","['Chess', 'Go']","[-0.15, 0.5]","[0.15, 0.5]",0,1,0,7,7,7,0,0,0,0,,,,,,,,,,,,,,,,,,,,,,,,,,,,,,,,,,,,,,,,,,,,,,,,,,,,,,,,,,,,,,,189.16265923299943,None,189.16265923299943,None,189.16265923299943,None,h,1,0.547735811000166,190.70001300699914,None,190.70001300699914,None,190.70001300699914,None,191.31273599299857,None,191.31273599299857,None,191.31273599299857,None,191.31273599299857,None,,,,,,,,,,,,,,,,,,,,,,,,,,,,,,,,,,,,,,,,,,,,001,123,2020_Feb_13_1347,spring_faces,3.1.5,59.92462824085173,
condition files/Stage0b_2.xlsx,0b,beta,none,g,"['h', 'g']","['Chess', 'Go']","[-0.15, 0.5]","[0.15, 0.5]",1,0,0,7,7,7,0,1,1,1,,,,,,,,,,,,,,,,,,,,,,,,,,,,,,,,,,,,,,,,,,,,,,,,,,,,,,,,,,,,,,,193.27868609899997,None,193.27868609899997,None,193.27868609899997,None,g,1,0.48160804899998766,194.83015467399855,None,194.83015467399855,None,194.83015467399855,None,195.3658510639998,None,195.3658510639998,None,195.3658510639998,None,195.3658510639998,None,,,,,,,,,,,,,,,,,,,,,,,,,,,,,,,,,,,,,,,,,,,,001,123,2020_Feb_13_1347,spring_faces,3.1.5,59.92462824085173,
condition files/Stage0b_1.xlsx,0b,alpha,none,h,"['h', 'g']","['Chess', 'Go']","[-0.15, 0.5]","[0.15, 0.5]",1,0,0,8,8,8,0,0,0,0,,,,,,,,,,,,,,,,,,,,,,,,,,,,,,,,,,,,,,,,,,,,,,,,,,,,,,,,,,,,,,,197.34630210999967,None,197.34630210999967,None,197.34630210999967,None,g,0,0.5439881349993811,198.8797571569994,None,198.8797571569994,None,198.8797571569994,None,199.47915505399942,None,199.47915505399942,None,199.47915505399942,None,199.47915505399942,None,,,,,,,,,,,,,,,,,,,,,,,,,,,,,,,,,,,,,,,,,,,,001,123,2020_Feb_13_1347,spring_faces,3.1.5,59.92462824085173,
condition files/Stage0b_1.xlsx,0b,none,beta,g,"['h', 'g']","['Chess', 'Go']","[-0.15, 0.5]","[0.15, 0.5]",0,1,0,8,8,8,0,1,1,1,,,,,,,,,,,,,,,,,,,,,,,,,,,,,,,,,,,,,,,,,,,,,,,,,,,,,,,,,,,,,,,201.44615682899894,None,201.44615682899894,None,201.44615682899894,None,g,1,1.5943291479998152,202.98144415399838,None,202.98144415399838,None,202.98144415399838,None,204.63335394399837,None,204.63335394399837,None,204.63335394399837,None,204.63335394399837,None,,,,,,,,,,,,,,,,,,,,,,,,,,,,,,,,,,,,,,,,,,,,001,123,2020_Feb_13_1347,spring_faces,3.1.5,59.92462824085173,
condition files/Stage0b_2.xlsx,0b,beta,none,g,"['h', 'g']","['Chess', 'Go']","[-0.15, 0.5]","[0.15, 0.5]",1,0,0,9,9,9,0,0,0,1,,,,,,,,,,,,,,,,,,,,,,,,,,,,,,,,,,,,,,,,,,,,,,,,,,,,,,,,,,,,,,,206.61286167899925,None,206.61286167899925,None,206.61286167899925,None,g,1,0.9067541610002081,208.1489920059994,None,208.1489920059994,None,208.1489920059994,None,209.11283603999982,None,209.11283603999982,None,209.11283603999982,None,209.11283603999982,None,,,,,,,,,,,,,,,,,,,,,,,,,,,,,,,,,,,,,,,,,,,,001,123,2020_Feb_13_1347,spring_faces,3.1.5,59.92462824085173,
condition files/Stage0b_2.xlsx,0b,none,alpha,h,"['h', 'g']","['Chess', 'Go']","[-0.15, 0.5]","[0.15, 0.5]",0,1,0,9,9,9,0,1,1,0,,,,,,,,,,,,,,,,,,,,,,,,,,,,,,,,,,,,,,,,,,,,,,,,,,,,,,,,,,,,,,,211.07935286499924,None,211.07935286499924,None,211.07935286499924,None,h,1,0.9368373899997096,212.61493527699895,None,212.61493527699895,None,212.61493527699895,None,213.61423939499946,None,213.61423939499946,None,213.61423939499946,None,213.61423939499946,None,,,,,,,,,,,,,,,,,,,,,,,,,,,,,,,,,,,,,,,,,,,,001,123,2020_Feb_13_1347,spring_faces,3.1.5,59.92462824085173,
condition files/Stage0b_1.xlsx,0b,alpha,none,h,"['h', 'g']","['Chess', 'Go']","[-0.15, 0.5]","[0.15, 0.5]",1,0,0,10,10,10,0,0,0,0,,,,,,,,,,,,,,,,,,,,,,,,,,,,,,,,,,,,,,,,,,,,,,,,,,,,,,,,,,,,,,,215.59633452999879,None,215.59633452999879,None,215.59633452999879,None,h,1,0.8661067379998713,217.13366556999972,None,217.13366556999972,None,217.13366556999972,None,218.063046113999,None,218.063046113999,None,218.063046113999,None,218.063046113999,None,,,,,,,,,,,,,,,,,,,,,,,,,,,,,,,,,,,,,,,,,,,,001,123,2020_Feb_13_1347,spring_faces,3.1.5,59.92462824085173,
condition files/Stage0b_1.xlsx,0b,none,beta,g,"['h', 'g']","['Chess', 'Go']","[-0.15, 0.5]","[0.15, 0.5]",0,1,0,10,10,10,0,1,1,1,,,,,,,,,,,,,,,,,,,,,,,,,,,,,,,,,,,,,,,,,,,,,,,,,,,,,,,,,,,,,,,220.02948799899968,None,220.02948799899968,None,220.02948799899968,None,g,1,0.6765765100008139,221.5632289389996,None,221.5632289389996,None,221.5632289389996,None,222.29803264399925,None,222.29803264399925,None,222.29803264399925,None,222.29803264399925,None,,,,,,,,,,,,,,,,,,,,,,,,,,,,,,,,,,,,,,,,,,,,001,123,2020_Feb_13_1347,spring_faces,3.1.5,59.92462824085173,
condition files/Stage0b_2.xlsx,0b,none,alpha,h,"['h', 'g']","['Chess', 'Go']","[-0.15, 0.5]","[0.15, 0.5]",0,1,0,11,11,11,0,0,0,0,,,,,,,,,,,,,,,,,,,,,,,,,,,,,,,,,,,,,,,,,,,,,,,,,,,,,,,,,,,,,,,224.27952012399874,None,224.27952012399874,None,224.27952012399874,None,h,1,0.6345340839998244,225.8131689369984,None,225.8131689369984,None,225.8131689369984,None,226.51221170099961,None,226.51221170099961,None,226.51221170099961,None,226.51221170099961,None,,,,,,,,,,,,,,,,,,,,,,,,,,,,,,,,,,,,,,,,,,,,001,123,2020_Feb_13_1347,spring_faces,3.1.5,59.92462824085173,
condition files/Stage0b_2.xlsx,0b,beta,none,g,"['h', 'g']","['Chess', 'Go']","[-0.15, 0.5]","[0.15, 0.5]",1,0,0,11,11,11,0,1,1,1,,,,,,,,,,,,,,,,,,,,,,,,,,,,,,,,,,,,,,,,,,,,,,,,,,,,,,,,,,,,,,,228.4793529769995,None,228.4793529769995,None,228.4793529769995,None,g,1,0.6419964899996558,230.0297877189987,None,230.0297877189987,None,230.0297877189987,None,230.73300970499986,None,230.73300970499986,None,230.73300970499986,None,230.73300970499986,None,,,,,,,,,,,,,,,,,,,,,,,,,,,,,,,,,,,,,,,,,,,,001,123,2020_Feb_13_1347,spring_faces,3.1.5,59.92462824085173,
condition files/Stage0c_1.xlsx,0c,alpha,phi,h,"['h', 'g']","['Chess', 'Go']","[-0.15, 0.5]","[0.15, 0.5]",1,1,0,12,12,12,0,0,0,1,,,,,,,,,,,,,,,,,,,,,,,,,,,,,,,,,,,,,,,,,,,,,,,,,,,,,,,,,,,,,,,232.7126519429985,None,232.7126519429985,None,232.7126519429985,None,h,1,1.4175527780007542,234.2461699380001,None,234.2461699380001,None,234.2461699380001,None,235.72958037199896,None,235.72958037199896,None,235.72958037199896,None,235.72958037199896,None,,,,,,,,,,,,,,,,,,,,,,,,,,,,,,,,,,,,,,,,,,,,001,123,2020_Feb_13_1347,spring_faces,3.1.5,59.92462824085173,
condition files/Stage0c_1.xlsx,0c,beta,theta,g,"['h', 'g']","['Chess', 'Go']","[-0.15, 0.5]","[0.15, 0.5]",1,1,0,12,12,12,0,1,1,2,,,,,,,,,,,,,,,,,,,,,,,,,,,,,,,,,,,,,,,,,,,,,,,,,,,,,,,,,,,,,,,237.6954101329993,None,237.6954101329993,None,237.6954101329993,None,g,1,0.7546238400009315,239.22918813099932,None,239.22918813099932,None,239.22918813099932,None,240.04607782999847,None,240.04607782999847,None,240.04607782999847,None,240.04607782999847,None,,,,,,,,,,,,,,,,,,,,,,,,,,,,,,,,,,,,,,,,,,,,001,123,2020_Feb_13_1347,spring_faces,3.1.5,59.92462824085173,
condition files/Stage0c_1.xlsx,0c,theta,alpha,h,"['h', 'g']","['Chess', 'Go']","[-0.15, 0.5]","[0.15, 0.5]",1,1,0,12,12,12,0,2,2,0,,,,,,,,,,,,,,,,,,,,,,,,,,,,,,,,,,,,,,,,,,,,,,,,,,,,,,,,,,,,,,,242.01249521999853,None,242.01249521999853,None,242.01249521999853,None,g,0,0.8854669960001047,243.54627716100003,None,243.54627716100003,None,243.54627716100003,None,244.49591504199998,None,244.49591504199998,None,244.49591504199998,None,244.49591504199998,None,,,,,,,,,,,,,,,,,,,,,,,,,,,,,,,,,,,,,,,,,,,,001,123,2020_Feb_13_1347,spring_faces,3.1.5,59.92462824085173,
condition files/Stage0c_1.xlsx,0c,phi,beta,g,"['h', 'g']","['Chess', 'Go']","[-0.15, 0.5]","[0.15, 0.5]",1,1,0,12,12,12,0,3,3,3,,,,,,,,,,,,,,,,,,,,,,,,,,,,,,,,,,,,,,,,,,,,,,,,,,,,,,,,,,,,,,,246.46261218899963,None,246.46261218899963,None,246.46261218899963,None,g,1,1.2195357249984227,247.99624574599875,None,247.99624574599875,None,247.99624574599875,None,249.27896408299966,None,249.27896408299966,None,249.27896408299966,None,249.27896408299966,None,,,,,,,,,,,,,,,,,,,,,,,,,,,,,,,,,,,,,,,,,,,,001,123,2020_Feb_13_1347,spring_faces,3.1.5,59.92462824085173,
condition files/Stage0c_2.xlsx,0c,alpha,theta,h,"['h', 'g']","['Chess', 'Go']","[-0.15, 0.5]","[0.15, 0.5]",1,1,0,13,13,13,0,0,0,0,,,,,,,,,,,,,,,,,,,,,,,,,,,,,,,,,,,,,,,,,,,,,,,,,,,,,,,,,,,,,,,251.262975448999,None,251.262975448999,None,251.262975448999,None,h,1,0.5315498849995492,252.79621597699952,None,252.79621597699952,None,252.79621597699952,None,253.3793913619993,None,253.3793913619993,None,253.3793913619993,None,253.3793913619993,None,,,,,,,,,,,,,,,,,,,,,,,,,,,,,,,,,,,,,,,,,,,,001,123,2020_Feb_13_1347,spring_faces,3.1.5,59.92462824085173,
condition files/Stage0c_2.xlsx,0c,beta,phi,g,"['h', 'g']","['Chess', 'Go']","[-0.15, 0.5]","[0.15, 0.5]",1,1,0,13,13,13,0,1,1,3,,,,,,,,,,,,,,,,,,,,,,,,,,,,,,,,,,,,,,,,,,,,,,,,,,,,,,,,,,,,,,,255.3459371559984,None,255.3459371559984,None,255.3459371559984,None,g,1,0.7518146549991798,256.87993346999974,None,256.87993346999974,None,256.87993346999974,None,257.6962613279993,None,257.6962613279993,None,257.6962613279993,None,257.6962613279993,None,,,,,,,,,,,,,,,,,,,,,,,,,,,,,,,,,,,,,,,,,,,,001,123,2020_Feb_13_1347,spring_faces,3.1.5,59.92462824085173,
condition files/Stage0c_2.xlsx,0c,theta,beta,g,"['h', 'g']","['Chess', 'Go']","[-0.15, 0.5]","[0.15, 0.5]",1,1,0,13,13,13,0,2,2,2,,,,,,,,,,,,,,,,,,,,,,,,,,,,,,,,,,,,,,,,,,,,,,,,,,,,,,,,,,,,,,,259.6627213769989,None,259.6627213769989,None,259.6627213769989,None,g,1,3.0597158370001125,261.1959935679988,None,261.1959935679988,None,261.1959935679988,None,264.2971438859986,None,264.2971438859986,None,264.2971438859986,None,264.2971438859986,None,,,,,,,,,,,,,,,,,,,,,,,,,,,,,,,,,,,,,,,,,,,,001,123,2020_Feb_13_1347,spring_faces,3.1.5,59.92462824085173,
condition files/Stage0c_2.xlsx,0c,phi,alpha,h,"['h', 'g']","['Chess', 'Go']","[-0.15, 0.5]","[0.15, 0.5]",1,1,0,13,13,13,0,3,3,1,,,,,,,,,,,,,,,,,,,,,,,,,,,,,,,,,,,,,,,,,,,,,,,,,,,,,,,,,,,,,,,266.2789442329995,None,266.2789442329995,None,266.2789442329995,None,h,1,0.89072189000035,267.81306798900005,None,267.81306798900005,None,267.81306798900005,None,268.76267414999893,None,268.76267414999893,None,268.76267414999893,None,268.76267414999893,None,,,,,,,,,,,,,,,,,,,,,,,,,,,,,,,,,,,,,,,,,,,,001,123,2020_Feb_13_1347,spring_faces,3.1.5,59.92462824085173,
condition files/Stage0c_1.xlsx,0c,theta,alpha,h,"['h', 'g']","['Chess', 'Go']","[-0.15, 0.5]","[0.15, 0.5]",1,1,0,14,14,14,0,0,0,0,,,,,,,,,,,,,,,,,,,,,,,,,,,,,,,,,,,,,,,,,,,,,,,,,,,,,,,,,,,,,,,270.74650227099846,None,270.74650227099846,None,270.74650227099846,None,g,0,0.5362196379992383,272.2795517349987,None,272.2795517349987,None,272.2795517349987,None,272.8624579309999,None,272.8624579309999,None,272.8624579309999,None,272.8624579309999,None,,,,,,,,,,,,,,,,,,,,,,,,,,,,,,,,,,,,,,,,,,,,001,123,2020_Feb_13_1347,spring_faces,3.1.5,59.92462824085173,
condition files/Stage0c_1.xlsx,0c,phi,beta,g,"['h', 'g']","['Chess', 'Go']","[-0.15, 0.5]","[0.15, 0.5]",1,1,0,14,14,14,0,1,1,3,,,,,,,,,,,,,,,,,,,,,,,,,,,,,,,,,,,,,,,,,,,,,,,,,,,,,,,,,,,,,,,274.8459628239998,None,274.8459628239998,None,274.8459628239998,None,g,1,1.1082349410007737,276.3795730139991,None,276.3795730139991,None,276.3795730139991,None,277.5461287569997,None,277.5461287569997,None,277.5461287569997,None,277.5461287569997,None,,,,,,,,,,,,,,,,,,,,,,,,,,,,,,,,,,,,,,,,,,,,001,123,2020_Feb_13_1347,spring_faces,3.1.5,59.92462824085173,
condition files/Stage0c_1.xlsx,0c,alpha,phi,h,"['h', 'g']","['Chess', 'Go']","[-0.15, 0.5]","[0.15, 0.5]",1,1,0,14,14,14,0,2,2,1,,,,,,,,,,,,,,,,,,,,,,,,,,,,,,,,,,,,,,,,,,,,,,,,,,,,,,,,,,,,,,,279.51274657199974,None,279.51274657199974,None,279.51274657199974,None,h,1,1.1453142089994799,281.0463661699996,None,281.0463661699996,None,281.0463661699996,None,282.24633952399927,None,282.24633952399927,None,282.24633952399927,None,282.24633952399927,None,,,,,,,,,,,,,,,,,,,,,,,,,,,,,,,,,,,,,,,,,,,,001,123,2020_Feb_13_1347,spring_faces,3.1.5,59.92462824085173,
condition files/Stage0c_1.xlsx,0c,beta,theta,g,"['h', 'g']","['Chess', 'Go']","[-0.15, 0.5]","[0.15, 0.5]",1,1,0,14,14,14,0,3,3,2,,,,,,,,,,,,,,,,,,,,,,,,,,,,,,,,,,,,,,,,,,,,,,,,,,,,,,,,,,,,,,,284.2126564609989,None,284.2126564609989,None,284.2126564609989,None,g,1,0.6535991480013763,285.7461708269984,None,285.7461708269984,None,285.7461708269984,None,286.4628081459996,None,286.4628081459996,None,286.4628081459996,None,286.4628081459996,None,,,,,,,,,,,,,,,,,,,,,,,,,,,,,,,,,,,,,,,,,,,,001,123,2020_Feb_13_1347,spring_faces,3.1.5,59.92462824085173,
condition files/Stage0c_2.xlsx,0c,alpha,theta,h,"['h', 'g']","['Chess', 'Go']","[-0.15, 0.5]","[0.15, 0.5]",1,1,0,15,15,15,0,0,0,0,,,,,,,,,,,,,,,,,,,,,,,,,,,,,,,,,,,,,,,,,,,,,,,,,,,,,,,,,,,,,,,288.44618834299945,None,288.44618834299945,None,288.44618834299945,None,h,1,0.7082234499994229,289.9795920429988,None,289.9795920429988,None,289.9795920429988,None,290.7465261540001,None,290.7465261540001,None,290.7465261540001,None,290.7465261540001,None,,,,,,,,,,,,,,,,,,,,,,,,,,,,,,,,,,,,,,,,,,,,001,123,2020_Feb_13_1347,spring_faces,3.1.5,59.92462824085173,
condition files/Stage0c_2.xlsx,0c,theta,beta,g,"['h', 'g']","['Chess', 'Go']","[-0.15, 0.5]","[0.15, 0.5]",1,1,0,15,15,15,0,1,1,2,,,,,,,,,,,,,,,,,,,,,,,,,,,,,,,,,,,,,,,,,,,,,,,,,,,,,,,,,,,,,,,292.71277769100016,None,292.71277769100016,None,292.71277769100016,None,g,1,0.8257134790001146,294.24609307299943,None,294.24609307299943,None,294.24609307299943,None,295.12958425099896,None,295.12958425099896,None,295.12958425099896,None,295.12958425099896,None,,,,,,,,,,,,,,,,,,,,,,,,,,,,,,,,,,,,,,,,,,,,001,123,2020_Feb_13_1347,spring_faces,3.1.5,59.92462824085173,
condition files/Stage0c_2.xlsx,0c,beta,phi,g,"['h', 'g']","['Chess', 'Go']","[-0.15, 0.5]","[0.15, 0.5]",1,1,0,15,15,15,0,2,2,3,,,,,,,,,,,,,,,,,,,,,,,,,,,,,,,,,,,,,,,,,,,,,,,,,,,,,,,,,,,,,,,297.09604288099945,None,297.09604288099945,None,297.09604288099945,None,g,1,0.682081692999418,298.6296923459995,None,298.6296923459995,None,298.6296923459995,None,299.3468478269988,None,299.3468478269988,None,299.3468478269988,None,299.3468478269988,None,,,,,,,,,,,,,,,,,,,,,,,,,,,,,,,,,,,,,,,,,,,,001,123,2020_Feb_13_1347,spring_faces,3.1.5,59.92462824085173,
condition files/Stage0c_2.xlsx,0c,phi,alpha,h,"['h', 'g']","['Chess', 'Go']","[-0.15, 0.5]","[0.15, 0.5]",1,1,0,15,15,15,0,3,3,1,,,,,,,,,,,,,,,,,,,,,,,,,,,,,,,,,,,,,,,,,,,,,,,,,,,,,,,,,,,,,,,301.3293799189996,None,301.3293799189996,None,301.3293799189996,None,h,1,0.6889852049989713,302.86278866499924,None,302.86278866499924,None,302.86278866499924,None,303.6126284469992,None,303.6126284469992,None,303.6126284469992,None,303.6126284469992,None,,,,,,,,,,,,,,,,,,,,,,,,,,,,,,,,,,,,,,,,,,,,001,123,2020_Feb_13_1347,spring_faces,3.1.5,59.92462824085173,
condition files/Stage0c_1.xlsx,0c,theta,alpha,h,"['h', 'g']","['Chess', 'Go']","[-0.15, 0.5]","[0.15, 0.5]",1,1,0,16,16,16,0,0,0,0,,,,,,,,,,,,,,,,,,,,,,,,,,,,,,,,,,,,,,,,,,,,,,,,,,,,,,,,,,,,,,,305.59631413999887,None,305.59631413999887,None,305.59631413999887,None,h,1,0.8703923419998318,307.12938643099915,None,307.12938643099915,None,307.12938643099915,None,308.04791650900006,None,308.04791650900006,None,308.04791650900006,None,308.04791650900006,None,,,,,,,,,,,,,,,,,,,,,,,,,,,,,,,,,,,,,,,,,,,,001,123,2020_Feb_13_1347,spring_faces,3.1.5,59.92462824085173,
condition files/Stage0c_1.xlsx,0c,alpha,phi,h,"['h', 'g']","['Chess', 'Go']","[-0.15, 0.5]","[0.15, 0.5]",1,1,0,16,16,16,0,1,1,1,,,,,,,,,,,,,,,,,,,,,,,,,,,,,,,,,,,,,,,,,,,,,,,,,,,,,,,,,,,,,,,310.0290696510001,None,310.0290696510001,None,310.0290696510001,None,h,1,0.9167763610003021,311.56294349999916,None,311.56294349999916,None,311.56294349999916,None,312.51394572199933,None,312.51394572199933,None,312.51394572199933,None,312.51394572199933,None,,,,,,,,,,,,,,,,,,,,,,,,,,,,,,,,,,,,,,,,,,,,001,123,2020_Feb_13_1347,spring_faces,3.1.5,59.92462824085173,
condition files/Stage0c_1.xlsx,0c,beta,theta,g,"['h', 'g']","['Chess', 'Go']","[-0.15, 0.5]","[0.15, 0.5]",1,1,0,16,16,16,0,2,2,2,,,,,,,,,,,,,,,,,,,,,,,,,,,,,,,,,,,,,,,,,,,,,,,,,,,,,,,,,,,,,,,314.49619724199874,None,314.49619724199874,None,314.49619724199874,None,g,1,0.6260737100001279,316.02966909299903,None,316.02966909299903,None,316.02966909299903,None,316.71307537699977,None,316.71307537699977,None,316.71307537699977,None,316.71307537699977,None,,,,,,,,,,,,,,,,,,,,,,,,,,,,,,,,,,,,,,,,,,,,001,123,2020_Feb_13_1347,spring_faces,3.1.5,59.92462824085173,
condition files/Stage0c_1.xlsx,0c,phi,beta,g,"['h', 'g']","['Chess', 'Go']","[-0.15, 0.5]","[0.15, 0.5]",1,1,0,16,16,16,0,3,3,3,,,,,,,,,,,,,,,,,,,,,,,,,,,,,,,,,,,,,,,,,,,,,,,,,,,,,,,,,,,,,,,318.67929458099934,None,318.67929458099934,None,318.67929458099934,None,g,1,1.0668426639986137,320.21295285799897,None,320.21295285799897,None,320.21295285799897,None,321.3147547589997,None,321.3147547589997,None,321.3147547589997,None,321.3147547589997,None,,,,,,,,,,,,,,,,,,,,,,,,,,,,,,,,,,,,,,,,,,,,001,123,2020_Feb_13_1347,spring_faces,3.1.5,59.92462824085173,
condition files/Stage0c_2.xlsx,0c,phi,alpha,h,"['h', 'g']","['Chess', 'Go']","[-0.15, 0.5]","[0.15, 0.5]",1,1,0,17,17,17,0,0,0,1,,,,,,,,,,,,,,,,,,,,,,,,,,,,,,,,,,,,,,,,,,,,,,,,,,,,,,,,,,,,,,,323.31266323899945,None,323.31266323899945,None,323.31266323899945,None,h,1,0.4815752490012528,324.8461929239984,None,324.8461929239984,None,324.8461929239984,None,325.37950676799846,None,325.37950676799846,None,325.37950676799846,None,325.37950676799846,None,,,,,,,,,,,,,,,,,,,,,,,,,,,,,,,,,,,,,,,,,,,,001,123,2020_Feb_13_1347,spring_faces,3.1.5,59.92462824085173,
condition files/Stage0c_2.xlsx,0c,theta,beta,g,"['h', 'g']","['Chess', 'Go']","[-0.15, 0.5]","[0.15, 0.5]",1,1,0,17,17,17,0,1,1,2,,,,,,,,,,,,,,,,,,,,,,,,,,,,,,,,,,,,,,,,,,,,,,,,,,,,,,,,,,,,,,,327.3460215979994,None,327.3460215979994,None,327.3460215979994,None,g,1,0.8960863370011793,328.8796476129992,None,328.8796476129992,None,328.8796476129992,None,329.8296855109984,None,329.8296855109984,None,329.8296855109984,None,329.8296855109984,None,,,,,,,,,,,,,,,,,,,,,,,,,,,,,,,,,,,,,,,,,,,,001,123,2020_Feb_13_1347,spring_faces,3.1.5,59.92462824085173,
condition files/Stage0c_2.xlsx,0c,alpha,theta,h,"['h', 'g']","['Chess', 'Go']","[-0.15, 0.5]","[0.15, 0.5]",1,1,0,17,17,17,0,2,2,0,,,,,,,,,,,,,,,,,,,,,,,,,,,,,,,,,,,,,,,,,,,,,,,,,,,,,,,,,,,,,,,331.79563359799977,None,331.79563359799977,None,331.79563359799977,None,h,1,0.6701426250001532,333.32963659899906,None,333.32963659899906,None,333.32963659899906,None,334.06273689499903,None,334.06273689499903,None,334.06273689499903,None,334.06273689499903,None,,,,,,,,,,,,,,,,,,,,,,,,,,,,,,,,,,,,,,,,,,,,001,123,2020_Feb_13_1347,spring_faces,3.1.5,59.92462824085173,
condition files/Stage0c_2.xlsx,0c,beta,phi,g,"['h', 'g']","['Chess', 'Go']","[-0.15, 0.5]","[0.15, 0.5]",1,1,0,17,17,17,0,3,3,3,,,,,,,,,,,,,,,,,,,,,,,,,,,,,,,,,,,,,,,,,,,,,,,,,,,,,,,,,,,,,,,336.02936046799914,None,336.02936046799914,None,336.02936046799914,None,g,1,0.6607971559988073,337.5629287259999,None,337.5629287259999,None,337.5629287259999,None,338.2796964909994,None,338.2796964909994,None,338.2796964909994,None,338.2796964909994,None,,,,,,,,,,,,,,,,,,,,,,,,,,,,,,,,,,,,,,,,,,,,001,123,2020_Feb_13_1347,spring_faces,3.1.5,59.92462824085173,
,,,,,,,,,,,,,,,,,,,,,,,,,,,,,,,,,,,,,,,,,,,,,,,,,,,,,,,,,,,,,,,,,,,,,,,,,,,,,,,,,,,,,,,,,,,,,,,,,,,,,,,,340.26297743599935,None,space,1.856963940001151,345.26287949200014,None,,,,,,,,,,,,,,,,,,,,,,,,,,,,,,,,,,,,,,001,123,2020_Feb_13_1347,spring_faces,3.1.5,59.92462824085173,
condition files/Stage1_1.xlsx,,B4,T4,m,"['c', 'm']","['Clue', 'Monopoly']","[-0.15, 0.5]","[0.15, 0.5]",1,1,,,,,,,,,0,0,0,0,0,0,0,7,,,,,,,,,,,,,,,,,,,,,,,,,,,,,,,,,,,,,,,,,,,,,,,,,,,,,,,347.17929229199945,None,347.17929229199945,None,347.17929229199945,None,m,1,2.1036910639995767,348.6961053289997,None,348.6961053289997,None,348.6961053289997,None,350.8795973739998,None,350.8795973739998,None,350.8795973739998,None,350.8795973739998,None,,,,,,,345.26287949200014,None,,,,,,,,,,,,,,,,,,,,,,,,,,,,,,,,,,,,001,123,2020_Feb_13_1347,spring_faces,3.1.5,59.92462824085173,
condition files/Stage1_1.xlsx,,T4,B3,m,"['c', 'm']","['Clue', 'Monopoly']","[-0.15, 0.5]","[0.15, 0.5]",1,1,,,,,,,,,0,0,0,0,0,1,1,6,,,,,,,,,,,,,,,,,,,,,,,,,,,,,,,,,,,,,,,,,,,,,,,,,,,,,,,352.82917638599974,None,352.82917638599974,None,352.82917638599974,None,c,0,2.8505863599984878,354.36519596299877,None,354.36519596299877,None,354.36519596299877,None,357.27960518799955,None,357.27960518799955,None,357.27960518799955,None,357.27960518799955,None,,,,,,,,,,,,,,,,,,,,,,,,,,,,,,,,,,,,,,,,,,,,001,123,2020_Feb_13_1347,spring_faces,3.1.5,59.92462824085173,
condition files/Stage1_1.xlsx,,T1,B1,c,"['c', 'm']","['Clue', 'Monopoly']","[-0.15, 0.5]","[0.15, 0.5]",1,1,,,,,,,,,0,0,0,0,0,2,2,0,,,,,,,,,,,,,,,,,,,,,,,,,,,,,,,,,,,,,,,,,,,,,,,,,,,,,,,359.24600262499916,None,359.24600262499916,None,359.24600262499916,None,m,0,1.4113759559986647,360.796350998,None,360.796350998,None,360.796350998,None,362.26540183,None,362.26540183,None,362.26540183,None,362.26540183,None,,,,,,,,,,,,,,,,,,,,,,,,,,,,,,,,,,,,,,,,,,,,001,123,2020_Feb_13_1347,spring_faces,3.1.5,59.92462824085173,
condition files/Stage1_1.xlsx,,T2,B2,m,"['c', 'm']","['Clue', 'Monopoly']","[-0.15, 0.5]","[0.15, 0.5]",1,1,,,,,,,,,0,0,0,0,0,3,3,3,,,,,,,,,,,,,,,,,,,,,,,,,,,,,,,,,,,,,,,,,,,,,,,,,,,,,,,364.2290413800001,None,364.2290413800001,None,364.2290413800001,None,m,1,0.9727357949996076,365.76305264499933,None,365.76305264499933,None,365.76305264499933,None,366.8130827389996,None,366.8130827389996,None,366.8130827389996,None,366.8130827389996,None,,,,,,,,,,,,,,,,,,,,,,,,,,,,,,,,,,,,,,,,,,,,001,123,2020_Feb_13_1347,spring_faces,3.1.5,59.92462824085173,
condition files/Stage1_1.xlsx,,B1,T2,c,"['c', 'm']","['Clue', 'Monopoly']","[-0.15, 0.5]","[0.15, 0.5]",1,1,,,,,,,,,0,0,0,0,0,4,4,1,,,,,,,,,,,,,,,,,,,,,,,,,,,,,,,,,,,,,,,,,,,,,,,,,,,,,,,368.7624694779988,None,368.7624694779988,None,368.7624694779988,None,c,1,0.7422547360001772,370.2975713429987,None,370.2975713429987,None,370.2975713429987,None,371.1128231149996,None,371.1128231149996,None,371.1128231149996,None,371.1128231149996,None,,,,,,,,,,,,,,,,,,,,,,,,,,,,,,,,,,,,,,,,,,,,001,123,2020_Feb_13_1347,spring_faces,3.1.5,59.92462824085173,
condition files/Stage1_1.xlsx,,B3,T3,c,"['c', 'm']","['Clue', 'Monopoly']","[-0.15, 0.5]","[0.15, 0.5]",1,1,,,,,,,,,0,0,0,0,0,5,5,4,,,,,,,,,,,,,,,,,,,,,,,,,,,,,,,,,,,,,,,,,,,,,,,,,,,,,,,373.06288069499897,None,373.06288069499897,None,373.06288069499897,None,m,0,0.9872144999990269,374.5965865809994,None,374.5965865809994,None,374.5965865809994,None,375.6462129880001,None,375.6462129880001,None,375.6462129880001,None,375.6462129880001,None,,,,,,,,,,,,,,,,,,,,,,,,,,,,,,,,,,,,,,,,,,,,001,123,2020_Feb_13_1347,spring_faces,3.1.5,59.92462824085173,
condition files/Stage1_1.xlsx,,T3,B4,c,"['c', 'm']","['Clue', 'Monopoly']","[-0.15, 0.5]","[0.15, 0.5]",1,1,,,,,,,,,0,0,0,0,0,6,6,5,,,,,,,,,,,,,,,,,,,,,,,,,,,,,,,,,,,,,,,,,,,,,,,,,,,,,,,377.61272076599926,None,377.61272076599926,None,377.61272076599926,None,c,1,0.6603241979992163,379.1473789769989,None,379.1473789769989,None,379.1473789769989,None,379.8633647739989,None,379.8633647739989,None,379.8633647739989,None,379.8633647739989,None,,,,,,,,,,,,,,,,,,,,,,,,,,,,,,,,,,,,,,,,,,,,001,123,2020_Feb_13_1347,spring_faces,3.1.5,59.92462824085173,
condition files/Stage1_1.xlsx,,B2,T1,m,"['c', 'm']","['Clue', 'Monopoly']","[-0.15, 0.5]","[0.15, 0.5]",1,1,,,,,,,,,0,0,0,0,0,7,7,2,,,,,,,,,,,,,,,,,,,,,,,,,,,,,,,,,,,,,,,,,,,,,,,,,,,,,,,381.8294048589996,None,381.8294048589996,None,381.8294048589996,None,m,1,1.3721884580008918,383.37957253199966,None,383.37957253199966,None,383.37957253199966,None,384.8142954899995,None,384.8142954899995,None,384.8142954899995,None,384.8142954899995,None,,,,,,,,,,,,,,,,,,,,,,,,,,,,,,,,,,,,,,,,,,,,001,123,2020_Feb_13_1347,spring_faces,3.1.5,59.92462824085173,
condition files/Stage1_2.xlsx,,T3,B3,c,"['c', 'm']","['Clue', 'Monopoly']","[-0.15, 0.5]","[0.15, 0.5]",1,1,,,,,,,,,0,1,1,1,0,0,0,4,,,,,,,,,,,,,,,,,,,,,,,,,,,,,,,,,,,,,,,,,,,,,,,,,,,,,,,386.79573449099917,None,386.79573449099917,None,386.79573449099917,None,c,1,1.1745469239995145,388.3292673529995,None,388.3292673529995,None,388.3292673529995,None,389.5797790529996,None,389.5797790529996,None,389.5797790529996,None,389.5797790529996,None,,,,,,,,,,,,,,,,,,,,,,,,,,,,,,,,,,,,,,,,,,,,001,123,2020_Feb_13_1347,spring_faces,3.1.5,59.92462824085173,
condition files/Stage1_2.xlsx,,T4,B4,m,"['c', 'm']","['Clue', 'Monopoly']","[-0.15, 0.5]","[0.15, 0.5]",1,1,,,,,,,,,0,1,1,1,0,1,1,7,,,,,,,,,,,,,,,,,,,,,,,,,,,,,,,,,,,,,,,,,,,,,,,,,,,,,,,391.5290050779986,None,391.5290050779986,None,391.5290050779986,None,m,1,0.7768034469991107,393.06294906899893,None,393.06294906899893,None,393.06294906899893,None,393.8970192889992,None,393.8970192889992,None,393.8970192889992,None,393.8970192889992,None,,,,,,,,,,,,,,,,,,,,,,,,,,,,,,,,,,,,,,,,,,,,001,123,2020_Feb_13_1347,spring_faces,3.1.5,59.92462824085173,
condition files/Stage1_2.xlsx,,B4,T3,c,"['c', 'm']","['Clue', 'Monopoly']","[-0.15, 0.5]","[0.15, 0.5]",1,1,,,,,,,,,0,1,1,1,0,2,2,5,,,,,,,,,,,,,,,,,,,,,,,,,,,,,,,,,,,,,,,,,,,,,,,,,,,,,,,395.86248417599927,None,395.86248417599927,None,395.86248417599927,None,c,1,2.124048407000373,397.395759776,None,397.395759776,None,397.395759776,None,399.596389024,None,399.596389024,None,399.596389024,None,399.596389024,None,,,,,,,,,,,,,,,,,,,,,,,,,,,,,,,,,,,,,,,,,,,,001,123,2020_Feb_13_1347,spring_faces,3.1.5,59.92462824085173,
condition files/Stage1_2.xlsx,,T1,B2,m,"['c', 'm']","['Clue', 'Monopoly']","[-0.15, 0.5]","[0.15, 0.5]",1,1,,,,,,,,,0,1,1,1,0,3,3,2,,,,,,,,,,,,,,,,,,,,,,,,,,,,,,,,,,,,,,,,,,,,,,,,,,,,,,,401.54568228300013,None,401.54568228300013,None,401.54568228300013,None,m,1,1.431805953001458,403.0959521770001,None,403.0959521770001,None,403.0959521770001,None,404.58129875099985,None,404.58129875099985,None,404.58129875099985,None,404.58129875099985,None,,,,,,,,,,,,,,,,,,,,,,,,,,,,,,,,,,,,,,,,,,,,001,123,2020_Feb_13_1347,spring_faces,3.1.5,59.92462824085173,
condition files/Stage1_2.xlsx,,B2,T2,m,"['c', 'm']","['Clue', 'Monopoly']","[-0.15, 0.5]","[0.15, 0.5]",1,1,,,,,,,,,0,1,1,1,0,4,4,3,,,,,,,,,,,,,,,,,,,,,,,,,,,,,,,,,,,,,,,,,,,,,,,,,,,,,,,406.5460566969996,None,406.5460566969996,None,406.5460566969996,None,c,0,1.4878432320001593,408.07994061599857,None,408.07994061599857,None,408.07994061599857,None,409.6295839059985,None,409.6295839059985,None,409.6295839059985,None,409.6295839059985,None,,,,,,,,,,,,,,,,,,,,,,,,,,,,,,,,,,,,,,,,,,,,001,123,2020_Feb_13_1347,spring_faces,3.1.5,59.92462824085173,
condition files/Stage1_2.xlsx,,B3,T4,m,"['c', 'm']","['Clue', 'Monopoly']","[-0.15, 0.5]","[0.15, 0.5]",1,1,,,,,,,,,0,1,1,1,0,5,5,6,,,,,,,,,,,,,,,,,,,,,,,,,,,,,,,,,,,,,,,,,,,,,,,,,,,,,,,411.59605324199947,None,411.59605324199947,None,411.59605324199947,None,m,1,3.1587272559991106,413.12910776399985,None,413.12910776399985,None,413.12910776399985,None,416.3462548539992,None,416.3462548539992,None,416.3462548539992,None,416.3462548539992,None,,,,,,,,,,,,,,,,,,,,,,,,,,,,,,,,,,,,,,,,,,,,001,123,2020_Feb_13_1347,spring_faces,3.1.5,59.92462824085173,
condition files/Stage1_2.xlsx,,T2,B1,c,"['c', 'm']","['Clue', 'Monopoly']","[-0.15, 0.5]","[0.15, 0.5]",1,1,,,,,,,,,0,1,1,1,0,6,6,1,,,,,,,,,,,,,,,,,,,,,,,,,,,,,,,,,,,,,,,,,,,,,,,,,,,,,,,418.31227784399925,None,418.31227784399925,None,418.31227784399925,None,c,1,1.3058599929991033,419.8459171839986,None,419.8459171839986,None,419.8459171839986,None,421.2129464989994,None,421.2129464989994,None,421.2129464989994,None,421.2129464989994,None,,,,,,,,,,,,,,,,,,,,,,,,,,,,,,,,,,,,,,,,,,,,001,123,2020_Feb_13_1347,spring_faces,3.1.5,59.92462824085173,
condition files/Stage1_2.xlsx,,B1,T1,c,"['c', 'm']","['Clue', 'Monopoly']","[-0.15, 0.5]","[0.15, 0.5]",1,1,,,,,,,,,0,1,1,1,0,7,7,0,,,,,,,,,,,,,,,,,,,,,,,,,,,,,,,,,,,,,,,,,,,,,,,,,,,,,,,423.1794220799984,None,423.1794220799984,None,423.1794220799984,None,m,0,1.7176487549986632,424.71410909099905,None,424.71410909099905,None,424.71410909099905,None,426.49551950299974,None,426.49551950299974,None,426.49551950299974,None,426.49551950299974,None,,,,,,,,,,,,,,,,,,,,,,,,,,,,,,,,,,,,,,,,,,,,001,123,2020_Feb_13_1347,spring_faces,3.1.5,59.92462824085173,
condition files/Stage1_1.xlsx,,B2,T1,m,"['c', 'm']","['Clue', 'Monopoly']","[-0.15, 0.5]","[0.15, 0.5]",1,1,,,,,,,,,0,2,2,2,0,0,0,2,,,,,,,,,,,,,,,,,,,,,,,,,,,,,,,,,,,,,,,,,,,,,,,,,,,,,,,428.479629034,None,428.479629034,None,428.479629034,None,c,0,1.379339061999417,430.0124273659985,None,430.0124273659985,None,430.0124273659985,None,431.446913714999,None,431.446913714999,None,431.446913714999,None,431.446913714999,None,,,,,,,,,,,,,,,,,,,,,,,,,,,,,,,,,,,,,,,,,,,,001,123,2020_Feb_13_1347,spring_faces,3.1.5,59.92462824085173,
condition files/Stage1_1.xlsx,,T4,B3,m,"['c', 'm']","['Clue', 'Monopoly']","[-0.15, 0.5]","[0.15, 0.5]",1,1,,,,,,,,,0,2,2,2,0,1,1,6,,,,,,,,,,,,,,,,,,,,,,,,,,,,,,,,,,,,,,,,,,,,,,,,,,,,,,,433.41265813099926,None,433.41265813099926,None,433.41265813099926,None,m,1,0.4939842369985854,434.94585504099996,None,434.94585504099996,None,434.94585504099996,None,435.4965916889996,None,435.4965916889996,None,435.4965916889996,None,435.4965916889996,None,,,,,,,,,,,,,,,,,,,,,,,,,,,,,,,,,,,,,,,,,,,,001,123,2020_Feb_13_1347,spring_faces,3.1.5,59.92462824085173,
condition files/Stage1_1.xlsx,,T1,B1,c,"['c', 'm']","['Clue', 'Monopoly']","[-0.15, 0.5]","[0.15, 0.5]",1,1,,,,,,,,,0,2,2,2,0,2,2,0,,,,,,,,,,,,,,,,,,,,,,,,,,,,,,,,,,,,,,,,,,,,,,,,,,,,,,,437.46203624699956,None,437.46203624699956,None,437.46203624699956,None,c,1,1.145557567000651,438.9981920350001,None,438.9981920350001,None,438.9981920350001,None,440.1989289109988,None,440.1989289109988,None,440.1989289109988,None,440.1989289109988,None,,,,,,,,,,,,,,,,,,,,,,,,,,,,,,,,,,,,,,,,,,,,001,123,2020_Feb_13_1347,spring_faces,3.1.5,59.92462824085173,
condition files/Stage1_1.xlsx,,B3,T3,c,"['c', 'm']","['Clue', 'Monopoly']","[-0.15, 0.5]","[0.15, 0.5]",1,1,,,,,,,,,0,2,2,2,0,3,3,4,,,,,,,,,,,,,,,,,,,,,,,,,,,,,,,,,,,,,,,,,,,,,,,,,,,,,,,442.16236057199967,None,442.16236057199967,None,442.16236057199967,None,m,0,0.720092363000731,443.69569035899985,None,443.69569035899985,None,443.69569035899985,None,444.47969238899896,None,444.47969238899896,None,444.47969238899896,None,444.47969238899896,None,,,,,,,,,,,,,,,,,,,,,,,,,,,,,,,,,,,,,,,,,,,,001,123,2020_Feb_13_1347,spring_faces,3.1.5,59.92462824085173,
condition files/Stage1_1.xlsx,,T3,B4,c,"['c', 'm']","['Clue', 'Monopoly']","[-0.15, 0.5]","[0.15, 0.5]",1,1,,,,,,,,,0,2,2,2,0,4,4,5,,,,,,,,,,,,,,,,,,,,,,,,,,,,,,,,,,,,,,,,,,,,,,,,,,,,,,,446.4459914929994,None,446.4459914929994,None,446.4459914929994,None,c,1,1.4582025360014086,447.98162978099936,None,447.98162978099936,None,447.98162978099936,None,449.4966291289984,None,449.4966291289984,None,449.4966291289984,None,449.4966291289984,None,,,,,,,,,,,,,,,,,,,,,,,,,,,,,,,,,,,,,,,,,,,,001,123,2020_Feb_13_1347,spring_faces,3.1.5,59.92462824085173,
condition files/Stage1_1.xlsx,,B1,T2,c,"['c', 'm']","['Clue', 'Monopoly']","[-0.15, 0.5]","[0.15, 0.5]",1,1,,,,,,,,,0,2,2,2,0,5,5,1,,,,,,,,,,,,,,,,,,,,,,,,,,,,,,,,,,,,,,,,,,,,,,,,,,,,,,,451.462663368,None,451.462663368,None,451.462663368,None,m,0,1.1958981460011273,452.99583203600014,None,452.99583203600014,None,452.99583203600014,None,454.2462234300001,None,454.2462234300001,None,454.2462234300001,None,454.2462234300001,None,,,,,,,,,,,,,,,,,,,,,,,,,,,,,,,,,,,,,,,,,,,,001,123,2020_Feb_13_1347,spring_faces,3.1.5,59.92462824085173,
condition files/Stage1_1.xlsx,,T2,B2,m,"['c', 'm']","['Clue', 'Monopoly']","[-0.15, 0.5]","[0.15, 0.5]",1,1,,,,,,,,,0,2,2,2,0,6,6,3,,,,,,,,,,,,,,,,,,,,,,,,,,,,,,,,,,,,,,,,,,,,,,,,,,,,,,,456.21219445799943,None,456.21219445799943,None,456.21219445799943,None,c,0,1.0379541139991488,457.74580646999857,None,457.74580646999857,None,457.74580646999857,None,458.8463877539998,None,458.8463877539998,None,458.8463877539998,None,458.8463877539998,None,,,,,,,,,,,,,,,,,,,,,,,,,,,,,,,,,,,,,,,,,,,,001,123,2020_Feb_13_1347,spring_faces,3.1.5,59.92462824085173,
condition files/Stage1_1.xlsx,,B4,T4,m,"['c', 'm']","['Clue', 'Monopoly']","[-0.15, 0.5]","[0.15, 0.5]",1,1,,,,,,,,,0,2,2,2,0,7,7,7,,,,,,,,,,,,,,,,,,,,,,,,,,,,,,,,,,,,,,,,,,,,,,,,,,,,,,,460.8126699629993,None,460.8126699629993,None,460.8126699629993,None,c,0,1.0437934919991676,462.3479616789991,None,462.3479616789991,None,462.3479616789991,None,463.4462009159997,None,463.4462009159997,None,463.4462009159997,None,463.4462009159997,None,,,,,,,,,,,,,,,,,,,,,,,,,,,,,,,,,,,,,,,,,,,,001,123,2020_Feb_13_1347,spring_faces,3.1.5,59.92462824085173,
condition files/Stage1_2.xlsx,,T2,B1,c,"['c', 'm']","['Clue', 'Monopoly']","[-0.15, 0.5]","[0.15, 0.5]",1,1,,,,,,,,,0,3,3,3,0,0,0,1,,,,,,,,,,,,,,,,,,,,,,,,,,,,,,,,,,,,,,,,,,,,,,,,,,,,,,,465.4297448569996,None,465.4297448569996,None,465.4297448569996,None,m,0,0.5732520399997156,466.9625680699992,None,466.9625680699992,None,466.9625680699992,None,467.5980218799996,None,467.5980218799996,None,467.5980218799996,None,467.5980218799996,None,,,,,,,,,,,,,,,,,,,,,,,,,,,,,,,,,,,,,,,,,,,,001,123,2020_Feb_13_1347,spring_faces,3.1.5,59.92462824085173,
condition files/Stage1_2.xlsx,,B4,T3,c,"['c', 'm']","['Clue', 'Monopoly']","[-0.15, 0.5]","[0.15, 0.5]",1,1,,,,,,,,,0,3,3,3,0,1,1,5,,,,,,,,,,,,,,,,,,,,,,,,,,,,,,,,,,,,,,,,,,,,,,,,,,,,,,,469.56252327499897,None,469.56252327499897,None,469.56252327499897,None,m,0,0.7421880720012268,471.0976784609993,None,471.0976784609993,None,471.0976784609993,None,471.89625439500014,None,471.89625439500014,None,471.89625439500014,None,471.89625439500014,None,,,,,,,,,,,,,,,,,,,,,,,,,,,,,,,,,,,,,,,,,,,,001,123,2020_Feb_13_1347,spring_faces,3.1.5,59.92462824085173,
condition files/Stage1_2.xlsx,,T3,B3,c,"['c', 'm']","['Clue', 'Monopoly']","[-0.15, 0.5]","[0.15, 0.5]",1,1,,,,,,,,,0,3,3,3,0,2,2,4,,,,,,,,,,,,,,,,,,,,,,,,,,,,,,,,,,,,,,,,,,,,,,,,,,,,,,,473.8627075589993,None,473.8627075589993,None,473.8627075589993,None,m,0,1.3385876460015425,475.4131847079989,None,475.4131847079989,None,475.4131847079989,None,476.8127429689994,None,476.8127429689994,None,476.8127429689994,None,476.8127429689994,None,,,,,,,,,,,,,,,,,,,,,,,,,,,,,,,,,,,,,,,,,,,,001,123,2020_Feb_13_1347,spring_faces,3.1.5,59.92462824085173,
condition files/Stage1_2.xlsx,,B1,T1,c,"['c', 'm']","['Clue', 'Monopoly']","[-0.15, 0.5]","[0.15, 0.5]",1,1,,,,,,,,,0,3,3,3,0,3,3,0,,,,,,,,,,,,,,,,,,,,,,,,,,,,,,,,,,,,,,,,,,,,,,,,,,,,,,,478.77900837999914,None,478.77900837999914,None,478.77900837999914,None,c,1,0.4060203739991266,480.32979017399884,None,480.32979017399884,None,480.32979017399884,None,480.79649184499976,None,480.79649184499976,None,480.79649184499976,None,480.79649184499976,None,,,,,,,,,,,,,,,,,,,,,,,,,,,,,,,,,,,,,,,,,,,,001,123,2020_Feb_13_1347,spring_faces,3.1.5,59.92462824085173,
condition files/Stage1_2.xlsx,,T1,B2,m,"['c', 'm']","['Clue', 'Monopoly']","[-0.15, 0.5]","[0.15, 0.5]",1,1,,,,,,,,,0,3,3,3,0,4,4,2,,,,,,,,,,,,,,,,,,,,,,,,,,,,,,,,,,,,,,,,,,,,,,,,,,,,,,,482.762259445999,None,482.762259445999,None,482.762259445999,None,c,0,1.8943015310014744,484.29743748799956,None,484.29743748799956,None,484.29743748799956,None,486.2471009029996,None,486.2471009029996,None,486.2471009029996,None,486.2471009029996,None,,,,,,,,,,,,,,,,,,,,,,,,,,,,,,,,,,,,,,,,,,,,001,123,2020_Feb_13_1347,spring_faces,3.1.5,59.92462824085173,
condition files/Stage1_2.xlsx,,B3,T4,m,"['c', 'm']","['Clue', 'Monopoly']","[-0.15, 0.5]","[0.15, 0.5]",1,1,,,,,,,,,0,3,3,3,0,5,5,6,,,,,,,,,,,,,,,,,,,,,,,,,,,,,,,,,,,,,,,,,,,,,,,,,,,,,,,488.2127196900001,None,488.2127196900001,None,488.2127196900001,None,m,1,0.6211679219995858,489.74660137499995,None,489.74660137499995,None,489.74660137499995,None,490.42973361199984,None,490.42973361199984,None,490.42973361199984,None,490.42973361199984,None,,,,,,,,,,,,,,,,,,,,,,,,,,,,,,,,,,,,,,,,,,,,001,123,2020_Feb_13_1347,spring_faces,3.1.5,59.92462824085173,
condition files/Stage1_2.xlsx,,B2,T2,m,"['c', 'm']","['Clue', 'Monopoly']","[-0.15, 0.5]","[0.15, 0.5]",1,1,,,,,,,,,0,3,3,3,0,6,6,3,,,,,,,,,,,,,,,,,,,,,,,,,,,,,,,,,,,,,,,,,,,,,,,,,,,,,,,492.3959787949989,None,492.3959787949989,None,492.3959787949989,None,c,0,1.4618602049995388,493.9298616420001,None,493.9298616420001,None,493.9298616420001,None,495.4456491429992,None,495.4456491429992,None,495.4456491429992,None,495.4456491429992,None,,,,,,,,,,,,,,,,,,,,,,,,,,,,,,,,,,,,,,,,,,,,001,123,2020_Feb_13_1347,spring_faces,3.1.5,59.92462824085173,
condition files/Stage1_2.xlsx,,T4,B4,m,"['c', 'm']","['Clue', 'Monopoly']","[-0.15, 0.5]","[0.15, 0.5]",1,1,,,,,,,,,0,3,3,3,0,7,7,7,,,,,,,,,,,,,,,,,,,,,,,,,,,,,,,,,,,,,,,,,,,,,,,,,,,,,,,497.4126982029993,None,497.4126982029993,None,497.4126982029993,None,c,0,1.3578400799997326,498.9459797419986,None,498.9459797419986,None,498.9459797419986,None,500.3628331429991,None,500.3628331429991,None,500.3628331429991,None,500.3628331429991,None,,,,,,,,,,,,,,,,,,,,,,,,,,,,,,,,,,,,,,,,,,,,001,123,2020_Feb_13_1347,spring_faces,3.1.5,59.92462824085173,
condition files/Stage1_1.xlsx,,T3,B4,c,"['c', 'm']","['Clue', 'Monopoly']","[-0.15, 0.5]","[0.15, 0.5]",1,1,,,,,,,,,0,4,4,4,0,0,0,5,,,,,,,,,,,,,,,,,,,,,,,,,,,,,,,,,,,,,,,,,,,,,,,,,,,,,,,502.346248455,None,502.346248455,None,502.346248455,None,c,1,1.5285617550016468,503.87916697499895,None,503.87916697499895,None,503.87916697499895,None,505.463610286999,None,505.463610286999,None,505.463610286999,None,505.463610286999,None,,,,,,,,,,,,,,,,,,,,,,,,,,,,,,,,,,,,,,,,,,,,001,123,2020_Feb_13_1347,spring_faces,3.1.5,59.92462824085173,
condition files/Stage1_1.xlsx,,B4,T4,m,"['c', 'm']","['Clue', 'Monopoly']","[-0.15, 0.5]","[0.15, 0.5]",1,1,,,,,,,,,0,4,4,4,0,1,1,7,,,,,,,,,,,,,,,,,,,,,,,,,,,,,,,,,,,,,,,,,,,,,,,,,,,,,,,507.4295379219984,None,507.4295379219984,None,507.4295379219984,None,c,0,1.2607975949995307,508.9629344069999,None,508.9629344069999,None,508.9629344069999,None,510.28177840399985,None,510.28177840399985,None,510.28177840399985,None,510.28177840399985,None,,,,,,,,,,,,,,,,,,,,,,,,,,,,,,,,,,,,,,,,,,,,001,123,2020_Feb_13_1347,spring_faces,3.1.5,59.92462824085173,
condition files/Stage1_1.xlsx,,B3,T3,c,"['c', 'm']","['Clue', 'Monopoly']","[-0.15, 0.5]","[0.15, 0.5]",1,1,,,,,,,,,0,4,4,4,0,2,2,4,,,,,,,,,,,,,,,,,,,,,,,,,,,,,,,,,,,,,,,,,,,,,,,,,,,,,,,512.246130518999,None,512.246130518999,None,512.246130518999,None,m,0,0.6205867169992416,513.7791971319984,None,513.7791971319984,None,513.7791971319984,None,514.462559444999,None,514.462559444999,None,514.462559444999,None,514.462559444999,None,,,,,,,,,,,,,,,,,,,,,,,,,,,,,,,,,,,,,,,,,,,,001,123,2020_Feb_13_1347,spring_faces,3.1.5,59.92462824085173,
condition files/Stage1_1.xlsx,,B2,T1,m,"['c', 'm']","['Clue', 'Monopoly']","[-0.15, 0.5]","[0.15, 0.5]",1,1,,,,,,,,,0,4,4,4,0,3,3,2,,,,,,,,,,,,,,,,,,,,,,,,,,,,,,,,,,,,,,,,,,,,,,,,,,,,,,,516.4297630509991,None,516.4297630509991,None,516.4297630509991,None,c,0,1.0928477899997233,517.9629053099998,None,517.9629053099998,None,517.9629053099998,None,519.1296973579992,None,519.1296973579992,None,519.1296973579992,None,519.1296973579992,None,,,,,,,,,,,,,,,,,,,,,,,,,,,,,,,,,,,,,,,,,,,,001,123,2020_Feb_13_1347,spring_faces,3.1.5,59.92462824085173,
condition files/Stage1_1.xlsx,,T1,B1,c,"['c', 'm']","['Clue', 'Monopoly']","[-0.15, 0.5]","[0.15, 0.5]",1,1,,,,,,,,,0,4,4,4,0,4,4,0,,,,,,,,,,,,,,,,,,,,,,,,,,,,,,,,,,,,,,,,,,,,,,,,,,,,,,,521.0788140469995,None,521.0788140469995,None,521.0788140469995,None,c,1,1.4499184649994277,522.6138030980001,None,522.6138030980001,None,522.6138030980001,None,524.130570669,None,524.130570669,None,524.130570669,None,524.130570669,None,,,,,,,,,,,,,,,,,,,,,,,,,,,,,,,,,,,,,,,,,,,,001,123,2020_Feb_13_1347,spring_faces,3.1.5,59.92462824085173,
condition files/Stage1_1.xlsx,,T4,B3,m,"['c', 'm']","['Clue', 'Monopoly']","[-0.15, 0.5]","[0.15, 0.5]",1,1,,,,,,,,,0,4,4,4,0,5,5,6,,,,,,,,,,,,,,,,,,,,,,,,,,,,,,,,,,,,,,,,,,,,,,,,,,,,,,,526.0959852769993,None,526.0959852769993,None,526.0959852769993,None,m,1,0.6724692589996266,527.6313572059989,None,527.6313572059989,None,527.6313572059989,None,528.3645754129993,None,528.3645754129993,None,528.3645754129993,None,528.3645754129993,None,,,,,,,,,,,,,,,,,,,,,,,,,,,,,,,,,,,,,,,,,,,,001,123,2020_Feb_13_1347,spring_faces,3.1.5,59.92462824085173,
condition files/Stage1_1.xlsx,,B1,T2,c,"['c', 'm']","['Clue', 'Monopoly']","[-0.15, 0.5]","[0.15, 0.5]",1,1,,,,,,,,,0,4,4,4,0,6,6,1,,,,,,,,,,,,,,,,,,,,,,,,,,,,,,,,,,,,,,,,,,,,,,,,,,,,,,,530.3287266729985,None,530.3287266729985,None,530.3287266729985,None,c,1,1.0651885199986282,531.8625737169987,None,531.8625737169987,None,531.8625737169987,None,532.9815123389999,None,532.9815123389999,None,532.9815123389999,None,532.9815123389999,None,,,,,,,,,,,,,,,,,,,,,,,,,,,,,,,,,,,,,,,,,,,,001,123,2020_Feb_13_1347,spring_faces,3.1.5,59.92462824085173,
condition files/Stage1_1.xlsx,,T2,B2,m,"['c', 'm']","['Clue', 'Monopoly']","[-0.15, 0.5]","[0.15, 0.5]",1,1,,,,,,,,,0,4,4,4,0,7,7,3,,,,,,,,,,,,,,,,,,,,,,,,,,,,,,,,,,,,,,,,,,,,,,,,,,,,,,,534.9454228589984,None,534.9454228589984,None,534.9454228589984,None,m,1,1.3446867620004923,536.4790718439999,None,536.4790718439999,None,536.4790718439999,None,537.8803117789994,None,537.8803117789994,None,537.8803117789994,None,537.8803117789994,None,,,,,,,,,,,,,,,,,,,,,,,,,,,,,,,,,,,,,,,,,,,,001,123,2020_Feb_13_1347,spring_faces,3.1.5,59.92462824085173,
condition files/Stage1_2.xlsx,,B1,T1,c,"['c', 'm']","['Clue', 'Monopoly']","[-0.15, 0.5]","[0.15, 0.5]",1,1,,,,,,,,,0,5,5,5,0,0,0,0,,,,,,,,,,,,,,,,,,,,,,,,,,,,,,,,,,,,,,,,,,,,,,,,,,,,,,,539.8628505799988,None,539.8628505799988,None,539.8628505799988,None,c,1,0.6355809919987223,541.3961870570001,None,541.3961870570001,None,541.3961870570001,None,542.0975732419993,None,542.0975732419993,None,542.0975732419993,None,542.0975732419993,None,,,,,,,,,,,,,,,,,,,,,,,,,,,,,,,,,,,,,,,,,,,,001,123,2020_Feb_13_1347,spring_faces,3.1.5,59.92462824085173,
condition files/Stage1_2.xlsx,,B3,T4,m,"['c', 'm']","['Clue', 'Monopoly']","[-0.15, 0.5]","[0.15, 0.5]",1,1,,,,,,,,,0,5,5,5,0,1,1,6,,,,,,,,,,,,,,,,,,,,,,,,,,,,,,,,,,,,,,,,,,,,,,,,,,,,,,,544.0626313369994,None,544.0626313369994,None,544.0626313369994,None,m,1,0.7076998709999316,545.5961187209996,None,545.5961187209996,None,545.5961187209996,None,546.3650460019999,None,546.3650460019999,None,546.3650460019999,None,546.3650460019999,None,,,,,,,,,,,,,,,,,,,,,,,,,,,,,,,,,,,,,,,,,,,,001,123,2020_Feb_13_1347,spring_faces,3.1.5,59.92462824085173,
condition files/Stage1_2.xlsx,,T3,B3,c,"['c', 'm']","['Clue', 'Monopoly']","[-0.15, 0.5]","[0.15, 0.5]",1,1,,,,,,,,,0,5,5,5,0,2,2,4,,,,,,,,,,,,,,,,,,,,,,,,,,,,,,,,,,,,,,,,,,,,,,,,,,,,,,,548.3286995639992,None,548.3286995639992,None,548.3286995639992,None,c,1,0.5852181509999355,549.8625538699998,None,549.8625538699998,None,549.8625538699998,None,550.5125379289984,None,550.5125379289984,None,550.5125379289984,None,550.5125379289984,None,,,,,,,,,,,,,,,,,,,,,,,,,,,,,,,,,,,,,,,,,,,,001,123,2020_Feb_13_1347,spring_faces,3.1.5,59.92462824085173,
condition files/Stage1_2.xlsx,,T4,B4,m,"['c', 'm']","['Clue', 'Monopoly']","[-0.15, 0.5]","[0.15, 0.5]",1,1,,,,,,,,,0,5,5,5,0,3,3,7,,,,,,,,,,,,,,,,,,,,,,,,,,,,,,,,,,,,,,,,,,,,,,,,,,,,,,,552.4793169859986,None,552.4793169859986,None,552.4793169859986,None,m,1,1.0088726939993649,554.0148956519988,None,554.0148956519988,None,554.0148956519988,None,555.0962458319991,None,555.0962458319991,None,555.0962458319991,None,555.0962458319991,None,,,,,,,,,,,,,,,,,,,,,,,,,,,,,,,,,,,,,,,,,,,,001,123,2020_Feb_13_1347,spring_faces,3.1.5,59.92462824085173,
condition files/Stage1_2.xlsx,,T2,B1,c,"['c', 'm']","['Clue', 'Monopoly']","[-0.15, 0.5]","[0.15, 0.5]",1,1,,,,,,,,,0,5,5,5,0,4,4,1,,,,,,,,,,,,,,,,,,,,,,,,,,,,,,,,,,,,,,,,,,,,,,,,,,,,,,,557.0453949999992,None,557.0453949999992,None,557.0453949999992,None,c,1,1.241895993000071,558.5818554439993,None,558.5818554439993,None,558.5818554439993,None,559.8809202849989,None,559.8809202849989,None,559.8809202849989,None,559.8809202849989,None,,,,,,,,,,,,,,,,,,,,,,,,,,,,,,,,,,,,,,,,,,,,001,123,2020_Feb_13_1347,spring_faces,3.1.5,59.92462824085173,
condition files/Stage1_2.xlsx,,B4,T3,c,"['c', 'm']","['Clue', 'Monopoly']","[-0.15, 0.5]","[0.15, 0.5]",1,1,,,,,,,,,0,5,5,5,0,5,5,5,,,,,,,,,,,,,,,,,,,,,,,,,,,,,,,,,,,,,,,,,,,,,,,,,,,,,,,561.8458413619992,None,561.8458413619992,None,561.8458413619992,None,c,1,1.1796202750010707,563.3801284189994,None,563.3801284189994,None,563.3801284189994,None,564.6122941630001,None,564.6122941630001,None,564.6122941630001,None,564.6122941630001,None,,,,,,,,,,,,,,,,,,,,,,,,,,,,,,,,,,,,,,,,,,,,001,123,2020_Feb_13_1347,spring_faces,3.1.5,59.92462824085173,
condition files/Stage1_2.xlsx,,T1,B2,m,"['c', 'm']","['Clue', 'Monopoly']","[-0.15, 0.5]","[0.15, 0.5]",1,1,,,,,,,,,0,5,5,5,0,6,6,2,,,,,,,,,,,,,,,,,,,,,,,,,,,,,,,,,,,,,,,,,,,,,,,,,,,,,,,566.578952238,None,566.578952238,None,566.578952238,None,c,0,1.3741052679997665,568.1297098439991,None,568.1297098439991,None,568.1297098439991,None,569.5798966169987,None,569.5798966169987,None,569.5798966169987,None,569.5798966169987,None,,,,,,,,,,,,,,,,,,,,,,,,,,,,,,,,,,,,,,,,,,,,001,123,2020_Feb_13_1347,spring_faces,3.1.5,59.92462824085173,
condition files/Stage1_2.xlsx,,B2,T2,m,"['c', 'm']","['Clue', 'Monopoly']","[-0.15, 0.5]","[0.15, 0.5]",1,1,,,,,,,,,0,5,5,5,0,7,7,3,,,,,,,,,,,,,,,,,,,,,,,,,,,,,,,,,,,,,,,,,,,,,,,,,,,,,,,571.5287935479992,None,571.5287935479992,None,571.5287935479992,None,m,1,0.7905834209996101,573.0651766489991,None,573.0651766489991,None,573.0651766489991,None,573.9131960089999,None,573.9131960089999,None,573.9131960089999,None,573.9131960089999,None,,,,,,,,,,,,,,,,,,,,,,,,,,,,,,,,,,,,,,,,,,,,001,123,2020_Feb_13_1347,spring_faces,3.1.5,59.92462824085173,
condition files/Stage1_1.xlsx,,T1,B1,c,"['c', 'm']","['Clue', 'Monopoly']","[-0.15, 0.5]","[0.15, 0.5]",1,1,,,,,,,,,0,6,6,6,0,0,0,0,,,,,,,,,,,,,,,,,,,,,,,,,,,,,,,,,,,,,,,,,,,,,,,,,,,,,,,575.8961470879985,None,575.8961470879985,None,575.8961470879985,None,c,1,1.2899543540006562,577.4298688259987,None,577.4298688259987,None,577.4298688259987,None,578.779939308999,None,578.779939308999,None,578.779939308999,None,578.779939308999,None,,,,,,,,,,,,,,,,,,,,,,,,,,,,,,,,,,,,,,,,,,,,001,123,2020_Feb_13_1347,spring_faces,3.1.5,59.92462824085173,
condition files/Stage1_1.xlsx,,B4,T4,m,"['c', 'm']","['Clue', 'Monopoly']","[-0.15, 0.5]","[0.15, 0.5]",1,1,,,,,,,,,0,6,6,6,0,1,1,7,,,,,,,,,,,,,,,,,,,,,,,,,,,,,,,,,,,,,,,,,,,,,,,,,,,,,,,580.7459638909986,None,580.7459638909986,None,580.7459638909986,None,m,1,1.8328900939995947,582.2788911749994,None,582.2788911749994,None,582.2788911749994,None,584.1647536229993,None,584.1647536229993,None,584.1647536229993,None,584.1647536229993,None,,,,,,,,,,,,,,,,,,,,,,,,,,,,,,,,,,,,,,,,,,,,001,123,2020_Feb_13_1347,spring_faces,3.1.5,59.92462824085173,
condition files/Stage1_1.xlsx,,T3,B4,c,"['c', 'm']","['Clue', 'Monopoly']","[-0.15, 0.5]","[0.15, 0.5]",1,1,,,,,,,,,0,6,6,6,0,2,2,5,,,,,,,,,,,,,,,,,,,,,,,,,,,,,,,,,,,,,,,,,,,,,,,,,,,,,,,586.1293385069985,None,586.1293385069985,None,586.1293385069985,None,c,1,1.1057965390009485,587.6619768469991,None,587.6619768469991,None,587.6619768469991,None,588.8302782289993,None,588.8302782289993,None,588.8302782289993,None,588.8302782289993,None,,,,,,,,,,,,,,,,,,,,,,,,,,,,,,,,,,,,,,,,,,,,001,123,2020_Feb_13_1347,spring_faces,3.1.5,59.92462824085173,
condition files/Stage1_1.xlsx,,T2,B2,m,"['c', 'm']","['Clue', 'Monopoly']","[-0.15, 0.5]","[0.15, 0.5]",1,1,,,,,,,,,0,6,6,6,0,3,3,3,,,,,,,,,,,,,,,,,,,,,,,,,,,,,,,,,,,,,,,,,,,,,,,,,,,,,,,590.7964627579986,None,590.7964627579986,None,590.7964627579986,None,m,1,0.7103277599999274,592.329524883,None,592.329524883,None,592.329524883,None,593.1129591359986,None,593.1129591359986,None,593.1129591359986,None,593.1129591359986,None,,,,,,,,,,,,,,,,,,,,,,,,,,,,,,,,,,,,,,,,,,,,001,123,2020_Feb_13_1347,spring_faces,3.1.5,59.92462824085173,
condition files/Stage1_1.xlsx,,B3,T3,c,"['c', 'm']","['Clue', 'Monopoly']","[-0.15, 0.5]","[0.15, 0.5]",1,1,,,,,,,,,0,6,6,6,0,4,4,4,,,,,,,,,,,,,,,,,,,,,,,,,,,,,,,,,,,,,,,,,,,,,,,,,,,,,,,595.062312348,None,595.062312348,None,595.062312348,None,m,0,0.8116367580005317,596.5960920079997,None,596.5960920079997,None,596.5960920079997,None,597.4647008020002,None,597.4647008020002,None,597.4647008020002,None,597.4647008020002,None,,,,,,,,,,,,,,,,,,,,,,,,,,,,,,,,,,,,,,,,,,,,001,123,2020_Feb_13_1347,spring_faces,3.1.5,59.92462824085173,
condition files/Stage1_1.xlsx,,T4,B3,m,"['c', 'm']","['Clue', 'Monopoly']","[-0.15, 0.5]","[0.15, 0.5]",1,1,,,,,,,,,0,6,6,6,0,5,5,6,,,,,,,,,,,,,,,,,,,,,,,,,,,,,,,,,,,,,,,,,,,,,,,,,,,,,,,599.429621371999,None,599.429621371999,None,599.429621371999,None,c,0,0.8449229830002878,600.962804756,None,600.962804756,None,600.962804756,None,601.8794494049998,None,601.8794494049998,None,601.8794494049998,None,601.8794494049998,None,,,,,,,,,,,,,,,,,,,,,,,,,,,,,,,,,,,,,,,,,,,,001,123,2020_Feb_13_1347,spring_faces,3.1.5,59.92462824085173,
condition files/Stage1_1.xlsx,,B2,T1,m,"['c', 'm']","['Clue', 'Monopoly']","[-0.15, 0.5]","[0.15, 0.5]",1,1,,,,,,,,,0,6,6,6,0,6,6,2,,,,,,,,,,,,,,,,,,,,,,,,,,,,,,,,,,,,,,,,,,,,,,,,,,,,,,,603.8289991029997,None,603.8289991029997,None,603.8289991029997,None,c,0,0.9081956629997876,605.3796165049989,None,605.3796165049989,None,605.3796165049989,None,606.345723512999,None,606.345723512999,None,606.345723512999,None,606.345723512999,None,,,,,,,,,,,,,,,,,,,,,,,,,,,,,,,,,,,,,,,,,,,,001,123,2020_Feb_13_1347,spring_faces,3.1.5,59.92462824085173,
condition files/Stage1_1.xlsx,,B1,T2,c,"['c', 'm']","['Clue', 'Monopoly']","[-0.15, 0.5]","[0.15, 0.5]",1,1,,,,,,,,,0,6,6,6,0,7,7,1,,,,,,,,,,,,,,,,,,,,,,,,,,,,,,,,,,,,,,,,,,,,,,,,,,,,,,,608.3127469849987,None,608.3127469849987,None,608.3127469849987,None,c,1,1.624869604000196,609.8469551929993,None,609.8469551929993,None,609.8469551929993,None,611.5314947019997,None,611.5314947019997,None,611.5314947019997,None,611.5314947019997,None,,,,,,,,,,,,,,,,,,,,,,,,,,,,,,,,,,,,,,,,,,,,001,123,2020_Feb_13_1347,spring_faces,3.1.5,59.92462824085173,
condition files/Stage1_2.xlsx,,B2,T2,m,"['c', 'm']","['Clue', 'Monopoly']","[-0.15, 0.5]","[0.15, 0.5]",1,1,,,,,,,,,0,7,7,7,0,0,0,3,,,,,,,,,,,,,,,,,,,,,,,,,,,,,,,,,,,,,,,,,,,,,,,,,,,,,,,613.5129749099997,None,613.5129749099997,None,613.5129749099997,None,m,1,0.7771032599994214,615.0466529509995,None,615.0466529509995,None,615.0466529509995,None,615.8964391649988,None,615.8964391649988,None,615.8964391649988,None,615.8964391649988,None,,,,,,,,,,,,,,,,,,,,,,,,,,,,,,,,,,,,,,,,,,,,001,123,2020_Feb_13_1347,spring_faces,3.1.5,59.92462824085173,
condition files/Stage1_2.xlsx,,T1,B2,m,"['c', 'm']","['Clue', 'Monopoly']","[-0.15, 0.5]","[0.15, 0.5]",1,1,,,,,,,,,0,7,7,7,0,1,1,2,,,,,,,,,,,,,,,,,,,,,,,,,,,,,,,,,,,,,,,,,,,,,,,,,,,,,,,617.8459772400001,None,617.8459772400001,None,617.8459772400001,None,c,0,0.7639946230010537,619.379759984,None,619.379759984,None,619.379759984,None,620.1967399719997,None,620.1967399719997,None,620.1967399719997,None,620.1967399719997,None,,,,,,,,,,,,,,,,,,,,,,,,,,,,,,,,,,,,,,,,,,,,001,123,2020_Feb_13_1347,spring_faces,3.1.5,59.92462824085173,
condition files/Stage1_2.xlsx,,T3,B3,c,"['c', 'm']","['Clue', 'Monopoly']","[-0.15, 0.5]","[0.15, 0.5]",1,1,,,,,,,,,0,7,7,7,0,2,2,4,,,,,,,,,,,,,,,,,,,,,,,,,,,,,,,,,,,,,,,,,,,,,,,,,,,,,,,622.1624393369984,None,622.1624393369984,None,622.1624393369984,None,m,0,1.9673955439993733,623.696319097,None,623.696319097,None,623.696319097,None,625.7463075790001,None,625.7463075790001,None,625.7463075790001,None,625.7463075790001,None,,,,,,,,,,,,,,,,,,,,,,,,,,,,,,,,,,,,,,,,,,,,001,123,2020_Feb_13_1347,spring_faces,3.1.5,59.92462824085173,
condition files/Stage1_2.xlsx,,T4,B4,m,"['c', 'm']","['Clue', 'Monopoly']","[-0.15, 0.5]","[0.15, 0.5]",1,1,,,,,,,,,0,7,7,7,0,3,3,7,,,,,,,,,,,,,,,,,,,,,,,,,,,,,,,,,,,,,,,,,,,,,,,,,,,,,,,627.6955067349991,None,627.6955067349991,None,627.6955067349991,None,c,0,1.746761215999868,629.2289925349996,None,629.2289925349996,None,629.2289925349996,None,631.0462888450002,None,631.0462888450002,None,631.0462888450002,None,631.0462888450002,None,,,,,,,,,,,,,,,,,,,,,,,,,,,,,,,,,,,,,,,,,,,,001,123,2020_Feb_13_1347,spring_faces,3.1.5,59.92462824085173,
condition files/Stage1_2.xlsx,,B4,T3,c,"['c', 'm']","['Clue', 'Monopoly']","[-0.15, 0.5]","[0.15, 0.5]",1,1,,,,,,,,,0,7,7,7,0,4,4,5,,,,,,,,,,,,,,,,,,,,,,,,,,,,,,,,,,,,,,,,,,,,,,,,,,,,,,,632.9957908659999,None,632.9957908659999,None,632.9957908659999,None,m,0,3.0531125649995374,634.5307057739992,None,634.5307057739992,None,634.5307057739992,None,637.6467419029996,None,637.6467419029996,None,637.6467419029996,None,637.6467419029996,None,,,,,,,,,,,,,,,,,,,,,,,,,,,,,,,,,,,,,,,,,,,,001,123,2020_Feb_13_1347,spring_faces,3.1.5,59.92462824085173,
condition files/Stage1_2.xlsx,,B3,T4,m,"['c', 'm']","['Clue', 'Monopoly']","[-0.15, 0.5]","[0.15, 0.5]",1,1,,,,,,,,,0,7,7,7,0,5,5,6,,,,,,,,,,,,,,,,,,,,,,,,,,,,,,,,,,,,,,,,,,,,,,,,,,,,,,,639.6127308759987,None,639.6127308759987,None,639.6127308759987,None,m,1,0.8219312229994102,641.1458639869998,None,641.1458639869998,None,641.1458639869998,None,642.0295395949997,None,642.0295395949997,None,642.0295395949997,None,642.0295395949997,None,,,,,,,,,,,,,,,,,,,,,,,,,,,,,,,,,,,,,,,,,,,,001,123,2020_Feb_13_1347,spring_faces,3.1.5,59.92462824085173,
condition files/Stage1_2.xlsx,,T2,B1,c,"['c', 'm']","['Clue', 'Monopoly']","[-0.15, 0.5]","[0.15, 0.5]",1,1,,,,,,,,,0,7,7,7,0,6,6,1,,,,,,,,,,,,,,,,,,,,,,,,,,,,,,,,,,,,,,,,,,,,,,,,,,,,,,,643.9960186729986,None,643.9960186729986,None,643.9960186729986,None,c,1,0.8362613509998482,645.5315273999986,None,645.5315273999986,None,645.5315273999986,None,646.4295658619994,None,646.4295658619994,None,646.4295658619994,None,646.4295658619994,None,,,,,,,,,,,,,,,,,,,,,,,,,,,,,,,,,,,,,,,,,,,,001,123,2020_Feb_13_1347,spring_faces,3.1.5,59.92462824085173,
condition files/Stage1_2.xlsx,,B1,T1,c,"['c', 'm']","['Clue', 'Monopoly']","[-0.15, 0.5]","[0.15, 0.5]",1,1,,,,,,,,,0,7,7,7,0,7,7,0,,,,,,,,,,,,,,,,,,,,,,,,,,,,,,,,,,,,,,,,,,,,,,,,,,,,,,,648.3957895240001,None,648.3957895240001,None,648.3957895240001,None,c,1,1.3485348770009296,649.9312015299984,None,649.9312015299984,None,649.9312015299984,None,651.3460151489999,None,651.3460151489999,None,651.3460151489999,None,651.3460151489999,None,,,,,,,,,,,,,,,,,,,,,,,,,,,,,,,,,,,,,,,,,,,,001,123,2020_Feb_13_1347,spring_faces,3.1.5,59.92462824085173,
condition files/Stage1_1.xlsx,,T3,B4,c,"['c', 'm']","['Clue', 'Monopoly']","[-0.15, 0.5]","[0.15, 0.5]",1,1,,,,,,,,,0,8,8,8,0,0,0,5,,,,,,,,,,,,,,,,,,,,,,,,,,,,,,,,,,,,,,,,,,,,,,,,,,,,,,,653.3294317559994,None,653.3294317559994,None,653.3294317559994,None,m,0,1.9040507030003937,654.8797330079997,None,654.8797330079997,None,654.8797330079997,None,656.8456622129997,None,656.8456622129997,None,656.8456622129997,None,656.8456622129997,None,,,,,,,,,,,,,,,,,,,,,,,,,,,,,,,,,,,,,,,,,,,,001,123,2020_Feb_13_1347,spring_faces,3.1.5,59.92462824085173,
condition files/Stage1_1.xlsx,,B1,T2,c,"['c', 'm']","['Clue', 'Monopoly']","[-0.15, 0.5]","[0.15, 0.5]",1,1,,,,,,,,,0,8,8,8,0,1,1,1,,,,,,,,,,,,,,,,,,,,,,,,,,,,,,,,,,,,,,,,,,,,,,,,,,,,,,,658.812666541,None,658.812666541,None,658.812666541,None,c,1,2.005145701999936,660.3466467809994,None,660.3466467809994,None,660.3466467809994,None,662.4125268019998,None,662.4125268019998,None,662.4125268019998,None,662.4125268019998,None,,,,,,,,,,,,,,,,,,,,,,,,,,,,,,,,,,,,,,,,,,,,001,123,2020_Feb_13_1347,spring_faces,3.1.5,59.92462824085173,
condition files/Stage1_1.xlsx,,B3,T3,c,"['c', 'm']","['Clue', 'Monopoly']","[-0.15, 0.5]","[0.15, 0.5]",1,1,,,,,,,,,0,8,8,8,0,2,2,4,,,,,,,,,,,,,,,,,,,,,,,,,,,,,,,,,,,,,,,,,,,,,,,,,,,,,,,664.3790819459991,None,664.3790819459991,None,664.3790819459991,None,c,1,2.4070008609996876,665.9128202839984,None,665.9128202839984,None,665.9128202839984,None,668.3795190189994,None,668.3795190189994,None,668.3795190189994,None,668.3795190189994,None,,,,,,,,,,,,,,,,,,,,,,,,,,,,,,,,,,,,,,,,,,,,001,123,2020_Feb_13_1347,spring_faces,3.1.5,59.92462824085173,
condition files/Stage1_1.xlsx,,T2,B2,m,"['c', 'm']","['Clue', 'Monopoly']","[-0.15, 0.5]","[0.15, 0.5]",1,1,,,,,,,,,0,8,8,8,0,3,3,3,,,,,,,,,,,,,,,,,,,,,,,,,,,,,,,,,,,,,,,,,,,,,,,,,,,,,,,670.3455972880001,None,670.3455972880001,None,670.3455972880001,None,m,1,1.3846879659995466,671.8790317419989,None,671.8790317419989,None,671.8790317419989,None,673.3322130649995,None,673.3322130649995,None,673.3322130649995,None,673.3322130649995,None,,,,,,,,,,,,,,,,,,,,,,,,,,,,,,,,,,,,,,,,,,,,001,123,2020_Feb_13_1347,spring_faces,3.1.5,59.92462824085173,
condition files/Stage1_1.xlsx,,B4,T4,m,"['c', 'm']","['Clue', 'Monopoly']","[-0.15, 0.5]","[0.15, 0.5]",1,1,,,,,,,,,0,8,8,8,0,4,4,7,,,,,,,,,,,,,,,,,,,,,,,,,,,,,,,,,,,,,,,,,,,,,,,,,,,,,,,675.2960743579988,None,675.2960743579988,None,675.2960743579988,None,m,1,1.9204824270000245,676.8312883049985,None,676.8312883049985,None,676.8312883049985,None,678.8128883529989,None,678.8128883529989,None,678.8128883529989,None,678.8128883529989,None,,,,,,,,,,,,,,,,,,,,,,,,,,,,,,,,,,,,,,,,,,,,001,123,2020_Feb_13_1347,spring_faces,3.1.5,59.92462824085173,
condition files/Stage1_1.xlsx,,B2,T1,m,"['c', 'm']","['Clue', 'Monopoly']","[-0.15, 0.5]","[0.15, 0.5]",1,1,,,,,,,,,0,8,8,8,0,5,5,2,,,,,,,,,,,,,,,,,,,,,,,,,,,,,,,,,,,,,,,,,,,,,,,,,,,,,,,680.7792833799995,None,680.7792833799995,None,680.7792833799995,None,c,0,1.6059890889991948,682.3138659830001,None,682.3138659830001,None,682.3138659830001,None,683.9793960139996,None,683.9793960139996,None,683.9793960139996,None,683.9793960139996,None,,,,,,,,,,,,,,,,,,,,,,,,,,,,,,,,,,,,,,,,,,,,001,123,2020_Feb_13_1347,spring_faces,3.1.5,59.92462824085173,
condition files/Stage1_1.xlsx,,T4,B3,m,"['c', 'm']","['Clue', 'Monopoly']","[-0.15, 0.5]","[0.15, 0.5]",1,1,,,,,,,,,0,8,8,8,0,6,6,6,,,,,,,,,,,,,,,,,,,,,,,,,,,,,,,,,,,,,,,,,,,,,,,,,,,,,,,685.946013503999,None,685.946013503999,None,685.946013503999,None,m,1,0.6798357469997427,687.4798381989986,None,687.4798381989986,None,687.4798381989986,None,688.212348944,None,688.212348944,None,688.212348944,None,688.212348944,None,,,,,,,,,,,,,,,,,,,,,,,,,,,,,,,,,,,,,,,,,,,,001,123,2020_Feb_13_1347,spring_faces,3.1.5,59.92462824085173,
condition files/Stage1_1.xlsx,,T1,B1,c,"['c', 'm']","['Clue', 'Monopoly']","[-0.15, 0.5]","[0.15, 0.5]",1,1,,,,,,,,,0,8,8,8,0,7,7,0,,,,,,,,,,,,,,,,,,,,,,,,,,,,,,,,,,,,,,,,,,,,,,,,,,,,,,,690.179352653,None,690.179352653,None,690.179352653,None,c,1,1.1827900930002215,691.7130013199985,None,691.7130013199985,None,691.7130013199985,None,692.9463555509992,None,692.9463555509992,None,692.9463555509992,None,692.9463555509992,None,,,,,,,,,,,,,,,,,,,,,,,,,,,,,,,,,,,,,,,,,,,,001,123,2020_Feb_13_1347,spring_faces,3.1.5,59.92462824085173,
condition files/Stage1_2.xlsx,,B2,T2,m,"['c', 'm']","['Clue', 'Monopoly']","[-0.15, 0.5]","[0.15, 0.5]",1,1,,,,,,,,,0,9,9,9,0,0,0,3,,,,,,,,,,,,,,,,,,,,,,,,,,,,,,,,,,,,,,,,,,,,,,,,,,,,,,,694.9297568059992,None,694.9297568059992,None,694.9297568059992,None,m,1,0.785249095000836,696.4625333619988,None,696.4625333619988,None,696.4625333619988,None,697.3154155069988,None,697.3154155069988,None,697.3154155069988,None,697.3154155069988,None,,,,,,,,,,,,,,,,,,,,,,,,,,,,,,,,,,,,,,,,,,,,001,123,2020_Feb_13_1347,spring_faces,3.1.5,59.92462824085173,
condition files/Stage1_2.xlsx,,T2,B1,c,"['c', 'm']","['Clue', 'Monopoly']","[-0.15, 0.5]","[0.15, 0.5]",1,1,,,,,,,,,0,9,9,9,0,1,1,1,,,,,,,,,,,,,,,,,,,,,,,,,,,,,,,,,,,,,,,,,,,,,,,,,,,,,,,699.2795441229991,None,699.2795441229991,None,699.2795441229991,None,c,1,1.1708269370010385,700.8129487779988,None,700.8129487779988,None,700.8129487779988,None,702.0463902899992,None,702.0463902899992,None,702.0463902899992,None,702.0463902899992,None,,,,,,,,,,,,,,,,,,,,,,,,,,,,,,,,,,,,,,,,,,,,001,123,2020_Feb_13_1347,spring_faces,3.1.5,59.92462824085173,
condition files/Stage1_2.xlsx,,T4,B4,m,"['c', 'm']","['Clue', 'Monopoly']","[-0.15, 0.5]","[0.15, 0.5]",1,1,,,,,,,,,0,9,9,9,0,2,2,7,,,,,,,,,,,,,,,,,,,,,,,,,,,,,,,,,,,,,,,,,,,,,,,,,,,,,,,704.0126284170001,None,704.0126284170001,None,704.0126284170001,None,m,1,0.9632952110005135,705.548500977,None,705.548500977,None,705.548500977,None,706.5631461389985,None,706.5631461389985,None,706.5631461389985,None,706.5631461389985,None,,,,,,,,,,,,,,,,,,,,,,,,,,,,,,,,,,,,,,,,,,,,001,123,2020_Feb_13_1347,spring_faces,3.1.5,59.92462824085173,
condition files/Stage1_2.xlsx,,T3,B3,c,"['c', 'm']","['Clue', 'Monopoly']","[-0.15, 0.5]","[0.15, 0.5]",1,1,,,,,,,,,0,9,9,9,0,3,3,4,,,,,,,,,,,,,,,,,,,,,,,,,,,,,,,,,,,,,,,,,,,,,,,,,,,,,,,708.5287599839994,None,708.5287599839994,None,708.5287599839994,None,c,1,1.4245839969989902,710.0632473879996,None,710.0632473879996,None,710.0632473879996,None,711.5477965249993,None,711.5477965249993,None,711.5477965249993,None,711.5477965249993,None,,,,,,,,,,,,,,,,,,,,,,,,,,,,,,,,,,,,,,,,,,,,001,123,2020_Feb_13_1347,spring_faces,3.1.5,59.92462824085173,
condition files/Stage1_2.xlsx,,B3,T4,m,"['c', 'm']","['Clue', 'Monopoly']","[-0.15, 0.5]","[0.15, 0.5]",1,1,,,,,,,,,0,9,9,9,0,4,4,6,,,,,,,,,,,,,,,,,,,,,,,,,,,,,,,,,,,,,,,,,,,,,,,,,,,,,,,713.5122880319996,None,713.5122880319996,None,713.5122880319996,None,m,1,1.6898305249997065,715.0459282430002,None,715.0459282430002,None,715.0459282430002,None,716.7972260699989,None,716.7972260699989,None,716.7972260699989,None,716.7972260699989,None,,,,,,,,,,,,,,,,,,,,,,,,,,,,,,,,,,,,,,,,,,,,001,123,2020_Feb_13_1347,spring_faces,3.1.5,59.92462824085173,
condition files/Stage1_2.xlsx,,B1,T1,c,"['c', 'm']","['Clue', 'Monopoly']","[-0.15, 0.5]","[0.15, 0.5]",1,1,,,,,,,,,0,9,9,9,0,5,5,0,,,,,,,,,,,,,,,,,,,,,,,,,,,,,,,,,,,,,,,,,,,,,,,,,,,,,,,718.762261717,None,718.762261717,None,718.762261717,None,c,1,0.9198182449999877,720.2959809049989,None,720.2959809049989,None,720.2959809049989,None,721.2812386749993,None,721.2812386749993,None,721.2812386749993,None,721.2812386749993,None,,,,,,,,,,,,,,,,,,,,,,,,,,,,,,,,,,,,,,,,,,,,001,123,2020_Feb_13_1347,spring_faces,3.1.5,59.92462824085173,
condition files/Stage1_2.xlsx,,T1,B2,m,"['c', 'm']","['Clue', 'Monopoly']","[-0.15, 0.5]","[0.15, 0.5]",1,1,,,,,,,,,0,9,9,9,0,6,6,2,,,,,,,,,,,,,,,,,,,,,,,,,,,,,,,,,,,,,,,,,,,,,,,,,,,,,,,723.2454881239992,None,723.2454881239992,None,723.2454881239992,None,m,1,0.5957166340012918,724.7960303619984,None,724.7960303619984,None,724.7960303619984,None,725.4630228249989,None,725.4630228249989,None,725.4630228249989,None,725.4630228249989,None,,,,,,,,,,,,,,,,,,,,,,,,,,,,,,,,,,,,,,,,,,,,001,123,2020_Feb_13_1347,spring_faces,3.1.5,59.92462824085173,
condition files/Stage1_2.xlsx,,B4,T3,c,"['c', 'm']","['Clue', 'Monopoly']","[-0.15, 0.5]","[0.15, 0.5]",1,1,,,,,,,,,0,9,9,9,0,7,7,5,,,,,,,,,,,,,,,,,,,,,,,,,,,,,,,,,,,,,,,,,,,,,,,,,,,,,,,727.4124190779985,None,727.4124190779985,None,727.4124190779985,None,c,1,1.1968192790009198,728.9469470929998,None,728.9469470929998,None,728.9469470929998,None,730.1983884389992,None,730.1983884389992,None,730.1983884389992,None,730.1983884389992,None,,,,,,,,,,,,,,,,,,,,,,,,,,,,,,,,,,,,,,,,,,,,001,123,2020_Feb_13_1347,spring_faces,3.1.5,59.92462824085173,
condition files/Stage1_1.xlsx,,T1,B1,c,"['c', 'm']","['Clue', 'Monopoly']","[-0.15, 0.5]","[0.15, 0.5]",1,1,,,,,,,,,0,10,10,10,0,0,0,0,,,,,,,,,,,,,,,,,,,,,,,,,,,,,,,,,,,,,,,,,,,,,,,,,,,,,,,732.1800463519994,None,732.1800463519994,None,732.1800463519994,None,c,1,0.973310699000649,733.7145293059984,None,733.7145293059984,None,733.7145293059984,None,734.7465523629999,None,734.7465523629999,None,734.7465523629999,None,734.7465523629999,None,,,,,,,,,,,,,,,,,,,,,,,,,,,,,,,,,,,,,,,,,,,,001,123,2020_Feb_13_1347,spring_faces,3.1.5,59.92462824085173,
condition files/Stage1_1.xlsx,,T2,B2,m,"['c', 'm']","['Clue', 'Monopoly']","[-0.15, 0.5]","[0.15, 0.5]",1,1,,,,,,,,,0,10,10,10,0,1,1,3,,,,,,,,,,,,,,,,,,,,,,,,,,,,,,,,,,,,,,,,,,,,,,,,,,,,,,,736.7127092269984,None,736.7127092269984,None,736.7127092269984,None,m,1,0.8419974060016102,738.2458332369988,None,738.2458332369988,None,738.2458332369988,None,739.1630591899993,None,739.1630591899993,None,739.1630591899993,None,739.1630591899993,None,,,,,,,,,,,,,,,,,,,,,,,,,,,,,,,,,,,,,,,,,,,,001,123,2020_Feb_13_1347,spring_faces,3.1.5,59.92462824085173,
condition files/Stage1_1.xlsx,,B2,T1,m,"['c', 'm']","['Clue', 'Monopoly']","[-0.15, 0.5]","[0.15, 0.5]",1,1,,,,,,,,,0,10,10,10,0,2,2,2,,,,,,,,,,,,,,,,,,,,,,,,,,,,,,,,,,,,,,,,,,,,,,,,,,,,,,,741.11236517,None,741.11236517,None,741.11236517,None,c,0,0.7133379460010474,742.6463741079988,None,742.6463741079988,None,742.6463741079988,None,743.4131504029992,None,743.4131504029992,None,743.4131504029992,None,743.4131504029992,None,,,,,,,,,,,,,,,,,,,,,,,,,,,,,,,,,,,,,,,,,,,,001,123,2020_Feb_13_1347,spring_faces,3.1.5,59.92462824085173,
condition files/Stage1_1.xlsx,,B3,T3,c,"['c', 'm']","['Clue', 'Monopoly']","[-0.15, 0.5]","[0.15, 0.5]",1,1,,,,,,,,,0,10,10,10,0,3,3,4,,,,,,,,,,,,,,,,,,,,,,,,,,,,,,,,,,,,,,,,,,,,,,,,,,,,,,,745.3793636779992,None,745.3793636779992,None,745.3793636779992,None,m,0,0.6554260140001134,746.9123560939988,None,746.9123560939988,None,746.9123560939988,None,747.6319203859985,None,747.6319203859985,None,747.6319203859985,None,747.6319203859985,None,,,,,,,,,,,,,,,,,,,,,,,,,,,,,,,,,,,,,,,,,,,,001,123,2020_Feb_13_1347,spring_faces,3.1.5,59.92462824085173,
condition files/Stage1_1.xlsx,,B1,T2,c,"['c', 'm']","['Clue', 'Monopoly']","[-0.15, 0.5]","[0.15, 0.5]",1,1,,,,,,,,,0,10,10,10,0,4,4,1,,,,,,,,,,,,,,,,,,,,,,,,,,,,,,,,,,,,,,,,,,,,,,,,,,,,,,,749.5961879639999,None,749.5961879639999,None,749.5961879639999,None,c,1,0.7903870890004328,751.1294323889997,None,751.1294323889997,None,751.1294323889997,None,751.9790019089996,None,751.9790019089996,None,751.9790019089996,None,751.9790019089996,None,,,,,,,,,,,,,,,,,,,,,,,,,,,,,,,,,,,,,,,,,,,,001,123,2020_Feb_13_1347,spring_faces,3.1.5,59.92462824085173,
condition files/Stage1_1.xlsx,,T4,B3,m,"['c', 'm']","['Clue', 'Monopoly']","[-0.15, 0.5]","[0.15, 0.5]",1,1,,,,,,,,,0,10,10,10,0,5,5,6,,,,,,,,,,,,,,,,,,,,,,,,,,,,,,,,,,,,,,,,,,,,,,,,,,,,,,,753.946051552999,None,753.946051552999,None,753.946051552999,None,m,1,1.1099584410003445,755.481798494,None,755.481798494,None,755.481798494,None,756.6629820409999,None,756.6629820409999,None,756.6629820409999,None,756.6629820409999,None,,,,,,,,,,,,,,,,,,,,,,,,,,,,,,,,,,,,,,,,,,,,001,123,2020_Feb_13_1347,spring_faces,3.1.5,59.92462824085173,
condition files/Stage1_1.xlsx,,T3,B4,c,"['c', 'm']","['Clue', 'Monopoly']","[-0.15, 0.5]","[0.15, 0.5]",1,1,,,,,,,,,0,10,10,10,0,6,6,5,,,,,,,,,,,,,,,,,,,,,,,,,,,,,,,,,,,,,,,,,,,,,,,,,,,,,,,758.6121833119996,None,758.6121833119996,None,758.6121833119996,None,m,0,1.533730099999957,760.1459972559987,None,760.1459972559987,None,760.1459972559987,None,761.731985851,None,761.731985851,None,761.731985851,None,761.731985851,None,,,,,,,,,,,,,,,,,,,,,,,,,,,,,,,,,,,,,,,,,,,,001,123,2020_Feb_13_1347,spring_faces,3.1.5,59.92462824085173,
condition files/Stage1_1.xlsx,,B4,T4,m,"['c', 'm']","['Clue', 'Monopoly']","[-0.15, 0.5]","[0.15, 0.5]",1,1,,,,,,,,,0,10,10,10,0,7,7,7,,,,,,,,,,,,,,,,,,,,,,,,,,,,,,,,,,,,,,,,,,,,,,,,,,,,,,,763.6955447189994,None,763.6955447189994,None,763.6955447189994,None,m,1,0.880467385000884,765.2313392399992,None,765.2313392399992,None,765.2313392399992,None,766.1638209309986,None,766.1638209309986,None,766.1638209309986,None,766.1638209309986,None,,,,,,,,,,,,,,,,,,,,,,,,,,,,,,,,,,,,,,,,,,,,001,123,2020_Feb_13_1347,spring_faces,3.1.5,59.92462824085173,
condition files/Stage1_2.xlsx,,B3,T4,m,"['c', 'm']","['Clue', 'Monopoly']","[-0.15, 0.5]","[0.15, 0.5]",1,1,,,,,,,,,0,11,11,11,0,0,0,6,,,,,,,,,,,,,,,,,,,,,,,,,,,,,,,,,,,,,,,,,,,,,,,,,,,,,,,768.1457389529987,None,768.1457389529987,None,768.1457389529987,None,m,1,0.9102649859996745,769.6814666909995,None,769.6814666909995,None,769.6814666909995,None,770.6462026059999,None,770.6462026059999,None,770.6462026059999,None,770.6462026059999,None,,,,,,,,,,,,,,,,,,,,,,,,,,,,,,,,,,,,,,,,,,,,001,123,2020_Feb_13_1347,spring_faces,3.1.5,59.92462824085173,
condition files/Stage1_2.xlsx,,T1,B2,m,"['c', 'm']","['Clue', 'Monopoly']","[-0.15, 0.5]","[0.15, 0.5]",1,1,,,,,,,,,0,11,11,11,0,1,1,2,,,,,,,,,,,,,,,,,,,,,,,,,,,,,,,,,,,,,,,,,,,,,,,,,,,,,,,772.6126513149993,None,772.6126513149993,None,772.6126513149993,None,c,0,1.7731737610010896,774.1466532679988,None,774.1466532679988,None,774.1466532679988,None,775.9797907020002,None,775.9797907020002,None,775.9797907020002,None,775.9797907020002,None,,,,,,,,,,,,,,,,,,,,,,,,,,,,,,,,,,,,,,,,,,,,001,123,2020_Feb_13_1347,spring_faces,3.1.5,59.92462824085173,
condition files/Stage1_2.xlsx,,T3,B3,c,"['c', 'm']","['Clue', 'Monopoly']","[-0.15, 0.5]","[0.15, 0.5]",1,1,,,,,,,,,0,11,11,11,0,2,2,4,,,,,,,,,,,,,,,,,,,,,,,,,,,,,,,,,,,,,,,,,,,,,,,,,,,,,,,777.9455445919994,None,777.9455445919994,None,777.9455445919994,None,c,1,2.4245557799986273,779.4792741349993,None,779.4792741349993,None,779.4792741349993,None,781.9635837179994,None,781.9635837179994,None,781.9635837179994,None,781.9635837179994,None,,,,,,,,,,,,,,,,,,,,,,,,,,,,,,,,,,,,,,,,,,,,001,123,2020_Feb_13_1347,spring_faces,3.1.5,59.92462824085173,
condition files/Stage1_2.xlsx,,B4,T3,c,"['c', 'm']","['Clue', 'Monopoly']","[-0.15, 0.5]","[0.15, 0.5]",1,1,,,,,,,,,0,11,11,11,0,3,3,5,,,,,,,,,,,,,,,,,,,,,,,,,,,,,,,,,,,,,,,,,,,,,,,,,,,,,,,783.9290870159984,None,783.9290870159984,None,783.9290870159984,None,m,0,2.1524088629994367,785.4633901029993,None,785.4633901029993,None,785.4633901029993,None,787.678991576,None,787.678991576,None,787.678991576,None,787.678991576,None,,,,,,,,,,,,,,,,,,,,,,,,,,,,,,,,,,,,,,,,,,,,001,123,2020_Feb_13_1347,spring_faces,3.1.5,59.92462824085173,
condition files/Stage1_2.xlsx,,B2,T2,m,"['c', 'm']","['Clue', 'Monopoly']","[-0.15, 0.5]","[0.15, 0.5]",1,1,,,,,,,,,0,11,11,11,0,4,4,3,,,,,,,,,,,,,,,,,,,,,,,,,,,,,,,,,,,,,,,,,,,,,,,,,,,,,,,789.6460220509998,None,789.6460220509998,None,789.6460220509998,None,c,0,1.3783232909991057,791.1814312890001,None,791.1814312890001,None,791.1814312890001,None,792.6139367359992,None,792.6139367359992,None,792.6139367359992,None,792.6139367359992,None,,,,,,,,,,,,,,,,,,,,,,,,,,,,,,,,,,,,,,,,,,,,001,123,2020_Feb_13_1347,spring_faces,3.1.5,59.92462824085173,
condition files/Stage1_2.xlsx,,T4,B4,m,"['c', 'm']","['Clue', 'Monopoly']","[-0.15, 0.5]","[0.15, 0.5]",1,1,,,,,,,,,0,11,11,11,0,5,5,7,,,,,,,,,,,,,,,,,,,,,,,,,,,,,,,,,,,,,,,,,,,,,,,,,,,,,,,794.5789186859984,None,794.5789186859984,None,794.5789186859984,None,c,0,1.7747911249989556,796.1130374209988,None,796.1130374209988,None,796.1130374209988,None,797.9464031709995,None,797.9464031709995,None,797.9464031709995,None,797.9464031709995,None,,,,,,,,,,,,,,,,,,,,,,,,,,,,,,,,,,,,,,,,,,,,001,123,2020_Feb_13_1347,spring_faces,3.1.5,59.92462824085173,
condition files/Stage1_2.xlsx,,T2,B1,c,"['c', 'm']","['Clue', 'Monopoly']","[-0.15, 0.5]","[0.15, 0.5]",1,1,,,,,,,,,0,11,11,11,0,6,6,1,,,,,,,,,,,,,,,,,,,,,,,,,,,,,,,,,,,,,,,,,,,,,,,,,,,,,,,799.9123775409989,None,799.9123775409989,None,799.9123775409989,None,c,1,0.9849868639994384,801.4627240239988,None,801.4627240239988,None,801.4627240239988,None,802.5130385739994,None,802.5130385739994,None,802.5130385739994,None,802.5130385739994,None,,,,,,,,,,,,,,,,,,,,,,,,,,,,,,,,,,,,,,,,,,,,001,123,2020_Feb_13_1347,spring_faces,3.1.5,59.92462824085173,
condition files/Stage1_2.xlsx,,B1,T1,c,"['c', 'm']","['Clue', 'Monopoly']","[-0.15, 0.5]","[0.15, 0.5]",1,1,,,,,,,,,0,11,11,11,0,7,7,0,,,,,,,,,,,,,,,,,,,,,,,,,,,,,,,,,,,,,,,,,,,,,,,,,,,,,,,804.4794748629993,None,804.4794748629993,None,804.4794748629993,None,m,0,2.193991301001006,806.0297534860001,None,806.0297534860001,None,806.0297534860001,None,808.2789126869993,None,808.2789126869993,None,808.2789126869993,None,808.2789126869993,None,,,,,,,,,,,,,,,,,,,,,,,,,,,,,,,,,,,,,,,,,,,,001,123,2020_Feb_13_1347,spring_faces,3.1.5,59.92462824085173,
,,,,,,,,,,,,,,,,,,,,,,,,,,,,,,,,,,,,,,,,,,,,,,,,,,,,,,,,,,,,,,,,,,,,,,,,,,,,,,,,,,,,,,,,,,,,,,,,,,,,,,,,,,,,,,,,810.2624363919986,None,space,9.201096148000943,815.2626488829992,None,,,,,,,,,,,,,,,,,,,,,,,,,,,,,,001,123,2020_Feb_13_1347,spring_faces,3.1.5,59.92462824085173,
condition files/Stage2_1.xlsx,,T5,B5,s,"['s', 'r']","['Stratego', 'Risk']","[-0.15, 0.5]","[0.15, 0.5]",1,1,,,,,,,,,,,,,,,,,0,0,0,0,0,0,0,0,,,,,,,,,,,,,,,,,,,,,,,,,,,,,,,,,,,,,,,,,,,,,,,824.5296659239993,None,824.5296659239993,None,824.5296659239993,None,s,1,1.8713624039992283,826.0964279649997,None,826.0964279649997,None,826.0964279649997,None,828.030124424,None,828.030124424,None,828.030124424,None,828.030124424,None,,,,,,,,,,,,,,,815.2626488829992,None,,,,,,,,,,,,,,,,,,,,,,,,,,,,001,123,2020_Feb_13_1347,spring_faces,3.1.5,59.92462824085173,
condition files/Stage2_1.xlsx,,T1,B1,s,"['s', 'r']","['Stratego', 'Risk']","[-0.15, 0.5]","[0.15, 0.5]",1,1,,,,,,,,,,,,,,,,,0,0,0,0,0,1,1,2,,,,,,,,,,,,,,,,,,,,,,,,,,,,,,,,,,,,,,,,,,,,,,,829.9961432229993,None,829.9961432229993,None,829.9961432229993,None,r,0,1.0454936149999412,831.5462726039987,None,831.5462726039987,None,831.5462726039987,None,832.6462562609995,None,832.6462562609995,None,832.6462562609995,None,832.6462562609995,None,,,,,,,,,,,,,,,,,,,,,,,,,,,,,,,,,,,,,,,,,,,,001,123,2020_Feb_13_1347,spring_faces,3.1.5,59.92462824085173,
condition files/Stage2_1.xlsx,,B2,T2,r,"['s', 'r']","['Stratego', 'Risk']","[-0.15, 0.5]","[0.15, 0.5]",1,1,,,,,,,,,,,,,,,,,0,0,0,0,0,2,2,3,,,,,,,,,,,,,,,,,,,,,,,,,,,,,,,,,,,,,,,,,,,,,,,834.6130472599998,None,834.6130472599998,None,834.6130472599998,None,s,0,0.7487264030005463,836.1630189199986,None,836.1630189199986,None,836.1630189199986,None,836.9626845859984,None,836.9626845859984,None,836.9626845859984,None,836.9626845859984,None,,,,,,,,,,,,,,,,,,,,,,,,,,,,,,,,,,,,,,,,,,,,001,123,2020_Feb_13_1347,spring_faces,3.1.5,59.92462824085173,
condition files/Stage2_1.xlsx,,B6,T6,r,"['s', 'r']","['Stratego', 'Risk']","[-0.15, 0.5]","[0.15, 0.5]",1,1,,,,,,,,,,,,,,,,,0,0,0,0,0,3,3,1,,,,,,,,,,,,,,,,,,,,,,,,,,,,,,,,,,,,,,,,,,,,,,,838.9288152839999,None,838.9288152839999,None,838.9288152839999,None,r,1,2.0786421970005904,840.5130913009998,None,840.5130913009998,None,840.5130913009998,None,842.6465864389993,None,842.6465864389993,None,842.6465864389993,None,842.6465864389993,None,,,,,,,,,,,,,,,,,,,,,,,,,,,,,,,,,,,,,,,,,,,,001,123,2020_Feb_13_1347,spring_faces,3.1.5,59.92462824085173,
condition files/Stage2_1.xlsx,,B4,T4,r,"['s', 'r']","['Stratego', 'Risk']","[-0.15, 0.5]","[0.15, 0.5]",1,1,,,,,,,,,,,,,,,,,0,0,0,0,0,4,4,5,,,,,,,,,,,,,,,,,,,,,,,,,,,,,,,,,,,,,,,,,,,,,,,844.6128492979988,None,844.6128492979988,None,844.6128492979988,None,s,0,0.8622287859998323,846.1455354969985,None,846.1455354969985,None,846.1455354969985,None,847.062753492999,None,847.062753492999,None,847.062753492999,None,847.062753492999,None,,,,,,,,,,,,,,,,,,,,,,,,,,,,,,,,,,,,,,,,,,,,001,123,2020_Feb_13_1347,spring_faces,3.1.5,59.92462824085173,
condition files/Stage2_1.xlsx,,T3,B3,s,"['s', 'r']","['Stratego', 'Risk']","[-0.15, 0.5]","[0.15, 0.5]",1,1,,,,,,,,,,,,,,,,,0,0,0,0,0,5,5,4,,,,,,,,,,,,,,,,,,,,,,,,,,,,,,,,,,,,,,,,,,,,,,,849.0292178939999,None,849.0292178939999,None,849.0292178939999,None,r,0,0.812745396999162,850.5630121099985,None,850.5630121099985,None,850.5630121099985,None,851.4301231539994,None,851.4301231539994,None,851.4301231539994,None,851.4301231539994,None,,,,,,,,,,,,,,,,,,,,,,,,,,,,,,,,,,,,,,,,,,,,001,123,2020_Feb_13_1347,spring_faces,3.1.5,59.92462824085173,
condition files/Stage2_2.xlsx,,B5,T5,s,"['s', 'r']","['Stratego', 'Risk']","[-0.15, 0.5]","[0.15, 0.5]",1,1,,,,,,,,,,,,,,,,,0,1,1,1,0,0,0,0,,,,,,,,,,,,,,,,,,,,,,,,,,,,,,,,,,,,,,,,,,,,,,,853.4131571469989,None,853.4131571469989,None,853.4131571469989,None,r,0,0.7495498419993964,854.9462574849986,None,854.9462574849986,None,854.9462574849986,None,855.7460858079994,None,855.7460858079994,None,855.7460858079994,None,855.7460858079994,None,,,,,,,,,,,,,,,,,,,,,,,,,,,,,,,,,,,,,,,,,,,,001,123,2020_Feb_13_1347,spring_faces,3.1.5,59.92462824085173,
condition files/Stage2_2.xlsx,,B1,T1,s,"['s', 'r']","['Stratego', 'Risk']","[-0.15, 0.5]","[0.15, 0.5]",1,1,,,,,,,,,,,,,,,,,0,1,1,1,0,1,1,2,,,,,,,,,,,,,,,,,,,,,,,,,,,,,,,,,,,,,,,,,,,,,,,857.7119459759997,None,857.7119459759997,None,857.7119459759997,None,s,1,0.7532604000007268,859.2625279059994,None,859.2625279059994,None,859.2625279059994,None,860.079396993,None,860.079396993,None,860.079396993,None,860.079396993,None,,,,,,,,,,,,,,,,,,,,,,,,,,,,,,,,,,,,,,,,,,,,001,123,2020_Feb_13_1347,spring_faces,3.1.5,59.92462824085173,
condition files/Stage2_2.xlsx,,T2,B2,r,"['s', 'r']","['Stratego', 'Risk']","[-0.15, 0.5]","[0.15, 0.5]",1,1,,,,,,,,,,,,,,,,,0,1,1,1,0,2,2,3,,,,,,,,,,,,,,,,,,,,,,,,,,,,,,,,,,,,,,,,,,,,,,,862.0461624229993,None,862.0461624229993,None,862.0461624229993,None,r,1,0.9331206520000705,863.5786785309992,None,863.5786785309992,None,863.5786785309992,None,864.5796949939995,None,864.5796949939995,None,864.5796949939995,None,864.5796949939995,None,,,,,,,,,,,,,,,,,,,,,,,,,,,,,,,,,,,,,,,,,,,,001,123,2020_Feb_13_1347,spring_faces,3.1.5,59.92462824085173,
condition files/Stage2_2.xlsx,,B3,T3,s,"['s', 'r']","['Stratego', 'Risk']","[-0.15, 0.5]","[0.15, 0.5]",1,1,,,,,,,,,,,,,,,,,0,1,1,1,0,3,3,4,,,,,,,,,,,,,,,,,,,,,,,,,,,,,,,,,,,,,,,,,,,,,,,866.5292147259988,None,866.5292147259988,None,866.5292147259988,None,s,1,0.9281511869994574,868.0636209679997,None,868.0636209679997,None,868.0636209679997,None,869.0632552379993,None,869.0632552379993,None,869.0632552379993,None,869.0632552379993,None,,,,,,,,,,,,,,,,,,,,,,,,,,,,,,,,,,,,,,,,,,,,001,123,2020_Feb_13_1347,spring_faces,3.1.5,59.92462824085173,
condition files/Stage2_2.xlsx,,T4,B4,r,"['s', 'r']","['Stratego', 'Risk']","[-0.15, 0.5]","[0.15, 0.5]",1,1,,,,,,,,,,,,,,,,,0,1,1,1,0,4,4,5,,,,,,,,,,,,,,,,,,,,,,,,,,,,,,,,,,,,,,,,,,,,,,,871.0127437470001,None,871.0127437470001,None,871.0127437470001,None,r,1,0.6038699049986462,872.5478632429986,None,872.5478632429986,None,872.5478632429986,None,873.2127829009987,None,873.2127829009987,None,873.2127829009987,None,873.2127829009987,None,,,,,,,,,,,,,,,,,,,,,,,,,,,,,,,,,,,,,,,,,,,,001,123,2020_Feb_13_1347,spring_faces,3.1.5,59.92462824085173,
condition files/Stage2_2.xlsx,,T6,B6,r,"['s', 'r']","['Stratego', 'Risk']","[-0.15, 0.5]","[0.15, 0.5]",1,1,,,,,,,,,,,,,,,,,0,1,1,1,0,5,5,1,,,,,,,,,,,,,,,,,,,,,,,,,,,,,,,,,,,,,,,,,,,,,,,875.1793629249987,None,875.1793629249987,None,875.1793629249987,None,s,0,0.6791891259999829,876.7125799859987,None,876.7125799859987,None,876.7125799859987,None,877.4462847759987,None,877.4462847759987,None,877.4462847759987,None,877.4462847759987,None,,,,,,,,,,,,,,,,,,,,,,,,,,,,,,,,,,,,,,,,,,,,001,123,2020_Feb_13_1347,spring_faces,3.1.5,59.92462824085173,
condition files/Stage2_1.xlsx,,B4,T4,r,"['s', 'r']","['Stratego', 'Risk']","[-0.15, 0.5]","[0.15, 0.5]",1,1,,,,,,,,,,,,,,,,,0,2,2,2,0,0,0,5,,,,,,,,,,,,,,,,,,,,,,,,,,,,,,,,,,,,,,,,,,,,,,,879.4289715059986,None,879.4289715059986,None,879.4289715059986,None,r,1,0.6054126080016431,880.9623870349988,None,880.9623870349988,None,880.9623870349988,None,881.6293981379986,None,881.6293981379986,None,881.6293981379986,None,881.6293981379986,None,,,,,,,,,,,,,,,,,,,,,,,,,,,,,,,,,,,,,,,,,,,,001,123,2020_Feb_13_1347,spring_faces,3.1.5,59.92462824085173,
condition files/Stage2_1.xlsx,,T1,B1,s,"['s', 'r']","['Stratego', 'Risk']","[-0.15, 0.5]","[0.15, 0.5]",1,1,,,,,,,,,,,,,,,,,0,2,2,2,0,1,1,2,,,,,,,,,,,,,,,,,,,,,,,,,,,,,,,,,,,,,,,,,,,,,,,883.5956718090001,None,883.5956718090001,None,883.5956718090001,None,s,1,0.3890456359986274,885.1307870359997,None,885.1307870359997,None,885.1307870359997,None,885.5957058129989,None,885.5957058129989,None,885.5957058129989,None,885.5957058129989,None,,,,,,,,,,,,,,,,,,,,,,,,,,,,,,,,,,,,,,,,,,,,001,123,2020_Feb_13_1347,spring_faces,3.1.5,59.92462824085173,
condition files/Stage2_1.xlsx,,B6,T6,r,"['s', 'r']","['Stratego', 'Risk']","[-0.15, 0.5]","[0.15, 0.5]",1,1,,,,,,,,,,,,,,,,,0,2,2,2,0,2,2,1,,,,,,,,,,,,,,,,,,,,,,,,,,,,,,,,,,,,,,,,,,,,,,,887.5462269309992,None,887.5462269309992,None,887.5462269309992,None,s,0,0.91955999899983,889.0802587580001,None,889.0802587580001,None,889.0802587580001,None,890.0625188959984,None,890.0625188959984,None,890.0625188959984,None,890.0625188959984,None,,,,,,,,,,,,,,,,,,,,,,,,,,,,,,,,,,,,,,,,,,,,001,123,2020_Feb_13_1347,spring_faces,3.1.5,59.92462824085173,
condition files/Stage2_1.xlsx,,T3,B3,s,"['s', 'r']","['Stratego', 'Risk']","[-0.15, 0.5]","[0.15, 0.5]",1,1,,,,,,,,,,,,,,,,,0,2,2,2,0,3,3,4,,,,,,,,,,,,,,,,,,,,,,,,,,,,,,,,,,,,,,,,,,,,,,,892.0289748619998,None,892.0289748619998,None,892.0289748619998,None,s,1,0.9970407769997109,893.5626373939995,None,893.5626373939995,None,893.5626373939995,None,894.6297640239991,None,894.6297640239991,None,894.6297640239991,None,894.6297640239991,None,,,,,,,,,,,,,,,,,,,,,,,,,,,,,,,,,,,,,,,,,,,,001,123,2020_Feb_13_1347,spring_faces,3.1.5,59.92462824085173,
condition files/Stage2_1.xlsx,,T5,B5,s,"['s', 'r']","['Stratego', 'Risk']","[-0.15, 0.5]","[0.15, 0.5]",1,1,,,,,,,,,,,,,,,,,0,2,2,2,0,4,4,0,,,,,,,,,,,,,,,,,,,,,,,,,,,,,,,,,,,,,,,,,,,,,,,896.5794188769996,None,896.5794188769996,None,896.5794188769996,None,r,0,0.5249985099999321,898.1148308960001,None,898.1148308960001,None,898.1148308960001,None,898.69647583,None,898.69647583,None,898.69647583,None,898.69647583,None,,,,,,,,,,,,,,,,,,,,,,,,,,,,,,,,,,,,,,,,,,,,001,123,2020_Feb_13_1347,spring_faces,3.1.5,59.92462824085173,
condition files/Stage2_1.xlsx,,B2,T2,r,"['s', 'r']","['Stratego', 'Risk']","[-0.15, 0.5]","[0.15, 0.5]",1,1,,,,,,,,,,,,,,,,,0,2,2,2,0,5,5,3,,,,,,,,,,,,,,,,,,,,,,,,,,,,,,,,,,,,,,,,,,,,,,,900.6628329549985,None,900.6628329549985,None,900.6628329549985,None,s,0,0.6358747429985669,902.1958911339989,None,902.1958911339989,None,902.1958911339989,None,902.8965901789998,None,902.8965901789998,None,902.8965901789998,None,902.8965901789998,None,,,,,,,,,,,,,,,,,,,,,,,,,,,,,,,,,,,,,,,,,,,,001,123,2020_Feb_13_1347,spring_faces,3.1.5,59.92462824085173,
condition files/Stage2_2.xlsx,,B3,T3,s,"['s', 'r']","['Stratego', 'Risk']","[-0.15, 0.5]","[0.15, 0.5]",1,1,,,,,,,,,,,,,,,,,0,3,3,3,0,0,0,4,,,,,,,,,,,,,,,,,,,,,,,,,,,,,,,,,,,,,,,,,,,,,,,904.8796276289995,None,904.8796276289995,None,904.8796276289995,None,s,1,1.2833632719994057,906.4124354059986,None,906.4124354059986,None,906.4124354059986,None,907.7630207169987,None,907.7630207169987,None,907.7630207169987,None,907.7630207169987,None,,,,,,,,,,,,,,,,,,,,,,,,,,,,,,,,,,,,,,,,,,,,001,123,2020_Feb_13_1347,spring_faces,3.1.5,59.92462824085173,
condition files/Stage2_2.xlsx,,T6,B6,r,"['s', 'r']","['Stratego', 'Risk']","[-0.15, 0.5]","[0.15, 0.5]",1,1,,,,,,,,,,,,,,,,,0,3,3,3,0,1,1,1,,,,,,,,,,,,,,,,,,,,,,,,,,,,,,,,,,,,,,,,,,,,,,,909.7126881129989,None,909.7126881129989,None,909.7126881129989,None,r,1,0.4501195209995785,911.2456614799994,None,911.2456614799994,None,911.2456614799994,None,911.7466786999994,None,911.7466786999994,None,911.7466786999994,None,911.7466786999994,None,,,,,,,,,,,,,,,,,,,,,,,,,,,,,,,,,,,,,,,,,,,,001,123,2020_Feb_13_1347,spring_faces,3.1.5,59.92462824085173,
condition files/Stage2_2.xlsx,,B5,T5,s,"['s', 'r']","['Stratego', 'Risk']","[-0.15, 0.5]","[0.15, 0.5]",1,1,,,,,,,,,,,,,,,,,0,3,3,3,0,2,2,0,,,,,,,,,,,,,,,,,,,,,,,,,,,,,,,,,,,,,,,,,,,,,,,913.7127011359989,None,913.7127011359989,None,913.7127011359989,None,r,0,1.1847280310012138,915.2470561889986,None,915.2470561889986,None,915.2470561889986,None,916.4972079539984,None,916.4972079539984,None,916.4972079539984,None,916.4972079539984,None,,,,,,,,,,,,,,,,,,,,,,,,,,,,,,,,,,,,,,,,,,,,001,123,2020_Feb_13_1347,spring_faces,3.1.5,59.92462824085173,
condition files/Stage2_2.xlsx,,T4,B4,r,"['s', 'r']","['Stratego', 'Risk']","[-0.15, 0.5]","[0.15, 0.5]",1,1,,,,,,,,,,,,,,,,,0,3,3,3,0,3,3,5,,,,,,,,,,,,,,,,,,,,,,,,,,,,,,,,,,,,,,,,,,,,,,,918.4626796499997,None,918.4626796499997,None,918.4626796499997,None,s,0,1.7775396999986697,919.9982347529985,None,919.9982347529985,None,919.9982347529985,None,921.8313003019994,None,921.8313003019994,None,921.8313003019994,None,921.8313003019994,None,,,,,,,,,,,,,,,,,,,,,,,,,,,,,,,,,,,,,,,,,,,,001,123,2020_Feb_13_1347,spring_faces,3.1.5,59.92462824085173,
condition files/Stage2_2.xlsx,,B1,T1,s,"['s', 'r']","['Stratego', 'Risk']","[-0.15, 0.5]","[0.15, 0.5]",1,1,,,,,,,,,,,,,,,,,0,3,3,3,0,4,4,2,,,,,,,,,,,,,,,,,,,,,,,,,,,,,,,,,,,,,,,,,,,,,,,923.7956476589989,None,923.7956476589989,None,923.7956476589989,None,s,1,0.846196387999953,925.3295803249985,None,925.3295803249985,None,925.3295803249985,None,926.2465045169993,None,926.2465045169993,None,926.2465045169993,None,926.2465045169993,None,,,,,,,,,,,,,,,,,,,,,,,,,,,,,,,,,,,,,,,,,,,,001,123,2020_Feb_13_1347,spring_faces,3.1.5,59.92462824085173,
condition files/Stage2_2.xlsx,,T2,B2,r,"['s', 'r']","['Stratego', 'Risk']","[-0.15, 0.5]","[0.15, 0.5]",1,1,,,,,,,,,,,,,,,,,0,3,3,3,0,5,5,3,,,,,,,,,,,,,,,,,,,,,,,,,,,,,,,,,,,,,,,,,,,,,,,928.1960167460002,None,928.1960167460002,None,928.1960167460002,None,r,1,0.2853251910000836,929.7464291999986,None,929.7464291999986,None,929.7464291999986,None,930.0958603239997,None,930.0958603239997,None,930.0958603239997,None,930.0958603239997,None,,,,,,,,,,,,,,,,,,,,,,,,,,,,,,,,,,,,,,,,,,,,001,123,2020_Feb_13_1347,spring_faces,3.1.5,59.92462824085173,
condition files/Stage2_1.xlsx,,T3,B3,s,"['s', 'r']","['Stratego', 'Risk']","[-0.15, 0.5]","[0.15, 0.5]",1,1,,,,,,,,,,,,,,,,,0,4,4,4,0,0,0,4,,,,,,,,,,,,,,,,,,,,,,,,,,,,,,,,,,,,,,,,,,,,,,,932.0795882619987,None,932.0795882619987,None,932.0795882619987,None,r,0,0.9608518810000533,933.6149439299988,None,933.6149439299988,None,933.6149439299988,None,934.6460887039993,None,934.6460887039993,None,934.6460887039993,None,934.6460887039993,None,,,,,,,,,,,,,,,,,,,,,,,,,,,,,,,,,,,,,,,,,,,,001,123,2020_Feb_13_1347,spring_faces,3.1.5,59.92462824085173,
condition files/Stage2_1.xlsx,,T5,B5,s,"['s', 'r']","['Stratego', 'Risk']","[-0.15, 0.5]","[0.15, 0.5]",1,1,,,,,,,,,,,,,,,,,0,4,4,4,0,1,1,0,,,,,,,,,,,,,,,,,,,,,,,,,,,,,,,,,,,,,,,,,,,,,,,936.5960184399992,None,936.5960184399992,None,936.5960184399992,None,s,1,0.2524966660002974,938.1313434160002,None,938.1313434160002,None,938.1313434160002,None,938.4462794459996,None,938.4462794459996,None,938.4462794459996,None,938.4462794459996,None,,,,,,,,,,,,,,,,,,,,,,,,,,,,,,,,,,,,,,,,,,,,001,123,2020_Feb_13_1347,spring_faces,3.1.5,59.92462824085173,
condition files/Stage2_1.xlsx,,B4,T4,r,"['s', 'r']","['Stratego', 'Risk']","[-0.15, 0.5]","[0.15, 0.5]",1,1,,,,,,,,,,,,,,,,,0,4,4,4,0,2,2,5,,,,,,,,,,,,,,,,,,,,,,,,,,,,,,,,,,,,,,,,,,,,,,,940.4126550349993,None,940.4126550349993,None,940.4126550349993,None,r,1,0.5011502979996294,941.9466131739991,None,941.9466131739991,None,941.9466131739991,None,942.5125457799986,None,942.5125457799986,None,942.5125457799986,None,942.5125457799986,None,,,,,,,,,,,,,,,,,,,,,,,,,,,,,,,,,,,,,,,,,,,,001,123,2020_Feb_13_1347,spring_faces,3.1.5,59.92462824085173,
condition files/Stage2_1.xlsx,,T1,B1,s,"['s', 'r']","['Stratego', 'Risk']","[-0.15, 0.5]","[0.15, 0.5]",1,1,,,,,,,,,,,,,,,,,0,4,4,4,0,3,3,2,,,,,,,,,,,,,,,,,,,,,,,,,,,,,,,,,,,,,,,,,,,,,,,944.4788200120001,None,944.4788200120001,None,944.4788200120001,None,s,1,0.5947804620009265,946.0129726329997,None,946.0129726329997,None,946.0129726329997,None,946.6795677439986,None,946.6795677439986,None,946.6795677439986,None,946.6795677439986,None,,,,,,,,,,,,,,,,,,,,,,,,,,,,,,,,,,,,,,,,,,,,001,123,2020_Feb_13_1347,spring_faces,3.1.5,59.92462824085173,
