condsFile,subStage,cue1,cue2,correct,responseKeys,responseNames,cue1Position,cue2Position,cue1Opacity,cue2Opacity,stageLoop0.thisRepN,stageLoop0.thisTrialN,stageLoop0.thisN,stageLoop0.thisIndex,blockLoop0.thisRepN,blockLoop0.thisTrialN,blockLoop0.thisN,blockLoop0.thisIndex,stage1Loop.thisRepN,stage1Loop.thisTrialN,stage1Loop.thisN,stage1Loop.thisIndex,blockLoop1.thisRepN,blockLoop1.thisTrialN,blockLoop1.thisN,blockLoop1.thisIndex,stage2Loop.thisRepN,stage2Loop.thisTrialN,stage2Loop.thisN,stage2Loop.thisIndex,blockLoop2.thisRepN,blockLoop2.thisTrialN,blockLoop2.thisN,blockLoop2.thisIndex,testLoop.thisRepN,testLoop.thisTrialN,testLoop.thisN,testLoop.thisIndex,blockLoopTest.thisRepN,blockLoopTest.thisTrialN,blockLoopTest.thisN,blockLoopTest.thisIndex,cuePics,id_instr_text.started,id_instr_text.stopped,space_to_continue_2.started,space_to_continue_2.stopped,end_instructions_resp_3.keys,end_instructions_resp_3.rt,end_instructions_resp_3.started,end_instructions_resp_3.stopped,id_input_instr.started,id_input_instr.stopped,id_input_rect.started,id_input_rect.stopped,id_input_resp.keys,id_input_resp.rt,id_input_resp.started,id_input_resp.stopped,sonaID,id_input_text.started,id_input_text.stopped,final_text.started,final_text.stopped,instructions.started,instructions.stopped,end_instructions_resp.keys,end_instructions_resp.rt,end_instructions_resp.started,end_instructions_resp.stopped,space_to_continue.started,space_to_continue.stopped,instructions_stage0.started,instructions_stage0.stopped,end_instructions_resp_stage0.keys,end_instructions_resp_stage0.rt,end_instructions_resp_stage0.started,end_instructions_resp_stage0.stopped,space_to_continue_stage0.started,space_to_continue_stage0.stopped,text.started,text.stopped,resp_text1.started,resp_text1.stopped,resp_text2.started,resp_text2.stopped,trial_resp.keys,trial_resp.corr,trial_resp.rt,trial_resp.started,trial_resp.stopped,cue1Image.started,cue1Image.stopped,cue2Image.started,cue2Image.stopped,cue1Image_fb.started,cue1Image_fb.stopped,cue2Image_fb.started,cue2Image_fb.stopped,fb_text_answer.started,fb_text_answer.stopped,feedback_image.started,feedback_image.stopped,instructions_stage1.started,instructions_stage1.stopped,end_instructions_resp_stage1.keys,end_instructions_resp_stage1.rt,end_instructions_resp_stage1.started,end_instructions_resp_stage1.stopped,space_to_continue_stage1.started,space_to_continue_stage1.stopped,instructions_2.started,instructions_2.stopped,end_instructions_resp_2.keys,end_instructions_resp_2.rt,end_instructions_resp_2.started,end_instructions_resp_2.stopped,press_space_to_continue_stage2.started,press_space_to_continue_stage2.stopped,instructions_testStage1.started,instructions_testStage1.stopped,end_instructions_resp_test1.keys,end_instructions_resp_test1.rt,end_instructions_resp_test1.started,end_instructions_resp_test1.stopped,press_space_to_continue_test1.started,press_space_to_continue_test1.stopped,cue1Image_testChoice.started,cue1Image_testChoice.stopped,cue2Image_testChoice.started,cue2Image_testChoice.stopped,test_resp.keys,test_resp.corr,test_resp.rt,test_resp.started,test_resp.stopped,cue1Image_testConf.started,cue1Image_testConf.stopped,cue2Image_testConf.started,cue2Image_testConf.stopped,conf_reminder.started,conf_reminder.stopped,conf_rating.response,conf_rating.rt,conf_rating.started,conf_rating.stopped,session,participant,date,expName,psychopyVersion,frameRate,
,,,,,,,,,,,,,,,,,,,,,,,,,,,,,,,,,,,,,,,,,,,"{'none': 'pictures/20M_AN_C.png', 'alpha': 'pictures/SHINEd_melon.png', 'beta': 'pictures/SHINEd_apple.png', 'theta': 'pictures/SHINEd_pear.png', 'phi': 'pictures/SHINEd_pepper.png', 'T1': 'pictures/31M_AN_C.png', 'T2': 'pictures/34M_AN_C.png', 'T3': 'pictures/38M_AN_C.png', 'T4': 'pictures/32M_AN_C.png', 'T5': 'pictures/25M_AN_C.png', 'T6': 'pictures/33M_AN_C.png', 'B1': 'pictures/36M_NE_C.png', 'B2': 'pictures/22M_NE_C.png', 'B3': 'pictures/23M_NE_C.png', 'B4': 'pictures/26M_NE_C.png', 'B5': 'pictures/37M_NE_C.png', 'B6': 'pictures/20M_NE_C.png'}",25.072522219998064,None,30.0729981709992,None,space,973.0713320370014,30.0729981709992,None,,,,,,,,,,,,,,,,,,,,,,,,,,,,,,,,,,,,,,,,,,,,,,,,,,,,,,,,,,,,,,,,,,,,,,,,,,,,,,,,,,,,,,,,,,,,,,,,001,126,2020_Feb_13_1448,spring_faces,3.1.5,60.0607483239406,
,,,,,,,,,,,,,,,,,,,,,,,,,,,,,,,,,,,,,,,,,,,,,,,,,,,,1003.5897886899984,None,1003.5897886899984,None,"['backspace', 'backspace', 'backspace', 'backspace', 'backspace', 'backspace', 'backspace', 'backspace', 'backspace', '0', '3', '2', '0', 'a', 'l', 'm', 'e', 'n']","[28.034486544001993, 28.242642855999293, 35.170542488001956, 35.3785522290018, 35.52254755100148, 52.418495649999386, 52.61061247199905, 52.80253407700002, 52.978506342999026, 62.226595505999285, 62.80255103700256, 70.88254023500122, 71.25051361700025, 74.30653202800022, 74.72255046899954, 80.88249934499981, 81.05859498599966, 81.170537238002]",1003.5897886899984,None,,,,,,,,,,,,,,,,,,,,,,,,,,,,,,,,,,,,,,,,,,,,,,,,,,,,,,,,,,,,,,,,,,,,,,,,,,,,,,,,,,,,,,,,001,126,2020_Feb_13_1448,spring_faces,3.1.5,60.0607483239406,
,,,,,,,,,,,,,,,,,,,,,,,,,,,,,,,,,,,,,,,,,,,,,,,,,,,,,,,,,,,,0320almen,1003.5897886899984,None,1003.5897886899984,None,1089.8398583099988,None,space,6.44872943700102,1094.8396243829993,None,,,,,,,,,,,,,,,,,,,,,,,,,,,,,,,,,,,,,,,,,,,,,,,,,,,,,,,,,,,,,,,,,,,,,,,,,,,,,001,126,2020_Feb_13_1448,spring_faces,3.1.5,60.0607483239406,
,,,,,,,,,,,,,,,,,,,,,,,,,,,,,,,,,,,,,,,,,,,,,,,,,,,,,,,,,,,,,,,,,,,,,,,1094.8396243829993,None,1101.3230096419975,None,space,8.94951245899938,1106.322837255997,None,,,,,,,,,,,,,,,,,,,,,,,,,,,,,,,,,,,,,,,,,,,,,,,,,,,,,,,,,,,,,,,,,,,,,001,126,2020_Feb_13_1448,spring_faces,3.1.5,60.0607483239406,
condition files/Stage0a.xlsx,0a,alpha,none,h,"['h', 'g']","['Chess', 'Go']","[0, 0.5]","[0, 0]",1,0,0,0,0,0,0,0,0,0,,,,,,,,,,,,,,,,,,,,,,,,,,,,,,,,,,,,,,,,,,,,,,,,,,,,,,,,,,,,,1106.322837255997,None,1115.3228583679993,None,1115.3228583679993,None,1115.3228583679993,None,g,0,3.7851740530022653,1117.02316461,None,1117.02316461,None,1117.02316461,None,1120.889892965999,None,1120.889892965999,None,1120.889892965999,None,1120.889892965999,None,,,,,,,,,,,,,,,,,,,,,,,,,,,,,,,,,,,,,,,,,,,,001,126,2020_Feb_13_1448,spring_faces,3.1.5,60.0607483239406,
condition files/Stage0a.xlsx,0a,beta,none,g,"['h', 'g']","['Chess', 'Go']","[0, 0.5]","[0, 0]",1,0,0,0,0,0,0,1,1,1,,,,,,,,,,,,,,,,,,,,,,,,,,,,,,,,,,,,,,,,,,,,,,,,,,,,,,,,,,,,,,,1122.8392988269989,None,1122.8392988269989,None,1122.8392988269989,None,h,0,1.3144405279999773,1124.3898819839997,None,1124.3898819839997,None,1124.3898819839997,None,1125.75772926,None,1125.75772926,None,1125.75772926,None,1125.75772926,None,,,,,,,,,,,,,,,,,,,,,,,,,,,,,,,,,,,,,,,,,,,,001,126,2020_Feb_13_1448,spring_faces,3.1.5,60.0607483239406,
condition files/Stage0a.xlsx,0a,beta,none,g,"['h', 'g']","['Chess', 'Go']","[0, 0.5]","[0, 0]",1,0,0,1,1,1,0,0,0,1,,,,,,,,,,,,,,,,,,,,,,,,,,,,,,,,,,,,,,,,,,,,,,,,,,,,,,,,,,,,,,,1127.739841276998,None,1127.739841276998,None,1127.739841276998,None,g,1,1.2313896359992214,1129.2729484149968,None,1129.2729484149968,None,1129.2729484149968,None,1130.5561875249987,None,1130.5561875249987,None,1130.5561875249987,None,1130.5561875249987,None,,,,,,,,,,,,,,,,,,,,,,,,,,,,,,,,,,,,,,,,,,,,001,126,2020_Feb_13_1448,spring_faces,3.1.5,60.0607483239406,
condition files/Stage0a.xlsx,0a,alpha,none,h,"['h', 'g']","['Chess', 'Go']","[0, 0.5]","[0, 0]",1,0,0,1,1,1,0,1,1,0,,,,,,,,,,,,,,,,,,,,,,,,,,,,,,,,,,,,,,,,,,,,,,,,,,,,,,,,,,,,,,,1132.5228612679966,None,1132.5228612679966,None,1132.5228612679966,None,h,1,0.5759985469994717,1134.0564263439992,None,1134.0564263439992,None,1134.0564263439992,None,1134.6900168609973,None,1134.6900168609973,None,1134.6900168609973,None,1134.6900168609973,None,,,,,,,,,,,,,,,,,,,,,,,,,,,,,,,,,,,,,,,,,,,,001,126,2020_Feb_13_1448,spring_faces,3.1.5,60.0607483239406,
condition files/Stage0a.xlsx,0a,alpha,none,h,"['h', 'g']","['Chess', 'Go']","[0, 0.5]","[0, 0]",1,0,0,2,2,2,0,0,0,0,,,,,,,,,,,,,,,,,,,,,,,,,,,,,,,,,,,,,,,,,,,,,,,,,,,,,,,,,,,,,,,1136.6727648959968,None,1136.6727648959968,None,1136.6727648959968,None,h,1,0.6975699920003535,1138.206762283,None,1138.206762283,None,1138.206762283,None,1138.9564511159988,None,1138.9564511159988,None,1138.9564511159988,None,1138.9564511159988,None,,,,,,,,,,,,,,,,,,,,,,,,,,,,,,,,,,,,,,,,,,,,001,126,2020_Feb_13_1448,spring_faces,3.1.5,60.0607483239406,
condition files/Stage0a.xlsx,0a,beta,none,g,"['h', 'g']","['Chess', 'Go']","[0, 0.5]","[0, 0]",1,0,0,2,2,2,0,1,1,1,,,,,,,,,,,,,,,,,,,,,,,,,,,,,,,,,,,,,,,,,,,,,,,,,,,,,,,,,,,,,,,1140.922784530998,None,1140.922784530998,None,1140.922784530998,None,g,1,0.6398552919999929,1142.4565424199973,None,1142.4565424199973,None,1142.4565424199973,None,1143.1563555219982,None,1143.1563555219982,None,1143.1563555219982,None,1143.1563555219982,None,,,,,,,,,,,,,,,,,,,,,,,,,,,,,,,,,,,,,,,,,,,,001,126,2020_Feb_13_1448,spring_faces,3.1.5,60.0607483239406,
condition files/Stage0a.xlsx,0a,alpha,none,h,"['h', 'g']","['Chess', 'Go']","[0, 0.5]","[0, 0]",1,0,0,3,3,3,0,0,0,0,,,,,,,,,,,,,,,,,,,,,,,,,,,,,,,,,,,,,,,,,,,,,,,,,,,,,,,,,,,,,,,1145.1398835269974,None,1145.1398835269974,None,1145.1398835269974,None,h,1,0.5513818300023559,1146.6729575309982,None,1146.6729575309982,None,1146.6729575309982,None,1147.2895149509968,None,1147.2895149509968,None,1147.2895149509968,None,1147.2895149509968,None,,,,,,,,,,,,,,,,,,,,,,,,,,,,,,,,,,,,,,,,,,,,001,126,2020_Feb_13_1448,spring_faces,3.1.5,60.0607483239406,
condition files/Stage0a.xlsx,0a,beta,none,g,"['h', 'g']","['Chess', 'Go']","[0, 0.5]","[0, 0]",1,0,0,3,3,3,0,1,1,1,,,,,,,,,,,,,,,,,,,,,,,,,,,,,,,,,,,,,,,,,,,,,,,,,,,,,,,,,,,,,,,1149.2558326749968,None,1149.2558326749968,None,1149.2558326749968,None,g,1,0.6590352130006067,1150.789364262997,None,1150.789364262997,None,1150.789364262997,None,1151.5058745019996,None,1151.5058745019996,None,1151.5058745019996,None,1151.5058745019996,None,,,,,,,,,,,,,,,,,,,,,,,,,,,,,,,,,,,,,,,,,,,,001,126,2020_Feb_13_1448,spring_faces,3.1.5,60.0607483239406,
condition files/Stage0a.xlsx,0a,alpha,none,h,"['h', 'g']","['Chess', 'Go']","[0, 0.5]","[0, 0]",1,0,0,4,4,4,0,0,0,0,,,,,,,,,,,,,,,,,,,,,,,,,,,,,,,,,,,,,,,,,,,,,,,,,,,,,,,,,,,,,,,1153.489493039,None,1153.489493039,None,1153.489493039,None,h,1,0.6656526849983493,1155.0226954779973,None,1155.0226954779973,None,1155.0226954779973,None,1155.7395738069972,None,1155.7395738069972,None,1155.7395738069972,None,1155.7395738069972,None,,,,,,,,,,,,,,,,,,,,,,,,,,,,,,,,,,,,,,,,,,,,001,126,2020_Feb_13_1448,spring_faces,3.1.5,60.0607483239406,
condition files/Stage0a.xlsx,0a,beta,none,g,"['h', 'g']","['Chess', 'Go']","[0, 0.5]","[0, 0]",1,0,0,4,4,4,0,1,1,1,,,,,,,,,,,,,,,,,,,,,,,,,,,,,,,,,,,,,,,,,,,,,,,,,,,,,,,,,,,,,,,1157.7059873839971,None,1157.7059873839971,None,1157.7059873839971,None,g,1,0.4805346000030113,1159.2397955029992,None,1159.2397955029992,None,1159.2397955029992,None,1159.7730387699994,None,1159.7730387699994,None,1159.7730387699994,None,1159.7730387699994,None,,,,,,,,,,,,,,,,,,,,,,,,,,,,,,,,,,,,,,,,,,,,001,126,2020_Feb_13_1448,spring_faces,3.1.5,60.0607483239406,
condition files/Stage0a.xlsx,0a,beta,none,g,"['h', 'g']","['Chess', 'Go']","[0, 0.5]","[0, 0]",1,0,0,5,5,5,0,0,0,1,,,,,,,,,,,,,,,,,,,,,,,,,,,,,,,,,,,,,,,,,,,,,,,,,,,,,,,,,,,,,,,1161.7563226719976,None,1161.7563226719976,None,1161.7563226719976,None,g,1,0.6389482209997368,1163.289391645998,None,1163.289391645998,None,1163.289391645998,None,1163.9897670969985,None,1163.9897670969985,None,1163.9897670969985,None,1163.9897670969985,None,,,,,,,,,,,,,,,,,,,,,,,,,,,,,,,,,,,,,,,,,,,,001,126,2020_Feb_13_1448,spring_faces,3.1.5,60.0607483239406,
condition files/Stage0a.xlsx,0a,alpha,none,h,"['h', 'g']","['Chess', 'Go']","[0, 0.5]","[0, 0]",1,0,0,5,5,5,0,1,1,0,,,,,,,,,,,,,,,,,,,,,,,,,,,,,,,,,,,,,,,,,,,,,,,,,,,,,,,,,,,,,,,1165.9561988899986,None,1165.9561988899986,None,1165.9561988899986,None,h,1,0.6310478380000859,1167.4893035679997,None,1167.4893035679997,None,1167.4893035679997,None,1168.172487726999,None,1168.172487726999,None,1168.172487726999,None,1168.172487726999,None,,,,,,,,,,,,,,,,,,,,,,,,,,,,,,,,,,,,,,,,,,,,001,126,2020_Feb_13_1448,spring_faces,3.1.5,60.0607483239406,
condition files/Stage0b_1.xlsx,0b,none,beta,g,"['h', 'g']","['Chess', 'Go']","[-0.15, 0.5]","[0.15, 0.5]",0,1,0,6,6,6,0,0,0,1,,,,,,,,,,,,,,,,,,,,,,,,,,,,,,,,,,,,,,,,,,,,,,,,,,,,,,,,,,,,,,,1170.1562137499968,None,1170.1562137499968,None,1170.1562137499968,None,g,1,0.8460067870000785,1171.7063019809975,None,1171.7063019809975,None,1171.7063019809975,None,1172.622222525999,None,1172.622222525999,None,1172.622222525999,None,1172.622222525999,None,,,,,,,,,,,,,,,,,,,,,,,,,,,,,,,,,,,,,,,,,,,,001,126,2020_Feb_13_1448,spring_faces,3.1.5,60.0607483239406,
condition files/Stage0b_1.xlsx,0b,alpha,none,h,"['h', 'g']","['Chess', 'Go']","[-0.15, 0.5]","[0.15, 0.5]",1,0,0,6,6,6,0,1,1,0,,,,,,,,,,,,,,,,,,,,,,,,,,,,,,,,,,,,,,,,,,,,,,,,,,,,,,,,,,,,,,,1174.5728392579986,None,1174.5728392579986,None,1174.5728392579986,None,h,1,0.5218215390013938,1176.1104624459986,None,1176.1104624459986,None,1176.1104624459986,None,1176.6905154319975,None,1176.6905154319975,None,1176.6905154319975,None,1176.6905154319975,None,,,,,,,,,,,,,,,,,,,,,,,,,,,,,,,,,,,,,,,,,,,,001,126,2020_Feb_13_1448,spring_faces,3.1.5,60.0607483239406,
condition files/Stage0b_2.xlsx,0b,beta,none,g,"['h', 'g']","['Chess', 'Go']","[-0.15, 0.5]","[0.15, 0.5]",1,0,0,7,7,7,0,0,0,1,,,,,,,,,,,,,,,,,,,,,,,,,,,,,,,,,,,,,,,,,,,,,,,,,,,,,,,,,,,,,,,1178.6730283609977,None,1178.6730283609977,None,1178.6730283609977,None,g,1,3.018275458001881,1180.2060182939967,None,1180.2060182939967,None,1180.2060182939967,None,1183.2899598679978,None,1183.2899598679978,None,1183.2899598679978,None,1183.2899598679978,None,,,,,,,,,,,,,,,,,,,,,,,,,,,,,,,,,,,,,,,,,,,,001,126,2020_Feb_13_1448,spring_faces,3.1.5,60.0607483239406,
condition files/Stage0b_2.xlsx,0b,none,alpha,h,"['h', 'g']","['Chess', 'Go']","[-0.15, 0.5]","[0.15, 0.5]",0,1,0,7,7,7,0,1,1,0,,,,,,,,,,,,,,,,,,,,,,,,,,,,,,,,,,,,,,,,,,,,,,,,,,,,,,,,,,,,,,,1185.2561886199983,None,1185.2561886199983,None,1185.2561886199983,None,h,1,0.4819934019978973,1186.8063345909977,None,1186.8063345909977,None,1186.8063345909977,None,1187.3557376749995,None,1187.3557376749995,None,1187.3557376749995,None,1187.3557376749995,None,,,,,,,,,,,,,,,,,,,,,,,,,,,,,,,,,,,,,,,,,,,,001,126,2020_Feb_13_1448,spring_faces,3.1.5,60.0607483239406,
condition files/Stage0b_1.xlsx,0b,alpha,none,h,"['h', 'g']","['Chess', 'Go']","[-0.15, 0.5]","[0.15, 0.5]",1,0,0,8,8,8,0,0,0,0,,,,,,,,,,,,,,,,,,,,,,,,,,,,,,,,,,,,,,,,,,,,,,,,,,,,,,,,,,,,,,,1189.3231182399977,None,1189.3231182399977,None,1189.3231182399977,None,h,1,0.6515535589969659,1190.8607897939983,None,1190.8607897939983,None,1190.8607897939983,None,1191.5727695459973,None,1191.5727695459973,None,1191.5727695459973,None,1191.5727695459973,None,,,,,,,,,,,,,,,,,,,,,,,,,,,,,,,,,,,,,,,,,,,,001,126,2020_Feb_13_1448,spring_faces,3.1.5,60.0607483239406,
condition files/Stage0b_1.xlsx,0b,none,beta,g,"['h', 'g']","['Chess', 'Go']","[-0.15, 0.5]","[0.15, 0.5]",0,1,0,8,8,8,0,1,1,1,,,,,,,,,,,,,,,,,,,,,,,,,,,,,,,,,,,,,,,,,,,,,,,,,,,,,,,,,,,,,,,1193.539416705,None,1193.539416705,None,1193.539416705,None,g,1,0.4236727150018851,1195.07267143,None,1195.07267143,None,1195.07267143,None,1195.5604376129995,None,1195.5604376129995,None,1195.5604376129995,None,1195.5604376129995,None,,,,,,,,,,,,,,,,,,,,,,,,,,,,,,,,,,,,,,,,,,,,001,126,2020_Feb_13_1448,spring_faces,3.1.5,60.0607483239406,
condition files/Stage0b_2.xlsx,0b,none,alpha,h,"['h', 'g']","['Chess', 'Go']","[-0.15, 0.5]","[0.15, 0.5]",0,1,0,9,9,9,0,0,0,0,,,,,,,,,,,,,,,,,,,,,,,,,,,,,,,,,,,,,,,,,,,,,,,,,,,,,,,,,,,,,,,1197.5396201779986,None,1197.5396201779986,None,1197.5396201779986,None,h,1,1.0299646319981548,1199.074374298998,None,1199.074374298998,None,1199.074374298998,None,1200.1563319729976,None,1200.1563319729976,None,1200.1563319729976,None,1200.1563319729976,None,,,,,,,,,,,,,,,,,,,,,,,,,,,,,,,,,,,,,,,,,,,,001,126,2020_Feb_13_1448,spring_faces,3.1.5,60.0607483239406,
condition files/Stage0b_2.xlsx,0b,beta,none,g,"['h', 'g']","['Chess', 'Go']","[-0.15, 0.5]","[0.15, 0.5]",1,0,0,9,9,9,0,1,1,1,,,,,,,,,,,,,,,,,,,,,,,,,,,,,,,,,,,,,,,,,,,,,,,,,,,,,,,,,,,,,,,1202.1225137729998,None,1202.1225137729998,None,1202.1225137729998,None,g,1,0.39405253500081017,1203.6622969259988,None,1203.6622969259988,None,1203.6622969259988,None,1204.1107585189966,None,1204.1107585189966,None,1204.1107585189966,None,1204.1107585189966,None,,,,,,,,,,,,,,,,,,,,,,,,,,,,,,,,,,,,,,,,,,,,001,126,2020_Feb_13_1448,spring_faces,3.1.5,60.0607483239406,
condition files/Stage0b_1.xlsx,0b,none,beta,g,"['h', 'g']","['Chess', 'Go']","[-0.15, 0.5]","[0.15, 0.5]",0,1,0,10,10,10,0,0,0,1,,,,,,,,,,,,,,,,,,,,,,,,,,,,,,,,,,,,,,,,,,,,,,,,,,,,,,,,,,,,,,,1206.0894514259999,None,1206.0894514259999,None,1206.0894514259999,None,g,1,0.5285515509967809,1207.6397956349974,None,1207.6397956349974,None,1207.6397956349974,None,1208.2231751429972,None,1208.2231751429972,None,1208.2231751429972,None,1208.2231751429972,None,,,,,,,,,,,,,,,,,,,,,,,,,,,,,,,,,,,,,,,,,,,,001,126,2020_Feb_13_1448,spring_faces,3.1.5,60.0607483239406,
condition files/Stage0b_1.xlsx,0b,alpha,none,h,"['h', 'g']","['Chess', 'Go']","[-0.15, 0.5]","[0.15, 0.5]",1,0,0,10,10,10,0,1,1,0,,,,,,,,,,,,,,,,,,,,,,,,,,,,,,,,,,,,,,,,,,,,,,,,,,,,,,,,,,,,,,,1210.1893362659976,None,1210.1893362659976,None,1210.1893362659976,None,h,1,0.4126468639988161,1211.739651767999,None,1211.739651767999,None,1211.739651767999,None,1212.2061078169972,None,1212.2061078169972,None,1212.2061078169972,None,1212.2061078169972,None,,,,,,,,,,,,,,,,,,,,,,,,,,,,,,,,,,,,,,,,,,,,001,126,2020_Feb_13_1448,spring_faces,3.1.5,60.0607483239406,
condition files/Stage0b_2.xlsx,0b,none,alpha,h,"['h', 'g']","['Chess', 'Go']","[-0.15, 0.5]","[0.15, 0.5]",0,1,0,11,11,11,0,0,0,0,,,,,,,,,,,,,,,,,,,,,,,,,,,,,,,,,,,,,,,,,,,,,,,,,,,,,,,,,,,,,,,1214.1896729159998,None,1214.1896729159998,None,1214.1896729159998,None,h,1,0.5068761619986617,1215.725560423998,None,1215.725560423998,None,1215.725560423998,None,1216.2924831169985,None,1216.2924831169985,None,1216.2924831169985,None,1216.2924831169985,None,,,,,,,,,,,,,,,,,,,,,,,,,,,,,,,,,,,,,,,,,,,,001,126,2020_Feb_13_1448,spring_faces,3.1.5,60.0607483239406,
condition files/Stage0b_2.xlsx,0b,beta,none,g,"['h', 'g']","['Chess', 'Go']","[-0.15, 0.5]","[0.15, 0.5]",1,0,0,11,11,11,0,1,1,1,,,,,,,,,,,,,,,,,,,,,,,,,,,,,,,,,,,,,,,,,,,,,,,,,,,,,,,,,,,,,,,1218.2559490179992,None,1218.2559490179992,None,1218.2559490179992,None,g,1,0.44190592900122283,1219.8064838109967,None,1219.8064838109967,None,1219.8064838109967,None,1220.307384730997,None,1220.307384730997,None,1220.307384730997,None,1220.307384730997,None,,,,,,,,,,,,,,,,,,,,,,,,,,,,,,,,,,,,,,,,,,,,001,126,2020_Feb_13_1448,spring_faces,3.1.5,60.0607483239406,
condition files/Stage0c_1.xlsx,0c,alpha,phi,h,"['h', 'g']","['Chess', 'Go']","[-0.15, 0.5]","[0.15, 0.5]",1,1,0,12,12,12,0,0,0,1,,,,,,,,,,,,,,,,,,,,,,,,,,,,,,,,,,,,,,,,,,,,,,,,,,,,,,,,,,,,,,,1222.289228622998,None,1222.289228622998,None,1222.289228622998,None,h,1,2.2173244599980535,1223.822987563999,None,1223.822987563999,None,1223.822987563999,None,1226.1063060839988,None,1226.1063060839988,None,1226.1063060839988,None,1226.1063060839988,None,,,,,,,,,,,,,,,,,,,,,,,,,,,,,,,,,,,,,,,,,,,,001,126,2020_Feb_13_1448,spring_faces,3.1.5,60.0607483239406,
condition files/Stage0c_1.xlsx,0c,beta,theta,g,"['h', 'g']","['Chess', 'Go']","[-0.15, 0.5]","[0.15, 0.5]",1,1,0,12,12,12,0,1,1,2,,,,,,,,,,,,,,,,,,,,,,,,,,,,,,,,,,,,,,,,,,,,,,,,,,,,,,,,,,,,,,,1228.0730588319966,None,1228.0730588319966,None,1228.0730588319966,None,g,1,0.642023540000082,1229.606373257,None,1229.606373257,None,1229.606373257,None,1230.3061916009974,None,1230.3061916009974,None,1230.3061916009974,None,1230.3061916009974,None,,,,,,,,,,,,,,,,,,,,,,,,,,,,,,,,,,,,,,,,,,,,001,126,2020_Feb_13_1448,spring_faces,3.1.5,60.0607483239406,
condition files/Stage0c_1.xlsx,0c,theta,alpha,h,"['h', 'g']","['Chess', 'Go']","[-0.15, 0.5]","[0.15, 0.5]",1,1,0,12,12,12,0,2,2,0,,,,,,,,,,,,,,,,,,,,,,,,,,,,,,,,,,,,,,,,,,,,,,,,,,,,,,,,,,,,,,,1232.272944602999,None,1232.272944602999,None,1232.272944602999,None,h,1,4.538007536000805,1233.8063652959972,None,1233.8063652959972,None,1233.8063652959972,None,1238.4060002309998,None,1238.4060002309998,None,1238.4060002309998,None,1238.4060002309998,None,,,,,,,,,,,,,,,,,,,,,,,,,,,,,,,,,,,,,,,,,,,,001,126,2020_Feb_13_1448,spring_faces,3.1.5,60.0607483239406,
condition files/Stage0c_1.xlsx,0c,phi,beta,g,"['h', 'g']","['Chess', 'Go']","[-0.15, 0.5]","[0.15, 0.5]",1,1,0,12,12,12,0,3,3,3,,,,,,,,,,,,,,,,,,,,,,,,,,,,,,,,,,,,,,,,,,,,,,,,,,,,,,,,,,,,,,,1240.3728353469996,None,1240.3728353469996,None,1240.3728353469996,None,g,1,0.6299916070020117,1241.9063425789973,None,1241.9063425789973,None,1241.9063425789973,None,1242.5894234999978,None,1242.5894234999978,None,1242.5894234999978,None,1242.5894234999978,None,,,,,,,,,,,,,,,,,,,,,,,,,,,,,,,,,,,,,,,,,,,,001,126,2020_Feb_13_1448,spring_faces,3.1.5,60.0607483239406,
condition files/Stage0c_2.xlsx,0c,theta,beta,g,"['h', 'g']","['Chess', 'Go']","[-0.15, 0.5]","[0.15, 0.5]",1,1,0,13,13,13,0,0,0,2,,,,,,,,,,,,,,,,,,,,,,,,,,,,,,,,,,,,,,,,,,,,,,,,,,,,,,,,,,,,,,,1244.5732001830002,None,1244.5732001830002,None,1244.5732001830002,None,g,1,1.822092619000614,1246.1062616479976,None,1246.1062616479976,None,1246.1062616479976,None,1247.9727049909998,None,1247.9727049909998,None,1247.9727049909998,None,1247.9727049909998,None,,,,,,,,,,,,,,,,,,,,,,,,,,,,,,,,,,,,,,,,,,,,001,126,2020_Feb_13_1448,spring_faces,3.1.5,60.0607483239406,
condition files/Stage0c_2.xlsx,0c,phi,alpha,h,"['h', 'g']","['Chess', 'Go']","[-0.15, 0.5]","[0.15, 0.5]",1,1,0,13,13,13,0,1,1,1,,,,,,,,,,,,,,,,,,,,,,,,,,,,,,,,,,,,,,,,,,,,,,,,,,,,,,,,,,,,,,,1249.9561963179985,None,1249.9561963179985,None,1249.9561963179985,None,h,1,0.5022698060020048,1251.4900595679974,None,1251.4900595679974,None,1251.4900595679974,None,1252.056189996998,None,1252.056189996998,None,1252.056189996998,None,1252.056189996998,None,,,,,,,,,,,,,,,,,,,,,,,,,,,,,,,,,,,,,,,,,,,,001,126,2020_Feb_13_1448,spring_faces,3.1.5,60.0607483239406,
condition files/Stage0c_2.xlsx,0c,beta,phi,g,"['h', 'g']","['Chess', 'Go']","[-0.15, 0.5]","[0.15, 0.5]",1,1,0,13,13,13,0,2,2,3,,,,,,,,,,,,,,,,,,,,,,,,,,,,,,,,,,,,,,,,,,,,,,,,,,,,,,,,,,,,,,,1254.0229190179998,None,1254.0229190179998,None,1254.0229190179998,None,g,1,1.3479381299985107,1255.5563860399998,None,1255.5563860399998,None,1255.5563860399998,None,1256.9562304309984,None,1256.9562304309984,None,1256.9562304309984,None,1256.9562304309984,None,,,,,,,,,,,,,,,,,,,,,,,,,,,,,,,,,,,,,,,,,,,,001,126,2020_Feb_13_1448,spring_faces,3.1.5,60.0607483239406,
condition files/Stage0c_2.xlsx,0c,alpha,theta,h,"['h', 'g']","['Chess', 'Go']","[-0.15, 0.5]","[0.15, 0.5]",1,1,0,13,13,13,0,3,3,0,,,,,,,,,,,,,,,,,,,,,,,,,,,,,,,,,,,,,,,,,,,,,,,,,,,,,,,,,,,,,,,1258.9223580489997,None,1258.9223580489997,None,1258.9223580489997,None,h,1,1.1357925629999954,1260.456532682998,None,1260.456532682998,None,1260.456532682998,None,1261.6559531159983,None,1261.6559531159983,None,1261.6559531159983,None,1261.6559531159983,None,,,,,,,,,,,,,,,,,,,,,,,,,,,,,,,,,,,,,,,,,,,,001,126,2020_Feb_13_1448,spring_faces,3.1.5,60.0607483239406,
condition files/Stage0c_1.xlsx,0c,phi,beta,g,"['h', 'g']","['Chess', 'Go']","[-0.15, 0.5]","[0.15, 0.5]",1,1,0,14,14,14,0,0,0,3,,,,,,,,,,,,,,,,,,,,,,,,,,,,,,,,,,,,,,,,,,,,,,,,,,,,,,,,,,,,,,,1263.639369190998,None,1263.639369190998,None,1263.639369190998,None,g,1,1.0753937590015994,1265.1730181759995,None,1265.1730181759995,None,1265.1730181759995,None,1266.3063635239996,None,1266.3063635239996,None,1266.3063635239996,None,1266.3063635239996,None,,,,,,,,,,,,,,,,,,,,,,,,,,,,,,,,,,,,,,,,,,,,001,126,2020_Feb_13_1448,spring_faces,3.1.5,60.0607483239406,
condition files/Stage0c_1.xlsx,0c,theta,alpha,h,"['h', 'g']","['Chess', 'Go']","[-0.15, 0.5]","[0.15, 0.5]",1,1,0,14,14,14,0,1,1,0,,,,,,,,,,,,,,,,,,,,,,,,,,,,,,,,,,,,,,,,,,,,,,,,,,,,,,,,,,,,,,,1268.2729157289978,None,1268.2729157289978,None,1268.2729157289978,None,h,1,0.7776680320021114,1269.8066553179997,None,1269.8066553179997,None,1269.8066553179997,None,1270.6400396190002,None,1270.6400396190002,None,1270.6400396190002,None,1270.6400396190002,None,,,,,,,,,,,,,,,,,,,,,,,,,,,,,,,,,,,,,,,,,,,,001,126,2020_Feb_13_1448,spring_faces,3.1.5,60.0607483239406,
condition files/Stage0c_1.xlsx,0c,alpha,phi,h,"['h', 'g']","['Chess', 'Go']","[-0.15, 0.5]","[0.15, 0.5]",1,1,0,14,14,14,0,2,2,1,,,,,,,,,,,,,,,,,,,,,,,,,,,,,,,,,,,,,,,,,,,,,,,,,,,,,,,,,,,,,,,1272.6062290349983,None,1272.6062290349983,None,1272.6062290349983,None,h,1,0.8919287249991612,1274.140473108997,None,1274.140473108997,None,1274.140473108997,None,1275.0733245509982,None,1275.0733245509982,None,1275.0733245509982,None,1275.0733245509982,None,,,,,,,,,,,,,,,,,,,,,,,,,,,,,,,,,,,,,,,,,,,,001,126,2020_Feb_13_1448,spring_faces,3.1.5,60.0607483239406,
condition files/Stage0c_1.xlsx,0c,beta,theta,g,"['h', 'g']","['Chess', 'Go']","[-0.15, 0.5]","[0.15, 0.5]",1,1,0,14,14,14,0,3,3,2,,,,,,,,,,,,,,,,,,,,,,,,,,,,,,,,,,,,,,,,,,,,,,,,,,,,,,,,,,,,,,,1277.0558303399994,None,1277.0558303399994,None,1277.0558303399994,None,g,1,1.0351840359980997,1278.589108889999,None,1278.589108889999,None,1278.589108889999,None,1279.6897836159987,None,1279.6897836159987,None,1279.6897836159987,None,1279.6897836159987,None,,,,,,,,,,,,,,,,,,,,,,,,,,,,,,,,,,,,,,,,,,,,001,126,2020_Feb_13_1448,spring_faces,3.1.5,60.0607483239406,
condition files/Stage0c_2.xlsx,0c,alpha,theta,h,"['h', 'g']","['Chess', 'Go']","[-0.15, 0.5]","[0.15, 0.5]",1,1,0,15,15,15,0,0,0,0,,,,,,,,,,,,,,,,,,,,,,,,,,,,,,,,,,,,,,,,,,,,,,,,,,,,,,,,,,,,,,,1281.6725076080002,None,1281.6725076080002,None,1281.6725076080002,None,h,1,0.9138969759987958,1283.206438366,None,1283.206438366,None,1283.206438366,None,1284.1730029409991,None,1284.1730029409991,None,1284.1730029409991,None,1284.1730029409991,None,,,,,,,,,,,,,,,,,,,,,,,,,,,,,,,,,,,,,,,,,,,,001,126,2020_Feb_13_1448,spring_faces,3.1.5,60.0607483239406,
condition files/Stage0c_2.xlsx,0c,beta,phi,g,"['h', 'g']","['Chess', 'Go']","[-0.15, 0.5]","[0.15, 0.5]",1,1,0,15,15,15,0,1,1,3,,,,,,,,,,,,,,,,,,,,,,,,,,,,,,,,,,,,,,,,,,,,,,,,,,,,,,,,,,,,,,,1286.1394915189994,None,1286.1394915189994,None,1286.1394915189994,None,g,1,0.3998939220000466,1287.67243563,None,1287.67243563,None,1287.67243563,None,1288.1232298369978,None,1288.1232298369978,None,1288.1232298369978,None,1288.1232298369978,None,,,,,,,,,,,,,,,,,,,,,,,,,,,,,,,,,,,,,,,,,,,,001,126,2020_Feb_13_1448,spring_faces,3.1.5,60.0607483239406,
condition files/Stage0c_2.xlsx,0c,theta,beta,g,"['h', 'g']","['Chess', 'Go']","[-0.15, 0.5]","[0.15, 0.5]",1,1,0,15,15,15,0,2,2,2,,,,,,,,,,,,,,,,,,,,,,,,,,,,,,,,,,,,,,,,,,,,,,,,,,,,,,,,,,,,,,,1290.0895426809984,None,1290.0895426809984,None,1290.0895426809984,None,g,1,0.9934894670004724,1291.6229000589992,None,1291.6229000589992,None,1291.6229000589992,None,1292.656453345,None,1292.656453345,None,1292.656453345,None,1292.656453345,None,,,,,,,,,,,,,,,,,,,,,,,,,,,,,,,,,,,,,,,,,,,,001,126,2020_Feb_13_1448,spring_faces,3.1.5,60.0607483239406,
condition files/Stage0c_2.xlsx,0c,phi,alpha,h,"['h', 'g']","['Chess', 'Go']","[-0.15, 0.5]","[0.15, 0.5]",1,1,0,15,15,15,0,3,3,1,,,,,,,,,,,,,,,,,,,,,,,,,,,,,,,,,,,,,,,,,,,,,,,,,,,,,,,,,,,,,,,1294.6395464339985,None,1294.6395464339985,None,1294.6395464339985,None,h,1,0.6513759759982349,1296.1729295039986,None,1296.1729295039986,None,1296.1729295039986,None,1296.889173706997,None,1296.889173706997,None,1296.889173706997,None,1296.889173706997,None,,,,,,,,,,,,,,,,,,,,,,,,,,,,,,,,,,,,,,,,,,,,001,126,2020_Feb_13_1448,spring_faces,3.1.5,60.0607483239406,
condition files/Stage0c_1.xlsx,0c,beta,theta,g,"['h', 'g']","['Chess', 'Go']","[-0.15, 0.5]","[0.15, 0.5]",1,1,0,16,16,16,0,0,0,2,,,,,,,,,,,,,,,,,,,,,,,,,,,,,,,,,,,,,,,,,,,,,,,,,,,,,,,,,,,,,,,1298.8727903139988,None,1298.8727903139988,None,1298.8727903139988,None,g,1,0.930614285000047,1300.4057514569977,None,1300.4057514569977,None,1300.4057514569977,None,1301.3897578379983,None,1301.3897578379983,None,1301.3897578379983,None,1301.3897578379983,None,,,,,,,,,,,,,,,,,,,,,,,,,,,,,,,,,,,,,,,,,,,,001,126,2020_Feb_13_1448,spring_faces,3.1.5,60.0607483239406,
condition files/Stage0c_1.xlsx,0c,alpha,phi,h,"['h', 'g']","['Chess', 'Go']","[-0.15, 0.5]","[0.15, 0.5]",1,1,0,16,16,16,0,1,1,1,,,,,,,,,,,,,,,,,,,,,,,,,,,,,,,,,,,,,,,,,,,,,,,,,,,,,,,,,,,,,,,1303.356017012,None,1303.356017012,None,1303.356017012,None,h,1,0.975305338997714,1304.8890936719981,None,1304.8890936719981,None,1304.8890936719981,None,1305.9224841119976,None,1305.9224841119976,None,1305.9224841119976,None,1305.9224841119976,None,,,,,,,,,,,,,,,,,,,,,,,,,,,,,,,,,,,,,,,,,,,,001,126,2020_Feb_13_1448,spring_faces,3.1.5,60.0607483239406,
condition files/Stage0c_1.xlsx,0c,theta,alpha,h,"['h', 'g']","['Chess', 'Go']","[-0.15, 0.5]","[0.15, 0.5]",1,1,0,16,16,16,0,2,2,0,,,,,,,,,,,,,,,,,,,,,,,,,,,,,,,,,,,,,,,,,,,,,,,,,,,,,,,,,,,,,,,1307.8896132629998,None,1307.8896132629998,None,1307.8896132629998,None,h,1,1.0978588660000241,1309.4224709789996,None,1309.4224709789996,None,1309.4224709789996,None,1310.5577531259987,None,1310.5577531259987,None,1310.5577531259987,None,1310.5577531259987,None,,,,,,,,,,,,,,,,,,,,,,,,,,,,,,,,,,,,,,,,,,,,001,126,2020_Feb_13_1448,spring_faces,3.1.5,60.0607483239406,
condition files/Stage0c_1.xlsx,0c,phi,beta,g,"['h', 'g']","['Chess', 'Go']","[-0.15, 0.5]","[0.15, 0.5]",1,1,0,16,16,16,0,3,3,3,,,,,,,,,,,,,,,,,,,,,,,,,,,,,,,,,,,,,,,,,,,,,,,,,,,,,,,,,,,,,,,1312.5396555879997,None,1312.5396555879997,None,1312.5396555879997,None,g,1,0.8312036450006417,1314.0731240309979,None,1314.0731240309979,None,1314.0731240309979,None,1314.9564095969981,None,1314.9564095969981,None,1314.9564095969981,None,1314.9564095969981,None,,,,,,,,,,,,,,,,,,,,,,,,,,,,,,,,,,,,,,,,,,,,001,126,2020_Feb_13_1448,spring_faces,3.1.5,60.0607483239406,
condition files/Stage0c_2.xlsx,0c,phi,alpha,h,"['h', 'g']","['Chess', 'Go']","[-0.15, 0.5]","[0.15, 0.5]",1,1,0,17,17,17,0,0,0,1,,,,,,,,,,,,,,,,,,,,,,,,,,,,,,,,,,,,,,,,,,,,,,,,,,,,,,,,,,,,,,,1316.939316082,None,1316.939316082,None,1316.939316082,None,h,1,0.7992312850001326,1318.4731079179983,None,1318.4731079179983,None,1318.4731079179983,None,1319.3231263859998,None,1319.3231263859998,None,1319.3231263859998,None,1319.3231263859998,None,,,,,,,,,,,,,,,,,,,,,,,,,,,,,,,,,,,,,,,,,,,,001,126,2020_Feb_13_1448,spring_faces,3.1.5,60.0607483239406,
condition files/Stage0c_2.xlsx,0c,alpha,theta,h,"['h', 'g']","['Chess', 'Go']","[-0.15, 0.5]","[0.15, 0.5]",1,1,0,17,17,17,0,1,1,0,,,,,,,,,,,,,,,,,,,,,,,,,,,,,,,,,,,,,,,,,,,,,,,,,,,,,,,,,,,,,,,1321.289480334999,None,1321.289480334999,None,1321.289480334999,None,h,1,1.201374754000426,1322.822930860999,None,1322.822930860999,None,1322.822930860999,None,1324.075061094998,None,1324.075061094998,None,1324.075061094998,None,1324.075061094998,None,,,,,,,,,,,,,,,,,,,,,,,,,,,,,,,,,,,,,,,,,,,,001,126,2020_Feb_13_1448,spring_faces,3.1.5,60.0607483239406,
condition files/Stage0c_2.xlsx,0c,beta,phi,g,"['h', 'g']","['Chess', 'Go']","[-0.15, 0.5]","[0.15, 0.5]",1,1,0,17,17,17,0,2,2,3,,,,,,,,,,,,,,,,,,,,,,,,,,,,,,,,,,,,,,,,,,,,,,,,,,,,,,,,,,,,,,,1326.0562392049978,None,1326.0562392049978,None,1326.0562392049978,None,g,1,0.898453891997633,1327.5898833149986,None,1327.5898833149986,None,1327.5898833149986,None,1328.539876248,None,1328.539876248,None,1328.539876248,None,1328.539876248,None,,,,,,,,,,,,,,,,,,,,,,,,,,,,,,,,,,,,,,,,,,,,001,126,2020_Feb_13_1448,spring_faces,3.1.5,60.0607483239406,
condition files/Stage0c_2.xlsx,0c,theta,beta,g,"['h', 'g']","['Chess', 'Go']","[-0.15, 0.5]","[0.15, 0.5]",1,1,0,17,17,17,0,3,3,2,,,,,,,,,,,,,,,,,,,,,,,,,,,,,,,,,,,,,,,,,,,,,,,,,,,,,,,,,,,,,,,1330.5062668499995,None,1330.5062668499995,None,1330.5062668499995,None,g,1,0.801140307001333,1332.0391674059974,None,1332.0391674059974,None,1332.0391674059974,None,1332.8891613409978,None,1332.8891613409978,None,1332.8891613409978,None,1332.8891613409978,None,,,,,,,,,,,,,,,,,,,,,,,,,,,,,,,,,,,,,,,,,,,,001,126,2020_Feb_13_1448,spring_faces,3.1.5,60.0607483239406,
,,,,,,,,,,,,,,,,,,,,,,,,,,,,,,,,,,,,,,,,,,,,,,,,,,,,,,,,,,,,,,,,,,,,,,,,,,,,,,,,,,,,,,,,,,,,,,,,,,,,,,,,1334.889529259999,None,space,1.7826254869978584,1339.8897348379978,None,,,,,,,,,,,,,,,,,,,,,,,,,,,,,,,,,,,,,,001,126,2020_Feb_13_1448,spring_faces,3.1.5,60.0607483239406,
condition files/Stage1_1.xlsx,,B2,T1,m,"['c', 'm']","['Clue', 'Monopoly']","[-0.15, 0.5]","[0.15, 0.5]",1,1,,,,,,,,,0,0,0,0,0,0,0,2,,,,,,,,,,,,,,,,,,,,,,,,,,,,,,,,,,,,,,,,,,,,,,,,,,,,,,,1341.7232657819986,None,1341.7232657819986,None,1341.7232657819986,None,m,1,2.253121095000097,1343.3232211919967,None,1343.3232211919967,None,1343.3232211919967,None,1345.65664818,None,1345.65664818,None,1345.65664818,None,1345.65664818,None,,,,,,,1339.8897348379978,None,,,,,,,,,,,,,,,,,,,,,,,,,,,,,,,,,,,,001,126,2020_Feb_13_1448,spring_faces,3.1.5,60.0607483239406,
condition files/Stage1_1.xlsx,,T2,B2,m,"['c', 'm']","['Clue', 'Monopoly']","[-0.15, 0.5]","[0.15, 0.5]",1,1,,,,,,,,,0,0,0,0,0,1,1,3,,,,,,,,,,,,,,,,,,,,,,,,,,,,,,,,,,,,,,,,,,,,,,,,,,,,,,,1347.606224862997,None,1347.606224862997,None,1347.606224862997,None,c,0,1.5710200119974616,1349.1893342739968,None,1349.1893342739968,None,1349.1893342739968,None,1350.8233230499973,None,1350.8233230499973,None,1350.8233230499973,None,1350.8233230499973,None,,,,,,,,,,,,,,,,,,,,,,,,,,,,,,,,,,,,,,,,,,,,001,126,2020_Feb_13_1448,spring_faces,3.1.5,60.0607483239406,
condition files/Stage1_1.xlsx,,T4,B3,m,"['c', 'm']","['Clue', 'Monopoly']","[-0.15, 0.5]","[0.15, 0.5]",1,1,,,,,,,,,0,0,0,0,0,2,2,6,,,,,,,,,,,,,,,,,,,,,,,,,,,,,,,,,,,,,,,,,,,,,,,,,,,,,,,1352.7895461659973,None,1352.7895461659973,None,1352.7895461659973,None,c,0,0.9629569349999656,1354.373431377997,None,1354.373431377997,None,1354.373431377997,None,1355.3890446509977,None,1355.3890446509977,None,1355.3890446509977,None,1355.3890446509977,None,,,,,,,,,,,,,,,,,,,,,,,,,,,,,,,,,,,,,,,,,,,,001,126,2020_Feb_13_1448,spring_faces,3.1.5,60.0607483239406,
condition files/Stage1_1.xlsx,,B4,T4,m,"['c', 'm']","['Clue', 'Monopoly']","[-0.15, 0.5]","[0.15, 0.5]",1,1,,,,,,,,,0,0,0,0,0,3,3,7,,,,,,,,,,,,,,,,,,,,,,,,,,,,,,,,,,,,,,,,,,,,,,,,,,,,,,,1357.3556062709977,None,1357.3556062709977,None,1357.3556062709977,None,m,1,1.5979863749998913,1358.8903646959989,None,1358.8903646959989,None,1358.8903646959989,None,1360.539505785,None,1360.539505785,None,1360.539505785,None,1360.539505785,None,,,,,,,,,,,,,,,,,,,,,,,,,,,,,,,,,,,,,,,,,,,,001,126,2020_Feb_13_1448,spring_faces,3.1.5,60.0607483239406,
condition files/Stage1_1.xlsx,,T3,B4,c,"['c', 'm']","['Clue', 'Monopoly']","[-0.15, 0.5]","[0.15, 0.5]",1,1,,,,,,,,,0,0,0,0,0,4,4,5,,,,,,,,,,,,,,,,,,,,,,,,,,,,,,,,,,,,,,,,,,,,,,,,,,,,,,,1362.5062490309974,None,1362.5062490309974,None,1362.5062490309974,None,c,1,1.0706026160005422,1364.0417051409968,None,1364.0417051409968,None,1364.0417051409968,None,1365.1897482579989,None,1365.1897482579989,None,1365.1897482579989,None,1365.1897482579989,None,,,,,,,,,,,,,,,,,,,,,,,,,,,,,,,,,,,,,,,,,,,,001,126,2020_Feb_13_1448,spring_faces,3.1.5,60.0607483239406,
condition files/Stage1_1.xlsx,,T1,B1,c,"['c', 'm']","['Clue', 'Monopoly']","[-0.15, 0.5]","[0.15, 0.5]",1,1,,,,,,,,,0,0,0,0,0,5,5,0,,,,,,,,,,,,,,,,,,,,,,,,,,,,,,,,,,,,,,,,,,,,,,,,,,,,,,,1367.139256053997,None,1367.139256053997,None,1367.139256053997,None,m,0,1.1895797710021725,1368.7228393009973,None,1368.7228393009973,None,1368.7228393009973,None,1369.9725392709988,None,1369.9725392709988,None,1369.9725392709988,None,1369.9725392709988,None,,,,,,,,,,,,,,,,,,,,,,,,,,,,,,,,,,,,,,,,,,,,001,126,2020_Feb_13_1448,spring_faces,3.1.5,60.0607483239406,
condition files/Stage1_1.xlsx,,B1,T2,c,"['c', 'm']","['Clue', 'Monopoly']","[-0.15, 0.5]","[0.15, 0.5]",1,1,,,,,,,,,0,0,0,0,0,6,6,1,,,,,,,,,,,,,,,,,,,,,,,,,,,,,,,,,,,,,,,,,,,,,,,,,,,,,,,1371.939594391999,None,1371.939594391999,None,1371.939594391999,None,c,1,1.351590168000257,1373.4727078129981,None,1373.4727078129981,None,1373.4727078129981,None,1374.889426747999,None,1374.889426747999,None,1374.889426747999,None,1374.889426747999,None,,,,,,,,,,,,,,,,,,,,,,,,,,,,,,,,,,,,,,,,,,,,001,126,2020_Feb_13_1448,spring_faces,3.1.5,60.0607483239406,
condition files/Stage1_1.xlsx,,B3,T3,c,"['c', 'm']","['Clue', 'Monopoly']","[-0.15, 0.5]","[0.15, 0.5]",1,1,,,,,,,,,0,0,0,0,0,7,7,4,,,,,,,,,,,,,,,,,,,,,,,,,,,,,,,,,,,,,,,,,,,,,,,,,,,,,,,1376.8559113379997,None,1376.8559113379997,None,1376.8559113379997,None,c,1,1.600795542999549,1378.3915583039998,None,1378.3915583039998,None,1378.3915583039998,None,1380.0564293209973,None,1380.0564293209973,None,1380.0564293209973,None,1380.0564293209973,None,,,,,,,,,,,,,,,,,,,,,,,,,,,,,,,,,,,,,,,,,,,,001,126,2020_Feb_13_1448,spring_faces,3.1.5,60.0607483239406,
condition files/Stage1_2.xlsx,,B2,T2,m,"['c', 'm']","['Clue', 'Monopoly']","[-0.15, 0.5]","[0.15, 0.5]",1,1,,,,,,,,,0,1,1,1,0,0,0,3,,,,,,,,,,,,,,,,,,,,,,,,,,,,,,,,,,,,,,,,,,,,,,,,,,,,,,,1382.0397432559985,None,1382.0397432559985,None,1382.0397432559985,None,m,1,1.1551757080014795,1383.5731715939983,None,1383.5731715939983,None,1383.5731715939983,None,1384.7924542369983,None,1384.7924542369983,None,1384.7924542369983,None,1384.7924542369983,None,,,,,,,,,,,,,,,,,,,,,,,,,,,,,,,,,,,,,,,,,,,,001,126,2020_Feb_13_1448,spring_faces,3.1.5,60.0607483239406,
condition files/Stage1_2.xlsx,,T4,B4,m,"['c', 'm']","['Clue', 'Monopoly']","[-0.15, 0.5]","[0.15, 0.5]",1,1,,,,,,,,,0,1,1,1,0,1,1,7,,,,,,,,,,,,,,,,,,,,,,,,,,,,,,,,,,,,,,,,,,,,,,,,,,,,,,,1386.7562036109994,None,1386.7562036109994,None,1386.7562036109994,None,c,0,0.757263867999427,1388.2911656849974,None,1388.2911656849974,None,1388.2911656849974,None,1389.106386206,None,1389.106386206,None,1389.106386206,None,1389.106386206,None,,,,,,,,,,,,,,,,,,,,,,,,,,,,,,,,,,,,,,,,,,,,001,126,2020_Feb_13_1448,spring_faces,3.1.5,60.0607483239406,
condition files/Stage1_2.xlsx,,T3,B3,c,"['c', 'm']","['Clue', 'Monopoly']","[-0.15, 0.5]","[0.15, 0.5]",1,1,,,,,,,,,0,1,1,1,0,2,2,4,,,,,,,,,,,,,,,,,,,,,,,,,,,,,,,,,,,,,,,,,,,,,,,,,,,,,,,1391.072891713,None,1391.072891713,None,1391.072891713,None,c,1,0.7783452779985964,1392.6059522599971,None,1392.6059522599971,None,1392.6059522599971,None,1393.4399784219968,None,1393.4399784219968,None,1393.4399784219968,None,1393.4399784219968,None,,,,,,,,,,,,,,,,,,,,,,,,,,,,,,,,,,,,,,,,,,,,001,126,2020_Feb_13_1448,spring_faces,3.1.5,60.0607483239406,
condition files/Stage1_2.xlsx,,T2,B1,c,"['c', 'm']","['Clue', 'Monopoly']","[-0.15, 0.5]","[0.15, 0.5]",1,1,,,,,,,,,0,1,1,1,0,3,3,1,,,,,,,,,,,,,,,,,,,,,,,,,,,,,,,,,,,,,,,,,,,,,,,,,,,,,,,1395.4058224239998,None,1395.4058224239998,None,1395.4058224239998,None,m,0,0.29978124699846376,1396.9565291829967,None,1396.9565291829967,None,1396.9565291829967,None,1397.3065203899969,None,1397.3065203899969,None,1397.3065203899969,None,1397.3065203899969,None,,,,,,,,,,,,,,,,,,,,,,,,,,,,,,,,,,,,,,,,,,,,001,126,2020_Feb_13_1448,spring_faces,3.1.5,60.0607483239406,
condition files/Stage1_2.xlsx,,T1,B2,m,"['c', 'm']","['Clue', 'Monopoly']","[-0.15, 0.5]","[0.15, 0.5]",1,1,,,,,,,,,0,1,1,1,0,4,4,2,,,,,,,,,,,,,,,,,,,,,,,,,,,,,,,,,,,,,,,,,,,,,,,,,,,,,,,1399.2725000789978,None,1399.2725000789978,None,1399.2725000789978,None,m,1,2.1455623820002074,1400.8227689899977,None,1400.8227689899977,None,1400.8227689899977,None,1403.0230533919967,None,1403.0230533919967,None,1403.0230533919967,None,1403.0230533919967,None,,,,,,,,,,,,,,,,,,,,,,,,,,,,,,,,,,,,,,,,,,,,001,126,2020_Feb_13_1448,spring_faces,3.1.5,60.0607483239406,
condition files/Stage1_2.xlsx,,B3,T4,m,"['c', 'm']","['Clue', 'Monopoly']","[-0.15, 0.5]","[0.15, 0.5]",1,1,,,,,,,,,0,1,1,1,0,5,5,6,,,,,,,,,,,,,,,,,,,,,,,,,,,,,,,,,,,,,,,,,,,,,,,,,,,,,,,1404.989564268999,None,1404.989564268999,None,1404.989564268999,None,c,0,0.4909454859989637,1406.5254593889986,None,1406.5254593889986,None,1406.5254593889986,None,1407.07301679,None,1407.07301679,None,1407.07301679,None,1407.07301679,None,,,,,,,,,,,,,,,,,,,,,,,,,,,,,,,,,,,,,,,,,,,,001,126,2020_Feb_13_1448,spring_faces,3.1.5,60.0607483239406,
condition files/Stage1_2.xlsx,,B1,T1,c,"['c', 'm']","['Clue', 'Monopoly']","[-0.15, 0.5]","[0.15, 0.5]",1,1,,,,,,,,,0,1,1,1,0,6,6,0,,,,,,,,,,,,,,,,,,,,,,,,,,,,,,,,,,,,,,,,,,,,,,,,,,,,,,,1409.039537941997,None,1409.039537941997,None,1409.039537941997,None,m,0,1.1639109950010607,1410.572430297998,None,1410.572430297998,None,1410.572430297998,None,1411.8059205529971,None,1411.8059205529971,None,1411.8059205529971,None,1411.8059205529971,None,,,,,,,,,,,,,,,,,,,,,,,,,,,,,,,,,,,,,,,,,,,,001,126,2020_Feb_13_1448,spring_faces,3.1.5,60.0607483239406,
condition files/Stage1_2.xlsx,,B4,T3,c,"['c', 'm']","['Clue', 'Monopoly']","[-0.15, 0.5]","[0.15, 0.5]",1,1,,,,,,,,,0,1,1,1,0,7,7,5,,,,,,,,,,,,,,,,,,,,,,,,,,,,,,,,,,,,,,,,,,,,,,,,,,,,,,,1413.7562858059973,None,1413.7562858059973,None,1413.7562858059973,None,c,1,1.1972800279982039,1415.2910776429999,None,1415.2910776429999,None,1415.2910776429999,None,1416.539712851998,None,1416.539712851998,None,1416.539712851998,None,1416.539712851998,None,,,,,,,,,,,,,,,,,,,,,,,,,,,,,,,,,,,,,,,,,,,,001,126,2020_Feb_13_1448,spring_faces,3.1.5,60.0607483239406,
condition files/Stage1_1.xlsx,,B1,T2,c,"['c', 'm']","['Clue', 'Monopoly']","[-0.15, 0.5]","[0.15, 0.5]",1,1,,,,,,,,,0,2,2,2,0,0,0,1,,,,,,,,,,,,,,,,,,,,,,,,,,,,,,,,,,,,,,,,,,,,,,,,,,,,,,,1418.5230220049998,None,1418.5230220049998,None,1418.5230220049998,None,m,0,0.9124437489990669,1420.055841991998,None,1420.055841991998,None,1420.055841991998,None,1421.0230096039995,None,1421.0230096039995,None,1421.0230096039995,None,1421.0230096039995,None,,,,,,,,,,,,,,,,,,,,,,,,,,,,,,,,,,,,,,,,,,,,001,126,2020_Feb_13_1448,spring_faces,3.1.5,60.0607483239406,
condition files/Stage1_1.xlsx,,B4,T4,m,"['c', 'm']","['Clue', 'Monopoly']","[-0.15, 0.5]","[0.15, 0.5]",1,1,,,,,,,,,0,2,2,2,0,1,1,7,,,,,,,,,,,,,,,,,,,,,,,,,,,,,,,,,,,,,,,,,,,,,,,,,,,,,,,1422.9894904549983,None,1422.9894904549983,None,1422.9894904549983,None,m,1,1.628053402997466,1424.5243008049983,None,1424.5243008049983,None,1424.5243008049983,None,1426.2230480709986,None,1426.2230480709986,None,1426.2230480709986,None,1426.2230480709986,None,,,,,,,,,,,,,,,,,,,,,,,,,,,,,,,,,,,,,,,,,,,,001,126,2020_Feb_13_1448,spring_faces,3.1.5,60.0607483239406,
condition files/Stage1_1.xlsx,,T3,B4,c,"['c', 'm']","['Clue', 'Monopoly']","[-0.15, 0.5]","[0.15, 0.5]",1,1,,,,,,,,,0,2,2,2,0,2,2,5,,,,,,,,,,,,,,,,,,,,,,,,,,,,,,,,,,,,,,,,,,,,,,,,,,,,,,,1428.1728551929991,None,1428.1728551929991,None,1428.1728551929991,None,c,1,0.42917753900110256,1429.7070925829976,None,1429.7070925829976,None,1429.7070925829976,None,1430.1896998239972,None,1430.1896998239972,None,1430.1896998239972,None,1430.1896998239972,None,,,,,,,,,,,,,,,,,,,,,,,,,,,,,,,,,,,,,,,,,,,,001,126,2020_Feb_13_1448,spring_faces,3.1.5,60.0607483239406,
condition files/Stage1_1.xlsx,,B2,T1,m,"['c', 'm']","['Clue', 'Monopoly']","[-0.15, 0.5]","[0.15, 0.5]",1,1,,,,,,,,,0,2,2,2,0,3,3,2,,,,,,,,,,,,,,,,,,,,,,,,,,,,,,,,,,,,,,,,,,,,,,,,,,,,,,,1432.1559254089989,None,1432.1559254089989,None,1432.1559254089989,None,m,1,2.766616623997834,1433.6897325459977,None,1433.6897325459977,None,1433.6897325459977,None,1436.508620785,None,1436.508620785,None,1436.508620785,None,1436.508620785,None,,,,,,,,,,,,,,,,,,,,,,,,,,,,,,,,,,,,,,,,,,,,001,126,2020_Feb_13_1448,spring_faces,3.1.5,60.0607483239406,
condition files/Stage1_1.xlsx,,B3,T3,c,"['c', 'm']","['Clue', 'Monopoly']","[-0.15, 0.5]","[0.15, 0.5]",1,1,,,,,,,,,0,2,2,2,0,4,4,4,,,,,,,,,,,,,,,,,,,,,,,,,,,,,,,,,,,,,,,,,,,,,,,,,,,,,,,1438.472894937997,None,1438.472894937997,None,1438.472894937997,None,c,1,0.7701743569996324,1440.0061910839977,None,1440.0061910839977,None,1440.0061910839977,None,1440.8558287259984,None,1440.8558287259984,None,1440.8558287259984,None,1440.8558287259984,None,,,,,,,,,,,,,,,,,,,,,,,,,,,,,,,,,,,,,,,,,,,,001,126,2020_Feb_13_1448,spring_faces,3.1.5,60.0607483239406,
condition files/Stage1_1.xlsx,,T4,B3,m,"['c', 'm']","['Clue', 'Monopoly']","[-0.15, 0.5]","[0.15, 0.5]",1,1,,,,,,,,,0,2,2,2,0,5,5,6,,,,,,,,,,,,,,,,,,,,,,,,,,,,,,,,,,,,,,,,,,,,,,,,,,,,,,,1442.806159009,None,1442.806159009,None,1442.806159009,None,m,1,1.0926992450004036,1444.339740678999,None,1444.339740678999,None,1444.339740678999,None,1445.4892766699995,None,1445.4892766699995,None,1445.4892766699995,None,1445.4892766699995,None,,,,,,,,,,,,,,,,,,,,,,,,,,,,,,,,,,,,,,,,,,,,001,126,2020_Feb_13_1448,spring_faces,3.1.5,60.0607483239406,
condition files/Stage1_1.xlsx,,T2,B2,m,"['c', 'm']","['Clue', 'Monopoly']","[-0.15, 0.5]","[0.15, 0.5]",1,1,,,,,,,,,0,2,2,2,0,6,6,3,,,,,,,,,,,,,,,,,,,,,,,,,,,,,,,,,,,,,,,,,,,,,,,,,,,,,,,1447.4561961079999,None,1447.4561961079999,None,1447.4561961079999,None,m,1,1.0009174879996863,1448.9914371179984,None,1448.9914371179984,None,1448.9914371179984,None,1450.0564450769998,None,1450.0564450769998,None,1450.0564450769998,None,1450.0564450769998,None,,,,,,,,,,,,,,,,,,,,,,,,,,,,,,,,,,,,,,,,,,,,001,126,2020_Feb_13_1448,spring_faces,3.1.5,60.0607483239406,
condition files/Stage1_1.xlsx,,T1,B1,c,"['c', 'm']","['Clue', 'Monopoly']","[-0.15, 0.5]","[0.15, 0.5]",1,1,,,,,,,,,0,2,2,2,0,7,7,0,,,,,,,,,,,,,,,,,,,,,,,,,,,,,,,,,,,,,,,,,,,,,,,,,,,,,,,1452.0222622869987,None,1452.0222622869987,None,1452.0222622869987,None,c,1,0.8523142119993281,1453.5560468329968,None,1453.5560468329968,None,1453.5560468329968,None,1454.4756489949978,None,1454.4756489949978,None,1454.4756489949978,None,1454.4756489949978,None,,,,,,,,,,,,,,,,,,,,,,,,,,,,,,,,,,,,,,,,,,,,001,126,2020_Feb_13_1448,spring_faces,3.1.5,60.0607483239406,
condition files/Stage1_2.xlsx,,T4,B4,m,"['c', 'm']","['Clue', 'Monopoly']","[-0.15, 0.5]","[0.15, 0.5]",1,1,,,,,,,,,0,3,3,3,0,0,0,7,,,,,,,,,,,,,,,,,,,,,,,,,,,,,,,,,,,,,,,,,,,,,,,,,,,,,,,1456.4566994369998,None,1456.4566994369998,None,1456.4566994369998,None,m,1,0.994316902000719,1458.006069433999,None,1458.006069433999,None,1458.006069433999,None,1459.0730214199975,None,1459.0730214199975,None,1459.0730214199975,None,1459.0730214199975,None,,,,,,,,,,,,,,,,,,,,,,,,,,,,,,,,,,,,,,,,,,,,001,126,2020_Feb_13_1448,spring_faces,3.1.5,60.0607483239406,
condition files/Stage1_2.xlsx,,B2,T2,m,"['c', 'm']","['Clue', 'Monopoly']","[-0.15, 0.5]","[0.15, 0.5]",1,1,,,,,,,,,0,3,3,3,0,1,1,3,,,,,,,,,,,,,,,,,,,,,,,,,,,,,,,,,,,,,,,,,,,,,,,,,,,,,,,1461.022648242997,None,1461.022648242997,None,1461.022648242997,None,m,1,1.9641934760002187,1462.5561561099967,None,1462.5561561099967,None,1462.5561561099967,None,1464.5729181129973,None,1464.5729181129973,None,1464.5729181129973,None,1464.5729181129973,None,,,,,,,,,,,,,,,,,,,,,,,,,,,,,,,,,,,,,,,,,,,,001,126,2020_Feb_13_1448,spring_faces,3.1.5,60.0607483239406,
condition files/Stage1_2.xlsx,,T3,B3,c,"['c', 'm']","['Clue', 'Monopoly']","[-0.15, 0.5]","[0.15, 0.5]",1,1,,,,,,,,,0,3,3,3,0,2,2,4,,,,,,,,,,,,,,,,,,,,,,,,,,,,,,,,,,,,,,,,,,,,,,,,,,,,,,,1466.5395767749978,None,1466.5395767749978,None,1466.5395767749978,None,c,1,0.6869658200012054,1468.0733920759994,None,1468.0733920759994,None,1468.0733920759994,None,1468.8254604969989,None,1468.8254604969989,None,1468.8254604969989,None,1468.8254604969989,None,,,,,,,,,,,,,,,,,,,,,,,,,,,,,,,,,,,,,,,,,,,,001,126,2020_Feb_13_1448,spring_faces,3.1.5,60.0607483239406,
condition files/Stage1_2.xlsx,,T1,B2,m,"['c', 'm']","['Clue', 'Monopoly']","[-0.15, 0.5]","[0.15, 0.5]",1,1,,,,,,,,,0,3,3,3,0,3,3,2,,,,,,,,,,,,,,,,,,,,,,,,,,,,,,,,,,,,,,,,,,,,,,,,,,,,,,,1470.789742910998,None,1470.789742910998,None,1470.789742910998,None,m,1,0.7257940439994854,1472.3226259079966,None,1472.3226259079966,None,1472.3226259079966,None,1473.1233471839987,None,1473.1233471839987,None,1473.1233471839987,None,1473.1233471839987,None,,,,,,,,,,,,,,,,,,,,,,,,,,,,,,,,,,,,,,,,,,,,001,126,2020_Feb_13_1448,spring_faces,3.1.5,60.0607483239406,
condition files/Stage1_2.xlsx,,B1,T1,c,"['c', 'm']","['Clue', 'Monopoly']","[-0.15, 0.5]","[0.15, 0.5]",1,1,,,,,,,,,0,3,3,3,0,4,4,0,,,,,,,,,,,,,,,,,,,,,,,,,,,,,,,,,,,,,,,,,,,,,,,,,,,,,,,1475.0728572689986,None,1475.0728572689986,None,1475.0728572689986,None,c,1,0.9055925380016561,1476.6067494359995,None,1476.6067494359995,None,1476.6067494359995,None,1477.5734930689978,None,1477.5734930689978,None,1477.5734930689978,None,1477.5734930689978,None,,,,,,,,,,,,,,,,,,,,,,,,,,,,,,,,,,,,,,,,,,,,001,126,2020_Feb_13_1448,spring_faces,3.1.5,60.0607483239406,
condition files/Stage1_2.xlsx,,B4,T3,c,"['c', 'm']","['Clue', 'Monopoly']","[-0.15, 0.5]","[0.15, 0.5]",1,1,,,,,,,,,0,3,3,3,0,5,5,5,,,,,,,,,,,,,,,,,,,,,,,,,,,,,,,,,,,,,,,,,,,,,,,,,,,,,,,1479.5396356509991,None,1479.5396356509991,None,1479.5396356509991,None,m,0,0.5195518629989238,1481.072809082998,None,1481.072809082998,None,1481.072809082998,None,1481.656367935997,None,1481.656367935997,None,1481.656367935997,None,1481.656367935997,None,,,,,,,,,,,,,,,,,,,,,,,,,,,,,,,,,,,,,,,,,,,,001,126,2020_Feb_13_1448,spring_faces,3.1.5,60.0607483239406,
condition files/Stage1_2.xlsx,,B3,T4,m,"['c', 'm']","['Clue', 'Monopoly']","[-0.15, 0.5]","[0.15, 0.5]",1,1,,,,,,,,,0,3,3,3,0,6,6,6,,,,,,,,,,,,,,,,,,,,,,,,,,,,,,,,,,,,,,,,,,,,,,,,,,,,,,,1483.622795326999,None,1483.622795326999,None,1483.622795326999,None,m,1,0.7241409050002403,1485.1561403409978,None,1485.1561403409978,None,1485.1561403409978,None,1485.9559169779968,None,1485.9559169779968,None,1485.9559169779968,None,1485.9559169779968,None,,,,,,,,,,,,,,,,,,,,,,,,,,,,,,,,,,,,,,,,,,,,001,126,2020_Feb_13_1448,spring_faces,3.1.5,60.0607483239406,
condition files/Stage1_2.xlsx,,T2,B1,c,"['c', 'm']","['Clue', 'Monopoly']","[-0.15, 0.5]","[0.15, 0.5]",1,1,,,,,,,,,0,3,3,3,0,7,7,1,,,,,,,,,,,,,,,,,,,,,,,,,,,,,,,,,,,,,,,,,,,,,,,,,,,,,,,1487.9055585119968,None,1487.9055585119968,None,1487.9055585119968,None,c,1,0.9665962459985167,1489.441726817,None,1489.441726817,None,1489.441726817,None,1490.4733732489985,None,1490.4733732489985,None,1490.4733732489985,None,1490.4733732489985,None,,,,,,,,,,,,,,,,,,,,,,,,,,,,,,,,,,,,,,,,,,,,001,126,2020_Feb_13_1448,spring_faces,3.1.5,60.0607483239406,
condition files/Stage1_1.xlsx,,T1,B1,c,"['c', 'm']","['Clue', 'Monopoly']","[-0.15, 0.5]","[0.15, 0.5]",1,1,,,,,,,,,0,4,4,4,0,0,0,0,,,,,,,,,,,,,,,,,,,,,,,,,,,,,,,,,,,,,,,,,,,,,,,,,,,,,,,1492.4564562839987,None,1492.4564562839987,None,1492.4564562839987,None,m,0,0.6107346320022771,1494.0056618199997,None,1494.0056618199997,None,1494.0056618199997,None,1494.6732319039984,None,1494.6732319039984,None,1494.6732319039984,None,1494.6732319039984,None,,,,,,,,,,,,,,,,,,,,,,,,,,,,,,,,,,,,,,,,,,,,001,126,2020_Feb_13_1448,spring_faces,3.1.5,60.0607483239406,
condition files/Stage1_1.xlsx,,B1,T2,c,"['c', 'm']","['Clue', 'Monopoly']","[-0.15, 0.5]","[0.15, 0.5]",1,1,,,,,,,,,0,4,4,4,0,1,1,1,,,,,,,,,,,,,,,,,,,,,,,,,,,,,,,,,,,,,,,,,,,,,,,,,,,,,,,1496.6398418129975,None,1496.6398418129975,None,1496.6398418129975,None,c,1,0.9551876679979614,1498.1731757669986,None,1498.1731757669986,None,1498.1731757669986,None,1499.189027024997,None,1499.189027024997,None,1499.189027024997,None,1499.189027024997,None,,,,,,,,,,,,,,,,,,,,,,,,,,,,,,,,,,,,,,,,,,,,001,126,2020_Feb_13_1448,spring_faces,3.1.5,60.0607483239406,
condition files/Stage1_1.xlsx,,T2,B2,m,"['c', 'm']","['Clue', 'Monopoly']","[-0.15, 0.5]","[0.15, 0.5]",1,1,,,,,,,,,0,4,4,4,0,2,2,3,,,,,,,,,,,,,,,,,,,,,,,,,,,,,,,,,,,,,,,,,,,,,,,,,,,,,,,1501.156392140998,None,1501.156392140998,None,1501.156392140998,None,c,0,0.7588675330007391,1502.6895471259995,None,1502.6895471259995,None,1502.6895471259995,None,1503.5070134429989,None,1503.5070134429989,None,1503.5070134429989,None,1503.5070134429989,None,,,,,,,,,,,,,,,,,,,,,,,,,,,,,,,,,,,,,,,,,,,,001,126,2020_Feb_13_1448,spring_faces,3.1.5,60.0607483239406,
condition files/Stage1_1.xlsx,,T4,B3,m,"['c', 'm']","['Clue', 'Monopoly']","[-0.15, 0.5]","[0.15, 0.5]",1,1,,,,,,,,,0,4,4,4,0,3,3,6,,,,,,,,,,,,,,,,,,,,,,,,,,,,,,,,,,,,,,,,,,,,,,,,,,,,,,,1505.472846018998,None,1505.472846018998,None,1505.472846018998,None,m,1,1.144327873000293,1507.008026473999,None,1507.008026473999,None,1507.008026473999,None,1508.2062531239972,None,1508.2062531239972,None,1508.2062531239972,None,1508.2062531239972,None,,,,,,,,,,,,,,,,,,,,,,,,,,,,,,,,,,,,,,,,,,,,001,126,2020_Feb_13_1448,spring_faces,3.1.5,60.0607483239406,
condition files/Stage1_1.xlsx,,B3,T3,c,"['c', 'm']","['Clue', 'Monopoly']","[-0.15, 0.5]","[0.15, 0.5]",1,1,,,,,,,,,0,4,4,4,0,4,4,4,,,,,,,,,,,,,,,,,,,,,,,,,,,,,,,,,,,,,,,,,,,,,,,,,,,,,,,1510.172849655999,None,1510.172849655999,None,1510.172849655999,None,c,1,0.716965004998201,1511.723345205999,None,1511.723345205999,None,1511.723345205999,None,1512.5061151399968,None,1512.5061151399968,None,1512.5061151399968,None,1512.5061151399968,None,,,,,,,,,,,,,,,,,,,,,,,,,,,,,,,,,,,,,,,,,,,,001,126,2020_Feb_13_1448,spring_faces,3.1.5,60.0607483239406,
condition files/Stage1_1.xlsx,,B4,T4,m,"['c', 'm']","['Clue', 'Monopoly']","[-0.15, 0.5]","[0.15, 0.5]",1,1,,,,,,,,,0,4,4,4,0,5,5,7,,,,,,,,,,,,,,,,,,,,,,,,,,,,,,,,,,,,,,,,,,,,,,,,,,,,,,,1514.472964589997,None,1514.472964589997,None,1514.472964589997,None,m,1,0.8822642700033612,1516.0060926629994,None,1516.0060926629994,None,1516.0060926629994,None,1516.940279233997,None,1516.940279233997,None,1516.940279233997,None,1516.940279233997,None,,,,,,,,,,,,,,,,,,,,,,,,,,,,,,,,,,,,,,,,,,,,001,126,2020_Feb_13_1448,spring_faces,3.1.5,60.0607483239406,
condition files/Stage1_1.xlsx,,T3,B4,c,"['c', 'm']","['Clue', 'Monopoly']","[-0.15, 0.5]","[0.15, 0.5]",1,1,,,,,,,,,0,4,4,4,0,6,6,5,,,,,,,,,,,,,,,,,,,,,,,,,,,,,,,,,,,,,,,,,,,,,,,,,,,,,,,1518.905819503998,None,1518.905819503998,None,1518.905819503998,None,c,1,0.48067762100254185,1520.4396514969994,None,1520.4396514969994,None,1520.4396514969994,None,1520.9750630239978,None,1520.9750630239978,None,1520.9750630239978,None,1520.9750630239978,None,,,,,,,,,,,,,,,,,,,,,,,,,,,,,,,,,,,,,,,,,,,,001,126,2020_Feb_13_1448,spring_faces,3.1.5,60.0607483239406,
condition files/Stage1_1.xlsx,,B2,T1,m,"['c', 'm']","['Clue', 'Monopoly']","[-0.15, 0.5]","[0.15, 0.5]",1,1,,,,,,,,,0,4,4,4,0,7,7,2,,,,,,,,,,,,,,,,,,,,,,,,,,,,,,,,,,,,,,,,,,,,,,,,,,,,,,,1522.9397680169968,None,1522.9397680169968,None,1522.9397680169968,None,m,1,0.8637556170033349,1524.4726979139996,None,1524.4726979139996,None,1524.4726979139996,None,1525.391317788999,None,1525.391317788999,None,1525.391317788999,None,1525.391317788999,None,,,,,,,,,,,,,,,,,,,,,,,,,,,,,,,,,,,,,,,,,,,,001,126,2020_Feb_13_1448,spring_faces,3.1.5,60.0607483239406,
condition files/Stage1_2.xlsx,,B3,T4,m,"['c', 'm']","['Clue', 'Monopoly']","[-0.15, 0.5]","[0.15, 0.5]",1,1,,,,,,,,,0,5,5,5,0,0,0,6,,,,,,,,,,,,,,,,,,,,,,,,,,,,,,,,,,,,,,,,,,,,,,,,,,,,,,,1527.3730361559974,None,1527.3730361559974,None,1527.3730361559974,None,c,0,0.6531366460003483,1528.9232081329974,None,1528.9232081329974,None,1528.9232081329974,None,1529.6398255200002,None,1529.6398255200002,None,1529.6398255200002,None,1529.6398255200002,None,,,,,,,,,,,,,,,,,,,,,,,,,,,,,,,,,,,,,,,,,,,,001,126,2020_Feb_13_1448,spring_faces,3.1.5,60.0607483239406,
condition files/Stage1_2.xlsx,,B1,T1,c,"['c', 'm']","['Clue', 'Monopoly']","[-0.15, 0.5]","[0.15, 0.5]",1,1,,,,,,,,,0,5,5,5,0,1,1,0,,,,,,,,,,,,,,,,,,,,,,,,,,,,,,,,,,,,,,,,,,,,,,,,,,,,,,,1531.6061830579965,None,1531.6061830579965,None,1531.6061830579965,None,c,1,0.8045604799990542,1533.1398002899987,None,1533.1398002899987,None,1533.1398002899987,None,1534.0079570379967,None,1534.0079570379967,None,1534.0079570379967,None,1534.0079570379967,None,,,,,,,,,,,,,,,,,,,,,,,,,,,,,,,,,,,,,,,,,,,,001,126,2020_Feb_13_1448,spring_faces,3.1.5,60.0607483239406,
condition files/Stage1_2.xlsx,,T1,B2,m,"['c', 'm']","['Clue', 'Monopoly']","[-0.15, 0.5]","[0.15, 0.5]",1,1,,,,,,,,,0,5,5,5,0,2,2,2,,,,,,,,,,,,,,,,,,,,,,,,,,,,,,,,,,,,,,,,,,,,,,,,,,,,,,,1535.9728843979974,None,1535.9728843979974,None,1535.9728843979974,None,m,1,1.1256417970034818,1537.5067922929993,None,1537.5067922929993,None,1537.5067922929993,None,1538.6915144589984,None,1538.6915144589984,None,1538.6915144589984,None,1538.6915144589984,None,,,,,,,,,,,,,,,,,,,,,,,,,,,,,,,,,,,,,,,,,,,,001,126,2020_Feb_13_1448,spring_faces,3.1.5,60.0607483239406,
condition files/Stage1_2.xlsx,,B4,T3,c,"['c', 'm']","['Clue', 'Monopoly']","[-0.15, 0.5]","[0.15, 0.5]",1,1,,,,,,,,,0,5,5,5,0,3,3,5,,,,,,,,,,,,,,,,,,,,,,,,,,,,,,,,,,,,,,,,,,,,,,,,,,,,,,,1540.656176736,None,1540.656176736,None,1540.656176736,None,c,1,0.7307004870017408,1542.189651970999,None,1542.189651970999,None,1542.189651970999,None,1542.9729214769977,None,1542.9729214769977,None,1542.9729214769977,None,1542.9729214769977,None,,,,,,,,,,,,,,,,,,,,,,,,,,,,,,,,,,,,,,,,,,,,001,126,2020_Feb_13_1448,spring_faces,3.1.5,60.0607483239406,
condition files/Stage1_2.xlsx,,B2,T2,m,"['c', 'm']","['Clue', 'Monopoly']","[-0.15, 0.5]","[0.15, 0.5]",1,1,,,,,,,,,0,5,5,5,0,4,4,3,,,,,,,,,,,,,,,,,,,,,,,,,,,,,,,,,,,,,,,,,,,,,,,,,,,,,,,1544.938941049997,None,1544.938941049997,None,1544.938941049997,None,m,1,1.791600501001085,1546.4728214030001,None,1546.4728214030001,None,1546.4728214030001,None,1548.3392179859984,None,1548.3392179859984,None,1548.3392179859984,None,1548.3392179859984,None,,,,,,,,,,,,,,,,,,,,,,,,,,,,,,,,,,,,,,,,,,,,001,126,2020_Feb_13_1448,spring_faces,3.1.5,60.0607483239406,
condition files/Stage1_2.xlsx,,T3,B3,c,"['c', 'm']","['Clue', 'Monopoly']","[-0.15, 0.5]","[0.15, 0.5]",1,1,,,,,,,,,0,5,5,5,0,5,5,4,,,,,,,,,,,,,,,,,,,,,,,,,,,,,,,,,,,,,,,,,,,,,,,,,,,,,,,1550.2895381279995,None,1550.2895381279995,None,1550.2895381279995,None,c,1,0.5059232029998384,1551.822436413,None,1551.822436413,None,1551.822436413,None,1552.391048682999,None,1552.391048682999,None,1552.391048682999,None,1552.391048682999,None,,,,,,,,,,,,,,,,,,,,,,,,,,,,,,,,,,,,,,,,,,,,001,126,2020_Feb_13_1448,spring_faces,3.1.5,60.0607483239406,
condition files/Stage1_2.xlsx,,T2,B1,c,"['c', 'm']","['Clue', 'Monopoly']","[-0.15, 0.5]","[0.15, 0.5]",1,1,,,,,,,,,0,5,5,5,0,6,6,1,,,,,,,,,,,,,,,,,,,,,,,,,,,,,,,,,,,,,,,,,,,,,,,,,,,,,,,1554.35585996,None,1554.35585996,None,1554.35585996,None,m,0,1.1427809529996011,1555.9056304899968,None,1555.9056304899968,None,1555.9056304899968,None,1557.1063668729985,None,1557.1063668729985,None,1557.1063668729985,None,1557.1063668729985,None,,,,,,,,,,,,,,,,,,,,,,,,,,,,,,,,,,,,,,,,,,,,001,126,2020_Feb_13_1448,spring_faces,3.1.5,60.0607483239406,
condition files/Stage1_2.xlsx,,T4,B4,m,"['c', 'm']","['Clue', 'Monopoly']","[-0.15, 0.5]","[0.15, 0.5]",1,1,,,,,,,,,0,5,5,5,0,7,7,7,,,,,,,,,,,,,,,,,,,,,,,,,,,,,,,,,,,,,,,,,,,,,,,,,,,,,,,1559.0729013069977,None,1559.0729013069977,None,1559.0729013069977,None,m,1,0.8572045200016873,1560.6072194669978,None,1560.6072194669978,None,1560.6072194669978,None,1561.5394501349983,None,1561.5394501349983,None,1561.5394501349983,None,1561.5394501349983,None,,,,,,,,,,,,,,,,,,,,,,,,,,,,,,,,,,,,,,,,,,,,001,126,2020_Feb_13_1448,spring_faces,3.1.5,60.0607483239406,
condition files/Stage1_1.xlsx,,B2,T1,m,"['c', 'm']","['Clue', 'Monopoly']","[-0.15, 0.5]","[0.15, 0.5]",1,1,,,,,,,,,0,6,6,6,0,0,0,2,,,,,,,,,,,,,,,,,,,,,,,,,,,,,,,,,,,,,,,,,,,,,,,,,,,,,,,1563.5061783659985,None,1563.5061783659985,None,1563.5061783659985,None,m,1,1.9116380509985902,1565.0407239139968,None,1565.0407239139968,None,1565.0407239139968,None,1567.0068722889991,None,1567.0068722889991,None,1567.0068722889991,None,1567.0068722889991,None,,,,,,,,,,,,,,,,,,,,,,,,,,,,,,,,,,,,,,,,,,,,001,126,2020_Feb_13_1448,spring_faces,3.1.5,60.0607483239406,
condition files/Stage1_1.xlsx,,T2,B2,m,"['c', 'm']","['Clue', 'Monopoly']","[-0.15, 0.5]","[0.15, 0.5]",1,1,,,,,,,,,0,6,6,6,0,1,1,3,,,,,,,,,,,,,,,,,,,,,,,,,,,,,,,,,,,,,,,,,,,,,,,,,,,,,,,1568.972702633997,None,1568.972702633997,None,1568.972702633997,None,c,0,1.100765204999334,1570.5075874819995,None,1570.5075874819995,None,1570.5075874819995,None,1571.672693258999,None,1571.672693258999,None,1571.672693258999,None,1571.672693258999,None,,,,,,,,,,,,,,,,,,,,,,,,,,,,,,,,,,,,,,,,,,,,001,126,2020_Feb_13_1448,spring_faces,3.1.5,60.0607483239406,
condition files/Stage1_1.xlsx,,B4,T4,m,"['c', 'm']","['Clue', 'Monopoly']","[-0.15, 0.5]","[0.15, 0.5]",1,1,,,,,,,,,0,6,6,6,0,2,2,7,,,,,,,,,,,,,,,,,,,,,,,,,,,,,,,,,,,,,,,,,,,,,,,,,,,,,,,1573.639980259999,None,1573.639980259999,None,1573.639980259999,None,c,0,1.1874573640016024,1575.1728998419967,None,1575.1728998419967,None,1575.1728998419967,None,1576.4233152369998,None,1576.4233152369998,None,1576.4233152369998,None,1576.4233152369998,None,,,,,,,,,,,,,,,,,,,,,,,,,,,,,,,,,,,,,,,,,,,,001,126,2020_Feb_13_1448,spring_faces,3.1.5,60.0607483239406,
condition files/Stage1_1.xlsx,,T3,B4,c,"['c', 'm']","['Clue', 'Monopoly']","[-0.15, 0.5]","[0.15, 0.5]",1,1,,,,,,,,,0,6,6,6,0,3,3,5,,,,,,,,,,,,,,,,,,,,,,,,,,,,,,,,,,,,,,,,,,,,,,,,,,,,,,,1578.3893697759995,None,1578.3893697759995,None,1578.3893697759995,None,c,1,0.5491484459998901,1579.923183592,None,1579.923183592,None,1579.923183592,None,1580.5396134329967,None,1580.5396134329967,None,1580.5396134329967,None,1580.5396134329967,None,,,,,,,,,,,,,,,,,,,,,,,,,,,,,,,,,,,,,,,,,,,,001,126,2020_Feb_13_1448,spring_faces,3.1.5,60.0607483239406,
condition files/Stage1_1.xlsx,,T1,B1,c,"['c', 'm']","['Clue', 'Monopoly']","[-0.15, 0.5]","[0.15, 0.5]",1,1,,,,,,,,,0,6,6,6,0,4,4,0,,,,,,,,,,,,,,,,,,,,,,,,,,,,,,,,,,,,,,,,,,,,,,,,,,,,,,,1582.4895301739998,None,1582.4895301739998,None,1582.4895301739998,None,m,0,0.9927311660030682,1584.039671061997,None,1584.039671061997,None,1584.039671061997,None,1585.0895320969976,None,1585.0895320969976,None,1585.0895320969976,None,1585.0895320969976,None,,,,,,,,,,,,,,,,,,,,,,,,,,,,,,,,,,,,,,,,,,,,001,126,2020_Feb_13_1448,spring_faces,3.1.5,60.0607483239406,
condition files/Stage1_1.xlsx,,T4,B3,m,"['c', 'm']","['Clue', 'Monopoly']","[-0.15, 0.5]","[0.15, 0.5]",1,1,,,,,,,,,0,6,6,6,0,5,5,6,,,,,,,,,,,,,,,,,,,,,,,,,,,,,,,,,,,,,,,,,,,,,,,,,,,,,,,1587.0558171249977,None,1587.0558171249977,None,1587.0558171249977,None,m,1,1.2418509240014828,1588.5905948399995,None,1588.5905948399995,None,1588.5905948399995,None,1589.890189832,None,1589.890189832,None,1589.890189832,None,1589.890189832,None,,,,,,,,,,,,,,,,,,,,,,,,,,,,,,,,,,,,,,,,,,,,001,126,2020_Feb_13_1448,spring_faces,3.1.5,60.0607483239406,
condition files/Stage1_1.xlsx,,B3,T3,c,"['c', 'm']","['Clue', 'Monopoly']","[-0.15, 0.5]","[0.15, 0.5]",1,1,,,,,,,,,0,6,6,6,0,6,6,4,,,,,,,,,,,,,,,,,,,,,,,,,,,,,,,,,,,,,,,,,,,,,,,,,,,,,,,1591.8561588259981,None,1591.8561588259981,None,1591.8561588259981,None,c,1,0.5070858799990674,1593.3893421919965,None,1593.3893421919965,None,1593.3893421919965,None,1593.9553804839998,None,1593.9553804839998,None,1593.9553804839998,None,1593.9553804839998,None,,,,,,,,,,,,,,,,,,,,,,,,,,,,,,,,,,,,,,,,,,,,001,126,2020_Feb_13_1448,spring_faces,3.1.5,60.0607483239406,
condition files/Stage1_1.xlsx,,B1,T2,c,"['c', 'm']","['Clue', 'Monopoly']","[-0.15, 0.5]","[0.15, 0.5]",1,1,,,,,,,,,0,6,6,6,0,7,7,1,,,,,,,,,,,,,,,,,,,,,,,,,,,,,,,,,,,,,,,,,,,,,,,,,,,,,,,1595.9223619669974,None,1595.9223619669974,None,1595.9223619669974,None,c,1,1.5427097440006037,1597.4577310049972,None,1597.4577310049972,None,1597.4577310049972,None,1599.056191923999,None,1599.056191923999,None,1599.056191923999,None,1599.056191923999,None,,,,,,,,,,,,,,,,,,,,,,,,,,,,,,,,,,,,,,,,,,,,001,126,2020_Feb_13_1448,spring_faces,3.1.5,60.0607483239406,
condition files/Stage1_2.xlsx,,B2,T2,m,"['c', 'm']","['Clue', 'Monopoly']","[-0.15, 0.5]","[0.15, 0.5]",1,1,,,,,,,,,0,7,7,7,0,0,0,3,,,,,,,,,,,,,,,,,,,,,,,,,,,,,,,,,,,,,,,,,,,,,,,,,,,,,,,1601.0399038919968,None,1601.0399038919968,None,1601.0399038919968,None,m,1,1.4177829250002105,1602.5745786219995,None,1602.5745786219995,None,1602.5745786219995,None,1604.057165119997,None,1604.057165119997,None,1604.057165119997,None,1604.057165119997,None,,,,,,,,,,,,,,,,,,,,,,,,,,,,,,,,,,,,,,,,,,,,001,126,2020_Feb_13_1448,spring_faces,3.1.5,60.0607483239406,
condition files/Stage1_2.xlsx,,B4,T3,c,"['c', 'm']","['Clue', 'Monopoly']","[-0.15, 0.5]","[0.15, 0.5]",1,1,,,,,,,,,0,7,7,7,0,1,1,5,,,,,,,,,,,,,,,,,,,,,,,,,,,,,,,,,,,,,,,,,,,,,,,,,,,,,,,1606.022896888,None,1606.022896888,None,1606.022896888,None,c,1,0.7234862730001623,1607.5569454589968,None,1607.5569454589968,None,1607.5569454589968,None,1608.3567149539995,None,1608.3567149539995,None,1608.3567149539995,None,1608.3567149539995,None,,,,,,,,,,,,,,,,,,,,,,,,,,,,,,,,,,,,,,,,,,,,001,126,2020_Feb_13_1448,spring_faces,3.1.5,60.0607483239406,
condition files/Stage1_2.xlsx,,T4,B4,m,"['c', 'm']","['Clue', 'Monopoly']","[-0.15, 0.5]","[0.15, 0.5]",1,1,,,,,,,,,0,7,7,7,0,2,2,7,,,,,,,,,,,,,,,,,,,,,,,,,,,,,,,,,,,,,,,,,,,,,,,,,,,,,,,1610.3062945909987,None,1610.3062945909987,None,1610.3062945909987,None,m,1,2.2161136220020126,1611.8562207849973,None,1611.8562207849973,None,1611.8562207849973,None,1614.1398815469984,None,1614.1398815469984,None,1614.1398815469984,None,1614.1398815469984,None,,,,,,,,,,,,,,,,,,,,,,,,,,,,,,,,,,,,,,,,,,,,001,126,2020_Feb_13_1448,spring_faces,3.1.5,60.0607483239406,
condition files/Stage1_2.xlsx,,B1,T1,c,"['c', 'm']","['Clue', 'Monopoly']","[-0.15, 0.5]","[0.15, 0.5]",1,1,,,,,,,,,0,7,7,7,0,3,3,0,,,,,,,,,,,,,,,,,,,,,,,,,,,,,,,,,,,,,,,,,,,,,,,,,,,,,,,1616.0895764809975,None,1616.0895764809975,None,1616.0895764809975,None,c,1,1.2812641169985,1617.6230999639993,None,1617.6230999639993,None,1617.6230999639993,None,1618.9723762269969,None,1618.9723762269969,None,1618.9723762269969,None,1618.9723762269969,None,,,,,,,,,,,,,,,,,,,,,,,,,,,,,,,,,,,,,,,,,,,,001,126,2020_Feb_13_1448,spring_faces,3.1.5,60.0607483239406,
condition files/Stage1_2.xlsx,,T3,B3,c,"['c', 'm']","['Clue', 'Monopoly']","[-0.15, 0.5]","[0.15, 0.5]",1,1,,,,,,,,,0,7,7,7,0,4,4,4,,,,,,,,,,,,,,,,,,,,,,,,,,,,,,,,,,,,,,,,,,,,,,,,,,,,,,,1620.922997202997,None,1620.922997202997,None,1620.922997202997,None,c,1,0.4313727850021678,1622.4729734879984,None,1622.4729734879984,None,1622.4729734879984,None,1622.9558725049974,None,1622.9558725049974,None,1622.9558725049974,None,1622.9558725049974,None,,,,,,,,,,,,,,,,,,,,,,,,,,,,,,,,,,,,,,,,,,,,001,126,2020_Feb_13_1448,spring_faces,3.1.5,60.0607483239406,
condition files/Stage1_2.xlsx,,T1,B2,m,"['c', 'm']","['Clue', 'Monopoly']","[-0.15, 0.5]","[0.15, 0.5]",1,1,,,,,,,,,0,7,7,7,0,5,5,2,,,,,,,,,,,,,,,,,,,,,,,,,,,,,,,,,,,,,,,,,,,,,,,,,,,,,,,1624.9229391329973,None,1624.9229391329973,None,1624.9229391329973,None,m,1,1.3763378240000748,1626.4560901379991,None,1626.4560901379991,None,1626.4560901379991,None,1627.891176915,None,1627.891176915,None,1627.891176915,None,1627.891176915,None,,,,,,,,,,,,,,,,,,,,,,,,,,,,,,,,,,,,,,,,,,,,001,126,2020_Feb_13_1448,spring_faces,3.1.5,60.0607483239406,
condition files/Stage1_2.xlsx,,T2,B1,c,"['c', 'm']","['Clue', 'Monopoly']","[-0.15, 0.5]","[0.15, 0.5]",1,1,,,,,,,,,0,7,7,7,0,6,6,1,,,,,,,,,,,,,,,,,,,,,,,,,,,,,,,,,,,,,,,,,,,,,,,,,,,,,,,1629.856179776998,None,1629.856179776998,None,1629.856179776998,None,c,1,1.034508058000938,1631.3897821169994,None,1631.3897821169994,None,1631.3897821169994,None,1632.5059638559978,None,1632.5059638559978,None,1632.5059638559978,None,1632.5059638559978,None,,,,,,,,,,,,,,,,,,,,,,,,,,,,,,,,,,,,,,,,,,,,001,126,2020_Feb_13_1448,spring_faces,3.1.5,60.0607483239406,
condition files/Stage1_2.xlsx,,B3,T4,m,"['c', 'm']","['Clue', 'Monopoly']","[-0.15, 0.5]","[0.15, 0.5]",1,1,,,,,,,,,0,7,7,7,0,7,7,6,,,,,,,,,,,,,,,,,,,,,,,,,,,,,,,,,,,,,,,,,,,,,,,,,,,,,,,1634.456171693997,None,1634.456171693997,None,1634.456171693997,None,m,1,0.8026183510010014,1636.0057160339966,None,1636.0057160339966,None,1636.0057160339966,None,1636.8736775739999,None,1636.8736775739999,None,1636.8736775739999,None,1636.8736775739999,None,,,,,,,,,,,,,,,,,,,,,,,,,,,,,,,,,,,,,,,,,,,,001,126,2020_Feb_13_1448,spring_faces,3.1.5,60.0607483239406,
condition files/Stage1_1.xlsx,,T4,B3,m,"['c', 'm']","['Clue', 'Monopoly']","[-0.15, 0.5]","[0.15, 0.5]",1,1,,,,,,,,,0,8,8,8,0,0,0,6,,,,,,,,,,,,,,,,,,,,,,,,,,,,,,,,,,,,,,,,,,,,,,,,,,,,,,,1638.8569138469975,None,1638.8569138469975,None,1638.8569138469975,None,c,0,1.0585621739992348,1640.4058581029967,None,1640.4058581029967,None,1640.4058581029967,None,1641.5231390669978,None,1641.5231390669978,None,1641.5231390669978,None,1641.5231390669978,None,,,,,,,,,,,,,,,,,,,,,,,,,,,,,,,,,,,,,,,,,,,,001,126,2020_Feb_13_1448,spring_faces,3.1.5,60.0607483239406,
condition files/Stage1_1.xlsx,,T3,B4,c,"['c', 'm']","['Clue', 'Monopoly']","[-0.15, 0.5]","[0.15, 0.5]",1,1,,,,,,,,,0,8,8,8,0,1,1,5,,,,,,,,,,,,,,,,,,,,,,,,,,,,,,,,,,,,,,,,,,,,,,,,,,,,,,,1643.489609324999,None,1643.489609324999,None,1643.489609324999,None,c,1,0.37729351700181724,1645.0231166649974,None,1645.0231166649974,None,1645.0231166649974,None,1645.4586875809982,None,1645.4586875809982,None,1645.4586875809982,None,1645.4586875809982,None,,,,,,,,,,,,,,,,,,,,,,,,,,,,,,,,,,,,,,,,,,,,001,126,2020_Feb_13_1448,spring_faces,3.1.5,60.0607483239406,
condition files/Stage1_1.xlsx,,B4,T4,m,"['c', 'm']","['Clue', 'Monopoly']","[-0.15, 0.5]","[0.15, 0.5]",1,1,,,,,,,,,0,8,8,8,0,2,2,7,,,,,,,,,,,,,,,,,,,,,,,,,,,,,,,,,,,,,,,,,,,,,,,,,,,,,,,1647.4221710829988,None,1647.4221710829988,None,1647.4221710829988,None,m,1,0.475116801000695,1648.9573347859987,None,1648.9573347859987,None,1648.9573347859987,None,1649.506732824997,None,1649.506732824997,None,1649.506732824997,None,1649.506732824997,None,,,,,,,,,,,,,,,,,,,,,,,,,,,,,,,,,,,,,,,,,,,,001,126,2020_Feb_13_1448,spring_faces,3.1.5,60.0607483239406,
condition files/Stage1_1.xlsx,,B1,T2,c,"['c', 'm']","['Clue', 'Monopoly']","[-0.15, 0.5]","[0.15, 0.5]",1,1,,,,,,,,,0,8,8,8,0,3,3,1,,,,,,,,,,,,,,,,,,,,,,,,,,,,,,,,,,,,,,,,,,,,,,,,,,,,,,,1651.456248372997,None,1651.456248372997,None,1651.456248372997,None,m,0,0.6162270499989972,1652.9921062180001,None,1652.9921062180001,None,1652.9921062180001,None,1653.6739183639984,None,1653.6739183639984,None,1653.6739183639984,None,1653.6739183639984,None,,,,,,,,,,,,,,,,,,,,,,,,,,,,,,,,,,,,,,,,,,,,001,126,2020_Feb_13_1448,spring_faces,3.1.5,60.0607483239406,
condition files/Stage1_1.xlsx,,T2,B2,m,"['c', 'm']","['Clue', 'Monopoly']","[-0.15, 0.5]","[0.15, 0.5]",1,1,,,,,,,,,0,8,8,8,0,4,4,3,,,,,,,,,,,,,,,,,,,,,,,,,,,,,,,,,,,,,,,,,,,,,,,,,,,,,,,1655.6393118299966,None,1655.6393118299966,None,1655.6393118299966,None,m,1,0.563668812999822,1657.1727738809968,None,1657.1727738809968,None,1657.1727738809968,None,1657.7902536000001,None,1657.7902536000001,None,1657.7902536000001,None,1657.7902536000001,None,,,,,,,,,,,,,,,,,,,,,,,,,,,,,,,,,,,,,,,,,,,,001,126,2020_Feb_13_1448,spring_faces,3.1.5,60.0607483239406,
condition files/Stage1_1.xlsx,,T1,B1,c,"['c', 'm']","['Clue', 'Monopoly']","[-0.15, 0.5]","[0.15, 0.5]",1,1,,,,,,,,,0,8,8,8,0,5,5,0,,,,,,,,,,,,,,,,,,,,,,,,,,,,,,,,,,,,,,,,,,,,,,,,,,,,,,,1659.7562149029982,None,1659.7562149029982,None,1659.7562149029982,None,c,1,1.0546091229989543,1661.3057348069997,None,1661.3057348069997,None,1661.3057348069997,None,1662.4240405539967,None,1662.4240405539967,None,1662.4240405539967,None,1662.4240405539967,None,,,,,,,,,,,,,,,,,,,,,,,,,,,,,,,,,,,,,,,,,,,,001,126,2020_Feb_13_1448,spring_faces,3.1.5,60.0607483239406,
condition files/Stage1_1.xlsx,,B2,T1,m,"['c', 'm']","['Clue', 'Monopoly']","[-0.15, 0.5]","[0.15, 0.5]",1,1,,,,,,,,,0,8,8,8,0,6,6,2,,,,,,,,,,,,,,,,,,,,,,,,,,,,,,,,,,,,,,,,,,,,,,,,,,,,,,,1664.3894445919977,None,1664.3894445919977,None,1664.3894445919977,None,m,1,1.0283369040007528,1665.9399579009987,None,1665.9399579009987,None,1665.9399579009987,None,1667.0252964169995,None,1667.0252964169995,None,1667.0252964169995,None,1667.0252964169995,None,,,,,,,,,,,,,,,,,,,,,,,,,,,,,,,,,,,,,,,,,,,,001,126,2020_Feb_13_1448,spring_faces,3.1.5,60.0607483239406,
condition files/Stage1_1.xlsx,,B3,T3,c,"['c', 'm']","['Clue', 'Monopoly']","[-0.15, 0.5]","[0.15, 0.5]",1,1,,,,,,,,,0,8,8,8,0,7,7,4,,,,,,,,,,,,,,,,,,,,,,,,,,,,,,,,,,,,,,,,,,,,,,,,,,,,,,,1668.989501942,None,1668.989501942,None,1668.989501942,None,c,1,0.7327701040012471,1670.5235849739984,None,1670.5235849739984,None,1670.5235849739984,None,1671.3088462649976,None,1671.3088462649976,None,1671.3088462649976,None,1671.3088462649976,None,,,,,,,,,,,,,,,,,,,,,,,,,,,,,,,,,,,,,,,,,,,,001,126,2020_Feb_13_1448,spring_faces,3.1.5,60.0607483239406,
condition files/Stage1_2.xlsx,,T2,B1,c,"['c', 'm']","['Clue', 'Monopoly']","[-0.15, 0.5]","[0.15, 0.5]",1,1,,,,,,,,,0,9,9,9,0,0,0,1,,,,,,,,,,,,,,,,,,,,,,,,,,,,,,,,,,,,,,,,,,,,,,,,,,,,,,,1673.289176170998,None,1673.289176170998,None,1673.289176170998,None,m,0,1.2013742649978667,1674.8229391939967,None,1674.8229391939967,None,1674.8229391939967,None,1676.089726195998,None,1676.089726195998,None,1676.089726195998,None,1676.089726195998,None,,,,,,,,,,,,,,,,,,,,,,,,,,,,,,,,,,,,,,,,,,,,001,126,2020_Feb_13_1448,spring_faces,3.1.5,60.0607483239406,
condition files/Stage1_2.xlsx,,T3,B3,c,"['c', 'm']","['Clue', 'Monopoly']","[-0.15, 0.5]","[0.15, 0.5]",1,1,,,,,,,,,0,9,9,9,0,1,1,4,,,,,,,,,,,,,,,,,,,,,,,,,,,,,,,,,,,,,,,,,,,,,,,,,,,,,,,1678.0561055709986,None,1678.0561055709986,None,1678.0561055709986,None,c,1,0.562587614000222,1679.5897678699985,None,1679.5897678699985,None,1679.5897678699985,None,1680.2063780419994,None,1680.2063780419994,None,1680.2063780419994,None,1680.2063780419994,None,,,,,,,,,,,,,,,,,,,,,,,,,,,,,,,,,,,,,,,,,,,,001,126,2020_Feb_13_1448,spring_faces,3.1.5,60.0607483239406,
condition files/Stage1_2.xlsx,,B1,T1,c,"['c', 'm']","['Clue', 'Monopoly']","[-0.15, 0.5]","[0.15, 0.5]",1,1,,,,,,,,,0,9,9,9,0,2,2,0,,,,,,,,,,,,,,,,,,,,,,,,,,,,,,,,,,,,,,,,,,,,,,,,,,,,,,,1682.1729447519974,None,1682.1729447519974,None,1682.1729447519974,None,c,1,0.8773634739991394,1683.7069664029987,None,1683.7069664029987,None,1683.7069664029987,None,1684.6390403789992,None,1684.6390403789992,None,1684.6390403789992,None,1684.6390403789992,None,,,,,,,,,,,,,,,,,,,,,,,,,,,,,,,,,,,,,,,,,,,,001,126,2020_Feb_13_1448,spring_faces,3.1.5,60.0607483239406,
condition files/Stage1_2.xlsx,,B3,T4,m,"['c', 'm']","['Clue', 'Monopoly']","[-0.15, 0.5]","[0.15, 0.5]",1,1,,,,,,,,,0,9,9,9,0,3,3,6,,,,,,,,,,,,,,,,,,,,,,,,,,,,,,,,,,,,,,,,,,,,,,,,,,,,,,,1686.6061632439996,None,1686.6061632439996,None,1686.6061632439996,None,m,1,0.5571075330008171,1688.1393295709968,None,1688.1393295709968,None,1688.1393295709968,None,1688.7727131389984,None,1688.7727131389984,None,1688.7727131389984,None,1688.7727131389984,None,,,,,,,,,,,,,,,,,,,,,,,,,,,,,,,,,,,,,,,,,,,,001,126,2020_Feb_13_1448,spring_faces,3.1.5,60.0607483239406,
condition files/Stage1_2.xlsx,,T4,B4,m,"['c', 'm']","['Clue', 'Monopoly']","[-0.15, 0.5]","[0.15, 0.5]",1,1,,,,,,,,,0,9,9,9,0,4,4,7,,,,,,,,,,,,,,,,,,,,,,,,,,,,,,,,,,,,,,,,,,,,,,,,,,,,,,,1690.7230823359969,None,1690.7230823359969,None,1690.7230823359969,None,m,1,0.5360416849980538,1692.2563237059985,None,1692.2563237059985,None,1692.2563237059985,None,1692.8568718099996,None,1692.8568718099996,None,1692.8568718099996,None,1692.8568718099996,None,,,,,,,,,,,,,,,,,,,,,,,,,,,,,,,,,,,,,,,,,,,,001,126,2020_Feb_13_1448,spring_faces,3.1.5,60.0607483239406,
condition files/Stage1_2.xlsx,,B2,T2,m,"['c', 'm']","['Clue', 'Monopoly']","[-0.15, 0.5]","[0.15, 0.5]",1,1,,,,,,,,,0,9,9,9,0,5,5,3,,,,,,,,,,,,,,,,,,,,,,,,,,,,,,,,,,,,,,,,,,,,,,,,,,,,,,,1694.8225748199984,None,1694.8225748199984,None,1694.8225748199984,None,c,0,1.8764983589971962,1696.35592998,None,1696.35592998,None,1696.35592998,None,1698.289615198999,None,1698.289615198999,None,1698.289615198999,None,1698.289615198999,None,,,,,,,,,,,,,,,,,,,,,,,,,,,,,,,,,,,,,,,,,,,,001,126,2020_Feb_13_1448,spring_faces,3.1.5,60.0607483239406,
condition files/Stage1_2.xlsx,,T1,B2,m,"['c', 'm']","['Clue', 'Monopoly']","[-0.15, 0.5]","[0.15, 0.5]",1,1,,,,,,,,,0,9,9,9,0,6,6,2,,,,,,,,,,,,,,,,,,,,,,,,,,,,,,,,,,,,,,,,,,,,,,,,,,,,,,,1700.256278138997,None,1700.256278138997,None,1700.256278138997,None,m,1,1.0342178389983019,1701.790114088999,None,1701.790114088999,None,1701.790114088999,None,1702.8895972109967,None,1702.8895972109967,None,1702.8895972109967,None,1702.8895972109967,None,,,,,,,,,,,,,,,,,,,,,,,,,,,,,,,,,,,,,,,,,,,,001,126,2020_Feb_13_1448,spring_faces,3.1.5,60.0607483239406,
condition files/Stage1_2.xlsx,,B4,T3,c,"['c', 'm']","['Clue', 'Monopoly']","[-0.15, 0.5]","[0.15, 0.5]",1,1,,,,,,,,,0,9,9,9,0,7,7,5,,,,,,,,,,,,,,,,,,,,,,,,,,,,,,,,,,,,,,,,,,,,,,,,,,,,,,,1704.855762076997,None,1704.855762076997,None,1704.855762076997,None,c,1,0.5142712160013616,1706.3900607599971,None,1706.3900607599971,None,1706.3900607599971,None,1706.9582814069981,None,1706.9582814069981,None,1706.9582814069981,None,1706.9582814069981,None,,,,,,,,,,,,,,,,,,,,,,,,,,,,,,,,,,,,,,,,,,,,001,126,2020_Feb_13_1448,spring_faces,3.1.5,60.0607483239406,
condition files/Stage1_1.xlsx,,T4,B3,m,"['c', 'm']","['Clue', 'Monopoly']","[-0.15, 0.5]","[0.15, 0.5]",1,1,,,,,,,,,0,10,10,10,0,0,0,6,,,,,,,,,,,,,,,,,,,,,,,,,,,,,,,,,,,,,,,,,,,,,,,,,,,,,,,1708.9393334729975,None,1708.9393334729975,None,1708.9393334729975,None,m,1,1.6775230960010958,1710.4748526259973,None,1710.4748526259973,None,1710.4748526259973,None,1712.2072852989986,None,1712.2072852989986,None,1712.2072852989986,None,1712.2072852989986,None,,,,,,,,,,,,,,,,,,,,,,,,,,,,,,,,,,,,,,,,,,,,001,126,2020_Feb_13_1448,spring_faces,3.1.5,60.0607483239406,
condition files/Stage1_1.xlsx,,B4,T4,m,"['c', 'm']","['Clue', 'Monopoly']","[-0.15, 0.5]","[0.15, 0.5]",1,1,,,,,,,,,0,10,10,10,0,1,1,7,,,,,,,,,,,,,,,,,,,,,,,,,,,,,,,,,,,,,,,,,,,,,,,,,,,,,,,1714.1728145689995,None,1714.1728145689995,None,1714.1728145689995,None,c,0,1.5023799339978723,1715.7059883399997,None,1715.7059883399997,None,1715.7059883399997,None,1717.2728003319971,None,1717.2728003319971,None,1717.2728003319971,None,1717.2728003319971,None,,,,,,,,,,,,,,,,,,,,,,,,,,,,,,,,,,,,,,,,,,,,001,126,2020_Feb_13_1448,spring_faces,3.1.5,60.0607483239406,
condition files/Stage1_1.xlsx,,B3,T3,c,"['c', 'm']","['Clue', 'Monopoly']","[-0.15, 0.5]","[0.15, 0.5]",1,1,,,,,,,,,0,10,10,10,0,2,2,4,,,,,,,,,,,,,,,,,,,,,,,,,,,,,,,,,,,,,,,,,,,,,,,,,,,,,,,1719.2395641489966,None,1719.2395641489966,None,1719.2395641489966,None,c,1,0.46574006599985296,1720.7745769559988,None,1720.7745769559988,None,1720.7745769559988,None,1721.3067457379984,None,1721.3067457379984,None,1721.3067457379984,None,1721.3067457379984,None,,,,,,,,,,,,,,,,,,,,,,,,,,,,,,,,,,,,,,,,,,,,001,126,2020_Feb_13_1448,spring_faces,3.1.5,60.0607483239406,
condition files/Stage1_1.xlsx,,T3,B4,c,"['c', 'm']","['Clue', 'Monopoly']","[-0.15, 0.5]","[0.15, 0.5]",1,1,,,,,,,,,0,10,10,10,0,3,3,5,,,,,,,,,,,,,,,,,,,,,,,,,,,,,,,,,,,,,,,,,,,,,,,,,,,,,,,1723.2724075049991,None,1723.2724075049991,None,1723.2724075049991,None,c,1,0.6239531049977813,1724.8085010459981,None,1724.8085010459981,None,1724.8085010459981,None,1725.4896772949978,None,1725.4896772949978,None,1725.4896772949978,None,1725.4896772949978,None,,,,,,,,,,,,,,,,,,,,,,,,,,,,,,,,,,,,,,,,,,,,001,126,2020_Feb_13_1448,spring_faces,3.1.5,60.0607483239406,
condition files/Stage1_1.xlsx,,T2,B2,m,"['c', 'm']","['Clue', 'Monopoly']","[-0.15, 0.5]","[0.15, 0.5]",1,1,,,,,,,,,0,10,10,10,0,4,4,3,,,,,,,,,,,,,,,,,,,,,,,,,,,,,,,,,,,,,,,,,,,,,,,,,,,,,,,1727.4563071669982,None,1727.4563071669982,None,1727.4563071669982,None,m,1,1.2726346809977258,1728.9917832699975,None,1728.9917832699975,None,1728.9917832699975,None,1730.3255919479998,None,1730.3255919479998,None,1730.3255919479998,None,1730.3255919479998,None,,,,,,,,,,,,,,,,,,,,,,,,,,,,,,,,,,,,,,,,,,,,001,126,2020_Feb_13_1448,spring_faces,3.1.5,60.0607483239406,
condition files/Stage1_1.xlsx,,T1,B1,c,"['c', 'm']","['Clue', 'Monopoly']","[-0.15, 0.5]","[0.15, 0.5]",1,1,,,,,,,,,0,10,10,10,0,5,5,0,,,,,,,,,,,,,,,,,,,,,,,,,,,,,,,,,,,,,,,,,,,,,,,,,,,,,,,1732.2895166539965,None,1732.2895166539965,None,1732.2895166539965,None,c,1,1.7851506449987937,1733.8232135559992,None,1733.8232135559992,None,1733.8232135559992,None,1735.675279580999,None,1735.675279580999,None,1735.675279580999,None,1735.675279580999,None,,,,,,,,,,,,,,,,,,,,,,,,,,,,,,,,,,,,,,,,,,,,001,126,2020_Feb_13_1448,spring_faces,3.1.5,60.0607483239406,
condition files/Stage1_1.xlsx,,B1,T2,c,"['c', 'm']","['Clue', 'Monopoly']","[-0.15, 0.5]","[0.15, 0.5]",1,1,,,,,,,,,0,10,10,10,0,6,6,1,,,,,,,,,,,,,,,,,,,,,,,,,,,,,,,,,,,,,,,,,,,,,,,,,,,,,,,1737.6395322229982,None,1737.6395322229982,None,1737.6395322229982,None,m,0,1.187633036999614,1739.172721275998,None,1739.172721275998,None,1739.172721275998,None,1740.4227978319977,None,1740.4227978319977,None,1740.4227978319977,None,1740.4227978319977,None,,,,,,,,,,,,,,,,,,,,,,,,,,,,,,,,,,,,,,,,,,,,001,126,2020_Feb_13_1448,spring_faces,3.1.5,60.0607483239406,
condition files/Stage1_1.xlsx,,B2,T1,m,"['c', 'm']","['Clue', 'Monopoly']","[-0.15, 0.5]","[0.15, 0.5]",1,1,,,,,,,,,0,10,10,10,0,7,7,2,,,,,,,,,,,,,,,,,,,,,,,,,,,,,,,,,,,,,,,,,,,,,,,,,,,,,,,1742.3893817869975,None,1742.3893817869975,None,1742.3893817869975,None,m,1,0.9635249540006043,1743.9248295669968,None,1743.9248295669968,None,1743.9248295669968,None,1744.9419217689974,None,1744.9419217689974,None,1744.9419217689974,None,1744.9419217689974,None,,,,,,,,,,,,,,,,,,,,,,,,,,,,,,,,,,,,,,,,,,,,001,126,2020_Feb_13_1448,spring_faces,3.1.5,60.0607483239406,
condition files/Stage1_2.xlsx,,B3,T4,m,"['c', 'm']","['Clue', 'Monopoly']","[-0.15, 0.5]","[0.15, 0.5]",1,1,,,,,,,,,0,11,11,11,0,0,0,6,,,,,,,,,,,,,,,,,,,,,,,,,,,,,,,,,,,,,,,,,,,,,,,,,,,,,,,1746.9233139399985,None,1746.9233139399985,None,1746.9233139399985,None,c,0,1.1352842419983062,1748.4730524919978,None,1748.4730524919978,None,1748.4730524919978,None,1749.673058567998,None,1749.673058567998,None,1749.673058567998,None,1749.673058567998,None,,,,,,,,,,,,,,,,,,,,,,,,,,,,,,,,,,,,,,,,,,,,001,126,2020_Feb_13_1448,spring_faces,3.1.5,60.0607483239406,
condition files/Stage1_2.xlsx,,T3,B3,c,"['c', 'm']","['Clue', 'Monopoly']","[-0.15, 0.5]","[0.15, 0.5]",1,1,,,,,,,,,0,11,11,11,0,1,1,4,,,,,,,,,,,,,,,,,,,,,,,,,,,,,,,,,,,,,,,,,,,,,,,,,,,,,,,1751.6390953049995,None,1751.6390953049995,None,1751.6390953049995,None,c,1,0.3059852270016563,1753.174450896,None,1753.174450896,None,1753.174450896,None,1753.5390350869966,None,1753.5390350869966,None,1753.5390350869966,None,1753.5390350869966,None,,,,,,,,,,,,,,,,,,,,,,,,,,,,,,,,,,,,,,,,,,,,001,126,2020_Feb_13_1448,spring_faces,3.1.5,60.0607483239406,
condition files/Stage1_2.xlsx,,T1,B2,m,"['c', 'm']","['Clue', 'Monopoly']","[-0.15, 0.5]","[0.15, 0.5]",1,1,,,,,,,,,0,11,11,11,0,2,2,2,,,,,,,,,,,,,,,,,,,,,,,,,,,,,,,,,,,,,,,,,,,,,,,,,,,,,,,1755.5062588039982,None,1755.5062588039982,None,1755.5062588039982,None,m,1,0.5514346750023833,1757.0409231659978,None,1757.0409231659978,None,1757.0409231659978,None,1757.6575677319997,None,1757.6575677319997,None,1757.6575677319997,None,1757.6575677319997,None,,,,,,,,,,,,,,,,,,,,,,,,,,,,,,,,,,,,,,,,,,,,001,126,2020_Feb_13_1448,spring_faces,3.1.5,60.0607483239406,
condition files/Stage1_2.xlsx,,B4,T3,c,"['c', 'm']","['Clue', 'Monopoly']","[-0.15, 0.5]","[0.15, 0.5]",1,1,,,,,,,,,0,11,11,11,0,3,3,5,,,,,,,,,,,,,,,,,,,,,,,,,,,,,,,,,,,,,,,,,,,,,,,,,,,,,,,1759.622913813997,None,1759.622913813997,None,1759.622913813997,None,c,1,0.595284252998681,1761.1730202869985,None,1761.1730202869985,None,1761.1730202869985,None,1761.8252160459997,None,1761.8252160459997,None,1761.8252160459997,None,1761.8252160459997,None,,,,,,,,,,,,,,,,,,,,,,,,,,,,,,,,,,,,,,,,,,,,001,126,2020_Feb_13_1448,spring_faces,3.1.5,60.0607483239406,
condition files/Stage1_2.xlsx,,T2,B1,c,"['c', 'm']","['Clue', 'Monopoly']","[-0.15, 0.5]","[0.15, 0.5]",1,1,,,,,,,,,0,11,11,11,0,4,4,1,,,,,,,,,,,,,,,,,,,,,,,,,,,,,,,,,,,,,,,,,,,,,,,,,,,,,,,1763.7894493319982,None,1763.7894493319982,None,1763.7894493319982,None,m,0,0.9093856920007966,1765.339025606998,None,1765.339025606998,None,1765.339025606998,None,1766.305802474999,None,1766.305802474999,None,1766.305802474999,None,1766.305802474999,None,,,,,,,,,,,,,,,,,,,,,,,,,,,,,,,,,,,,,,,,,,,,001,126,2020_Feb_13_1448,spring_faces,3.1.5,60.0607483239406,
condition files/Stage1_2.xlsx,,B2,T2,m,"['c', 'm']","['Clue', 'Monopoly']","[-0.15, 0.5]","[0.15, 0.5]",1,1,,,,,,,,,0,11,11,11,0,5,5,3,,,,,,,,,,,,,,,,,,,,,,,,,,,,,,,,,,,,,,,,,,,,,,,,,,,,,,,1768.272966818,None,1768.272966818,None,1768.272966818,None,c,0,0.5702709809993394,1769.8060709439997,None,1769.8060709439997,None,1769.8060709439997,None,1770.4407439319984,None,1770.4407439319984,None,1770.4407439319984,None,1770.4407439319984,None,,,,,,,,,,,,,,,,,,,,,,,,,,,,,,,,,,,,,,,,,,,,001,126,2020_Feb_13_1448,spring_faces,3.1.5,60.0607483239406,
condition files/Stage1_2.xlsx,,T4,B4,m,"['c', 'm']","['Clue', 'Monopoly']","[-0.15, 0.5]","[0.15, 0.5]",1,1,,,,,,,,,0,11,11,11,0,6,6,7,,,,,,,,,,,,,,,,,,,,,,,,,,,,,,,,,,,,,,,,,,,,,,,,,,,,,,,1772.4063165959997,None,1772.4063165959997,None,1772.4063165959997,None,m,1,0.7090094689992839,1773.9392761689996,None,1773.9392761689996,None,1773.9392761689996,None,1774.7058951009967,None,1774.7058951009967,None,1774.7058951009967,None,1774.7058951009967,None,,,,,,,,,,,,,,,,,,,,,,,,,,,,,,,,,,,,,,,,,,,,001,126,2020_Feb_13_1448,spring_faces,3.1.5,60.0607483239406,
condition files/Stage1_2.xlsx,,B1,T1,c,"['c', 'm']","['Clue', 'Monopoly']","[-0.15, 0.5]","[0.15, 0.5]",1,1,,,,,,,,,0,11,11,11,0,7,7,0,,,,,,,,,,,,,,,,,,,,,,,,,,,,,,,,,,,,,,,,,,,,,,,,,,,,,,,1776.6728930039972,None,1776.6728930039972,None,1776.6728930039972,None,c,1,1.048713776999648,1778.2076480059986,None,1778.2076480059986,None,1778.2076480059986,None,1779.3059196499999,None,1779.3059196499999,None,1779.3059196499999,None,1779.3059196499999,None,,,,,,,,,,,,,,,,,,,,,,,,,,,,,,,,,,,,,,,,,,,,001,126,2020_Feb_13_1448,spring_faces,3.1.5,60.0607483239406,
,,,,,,,,,,,,,,,,,,,,,,,,,,,,,,,,,,,,,,,,,,,,,,,,,,,,,,,,,,,,,,,,,,,,,,,,,,,,,,,,,,,,,,,,,,,,,,,,,,,,,,,,,,,,,,,,1781.2891547239997,None,space,8.630703650000214,1786.289658657999,None,,,,,,,,,,,,,,,,,,,,,,,,,,,,,,001,126,2020_Feb_13_1448,spring_faces,3.1.5,60.0607483239406,
condition files/Stage2_1.xlsx,,T1,B1,s,"['s', 'r']","['Stratego', 'Risk']","[-0.15, 0.5]","[0.15, 0.5]",1,1,,,,,,,,,,,,,,,,,0,0,0,0,0,0,0,2,,,,,,,,,,,,,,,,,,,,,,,,,,,,,,,,,,,,,,,,,,,,,,,1794.972713657,None,1794.972713657,None,1794.972713657,None,s,1,0.9101957700004277,1796.5062086269972,None,1796.5062086269972,None,1796.5062086269972,None,1797.4746317259996,None,1797.4746317259996,None,1797.4746317259996,None,1797.4746317259996,None,,,,,,,,,,,,,,,1786.289658657999,None,,,,,,,,,,,,,,,,,,,,,,,,,,,,001,126,2020_Feb_13_1448,spring_faces,3.1.5,60.0607483239406,
condition files/Stage2_1.xlsx,,T5,B5,s,"['s', 'r']","['Stratego', 'Risk']","[-0.15, 0.5]","[0.15, 0.5]",1,1,,,,,,,,,,,,,,,,,0,0,0,0,0,1,1,0,,,,,,,,,,,,,,,,,,,,,,,,,,,,,,,,,,,,,,,,,,,,,,,1799.439344819999,None,1799.439344819999,None,1799.439344819999,None,r,0,0.6325375769993116,1801.0398047849994,None,1801.0398047849994,None,1801.0398047849994,None,1801.7228346989978,None,1801.7228346989978,None,1801.7228346989978,None,1801.7228346989978,None,,,,,,,,,,,,,,,,,,,,,,,,,,,,,,,,,,,,,,,,,,,,001,126,2020_Feb_13_1448,spring_faces,3.1.5,60.0607483239406,
condition files/Stage2_1.xlsx,,T3,B3,s,"['s', 'r']","['Stratego', 'Risk']","[-0.15, 0.5]","[0.15, 0.5]",1,1,,,,,,,,,,,,,,,,,0,0,0,0,0,2,2,4,,,,,,,,,,,,,,,,,,,,,,,,,,,,,,,,,,,,,,,,,,,,,,,1803.6893591249973,None,1803.6893591249973,None,1803.6893591249973,None,s,1,0.6092518840014236,1805.223182810998,None,1805.223182810998,None,1805.223182810998,None,1805.8899399789989,None,1805.8899399789989,None,1805.8899399789989,None,1805.8899399789989,None,,,,,,,,,,,,,,,,,,,,,,,,,,,,,,,,,,,,,,,,,,,,001,126,2020_Feb_13_1448,spring_faces,3.1.5,60.0607483239406,
condition files/Stage2_1.xlsx,,B2,T2,r,"['s', 'r']","['Stratego', 'Risk']","[-0.15, 0.5]","[0.15, 0.5]",1,1,,,,,,,,,,,,,,,,,0,0,0,0,0,3,3,3,,,,,,,,,,,,,,,,,,,,,,,,,,,,,,,,,,,,,,,,,,,,,,,1807.856188447,None,1807.856188447,None,1807.856188447,None,r,1,0.37679456700061564,1809.3915261539987,None,1809.3915261539987,None,1809.3915261539987,None,1809.822580705997,None,1809.822580705997,None,1809.822580705997,None,1809.822580705997,None,,,,,,,,,,,,,,,,,,,,,,,,,,,,,,,,,,,,,,,,,,,,001,126,2020_Feb_13_1448,spring_faces,3.1.5,60.0607483239406,
condition files/Stage2_1.xlsx,,B6,T6,r,"['s', 'r']","['Stratego', 'Risk']","[-0.15, 0.5]","[0.15, 0.5]",1,1,,,,,,,,,,,,,,,,,0,0,0,0,0,4,4,1,,,,,,,,,,,,,,,,,,,,,,,,,,,,,,,,,,,,,,,,,,,,,,,1811.7895444179994,None,1811.7895444179994,None,1811.7895444179994,None,s,0,0.5546221879994846,1813.3897223869972,None,1813.3897223869972,None,1813.3897223869972,None,1814.0067462439984,None,1814.0067462439984,None,1814.0067462439984,None,1814.0067462439984,None,,,,,,,,,,,,,,,,,,,,,,,,,,,,,,,,,,,,,,,,,,,,001,126,2020_Feb_13_1448,spring_faces,3.1.5,60.0607483239406,
condition files/Stage2_1.xlsx,,B4,T4,r,"['s', 'r']","['Stratego', 'Risk']","[-0.15, 0.5]","[0.15, 0.5]",1,1,,,,,,,,,,,,,,,,,0,0,0,0,0,5,5,5,,,,,,,,,,,,,,,,,,,,,,,,,,,,,,,,,,,,,,,,,,,,,,,1815.9729942879967,None,1815.9729942879967,None,1815.9729942879967,None,r,1,0.8197824739982025,1817.5085988199971,None,1817.5085988199971,None,1817.5085988199971,None,1818.3898009999975,None,1818.3898009999975,None,1818.3898009999975,None,1818.3898009999975,None,,,,,,,,,,,,,,,,,,,,,,,,,,,,,,,,,,,,,,,,,,,,001,126,2020_Feb_13_1448,spring_faces,3.1.5,60.0607483239406,
condition files/Stage2_2.xlsx,,T6,B6,r,"['s', 'r']","['Stratego', 'Risk']","[-0.15, 0.5]","[0.15, 0.5]",1,1,,,,,,,,,,,,,,,,,0,1,1,1,0,0,0,1,,,,,,,,,,,,,,,,,,,,,,,,,,,,,,,,,,,,,,,,,,,,,,,1820.3734787829999,None,1820.3734787829999,None,1820.3734787829999,None,s,0,0.5027599619970715,1821.9056213569966,None,1821.9056213569966,None,1821.9056213569966,None,1822.4730167979978,None,1822.4730167979978,None,1822.4730167979978,None,1822.4730167979978,None,,,,,,,,,,,,,,,,,,,,,,,,,,,,,,,,,,,,,,,,,,,,001,126,2020_Feb_13_1448,spring_faces,3.1.5,60.0607483239406,
condition files/Stage2_2.xlsx,,B1,T1,s,"['s', 'r']","['Stratego', 'Risk']","[-0.15, 0.5]","[0.15, 0.5]",1,1,,,,,,,,,,,,,,,,,0,1,1,1,0,1,1,2,,,,,,,,,,,,,,,,,,,,,,,,,,,,,,,,,,,,,,,,,,,,,,,1824.4395053529988,None,1824.4395053529988,None,1824.4395053529988,None,r,0,0.7387533000000985,1825.9896019649968,None,1825.9896019649968,None,1825.9896019649968,None,1826.7893161699976,None,1826.7893161699976,None,1826.7893161699976,None,1826.7893161699976,None,,,,,,,,,,,,,,,,,,,,,,,,,,,,,,,,,,,,,,,,,,,,001,126,2020_Feb_13_1448,spring_faces,3.1.5,60.0607483239406,
condition files/Stage2_2.xlsx,,B3,T3,s,"['s', 'r']","['Stratego', 'Risk']","[-0.15, 0.5]","[0.15, 0.5]",1,1,,,,,,,,,,,,,,,,,0,1,1,1,0,2,2,4,,,,,,,,,,,,,,,,,,,,,,,,,,,,,,,,,,,,,,,,,,,,,,,1828.7559284689996,None,1828.7559284689996,None,1828.7559284689996,None,s,1,0.40767825299917604,1830.2887462439976,None,1830.2887462439976,None,1830.2887462439976,None,1830.756264227999,None,1830.756264227999,None,1830.756264227999,None,1830.756264227999,None,,,,,,,,,,,,,,,,,,,,,,,,,,,,,,,,,,,,,,,,,,,,001,126,2020_Feb_13_1448,spring_faces,3.1.5,60.0607483239406,
condition files/Stage2_2.xlsx,,B5,T5,s,"['s', 'r']","['Stratego', 'Risk']","[-0.15, 0.5]","[0.15, 0.5]",1,1,,,,,,,,,,,,,,,,,0,1,1,1,0,3,3,0,,,,,,,,,,,,,,,,,,,,,,,,,,,,,,,,,,,,,,,,,,,,,,,1832.7225649169995,None,1832.7225649169995,None,1832.7225649169995,None,r,0,0.3429386149982747,1834.2574629519986,None,1834.2574629519986,None,1834.2574629519986,None,1834.6564597179968,None,1834.6564597179968,None,1834.6564597179968,None,1834.6564597179968,None,,,,,,,,,,,,,,,,,,,,,,,,,,,,,,,,,,,,,,,,,,,,001,126,2020_Feb_13_1448,spring_faces,3.1.5,60.0607483239406,
condition files/Stage2_2.xlsx,,T4,B4,r,"['s', 'r']","['Stratego', 'Risk']","[-0.15, 0.5]","[0.15, 0.5]",1,1,,,,,,,,,,,,,,,,,0,1,1,1,0,4,4,5,,,,,,,,,,,,,,,,,,,,,,,,,,,,,,,,,,,,,,,,,,,,,,,1836.6229569479983,None,1836.6229569479983,None,1836.6229569479983,None,s,0,0.23557573200014303,1838.156789239998,None,1838.156789239998,None,1838.156789239998,None,1838.4579241089996,None,1838.4579241089996,None,1838.4579241089996,None,1838.4579241089996,None,,,,,,,,,,,,,,,,,,,,,,,,,,,,,,,,,,,,,,,,,,,,001,126,2020_Feb_13_1448,spring_faces,3.1.5,60.0607483239406,
condition files/Stage2_2.xlsx,,T2,B2,r,"['s', 'r']","['Stratego', 'Risk']","[-0.15, 0.5]","[0.15, 0.5]",1,1,,,,,,,,,,,,,,,,,0,1,1,1,0,5,5,3,,,,,,,,,,,,,,,,,,,,,,,,,,,,,,,,,,,,,,,,,,,,,,,1840.4228815939969,None,1840.4228815939969,None,1840.4228815939969,None,r,1,0.33998917499775416,1841.9564442679984,None,1841.9564442679984,None,1841.9564442679984,None,1842.3560687319987,None,1842.3560687319987,None,1842.3560687319987,None,1842.3560687319987,None,,,,,,,,,,,,,,,,,,,,,,,,,,,,,,,,,,,,,,,,,,,,001,126,2020_Feb_13_1448,spring_faces,3.1.5,60.0607483239406,
condition files/Stage2_1.xlsx,,B2,T2,r,"['s', 'r']","['Stratego', 'Risk']","[-0.15, 0.5]","[0.15, 0.5]",1,1,,,,,,,,,,,,,,,,,0,2,2,2,0,0,0,3,,,,,,,,,,,,,,,,,,,,,,,,,,,,,,,,,,,,,,,,,,,,,,,1844.3395497349993,None,1844.3395497349993,None,1844.3395497349993,None,s,0,0.2634740950015839,1845.873072045997,None,1845.873072045997,None,1845.873072045997,None,1846.1897204449997,None,1846.1897204449997,None,1846.1897204449997,None,1846.1897204449997,None,,,,,,,,,,,,,,,,,,,,,,,,,,,,,,,,,,,,,,,,,,,,001,126,2020_Feb_13_1448,spring_faces,3.1.5,60.0607483239406,
condition files/Stage2_1.xlsx,,T1,B1,s,"['s', 'r']","['Stratego', 'Risk']","[-0.15, 0.5]","[0.15, 0.5]",1,1,,,,,,,,,,,,,,,,,0,2,2,2,0,1,1,2,,,,,,,,,,,,,,,,,,,,,,,,,,,,,,,,,,,,,,,,,,,,,,,1848.1561361519998,None,1848.1561361519998,None,1848.1561361519998,None,r,0,0.31786709500011057,1849.6904931089994,None,1849.6904931089994,None,1849.6904931089994,None,1850.0891130049968,None,1850.0891130049968,None,1850.0891130049968,None,1850.0891130049968,None,,,,,,,,,,,,,,,,,,,,,,,,,,,,,,,,,,,,,,,,,,,,001,126,2020_Feb_13_1448,spring_faces,3.1.5,60.0607483239406,
condition files/Stage2_1.xlsx,,T3,B3,s,"['s', 'r']","['Stratego', 'Risk']","[-0.15, 0.5]","[0.15, 0.5]",1,1,,,,,,,,,,,,,,,,,0,2,2,2,0,2,2,4,,,,,,,,,,,,,,,,,,,,,,,,,,,,,,,,,,,,,,,,,,,,,,,1852.0397316789968,None,1852.0397316789968,None,1852.0397316789968,None,s,1,0.2911147479971987,1853.5733231389968,None,1853.5733231389968,None,1853.5733231389968,None,1853.9230732529977,None,1853.9230732529977,None,1853.9230732529977,None,1853.9230732529977,None,,,,,,,,,,,,,,,,,,,,,,,,,,,,,,,,,,,,,,,,,,,,001,126,2020_Feb_13_1448,spring_faces,3.1.5,60.0607483239406,
condition files/Stage2_1.xlsx,,T5,B5,s,"['s', 'r']","['Stratego', 'Risk']","[-0.15, 0.5]","[0.15, 0.5]",1,1,,,,,,,,,,,,,,,,,0,2,2,2,0,3,3,0,,,,,,,,,,,,,,,,,,,,,,,,,,,,,,,,,,,,,,,,,,,,,,,1855.8895263699997,None,1855.8895263699997,None,1855.8895263699997,None,s,1,0.2650710070010973,1857.4392678899967,None,1857.4392678899967,None,1857.4392678899967,None,1857.7562371819986,None,1857.7562371819986,None,1857.7562371819986,None,1857.7562371819986,None,,,,,,,,,,,,,,,,,,,,,,,,,,,,,,,,,,,,,,,,,,,,001,126,2020_Feb_13_1448,spring_faces,3.1.5,60.0607483239406,
condition files/Stage2_1.xlsx,,B6,T6,r,"['s', 'r']","['Stratego', 'Risk']","[-0.15, 0.5]","[0.15, 0.5]",1,1,,,,,,,,,,,,,,,,,0,2,2,2,0,4,4,1,,,,,,,,,,,,,,,,,,,,,,,,,,,,,,,,,,,,,,,,,,,,,,,1859.7226387679984,None,1859.7226387679984,None,1859.7226387679984,None,r,1,0.304383520000556,1861.255984184998,None,1861.255984184998,None,1861.255984184998,None,1861.6235051219992,None,1861.6235051219992,None,1861.6235051219992,None,1861.6235051219992,None,,,,,,,,,,,,,,,,,,,,,,,,,,,,,,,,,,,,,,,,,,,,001,126,2020_Feb_13_1448,spring_faces,3.1.5,60.0607483239406,
condition files/Stage2_1.xlsx,,B4,T4,r,"['s', 'r']","['Stratego', 'Risk']","[-0.15, 0.5]","[0.15, 0.5]",1,1,,,,,,,,,,,,,,,,,0,2,2,2,0,5,5,5,,,,,,,,,,,,,,,,,,,,,,,,,,,,,,,,,,,,,,,,,,,,,,,1863.5895715869992,None,1863.5895715869992,None,1863.5895715869992,None,s,0,0.5013744659991062,1865.1229364829996,None,1865.1229364829996,None,1865.1229364829996,None,1865.6897322159966,None,1865.6897322159966,None,1865.6897322159966,None,1865.6897322159966,None,,,,,,,,,,,,,,,,,,,,,,,,,,,,,,,,,,,,,,,,,,,,001,126,2020_Feb_13_1448,spring_faces,3.1.5,60.0607483239406,
condition files/Stage2_2.xlsx,,B1,T1,s,"['s', 'r']","['Stratego', 'Risk']","[-0.15, 0.5]","[0.15, 0.5]",1,1,,,,,,,,,,,,,,,,,0,3,3,3,0,0,0,2,,,,,,,,,,,,,,,,,,,,,,,,,,,,,,,,,,,,,,,,,,,,,,,1867.672982803997,None,1867.672982803997,None,1867.672982803997,None,r,0,0.5294190260028699,1869.222942387998,None,1869.222942387998,None,1869.222942387998,None,1869.8225198719992,None,1869.8225198719992,None,1869.8225198719992,None,1869.8225198719992,None,,,,,,,,,,,,,,,,,,,,,,,,,,,,,,,,,,,,,,,,,,,,001,126,2020_Feb_13_1448,spring_faces,3.1.5,60.0607483239406,
condition files/Stage2_2.xlsx,,T6,B6,r,"['s', 'r']","['Stratego', 'Risk']","[-0.15, 0.5]","[0.15, 0.5]",1,1,,,,,,,,,,,,,,,,,0,3,3,3,0,1,1,1,,,,,,,,,,,,,,,,,,,,,,,,,,,,,,,,,,,,,,,,,,,,,,,1871.7727910629983,None,1871.7727910629983,None,1871.7727910629983,None,s,0,0.4456290460002492,1873.3067337499997,None,1873.3067337499997,None,1873.3067337499997,None,1873.8061605429975,None,1873.8061605429975,None,1873.8061605429975,None,1873.8061605429975,None,,,,,,,,,,,,,,,,,,,,,,,,,,,,,,,,,,,,,,,,,,,,001,126,2020_Feb_13_1448,spring_faces,3.1.5,60.0607483239406,
condition files/Stage2_2.xlsx,,B5,T5,s,"['s', 'r']","['Stratego', 'Risk']","[-0.15, 0.5]","[0.15, 0.5]",1,1,,,,,,,,,,,,,,,,,0,3,3,3,0,2,2,0,,,,,,,,,,,,,,,,,,,,,,,,,,,,,,,,,,,,,,,,,,,,,,,1875.772980378999,None,1875.772980378999,None,1875.772980378999,None,r,0,0.46071348899931763,1877.3076103319981,None,1877.3076103319981,None,1877.3076103319981,None,1877.840046035999,None,1877.840046035999,None,1877.840046035999,None,1877.840046035999,None,,,,,,,,,,,,,,,,,,,,,,,,,,,,,,,,,,,,,,,,,,,,001,126,2020_Feb_13_1448,spring_faces,3.1.5,60.0607483239406,
condition files/Stage2_2.xlsx,,T2,B2,r,"['s', 'r']","['Stratego', 'Risk']","[-0.15, 0.5]","[0.15, 0.5]",1,1,,,,,,,,,,,,,,,,,0,3,3,3,0,3,3,3,,,,,,,,,,,,,,,,,,,,,,,,,,,,,,,,,,,,,,,,,,,,,,,1879.7889815729977,None,1879.7889815729977,None,1879.7889815729977,None,s,0,0.34951698400254827,1881.3228398119973,None,1881.3228398119973,None,1881.3228398119973,None,1881.7232629749997,None,1881.7232629749997,None,1881.7232629749997,None,1881.7232629749997,None,,,,,,,,,,,,,,,,,,,,,,,,,,,,,,,,,,,,,,,,,,,,001,126,2020_Feb_13_1448,spring_faces,3.1.5,60.0607483239406,
condition files/Stage2_2.xlsx,,T4,B4,r,"['s', 'r']","['Stratego', 'Risk']","[-0.15, 0.5]","[0.15, 0.5]",1,1,,,,,,,,,,,,,,,,,0,3,3,3,0,4,4,5,,,,,,,,,,,,,,,,,,,,,,,,,,,,,,,,,,,,,,,,,,,,,,,1883.6894637879996,None,1883.6894637879996,None,1883.6894637879996,None,r,1,0.6553552100012894,1885.2250603349967,None,1885.2250603349967,None,1885.2250603349967,None,1885.9392108149987,None,1885.9392108149987,None,1885.9392108149987,None,1885.9392108149987,None,,,,,,,,,,,,,,,,,,,,,,,,,,,,,,,,,,,,,,,,,,,,001,126,2020_Feb_13_1448,spring_faces,3.1.5,60.0607483239406,
condition files/Stage2_2.xlsx,,B3,T3,s,"['s', 'r']","['Stratego', 'Risk']","[-0.15, 0.5]","[0.15, 0.5]",1,1,,,,,,,,,,,,,,,,,0,3,3,3,0,5,5,4,,,,,,,,,,,,,,,,,,,,,,,,,,,,,,,,,,,,,,,,,,,,,,,1887.9062113349974,None,1887.9062113349974,None,1887.9062113349974,None,s,1,0.7609872989996802,1889.439446600998,None,1889.439446600998,None,1889.439446600998,None,1890.272809285998,None,1890.272809285998,None,1890.272809285998,None,1890.272809285998,None,,,,,,,,,,,,,,,,,,,,,,,,,,,,,,,,,,,,,,,,,,,,001,126,2020_Feb_13_1448,spring_faces,3.1.5,60.0607483239406,
condition files/Stage2_1.xlsx,,B2,T2,r,"['s', 'r']","['Stratego', 'Risk']","[-0.15, 0.5]","[0.15, 0.5]",1,1,,,,,,,,,,,,,,,,,0,4,4,4,0,0,0,3,,,,,,,,,,,,,,,,,,,,,,,,,,,,,,,,,,,,,,,,,,,,,,,1892.239606332998,None,1892.239606332998,None,1892.239606332998,None,s,0,0.5708225680027681,1893.7735519889975,None,1893.7735519889975,None,1893.7735519889975,None,1894.4070004399982,None,1894.4070004399982,None,1894.4070004399982,None,1894.4070004399982,None,,,,,,,,,,,,,,,,,,,,,,,,,,,,,,,,,,,,,,,,,,,,001,126,2020_Feb_13_1448,spring_faces,3.1.5,60.0607483239406,
condition files/Stage2_1.xlsx,,B6,T6,r,"['s', 'r']","['Stratego', 'Risk']","[-0.15, 0.5]","[0.15, 0.5]",1,1,,,,,,,,,,,,,,,,,0,4,4,4,0,1,1,1,,,,,,,,,,,,,,,,,,,,,,,,,,,,,,,,,,,,,,,,,,,,,,,1896.3729441719988,None,1896.3729441719988,None,1896.3729441719988,None,r,1,0.8859163300003274,1897.9064449299985,None,1897.9064449299985,None,1897.9064449299985,None,1898.8565629629993,None,1898.8565629629993,None,1898.8565629629993,None,1898.8565629629993,None,,,,,,,,,,,,,,,,,,,,,,,,,,,,,,,,,,,,,,,,,,,,001,126,2020_Feb_13_1448,spring_faces,3.1.5,60.0607483239406,
