condsFile,subStage,cue1,cue2,correct,responseKeys,responseNames,cue1Position,cue2Position,cue1Opacity,cue2Opacity,stageLoop0.thisRepN,stageLoop0.thisTrialN,stageLoop0.thisN,stageLoop0.thisIndex,blockLoop0.thisRepN,blockLoop0.thisTrialN,blockLoop0.thisN,blockLoop0.thisIndex,stage1Loop.thisRepN,stage1Loop.thisTrialN,stage1Loop.thisN,stage1Loop.thisIndex,blockLoop1.thisRepN,blockLoop1.thisTrialN,blockLoop1.thisN,blockLoop1.thisIndex,stage2Loop.thisRepN,stage2Loop.thisTrialN,stage2Loop.thisN,stage2Loop.thisIndex,blockLoop2.thisRepN,blockLoop2.thisTrialN,blockLoop2.thisN,blockLoop2.thisIndex,testLoop.thisRepN,testLoop.thisTrialN,testLoop.thisN,testLoop.thisIndex,blockLoopTest.thisRepN,blockLoopTest.thisTrialN,blockLoopTest.thisN,blockLoopTest.thisIndex,cuePics,id_instr_text.started,id_instr_text.stopped,space_to_continue_2.started,space_to_continue_2.stopped,end_instructions_resp_3.keys,end_instructions_resp_3.rt,end_instructions_resp_3.started,end_instructions_resp_3.stopped,id_input_instr.started,id_input_instr.stopped,id_input_rect.started,id_input_rect.stopped,id_input_resp.keys,id_input_resp.rt,id_input_resp.started,id_input_resp.stopped,sonaID,id_input_text.started,id_input_text.stopped,final_text.started,final_text.stopped,instructions.started,instructions.stopped,end_instructions_resp.keys,end_instructions_resp.rt,end_instructions_resp.started,end_instructions_resp.stopped,space_to_continue.started,space_to_continue.stopped,instructions_stage0.started,instructions_stage0.stopped,end_instructions_resp_stage0.keys,end_instructions_resp_stage0.rt,end_instructions_resp_stage0.started,end_instructions_resp_stage0.stopped,space_to_continue_stage0.started,space_to_continue_stage0.stopped,text.started,text.stopped,resp_text1.started,resp_text1.stopped,resp_text2.started,resp_text2.stopped,trial_resp.keys,trial_resp.corr,trial_resp.rt,trial_resp.started,trial_resp.stopped,cue1Image.started,cue1Image.stopped,cue2Image.started,cue2Image.stopped,cue1Image_fb.started,cue1Image_fb.stopped,cue2Image_fb.started,cue2Image_fb.stopped,fb_text_answer.started,fb_text_answer.stopped,feedback_image.started,feedback_image.stopped,instructions_stage1.started,instructions_stage1.stopped,end_instructions_resp_stage1.keys,end_instructions_resp_stage1.rt,end_instructions_resp_stage1.started,end_instructions_resp_stage1.stopped,space_to_continue_stage1.started,space_to_continue_stage1.stopped,instructions_2.started,instructions_2.stopped,end_instructions_resp_2.keys,end_instructions_resp_2.rt,end_instructions_resp_2.started,end_instructions_resp_2.stopped,press_space_to_continue_stage2.started,press_space_to_continue_stage2.stopped,instructions_testStage1.started,instructions_testStage1.stopped,end_instructions_resp_test1.keys,end_instructions_resp_test1.rt,end_instructions_resp_test1.started,end_instructions_resp_test1.stopped,press_space_to_continue_test1.started,press_space_to_continue_test1.stopped,cue1Image_testChoice.started,cue1Image_testChoice.stopped,cue2Image_testChoice.started,cue2Image_testChoice.stopped,test_resp.keys,test_resp.corr,test_resp.rt,test_resp.started,test_resp.stopped,cue1Image_testConf.started,cue1Image_testConf.stopped,cue2Image_testConf.started,cue2Image_testConf.stopped,conf_reminder.started,conf_reminder.stopped,conf_rating.response,conf_rating.rt,conf_rating.started,conf_rating.stopped,session,participant,date,expName,psychopyVersion,frameRate,
,,,,,,,,,,,,,,,,,,,,,,,,,,,,,,,,,,,,,,,,,,,"{'none': 'pictures/20M_AN_C.png', 'alpha': 'pictures/SHINEd_pepper.png', 'beta': 'pictures/SHINEd_apple.png', 'theta': 'pictures/SHINEd_melon.png', 'phi': 'pictures/SHINEd_pear.png', 'T1': 'pictures/38M_AN_C.png', 'T2': 'pictures/31M_AN_C.png', 'T3': 'pictures/37M_AN_C.png', 'T4': 'pictures/25M_AN_C.png', 'T5': 'pictures/26M_AN_C.png', 'T6': 'pictures/36M_AN_C.png', 'B1': 'pictures/20M_NE_C.png', 'B2': 'pictures/34M_NE_C.png', 'B3': 'pictures/32M_NE_C.png', 'B4': 'pictures/23M_NE_C.png', 'B5': 'pictures/33M_NE_C.png', 'B6': 'pictures/22M_NE_C.png'}",433.40977291900003,None,438.34287292499994,None,space,6.038327018000018,438.34287292499994,None,,,,,,,,,,,,,,,,,,,,,,,,,,,,,,,,,,,,,,,,,,,,,,,,,,,,,,,,,,,,,,,,,,,,,,,,,,,,,,,,,,,,,,,,,,,,,,,,001,128,2020_Feb_18_0902,spring_faces,3.1.5,60.07096952541834,
,,,,,,,,,,,,,,,,,,,,,,,,,,,,,,,,,,,,,,,,,,,,,,,,,,,,445.05954496899994,None,445.05954496899994,None,"['0', '8', '2', '2', 's', 't', 'k', 'e', 'n']","[5.33764249800015, 6.153640150000001, 9.8335810760002, 10.297596498000075, 13.001579553000056, 13.497610702000202, 15.785571993000076, 16.041591600000174, 16.20157285800019]",445.05954496899994,None,,,,,,,,,,,,,,,,,,,,,,,,,,,,,,,,,,,,,,,,,,,,,,,,,,,,,,,,,,,,,,,,,,,,,,,,,,,,,,,,,,,,,,,,001,128,2020_Feb_18_0902,spring_faces,3.1.5,60.07096952541834,
,,,,,,,,,,,,,,,,,,,,,,,,,,,,,,,,,,,,,,,,,,,,,,,,,,,,,,,,,,,,0822stken,445.05954496899994,None,445.05954496899994,None,466.343020949,None,space,6.494078962000003,471.34303918,None,,,,,,,,,,,,,,,,,,,,,,,,,,,,,,,,,,,,,,,,,,,,,,,,,,,,,,,,,,,,,,,,,,,,,,,,,,,,,001,128,2020_Feb_18_0902,spring_faces,3.1.5,60.07096952541834,
,,,,,,,,,,,,,,,,,,,,,,,,,,,,,,,,,,,,,,,,,,,,,,,,,,,,,,,,,,,,,,,,,,,,,,,471.34303918,None,477.8764939089999,None,space,3.441059518999964,482.8761774310001,None,,,,,,,,,,,,,,,,,,,,,,,,,,,,,,,,,,,,,,,,,,,,,,,,,,,,,,,,,,,,,,,,,,,,,001,128,2020_Feb_18_0902,spring_faces,3.1.5,60.07096952541834,
condition files/Stage0a.xlsx,0a,alpha,none,h,"['h', 'g']","['Chess', 'Go']","[0, 0.5]","[0, 0]",1,0,0,0,0,0,0,0,0,0,,,,,,,,,,,,,,,,,,,,,,,,,,,,,,,,,,,,,,,,,,,,,,,,,,,,,,,,,,,,,482.8761774310001,None,486.5429044320001,None,486.5429044320001,None,486.5429044320001,None,h,1,3.547192604999964,488.19397196,None,488.19397196,None,488.19397196,None,491.82563335200007,None,491.82563335200007,None,491.82563335200007,None,491.82563335200007,None,,,,,,,,,,,,,,,,,,,,,,,,,,,,,,,,,,,,,,,,,,,,001,128,2020_Feb_18_0902,spring_faces,3.1.5,60.07096952541834,
condition files/Stage0a.xlsx,0a,beta,none,g,"['h', 'g']","['Chess', 'Go']","[0, 0.5]","[0, 0]",1,0,0,0,0,0,0,1,1,1,,,,,,,,,,,,,,,,,,,,,,,,,,,,,,,,,,,,,,,,,,,,,,,,,,,,,,,,,,,,,,,493.759434069,None,493.759434069,None,493.759434069,None,g,1,1.6472749770000519,495.30986624699995,None,495.30986624699995,None,495.30986624699995,None,497.00878024100007,None,497.00878024100007,None,497.00878024100007,None,497.00878024100007,None,,,,,,,,,,,,,,,,,,,,,,,,,,,,,,,,,,,,,,,,,,,,001,128,2020_Feb_18_0902,spring_faces,3.1.5,60.07096952541834,
condition files/Stage0a.xlsx,0a,beta,none,g,"['h', 'g']","['Chess', 'Go']","[0, 0.5]","[0, 0]",1,0,0,1,1,1,0,0,0,1,,,,,,,,,,,,,,,,,,,,,,,,,,,,,,,,,,,,,,,,,,,,,,,,,,,,,,,,,,,,,,,498.99295999900005,None,498.99295999900005,None,498.99295999900005,None,g,1,1.263360824000074,500.5258047330001,None,500.5258047330001,None,500.5258047330001,None,501.8430000610001,None,501.8430000610001,None,501.8430000610001,None,501.8430000610001,None,,,,,,,,,,,,,,,,,,,,,,,,,,,,,,,,,,,,,,,,,,,,001,128,2020_Feb_18_0902,spring_faces,3.1.5,60.07096952541834,
condition files/Stage0a.xlsx,0a,alpha,none,h,"['h', 'g']","['Chess', 'Go']","[0, 0.5]","[0, 0]",1,0,0,1,1,1,0,1,1,0,,,,,,,,,,,,,,,,,,,,,,,,,,,,,,,,,,,,,,,,,,,,,,,,,,,,,,,,,,,,,,,503.80947093400005,None,503.80947093400005,None,503.80947093400005,None,h,1,0.6701728309999453,505.34299121699996,None,505.34299121699996,None,505.34299121699996,None,506.07638091900003,None,506.07638091900003,None,506.07638091900003,None,506.07638091900003,None,,,,,,,,,,,,,,,,,,,,,,,,,,,,,,,,,,,,,,,,,,,,001,128,2020_Feb_18_0902,spring_faces,3.1.5,60.07096952541834,
condition files/Stage0a.xlsx,0a,beta,none,g,"['h', 'g']","['Chess', 'Go']","[0, 0.5]","[0, 0]",1,0,0,2,2,2,0,0,0,1,,,,,,,,,,,,,,,,,,,,,,,,,,,,,,,,,,,,,,,,,,,,,,,,,,,,,,,,,,,,,,,508.0600664599999,None,508.0600664599999,None,508.0600664599999,None,g,1,1.124675545999935,509.576525209,None,509.576525209,None,509.576525209,None,510.759624864,None,510.759624864,None,510.759624864,None,510.759624864,None,,,,,,,,,,,,,,,,,,,,,,,,,,,,,,,,,,,,,,,,,,,,001,128,2020_Feb_18_0902,spring_faces,3.1.5,60.07096952541834,
condition files/Stage0a.xlsx,0a,alpha,none,h,"['h', 'g']","['Chess', 'Go']","[0, 0.5]","[0, 0]",1,0,0,2,2,2,0,1,1,0,,,,,,,,,,,,,,,,,,,,,,,,,,,,,,,,,,,,,,,,,,,,,,,,,,,,,,,,,,,,,,,512.726206666,None,512.726206666,None,512.726206666,None,h,1,0.6018791179999425,514.2592392890001,None,514.2592392890001,None,514.2592392890001,None,514.9260304320001,None,514.9260304320001,None,514.9260304320001,None,514.9260304320001,None,,,,,,,,,,,,,,,,,,,,,,,,,,,,,,,,,,,,,,,,,,,,001,128,2020_Feb_18_0902,spring_faces,3.1.5,60.07096952541834,
condition files/Stage0a.xlsx,0a,beta,none,g,"['h', 'g']","['Chess', 'Go']","[0, 0.5]","[0, 0]",1,0,0,3,3,3,0,0,0,1,,,,,,,,,,,,,,,,,,,,,,,,,,,,,,,,,,,,,,,,,,,,,,,,,,,,,,,,,,,,,,,516.9096289429999,None,516.9096289429999,None,516.9096289429999,None,g,1,1.9225493589999587,518.442665133,None,518.442665133,None,518.442665133,None,520.426172728,None,520.426172728,None,520.426172728,None,520.426172728,None,,,,,,,,,,,,,,,,,,,,,,,,,,,,,,,,,,,,,,,,,,,,001,128,2020_Feb_18_0902,spring_faces,3.1.5,60.07096952541834,
condition files/Stage0a.xlsx,0a,alpha,none,h,"['h', 'g']","['Chess', 'Go']","[0, 0.5]","[0, 0]",1,0,0,3,3,3,0,1,1,0,,,,,,,,,,,,,,,,,,,,,,,,,,,,,,,,,,,,,,,,,,,,,,,,,,,,,,,,,,,,,,,522.3928713600001,None,522.3928713600001,None,522.3928713600001,None,h,1,0.9673080019999816,523.925811673,None,523.925811673,None,523.925811673,None,524.960001513,None,524.960001513,None,524.960001513,None,524.960001513,None,,,,,,,,,,,,,,,,,,,,,,,,,,,,,,,,,,,,,,,,,,,,001,128,2020_Feb_18_0902,spring_faces,3.1.5,60.07096952541834,
condition files/Stage0a.xlsx,0a,beta,none,g,"['h', 'g']","['Chess', 'Go']","[0, 0.5]","[0, 0]",1,0,0,4,4,4,0,0,0,1,,,,,,,,,,,,,,,,,,,,,,,,,,,,,,,,,,,,,,,,,,,,,,,,,,,,,,,,,,,,,,,526.942258773,None,526.942258773,None,526.942258773,None,g,1,0.5926689279999664,528.4764541049999,None,528.4764541049999,None,528.4764541049999,None,529.1263841919999,None,529.1263841919999,None,529.1263841919999,None,529.1263841919999,None,,,,,,,,,,,,,,,,,,,,,,,,,,,,,,,,,,,,,,,,,,,,001,128,2020_Feb_18_0902,spring_faces,3.1.5,60.07096952541834,
condition files/Stage0a.xlsx,0a,alpha,none,h,"['h', 'g']","['Chess', 'Go']","[0, 0.5]","[0, 0]",1,0,0,4,4,4,0,1,1,0,,,,,,,,,,,,,,,,,,,,,,,,,,,,,,,,,,,,,,,,,,,,,,,,,,,,,,,,,,,,,,,531.092725213,None,531.092725213,None,531.092725213,None,h,1,0.61871083799997,532.6264351049999,None,532.6264351049999,None,532.6264351049999,None,533.3097910880001,None,533.3097910880001,None,533.3097910880001,None,533.3097910880001,None,,,,,,,,,,,,,,,,,,,,,,,,,,,,,,,,,,,,,,,,,,,,001,128,2020_Feb_18_0902,spring_faces,3.1.5,60.07096952541834,
condition files/Stage0a.xlsx,0a,alpha,none,h,"['h', 'g']","['Chess', 'Go']","[0, 0.5]","[0, 0]",1,0,0,5,5,5,0,0,0,0,,,,,,,,,,,,,,,,,,,,,,,,,,,,,,,,,,,,,,,,,,,,,,,,,,,,,,,,,,,,,,,535.2932086180001,None,535.2932086180001,None,535.2932086180001,None,h,1,0.8509706730001199,536.826156957,None,536.826156957,None,536.826156957,None,537.7430696179999,None,537.7430696179999,None,537.7430696179999,None,537.7430696179999,None,,,,,,,,,,,,,,,,,,,,,,,,,,,,,,,,,,,,,,,,,,,,001,128,2020_Feb_18_0902,spring_faces,3.1.5,60.07096952541834,
condition files/Stage0a.xlsx,0a,beta,none,g,"['h', 'g']","['Chess', 'Go']","[0, 0.5]","[0, 0]",1,0,0,5,5,5,0,1,1,1,,,,,,,,,,,,,,,,,,,,,,,,,,,,,,,,,,,,,,,,,,,,,,,,,,,,,,,,,,,,,,,539.7086400410001,None,539.7086400410001,None,539.7086400410001,None,g,1,0.5144271429999208,541.2427182480001,None,541.2427182480001,None,541.2427182480001,None,541.8092122779999,None,541.8092122779999,None,541.8092122779999,None,541.8092122779999,None,,,,,,,,,,,,,,,,,,,,,,,,,,,,,,,,,,,,,,,,,,,,001,128,2020_Feb_18_0902,spring_faces,3.1.5,60.07096952541834,
condition files/Stage0b_1.xlsx,0b,none,beta,g,"['h', 'g']","['Chess', 'Go']","[-0.15, 0.5]","[0.15, 0.5]",0,1,0,6,6,6,0,0,0,1,,,,,,,,,,,,,,,,,,,,,,,,,,,,,,,,,,,,,,,,,,,,,,,,,,,,,,,,,,,,,,,543.8430980830001,None,543.8430980830001,None,543.8430980830001,None,g,1,1.6307120980000036,545.342397722,None,545.342397722,None,545.342397722,None,547.0299425170001,None,547.0299425170001,None,547.0299425170001,None,547.0299425170001,None,,,,,,,,,,,,,,,,,,,,,,,,,,,,,,,,,,,,,,,,,,,,001,128,2020_Feb_18_0902,spring_faces,3.1.5,60.07096952541834,
condition files/Stage0b_1.xlsx,0b,alpha,none,h,"['h', 'g']","['Chess', 'Go']","[-0.15, 0.5]","[0.15, 0.5]",1,0,0,6,6,6,0,1,1,0,,,,,,,,,,,,,,,,,,,,,,,,,,,,,,,,,,,,,,,,,,,,,,,,,,,,,,,,,,,,,,,548.9923889290001,None,548.9923889290001,None,548.9923889290001,None,h,1,0.5561607339998318,550.529064783,None,550.529064783,None,550.529064783,None,551.1436011640001,None,551.1436011640001,None,551.1436011640001,None,551.1436011640001,None,,,,,,,,,,,,,,,,,,,,,,,,,,,,,,,,,,,,,,,,,,,,001,128,2020_Feb_18_0902,spring_faces,3.1.5,60.07096952541834,
condition files/Stage0b_2.xlsx,0b,beta,none,g,"['h', 'g']","['Chess', 'Go']","[-0.15, 0.5]","[0.15, 0.5]",1,0,0,7,7,7,0,0,0,1,,,,,,,,,,,,,,,,,,,,,,,,,,,,,,,,,,,,,,,,,,,,,,,,,,,,,,,,,,,,,,,553.14216025,None,553.14216025,None,553.14216025,None,g,1,0.9382390279999981,554.6589508889999,None,554.6589508889999,None,554.6589508889999,None,555.6592594660001,None,555.6592594660001,None,555.6592594660001,None,555.6592594660001,None,,,,,,,,,,,,,,,,,,,,,,,,,,,,,,,,,,,,,,,,,,,,001,128,2020_Feb_18_0902,spring_faces,3.1.5,60.07096952541834,
condition files/Stage0b_2.xlsx,0b,none,alpha,h,"['h', 'g']","['Chess', 'Go']","[-0.15, 0.5]","[0.15, 0.5]",0,1,0,7,7,7,0,1,1,0,,,,,,,,,,,,,,,,,,,,,,,,,,,,,,,,,,,,,,,,,,,,,,,,,,,,,,,,,,,,,,,557.6260334850001,None,557.6260334850001,None,557.6260334850001,None,h,1,0.6405556990000605,559.164591558,None,559.164591558,None,559.164591558,None,559.863531298,None,559.863531298,None,559.863531298,None,559.863531298,None,,,,,,,,,,,,,,,,,,,,,,,,,,,,,,,,,,,,,,,,,,,,001,128,2020_Feb_18_0902,spring_faces,3.1.5,60.07096952541834,
condition files/Stage0b_1.xlsx,0b,alpha,none,h,"['h', 'g']","['Chess', 'Go']","[-0.15, 0.5]","[0.15, 0.5]",1,0,0,8,8,8,0,0,0,0,,,,,,,,,,,,,,,,,,,,,,,,,,,,,,,,,,,,,,,,,,,,,,,,,,,,,,,,,,,,,,,561.8427080470001,None,561.8427080470001,None,561.8427080470001,None,h,1,0.7926992630000314,563.3803909420001,None,563.3803909420001,None,563.3803909420001,None,564.2262717660001,None,564.2262717660001,None,564.2262717660001,None,564.2262717660001,None,,,,,,,,,,,,,,,,,,,,,,,,,,,,,,,,,,,,,,,,,,,,001,128,2020_Feb_18_0902,spring_faces,3.1.5,60.07096952541834,
condition files/Stage0b_1.xlsx,0b,none,beta,g,"['h', 'g']","['Chess', 'Go']","[-0.15, 0.5]","[0.15, 0.5]",0,1,0,8,8,8,0,1,1,1,,,,,,,,,,,,,,,,,,,,,,,,,,,,,,,,,,,,,,,,,,,,,,,,,,,,,,,,,,,,,,,566.192038016,None,566.192038016,None,566.192038016,None,g,1,0.653380990000187,567.7278143000001,None,567.7278143000001,None,567.7278143000001,None,568.443012,None,568.443012,None,568.443012,None,568.443012,None,,,,,,,,,,,,,,,,,,,,,,,,,,,,,,,,,,,,,,,,,,,,001,128,2020_Feb_18_0902,spring_faces,3.1.5,60.07096952541834,
condition files/Stage0b_2.xlsx,0b,beta,none,g,"['h', 'g']","['Chess', 'Go']","[-0.15, 0.5]","[0.15, 0.5]",1,0,0,9,9,9,0,0,0,1,,,,,,,,,,,,,,,,,,,,,,,,,,,,,,,,,,,,,,,,,,,,,,,,,,,,,,,,,,,,,,,570.426326946,None,570.426326946,None,570.426326946,None,g,1,1.0123969399999169,571.944764397,None,571.944764397,None,571.944764397,None,573.0095463980001,None,573.0095463980001,None,573.0095463980001,None,573.0095463980001,None,,,,,,,,,,,,,,,,,,,,,,,,,,,,,,,,,,,,,,,,,,,,001,128,2020_Feb_18_0902,spring_faces,3.1.5,60.07096952541834,
condition files/Stage0b_2.xlsx,0b,none,alpha,h,"['h', 'g']","['Chess', 'Go']","[-0.15, 0.5]","[0.15, 0.5]",0,1,0,9,9,9,0,1,1,0,,,,,,,,,,,,,,,,,,,,,,,,,,,,,,,,,,,,,,,,,,,,,,,,,,,,,,,,,,,,,,,574.975575099,None,574.975575099,None,574.975575099,None,h,1,0.6051378749998548,576.512097417,None,576.512097417,None,576.512097417,None,577.181486123,None,577.181486123,None,577.181486123,None,577.181486123,None,,,,,,,,,,,,,,,,,,,,,,,,,,,,,,,,,,,,,,,,,,,,001,128,2020_Feb_18_0902,spring_faces,3.1.5,60.07096952541834,
condition files/Stage0b_1.xlsx,0b,none,beta,g,"['h', 'g']","['Chess', 'Go']","[-0.15, 0.5]","[0.15, 0.5]",0,1,0,10,10,10,0,0,0,1,,,,,,,,,,,,,,,,,,,,,,,,,,,,,,,,,,,,,,,,,,,,,,,,,,,,,,,,,,,,,,,579.2096940240001,None,579.2096940240001,None,579.2096940240001,None,g,1,1.1122996039998725,580.6927890019999,None,580.6927890019999,None,580.6927890019999,None,581.8590703709999,None,581.8590703709999,None,581.8590703709999,None,581.8590703709999,None,,,,,,,,,,,,,,,,,,,,,,,,,,,,,,,,,,,,,,,,,,,,001,128,2020_Feb_18_0902,spring_faces,3.1.5,60.07096952541834,
condition files/Stage0b_1.xlsx,0b,alpha,none,h,"['h', 'g']","['Chess', 'Go']","[-0.15, 0.5]","[0.15, 0.5]",1,0,0,10,10,10,0,1,1,0,,,,,,,,,,,,,,,,,,,,,,,,,,,,,,,,,,,,,,,,,,,,,,,,,,,,,,,,,,,,,,,583.825394087,None,583.825394087,None,583.825394087,None,h,1,0.7280469330000869,585.3650617599999,None,585.3650617599999,None,585.3650617599999,None,586.162085054,None,586.162085054,None,586.162085054,None,586.162085054,None,,,,,,,,,,,,,,,,,,,,,,,,,,,,,,,,,,,,,,,,,,,,001,128,2020_Feb_18_0902,spring_faces,3.1.5,60.07096952541834,
condition files/Stage0b_2.xlsx,0b,beta,none,g,"['h', 'g']","['Chess', 'Go']","[-0.15, 0.5]","[0.15, 0.5]",1,0,0,11,11,11,0,0,0,1,,,,,,,,,,,,,,,,,,,,,,,,,,,,,,,,,,,,,,,,,,,,,,,,,,,,,,,,,,,,,,,588.143064483,None,588.143064483,None,588.143064483,None,g,1,0.5608471750001627,589.67630199,None,589.67630199,None,589.67630199,None,590.2929157819999,None,590.2929157819999,None,590.2929157819999,None,590.2929157819999,None,,,,,,,,,,,,,,,,,,,,,,,,,,,,,,,,,,,,,,,,,,,,001,128,2020_Feb_18_0902,spring_faces,3.1.5,60.07096952541834,
condition files/Stage0b_2.xlsx,0b,none,alpha,h,"['h', 'g']","['Chess', 'Go']","[-0.15, 0.5]","[0.15, 0.5]",0,1,0,11,11,11,0,1,1,0,,,,,,,,,,,,,,,,,,,,,,,,,,,,,,,,,,,,,,,,,,,,,,,,,,,,,,,,,,,,,,,592.259495172,None,592.259495172,None,592.259495172,None,h,1,0.5356087340001068,593.79762093,None,593.79762093,None,593.79762093,None,594.4096828060001,None,594.4096828060001,None,594.4096828060001,None,594.4096828060001,None,,,,,,,,,,,,,,,,,,,,,,,,,,,,,,,,,,,,,,,,,,,,001,128,2020_Feb_18_0902,spring_faces,3.1.5,60.07096952541834,
condition files/Stage0c_1.xlsx,0c,theta,alpha,h,"['h', 'g']","['Chess', 'Go']","[-0.15, 0.5]","[0.15, 0.5]",1,1,0,12,12,12,0,0,0,0,,,,,,,,,,,,,,,,,,,,,,,,,,,,,,,,,,,,,,,,,,,,,,,,,,,,,,,,,,,,,,,596.392827852,None,596.392827852,None,596.392827852,None,h,1,2.0381639529998665,597.9430108920001,None,597.9430108920001,None,597.9430108920001,None,600.0425528579999,None,600.0425528579999,None,600.0425528579999,None,600.0425528579999,None,,,,,,,,,,,,,,,,,,,,,,,,,,,,,,,,,,,,,,,,,,,,001,128,2020_Feb_18_0902,spring_faces,3.1.5,60.07096952541834,
condition files/Stage0c_1.xlsx,0c,phi,beta,g,"['h', 'g']","['Chess', 'Go']","[-0.15, 0.5]","[0.15, 0.5]",1,1,0,12,12,12,0,1,1,3,,,,,,,,,,,,,,,,,,,,,,,,,,,,,,,,,,,,,,,,,,,,,,,,,,,,,,,,,,,,,,,602.0095366620001,None,602.0095366620001,None,602.0095366620001,None,g,1,1.3653706019999845,603.559819286,None,603.559819286,None,603.559819286,None,604.975162079,None,604.975162079,None,604.975162079,None,604.975162079,None,,,,,,,,,,,,,,,,,,,,,,,,,,,,,,,,,,,,,,,,,,,,001,128,2020_Feb_18_0902,spring_faces,3.1.5,60.07096952541834,
condition files/Stage0c_1.xlsx,0c,alpha,phi,h,"['h', 'g']","['Chess', 'Go']","[-0.15, 0.5]","[0.15, 0.5]",1,1,0,12,12,12,0,2,2,1,,,,,,,,,,,,,,,,,,,,,,,,,,,,,,,,,,,,,,,,,,,,,,,,,,,,,,,,,,,,,,,606.9428712230001,None,606.9428712230001,None,606.9428712230001,None,h,1,1.1056175090000124,608.475572677,None,608.475572677,None,608.475572677,None,609.642650343,None,609.642650343,None,609.642650343,None,609.642650343,None,,,,,,,,,,,,,,,,,,,,,,,,,,,,,,,,,,,,,,,,,,,,001,128,2020_Feb_18_0902,spring_faces,3.1.5,60.07096952541834,
condition files/Stage0c_1.xlsx,0c,beta,theta,g,"['h', 'g']","['Chess', 'Go']","[-0.15, 0.5]","[0.15, 0.5]",1,1,0,12,12,12,0,3,3,2,,,,,,,,,,,,,,,,,,,,,,,,,,,,,,,,,,,,,,,,,,,,,,,,,,,,,,,,,,,,,,,611.6107521609999,None,611.6107521609999,None,611.6107521609999,None,g,1,1.6060915379998733,613.1430823359999,None,613.1430823359999,None,613.1430823359999,None,614.8097932840001,None,614.8097932840001,None,614.8097932840001,None,614.8097932840001,None,,,,,,,,,,,,,,,,,,,,,,,,,,,,,,,,,,,,,,,,,,,,001,128,2020_Feb_18_0902,spring_faces,3.1.5,60.07096952541834,
condition files/Stage0c_2.xlsx,0c,theta,beta,g,"['h', 'g']","['Chess', 'Go']","[-0.15, 0.5]","[0.15, 0.5]",1,1,0,13,13,13,0,0,0,2,,,,,,,,,,,,,,,,,,,,,,,,,,,,,,,,,,,,,,,,,,,,,,,,,,,,,,,,,,,,,,,616.8091590439999,None,616.8091590439999,None,616.8091590439999,None,g,1,1.062802758000089,618.326370083,None,618.326370083,None,618.326370083,None,619.4280087259999,None,619.4280087259999,None,619.4280087259999,None,619.4280087259999,None,,,,,,,,,,,,,,,,,,,,,,,,,,,,,,,,,,,,,,,,,,,,001,128,2020_Feb_18_0902,spring_faces,3.1.5,60.07096952541834,
condition files/Stage0c_2.xlsx,0c,phi,alpha,h,"['h', 'g']","['Chess', 'Go']","[-0.15, 0.5]","[0.15, 0.5]",1,1,0,13,13,13,0,1,1,1,,,,,,,,,,,,,,,,,,,,,,,,,,,,,,,,,,,,,,,,,,,,,,,,,,,,,,,,,,,,,,,621.4095743519999,None,621.4095743519999,None,621.4095743519999,None,h,1,0.5900791609999487,622.9430772850001,None,622.9430772850001,None,622.9430772850001,None,623.592981429,None,623.592981429,None,623.592981429,None,623.592981429,None,,,,,,,,,,,,,,,,,,,,,,,,,,,,,,,,,,,,,,,,,,,,001,128,2020_Feb_18_0902,spring_faces,3.1.5,60.07096952541834,
condition files/Stage0c_2.xlsx,0c,alpha,theta,h,"['h', 'g']","['Chess', 'Go']","[-0.15, 0.5]","[0.15, 0.5]",1,1,0,13,13,13,0,2,2,0,,,,,,,,,,,,,,,,,,,,,,,,,,,,,,,,,,,,,,,,,,,,,,,,,,,,,,,,,,,,,,,625.559456551,None,625.559456551,None,625.559456551,None,h,1,1.752130723999926,627.0930371960001,None,627.0930371960001,None,627.0930371960001,None,628.8930778609999,None,628.8930778609999,None,628.8930778609999,None,628.8930778609999,None,,,,,,,,,,,,,,,,,,,,,,,,,,,,,,,,,,,,,,,,,,,,001,128,2020_Feb_18_0902,spring_faces,3.1.5,60.07096952541834,
condition files/Stage0c_2.xlsx,0c,beta,phi,g,"['h', 'g']","['Chess', 'Go']","[-0.15, 0.5]","[0.15, 0.5]",1,1,0,13,13,13,0,3,3,3,,,,,,,,,,,,,,,,,,,,,,,,,,,,,,,,,,,,,,,,,,,,,,,,,,,,,,,,,,,,,,,630.875933454,None,630.875933454,None,630.875933454,None,g,1,0.8351017879999745,632.410049219,None,632.410049219,None,632.410049219,None,633.309174534,None,633.309174534,None,633.309174534,None,633.309174534,None,,,,,,,,,,,,,,,,,,,,,,,,,,,,,,,,,,,,,,,,,,,,001,128,2020_Feb_18_0902,spring_faces,3.1.5,60.07096952541834,
condition files/Stage0c_1.xlsx,0c,alpha,phi,h,"['h', 'g']","['Chess', 'Go']","[-0.15, 0.5]","[0.15, 0.5]",1,1,0,14,14,14,0,0,0,1,,,,,,,,,,,,,,,,,,,,,,,,,,,,,,,,,,,,,,,,,,,,,,,,,,,,,,,,,,,,,,,635.292807431,None,635.292807431,None,635.292807431,None,h,1,0.6108256389998132,636.826354371,None,636.826354371,None,636.826354371,None,637.4930113949999,None,637.4930113949999,None,637.4930113949999,None,637.4930113949999,None,,,,,,,,,,,,,,,,,,,,,,,,,,,,,,,,,,,,,,,,,,,,001,128,2020_Feb_18_0902,spring_faces,3.1.5,60.07096952541834,
condition files/Stage0c_1.xlsx,0c,phi,beta,g,"['h', 'g']","['Chess', 'Go']","[-0.15, 0.5]","[0.15, 0.5]",1,1,0,14,14,14,0,1,1,3,,,,,,,,,,,,,,,,,,,,,,,,,,,,,,,,,,,,,,,,,,,,,,,,,,,,,,,,,,,,,,,639.4593091720001,None,639.4593091720001,None,639.4593091720001,None,h,0,0.8281627520000256,640.9929530859999,None,640.9929530859999,None,640.9929530859999,None,641.8924477959999,None,641.8924477959999,None,641.8924477959999,None,641.8924477959999,None,,,,,,,,,,,,,,,,,,,,,,,,,,,,,,,,,,,,,,,,,,,,001,128,2020_Feb_18_0902,spring_faces,3.1.5,60.07096952541834,
condition files/Stage0c_1.xlsx,0c,beta,theta,g,"['h', 'g']","['Chess', 'Go']","[-0.15, 0.5]","[0.15, 0.5]",1,1,0,14,14,14,0,2,2,2,,,,,,,,,,,,,,,,,,,,,,,,,,,,,,,,,,,,,,,,,,,,,,,,,,,,,,,,,,,,,,,643.8427743330001,None,643.8427743330001,None,643.8427743330001,None,g,1,0.7963517609998689,645.376766245,None,645.376766245,None,645.376766245,None,646.2105887319999,None,646.2105887319999,None,646.2105887319999,None,646.2105887319999,None,,,,,,,,,,,,,,,,,,,,,,,,,,,,,,,,,,,,,,,,,,,,001,128,2020_Feb_18_0902,spring_faces,3.1.5,60.07096952541834,
condition files/Stage0c_1.xlsx,0c,theta,alpha,h,"['h', 'g']","['Chess', 'Go']","[-0.15, 0.5]","[0.15, 0.5]",1,1,0,14,14,14,0,3,3,0,,,,,,,,,,,,,,,,,,,,,,,,,,,,,,,,,,,,,,,,,,,,,,,,,,,,,,,,,,,,,,,648.192756487,None,648.192756487,None,648.192756487,None,h,1,1.327103807999947,649.7261019790001,None,649.7261019790001,None,649.7261019790001,None,651.1096584100001,None,651.1096584100001,None,651.1096584100001,None,651.1096584100001,None,,,,,,,,,,,,,,,,,,,,,,,,,,,,,,,,,,,,,,,,,,,,001,128,2020_Feb_18_0902,spring_faces,3.1.5,60.07096952541834,
condition files/Stage0c_2.xlsx,0c,alpha,theta,h,"['h', 'g']","['Chess', 'Go']","[-0.15, 0.5]","[0.15, 0.5]",1,1,0,15,15,15,0,0,0,0,,,,,,,,,,,,,,,,,,,,,,,,,,,,,,,,,,,,,,,,,,,,,,,,,,,,,,,,,,,,,,,653.093136747,None,653.093136747,None,653.093136747,None,h,1,2.1547689500000615,654.6264180390001,None,654.6264180390001,None,654.6264180390001,None,656.827821504,None,656.827821504,None,656.827821504,None,656.827821504,None,,,,,,,,,,,,,,,,,,,,,,,,,,,,,,,,,,,,,,,,,,,,001,128,2020_Feb_18_0902,spring_faces,3.1.5,60.07096952541834,
condition files/Stage0c_2.xlsx,0c,theta,beta,g,"['h', 'g']","['Chess', 'Go']","[-0.15, 0.5]","[0.15, 0.5]",1,1,0,15,15,15,0,1,1,2,,,,,,,,,,,,,,,,,,,,,,,,,,,,,,,,,,,,,,,,,,,,,,,,,,,,,,,,,,,,,,,658.809571973,None,658.809571973,None,658.809571973,None,g,1,1.2534478969998872,660.3437299919999,None,660.3437299919999,None,660.3437299919999,None,661.6598114650001,None,661.6598114650001,None,661.6598114650001,None,661.6598114650001,None,,,,,,,,,,,,,,,,,,,,,,,,,,,,,,,,,,,,,,,,,,,,001,128,2020_Feb_18_0902,spring_faces,3.1.5,60.07096952541834,
condition files/Stage0c_2.xlsx,0c,phi,alpha,h,"['h', 'g']","['Chess', 'Go']","[-0.15, 0.5]","[0.15, 0.5]",1,1,0,15,15,15,0,2,2,1,,,,,,,,,,,,,,,,,,,,,,,,,,,,,,,,,,,,,,,,,,,,,,,,,,,,,,,,,,,,,,,663.6258069139999,None,663.6258069139999,None,663.6258069139999,None,h,1,0.933505544000127,665.159618872,None,665.159618872,None,665.159618872,None,666.1432035790001,None,666.1432035790001,None,666.1432035790001,None,666.1432035790001,None,,,,,,,,,,,,,,,,,,,,,,,,,,,,,,,,,,,,,,,,,,,,001,128,2020_Feb_18_0902,spring_faces,3.1.5,60.07096952541834,
condition files/Stage0c_2.xlsx,0c,beta,phi,g,"['h', 'g']","['Chess', 'Go']","[-0.15, 0.5]","[0.15, 0.5]",1,1,0,15,15,15,0,3,3,3,,,,,,,,,,,,,,,,,,,,,,,,,,,,,,,,,,,,,,,,,,,,,,,,,,,,,,,,,,,,,,,668.1096864250001,None,668.1096864250001,None,668.1096864250001,None,g,1,2.1468721999999616,669.6422851330001,None,669.6422851330001,None,669.6422851330001,None,671.842259348,None,671.842259348,None,671.842259348,None,671.842259348,None,,,,,,,,,,,,,,,,,,,,,,,,,,,,,,,,,,,,,,,,,,,,001,128,2020_Feb_18_0902,spring_faces,3.1.5,60.07096952541834,
condition files/Stage0c_1.xlsx,0c,alpha,phi,h,"['h', 'g']","['Chess', 'Go']","[-0.15, 0.5]","[0.15, 0.5]",1,1,0,16,16,16,0,0,0,1,,,,,,,,,,,,,,,,,,,,,,,,,,,,,,,,,,,,,,,,,,,,,,,,,,,,,,,,,,,,,,,673.8263072320001,None,673.8263072320001,None,673.8263072320001,None,h,1,0.8140128590000586,675.3591406759999,None,675.3591406759999,None,675.3591406759999,None,676.226185574,None,676.226185574,None,676.226185574,None,676.226185574,None,,,,,,,,,,,,,,,,,,,,,,,,,,,,,,,,,,,,,,,,,,,,001,128,2020_Feb_18_0902,spring_faces,3.1.5,60.07096952541834,
condition files/Stage0c_1.xlsx,0c,theta,alpha,h,"['h', 'g']","['Chess', 'Go']","[-0.15, 0.5]","[0.15, 0.5]",1,1,0,16,16,16,0,1,1,0,,,,,,,,,,,,,,,,,,,,,,,,,,,,,,,,,,,,,,,,,,,,,,,,,,,,,,,,,,,,,,,678.1927059340001,None,678.1927059340001,None,678.1927059340001,None,h,1,0.7988476990001345,679.726331347,None,679.726331347,None,679.726331347,None,680.5609889740001,None,680.5609889740001,None,680.5609889740001,None,680.5609889740001,None,,,,,,,,,,,,,,,,,,,,,,,,,,,,,,,,,,,,,,,,,,,,001,128,2020_Feb_18_0902,spring_faces,3.1.5,60.07096952541834,
condition files/Stage0c_1.xlsx,0c,phi,beta,g,"['h', 'g']","['Chess', 'Go']","[-0.15, 0.5]","[0.15, 0.5]",1,1,0,16,16,16,0,2,2,3,,,,,,,,,,,,,,,,,,,,,,,,,,,,,,,,,,,,,,,,,,,,,,,,,,,,,,,,,,,,,,,682.542835431,None,682.542835431,None,682.542835431,None,g,1,1.041049074999819,684.0761693659999,None,684.0761693659999,None,684.0761693659999,None,685.175663625,None,685.175663625,None,685.175663625,None,685.175663625,None,,,,,,,,,,,,,,,,,,,,,,,,,,,,,,,,,,,,,,,,,,,,001,128,2020_Feb_18_0902,spring_faces,3.1.5,60.07096952541834,
condition files/Stage0c_1.xlsx,0c,beta,theta,g,"['h', 'g']","['Chess', 'Go']","[-0.15, 0.5]","[0.15, 0.5]",1,1,0,16,16,16,0,3,3,2,,,,,,,,,,,,,,,,,,,,,,,,,,,,,,,,,,,,,,,,,,,,,,,,,,,,,,,,,,,,,,,687.1427588480001,None,687.1427588480001,None,687.1427588480001,None,g,1,2.552592081000057,688.6765684300001,None,688.6765684300001,None,688.6765684300001,None,691.2764149520001,None,691.2764149520001,None,691.2764149520001,None,691.2764149520001,None,,,,,,,,,,,,,,,,,,,,,,,,,,,,,,,,,,,,,,,,,,,,001,128,2020_Feb_18_0902,spring_faces,3.1.5,60.07096952541834,
condition files/Stage0c_2.xlsx,0c,beta,phi,g,"['h', 'g']","['Chess', 'Go']","[-0.15, 0.5]","[0.15, 0.5]",1,1,0,17,17,17,0,0,0,3,,,,,,,,,,,,,,,,,,,,,,,,,,,,,,,,,,,,,,,,,,,,,,,,,,,,,,,,,,,,,,,693.276493116,None,693.276493116,None,693.276493116,None,g,1,3.155607970999881,694.8095207270001,None,694.8095207270001,None,694.8095207270001,None,698.0119231829999,None,698.0119231829999,None,698.0119231829999,None,698.0119231829999,None,,,,,,,,,,,,,,,,,,,,,,,,,,,,,,,,,,,,,,,,,,,,001,128,2020_Feb_18_0902,spring_faces,3.1.5,60.07096952541834,
condition files/Stage0c_2.xlsx,0c,theta,beta,g,"['h', 'g']","['Chess', 'Go']","[-0.15, 0.5]","[0.15, 0.5]",1,1,0,17,17,17,0,1,1,2,,,,,,,,,,,,,,,,,,,,,,,,,,,,,,,,,,,,,,,,,,,,,,,,,,,,,,,,,,,,,,,699.992582893,None,699.992582893,None,699.992582893,None,g,1,0.8227035739998882,701.526470173,None,701.526470173,None,701.526470173,None,702.3935518000001,None,702.3935518000001,None,702.3935518000001,None,702.3935518000001,None,,,,,,,,,,,,,,,,,,,,,,,,,,,,,,,,,,,,,,,,,,,,001,128,2020_Feb_18_0902,spring_faces,3.1.5,60.07096952541834,
condition files/Stage0c_2.xlsx,0c,phi,alpha,h,"['h', 'g']","['Chess', 'Go']","[-0.15, 0.5]","[0.15, 0.5]",1,1,0,17,17,17,0,2,2,1,,,,,,,,,,,,,,,,,,,,,,,,,,,,,,,,,,,,,,,,,,,,,,,,,,,,,,,,,,,,,,,704.376126029,None,704.376126029,None,704.376126029,None,h,1,0.48728820199994516,705.909894037,None,705.909894037,None,705.909894037,None,706.459963883,None,706.459963883,None,706.459963883,None,706.459963883,None,,,,,,,,,,,,,,,,,,,,,,,,,,,,,,,,,,,,,,,,,,,,001,128,2020_Feb_18_0902,spring_faces,3.1.5,60.07096952541834,
condition files/Stage0c_2.xlsx,0c,alpha,theta,h,"['h', 'g']","['Chess', 'Go']","[-0.15, 0.5]","[0.15, 0.5]",1,1,0,17,17,17,0,3,3,0,,,,,,,,,,,,,,,,,,,,,,,,,,,,,,,,,,,,,,,,,,,,,,,,,,,,,,,,,,,,,,,708.4261506089999,None,708.4261506089999,None,708.4261506089999,None,h,1,0.5500159770001574,709.959157606,None,709.959157606,None,709.959157606,None,710.544136488,None,710.544136488,None,710.544136488,None,710.544136488,None,,,,,,,,,,,,,,,,,,,,,,,,,,,,,,,,,,,,,,,,,,,,001,128,2020_Feb_18_0902,spring_faces,3.1.5,60.07096952541834,
,,,,,,,,,,,,,,,,,,,,,,,,,,,,,,,,,,,,,,,,,,,,,,,,,,,,,,,,,,,,,,,,,,,,,,,,,,,,,,,,,,,,,,,,,,,,,,,,,,,,,,,,712.542773977,None,space,0.0543231609999566,717.542856285,None,,,,,,,,,,,,,,,,,,,,,,,,,,,,,,,,,,,,,,001,128,2020_Feb_18_0902,spring_faces,3.1.5,60.07096952541834,
condition files/Stage1_1.xlsx,,T2,B2,m,"['c', 'm']","['Clue', 'Monopoly']","[-0.15, 0.5]","[0.15, 0.5]",1,1,,,,,,,,,0,0,0,0,0,0,0,3,,,,,,,,,,,,,,,,,,,,,,,,,,,,,,,,,,,,,,,,,,,,,,,,,,,,,,,717.726647165,None,717.726647165,None,717.726647165,None,c,0,1.1219180340001458,719.243275802,None,719.243275802,None,719.243275802,None,720.4599584069999,None,720.4599584069999,None,720.4599584069999,None,720.4599584069999,None,,,,,,,717.542856285,None,,,,,,,,,,,,,,,,,,,,,,,,,,,,,,,,,,,,001,128,2020_Feb_18_0902,spring_faces,3.1.5,60.07096952541834,
condition files/Stage1_1.xlsx,,B4,T4,m,"['c', 'm']","['Clue', 'Monopoly']","[-0.15, 0.5]","[0.15, 0.5]",1,1,,,,,,,,,0,0,0,0,0,1,1,7,,,,,,,,,,,,,,,,,,,,,,,,,,,,,,,,,,,,,,,,,,,,,,,,,,,,,,,722.393110682,None,722.393110682,None,722.393110682,None,c,0,2.3581975050001347,723.942997958,None,723.942997958,None,723.942997958,None,726.359348851,None,726.359348851,None,726.359348851,None,726.359348851,None,,,,,,,,,,,,,,,,,,,,,,,,,,,,,,,,,,,,,,,,,,,,001,128,2020_Feb_18_0902,spring_faces,3.1.5,60.07096952541834,
condition files/Stage1_1.xlsx,,T4,B3,m,"['c', 'm']","['Clue', 'Monopoly']","[-0.15, 0.5]","[0.15, 0.5]",1,1,,,,,,,,,0,0,0,0,0,2,2,6,,,,,,,,,,,,,,,,,,,,,,,,,,,,,,,,,,,,,,,,,,,,,,,,,,,,,,,728.326140893,None,728.326140893,None,728.326140893,None,m,1,0.9988244179999128,729.878297002,None,729.878297002,None,729.878297002,None,730.943167096,None,730.943167096,None,730.943167096,None,730.943167096,None,,,,,,,,,,,,,,,,,,,,,,,,,,,,,,,,,,,,,,,,,,,,001,128,2020_Feb_18_0902,spring_faces,3.1.5,60.07096952541834,
condition files/Stage1_1.xlsx,,B2,T1,m,"['c', 'm']","['Clue', 'Monopoly']","[-0.15, 0.5]","[0.15, 0.5]",1,1,,,,,,,,,0,0,0,0,0,3,3,2,,,,,,,,,,,,,,,,,,,,,,,,,,,,,,,,,,,,,,,,,,,,,,,,,,,,,,,732.909369582,None,732.909369582,None,732.909369582,None,c,0,1.6813032299999122,734.475844259,None,734.475844259,None,734.475844259,None,736.209931401,None,736.209931401,None,736.209931401,None,736.209931401,None,,,,,,,,,,,,,,,,,,,,,,,,,,,,,,,,,,,,,,,,,,,,001,128,2020_Feb_18_0902,spring_faces,3.1.5,60.07096952541834,
condition files/Stage1_1.xlsx,,B3,T3,c,"['c', 'm']","['Clue', 'Monopoly']","[-0.15, 0.5]","[0.15, 0.5]",1,1,,,,,,,,,0,0,0,0,0,4,4,4,,,,,,,,,,,,,,,,,,,,,,,,,,,,,,,,,,,,,,,,,,,,,,,,,,,,,,,738.175921349,None,738.175921349,None,738.175921349,None,m,0,1.1029926159999377,739.726187513,None,739.726187513,None,739.726187513,None,740.8933056989999,None,740.8933056989999,None,740.8933056989999,None,740.8933056989999,None,,,,,,,,,,,,,,,,,,,,,,,,,,,,,,,,,,,,,,,,,,,,001,128,2020_Feb_18_0902,spring_faces,3.1.5,60.07096952541834,
condition files/Stage1_1.xlsx,,B1,T2,c,"['c', 'm']","['Clue', 'Monopoly']","[-0.15, 0.5]","[0.15, 0.5]",1,1,,,,,,,,,0,0,0,0,0,5,5,1,,,,,,,,,,,,,,,,,,,,,,,,,,,,,,,,,,,,,,,,,,,,,,,,,,,,,,,742.859359344,None,742.859359344,None,742.859359344,None,m,0,2.5315549570000258,744.4096187939999,None,744.4096187939999,None,744.4096187939999,None,746.993239826,None,746.993239826,None,746.993239826,None,746.993239826,None,,,,,,,,,,,,,,,,,,,,,,,,,,,,,,,,,,,,,,,,,,,,001,128,2020_Feb_18_0902,spring_faces,3.1.5,60.07096952541834,
condition files/Stage1_1.xlsx,,T3,B4,c,"['c', 'm']","['Clue', 'Monopoly']","[-0.15, 0.5]","[0.15, 0.5]",1,1,,,,,,,,,0,0,0,0,0,6,6,5,,,,,,,,,,,,,,,,,,,,,,,,,,,,,,,,,,,,,,,,,,,,,,,,,,,,,,,748.9591947020001,None,748.9591947020001,None,748.9591947020001,None,c,1,2.751569328999949,750.50955714,None,750.50955714,None,750.50955714,None,753.3266229640001,None,753.3266229640001,None,753.3266229640001,None,753.3266229640001,None,,,,,,,,,,,,,,,,,,,,,,,,,,,,,,,,,,,,,,,,,,,,001,128,2020_Feb_18_0902,spring_faces,3.1.5,60.07096952541834,
condition files/Stage1_1.xlsx,,T1,B1,c,"['c', 'm']","['Clue', 'Monopoly']","[-0.15, 0.5]","[0.15, 0.5]",1,1,,,,,,,,,0,0,0,0,0,7,7,0,,,,,,,,,,,,,,,,,,,,,,,,,,,,,,,,,,,,,,,,,,,,,,,,,,,,,,,755.292319619,None,755.292319619,None,755.292319619,None,m,0,1.6646619279999868,756.8284702210001,None,756.8284702210001,None,756.8284702210001,None,758.5592426989999,None,758.5592426989999,None,758.5592426989999,None,758.5592426989999,None,,,,,,,,,,,,,,,,,,,,,,,,,,,,,,,,,,,,,,,,,,,,001,128,2020_Feb_18_0902,spring_faces,3.1.5,60.07096952541834,
condition files/Stage1_2.xlsx,,T1,B2,m,"['c', 'm']","['Clue', 'Monopoly']","[-0.15, 0.5]","[0.15, 0.5]",1,1,,,,,,,,,0,1,1,1,0,0,0,2,,,,,,,,,,,,,,,,,,,,,,,,,,,,,,,,,,,,,,,,,,,,,,,,,,,,,,,760.5595641719999,None,760.5595641719999,None,760.5595641719999,None,c,0,1.569419623000158,762.075774638,None,762.075774638,None,762.075774638,None,763.7098096940001,None,763.7098096940001,None,763.7098096940001,None,763.7098096940001,None,,,,,,,,,,,,,,,,,,,,,,,,,,,,,,,,,,,,,,,,,,,,001,128,2020_Feb_18_0902,spring_faces,3.1.5,60.07096952541834,
condition files/Stage1_2.xlsx,,B3,T4,m,"['c', 'm']","['Clue', 'Monopoly']","[-0.15, 0.5]","[0.15, 0.5]",1,1,,,,,,,,,0,1,1,1,0,1,1,6,,,,,,,,,,,,,,,,,,,,,,,,,,,,,,,,,,,,,,,,,,,,,,,,,,,,,,,765.6759578210001,None,765.6759578210001,None,765.6759578210001,None,m,1,1.3938705090001804,767.2112654780001,None,767.2112654780001,None,767.2112654780001,None,768.65940058,None,768.65940058,None,768.65940058,None,768.65940058,None,,,,,,,,,,,,,,,,,,,,,,,,,,,,,,,,,,,,,,,,,,,,001,128,2020_Feb_18_0902,spring_faces,3.1.5,60.07096952541834,
condition files/Stage1_2.xlsx,,T4,B4,m,"['c', 'm']","['Clue', 'Monopoly']","[-0.15, 0.5]","[0.15, 0.5]",1,1,,,,,,,,,0,1,1,1,0,2,2,7,,,,,,,,,,,,,,,,,,,,,,,,,,,,,,,,,,,,,,,,,,,,,,,,,,,,,,,770.6260440870001,None,770.6260440870001,None,770.6260440870001,None,c,0,0.8750779649999458,772.162101288,None,772.162101288,None,772.162101288,None,773.092727186,None,773.092727186,None,773.092727186,None,773.092727186,None,,,,,,,,,,,,,,,,,,,,,,,,,,,,,,,,,,,,,,,,,,,,001,128,2020_Feb_18_0902,spring_faces,3.1.5,60.07096952541834,
condition files/Stage1_2.xlsx,,B2,T2,m,"['c', 'm']","['Clue', 'Monopoly']","[-0.15, 0.5]","[0.15, 0.5]",1,1,,,,,,,,,0,1,1,1,0,3,3,3,,,,,,,,,,,,,,,,,,,,,,,,,,,,,,,,,,,,,,,,,,,,,,,,,,,,,,,775.059553503,None,775.059553503,None,775.059553503,None,m,1,1.292759283000123,776.592476215,None,776.592476215,None,776.592476215,None,777.9424682199999,None,777.9424682199999,None,777.9424682199999,None,777.9424682199999,None,,,,,,,,,,,,,,,,,,,,,,,,,,,,,,,,,,,,,,,,,,,,001,128,2020_Feb_18_0902,spring_faces,3.1.5,60.07096952541834,
condition files/Stage1_2.xlsx,,B4,T3,c,"['c', 'm']","['Clue', 'Monopoly']","[-0.15, 0.5]","[0.15, 0.5]",1,1,,,,,,,,,0,1,1,1,0,4,4,5,,,,,,,,,,,,,,,,,,,,,,,,,,,,,,,,,,,,,,,,,,,,,,,,,,,,,,,779.9093883400001,None,779.9093883400001,None,779.9093883400001,None,c,1,1.3536730650000663,781.4435205249999,None,781.4435205249999,None,781.4435205249999,None,782.8758637000001,None,782.8758637000001,None,782.8758637000001,None,782.8758637000001,None,,,,,,,,,,,,,,,,,,,,,,,,,,,,,,,,,,,,,,,,,,,,001,128,2020_Feb_18_0902,spring_faces,3.1.5,60.07096952541834,
condition files/Stage1_2.xlsx,,T3,B3,c,"['c', 'm']","['Clue', 'Monopoly']","[-0.15, 0.5]","[0.15, 0.5]",1,1,,,,,,,,,0,1,1,1,0,5,5,4,,,,,,,,,,,,,,,,,,,,,,,,,,,,,,,,,,,,,,,,,,,,,,,,,,,,,,,784.826127266,None,784.826127266,None,784.826127266,None,c,1,0.9014321909999126,786.3597282809999,None,786.3597282809999,None,786.3597282809999,None,787.325927805,None,787.325927805,None,787.325927805,None,787.325927805,None,,,,,,,,,,,,,,,,,,,,,,,,,,,,,,,,,,,,,,,,,,,,001,128,2020_Feb_18_0902,spring_faces,3.1.5,60.07096952541834,
condition files/Stage1_2.xlsx,,T2,B1,c,"['c', 'm']","['Clue', 'Monopoly']","[-0.15, 0.5]","[0.15, 0.5]",1,1,,,,,,,,,0,1,1,1,0,6,6,1,,,,,,,,,,,,,,,,,,,,,,,,,,,,,,,,,,,,,,,,,,,,,,,,,,,,,,,789.292818999,None,789.292818999,None,789.292818999,None,m,0,1.1383525249998456,790.842824219,None,790.842824219,None,790.842824219,None,792.042448206,None,792.042448206,None,792.042448206,None,792.042448206,None,,,,,,,,,,,,,,,,,,,,,,,,,,,,,,,,,,,,,,,,,,,,001,128,2020_Feb_18_0902,spring_faces,3.1.5,60.07096952541834,
condition files/Stage1_2.xlsx,,B1,T1,c,"['c', 'm']","['Clue', 'Monopoly']","[-0.15, 0.5]","[0.15, 0.5]",1,1,,,,,,,,,0,1,1,1,0,7,7,0,,,,,,,,,,,,,,,,,,,,,,,,,,,,,,,,,,,,,,,,,,,,,,,,,,,,,,,794.0094602040001,None,794.0094602040001,None,794.0094602040001,None,c,1,1.5107512650001809,795.5424879679999,None,795.5424879679999,None,795.5424879679999,None,797.109784561,None,797.109784561,None,797.109784561,None,797.109784561,None,,,,,,,,,,,,,,,,,,,,,,,,,,,,,,,,,,,,,,,,,,,,001,128,2020_Feb_18_0902,spring_faces,3.1.5,60.07096952541834,
condition files/Stage1_1.xlsx,,T1,B1,c,"['c', 'm']","['Clue', 'Monopoly']","[-0.15, 0.5]","[0.15, 0.5]",1,1,,,,,,,,,0,2,2,2,0,0,0,0,,,,,,,,,,,,,,,,,,,,,,,,,,,,,,,,,,,,,,,,,,,,,,,,,,,,,,,799.092714012,None,799.092714012,None,799.092714012,None,c,1,2.394153490000008,800.627010527,None,800.627010527,None,800.627010527,None,803.076594484,None,803.076594484,None,803.076594484,None,803.076594484,None,,,,,,,,,,,,,,,,,,,,,,,,,,,,,,,,,,,,,,,,,,,,001,128,2020_Feb_18_0902,spring_faces,3.1.5,60.07096952541834,
condition files/Stage1_1.xlsx,,B3,T3,c,"['c', 'm']","['Clue', 'Monopoly']","[-0.15, 0.5]","[0.15, 0.5]",1,1,,,,,,,,,0,2,2,2,0,1,1,4,,,,,,,,,,,,,,,,,,,,,,,,,,,,,,,,,,,,,,,,,,,,,,,,,,,,,,,805.0420502060001,None,805.0420502060001,None,805.0420502060001,None,m,0,1.7412649819998478,806.575972178,None,806.575972178,None,806.575972178,None,808.3765886260001,None,808.3765886260001,None,808.3765886260001,None,808.3765886260001,None,,,,,,,,,,,,,,,,,,,,,,,,,,,,,,,,,,,,,,,,,,,,001,128,2020_Feb_18_0902,spring_faces,3.1.5,60.07096952541834,
condition files/Stage1_1.xlsx,,T2,B2,m,"['c', 'm']","['Clue', 'Monopoly']","[-0.15, 0.5]","[0.15, 0.5]",1,1,,,,,,,,,0,2,2,2,0,2,2,3,,,,,,,,,,,,,,,,,,,,,,,,,,,,,,,,,,,,,,,,,,,,,,,,,,,,,,,810.342736669,None,810.342736669,None,810.342736669,None,c,0,2.7610673589999806,811.8761021150001,None,811.8761021150001,None,811.8761021150001,None,814.6946973449999,None,814.6946973449999,None,814.6946973449999,None,814.6946973449999,None,,,,,,,,,,,,,,,,,,,,,,,,,,,,,,,,,,,,,,,,,,,,001,128,2020_Feb_18_0902,spring_faces,3.1.5,60.07096952541834,
condition files/Stage1_1.xlsx,,B2,T1,m,"['c', 'm']","['Clue', 'Monopoly']","[-0.15, 0.5]","[0.15, 0.5]",1,1,,,,,,,,,0,2,2,2,0,3,3,2,,,,,,,,,,,,,,,,,,,,,,,,,,,,,,,,,,,,,,,,,,,,,,,,,,,,,,,816.659211162,None,816.659211162,None,816.659211162,None,m,1,1.659378758999992,818.1938644219999,None,818.1938644219999,None,818.1938644219999,None,819.9094081759999,None,819.9094081759999,None,819.9094081759999,None,819.9094081759999,None,,,,,,,,,,,,,,,,,,,,,,,,,,,,,,,,,,,,,,,,,,,,001,128,2020_Feb_18_0902,spring_faces,3.1.5,60.07096952541834,
condition files/Stage1_1.xlsx,,T4,B3,m,"['c', 'm']","['Clue', 'Monopoly']","[-0.15, 0.5]","[0.15, 0.5]",1,1,,,,,,,,,0,2,2,2,0,4,4,6,,,,,,,,,,,,,,,,,,,,,,,,,,,,,,,,,,,,,,,,,,,,,,,,,,,,,,,821.8757811549999,None,821.8757811549999,None,821.8757811549999,None,c,0,1.1621026220000203,823.41100631,None,823.41100631,None,823.41100631,None,824.6263002799999,None,824.6263002799999,None,824.6263002799999,None,824.6263002799999,None,,,,,,,,,,,,,,,,,,,,,,,,,,,,,,,,,,,,,,,,,,,,001,128,2020_Feb_18_0902,spring_faces,3.1.5,60.07096952541834,
condition files/Stage1_1.xlsx,,T3,B4,c,"['c', 'm']","['Clue', 'Monopoly']","[-0.15, 0.5]","[0.15, 0.5]",1,1,,,,,,,,,0,2,2,2,0,5,5,5,,,,,,,,,,,,,,,,,,,,,,,,,,,,,,,,,,,,,,,,,,,,,,,,,,,,,,,826.5926875959999,None,826.5926875959999,None,826.5926875959999,None,m,0,0.8947568309999951,828.1264036319999,None,828.1264036319999,None,828.1264036319999,None,829.0767883640001,None,829.0767883640001,None,829.0767883640001,None,829.0767883640001,None,,,,,,,,,,,,,,,,,,,,,,,,,,,,,,,,,,,,,,,,,,,,001,128,2020_Feb_18_0902,spring_faces,3.1.5,60.07096952541834,
condition files/Stage1_1.xlsx,,B1,T2,c,"['c', 'm']","['Clue', 'Monopoly']","[-0.15, 0.5]","[0.15, 0.5]",1,1,,,,,,,,,0,2,2,2,0,6,6,1,,,,,,,,,,,,,,,,,,,,,,,,,,,,,,,,,,,,,,,,,,,,,,,,,,,,,,,831.042942904,None,831.042942904,None,831.042942904,None,m,0,1.4847253349998937,832.592388858,None,832.592388858,None,832.592388858,None,834.143217559,None,834.143217559,None,834.143217559,None,834.143217559,None,,,,,,,,,,,,,,,,,,,,,,,,,,,,,,,,,,,,,,,,,,,,001,128,2020_Feb_18_0902,spring_faces,3.1.5,60.07096952541834,
condition files/Stage1_1.xlsx,,B4,T4,m,"['c', 'm']","['Clue', 'Monopoly']","[-0.15, 0.5]","[0.15, 0.5]",1,1,,,,,,,,,0,2,2,2,0,7,7,7,,,,,,,,,,,,,,,,,,,,,,,,,,,,,,,,,,,,,,,,,,,,,,,,,,,,,,,836.1091381880001,None,836.1091381880001,None,836.1091381880001,None,c,0,0.8012284519998047,837.6599077599999,None,837.6599077599999,None,837.6599077599999,None,838.5429726269999,None,838.5429726269999,None,838.5429726269999,None,838.5429726269999,None,,,,,,,,,,,,,,,,,,,,,,,,,,,,,,,,,,,,,,,,,,,,001,128,2020_Feb_18_0902,spring_faces,3.1.5,60.07096952541834,
condition files/Stage1_2.xlsx,,B2,T2,m,"['c', 'm']","['Clue', 'Monopoly']","[-0.15, 0.5]","[0.15, 0.5]",1,1,,,,,,,,,0,3,3,3,0,0,0,3,,,,,,,,,,,,,,,,,,,,,,,,,,,,,,,,,,,,,,,,,,,,,,,,,,,,,,,840.509702715,None,840.509702715,None,840.509702715,None,c,0,1.0890617590000602,842.0441856929999,None,842.0441856929999,None,842.0441856929999,None,843.1933526509999,None,843.1933526509999,None,843.1933526509999,None,843.1933526509999,None,,,,,,,,,,,,,,,,,,,,,,,,,,,,,,,,,,,,,,,,,,,,001,128,2020_Feb_18_0902,spring_faces,3.1.5,60.07096952541834,
condition files/Stage1_2.xlsx,,T2,B1,c,"['c', 'm']","['Clue', 'Monopoly']","[-0.15, 0.5]","[0.15, 0.5]",1,1,,,,,,,,,0,3,3,3,0,1,1,1,,,,,,,,,,,,,,,,,,,,,,,,,,,,,,,,,,,,,,,,,,,,,,,,,,,,,,,845.159331217,None,845.159331217,None,845.159331217,None,m,0,2.855637819999856,846.693604779,None,846.693604779,None,846.693604779,None,849.609315146,None,849.609315146,None,849.609315146,None,849.609315146,None,,,,,,,,,,,,,,,,,,,,,,,,,,,,,,,,,,,,,,,,,,,,001,128,2020_Feb_18_0902,spring_faces,3.1.5,60.07096952541834,
condition files/Stage1_2.xlsx,,B4,T3,c,"['c', 'm']","['Clue', 'Monopoly']","[-0.15, 0.5]","[0.15, 0.5]",1,1,,,,,,,,,0,3,3,3,0,2,2,5,,,,,,,,,,,,,,,,,,,,,,,,,,,,,,,,,,,,,,,,,,,,,,,,,,,,,,,851.575459847,None,851.575459847,None,851.575459847,None,c,1,0.32608655499984707,853.1110917819999,None,853.1110917819999,None,853.1110917819999,None,853.492656116,None,853.492656116,None,853.492656116,None,853.492656116,None,,,,,,,,,,,,,,,,,,,,,,,,,,,,,,,,,,,,,,,,,,,,001,128,2020_Feb_18_0902,spring_faces,3.1.5,60.07096952541834,
condition files/Stage1_2.xlsx,,T3,B3,c,"['c', 'm']","['Clue', 'Monopoly']","[-0.15, 0.5]","[0.15, 0.5]",1,1,,,,,,,,,0,3,3,3,0,3,3,4,,,,,,,,,,,,,,,,,,,,,,,,,,,,,,,,,,,,,,,,,,,,,,,,,,,,,,,855.4592579519999,None,855.4592579519999,None,855.4592579519999,None,c,1,0.33065545799991014,856.9945466270001,None,856.9945466270001,None,856.9945466270001,None,857.3768133369999,None,857.3768133369999,None,857.3768133369999,None,857.3768133369999,None,,,,,,,,,,,,,,,,,,,,,,,,,,,,,,,,,,,,,,,,,,,,001,128,2020_Feb_18_0902,spring_faces,3.1.5,60.07096952541834,
condition files/Stage1_2.xlsx,,B3,T4,m,"['c', 'm']","['Clue', 'Monopoly']","[-0.15, 0.5]","[0.15, 0.5]",1,1,,,,,,,,,0,3,3,3,0,4,4,6,,,,,,,,,,,,,,,,,,,,,,,,,,,,,,,,,,,,,,,,,,,,,,,,,,,,,,,859.34276335,None,859.34276335,None,859.34276335,None,c,0,0.49776633800001946,860.875387755,None,860.875387755,None,860.875387755,None,861.4290134580001,None,861.4290134580001,None,861.4290134580001,None,861.4290134580001,None,,,,,,,,,,,,,,,,,,,,,,,,,,,,,,,,,,,,,,,,,,,,001,128,2020_Feb_18_0902,spring_faces,3.1.5,60.07096952541834,
condition files/Stage1_2.xlsx,,T4,B4,m,"['c', 'm']","['Clue', 'Monopoly']","[-0.15, 0.5]","[0.15, 0.5]",1,1,,,,,,,,,0,3,3,3,0,5,5,7,,,,,,,,,,,,,,,,,,,,,,,,,,,,,,,,,,,,,,,,,,,,,,,,,,,,,,,863.392811918,None,863.392811918,None,863.392811918,None,c,0,0.303049781000027,864.926158605,None,864.926158605,None,864.926158605,None,865.292942566,None,865.292942566,None,865.292942566,None,865.292942566,None,,,,,,,,,,,,,,,,,,,,,,,,,,,,,,,,,,,,,,,,,,,,001,128,2020_Feb_18_0902,spring_faces,3.1.5,60.07096952541834,
condition files/Stage1_2.xlsx,,T1,B2,m,"['c', 'm']","['Clue', 'Monopoly']","[-0.15, 0.5]","[0.15, 0.5]",1,1,,,,,,,,,0,3,3,3,0,6,6,2,,,,,,,,,,,,,,,,,,,,,,,,,,,,,,,,,,,,,,,,,,,,,,,,,,,,,,,867.26005429,None,867.26005429,None,867.26005429,None,m,1,1.2345993720000479,868.794600596,None,868.794600596,None,868.794600596,None,870.0924269520001,None,870.0924269520001,None,870.0924269520001,None,870.0924269520001,None,,,,,,,,,,,,,,,,,,,,,,,,,,,,,,,,,,,,,,,,,,,,001,128,2020_Feb_18_0902,spring_faces,3.1.5,60.07096952541834,
condition files/Stage1_2.xlsx,,B1,T1,c,"['c', 'm']","['Clue', 'Monopoly']","[-0.15, 0.5]","[0.15, 0.5]",1,1,,,,,,,,,0,3,3,3,0,7,7,0,,,,,,,,,,,,,,,,,,,,,,,,,,,,,,,,,,,,,,,,,,,,,,,,,,,,,,,872.0588051909999,None,872.0588051909999,None,872.0588051909999,None,m,0,0.8364442270001291,873.5927382120001,None,873.5927382120001,None,873.5927382120001,None,874.4925045059999,None,874.4925045059999,None,874.4925045059999,None,874.4925045059999,None,,,,,,,,,,,,,,,,,,,,,,,,,,,,,,,,,,,,,,,,,,,,001,128,2020_Feb_18_0902,spring_faces,3.1.5,60.07096952541834,
condition files/Stage1_1.xlsx,,T4,B3,m,"['c', 'm']","['Clue', 'Monopoly']","[-0.15, 0.5]","[0.15, 0.5]",1,1,,,,,,,,,0,4,4,4,0,0,0,6,,,,,,,,,,,,,,,,,,,,,,,,,,,,,,,,,,,,,,,,,,,,,,,,,,,,,,,876.476310111,None,876.476310111,None,876.476310111,None,c,0,1.651828531999854,878.0093035509999,None,878.0093035509999,None,878.0093035509999,None,879.7287106230001,None,879.7287106230001,None,879.7287106230001,None,879.7287106230001,None,,,,,,,,,,,,,,,,,,,,,,,,,,,,,,,,,,,,,,,,,,,,001,128,2020_Feb_18_0902,spring_faces,3.1.5,60.07096952541834,
condition files/Stage1_1.xlsx,,B4,T4,m,"['c', 'm']","['Clue', 'Monopoly']","[-0.15, 0.5]","[0.15, 0.5]",1,1,,,,,,,,,0,4,4,4,0,1,1,7,,,,,,,,,,,,,,,,,,,,,,,,,,,,,,,,,,,,,,,,,,,,,,,,,,,,,,,881.6931617140001,None,881.6931617140001,None,881.6931617140001,None,c,0,1.4100069300000087,883.2432131109999,None,883.2432131109999,None,883.2432131109999,None,884.709751586,None,884.709751586,None,884.709751586,None,884.709751586,None,,,,,,,,,,,,,,,,,,,,,,,,,,,,,,,,,,,,,,,,,,,,001,128,2020_Feb_18_0902,spring_faces,3.1.5,60.07096952541834,
condition files/Stage1_1.xlsx,,T2,B2,m,"['c', 'm']","['Clue', 'Monopoly']","[-0.15, 0.5]","[0.15, 0.5]",1,1,,,,,,,,,0,4,4,4,0,2,2,3,,,,,,,,,,,,,,,,,,,,,,,,,,,,,,,,,,,,,,,,,,,,,,,,,,,,,,,886.6756722120001,None,886.6756722120001,None,886.6756722120001,None,c,0,1.49949674100003,888.2096907729999,None,888.2096907729999,None,888.2096907729999,None,889.7589718239999,None,889.7589718239999,None,889.7589718239999,None,889.7589718239999,None,,,,,,,,,,,,,,,,,,,,,,,,,,,,,,,,,,,,,,,,,,,,001,128,2020_Feb_18_0902,spring_faces,3.1.5,60.07096952541834,
condition files/Stage1_1.xlsx,,B2,T1,m,"['c', 'm']","['Clue', 'Monopoly']","[-0.15, 0.5]","[0.15, 0.5]",1,1,,,,,,,,,0,4,4,4,0,3,3,2,,,,,,,,,,,,,,,,,,,,,,,,,,,,,,,,,,,,,,,,,,,,,,,,,,,,,,,891.725547603,None,891.725547603,None,891.725547603,None,m,1,0.657022599000129,893.260214166,None,893.260214166,None,893.260214166,None,893.9763314229999,None,893.9763314229999,None,893.9763314229999,None,893.9763314229999,None,,,,,,,,,,,,,,,,,,,,,,,,,,,,,,,,,,,,,,,,,,,,001,128,2020_Feb_18_0902,spring_faces,3.1.5,60.07096952541834,
condition files/Stage1_1.xlsx,,B1,T2,c,"['c', 'm']","['Clue', 'Monopoly']","[-0.15, 0.5]","[0.15, 0.5]",1,1,,,,,,,,,0,4,4,4,0,4,4,1,,,,,,,,,,,,,,,,,,,,,,,,,,,,,,,,,,,,,,,,,,,,,,,,,,,,,,,895.9427796939999,None,895.9427796939999,None,895.9427796939999,None,c,1,1.1287120110000615,897.4924046619999,None,897.4924046619999,None,897.4924046619999,None,898.67859795,None,898.67859795,None,898.67859795,None,898.67859795,None,,,,,,,,,,,,,,,,,,,,,,,,,,,,,,,,,,,,,,,,,,,,001,128,2020_Feb_18_0902,spring_faces,3.1.5,60.07096952541834,
condition files/Stage1_1.xlsx,,T3,B4,c,"['c', 'm']","['Clue', 'Monopoly']","[-0.15, 0.5]","[0.15, 0.5]",1,1,,,,,,,,,0,4,4,4,0,5,5,5,,,,,,,,,,,,,,,,,,,,,,,,,,,,,,,,,,,,,,,,,,,,,,,,,,,,,,,900.6429426120001,None,900.6429426120001,None,900.6429426120001,None,c,1,1.0670608489999722,902.1781204629999,None,902.1781204629999,None,902.1781204629999,None,903.309451735,None,903.309451735,None,903.309451735,None,903.309451735,None,,,,,,,,,,,,,,,,,,,,,,,,,,,,,,,,,,,,,,,,,,,,001,128,2020_Feb_18_0902,spring_faces,3.1.5,60.07096952541834,
condition files/Stage1_1.xlsx,,T1,B1,c,"['c', 'm']","['Clue', 'Monopoly']","[-0.15, 0.5]","[0.15, 0.5]",1,1,,,,,,,,,0,4,4,4,0,6,6,0,,,,,,,,,,,,,,,,,,,,,,,,,,,,,,,,,,,,,,,,,,,,,,,,,,,,,,,905.275415075,None,905.275415075,None,905.275415075,None,m,0,0.7717058400000951,906.809500397,None,906.809500397,None,906.809500397,None,907.643026558,None,907.643026558,None,907.643026558,None,907.643026558,None,,,,,,,,,,,,,,,,,,,,,,,,,,,,,,,,,,,,,,,,,,,,001,128,2020_Feb_18_0902,spring_faces,3.1.5,60.07096952541834,
condition files/Stage1_1.xlsx,,B3,T3,c,"['c', 'm']","['Clue', 'Monopoly']","[-0.15, 0.5]","[0.15, 0.5]",1,1,,,,,,,,,0,4,4,4,0,7,7,4,,,,,,,,,,,,,,,,,,,,,,,,,,,,,,,,,,,,,,,,,,,,,,,,,,,,,,,909.609413379,None,909.609413379,None,909.609413379,None,m,0,1.5890402210000047,911.1441912790001,None,911.1441912790001,None,911.1441912790001,None,912.7930554229999,None,912.7930554229999,None,912.7930554229999,None,912.7930554229999,None,,,,,,,,,,,,,,,,,,,,,,,,,,,,,,,,,,,,,,,,,,,,001,128,2020_Feb_18_0902,spring_faces,3.1.5,60.07096952541834,
condition files/Stage1_2.xlsx,,T1,B2,m,"['c', 'm']","['Clue', 'Monopoly']","[-0.15, 0.5]","[0.15, 0.5]",1,1,,,,,,,,,0,5,5,5,0,0,0,2,,,,,,,,,,,,,,,,,,,,,,,,,,,,,,,,,,,,,,,,,,,,,,,,,,,,,,,914.7763774709999,None,914.7763774709999,None,914.7763774709999,None,m,1,0.630538161000004,916.310654679,None,916.310654679,None,916.310654679,None,916.9938284089999,None,916.9938284089999,None,916.9938284089999,None,916.9938284089999,None,,,,,,,,,,,,,,,,,,,,,,,,,,,,,,,,,,,,,,,,,,,,001,128,2020_Feb_18_0902,spring_faces,3.1.5,60.07096952541834,
condition files/Stage1_2.xlsx,,T4,B4,m,"['c', 'm']","['Clue', 'Monopoly']","[-0.15, 0.5]","[0.15, 0.5]",1,1,,,,,,,,,0,5,5,5,0,1,1,7,,,,,,,,,,,,,,,,,,,,,,,,,,,,,,,,,,,,,,,,,,,,,,,,,,,,,,,918.9595499940001,None,918.9595499940001,None,918.9595499940001,None,c,0,1.1843016220000209,920.4928253349999,None,920.4928253349999,None,920.4928253349999,None,921.742507407,None,921.742507407,None,921.742507407,None,921.742507407,None,,,,,,,,,,,,,,,,,,,,,,,,,,,,,,,,,,,,,,,,,,,,001,128,2020_Feb_18_0902,spring_faces,3.1.5,60.07096952541834,
condition files/Stage1_2.xlsx,,B4,T3,c,"['c', 'm']","['Clue', 'Monopoly']","[-0.15, 0.5]","[0.15, 0.5]",1,1,,,,,,,,,0,5,5,5,0,2,2,5,,,,,,,,,,,,,,,,,,,,,,,,,,,,,,,,,,,,,,,,,,,,,,,,,,,,,,,923.709302404,None,923.709302404,None,923.709302404,None,c,1,1.5701241159999881,925.2430783310001,None,925.2430783310001,None,925.2430783310001,None,926.877851336,None,926.877851336,None,926.877851336,None,926.877851336,None,,,,,,,,,,,,,,,,,,,,,,,,,,,,,,,,,,,,,,,,,,,,001,128,2020_Feb_18_0902,spring_faces,3.1.5,60.07096952541834,
condition files/Stage1_2.xlsx,,T3,B3,c,"['c', 'm']","['Clue', 'Monopoly']","[-0.15, 0.5]","[0.15, 0.5]",1,1,,,,,,,,,0,5,5,5,0,3,3,4,,,,,,,,,,,,,,,,,,,,,,,,,,,,,,,,,,,,,,,,,,,,,,,,,,,,,,,928.842785735,None,928.842785735,None,928.842785735,None,m,0,0.7401918709999791,930.3770432240001,None,930.3770432240001,None,930.3770432240001,None,931.1753898239999,None,931.1753898239999,None,931.1753898239999,None,931.1753898239999,None,,,,,,,,,,,,,,,,,,,,,,,,,,,,,,,,,,,,,,,,,,,,001,128,2020_Feb_18_0902,spring_faces,3.1.5,60.07096952541834,
condition files/Stage1_2.xlsx,,B2,T2,m,"['c', 'm']","['Clue', 'Monopoly']","[-0.15, 0.5]","[0.15, 0.5]",1,1,,,,,,,,,0,5,5,5,0,4,4,3,,,,,,,,,,,,,,,,,,,,,,,,,,,,,,,,,,,,,,,,,,,,,,,,,,,,,,,933.1427938259999,None,933.1427938259999,None,933.1427938259999,None,c,0,1.287099309000041,934.678099922,None,934.678099922,None,934.678099922,None,936.027520889,None,936.027520889,None,936.027520889,None,936.027520889,None,,,,,,,,,,,,,,,,,,,,,,,,,,,,,,,,,,,,,,,,,,,,001,128,2020_Feb_18_0902,spring_faces,3.1.5,60.07096952541834,
condition files/Stage1_2.xlsx,,B3,T4,m,"['c', 'm']","['Clue', 'Monopoly']","[-0.15, 0.5]","[0.15, 0.5]",1,1,,,,,,,,,0,5,5,5,0,5,5,6,,,,,,,,,,,,,,,,,,,,,,,,,,,,,,,,,,,,,,,,,,,,,,,,,,,,,,,937.9927667720001,None,937.9927667720001,None,937.9927667720001,None,m,1,1.173258012000133,939.527968392,None,939.527968392,None,939.527968392,None,940.7594791690001,None,940.7594791690001,None,940.7594791690001,None,940.7594791690001,None,,,,,,,,,,,,,,,,,,,,,,,,,,,,,,,,,,,,,,,,,,,,001,128,2020_Feb_18_0902,spring_faces,3.1.5,60.07096952541834,
condition files/Stage1_2.xlsx,,B1,T1,c,"['c', 'm']","['Clue', 'Monopoly']","[-0.15, 0.5]","[0.15, 0.5]",1,1,,,,,,,,,0,5,5,5,0,6,6,0,,,,,,,,,,,,,,,,,,,,,,,,,,,,,,,,,,,,,,,,,,,,,,,,,,,,,,,942.726079372,None,942.726079372,None,942.726079372,None,c,1,1.4020257060001313,944.25915491,None,944.25915491,None,944.25915491,None,945.74304863,None,945.74304863,None,945.74304863,None,945.74304863,None,,,,,,,,,,,,,,,,,,,,,,,,,,,,,,,,,,,,,,,,,,,,001,128,2020_Feb_18_0902,spring_faces,3.1.5,60.07096952541834,
condition files/Stage1_2.xlsx,,T2,B1,c,"['c', 'm']","['Clue', 'Monopoly']","[-0.15, 0.5]","[0.15, 0.5]",1,1,,,,,,,,,0,5,5,5,0,7,7,1,,,,,,,,,,,,,,,,,,,,,,,,,,,,,,,,,,,,,,,,,,,,,,,,,,,,,,,947.692496871,None,947.692496871,None,947.692496871,None,m,0,1.3311707379998552,949.226000465,None,949.226000465,None,949.226000465,None,950.609636505,None,950.609636505,None,950.609636505,None,950.609636505,None,,,,,,,,,,,,,,,,,,,,,,,,,,,,,,,,,,,,,,,,,,,,001,128,2020_Feb_18_0902,spring_faces,3.1.5,60.07096952541834,
condition files/Stage1_1.xlsx,,T3,B4,c,"['c', 'm']","['Clue', 'Monopoly']","[-0.15, 0.5]","[0.15, 0.5]",1,1,,,,,,,,,0,6,6,6,0,0,0,5,,,,,,,,,,,,,,,,,,,,,,,,,,,,,,,,,,,,,,,,,,,,,,,,,,,,,,,952.592977093,None,952.592977093,None,952.592977093,None,c,1,1.5337170950001564,954.127420824,None,954.127420824,None,954.127420824,None,955.726500583,None,955.726500583,None,955.726500583,None,955.726500583,None,,,,,,,,,,,,,,,,,,,,,,,,,,,,,,,,,,,,,,,,,,,,001,128,2020_Feb_18_0902,spring_faces,3.1.5,60.07096952541834,
condition files/Stage1_1.xlsx,,B4,T4,m,"['c', 'm']","['Clue', 'Monopoly']","[-0.15, 0.5]","[0.15, 0.5]",1,1,,,,,,,,,0,6,6,6,0,1,1,7,,,,,,,,,,,,,,,,,,,,,,,,,,,,,,,,,,,,,,,,,,,,,,,,,,,,,,,957.692485159,None,957.692485159,None,957.692485159,None,m,1,1.7301978809998673,959.242947683,None,959.242947683,None,959.242947683,None,961.0270443889999,None,961.0270443889999,None,961.0270443889999,None,961.0270443889999,None,,,,,,,,,,,,,,,,,,,,,,,,,,,,,,,,,,,,,,,,,,,,001,128,2020_Feb_18_0902,spring_faces,3.1.5,60.07096952541834,
condition files/Stage1_1.xlsx,,B1,T2,c,"['c', 'm']","['Clue', 'Monopoly']","[-0.15, 0.5]","[0.15, 0.5]",1,1,,,,,,,,,0,6,6,6,0,2,2,1,,,,,,,,,,,,,,,,,,,,,,,,,,,,,,,,,,,,,,,,,,,,,,,,,,,,,,,962.992790969,None,962.992790969,None,962.992790969,None,m,0,1.7574689959999432,964.527778533,None,964.527778533,None,964.527778533,None,966.3437731859999,None,966.3437731859999,None,966.3437731859999,None,966.3437731859999,None,,,,,,,,,,,,,,,,,,,,,,,,,,,,,,,,,,,,,,,,,,,,001,128,2020_Feb_18_0902,spring_faces,3.1.5,60.07096952541834,
condition files/Stage1_1.xlsx,,B3,T3,c,"['c', 'm']","['Clue', 'Monopoly']","[-0.15, 0.5]","[0.15, 0.5]",1,1,,,,,,,,,0,6,6,6,0,3,3,4,,,,,,,,,,,,,,,,,,,,,,,,,,,,,,,,,,,,,,,,,,,,,,,,,,,,,,,968.3092391739999,None,968.3092391739999,None,968.3092391739999,None,m,0,1.6097440910000387,969.859352812,None,969.859352812,None,969.859352812,None,971.526337605,None,971.526337605,None,971.526337605,None,971.526337605,None,,,,,,,,,,,,,,,,,,,,,,,,,,,,,,,,,,,,,,,,,,,,001,128,2020_Feb_18_0902,spring_faces,3.1.5,60.07096952541834,
condition files/Stage1_1.xlsx,,T1,B1,c,"['c', 'm']","['Clue', 'Monopoly']","[-0.15, 0.5]","[0.15, 0.5]",1,1,,,,,,,,,0,6,6,6,0,4,4,0,,,,,,,,,,,,,,,,,,,,,,,,,,,,,,,,,,,,,,,,,,,,,,,,,,,,,,,973.4928521639999,None,973.4928521639999,None,973.4928521639999,None,m,0,1.2405411550000736,975.028573109,None,975.028573109,None,975.028573109,None,976.3259826660001,None,976.3259826660001,None,976.3259826660001,None,976.3259826660001,None,,,,,,,,,,,,,,,,,,,,,,,,,,,,,,,,,,,,,,,,,,,,001,128,2020_Feb_18_0902,spring_faces,3.1.5,60.07096952541834,
condition files/Stage1_1.xlsx,,T4,B3,m,"['c', 'm']","['Clue', 'Monopoly']","[-0.15, 0.5]","[0.15, 0.5]",1,1,,,,,,,,,0,6,6,6,0,5,5,6,,,,,,,,,,,,,,,,,,,,,,,,,,,,,,,,,,,,,,,,,,,,,,,,,,,,,,,978.2927076620001,None,978.2927076620001,None,978.2927076620001,None,c,0,0.7942485710000255,979.8428734199999,None,979.8428734199999,None,979.8428734199999,None,980.6937438540001,None,980.6937438540001,None,980.6937438540001,None,980.6937438540001,None,,,,,,,,,,,,,,,,,,,,,,,,,,,,,,,,,,,,,,,,,,,,001,128,2020_Feb_18_0902,spring_faces,3.1.5,60.07096952541834,
condition files/Stage1_1.xlsx,,T2,B2,m,"['c', 'm']","['Clue', 'Monopoly']","[-0.15, 0.5]","[0.15, 0.5]",1,1,,,,,,,,,0,6,6,6,0,6,6,3,,,,,,,,,,,,,,,,,,,,,,,,,,,,,,,,,,,,,,,,,,,,,,,,,,,,,,,982.65906593,None,982.65906593,None,982.65906593,None,m,1,0.5560833659999389,984.1931638860001,None,984.1931638860001,None,984.1931638860001,None,984.8092338869999,None,984.8092338869999,None,984.8092338869999,None,984.8092338869999,None,,,,,,,,,,,,,,,,,,,,,,,,,,,,,,,,,,,,,,,,,,,,001,128,2020_Feb_18_0902,spring_faces,3.1.5,60.07096952541834,
condition files/Stage1_1.xlsx,,B2,T1,m,"['c', 'm']","['Clue', 'Monopoly']","[-0.15, 0.5]","[0.15, 0.5]",1,1,,,,,,,,,0,6,6,6,0,7,7,2,,,,,,,,,,,,,,,,,,,,,,,,,,,,,,,,,,,,,,,,,,,,,,,,,,,,,,,986.775773067,None,986.775773067,None,986.775773067,None,c,0,1.6234491440000056,988.3097973890001,None,988.3097973890001,None,988.3097973890001,None,989.9931008650001,None,989.9931008650001,None,989.9931008650001,None,989.9931008650001,None,,,,,,,,,,,,,,,,,,,,,,,,,,,,,,,,,,,,,,,,,,,,001,128,2020_Feb_18_0902,spring_faces,3.1.5,60.07096952541834,
condition files/Stage1_2.xlsx,,T1,B2,m,"['c', 'm']","['Clue', 'Monopoly']","[-0.15, 0.5]","[0.15, 0.5]",1,1,,,,,,,,,0,7,7,7,0,0,0,2,,,,,,,,,,,,,,,,,,,,,,,,,,,,,,,,,,,,,,,,,,,,,,,,,,,,,,,991.9756788909999,None,991.9756788909999,None,991.9756788909999,None,m,1,0.5832935959999759,993.509853542,None,993.509853542,None,993.509853542,None,994.1596887549999,None,994.1596887549999,None,994.1596887549999,None,994.1596887549999,None,,,,,,,,,,,,,,,,,,,,,,,,,,,,,,,,,,,,,,,,,,,,001,128,2020_Feb_18_0902,spring_faces,3.1.5,60.07096952541834,
condition files/Stage1_2.xlsx,,B3,T4,m,"['c', 'm']","['Clue', 'Monopoly']","[-0.15, 0.5]","[0.15, 0.5]",1,1,,,,,,,,,0,7,7,7,0,1,1,6,,,,,,,,,,,,,,,,,,,,,,,,,,,,,,,,,,,,,,,,,,,,,,,,,,,,,,,996.126140435,None,996.126140435,None,996.126140435,None,c,0,0.9771500829999695,997.6760860239999,None,997.6760860239999,None,997.6760860239999,None,998.7096489359999,None,998.7096489359999,None,998.7096489359999,None,998.7096489359999,None,,,,,,,,,,,,,,,,,,,,,,,,,,,,,,,,,,,,,,,,,,,,001,128,2020_Feb_18_0902,spring_faces,3.1.5,60.07096952541834,
condition files/Stage1_2.xlsx,,B4,T3,c,"['c', 'm']","['Clue', 'Monopoly']","[-0.15, 0.5]","[0.15, 0.5]",1,1,,,,,,,,,0,7,7,7,0,2,2,5,,,,,,,,,,,,,,,,,,,,,,,,,,,,,,,,,,,,,,,,,,,,,,,,,,,,,,,1000.676113789,None,1000.676113789,None,1000.676113789,None,m,0,0.7631244180001886,1002.2260446539999,None,1002.2260446539999,None,1002.2260446539999,None,1003.043273214,None,1003.043273214,None,1003.043273214,None,1003.043273214,None,,,,,,,,,,,,,,,,,,,,,,,,,,,,,,,,,,,,,,,,,,,,001,128,2020_Feb_18_0902,spring_faces,3.1.5,60.07096952541834,
condition files/Stage1_2.xlsx,,T4,B4,m,"['c', 'm']","['Clue', 'Monopoly']","[-0.15, 0.5]","[0.15, 0.5]",1,1,,,,,,,,,0,7,7,7,0,3,3,7,,,,,,,,,,,,,,,,,,,,,,,,,,,,,,,,,,,,,,,,,,,,,,,,,,,,,,,1005.0093906669999,None,1005.0093906669999,None,1005.0093906669999,None,m,1,0.5582714570000462,1006.5589383199999,None,1006.5589383199999,None,1006.5589383199999,None,1007.1928919899999,None,1007.1928919899999,None,1007.1928919899999,None,1007.1928919899999,None,,,,,,,,,,,,,,,,,,,,,,,,,,,,,,,,,,,,,,,,,,,,001,128,2020_Feb_18_0902,spring_faces,3.1.5,60.07096952541834,
condition files/Stage1_2.xlsx,,T3,B3,c,"['c', 'm']","['Clue', 'Monopoly']","[-0.15, 0.5]","[0.15, 0.5]",1,1,,,,,,,,,0,7,7,7,0,4,4,4,,,,,,,,,,,,,,,,,,,,,,,,,,,,,,,,,,,,,,,,,,,,,,,,,,,,,,,1009.14276253,None,1009.14276253,None,1009.14276253,None,m,0,1.608779967999908,1010.6924299120001,None,1010.6924299120001,None,1010.6924299120001,None,1012.3622925679999,None,1012.3622925679999,None,1012.3622925679999,None,1012.3622925679999,None,,,,,,,,,,,,,,,,,,,,,,,,,,,,,,,,,,,,,,,,,,,,001,128,2020_Feb_18_0902,spring_faces,3.1.5,60.07096952541834,
condition files/Stage1_2.xlsx,,B1,T1,c,"['c', 'm']","['Clue', 'Monopoly']","[-0.15, 0.5]","[0.15, 0.5]",1,1,,,,,,,,,0,7,7,7,0,5,5,0,,,,,,,,,,,,,,,,,,,,,,,,,,,,,,,,,,,,,,,,,,,,,,,,,,,,,,,1014.326073447,None,1014.326073447,None,1014.326073447,None,m,0,1.0956856979998975,1015.861487639,None,1015.861487639,None,1015.861487639,None,1017.009986389,None,1017.009986389,None,1017.009986389,None,1017.009986389,None,,,,,,,,,,,,,,,,,,,,,,,,,,,,,,,,,,,,,,,,,,,,001,128,2020_Feb_18_0902,spring_faces,3.1.5,60.07096952541834,
condition files/Stage1_2.xlsx,,B2,T2,m,"['c', 'm']","['Clue', 'Monopoly']","[-0.15, 0.5]","[0.15, 0.5]",1,1,,,,,,,,,0,7,7,7,0,6,6,3,,,,,,,,,,,,,,,,,,,,,,,,,,,,,,,,,,,,,,,,,,,,,,,,,,,,,,,1018.9758823059999,None,1018.9758823059999,None,1018.9758823059999,None,m,1,0.8313379730000179,1020.50985309,None,1020.50985309,None,1020.50985309,None,1021.394745476,None,1021.394745476,None,1021.394745476,None,1021.394745476,None,,,,,,,,,,,,,,,,,,,,,,,,,,,,,,,,,,,,,,,,,,,,001,128,2020_Feb_18_0902,spring_faces,3.1.5,60.07096952541834,
condition files/Stage1_2.xlsx,,T2,B1,c,"['c', 'm']","['Clue', 'Monopoly']","[-0.15, 0.5]","[0.15, 0.5]",1,1,,,,,,,,,0,7,7,7,0,7,7,1,,,,,,,,,,,,,,,,,,,,,,,,,,,,,,,,,,,,,,,,,,,,,,,,,,,,,,,1023.3588183899999,None,1023.3588183899999,None,1023.3588183899999,None,m,0,0.5923316970001906,1024.908883173,None,1024.908883173,None,1024.908883173,None,1025.576428873,None,1025.576428873,None,1025.576428873,None,1025.576428873,None,,,,,,,,,,,,,,,,,,,,,,,,,,,,,,,,,,,,,,,,,,,,001,128,2020_Feb_18_0902,spring_faces,3.1.5,60.07096952541834,
condition files/Stage1_1.xlsx,,T3,B4,c,"['c', 'm']","['Clue', 'Monopoly']","[-0.15, 0.5]","[0.15, 0.5]",1,1,,,,,,,,,0,8,8,8,0,0,0,5,,,,,,,,,,,,,,,,,,,,,,,,,,,,,,,,,,,,,,,,,,,,,,,,,,,,,,,1027.542907958,None,1027.542907958,None,1027.542907958,None,c,1,1.0005638340001042,1029.092583217,None,1029.092583217,None,1029.092583217,None,1030.1429580020001,None,1030.1429580020001,None,1030.1429580020001,None,1030.1429580020001,None,,,,,,,,,,,,,,,,,,,,,,,,,,,,,,,,,,,,,,,,,,,,001,128,2020_Feb_18_0902,spring_faces,3.1.5,60.07096952541834,
condition files/Stage1_1.xlsx,,B2,T1,m,"['c', 'm']","['Clue', 'Monopoly']","[-0.15, 0.5]","[0.15, 0.5]",1,1,,,,,,,,,0,8,8,8,0,1,1,2,,,,,,,,,,,,,,,,,,,,,,,,,,,,,,,,,,,,,,,,,,,,,,,,,,,,,,,1032.109437652,None,1032.109437652,None,1032.109437652,None,m,1,1.984264997000082,1033.644938494,None,1033.644938494,None,1033.644938494,None,1035.693080629,None,1035.693080629,None,1035.693080629,None,1035.693080629,None,,,,,,,,,,,,,,,,,,,,,,,,,,,,,,,,,,,,,,,,,,,,001,128,2020_Feb_18_0902,spring_faces,3.1.5,60.07096952541834,
condition files/Stage1_1.xlsx,,T4,B3,m,"['c', 'm']","['Clue', 'Monopoly']","[-0.15, 0.5]","[0.15, 0.5]",1,1,,,,,,,,,0,8,8,8,0,2,2,6,,,,,,,,,,,,,,,,,,,,,,,,,,,,,,,,,,,,,,,,,,,,,,,,,,,,,,,1037.659555579,None,1037.659555579,None,1037.659555579,None,c,0,0.8989497400000346,1039.194203539,None,1039.194203539,None,1039.194203539,None,1040.143169378,None,1040.143169378,None,1040.143169378,None,1040.143169378,None,,,,,,,,,,,,,,,,,,,,,,,,,,,,,,,,,,,,,,,,,,,,001,128,2020_Feb_18_0902,spring_faces,3.1.5,60.07096952541834,
condition files/Stage1_1.xlsx,,B1,T2,c,"['c', 'm']","['Clue', 'Monopoly']","[-0.15, 0.5]","[0.15, 0.5]",1,1,,,,,,,,,0,8,8,8,0,3,3,1,,,,,,,,,,,,,,,,,,,,,,,,,,,,,,,,,,,,,,,,,,,,,,,,,,,,,,,1042.109131523,None,1042.109131523,None,1042.109131523,None,m,0,0.49710496400007287,1043.644093961,None,1043.644093961,None,1043.644093961,None,1044.209097076,None,1044.209097076,None,1044.209097076,None,1044.209097076,None,,,,,,,,,,,,,,,,,,,,,,,,,,,,,,,,,,,,,,,,,,,,001,128,2020_Feb_18_0902,spring_faces,3.1.5,60.07096952541834,
condition files/Stage1_1.xlsx,,T1,B1,c,"['c', 'm']","['Clue', 'Monopoly']","[-0.15, 0.5]","[0.15, 0.5]",1,1,,,,,,,,,0,8,8,8,0,4,4,0,,,,,,,,,,,,,,,,,,,,,,,,,,,,,,,,,,,,,,,,,,,,,,,,,,,,,,,1046.15952733,None,1046.15952733,None,1046.15952733,None,c,1,3.6487837680001576,1047.692421781,None,1047.692421781,None,1047.692421781,None,1051.393031791,None,1051.393031791,None,1051.393031791,None,1051.393031791,None,,,,,,,,,,,,,,,,,,,,,,,,,,,,,,,,,,,,,,,,,,,,001,128,2020_Feb_18_0902,spring_faces,3.1.5,60.07096952541834,
condition files/Stage1_1.xlsx,,T2,B2,m,"['c', 'm']","['Clue', 'Monopoly']","[-0.15, 0.5]","[0.15, 0.5]",1,1,,,,,,,,,0,8,8,8,0,5,5,3,,,,,,,,,,,,,,,,,,,,,,,,,,,,,,,,,,,,,,,,,,,,,,,,,,,,,,,1053.359406741,None,1053.359406741,None,1053.359406741,None,m,1,0.5599907440000607,1054.893246243,None,1054.893246243,None,1054.893246243,None,1055.512524666,None,1055.512524666,None,1055.512524666,None,1055.512524666,None,,,,,,,,,,,,,,,,,,,,,,,,,,,,,,,,,,,,,,,,,,,,001,128,2020_Feb_18_0902,spring_faces,3.1.5,60.07096952541834,
condition files/Stage1_1.xlsx,,B3,T3,c,"['c', 'm']","['Clue', 'Monopoly']","[-0.15, 0.5]","[0.15, 0.5]",1,1,,,,,,,,,0,8,8,8,0,6,6,4,,,,,,,,,,,,,,,,,,,,,,,,,,,,,,,,,,,,,,,,,,,,,,,,,,,,,,,1057.4757857,None,1057.4757857,None,1057.4757857,None,m,0,1.2427269760000854,1059.01051092,None,1059.01051092,None,1059.01051092,None,1060.312074877,None,1060.312074877,None,1060.312074877,None,1060.312074877,None,,,,,,,,,,,,,,,,,,,,,,,,,,,,,,,,,,,,,,,,,,,,001,128,2020_Feb_18_0902,spring_faces,3.1.5,60.07096952541834,
condition files/Stage1_1.xlsx,,B4,T4,m,"['c', 'm']","['Clue', 'Monopoly']","[-0.15, 0.5]","[0.15, 0.5]",1,1,,,,,,,,,0,8,8,8,0,7,7,7,,,,,,,,,,,,,,,,,,,,,,,,,,,,,,,,,,,,,,,,,,,,,,,,,,,,,,,1062.276385611,None,1062.276385611,None,1062.276385611,None,c,0,0.938611015999868,1063.81063509,None,1063.81063509,None,1063.81063509,None,1064.826402388,None,1064.826402388,None,1064.826402388,None,1064.826402388,None,,,,,,,,,,,,,,,,,,,,,,,,,,,,,,,,,,,,,,,,,,,,001,128,2020_Feb_18_0902,spring_faces,3.1.5,60.07096952541834,
condition files/Stage1_2.xlsx,,B3,T4,m,"['c', 'm']","['Clue', 'Monopoly']","[-0.15, 0.5]","[0.15, 0.5]",1,1,,,,,,,,,0,9,9,9,0,0,0,6,,,,,,,,,,,,,,,,,,,,,,,,,,,,,,,,,,,,,,,,,,,,,,,,,,,,,,,1066.792733909,None,1066.792733909,None,1066.792733909,None,m,1,1.494712694999862,1068.342464157,None,1068.342464157,None,1068.342464157,None,1069.893267397,None,1069.893267397,None,1069.893267397,None,1069.893267397,None,,,,,,,,,,,,,,,,,,,,,,,,,,,,,,,,,,,,,,,,,,,,001,128,2020_Feb_18_0902,spring_faces,3.1.5,60.07096952541834,
condition files/Stage1_2.xlsx,,B1,T1,c,"['c', 'm']","['Clue', 'Monopoly']","[-0.15, 0.5]","[0.15, 0.5]",1,1,,,,,,,,,0,9,9,9,0,1,1,0,,,,,,,,,,,,,,,,,,,,,,,,,,,,,,,,,,,,,,,,,,,,,,,,,,,,,,,1071.85939937,None,1071.85939937,None,1071.85939937,None,c,1,1.7723972219998814,1073.392776292,None,1073.392776292,None,1073.392776292,None,1075.226328284,None,1075.226328284,None,1075.226328284,None,1075.226328284,None,,,,,,,,,,,,,,,,,,,,,,,,,,,,,,,,,,,,,,,,,,,,001,128,2020_Feb_18_0902,spring_faces,3.1.5,60.07096952541834,
condition files/Stage1_2.xlsx,,B2,T2,m,"['c', 'm']","['Clue', 'Monopoly']","[-0.15, 0.5]","[0.15, 0.5]",1,1,,,,,,,,,0,9,9,9,0,2,2,3,,,,,,,,,,,,,,,,,,,,,,,,,,,,,,,,,,,,,,,,,,,,,,,,,,,,,,,1077.192767566,None,1077.192767566,None,1077.192767566,None,m,1,0.9026909219999197,1078.726480179,None,1078.726480179,None,1078.726480179,None,1079.709952008,None,1079.709952008,None,1079.709952008,None,1079.709952008,None,,,,,,,,,,,,,,,,,,,,,,,,,,,,,,,,,,,,,,,,,,,,001,128,2020_Feb_18_0902,spring_faces,3.1.5,60.07096952541834,
condition files/Stage1_2.xlsx,,T1,B2,m,"['c', 'm']","['Clue', 'Monopoly']","[-0.15, 0.5]","[0.15, 0.5]",1,1,,,,,,,,,0,9,9,9,0,3,3,2,,,,,,,,,,,,,,,,,,,,,,,,,,,,,,,,,,,,,,,,,,,,,,,,,,,,,,,1081.659463123,None,1081.659463123,None,1081.659463123,None,c,0,2.515569828000025,1083.209585008,None,1083.209585008,None,1083.209585008,None,1085.77632183,None,1085.77632183,None,1085.77632183,None,1085.77632183,None,,,,,,,,,,,,,,,,,,,,,,,,,,,,,,,,,,,,,,,,,,,,001,128,2020_Feb_18_0902,spring_faces,3.1.5,60.07096952541834,
condition files/Stage1_2.xlsx,,T2,B1,c,"['c', 'm']","['Clue', 'Monopoly']","[-0.15, 0.5]","[0.15, 0.5]",1,1,,,,,,,,,0,9,9,9,0,4,4,1,,,,,,,,,,,,,,,,,,,,,,,,,,,,,,,,,,,,,,,,,,,,,,,,,,,,,,,1087.742698467,None,1087.742698467,None,1087.742698467,None,m,0,1.536264428000095,1089.292904946,None,1089.292904946,None,1089.292904946,None,1090.895734299,None,1090.895734299,None,1090.895734299,None,1090.895734299,None,,,,,,,,,,,,,,,,,,,,,,,,,,,,,,,,,,,,,,,,,,,,001,128,2020_Feb_18_0902,spring_faces,3.1.5,60.07096952541834,
condition files/Stage1_2.xlsx,,B4,T3,c,"['c', 'm']","['Clue', 'Monopoly']","[-0.15, 0.5]","[0.15, 0.5]",1,1,,,,,,,,,0,9,9,9,0,5,5,5,,,,,,,,,,,,,,,,,,,,,,,,,,,,,,,,,,,,,,,,,,,,,,,,,,,,,,,1092.859527814,None,1092.859527814,None,1092.859527814,None,m,0,1.0275040830001672,1094.393630636,None,1094.393630636,None,1094.393630636,None,1095.476488001,None,1095.476488001,None,1095.476488001,None,1095.476488001,None,,,,,,,,,,,,,,,,,,,,,,,,,,,,,,,,,,,,,,,,,,,,001,128,2020_Feb_18_0902,spring_faces,3.1.5,60.07096952541834,
condition files/Stage1_2.xlsx,,T3,B3,c,"['c', 'm']","['Clue', 'Monopoly']","[-0.15, 0.5]","[0.15, 0.5]",1,1,,,,,,,,,0,9,9,9,0,6,6,4,,,,,,,,,,,,,,,,,,,,,,,,,,,,,,,,,,,,,,,,,,,,,,,,,,,,,,,1097.442085796,None,1097.442085796,None,1097.442085796,None,c,1,0.7327484449999702,1098.976471879,None,1098.976471879,None,1098.976471879,None,1099.759270616,None,1099.759270616,None,1099.759270616,None,1099.759270616,None,,,,,,,,,,,,,,,,,,,,,,,,,,,,,,,,,,,,,,,,,,,,001,128,2020_Feb_18_0902,spring_faces,3.1.5,60.07096952541834,
condition files/Stage1_2.xlsx,,T4,B4,m,"['c', 'm']","['Clue', 'Monopoly']","[-0.15, 0.5]","[0.15, 0.5]",1,1,,,,,,,,,0,9,9,9,0,7,7,7,,,,,,,,,,,,,,,,,,,,,,,,,,,,,,,,,,,,,,,,,,,,,,,,,,,,,,,1101.725872935,None,1101.725872935,None,1101.725872935,None,c,0,0.7048426809999455,1103.276351218,None,1103.276351218,None,1103.276351218,None,1104.044390034,None,1104.044390034,None,1104.044390034,None,1104.044390034,None,,,,,,,,,,,,,,,,,,,,,,,,,,,,,,,,,,,,,,,,,,,,001,128,2020_Feb_18_0902,spring_faces,3.1.5,60.07096952541834,
condition files/Stage1_1.xlsx,,B1,T2,c,"['c', 'm']","['Clue', 'Monopoly']","[-0.15, 0.5]","[0.15, 0.5]",1,1,,,,,,,,,0,10,10,10,0,0,0,1,,,,,,,,,,,,,,,,,,,,,,,,,,,,,,,,,,,,,,,,,,,,,,,,,,,,,,,1106.026514393,None,1106.026514393,None,1106.026514393,None,m,0,1.1734524380001403,1107.575662859,None,1107.575662859,None,1107.575662859,None,1108.808965112,None,1108.808965112,None,1108.808965112,None,1108.808965112,None,,,,,,,,,,,,,,,,,,,,,,,,,,,,,,,,,,,,,,,,,,,,001,128,2020_Feb_18_0902,spring_faces,3.1.5,60.07096952541834,
condition files/Stage1_1.xlsx,,B3,T3,c,"['c', 'm']","['Clue', 'Monopoly']","[-0.15, 0.5]","[0.15, 0.5]",1,1,,,,,,,,,0,10,10,10,0,1,1,4,,,,,,,,,,,,,,,,,,,,,,,,,,,,,,,,,,,,,,,,,,,,,,,,,,,,,,,1110.776133281,None,1110.776133281,None,1110.776133281,None,m,0,1.2859164090000377,1112.311277659,None,1112.311277659,None,1112.311277659,None,1113.659930437,None,1113.659930437,None,1113.659930437,None,1113.659930437,None,,,,,,,,,,,,,,,,,,,,,,,,,,,,,,,,,,,,,,,,,,,,001,128,2020_Feb_18_0902,spring_faces,3.1.5,60.07096952541834,
condition files/Stage1_1.xlsx,,T2,B2,m,"['c', 'm']","['Clue', 'Monopoly']","[-0.15, 0.5]","[0.15, 0.5]",1,1,,,,,,,,,0,10,10,10,0,2,2,3,,,,,,,,,,,,,,,,,,,,,,,,,,,,,,,,,,,,,,,,,,,,,,,,,,,,,,,1115.626045763,None,1115.626045763,None,1115.626045763,None,m,1,1.9419693410000036,1117.159274476,None,1117.159274476,None,1117.159274476,None,1119.160264716,None,1119.160264716,None,1119.160264716,None,1119.160264716,None,,,,,,,,,,,,,,,,,,,,,,,,,,,,,,,,,,,,,,,,,,,,001,128,2020_Feb_18_0902,spring_faces,3.1.5,60.07096952541834,
condition files/Stage1_1.xlsx,,T1,B1,c,"['c', 'm']","['Clue', 'Monopoly']","[-0.15, 0.5]","[0.15, 0.5]",1,1,,,,,,,,,0,10,10,10,0,3,3,0,,,,,,,,,,,,,,,,,,,,,,,,,,,,,,,,,,,,,,,,,,,,,,,,,,,,,,,1121.126185983,None,1121.126185983,None,1121.126185983,None,c,1,1.2571315840000352,1122.660119588,None,1122.660119588,None,1122.660119588,None,1123.975878081,None,1123.975878081,None,1123.975878081,None,1123.975878081,None,,,,,,,,,,,,,,,,,,,,,,,,,,,,,,,,,,,,,,,,,,,,001,128,2020_Feb_18_0902,spring_faces,3.1.5,60.07096952541834,
condition files/Stage1_1.xlsx,,T3,B4,c,"['c', 'm']","['Clue', 'Monopoly']","[-0.15, 0.5]","[0.15, 0.5]",1,1,,,,,,,,,0,10,10,10,0,4,4,5,,,,,,,,,,,,,,,,,,,,,,,,,,,,,,,,,,,,,,,,,,,,,,,,,,,,,,,1125.942782244,None,1125.942782244,None,1125.942782244,None,c,1,2.2331383599998844,1127.476043751,None,1127.476043751,None,1127.476043751,None,1129.759283547,None,1129.759283547,None,1129.759283547,None,1129.759283547,None,,,,,,,,,,,,,,,,,,,,,,,,,,,,,,,,,,,,,,,,,,,,001,128,2020_Feb_18_0902,spring_faces,3.1.5,60.07096952541834,
condition files/Stage1_1.xlsx,,B2,T1,m,"['c', 'm']","['Clue', 'Monopoly']","[-0.15, 0.5]","[0.15, 0.5]",1,1,,,,,,,,,0,10,10,10,0,5,5,2,,,,,,,,,,,,,,,,,,,,,,,,,,,,,,,,,,,,,,,,,,,,,,,,,,,,,,,1131.726085043,None,1131.726085043,None,1131.726085043,None,m,1,1.3916251609998653,1133.261622861,None,1133.261622861,None,1133.261622861,None,1134.711222327,None,1134.711222327,None,1134.711222327,None,1134.711222327,None,,,,,,,,,,,,,,,,,,,,,,,,,,,,,,,,,,,,,,,,,,,,001,128,2020_Feb_18_0902,spring_faces,3.1.5,60.07096952541834,
condition files/Stage1_1.xlsx,,T4,B3,m,"['c', 'm']","['Clue', 'Monopoly']","[-0.15, 0.5]","[0.15, 0.5]",1,1,,,,,,,,,0,10,10,10,0,6,6,6,,,,,,,,,,,,,,,,,,,,,,,,,,,,,,,,,,,,,,,,,,,,,,,,,,,,,,,1136.675515713,None,1136.675515713,None,1136.675515713,None,c,0,2.0442114170000423,1138.209028661,None,1138.209028661,None,1138.209028661,None,1140.30993563,None,1140.30993563,None,1140.30993563,None,1140.30993563,None,,,,,,,,,,,,,,,,,,,,,,,,,,,,,,,,,,,,,,,,,,,,001,128,2020_Feb_18_0902,spring_faces,3.1.5,60.07096952541834,
condition files/Stage1_1.xlsx,,B4,T4,m,"['c', 'm']","['Clue', 'Monopoly']","[-0.15, 0.5]","[0.15, 0.5]",1,1,,,,,,,,,0,10,10,10,0,7,7,7,,,,,,,,,,,,,,,,,,,,,,,,,,,,,,,,,,,,,,,,,,,,,,,,,,,,,,,1142.276213545,None,1142.276213545,None,1142.276213545,None,m,1,1.7877598049999506,1143.809440274,None,1143.809440274,None,1143.809440274,None,1145.659328428,None,1145.659328428,None,1145.659328428,None,1145.659328428,None,,,,,,,,,,,,,,,,,,,,,,,,,,,,,,,,,,,,,,,,,,,,001,128,2020_Feb_18_0902,spring_faces,3.1.5,60.07096952541834,
condition files/Stage1_2.xlsx,,T2,B1,c,"['c', 'm']","['Clue', 'Monopoly']","[-0.15, 0.5]","[0.15, 0.5]",1,1,,,,,,,,,0,11,11,11,0,0,0,1,,,,,,,,,,,,,,,,,,,,,,,,,,,,,,,,,,,,,,,,,,,,,,,,,,,,,,,1147.6429836,None,1147.6429836,None,1147.6429836,None,m,0,2.868535485999928,1149.176649266,None,1149.176649266,None,1149.176649266,None,1152.111501523,None,1152.111501523,None,1152.111501523,None,1152.111501523,None,,,,,,,,,,,,,,,,,,,,,,,,,,,,,,,,,,,,,,,,,,,,001,128,2020_Feb_18_0902,spring_faces,3.1.5,60.07096952541834,
condition files/Stage1_2.xlsx,,B2,T2,m,"['c', 'm']","['Clue', 'Monopoly']","[-0.15, 0.5]","[0.15, 0.5]",1,1,,,,,,,,,0,11,11,11,0,1,1,3,,,,,,,,,,,,,,,,,,,,,,,,,,,,,,,,,,,,,,,,,,,,,,,,,,,,,,,1154.076070759,None,1154.076070759,None,1154.076070759,None,c,0,1.666200665000133,1155.610914585,None,1155.610914585,None,1155.610914585,None,1157.359639381,None,1157.359639381,None,1157.359639381,None,1157.359639381,None,,,,,,,,,,,,,,,,,,,,,,,,,,,,,,,,,,,,,,,,,,,,001,128,2020_Feb_18_0902,spring_faces,3.1.5,60.07096952541834,
condition files/Stage1_2.xlsx,,T4,B4,m,"['c', 'm']","['Clue', 'Monopoly']","[-0.15, 0.5]","[0.15, 0.5]",1,1,,,,,,,,,0,11,11,11,0,2,2,7,,,,,,,,,,,,,,,,,,,,,,,,,,,,,,,,,,,,,,,,,,,,,,,,,,,,,,,1159.309060282,None,1159.309060282,None,1159.309060282,None,c,0,1.9375245920000452,1160.859650227,None,1160.859650227,None,1160.859650227,None,1162.859794572,None,1162.859794572,None,1162.859794572,None,1162.859794572,None,,,,,,,,,,,,,,,,,,,,,,,,,,,,,,,,,,,,,,,,,,,,001,128,2020_Feb_18_0902,spring_faces,3.1.5,60.07096952541834,
condition files/Stage1_2.xlsx,,B4,T3,c,"['c', 'm']","['Clue', 'Monopoly']","[-0.15, 0.5]","[0.15, 0.5]",1,1,,,,,,,,,0,11,11,11,0,3,3,5,,,,,,,,,,,,,,,,,,,,,,,,,,,,,,,,,,,,,,,,,,,,,,,,,,,,,,,1164.826001584,None,1164.826001584,None,1164.826001584,None,m,0,1.0614396539999689,1166.359705101,None,1166.359705101,None,1166.359705101,None,1167.477092446,None,1167.477092446,None,1167.477092446,None,1167.477092446,None,,,,,,,,,,,,,,,,,,,,,,,,,,,,,,,,,,,,,,,,,,,,001,128,2020_Feb_18_0902,spring_faces,3.1.5,60.07096952541834,
condition files/Stage1_2.xlsx,,B3,T4,m,"['c', 'm']","['Clue', 'Monopoly']","[-0.15, 0.5]","[0.15, 0.5]",1,1,,,,,,,,,0,11,11,11,0,4,4,6,,,,,,,,,,,,,,,,,,,,,,,,,,,,,,,,,,,,,,,,,,,,,,,,,,,,,,,1169.442916729,None,1169.442916729,None,1169.442916729,None,c,0,1.2119327670000075,1170.977247296,None,1170.977247296,None,1170.977247296,None,1172.259461163,None,1172.259461163,None,1172.259461163,None,1172.259461163,None,,,,,,,,,,,,,,,,,,,,,,,,,,,,,,,,,,,,,,,,,,,,001,128,2020_Feb_18_0902,spring_faces,3.1.5,60.07096952541834,
condition files/Stage1_2.xlsx,,T1,B2,m,"['c', 'm']","['Clue', 'Monopoly']","[-0.15, 0.5]","[0.15, 0.5]",1,1,,,,,,,,,0,11,11,11,0,5,5,2,,,,,,,,,,,,,,,,,,,,,,,,,,,,,,,,,,,,,,,,,,,,,,,,,,,,,,,1174.209556644,None,1174.209556644,None,1174.209556644,None,m,1,0.2845343919998413,1175.744676456,None,1175.744676456,None,1175.744676456,None,1176.09283184,None,1176.09283184,None,1176.09283184,None,1176.09283184,None,,,,,,,,,,,,,,,,,,,,,,,,,,,,,,,,,,,,,,,,,,,,001,128,2020_Feb_18_0902,spring_faces,3.1.5,60.07096952541834,
condition files/Stage1_2.xlsx,,B1,T1,c,"['c', 'm']","['Clue', 'Monopoly']","[-0.15, 0.5]","[0.15, 0.5]",1,1,,,,,,,,,0,11,11,11,0,6,6,0,,,,,,,,,,,,,,,,,,,,,,,,,,,,,,,,,,,,,,,,,,,,,,,,,,,,,,,1178.059239299,None,1178.059239299,None,1178.059239299,None,m,0,3.476442487999975,1179.592665533,None,1179.592665533,None,1179.592665533,None,1183.127173828,None,1183.127173828,None,1183.127173828,None,1183.127173828,None,,,,,,,,,,,,,,,,,,,,,,,,,,,,,,,,,,,,,,,,,,,,001,128,2020_Feb_18_0902,spring_faces,3.1.5,60.07096952541834,
condition files/Stage1_2.xlsx,,T3,B3,c,"['c', 'm']","['Clue', 'Monopoly']","[-0.15, 0.5]","[0.15, 0.5]",1,1,,,,,,,,,0,11,11,11,0,7,7,4,,,,,,,,,,,,,,,,,,,,,,,,,,,,,,,,,,,,,,,,,,,,,,,,,,,,,,,1185.09239192,None,1185.09239192,None,1185.09239192,None,c,1,0.345834855000021,1186.627399714,None,1186.627399714,None,1186.627399714,None,1187.025934006,None,1187.025934006,None,1187.025934006,None,1187.025934006,None,,,,,,,,,,,,,,,,,,,,,,,,,,,,,,,,,,,,,,,,,,,,001,128,2020_Feb_18_0902,spring_faces,3.1.5,60.07096952541834,
,,,,,,,,,,,,,,,,,,,,,,,,,,,,,,,,,,,,,,,,,,,,,,,,,,,,,,,,,,,,,,,,,,,,,,,,,,,,,,,,,,,,,,,,,,,,,,,,,,,,,,,,,,,,,,,,1189.009724082,None,space,2.339663433999931,1194.009595335,None,,,,,,,,,,,,,,,,,,,,,,,,,,,,,,001,128,2020_Feb_18_0902,spring_faces,3.1.5,60.07096952541834,
condition files/Stage2_1.xlsx,,B6,T6,r,"['s', 'r']","['Stratego', 'Risk']","[-0.15, 0.5]","[0.15, 0.5]",1,1,,,,,,,,,,,,,,,,,0,0,0,0,0,0,0,1,,,,,,,,,,,,,,,,,,,,,,,,,,,,,,,,,,,,,,,,,,,,,,,1196.459586098,None,1196.459586098,None,1196.459586098,None,s,0,0.9175957719999133,1197.959550574,None,1197.959550574,None,1197.959550574,None,1198.942896795,None,1198.942896795,None,1198.942896795,None,1198.942896795,None,,,,,,,,,,,,,,,1194.009595335,None,,,,,,,,,,,,,,,,,,,,,,,,,,,,001,128,2020_Feb_18_0902,spring_faces,3.1.5,60.07096952541834,
condition files/Stage2_1.xlsx,,T3,B3,s,"['s', 'r']","['Stratego', 'Risk']","[-0.15, 0.5]","[0.15, 0.5]",1,1,,,,,,,,,,,,,,,,,0,0,0,0,0,1,1,4,,,,,,,,,,,,,,,,,,,,,,,,,,,,,,,,,,,,,,,,,,,,,,,1200.909305546,None,1200.909305546,None,1200.909305546,None,r,0,1.2666267429999607,1202.442577835,None,1202.442577835,None,1202.442577835,None,1203.776504079,None,1203.776504079,None,1203.776504079,None,1203.776504079,None,,,,,,,,,,,,,,,,,,,,,,,,,,,,,,,,,,,,,,,,,,,,001,128,2020_Feb_18_0902,spring_faces,3.1.5,60.07096952541834,
condition files/Stage2_1.xlsx,,B4,T4,r,"['s', 'r']","['Stratego', 'Risk']","[-0.15, 0.5]","[0.15, 0.5]",1,1,,,,,,,,,,,,,,,,,0,0,0,0,0,2,2,5,,,,,,,,,,,,,,,,,,,,,,,,,,,,,,,,,,,,,,,,,,,,,,,1205.726127318,None,1205.726127318,None,1205.726127318,None,r,1,0.5136376860000382,1207.259531806,None,1207.259531806,None,1207.259531806,None,1207.828462729,None,1207.828462729,None,1207.828462729,None,1207.828462729,None,,,,,,,,,,,,,,,,,,,,,,,,,,,,,,,,,,,,,,,,,,,,001,128,2020_Feb_18_0902,spring_faces,3.1.5,60.07096952541834,
condition files/Stage2_1.xlsx,,T5,B5,s,"['s', 'r']","['Stratego', 'Risk']","[-0.15, 0.5]","[0.15, 0.5]",1,1,,,,,,,,,,,,,,,,,0,0,0,0,0,3,3,0,,,,,,,,,,,,,,,,,,,,,,,,,,,,,,,,,,,,,,,,,,,,,,,1209.792863021,None,1209.792863021,None,1209.792863021,None,s,1,0.6348074869999891,1211.378302124,None,1211.378302124,None,1211.378302124,None,1212.07734917,None,1212.07734917,None,1212.07734917,None,1212.07734917,None,,,,,,,,,,,,,,,,,,,,,,,,,,,,,,,,,,,,,,,,,,,,001,128,2020_Feb_18_0902,spring_faces,3.1.5,60.07096952541834,
condition files/Stage2_1.xlsx,,B2,T2,r,"['s', 'r']","['Stratego', 'Risk']","[-0.15, 0.5]","[0.15, 0.5]",1,1,,,,,,,,,,,,,,,,,0,0,0,0,0,4,4,3,,,,,,,,,,,,,,,,,,,,,,,,,,,,,,,,,,,,,,,,,,,,,,,1214.042712097,None,1214.042712097,None,1214.042712097,None,r,1,0.6444571319998431,1215.576671925,None,1215.576671925,None,1215.576671925,None,1216.278736064,None,1216.278736064,None,1216.278736064,None,1216.278736064,None,,,,,,,,,,,,,,,,,,,,,,,,,,,,,,,,,,,,,,,,,,,,001,128,2020_Feb_18_0902,spring_faces,3.1.5,60.07096952541834,
condition files/Stage2_1.xlsx,,T1,B1,s,"['s', 'r']","['Stratego', 'Risk']","[-0.15, 0.5]","[0.15, 0.5]",1,1,,,,,,,,,,,,,,,,,0,0,0,0,0,5,5,2,,,,,,,,,,,,,,,,,,,,,,,,,,,,,,,,,,,,,,,,,,,,,,,1218.242290472,None,1218.242290472,None,1218.242290472,None,r,0,0.8120986089998041,1219.777004547,None,1219.777004547,None,1219.777004547,None,1220.643697157,None,1220.643697157,None,1220.643697157,None,1220.643697157,None,,,,,,,,,,,,,,,,,,,,,,,,,,,,,,,,,,,,,,,,,,,,001,128,2020_Feb_18_0902,spring_faces,3.1.5,60.07096952541834,
condition files/Stage2_2.xlsx,,B1,T1,s,"['s', 'r']","['Stratego', 'Risk']","[-0.15, 0.5]","[0.15, 0.5]",1,1,,,,,,,,,,,,,,,,,0,1,1,1,0,0,0,2,,,,,,,,,,,,,,,,,,,,,,,,,,,,,,,,,,,,,,,,,,,,,,,1222.642979281,None,1222.642979281,None,1222.642979281,None,s,1,1.7884494790000645,1224.160710806,None,1224.160710806,None,1224.160710806,None,1226.010001176,None,1226.010001176,None,1226.010001176,None,1226.010001176,None,,,,,,,,,,,,,,,,,,,,,,,,,,,,,,,,,,,,,,,,,,,,001,128,2020_Feb_18_0902,spring_faces,3.1.5,60.07096952541834,
condition files/Stage2_2.xlsx,,T4,B4,r,"['s', 'r']","['Stratego', 'Risk']","[-0.15, 0.5]","[0.15, 0.5]",1,1,,,,,,,,,,,,,,,,,0,1,1,1,0,1,1,5,,,,,,,,,,,,,,,,,,,,,,,,,,,,,,,,,,,,,,,,,,,,,,,1227.976058097,None,1227.976058097,None,1227.976058097,None,s,0,0.8869962650001071,1229.510210603,None,1229.510210603,None,1229.510210603,None,1230.462357017,None,1230.462357017,None,1230.462357017,None,1230.462357017,None,,,,,,,,,,,,,,,,,,,,,,,,,,,,,,,,,,,,,,,,,,,,001,128,2020_Feb_18_0902,spring_faces,3.1.5,60.07096952541834,
condition files/Stage2_2.xlsx,,T2,B2,r,"['s', 'r']","['Stratego', 'Risk']","[-0.15, 0.5]","[0.15, 0.5]",1,1,,,,,,,,,,,,,,,,,0,1,1,1,0,2,2,3,,,,,,,,,,,,,,,,,,,,,,,,,,,,,,,,,,,,,,,,,,,,,,,1232.426063126,None,1232.426063126,None,1232.426063126,None,r,1,1.5259028000000399,1233.959377369,None,1233.959377369,None,1233.959377369,None,1235.542984316,None,1235.542984316,None,1235.542984316,None,1235.542984316,None,,,,,,,,,,,,,,,,,,,,,,,,,,,,,,,,,,,,,,,,,,,,001,128,2020_Feb_18_0902,spring_faces,3.1.5,60.07096952541834,
condition files/Stage2_2.xlsx,,T6,B6,r,"['s', 'r']","['Stratego', 'Risk']","[-0.15, 0.5]","[0.15, 0.5]",1,1,,,,,,,,,,,,,,,,,0,1,1,1,0,3,3,1,,,,,,,,,,,,,,,,,,,,,,,,,,,,,,,,,,,,,,,,,,,,,,,1237.509376193,None,1237.509376193,None,1237.509376193,None,r,1,1.658218727999838,1239.043034446,None,1239.043034446,None,1239.043034446,None,1240.759939088,None,1240.759939088,None,1240.759939088,None,1240.759939088,None,,,,,,,,,,,,,,,,,,,,,,,,,,,,,,,,,,,,,,,,,,,,001,128,2020_Feb_18_0902,spring_faces,3.1.5,60.07096952541834,
condition files/Stage2_2.xlsx,,B5,T5,s,"['s', 'r']","['Stratego', 'Risk']","[-0.15, 0.5]","[0.15, 0.5]",1,1,,,,,,,,,,,,,,,,,0,1,1,1,0,4,4,0,,,,,,,,,,,,,,,,,,,,,,,,,,,,,,,,,,,,,,,,,,,,,,,1242.725559857,None,1242.725559857,None,1242.725559857,None,s,1,1.7353751380001086,1244.261832902,None,1244.261832902,None,1244.261832902,None,1246.061318609,None,1246.061318609,None,1246.061318609,None,1246.061318609,None,,,,,,,,,,,,,,,,,,,,,,,,,,,,,,,,,,,,,,,,,,,,001,128,2020_Feb_18_0902,spring_faces,3.1.5,60.07096952541834,
condition files/Stage2_2.xlsx,,B3,T3,s,"['s', 'r']","['Stratego', 'Risk']","[-0.15, 0.5]","[0.15, 0.5]",1,1,,,,,,,,,,,,,,,,,0,1,1,1,0,5,5,4,,,,,,,,,,,,,,,,,,,,,,,,,,,,,,,,,,,,,,,,,,,,,,,1248.026102357,None,1248.026102357,None,1248.026102357,None,r,0,1.7810248959999626,1249.576135176,None,1249.576135176,None,1249.576135176,None,1251.40967171,None,1251.40967171,None,1251.40967171,None,1251.40967171,None,,,,,,,,,,,,,,,,,,,,,,,,,,,,,,,,,,,,,,,,,,,,001,128,2020_Feb_18_0902,spring_faces,3.1.5,60.07096952541834,
condition files/Stage2_1.xlsx,,B4,T4,r,"['s', 'r']","['Stratego', 'Risk']","[-0.15, 0.5]","[0.15, 0.5]",1,1,,,,,,,,,,,,,,,,,0,2,2,2,0,0,0,5,,,,,,,,,,,,,,,,,,,,,,,,,,,,,,,,,,,,,,,,,,,,,,,1253.393340638,None,1253.393340638,None,1253.393340638,None,r,1,1.2786901500001022,1254.942423332,None,1254.942423332,None,1254.942423332,None,1256.27863144,None,1256.27863144,None,1256.27863144,None,1256.27863144,None,,,,,,,,,,,,,,,,,,,,,,,,,,,,,,,,,,,,,,,,,,,,001,128,2020_Feb_18_0902,spring_faces,3.1.5,60.07096952541834,
condition files/Stage2_1.xlsx,,T1,B1,s,"['s', 'r']","['Stratego', 'Risk']","[-0.15, 0.5]","[0.15, 0.5]",1,1,,,,,,,,,,,,,,,,,0,2,2,2,0,1,1,2,,,,,,,,,,,,,,,,,,,,,,,,,,,,,,,,,,,,,,,,,,,,,,,1258.242991522,None,1258.242991522,None,1258.242991522,None,s,1,1.7241705980000006,1259.777079127,None,1259.777079127,None,1259.777079127,None,1261.562265222,None,1261.562265222,None,1261.562265222,None,1261.562265222,None,,,,,,,,,,,,,,,,,,,,,,,,,,,,,,,,,,,,,,,,,,,,001,128,2020_Feb_18_0902,spring_faces,3.1.5,60.07096952541834,
condition files/Stage2_1.xlsx,,B2,T2,r,"['s', 'r']","['Stratego', 'Risk']","[-0.15, 0.5]","[0.15, 0.5]",1,1,,,,,,,,,,,,,,,,,0,2,2,2,0,2,2,3,,,,,,,,,,,,,,,,,,,,,,,,,,,,,,,,,,,,,,,,,,,,,,,1263.525466645,None,1263.525466645,None,1263.525466645,None,r,1,2.4087635549999504,1265.076496961,None,1265.076496961,None,1265.076496961,None,1267.559861084,None,1267.559861084,None,1267.559861084,None,1267.559861084,None,,,,,,,,,,,,,,,,,,,,,,,,,,,,,,,,,,,,,,,,,,,,001,128,2020_Feb_18_0902,spring_faces,3.1.5,60.07096952541834,
condition files/Stage2_1.xlsx,,B6,T6,r,"['s', 'r']","['Stratego', 'Risk']","[-0.15, 0.5]","[0.15, 0.5]",1,1,,,,,,,,,,,,,,,,,0,2,2,2,0,3,3,1,,,,,,,,,,,,,,,,,,,,,,,,,,,,,,,,,,,,,,,,,,,,,,,1269.50900271,None,1269.50900271,None,1269.50900271,None,r,1,1.994626720999804,1271.042504778,None,1271.042504778,None,1271.042504778,None,1273.092998169,None,1273.092998169,None,1273.092998169,None,1273.092998169,None,,,,,,,,,,,,,,,,,,,,,,,,,,,,,,,,,,,,,,,,,,,,001,128,2020_Feb_18_0902,spring_faces,3.1.5,60.07096952541834,
condition files/Stage2_1.xlsx,,T3,B3,s,"['s', 'r']","['Stratego', 'Risk']","[-0.15, 0.5]","[0.15, 0.5]",1,1,,,,,,,,,,,,,,,,,0,2,2,2,0,4,4,4,,,,,,,,,,,,,,,,,,,,,,,,,,,,,,,,,,,,,,,,,,,,,,,1275.05941057,None,1275.05941057,None,1275.05941057,None,s,1,1.8993585939999775,1276.593760102,None,1276.593760102,None,1276.593760102,None,1278.559679346,None,1278.559679346,None,1278.559679346,None,1278.559679346,None,,,,,,,,,,,,,,,,,,,,,,,,,,,,,,,,,,,,,,,,,,,,001,128,2020_Feb_18_0902,spring_faces,3.1.5,60.07096952541834,
condition files/Stage2_1.xlsx,,T5,B5,s,"['s', 'r']","['Stratego', 'Risk']","[-0.15, 0.5]","[0.15, 0.5]",1,1,,,,,,,,,,,,,,,,,0,2,2,2,0,5,5,0,,,,,,,,,,,,,,,,,,,,,,,,,,,,,,,,,,,,,,,,,,,,,,,1280.526141664,None,1280.526141664,None,1280.526141664,None,s,1,1.1377472479998687,1282.059458654,None,1282.059458654,None,1282.059458654,None,1283.259628558,None,1283.259628558,None,1283.259628558,None,1283.259628558,None,,,,,,,,,,,,,,,,,,,,,,,,,,,,,,,,,,,,,,,,,,,,001,128,2020_Feb_18_0902,spring_faces,3.1.5,60.07096952541834,
condition files/Stage2_2.xlsx,,T4,B4,r,"['s', 'r']","['Stratego', 'Risk']","[-0.15, 0.5]","[0.15, 0.5]",1,1,,,,,,,,,,,,,,,,,0,3,3,3,0,0,0,5,,,,,,,,,,,,,,,,,,,,,,,,,,,,,,,,,,,,,,,,,,,,,,,1285.243065584,None,1285.243065584,None,1285.243065584,None,r,1,0.7409322119999615,1286.776331091,None,1286.776331091,None,1286.776331091,None,1287.577331541,None,1287.577331541,None,1287.577331541,None,1287.577331541,None,,,,,,,,,,,,,,,,,,,,,,,,,,,,,,,,,,,,,,,,,,,,001,128,2020_Feb_18_0902,spring_faces,3.1.5,60.07096952541834,
condition files/Stage2_2.xlsx,,B5,T5,s,"['s', 'r']","['Stratego', 'Risk']","[-0.15, 0.5]","[0.15, 0.5]",1,1,,,,,,,,,,,,,,,,,0,3,3,3,0,1,1,0,,,,,,,,,,,,,,,,,,,,,,,,,,,,,,,,,,,,,,,,,,,,,,,1289.542156248,None,1289.542156248,None,1289.542156248,None,s,1,0.856428778999998,1291.076855192,None,1291.076855192,None,1291.076855192,None,1291.993835046,None,1291.993835046,None,1291.993835046,None,1291.993835046,None,,,,,,,,,,,,,,,,,,,,,,,,,,,,,,,,,,,,,,,,,,,,001,128,2020_Feb_18_0902,spring_faces,3.1.5,60.07096952541834,
condition files/Stage2_2.xlsx,,B1,T1,s,"['s', 'r']","['Stratego', 'Risk']","[-0.15, 0.5]","[0.15, 0.5]",1,1,,,,,,,,,,,,,,,,,0,3,3,3,0,2,2,2,,,,,,,,,,,,,,,,,,,,,,,,,,,,,,,,,,,,,,,,,,,,,,,1293.959552642,None,1293.959552642,None,1293.959552642,None,r,0,0.7436156700000538,1295.509612117,None,1295.509612117,None,1295.509612117,None,1296.309077953,None,1296.309077953,None,1296.309077953,None,1296.309077953,None,,,,,,,,,,,,,,,,,,,,,,,,,,,,,,,,,,,,,,,,,,,,001,128,2020_Feb_18_0902,spring_faces,3.1.5,60.07096952541834,
condition files/Stage2_2.xlsx,,T2,B2,r,"['s', 'r']","['Stratego', 'Risk']","[-0.15, 0.5]","[0.15, 0.5]",1,1,,,,,,,,,,,,,,,,,0,3,3,3,0,3,3,3,,,,,,,,,,,,,,,,,,,,,,,,,,,,,,,,,,,,,,,,,,,,,,,1298.276082493,None,1298.276082493,None,1298.276082493,None,r,1,2.2671970379999493,1299.809943893,None,1299.809943893,None,1299.809943893,None,1302.144451384,None,1302.144451384,None,1302.144451384,None,1302.144451384,None,,,,,,,,,,,,,,,,,,,,,,,,,,,,,,,,,,,,,,,,,,,,001,128,2020_Feb_18_0902,spring_faces,3.1.5,60.07096952541834,
condition files/Stage2_2.xlsx,,T6,B6,r,"['s', 'r']","['Stratego', 'Risk']","[-0.15, 0.5]","[0.15, 0.5]",1,1,,,,,,,,,,,,,,,,,0,3,3,3,0,4,4,1,,,,,,,,,,,,,,,,,,,,,,,,,,,,,,,,,,,,,,,,,,,,,,,1304.109446613,None,1304.109446613,None,1304.109446613,None,r,1,1.8425839060000726,1305.642596097,None,1305.642596097,None,1305.642596097,None,1307.542392241,None,1307.542392241,None,1307.542392241,None,1307.542392241,None,,,,,,,,,,,,,,,,,,,,,,,,,,,,,,,,,,,,,,,,,,,,001,128,2020_Feb_18_0902,spring_faces,3.1.5,60.07096952541834,
condition files/Stage2_2.xlsx,,B3,T3,s,"['s', 'r']","['Stratego', 'Risk']","[-0.15, 0.5]","[0.15, 0.5]",1,1,,,,,,,,,,,,,,,,,0,3,3,3,0,5,5,4,,,,,,,,,,,,,,,,,,,,,,,,,,,,,,,,,,,,,,,,,,,,,,,1309.509267256,None,1309.509267256,None,1309.509267256,None,s,1,1.32144077199996,1311.043729757,None,1311.043729757,None,1311.043729757,None,1312.442584932,None,1312.442584932,None,1312.442584932,None,1312.442584932,None,,,,,,,,,,,,,,,,,,,,,,,,,,,,,,,,,,,,,,,,,,,,001,128,2020_Feb_18_0902,spring_faces,3.1.5,60.07096952541834,
condition files/Stage2_1.xlsx,,B4,T4,r,"['s', 'r']","['Stratego', 'Risk']","[-0.15, 0.5]","[0.15, 0.5]",1,1,,,,,,,,,,,,,,,,,0,4,4,4,0,0,0,5,,,,,,,,,,,,,,,,,,,,,,,,,,,,,,,,,,,,,,,,,,,,,,,1314.409562049,None,1314.409562049,None,1314.409562049,None,r,1,1.1255528409999442,1315.959683985,None,1315.959683985,None,1315.959683985,None,1317.159615825,None,1317.159615825,None,1317.159615825,None,1317.159615825,None,,,,,,,,,,,,,,,,,,,,,,,,,,,,,,,,,,,,,,,,,,,,001,128,2020_Feb_18_0902,spring_faces,3.1.5,60.07096952541834,
condition files/Stage2_1.xlsx,,T5,B5,s,"['s', 'r']","['Stratego', 'Risk']","[-0.15, 0.5]","[0.15, 0.5]",1,1,,,,,,,,,,,,,,,,,0,4,4,4,0,1,1,0,,,,,,,,,,,,,,,,,,,,,,,,,,,,,,,,,,,,,,,,,,,,,,,1319.109383306,None,1319.109383306,None,1319.109383306,None,s,1,0.6819537879998734,1320.643263529,None,1320.643263529,None,1320.643263529,None,1321.379152052,None,1321.379152052,None,1321.379152052,None,1321.379152052,None,,,,,,,,,,,,,,,,,,,,,,,,,,,,,,,,,,,,,,,,,,,,001,128,2020_Feb_18_0902,spring_faces,3.1.5,60.07096952541834,
condition files/Stage2_1.xlsx,,T1,B1,s,"['s', 'r']","['Stratego', 'Risk']","[-0.15, 0.5]","[0.15, 0.5]",1,1,,,,,,,,,,,,,,,,,0,4,4,4,0,2,2,2,,,,,,,,,,,,,,,,,,,,,,,,,,,,,,,,,,,,,,,,,,,,,,,1323.342745588,None,1323.342745588,None,1323.342745588,None,s,1,0.9926570459999766,1324.892583845,None,1324.892583845,None,1324.892583845,None,1325.942957192,None,1325.942957192,None,1325.942957192,None,1325.942957192,None,,,,,,,,,,,,,,,,,,,,,,,,,,,,,,,,,,,,,,,,,,,,001,128,2020_Feb_18_0902,spring_faces,3.1.5,60.07096952541834,
condition files/Stage2_1.xlsx,,B6,T6,r,"['s', 'r']","['Stratego', 'Risk']","[-0.15, 0.5]","[0.15, 0.5]",1,1,,,,,,,,,,,,,,,,,0,4,4,4,0,3,3,1,,,,,,,,,,,,,,,,,,,,,,,,,,,,,,,,,,,,,,,,,,,,,,,1327.909051243,None,1327.909051243,None,1327.909051243,None,r,1,0.6825925119999283,1329.442606132,None,1329.442606132,None,1329.442606132,None,1330.176060495,None,1330.176060495,None,1330.176060495,None,1330.176060495,None,,,,,,,,,,,,,,,,,,,,,,,,,,,,,,,,,,,,,,,,,,,,001,128,2020_Feb_18_0902,spring_faces,3.1.5,60.07096952541834,
condition files/Stage2_1.xlsx,,T3,B3,s,"['s', 'r']","['Stratego', 'Risk']","[-0.15, 0.5]","[0.15, 0.5]",1,1,,,,,,,,,,,,,,,,,0,4,4,4,0,4,4,4,,,,,,,,,,,,,,,,,,,,,,,,,,,,,,,,,,,,,,,,,,,,,,,1332.142352004,None,1332.142352004,None,1332.142352004,None,s,1,3.0882247730000927,1333.692969048,None,1333.692969048,None,1333.692969048,None,1336.843875566,None,1336.843875566,None,1336.843875566,None,1336.843875566,None,,,,,,,,,,,,,,,,,,,,,,,,,,,,,,,,,,,,,,,,,,,,001,128,2020_Feb_18_0902,spring_faces,3.1.5,60.07096952541834,
condition files/Stage2_1.xlsx,,B2,T2,r,"['s', 'r']","['Stratego', 'Risk']","[-0.15, 0.5]","[0.15, 0.5]",1,1,,,,,,,,,,,,,,,,,0,4,4,4,0,5,5,3,,,,,,,,,,,,,,,,,,,,,,,,,,,,,,,,,,,,,,,,,,,,,,,1338.809564818,None,1338.809564818,None,1338.809564818,None,r,1,1.0943386199999168,1340.342819374,None,1340.342819374,None,1340.342819374,None,1341.495735216,None,1341.495735216,None,1341.495735216,None,1341.495735216,None,,,,,,,,,,,,,,,,,,,,,,,,,,,,,,,,,,,,,,,,,,,,001,128,2020_Feb_18_0902,spring_faces,3.1.5,60.07096952541834,
condition files/Stage2_2.xlsx,,T4,B4,r,"['s', 'r']","['Stratego', 'Risk']","[-0.15, 0.5]","[0.15, 0.5]",1,1,,,,,,,,,,,,,,,,,0,5,5,5,0,0,0,5,,,,,,,,,,,,,,,,,,,,,,,,,,,,,,,,,,,,,,,,,,,,,,,1343.476405915,None,1343.476405915,None,1343.476405915,None,s,0,0.9874928049998744,1345.009726443,None,1345.009726443,None,1345.009726443,None,1346.058983277,None,1346.058983277,None,1346.058983277,None,1346.058983277,None,,,,,,,,,,,,,,,,,,,,,,,,,,,,,,,,,,,,,,,,,,,,001,128,2020_Feb_18_0902,spring_faces,3.1.5,60.07096952541834,
condition files/Stage2_2.xlsx,,B1,T1,s,"['s', 'r']","['Stratego', 'Risk']","[-0.15, 0.5]","[0.15, 0.5]",1,1,,,,,,,,,,,,,,,,,0,5,5,5,0,1,1,2,,,,,,,,,,,,,,,,,,,,,,,,,,,,,,,,,,,,,,,,,,,,,,,1348.025895909,None,1348.025895909,None,1348.025895909,None,r,0,0.5633284109999295,1349.561889679,None,1349.561889679,None,1349.561889679,None,1350.1787814260001,None,1350.1787814260001,None,1350.1787814260001,None,1350.1787814260001,None,,,,,,,,,,,,,,,,,,,,,,,,,,,,,,,,,,,,,,,,,,,,001,128,2020_Feb_18_0902,spring_faces,3.1.5,60.07096952541834,
condition files/Stage2_2.xlsx,,T6,B6,r,"['s', 'r']","['Stratego', 'Risk']","[-0.15, 0.5]","[0.15, 0.5]",1,1,,,,,,,,,,,,,,,,,0,5,5,5,0,2,2,1,,,,,,,,,,,,,,,,,,,,,,,,,,,,,,,,,,,,,,,,,,,,,,,1352.142802041,None,1352.142802041,None,1352.142802041,None,r,1,1.7132054670000798,1353.675988284,None,1353.675988284,None,1353.675988284,None,1355.445576355,None,1355.445576355,None,1355.445576355,None,1355.445576355,None,,,,,,,,,,,,,,,,,,,,,,,,,,,,,,,,,,,,,,,,,,,,001,128,2020_Feb_18_0902,spring_faces,3.1.5,60.07096952541834,
condition files/Stage2_2.xlsx,,T2,B2,r,"['s', 'r']","['Stratego', 'Risk']","[-0.15, 0.5]","[0.15, 0.5]",1,1,,,,,,,,,,,,,,,,,0,5,5,5,0,3,3,3,,,,,,,,,,,,,,,,,,,,,,,,,,,,,,,,,,,,,,,,,,,,,,,1357.409485435,None,1357.409485435,None,1357.409485435,None,r,1,1.2942260140000599,1358.942965013,None,1358.942965013,None,1358.942965013,None,1360.292834789,None,1360.292834789,None,1360.292834789,None,1360.292834789,None,,,,,,,,,,,,,,,,,,,,,,,,,,,,,,,,,,,,,,,,,,,,001,128,2020_Feb_18_0902,spring_faces,3.1.5,60.07096952541834,
condition files/Stage2_2.xlsx,,B3,T3,s,"['s', 'r']","['Stratego', 'Risk']","[-0.15, 0.5]","[0.15, 0.5]",1,1,,,,,,,,,,,,,,,,,0,5,5,5,0,4,4,4,,,,,,,,,,,,,,,,,,,,,,,,,,,,,,,,,,,,,,,,,,,,,,,1362.258862205,None,1362.258862205,None,1362.258862205,None,r,0,1.4522225789999084,1363.792974075,None,1363.792974075,None,1363.792974075,None,1365.311877238,None,1365.311877238,None,1365.311877238,None,1365.311877238,None,,,,,,,,,,,,,,,,,,,,,,,,,,,,,,,,,,,,,,,,,,,,001,128,2020_Feb_18_0902,spring_faces,3.1.5,60.07096952541834,
condition files/Stage2_2.xlsx,,B5,T5,s,"['s', 'r']","['Stratego', 'Risk']","[-0.15, 0.5]","[0.15, 0.5]",1,1,,,,,,,,,,,,,,,,,0,5,5,5,0,5,5,0,,,,,,,,,,,,,,,,,,,,,,,,,,,,,,,,,,,,,,,,,,,,,,,1367.276030679,None,1367.276030679,None,1367.276030679,None,s,1,1.0270952060000127,1368.810098434,None,1368.810098434,None,1368.810098434,None,1369.892936461,None,1369.892936461,None,1369.892936461,None,1369.892936461,None,,,,,,,,,,,,,,,,,,,,,,,,,,,,,,,,,,,,,,,,,,,,001,128,2020_Feb_18_0902,spring_faces,3.1.5,60.07096952541834,
