condsFile,subStage,cue1,cue2,correct,responseKeys,responseNames,cue1Position,cue2Position,cue1Opacity,cue2Opacity,stageLoop0.thisRepN,stageLoop0.thisTrialN,stageLoop0.thisN,stageLoop0.thisIndex,blockLoop0.thisRepN,blockLoop0.thisTrialN,blockLoop0.thisN,blockLoop0.thisIndex,stage1Loop.thisRepN,stage1Loop.thisTrialN,stage1Loop.thisN,stage1Loop.thisIndex,blockLoop1.thisRepN,blockLoop1.thisTrialN,blockLoop1.thisN,blockLoop1.thisIndex,stage2Loop.thisRepN,stage2Loop.thisTrialN,stage2Loop.thisN,stage2Loop.thisIndex,blockLoop2.thisRepN,blockLoop2.thisTrialN,blockLoop2.thisN,blockLoop2.thisIndex,testLoop.thisRepN,testLoop.thisTrialN,testLoop.thisN,testLoop.thisIndex,blockLoopTest.thisRepN,blockLoopTest.thisTrialN,blockLoopTest.thisN,blockLoopTest.thisIndex,cuePics,id_instr_text.started,id_instr_text.stopped,space_to_continue_2.started,space_to_continue_2.stopped,end_instructions_resp_3.keys,end_instructions_resp_3.rt,end_instructions_resp_3.started,end_instructions_resp_3.stopped,id_input_instr.started,id_input_instr.stopped,id_input_rect.started,id_input_rect.stopped,id_input_resp.keys,id_input_resp.rt,id_input_resp.started,id_input_resp.stopped,sonaID,id_input_text.started,id_input_text.stopped,final_text.started,final_text.stopped,instructions.started,instructions.stopped,end_instructions_resp.keys,end_instructions_resp.rt,end_instructions_resp.started,end_instructions_resp.stopped,space_to_continue.started,space_to_continue.stopped,instructions_stage0.started,instructions_stage0.stopped,end_instructions_resp_stage0.keys,end_instructions_resp_stage0.rt,end_instructions_resp_stage0.started,end_instructions_resp_stage0.stopped,space_to_continue_stage0.started,space_to_continue_stage0.stopped,text.started,text.stopped,resp_text1.started,resp_text1.stopped,resp_text2.started,resp_text2.stopped,trial_resp.keys,trial_resp.corr,trial_resp.rt,trial_resp.started,trial_resp.stopped,cue1Image.started,cue1Image.stopped,cue2Image.started,cue2Image.stopped,cue1Image_fb.started,cue1Image_fb.stopped,cue2Image_fb.started,cue2Image_fb.stopped,fb_text_answer.started,fb_text_answer.stopped,feedback_image.started,feedback_image.stopped,instructions_stage1.started,instructions_stage1.stopped,end_instructions_resp_stage1.keys,end_instructions_resp_stage1.rt,end_instructions_resp_stage1.started,end_instructions_resp_stage1.stopped,space_to_continue_stage1.started,space_to_continue_stage1.stopped,instructions_2.started,instructions_2.stopped,end_instructions_resp_2.keys,end_instructions_resp_2.rt,end_instructions_resp_2.started,end_instructions_resp_2.stopped,press_space_to_continue_stage2.started,press_space_to_continue_stage2.stopped,instructions_testStage1.started,instructions_testStage1.stopped,end_instructions_resp_test1.keys,end_instructions_resp_test1.rt,end_instructions_resp_test1.started,end_instructions_resp_test1.stopped,press_space_to_continue_test1.started,press_space_to_continue_test1.stopped,cue1Image_testChoice.started,cue1Image_testChoice.stopped,cue2Image_testChoice.started,cue2Image_testChoice.stopped,test_resp.keys,test_resp.corr,test_resp.rt,test_resp.started,test_resp.stopped,cue1Image_testConf.started,cue1Image_testConf.stopped,cue2Image_testConf.started,cue2Image_testConf.stopped,conf_reminder.started,conf_reminder.stopped,conf_rating.response,conf_rating.rt,conf_rating.started,conf_rating.stopped,session,participant,date,expName,psychopyVersion,frameRate,
,,,,,,,,,,,,,,,,,,,,,,,,,,,,,,,,,,,,,,,,,,,"{'none': 'pictures/20M_AN_C.png', 'alpha': 'pictures/SHINEd_apple.png', 'beta': 'pictures/SHINEd_pepper.png', 'theta': 'pictures/SHINEd_melon.png', 'phi': 'pictures/SHINEd_pear.png', 'T1': 'pictures/38M_AN_C.png', 'T2': 'pictures/31M_AN_C.png', 'T3': 'pictures/26M_AN_C.png', 'T4': 'pictures/25M_AN_C.png', 'T5': 'pictures/22M_AN_C.png', 'T6': 'pictures/23M_AN_C.png', 'B1': 'pictures/32M_NE_C.png', 'B2': 'pictures/33M_NE_C.png', 'B3': 'pictures/36M_NE_C.png', 'B4': 'pictures/37M_NE_C.png', 'B5': 'pictures/20M_NE_C.png', 'B6': 'pictures/34M_NE_C.png'}",6287.853055066,None,6292.81931267,None,space,409.1061937860004,6292.81931267,None,,,,,,,,,,,,,,,,,,,,,,,,,,,,,,,,,,,,,,,,,,,,,,,,,,,,,,,,,,,,,,,,,,,,,,,,,,,,,,,,,,,,,,,,,,,,,,,,001,131,2020_Feb_18_1046,spring_faces,3.1.5,60.004108841344824,
,,,,,,,,,,,,,,,,,,,,,,,,,,,,,,,,,,,,,,,,,,,,,,,,,,,,6702.654171418,None,6702.654171418,None,"['1', '1', '2', '1', 'c', 'h', 's', 't', 's']","[6.19930267699965, 6.519357467000191, 12.263330580000002, 12.695262884999465, 13.751342001000012, 13.943283597000118, 23.23939505099952, 23.399272814000142, 23.495326874000057]",6702.654171418,None,,,,,,,,,,,,,,,,,,,,,,,,,,,,,,,,,,,,,,,,,,,,,,,,,,,,,,,,,,,,,,,,,,,,,,,,,,,,,,,,,,,,,,,,001,131,2020_Feb_18_1046,spring_faces,3.1.5,60.004108841344824,
,,,,,,,,,,,,,,,,,,,,,,,,,,,,,,,,,,,,,,,,,,,,,,,,,,,,,,,,,,,,1121chsts,6702.654171418,None,6702.654171418,None,6731.219779010999,None,space,4.314123698000003,6736.219380977,None,,,,,,,,,,,,,,,,,,,,,,,,,,,,,,,,,,,,,,,,,,,,,,,,,,,,,,,,,,,,,,,,,,,,,,,,,,,,,001,131,2020_Feb_18_1046,spring_faces,3.1.5,60.004108841344824,
,,,,,,,,,,,,,,,,,,,,,,,,,,,,,,,,,,,,,,,,,,,,,,,,,,,,,,,,,,,,,,,,,,,,,,,6736.219380977,None,6740.569454824,None,space,3.459836828000334,6745.569707451,None,,,,,,,,,,,,,,,,,,,,,,,,,,,,,,,,,,,,,,,,,,,,,,,,,,,,,,,,,,,,,,,,,,,,,001,131,2020_Feb_18_1046,spring_faces,3.1.5,60.004108841344824,
condition files/Stage0a.xlsx,0a,beta,none,g,"['h', 'g']","['Chess', 'Go']","[0, 0.5]","[0, 0]",1,0,0,0,0,0,0,0,0,1,,,,,,,,,,,,,,,,,,,,,,,,,,,,,,,,,,,,,,,,,,,,,,,,,,,,,,,,,,,,,6745.569707451,None,6749.186244152,None,6749.186244152,None,6749.186244152,None,h,0,3.0707552169997143,6750.902752568,None,6750.902752568,None,6750.902752568,None,6754.086077624,None,6754.086077624,None,6754.086077624,None,6754.086077624,None,,,,,,,,,,,,,,,,,,,,,,,,,,,,,,,,,,,,,,,,,,,,001,131,2020_Feb_18_1046,spring_faces,3.1.5,60.004108841344824,
condition files/Stage0a.xlsx,0a,alpha,none,h,"['h', 'g']","['Chess', 'Go']","[0, 0.5]","[0, 0]",1,0,0,0,0,0,0,1,1,0,,,,,,,,,,,,,,,,,,,,,,,,,,,,,,,,,,,,,,,,,,,,,,,,,,,,,,,,,,,,,,,6756.002587421,None,6756.002587421,None,6756.002587421,None,h,1,1.0600370629999816,6757.569516553,None,6757.569516553,None,6757.569516553,None,6758.702262063,None,6758.702262063,None,6758.702262063,None,6758.702262063,None,,,,,,,,,,,,,,,,,,,,,,,,,,,,,,,,,,,,,,,,,,,,001,131,2020_Feb_18_1046,spring_faces,3.1.5,60.004108841344824,
condition files/Stage0a.xlsx,0a,beta,none,g,"['h', 'g']","['Chess', 'Go']","[0, 0.5]","[0, 0]",1,0,0,1,1,1,0,0,0,1,,,,,,,,,,,,,,,,,,,,,,,,,,,,,,,,,,,,,,,,,,,,,,,,,,,,,,,,,,,,,,,6760.668861609,None,6760.668861609,None,6760.668861609,None,g,1,0.506677753999611,6762.202867976,None,6762.202867976,None,6762.202867976,None,6762.76904827,None,6762.76904827,None,6762.76904827,None,6762.76904827,None,,,,,,,,,,,,,,,,,,,,,,,,,,,,,,,,,,,,,,,,,,,,001,131,2020_Feb_18_1046,spring_faces,3.1.5,60.004108841344824,
condition files/Stage0a.xlsx,0a,alpha,none,h,"['h', 'g']","['Chess', 'Go']","[0, 0.5]","[0, 0]",1,0,0,1,1,1,0,1,1,0,,,,,,,,,,,,,,,,,,,,,,,,,,,,,,,,,,,,,,,,,,,,,,,,,,,,,,,,,,,,,,,6764.735936597,None,6764.735936597,None,6764.735936597,None,h,1,0.47208045499974105,6766.2694376869995,None,6766.2694376869995,None,6766.2694376869995,None,6766.802017221,None,6766.802017221,None,6766.802017221,None,6766.802017221,None,,,,,,,,,,,,,,,,,,,,,,,,,,,,,,,,,,,,,,,,,,,,001,131,2020_Feb_18_1046,spring_faces,3.1.5,60.004108841344824,
condition files/Stage0a.xlsx,0a,beta,none,g,"['h', 'g']","['Chess', 'Go']","[0, 0.5]","[0, 0]",1,0,0,2,2,2,0,0,0,1,,,,,,,,,,,,,,,,,,,,,,,,,,,,,,,,,,,,,,,,,,,,,,,,,,,,,,,,,,,,,,,6768.7859886549995,None,6768.7859886549995,None,6768.7859886549995,None,g,1,0.4389052520000405,6770.302592004,None,6770.302592004,None,6770.302592004,None,6770.803049687,None,6770.803049687,None,6770.803049687,None,6770.803049687,None,,,,,,,,,,,,,,,,,,,,,,,,,,,,,,,,,,,,,,,,,,,,001,131,2020_Feb_18_1046,spring_faces,3.1.5,60.004108841344824,
condition files/Stage0a.xlsx,0a,alpha,none,h,"['h', 'g']","['Chess', 'Go']","[0, 0.5]","[0, 0]",1,0,0,2,2,2,0,1,1,0,,,,,,,,,,,,,,,,,,,,,,,,,,,,,,,,,,,,,,,,,,,,,,,,,,,,,,,,,,,,,,,6772.769194856,None,6772.769194856,None,6772.769194856,None,h,1,0.63006793599925,6774.319469145,None,6774.319469145,None,6774.319469145,None,6775.00278456,None,6775.00278456,None,6775.00278456,None,6775.00278456,None,,,,,,,,,,,,,,,,,,,,,,,,,,,,,,,,,,,,,,,,,,,,001,131,2020_Feb_18_1046,spring_faces,3.1.5,60.004108841344824,
condition files/Stage0a.xlsx,0a,alpha,none,h,"['h', 'g']","['Chess', 'Go']","[0, 0.5]","[0, 0]",1,0,0,3,3,3,0,0,0,0,,,,,,,,,,,,,,,,,,,,,,,,,,,,,,,,,,,,,,,,,,,,,,,,,,,,,,,,,,,,,,,6776.985466416,None,6776.985466416,None,6776.985466416,None,h,1,0.6384831489995122,6778.519038531,None,6778.519038531,None,6778.519038531,None,6779.219505044,None,6779.219505044,None,6779.219505044,None,6779.219505044,None,,,,,,,,,,,,,,,,,,,,,,,,,,,,,,,,,,,,,,,,,,,,001,131,2020_Feb_18_1046,spring_faces,3.1.5,60.004108841344824,
condition files/Stage0a.xlsx,0a,beta,none,g,"['h', 'g']","['Chess', 'Go']","[0, 0.5]","[0, 0]",1,0,0,3,3,3,0,1,1,1,,,,,,,,,,,,,,,,,,,,,,,,,,,,,,,,,,,,,,,,,,,,,,,,,,,,,,,,,,,,,,,6781.185838351,None,6781.185838351,None,6781.185838351,None,g,1,0.46999691000019084,6782.719512088,None,6782.719512088,None,6782.719512088,None,6783.252587114,None,6783.252587114,None,6783.252587114,None,6783.252587114,None,,,,,,,,,,,,,,,,,,,,,,,,,,,,,,,,,,,,,,,,,,,,001,131,2020_Feb_18_1046,spring_faces,3.1.5,60.004108841344824,
condition files/Stage0a.xlsx,0a,alpha,none,h,"['h', 'g']","['Chess', 'Go']","[0, 0.5]","[0, 0]",1,0,0,4,4,4,0,0,0,0,,,,,,,,,,,,,,,,,,,,,,,,,,,,,,,,,,,,,,,,,,,,,,,,,,,,,,,,,,,,,,,6785.235606454,None,6785.235606454,None,6785.235606454,None,h,1,0.4200246659993354,6786.7534778419995,None,6786.7534778419995,None,6786.7534778419995,None,6787.235865368,None,6787.235865368,None,6787.235865368,None,6787.235865368,None,,,,,,,,,,,,,,,,,,,,,,,,,,,,,,,,,,,,,,,,,,,,001,131,2020_Feb_18_1046,spring_faces,3.1.5,60.004108841344824,
condition files/Stage0a.xlsx,0a,beta,none,g,"['h', 'g']","['Chess', 'Go']","[0, 0.5]","[0, 0]",1,0,0,4,4,4,0,1,1,1,,,,,,,,,,,,,,,,,,,,,,,,,,,,,,,,,,,,,,,,,,,,,,,,,,,,,,,,,,,,,,,6789.202562984,None,6789.202562984,None,6789.202562984,None,g,1,0.4540122819998942,6790.735488011,None,6790.735488011,None,6790.735488011,None,6791.252636868,None,6791.252636868,None,6791.252636868,None,6791.252636868,None,,,,,,,,,,,,,,,,,,,,,,,,,,,,,,,,,,,,,,,,,,,,001,131,2020_Feb_18_1046,spring_faces,3.1.5,60.004108841344824,
condition files/Stage0a.xlsx,0a,beta,none,g,"['h', 'g']","['Chess', 'Go']","[0, 0.5]","[0, 0]",1,0,0,5,5,5,0,0,0,1,,,,,,,,,,,,,,,,,,,,,,,,,,,,,,,,,,,,,,,,,,,,,,,,,,,,,,,,,,,,,,,6793.235661254,None,6793.235661254,None,6793.235661254,None,g,1,0.5317689659996176,6794.769707622,None,6794.769707622,None,6794.769707622,None,6795.352472921,None,6795.352472921,None,6795.352472921,None,6795.352472921,None,,,,,,,,,,,,,,,,,,,,,,,,,,,,,,,,,,,,,,,,,,,,001,131,2020_Feb_18_1046,spring_faces,3.1.5,60.004108841344824,
condition files/Stage0a.xlsx,0a,alpha,none,h,"['h', 'g']","['Chess', 'Go']","[0, 0.5]","[0, 0]",1,0,0,5,5,5,0,1,1,0,,,,,,,,,,,,,,,,,,,,,,,,,,,,,,,,,,,,,,,,,,,,,,,,,,,,,,,,,,,,,,,6797.319274678,None,6797.319274678,None,6797.319274678,None,h,1,0.49671579300047597,6798.852817158,None,6798.852817158,None,6798.852817158,None,6799.402494912,None,6799.402494912,None,6799.402494912,None,6799.402494912,None,,,,,,,,,,,,,,,,,,,,,,,,,,,,,,,,,,,,,,,,,,,,001,131,2020_Feb_18_1046,spring_faces,3.1.5,60.004108841344824,
condition files/Stage0b_1.xlsx,0b,none,beta,g,"['h', 'g']","['Chess', 'Go']","[-0.15, 0.5]","[0.15, 0.5]",0,1,0,6,6,6,0,0,0,1,,,,,,,,,,,,,,,,,,,,,,,,,,,,,,,,,,,,,,,,,,,,,,,,,,,,,,,,,,,,,,,6801.403234785,None,6801.403234785,None,6801.403234785,None,g,1,0.4776925520000077,6802.935807063,None,6802.935807063,None,6802.935807063,None,6803.4861553969995,None,6803.4861553969995,None,6803.4861553969995,None,6803.4861553969995,None,,,,,,,,,,,,,,,,,,,,,,,,,,,,,,,,,,,,,,,,,,,,001,131,2020_Feb_18_1046,spring_faces,3.1.5,60.004108841344824,
condition files/Stage0b_1.xlsx,0b,alpha,none,h,"['h', 'g']","['Chess', 'Go']","[-0.15, 0.5]","[0.15, 0.5]",1,0,0,6,6,6,0,1,1,0,,,,,,,,,,,,,,,,,,,,,,,,,,,,,,,,,,,,,,,,,,,,,,,,,,,,,,,,,,,,,,,6805.435968603,None,6805.435968603,None,6805.435968603,None,h,1,0.5183944649998011,6806.975151778,None,6806.975151778,None,6806.975151778,None,6807.555977295,None,6807.555977295,None,6807.555977295,None,6807.555977295,None,,,,,,,,,,,,,,,,,,,,,,,,,,,,,,,,,,,,,,,,,,,,001,131,2020_Feb_18_1046,spring_faces,3.1.5,60.004108841344824,
condition files/Stage0b_2.xlsx,0b,none,alpha,h,"['h', 'g']","['Chess', 'Go']","[-0.15, 0.5]","[0.15, 0.5]",0,1,0,7,7,7,0,0,0,0,,,,,,,,,,,,,,,,,,,,,,,,,,,,,,,,,,,,,,,,,,,,,,,,,,,,,,,,,,,,,,,6809.552278998,None,6809.552278998,None,6809.552278998,None,g,0,0.5641280570007439,6811.073333272,None,6811.073333272,None,6811.073333272,None,6811.736150684,None,6811.736150684,None,6811.736150684,None,6811.736150684,None,,,,,,,,,,,,,,,,,,,,,,,,,,,,,,,,,,,,,,,,,,,,001,131,2020_Feb_18_1046,spring_faces,3.1.5,60.004108841344824,
condition files/Stage0b_2.xlsx,0b,beta,none,g,"['h', 'g']","['Chess', 'Go']","[-0.15, 0.5]","[0.15, 0.5]",1,0,0,7,7,7,0,1,1,1,,,,,,,,,,,,,,,,,,,,,,,,,,,,,,,,,,,,,,,,,,,,,,,,,,,,,,,,,,,,,,,6813.6693192249995,None,6813.6693192249995,None,6813.6693192249995,None,g,1,0.46505857600004674,6815.204423025,None,6815.204423025,None,6815.204423025,None,6815.723480199,None,6815.723480199,None,6815.723480199,None,6815.723480199,None,,,,,,,,,,,,,,,,,,,,,,,,,,,,,,,,,,,,,,,,,,,,001,131,2020_Feb_18_1046,spring_faces,3.1.5,60.004108841344824,
condition files/Stage0b_1.xlsx,0b,alpha,none,h,"['h', 'g']","['Chess', 'Go']","[-0.15, 0.5]","[0.15, 0.5]",1,0,0,8,8,8,0,0,0,0,,,,,,,,,,,,,,,,,,,,,,,,,,,,,,,,,,,,,,,,,,,,,,,,,,,,,,,,,,,,,,,6817.70284704,None,6817.70284704,None,6817.70284704,None,h,1,0.5935176820003107,6819.236058442,None,6819.236058442,None,6819.236058442,None,6819.885105432,None,6819.885105432,None,6819.885105432,None,6819.885105432,None,,,,,,,,,,,,,,,,,,,,,,,,,,,,,,,,,,,,,,,,,,,,001,131,2020_Feb_18_1046,spring_faces,3.1.5,60.004108841344824,
condition files/Stage0b_1.xlsx,0b,none,beta,g,"['h', 'g']","['Chess', 'Go']","[-0.15, 0.5]","[0.15, 0.5]",0,1,0,8,8,8,0,1,1,1,,,,,,,,,,,,,,,,,,,,,,,,,,,,,,,,,,,,,,,,,,,,,,,,,,,,,,,,,,,,,,,6821.852482826,None,6821.852482826,None,6821.852482826,None,g,1,0.5839983180003401,6823.389523822,None,6823.389523822,None,6823.389523822,None,6824.037929628,None,6824.037929628,None,6824.037929628,None,6824.037929628,None,,,,,,,,,,,,,,,,,,,,,,,,,,,,,,,,,,,,,,,,,,,,001,131,2020_Feb_18_1046,spring_faces,3.1.5,60.004108841344824,
condition files/Stage0b_2.xlsx,0b,beta,none,g,"['h', 'g']","['Chess', 'Go']","[-0.15, 0.5]","[0.15, 0.5]",1,0,0,9,9,9,0,0,0,1,,,,,,,,,,,,,,,,,,,,,,,,,,,,,,,,,,,,,,,,,,,,,,,,,,,,,,,,,,,,,,,6826.019615268,None,6826.019615268,None,6826.019615268,None,g,1,0.4675087429995983,6827.554002225,None,6827.554002225,None,6827.554002225,None,6828.085578509,None,6828.085578509,None,6828.085578509,None,6828.085578509,None,,,,,,,,,,,,,,,,,,,,,,,,,,,,,,,,,,,,,,,,,,,,001,131,2020_Feb_18_1046,spring_faces,3.1.5,60.004108841344824,
condition files/Stage0b_2.xlsx,0b,none,alpha,h,"['h', 'g']","['Chess', 'Go']","[-0.15, 0.5]","[0.15, 0.5]",0,1,0,9,9,9,0,1,1,0,,,,,,,,,,,,,,,,,,,,,,,,,,,,,,,,,,,,,,,,,,,,,,,,,,,,,,,,,,,,,,,6830.05269765,None,6830.05269765,None,6830.05269765,None,h,1,0.35472380200008047,6831.602780921,None,6831.602780921,None,6831.602780921,None,6832.019054174,None,6832.019054174,None,6832.019054174,None,6832.019054174,None,,,,,,,,,,,,,,,,,,,,,,,,,,,,,,,,,,,,,,,,,,,,001,131,2020_Feb_18_1046,spring_faces,3.1.5,60.004108841344824,
condition files/Stage0b_1.xlsx,0b,alpha,none,h,"['h', 'g']","['Chess', 'Go']","[-0.15, 0.5]","[0.15, 0.5]",1,0,0,10,10,10,0,0,0,0,,,,,,,,,,,,,,,,,,,,,,,,,,,,,,,,,,,,,,,,,,,,,,,,,,,,,,,,,,,,,,,6834.002716116,None,6834.002716116,None,6834.002716116,None,h,1,0.35569470900009037,6835.537877921,None,6835.537877921,None,6835.537877921,None,6835.952486474,None,6835.952486474,None,6835.952486474,None,6835.952486474,None,,,,,,,,,,,,,,,,,,,,,,,,,,,,,,,,,,,,,,,,,,,,001,131,2020_Feb_18_1046,spring_faces,3.1.5,60.004108841344824,
condition files/Stage0b_1.xlsx,0b,none,beta,g,"['h', 'g']","['Chess', 'Go']","[-0.15, 0.5]","[0.15, 0.5]",0,1,0,10,10,10,0,1,1,1,,,,,,,,,,,,,,,,,,,,,,,,,,,,,,,,,,,,,,,,,,,,,,,,,,,,,,,,,,,,,,,6837.918979182,None,6837.918979182,None,6837.918979182,None,g,1,0.5031796720004422,6839.454322406,None,6839.454322406,None,6839.454322406,None,6840.019208558,None,6840.019208558,None,6840.019208558,None,6840.019208558,None,,,,,,,,,,,,,,,,,,,,,,,,,,,,,,,,,,,,,,,,,,,,001,131,2020_Feb_18_1046,spring_faces,3.1.5,60.004108841344824,
condition files/Stage0b_2.xlsx,0b,none,alpha,h,"['h', 'g']","['Chess', 'Go']","[-0.15, 0.5]","[0.15, 0.5]",0,1,0,11,11,11,0,0,0,0,,,,,,,,,,,,,,,,,,,,,,,,,,,,,,,,,,,,,,,,,,,,,,,,,,,,,,,,,,,,,,,6842.002355282,None,6842.002355282,None,6842.002355282,None,h,1,0.5660084379996988,6843.535566412,None,6843.535566412,None,6843.535566412,None,6844.152553579,None,6844.152553579,None,6844.152553579,None,6844.152553579,None,,,,,,,,,,,,,,,,,,,,,,,,,,,,,,,,,,,,,,,,,,,,001,131,2020_Feb_18_1046,spring_faces,3.1.5,60.004108841344824,
condition files/Stage0b_2.xlsx,0b,beta,none,g,"['h', 'g']","['Chess', 'Go']","[-0.15, 0.5]","[0.15, 0.5]",1,0,0,11,11,11,0,1,1,1,,,,,,,,,,,,,,,,,,,,,,,,,,,,,,,,,,,,,,,,,,,,,,,,,,,,,,,,,,,,,,,6846.119351534,None,6846.119351534,None,6846.119351534,None,g,1,0.42780339199998707,6847.6576727639995,None,6847.6576727639995,None,6847.6576727639995,None,6848.152699721,None,6848.152699721,None,6848.152699721,None,6848.152699721,None,,,,,,,,,,,,,,,,,,,,,,,,,,,,,,,,,,,,,,,,,,,,001,131,2020_Feb_18_1046,spring_faces,3.1.5,60.004108841344824,
condition files/Stage0c_1.xlsx,0c,phi,beta,g,"['h', 'g']","['Chess', 'Go']","[-0.15, 0.5]","[0.15, 0.5]",1,1,0,12,12,12,0,0,0,3,,,,,,,,,,,,,,,,,,,,,,,,,,,,,,,,,,,,,,,,,,,,,,,,,,,,,,,,,,,,,,,6850.135198672,None,6850.135198672,None,6850.135198672,None,g,1,1.8878940730000977,6851.685638234,None,6851.685638234,None,6851.685638234,None,6853.636490841,None,6853.636490841,None,6853.636490841,None,6853.636490841,None,,,,,,,,,,,,,,,,,,,,,,,,,,,,,,,,,,,,,,,,,,,,001,131,2020_Feb_18_1046,spring_faces,3.1.5,60.004108841344824,
condition files/Stage0c_1.xlsx,0c,beta,theta,g,"['h', 'g']","['Chess', 'Go']","[-0.15, 0.5]","[0.15, 0.5]",1,1,0,12,12,12,0,1,1,2,,,,,,,,,,,,,,,,,,,,,,,,,,,,,,,,,,,,,,,,,,,,,,,,,,,,,,,,,,,,,,,6855.6019434869995,None,6855.6019434869995,None,6855.6019434869995,None,g,1,1.5406963420000466,6857.152874122,None,6857.152874122,None,6857.152874122,None,6858.752632188,None,6858.752632188,None,6858.752632188,None,6858.752632188,None,,,,,,,,,,,,,,,,,,,,,,,,,,,,,,,,,,,,,,,,,,,,001,131,2020_Feb_18_1046,spring_faces,3.1.5,60.004108841344824,
condition files/Stage0c_1.xlsx,0c,alpha,phi,h,"['h', 'g']","['Chess', 'Go']","[-0.15, 0.5]","[0.15, 0.5]",1,1,0,12,12,12,0,2,2,1,,,,,,,,,,,,,,,,,,,,,,,,,,,,,,,,,,,,,,,,,,,,,,,,,,,,,,,,,,,,,,,6860.71939608,None,6860.71939608,None,6860.71939608,None,h,1,1.0807319900004586,6862.252746863,None,6862.252746863,None,6862.252746863,None,6863.386576977,None,6863.386576977,None,6863.386576977,None,6863.386576977,None,,,,,,,,,,,,,,,,,,,,,,,,,,,,,,,,,,,,,,,,,,,,001,131,2020_Feb_18_1046,spring_faces,3.1.5,60.004108841344824,
condition files/Stage0c_1.xlsx,0c,theta,alpha,h,"['h', 'g']","['Chess', 'Go']","[-0.15, 0.5]","[0.15, 0.5]",1,1,0,12,12,12,0,3,3,0,,,,,,,,,,,,,,,,,,,,,,,,,,,,,,,,,,,,,,,,,,,,,,,,,,,,,,,,,,,,,,,6865.35270793,None,6865.35270793,None,6865.35270793,None,h,1,0.9112726919993293,6866.886203569999,None,6866.886203569999,None,6866.886203569999,None,6867.853179949,None,6867.853179949,None,6867.853179949,None,6867.853179949,None,,,,,,,,,,,,,,,,,,,,,,,,,,,,,,,,,,,,,,,,,,,,001,131,2020_Feb_18_1046,spring_faces,3.1.5,60.004108841344824,
condition files/Stage0c_2.xlsx,0c,beta,phi,g,"['h', 'g']","['Chess', 'Go']","[-0.15, 0.5]","[0.15, 0.5]",1,1,0,13,13,13,0,0,0,3,,,,,,,,,,,,,,,,,,,,,,,,,,,,,,,,,,,,,,,,,,,,,,,,,,,,,,,,,,,,,,,6869.869546706,None,6869.869546706,None,6869.869546706,None,g,1,1.4525906830003805,6871.368910819,None,6871.368910819,None,6871.368910819,None,6872.885894794,None,6872.885894794,None,6872.885894794,None,6872.885894794,None,,,,,,,,,,,,,,,,,,,,,,,,,,,,,,,,,,,,,,,,,,,,001,131,2020_Feb_18_1046,spring_faces,3.1.5,60.004108841344824,
condition files/Stage0c_2.xlsx,0c,alpha,theta,h,"['h', 'g']","['Chess', 'Go']","[-0.15, 0.5]","[0.15, 0.5]",1,1,0,13,13,13,0,1,1,0,,,,,,,,,,,,,,,,,,,,,,,,,,,,,,,,,,,,,,,,,,,,,,,,,,,,,,,,,,,,,,,6874.852595368,None,6874.852595368,None,6874.852595368,None,h,1,1.0432735029999094,6876.386290538,None,6876.386290538,None,6876.386290538,None,6877.485921589,None,6877.485921589,None,6877.485921589,None,6877.485921589,None,,,,,,,,,,,,,,,,,,,,,,,,,,,,,,,,,,,,,,,,,,,,001,131,2020_Feb_18_1046,spring_faces,3.1.5,60.004108841344824,
condition files/Stage0c_2.xlsx,0c,phi,alpha,h,"['h', 'g']","['Chess', 'Go']","[-0.15, 0.5]","[0.15, 0.5]",1,1,0,13,13,13,0,2,2,1,,,,,,,,,,,,,,,,,,,,,,,,,,,,,,,,,,,,,,,,,,,,,,,,,,,,,,,,,,,,,,,6879.452052122,None,6879.452052122,None,6879.452052122,None,h,1,1.3553375639994556,6880.986160803,None,6880.986160803,None,6880.986160803,None,6882.389139226,None,6882.389139226,None,6882.389139226,None,6882.389139226,None,,,,,,,,,,,,,,,,,,,,,,,,,,,,,,,,,,,,,,,,,,,,001,131,2020_Feb_18_1046,spring_faces,3.1.5,60.004108841344824,
condition files/Stage0c_2.xlsx,0c,theta,beta,g,"['h', 'g']","['Chess', 'Go']","[-0.15, 0.5]","[0.15, 0.5]",1,1,0,13,13,13,0,3,3,2,,,,,,,,,,,,,,,,,,,,,,,,,,,,,,,,,,,,,,,,,,,,,,,,,,,,,,,,,,,,,,,6884.369306244,None,6884.369306244,None,6884.369306244,None,g,1,1.1745271610006967,6885.903027081,None,6885.903027081,None,6885.903027081,None,6887.135602172,None,6887.135602172,None,6887.135602172,None,6887.135602172,None,,,,,,,,,,,,,,,,,,,,,,,,,,,,,,,,,,,,,,,,,,,,001,131,2020_Feb_18_1046,spring_faces,3.1.5,60.004108841344824,
condition files/Stage0c_1.xlsx,0c,phi,beta,g,"['h', 'g']","['Chess', 'Go']","[-0.15, 0.5]","[0.15, 0.5]",1,1,0,14,14,14,0,0,0,3,,,,,,,,,,,,,,,,,,,,,,,,,,,,,,,,,,,,,,,,,,,,,,,,,,,,,,,,,,,,,,,6889.1189072,None,6889.1189072,None,6889.1189072,None,g,1,0.9047984070002713,6890.652717389999,None,6890.652717389999,None,6890.652717389999,None,6891.602647275,None,6891.602647275,None,6891.602647275,None,6891.602647275,None,,,,,,,,,,,,,,,,,,,,,,,,,,,,,,,,,,,,,,,,,,,,001,131,2020_Feb_18_1046,spring_faces,3.1.5,60.004108841344824,
condition files/Stage0c_1.xlsx,0c,alpha,phi,h,"['h', 'g']","['Chess', 'Go']","[-0.15, 0.5]","[0.15, 0.5]",1,1,0,14,14,14,0,1,1,1,,,,,,,,,,,,,,,,,,,,,,,,,,,,,,,,,,,,,,,,,,,,,,,,,,,,,,,,,,,,,,,6893.586170972,None,6893.586170972,None,6893.586170972,None,h,1,0.9020134100001087,6895.119481021,None,6895.119481021,None,6895.119481021,None,6896.086368688,None,6896.086368688,None,6896.086368688,None,6896.086368688,None,,,,,,,,,,,,,,,,,,,,,,,,,,,,,,,,,,,,,,,,,,,,001,131,2020_Feb_18_1046,spring_faces,3.1.5,60.004108841344824,
condition files/Stage0c_1.xlsx,0c,theta,alpha,h,"['h', 'g']","['Chess', 'Go']","[-0.15, 0.5]","[0.15, 0.5]",1,1,0,14,14,14,0,2,2,0,,,,,,,,,,,,,,,,,,,,,,,,,,,,,,,,,,,,,,,,,,,,,,,,,,,,,,,,,,,,,,,6898.052795443,None,6898.052795443,None,6898.052795443,None,h,1,0.6597209359997578,6899.585811832,None,6899.585811832,None,6899.585811832,None,6900.286658008999,None,6900.286658008999,None,6900.286658008999,None,6900.286658008999,None,,,,,,,,,,,,,,,,,,,,,,,,,,,,,,,,,,,,,,,,,,,,001,131,2020_Feb_18_1046,spring_faces,3.1.5,60.004108841344824,
condition files/Stage0c_1.xlsx,0c,beta,theta,g,"['h', 'g']","['Chess', 'Go']","[-0.15, 0.5]","[0.15, 0.5]",1,1,0,14,14,14,0,3,3,2,,,,,,,,,,,,,,,,,,,,,,,,,,,,,,,,,,,,,,,,,,,,,,,,,,,,,,,,,,,,,,,6902.269111335,None,6902.269111335,None,6902.269111335,None,g,1,0.6344754319998174,6903.80299177,None,6903.80299177,None,6903.80299177,None,6904.50262088,None,6904.50262088,None,6904.50262088,None,6904.50262088,None,,,,,,,,,,,,,,,,,,,,,,,,,,,,,,,,,,,,,,,,,,,,001,131,2020_Feb_18_1046,spring_faces,3.1.5,60.004108841344824,
condition files/Stage0c_2.xlsx,0c,beta,phi,g,"['h', 'g']","['Chess', 'Go']","[-0.15, 0.5]","[0.15, 0.5]",1,1,0,15,15,15,0,0,0,3,,,,,,,,,,,,,,,,,,,,,,,,,,,,,,,,,,,,,,,,,,,,,,,,,,,,,,,,,,,,,,,6906.486256653,None,6906.486256653,None,6906.486256653,None,g,1,0.5936326649998591,6908.019868586,None,6908.019868586,None,6908.019868586,None,6908.654397831,None,6908.654397831,None,6908.654397831,None,6908.654397831,None,,,,,,,,,,,,,,,,,,,,,,,,,,,,,,,,,,,,,,,,,,,,001,131,2020_Feb_18_1046,spring_faces,3.1.5,60.004108841344824,
condition files/Stage0c_2.xlsx,0c,phi,alpha,h,"['h', 'g']","['Chess', 'Go']","[-0.15, 0.5]","[0.15, 0.5]",1,1,0,15,15,15,0,1,1,1,,,,,,,,,,,,,,,,,,,,,,,,,,,,,,,,,,,,,,,,,,,,,,,,,,,,,,,,,,,,,,,6910.635399274,None,6910.635399274,None,6910.635399274,None,h,1,0.7638360930004637,6912.169654727,None,6912.169654727,None,6912.169654727,None,6912.985979709,None,6912.985979709,None,6912.985979709,None,6912.985979709,None,,,,,,,,,,,,,,,,,,,,,,,,,,,,,,,,,,,,,,,,,,,,001,131,2020_Feb_18_1046,spring_faces,3.1.5,60.004108841344824,
condition files/Stage0c_2.xlsx,0c,theta,beta,g,"['h', 'g']","['Chess', 'Go']","[-0.15, 0.5]","[0.15, 0.5]",1,1,0,15,15,15,0,2,2,2,,,,,,,,,,,,,,,,,,,,,,,,,,,,,,,,,,,,,,,,,,,,,,,,,,,,,,,,,,,,,,,6914.952270662,None,6914.952270662,None,6914.952270662,None,g,1,0.6718147500005216,6916.485693385,None,6916.485693385,None,6916.485693385,None,6917.219524883,None,6917.219524883,None,6917.219524883,None,6917.219524883,None,,,,,,,,,,,,,,,,,,,,,,,,,,,,,,,,,,,,,,,,,,,,001,131,2020_Feb_18_1046,spring_faces,3.1.5,60.004108841344824,
condition files/Stage0c_2.xlsx,0c,alpha,theta,h,"['h', 'g']","['Chess', 'Go']","[-0.15, 0.5]","[0.15, 0.5]",1,1,0,15,15,15,0,3,3,0,,,,,,,,,,,,,,,,,,,,,,,,,,,,,,,,,,,,,,,,,,,,,,,,,,,,,,,,,,,,,,,6919.185928134,None,6919.185928134,None,6919.185928134,None,h,1,0.6304114149997986,6920.719179379,None,6920.719179379,None,6920.719179379,None,6921.4023930719995,None,6921.4023930719995,None,6921.4023930719995,None,6921.4023930719995,None,,,,,,,,,,,,,,,,,,,,,,,,,,,,,,,,,,,,,,,,,,,,001,131,2020_Feb_18_1046,spring_faces,3.1.5,60.004108841344824,
condition files/Stage0c_1.xlsx,0c,beta,theta,g,"['h', 'g']","['Chess', 'Go']","[-0.15, 0.5]","[0.15, 0.5]",1,1,0,16,16,16,0,0,0,2,,,,,,,,,,,,,,,,,,,,,,,,,,,,,,,,,,,,,,,,,,,,,,,,,,,,,,,,,,,,,,,6923.38568547,None,6923.38568547,None,6923.38568547,None,g,1,0.7343097410002883,6924.9191382829995,None,6924.9191382829995,None,6924.9191382829995,None,6925.719191551,None,6925.719191551,None,6925.719191551,None,6925.719191551,None,,,,,,,,,,,,,,,,,,,,,,,,,,,,,,,,,,,,,,,,,,,,001,131,2020_Feb_18_1046,spring_faces,3.1.5,60.004108841344824,
condition files/Stage0c_1.xlsx,0c,phi,beta,g,"['h', 'g']","['Chess', 'Go']","[-0.15, 0.5]","[0.15, 0.5]",1,1,0,16,16,16,0,1,1,3,,,,,,,,,,,,,,,,,,,,,,,,,,,,,,,,,,,,,,,,,,,,,,,,,,,,,,,,,,,,,,,6927.685500465,None,6927.685500465,None,6927.685500465,None,g,1,1.0899810259998048,6929.219513573,None,6929.219513573,None,6929.219513573,None,6930.353155171,None,6930.353155171,None,6930.353155171,None,6930.353155171,None,,,,,,,,,,,,,,,,,,,,,,,,,,,,,,,,,,,,,,,,,,,,001,131,2020_Feb_18_1046,spring_faces,3.1.5,60.004108841344824,
condition files/Stage0c_1.xlsx,0c,alpha,phi,h,"['h', 'g']","['Chess', 'Go']","[-0.15, 0.5]","[0.15, 0.5]",1,1,0,16,16,16,0,2,2,1,,,,,,,,,,,,,,,,,,,,,,,,,,,,,,,,,,,,,,,,,,,,,,,,,,,,,,,,,,,,,,,6932.3359190599995,None,6932.3359190599995,None,6932.3359190599995,None,h,1,0.4723027000000002,6933.869205723,None,6933.869205723,None,6933.869205723,None,6934.402834836,None,6934.402834836,None,6934.402834836,None,6934.402834836,None,,,,,,,,,,,,,,,,,,,,,,,,,,,,,,,,,,,,,,,,,,,,001,131,2020_Feb_18_1046,spring_faces,3.1.5,60.004108841344824,
condition files/Stage0c_1.xlsx,0c,theta,alpha,h,"['h', 'g']","['Chess', 'Go']","[-0.15, 0.5]","[0.15, 0.5]",1,1,0,16,16,16,0,3,3,0,,,,,,,,,,,,,,,,,,,,,,,,,,,,,,,,,,,,,,,,,,,,,,,,,,,,,,,,,,,,,,,6936.369309687,None,6936.369309687,None,6936.369309687,None,h,1,0.7105907739996837,6937.902901888,None,6937.902901888,None,6937.902901888,None,6938.654813996,None,6938.654813996,None,6938.654813996,None,6938.654813996,None,,,,,,,,,,,,,,,,,,,,,,,,,,,,,,,,,,,,,,,,,,,,001,131,2020_Feb_18_1046,spring_faces,3.1.5,60.004108841344824,
condition files/Stage0c_2.xlsx,0c,alpha,theta,h,"['h', 'g']","['Chess', 'Go']","[-0.15, 0.5]","[0.15, 0.5]",1,1,0,17,17,17,0,0,0,0,,,,,,,,,,,,,,,,,,,,,,,,,,,,,,,,,,,,,,,,,,,,,,,,,,,,,,,,,,,,,,,6940.652934704,None,6940.652934704,None,6940.652934704,None,h,1,0.8916029209995031,6942.185962935,None,6942.185962935,None,6942.185962935,None,6943.122112601,None,6943.122112601,None,6943.122112601,None,6943.122112601,None,,,,,,,,,,,,,,,,,,,,,,,,,,,,,,,,,,,,,,,,,,,,001,131,2020_Feb_18_1046,spring_faces,3.1.5,60.004108841344824,
condition files/Stage0c_2.xlsx,0c,theta,beta,g,"['h', 'g']","['Chess', 'Go']","[-0.15, 0.5]","[0.15, 0.5]",1,1,0,17,17,17,0,1,1,2,,,,,,,,,,,,,,,,,,,,,,,,,,,,,,,,,,,,,,,,,,,,,,,,,,,,,,,,,,,,,,,6945.101994159,None,6945.101994159,None,6945.101994159,None,g,1,0.6332514109999465,6946.63620266,None,6946.63620266,None,6946.63620266,None,6947.319222456,None,6947.319222456,None,6947.319222456,None,6947.319222456,None,,,,,,,,,,,,,,,,,,,,,,,,,,,,,,,,,,,,,,,,,,,,001,131,2020_Feb_18_1046,spring_faces,3.1.5,60.004108841344824,
condition files/Stage0c_2.xlsx,0c,beta,phi,g,"['h', 'g']","['Chess', 'Go']","[-0.15, 0.5]","[0.15, 0.5]",1,1,0,17,17,17,0,2,2,3,,,,,,,,,,,,,,,,,,,,,,,,,,,,,,,,,,,,,,,,,,,,,,,,,,,,,,,,,,,,,,,6949.286031473,None,6949.286031473,None,6949.286031473,None,g,1,0.737958142000025,6950.819543907,None,6950.819543907,None,6950.819543907,None,6951.602559399,None,6951.602559399,None,6951.602559399,None,6951.602559399,None,,,,,,,,,,,,,,,,,,,,,,,,,,,,,,,,,,,,,,,,,,,,001,131,2020_Feb_18_1046,spring_faces,3.1.5,60.004108841344824,
condition files/Stage0c_2.xlsx,0c,phi,alpha,h,"['h', 'g']","['Chess', 'Go']","[-0.15, 0.5]","[0.15, 0.5]",1,1,0,17,17,17,0,3,3,1,,,,,,,,,,,,,,,,,,,,,,,,,,,,,,,,,,,,,,,,,,,,,,,,,,,,,,,,,,,,,,,6953.5860929479995,None,6953.5860929479995,None,6953.5860929479995,None,h,1,0.6940630930002953,6955.119503175,None,6955.119503175,None,6955.119503175,None,6955.8694770229995,None,6955.8694770229995,None,6955.8694770229995,None,6955.8694770229995,None,,,,,,,,,,,,,,,,,,,,,,,,,,,,,,,,,,,,,,,,,,,,001,131,2020_Feb_18_1046,spring_faces,3.1.5,60.004108841344824,
,,,,,,,,,,,,,,,,,,,,,,,,,,,,,,,,,,,,,,,,,,,,,,,,,,,,,,,,,,,,,,,,,,,,,,,,,,,,,,,,,,,,,,,,,,,,,,,,,,,,,,,,6957.852969238,None,space,0.5447558139994726,6962.852711661,None,,,,,,,,,,,,,,,,,,,,,,,,,,,,,,,,,,,,,,001,131,2020_Feb_18_1046,spring_faces,3.1.5,60.004108841344824,
condition files/Stage1_1.xlsx,,B1,T2,c,"['c', 'm']","['Clue', 'Monopoly']","[-0.15, 0.5]","[0.15, 0.5]",1,1,,,,,,,,,0,0,0,0,0,0,0,1,,,,,,,,,,,,,,,,,,,,,,,,,,,,,,,,,,,,,,,,,,,,,,,,,,,,,,,6963.5028358459995,None,6963.5028358459995,None,6963.5028358459995,None,c,1,1.850115432000166,6965.019342875,None,6965.019342875,None,6965.019342875,None,6966.952581972,None,6966.952581972,None,6966.952581972,None,6966.952581972,None,,,,,,,6962.852711661,None,,,,,,,,,,,,,,,,,,,,,,,,,,,,,,,,,,,,001,131,2020_Feb_18_1046,spring_faces,3.1.5,60.004108841344824,
condition files/Stage1_1.xlsx,,T3,B4,c,"['c', 'm']","['Clue', 'Monopoly']","[-0.15, 0.5]","[0.15, 0.5]",1,1,,,,,,,,,0,0,0,0,0,1,1,5,,,,,,,,,,,,,,,,,,,,,,,,,,,,,,,,,,,,,,,,,,,,,,,,,,,,,,,6968.902580552,None,6968.902580552,None,6968.902580552,None,c,1,1.8066413400001693,6970.470929542,None,6970.470929542,None,6970.470929542,None,6972.335571832999,None,6972.335571832999,None,6972.335571832999,None,6972.335571832999,None,,,,,,,,,,,,,,,,,,,,,,,,,,,,,,,,,,,,,,,,,,,,001,131,2020_Feb_18_1046,spring_faces,3.1.5,60.004108841344824,
condition files/Stage1_1.xlsx,,T2,B2,m,"['c', 'm']","['Clue', 'Monopoly']","[-0.15, 0.5]","[0.15, 0.5]",1,1,,,,,,,,,0,0,0,0,0,2,2,3,,,,,,,,,,,,,,,,,,,,,,,,,,,,,,,,,,,,,,,,,,,,,,,,,,,,,,,6974.302592922,None,6974.302592922,None,6974.302592922,None,c,0,1.1276923719997285,6975.86972245,None,6975.86972245,None,6975.86972245,None,6977.086071494,None,6977.086071494,None,6977.086071494,None,6977.086071494,None,,,,,,,,,,,,,,,,,,,,,,,,,,,,,,,,,,,,,,,,,,,,001,131,2020_Feb_18_1046,spring_faces,3.1.5,60.004108841344824,
condition files/Stage1_1.xlsx,,T1,B1,c,"['c', 'm']","['Clue', 'Monopoly']","[-0.15, 0.5]","[0.15, 0.5]",1,1,,,,,,,,,0,0,0,0,0,3,3,0,,,,,,,,,,,,,,,,,,,,,,,,,,,,,,,,,,,,,,,,,,,,,,,,,,,,,,,6979.0192590199995,None,6979.0192590199995,None,6979.0192590199995,None,m,0,1.403191873000651,6980.586313139,None,6980.586313139,None,6980.586313139,None,6982.0695632,None,6982.0695632,None,6982.0695632,None,6982.0695632,None,,,,,,,,,,,,,,,,,,,,,,,,,,,,,,,,,,,,,,,,,,,,001,131,2020_Feb_18_1046,spring_faces,3.1.5,60.004108841344824,
condition files/Stage1_1.xlsx,,B2,T1,m,"['c', 'm']","['Clue', 'Monopoly']","[-0.15, 0.5]","[0.15, 0.5]",1,1,,,,,,,,,0,0,0,0,0,4,4,2,,,,,,,,,,,,,,,,,,,,,,,,,,,,,,,,,,,,,,,,,,,,,,,,,,,,,,,6984.019231616,None,6984.019231616,None,6984.019231616,None,m,1,1.6209432369996648,6985.552573222,None,6985.552573222,None,6985.552573222,None,6987.238773821,None,6987.238773821,None,6987.238773821,None,6987.238773821,None,,,,,,,,,,,,,,,,,,,,,,,,,,,,,,,,,,,,,,,,,,,,001,131,2020_Feb_18_1046,spring_faces,3.1.5,60.004108841344824,
condition files/Stage1_1.xlsx,,B4,T4,m,"['c', 'm']","['Clue', 'Monopoly']","[-0.15, 0.5]","[0.15, 0.5]",1,1,,,,,,,,,0,0,0,0,0,5,5,7,,,,,,,,,,,,,,,,,,,,,,,,,,,,,,,,,,,,,,,,,,,,,,,,,,,,,,,6989.202596466,None,6989.202596466,None,6989.202596466,None,m,1,1.5232938389999617,6990.7702773989995,None,6990.7702773989995,None,6990.7702773989995,None,6992.352483637,None,6992.352483637,None,6992.352483637,None,6992.352483637,None,,,,,,,,,,,,,,,,,,,,,,,,,,,,,,,,,,,,,,,,,,,,001,131,2020_Feb_18_1046,spring_faces,3.1.5,60.004108841344824,
condition files/Stage1_1.xlsx,,B3,T3,c,"['c', 'm']","['Clue', 'Monopoly']","[-0.15, 0.5]","[0.15, 0.5]",1,1,,,,,,,,,0,0,0,0,0,6,6,4,,,,,,,,,,,,,,,,,,,,,,,,,,,,,,,,,,,,,,,,,,,,,,,,,,,,,,,6994.3191813759995,None,6994.3191813759995,None,6994.3191813759995,None,m,0,0.854681982999864,6995.902829153,None,6995.902829153,None,6995.902829153,None,6996.820386053,None,6996.820386053,None,6996.820386053,None,6996.820386053,None,,,,,,,,,,,,,,,,,,,,,,,,,,,,,,,,,,,,,,,,,,,,001,131,2020_Feb_18_1046,spring_faces,3.1.5,60.004108841344824,
condition files/Stage1_1.xlsx,,T4,B3,m,"['c', 'm']","['Clue', 'Monopoly']","[-0.15, 0.5]","[0.15, 0.5]",1,1,,,,,,,,,0,0,0,0,0,7,7,6,,,,,,,,,,,,,,,,,,,,,,,,,,,,,,,,,,,,,,,,,,,,,,,,,,,,,,,6998.785674614,None,6998.785674614,None,6998.785674614,None,c,0,1.301635841999996,7000.33581211,None,7000.33581211,None,7000.33581211,None,7001.719262492,None,7001.719262492,None,7001.719262492,None,7001.719262492,None,,,,,,,,,,,,,,,,,,,,,,,,,,,,,,,,,,,,,,,,,,,,001,131,2020_Feb_18_1046,spring_faces,3.1.5,60.004108841344824,
condition files/Stage1_2.xlsx,,T3,B3,c,"['c', 'm']","['Clue', 'Monopoly']","[-0.15, 0.5]","[0.15, 0.5]",1,1,,,,,,,,,0,1,1,1,0,0,0,4,,,,,,,,,,,,,,,,,,,,,,,,,,,,,,,,,,,,,,,,,,,,,,,,,,,,,,,7003.702582482,None,7003.702582482,None,7003.702582482,None,c,1,0.8980094420003297,7005.235495453,None,7005.235495453,None,7005.235495453,None,7006.202830992,None,7006.202830992,None,7006.202830992,None,7006.202830992,None,,,,,,,,,,,,,,,,,,,,,,,,,,,,,,,,,,,,,,,,,,,,001,131,2020_Feb_18_1046,spring_faces,3.1.5,60.004108841344824,
condition files/Stage1_2.xlsx,,T4,B4,m,"['c', 'm']","['Clue', 'Monopoly']","[-0.15, 0.5]","[0.15, 0.5]",1,1,,,,,,,,,0,1,1,1,0,1,1,7,,,,,,,,,,,,,,,,,,,,,,,,,,,,,,,,,,,,,,,,,,,,,,,,,,,,,,,7008.152818996,None,7008.152818996,None,7008.152818996,None,c,0,1.0065667039998516,7009.702992755,None,7009.702992755,None,7009.702992755,None,7010.771005542,None,7010.771005542,None,7010.771005542,None,7010.771005542,None,,,,,,,,,,,,,,,,,,,,,,,,,,,,,,,,,,,,,,,,,,,,001,131,2020_Feb_18_1046,spring_faces,3.1.5,60.004108841344824,
condition files/Stage1_2.xlsx,,T2,B1,c,"['c', 'm']","['Clue', 'Monopoly']","[-0.15, 0.5]","[0.15, 0.5]",1,1,,,,,,,,,0,1,1,1,0,2,2,1,,,,,,,,,,,,,,,,,,,,,,,,,,,,,,,,,,,,,,,,,,,,,,,,,,,,,,,7012.735342428,None,7012.735342428,None,7012.735342428,None,c,1,1.159408534999784,7014.286123304,None,7014.286123304,None,7014.286123304,None,7015.5196098139995,None,7015.5196098139995,None,7015.5196098139995,None,7015.5196098139995,None,,,,,,,,,,,,,,,,,,,,,,,,,,,,,,,,,,,,,,,,,,,,001,131,2020_Feb_18_1046,spring_faces,3.1.5,60.004108841344824,
condition files/Stage1_2.xlsx,,T1,B2,m,"['c', 'm']","['Clue', 'Monopoly']","[-0.15, 0.5]","[0.15, 0.5]",1,1,,,,,,,,,0,1,1,1,0,3,3,2,,,,,,,,,,,,,,,,,,,,,,,,,,,,,,,,,,,,,,,,,,,,,,,,,,,,,,,7017.4688133909995,None,7017.4688133909995,None,7017.4688133909995,None,c,0,1.6408787069995014,7019.004690418,None,7019.004690418,None,7019.004690418,None,7020.703348161,None,7020.703348161,None,7020.703348161,None,7020.703348161,None,,,,,,,,,,,,,,,,,,,,,,,,,,,,,,,,,,,,,,,,,,,,001,131,2020_Feb_18_1046,spring_faces,3.1.5,60.004108841344824,
condition files/Stage1_2.xlsx,,B4,T3,c,"['c', 'm']","['Clue', 'Monopoly']","[-0.15, 0.5]","[0.15, 0.5]",1,1,,,,,,,,,0,1,1,1,0,4,4,5,,,,,,,,,,,,,,,,,,,,,,,,,,,,,,,,,,,,,,,,,,,,,,,,,,,,,,,7022.668747056,None,7022.668747056,None,7022.668747056,None,m,0,0.9059455500000695,7024.219620186,None,7024.219620186,None,7024.219620186,None,7025.186588312,None,7025.186588312,None,7025.186588312,None,7025.186588312,None,,,,,,,,,,,,,,,,,,,,,,,,,,,,,,,,,,,,,,,,,,,,001,131,2020_Feb_18_1046,spring_faces,3.1.5,60.004108841344824,
condition files/Stage1_2.xlsx,,B1,T1,c,"['c', 'm']","['Clue', 'Monopoly']","[-0.15, 0.5]","[0.15, 0.5]",1,1,,,,,,,,,0,1,1,1,0,5,5,0,,,,,,,,,,,,,,,,,,,,,,,,,,,,,,,,,,,,,,,,,,,,,,,,,,,,,,,7027.152133634,None,7027.152133634,None,7027.152133634,None,m,0,0.5505652769998051,7028.702888553,None,7028.702888553,None,7028.702888553,None,7029.318941492,None,7029.318941492,None,7029.318941492,None,7029.318941492,None,,,,,,,,,,,,,,,,,,,,,,,,,,,,,,,,,,,,,,,,,,,,001,131,2020_Feb_18_1046,spring_faces,3.1.5,60.004108841344824,
condition files/Stage1_2.xlsx,,B3,T4,m,"['c', 'm']","['Clue', 'Monopoly']","[-0.15, 0.5]","[0.15, 0.5]",1,1,,,,,,,,,0,1,1,1,0,6,6,6,,,,,,,,,,,,,,,,,,,,,,,,,,,,,,,,,,,,,,,,,,,,,,,,,,,,,,,7031.286133691,None,7031.286133691,None,7031.286133691,None,m,1,0.8333340350000071,7032.836120849,None,7032.836120849,None,7032.836120849,None,7033.753158875,None,7033.753158875,None,7033.753158875,None,7033.753158875,None,,,,,,,,,,,,,,,,,,,,,,,,,,,,,,,,,,,,,,,,,,,,001,131,2020_Feb_18_1046,spring_faces,3.1.5,60.004108841344824,
condition files/Stage1_2.xlsx,,B2,T2,m,"['c', 'm']","['Clue', 'Monopoly']","[-0.15, 0.5]","[0.15, 0.5]",1,1,,,,,,,,,0,1,1,1,0,7,7,3,,,,,,,,,,,,,,,,,,,,,,,,,,,,,,,,,,,,,,,,,,,,,,,,,,,,,,,7035.702602941,None,7035.702602941,None,7035.702602941,None,m,1,1.1034418950002873,7037.238075075,None,7037.238075075,None,7037.238075075,None,7038.402697017,None,7038.402697017,None,7038.402697017,None,7038.402697017,None,,,,,,,,,,,,,,,,,,,,,,,,,,,,,,,,,,,,,,,,,,,,001,131,2020_Feb_18_1046,spring_faces,3.1.5,60.004108841344824,
condition files/Stage1_1.xlsx,,T4,B3,m,"['c', 'm']","['Clue', 'Monopoly']","[-0.15, 0.5]","[0.15, 0.5]",1,1,,,,,,,,,0,2,2,2,0,0,0,6,,,,,,,,,,,,,,,,,,,,,,,,,,,,,,,,,,,,,,,,,,,,,,,,,,,,,,,7040.386149832,None,7040.386149832,None,7040.386149832,None,c,0,1.013542564999625,7041.9359764969995,None,7041.9359764969995,None,7041.9359764969995,None,7043.002513912,None,7043.002513912,None,7043.002513912,None,7043.002513912,None,,,,,,,,,,,,,,,,,,,,,,,,,,,,,,,,,,,,,,,,,,,,001,131,2020_Feb_18_1046,spring_faces,3.1.5,60.004108841344824,
condition files/Stage1_1.xlsx,,B3,T3,c,"['c', 'm']","['Clue', 'Monopoly']","[-0.15, 0.5]","[0.15, 0.5]",1,1,,,,,,,,,0,2,2,2,0,1,1,4,,,,,,,,,,,,,,,,,,,,,,,,,,,,,,,,,,,,,,,,,,,,,,,,,,,,,,,7044.968491776,None,7044.968491776,None,7044.968491776,None,c,1,1.1179166410001926,7046.51952483,None,7046.51952483,None,7046.51952483,None,7047.704363069,None,7047.704363069,None,7047.704363069,None,7047.704363069,None,,,,,,,,,,,,,,,,,,,,,,,,,,,,,,,,,,,,,,,,,,,,001,131,2020_Feb_18_1046,spring_faces,3.1.5,60.004108841344824,
condition files/Stage1_1.xlsx,,B1,T2,c,"['c', 'm']","['Clue', 'Monopoly']","[-0.15, 0.5]","[0.15, 0.5]",1,1,,,,,,,,,0,2,2,2,0,2,2,1,,,,,,,,,,,,,,,,,,,,,,,,,,,,,,,,,,,,,,,,,,,,,,,,,,,,,,,7049.669271854,None,7049.669271854,None,7049.669271854,None,m,0,2.016507274000105,7051.204950954,None,7051.204950954,None,7051.204950954,None,7053.286387284,None,7053.286387284,None,7053.286387284,None,7053.286387284,None,,,,,,,,,,,,,,,,,,,,,,,,,,,,,,,,,,,,,,,,,,,,001,131,2020_Feb_18_1046,spring_faces,3.1.5,60.004108841344824,
condition files/Stage1_1.xlsx,,T1,B1,c,"['c', 'm']","['Clue', 'Monopoly']","[-0.15, 0.5]","[0.15, 0.5]",1,1,,,,,,,,,0,2,2,2,0,3,3,0,,,,,,,,,,,,,,,,,,,,,,,,,,,,,,,,,,,,,,,,,,,,,,,,,,,,,,,7055.251836915,None,7055.251836915,None,7055.251836915,None,m,0,1.2027737909993448,7056.786742739,None,7056.786742739,None,7056.786742739,None,7058.053169948,None,7058.053169948,None,7058.053169948,None,7058.053169948,None,,,,,,,,,,,,,,,,,,,,,,,,,,,,,,,,,,,,,,,,,,,,001,131,2020_Feb_18_1046,spring_faces,3.1.5,60.004108841344824,
condition files/Stage1_1.xlsx,,B2,T1,m,"['c', 'm']","['Clue', 'Monopoly']","[-0.15, 0.5]","[0.15, 0.5]",1,1,,,,,,,,,0,2,2,2,0,4,4,2,,,,,,,,,,,,,,,,,,,,,,,,,,,,,,,,,,,,,,,,,,,,,,,,,,,,,,,7060.019313836,None,7060.019313836,None,7060.019313836,None,m,1,0.5160458269992887,7061.569455508,None,7061.569455508,None,7061.569455508,None,7062.152876253,None,7062.152876253,None,7062.152876253,None,7062.152876253,None,,,,,,,,,,,,,,,,,,,,,,,,,,,,,,,,,,,,,,,,,,,,001,131,2020_Feb_18_1046,spring_faces,3.1.5,60.004108841344824,
condition files/Stage1_1.xlsx,,B4,T4,m,"['c', 'm']","['Clue', 'Monopoly']","[-0.15, 0.5]","[0.15, 0.5]",1,1,,,,,,,,,0,2,2,2,0,5,5,7,,,,,,,,,,,,,,,,,,,,,,,,,,,,,,,,,,,,,,,,,,,,,,,,,,,,,,,7064.102138546,None,7064.102138546,None,7064.102138546,None,m,1,1.6491740810006377,7065.652307174,None,7065.652307174,None,7065.652307174,None,7067.352850448,None,7067.352850448,None,7067.352850448,None,7067.352850448,None,,,,,,,,,,,,,,,,,,,,,,,,,,,,,,,,,,,,,,,,,,,,001,131,2020_Feb_18_1046,spring_faces,3.1.5,60.004108841344824,
condition files/Stage1_1.xlsx,,T3,B4,c,"['c', 'm']","['Clue', 'Monopoly']","[-0.15, 0.5]","[0.15, 0.5]",1,1,,,,,,,,,0,2,2,2,0,6,6,5,,,,,,,,,,,,,,,,,,,,,,,,,,,,,,,,,,,,,,,,,,,,,,,,,,,,,,,7069.318977975,None,7069.318977975,None,7069.318977975,None,c,1,0.9591943079994962,7070.854285107,None,7070.854285107,None,7070.854285107,None,7071.869588976,None,7071.869588976,None,7071.869588976,None,7071.869588976,None,,,,,,,,,,,,,,,,,,,,,,,,,,,,,,,,,,,,,,,,,,,,001,131,2020_Feb_18_1046,spring_faces,3.1.5,60.004108841344824,
condition files/Stage1_1.xlsx,,T2,B2,m,"['c', 'm']","['Clue', 'Monopoly']","[-0.15, 0.5]","[0.15, 0.5]",1,1,,,,,,,,,0,2,2,2,0,7,7,3,,,,,,,,,,,,,,,,,,,,,,,,,,,,,,,,,,,,,,,,,,,,,,,,,,,,,,,7073.8354617019995,None,7073.8354617019995,None,7073.8354617019995,None,c,0,0.699888273000397,7075.369565743,None,7075.369565743,None,7075.369565743,None,7076.135904603,None,7076.135904603,None,7076.135904603,None,7076.135904603,None,,,,,,,,,,,,,,,,,,,,,,,,,,,,,,,,,,,,,,,,,,,,001,131,2020_Feb_18_1046,spring_faces,3.1.5,60.004108841344824,
condition files/Stage1_2.xlsx,,T4,B4,m,"['c', 'm']","['Clue', 'Monopoly']","[-0.15, 0.5]","[0.15, 0.5]",1,1,,,,,,,,,0,3,3,3,0,0,0,7,,,,,,,,,,,,,,,,,,,,,,,,,,,,,,,,,,,,,,,,,,,,,,,,,,,,,,,7078.119888122,None,7078.119888122,None,7078.119888122,None,m,1,1.0726778320004087,7079.652908023,None,7079.652908023,None,7079.652908023,None,7080.786210278,None,7080.786210278,None,7080.786210278,None,7080.786210278,None,,,,,,,,,,,,,,,,,,,,,,,,,,,,,,,,,,,,,,,,,,,,001,131,2020_Feb_18_1046,spring_faces,3.1.5,60.004108841344824,
condition files/Stage1_2.xlsx,,T3,B3,c,"['c', 'm']","['Clue', 'Monopoly']","[-0.15, 0.5]","[0.15, 0.5]",1,1,,,,,,,,,0,3,3,3,0,1,1,4,,,,,,,,,,,,,,,,,,,,,,,,,,,,,,,,,,,,,,,,,,,,,,,,,,,,,,,7082.752500466,None,7082.752500466,None,7082.752500466,None,c,1,0.8546332599999005,7084.3028776559995,None,7084.3028776559995,None,7084.3028776559995,None,7085.219912963,None,7085.219912963,None,7085.219912963,None,7085.219912963,None,,,,,,,,,,,,,,,,,,,,,,,,,,,,,,,,,,,,,,,,,,,,001,131,2020_Feb_18_1046,spring_faces,3.1.5,60.004108841344824,
condition files/Stage1_2.xlsx,,B1,T1,c,"['c', 'm']","['Clue', 'Monopoly']","[-0.15, 0.5]","[0.15, 0.5]",1,1,,,,,,,,,0,3,3,3,0,2,2,0,,,,,,,,,,,,,,,,,,,,,,,,,,,,,,,,,,,,,,,,,,,,,,,,,,,,,,,7087.186093278,None,7087.186093278,None,7087.186093278,None,m,0,1.4142848539995612,7088.719226077,None,7088.719226077,None,7088.719226077,None,7090.186062692,None,7090.186062692,None,7090.186062692,None,7090.186062692,None,,,,,,,,,,,,,,,,,,,,,,,,,,,,,,,,,,,,,,,,,,,,001,131,2020_Feb_18_1046,spring_faces,3.1.5,60.004108841344824,
condition files/Stage1_2.xlsx,,B2,T2,m,"['c', 'm']","['Clue', 'Monopoly']","[-0.15, 0.5]","[0.15, 0.5]",1,1,,,,,,,,,0,3,3,3,0,3,3,3,,,,,,,,,,,,,,,,,,,,,,,,,,,,,,,,,,,,,,,,,,,,,,,,,,,,,,,7092.152684414,None,7092.152684414,None,7092.152684414,None,c,0,1.2474491980001403,7093.686069197,None,7093.686069197,None,7093.686069197,None,7094.986642364,None,7094.986642364,None,7094.986642364,None,7094.986642364,None,,,,,,,,,,,,,,,,,,,,,,,,,,,,,,,,,,,,,,,,,,,,001,131,2020_Feb_18_1046,spring_faces,3.1.5,60.004108841344824,
condition files/Stage1_2.xlsx,,T1,B2,m,"['c', 'm']","['Clue', 'Monopoly']","[-0.15, 0.5]","[0.15, 0.5]",1,1,,,,,,,,,0,3,3,3,0,4,4,2,,,,,,,,,,,,,,,,,,,,,,,,,,,,,,,,,,,,,,,,,,,,,,,,,,,,,,,7096.952382583,None,7096.952382583,None,7096.952382583,None,m,1,1.3580039589996886,7098.487535822,None,7098.487535822,None,7098.487535822,None,7099.902779133,None,7099.902779133,None,7099.902779133,None,7099.902779133,None,,,,,,,,,,,,,,,,,,,,,,,,,,,,,,,,,,,,,,,,,,,,001,131,2020_Feb_18_1046,spring_faces,3.1.5,60.004108841344824,
condition files/Stage1_2.xlsx,,B4,T3,c,"['c', 'm']","['Clue', 'Monopoly']","[-0.15, 0.5]","[0.15, 0.5]",1,1,,,,,,,,,0,3,3,3,0,5,5,5,,,,,,,,,,,,,,,,,,,,,,,,,,,,,,,,,,,,,,,,,,,,,,,,,,,,,,,7101.869239253,None,7101.869239253,None,7101.869239253,None,c,1,0.6186203429997477,7103.402833706999,None,7103.402833706999,None,7103.402833706999,None,7104.102875893,None,7104.102875893,None,7104.102875893,None,7104.102875893,None,,,,,,,,,,,,,,,,,,,,,,,,,,,,,,,,,,,,,,,,,,,,001,131,2020_Feb_18_1046,spring_faces,3.1.5,60.004108841344824,
condition files/Stage1_2.xlsx,,B3,T4,m,"['c', 'm']","['Clue', 'Monopoly']","[-0.15, 0.5]","[0.15, 0.5]",1,1,,,,,,,,,0,3,3,3,0,6,6,6,,,,,,,,,,,,,,,,,,,,,,,,,,,,,,,,,,,,,,,,,,,,,,,,,,,,,,,7106.052627313,None,7106.052627313,None,7106.052627313,None,m,1,1.699850740000329,7107.585661659,None,7107.585661659,None,7107.585661659,None,7109.338711859,None,7109.338711859,None,7109.338711859,None,7109.338711859,None,,,,,,,,,,,,,,,,,,,,,,,,,,,,,,,,,,,,,,,,,,,,001,131,2020_Feb_18_1046,spring_faces,3.1.5,60.004108841344824,
condition files/Stage1_2.xlsx,,T2,B1,c,"['c', 'm']","['Clue', 'Monopoly']","[-0.15, 0.5]","[0.15, 0.5]",1,1,,,,,,,,,0,3,3,3,0,7,7,1,,,,,,,,,,,,,,,,,,,,,,,,,,,,,,,,,,,,,,,,,,,,,,,,,,,,,,,7111.302268835,None,7111.302268835,None,7111.302268835,None,c,1,1.1053897829997368,7112.836145554,None,7112.836145554,None,7112.836145554,None,7114.002241823,None,7114.002241823,None,7114.002241823,None,7114.002241823,None,,,,,,,,,,,,,,,,,,,,,,,,,,,,,,,,,,,,,,,,,,,,001,131,2020_Feb_18_1046,spring_faces,3.1.5,60.004108841344824,
condition files/Stage1_1.xlsx,,T4,B3,m,"['c', 'm']","['Clue', 'Monopoly']","[-0.15, 0.5]","[0.15, 0.5]",1,1,,,,,,,,,0,4,4,4,0,0,0,6,,,,,,,,,,,,,,,,,,,,,,,,,,,,,,,,,,,,,,,,,,,,,,,,,,,,,,,7115.985504187,None,7115.985504187,None,7115.985504187,None,m,1,1.0132560739994005,7117.53616607,None,7117.53616607,None,7117.53616607,None,7118.619692255,None,7118.619692255,None,7118.619692255,None,7118.619692255,None,,,,,,,,,,,,,,,,,,,,,,,,,,,,,,,,,,,,,,,,,,,,001,131,2020_Feb_18_1046,spring_faces,3.1.5,60.004108841344824,
condition files/Stage1_1.xlsx,,T2,B2,m,"['c', 'm']","['Clue', 'Monopoly']","[-0.15, 0.5]","[0.15, 0.5]",1,1,,,,,,,,,0,4,4,4,0,1,1,3,,,,,,,,,,,,,,,,,,,,,,,,,,,,,,,,,,,,,,,,,,,,,,,,,,,,,,,7120.56929558,None,7120.56929558,None,7120.56929558,None,c,0,2.09393860199998,7122.119630077,None,7122.119630077,None,7122.119630077,None,7124.269298714,None,7124.269298714,None,7124.269298714,None,7124.269298714,None,,,,,,,,,,,,,,,,,,,,,,,,,,,,,,,,,,,,,,,,,,,,001,131,2020_Feb_18_1046,spring_faces,3.1.5,60.004108841344824,
condition files/Stage1_1.xlsx,,T1,B1,c,"['c', 'm']","['Clue', 'Monopoly']","[-0.15, 0.5]","[0.15, 0.5]",1,1,,,,,,,,,0,4,4,4,0,2,2,0,,,,,,,,,,,,,,,,,,,,,,,,,,,,,,,,,,,,,,,,,,,,,,,,,,,,,,,7126.23551416,None,7126.23551416,None,7126.23551416,None,c,1,1.7564565270004096,7127.76913304,None,7127.76913304,None,7127.76913304,None,7129.5862433639995,None,7129.5862433639995,None,7129.5862433639995,None,7129.5862433639995,None,,,,,,,,,,,,,,,,,,,,,,,,,,,,,,,,,,,,,,,,,,,,001,131,2020_Feb_18_1046,spring_faces,3.1.5,60.004108841344824,
condition files/Stage1_1.xlsx,,T3,B4,c,"['c', 'm']","['Clue', 'Monopoly']","[-0.15, 0.5]","[0.15, 0.5]",1,1,,,,,,,,,0,4,4,4,0,3,3,5,,,,,,,,,,,,,,,,,,,,,,,,,,,,,,,,,,,,,,,,,,,,,,,,,,,,,,,7131.5525266039995,None,7131.5525266039995,None,7131.5525266039995,None,c,1,1.0467485979997946,7133.102673241,None,7133.102673241,None,7133.102673241,None,7134.20301641,None,7134.20301641,None,7134.20301641,None,7134.20301641,None,,,,,,,,,,,,,,,,,,,,,,,,,,,,,,,,,,,,,,,,,,,,001,131,2020_Feb_18_1046,spring_faces,3.1.5,60.004108841344824,
condition files/Stage1_1.xlsx,,B3,T3,c,"['c', 'm']","['Clue', 'Monopoly']","[-0.15, 0.5]","[0.15, 0.5]",1,1,,,,,,,,,0,4,4,4,0,4,4,4,,,,,,,,,,,,,,,,,,,,,,,,,,,,,,,,,,,,,,,,,,,,,,,,,,,,,,,7136.168814821,None,7136.168814821,None,7136.168814821,None,c,1,0.749045063000267,7137.704415973,None,7137.704415973,None,7137.704415973,None,7138.518619048,None,7138.518619048,None,7138.518619048,None,7138.518619048,None,,,,,,,,,,,,,,,,,,,,,,,,,,,,,,,,,,,,,,,,,,,,001,131,2020_Feb_18_1046,spring_faces,3.1.5,60.004108841344824,
condition files/Stage1_1.xlsx,,B1,T2,c,"['c', 'm']","['Clue', 'Monopoly']","[-0.15, 0.5]","[0.15, 0.5]",1,1,,,,,,,,,0,4,4,4,0,5,5,1,,,,,,,,,,,,,,,,,,,,,,,,,,,,,,,,,,,,,,,,,,,,,,,,,,,,,,,7140.4856203399995,None,7140.4856203399995,None,7140.4856203399995,None,m,0,1.2494622099993649,7142.03603432,None,7142.03603432,None,7142.03603432,None,7143.336268796,None,7143.336268796,None,7143.336268796,None,7143.336268796,None,,,,,,,,,,,,,,,,,,,,,,,,,,,,,,,,,,,,,,,,,,,,001,131,2020_Feb_18_1046,spring_faces,3.1.5,60.004108841344824,
condition files/Stage1_1.xlsx,,B4,T4,m,"['c', 'm']","['Clue', 'Monopoly']","[-0.15, 0.5]","[0.15, 0.5]",1,1,,,,,,,,,0,4,4,4,0,6,6,7,,,,,,,,,,,,,,,,,,,,,,,,,,,,,,,,,,,,,,,,,,,,,,,,,,,,,,,7145.302682488,None,7145.302682488,None,7145.302682488,None,m,1,1.0881967060004172,7146.837377392,None,7146.837377392,None,7146.837377392,None,7147.987288269,None,7147.987288269,None,7147.987288269,None,7147.987288269,None,,,,,,,,,,,,,,,,,,,,,,,,,,,,,,,,,,,,,,,,,,,,001,131,2020_Feb_18_1046,spring_faces,3.1.5,60.004108841344824,
condition files/Stage1_1.xlsx,,B2,T1,m,"['c', 'm']","['Clue', 'Monopoly']","[-0.15, 0.5]","[0.15, 0.5]",1,1,,,,,,,,,0,4,4,4,0,7,7,2,,,,,,,,,,,,,,,,,,,,,,,,,,,,,,,,,,,,,,,,,,,,,,,,,,,,,,,7149.952606721,None,7149.952606721,None,7149.952606721,None,m,1,0.40779258999918966,7151.485797059,None,7151.485797059,None,7151.485797059,None,7151.953233562,None,7151.953233562,None,7151.953233562,None,7151.953233562,None,,,,,,,,,,,,,,,,,,,,,,,,,,,,,,,,,,,,,,,,,,,,001,131,2020_Feb_18_1046,spring_faces,3.1.5,60.004108841344824,
condition files/Stage1_2.xlsx,,T2,B1,c,"['c', 'm']","['Clue', 'Monopoly']","[-0.15, 0.5]","[0.15, 0.5]",1,1,,,,,,,,,0,5,5,5,0,0,0,1,,,,,,,,,,,,,,,,,,,,,,,,,,,,,,,,,,,,,,,,,,,,,,,,,,,,,,,7153.935482258,None,7153.935482258,None,7153.935482258,None,m,0,1.462924111000575,7155.47059467,None,7155.47059467,None,7155.47059467,None,7156.988268981,None,7156.988268981,None,7156.988268981,None,7156.988268981,None,,,,,,,,,,,,,,,,,,,,,,,,,,,,,,,,,,,,,,,,,,,,001,131,2020_Feb_18_1046,spring_faces,3.1.5,60.004108841344824,
condition files/Stage1_2.xlsx,,T1,B2,m,"['c', 'm']","['Clue', 'Monopoly']","[-0.15, 0.5]","[0.15, 0.5]",1,1,,,,,,,,,0,5,5,5,0,1,1,2,,,,,,,,,,,,,,,,,,,,,,,,,,,,,,,,,,,,,,,,,,,,,,,,,,,,,,,7158.952268606,None,7158.952268606,None,7158.952268606,None,c,0,1.311747417999868,7160.485706601,None,7160.485706601,None,7160.485706601,None,7161.853301190999,None,7161.853301190999,None,7161.853301190999,None,7161.853301190999,None,,,,,,,,,,,,,,,,,,,,,,,,,,,,,,,,,,,,,,,,,,,,001,131,2020_Feb_18_1046,spring_faces,3.1.5,60.004108841344824,
condition files/Stage1_2.xlsx,,T3,B3,c,"['c', 'm']","['Clue', 'Monopoly']","[-0.15, 0.5]","[0.15, 0.5]",1,1,,,,,,,,,0,5,5,5,0,2,2,4,,,,,,,,,,,,,,,,,,,,,,,,,,,,,,,,,,,,,,,,,,,,,,,,,,,,,,,7163.819340201,None,7163.819340201,None,7163.819340201,None,c,1,0.7472403510000731,7165.354272492,None,7165.354272492,None,7165.354272492,None,7166.155223991,None,7166.155223991,None,7166.155223991,None,7166.155223991,None,,,,,,,,,,,,,,,,,,,,,,,,,,,,,,,,,,,,,,,,,,,,001,131,2020_Feb_18_1046,spring_faces,3.1.5,60.004108841344824,
condition files/Stage1_2.xlsx,,B2,T2,m,"['c', 'm']","['Clue', 'Monopoly']","[-0.15, 0.5]","[0.15, 0.5]",1,1,,,,,,,,,0,5,5,5,0,3,3,3,,,,,,,,,,,,,,,,,,,,,,,,,,,,,,,,,,,,,,,,,,,,,,,,,,,,,,,7168.119204539,None,7168.119204539,None,7168.119204539,None,m,1,3.168947182000011,7169.652574735,None,7169.652574735,None,7169.652574735,None,7172.903026827,None,7172.903026827,None,7172.903026827,None,7172.903026827,None,,,,,,,,,,,,,,,,,,,,,,,,,,,,,,,,,,,,,,,,,,,,001,131,2020_Feb_18_1046,spring_faces,3.1.5,60.004108841344824,
condition files/Stage1_2.xlsx,,B1,T1,c,"['c', 'm']","['Clue', 'Monopoly']","[-0.15, 0.5]","[0.15, 0.5]",1,1,,,,,,,,,0,5,5,5,0,4,4,0,,,,,,,,,,,,,,,,,,,,,,,,,,,,,,,,,,,,,,,,,,,,,,,,,,,,,,,7174.852783473,None,7174.852783473,None,7174.852783473,None,m,0,2.433869747999779,7176.387648654,None,7176.387648654,None,7176.387648654,None,7178.9028709819995,None,7178.9028709819995,None,7178.9028709819995,None,7178.9028709819995,None,,,,,,,,,,,,,,,,,,,,,,,,,,,,,,,,,,,,,,,,,,,,001,131,2020_Feb_18_1046,spring_faces,3.1.5,60.004108841344824,
condition files/Stage1_2.xlsx,,T4,B4,m,"['c', 'm']","['Clue', 'Monopoly']","[-0.15, 0.5]","[0.15, 0.5]",1,1,,,,,,,,,0,5,5,5,0,5,5,7,,,,,,,,,,,,,,,,,,,,,,,,,,,,,,,,,,,,,,,,,,,,,,,,,,,,,,,7180.852720739,None,7180.852720739,None,7180.852720739,None,m,1,1.0735075069997038,7182.388084007,None,7182.388084007,None,7182.388084007,None,7183.521475351,None,7183.521475351,None,7183.521475351,None,7183.521475351,None,,,,,,,,,,,,,,,,,,,,,,,,,,,,,,,,,,,,,,,,,,,,001,131,2020_Feb_18_1046,spring_faces,3.1.5,60.004108841344824,
condition files/Stage1_2.xlsx,,B4,T3,c,"['c', 'm']","['Clue', 'Monopoly']","[-0.15, 0.5]","[0.15, 0.5]",1,1,,,,,,,,,0,5,5,5,0,6,6,5,,,,,,,,,,,,,,,,,,,,,,,,,,,,,,,,,,,,,,,,,,,,,,,,,,,,,,,7185.485942991,None,7185.485942991,None,7185.485942991,None,c,1,0.696255335999922,7187.021260583,None,7187.021260583,None,7187.021260583,None,7187.786367212,None,7187.786367212,None,7187.786367212,None,7187.786367212,None,,,,,,,,,,,,,,,,,,,,,,,,,,,,,,,,,,,,,,,,,,,,001,131,2020_Feb_18_1046,spring_faces,3.1.5,60.004108841344824,
condition files/Stage1_2.xlsx,,B3,T4,m,"['c', 'm']","['Clue', 'Monopoly']","[-0.15, 0.5]","[0.15, 0.5]",1,1,,,,,,,,,0,5,5,5,0,7,7,6,,,,,,,,,,,,,,,,,,,,,,,,,,,,,,,,,,,,,,,,,,,,,,,,,,,,,,,7189.735827659,None,7189.735827659,None,7189.735827659,None,m,1,0.9754354679998869,7191.286133331,None,7191.286133331,None,7191.286133331,None,7192.31942412,None,7192.31942412,None,7192.31942412,None,7192.31942412,None,,,,,,,,,,,,,,,,,,,,,,,,,,,,,,,,,,,,,,,,,,,,001,131,2020_Feb_18_1046,spring_faces,3.1.5,60.004108841344824,
condition files/Stage1_1.xlsx,,T2,B2,m,"['c', 'm']","['Clue', 'Monopoly']","[-0.15, 0.5]","[0.15, 0.5]",1,1,,,,,,,,,0,6,6,6,0,0,0,3,,,,,,,,,,,,,,,,,,,,,,,,,,,,,,,,,,,,,,,,,,,,,,,,,,,,,,,7194.303163289,None,7194.303163289,None,7194.303163289,None,m,1,1.512572368000292,7195.85293408,None,7195.85293408,None,7195.85293408,None,7197.4190120719995,None,7197.4190120719995,None,7197.4190120719995,None,7197.4190120719995,None,,,,,,,,,,,,,,,,,,,,,,,,,,,,,,,,,,,,,,,,,,,,001,131,2020_Feb_18_1046,spring_faces,3.1.5,60.004108841344824,
condition files/Stage1_1.xlsx,,B2,T1,m,"['c', 'm']","['Clue', 'Monopoly']","[-0.15, 0.5]","[0.15, 0.5]",1,1,,,,,,,,,0,6,6,6,0,1,1,2,,,,,,,,,,,,,,,,,,,,,,,,,,,,,,,,,,,,,,,,,,,,,,,,,,,,,,,7199.3860038269995,None,7199.3860038269995,None,7199.3860038269995,None,c,0,1.4212632589997156,7200.936244471,None,7200.936244471,None,7200.936244471,None,7202.418861229,None,7202.418861229,None,7202.418861229,None,7202.418861229,None,,,,,,,,,,,,,,,,,,,,,,,,,,,,,,,,,,,,,,,,,,,,001,131,2020_Feb_18_1046,spring_faces,3.1.5,60.004108841344824,
condition files/Stage1_1.xlsx,,T4,B3,m,"['c', 'm']","['Clue', 'Monopoly']","[-0.15, 0.5]","[0.15, 0.5]",1,1,,,,,,,,,0,6,6,6,0,2,2,6,,,,,,,,,,,,,,,,,,,,,,,,,,,,,,,,,,,,,,,,,,,,,,,,,,,,,,,7204.3860836349995,None,7204.3860836349995,None,7204.3860836349995,None,m,1,0.8206167799999093,7205.92090843,None,7205.92090843,None,7205.92090843,None,7206.802451734,None,7206.802451734,None,7206.802451734,None,7206.802451734,None,,,,,,,,,,,,,,,,,,,,,,,,,,,,,,,,,,,,,,,,,,,,001,131,2020_Feb_18_1046,spring_faces,3.1.5,60.004108841344824,
condition files/Stage1_1.xlsx,,T1,B1,c,"['c', 'm']","['Clue', 'Monopoly']","[-0.15, 0.5]","[0.15, 0.5]",1,1,,,,,,,,,0,6,6,6,0,3,3,0,,,,,,,,,,,,,,,,,,,,,,,,,,,,,,,,,,,,,,,,,,,,,,,,,,,,,,,7208.769340961,None,7208.769340961,None,7208.769340961,None,c,1,2.004849255999943,7210.304743093,None,7210.304743093,None,7210.304743093,None,7212.371883106,None,7212.371883106,None,7212.371883106,None,7212.371883106,None,,,,,,,,,,,,,,,,,,,,,,,,,,,,,,,,,,,,,,,,,,,,001,131,2020_Feb_18_1046,spring_faces,3.1.5,60.004108841344824,
condition files/Stage1_1.xlsx,,B4,T4,m,"['c', 'm']","['Clue', 'Monopoly']","[-0.15, 0.5]","[0.15, 0.5]",1,1,,,,,,,,,0,6,6,6,0,4,4,7,,,,,,,,,,,,,,,,,,,,,,,,,,,,,,,,,,,,,,,,,,,,,,,,,,,,,,,7214.336115252,None,7214.336115252,None,7214.336115252,None,m,1,0.870446257000367,7215.871055273999,None,7215.871055273999,None,7215.871055273999,None,7216.805064041,None,7216.805064041,None,7216.805064041,None,7216.805064041,None,,,,,,,,,,,,,,,,,,,,,,,,,,,,,,,,,,,,,,,,,,,,001,131,2020_Feb_18_1046,spring_faces,3.1.5,60.004108841344824,
condition files/Stage1_1.xlsx,,T3,B4,c,"['c', 'm']","['Clue', 'Monopoly']","[-0.15, 0.5]","[0.15, 0.5]",1,1,,,,,,,,,0,6,6,6,0,5,5,5,,,,,,,,,,,,,,,,,,,,,,,,,,,,,,,,,,,,,,,,,,,,,,,,,,,,,,,7218.769230221,None,7218.769230221,None,7218.769230221,None,c,1,0.8530817339997157,7220.30445287,None,7220.30445287,None,7220.30445287,None,7221.220687188,None,7221.220687188,None,7221.220687188,None,7221.220687188,None,,,,,,,,,,,,,,,,,,,,,,,,,,,,,,,,,,,,,,,,,,,,001,131,2020_Feb_18_1046,spring_faces,3.1.5,60.004108841344824,
condition files/Stage1_1.xlsx,,B1,T2,c,"['c', 'm']","['Clue', 'Monopoly']","[-0.15, 0.5]","[0.15, 0.5]",1,1,,,,,,,,,0,6,6,6,0,6,6,1,,,,,,,,,,,,,,,,,,,,,,,,,,,,,,,,,,,,,,,,,,,,,,,,,,,,,,,7223.185983903,None,7223.185983903,None,7223.185983903,None,c,1,1.4921757640004216,7224.721340049,None,7224.721340049,None,7224.721340049,None,7226.269959901,None,7226.269959901,None,7226.269959901,None,7226.269959901,None,,,,,,,,,,,,,,,,,,,,,,,,,,,,,,,,,,,,,,,,,,,,001,131,2020_Feb_18_1046,spring_faces,3.1.5,60.004108841344824,
condition files/Stage1_1.xlsx,,B3,T3,c,"['c', 'm']","['Clue', 'Monopoly']","[-0.15, 0.5]","[0.15, 0.5]",1,1,,,,,,,,,0,6,6,6,0,7,7,4,,,,,,,,,,,,,,,,,,,,,,,,,,,,,,,,,,,,,,,,,,,,,,,,,,,,,,,7228.235922216,None,7228.235922216,None,7228.235922216,None,c,1,0.6830693359997895,7229.786424053,None,7229.786424053,None,7229.786424053,None,7230.519281327,None,7230.519281327,None,7230.519281327,None,7230.519281327,None,,,,,,,,,,,,,,,,,,,,,,,,,,,,,,,,,,,,,,,,,,,,001,131,2020_Feb_18_1046,spring_faces,3.1.5,60.004108841344824,
condition files/Stage1_2.xlsx,,B3,T4,m,"['c', 'm']","['Clue', 'Monopoly']","[-0.15, 0.5]","[0.15, 0.5]",1,1,,,,,,,,,0,7,7,7,0,0,0,6,,,,,,,,,,,,,,,,,,,,,,,,,,,,,,,,,,,,,,,,,,,,,,,,,,,,,,,7232.502824853,None,7232.502824853,None,7232.502824853,None,c,0,0.7366353579991483,7234.052873893,None,7234.052873893,None,7234.052873893,None,7234.86897563,None,7234.86897563,None,7234.86897563,None,7234.86897563,None,,,,,,,,,,,,,,,,,,,,,,,,,,,,,,,,,,,,,,,,,,,,001,131,2020_Feb_18_1046,spring_faces,3.1.5,60.004108841344824,
condition files/Stage1_2.xlsx,,B1,T1,c,"['c', 'm']","['Clue', 'Monopoly']","[-0.15, 0.5]","[0.15, 0.5]",1,1,,,,,,,,,0,7,7,7,0,1,1,0,,,,,,,,,,,,,,,,,,,,,,,,,,,,,,,,,,,,,,,,,,,,,,,,,,,,,,,7236.818912836,None,7236.818912836,None,7236.818912836,None,c,1,1.6837928029999603,7238.369652736,None,7238.369652736,None,7238.369652736,None,7240.135593444,None,7240.135593444,None,7240.135593444,None,7240.135593444,None,,,,,,,,,,,,,,,,,,,,,,,,,,,,,,,,,,,,,,,,,,,,001,131,2020_Feb_18_1046,spring_faces,3.1.5,60.004108841344824,
condition files/Stage1_2.xlsx,,T4,B4,m,"['c', 'm']","['Clue', 'Monopoly']","[-0.15, 0.5]","[0.15, 0.5]",1,1,,,,,,,,,0,7,7,7,0,2,2,7,,,,,,,,,,,,,,,,,,,,,,,,,,,,,,,,,,,,,,,,,,,,,,,,,,,,,,,7242.085823067,None,7242.085823067,None,7242.085823067,None,m,1,1.1543677270001353,7243.63516535,None,7243.63516535,None,7243.63516535,None,7244.869534884,None,7244.869534884,None,7244.869534884,None,7244.869534884,None,,,,,,,,,,,,,,,,,,,,,,,,,,,,,,,,,,,,,,,,,,,,001,131,2020_Feb_18_1046,spring_faces,3.1.5,60.004108841344824,
condition files/Stage1_2.xlsx,,B4,T3,c,"['c', 'm']","['Clue', 'Monopoly']","[-0.15, 0.5]","[0.15, 0.5]",1,1,,,,,,,,,0,7,7,7,0,3,3,5,,,,,,,,,,,,,,,,,,,,,,,,,,,,,,,,,,,,,,,,,,,,,,,,,,,,,,,7246.81927953,None,7246.81927953,None,7246.81927953,None,c,1,0.8997753710000325,7248.369677514,None,7248.369677514,None,7248.369677514,None,7249.338818089,None,7249.338818089,None,7249.338818089,None,7249.338818089,None,,,,,,,,,,,,,,,,,,,,,,,,,,,,,,,,,,,,,,,,,,,,001,131,2020_Feb_18_1046,spring_faces,3.1.5,60.004108841344824,
condition files/Stage1_2.xlsx,,T3,B3,c,"['c', 'm']","['Clue', 'Monopoly']","[-0.15, 0.5]","[0.15, 0.5]",1,1,,,,,,,,,0,7,7,7,0,4,4,4,,,,,,,,,,,,,,,,,,,,,,,,,,,,,,,,,,,,,,,,,,,,,,,,,,,,,,,7251.302772748,None,7251.302772748,None,7251.302772748,None,c,1,0.6712346270005582,7252.838353186,None,7252.838353186,None,7252.838353186,None,7253.569539553,None,7253.569539553,None,7253.569539553,None,7253.569539553,None,,,,,,,,,,,,,,,,,,,,,,,,,,,,,,,,,,,,,,,,,,,,001,131,2020_Feb_18_1046,spring_faces,3.1.5,60.004108841344824,
condition files/Stage1_2.xlsx,,T1,B2,m,"['c', 'm']","['Clue', 'Monopoly']","[-0.15, 0.5]","[0.15, 0.5]",1,1,,,,,,,,,0,7,7,7,0,5,5,2,,,,,,,,,,,,,,,,,,,,,,,,,,,,,,,,,,,,,,,,,,,,,,,,,,,,,,,7255.535712168,None,7255.535712168,None,7255.535712168,None,m,1,0.8081313400007275,7257.06945777,None,7257.06945777,None,7257.06945777,None,7257.936728064,None,7257.936728064,None,7257.936728064,None,7257.936728064,None,,,,,,,,,,,,,,,,,,,,,,,,,,,,,,,,,,,,,,,,,,,,001,131,2020_Feb_18_1046,spring_faces,3.1.5,60.004108841344824,
condition files/Stage1_2.xlsx,,T2,B1,c,"['c', 'm']","['Clue', 'Monopoly']","[-0.15, 0.5]","[0.15, 0.5]",1,1,,,,,,,,,0,7,7,7,0,6,6,1,,,,,,,,,,,,,,,,,,,,,,,,,,,,,,,,,,,,,,,,,,,,,,,,,,,,,,,7259.902177858,None,7259.902177858,None,7259.902177858,None,m,0,1.4965466660005404,7261.452864931,None,7261.452864931,None,7261.452864931,None,7263.003763457,None,7263.003763457,None,7263.003763457,None,7263.003763457,None,,,,,,,,,,,,,,,,,,,,,,,,,,,,,,,,,,,,,,,,,,,,001,131,2020_Feb_18_1046,spring_faces,3.1.5,60.004108841344824,
condition files/Stage1_2.xlsx,,B2,T2,m,"['c', 'm']","['Clue', 'Monopoly']","[-0.15, 0.5]","[0.15, 0.5]",1,1,,,,,,,,,0,7,7,7,0,7,7,3,,,,,,,,,,,,,,,,,,,,,,,,,,,,,,,,,,,,,,,,,,,,,,,,,,,,,,,7264.9693636599995,None,7264.9693636599995,None,7264.9693636599995,None,m,1,1.372587195000051,7266.5049942979995,None,7266.5049942979995,None,7266.5049942979995,None,7267.935920172,None,7267.935920172,None,7267.935920172,None,7267.935920172,None,,,,,,,,,,,,,,,,,,,,,,,,,,,,,,,,,,,,,,,,,,,,001,131,2020_Feb_18_1046,spring_faces,3.1.5,60.004108841344824,
condition files/Stage1_1.xlsx,,T2,B2,m,"['c', 'm']","['Clue', 'Monopoly']","[-0.15, 0.5]","[0.15, 0.5]",1,1,,,,,,,,,0,8,8,8,0,0,0,3,,,,,,,,,,,,,,,,,,,,,,,,,,,,,,,,,,,,,,,,,,,,,,,,,,,,,,,7269.919240605,None,7269.919240605,None,7269.919240605,None,c,0,0.7282707129998016,7271.4532153499995,None,7271.4532153499995,None,7271.4532153499995,None,7272.2357779369995,None,7272.2357779369995,None,7272.2357779369995,None,7272.2357779369995,None,,,,,,,,,,,,,,,,,,,,,,,,,,,,,,,,,,,,,,,,,,,,001,131,2020_Feb_18_1046,spring_faces,3.1.5,60.004108841344824,
condition files/Stage1_1.xlsx,,B1,T2,c,"['c', 'm']","['Clue', 'Monopoly']","[-0.15, 0.5]","[0.15, 0.5]",1,1,,,,,,,,,0,8,8,8,0,1,1,1,,,,,,,,,,,,,,,,,,,,,,,,,,,,,,,,,,,,,,,,,,,,,,,,,,,,,,,7274.202036051,None,7274.202036051,None,7274.202036051,None,m,0,1.3245166970000355,7275.753053986,None,7275.753053986,None,7275.753053986,None,7277.136169206,None,7277.136169206,None,7277.136169206,None,7277.136169206,None,,,,,,,,,,,,,,,,,,,,,,,,,,,,,,,,,,,,,,,,,,,,001,131,2020_Feb_18_1046,spring_faces,3.1.5,60.004108841344824,
condition files/Stage1_1.xlsx,,T4,B3,m,"['c', 'm']","['Clue', 'Monopoly']","[-0.15, 0.5]","[0.15, 0.5]",1,1,,,,,,,,,0,8,8,8,0,2,2,6,,,,,,,,,,,,,,,,,,,,,,,,,,,,,,,,,,,,,,,,,,,,,,,,,,,,,,,7279.102425702,None,7279.102425702,None,7279.102425702,None,m,1,1.160841098999299,7280.652626323,None,7280.652626323,None,7280.652626323,None,7281.886047837,None,7281.886047837,None,7281.886047837,None,7281.886047837,None,,,,,,,,,,,,,,,,,,,,,,,,,,,,,,,,,,,,,,,,,,,,001,131,2020_Feb_18_1046,spring_faces,3.1.5,60.004108841344824,
condition files/Stage1_1.xlsx,,T3,B4,c,"['c', 'm']","['Clue', 'Monopoly']","[-0.15, 0.5]","[0.15, 0.5]",1,1,,,,,,,,,0,8,8,8,0,3,3,5,,,,,,,,,,,,,,,,,,,,,,,,,,,,,,,,,,,,,,,,,,,,,,,,,,,,,,,7283.835472491,None,7283.835472491,None,7283.835472491,None,c,1,0.9391855339999893,7285.370404558,None,7285.370404558,None,7285.370404558,None,7286.371218425,None,7286.371218425,None,7286.371218425,None,7286.371218425,None,,,,,,,,,,,,,,,,,,,,,,,,,,,,,,,,,,,,,,,,,,,,001,131,2020_Feb_18_1046,spring_faces,3.1.5,60.004108841344824,
condition files/Stage1_1.xlsx,,T1,B1,c,"['c', 'm']","['Clue', 'Monopoly']","[-0.15, 0.5]","[0.15, 0.5]",1,1,,,,,,,,,0,8,8,8,0,4,4,0,,,,,,,,,,,,,,,,,,,,,,,,,,,,,,,,,,,,,,,,,,,,,,,,,,,,,,,7288.336065945,None,7288.336065945,None,7288.336065945,None,m,0,0.6782513449998078,7289.87134126,None,7289.87134126,None,7289.87134126,None,7290.602566293,None,7290.602566293,None,7290.602566293,None,7290.602566293,None,,,,,,,,,,,,,,,,,,,,,,,,,,,,,,,,,,,,,,,,,,,,001,131,2020_Feb_18_1046,spring_faces,3.1.5,60.004108841344824,
condition files/Stage1_1.xlsx,,B4,T4,m,"['c', 'm']","['Clue', 'Monopoly']","[-0.15, 0.5]","[0.15, 0.5]",1,1,,,,,,,,,0,8,8,8,0,5,5,7,,,,,,,,,,,,,,,,,,,,,,,,,,,,,,,,,,,,,,,,,,,,,,,,,,,,,,,7292.568898456,None,7292.568898456,None,7292.568898456,None,m,1,0.8768534490000093,7294.10465391,None,7294.10465391,None,7294.10465391,None,7295.037956116,None,7295.037956116,None,7295.037956116,None,7295.037956116,None,,,,,,,,,,,,,,,,,,,,,,,,,,,,,,,,,,,,,,,,,,,,001,131,2020_Feb_18_1046,spring_faces,3.1.5,60.004108841344824,
condition files/Stage1_1.xlsx,,B3,T3,c,"['c', 'm']","['Clue', 'Monopoly']","[-0.15, 0.5]","[0.15, 0.5]",1,1,,,,,,,,,0,8,8,8,0,6,6,4,,,,,,,,,,,,,,,,,,,,,,,,,,,,,,,,,,,,,,,,,,,,,,,,,,,,,,,7297.002193624,None,7297.002193624,None,7297.002193624,None,c,1,0.8273057690003043,7298.538210657,None,7298.538210657,None,7298.538210657,None,7299.436258081,None,7299.436258081,None,7299.436258081,None,7299.436258081,None,,,,,,,,,,,,,,,,,,,,,,,,,,,,,,,,,,,,,,,,,,,,001,131,2020_Feb_18_1046,spring_faces,3.1.5,60.004108841344824,
condition files/Stage1_1.xlsx,,B2,T1,m,"['c', 'm']","['Clue', 'Monopoly']","[-0.15, 0.5]","[0.15, 0.5]",1,1,,,,,,,,,0,8,8,8,0,7,7,2,,,,,,,,,,,,,,,,,,,,,,,,,,,,,,,,,,,,,,,,,,,,,,,,,,,,,,,7301.385967548,None,7301.385967548,None,7301.385967548,None,m,1,1.1490165799996248,7302.920444189,None,7302.920444189,None,7302.920444189,None,7304.119167271,None,7304.119167271,None,7304.119167271,None,7304.119167271,None,,,,,,,,,,,,,,,,,,,,,,,,,,,,,,,,,,,,,,,,,,,,001,131,2020_Feb_18_1046,spring_faces,3.1.5,60.004108841344824,
condition files/Stage1_2.xlsx,,B3,T4,m,"['c', 'm']","['Clue', 'Monopoly']","[-0.15, 0.5]","[0.15, 0.5]",1,1,,,,,,,,,0,9,9,9,0,0,0,6,,,,,,,,,,,,,,,,,,,,,,,,,,,,,,,,,,,,,,,,,,,,,,,,,,,,,,,7306.102537351,None,7306.102537351,None,7306.102537351,None,m,1,0.7689134189995457,7307.652596634,None,7307.652596634,None,7307.652596634,None,7308.486132413,None,7308.486132413,None,7308.486132413,None,7308.486132413,None,,,,,,,,,,,,,,,,,,,,,,,,,,,,,,,,,,,,,,,,,,,,001,131,2020_Feb_18_1046,spring_faces,3.1.5,60.004108841344824,
condition files/Stage1_2.xlsx,,T2,B1,c,"['c', 'm']","['Clue', 'Monopoly']","[-0.15, 0.5]","[0.15, 0.5]",1,1,,,,,,,,,0,9,9,9,0,1,1,1,,,,,,,,,,,,,,,,,,,,,,,,,,,,,,,,,,,,,,,,,,,,,,,,,,,,,,,7310.452555351,None,7310.452555351,None,7310.452555351,None,c,1,1.3316330079996987,7311.985865813,None,7311.985865813,None,7311.985865813,None,7313.369215199,None,7313.369215199,None,7313.369215199,None,7313.369215199,None,,,,,,,,,,,,,,,,,,,,,,,,,,,,,,,,,,,,,,,,,,,,001,131,2020_Feb_18_1046,spring_faces,3.1.5,60.004108841344824,
condition files/Stage1_2.xlsx,,B2,T2,m,"['c', 'm']","['Clue', 'Monopoly']","[-0.15, 0.5]","[0.15, 0.5]",1,1,,,,,,,,,0,9,9,9,0,2,2,3,,,,,,,,,,,,,,,,,,,,,,,,,,,,,,,,,,,,,,,,,,,,,,,,,,,,,,,7315.3358756709995,None,7315.3358756709995,None,7315.3358756709995,None,m,1,0.9110487799998737,7316.870463517,None,7316.870463517,None,7316.870463517,None,7317.838021570999,None,7317.838021570999,None,7317.838021570999,None,7317.838021570999,None,,,,,,,,,,,,,,,,,,,,,,,,,,,,,,,,,,,,,,,,,,,,001,131,2020_Feb_18_1046,spring_faces,3.1.5,60.004108841344824,
condition files/Stage1_2.xlsx,,B1,T1,c,"['c', 'm']","['Clue', 'Monopoly']","[-0.15, 0.5]","[0.15, 0.5]",1,1,,,,,,,,,0,9,9,9,0,3,3,0,,,,,,,,,,,,,,,,,,,,,,,,,,,,,,,,,,,,,,,,,,,,,,,,,,,,,,,7319.802620377,None,7319.802620377,None,7319.802620377,None,m,0,0.9409157930003857,7321.352654765999,None,7321.352654765999,None,7321.352654765999,None,7322.353351446,None,7322.353351446,None,7322.353351446,None,7322.353351446,None,,,,,,,,,,,,,,,,,,,,,,,,,,,,,,,,,,,,,,,,,,,,001,131,2020_Feb_18_1046,spring_faces,3.1.5,60.004108841344824,
condition files/Stage1_2.xlsx,,T4,B4,m,"['c', 'm']","['Clue', 'Monopoly']","[-0.15, 0.5]","[0.15, 0.5]",1,1,,,,,,,,,0,9,9,9,0,4,4,7,,,,,,,,,,,,,,,,,,,,,,,,,,,,,,,,,,,,,,,,,,,,,,,,,,,,,,,7324.319292604,None,7324.319292604,None,7324.319292604,None,m,1,0.9507762599996568,7325.854749674,None,7325.854749674,None,7325.854749674,None,7326.886090074,None,7326.886090074,None,7326.886090074,None,7326.886090074,None,,,,,,,,,,,,,,,,,,,,,,,,,,,,,,,,,,,,,,,,,,,,001,131,2020_Feb_18_1046,spring_faces,3.1.5,60.004108841344824,
condition files/Stage1_2.xlsx,,T1,B2,m,"['c', 'm']","['Clue', 'Monopoly']","[-0.15, 0.5]","[0.15, 0.5]",1,1,,,,,,,,,0,9,9,9,0,5,5,2,,,,,,,,,,,,,,,,,,,,,,,,,,,,,,,,,,,,,,,,,,,,,,,,,,,,,,,7328.835869883,None,7328.835869883,None,7328.835869883,None,m,1,0.8203389989994321,7330.369188766,None,7330.369188766,None,7330.369188766,None,7331.252893327,None,7331.252893327,None,7331.252893327,None,7331.252893327,None,,,,,,,,,,,,,,,,,,,,,,,,,,,,,,,,,,,,,,,,,,,,001,131,2020_Feb_18_1046,spring_faces,3.1.5,60.004108841344824,
condition files/Stage1_2.xlsx,,T3,B3,c,"['c', 'm']","['Clue', 'Monopoly']","[-0.15, 0.5]","[0.15, 0.5]",1,1,,,,,,,,,0,9,9,9,0,6,6,4,,,,,,,,,,,,,,,,,,,,,,,,,,,,,,,,,,,,,,,,,,,,,,,,,,,,,,,7333.218874781,None,7333.218874781,None,7333.218874781,None,c,1,0.9649057730002824,7334.752612904,None,7334.752612904,None,7334.752612904,None,7335.786399966,None,7335.786399966,None,7335.786399966,None,7335.786399966,None,,,,,,,,,,,,,,,,,,,,,,,,,,,,,,,,,,,,,,,,,,,,001,131,2020_Feb_18_1046,spring_faces,3.1.5,60.004108841344824,
condition files/Stage1_2.xlsx,,B4,T3,c,"['c', 'm']","['Clue', 'Monopoly']","[-0.15, 0.5]","[0.15, 0.5]",1,1,,,,,,,,,0,9,9,9,0,7,7,5,,,,,,,,,,,,,,,,,,,,,,,,,,,,,,,,,,,,,,,,,,,,,,,,,,,,,,,7337.73595073,None,7337.73595073,None,7337.73595073,None,c,1,0.8151078029995915,7339.286400889,None,7339.286400889,None,7339.286400889,None,7340.1524309139995,None,7340.1524309139995,None,7340.1524309139995,None,7340.1524309139995,None,,,,,,,,,,,,,,,,,,,,,,,,,,,,,,,,,,,,,,,,,,,,001,131,2020_Feb_18_1046,spring_faces,3.1.5,60.004108841344824,
condition files/Stage1_1.xlsx,,B3,T3,c,"['c', 'm']","['Clue', 'Monopoly']","[-0.15, 0.5]","[0.15, 0.5]",1,1,,,,,,,,,0,10,10,10,0,0,0,4,,,,,,,,,,,,,,,,,,,,,,,,,,,,,,,,,,,,,,,,,,,,,,,,,,,,,,,7342.135688088,None,7342.135688088,None,7342.135688088,None,c,1,0.6861611819995233,7343.671381076,None,7343.671381076,None,7343.671381076,None,7344.419531403,None,7344.419531403,None,7344.419531403,None,7344.419531403,None,,,,,,,,,,,,,,,,,,,,,,,,,,,,,,,,,,,,,,,,,,,,001,131,2020_Feb_18_1046,spring_faces,3.1.5,60.004108841344824,
condition files/Stage1_1.xlsx,,T4,B3,m,"['c', 'm']","['Clue', 'Monopoly']","[-0.15, 0.5]","[0.15, 0.5]",1,1,,,,,,,,,0,10,10,10,0,1,1,6,,,,,,,,,,,,,,,,,,,,,,,,,,,,,,,,,,,,,,,,,,,,,,,,,,,,,,,7346.385667023,None,7346.385667023,None,7346.385667023,None,m,1,0.8545172189997174,7347.919012767999,None,7347.919012767999,None,7347.919012767999,None,7348.836417323,None,7348.836417323,None,7348.836417323,None,7348.836417323,None,,,,,,,,,,,,,,,,,,,,,,,,,,,,,,,,,,,,,,,,,,,,001,131,2020_Feb_18_1046,spring_faces,3.1.5,60.004108841344824,
condition files/Stage1_1.xlsx,,T2,B2,m,"['c', 'm']","['Clue', 'Monopoly']","[-0.15, 0.5]","[0.15, 0.5]",1,1,,,,,,,,,0,10,10,10,0,2,2,3,,,,,,,,,,,,,,,,,,,,,,,,,,,,,,,,,,,,,,,,,,,,,,,,,,,,,,,7350.802763017,None,7350.802763017,None,7350.802763017,None,c,0,1.4615546260001793,7352.335948598,None,7352.335948598,None,7352.335948598,None,7353.852709253,None,7353.852709253,None,7353.852709253,None,7353.852709253,None,,,,,,,,,,,,,,,,,,,,,,,,,,,,,,,,,,,,,,,,,,,,001,131,2020_Feb_18_1046,spring_faces,3.1.5,60.004108841344824,
condition files/Stage1_1.xlsx,,B4,T4,m,"['c', 'm']","['Clue', 'Monopoly']","[-0.15, 0.5]","[0.15, 0.5]",1,1,,,,,,,,,0,10,10,10,0,3,3,7,,,,,,,,,,,,,,,,,,,,,,,,,,,,,,,,,,,,,,,,,,,,,,,,,,,,,,,7355.8187368789995,None,7355.8187368789995,None,7355.8187368789995,None,m,1,0.8762927429997944,7357.369253614,None,7357.369253614,None,7357.369253614,None,7358.303226311,None,7358.303226311,None,7358.303226311,None,7358.303226311,None,,,,,,,,,,,,,,,,,,,,,,,,,,,,,,,,,,,,,,,,,,,,001,131,2020_Feb_18_1046,spring_faces,3.1.5,60.004108841344824,
condition files/Stage1_1.xlsx,,B1,T2,c,"['c', 'm']","['Clue', 'Monopoly']","[-0.15, 0.5]","[0.15, 0.5]",1,1,,,,,,,,,0,10,10,10,0,4,4,1,,,,,,,,,,,,,,,,,,,,,,,,,,,,,,,,,,,,,,,,,,,,,,,,,,,,,,,7360.269170127,None,7360.269170127,None,7360.269170127,None,c,1,1.7060411310003474,7361.819531878,None,7361.819531878,None,7361.819531878,None,7363.58613091,None,7363.58613091,None,7363.58613091,None,7363.58613091,None,,,,,,,,,,,,,,,,,,,,,,,,,,,,,,,,,,,,,,,,,,,,001,131,2020_Feb_18_1046,spring_faces,3.1.5,60.004108841344824,
condition files/Stage1_1.xlsx,,B2,T1,m,"['c', 'm']","['Clue', 'Monopoly']","[-0.15, 0.5]","[0.15, 0.5]",1,1,,,,,,,,,0,10,10,10,0,5,5,2,,,,,,,,,,,,,,,,,,,,,,,,,,,,,,,,,,,,,,,,,,,,,,,,,,,,,,,7365.552594283,None,7365.552594283,None,7365.552594283,None,m,1,2.0055794729996705,7367.087864637,None,7367.087864637,None,7367.087864637,None,7369.152085602,None,7369.152085602,None,7369.152085602,None,7369.152085602,None,,,,,,,,,,,,,,,,,,,,,,,,,,,,,,,,,,,,,,,,,,,,001,131,2020_Feb_18_1046,spring_faces,3.1.5,60.004108841344824,
condition files/Stage1_1.xlsx,,T1,B1,c,"['c', 'm']","['Clue', 'Monopoly']","[-0.15, 0.5]","[0.15, 0.5]",1,1,,,,,,,,,0,10,10,10,0,6,6,0,,,,,,,,,,,,,,,,,,,,,,,,,,,,,,,,,,,,,,,,,,,,,,,,,,,,,,,7371.119426716,None,7371.119426716,None,7371.119426716,None,c,1,1.304413296000348,7372.653108401,None,7372.653108401,None,7372.653108401,None,7374.019564426,None,7374.019564426,None,7374.019564426,None,7374.019564426,None,,,,,,,,,,,,,,,,,,,,,,,,,,,,,,,,,,,,,,,,,,,,001,131,2020_Feb_18_1046,spring_faces,3.1.5,60.004108841344824,
condition files/Stage1_1.xlsx,,T3,B4,c,"['c', 'm']","['Clue', 'Monopoly']","[-0.15, 0.5]","[0.15, 0.5]",1,1,,,,,,,,,0,10,10,10,0,7,7,5,,,,,,,,,,,,,,,,,,,,,,,,,,,,,,,,,,,,,,,,,,,,,,,,,,,,,,,7375.985910126999,None,7375.985910126999,None,7375.985910126999,None,c,1,0.852604120000251,7377.520923387,None,7377.520923387,None,7377.520923387,None,7378.43595413,None,7378.43595413,None,7378.43595413,None,7378.43595413,None,,,,,,,,,,,,,,,,,,,,,,,,,,,,,,,,,,,,,,,,,,,,001,131,2020_Feb_18_1046,spring_faces,3.1.5,60.004108841344824,
condition files/Stage1_2.xlsx,,B1,T1,c,"['c', 'm']","['Clue', 'Monopoly']","[-0.15, 0.5]","[0.15, 0.5]",1,1,,,,,,,,,0,11,11,11,0,0,0,0,,,,,,,,,,,,,,,,,,,,,,,,,,,,,,,,,,,,,,,,,,,,,,,,,,,,,,,7380.41961578,None,7380.41961578,None,7380.41961578,None,m,0,1.3003525800004354,7381.953126994,None,7381.953126994,None,7381.953126994,None,7383.319565807,None,7383.319565807,None,7383.319565807,None,7383.319565807,None,,,,,,,,,,,,,,,,,,,,,,,,,,,,,,,,,,,,,,,,,,,,001,131,2020_Feb_18_1046,spring_faces,3.1.5,60.004108841344824,
condition files/Stage1_2.xlsx,,T3,B3,c,"['c', 'm']","['Clue', 'Monopoly']","[-0.15, 0.5]","[0.15, 0.5]",1,1,,,,,,,,,0,11,11,11,0,1,1,4,,,,,,,,,,,,,,,,,,,,,,,,,,,,,,,,,,,,,,,,,,,,,,,,,,,,,,,7385.2859039919995,None,7385.2859039919995,None,7385.2859039919995,None,c,1,0.9293706920007025,7386.8361488089995,None,7386.8361488089995,None,7386.8361488089995,None,7387.819740055,None,7387.819740055,None,7387.819740055,None,7387.819740055,None,,,,,,,,,,,,,,,,,,,,,,,,,,,,,,,,,,,,,,,,,,,,001,131,2020_Feb_18_1046,spring_faces,3.1.5,60.004108841344824,
condition files/Stage1_2.xlsx,,T4,B4,m,"['c', 'm']","['Clue', 'Monopoly']","[-0.15, 0.5]","[0.15, 0.5]",1,1,,,,,,,,,0,11,11,11,0,2,2,7,,,,,,,,,,,,,,,,,,,,,,,,,,,,,,,,,,,,,,,,,,,,,,,,,,,,,,,7389.785753297,None,7389.785753297,None,7389.785753297,None,m,1,0.7798267450007188,7391.321691907,None,7391.321691907,None,7391.321691907,None,7392.155210755,None,7392.155210755,None,7392.155210755,None,7392.155210755,None,,,,,,,,,,,,,,,,,,,,,,,,,,,,,,,,,,,,,,,,,,,,001,131,2020_Feb_18_1046,spring_faces,3.1.5,60.004108841344824,
condition files/Stage1_2.xlsx,,B3,T4,m,"['c', 'm']","['Clue', 'Monopoly']","[-0.15, 0.5]","[0.15, 0.5]",1,1,,,,,,,,,0,11,11,11,0,3,3,6,,,,,,,,,,,,,,,,,,,,,,,,,,,,,,,,,,,,,,,,,,,,,,,,,,,,,,,7394.11876913,None,7394.11876913,None,7394.11876913,None,m,1,1.2959208809998017,7395.669590273,None,7395.669590273,None,7395.669590273,None,7397.019116978,None,7397.019116978,None,7397.019116978,None,7397.019116978,None,,,,,,,,,,,,,,,,,,,,,,,,,,,,,,,,,,,,,,,,,,,,001,131,2020_Feb_18_1046,spring_faces,3.1.5,60.004108841344824,
condition files/Stage1_2.xlsx,,B2,T2,m,"['c', 'm']","['Clue', 'Monopoly']","[-0.15, 0.5]","[0.15, 0.5]",1,1,,,,,,,,,0,11,11,11,0,4,4,3,,,,,,,,,,,,,,,,,,,,,,,,,,,,,,,,,,,,,,,,,,,,,,,,,,,,,,,7398.985432025,None,7398.985432025,None,7398.985432025,None,m,1,2.9891016920000766,7400.5364551269995,None,7400.5364551269995,None,7400.5364551269995,None,7403.585984265,None,7403.585984265,None,7403.585984265,None,7403.585984265,None,,,,,,,,,,,,,,,,,,,,,,,,,,,,,,,,,,,,,,,,,,,,001,131,2020_Feb_18_1046,spring_faces,3.1.5,60.004108841344824,
condition files/Stage1_2.xlsx,,T2,B1,c,"['c', 'm']","['Clue', 'Monopoly']","[-0.15, 0.5]","[0.15, 0.5]",1,1,,,,,,,,,0,11,11,11,0,5,5,1,,,,,,,,,,,,,,,,,,,,,,,,,,,,,,,,,,,,,,,,,,,,,,,,,,,,,,,7405.552474425,None,7405.552474425,None,7405.552474425,None,c,1,1.7356094690003374,7407.085918014,None,7407.085918014,None,7407.085918014,None,7408.902907072,None,7408.902907072,None,7408.902907072,None,7408.902907072,None,,,,,,,,,,,,,,,,,,,,,,,,,,,,,,,,,,,,,,,,,,,,001,131,2020_Feb_18_1046,spring_faces,3.1.5,60.004108841344824,
condition files/Stage1_2.xlsx,,T1,B2,m,"['c', 'm']","['Clue', 'Monopoly']","[-0.15, 0.5]","[0.15, 0.5]",1,1,,,,,,,,,0,11,11,11,0,6,6,2,,,,,,,,,,,,,,,,,,,,,,,,,,,,,,,,,,,,,,,,,,,,,,,,,,,,,,,7410.852662731,None,7410.852662731,None,7410.852662731,None,m,1,1.5391016469993701,7412.386493169,None,7412.386493169,None,7412.386493169,None,7413.986508624,None,7413.986508624,None,7413.986508624,None,7413.986508624,None,,,,,,,,,,,,,,,,,,,,,,,,,,,,,,,,,,,,,,,,,,,,001,131,2020_Feb_18_1046,spring_faces,3.1.5,60.004108841344824,
condition files/Stage1_2.xlsx,,B4,T3,c,"['c', 'm']","['Clue', 'Monopoly']","[-0.15, 0.5]","[0.15, 0.5]",1,1,,,,,,,,,0,11,11,11,0,7,7,5,,,,,,,,,,,,,,,,,,,,,,,,,,,,,,,,,,,,,,,,,,,,,,,,,,,,,,,7415.952210141,None,7415.952210141,None,7415.952210141,None,c,1,0.8711841009999262,7417.48634505,None,7417.48634505,None,7417.48634505,None,7418.419204164,None,7418.419204164,None,7418.419204164,None,7418.419204164,None,,,,,,,,,,,,,,,,,,,,,,,,,,,,,,,,,,,,,,,,,,,,001,131,2020_Feb_18_1046,spring_faces,3.1.5,60.004108841344824,
,,,,,,,,,,,,,,,,,,,,,,,,,,,,,,,,,,,,,,,,,,,,,,,,,,,,,,,,,,,,,,,,,,,,,,,,,,,,,,,,,,,,,,,,,,,,,,,,,,,,,,,,,,,,,,,,7420.402866633,None,space,7.194777128000169,7425.402670637,None,,,,,,,,,,,,,,,,,,,,,,,,,,,,,,001,131,2020_Feb_18_1046,spring_faces,3.1.5,60.004108841344824,
condition files/Stage2_1.xlsx,,B2,T2,r,"['s', 'r']","['Stratego', 'Risk']","[-0.15, 0.5]","[0.15, 0.5]",1,1,,,,,,,,,,,,,,,,,0,0,0,0,0,0,0,3,,,,,,,,,,,,,,,,,,,,,,,,,,,,,,,,,,,,,,,,,,,,,,,7432.6856124,None,7432.6856124,None,7432.6856124,None,s,0,0.6514976110001953,7434.170002476,None,7434.170002476,None,7434.170002476,None,7434.887536002,None,7434.887536002,None,7434.887536002,None,7434.887536002,None,,,,,,,,,,,,,,,7425.402670637,None,,,,,,,,,,,,,,,,,,,,,,,,,,,,001,131,2020_Feb_18_1046,spring_faces,3.1.5,60.004108841344824,
condition files/Stage2_1.xlsx,,T5,B5,s,"['s', 'r']","['Stratego', 'Risk']","[-0.15, 0.5]","[0.15, 0.5]",1,1,,,,,,,,,,,,,,,,,0,0,0,0,0,1,1,0,,,,,,,,,,,,,,,,,,,,,,,,,,,,,,,,,,,,,,,,,,,,,,,7436.851880387,None,7436.851880387,None,7436.851880387,None,s,1,0.9773916450003526,7438.436069062,None,7438.436069062,None,7438.436069062,None,7439.470704102,None,7439.470704102,None,7439.470704102,None,7439.470704102,None,,,,,,,,,,,,,,,,,,,,,,,,,,,,,,,,,,,,,,,,,,,,001,131,2020_Feb_18_1046,spring_faces,3.1.5,60.004108841344824,
condition files/Stage2_1.xlsx,,B4,T4,r,"['s', 'r']","['Stratego', 'Risk']","[-0.15, 0.5]","[0.15, 0.5]",1,1,,,,,,,,,,,,,,,,,0,0,0,0,0,2,2,5,,,,,,,,,,,,,,,,,,,,,,,,,,,,,,,,,,,,,,,,,,,,,,,7441.435575392999,None,7441.435575392999,None,7441.435575392999,None,r,1,0.8269269140000688,7442.970544850999,None,7442.970544850999,None,7442.970544850999,None,7443.853043984,None,7443.853043984,None,7443.853043984,None,7443.853043984,None,,,,,,,,,,,,,,,,,,,,,,,,,,,,,,,,,,,,,,,,,,,,001,131,2020_Feb_18_1046,spring_faces,3.1.5,60.004108841344824,
condition files/Stage2_1.xlsx,,T3,B3,s,"['s', 'r']","['Stratego', 'Risk']","[-0.15, 0.5]","[0.15, 0.5]",1,1,,,,,,,,,,,,,,,,,0,0,0,0,0,3,3,4,,,,,,,,,,,,,,,,,,,,,,,,,,,,,,,,,,,,,,,,,,,,,,,7445.818787993,None,7445.818787993,None,7445.818787993,None,s,1,1.117126780000035,7447.352346544,None,7447.352346544,None,7447.352346544,None,7448.536496314,None,7448.536496314,None,7448.536496314,None,7448.536496314,None,,,,,,,,,,,,,,,,,,,,,,,,,,,,,,,,,,,,,,,,,,,,001,131,2020_Feb_18_1046,spring_faces,3.1.5,60.004108841344824,
condition files/Stage2_1.xlsx,,B6,T6,r,"['s', 'r']","['Stratego', 'Risk']","[-0.15, 0.5]","[0.15, 0.5]",1,1,,,,,,,,,,,,,,,,,0,0,0,0,0,4,4,1,,,,,,,,,,,,,,,,,,,,,,,,,,,,,,,,,,,,,,,,,,,,,,,7450.502633403,None,7450.502633403,None,7450.502633403,None,r,1,1.0392436559995986,7452.086330683,None,7452.086330683,None,7452.086330683,None,7453.186745385,None,7453.186745385,None,7453.186745385,None,7453.186745385,None,,,,,,,,,,,,,,,,,,,,,,,,,,,,,,,,,,,,,,,,,,,,001,131,2020_Feb_18_1046,spring_faces,3.1.5,60.004108841344824,
condition files/Stage2_1.xlsx,,T1,B1,s,"['s', 'r']","['Stratego', 'Risk']","[-0.15, 0.5]","[0.15, 0.5]",1,1,,,,,,,,,,,,,,,,,0,0,0,0,0,5,5,2,,,,,,,,,,,,,,,,,,,,,,,,,,,,,,,,,,,,,,,,,,,,,,,7455.152587169,None,7455.152587169,None,7455.152587169,None,r,0,1.173977828999341,7456.687611908,None,7456.687611908,None,7456.687611908,None,7457.921125224,None,7457.921125224,None,7457.921125224,None,7457.921125224,None,,,,,,,,,,,,,,,,,,,,,,,,,,,,,,,,,,,,,,,,,,,,001,131,2020_Feb_18_1046,spring_faces,3.1.5,60.004108841344824,
condition files/Stage2_2.xlsx,,B1,T1,s,"['s', 'r']","['Stratego', 'Risk']","[-0.15, 0.5]","[0.15, 0.5]",1,1,,,,,,,,,,,,,,,,,0,1,1,1,0,0,0,2,,,,,,,,,,,,,,,,,,,,,,,,,,,,,,,,,,,,,,,,,,,,,,,7459.919227007,None,7459.919227007,None,7459.919227007,None,r,0,0.6965549200003807,7461.4369632259995,None,7461.4369632259995,None,7461.4369632259995,None,7462.185927195,None,7462.185927195,None,7462.185927195,None,7462.185927195,None,,,,,,,,,,,,,,,,,,,,,,,,,,,,,,,,,,,,,,,,,,,,001,131,2020_Feb_18_1046,spring_faces,3.1.5,60.004108841344824,
condition files/Stage2_2.xlsx,,T4,B4,r,"['s', 'r']","['Stratego', 'Risk']","[-0.15, 0.5]","[0.15, 0.5]",1,1,,,,,,,,,,,,,,,,,0,1,1,1,0,1,1,5,,,,,,,,,,,,,,,,,,,,,,,,,,,,,,,,,,,,,,,,,,,,,,,7464.152612197,None,7464.152612197,None,7464.152612197,None,r,1,0.8938164489991323,7465.687674703,None,7465.687674703,None,7465.687674703,None,7466.65307978,None,7466.65307978,None,7466.65307978,None,7466.65307978,None,,,,,,,,,,,,,,,,,,,,,,,,,,,,,,,,,,,,,,,,,,,,001,131,2020_Feb_18_1046,spring_faces,3.1.5,60.004108841344824,
condition files/Stage2_2.xlsx,,B3,T3,s,"['s', 'r']","['Stratego', 'Risk']","[-0.15, 0.5]","[0.15, 0.5]",1,1,,,,,,,,,,,,,,,,,0,1,1,1,0,2,2,4,,,,,,,,,,,,,,,,,,,,,,,,,,,,,,,,,,,,,,,,,,,,,,,7468.602102496,None,7468.602102496,None,7468.602102496,None,s,1,0.9886100489993623,7470.136981085,None,7470.136981085,None,7470.136981085,None,7471.185971865,None,7471.185971865,None,7471.185971865,None,7471.185971865,None,,,,,,,,,,,,,,,,,,,,,,,,,,,,,,,,,,,,,,,,,,,,001,131,2020_Feb_18_1046,spring_faces,3.1.5,60.004108841344824,
condition files/Stage2_2.xlsx,,T2,B2,r,"['s', 'r']","['Stratego', 'Risk']","[-0.15, 0.5]","[0.15, 0.5]",1,1,,,,,,,,,,,,,,,,,0,1,1,1,0,3,3,3,,,,,,,,,,,,,,,,,,,,,,,,,,,,,,,,,,,,,,,,,,,,,,,7473.1528126329995,None,7473.1528126329995,None,7473.1528126329995,None,r,1,1.126476666000599,7474.703095881,None,7474.703095881,None,7474.703095881,None,7475.888034297,None,7475.888034297,None,7475.888034297,None,7475.888034297,None,,,,,,,,,,,,,,,,,,,,,,,,,,,,,,,,,,,,,,,,,,,,001,131,2020_Feb_18_1046,spring_faces,3.1.5,60.004108841344824,
condition files/Stage2_2.xlsx,,T6,B6,r,"['s', 'r']","['Stratego', 'Risk']","[-0.15, 0.5]","[0.15, 0.5]",1,1,,,,,,,,,,,,,,,,,0,1,1,1,0,4,4,1,,,,,,,,,,,,,,,,,,,,,,,,,,,,,,,,,,,,,,,,,,,,,,,7477.852617702,None,7477.852617702,None,7477.852617702,None,s,0,1.8191503269999885,7479.402317373,None,7479.402317373,None,7479.402317373,None,7481.286485259,None,7481.286485259,None,7481.286485259,None,7481.286485259,None,,,,,,,,,,,,,,,,,,,,,,,,,,,,,,,,,,,,,,,,,,,,001,131,2020_Feb_18_1046,spring_faces,3.1.5,60.004108841344824,
condition files/Stage2_2.xlsx,,B5,T5,s,"['s', 'r']","['Stratego', 'Risk']","[-0.15, 0.5]","[0.15, 0.5]",1,1,,,,,,,,,,,,,,,,,0,1,1,1,0,5,5,0,,,,,,,,,,,,,,,,,,,,,,,,,,,,,,,,,,,,,,,,,,,,,,,7483.252360579,None,7483.252360579,None,7483.252360579,None,s,1,1.2986549600000217,7484.802842962999,None,7484.802842962999,None,7484.802842962999,None,7486.152798585,None,7486.152798585,None,7486.152798585,None,7486.152798585,None,,,,,,,,,,,,,,,,,,,,,,,,,,,,,,,,,,,,,,,,,,,,001,131,2020_Feb_18_1046,spring_faces,3.1.5,60.004108841344824,
condition files/Stage2_1.xlsx,,B2,T2,r,"['s', 'r']","['Stratego', 'Risk']","[-0.15, 0.5]","[0.15, 0.5]",1,1,,,,,,,,,,,,,,,,,0,2,2,2,0,0,0,3,,,,,,,,,,,,,,,,,,,,,,,,,,,,,,,,,,,,,,,,,,,,,,,7488.135742614,None,7488.135742614,None,7488.135742614,None,s,0,1.1351044180000827,7489.686414127,None,7489.686414127,None,7489.686414127,None,7490.886962447,None,7490.886962447,None,7490.886962447,None,7490.886962447,None,,,,,,,,,,,,,,,,,,,,,,,,,,,,,,,,,,,,,,,,,,,,001,131,2020_Feb_18_1046,spring_faces,3.1.5,60.004108841344824,
condition files/Stage2_1.xlsx,,T3,B3,s,"['s', 'r']","['Stratego', 'Risk']","[-0.15, 0.5]","[0.15, 0.5]",1,1,,,,,,,,,,,,,,,,,0,2,2,2,0,1,1,4,,,,,,,,,,,,,,,,,,,,,,,,,,,,,,,,,,,,,,,,,,,,,,,7492.852525419,None,7492.852525419,None,7492.852525419,None,s,1,0.9616009519995714,7494.387975223,None,7494.387975223,None,7494.387975223,None,7495.419680532,None,7495.419680532,None,7495.419680532,None,7495.419680532,None,,,,,,,,,,,,,,,,,,,,,,,,,,,,,,,,,,,,,,,,,,,,001,131,2020_Feb_18_1046,spring_faces,3.1.5,60.004108841344824,
condition files/Stage2_1.xlsx,,T1,B1,s,"['s', 'r']","['Stratego', 'Risk']","[-0.15, 0.5]","[0.15, 0.5]",1,1,,,,,,,,,,,,,,,,,0,2,2,2,0,2,2,2,,,,,,,,,,,,,,,,,,,,,,,,,,,,,,,,,,,,,,,,,,,,,,,7497.369131667,None,7497.369131667,None,7497.369131667,None,s,1,1.2143268769996212,7498.903196304,None,7498.903196304,None,7498.903196304,None,7500.169429343,None,7500.169429343,None,7500.169429343,None,7500.169429343,None,,,,,,,,,,,,,,,,,,,,,,,,,,,,,,,,,,,,,,,,,,,,001,131,2020_Feb_18_1046,spring_faces,3.1.5,60.004108841344824,
condition files/Stage2_1.xlsx,,B6,T6,r,"['s', 'r']","['Stratego', 'Risk']","[-0.15, 0.5]","[0.15, 0.5]",1,1,,,,,,,,,,,,,,,,,0,2,2,2,0,3,3,1,,,,,,,,,,,,,,,,,,,,,,,,,,,,,,,,,,,,,,,,,,,,,,,7502.135773751,None,7502.135773751,None,7502.135773751,None,r,1,0.8957084199992096,7503.669814069,None,7503.669814069,None,7503.669814069,None,7504.635920299,None,7504.635920299,None,7504.635920299,None,7504.635920299,None,,,,,,,,,,,,,,,,,,,,,,,,,,,,,,,,,,,,,,,,,,,,001,131,2020_Feb_18_1046,spring_faces,3.1.5,60.004108841344824,
condition files/Stage2_1.xlsx,,B4,T4,r,"['s', 'r']","['Stratego', 'Risk']","[-0.15, 0.5]","[0.15, 0.5]",1,1,,,,,,,,,,,,,,,,,0,2,2,2,0,4,4,5,,,,,,,,,,,,,,,,,,,,,,,,,,,,,,,,,,,,,,,,,,,,,,,7506.5858752409995,None,7506.5858752409995,None,7506.5858752409995,None,r,1,0.9403812570008085,7508.1212133,None,7508.1212133,None,7508.1212133,None,7509.119690728,None,7509.119690728,None,7509.119690728,None,7509.119690728,None,,,,,,,,,,,,,,,,,,,,,,,,,,,,,,,,,,,,,,,,,,,,001,131,2020_Feb_18_1046,spring_faces,3.1.5,60.004108841344824,
condition files/Stage2_1.xlsx,,T5,B5,s,"['s', 'r']","['Stratego', 'Risk']","[-0.15, 0.5]","[0.15, 0.5]",1,1,,,,,,,,,,,,,,,,,0,2,2,2,0,5,5,0,,,,,,,,,,,,,,,,,,,,,,,,,,,,,,,,,,,,,,,,,,,,,,,7511.085696194,None,7511.085696194,None,7511.085696194,None,s,1,1.2248419860006834,7512.6207227919995,None,7512.6207227919995,None,7512.6207227919995,None,7513.903733036,None,7513.903733036,None,7513.903733036,None,7513.903733036,None,,,,,,,,,,,,,,,,,,,,,,,,,,,,,,,,,,,,,,,,,,,,001,131,2020_Feb_18_1046,spring_faces,3.1.5,60.004108841344824,
condition files/Stage2_2.xlsx,,T4,B4,r,"['s', 'r']","['Stratego', 'Risk']","[-0.15, 0.5]","[0.15, 0.5]",1,1,,,,,,,,,,,,,,,,,0,3,3,3,0,0,0,5,,,,,,,,,,,,,,,,,,,,,,,,,,,,,,,,,,,,,,,,,,,,,,,7515.885958346,None,7515.885958346,None,7515.885958346,None,r,1,0.7443614269996033,7517.421168089,None,7517.421168089,None,7517.421168089,None,7518.235831492,None,7518.235831492,None,7518.235831492,None,7518.235831492,None,,,,,,,,,,,,,,,,,,,,,,,,,,,,,,,,,,,,,,,,,,,,001,131,2020_Feb_18_1046,spring_faces,3.1.5,60.004108841344824,
condition files/Stage2_2.xlsx,,B3,T3,s,"['s', 'r']","['Stratego', 'Risk']","[-0.15, 0.5]","[0.15, 0.5]",1,1,,,,,,,,,,,,,,,,,0,3,3,3,0,1,1,4,,,,,,,,,,,,,,,,,,,,,,,,,,,,,,,,,,,,,,,,,,,,,,,7520.185035412,None,7520.185035412,None,7520.185035412,None,s,1,0.8780349750004461,7521.735519218,None,7521.735519218,None,7521.735519218,None,7522.686177871,None,7522.686177871,None,7522.686177871,None,7522.686177871,None,,,,,,,,,,,,,,,,,,,,,,,,,,,,,,,,,,,,,,,,,,,,001,131,2020_Feb_18_1046,spring_faces,3.1.5,60.004108841344824,
condition files/Stage2_2.xlsx,,T2,B2,r,"['s', 'r']","['Stratego', 'Risk']","[-0.15, 0.5]","[0.15, 0.5]",1,1,,,,,,,,,,,,,,,,,0,3,3,3,0,2,2,3,,,,,,,,,,,,,,,,,,,,,,,,,,,,,,,,,,,,,,,,,,,,,,,7524.636095647,None,7524.636095647,None,7524.636095647,None,s,0,0.9234604709999985,7526.170138499,None,7526.170138499,None,7526.170138499,None,7527.152346166,None,7527.152346166,None,7527.152346166,None,7527.152346166,None,,,,,,,,,,,,,,,,,,,,,,,,,,,,,,,,,,,,,,,,,,,,001,131,2020_Feb_18_1046,spring_faces,3.1.5,60.004108841344824,
condition files/Stage2_2.xlsx,,B5,T5,s,"['s', 'r']","['Stratego', 'Risk']","[-0.15, 0.5]","[0.15, 0.5]",1,1,,,,,,,,,,,,,,,,,0,3,3,3,0,3,3,0,,,,,,,,,,,,,,,,,,,,,,,,,,,,,,,,,,,,,,,,,,,,,,,7529.118805257,None,7529.118805257,None,7529.118805257,None,s,1,1.2558027439999933,7530.6697731859995,None,7530.6697731859995,None,7530.6697731859995,None,7531.987008926,None,7531.987008926,None,7531.987008926,None,7531.987008926,None,,,,,,,,,,,,,,,,,,,,,,,,,,,,,,,,,,,,,,,,,,,,001,131,2020_Feb_18_1046,spring_faces,3.1.5,60.004108841344824,
condition files/Stage2_2.xlsx,,B1,T1,s,"['s', 'r']","['Stratego', 'Risk']","[-0.15, 0.5]","[0.15, 0.5]",1,1,,,,,,,,,,,,,,,,,0,3,3,3,0,4,4,2,,,,,,,,,,,,,,,,,,,,,,,,,,,,,,,,,,,,,,,,,,,,,,,7533.952832659,None,7533.952832659,None,7533.952832659,None,s,1,1.222746563000328,7535.502825453,None,7535.502825453,None,7535.502825453,None,7536.7862008990005,None,7536.7862008990005,None,7536.7862008990005,None,7536.7862008990005,None,,,,,,,,,,,,,,,,,,,,,,,,,,,,,,,,,,,,,,,,,,,,001,131,2020_Feb_18_1046,spring_faces,3.1.5,60.004108841344824,
condition files/Stage2_2.xlsx,,T6,B6,r,"['s', 'r']","['Stratego', 'Risk']","[-0.15, 0.5]","[0.15, 0.5]",1,1,,,,,,,,,,,,,,,,,0,3,3,3,0,5,5,1,,,,,,,,,,,,,,,,,,,,,,,,,,,,,,,,,,,,,,,,,,,,,,,7538.752652959,None,7538.752652959,None,7538.752652959,None,r,1,0.9184825829997862,7540.302986987,None,7540.302986987,None,7540.302986987,None,7541.285661452,None,7541.285661452,None,7541.285661452,None,7541.285661452,None,,,,,,,,,,,,,,,,,,,,,,,,,,,,,,,,,,,,,,,,,,,,001,131,2020_Feb_18_1046,spring_faces,3.1.5,60.004108841344824,
condition files/Stage2_1.xlsx,,B2,T2,r,"['s', 'r']","['Stratego', 'Risk']","[-0.15, 0.5]","[0.15, 0.5]",1,1,,,,,,,,,,,,,,,,,0,4,4,4,0,0,0,3,,,,,,,,,,,,,,,,,,,,,,,,,,,,,,,,,,,,,,,,,,,,,,,7543.269403652,None,7543.269403652,None,7543.269403652,None,r,1,1.0101977060003264,7544.81939,None,7544.81939,None,7544.81939,None,7545.886241122999,None,7545.886241122999,None,7545.886241122999,None,7545.886241122999,None,,,,,,,,,,,,,,,,,,,,,,,,,,,,,,,,,,,,,,,,,,,,001,131,2020_Feb_18_1046,spring_faces,3.1.5,60.004108841344824,
condition files/Stage2_1.xlsx,,T1,B1,s,"['s', 'r']","['Stratego', 'Risk']","[-0.15, 0.5]","[0.15, 0.5]",1,1,,,,,,,,,,,,,,,,,0,4,4,4,0,1,1,2,,,,,,,,,,,,,,,,,,,,,,,,,,,,,,,,,,,,,,,,,,,,,,,7547.851963054999,None,7547.851963054999,None,7547.851963054999,None,s,1,1.4339081199996144,7549.387621526,None,7549.387621526,None,7549.387621526,None,7550.902726015999,None,7550.902726015999,None,7550.902726015999,None,7550.902726015999,None,,,,,,,,,,,,,,,,,,,,,,,,,,,,,,,,,,,,,,,,,,,,001,131,2020_Feb_18_1046,spring_faces,3.1.5,60.004108841344824,
condition files/Stage2_1.xlsx,,T5,B5,s,"['s', 'r']","['Stratego', 'Risk']","[-0.15, 0.5]","[0.15, 0.5]",1,1,,,,,,,,,,,,,,,,,0,4,4,4,0,2,2,0,,,,,,,,,,,,,,,,,,,,,,,,,,,,,,,,,,,,,,,,,,,,,,,7552.852748005001,None,7552.852748005001,None,7552.852748005001,None,s,1,0.8505794259999675,7554.402901217999,None,7554.402901217999,None,7554.402901217999,None,7555.319515939001,None,7555.319515939001,None,7555.319515939001,None,7555.319515939001,None,,,,,,,,,,,,,,,,,,,,,,,,,,,,,,,,,,,,,,,,,,,,001,131,2020_Feb_18_1046,spring_faces,3.1.5,60.004108841344824,
condition files/Stage2_1.xlsx,,B4,T4,r,"['s', 'r']","['Stratego', 'Risk']","[-0.15, 0.5]","[0.15, 0.5]",1,1,,,,,,,,,,,,,,,,,0,4,4,4,0,3,3,5,,,,,,,,,,,,,,,,,,,,,,,,,,,,,,,,,,,,,,,,,,,,,,,7557.285617541001,None,7557.285617541001,None,7557.285617541001,None,r,1,0.769797261000349,7558.8197293660005,None,7558.8197293660005,None,7558.8197293660005,None,7559.669722764001,None,7559.669722764001,None,7559.669722764001,None,7559.669722764001,None,,,,,,,,,,,,,,,,,,,,,,,,,,,,,,,,,,,,,,,,,,,,001,131,2020_Feb_18_1046,spring_faces,3.1.5,60.004108841344824,
condition files/Stage2_1.xlsx,,T3,B3,s,"['s', 'r']","['Stratego', 'Risk']","[-0.15, 0.5]","[0.15, 0.5]",1,1,,,,,,,,,,,,,,,,,0,4,4,4,0,4,4,4,,,,,,,,,,,,,,,,,,,,,,,,,,,,,,,,,,,,,,,,,,,,,,,7561.619212369999,None,7561.619212369999,None,7561.619212369999,None,s,1,0.7085557449991029,7563.1690262990005,None,7563.1690262990005,None,7563.1690262990005,None,7563.9362203030005,None,7563.9362203030005,None,7563.9362203030005,None,7563.9362203030005,None,,,,,,,,,,,,,,,,,,,,,,,,,,,,,,,,,,,,,,,,,,,,001,131,2020_Feb_18_1046,spring_faces,3.1.5,60.004108841344824,
condition files/Stage2_1.xlsx,,B6,T6,r,"['s', 'r']","['Stratego', 'Risk']","[-0.15, 0.5]","[0.15, 0.5]",1,1,,,,,,,,,,,,,,,,,0,4,4,4,0,5,5,1,,,,,,,,,,,,,,,,,,,,,,,,,,,,,,,,,,,,,,,,,,,,,,,7565.902659857999,None,7565.902659857999,None,7565.902659857999,None,r,1,0.8394287789997179,7567.4381571,None,7567.4381571,None,7567.4381571,None,7568.33622754,None,7568.33622754,None,7568.33622754,None,7568.33622754,None,,,,,,,,,,,,,,,,,,,,,,,,,,,,,,,,,,,,,,,,,,,,001,131,2020_Feb_18_1046,spring_faces,3.1.5,60.004108841344824,
condition files/Stage2_2.xlsx,,T6,B6,r,"['s', 'r']","['Stratego', 'Risk']","[-0.15, 0.5]","[0.15, 0.5]",1,1,,,,,,,,,,,,,,,,,0,5,5,5,0,0,0,1,,,,,,,,,,,,,,,,,,,,,,,,,,,,,,,,,,,,,,,,,,,,,,,7570.319222441,None,7570.319222441,None,7570.319222441,None,r,1,0.648465676998967,7571.869046634999,None,7571.869046634999,None,7571.869046634999,None,7572.5691186409995,None,7572.5691186409995,None,7572.5691186409995,None,7572.5691186409995,None,,,,,,,,,,,,,,,,,,,,,,,,,,,,,,,,,,,,,,,,,,,,001,131,2020_Feb_18_1046,spring_faces,3.1.5,60.004108841344824,
condition files/Stage2_2.xlsx,,B5,T5,s,"['s', 'r']","['Stratego', 'Risk']","[-0.15, 0.5]","[0.15, 0.5]",1,1,,,,,,,,,,,,,,,,,0,5,5,5,0,1,1,0,,,,,,,,,,,,,,,,,,,,,,,,,,,,,,,,,,,,,,,,,,,,,,,7574.535293501999,None,7574.535293501999,None,7574.535293501999,None,s,1,0.7508678109988978,7576.070657715,None,7576.070657715,None,7576.070657715,None,7576.887187108,None,7576.887187108,None,7576.887187108,None,7576.887187108,None,,,,,,,,,,,,,,,,,,,,,,,,,,,,,,,,,,,,,,,,,,,,001,131,2020_Feb_18_1046,spring_faces,3.1.5,60.004108841344824,
condition files/Stage2_2.xlsx,,T2,B2,r,"['s', 'r']","['Stratego', 'Risk']","[-0.15, 0.5]","[0.15, 0.5]",1,1,,,,,,,,,,,,,,,,,0,5,5,5,0,2,2,3,,,,,,,,,,,,,,,,,,,,,,,,,,,,,,,,,,,,,,,,,,,,,,,7578.852155297999,None,7578.852155297999,None,7578.852155297999,None,s,0,1.475720229000217,7580.385869712999,None,7580.385869712999,None,7580.385869712999,None,7581.919042646,None,7581.919042646,None,7581.919042646,None,7581.919042646,None,,,,,,,,,,,,,,,,,,,,,,,,,,,,,,,,,,,,,,,,,,,,001,131,2020_Feb_18_1046,spring_faces,3.1.5,60.004108841344824,
condition files/Stage2_2.xlsx,,B3,T3,s,"['s', 'r']","['Stratego', 'Risk']","[-0.15, 0.5]","[0.15, 0.5]",1,1,,,,,,,,,,,,,,,,,0,5,5,5,0,3,3,4,,,,,,,,,,,,,,,,,,,,,,,,,,,,,,,,,,,,,,,,,,,,,,,7583.886070373,None,7583.886070373,None,7583.886070373,None,s,1,0.8896938910002063,7585.435881742999,None,7585.435881742999,None,7585.435881742999,None,7586.388510375999,None,7586.388510375999,None,7586.388510375999,None,7586.388510375999,None,,,,,,,,,,,,,,,,,,,,,,,,,,,,,,,,,,,,,,,,,,,,001,131,2020_Feb_18_1046,spring_faces,3.1.5,60.004108841344824,
condition files/Stage2_2.xlsx,,B1,T1,s,"['s', 'r']","['Stratego', 'Risk']","[-0.15, 0.5]","[0.15, 0.5]",1,1,,,,,,,,,,,,,,,,,0,5,5,5,0,4,4,2,,,,,,,,,,,,,,,,,,,,,,,,,,,,,,,,,,,,,,,,,,,,,,,7588.352288461,None,7588.352288461,None,7588.352288461,None,s,1,0.8212719090006431,7589.888304383,None,7589.888304383,None,7589.888304383,None,7590.769191996999,None,7590.769191996999,None,7590.769191996999,None,7590.769191996999,None,,,,,,,,,,,,,,,,,,,,,,,,,,,,,,,,,,,,,,,,,,,,001,131,2020_Feb_18_1046,spring_faces,3.1.5,60.004108841344824,
condition files/Stage2_2.xlsx,,T4,B4,r,"['s', 'r']","['Stratego', 'Risk']","[-0.15, 0.5]","[0.15, 0.5]",1,1,,,,,,,,,,,,,,,,,0,5,5,5,0,5,5,5,,,,,,,,,,,,,,,,,,,,,,,,,,,,,,,,,,,,,,,,,,,,,,,7592.735438511,None,7592.735438511,None,7592.735438511,None,r,1,1.223277909000899,7594.2863024240005,None,7594.2863024240005,None,7594.2863024240005,None,7595.571799598,None,7595.571799598,None,7595.571799598,None,7595.571799598,None,,,,,,,,,,,,,,,,,,,,,,,,,,,,,,,,,,,,,,,,,,,,001,131,2020_Feb_18_1046,spring_faces,3.1.5,60.004108841344824,
