condsFile,subStage,cue1,cue2,correct,responseKeys,responseNames,cue1Position,cue2Position,cue1Opacity,cue2Opacity,stageLoop0.thisRepN,stageLoop0.thisTrialN,stageLoop0.thisN,stageLoop0.thisIndex,blockLoop0.thisRepN,blockLoop0.thisTrialN,blockLoop0.thisN,blockLoop0.thisIndex,stage1Loop.thisRepN,stage1Loop.thisTrialN,stage1Loop.thisN,stage1Loop.thisIndex,blockLoop1.thisRepN,blockLoop1.thisTrialN,blockLoop1.thisN,blockLoop1.thisIndex,stage2Loop.thisRepN,stage2Loop.thisTrialN,stage2Loop.thisN,stage2Loop.thisIndex,blockLoop2.thisRepN,blockLoop2.thisTrialN,blockLoop2.thisN,blockLoop2.thisIndex,testLoop.thisRepN,testLoop.thisTrialN,testLoop.thisN,testLoop.thisIndex,blockLoopTest.thisRepN,blockLoopTest.thisTrialN,blockLoopTest.thisN,blockLoopTest.thisIndex,cuePics,id_instr_text.started,id_instr_text.stopped,space_to_continue_2.started,space_to_continue_2.stopped,end_instructions_resp_3.keys,end_instructions_resp_3.rt,end_instructions_resp_3.started,end_instructions_resp_3.stopped,id_input_instr.started,id_input_instr.stopped,id_input_rect.started,id_input_rect.stopped,id_input_resp.keys,id_input_resp.rt,id_input_resp.started,id_input_resp.stopped,sonaID,id_input_text.started,id_input_text.stopped,final_text.started,final_text.stopped,instructions.started,instructions.stopped,end_instructions_resp.keys,end_instructions_resp.rt,end_instructions_resp.started,end_instructions_resp.stopped,space_to_continue.started,space_to_continue.stopped,instructions_stage0.started,instructions_stage0.stopped,end_instructions_resp_stage0.keys,end_instructions_resp_stage0.rt,end_instructions_resp_stage0.started,end_instructions_resp_stage0.stopped,space_to_continue_stage0.started,space_to_continue_stage0.stopped,text.started,text.stopped,resp_text1.started,resp_text1.stopped,resp_text2.started,resp_text2.stopped,trial_resp.keys,trial_resp.corr,trial_resp.rt,trial_resp.started,trial_resp.stopped,cue1Image.started,cue1Image.stopped,cue2Image.started,cue2Image.stopped,cue1Image_fb.started,cue1Image_fb.stopped,cue2Image_fb.started,cue2Image_fb.stopped,fb_text_answer.started,fb_text_answer.stopped,feedback_image.started,feedback_image.stopped,instructions_stage1.started,instructions_stage1.stopped,end_instructions_resp_stage1.keys,end_instructions_resp_stage1.rt,end_instructions_resp_stage1.started,end_instructions_resp_stage1.stopped,space_to_continue_stage1.started,space_to_continue_stage1.stopped,instructions_2.started,instructions_2.stopped,end_instructions_resp_2.keys,end_instructions_resp_2.rt,end_instructions_resp_2.started,end_instructions_resp_2.stopped,press_space_to_continue_stage2.started,press_space_to_continue_stage2.stopped,instructions_testStage1.started,instructions_testStage1.stopped,end_instructions_resp_test1.keys,end_instructions_resp_test1.rt,end_instructions_resp_test1.started,end_instructions_resp_test1.stopped,press_space_to_continue_test1.started,press_space_to_continue_test1.stopped,cue1Image_testChoice.started,cue1Image_testChoice.stopped,cue2Image_testChoice.started,cue2Image_testChoice.stopped,test_resp.keys,test_resp.corr,test_resp.rt,test_resp.started,test_resp.stopped,cue1Image_testConf.started,cue1Image_testConf.stopped,cue2Image_testConf.started,cue2Image_testConf.stopped,conf_reminder.started,conf_reminder.stopped,conf_rating.response,conf_rating.rt,conf_rating.started,conf_rating.stopped,session,participant,date,expName,psychopyVersion,frameRate,
,,,,,,,,,,,,,,,,,,,,,,,,,,,,,,,,,,,,,,,,,,,"{'none': 'pictures/20M_AN_C.png', 'alpha': 'pictures/SHINEd_apple.png', 'beta': 'pictures/SHINEd_pepper.png', 'theta': 'pictures/SHINEd_melon.png', 'phi': 'pictures/SHINEd_pear.png', 'T1': 'pictures/34M_AN_C.png', 'T2': 'pictures/32M_AN_C.png', 'T3': 'pictures/31M_AN_C.png', 'T4': 'pictures/26M_AN_C.png', 'T5': 'pictures/36M_AN_C.png', 'T6': 'pictures/37M_AN_C.png', 'B1': 'pictures/25M_NE_C.png', 'B2': 'pictures/23M_NE_C.png', 'B3': 'pictures/22M_NE_C.png', 'B4': 'pictures/38M_NE_C.png', 'B5': 'pictures/33M_NE_C.png', 'B6': 'pictures/20M_NE_C.png'}",16.088258466999832,None,21.08818137399976,None,space,766.9180835620009,21.08818137399976,None,,,,,,,,,,,,,,,,,,,,,,,,,,,,,,,,,,,,,,,,,,,,,,,,,,,,,,,,,,,,,,,,,,,,,,,,,,,,,,,,,,,,,,,,,,,,,,,,001,133,2020_Feb_18_1122,spring_faces,3.1.5,60.00133730963351,
,,,,,,,,,,,,,,,,,,,,,,,,,,,,,,,,,,,,,,,,,,,,,,,,,,,,788.4213395759998,None,788.4213395759998,None,"['0', '1', '2', '7', 'b', 'a', 's', 't', 'a']","[9.104989139999816, 9.52099234600064, 11.361051152000073, 11.744968644999972, 14.864974261001407, 15.952980313000808, 18.641037627001424, 19.136978471000475, 21.02503596600036]",788.4213395759998,None,,,,,,,,,,,,,,,,,,,,,,,,,,,,,,,,,,,,,,,,,,,,,,,,,,,,,,,,,,,,,,,,,,,,,,,,,,,,,,,,,,,,,,,,001,133,2020_Feb_18_1122,spring_faces,3.1.5,60.00133730963351,
,,,,,,,,,,,,,,,,,,,,,,,,,,,,,,,,,,,,,,,,,,,,,,,,,,,,,,,,,,,,0127basta,788.4213395759998,None,788.4213395759998,None,814.5218199179999,None,space,0.5967199520000577,819.5215034070006,None,,,,,,,,,,,,,,,,,,,,,,,,,,,,,,,,,,,,,,,,,,,,,,,,,,,,,,,,,,,,,,,,,,,,,,,,,,,,,001,133,2020_Feb_18_1122,spring_faces,3.1.5,60.00133730963351,
,,,,,,,,,,,,,,,,,,,,,,,,,,,,,,,,,,,,,,,,,,,,,,,,,,,,,,,,,,,,,,,,,,,,,,,819.5215034070006,None,820.1547903610008,None,space,5.363414159999593,825.1548789949993,None,,,,,,,,,,,,,,,,,,,,,,,,,,,,,,,,,,,,,,,,,,,,,,,,,,,,,,,,,,,,,,,,,,,,,001,133,2020_Feb_18_1122,spring_faces,3.1.5,60.00133730963351,
condition files/Stage0a.xlsx,0a,beta,none,g,"['h', 'g']","['Chess', 'Go']","[0, 0.5]","[0, 0]",1,0,0,0,0,0,0,0,0,1,,,,,,,,,,,,,,,,,,,,,,,,,,,,,,,,,,,,,,,,,,,,,,,,,,,,,,,,,,,,,825.1548789949993,None,830.5716686480009,None,830.5716686480009,None,830.5716686480009,None,g,1,2.3103452420000394,832.2080926559993,None,832.2080926559993,None,832.2080926559993,None,834.5883688930007,None,834.5883688930007,None,834.5883688930007,None,834.5883688930007,None,,,,,,,,,,,,,,,,,,,,,,,,,,,,,,,,,,,,,,,,,,,,001,133,2020_Feb_18_1122,spring_faces,3.1.5,60.00133730963351,
condition files/Stage0a.xlsx,0a,alpha,none,h,"['h', 'g']","['Chess', 'Go']","[0, 0.5]","[0, 0]",1,0,0,0,0,0,0,1,1,0,,,,,,,,,,,,,,,,,,,,,,,,,,,,,,,,,,,,,,,,,,,,,,,,,,,,,,,,,,,,,,,836.5383118219997,None,836.5383118219997,None,836.5383118219997,None,h,1,1.4846248359990568,838.0736876320007,None,838.0736876320007,None,838.0736876320007,None,839.6210161090003,None,839.6210161090003,None,839.6210161090003,None,839.6210161090003,None,,,,,,,,,,,,,,,,,,,,,,,,,,,,,,,,,,,,,,,,,,,,001,133,2020_Feb_18_1122,spring_faces,3.1.5,60.00133730963351,
condition files/Stage0a.xlsx,0a,alpha,none,h,"['h', 'g']","['Chess', 'Go']","[0, 0.5]","[0, 0]",1,0,0,1,1,1,0,0,0,0,,,,,,,,,,,,,,,,,,,,,,,,,,,,,,,,,,,,,,,,,,,,,,,,,,,,,,,,,,,,,,,841.6050559470004,None,841.6050559470004,None,841.6050559470004,None,g,0,1.0129120189994865,843.1213596279995,None,843.1213596279995,None,843.1213596279995,None,844.1881966130004,None,844.1881966130004,None,844.1881966130004,None,844.1881966130004,None,,,,,,,,,,,,,,,,,,,,,,,,,,,,,,,,,,,,,,,,,,,,001,133,2020_Feb_18_1122,spring_faces,3.1.5,60.00133730963351,
condition files/Stage0a.xlsx,0a,beta,none,g,"['h', 'g']","['Chess', 'Go']","[0, 0.5]","[0, 0]",1,0,0,1,1,1,0,1,1,1,,,,,,,,,,,,,,,,,,,,,,,,,,,,,,,,,,,,,,,,,,,,,,,,,,,,,,,,,,,,,,,846.1548574190001,None,846.1548574190001,None,846.1548574190001,None,g,1,2.237882024999635,847.6884336820003,None,847.6884336820003,None,847.6884336820003,None,849.9879241599992,None,849.9879241599992,None,849.9879241599992,None,849.9879241599992,None,,,,,,,,,,,,,,,,,,,,,,,,,,,,,,,,,,,,,,,,,,,,001,133,2020_Feb_18_1122,spring_faces,3.1.5,60.00133730963351,
condition files/Stage0a.xlsx,0a,beta,none,g,"['h', 'g']","['Chess', 'Go']","[0, 0.5]","[0, 0]",1,0,0,2,2,2,0,0,0,1,,,,,,,,,,,,,,,,,,,,,,,,,,,,,,,,,,,,,,,,,,,,,,,,,,,,,,,,,,,,,,,851.9715262570007,None,851.9715262570007,None,851.9715262570007,None,g,1,0.9817453400009981,853.4885622550009,None,853.4885622550009,None,853.4885622550009,None,854.5213284750007,None,854.5213284750007,None,854.5213284750007,None,854.5213284750007,None,,,,,,,,,,,,,,,,,,,,,,,,,,,,,,,,,,,,,,,,,,,,001,133,2020_Feb_18_1122,spring_faces,3.1.5,60.00133730963351,
condition files/Stage0a.xlsx,0a,alpha,none,h,"['h', 'g']","['Chess', 'Go']","[0, 0.5]","[0, 0]",1,0,0,2,2,2,0,1,1,0,,,,,,,,,,,,,,,,,,,,,,,,,,,,,,,,,,,,,,,,,,,,,,,,,,,,,,,,,,,,,,,856.4881046600003,None,856.4881046600003,None,856.4881046600003,None,h,1,0.9604484419996879,858.0219131720005,None,858.0219131720005,None,858.0219131720005,None,859.038358578,None,859.038358578,None,859.038358578,None,859.038358578,None,,,,,,,,,,,,,,,,,,,,,,,,,,,,,,,,,,,,,,,,,,,,001,133,2020_Feb_18_1122,spring_faces,3.1.5,60.00133730963351,
condition files/Stage0a.xlsx,0a,alpha,none,h,"['h', 'g']","['Chess', 'Go']","[0, 0.5]","[0, 0]",1,0,0,3,3,3,0,0,0,0,,,,,,,,,,,,,,,,,,,,,,,,,,,,,,,,,,,,,,,,,,,,,,,,,,,,,,,,,,,,,,,861.0212194649994,None,861.0212194649994,None,861.0212194649994,None,h,1,0.8910679659984453,862.5553167479993,None,862.5553167479993,None,862.5553167479993,None,863.5050116980001,None,863.5050116980001,None,863.5050116980001,None,863.5050116980001,None,,,,,,,,,,,,,,,,,,,,,,,,,,,,,,,,,,,,,,,,,,,,001,133,2020_Feb_18_1122,spring_faces,3.1.5,60.00133730963351,
condition files/Stage0a.xlsx,0a,beta,none,g,"['h', 'g']","['Chess', 'Go']","[0, 0.5]","[0, 0]",1,0,0,3,3,3,0,1,1,1,,,,,,,,,,,,,,,,,,,,,,,,,,,,,,,,,,,,,,,,,,,,,,,,,,,,,,,,,,,,,,,865.4717160750006,None,865.4717160750006,None,865.4717160750006,None,g,1,0.5215099209999607,867.004785227,None,867.004785227,None,867.004785227,None,867.5884629760003,None,867.5884629760003,None,867.5884629760003,None,867.5884629760003,None,,,,,,,,,,,,,,,,,,,,,,,,,,,,,,,,,,,,,,,,,,,,001,133,2020_Feb_18_1122,spring_faces,3.1.5,60.00133730963351,
condition files/Stage0a.xlsx,0a,beta,none,g,"['h', 'g']","['Chess', 'Go']","[0, 0.5]","[0, 0]",1,0,0,4,4,4,0,0,0,1,,,,,,,,,,,,,,,,,,,,,,,,,,,,,,,,,,,,,,,,,,,,,,,,,,,,,,,,,,,,,,,869.5714750269999,None,869.5714750269999,None,869.5714750269999,None,g,1,0.7256719550005073,871.1046954939993,None,871.1046954939993,None,871.1046954939993,None,871.8882277470002,None,871.8882277470002,None,871.8882277470002,None,871.8882277470002,None,,,,,,,,,,,,,,,,,,,,,,,,,,,,,,,,,,,,,,,,,,,,001,133,2020_Feb_18_1122,spring_faces,3.1.5,60.00133730963351,
condition files/Stage0a.xlsx,0a,alpha,none,h,"['h', 'g']","['Chess', 'Go']","[0, 0.5]","[0, 0]",1,0,0,4,4,4,0,1,1,0,,,,,,,,,,,,,,,,,,,,,,,,,,,,,,,,,,,,,,,,,,,,,,,,,,,,,,,,,,,,,,,873.8549977130006,None,873.8549977130006,None,873.8549977130006,None,h,1,0.7625617270005023,875.3877694399998,None,875.3877694399998,None,875.3877694399998,None,876.2045730139998,None,876.2045730139998,None,876.2045730139998,None,876.2045730139998,None,,,,,,,,,,,,,,,,,,,,,,,,,,,,,,,,,,,,,,,,,,,,001,133,2020_Feb_18_1122,spring_faces,3.1.5,60.00133730963351,
condition files/Stage0a.xlsx,0a,beta,none,g,"['h', 'g']","['Chess', 'Go']","[0, 0.5]","[0, 0]",1,0,0,5,5,5,0,0,0,1,,,,,,,,,,,,,,,,,,,,,,,,,,,,,,,,,,,,,,,,,,,,,,,,,,,,,,,,,,,,,,,878.1885370840009,None,878.1885370840009,None,878.1885370840009,None,g,1,0.7648720010001853,879.7214385679999,None,879.7214385679999,None,879.7214385679999,None,880.5379115480009,None,880.5379115480009,None,880.5379115480009,None,880.5379115480009,None,,,,,,,,,,,,,,,,,,,,,,,,,,,,,,,,,,,,,,,,,,,,001,133,2020_Feb_18_1122,spring_faces,3.1.5,60.00133730963351,
condition files/Stage0a.xlsx,0a,alpha,none,h,"['h', 'g']","['Chess', 'Go']","[0, 0.5]","[0, 0]",1,0,0,5,5,5,0,1,1,0,,,,,,,,,,,,,,,,,,,,,,,,,,,,,,,,,,,,,,,,,,,,,,,,,,,,,,,,,,,,,,,882.5047389360006,None,882.5047389360006,None,882.5047389360006,None,h,1,0.5443208739998227,884.0379934550001,None,884.0379934550001,None,884.0379934550001,None,884.6384517919996,None,884.6384517919996,None,884.6384517919996,None,884.6384517919996,None,,,,,,,,,,,,,,,,,,,,,,,,,,,,,,,,,,,,,,,,,,,,001,133,2020_Feb_18_1122,spring_faces,3.1.5,60.00133730963351,
condition files/Stage0b_1.xlsx,0b,alpha,none,h,"['h', 'g']","['Chess', 'Go']","[-0.15, 0.5]","[0.15, 0.5]",1,0,0,6,6,6,0,0,0,0,,,,,,,,,,,,,,,,,,,,,,,,,,,,,,,,,,,,,,,,,,,,,,,,,,,,,,,,,,,,,,,886.6219605509996,None,886.6219605509996,None,886.6219605509996,None,h,1,0.7952711429988994,888.1550548670002,None,888.1550548670002,None,888.1550548670002,None,889.0047093480007,None,889.0047093480007,None,889.0047093480007,None,889.0047093480007,None,,,,,,,,,,,,,,,,,,,,,,,,,,,,,,,,,,,,,,,,,,,,001,133,2020_Feb_18_1122,spring_faces,3.1.5,60.00133730963351,
condition files/Stage0b_1.xlsx,0b,none,beta,g,"['h', 'g']","['Chess', 'Go']","[-0.15, 0.5]","[0.15, 0.5]",0,1,0,6,6,6,0,1,1,1,,,,,,,,,,,,,,,,,,,,,,,,,,,,,,,,,,,,,,,,,,,,,,,,,,,,,,,,,,,,,,,890.9707741170005,None,890.9707741170005,None,890.9707741170005,None,g,1,0.6846920409989252,892.5215688949993,None,892.5215688949993,None,892.5215688949993,None,893.2771047490005,None,893.2771047490005,None,893.2771047490005,None,893.2771047490005,None,,,,,,,,,,,,,,,,,,,,,,,,,,,,,,,,,,,,,,,,,,,,001,133,2020_Feb_18_1122,spring_faces,3.1.5,60.00133730963351,
condition files/Stage0b_2.xlsx,0b,beta,none,g,"['h', 'g']","['Chess', 'Go']","[-0.15, 0.5]","[0.15, 0.5]",1,0,0,7,7,7,0,0,0,1,,,,,,,,,,,,,,,,,,,,,,,,,,,,,,,,,,,,,,,,,,,,,,,,,,,,,,,,,,,,,,,895.2553349450009,None,895.2553349450009,None,895.2553349450009,None,g,1,0.9428046329994686,896.791485615,None,896.791485615,None,896.791485615,None,897.7883746450007,None,897.7883746450007,None,897.7883746450007,None,897.7883746450007,None,,,,,,,,,,,,,,,,,,,,,,,,,,,,,,,,,,,,,,,,,,,,001,133,2020_Feb_18_1122,spring_faces,3.1.5,60.00133730963351,
condition files/Stage0b_2.xlsx,0b,none,alpha,h,"['h', 'g']","['Chess', 'Go']","[-0.15, 0.5]","[0.15, 0.5]",0,1,0,7,7,7,0,1,1,0,,,,,,,,,,,,,,,,,,,,,,,,,,,,,,,,,,,,,,,,,,,,,,,,,,,,,,,,,,,,,,,899.7547665980001,None,899.7547665980001,None,899.7547665980001,None,h,1,0.41437565100022766,901.2879407359997,None,901.2879407359997,None,901.2879407359997,None,901.7553698819993,None,901.7553698819993,None,901.7553698819993,None,901.7553698819993,None,,,,,,,,,,,,,,,,,,,,,,,,,,,,,,,,,,,,,,,,,,,,001,133,2020_Feb_18_1122,spring_faces,3.1.5,60.00133730963351,
condition files/Stage0b_1.xlsx,0b,alpha,none,h,"['h', 'g']","['Chess', 'Go']","[-0.15, 0.5]","[0.15, 0.5]",1,0,0,8,8,8,0,0,0,0,,,,,,,,,,,,,,,,,,,,,,,,,,,,,,,,,,,,,,,,,,,,,,,,,,,,,,,,,,,,,,,903.738368706001,None,903.738368706001,None,903.738368706001,None,h,1,0.7617878940000082,905.2765749680002,None,905.2765749680002,None,905.2765749680002,None,906.088639091,None,906.088639091,None,906.088639091,None,906.088639091,None,,,,,,,,,,,,,,,,,,,,,,,,,,,,,,,,,,,,,,,,,,,,001,133,2020_Feb_18_1122,spring_faces,3.1.5,60.00133730963351,
condition files/Stage0b_1.xlsx,0b,none,beta,g,"['h', 'g']","['Chess', 'Go']","[-0.15, 0.5]","[0.15, 0.5]",0,1,0,8,8,8,0,1,1,1,,,,,,,,,,,,,,,,,,,,,,,,,,,,,,,,,,,,,,,,,,,,,,,,,,,,,,,,,,,,,,,908.0548527270003,None,908.0548527270003,None,908.0548527270003,None,g,1,0.4009499700005108,909.6053261439993,None,909.6053261439993,None,909.6053261439993,None,910.076265437001,None,910.076265437001,None,910.076265437001,None,910.076265437001,None,,,,,,,,,,,,,,,,,,,,,,,,,,,,,,,,,,,,,,,,,,,,001,133,2020_Feb_18_1122,spring_faces,3.1.5,60.00133730963351,
condition files/Stage0b_2.xlsx,0b,none,alpha,h,"['h', 'g']","['Chess', 'Go']","[-0.15, 0.5]","[0.15, 0.5]",0,1,0,9,9,9,0,0,0,0,,,,,,,,,,,,,,,,,,,,,,,,,,,,,,,,,,,,,,,,,,,,,,,,,,,,,,,,,,,,,,,912.055021008,None,912.055021008,None,912.055021008,None,h,1,0.5936371509997116,913.5887520409997,None,913.5887520409997,None,913.5887520409997,None,914.2380884230006,None,914.2380884230006,None,914.2380884230006,None,914.2380884230006,None,,,,,,,,,,,,,,,,,,,,,,,,,,,,,,,,,,,,,,,,,,,,001,133,2020_Feb_18_1122,spring_faces,3.1.5,60.00133730963351,
condition files/Stage0b_2.xlsx,0b,beta,none,g,"['h', 'g']","['Chess', 'Go']","[-0.15, 0.5]","[0.15, 0.5]",1,0,0,9,9,9,0,1,1,1,,,,,,,,,,,,,,,,,,,,,,,,,,,,,,,,,,,,,,,,,,,,,,,,,,,,,,,,,,,,,,,916.2042670640003,None,916.2042670640003,None,916.2042670640003,None,g,1,0.920319262000703,917.7420688420007,None,917.7420688420007,None,917.7420688420007,None,918.7254763090004,None,918.7254763090004,None,918.7254763090004,None,918.7254763090004,None,,,,,,,,,,,,,,,,,,,,,,,,,,,,,,,,,,,,,,,,,,,,001,133,2020_Feb_18_1122,spring_faces,3.1.5,60.00133730963351,
condition files/Stage0b_1.xlsx,0b,alpha,none,h,"['h', 'g']","['Chess', 'Go']","[-0.15, 0.5]","[0.15, 0.5]",1,0,0,10,10,10,0,0,0,0,,,,,,,,,,,,,,,,,,,,,,,,,,,,,,,,,,,,,,,,,,,,,,,,,,,,,,,,,,,,,,,920.7048306319994,None,920.7048306319994,None,920.7048306319994,None,h,1,0.6477408290011226,922.2385677330003,None,922.2385677330003,None,922.2385677330003,None,922.9380780520005,None,922.9380780520005,None,922.9380780520005,None,922.9380780520005,None,,,,,,,,,,,,,,,,,,,,,,,,,,,,,,,,,,,,,,,,,,,,001,133,2020_Feb_18_1122,spring_faces,3.1.5,60.00133730963351,
condition files/Stage0b_1.xlsx,0b,none,beta,g,"['h', 'g']","['Chess', 'Go']","[-0.15, 0.5]","[0.15, 0.5]",0,1,0,10,10,10,0,1,1,1,,,,,,,,,,,,,,,,,,,,,,,,,,,,,,,,,,,,,,,,,,,,,,,,,,,,,,,,,,,,,,,924.9047008870002,None,924.9047008870002,None,924.9047008870002,None,g,1,0.6533859860010125,926.4409484120006,None,926.4409484120006,None,926.4409484120006,None,927.1717066679994,None,927.1717066679994,None,927.1717066679994,None,927.1717066679994,None,,,,,,,,,,,,,,,,,,,,,,,,,,,,,,,,,,,,,,,,,,,,001,133,2020_Feb_18_1122,spring_faces,3.1.5,60.00133730963351,
condition files/Stage0b_2.xlsx,0b,beta,none,g,"['h', 'g']","['Chess', 'Go']","[-0.15, 0.5]","[0.15, 0.5]",1,0,0,11,11,11,0,0,0,1,,,,,,,,,,,,,,,,,,,,,,,,,,,,,,,,,,,,,,,,,,,,,,,,,,,,,,,,,,,,,,,929.1381283779992,None,929.1381283779992,None,929.1381283779992,None,g,1,1.059630236000885,930.6746606380002,None,930.6746606380002,None,930.6746606380002,None,931.7886019550006,None,931.7886019550006,None,931.7886019550006,None,931.7886019550006,None,,,,,,,,,,,,,,,,,,,,,,,,,,,,,,,,,,,,,,,,,,,,001,133,2020_Feb_18_1122,spring_faces,3.1.5,60.00133730963351,
condition files/Stage0b_2.xlsx,0b,none,alpha,h,"['h', 'g']","['Chess', 'Go']","[-0.15, 0.5]","[0.15, 0.5]",0,1,0,11,11,11,0,1,1,0,,,,,,,,,,,,,,,,,,,,,,,,,,,,,,,,,,,,,,,,,,,,,,,,,,,,,,,,,,,,,,,933.7550367889999,None,933.7550367889999,None,933.7550367889999,None,h,1,0.7326580270000704,935.2896475159996,None,935.2896475159996,None,935.2896475159996,None,936.0880752909998,None,936.0880752909998,None,936.0880752909998,None,936.0880752909998,None,,,,,,,,,,,,,,,,,,,,,,,,,,,,,,,,,,,,,,,,,,,,001,133,2020_Feb_18_1122,spring_faces,3.1.5,60.00133730963351,
condition files/Stage0c_1.xlsx,0c,alpha,phi,h,"['h', 'g']","['Chess', 'Go']","[-0.15, 0.5]","[0.15, 0.5]",1,1,0,12,12,12,0,0,0,1,,,,,,,,,,,,,,,,,,,,,,,,,,,,,,,,,,,,,,,,,,,,,,,,,,,,,,,,,,,,,,,938.0713111530004,None,938.0713111530004,None,938.0713111530004,None,h,1,1.9531178189990896,939.605200254,None,939.605200254,None,939.605200254,None,941.6211425010006,None,941.6211425010006,None,941.6211425010006,None,941.6211425010006,None,,,,,,,,,,,,,,,,,,,,,,,,,,,,,,,,,,,,,,,,,,,,001,133,2020_Feb_18_1122,spring_faces,3.1.5,60.00133730963351,
condition files/Stage0c_1.xlsx,0c,beta,theta,g,"['h', 'g']","['Chess', 'Go']","[-0.15, 0.5]","[0.15, 0.5]",1,1,0,12,12,12,0,1,1,2,,,,,,,,,,,,,,,,,,,,,,,,,,,,,,,,,,,,,,,,,,,,,,,,,,,,,,,,,,,,,,,943.5880552210001,None,943.5880552210001,None,943.5880552210001,None,g,1,0.9324274170012359,945.1218858699995,None,945.1218858699995,None,945.1218858699995,None,946.1045773149999,None,946.1045773149999,None,946.1045773149999,None,946.1045773149999,None,,,,,,,,,,,,,,,,,,,,,,,,,,,,,,,,,,,,,,,,,,,,001,133,2020_Feb_18_1122,spring_faces,3.1.5,60.00133730963351,
condition files/Stage0c_1.xlsx,0c,phi,beta,g,"['h', 'g']","['Chess', 'Go']","[-0.15, 0.5]","[0.15, 0.5]",1,1,0,12,12,12,0,2,2,3,,,,,,,,,,,,,,,,,,,,,,,,,,,,,,,,,,,,,,,,,,,,,,,,,,,,,,,,,,,,,,,948.0715153130004,None,948.0715153130004,None,948.0715153130004,None,g,1,1.3939624030008417,949.6043973970009,None,949.6043973970009,None,949.6043973970009,None,951.0550922189996,None,951.0550922189996,None,951.0550922189996,None,951.0550922189996,None,,,,,,,,,,,,,,,,,,,,,,,,,,,,,,,,,,,,,,,,,,,,001,133,2020_Feb_18_1122,spring_faces,3.1.5,60.00133730963351,
condition files/Stage0c_1.xlsx,0c,theta,alpha,h,"['h', 'g']","['Chess', 'Go']","[-0.15, 0.5]","[0.15, 0.5]",1,1,0,12,12,12,0,3,3,0,,,,,,,,,,,,,,,,,,,,,,,,,,,,,,,,,,,,,,,,,,,,,,,,,,,,,,,,,,,,,,,953.020972327,None,953.020972327,None,953.020972327,None,h,1,0.6512075179998646,954.5550965689999,None,954.5550965689999,None,954.5550965689999,None,955.2709782870006,None,955.2709782870006,None,955.2709782870006,None,955.2709782870006,None,,,,,,,,,,,,,,,,,,,,,,,,,,,,,,,,,,,,,,,,,,,,001,133,2020_Feb_18_1122,spring_faces,3.1.5,60.00133730963351,
condition files/Stage0c_2.xlsx,0c,beta,phi,g,"['h', 'g']","['Chess', 'Go']","[-0.15, 0.5]","[0.15, 0.5]",1,1,0,13,13,13,0,0,0,3,,,,,,,,,,,,,,,,,,,,,,,,,,,,,,,,,,,,,,,,,,,,,,,,,,,,,,,,,,,,,,,957.2551885979992,None,957.2551885979992,None,957.2551885979992,None,g,1,0.562553970999943,958.7877574630002,None,958.7877574630002,None,958.7877574630002,None,959.4046912199992,None,959.4046912199992,None,959.4046912199992,None,959.4046912199992,None,,,,,,,,,,,,,,,,,,,,,,,,,,,,,,,,,,,,,,,,,,,,001,133,2020_Feb_18_1122,spring_faces,3.1.5,60.00133730963351,
condition files/Stage0c_2.xlsx,0c,phi,alpha,h,"['h', 'g']","['Chess', 'Go']","[-0.15, 0.5]","[0.15, 0.5]",1,1,0,13,13,13,0,1,1,1,,,,,,,,,,,,,,,,,,,,,,,,,,,,,,,,,,,,,,,,,,,,,,,,,,,,,,,,,,,,,,,961.3709743420004,None,961.3709743420004,None,961.3709743420004,None,h,1,0.7652009029989131,962.9051180900005,None,962.9051180900005,None,962.9051180900005,None,963.7211594639994,None,963.7211594639994,None,963.7211594639994,None,963.7211594639994,None,,,,,,,,,,,,,,,,,,,,,,,,,,,,,,,,,,,,,,,,,,,,001,133,2020_Feb_18_1122,spring_faces,3.1.5,60.00133730963351,
condition files/Stage0c_2.xlsx,0c,theta,beta,g,"['h', 'g']","['Chess', 'Go']","[-0.15, 0.5]","[0.15, 0.5]",1,1,0,13,13,13,0,2,2,2,,,,,,,,,,,,,,,,,,,,,,,,,,,,,,,,,,,,,,,,,,,,,,,,,,,,,,,,,,,,,,,965.6878959999995,None,965.6878959999995,None,965.6878959999995,None,g,1,0.7845649419996334,967.2217382180006,None,967.2217382180006,None,967.2217382180006,None,968.0717401090005,None,968.0717401090005,None,968.0717401090005,None,968.0717401090005,None,,,,,,,,,,,,,,,,,,,,,,,,,,,,,,,,,,,,,,,,,,,,001,133,2020_Feb_18_1122,spring_faces,3.1.5,60.00133730963351,
condition files/Stage0c_2.xlsx,0c,alpha,theta,h,"['h', 'g']","['Chess', 'Go']","[-0.15, 0.5]","[0.15, 0.5]",1,1,0,13,13,13,0,3,3,0,,,,,,,,,,,,,,,,,,,,,,,,,,,,,,,,,,,,,,,,,,,,,,,,,,,,,,,,,,,,,,,970.0384326399999,None,970.0384326399999,None,970.0384326399999,None,h,1,0.5472134920000826,971.5712527970009,None,971.5712527970009,None,971.5712527970009,None,972.1718028079995,None,972.1718028079995,None,972.1718028079995,None,972.1718028079995,None,,,,,,,,,,,,,,,,,,,,,,,,,,,,,,,,,,,,,,,,,,,,001,133,2020_Feb_18_1122,spring_faces,3.1.5,60.00133730963351,
condition files/Stage0c_1.xlsx,0c,beta,theta,g,"['h', 'g']","['Chess', 'Go']","[-0.15, 0.5]","[0.15, 0.5]",1,1,0,14,14,14,0,0,0,2,,,,,,,,,,,,,,,,,,,,,,,,,,,,,,,,,,,,,,,,,,,,,,,,,,,,,,,,,,,,,,,974.1550215450006,None,974.1550215450006,None,974.1550215450006,None,g,1,0.5417539760001091,975.6886305909993,None,975.6886305909993,None,975.6886305909993,None,976.288384767,None,976.288384767,None,976.288384767,None,976.288384767,None,,,,,,,,,,,,,,,,,,,,,,,,,,,,,,,,,,,,,,,,,,,,001,133,2020_Feb_18_1122,spring_faces,3.1.5,60.00133730963351,
condition files/Stage0c_1.xlsx,0c,theta,alpha,h,"['h', 'g']","['Chess', 'Go']","[-0.15, 0.5]","[0.15, 0.5]",1,1,0,14,14,14,0,1,1,0,,,,,,,,,,,,,,,,,,,,,,,,,,,,,,,,,,,,,,,,,,,,,,,,,,,,,,,,,,,,,,,978.2549454439995,None,978.2549454439995,None,978.2549454439995,None,h,1,0.4259071190008399,979.7884364450001,None,979.7884364450001,None,979.7884364450001,None,980.271433115,None,980.271433115,None,980.271433115,None,980.271433115,None,,,,,,,,,,,,,,,,,,,,,,,,,,,,,,,,,,,,,,,,,,,,001,133,2020_Feb_18_1122,spring_faces,3.1.5,60.00133730963351,
condition files/Stage0c_1.xlsx,0c,phi,beta,g,"['h', 'g']","['Chess', 'Go']","[-0.15, 0.5]","[0.15, 0.5]",1,1,0,14,14,14,0,2,2,3,,,,,,,,,,,,,,,,,,,,,,,,,,,,,,,,,,,,,,,,,,,,,,,,,,,,,,,,,,,,,,,982.2379861259997,None,982.2379861259997,None,982.2379861259997,None,g,1,0.9065355120001186,983.7717994949999,None,983.7717994949999,None,983.7717994949999,None,984.7382386989993,None,984.7382386989993,None,984.7382386989993,None,984.7382386989993,None,,,,,,,,,,,,,,,,,,,,,,,,,,,,,,,,,,,,,,,,,,,,001,133,2020_Feb_18_1122,spring_faces,3.1.5,60.00133730963351,
condition files/Stage0c_1.xlsx,0c,alpha,phi,h,"['h', 'g']","['Chess', 'Go']","[-0.15, 0.5]","[0.15, 0.5]",1,1,0,14,14,14,0,3,3,1,,,,,,,,,,,,,,,,,,,,,,,,,,,,,,,,,,,,,,,,,,,,,,,,,,,,,,,,,,,,,,,986.7049043440002,None,986.7049043440002,None,986.7049043440002,None,h,1,1.2402310529996612,988.2380141760004,None,988.2380141760004,None,988.2380141760004,None,989.5382683400003,None,989.5382683400003,None,989.5382683400003,None,989.5382683400003,None,,,,,,,,,,,,,,,,,,,,,,,,,,,,,,,,,,,,,,,,,,,,001,133,2020_Feb_18_1122,spring_faces,3.1.5,60.00133730963351,
condition files/Stage0c_2.xlsx,0c,theta,beta,g,"['h', 'g']","['Chess', 'Go']","[-0.15, 0.5]","[0.15, 0.5]",1,1,0,15,15,15,0,0,0,2,,,,,,,,,,,,,,,,,,,,,,,,,,,,,,,,,,,,,,,,,,,,,,,,,,,,,,,,,,,,,,,991.5220479809996,None,991.5220479809996,None,991.5220479809996,None,g,1,0.7277804919995106,993.0546142849998,None,993.0546142849998,None,993.0546142849998,None,993.8382796040005,None,993.8382796040005,None,993.8382796040005,None,993.8382796040005,None,,,,,,,,,,,,,,,,,,,,,,,,,,,,,,,,,,,,,,,,,,,,001,133,2020_Feb_18_1122,spring_faces,3.1.5,60.00133730963351,
condition files/Stage0c_2.xlsx,0c,phi,alpha,h,"['h', 'g']","['Chess', 'Go']","[-0.15, 0.5]","[0.15, 0.5]",1,1,0,15,15,15,0,1,1,1,,,,,,,,,,,,,,,,,,,,,,,,,,,,,,,,,,,,,,,,,,,,,,,,,,,,,,,,,,,,,,,995.8046825599995,None,995.8046825599995,None,995.8046825599995,None,h,1,0.6518820780001988,997.3384248349994,None,997.3384248349994,None,997.3384248349994,None,998.0550282929999,None,998.0550282929999,None,998.0550282929999,None,998.0550282929999,None,,,,,,,,,,,,,,,,,,,,,,,,,,,,,,,,,,,,,,,,,,,,001,133,2020_Feb_18_1122,spring_faces,3.1.5,60.00133730963351,
condition files/Stage0c_2.xlsx,0c,alpha,theta,h,"['h', 'g']","['Chess', 'Go']","[-0.15, 0.5]","[0.15, 0.5]",1,1,0,15,15,15,0,2,2,0,,,,,,,,,,,,,,,,,,,,,,,,,,,,,,,,,,,,,,,,,,,,,,,,,,,,,,,,,,,,,,,1000.0218558249999,None,1000.0218558249999,None,1000.0218558249999,None,g,0,0.6911890180017508,1001.5551877519993,None,1001.5551877519993,None,1001.5551877519993,None,1002.2883424800002,None,1002.2883424800002,None,1002.2883424800002,None,1002.2883424800002,None,,,,,,,,,,,,,,,,,,,,,,,,,,,,,,,,,,,,,,,,,,,,001,133,2020_Feb_18_1122,spring_faces,3.1.5,60.00133730963351,
condition files/Stage0c_2.xlsx,0c,beta,phi,g,"['h', 'g']","['Chess', 'Go']","[-0.15, 0.5]","[0.15, 0.5]",1,1,0,15,15,15,0,3,3,3,,,,,,,,,,,,,,,,,,,,,,,,,,,,,,,,,,,,,,,,,,,,,,,,,,,,,,,,,,,,,,,1004.2712381319998,None,1004.2712381319998,None,1004.2712381319998,None,g,1,0.9378910119994543,1005.8043778690007,None,1005.8043778690007,None,1005.8043778690007,None,1006.804845052,None,1006.804845052,None,1006.804845052,None,1006.804845052,None,,,,,,,,,,,,,,,,,,,,,,,,,,,,,,,,,,,,,,,,,,,,001,133,2020_Feb_18_1122,spring_faces,3.1.5,60.00133730963351,
condition files/Stage0c_1.xlsx,0c,theta,alpha,h,"['h', 'g']","['Chess', 'Go']","[-0.15, 0.5]","[0.15, 0.5]",1,1,0,16,16,16,0,0,0,0,,,,,,,,,,,,,,,,,,,,,,,,,,,,,,,,,,,,,,,,,,,,,,,,,,,,,,,,,,,,,,,1008.7886807390005,None,1008.7886807390005,None,1008.7886807390005,None,h,1,0.6286536589996103,1010.3216423949998,None,1010.3216423949998,None,1010.3216423949998,None,1011.0046517150004,None,1011.0046517150004,None,1011.0046517150004,None,1011.0046517150004,None,,,,,,,,,,,,,,,,,,,,,,,,,,,,,,,,,,,,,,,,,,,,001,133,2020_Feb_18_1122,spring_faces,3.1.5,60.00133730963351,
condition files/Stage0c_1.xlsx,0c,beta,theta,g,"['h', 'g']","['Chess', 'Go']","[-0.15, 0.5]","[0.15, 0.5]",1,1,0,16,16,16,0,1,1,2,,,,,,,,,,,,,,,,,,,,,,,,,,,,,,,,,,,,,,,,,,,,,,,,,,,,,,,,,,,,,,,1012.9715227369998,None,1012.9715227369998,None,1012.9715227369998,None,g,1,0.8611624440000014,1014.5051337639998,None,1014.5051337639998,None,1014.5051337639998,None,1015.4216989310007,None,1015.4216989310007,None,1015.4216989310007,None,1015.4216989310007,None,,,,,,,,,,,,,,,,,,,,,,,,,,,,,,,,,,,,,,,,,,,,001,133,2020_Feb_18_1122,spring_faces,3.1.5,60.00133730963351,
condition files/Stage0c_1.xlsx,0c,phi,beta,g,"['h', 'g']","['Chess', 'Go']","[-0.15, 0.5]","[0.15, 0.5]",1,1,0,16,16,16,0,2,2,3,,,,,,,,,,,,,,,,,,,,,,,,,,,,,,,,,,,,,,,,,,,,,,,,,,,,,,,,,,,,,,,1017.3876707470008,None,1017.3876707470008,None,1017.3876707470008,None,g,1,0.9250174280005012,1018.9213600980002,None,1018.9213600980002,None,1018.9213600980002,None,1019.8888993140008,None,1019.8888993140008,None,1019.8888993140008,None,1019.8888993140008,None,,,,,,,,,,,,,,,,,,,,,,,,,,,,,,,,,,,,,,,,,,,,001,133,2020_Feb_18_1122,spring_faces,3.1.5,60.00133730963351,
condition files/Stage0c_1.xlsx,0c,alpha,phi,h,"['h', 'g']","['Chess', 'Go']","[-0.15, 0.5]","[0.15, 0.5]",1,1,0,16,16,16,0,3,3,1,,,,,,,,,,,,,,,,,,,,,,,,,,,,,,,,,,,,,,,,,,,,,,,,,,,,,,,,,,,,,,,1021.8710968319992,None,1021.8710968319992,None,1021.8710968319992,None,h,1,0.9690361600005417,1023.4052654610005,None,1023.4052654610005,None,1023.4052654610005,None,1024.4379695349999,None,1024.4379695349999,None,1024.4379695349999,None,1024.4379695349999,None,,,,,,,,,,,,,,,,,,,,,,,,,,,,,,,,,,,,,,,,,,,,001,133,2020_Feb_18_1122,spring_faces,3.1.5,60.00133730963351,
condition files/Stage0c_2.xlsx,0c,beta,phi,g,"['h', 'g']","['Chess', 'Go']","[-0.15, 0.5]","[0.15, 0.5]",1,1,0,17,17,17,0,0,0,3,,,,,,,,,,,,,,,,,,,,,,,,,,,,,,,,,,,,,,,,,,,,,,,,,,,,,,,,,,,,,,,1026.4219481239998,None,1026.4219481239998,None,1026.4219481239998,None,g,1,2.243672073000198,1027.9547014279997,None,1027.9547014279997,None,1027.9547014279997,None,1030.2550862259995,None,1030.2550862259995,None,1030.2550862259995,None,1030.2550862259995,None,,,,,,,,,,,,,,,,,,,,,,,,,,,,,,,,,,,,,,,,,,,,001,133,2020_Feb_18_1122,spring_faces,3.1.5,60.00133730963351,
condition files/Stage0c_2.xlsx,0c,phi,alpha,h,"['h', 'g']","['Chess', 'Go']","[-0.15, 0.5]","[0.15, 0.5]",1,1,0,17,17,17,0,1,1,1,,,,,,,,,,,,,,,,,,,,,,,,,,,,,,,,,,,,,,,,,,,,,,,,,,,,,,,,,,,,,,,1032.221074473,None,1032.221074473,None,1032.221074473,None,h,1,0.507892831999925,1033.7544804709996,None,1033.7544804709996,None,1033.7544804709996,None,1034.3215580239994,None,1034.3215580239994,None,1034.3215580239994,None,1034.3215580239994,None,,,,,,,,,,,,,,,,,,,,,,,,,,,,,,,,,,,,,,,,,,,,001,133,2020_Feb_18_1122,spring_faces,3.1.5,60.00133730963351,
condition files/Stage0c_2.xlsx,0c,alpha,theta,h,"['h', 'g']","['Chess', 'Go']","[-0.15, 0.5]","[0.15, 0.5]",1,1,0,17,17,17,0,2,2,0,,,,,,,,,,,,,,,,,,,,,,,,,,,,,,,,,,,,,,,,,,,,,,,,,,,,,,,,,,,,,,,1036.2879721520003,None,1036.2879721520003,None,1036.2879721520003,None,h,1,0.6165923940006905,1037.8217220219994,None,1037.8217220219994,None,1037.8217220219994,None,1038.4732405659997,None,1038.4732405659997,None,1038.4732405659997,None,1038.4732405659997,None,,,,,,,,,,,,,,,,,,,,,,,,,,,,,,,,,,,,,,,,,,,,001,133,2020_Feb_18_1122,spring_faces,3.1.5,60.00133730963351,
condition files/Stage0c_2.xlsx,0c,theta,beta,g,"['h', 'g']","['Chess', 'Go']","[-0.15, 0.5]","[0.15, 0.5]",1,1,0,17,17,17,0,3,3,2,,,,,,,,,,,,,,,,,,,,,,,,,,,,,,,,,,,,,,,,,,,,,,,,,,,,,,,,,,,,,,,1040.4547784099996,None,1040.4547784099996,None,1040.4547784099996,None,g,1,0.5299814629997854,1041.9884640239998,None,1041.9884640239998,None,1041.9884640239998,None,1042.5719207309994,None,1042.5719207309994,None,1042.5719207309994,None,1042.5719207309994,None,,,,,,,,,,,,,,,,,,,,,,,,,,,,,,,,,,,,,,,,,,,,001,133,2020_Feb_18_1122,spring_faces,3.1.5,60.00133730963351,
,,,,,,,,,,,,,,,,,,,,,,,,,,,,,,,,,,,,,,,,,,,,,,,,,,,,,,,,,,,,,,,,,,,,,,,,,,,,,,,,,,,,,,,,,,,,,,,,,,,,,,,,1044.5549792040001,None,space,1.7312598009993962,1049.5550677570009,None,,,,,,,,,,,,,,,,,,,,,,,,,,,,,,,,,,,,,,001,133,2020_Feb_18_1122,spring_faces,3.1.5,60.00133730963351,
condition files/Stage1_1.xlsx,,B3,T3,c,"['c', 'm']","['Clue', 'Monopoly']","[-0.15, 0.5]","[0.15, 0.5]",1,1,,,,,,,,,0,0,0,0,0,0,0,4,,,,,,,,,,,,,,,,,,,,,,,,,,,,,,,,,,,,,,,,,,,,,,,,,,,,,,,1051.3379447690004,None,1051.3379447690004,None,1051.3379447690004,None,c,1,1.1975584120009444,1052.9047529769996,None,1052.9047529769996,None,1052.9047529769996,None,1054.1717412899998,None,1054.1717412899998,None,1054.1717412899998,None,1054.1717412899998,None,,,,,,,1049.5550677570009,None,,,,,,,,,,,,,,,,,,,,,,,,,,,,,,,,,,,,001,133,2020_Feb_18_1122,spring_faces,3.1.5,60.00133730963351,
condition files/Stage1_1.xlsx,,B1,T2,c,"['c', 'm']","['Clue', 'Monopoly']","[-0.15, 0.5]","[0.15, 0.5]",1,1,,,,,,,,,0,0,0,0,0,1,1,1,,,,,,,,,,,,,,,,,,,,,,,,,,,,,,,,,,,,,,,,,,,,,,,,,,,,,,,1056.1205188149997,None,1056.1205188149997,None,1056.1205188149997,None,m,0,0.9250666120005917,1057.705309340001,None,1057.705309340001,None,1057.705309340001,None,1058.6886975840007,None,1058.6886975840007,None,1058.6886975840007,None,1058.6886975840007,None,,,,,,,,,,,,,,,,,,,,,,,,,,,,,,,,,,,,,,,,,,,,001,133,2020_Feb_18_1122,spring_faces,3.1.5,60.00133730963351,
condition files/Stage1_1.xlsx,,T2,B2,m,"['c', 'm']","['Clue', 'Monopoly']","[-0.15, 0.5]","[0.15, 0.5]",1,1,,,,,,,,,0,0,0,0,0,2,2,3,,,,,,,,,,,,,,,,,,,,,,,,,,,,,,,,,,,,,,,,,,,,,,,,,,,,,,,1060.6547401259995,None,1060.6547401259995,None,1060.6547401259995,None,c,0,0.8405821500000457,1062.221809994,None,1062.221809994,None,1062.221809994,None,1063.1225305669996,None,1063.1225305669996,None,1063.1225305669996,None,1063.1225305669996,None,,,,,,,,,,,,,,,,,,,,,,,,,,,,,,,,,,,,,,,,,,,,001,133,2020_Feb_18_1122,spring_faces,3.1.5,60.00133730963351,
condition files/Stage1_1.xlsx,,B2,T1,m,"['c', 'm']","['Clue', 'Monopoly']","[-0.15, 0.5]","[0.15, 0.5]",1,1,,,,,,,,,0,0,0,0,0,3,3,2,,,,,,,,,,,,,,,,,,,,,,,,,,,,,,,,,,,,,,,,,,,,,,,,,,,,,,,1065.0876599679996,None,1065.0876599679996,None,1065.0876599679996,None,c,0,1.6868787809999048,1066.655435738001,None,1066.655435738001,None,1066.655435738001,None,1068.4045961230004,None,1068.4045961230004,None,1068.4045961230004,None,1068.4045961230004,None,,,,,,,,,,,,,,,,,,,,,,,,,,,,,,,,,,,,,,,,,,,,001,133,2020_Feb_18_1122,spring_faces,3.1.5,60.00133730963351,
condition files/Stage1_1.xlsx,,T3,B4,c,"['c', 'm']","['Clue', 'Monopoly']","[-0.15, 0.5]","[0.15, 0.5]",1,1,,,,,,,,,0,0,0,0,0,4,4,5,,,,,,,,,,,,,,,,,,,,,,,,,,,,,,,,,,,,,,,,,,,,,,,,,,,,,,,1070.3714039469996,None,1070.3714039469996,None,1070.3714039469996,None,m,0,1.18860767499973,1071.9377025020003,None,1071.9377025020003,None,1071.9377025020003,None,1073.1873192929997,None,1073.1873192929997,None,1073.1873192929997,None,1073.1873192929997,None,,,,,,,,,,,,,,,,,,,,,,,,,,,,,,,,,,,,,,,,,,,,001,133,2020_Feb_18_1122,spring_faces,3.1.5,60.00133730963351,
condition files/Stage1_1.xlsx,,B4,T4,m,"['c', 'm']","['Clue', 'Monopoly']","[-0.15, 0.5]","[0.15, 0.5]",1,1,,,,,,,,,0,0,0,0,0,5,5,7,,,,,,,,,,,,,,,,,,,,,,,,,,,,,,,,,,,,,,,,,,,,,,,,,,,,,,,1075.155302821,None,1075.155302821,None,1075.155302821,None,c,0,0.8388663580008142,1076.6874707530005,None,1076.6874707530005,None,1076.6874707530005,None,1077.6047814960002,None,1077.6047814960002,None,1077.6047814960002,None,1077.6047814960002,None,,,,,,,,,,,,,,,,,,,,,,,,,,,,,,,,,,,,,,,,,,,,001,133,2020_Feb_18_1122,spring_faces,3.1.5,60.00133730963351,
condition files/Stage1_1.xlsx,,T4,B3,m,"['c', 'm']","['Clue', 'Monopoly']","[-0.15, 0.5]","[0.15, 0.5]",1,1,,,,,,,,,0,0,0,0,0,6,6,6,,,,,,,,,,,,,,,,,,,,,,,,,,,,,,,,,,,,,,,,,,,,,,,,,,,,,,,1079.5543330870005,None,1079.5543330870005,None,1079.5543330870005,None,c,0,2.3267892170006235,1081.0875670320002,None,1081.0875670320002,None,1081.0875670320002,None,1083.4717145489994,None,1083.4717145489994,None,1083.4717145489994,None,1083.4717145489994,None,,,,,,,,,,,,,,,,,,,,,,,,,,,,,,,,,,,,,,,,,,,,001,133,2020_Feb_18_1122,spring_faces,3.1.5,60.00133730963351,
condition files/Stage1_1.xlsx,,T1,B1,c,"['c', 'm']","['Clue', 'Monopoly']","[-0.15, 0.5]","[0.15, 0.5]",1,1,,,,,,,,,0,0,0,0,0,7,7,0,,,,,,,,,,,,,,,,,,,,,,,,,,,,,,,,,,,,,,,,,,,,,,,,,,,,,,,1085.4380124670006,None,1085.4380124670006,None,1085.4380124670006,None,m,0,1.1607014720011648,1086.9736195389996,None,1086.9736195389996,None,1086.9736195389996,None,1088.2045888850007,None,1088.2045888850007,None,1088.2045888850007,None,1088.2045888850007,None,,,,,,,,,,,,,,,,,,,,,,,,,,,,,,,,,,,,,,,,,,,,001,133,2020_Feb_18_1122,spring_faces,3.1.5,60.00133730963351,
condition files/Stage1_2.xlsx,,B1,T1,c,"['c', 'm']","['Clue', 'Monopoly']","[-0.15, 0.5]","[0.15, 0.5]",1,1,,,,,,,,,0,1,1,1,0,0,0,0,,,,,,,,,,,,,,,,,,,,,,,,,,,,,,,,,,,,,,,,,,,,,,,,,,,,,,,1090.1715762980002,None,1090.1715762980002,None,1090.1715762980002,None,m,0,1.1812178119998862,1091.7051081930003,None,1091.7051081930003,None,1091.7051081930003,None,1092.9386937239997,None,1092.9386937239997,None,1092.9386937239997,None,1092.9386937239997,None,,,,,,,,,,,,,,,,,,,,,,,,,,,,,,,,,,,,,,,,,,,,001,133,2020_Feb_18_1122,spring_faces,3.1.5,60.00133730963351,
condition files/Stage1_2.xlsx,,B2,T2,m,"['c', 'm']","['Clue', 'Monopoly']","[-0.15, 0.5]","[0.15, 0.5]",1,1,,,,,,,,,0,1,1,1,0,1,1,3,,,,,,,,,,,,,,,,,,,,,,,,,,,,,,,,,,,,,,,,,,,,,,,,,,,,,,,1094.904886968001,None,1094.904886968001,None,1094.904886968001,None,m,1,1.9182131310008117,1096.4401140339996,None,1096.4401140339996,None,1096.4401140339996,None,1098.421622553,None,1098.421622553,None,1098.421622553,None,1098.421622553,None,,,,,,,,,,,,,,,,,,,,,,,,,,,,,,,,,,,,,,,,,,,,001,133,2020_Feb_18_1122,spring_faces,3.1.5,60.00133730963351,
condition files/Stage1_2.xlsx,,T3,B3,c,"['c', 'm']","['Clue', 'Monopoly']","[-0.15, 0.5]","[0.15, 0.5]",1,1,,,,,,,,,0,1,1,1,0,2,2,4,,,,,,,,,,,,,,,,,,,,,,,,,,,,,,,,,,,,,,,,,,,,,,,,,,,,,,,1100.3881113450007,None,1100.3881113450007,None,1100.3881113450007,None,c,1,1.156699672999821,1101.9216821570008,None,1101.9216821570008,None,1101.9216821570008,None,1103.1380221029995,None,1103.1380221029995,None,1103.1380221029995,None,1103.1380221029995,None,,,,,,,,,,,,,,,,,,,,,,,,,,,,,,,,,,,,,,,,,,,,001,133,2020_Feb_18_1122,spring_faces,3.1.5,60.00133730963351,
condition files/Stage1_2.xlsx,,T1,B2,m,"['c', 'm']","['Clue', 'Monopoly']","[-0.15, 0.5]","[0.15, 0.5]",1,1,,,,,,,,,0,1,1,1,0,3,3,2,,,,,,,,,,,,,,,,,,,,,,,,,,,,,,,,,,,,,,,,,,,,,,,,,,,,,,,1105.1049240470002,None,1105.1049240470002,None,1105.1049240470002,None,m,1,1.1279560410002887,1106.6383651249998,None,1106.6383651249998,None,1106.6383651249998,None,1107.838642705001,None,1107.838642705001,None,1107.838642705001,None,1107.838642705001,None,,,,,,,,,,,,,,,,,,,,,,,,,,,,,,,,,,,,,,,,,,,,001,133,2020_Feb_18_1122,spring_faces,3.1.5,60.00133730963351,
condition files/Stage1_2.xlsx,,T4,B4,m,"['c', 'm']","['Clue', 'Monopoly']","[-0.15, 0.5]","[0.15, 0.5]",1,1,,,,,,,,,0,1,1,1,0,4,4,7,,,,,,,,,,,,,,,,,,,,,,,,,,,,,,,,,,,,,,,,,,,,,,,,,,,,,,,1109.7882789859996,None,1109.7882789859996,None,1109.7882789859996,None,m,1,1.2606750049999391,1111.3216477650003,None,1111.3216477650003,None,1111.3216477650003,None,1112.6383510920004,None,1112.6383510920004,None,1112.6383510920004,None,1112.6383510920004,None,,,,,,,,,,,,,,,,,,,,,,,,,,,,,,,,,,,,,,,,,,,,001,133,2020_Feb_18_1122,spring_faces,3.1.5,60.00133730963351,
condition files/Stage1_2.xlsx,,B4,T3,c,"['c', 'm']","['Clue', 'Monopoly']","[-0.15, 0.5]","[0.15, 0.5]",1,1,,,,,,,,,0,1,1,1,0,5,5,5,,,,,,,,,,,,,,,,,,,,,,,,,,,,,,,,,,,,,,,,,,,,,,,,,,,,,,,1114.6047979680006,None,1114.6047979680006,None,1114.6047979680006,None,m,0,0.8124515100007557,1116.1378547879995,None,1116.1378547879995,None,1116.1378547879995,None,1117.006433433,None,1117.006433433,None,1117.006433433,None,1117.006433433,None,,,,,,,,,,,,,,,,,,,,,,,,,,,,,,,,,,,,,,,,,,,,001,133,2020_Feb_18_1122,spring_faces,3.1.5,60.00133730963351,
condition files/Stage1_2.xlsx,,T2,B1,c,"['c', 'm']","['Clue', 'Monopoly']","[-0.15, 0.5]","[0.15, 0.5]",1,1,,,,,,,,,0,1,1,1,0,6,6,1,,,,,,,,,,,,,,,,,,,,,,,,,,,,,,,,,,,,,,,,,,,,,,,,,,,,,,,1118.9714018619998,None,1118.9714018619998,None,1118.9714018619998,None,c,1,1.997216539000874,1120.5051059569996,None,1120.5051059569996,None,1120.5051059569996,None,1122.5549063500002,None,1122.5549063500002,None,1122.5549063500002,None,1122.5549063500002,None,,,,,,,,,,,,,,,,,,,,,,,,,,,,,,,,,,,,,,,,,,,,001,133,2020_Feb_18_1122,spring_faces,3.1.5,60.00133730963351,
condition files/Stage1_2.xlsx,,B3,T4,m,"['c', 'm']","['Clue', 'Monopoly']","[-0.15, 0.5]","[0.15, 0.5]",1,1,,,,,,,,,0,1,1,1,0,7,7,6,,,,,,,,,,,,,,,,,,,,,,,,,,,,,,,,,,,,,,,,,,,,,,,,,,,,,,,1124.5214575810005,None,1124.5214575810005,None,1124.5214575810005,None,c,0,1.471825431999605,1126.0545015589996,None,1126.0545015589996,None,1126.0545015589996,None,1127.5896512109994,None,1127.5896512109994,None,1127.5896512109994,None,1127.5896512109994,None,,,,,,,,,,,,,,,,,,,,,,,,,,,,,,,,,,,,,,,,,,,,001,133,2020_Feb_18_1122,spring_faces,3.1.5,60.00133730963351,
condition files/Stage1_1.xlsx,,B1,T2,c,"['c', 'm']","['Clue', 'Monopoly']","[-0.15, 0.5]","[0.15, 0.5]",1,1,,,,,,,,,0,2,2,2,0,0,0,1,,,,,,,,,,,,,,,,,,,,,,,,,,,,,,,,,,,,,,,,,,,,,,,,,,,,,,,1129.5716801399994,None,1129.5716801399994,None,1129.5716801399994,None,c,1,1.0608437150003738,1131.1215447089999,None,1131.1215447089999,None,1131.1215447089999,None,1132.2550823700003,None,1132.2550823700003,None,1132.2550823700003,None,1132.2550823700003,None,,,,,,,,,,,,,,,,,,,,,,,,,,,,,,,,,,,,,,,,,,,,001,133,2020_Feb_18_1122,spring_faces,3.1.5,60.00133730963351,
condition files/Stage1_1.xlsx,,T1,B1,c,"['c', 'm']","['Clue', 'Monopoly']","[-0.15, 0.5]","[0.15, 0.5]",1,1,,,,,,,,,0,2,2,2,0,1,1,0,,,,,,,,,,,,,,,,,,,,,,,,,,,,,,,,,,,,,,,,,,,,,,,,,,,,,,,1134.204627952,None,1134.204627952,None,1134.204627952,None,m,0,1.4192829920011718,1135.7390419439998,None,1135.7390419439998,None,1135.7390419439998,None,1137.2213332600004,None,1137.2213332600004,None,1137.2213332600004,None,1137.2213332600004,None,,,,,,,,,,,,,,,,,,,,,,,,,,,,,,,,,,,,,,,,,,,,001,133,2020_Feb_18_1122,spring_faces,3.1.5,60.00133730963351,
condition files/Stage1_1.xlsx,,B2,T1,m,"['c', 'm']","['Clue', 'Monopoly']","[-0.15, 0.5]","[0.15, 0.5]",1,1,,,,,,,,,0,2,2,2,0,2,2,2,,,,,,,,,,,,,,,,,,,,,,,,,,,,,,,,,,,,,,,,,,,,,,,,,,,,,,,1139.1881114610005,None,1139.1881114610005,None,1139.1881114610005,None,c,0,1.586725535998994,1140.7236185630009,None,1140.7236185630009,None,1140.7236185630009,None,1142.3722353829999,None,1142.3722353829999,None,1142.3722353829999,None,1142.3722353829999,None,,,,,,,,,,,,,,,,,,,,,,,,,,,,,,,,,,,,,,,,,,,,001,133,2020_Feb_18_1122,spring_faces,3.1.5,60.00133730963351,
condition files/Stage1_1.xlsx,,T3,B4,c,"['c', 'm']","['Clue', 'Monopoly']","[-0.15, 0.5]","[0.15, 0.5]",1,1,,,,,,,,,0,2,2,2,0,3,3,5,,,,,,,,,,,,,,,,,,,,,,,,,,,,,,,,,,,,,,,,,,,,,,,,,,,,,,,1144.3380896220006,None,1144.3380896220006,None,1144.3380896220006,None,m,0,2.086849978000828,1145.8714856009992,None,1145.8714856009992,None,1145.8714856009992,None,1148.0382282289993,None,1148.0382282289993,None,1148.0382282289993,None,1148.0382282289993,None,,,,,,,,,,,,,,,,,,,,,,,,,,,,,,,,,,,,,,,,,,,,001,133,2020_Feb_18_1122,spring_faces,3.1.5,60.00133730963351,
condition files/Stage1_1.xlsx,,B3,T3,c,"['c', 'm']","['Clue', 'Monopoly']","[-0.15, 0.5]","[0.15, 0.5]",1,1,,,,,,,,,0,2,2,2,0,4,4,4,,,,,,,,,,,,,,,,,,,,,,,,,,,,,,,,,,,,,,,,,,,,,,,,,,,,,,,1149.9874951740003,None,1149.9874951740003,None,1149.9874951740003,None,c,1,1.1573575160000473,1151.5210444130007,None,1151.5210444130007,None,1151.5210444130007,None,1152.737856699001,None,1152.737856699001,None,1152.737856699001,None,1152.737856699001,None,,,,,,,,,,,,,,,,,,,,,,,,,,,,,,,,,,,,,,,,,,,,001,133,2020_Feb_18_1122,spring_faces,3.1.5,60.00133730963351,
condition files/Stage1_1.xlsx,,B4,T4,m,"['c', 'm']","['Clue', 'Monopoly']","[-0.15, 0.5]","[0.15, 0.5]",1,1,,,,,,,,,0,2,2,2,0,5,5,7,,,,,,,,,,,,,,,,,,,,,,,,,,,,,,,,,,,,,,,,,,,,,,,,,,,,,,,1154.704883769,None,1154.704883769,None,1154.704883769,None,m,1,1.4161202920004143,1156.2382031849993,None,1156.2382031849993,None,1156.2382031849993,None,1157.7217310510005,None,1157.7217310510005,None,1157.7217310510005,None,1157.7217310510005,None,,,,,,,,,,,,,,,,,,,,,,,,,,,,,,,,,,,,,,,,,,,,001,133,2020_Feb_18_1122,spring_faces,3.1.5,60.00133730963351,
condition files/Stage1_1.xlsx,,T4,B3,m,"['c', 'm']","['Clue', 'Monopoly']","[-0.15, 0.5]","[0.15, 0.5]",1,1,,,,,,,,,0,2,2,2,0,6,6,6,,,,,,,,,,,,,,,,,,,,,,,,,,,,,,,,,,,,,,,,,,,,,,,,,,,,,,,1159.671574039001,None,1159.671574039001,None,1159.671574039001,None,m,1,1.2015739190010208,1161.2047208969998,None,1161.2047208969998,None,1161.2047208969998,None,1162.47104889,None,1162.47104889,None,1162.47104889,None,1162.47104889,None,,,,,,,,,,,,,,,,,,,,,,,,,,,,,,,,,,,,,,,,,,,,001,133,2020_Feb_18_1122,spring_faces,3.1.5,60.00133730963351,
condition files/Stage1_1.xlsx,,T2,B2,m,"['c', 'm']","['Clue', 'Monopoly']","[-0.15, 0.5]","[0.15, 0.5]",1,1,,,,,,,,,0,2,2,2,0,7,7,3,,,,,,,,,,,,,,,,,,,,,,,,,,,,,,,,,,,,,,,,,,,,,,,,,,,,,,,1164.4380045090002,None,1164.4380045090002,None,1164.4380045090002,None,m,1,2.195043206998889,1165.9712434169996,None,1165.9712434169996,None,1165.9712434169996,None,1168.221435816,None,1168.221435816,None,1168.221435816,None,1168.221435816,None,,,,,,,,,,,,,,,,,,,,,,,,,,,,,,,,,,,,,,,,,,,,001,133,2020_Feb_18_1122,spring_faces,3.1.5,60.00133730963351,
condition files/Stage1_2.xlsx,,B1,T1,c,"['c', 'm']","['Clue', 'Monopoly']","[-0.15, 0.5]","[0.15, 0.5]",1,1,,,,,,,,,0,3,3,3,0,0,0,0,,,,,,,,,,,,,,,,,,,,,,,,,,,,,,,,,,,,,,,,,,,,,,,,,,,,,,,1170.2047373410005,None,1170.2047373410005,None,1170.2047373410005,None,m,0,0.8747861860010744,1171.7395737440002,None,1171.7395737440002,None,1171.7395737440002,None,1172.6727492049995,None,1172.6727492049995,None,1172.6727492049995,None,1172.6727492049995,None,,,,,,,,,,,,,,,,,,,,,,,,,,,,,,,,,,,,,,,,,,,,001,133,2020_Feb_18_1122,spring_faces,3.1.5,60.00133730963351,
condition files/Stage1_2.xlsx,,T3,B3,c,"['c', 'm']","['Clue', 'Monopoly']","[-0.15, 0.5]","[0.15, 0.5]",1,1,,,,,,,,,0,3,3,3,0,1,1,4,,,,,,,,,,,,,,,,,,,,,,,,,,,,,,,,,,,,,,,,,,,,,,,,,,,,,,,1174.6379883520003,None,1174.6379883520003,None,1174.6379883520003,None,m,0,0.8272338560000208,1176.1711547199993,None,1176.1711547199993,None,1176.1711547199993,None,1177.0546992430009,None,1177.0546992430009,None,1177.0546992430009,None,1177.0546992430009,None,,,,,,,,,,,,,,,,,,,,,,,,,,,,,,,,,,,,,,,,,,,,001,133,2020_Feb_18_1122,spring_faces,3.1.5,60.00133730963351,
condition files/Stage1_2.xlsx,,B4,T3,c,"['c', 'm']","['Clue', 'Monopoly']","[-0.15, 0.5]","[0.15, 0.5]",1,1,,,,,,,,,0,3,3,3,0,2,2,5,,,,,,,,,,,,,,,,,,,,,,,,,,,,,,,,,,,,,,,,,,,,,,,,,,,,,,,1179.0213617000009,None,1179.0213617000009,None,1179.0213617000009,None,c,1,0.9232166509991657,1180.5551778930003,None,1180.5551778930003,None,1180.5551778930003,None,1181.538702238,None,1181.538702238,None,1181.538702238,None,1181.538702238,None,,,,,,,,,,,,,,,,,,,,,,,,,,,,,,,,,,,,,,,,,,,,001,133,2020_Feb_18_1122,spring_faces,3.1.5,60.00133730963351,
condition files/Stage1_2.xlsx,,T2,B1,c,"['c', 'm']","['Clue', 'Monopoly']","[-0.15, 0.5]","[0.15, 0.5]",1,1,,,,,,,,,0,3,3,3,0,3,3,1,,,,,,,,,,,,,,,,,,,,,,,,,,,,,,,,,,,,,,,,,,,,,,,,,,,,,,,1183.5049400989992,None,1183.5049400989992,None,1183.5049400989992,None,c,1,2.967407860998719,1185.0548500509994,None,1185.0548500509994,None,1185.0548500509994,None,1188.0882350859993,None,1188.0882350859993,None,1188.0882350859993,None,1188.0882350859993,None,,,,,,,,,,,,,,,,,,,,,,,,,,,,,,,,,,,,,,,,,,,,001,133,2020_Feb_18_1122,spring_faces,3.1.5,60.00133730963351,
condition files/Stage1_2.xlsx,,T4,B4,m,"['c', 'm']","['Clue', 'Monopoly']","[-0.15, 0.5]","[0.15, 0.5]",1,1,,,,,,,,,0,3,3,3,0,4,4,7,,,,,,,,,,,,,,,,,,,,,,,,,,,,,,,,,,,,,,,,,,,,,,,,,,,,,,,1190.0547815270002,None,1190.0547815270002,None,1190.0547815270002,None,m,1,0.7222894389997236,1191.5880114600004,None,1191.5880114600004,None,1191.5880114600004,None,1192.373369545001,None,1192.373369545001,None,1192.373369545001,None,1192.373369545001,None,,,,,,,,,,,,,,,,,,,,,,,,,,,,,,,,,,,,,,,,,,,,001,133,2020_Feb_18_1122,spring_faces,3.1.5,60.00133730963351,
condition files/Stage1_2.xlsx,,T1,B2,m,"['c', 'm']","['Clue', 'Monopoly']","[-0.15, 0.5]","[0.15, 0.5]",1,1,,,,,,,,,0,3,3,3,0,5,5,2,,,,,,,,,,,,,,,,,,,,,,,,,,,,,,,,,,,,,,,,,,,,,,,,,,,,,,,1194.337625045,None,1194.337625045,None,1194.337625045,None,m,1,0.8709802619996481,1195.8713544540005,None,1195.8713544540005,None,1195.8713544540005,None,1196.8051400479999,None,1196.8051400479999,None,1196.8051400479999,None,1196.8051400479999,None,,,,,,,,,,,,,,,,,,,,,,,,,,,,,,,,,,,,,,,,,,,,001,133,2020_Feb_18_1122,spring_faces,3.1.5,60.00133730963351,
condition files/Stage1_2.xlsx,,B3,T4,m,"['c', 'm']","['Clue', 'Monopoly']","[-0.15, 0.5]","[0.15, 0.5]",1,1,,,,,,,,,0,3,3,3,0,6,6,6,,,,,,,,,,,,,,,,,,,,,,,,,,,,,,,,,,,,,,,,,,,,,,,,,,,,,,,1198.7717219990009,None,1198.7717219990009,None,1198.7717219990009,None,m,1,0.8053647960005037,1200.3049745219996,None,1200.3049745219996,None,1200.3049745219996,None,1201.1719138419994,None,1201.1719138419994,None,1201.1719138419994,None,1201.1719138419994,None,,,,,,,,,,,,,,,,,,,,,,,,,,,,,,,,,,,,,,,,,,,,001,133,2020_Feb_18_1122,spring_faces,3.1.5,60.00133730963351,
condition files/Stage1_2.xlsx,,B2,T2,m,"['c', 'm']","['Clue', 'Monopoly']","[-0.15, 0.5]","[0.15, 0.5]",1,1,,,,,,,,,0,3,3,3,0,7,7,3,,,,,,,,,,,,,,,,,,,,,,,,,,,,,,,,,,,,,,,,,,,,,,,,,,,,,,,1203.1380991210008,None,1203.1380991210008,None,1203.1380991210008,None,m,1,1.0154465880004864,1204.6708759640005,None,1204.6708759640005,None,1204.6708759640005,None,1205.7383538930007,None,1205.7383538930007,None,1205.7383538930007,None,1205.7383538930007,None,,,,,,,,,,,,,,,,,,,,,,,,,,,,,,,,,,,,,,,,,,,,001,133,2020_Feb_18_1122,spring_faces,3.1.5,60.00133730963351,
condition files/Stage1_1.xlsx,,T2,B2,m,"['c', 'm']","['Clue', 'Monopoly']","[-0.15, 0.5]","[0.15, 0.5]",1,1,,,,,,,,,0,4,4,4,0,0,0,3,,,,,,,,,,,,,,,,,,,,,,,,,,,,,,,,,,,,,,,,,,,,,,,,,,,,,,,1207.7217532699997,None,1207.7217532699997,None,1207.7217532699997,None,m,1,0.7189406500001496,1209.2713800000001,None,1209.2713800000001,None,1209.2713800000001,None,1210.0549595890006,None,1210.0549595890006,None,1210.0549595890006,None,1210.0549595890006,None,,,,,,,,,,,,,,,,,,,,,,,,,,,,,,,,,,,,,,,,,,,,001,133,2020_Feb_18_1122,spring_faces,3.1.5,60.00133730963351,
condition files/Stage1_1.xlsx,,T4,B3,m,"['c', 'm']","['Clue', 'Monopoly']","[-0.15, 0.5]","[0.15, 0.5]",1,1,,,,,,,,,0,4,4,4,0,1,1,6,,,,,,,,,,,,,,,,,,,,,,,,,,,,,,,,,,,,,,,,,,,,,,,,,,,,,,,1212.0214653519997,None,1212.0214653519997,None,1212.0214653519997,None,m,1,0.8996624079991307,1213.5546504859994,None,1213.5546504859994,None,1213.5546504859994,None,1214.5050694019992,None,1214.5050694019992,None,1214.5050694019992,None,1214.5050694019992,None,,,,,,,,,,,,,,,,,,,,,,,,,,,,,,,,,,,,,,,,,,,,001,133,2020_Feb_18_1122,spring_faces,3.1.5,60.00133730963351,
condition files/Stage1_1.xlsx,,B1,T2,c,"['c', 'm']","['Clue', 'Monopoly']","[-0.15, 0.5]","[0.15, 0.5]",1,1,,,,,,,,,0,4,4,4,0,2,2,1,,,,,,,,,,,,,,,,,,,,,,,,,,,,,,,,,,,,,,,,,,,,,,,,,,,,,,,1216.4711084369992,None,1216.4711084369992,None,1216.4711084369992,None,c,1,1.0414412900008756,1218.0049449559992,None,1218.0049449559992,None,1218.0049449559992,None,1219.1050120870004,None,1219.1050120870004,None,1219.1050120870004,None,1219.1050120870004,None,,,,,,,,,,,,,,,,,,,,,,,,,,,,,,,,,,,,,,,,,,,,001,133,2020_Feb_18_1122,spring_faces,3.1.5,60.00133730963351,
condition files/Stage1_1.xlsx,,T3,B4,c,"['c', 'm']","['Clue', 'Monopoly']","[-0.15, 0.5]","[0.15, 0.5]",1,1,,,,,,,,,0,4,4,4,0,3,3,5,,,,,,,,,,,,,,,,,,,,,,,,,,,,,,,,,,,,,,,,,,,,,,,,,,,,,,,1221.0714731059998,None,1221.0714731059998,None,1221.0714731059998,None,m,0,0.665157673000067,1222.605164136001,None,1222.605164136001,None,1222.605164136001,None,1223.3212031399999,None,1223.3212031399999,None,1223.3212031399999,None,1223.3212031399999,None,,,,,,,,,,,,,,,,,,,,,,,,,,,,,,,,,,,,,,,,,,,,001,133,2020_Feb_18_1122,spring_faces,3.1.5,60.00133730963351,
condition files/Stage1_1.xlsx,,B3,T3,c,"['c', 'm']","['Clue', 'Monopoly']","[-0.15, 0.5]","[0.15, 0.5]",1,1,,,,,,,,,0,4,4,4,0,4,4,4,,,,,,,,,,,,,,,,,,,,,,,,,,,,,,,,,,,,,,,,,,,,,,,,,,,,,,,1225.2881341390002,None,1225.2881341390002,None,1225.2881341390002,None,m,0,1.3920191699999123,1226.8383584050007,None,1226.8383584050007,None,1226.8383584050007,None,1228.288400552001,None,1228.288400552001,None,1228.288400552001,None,1228.288400552001,None,,,,,,,,,,,,,,,,,,,,,,,,,,,,,,,,,,,,,,,,,,,,001,133,2020_Feb_18_1122,spring_faces,3.1.5,60.00133730963351,
condition files/Stage1_1.xlsx,,B4,T4,m,"['c', 'm']","['Clue', 'Monopoly']","[-0.15, 0.5]","[0.15, 0.5]",1,1,,,,,,,,,0,4,4,4,0,5,5,7,,,,,,,,,,,,,,,,,,,,,,,,,,,,,,,,,,,,,,,,,,,,,,,,,,,,,,,1230.2548508719992,None,1230.2548508719992,None,1230.2548508719992,None,m,1,0.9699174819998007,1231.7884103319993,None,1231.7884103319993,None,1231.7884103319993,None,1232.8386758689994,None,1232.8386758689994,None,1232.8386758689994,None,1232.8386758689994,None,,,,,,,,,,,,,,,,,,,,,,,,,,,,,,,,,,,,,,,,,,,,001,133,2020_Feb_18_1122,spring_faces,3.1.5,60.00133730963351,
condition files/Stage1_1.xlsx,,B2,T1,m,"['c', 'm']","['Clue', 'Monopoly']","[-0.15, 0.5]","[0.15, 0.5]",1,1,,,,,,,,,0,4,4,4,0,6,6,2,,,,,,,,,,,,,,,,,,,,,,,,,,,,,,,,,,,,,,,,,,,,,,,,,,,,,,,1234.7879988450004,None,1234.7879988450004,None,1234.7879988450004,None,m,1,1.3159028610007226,1236.3384084530007,None,1236.3384084530007,None,1236.3384084530007,None,1237.7051516070005,None,1237.7051516070005,None,1237.7051516070005,None,1237.7051516070005,None,,,,,,,,,,,,,,,,,,,,,,,,,,,,,,,,,,,,,,,,,,,,001,133,2020_Feb_18_1122,spring_faces,3.1.5,60.00133730963351,
condition files/Stage1_1.xlsx,,T1,B1,c,"['c', 'm']","['Clue', 'Monopoly']","[-0.15, 0.5]","[0.15, 0.5]",1,1,,,,,,,,,0,4,4,4,0,7,7,0,,,,,,,,,,,,,,,,,,,,,,,,,,,,,,,,,,,,,,,,,,,,,,,,,,,,,,,1239.6716783289994,None,1239.6716783289994,None,1239.6716783289994,None,c,1,1.937826043998939,1241.2044982219995,None,1241.2044982219995,None,1241.2044982219995,None,1243.2070329199996,None,1243.2070329199996,None,1243.2070329199996,None,1243.2070329199996,None,,,,,,,,,,,,,,,,,,,,,,,,,,,,,,,,,,,,,,,,,,,,001,133,2020_Feb_18_1122,spring_faces,3.1.5,60.00133730963351,
condition files/Stage1_2.xlsx,,B3,T4,m,"['c', 'm']","['Clue', 'Monopoly']","[-0.15, 0.5]","[0.15, 0.5]",1,1,,,,,,,,,0,5,5,5,0,0,0,6,,,,,,,,,,,,,,,,,,,,,,,,,,,,,,,,,,,,,,,,,,,,,,,,,,,,,,,1245.1876658279998,None,1245.1876658279998,None,1245.1876658279998,None,m,1,0.9177461359995505,1246.7045403770007,None,1246.7045403770007,None,1246.7045403770007,None,1247.6908730249997,None,1247.6908730249997,None,1247.6908730249997,None,1247.6908730249997,None,,,,,,,,,,,,,,,,,,,,,,,,,,,,,,,,,,,,,,,,,,,,001,133,2020_Feb_18_1122,spring_faces,3.1.5,60.00133730963351,
condition files/Stage1_2.xlsx,,B4,T3,c,"['c', 'm']","['Clue', 'Monopoly']","[-0.15, 0.5]","[0.15, 0.5]",1,1,,,,,,,,,0,5,5,5,0,1,1,5,,,,,,,,,,,,,,,,,,,,,,,,,,,,,,,,,,,,,,,,,,,,,,,,,,,,,,,1249.6549208899996,None,1249.6549208899996,None,1249.6549208899996,None,m,0,1.650439760000154,1251.1878938589998,None,1251.1878938589998,None,1251.1878938589998,None,1252.8881770019998,None,1252.8881770019998,None,1252.8881770019998,None,1252.8881770019998,None,,,,,,,,,,,,,,,,,,,,,,,,,,,,,,,,,,,,,,,,,,,,001,133,2020_Feb_18_1122,spring_faces,3.1.5,60.00133730963351,
condition files/Stage1_2.xlsx,,B1,T1,c,"['c', 'm']","['Clue', 'Monopoly']","[-0.15, 0.5]","[0.15, 0.5]",1,1,,,,,,,,,0,5,5,5,0,2,2,0,,,,,,,,,,,,,,,,,,,,,,,,,,,,,,,,,,,,,,,,,,,,,,,,,,,,,,,1254.8545075490001,None,1254.8545075490001,None,1254.8545075490001,None,c,1,0.7052650509995146,1256.389120027001,None,1256.389120027001,None,1256.389120027001,None,1257.1545557629997,None,1257.1545557629997,None,1257.1545557629997,None,1257.1545557629997,None,,,,,,,,,,,,,,,,,,,,,,,,,,,,,,,,,,,,,,,,,,,,001,133,2020_Feb_18_1122,spring_faces,3.1.5,60.00133730963351,
condition files/Stage1_2.xlsx,,T4,B4,m,"['c', 'm']","['Clue', 'Monopoly']","[-0.15, 0.5]","[0.15, 0.5]",1,1,,,,,,,,,0,5,5,5,0,3,3,7,,,,,,,,,,,,,,,,,,,,,,,,,,,,,,,,,,,,,,,,,,,,,,,,,,,,,,,1259.1216131220008,None,1259.1216131220008,None,1259.1216131220008,None,m,1,0.8706002570015698,1260.6717092800009,None,1260.6717092800009,None,1260.6717092800009,None,1261.6055292689998,None,1261.6055292689998,None,1261.6055292689998,None,1261.6055292689998,None,,,,,,,,,,,,,,,,,,,,,,,,,,,,,,,,,,,,,,,,,,,,001,133,2020_Feb_18_1122,spring_faces,3.1.5,60.00133730963351,
condition files/Stage1_2.xlsx,,T2,B1,c,"['c', 'm']","['Clue', 'Monopoly']","[-0.15, 0.5]","[0.15, 0.5]",1,1,,,,,,,,,0,5,5,5,0,4,4,1,,,,,,,,,,,,,,,,,,,,,,,,,,,,,,,,,,,,,,,,,,,,,,,,,,,,,,,1263.5716067409994,None,1263.5716067409994,None,1263.5716067409994,None,m,0,0.9978674699996191,1265.1044620579996,None,1265.1044620579996,None,1265.1044620579996,None,1266.1718294799994,None,1266.1718294799994,None,1266.1718294799994,None,1266.1718294799994,None,,,,,,,,,,,,,,,,,,,,,,,,,,,,,,,,,,,,,,,,,,,,001,133,2020_Feb_18_1122,spring_faces,3.1.5,60.00133730963351,
condition files/Stage1_2.xlsx,,T3,B3,c,"['c', 'm']","['Clue', 'Monopoly']","[-0.15, 0.5]","[0.15, 0.5]",1,1,,,,,,,,,0,5,5,5,0,5,5,4,,,,,,,,,,,,,,,,,,,,,,,,,,,,,,,,,,,,,,,,,,,,,,,,,,,,,,,1268.1207867550002,None,1268.1207867550002,None,1268.1207867550002,None,c,1,0.7010645739992469,1269.6572706730003,None,1269.6572706730003,None,1269.6572706730003,None,1270.4218944429995,None,1270.4218944429995,None,1270.4218944429995,None,1270.4218944429995,None,,,,,,,,,,,,,,,,,,,,,,,,,,,,,,,,,,,,,,,,,,,,001,133,2020_Feb_18_1122,spring_faces,3.1.5,60.00133730963351,
condition files/Stage1_2.xlsx,,T1,B2,m,"['c', 'm']","['Clue', 'Monopoly']","[-0.15, 0.5]","[0.15, 0.5]",1,1,,,,,,,,,0,5,5,5,0,6,6,2,,,,,,,,,,,,,,,,,,,,,,,,,,,,,,,,,,,,,,,,,,,,,,,,,,,,,,,1272.387775786001,None,1272.387775786001,None,1272.387775786001,None,m,1,1.108966469999359,1273.9212873830002,None,1273.9212873830002,None,1273.9212873830002,None,1275.1050416790004,None,1275.1050416790004,None,1275.1050416790004,None,1275.1050416790004,None,,,,,,,,,,,,,,,,,,,,,,,,,,,,,,,,,,,,,,,,,,,,001,133,2020_Feb_18_1122,spring_faces,3.1.5,60.00133730963351,
condition files/Stage1_2.xlsx,,B2,T2,m,"['c', 'm']","['Clue', 'Monopoly']","[-0.15, 0.5]","[0.15, 0.5]",1,1,,,,,,,,,0,5,5,5,0,7,7,3,,,,,,,,,,,,,,,,,,,,,,,,,,,,,,,,,,,,,,,,,,,,,,,,,,,,,,,1277.0546869680002,None,1277.0546869680002,None,1277.0546869680002,None,m,1,0.9051087230000121,1278.5892037720005,None,1278.5892037720005,None,1278.5892037720005,None,1279.5547413490003,None,1279.5547413490003,None,1279.5547413490003,None,1279.5547413490003,None,,,,,,,,,,,,,,,,,,,,,,,,,,,,,,,,,,,,,,,,,,,,001,133,2020_Feb_18_1122,spring_faces,3.1.5,60.00133730963351,
condition files/Stage1_1.xlsx,,T3,B4,c,"['c', 'm']","['Clue', 'Monopoly']","[-0.15, 0.5]","[0.15, 0.5]",1,1,,,,,,,,,0,6,6,6,0,0,0,5,,,,,,,,,,,,,,,,,,,,,,,,,,,,,,,,,,,,,,,,,,,,,,,,,,,,,,,1281.538487404001,None,1281.538487404001,None,1281.538487404001,None,m,0,1.2213131669996073,1283.0730897939993,None,1283.0730897939993,None,1283.0730897939993,None,1284.3719577489992,None,1284.3719577489992,None,1284.3719577489992,None,1284.3719577489992,None,,,,,,,,,,,,,,,,,,,,,,,,,,,,,,,,,,,,,,,,,,,,001,133,2020_Feb_18_1122,spring_faces,3.1.5,60.00133730963351,
condition files/Stage1_1.xlsx,,B3,T3,c,"['c', 'm']","['Clue', 'Monopoly']","[-0.15, 0.5]","[0.15, 0.5]",1,1,,,,,,,,,0,6,6,6,0,1,1,4,,,,,,,,,,,,,,,,,,,,,,,,,,,,,,,,,,,,,,,,,,,,,,,,,,,,,,,1286.321371819,None,1286.321371819,None,1286.321371819,None,m,0,1.1591241370006173,1287.8552429499996,None,1287.8552429499996,None,1287.8552429499996,None,1289.0717717160005,None,1289.0717717160005,None,1289.0717717160005,None,1289.0717717160005,None,,,,,,,,,,,,,,,,,,,,,,,,,,,,,,,,,,,,,,,,,,,,001,133,2020_Feb_18_1122,spring_faces,3.1.5,60.00133730963351,
condition files/Stage1_1.xlsx,,T2,B2,m,"['c', 'm']","['Clue', 'Monopoly']","[-0.15, 0.5]","[0.15, 0.5]",1,1,,,,,,,,,0,6,6,6,0,2,2,3,,,,,,,,,,,,,,,,,,,,,,,,,,,,,,,,,,,,,,,,,,,,,,,,,,,,,,,1291.0375198729998,None,1291.0375198729998,None,1291.0375198729998,None,c,0,0.8260806179987412,1292.5723214499994,None,1292.5723214499994,None,1292.5723214499994,None,1293.4573524930001,None,1293.4573524930001,None,1293.4573524930001,None,1293.4573524930001,None,,,,,,,,,,,,,,,,,,,,,,,,,,,,,,,,,,,,,,,,,,,,001,133,2020_Feb_18_1122,spring_faces,3.1.5,60.00133730963351,
condition files/Stage1_1.xlsx,,B1,T2,c,"['c', 'm']","['Clue', 'Monopoly']","[-0.15, 0.5]","[0.15, 0.5]",1,1,,,,,,,,,0,6,6,6,0,3,3,1,,,,,,,,,,,,,,,,,,,,,,,,,,,,,,,,,,,,,,,,,,,,,,,,,,,,,,,1295.4209793299997,None,1295.4209793299997,None,1295.4209793299997,None,c,1,0.9066948109993973,1296.9557091170009,None,1296.9557091170009,None,1296.9557091170009,None,1297.9233597490002,None,1297.9233597490002,None,1297.9233597490002,None,1297.9233597490002,None,,,,,,,,,,,,,,,,,,,,,,,,,,,,,,,,,,,,,,,,,,,,001,133,2020_Feb_18_1122,spring_faces,3.1.5,60.00133730963351,
condition files/Stage1_1.xlsx,,B2,T1,m,"['c', 'm']","['Clue', 'Monopoly']","[-0.15, 0.5]","[0.15, 0.5]",1,1,,,,,,,,,0,6,6,6,0,4,4,2,,,,,,,,,,,,,,,,,,,,,,,,,,,,,,,,,,,,,,,,,,,,,,,,,,,,,,,1299.888172295001,None,1299.888172295001,None,1299.888172295001,None,m,1,0.8884867319993646,1301.437825555,None,1301.437825555,None,1301.437825555,None,1302.390485721,None,1302.390485721,None,1302.390485721,None,1302.390485721,None,,,,,,,,,,,,,,,,,,,,,,,,,,,,,,,,,,,,,,,,,,,,001,133,2020_Feb_18_1122,spring_faces,3.1.5,60.00133730963351,
condition files/Stage1_1.xlsx,,T1,B1,c,"['c', 'm']","['Clue', 'Monopoly']","[-0.15, 0.5]","[0.15, 0.5]",1,1,,,,,,,,,0,6,6,6,0,5,5,0,,,,,,,,,,,,,,,,,,,,,,,,,,,,,,,,,,,,,,,,,,,,,,,,,,,,,,,1304.3547207909996,None,1304.3547207909996,None,1304.3547207909996,None,m,0,0.7418395439999586,1305.9045427710007,None,1305.9045427710007,None,1305.9045427710007,None,1306.7071315449994,None,1306.7071315449994,None,1306.7071315449994,None,1306.7071315449994,None,,,,,,,,,,,,,,,,,,,,,,,,,,,,,,,,,,,,,,,,,,,,001,133,2020_Feb_18_1122,spring_faces,3.1.5,60.00133730963351,
condition files/Stage1_1.xlsx,,T4,B3,m,"['c', 'm']","['Clue', 'Monopoly']","[-0.15, 0.5]","[0.15, 0.5]",1,1,,,,,,,,,0,6,6,6,0,6,6,6,,,,,,,,,,,,,,,,,,,,,,,,,,,,,,,,,,,,,,,,,,,,,,,,,,,,,,,1308.6714512939998,None,1308.6714512939998,None,1308.6714512939998,None,m,1,1.399435903000267,1310.2068679250006,None,1310.2068679250006,None,1310.2068679250006,None,1311.6738831519997,None,1311.6738831519997,None,1311.6738831519997,None,1311.6738831519997,None,,,,,,,,,,,,,,,,,,,,,,,,,,,,,,,,,,,,,,,,,,,,001,133,2020_Feb_18_1122,spring_faces,3.1.5,60.00133730963351,
condition files/Stage1_1.xlsx,,B4,T4,m,"['c', 'm']","['Clue', 'Monopoly']","[-0.15, 0.5]","[0.15, 0.5]",1,1,,,,,,,,,0,6,6,6,0,7,7,7,,,,,,,,,,,,,,,,,,,,,,,,,,,,,,,,,,,,,,,,,,,,,,,,,,,,,,,1313.6382543170002,None,1313.6382543170002,None,1313.6382543170002,None,m,1,1.490021246001561,1315.1883527669997,None,1315.1883527669997,None,1315.1883527669997,None,1316.7384224609996,None,1316.7384224609996,None,1316.7384224609996,None,1316.7384224609996,None,,,,,,,,,,,,,,,,,,,,,,,,,,,,,,,,,,,,,,,,,,,,001,133,2020_Feb_18_1122,spring_faces,3.1.5,60.00133730963351,
condition files/Stage1_2.xlsx,,B4,T3,c,"['c', 'm']","['Clue', 'Monopoly']","[-0.15, 0.5]","[0.15, 0.5]",1,1,,,,,,,,,0,7,7,7,0,0,0,5,,,,,,,,,,,,,,,,,,,,,,,,,,,,,,,,,,,,,,,,,,,,,,,,,,,,,,,1318.721958776001,None,1318.721958776001,None,1318.721958776001,None,c,1,1.189357557999756,1320.257054619,None,1320.257054619,None,1320.257054619,None,1321.506535034001,None,1321.506535034001,None,1321.506535034001,None,1321.506535034001,None,,,,,,,,,,,,,,,,,,,,,,,,,,,,,,,,,,,,,,,,,,,,001,133,2020_Feb_18_1122,spring_faces,3.1.5,60.00133730963351,
condition files/Stage1_2.xlsx,,B2,T2,m,"['c', 'm']","['Clue', 'Monopoly']","[-0.15, 0.5]","[0.15, 0.5]",1,1,,,,,,,,,0,7,7,7,0,1,1,3,,,,,,,,,,,,,,,,,,,,,,,,,,,,,,,,,,,,,,,,,,,,,,,,,,,,,,,1323.4714483900007,None,1323.4714483900007,None,1323.4714483900007,None,m,1,0.6964008459999604,1325.0059250619997,None,1325.0059250619997,None,1325.0059250619997,None,1325.7719357620008,None,1325.7719357620008,None,1325.7719357620008,None,1325.7719357620008,None,,,,,,,,,,,,,,,,,,,,,,,,,,,,,,,,,,,,,,,,,,,,001,133,2020_Feb_18_1122,spring_faces,3.1.5,60.00133730963351,
condition files/Stage1_2.xlsx,,T3,B3,c,"['c', 'm']","['Clue', 'Monopoly']","[-0.15, 0.5]","[0.15, 0.5]",1,1,,,,,,,,,0,7,7,7,0,2,2,4,,,,,,,,,,,,,,,,,,,,,,,,,,,,,,,,,,,,,,,,,,,,,,,,,,,,,,,1327.7209903149997,None,1327.7209903149997,None,1327.7209903149997,None,m,0,0.7178202939994662,1329.2565138709997,None,1329.2565138709997,None,1329.2565138709997,None,1330.0544624550002,None,1330.0544624550002,None,1330.0544624550002,None,1330.0544624550002,None,,,,,,,,,,,,,,,,,,,,,,,,,,,,,,,,,,,,,,,,,,,,001,133,2020_Feb_18_1122,spring_faces,3.1.5,60.00133730963351,
condition files/Stage1_2.xlsx,,T1,B2,m,"['c', 'm']","['Clue', 'Monopoly']","[-0.15, 0.5]","[0.15, 0.5]",1,1,,,,,,,,,0,7,7,7,0,3,3,2,,,,,,,,,,,,,,,,,,,,,,,,,,,,,,,,,,,,,,,,,,,,,,,,,,,,,,,1332.004834413001,None,1332.004834413001,None,1332.004834413001,None,m,1,0.708366685999863,1333.5380325250007,None,1333.5380325250007,None,1333.5380325250007,None,1334.3069338299993,None,1334.3069338299993,None,1334.3069338299993,None,1334.3069338299993,None,,,,,,,,,,,,,,,,,,,,,,,,,,,,,,,,,,,,,,,,,,,,001,133,2020_Feb_18_1122,spring_faces,3.1.5,60.00133730963351,
condition files/Stage1_2.xlsx,,B1,T1,c,"['c', 'm']","['Clue', 'Monopoly']","[-0.15, 0.5]","[0.15, 0.5]",1,1,,,,,,,,,0,7,7,7,0,4,4,0,,,,,,,,,,,,,,,,,,,,,,,,,,,,,,,,,,,,,,,,,,,,,,,,,,,,,,,1336.2710694109992,None,1336.2710694109992,None,1336.2710694109992,None,m,0,0.6806855670001823,1337.8056436019997,None,1337.8056436019997,None,1337.8056436019997,None,1338.5545796580009,None,1338.5545796580009,None,1338.5545796580009,None,1338.5545796580009,None,,,,,,,,,,,,,,,,,,,,,,,,,,,,,,,,,,,,,,,,,,,,001,133,2020_Feb_18_1122,spring_faces,3.1.5,60.00133730963351,
condition files/Stage1_2.xlsx,,T2,B1,c,"['c', 'm']","['Clue', 'Monopoly']","[-0.15, 0.5]","[0.15, 0.5]",1,1,,,,,,,,,0,7,7,7,0,5,5,1,,,,,,,,,,,,,,,,,,,,,,,,,,,,,,,,,,,,,,,,,,,,,,,,,,,,,,,1340.5047620610003,None,1340.5047620610003,None,1340.5047620610003,None,c,1,0.4631351349999022,1342.0391953260005,None,1342.0391953260005,None,1342.0391953260005,None,1342.554446604001,None,1342.554446604001,None,1342.554446604001,None,1342.554446604001,None,,,,,,,,,,,,,,,,,,,,,,,,,,,,,,,,,,,,,,,,,,,,001,133,2020_Feb_18_1122,spring_faces,3.1.5,60.00133730963351,
condition files/Stage1_2.xlsx,,B3,T4,m,"['c', 'm']","['Clue', 'Monopoly']","[-0.15, 0.5]","[0.15, 0.5]",1,1,,,,,,,,,0,7,7,7,0,6,6,6,,,,,,,,,,,,,,,,,,,,,,,,,,,,,,,,,,,,,,,,,,,,,,,,,,,,,,,1344.5216640609997,None,1344.5216640609997,None,1344.5216640609997,None,c,0,0.5597155249997741,1346.0546564649994,None,1346.0546564649994,None,1346.0546564649994,None,1346.6731979880005,None,1346.6731979880005,None,1346.6731979880005,None,1346.6731979880005,None,,,,,,,,,,,,,,,,,,,,,,,,,,,,,,,,,,,,,,,,,,,,001,133,2020_Feb_18_1122,spring_faces,3.1.5,60.00133730963351,
condition files/Stage1_2.xlsx,,T4,B4,m,"['c', 'm']","['Clue', 'Monopoly']","[-0.15, 0.5]","[0.15, 0.5]",1,1,,,,,,,,,0,7,7,7,0,7,7,7,,,,,,,,,,,,,,,,,,,,,,,,,,,,,,,,,,,,,,,,,,,,,,,,,,,,,,,1348.6375061809995,None,1348.6375061809995,None,1348.6375061809995,None,c,0,1.8336852280008316,1350.1885771649995,None,1350.1885771649995,None,1350.1885771649995,None,1352.088220394,None,1352.088220394,None,1352.088220394,None,1352.088220394,None,,,,,,,,,,,,,,,,,,,,,,,,,,,,,,,,,,,,,,,,,,,,001,133,2020_Feb_18_1122,spring_faces,3.1.5,60.00133730963351,
condition files/Stage1_1.xlsx,,B3,T3,c,"['c', 'm']","['Clue', 'Monopoly']","[-0.15, 0.5]","[0.15, 0.5]",1,1,,,,,,,,,0,8,8,8,0,0,0,4,,,,,,,,,,,,,,,,,,,,,,,,,,,,,,,,,,,,,,,,,,,,,,,,,,,,,,,1354.0714672859995,None,1354.0714672859995,None,1354.0714672859995,None,m,0,1.4248020729992277,1355.6215854809998,None,1355.6215854809998,None,1355.6215854809998,None,1357.1212740680003,None,1357.1212740680003,None,1357.1212740680003,None,1357.1212740680003,None,,,,,,,,,,,,,,,,,,,,,,,,,,,,,,,,,,,,,,,,,,,,001,133,2020_Feb_18_1122,spring_faces,3.1.5,60.00133730963351,
condition files/Stage1_1.xlsx,,B1,T2,c,"['c', 'm']","['Clue', 'Monopoly']","[-0.15, 0.5]","[0.15, 0.5]",1,1,,,,,,,,,0,8,8,8,0,1,1,1,,,,,,,,,,,,,,,,,,,,,,,,,,,,,,,,,,,,,,,,,,,,,,,,,,,,,,,1359.0712828670003,None,1359.0712828670003,None,1359.0712828670003,None,c,1,1.7691402700002072,1360.621142207001,None,1360.621142207001,None,1360.621142207001,None,1362.4551260560002,None,1362.4551260560002,None,1362.4551260560002,None,1362.4551260560002,None,,,,,,,,,,,,,,,,,,,,,,,,,,,,,,,,,,,,,,,,,,,,001,133,2020_Feb_18_1122,spring_faces,3.1.5,60.00133730963351,
condition files/Stage1_1.xlsx,,T3,B4,c,"['c', 'm']","['Clue', 'Monopoly']","[-0.15, 0.5]","[0.15, 0.5]",1,1,,,,,,,,,0,8,8,8,0,2,2,5,,,,,,,,,,,,,,,,,,,,,,,,,,,,,,,,,,,,,,,,,,,,,,,,,,,,,,,1364.4209118039998,None,1364.4209118039998,None,1364.4209118039998,None,m,0,1.555192611000166,1365.9550950730008,None,1365.9550950730008,None,1365.9550950730008,None,1367.5715203910004,None,1367.5715203910004,None,1367.5715203910004,None,1367.5715203910004,None,,,,,,,,,,,,,,,,,,,,,,,,,,,,,,,,,,,,,,,,,,,,001,133,2020_Feb_18_1122,spring_faces,3.1.5,60.00133730963351,
condition files/Stage1_1.xlsx,,T1,B1,c,"['c', 'm']","['Clue', 'Monopoly']","[-0.15, 0.5]","[0.15, 0.5]",1,1,,,,,,,,,0,8,8,8,0,3,3,0,,,,,,,,,,,,,,,,,,,,,,,,,,,,,,,,,,,,,,,,,,,,,,,,,,,,,,,1369.5378945459997,None,1369.5378945459997,None,1369.5378945459997,None,m,0,1.4938559140009602,1371.0724366529994,None,1371.0724366529994,None,1371.0724366529994,None,1372.6214757939997,None,1372.6214757939997,None,1372.6214757939997,None,1372.6214757939997,None,,,,,,,,,,,,,,,,,,,,,,,,,,,,,,,,,,,,,,,,,,,,001,133,2020_Feb_18_1122,spring_faces,3.1.5,60.00133730963351,
condition files/Stage1_1.xlsx,,T4,B3,m,"['c', 'm']","['Clue', 'Monopoly']","[-0.15, 0.5]","[0.15, 0.5]",1,1,,,,,,,,,0,8,8,8,0,4,4,6,,,,,,,,,,,,,,,,,,,,,,,,,,,,,,,,,,,,,,,,,,,,,,,,,,,,,,,1374.5882174020007,None,1374.5882174020007,None,1374.5882174020007,None,m,1,1.245075304999773,1376.1212594780009,None,1376.1212594780009,None,1376.1212594780009,None,1377.422947819001,None,1377.422947819001,None,1377.422947819001,None,1377.422947819001,None,,,,,,,,,,,,,,,,,,,,,,,,,,,,,,,,,,,,,,,,,,,,001,133,2020_Feb_18_1122,spring_faces,3.1.5,60.00133730963351,
condition files/Stage1_1.xlsx,,T2,B2,m,"['c', 'm']","['Clue', 'Monopoly']","[-0.15, 0.5]","[0.15, 0.5]",1,1,,,,,,,,,0,8,8,8,0,5,5,3,,,,,,,,,,,,,,,,,,,,,,,,,,,,,,,,,,,,,,,,,,,,,,,,,,,,,,,1379.3884006370008,None,1379.3884006370008,None,1379.3884006370008,None,m,1,1.1962474829997518,1380.9380833710002,None,1380.9380833710002,None,1380.9380833710002,None,1382.1876623940007,None,1382.1876623940007,None,1382.1876623940007,None,1382.1876623940007,None,,,,,,,,,,,,,,,,,,,,,,,,,,,,,,,,,,,,,,,,,,,,001,133,2020_Feb_18_1122,spring_faces,3.1.5,60.00133730963351,
condition files/Stage1_1.xlsx,,B4,T4,m,"['c', 'm']","['Clue', 'Monopoly']","[-0.15, 0.5]","[0.15, 0.5]",1,1,,,,,,,,,0,8,8,8,0,6,6,7,,,,,,,,,,,,,,,,,,,,,,,,,,,,,,,,,,,,,,,,,,,,,,,,,,,,,,,1384.154817134,None,1384.154817134,None,1384.154817134,None,c,0,1.3420085239995387,1385.6883970090003,None,1385.6883970090003,None,1385.6883970090003,None,1387.088391632,None,1387.088391632,None,1387.088391632,None,1387.088391632,None,,,,,,,,,,,,,,,,,,,,,,,,,,,,,,,,,,,,,,,,,,,,001,133,2020_Feb_18_1122,spring_faces,3.1.5,60.00133730963351,
condition files/Stage1_1.xlsx,,B2,T1,m,"['c', 'm']","['Clue', 'Monopoly']","[-0.15, 0.5]","[0.15, 0.5]",1,1,,,,,,,,,0,8,8,8,0,7,7,2,,,,,,,,,,,,,,,,,,,,,,,,,,,,,,,,,,,,,,,,,,,,,,,,,,,,,,,1389.0548278170008,None,1389.0548278170008,None,1389.0548278170008,None,m,1,0.7627201399991463,1390.5875946249998,None,1390.5875946249998,None,1390.5875946249998,None,1391.4047766099993,None,1391.4047766099993,None,1391.4047766099993,None,1391.4047766099993,None,,,,,,,,,,,,,,,,,,,,,,,,,,,,,,,,,,,,,,,,,,,,001,133,2020_Feb_18_1122,spring_faces,3.1.5,60.00133730963351,
condition files/Stage1_2.xlsx,,B1,T1,c,"['c', 'm']","['Clue', 'Monopoly']","[-0.15, 0.5]","[0.15, 0.5]",1,1,,,,,,,,,0,9,9,9,0,0,0,0,,,,,,,,,,,,,,,,,,,,,,,,,,,,,,,,,,,,,,,,,,,,,,,,,,,,,,,1393.3883038469994,None,1393.3883038469994,None,1393.3883038469994,None,c,1,1.5974044499998854,1394.9210954600003,None,1394.9210954600003,None,1394.9210954600003,None,1396.573439969001,None,1396.573439969001,None,1396.573439969001,None,1396.573439969001,None,,,,,,,,,,,,,,,,,,,,,,,,,,,,,,,,,,,,,,,,,,,,001,133,2020_Feb_18_1122,spring_faces,3.1.5,60.00133730963351,
condition files/Stage1_2.xlsx,,T3,B3,c,"['c', 'm']","['Clue', 'Monopoly']","[-0.15, 0.5]","[0.15, 0.5]",1,1,,,,,,,,,0,9,9,9,0,1,1,4,,,,,,,,,,,,,,,,,,,,,,,,,,,,,,,,,,,,,,,,,,,,,,,,,,,,,,,1398.5382007490007,None,1398.5382007490007,None,1398.5382007490007,None,m,0,1.0388914510003815,1400.071442726001,None,1400.071442726001,None,1400.071442726001,None,1401.1710943899998,None,1401.1710943899998,None,1401.1710943899998,None,1401.1710943899998,None,,,,,,,,,,,,,,,,,,,,,,,,,,,,,,,,,,,,,,,,,,,,001,133,2020_Feb_18_1122,spring_faces,3.1.5,60.00133730963351,
condition files/Stage1_2.xlsx,,B2,T2,m,"['c', 'm']","['Clue', 'Monopoly']","[-0.15, 0.5]","[0.15, 0.5]",1,1,,,,,,,,,0,9,9,9,0,2,2,3,,,,,,,,,,,,,,,,,,,,,,,,,,,,,,,,,,,,,,,,,,,,,,,,,,,,,,,1403.1374841329998,None,1403.1374841329998,None,1403.1374841329998,None,m,1,0.7095217409987526,1404.6728205569998,None,1404.6728205569998,None,1404.6728205569998,None,1405.4551029529994,None,1405.4551029529994,None,1405.4551029529994,None,1405.4551029529994,None,,,,,,,,,,,,,,,,,,,,,,,,,,,,,,,,,,,,,,,,,,,,001,133,2020_Feb_18_1122,spring_faces,3.1.5,60.00133730963351,
condition files/Stage1_2.xlsx,,B3,T4,m,"['c', 'm']","['Clue', 'Monopoly']","[-0.15, 0.5]","[0.15, 0.5]",1,1,,,,,,,,,0,9,9,9,0,3,3,6,,,,,,,,,,,,,,,,,,,,,,,,,,,,,,,,,,,,,,,,,,,,,,,,,,,,,,,1407.4048211099998,None,1407.4048211099998,None,1407.4048211099998,None,m,1,1.1323324629993294,1408.9379915339996,None,1408.9379915339996,None,1408.9379915339996,None,1410.1212776930006,None,1410.1212776930006,None,1410.1212776930006,None,1410.1212776930006,None,,,,,,,,,,,,,,,,,,,,,,,,,,,,,,,,,,,,,,,,,,,,001,133,2020_Feb_18_1122,spring_faces,3.1.5,60.00133730963351,
condition files/Stage1_2.xlsx,,T1,B2,m,"['c', 'm']","['Clue', 'Monopoly']","[-0.15, 0.5]","[0.15, 0.5]",1,1,,,,,,,,,0,9,9,9,0,4,4,2,,,,,,,,,,,,,,,,,,,,,,,,,,,,,,,,,,,,,,,,,,,,,,,,,,,,,,,1412.0878688470002,None,1412.0878688470002,None,1412.0878688470002,None,m,1,1.0727875880002102,1413.6216158749994,None,1413.6216158749994,None,1413.6216158749994,None,1414.7544819140003,None,1414.7544819140003,None,1414.7544819140003,None,1414.7544819140003,None,,,,,,,,,,,,,,,,,,,,,,,,,,,,,,,,,,,,,,,,,,,,001,133,2020_Feb_18_1122,spring_faces,3.1.5,60.00133730963351,
condition files/Stage1_2.xlsx,,T4,B4,m,"['c', 'm']","['Clue', 'Monopoly']","[-0.15, 0.5]","[0.15, 0.5]",1,1,,,,,,,,,0,9,9,9,0,5,5,7,,,,,,,,,,,,,,,,,,,,,,,,,,,,,,,,,,,,,,,,,,,,,,,,,,,,,,,1416.7215280220007,None,1416.7215280220007,None,1416.7215280220007,None,c,0,1.4158191900005477,1418.2545161260005,None,1418.2545161260005,None,1418.2545161260005,None,1419.7219793109998,None,1419.7219793109998,None,1419.7219793109998,None,1419.7219793109998,None,,,,,,,,,,,,,,,,,,,,,,,,,,,,,,,,,,,,,,,,,,,,001,133,2020_Feb_18_1122,spring_faces,3.1.5,60.00133730963351,
condition files/Stage1_2.xlsx,,T2,B1,c,"['c', 'm']","['Clue', 'Monopoly']","[-0.15, 0.5]","[0.15, 0.5]",1,1,,,,,,,,,0,9,9,9,0,6,6,1,,,,,,,,,,,,,,,,,,,,,,,,,,,,,,,,,,,,,,,,,,,,,,,,,,,,,,,1421.6881732969996,None,1421.6881732969996,None,1421.6881732969996,None,c,1,1.6485738450010103,1423.2217451720007,None,1423.2217451720007,None,1423.2217451720007,None,1424.923672592,None,1424.923672592,None,1424.923672592,None,1424.923672592,None,,,,,,,,,,,,,,,,,,,,,,,,,,,,,,,,,,,,,,,,,,,,001,133,2020_Feb_18_1122,spring_faces,3.1.5,60.00133730963351,
condition files/Stage1_2.xlsx,,B4,T3,c,"['c', 'm']","['Clue', 'Monopoly']","[-0.15, 0.5]","[0.15, 0.5]",1,1,,,,,,,,,0,9,9,9,0,7,7,5,,,,,,,,,,,,,,,,,,,,,,,,,,,,,,,,,,,,,,,,,,,,,,,,,,,,,,,1426.888338795001,None,1426.888338795001,None,1426.888338795001,None,c,1,0.7346198400009598,1428.4237138219996,None,1428.4237138219996,None,1428.4237138219996,None,1429.2209736200002,None,1429.2209736200002,None,1429.2209736200002,None,1429.2209736200002,None,,,,,,,,,,,,,,,,,,,,,,,,,,,,,,,,,,,,,,,,,,,,001,133,2020_Feb_18_1122,spring_faces,3.1.5,60.00133730963351,
condition files/Stage1_1.xlsx,,B1,T2,c,"['c', 'm']","['Clue', 'Monopoly']","[-0.15, 0.5]","[0.15, 0.5]",1,1,,,,,,,,,0,10,10,10,0,0,0,1,,,,,,,,,,,,,,,,,,,,,,,,,,,,,,,,,,,,,,,,,,,,,,,,,,,,,,,1431.2048681369997,None,1431.2048681369997,None,1431.2048681369997,None,m,0,1.1734293070003332,1432.7209145199995,None,1432.7209145199995,None,1432.7209145199995,None,1433.9550744839999,None,1433.9550744839999,None,1433.9550744839999,None,1433.9550744839999,None,,,,,,,,,,,,,,,,,,,,,,,,,,,,,,,,,,,,,,,,,,,,001,133,2020_Feb_18_1122,spring_faces,3.1.5,60.00133730963351,
condition files/Stage1_1.xlsx,,T4,B3,m,"['c', 'm']","['Clue', 'Monopoly']","[-0.15, 0.5]","[0.15, 0.5]",1,1,,,,,,,,,0,10,10,10,0,1,1,6,,,,,,,,,,,,,,,,,,,,,,,,,,,,,,,,,,,,,,,,,,,,,,,,,,,,,,,1435.9214033909993,None,1435.9214033909993,None,1435.9214033909993,None,m,1,1.0289611850002984,1437.4573688340006,None,1437.4573688340006,None,1437.4573688340006,None,1438.5545109680006,None,1438.5545109680006,None,1438.5545109680006,None,1438.5545109680006,None,,,,,,,,,,,,,,,,,,,,,,,,,,,,,,,,,,,,,,,,,,,,001,133,2020_Feb_18_1122,spring_faces,3.1.5,60.00133730963351,
condition files/Stage1_1.xlsx,,B4,T4,m,"['c', 'm']","['Clue', 'Monopoly']","[-0.15, 0.5]","[0.15, 0.5]",1,1,,,,,,,,,0,10,10,10,0,2,2,7,,,,,,,,,,,,,,,,,,,,,,,,,,,,,,,,,,,,,,,,,,,,,,,,,,,,,,,1440.5048915240004,None,1440.5048915240004,None,1440.5048915240004,None,c,0,0.9122577930011175,1442.0380711140006,None,1442.0380711140006,None,1442.0380711140006,None,1443.0051061569993,None,1443.0051061569993,None,1443.0051061569993,None,1443.0051061569993,None,,,,,,,,,,,,,,,,,,,,,,,,,,,,,,,,,,,,,,,,,,,,001,133,2020_Feb_18_1122,spring_faces,3.1.5,60.00133730963351,
condition files/Stage1_1.xlsx,,T2,B2,m,"['c', 'm']","['Clue', 'Monopoly']","[-0.15, 0.5]","[0.15, 0.5]",1,1,,,,,,,,,0,10,10,10,0,3,3,3,,,,,,,,,,,,,,,,,,,,,,,,,,,,,,,,,,,,,,,,,,,,,,,,,,,,,,,1444.9712222060007,None,1444.9712222060007,None,1444.9712222060007,None,m,1,1.6770170559993858,1446.505384086,None,1446.505384086,None,1446.505384086,None,1448.2383209069994,None,1448.2383209069994,None,1448.2383209069994,None,1448.2383209069994,None,,,,,,,,,,,,,,,,,,,,,,,,,,,,,,,,,,,,,,,,,,,,001,133,2020_Feb_18_1122,spring_faces,3.1.5,60.00133730963351,
condition files/Stage1_1.xlsx,,T3,B4,c,"['c', 'm']","['Clue', 'Monopoly']","[-0.15, 0.5]","[0.15, 0.5]",1,1,,,,,,,,,0,10,10,10,0,4,4,5,,,,,,,,,,,,,,,,,,,,,,,,,,,,,,,,,,,,,,,,,,,,,,,,,,,,,,,1450.2044318900007,None,1450.2044318900007,None,1450.2044318900007,None,c,1,2.155705245999343,1451.7546055479997,None,1451.7546055479997,None,1451.7546055479997,None,1453.9736931379994,None,1453.9736931379994,None,1453.9736931379994,None,1453.9736931379994,None,,,,,,,,,,,,,,,,,,,,,,,,,,,,,,,,,,,,,,,,,,,,001,133,2020_Feb_18_1122,spring_faces,3.1.5,60.00133730963351,
condition files/Stage1_1.xlsx,,T1,B1,c,"['c', 'm']","['Clue', 'Monopoly']","[-0.15, 0.5]","[0.15, 0.5]",1,1,,,,,,,,,0,10,10,10,0,5,5,0,,,,,,,,,,,,,,,,,,,,,,,,,,,,,,,,,,,,,,,,,,,,,,,,,,,,,,,1455.9380551039994,None,1455.9380551039994,None,1455.9380551039994,None,m,0,0.7895917669993651,1457.4728091960005,None,1457.4728091960005,None,1457.4728091960005,None,1458.3215665280004,None,1458.3215665280004,None,1458.3215665280004,None,1458.3215665280004,None,,,,,,,,,,,,,,,,,,,,,,,,,,,,,,,,,,,,,,,,,,,,001,133,2020_Feb_18_1122,spring_faces,3.1.5,60.00133730963351,
condition files/Stage1_1.xlsx,,B3,T3,c,"['c', 'm']","['Clue', 'Monopoly']","[-0.15, 0.5]","[0.15, 0.5]",1,1,,,,,,,,,0,10,10,10,0,6,6,4,,,,,,,,,,,,,,,,,,,,,,,,,,,,,,,,,,,,,,,,,,,,,,,,,,,,,,,1460.28817935,None,1460.28817935,None,1460.28817935,None,m,0,0.8717693670005247,1461.8385392929995,None,1461.8385392929995,None,1461.8385392929995,None,1462.7713167439997,None,1462.7713167439997,None,1462.7713167439997,None,1462.7713167439997,None,,,,,,,,,,,,,,,,,,,,,,,,,,,,,,,,,,,,,,,,,,,,001,133,2020_Feb_18_1122,spring_faces,3.1.5,60.00133730963351,
condition files/Stage1_1.xlsx,,B2,T1,m,"['c', 'm']","['Clue', 'Monopoly']","[-0.15, 0.5]","[0.15, 0.5]",1,1,,,,,,,,,0,10,10,10,0,7,7,2,,,,,,,,,,,,,,,,,,,,,,,,,,,,,,,,,,,,,,,,,,,,,,,,,,,,,,,1464.7379967849993,None,1464.7379967849993,None,1464.7379967849993,None,m,1,0.8385040450011729,1466.2718263400002,None,1466.2718263400002,None,1466.2718263400002,None,1467.172205582001,None,1467.172205582001,None,1467.172205582001,None,1467.172205582001,None,,,,,,,,,,,,,,,,,,,,,,,,,,,,,,,,,,,,,,,,,,,,001,133,2020_Feb_18_1122,spring_faces,3.1.5,60.00133730963351,
condition files/Stage1_2.xlsx,,B3,T4,m,"['c', 'm']","['Clue', 'Monopoly']","[-0.15, 0.5]","[0.15, 0.5]",1,1,,,,,,,,,0,11,11,11,0,0,0,6,,,,,,,,,,,,,,,,,,,,,,,,,,,,,,,,,,,,,,,,,,,,,,,,,,,,,,,1469.1543661380001,None,1469.1543661380001,None,1469.1543661380001,None,m,1,0.917980518001059,1470.68828484,None,1470.68828484,None,1470.68828484,None,1471.6714707869996,None,1471.6714707869996,None,1471.6714707869996,None,1471.6714707869996,None,,,,,,,,,,,,,,,,,,,,,,,,,,,,,,,,,,,,,,,,,,,,001,133,2020_Feb_18_1122,spring_faces,3.1.5,60.00133730963351,
condition files/Stage1_2.xlsx,,T1,B2,m,"['c', 'm']","['Clue', 'Monopoly']","[-0.15, 0.5]","[0.15, 0.5]",1,1,,,,,,,,,0,11,11,11,0,1,1,2,,,,,,,,,,,,,,,,,,,,,,,,,,,,,,,,,,,,,,,,,,,,,,,,,,,,,,,1473.6379256,None,1473.6379256,None,1473.6379256,None,c,0,1.138114827001118,1475.172219266,None,1475.172219266,None,1475.172219266,None,1476.3714338190002,None,1476.3714338190002,None,1476.3714338190002,None,1476.3714338190002,None,,,,,,,,,,,,,,,,,,,,,,,,,,,,,,,,,,,,,,,,,,,,001,133,2020_Feb_18_1122,spring_faces,3.1.5,60.00133730963351,
condition files/Stage1_2.xlsx,,B2,T2,m,"['c', 'm']","['Clue', 'Monopoly']","[-0.15, 0.5]","[0.15, 0.5]",1,1,,,,,,,,,0,11,11,11,0,2,2,3,,,,,,,,,,,,,,,,,,,,,,,,,,,,,,,,,,,,,,,,,,,,,,,,,,,,,,,1478.3380929970008,None,1478.3380929970008,None,1478.3380929970008,None,m,1,0.21507184399888502,1479.8712504039995,None,1479.8712504039995,None,1479.8712504039995,None,1480.1384660879994,None,1480.1384660879994,None,1480.1384660879994,None,1480.1384660879994,None,,,,,,,,,,,,,,,,,,,,,,,,,,,,,,,,,,,,,,,,,,,,001,133,2020_Feb_18_1122,spring_faces,3.1.5,60.00133730963351,
condition files/Stage1_2.xlsx,,T3,B3,c,"['c', 'm']","['Clue', 'Monopoly']","[-0.15, 0.5]","[0.15, 0.5]",1,1,,,,,,,,,0,11,11,11,0,3,3,4,,,,,,,,,,,,,,,,,,,,,,,,,,,,,,,,,,,,,,,,,,,,,,,,,,,,,,,1482.1049244749993,None,1482.1049244749993,None,1482.1049244749993,None,c,1,1.679441099999167,1483.6388639350007,None,1483.6388639350007,None,1483.6388639350007,None,1485.3879262419996,None,1485.3879262419996,None,1485.3879262419996,None,1485.3879262419996,None,,,,,,,,,,,,,,,,,,,,,,,,,,,,,,,,,,,,,,,,,,,,001,133,2020_Feb_18_1122,spring_faces,3.1.5,60.00133730963351,
condition files/Stage1_2.xlsx,,T2,B1,c,"['c', 'm']","['Clue', 'Monopoly']","[-0.15, 0.5]","[0.15, 0.5]",1,1,,,,,,,,,0,11,11,11,0,4,4,1,,,,,,,,,,,,,,,,,,,,,,,,,,,,,,,,,,,,,,,,,,,,,,,,,,,,,,,1487.3380782940003,None,1487.3380782940003,None,1487.3380782940003,None,c,1,1.343136253000921,1488.8712139790005,None,1488.8712139790005,None,1488.8712139790005,None,1490.2717302389992,None,1490.2717302389992,None,1490.2717302389992,None,1490.2717302389992,None,,,,,,,,,,,,,,,,,,,,,,,,,,,,,,,,,,,,,,,,,,,,001,133,2020_Feb_18_1122,spring_faces,3.1.5,60.00133730963351,
condition files/Stage1_2.xlsx,,B4,T3,c,"['c', 'm']","['Clue', 'Monopoly']","[-0.15, 0.5]","[0.15, 0.5]",1,1,,,,,,,,,0,11,11,11,0,5,5,5,,,,,,,,,,,,,,,,,,,,,,,,,,,,,,,,,,,,,,,,,,,,,,,,,,,,,,,1492.237928124001,None,1492.237928124001,None,1492.237928124001,None,c,1,4.2986218459991505,1493.7876911420008,None,1493.7876911420008,None,1493.7876911420008,None,1498.1378277559998,None,1498.1378277559998,None,1498.1378277559998,None,1498.1378277559998,None,,,,,,,,,,,,,,,,,,,,,,,,,,,,,,,,,,,,,,,,,,,,001,133,2020_Feb_18_1122,spring_faces,3.1.5,60.00133730963351,
condition files/Stage1_2.xlsx,,B1,T1,c,"['c', 'm']","['Clue', 'Monopoly']","[-0.15, 0.5]","[0.15, 0.5]",1,1,,,,,,,,,0,11,11,11,0,6,6,0,,,,,,,,,,,,,,,,,,,,,,,,,,,,,,,,,,,,,,,,,,,,,,,,,,,,,,,1500.104784442001,None,1500.104784442001,None,1500.104784442001,None,m,0,1.6950427920000948,1501.6392917159992,None,1501.6392917159992,None,1501.6392917159992,None,1503.3883143620005,None,1503.3883143620005,None,1503.3883143620005,None,1503.3883143620005,None,,,,,,,,,,,,,,,,,,,,,,,,,,,,,,,,,,,,,,,,,,,,001,133,2020_Feb_18_1122,spring_faces,3.1.5,60.00133730963351,
condition files/Stage1_2.xlsx,,T4,B4,m,"['c', 'm']","['Clue', 'Monopoly']","[-0.15, 0.5]","[0.15, 0.5]",1,1,,,,,,,,,0,11,11,11,0,7,7,7,,,,,,,,,,,,,,,,,,,,,,,,,,,,,,,,,,,,,,,,,,,,,,,,,,,,,,,1505.3547912649992,None,1505.3547912649992,None,1505.3547912649992,None,c,0,1.373563948998708,1506.8888513330003,None,1506.8888513330003,None,1506.8888513330003,None,1508.3378648239996,None,1508.3378648239996,None,1508.3378648239996,None,1508.3378648239996,None,,,,,,,,,,,,,,,,,,,,,,,,,,,,,,,,,,,,,,,,,,,,001,133,2020_Feb_18_1122,spring_faces,3.1.5,60.00133730963351,
,,,,,,,,,,,,,,,,,,,,,,,,,,,,,,,,,,,,,,,,,,,,,,,,,,,,,,,,,,,,,,,,,,,,,,,,,,,,,,,,,,,,,,,,,,,,,,,,,,,,,,,,,,,,,,,,1510.3048840200008,None,space,2.477219544998661,1515.3051246390005,None,,,,,,,,,,,,,,,,,,,,,,,,,,,,,,001,133,2020_Feb_18_1122,spring_faces,3.1.5,60.00133730963351,
condition files/Stage2_1.xlsx,,T1,B1,s,"['s', 'r']","['Stratego', 'Risk']","[-0.15, 0.5]","[0.15, 0.5]",1,1,,,,,,,,,,,,,,,,,0,0,0,0,0,0,0,2,,,,,,,,,,,,,,,,,,,,,,,,,,,,,,,,,,,,,,,,,,,,,,,1517.8379281020007,None,1517.8379281020007,None,1517.8379281020007,None,s,1,0.9401211019994662,1519.3542193989997,None,1519.3542193989997,None,1519.3542193989997,None,1520.356344371001,None,1520.356344371001,None,1520.356344371001,None,1520.356344371001,None,,,,,,,,,,,,,,,1515.3051246390005,None,,,,,,,,,,,,,,,,,,,,,,,,,,,,001,133,2020_Feb_18_1122,spring_faces,3.1.5,60.00133730963351,
condition files/Stage2_1.xlsx,,T3,B3,s,"['s', 'r']","['Stratego', 'Risk']","[-0.15, 0.5]","[0.15, 0.5]",1,1,,,,,,,,,,,,,,,,,0,0,0,0,0,1,1,4,,,,,,,,,,,,,,,,,,,,,,,,,,,,,,,,,,,,,,,,,,,,,,,1522.3210687530009,None,1522.3210687530009,None,1522.3210687530009,None,r,0,0.6316132470001321,1523.8547110090003,None,1523.8547110090003,None,1523.8547110090003,None,1524.5384909509994,None,1524.5384909509994,None,1524.5384909509994,None,1524.5384909509994,None,,,,,,,,,,,,,,,,,,,,,,,,,,,,,,,,,,,,,,,,,,,,001,133,2020_Feb_18_1122,spring_faces,3.1.5,60.00133730963351,
condition files/Stage2_1.xlsx,,T5,B5,s,"['s', 'r']","['Stratego', 'Risk']","[-0.15, 0.5]","[0.15, 0.5]",1,1,,,,,,,,,,,,,,,,,0,0,0,0,0,2,2,0,,,,,,,,,,,,,,,,,,,,,,,,,,,,,,,,,,,,,,,,,,,,,,,1526.5048857429992,None,1526.5048857429992,None,1526.5048857429992,None,r,0,0.5265593950007315,1528.0718353800003,None,1528.0718353800003,None,1528.0718353800003,None,1528.6545932690005,None,1528.6545932690005,None,1528.6545932690005,None,1528.6545932690005,None,,,,,,,,,,,,,,,,,,,,,,,,,,,,,,,,,,,,,,,,,,,,001,133,2020_Feb_18_1122,spring_faces,3.1.5,60.00133730963351,
condition files/Stage2_1.xlsx,,B2,T2,r,"['s', 'r']","['Stratego', 'Risk']","[-0.15, 0.5]","[0.15, 0.5]",1,1,,,,,,,,,,,,,,,,,0,0,0,0,0,3,3,3,,,,,,,,,,,,,,,,,,,,,,,,,,,,,,,,,,,,,,,,,,,,,,,1530.6215266069994,None,1530.6215266069994,None,1530.6215266069994,None,s,0,0.31562471500001266,1532.1547155860007,None,1532.1547155860007,None,1532.1547155860007,None,1532.5380559839996,None,1532.5380559839996,None,1532.5380559839996,None,1532.5380559839996,None,,,,,,,,,,,,,,,,,,,,,,,,,,,,,,,,,,,,,,,,,,,,001,133,2020_Feb_18_1122,spring_faces,3.1.5,60.00133730963351,
condition files/Stage2_1.xlsx,,B4,T4,r,"['s', 'r']","['Stratego', 'Risk']","[-0.15, 0.5]","[0.15, 0.5]",1,1,,,,,,,,,,,,,,,,,0,0,0,0,0,4,4,5,,,,,,,,,,,,,,,,,,,,,,,,,,,,,,,,,,,,,,,,,,,,,,,1534.4881932049993,None,1534.4881932049993,None,1534.4881932049993,None,s,0,0.8332017980010278,1536.0211175910008,None,1536.0211175910008,None,1536.0211175910008,None,1536.904738704001,None,1536.904738704001,None,1536.904738704001,None,1536.904738704001,None,,,,,,,,,,,,,,,,,,,,,,,,,,,,,,,,,,,,,,,,,,,,001,133,2020_Feb_18_1122,spring_faces,3.1.5,60.00133730963351,
condition files/Stage2_1.xlsx,,B6,T6,r,"['s', 'r']","['Stratego', 'Risk']","[-0.15, 0.5]","[0.15, 0.5]",1,1,,,,,,,,,,,,,,,,,0,0,0,0,0,5,5,1,,,,,,,,,,,,,,,,,,,,,,,,,,,,,,,,,,,,,,,,,,,,,,,1538.8713637620003,None,1538.8713637620003,None,1538.8713637620003,None,r,1,0.9278410090009857,1540.4384430379996,None,1540.4384430379996,None,1540.4384430379996,None,1541.4215964750001,None,1541.4215964750001,None,1541.4215964750001,None,1541.4215964750001,None,,,,,,,,,,,,,,,,,,,,,,,,,,,,,,,,,,,,,,,,,,,,001,133,2020_Feb_18_1122,spring_faces,3.1.5,60.00133730963351,
condition files/Stage2_2.xlsx,,B3,T3,s,"['s', 'r']","['Stratego', 'Risk']","[-0.15, 0.5]","[0.15, 0.5]",1,1,,,,,,,,,,,,,,,,,0,1,1,1,0,0,0,4,,,,,,,,,,,,,,,,,,,,,,,,,,,,,,,,,,,,,,,,,,,,,,,1543.4045963000008,None,1543.4045963000008,None,1543.4045963000008,None,r,0,1.467886037999051,1544.9384046449995,None,1544.9384046449995,None,1544.9384046449995,None,1546.4738893350004,None,1546.4738893350004,None,1546.4738893350004,None,1546.4738893350004,None,,,,,,,,,,,,,,,,,,,,,,,,,,,,,,,,,,,,,,,,,,,,001,133,2020_Feb_18_1122,spring_faces,3.1.5,60.00133730963351,
condition files/Stage2_2.xlsx,,T4,B4,r,"['s', 'r']","['Stratego', 'Risk']","[-0.15, 0.5]","[0.15, 0.5]",1,1,,,,,,,,,,,,,,,,,0,1,1,1,0,1,1,5,,,,,,,,,,,,,,,,,,,,,,,,,,,,,,,,,,,,,,,,,,,,,,,1548.4380655370005,None,1548.4380655370005,None,1548.4380655370005,None,s,0,0.5791813779997028,1549.9711805210009,None,1549.9711805210009,None,1549.9711805210009,None,1550.6217223450003,None,1550.6217223450003,None,1550.6217223450003,None,1550.6217223450003,None,,,,,,,,,,,,,,,,,,,,,,,,,,,,,,,,,,,,,,,,,,,,001,133,2020_Feb_18_1122,spring_faces,3.1.5,60.00133730963351,
condition files/Stage2_2.xlsx,,B5,T5,s,"['s', 'r']","['Stratego', 'Risk']","[-0.15, 0.5]","[0.15, 0.5]",1,1,,,,,,,,,,,,,,,,,0,1,1,1,0,2,2,0,,,,,,,,,,,,,,,,,,,,,,,,,,,,,,,,,,,,,,,,,,,,,,,1552.5715280570003,None,1552.5715280570003,None,1552.5715280570003,None,r,0,0.30092252699978417,1554.1053880769996,None,1554.1053880769996,None,1554.1053880769996,None,1554.4735367699996,None,1554.4735367699996,None,1554.4735367699996,None,1554.4735367699996,None,,,,,,,,,,,,,,,,,,,,,,,,,,,,,,,,,,,,,,,,,,,,001,133,2020_Feb_18_1122,spring_faces,3.1.5,60.00133730963351,
condition files/Stage2_2.xlsx,,T6,B6,r,"['s', 'r']","['Stratego', 'Risk']","[-0.15, 0.5]","[0.15, 0.5]",1,1,,,,,,,,,,,,,,,,,0,1,1,1,0,3,3,1,,,,,,,,,,,,,,,,,,,,,,,,,,,,,,,,,,,,,,,,,,,,,,,1556.4380838880006,None,1556.4380838880006,None,1556.4380838880006,None,r,1,0.8670834210006433,1557.9712488839996,None,1557.9712488839996,None,1557.9712488839996,None,1558.9052171330004,None,1558.9052171330004,None,1558.9052171330004,None,1558.9052171330004,None,,,,,,,,,,,,,,,,,,,,,,,,,,,,,,,,,,,,,,,,,,,,001,133,2020_Feb_18_1122,spring_faces,3.1.5,60.00133730963351,
condition files/Stage2_2.xlsx,,T2,B2,r,"['s', 'r']","['Stratego', 'Risk']","[-0.15, 0.5]","[0.15, 0.5]",1,1,,,,,,,,,,,,,,,,,0,1,1,1,0,4,4,3,,,,,,,,,,,,,,,,,,,,,,,,,,,,,,,,,,,,,,,,,,,,,,,1560.8548085229995,None,1560.8548085229995,None,1560.8548085229995,None,s,0,0.9459621390014945,1562.3883816630005,None,1562.3883816630005,None,1562.3883816630005,None,1563.3884643519996,None,1563.3884643519996,None,1563.3884643519996,None,1563.3884643519996,None,,,,,,,,,,,,,,,,,,,,,,,,,,,,,,,,,,,,,,,,,,,,001,133,2020_Feb_18_1122,spring_faces,3.1.5,60.00133730963351,
condition files/Stage2_2.xlsx,,B1,T1,s,"['s', 'r']","['Stratego', 'Risk']","[-0.15, 0.5]","[0.15, 0.5]",1,1,,,,,,,,,,,,,,,,,0,1,1,1,0,5,5,2,,,,,,,,,,,,,,,,,,,,,,,,,,,,,,,,,,,,,,,,,,,,,,,1565.3548523490008,None,1565.3548523490008,None,1565.3548523490008,None,s,1,0.7172032119997311,1566.9050729669998,None,1566.9050729669998,None,1566.9050729669998,None,1567.7052655440002,None,1567.7052655440002,None,1567.7052655440002,None,1567.7052655440002,None,,,,,,,,,,,,,,,,,,,,,,,,,,,,,,,,,,,,,,,,,,,,001,133,2020_Feb_18_1122,spring_faces,3.1.5,60.00133730963351,
condition files/Stage2_1.xlsx,,B4,T4,r,"['s', 'r']","['Stratego', 'Risk']","[-0.15, 0.5]","[0.15, 0.5]",1,1,,,,,,,,,,,,,,,,,0,2,2,2,0,0,0,5,,,,,,,,,,,,,,,,,,,,,,,,,,,,,,,,,,,,,,,,,,,,,,,1569.6716953270006,None,1569.6716953270006,None,1569.6716953270006,None,r,1,0.7377187139991292,1571.2046298299992,None,1571.2046298299992,None,1571.2046298299992,None,1572.021555024001,None,1572.021555024001,None,1572.021555024001,None,1572.021555024001,None,,,,,,,,,,,,,,,,,,,,,,,,,,,,,,,,,,,,,,,,,,,,001,133,2020_Feb_18_1122,spring_faces,3.1.5,60.00133730963351,
condition files/Stage2_1.xlsx,,T5,B5,s,"['s', 'r']","['Stratego', 'Risk']","[-0.15, 0.5]","[0.15, 0.5]",1,1,,,,,,,,,,,,,,,,,0,2,2,2,0,1,1,0,,,,,,,,,,,,,,,,,,,,,,,,,,,,,,,,,,,,,,,,,,,,,,,1573.9713759080005,None,1573.9713759080005,None,1573.9713759080005,None,s,1,0.6933872360004898,1575.505025984001,None,1575.505025984001,None,1575.505025984001,None,1576.2558257830005,None,1576.2558257830005,None,1576.2558257830005,None,1576.2558257830005,None,,,,,,,,,,,,,,,,,,,,,,,,,,,,,,,,,,,,,,,,,,,,001,133,2020_Feb_18_1122,spring_faces,3.1.5,60.00133730963351,
condition files/Stage2_1.xlsx,,B2,T2,r,"['s', 'r']","['Stratego', 'Risk']","[-0.15, 0.5]","[0.15, 0.5]",1,1,,,,,,,,,,,,,,,,,0,2,2,2,0,2,2,3,,,,,,,,,,,,,,,,,,,,,,,,,,,,,,,,,,,,,,,,,,,,,,,1578.22158675,None,1578.22158675,None,1578.22158675,None,r,1,0.618685583000115,1579.7556587180006,None,1579.7556587180006,None,1579.7556587180006,None,1580.4549124580008,None,1580.4549124580008,None,1580.4549124580008,None,1580.4549124580008,None,,,,,,,,,,,,,,,,,,,,,,,,,,,,,,,,,,,,,,,,,,,,001,133,2020_Feb_18_1122,spring_faces,3.1.5,60.00133730963351,
condition files/Stage2_1.xlsx,,T3,B3,s,"['s', 'r']","['Stratego', 'Risk']","[-0.15, 0.5]","[0.15, 0.5]",1,1,,,,,,,,,,,,,,,,,0,2,2,2,0,3,3,4,,,,,,,,,,,,,,,,,,,,,,,,,,,,,,,,,,,,,,,,,,,,,,,1582.4047319679994,None,1582.4047319679994,None,1582.4047319679994,None,s,1,1.2683746069997142,1583.937935162001,None,1583.937935162001,None,1583.937935162001,None,1585.274191777,None,1585.274191777,None,1585.274191777,None,1585.274191777,None,,,,,,,,,,,,,,,,,,,,,,,,,,,,,,,,,,,,,,,,,,,,001,133,2020_Feb_18_1122,spring_faces,3.1.5,60.00133730963351,
condition files/Stage2_1.xlsx,,T1,B1,s,"['s', 'r']","['Stratego', 'Risk']","[-0.15, 0.5]","[0.15, 0.5]",1,1,,,,,,,,,,,,,,,,,0,2,2,2,0,4,4,2,,,,,,,,,,,,,,,,,,,,,,,,,,,,,,,,,,,,,,,,,,,,,,,1587.238299652001,None,1587.238299652001,None,1587.238299652001,None,r,0,0.4825449039999512,1588.787768692,None,1588.787768692,None,1588.787768692,None,1589.3216987150008,None,1589.3216987150008,None,1589.3216987150008,None,1589.3216987150008,None,,,,,,,,,,,,,,,,,,,,,,,,,,,,,,,,,,,,,,,,,,,,001,133,2020_Feb_18_1122,spring_faces,3.1.5,60.00133730963351,
condition files/Stage2_1.xlsx,,B6,T6,r,"['s', 'r']","['Stratego', 'Risk']","[-0.15, 0.5]","[0.15, 0.5]",1,1,,,,,,,,,,,,,,,,,0,2,2,2,0,5,5,1,,,,,,,,,,,,,,,,,,,,,,,,,,,,,,,,,,,,,,,,,,,,,,,1591.2881051660006,None,1591.2881051660006,None,1591.2881051660006,None,r,1,2.113112230999832,1592.8212306709993,None,1592.8212306709993,None,1592.8212306709993,None,1595.0048871170002,None,1595.0048871170002,None,1595.0048871170002,None,1595.0048871170002,None,,,,,,,,,,,,,,,,,,,,,,,,,,,,,,,,,,,,,,,,,,,,001,133,2020_Feb_18_1122,spring_faces,3.1.5,60.00133730963351,
condition files/Stage2_2.xlsx,,B1,T1,s,"['s', 'r']","['Stratego', 'Risk']","[-0.15, 0.5]","[0.15, 0.5]",1,1,,,,,,,,,,,,,,,,,0,3,3,3,0,0,0,2,,,,,,,,,,,,,,,,,,,,,,,,,,,,,,,,,,,,,,,,,,,,,,,1596.9717081500003,None,1596.9717081500003,None,1596.9717081500003,None,s,1,0.6525771010001336,1598.5217563610004,None,1598.5217563610004,None,1598.5217563610004,None,1599.2550170649993,None,1599.2550170649993,None,1599.2550170649993,None,1599.2550170649993,None,,,,,,,,,,,,,,,,,,,,,,,,,,,,,,,,,,,,,,,,,,,,001,133,2020_Feb_18_1122,spring_faces,3.1.5,60.00133730963351,
condition files/Stage2_2.xlsx,,T2,B2,r,"['s', 'r']","['Stratego', 'Risk']","[-0.15, 0.5]","[0.15, 0.5]",1,1,,,,,,,,,,,,,,,,,0,3,3,3,0,1,1,3,,,,,,,,,,,,,,,,,,,,,,,,,,,,,,,,,,,,,,,,,,,,,,,1601.204933168001,None,1601.204933168001,None,1601.204933168001,None,r,1,1.3794347729999572,1602.7390108470008,None,1602.7390108470008,None,1602.7390108470008,None,1604.1881145850002,None,1604.1881145850002,None,1604.1881145850002,None,1604.1881145850002,None,,,,,,,,,,,,,,,,,,,,,,,,,,,,,,,,,,,,,,,,,,,,001,133,2020_Feb_18_1122,spring_faces,3.1.5,60.00133730963351,
condition files/Stage2_2.xlsx,,T6,B6,r,"['s', 'r']","['Stratego', 'Risk']","[-0.15, 0.5]","[0.15, 0.5]",1,1,,,,,,,,,,,,,,,,,0,3,3,3,0,2,2,1,,,,,,,,,,,,,,,,,,,,,,,,,,,,,,,,,,,,,,,,,,,,,,,1606.1381214880003,None,1606.1381214880003,None,1606.1381214880003,None,s,0,0.9412391440000647,1607.673130354,None,1607.673130354,None,1607.673130354,None,1608.6715848080003,None,1608.6715848080003,None,1608.6715848080003,None,1608.6715848080003,None,,,,,,,,,,,,,,,,,,,,,,,,,,,,,,,,,,,,,,,,,,,,001,133,2020_Feb_18_1122,spring_faces,3.1.5,60.00133730963351,
condition files/Stage2_2.xlsx,,B3,T3,s,"['s', 'r']","['Stratego', 'Risk']","[-0.15, 0.5]","[0.15, 0.5]",1,1,,,,,,,,,,,,,,,,,0,3,3,3,0,3,3,4,,,,,,,,,,,,,,,,,,,,,,,,,,,,,,,,,,,,,,,,,,,,,,,1610.6381268860005,None,1610.6381268860005,None,1610.6381268860005,None,r,0,4.232889042999886,1612.1733946530003,None,1612.1733946530003,None,1612.1733946530003,None,1616.472280041,None,1616.472280041,None,1616.472280041,None,1616.472280041,None,,,,,,,,,,,,,,,,,,,,,,,,,,,,,,,,,,,,,,,,,,,,001,133,2020_Feb_18_1122,spring_faces,3.1.5,60.00133730963351,
condition files/Stage2_2.xlsx,,B5,T5,s,"['s', 'r']","['Stratego', 'Risk']","[-0.15, 0.5]","[0.15, 0.5]",1,1,,,,,,,,,,,,,,,,,0,3,3,3,0,4,4,0,,,,,,,,,,,,,,,,,,,,,,,,,,,,,,,,,,,,,,,,,,,,,,,1618.4382619709995,None,1618.4382619709995,None,1618.4382619709995,None,s,1,1.0107589930012182,1619.971587819,None,1619.971587819,None,1619.971587819,None,1621.0383113070002,None,1621.0383113070002,None,1621.0383113070002,None,1621.0383113070002,None,,,,,,,,,,,,,,,,,,,,,,,,,,,,,,,,,,,,,,,,,,,,001,133,2020_Feb_18_1122,spring_faces,3.1.5,60.00133730963351,
condition files/Stage2_2.xlsx,,T4,B4,r,"['s', 'r']","['Stratego', 'Risk']","[-0.15, 0.5]","[0.15, 0.5]",1,1,,,,,,,,,,,,,,,,,0,3,3,3,0,5,5,5,,,,,,,,,,,,,,,,,,,,,,,,,,,,,,,,,,,,,,,,,,,,,,,1623.0042868790006,None,1623.0042868790006,None,1623.0042868790006,None,r,1,2.330810947001737,1624.539524455,None,1624.539524455,None,1624.539524455,None,1626.9386804469996,None,1626.9386804469996,None,1626.9386804469996,None,1626.9386804469996,None,,,,,,,,,,,,,,,,,,,,,,,,,,,,,,,,,,,,,,,,,,,,001,133,2020_Feb_18_1122,spring_faces,3.1.5,60.00133730963351,
condition files/Stage2_1.xlsx,,B4,T4,r,"['s', 'r']","['Stratego', 'Risk']","[-0.15, 0.5]","[0.15, 0.5]",1,1,,,,,,,,,,,,,,,,,0,4,4,4,0,0,0,5,,,,,,,,,,,,,,,,,,,,,,,,,,,,,,,,,,,,,,,,,,,,,,,1628.9044766509996,None,1628.9044766509996,None,1628.9044766509996,None,r,1,0.7831447110002046,1630.4231504580002,None,1630.4231504580002,None,1630.4231504580002,None,1631.2711921530008,None,1631.2711921530008,None,1631.2711921530008,None,1631.2711921530008,None,,,,,,,,,,,,,,,,,,,,,,,,,,,,,,,,,,,,,,,,,,,,001,133,2020_Feb_18_1122,spring_faces,3.1.5,60.00133730963351,
condition files/Stage2_1.xlsx,,B2,T2,r,"['s', 'r']","['Stratego', 'Risk']","[-0.15, 0.5]","[0.15, 0.5]",1,1,,,,,,,,,,,,,,,,,0,4,4,4,0,1,1,3,,,,,,,,,,,,,,,,,,,,,,,,,,,,,,,,,,,,,,,,,,,,,,,1633.238173152,None,1633.238173152,None,1633.238173152,None,r,1,5.907066525000118,1634.7713319199993,None,1634.7713319199993,None,1634.7713319199993,None,1640.7383920360007,None,1640.7383920360007,None,1640.7383920360007,None,1640.7383920360007,None,,,,,,,,,,,,,,,,,,,,,,,,,,,,,,,,,,,,,,,,,,,,001,133,2020_Feb_18_1122,spring_faces,3.1.5,60.00133730963351,
condition files/Stage2_1.xlsx,,B6,T6,r,"['s', 'r']","['Stratego', 'Risk']","[-0.15, 0.5]","[0.15, 0.5]",1,1,,,,,,,,,,,,,,,,,0,4,4,4,0,2,2,1,,,,,,,,,,,,,,,,,,,,,,,,,,,,,,,,,,,,,,,,,,,,,,,1642.7048580560004,None,1642.7048580560004,None,1642.7048580560004,None,s,0,2.8862840570000117,1644.2400556049997,None,1644.2400556049997,None,1644.2400556049997,None,1647.1880002920007,None,1647.1880002920007,None,1647.1880002920007,None,1647.1880002920007,None,,,,,,,,,,,,,,,,,,,,,,,,,,,,,,,,,,,,,,,,,,,,001,133,2020_Feb_18_1122,spring_faces,3.1.5,60.00133730963351,
