condsFile,subStage,cue1,cue2,correct,responseKeys,responseNames,cue1Position,cue2Position,cue1Opacity,cue2Opacity,stageLoop0.thisRepN,stageLoop0.thisTrialN,stageLoop0.thisN,stageLoop0.thisIndex,blockLoop0.thisRepN,blockLoop0.thisTrialN,blockLoop0.thisN,blockLoop0.thisIndex,stage1Loop.thisRepN,stage1Loop.thisTrialN,stage1Loop.thisN,stage1Loop.thisIndex,blockLoop1.thisRepN,blockLoop1.thisTrialN,blockLoop1.thisN,blockLoop1.thisIndex,stage2Loop.thisRepN,stage2Loop.thisTrialN,stage2Loop.thisN,stage2Loop.thisIndex,blockLoop2.thisRepN,blockLoop2.thisTrialN,blockLoop2.thisN,blockLoop2.thisIndex,testLoop.thisRepN,testLoop.thisTrialN,testLoop.thisN,testLoop.thisIndex,blockLoopTest.thisRepN,blockLoopTest.thisTrialN,blockLoopTest.thisN,blockLoopTest.thisIndex,cuePics,id_instr_text.started,id_instr_text.stopped,space_to_continue_2.started,space_to_continue_2.stopped,end_instructions_resp_3.keys,end_instructions_resp_3.rt,end_instructions_resp_3.started,end_instructions_resp_3.stopped,id_input_instr.started,id_input_instr.stopped,id_input_rect.started,id_input_rect.stopped,id_input_resp.keys,id_input_resp.rt,id_input_resp.started,id_input_resp.stopped,sonaID,id_input_text.started,id_input_text.stopped,final_text.started,final_text.stopped,instructions.started,instructions.stopped,end_instructions_resp.keys,end_instructions_resp.rt,end_instructions_resp.started,end_instructions_resp.stopped,space_to_continue.started,space_to_continue.stopped,instructions_stage0.started,instructions_stage0.stopped,end_instructions_resp_stage0.keys,end_instructions_resp_stage0.rt,end_instructions_resp_stage0.started,end_instructions_resp_stage0.stopped,space_to_continue_stage0.started,space_to_continue_stage0.stopped,text.started,text.stopped,resp_text1.started,resp_text1.stopped,resp_text2.started,resp_text2.stopped,trial_resp.keys,trial_resp.corr,trial_resp.rt,trial_resp.started,trial_resp.stopped,cue1Image.started,cue1Image.stopped,cue2Image.started,cue2Image.stopped,cue1Image_fb.started,cue1Image_fb.stopped,cue2Image_fb.started,cue2Image_fb.stopped,fb_text_answer.started,fb_text_answer.stopped,feedback_image.started,feedback_image.stopped,instructions_stage1.started,instructions_stage1.stopped,end_instructions_resp_stage1.keys,end_instructions_resp_stage1.rt,end_instructions_resp_stage1.started,end_instructions_resp_stage1.stopped,space_to_continue_stage1.started,space_to_continue_stage1.stopped,instructions_2.started,instructions_2.stopped,end_instructions_resp_2.keys,end_instructions_resp_2.rt,end_instructions_resp_2.started,end_instructions_resp_2.stopped,press_space_to_continue_stage2.started,press_space_to_continue_stage2.stopped,instructions_testStage1.started,instructions_testStage1.stopped,end_instructions_resp_test1.keys,end_instructions_resp_test1.rt,end_instructions_resp_test1.started,end_instructions_resp_test1.stopped,press_space_to_continue_test1.started,press_space_to_continue_test1.stopped,cue1Image_testChoice.started,cue1Image_testChoice.stopped,cue2Image_testChoice.started,cue2Image_testChoice.stopped,test_resp.keys,test_resp.corr,test_resp.rt,test_resp.started,test_resp.stopped,cue1Image_testConf.started,cue1Image_testConf.stopped,cue2Image_testConf.started,cue2Image_testConf.stopped,conf_reminder.started,conf_reminder.stopped,conf_rating.response,conf_rating.rt,conf_rating.started,conf_rating.stopped,session,participant,date,expName,psychopyVersion,frameRate,
,,,,,,,,,,,,,,,,,,,,,,,,,,,,,,,,,,,,,,,,,,,"{'none': 'pictures/20M_AN_C.png', 'alpha': 'pictures/SHINEd_pepper.png', 'beta': 'pictures/SHINEd_pear.png', 'theta': 'pictures/SHINEd_apple.png', 'phi': 'pictures/SHINEd_melon.png', 'T1': 'pictures/32M_AN_C.png', 'T2': 'pictures/38M_AN_C.png', 'T3': 'pictures/22M_AN_C.png', 'T4': 'pictures/23M_AN_C.png', 'T5': 'pictures/34M_AN_C.png', 'T6': 'pictures/20M_AN_C.png', 'B1': 'pictures/25M_NE_C.png', 'B2': 'pictures/36M_NE_C.png', 'B3': 'pictures/26M_NE_C.png', 'B4': 'pictures/31M_NE_C.png', 'B5': 'pictures/37M_NE_C.png', 'B6': 'pictures/33M_NE_C.png'}",24.87372830899949,None,29.857021044999783,None,space,2175.7177513959996,29.857021044999783,None,,,,,,,,,,,,,,,,,,,,,,,,,,,,,,,,,,,,,,,,,,,,,,,,,,,,,,,,,,,,,,,,,,,,,,,,,,,,,,,,,,,,,,,,,,,,,,,,001,134,2020_Feb_18_1122,spring_faces,3.1.5,60.00999154340818,
,,,,,,,,,,,,,,,,,,,,,,,,,,,,,,,,,,,,,,,,,,,,,,,,,,,,2206.0234947499994,None,2206.0234947499994,None,"['1', '0', '0', '1', 'c', 'h', 'c', 'a', 's']","[7.615335528998912, 8.159332360999542, 12.095293079999465, 12.431339318000028, 16.127408971999103, 16.41533571599939, 20.303351922999354, 20.463336582999545, 20.735287841998797]",2206.0234947499994,None,,,,,,,,,,,,,,,,,,,,,,,,,,,,,,,,,,,,,,,,,,,,,,,,,,,,,,,,,,,,,,,,,,,,,,,,,,,,,,,,,,,,,,,,001,134,2020_Feb_18_1122,spring_faces,3.1.5,60.00999154340818,
,,,,,,,,,,,,,,,,,,,,,,,,,,,,,,,,,,,,,,,,,,,,,,,,,,,,,,,,,,,,1001chcas,2206.0234947499994,None,2206.0234947499994,None,2231.8404114700006,None,space,1.3744103199987876,2236.840510975,None,,,,,,,,,,,,,,,,,,,,,,,,,,,,,,,,,,,,,,,,,,,,,,,,,,,,,,,,,,,,,,,,,,,,,,,,,,,,,001,134,2020_Feb_18_1122,spring_faces,3.1.5,60.00999154340818,
,,,,,,,,,,,,,,,,,,,,,,,,,,,,,,,,,,,,,,,,,,,,,,,,,,,,,,,,,,,,,,,,,,,,,,,2236.840510975,None,2238.2573967850003,None,space,3.341606612999385,2243.2573179299998,None,,,,,,,,,,,,,,,,,,,,,,,,,,,,,,,,,,,,,,,,,,,,,,,,,,,,,,,,,,,,,,,,,,,,,001,134,2020_Feb_18_1122,spring_faces,3.1.5,60.00999154340818,
condition files/Stage0a.xlsx,0a,alpha,none,h,"['h', 'g']","['Chess', 'Go']","[0, 0.5]","[0, 0]",1,0,0,0,0,0,0,0,0,0,,,,,,,,,,,,,,,,,,,,,,,,,,,,,,,,,,,,,,,,,,,,,,,,,,,,,,,,,,,,,2243.2573179299998,None,2246.6573976969994,None,2246.6573976969994,None,2246.6573976969994,None,h,1,2.815605150999545,2248.3273003510003,None,2248.3273003510003,None,2248.3273003510003,None,2251.2239090189996,None,2251.2239090189996,None,2251.2239090189996,None,2251.2239090189996,None,,,,,,,,,,,,,,,,,,,,,,,,,,,,,,,,,,,,,,,,,,,,001,134,2020_Feb_18_1122,spring_faces,3.1.5,60.00999154340818,
condition files/Stage0a.xlsx,0a,beta,none,g,"['h', 'g']","['Chess', 'Go']","[0, 0.5]","[0, 0]",1,0,0,0,0,0,0,1,1,1,,,,,,,,,,,,,,,,,,,,,,,,,,,,,,,,,,,,,,,,,,,,,,,,,,,,,,,,,,,,,,,2253.1737554339998,None,2253.1737554339998,None,2253.1737554339998,None,g,1,2.850071561000732,2254.724740992,None,2254.724740992,None,2254.724740992,None,2257.6400586639993,None,2257.6400586639993,None,2257.6400586639993,None,2257.6400586639993,None,,,,,,,,,,,,,,,,,,,,,,,,,,,,,,,,,,,,,,,,,,,,001,134,2020_Feb_18_1122,spring_faces,3.1.5,60.00999154340818,
condition files/Stage0a.xlsx,0a,alpha,none,h,"['h', 'g']","['Chess', 'Go']","[0, 0.5]","[0, 0]",1,0,0,1,1,1,0,0,0,0,,,,,,,,,,,,,,,,,,,,,,,,,,,,,,,,,,,,,,,,,,,,,,,,,,,,,,,,,,,,,,,2259.6239237419995,None,2259.6239237419995,None,2259.6239237419995,None,h,1,1.2657887799996388,2261.1570724619996,None,2261.1570724619996,None,2261.1570724619996,None,2262.474129583001,None,2262.474129583001,None,2262.474129583001,None,2262.474129583001,None,,,,,,,,,,,,,,,,,,,,,,,,,,,,,,,,,,,,,,,,,,,,001,134,2020_Feb_18_1122,spring_faces,3.1.5,60.00999154340818,
condition files/Stage0a.xlsx,0a,beta,none,g,"['h', 'g']","['Chess', 'Go']","[0, 0.5]","[0, 0]",1,0,0,1,1,1,0,1,1,1,,,,,,,,,,,,,,,,,,,,,,,,,,,,,,,,,,,,,,,,,,,,,,,,,,,,,,,,,,,,,,,2264.44050934,None,2264.44050934,None,2264.44050934,None,g,1,0.9769968429991422,2265.973919201,None,2265.973919201,None,2265.973919201,None,2267.0074404040006,None,2267.0074404040006,None,2267.0074404040006,None,2267.0074404040006,None,,,,,,,,,,,,,,,,,,,,,,,,,,,,,,,,,,,,,,,,,,,,001,134,2020_Feb_18_1122,spring_faces,3.1.5,60.00999154340818,
condition files/Stage0a.xlsx,0a,beta,none,g,"['h', 'g']","['Chess', 'Go']","[0, 0.5]","[0, 0]",1,0,0,2,2,2,0,0,0,1,,,,,,,,,,,,,,,,,,,,,,,,,,,,,,,,,,,,,,,,,,,,,,,,,,,,,,,,,,,,,,,2268.990467009,None,2268.990467009,None,2268.990467009,None,g,1,5.21134641900062,2270.523507013,None,2270.523507013,None,2270.523507013,None,2275.7904363380003,None,2275.7904363380003,None,2275.7904363380003,None,2275.7904363380003,None,,,,,,,,,,,,,,,,,,,,,,,,,,,,,,,,,,,,,,,,,,,,001,134,2020_Feb_18_1122,spring_faces,3.1.5,60.00999154340818,
condition files/Stage0a.xlsx,0a,alpha,none,h,"['h', 'g']","['Chess', 'Go']","[0, 0.5]","[0, 0]",1,0,0,2,2,2,0,1,1,0,,,,,,,,,,,,,,,,,,,,,,,,,,,,,,,,,,,,,,,,,,,,,,,,,,,,,,,,,,,,,,,2277.756454759001,None,2277.756454759001,None,2277.756454759001,None,h,1,0.8924720889990567,2279.290430516001,None,2279.290430516001,None,2279.290430516001,None,2280.2407259169995,None,2280.2407259169995,None,2280.2407259169995,None,2280.2407259169995,None,,,,,,,,,,,,,,,,,,,,,,,,,,,,,,,,,,,,,,,,,,,,001,134,2020_Feb_18_1122,spring_faces,3.1.5,60.00999154340818,
condition files/Stage0a.xlsx,0a,beta,none,g,"['h', 'g']","['Chess', 'Go']","[0, 0.5]","[0, 0]",1,0,0,3,3,3,0,0,0,1,,,,,,,,,,,,,,,,,,,,,,,,,,,,,,,,,,,,,,,,,,,,,,,,,,,,,,,,,,,,,,,2282.2239716170006,None,2282.2239716170006,None,2282.2239716170006,None,g,1,0.8424154310014274,2283.740478332,None,2283.740478332,None,2283.740478332,None,2284.640806364001,None,2284.640806364001,None,2284.640806364001,None,2284.640806364001,None,,,,,,,,,,,,,,,,,,,,,,,,,,,,,,,,,,,,,,,,,,,,001,134,2020_Feb_18_1122,spring_faces,3.1.5,60.00999154340818,
condition files/Stage0a.xlsx,0a,alpha,none,h,"['h', 'g']","['Chess', 'Go']","[0, 0.5]","[0, 0]",1,0,0,3,3,3,0,1,1,0,,,,,,,,,,,,,,,,,,,,,,,,,,,,,,,,,,,,,,,,,,,,,,,,,,,,,,,,,,,,,,,2286.6068680549997,None,2286.6068680549997,None,2286.6068680549997,None,h,1,1.3702636590005568,2288.1405722090003,None,2288.1405722090003,None,2288.1405722090003,None,2289.5737582250003,None,2289.5737582250003,None,2289.5737582250003,None,2289.5737582250003,None,,,,,,,,,,,,,,,,,,,,,,,,,,,,,,,,,,,,,,,,,,,,001,134,2020_Feb_18_1122,spring_faces,3.1.5,60.00999154340818,
condition files/Stage0a.xlsx,0a,beta,none,g,"['h', 'g']","['Chess', 'Go']","[0, 0.5]","[0, 0]",1,0,0,4,4,4,0,0,0,1,,,,,,,,,,,,,,,,,,,,,,,,,,,,,,,,,,,,,,,,,,,,,,,,,,,,,,,,,,,,,,,2291.5570914500004,None,2291.5570914500004,None,2291.5570914500004,None,g,1,0.611924151000494,2293.0908973709993,None,2293.0908973709993,None,2293.0908973709993,None,2293.757007743001,None,2293.757007743001,None,2293.757007743001,None,2293.757007743001,None,,,,,,,,,,,,,,,,,,,,,,,,,,,,,,,,,,,,,,,,,,,,001,134,2020_Feb_18_1122,spring_faces,3.1.5,60.00999154340818,
condition files/Stage0a.xlsx,0a,alpha,none,h,"['h', 'g']","['Chess', 'Go']","[0, 0.5]","[0, 0]",1,0,0,4,4,4,0,1,1,0,,,,,,,,,,,,,,,,,,,,,,,,,,,,,,,,,,,,,,,,,,,,,,,,,,,,,,,,,,,,,,,2295.723249926001,None,2295.723249926001,None,2295.723249926001,None,h,1,0.90890274999947,2297.257924349,None,2297.257924349,None,2297.257924349,None,2298.223418013,None,2298.223418013,None,2298.223418013,None,2298.223418013,None,,,,,,,,,,,,,,,,,,,,,,,,,,,,,,,,,,,,,,,,,,,,001,134,2020_Feb_18_1122,spring_faces,3.1.5,60.00999154340818,
condition files/Stage0a.xlsx,0a,alpha,none,h,"['h', 'g']","['Chess', 'Go']","[0, 0.5]","[0, 0]",1,0,0,5,5,5,0,0,0,0,,,,,,,,,,,,,,,,,,,,,,,,,,,,,,,,,,,,,,,,,,,,,,,,,,,,,,,,,,,,,,,2300.207169464,None,2300.207169464,None,2300.207169464,None,h,1,0.77817019000031,2301.7406241900007,None,2301.7406241900007,None,2301.7406241900007,None,2302.573386002001,None,2302.573386002001,None,2302.573386002001,None,2302.573386002001,None,,,,,,,,,,,,,,,,,,,,,,,,,,,,,,,,,,,,,,,,,,,,001,134,2020_Feb_18_1122,spring_faces,3.1.5,60.00999154340818,
condition files/Stage0a.xlsx,0a,beta,none,g,"['h', 'g']","['Chess', 'Go']","[0, 0.5]","[0, 0]",1,0,0,5,5,5,0,1,1,1,,,,,,,,,,,,,,,,,,,,,,,,,,,,,,,,,,,,,,,,,,,,,,,,,,,,,,,,,,,,,,,2304.5404094759997,None,2304.5404094759997,None,2304.5404094759997,None,g,1,0.6367193339992809,2306.0741302200004,None,2306.0741302200004,None,2306.0741302200004,None,2306.7737754480004,None,2306.7737754480004,None,2306.7737754480004,None,2306.7737754480004,None,,,,,,,,,,,,,,,,,,,,,,,,,,,,,,,,,,,,,,,,,,,,001,134,2020_Feb_18_1122,spring_faces,3.1.5,60.00999154340818,
condition files/Stage0b_1.xlsx,0b,alpha,none,h,"['h', 'g']","['Chess', 'Go']","[-0.15, 0.5]","[0.15, 0.5]",1,0,0,6,6,6,0,0,0,0,,,,,,,,,,,,,,,,,,,,,,,,,,,,,,,,,,,,,,,,,,,,,,,,,,,,,,,,,,,,,,,2308.7573563370006,None,2308.7573563370006,None,2308.7573563370006,None,h,1,1.2849800330004655,2310.2898577060005,None,2310.2898577060005,None,2310.2898577060005,None,2311.6410166759997,None,2311.6410166759997,None,2311.6410166759997,None,2311.6410166759997,None,,,,,,,,,,,,,,,,,,,,,,,,,,,,,,,,,,,,,,,,,,,,001,134,2020_Feb_18_1122,spring_faces,3.1.5,60.00999154340818,
condition files/Stage0b_1.xlsx,0b,none,beta,g,"['h', 'g']","['Chess', 'Go']","[-0.15, 0.5]","[0.15, 0.5]",0,1,0,6,6,6,0,1,1,1,,,,,,,,,,,,,,,,,,,,,,,,,,,,,,,,,,,,,,,,,,,,,,,,,,,,,,,,,,,,,,,2313.607134469001,None,2313.607134469001,None,2313.607134469001,None,g,1,0.769592085000113,2315.157239915001,None,2315.157239915001,None,2315.157239915001,None,2315.9934479019994,None,2315.9934479019994,None,2315.9934479019994,None,2315.9934479019994,None,,,,,,,,,,,,,,,,,,,,,,,,,,,,,,,,,,,,,,,,,,,,001,134,2020_Feb_18_1122,spring_faces,3.1.5,60.00999154340818,
condition files/Stage0b_2.xlsx,0b,none,alpha,h,"['h', 'g']","['Chess', 'Go']","[-0.15, 0.5]","[0.15, 0.5]",0,1,0,7,7,7,0,0,0,0,,,,,,,,,,,,,,,,,,,,,,,,,,,,,,,,,,,,,,,,,,,,,,,,,,,,,,,,,,,,,,,2317.973960956,None,2317.973960956,None,2317.973960956,None,h,1,0.867018286999155,2319.507791016,None,2319.507791016,None,2319.507791016,None,2320.442099074,None,2320.442099074,None,2320.442099074,None,2320.442099074,None,,,,,,,,,,,,,,,,,,,,,,,,,,,,,,,,,,,,,,,,,,,,001,134,2020_Feb_18_1122,spring_faces,3.1.5,60.00999154340818,
condition files/Stage0b_2.xlsx,0b,beta,none,g,"['h', 'g']","['Chess', 'Go']","[-0.15, 0.5]","[0.15, 0.5]",1,0,0,7,7,7,0,1,1,1,,,,,,,,,,,,,,,,,,,,,,,,,,,,,,,,,,,,,,,,,,,,,,,,,,,,,,,,,,,,,,,2322.4069396779996,None,2322.4069396779996,None,2322.4069396779996,None,g,1,0.7859641710001597,2323.9568810210003,None,2323.9568810210003,None,2323.9568810210003,None,2324.8098589759993,None,2324.8098589759993,None,2324.8098589759993,None,2324.8098589759993,None,,,,,,,,,,,,,,,,,,,,,,,,,,,,,,,,,,,,,,,,,,,,001,134,2020_Feb_18_1122,spring_faces,3.1.5,60.00999154340818,
condition files/Stage0b_1.xlsx,0b,alpha,none,h,"['h', 'g']","['Chess', 'Go']","[-0.15, 0.5]","[0.15, 0.5]",1,0,0,8,8,8,0,0,0,0,,,,,,,,,,,,,,,,,,,,,,,,,,,,,,,,,,,,,,,,,,,,,,,,,,,,,,,,,,,,,,,2326.7902324900006,None,2326.7902324900006,None,2326.7902324900006,None,h,1,0.7551657690000866,2328.3236855190007,None,2328.3236855190007,None,2328.3236855190007,None,2329.1401099880004,None,2329.1401099880004,None,2329.1401099880004,None,2329.1401099880004,None,,,,,,,,,,,,,,,,,,,,,,,,,,,,,,,,,,,,,,,,,,,,001,134,2020_Feb_18_1122,spring_faces,3.1.5,60.00999154340818,
condition files/Stage0b_1.xlsx,0b,none,beta,g,"['h', 'g']","['Chess', 'Go']","[-0.15, 0.5]","[0.15, 0.5]",0,1,0,8,8,8,0,1,1,1,,,,,,,,,,,,,,,,,,,,,,,,,,,,,,,,,,,,,,,,,,,,,,,,,,,,,,,,,,,,,,,2331.107201899,None,2331.107201899,None,2331.107201899,None,g,1,0.8695153480002773,2332.657346274,None,2332.657346274,None,2332.657346274,None,2333.592471625001,None,2333.592471625001,None,2333.592471625001,None,2333.592471625001,None,,,,,,,,,,,,,,,,,,,,,,,,,,,,,,,,,,,,,,,,,,,,001,134,2020_Feb_18_1122,spring_faces,3.1.5,60.00999154340818,
condition files/Stage0b_2.xlsx,0b,none,alpha,h,"['h', 'g']","['Chess', 'Go']","[-0.15, 0.5]","[0.15, 0.5]",0,1,0,9,9,9,0,0,0,0,,,,,,,,,,,,,,,,,,,,,,,,,,,,,,,,,,,,,,,,,,,,,,,,,,,,,,,,,,,,,,,2335.5738462360005,None,2335.5738462360005,None,2335.5738462360005,None,h,1,0.723837026000183,2337.0910614160002,None,2337.0910614160002,None,2337.0910614160002,None,2337.8736094369997,None,2337.8736094369997,None,2337.8736094369997,None,2337.8736094369997,None,,,,,,,,,,,,,,,,,,,,,,,,,,,,,,,,,,,,,,,,,,,,001,134,2020_Feb_18_1122,spring_faces,3.1.5,60.00999154340818,
condition files/Stage0b_2.xlsx,0b,beta,none,g,"['h', 'g']","['Chess', 'Go']","[-0.15, 0.5]","[0.15, 0.5]",1,0,0,9,9,9,0,1,1,1,,,,,,,,,,,,,,,,,,,,,,,,,,,,,,,,,,,,,,,,,,,,,,,,,,,,,,,,,,,,,,,2339.839572551,None,2339.839572551,None,2339.839572551,None,g,1,0.6000006630001735,2341.390803702001,None,2341.390803702001,None,2341.390803702001,None,2342.0607353220003,None,2342.0607353220003,None,2342.0607353220003,None,2342.0607353220003,None,,,,,,,,,,,,,,,,,,,,,,,,,,,,,,,,,,,,,,,,,,,,001,134,2020_Feb_18_1122,spring_faces,3.1.5,60.00999154340818,
condition files/Stage0b_1.xlsx,0b,alpha,none,h,"['h', 'g']","['Chess', 'Go']","[-0.15, 0.5]","[0.15, 0.5]",1,0,0,10,10,10,0,0,0,0,,,,,,,,,,,,,,,,,,,,,,,,,,,,,,,,,,,,,,,,,,,,,,,,,,,,,,,,,,,,,,,2344.040262374001,None,2344.040262374001,None,2344.040262374001,None,h,1,0.7052555150003172,2345.5736039269996,None,2345.5736039269996,None,2345.5736039269996,None,2346.3404180199996,None,2346.3404180199996,None,2346.3404180199996,None,2346.3404180199996,None,,,,,,,,,,,,,,,,,,,,,,,,,,,,,,,,,,,,,,,,,,,,001,134,2020_Feb_18_1122,spring_faces,3.1.5,60.00999154340818,
condition files/Stage0b_1.xlsx,0b,none,beta,g,"['h', 'g']","['Chess', 'Go']","[-0.15, 0.5]","[0.15, 0.5]",0,1,0,10,10,10,0,1,1,1,,,,,,,,,,,,,,,,,,,,,,,,,,,,,,,,,,,,,,,,,,,,,,,,,,,,,,,,,,,,,,,2348.3073813680003,None,2348.3073813680003,None,2348.3073813680003,None,g,1,1.0422714699998323,2349.8444800489997,None,2349.8444800489997,None,2349.8444800489997,None,2350.9435248459995,None,2350.9435248459995,None,2350.9435248459995,None,2350.9435248459995,None,,,,,,,,,,,,,,,,,,,,,,,,,,,,,,,,,,,,,,,,,,,,001,134,2020_Feb_18_1122,spring_faces,3.1.5,60.00999154340818,
condition files/Stage0b_2.xlsx,0b,none,alpha,h,"['h', 'g']","['Chess', 'Go']","[-0.15, 0.5]","[0.15, 0.5]",0,1,0,11,11,11,0,0,0,0,,,,,,,,,,,,,,,,,,,,,,,,,,,,,,,,,,,,,,,,,,,,,,,,,,,,,,,,,,,,,,,2352.923783086,None,2352.923783086,None,2352.923783086,None,h,1,0.8941762790000212,2354.4567378230004,None,2354.4567378230004,None,2354.4567378230004,None,2355.4063489729997,None,2355.4063489729997,None,2355.4063489729997,None,2355.4063489729997,None,,,,,,,,,,,,,,,,,,,,,,,,,,,,,,,,,,,,,,,,,,,,001,134,2020_Feb_18_1122,spring_faces,3.1.5,60.00999154340818,
condition files/Stage0b_2.xlsx,0b,beta,none,g,"['h', 'g']","['Chess', 'Go']","[-0.15, 0.5]","[0.15, 0.5]",1,0,0,11,11,11,0,1,1,1,,,,,,,,,,,,,,,,,,,,,,,,,,,,,,,,,,,,,,,,,,,,,,,,,,,,,,,,,,,,,,,2357.373723081,None,2357.373723081,None,2357.373723081,None,g,1,0.5837880840008438,2358.9110657389992,None,2358.9110657389992,None,2358.9110657389992,None,2359.562568167001,None,2359.562568167001,None,2359.562568167001,None,2359.562568167001,None,,,,,,,,,,,,,,,,,,,,,,,,,,,,,,,,,,,,,,,,,,,,001,134,2020_Feb_18_1122,spring_faces,3.1.5,60.00999154340818,
condition files/Stage0c_1.xlsx,0c,theta,alpha,h,"['h', 'g']","['Chess', 'Go']","[-0.15, 0.5]","[0.15, 0.5]",1,1,0,12,12,12,0,0,0,0,,,,,,,,,,,,,,,,,,,,,,,,,,,,,,,,,,,,,,,,,,,,,,,,,,,,,,,,,,,,,,,2361.5406681679997,None,2361.5406681679997,None,2361.5406681679997,None,h,1,4.4368696519995865,2363.073981484,None,2363.073981484,None,2363.073981484,None,2367.5736390389993,None,2367.5736390389993,None,2367.5736390389993,None,2367.5736390389993,None,,,,,,,,,,,,,,,,,,,,,,,,,,,,,,,,,,,,,,,,,,,,001,134,2020_Feb_18_1122,spring_faces,3.1.5,60.00999154340818,
condition files/Stage0c_1.xlsx,0c,phi,beta,g,"['h', 'g']","['Chess', 'Go']","[-0.15, 0.5]","[0.15, 0.5]",1,1,0,12,12,12,0,1,1,3,,,,,,,,,,,,,,,,,,,,,,,,,,,,,,,,,,,,,,,,,,,,,,,,,,,,,,,,,,,,,,,2369.540418955001,None,2369.540418955001,None,2369.540418955001,None,g,1,2.1485429460008163,2371.0743013280007,None,2371.0743013280007,None,2371.0743013280007,None,2373.27357589,None,2373.27357589,None,2373.27357589,None,2373.27357589,None,,,,,,,,,,,,,,,,,,,,,,,,,,,,,,,,,,,,,,,,,,,,001,134,2020_Feb_18_1122,spring_faces,3.1.5,60.00999154340818,
condition files/Stage0c_1.xlsx,0c,alpha,phi,h,"['h', 'g']","['Chess', 'Go']","[-0.15, 0.5]","[0.15, 0.5]",1,1,0,12,12,12,0,2,2,1,,,,,,,,,,,,,,,,,,,,,,,,,,,,,,,,,,,,,,,,,,,,,,,,,,,,,,,,,,,,,,,2375.2406372759997,None,2375.2406372759997,None,2375.2406372759997,None,h,1,3.648567603000629,2376.77426715,None,2376.77426715,None,2376.77426715,None,2380.476094859001,None,2380.476094859001,None,2380.476094859001,None,2380.476094859001,None,,,,,,,,,,,,,,,,,,,,,,,,,,,,,,,,,,,,,,,,,,,,001,134,2020_Feb_18_1122,spring_faces,3.1.5,60.00999154340818,
condition files/Stage0c_1.xlsx,0c,beta,theta,g,"['h', 'g']","['Chess', 'Go']","[-0.15, 0.5]","[0.15, 0.5]",1,1,0,12,12,12,0,3,3,2,,,,,,,,,,,,,,,,,,,,,,,,,,,,,,,,,,,,,,,,,,,,,,,,,,,,,,,,,,,,,,,2382.44013868,None,2382.44013868,None,2382.44013868,None,g,1,1.6494431129995064,2383.9733863599995,None,2383.9733863599995,None,2383.9733863599995,None,2385.6740095940004,None,2385.6740095940004,None,2385.6740095940004,None,2385.6740095940004,None,,,,,,,,,,,,,,,,,,,,,,,,,,,,,,,,,,,,,,,,,,,,001,134,2020_Feb_18_1122,spring_faces,3.1.5,60.00999154340818,
condition files/Stage0c_2.xlsx,0c,beta,phi,g,"['h', 'g']","['Chess', 'Go']","[-0.15, 0.5]","[0.15, 0.5]",1,1,0,13,13,13,0,0,0,3,,,,,,,,,,,,,,,,,,,,,,,,,,,,,,,,,,,,,,,,,,,,,,,,,,,,,,,,,,,,,,,2387.6573314670004,None,2387.6573314670004,None,2387.6573314670004,None,g,1,2.9919975079992582,2389.190911119,None,2389.190911119,None,2389.190911119,None,2392.2256457860003,None,2392.2256457860003,None,2392.2256457860003,None,2392.2256457860003,None,,,,,,,,,,,,,,,,,,,,,,,,,,,,,,,,,,,,,,,,,,,,001,134,2020_Feb_18_1122,spring_faces,3.1.5,60.00999154340818,
condition files/Stage0c_2.xlsx,0c,alpha,theta,h,"['h', 'g']","['Chess', 'Go']","[-0.15, 0.5]","[0.15, 0.5]",1,1,0,13,13,13,0,1,1,0,,,,,,,,,,,,,,,,,,,,,,,,,,,,,,,,,,,,,,,,,,,,,,,,,,,,,,,,,,,,,,,2394.2069986080005,None,2394.2069986080005,None,2394.2069986080005,None,h,1,1.2900890380005876,2395.740799389001,None,2395.740799389001,None,2395.740799389001,None,2397.090334372,None,2397.090334372,None,2397.090334372,None,2397.090334372,None,,,,,,,,,,,,,,,,,,,,,,,,,,,,,,,,,,,,,,,,,,,,001,134,2020_Feb_18_1122,spring_faces,3.1.5,60.00999154340818,
condition files/Stage0c_2.xlsx,0c,theta,beta,g,"['h', 'g']","['Chess', 'Go']","[-0.15, 0.5]","[0.15, 0.5]",1,1,0,13,13,13,0,2,2,2,,,,,,,,,,,,,,,,,,,,,,,,,,,,,,,,,,,,,,,,,,,,,,,,,,,,,,,,,,,,,,,2399.057149081,None,2399.057149081,None,2399.057149081,None,g,1,1.0482431199998246,2400.590593668001,None,2400.590593668001,None,2400.590593668001,None,2401.690840151001,None,2401.690840151001,None,2401.690840151001,None,2401.690840151001,None,,,,,,,,,,,,,,,,,,,,,,,,,,,,,,,,,,,,,,,,,,,,001,134,2020_Feb_18_1122,spring_faces,3.1.5,60.00999154340818,
condition files/Stage0c_2.xlsx,0c,phi,alpha,h,"['h', 'g']","['Chess', 'Go']","[-0.15, 0.5]","[0.15, 0.5]",1,1,0,13,13,13,0,3,3,1,,,,,,,,,,,,,,,,,,,,,,,,,,,,,,,,,,,,,,,,,,,,,,,,,,,,,,,,,,,,,,,2403.673993677001,None,2403.673993677001,None,2403.673993677001,None,h,1,1.1841593019998982,2405.1906488669993,None,2405.1906488669993,None,2405.1906488669993,None,2406.4408325000004,None,2406.4408325000004,None,2406.4408325000004,None,2406.4408325000004,None,,,,,,,,,,,,,,,,,,,,,,,,,,,,,,,,,,,,,,,,,,,,001,134,2020_Feb_18_1122,spring_faces,3.1.5,60.00999154340818,
condition files/Stage0c_1.xlsx,0c,theta,alpha,h,"['h', 'g']","['Chess', 'Go']","[-0.15, 0.5]","[0.15, 0.5]",1,1,0,14,14,14,0,0,0,0,,,,,,,,,,,,,,,,,,,,,,,,,,,,,,,,,,,,,,,,,,,,,,,,,,,,,,,,,,,,,,,2408.4233423839996,None,2408.4233423839996,None,2408.4233423839996,None,h,1,0.8655218750009226,2409.9573235860007,None,2409.9573235860007,None,2409.9573235860007,None,2410.8589025969995,None,2410.8589025969995,None,2410.8589025969995,None,2410.8589025969995,None,,,,,,,,,,,,,,,,,,,,,,,,,,,,,,,,,,,,,,,,,,,,001,134,2020_Feb_18_1122,spring_faces,3.1.5,60.00999154340818,
condition files/Stage0c_1.xlsx,0c,alpha,phi,h,"['h', 'g']","['Chess', 'Go']","[-0.15, 0.5]","[0.15, 0.5]",1,1,0,14,14,14,0,1,1,1,,,,,,,,,,,,,,,,,,,,,,,,,,,,,,,,,,,,,,,,,,,,,,,,,,,,,,,,,,,,,,,2412.8404317820005,None,2412.8404317820005,None,2412.8404317820005,None,h,1,1.3128659399990283,2414.3739790180007,None,2414.3739790180007,None,2414.3739790180007,None,2415.7403879060003,None,2415.7403879060003,None,2415.7403879060003,None,2415.7403879060003,None,,,,,,,,,,,,,,,,,,,,,,,,,,,,,,,,,,,,,,,,,,,,001,134,2020_Feb_18_1122,spring_faces,3.1.5,60.00999154340818,
condition files/Stage0c_1.xlsx,0c,beta,theta,g,"['h', 'g']","['Chess', 'Go']","[-0.15, 0.5]","[0.15, 0.5]",1,1,0,14,14,14,0,2,2,2,,,,,,,,,,,,,,,,,,,,,,,,,,,,,,,,,,,,,,,,,,,,,,,,,,,,,,,,,,,,,,,2417.706749991001,None,2417.706749991001,None,2417.706749991001,None,g,1,0.9904726519998803,2419.2403784180005,None,2419.2403784180005,None,2419.2403784180005,None,2420.2901418050005,None,2420.2901418050005,None,2420.2901418050005,None,2420.2901418050005,None,,,,,,,,,,,,,,,,,,,,,,,,,,,,,,,,,,,,,,,,,,,,001,134,2020_Feb_18_1122,spring_faces,3.1.5,60.00999154340818,
condition files/Stage0c_1.xlsx,0c,phi,beta,g,"['h', 'g']","['Chess', 'Go']","[-0.15, 0.5]","[0.15, 0.5]",1,1,0,14,14,14,0,3,3,3,,,,,,,,,,,,,,,,,,,,,,,,,,,,,,,,,,,,,,,,,,,,,,,,,,,,,,,,,,,,,,,2422.2570711789995,None,2422.2570711789995,None,2422.2570711789995,None,g,1,1.1287817409993295,2423.7900396879995,None,2423.7900396879995,None,2423.7900396879995,None,2424.9585776349995,None,2424.9585776349995,None,2424.9585776349995,None,2424.9585776349995,None,,,,,,,,,,,,,,,,,,,,,,,,,,,,,,,,,,,,,,,,,,,,001,134,2020_Feb_18_1122,spring_faces,3.1.5,60.00999154340818,
condition files/Stage0c_2.xlsx,0c,beta,phi,g,"['h', 'g']","['Chess', 'Go']","[-0.15, 0.5]","[0.15, 0.5]",1,1,0,15,15,15,0,0,0,3,,,,,,,,,,,,,,,,,,,,,,,,,,,,,,,,,,,,,,,,,,,,,,,,,,,,,,,,,,,,,,,2426.957137249001,None,2426.957137249001,None,2426.957137249001,None,g,1,0.9240229690003616,2428.490881457001,None,2428.490881457001,None,2428.490881457001,None,2429.4592259399997,None,2429.4592259399997,None,2429.4592259399997,None,2429.4592259399997,None,,,,,,,,,,,,,,,,,,,,,,,,,,,,,,,,,,,,,,,,,,,,001,134,2020_Feb_18_1122,spring_faces,3.1.5,60.00999154340818,
condition files/Stage0c_2.xlsx,0c,theta,beta,g,"['h', 'g']","['Chess', 'Go']","[-0.15, 0.5]","[0.15, 0.5]",1,1,0,15,15,15,0,1,1,2,,,,,,,,,,,,,,,,,,,,,,,,,,,,,,,,,,,,,,,,,,,,,,,,,,,,,,,,,,,,,,,2431.440330413001,None,2431.440330413001,None,2431.440330413001,None,g,1,1.2086164119991736,2432.9742842800006,None,2432.9742842800006,None,2432.9742842800006,None,2434.225300315,None,2434.225300315,None,2434.225300315,None,2434.225300315,None,,,,,,,,,,,,,,,,,,,,,,,,,,,,,,,,,,,,,,,,,,,,001,134,2020_Feb_18_1122,spring_faces,3.1.5,60.00999154340818,
condition files/Stage0c_2.xlsx,0c,phi,alpha,h,"['h', 'g']","['Chess', 'Go']","[-0.15, 0.5]","[0.15, 0.5]",1,1,0,15,15,15,0,2,2,1,,,,,,,,,,,,,,,,,,,,,,,,,,,,,,,,,,,,,,,,,,,,,,,,,,,,,,,,,,,,,,,2436.207158305,None,2436.207158305,None,2436.207158305,None,h,1,0.8102696160003688,2437.7406254430007,None,2437.7406254430007,None,2437.7406254430007,None,2438.6073192780004,None,2438.6073192780004,None,2438.6073192780004,None,2438.6073192780004,None,,,,,,,,,,,,,,,,,,,,,,,,,,,,,,,,,,,,,,,,,,,,001,134,2020_Feb_18_1122,spring_faces,3.1.5,60.00999154340818,
condition files/Stage0c_2.xlsx,0c,alpha,theta,h,"['h', 'g']","['Chess', 'Go']","[-0.15, 0.5]","[0.15, 0.5]",1,1,0,15,15,15,0,3,3,0,,,,,,,,,,,,,,,,,,,,,,,,,,,,,,,,,,,,,,,,,,,,,,,,,,,,,,,,,,,,,,,2440.573791613,None,2440.573791613,None,2440.573791613,None,h,1,0.8282907250013523,2442.1065747859993,None,2442.1065747859993,None,2442.1065747859993,None,2442.9905577030004,None,2442.9905577030004,None,2442.9905577030004,None,2442.9905577030004,None,,,,,,,,,,,,,,,,,,,,,,,,,,,,,,,,,,,,,,,,,,,,001,134,2020_Feb_18_1122,spring_faces,3.1.5,60.00999154340818,
condition files/Stage0c_1.xlsx,0c,beta,theta,g,"['h', 'g']","['Chess', 'Go']","[-0.15, 0.5]","[0.15, 0.5]",1,1,0,16,16,16,0,0,0,2,,,,,,,,,,,,,,,,,,,,,,,,,,,,,,,,,,,,,,,,,,,,,,,,,,,,,,,,,,,,,,,2444.9742221020006,None,2444.9742221020006,None,2444.9742221020006,None,g,1,1.2274748519994318,2446.5073883860005,None,2446.5073883860005,None,2446.5073883860005,None,2447.790974922,None,2447.790974922,None,2447.790974922,None,2447.790974922,None,,,,,,,,,,,,,,,,,,,,,,,,,,,,,,,,,,,,,,,,,,,,001,134,2020_Feb_18_1122,spring_faces,3.1.5,60.00999154340818,
condition files/Stage0c_1.xlsx,0c,alpha,phi,h,"['h', 'g']","['Chess', 'Go']","[-0.15, 0.5]","[0.15, 0.5]",1,1,0,16,16,16,0,1,1,1,,,,,,,,,,,,,,,,,,,,,,,,,,,,,,,,,,,,,,,,,,,,,,,,,,,,,,,,,,,,,,,2449.757075470001,None,2449.757075470001,None,2449.757075470001,None,h,1,0.8443785660001595,2451.2904580270006,None,2451.2904580270006,None,2451.2904580270006,None,2452.1903639949996,None,2452.1903639949996,None,2452.1903639949996,None,2452.1903639949996,None,,,,,,,,,,,,,,,,,,,,,,,,,,,,,,,,,,,,,,,,,,,,001,134,2020_Feb_18_1122,spring_faces,3.1.5,60.00999154340818,
condition files/Stage0c_1.xlsx,0c,phi,beta,g,"['h', 'g']","['Chess', 'Go']","[-0.15, 0.5]","[0.15, 0.5]",1,1,0,16,16,16,0,2,2,3,,,,,,,,,,,,,,,,,,,,,,,,,,,,,,,,,,,,,,,,,,,,,,,,,,,,,,,,,,,,,,,2454.1566332849998,None,2454.1566332849998,None,2454.1566332849998,None,g,1,2.7481836269998894,2455.690660739001,None,2455.690660739001,None,2455.690660739001,None,2458.4906376910003,None,2458.4906376910003,None,2458.4906376910003,None,2458.4906376910003,None,,,,,,,,,,,,,,,,,,,,,,,,,,,,,,,,,,,,,,,,,,,,001,134,2020_Feb_18_1122,spring_faces,3.1.5,60.00999154340818,
condition files/Stage0c_1.xlsx,0c,theta,alpha,h,"['h', 'g']","['Chess', 'Go']","[-0.15, 0.5]","[0.15, 0.5]",1,1,0,16,16,16,0,3,3,0,,,,,,,,,,,,,,,,,,,,,,,,,,,,,,,,,,,,,,,,,,,,,,,,,,,,,,,,,,,,,,,2460.4571428929994,None,2460.4571428929994,None,2460.4571428929994,None,h,1,1.1367569609992643,2461.9900843859996,None,2461.9900843859996,None,2461.9900843859996,None,2463.1907713069995,None,2463.1907713069995,None,2463.1907713069995,None,2463.1907713069995,None,,,,,,,,,,,,,,,,,,,,,,,,,,,,,,,,,,,,,,,,,,,,001,134,2020_Feb_18_1122,spring_faces,3.1.5,60.00999154340818,
condition files/Stage0c_2.xlsx,0c,beta,phi,g,"['h', 'g']","['Chess', 'Go']","[-0.15, 0.5]","[0.15, 0.5]",1,1,0,17,17,17,0,0,0,3,,,,,,,,,,,,,,,,,,,,,,,,,,,,,,,,,,,,,,,,,,,,,,,,,,,,,,,,,,,,,,,2465.17391797,None,2465.17391797,None,2465.17391797,None,g,1,1.0115656919988396,2466.7072673250004,None,2466.7072673250004,None,2466.7072673250004,None,2467.773318392001,None,2467.773318392001,None,2467.773318392001,None,2467.773318392001,None,,,,,,,,,,,,,,,,,,,,,,,,,,,,,,,,,,,,,,,,,,,,001,134,2020_Feb_18_1122,spring_faces,3.1.5,60.00999154340818,
condition files/Stage0c_2.xlsx,0c,theta,beta,g,"['h', 'g']","['Chess', 'Go']","[-0.15, 0.5]","[0.15, 0.5]",1,1,0,17,17,17,0,1,1,2,,,,,,,,,,,,,,,,,,,,,,,,,,,,,,,,,,,,,,,,,,,,,,,,,,,,,,,,,,,,,,,2469.740539495,None,2469.740539495,None,2469.740539495,None,g,1,0.7968948400011868,2471.2740456720003,None,2471.2740456720003,None,2471.2740456720003,None,2472.108566744,None,2472.108566744,None,2472.108566744,None,2472.108566744,None,,,,,,,,,,,,,,,,,,,,,,,,,,,,,,,,,,,,,,,,,,,,001,134,2020_Feb_18_1122,spring_faces,3.1.5,60.00999154340818,
condition files/Stage0c_2.xlsx,0c,phi,alpha,h,"['h', 'g']","['Chess', 'Go']","[-0.15, 0.5]","[0.15, 0.5]",1,1,0,17,17,17,0,2,2,1,,,,,,,,,,,,,,,,,,,,,,,,,,,,,,,,,,,,,,,,,,,,,,,,,,,,,,,,,,,,,,,2474.0905993939996,None,2474.0905993939996,None,2474.0905993939996,None,h,1,1.2631480159998318,2475.6236600930006,None,2475.6236600930006,None,2475.6236600930006,None,2476.9404955600003,None,2476.9404955600003,None,2476.9404955600003,None,2476.9404955600003,None,,,,,,,,,,,,,,,,,,,,,,,,,,,,,,,,,,,,,,,,,,,,001,134,2020_Feb_18_1122,spring_faces,3.1.5,60.00999154340818,
condition files/Stage0c_2.xlsx,0c,alpha,theta,h,"['h', 'g']","['Chess', 'Go']","[-0.15, 0.5]","[0.15, 0.5]",1,1,0,17,17,17,0,3,3,0,,,,,,,,,,,,,,,,,,,,,,,,,,,,,,,,,,,,,,,,,,,,,,,,,,,,,,,,,,,,,,,2478.9065917049993,None,2478.9065917049993,None,2478.9065917049993,None,h,1,0.7978177240001969,2480.441019115,None,2480.441019115,None,2480.441019115,None,2481.275355365,None,2481.275355365,None,2481.275355365,None,2481.275355365,None,,,,,,,,,,,,,,,,,,,,,,,,,,,,,,,,,,,,,,,,,,,,001,134,2020_Feb_18_1122,spring_faces,3.1.5,60.00999154340818,
,,,,,,,,,,,,,,,,,,,,,,,,,,,,,,,,,,,,,,,,,,,,,,,,,,,,,,,,,,,,,,,,,,,,,,,,,,,,,,,,,,,,,,,,,,,,,,,,,,,,,,,,2483.274225784,None,space,1.0449281410001277,2488.273911268001,None,,,,,,,,,,,,,,,,,,,,,,,,,,,,,,,,,,,,,,001,134,2020_Feb_18_1122,spring_faces,3.1.5,60.00999154340818,
condition files/Stage1_1.xlsx,,T3,B4,c,"['c', 'm']","['Clue', 'Monopoly']","[-0.15, 0.5]","[0.15, 0.5]",1,1,,,,,,,,,0,0,0,0,0,0,0,5,,,,,,,,,,,,,,,,,,,,,,,,,,,,,,,,,,,,,,,,,,,,,,,,,,,,,,,2489.3732664599993,None,2489.3732664599993,None,2489.3732664599993,None,c,1,2.667465426999115,2490.9073348839993,None,2490.9073348839993,None,2490.9073348839993,None,2493.6569209009995,None,2493.6569209009995,None,2493.6569209009995,None,2493.6569209009995,None,,,,,,,2488.273911268001,None,,,,,,,,,,,,,,,,,,,,,,,,,,,,,,,,,,,,001,134,2020_Feb_18_1122,spring_faces,3.1.5,60.00999154340818,
condition files/Stage1_1.xlsx,,T1,B1,c,"['c', 'm']","['Clue', 'Monopoly']","[-0.15, 0.5]","[0.15, 0.5]",1,1,,,,,,,,,0,0,0,0,0,1,1,0,,,,,,,,,,,,,,,,,,,,,,,,,,,,,,,,,,,,,,,,,,,,,,,,,,,,,,,2495.606728070001,None,2495.606728070001,None,2495.606728070001,None,m,0,1.473566609000045,2497.1573400609996,None,2497.1573400609996,None,2497.1573400609996,None,2498.6904069360007,None,2498.6904069360007,None,2498.6904069360007,None,2498.6904069360007,None,,,,,,,,,,,,,,,,,,,,,,,,,,,,,,,,,,,,,,,,,,,,001,134,2020_Feb_18_1122,spring_faces,3.1.5,60.00999154340818,
condition files/Stage1_1.xlsx,,T4,B3,m,"['c', 'm']","['Clue', 'Monopoly']","[-0.15, 0.5]","[0.15, 0.5]",1,1,,,,,,,,,0,0,0,0,0,2,2,6,,,,,,,,,,,,,,,,,,,,,,,,,,,,,,,,,,,,,,,,,,,,,,,,,,,,,,,2500.6567456039993,None,2500.6567456039993,None,2500.6567456039993,None,m,1,1.7513378379990172,2502.207505241,None,2502.207505241,None,2502.207505241,None,2504.0244747390007,None,2504.0244747390007,None,2504.0244747390007,None,2504.0244747390007,None,,,,,,,,,,,,,,,,,,,,,,,,,,,,,,,,,,,,,,,,,,,,001,134,2020_Feb_18_1122,spring_faces,3.1.5,60.00999154340818,
condition files/Stage1_1.xlsx,,T2,B2,m,"['c', 'm']","['Clue', 'Monopoly']","[-0.15, 0.5]","[0.15, 0.5]",1,1,,,,,,,,,0,0,0,0,0,3,3,3,,,,,,,,,,,,,,,,,,,,,,,,,,,,,,,,,,,,,,,,,,,,,,,,,,,,,,,2505.9897964819993,None,2505.9897964819993,None,2505.9897964819993,None,m,1,1.490209538000272,2507.540703433,None,2507.540703433,None,2507.540703433,None,2509.0906351600006,None,2509.0906351600006,None,2509.0906351600006,None,2509.0906351600006,None,,,,,,,,,,,,,,,,,,,,,,,,,,,,,,,,,,,,,,,,,,,,001,134,2020_Feb_18_1122,spring_faces,3.1.5,60.00999154340818,
condition files/Stage1_1.xlsx,,B3,T3,c,"['c', 'm']","['Clue', 'Monopoly']","[-0.15, 0.5]","[0.15, 0.5]",1,1,,,,,,,,,0,0,0,0,0,4,4,4,,,,,,,,,,,,,,,,,,,,,,,,,,,,,,,,,,,,,,,,,,,,,,,,,,,,,,,2511.056625923,None,2511.056625923,None,2511.056625923,None,c,1,1.335109610001382,2512.591740318001,None,2512.591740318001,None,2512.591740318001,None,2513.992027677001,None,2513.992027677001,None,2513.992027677001,None,2513.992027677001,None,,,,,,,,,,,,,,,,,,,,,,,,,,,,,,,,,,,,,,,,,,,,001,134,2020_Feb_18_1122,spring_faces,3.1.5,60.00999154340818,
condition files/Stage1_1.xlsx,,B4,T4,m,"['c', 'm']","['Clue', 'Monopoly']","[-0.15, 0.5]","[0.15, 0.5]",1,1,,,,,,,,,0,0,0,0,0,5,5,7,,,,,,,,,,,,,,,,,,,,,,,,,,,,,,,,,,,,,,,,,,,,,,,,,,,,,,,2515.9570547860003,None,2515.9570547860003,None,2515.9570547860003,None,c,0,1.4751028489990858,2517.491691878,None,2517.491691878,None,2517.491691878,None,2519.0407503080005,None,2519.0407503080005,None,2519.0407503080005,None,2519.0407503080005,None,,,,,,,,,,,,,,,,,,,,,,,,,,,,,,,,,,,,,,,,,,,,001,134,2020_Feb_18_1122,spring_faces,3.1.5,60.00999154340818,
condition files/Stage1_1.xlsx,,B2,T1,m,"['c', 'm']","['Clue', 'Monopoly']","[-0.15, 0.5]","[0.15, 0.5]",1,1,,,,,,,,,0,0,0,0,0,6,6,2,,,,,,,,,,,,,,,,,,,,,,,,,,,,,,,,,,,,,,,,,,,,,,,,,,,,,,,2520.9901689079998,None,2520.9901689079998,None,2520.9901689079998,None,m,1,2.441060805000234,2522.525728355,None,2522.525728355,None,2522.525728355,None,2525.023995513,None,2525.023995513,None,2525.023995513,None,2525.023995513,None,,,,,,,,,,,,,,,,,,,,,,,,,,,,,,,,,,,,,,,,,,,,001,134,2020_Feb_18_1122,spring_faces,3.1.5,60.00999154340818,
condition files/Stage1_1.xlsx,,B1,T2,c,"['c', 'm']","['Clue', 'Monopoly']","[-0.15, 0.5]","[0.15, 0.5]",1,1,,,,,,,,,0,0,0,0,0,7,7,1,,,,,,,,,,,,,,,,,,,,,,,,,,,,,,,,,,,,,,,,,,,,,,,,,,,,,,,2526.9898676819994,None,2526.9898676819994,None,2526.9898676819994,None,m,0,1.5780965800004196,2528.524710486001,None,2528.524710486001,None,2528.524710486001,None,2530.157076261001,None,2530.157076261001,None,2530.157076261001,None,2530.157076261001,None,,,,,,,,,,,,,,,,,,,,,,,,,,,,,,,,,,,,,,,,,,,,001,134,2020_Feb_18_1122,spring_faces,3.1.5,60.00999154340818,
condition files/Stage1_2.xlsx,,B3,T4,m,"['c', 'm']","['Clue', 'Monopoly']","[-0.15, 0.5]","[0.15, 0.5]",1,1,,,,,,,,,0,1,1,1,0,0,0,6,,,,,,,,,,,,,,,,,,,,,,,,,,,,,,,,,,,,,,,,,,,,,,,,,,,,,,,2532.1408159309995,None,2532.1408159309995,None,2532.1408159309995,None,c,0,1.9953443450012855,2533.6755058830004,None,2533.6755058830004,None,2533.6755058830004,None,2535.740437409,None,2535.740437409,None,2535.740437409,None,2535.740437409,None,,,,,,,,,,,,,,,,,,,,,,,,,,,,,,,,,,,,,,,,,,,,001,134,2020_Feb_18_1122,spring_faces,3.1.5,60.00999154340818,
condition files/Stage1_2.xlsx,,T2,B1,c,"['c', 'm']","['Clue', 'Monopoly']","[-0.15, 0.5]","[0.15, 0.5]",1,1,,,,,,,,,0,1,1,1,0,1,1,1,,,,,,,,,,,,,,,,,,,,,,,,,,,,,,,,,,,,,,,,,,,,,,,,,,,,,,,2537.689602245,None,2537.689602245,None,2537.689602245,None,c,1,3.7099742279988277,2539.224942680001,None,2539.224942680001,None,2539.224942680001,None,2542.993243137,None,2542.993243137,None,2542.993243137,None,2542.993243137,None,,,,,,,,,,,,,,,,,,,,,,,,,,,,,,,,,,,,,,,,,,,,001,134,2020_Feb_18_1122,spring_faces,3.1.5,60.00999154340818,
condition files/Stage1_2.xlsx,,B4,T3,c,"['c', 'm']","['Clue', 'Monopoly']","[-0.15, 0.5]","[0.15, 0.5]",1,1,,,,,,,,,0,1,1,1,0,2,2,5,,,,,,,,,,,,,,,,,,,,,,,,,,,,,,,,,,,,,,,,,,,,,,,,,,,,,,,2544.9572185689995,None,2544.9572185689995,None,2544.9572185689995,None,c,1,3.4351684379998915,2546.4916868229993,None,2546.4916868229993,None,2546.4916868229993,None,2549.990449228,None,2549.990449228,None,2549.990449228,None,2549.990449228,None,,,,,,,,,,,,,,,,,,,,,,,,,,,,,,,,,,,,,,,,,,,,001,134,2020_Feb_18_1122,spring_faces,3.1.5,60.00999154340818,
condition files/Stage1_2.xlsx,,T4,B4,m,"['c', 'm']","['Clue', 'Monopoly']","[-0.15, 0.5]","[0.15, 0.5]",1,1,,,,,,,,,0,1,1,1,0,3,3,7,,,,,,,,,,,,,,,,,,,,,,,,,,,,,,,,,,,,,,,,,,,,,,,,,,,,,,,2551.956878133,None,2551.956878133,None,2551.956878133,None,c,0,2.5147020509994036,2553.4921495590006,None,2553.4921495590006,None,2553.4921495590006,None,2556.073987021,None,2556.073987021,None,2556.073987021,None,2556.073987021,None,,,,,,,,,,,,,,,,,,,,,,,,,,,,,,,,,,,,,,,,,,,,001,134,2020_Feb_18_1122,spring_faces,3.1.5,60.00999154340818,
condition files/Stage1_2.xlsx,,T1,B2,m,"['c', 'm']","['Clue', 'Monopoly']","[-0.15, 0.5]","[0.15, 0.5]",1,1,,,,,,,,,0,1,1,1,0,4,4,2,,,,,,,,,,,,,,,,,,,,,,,,,,,,,,,,,,,,,,,,,,,,,,,,,,,,,,,2558.0232603429995,None,2558.0232603429995,None,2558.0232603429995,None,m,1,2.239321895000103,2559.5596074860005,None,2559.5596074860005,None,2559.5596074860005,None,2561.8572838229993,None,2561.8572838229993,None,2561.8572838229993,None,2561.8572838229993,None,,,,,,,,,,,,,,,,,,,,,,,,,,,,,,,,,,,,,,,,,,,,001,134,2020_Feb_18_1122,spring_faces,3.1.5,60.00999154340818,
condition files/Stage1_2.xlsx,,T3,B3,c,"['c', 'm']","['Clue', 'Monopoly']","[-0.15, 0.5]","[0.15, 0.5]",1,1,,,,,,,,,0,1,1,1,0,5,5,4,,,,,,,,,,,,,,,,,,,,,,,,,,,,,,,,,,,,,,,,,,,,,,,,,,,,,,,2563.823772816,None,2563.823772816,None,2563.823772816,None,c,1,1.7367417559999012,2565.3741024699993,None,2565.3741024699993,None,2565.3741024699993,None,2567.1735998250006,None,2567.1735998250006,None,2567.1735998250006,None,2567.1735998250006,None,,,,,,,,,,,,,,,,,,,,,,,,,,,,,,,,,,,,,,,,,,,,001,134,2020_Feb_18_1122,spring_faces,3.1.5,60.00999154340818,
condition files/Stage1_2.xlsx,,B2,T2,m,"['c', 'm']","['Clue', 'Monopoly']","[-0.15, 0.5]","[0.15, 0.5]",1,1,,,,,,,,,0,1,1,1,0,6,6,3,,,,,,,,,,,,,,,,,,,,,,,,,,,,,,,,,,,,,,,,,,,,,,,,,,,,,,,2569.140582962,None,2569.140582962,None,2569.140582962,None,m,1,2.8675315029995545,2570.675327113,None,2570.675327113,None,2570.675327113,None,2573.609592103001,None,2573.609592103001,None,2573.609592103001,None,2573.609592103001,None,,,,,,,,,,,,,,,,,,,,,,,,,,,,,,,,,,,,,,,,,,,,001,134,2020_Feb_18_1122,spring_faces,3.1.5,60.00999154340818,
condition files/Stage1_2.xlsx,,B1,T1,c,"['c', 'm']","['Clue', 'Monopoly']","[-0.15, 0.5]","[0.15, 0.5]",1,1,,,,,,,,,0,1,1,1,0,7,7,0,,,,,,,,,,,,,,,,,,,,,,,,,,,,,,,,,,,,,,,,,,,,,,,,,,,,,,,2575.5736918759994,None,2575.5736918759994,None,2575.5736918759994,None,c,1,3.075994417000402,2577.1069268640003,None,2577.1069268640003,None,2577.1069268640003,None,2580.2403130879993,None,2580.2403130879993,None,2580.2403130879993,None,2580.2403130879993,None,,,,,,,,,,,,,,,,,,,,,,,,,,,,,,,,,,,,,,,,,,,,001,134,2020_Feb_18_1122,spring_faces,3.1.5,60.00999154340818,
condition files/Stage1_1.xlsx,,T1,B1,c,"['c', 'm']","['Clue', 'Monopoly']","[-0.15, 0.5]","[0.15, 0.5]",1,1,,,,,,,,,0,2,2,2,0,0,0,0,,,,,,,,,,,,,,,,,,,,,,,,,,,,,,,,,,,,,,,,,,,,,,,,,,,,,,,2582.223844417,None,2582.223844417,None,2582.223844417,None,m,0,3.6247062569982518,2583.774204988,None,2583.774204988,None,2583.774204988,None,2587.457240830001,None,2587.457240830001,None,2587.457240830001,None,2587.457240830001,None,,,,,,,,,,,,,,,,,,,,,,,,,,,,,,,,,,,,,,,,,,,,001,134,2020_Feb_18_1122,spring_faces,3.1.5,60.00999154340818,
condition files/Stage1_1.xlsx,,B2,T1,m,"['c', 'm']","['Clue', 'Monopoly']","[-0.15, 0.5]","[0.15, 0.5]",1,1,,,,,,,,,0,2,2,2,0,1,1,2,,,,,,,,,,,,,,,,,,,,,,,,,,,,,,,,,,,,,,,,,,,,,,,,,,,,,,,2589.4237449699995,None,2589.4237449699995,None,2589.4237449699995,None,m,1,1.3374256279985275,2590.9574422799997,None,2590.9574422799997,None,2590.9574422799997,None,2592.3743709539995,None,2592.3743709539995,None,2592.3743709539995,None,2592.3743709539995,None,,,,,,,,,,,,,,,,,,,,,,,,,,,,,,,,,,,,,,,,,,,,001,134,2020_Feb_18_1122,spring_faces,3.1.5,60.00999154340818,
condition files/Stage1_1.xlsx,,B4,T4,m,"['c', 'm']","['Clue', 'Monopoly']","[-0.15, 0.5]","[0.15, 0.5]",1,1,,,,,,,,,0,2,2,2,0,2,2,7,,,,,,,,,,,,,,,,,,,,,,,,,,,,,,,,,,,,,,,,,,,,,,,,,,,,,,,2594.323701775,None,2594.323701775,None,2594.323701775,None,c,0,3.1098272489998635,2595.85696811,None,2595.85696811,None,2595.85696811,None,2599.023933517001,None,2599.023933517001,None,2599.023933517001,None,2599.023933517001,None,,,,,,,,,,,,,,,,,,,,,,,,,,,,,,,,,,,,,,,,,,,,001,134,2020_Feb_18_1122,spring_faces,3.1.5,60.00999154340818,
condition files/Stage1_1.xlsx,,T2,B2,m,"['c', 'm']","['Clue', 'Monopoly']","[-0.15, 0.5]","[0.15, 0.5]",1,1,,,,,,,,,0,2,2,2,0,3,3,3,,,,,,,,,,,,,,,,,,,,,,,,,,,,,,,,,,,,,,,,,,,,,,,,,,,,,,,2600.9906029970007,None,2600.9906029970007,None,2600.9906029970007,None,m,1,2.3626959760003956,2602.5241524779995,None,2602.5241524779995,None,2602.5241524779995,None,2604.940749929001,None,2604.940749929001,None,2604.940749929001,None,2604.940749929001,None,,,,,,,,,,,,,,,,,,,,,,,,,,,,,,,,,,,,,,,,,,,,001,134,2020_Feb_18_1122,spring_faces,3.1.5,60.00999154340818,
condition files/Stage1_1.xlsx,,B3,T3,c,"['c', 'm']","['Clue', 'Monopoly']","[-0.15, 0.5]","[0.15, 0.5]",1,1,,,,,,,,,0,2,2,2,0,4,4,4,,,,,,,,,,,,,,,,,,,,,,,,,,,,,,,,,,,,,,,,,,,,,,,,,,,,,,,2606.9071876710004,None,2606.9071876710004,None,2606.9071876710004,None,c,1,1.2450547569987975,2608.4577978319994,None,2608.4577978319994,None,2608.4577978319994,None,2609.7599022209997,None,2609.7599022209997,None,2609.7599022209997,None,2609.7599022209997,None,,,,,,,,,,,,,,,,,,,,,,,,,,,,,,,,,,,,,,,,,,,,001,134,2020_Feb_18_1122,spring_faces,3.1.5,60.00999154340818,
condition files/Stage1_1.xlsx,,B1,T2,c,"['c', 'm']","['Clue', 'Monopoly']","[-0.15, 0.5]","[0.15, 0.5]",1,1,,,,,,,,,0,2,2,2,0,5,5,1,,,,,,,,,,,,,,,,,,,,,,,,,,,,,,,,,,,,,,,,,,,,,,,,,,,,,,,2611.723893081,None,2611.723893081,None,2611.723893081,None,c,1,2.7808696680003777,2613.257965705001,None,2613.257965705001,None,2613.257965705001,None,2616.090242524,None,2616.090242524,None,2616.090242524,None,2616.090242524,None,,,,,,,,,,,,,,,,,,,,,,,,,,,,,,,,,,,,,,,,,,,,001,134,2020_Feb_18_1122,spring_faces,3.1.5,60.00999154340818,
condition files/Stage1_1.xlsx,,T4,B3,m,"['c', 'm']","['Clue', 'Monopoly']","[-0.15, 0.5]","[0.15, 0.5]",1,1,,,,,,,,,0,2,2,2,0,6,6,6,,,,,,,,,,,,,,,,,,,,,,,,,,,,,,,,,,,,,,,,,,,,,,,,,,,,,,,2618.05726023,None,2618.05726023,None,2618.05726023,None,c,0,3.5034749490005197,2619.5913893649995,None,2619.5913893649995,None,2619.5913893649995,None,2623.157932123,None,2623.157932123,None,2623.157932123,None,2623.157932123,None,,,,,,,,,,,,,,,,,,,,,,,,,,,,,,,,,,,,,,,,,,,,001,134,2020_Feb_18_1122,spring_faces,3.1.5,60.00999154340818,
condition files/Stage1_1.xlsx,,T3,B4,c,"['c', 'm']","['Clue', 'Monopoly']","[-0.15, 0.5]","[0.15, 0.5]",1,1,,,,,,,,,0,2,2,2,0,7,7,5,,,,,,,,,,,,,,,,,,,,,,,,,,,,,,,,,,,,,,,,,,,,,,,,,,,,,,,2625.1237292719998,None,2625.1237292719998,None,2625.1237292719998,None,c,1,2.180856209999547,2626.6580108920007,None,2626.6580108920007,None,2626.6580108920007,None,2628.8929536220003,None,2628.8929536220003,None,2628.8929536220003,None,2628.8929536220003,None,,,,,,,,,,,,,,,,,,,,,,,,,,,,,,,,,,,,,,,,,,,,001,134,2020_Feb_18_1122,spring_faces,3.1.5,60.00999154340818,
condition files/Stage1_2.xlsx,,B1,T1,c,"['c', 'm']","['Clue', 'Monopoly']","[-0.15, 0.5]","[0.15, 0.5]",1,1,,,,,,,,,0,3,3,3,0,0,0,0,,,,,,,,,,,,,,,,,,,,,,,,,,,,,,,,,,,,,,,,,,,,,,,,,,,,,,,2630.8739401250004,None,2630.8739401250004,None,2630.8739401250004,None,c,1,3.7425631940004678,2632.4242375030008,None,2632.4242375030008,None,2632.4242375030008,None,2636.2230527440006,None,2636.2230527440006,None,2636.2230527440006,None,2636.2230527440006,None,,,,,,,,,,,,,,,,,,,,,,,,,,,,,,,,,,,,,,,,,,,,001,134,2020_Feb_18_1122,spring_faces,3.1.5,60.00999154340818,
condition files/Stage1_2.xlsx,,T2,B1,c,"['c', 'm']","['Clue', 'Monopoly']","[-0.15, 0.5]","[0.15, 0.5]",1,1,,,,,,,,,0,3,3,3,0,1,1,1,,,,,,,,,,,,,,,,,,,,,,,,,,,,,,,,,,,,,,,,,,,,,,,,,,,,,,,2638.1904603349994,None,2638.1904603349994,None,2638.1904603349994,None,c,1,3.241115250999428,2639.7256779990003,None,2639.7256779990003,None,2639.7256779990003,None,2643.0239942450007,None,2643.0239942450007,None,2643.0239942450007,None,2643.0239942450007,None,,,,,,,,,,,,,,,,,,,,,,,,,,,,,,,,,,,,,,,,,,,,001,134,2020_Feb_18_1122,spring_faces,3.1.5,60.00999154340818,
condition files/Stage1_2.xlsx,,T4,B4,m,"['c', 'm']","['Clue', 'Monopoly']","[-0.15, 0.5]","[0.15, 0.5]",1,1,,,,,,,,,0,3,3,3,0,2,2,7,,,,,,,,,,,,,,,,,,,,,,,,,,,,,,,,,,,,,,,,,,,,,,,,,,,,,,,2644.990131621,None,2644.990131621,None,2644.990131621,None,m,1,5.274467548999382,2646.5404473399994,None,2646.5404473399994,None,2646.5404473399994,None,2651.8908614619995,None,2651.8908614619995,None,2651.8908614619995,None,2651.8908614619995,None,,,,,,,,,,,,,,,,,,,,,,,,,,,,,,,,,,,,,,,,,,,,001,134,2020_Feb_18_1122,spring_faces,3.1.5,60.00999154340818,
condition files/Stage1_2.xlsx,,T1,B2,m,"['c', 'm']","['Clue', 'Monopoly']","[-0.15, 0.5]","[0.15, 0.5]",1,1,,,,,,,,,0,3,3,3,0,3,3,2,,,,,,,,,,,,,,,,,,,,,,,,,,,,,,,,,,,,,,,,,,,,,,,,,,,,,,,2653.8405384590005,None,2653.8405384590005,None,2653.8405384590005,None,m,1,2.3603238250016148,2655.390566147,None,2655.390566147,None,2655.390566147,None,2657.8071815019994,None,2657.8071815019994,None,2657.8071815019994,None,2657.8071815019994,None,,,,,,,,,,,,,,,,,,,,,,,,,,,,,,,,,,,,,,,,,,,,001,134,2020_Feb_18_1122,spring_faces,3.1.5,60.00999154340818,
condition files/Stage1_2.xlsx,,B2,T2,m,"['c', 'm']","['Clue', 'Monopoly']","[-0.15, 0.5]","[0.15, 0.5]",1,1,,,,,,,,,0,3,3,3,0,4,4,3,,,,,,,,,,,,,,,,,,,,,,,,,,,,,,,,,,,,,,,,,,,,,,,,,,,,,,,2659.773176058001,None,2659.773176058001,None,2659.773176058001,None,m,1,1.6748455510005442,2661.3080901110006,None,2661.3080901110006,None,2661.3080901110006,None,2663.0400395710003,None,2663.0400395710003,None,2663.0400395710003,None,2663.0400395710003,None,,,,,,,,,,,,,,,,,,,,,,,,,,,,,,,,,,,,,,,,,,,,001,134,2020_Feb_18_1122,spring_faces,3.1.5,60.00999154340818,
condition files/Stage1_2.xlsx,,B4,T3,c,"['c', 'm']","['Clue', 'Monopoly']","[-0.15, 0.5]","[0.15, 0.5]",1,1,,,,,,,,,0,3,3,3,0,5,5,5,,,,,,,,,,,,,,,,,,,,,,,,,,,,,,,,,,,,,,,,,,,,,,,,,,,,,,,2665.0068655060004,None,2665.0068655060004,None,2665.0068655060004,None,c,1,3.3702301159992203,2666.5406286470006,None,2666.5406286470006,None,2666.5406286470006,None,2669.975265250001,None,2669.975265250001,None,2669.975265250001,None,2669.975265250001,None,,,,,,,,,,,,,,,,,,,,,,,,,,,,,,,,,,,,,,,,,,,,001,134,2020_Feb_18_1122,spring_faces,3.1.5,60.00999154340818,
condition files/Stage1_2.xlsx,,B3,T4,m,"['c', 'm']","['Clue', 'Monopoly']","[-0.15, 0.5]","[0.15, 0.5]",1,1,,,,,,,,,0,3,3,3,0,6,6,6,,,,,,,,,,,,,,,,,,,,,,,,,,,,,,,,,,,,,,,,,,,,,,,,,,,,,,,2671.9404311569997,None,2671.9404311569997,None,2671.9404311569997,None,c,0,2.371405928999593,2673.475511785,None,2673.475511785,None,2673.475511785,None,2675.9082931850007,None,2675.9082931850007,None,2675.9082931850007,None,2675.9082931850007,None,,,,,,,,,,,,,,,,,,,,,,,,,,,,,,,,,,,,,,,,,,,,001,134,2020_Feb_18_1122,spring_faces,3.1.5,60.00999154340818,
condition files/Stage1_2.xlsx,,T3,B3,c,"['c', 'm']","['Clue', 'Monopoly']","[-0.15, 0.5]","[0.15, 0.5]",1,1,,,,,,,,,0,3,3,3,0,7,7,4,,,,,,,,,,,,,,,,,,,,,,,,,,,,,,,,,,,,,,,,,,,,,,,,,,,,,,,2677.8738895280003,None,2677.8738895280003,None,2677.8738895280003,None,c,1,2.4864264219995675,2679.408447459,None,2679.408447459,None,2679.408447459,None,2681.9600182190006,None,2681.9600182190006,None,2681.9600182190006,None,2681.9600182190006,None,,,,,,,,,,,,,,,,,,,,,,,,,,,,,,,,,,,,,,,,,,,,001,134,2020_Feb_18_1122,spring_faces,3.1.5,60.00999154340818,
condition files/Stage1_1.xlsx,,B1,T2,c,"['c', 'm']","['Clue', 'Monopoly']","[-0.15, 0.5]","[0.15, 0.5]",1,1,,,,,,,,,0,4,4,4,0,0,0,1,,,,,,,,,,,,,,,,,,,,,,,,,,,,,,,,,,,,,,,,,,,,,,,,,,,,,,,2683.940849744,None,2683.940849744,None,2683.940849744,None,c,1,3.2828563160001067,2685.4759746340005,None,2685.4759746340005,None,2685.4759746340005,None,2688.8238300640005,None,2688.8238300640005,None,2688.8238300640005,None,2688.8238300640005,None,,,,,,,,,,,,,,,,,,,,,,,,,,,,,,,,,,,,,,,,,,,,001,134,2020_Feb_18_1122,spring_faces,3.1.5,60.00999154340818,
condition files/Stage1_1.xlsx,,B3,T3,c,"['c', 'm']","['Clue', 'Monopoly']","[-0.15, 0.5]","[0.15, 0.5]",1,1,,,,,,,,,0,4,4,4,0,1,1,4,,,,,,,,,,,,,,,,,,,,,,,,,,,,,,,,,,,,,,,,,,,,,,,,,,,,,,,2690.789544612,None,2690.789544612,None,2690.789544612,None,m,0,8.945386340001278,2692.325409225001,None,2692.325409225001,None,2692.325409225001,None,2701.3240459869994,None,2701.3240459869994,None,2701.3240459869994,None,2701.3240459869994,None,,,,,,,,,,,,,,,,,,,,,,,,,,,,,,,,,,,,,,,,,,,,001,134,2020_Feb_18_1122,spring_faces,3.1.5,60.00999154340818,
condition files/Stage1_1.xlsx,,B2,T1,m,"['c', 'm']","['Clue', 'Monopoly']","[-0.15, 0.5]","[0.15, 0.5]",1,1,,,,,,,,,0,4,4,4,0,2,2,2,,,,,,,,,,,,,,,,,,,,,,,,,,,,,,,,,,,,,,,,,,,,,,,,,,,,,,,2703.2900376300004,None,2703.2900376300004,None,2703.2900376300004,None,m,1,1.5191303489991697,2704.823731038001,None,2704.823731038001,None,2704.823731038001,None,2706.409401183,None,2706.409401183,None,2706.409401183,None,2706.409401183,None,,,,,,,,,,,,,,,,,,,,,,,,,,,,,,,,,,,,,,,,,,,,001,134,2020_Feb_18_1122,spring_faces,3.1.5,60.00999154340818,
condition files/Stage1_1.xlsx,,T1,B1,c,"['c', 'm']","['Clue', 'Monopoly']","[-0.15, 0.5]","[0.15, 0.5]",1,1,,,,,,,,,0,4,4,4,0,3,3,0,,,,,,,,,,,,,,,,,,,,,,,,,,,,,,,,,,,,,,,,,,,,,,,,,,,,,,,2708.3737312390003,None,2708.3737312390003,None,2708.3737312390003,None,c,1,3.3314699639995524,2709.907382323001,None,2709.907382323001,None,2709.907382323001,None,2713.3073066710003,None,2713.3073066710003,None,2713.3073066710003,None,2713.3073066710003,None,,,,,,,,,,,,,,,,,,,,,,,,,,,,,,,,,,,,,,,,,,,,001,134,2020_Feb_18_1122,spring_faces,3.1.5,60.00999154340818,
condition files/Stage1_1.xlsx,,T2,B2,m,"['c', 'm']","['Clue', 'Monopoly']","[-0.15, 0.5]","[0.15, 0.5]",1,1,,,,,,,,,0,4,4,4,0,4,4,3,,,,,,,,,,,,,,,,,,,,,,,,,,,,,,,,,,,,,,,,,,,,,,,,,,,,,,,2715.2566706020007,None,2715.2566706020007,None,2715.2566706020007,None,m,1,1.120024891999492,2716.806815682001,None,2716.806815682001,None,2716.806815682001,None,2718.007110214001,None,2718.007110214001,None,2718.007110214001,None,2718.007110214001,None,,,,,,,,,,,,,,,,,,,,,,,,,,,,,,,,,,,,,,,,,,,,001,134,2020_Feb_18_1122,spring_faces,3.1.5,60.00999154340818,
condition files/Stage1_1.xlsx,,T3,B4,c,"['c', 'm']","['Clue', 'Monopoly']","[-0.15, 0.5]","[0.15, 0.5]",1,1,,,,,,,,,0,4,4,4,0,5,5,5,,,,,,,,,,,,,,,,,,,,,,,,,,,,,,,,,,,,,,,,,,,,,,,,,,,,,,,2719.957073396001,None,2719.957073396001,None,2719.957073396001,None,c,1,2.3550605209984496,2721.5077873379996,None,2721.5077873379996,None,2721.5077873379996,None,2723.9405817240004,None,2723.9405817240004,None,2723.9405817240004,None,2723.9405817240004,None,,,,,,,,,,,,,,,,,,,,,,,,,,,,,,,,,,,,,,,,,,,,001,134,2020_Feb_18_1122,spring_faces,3.1.5,60.00999154340818,
condition files/Stage1_1.xlsx,,B4,T4,m,"['c', 'm']","['Clue', 'Monopoly']","[-0.15, 0.5]","[0.15, 0.5]",1,1,,,,,,,,,0,4,4,4,0,6,6,7,,,,,,,,,,,,,,,,,,,,,,,,,,,,,,,,,,,,,,,,,,,,,,,,,,,,,,,2725.8905894149993,None,2725.8905894149993,None,2725.8905894149993,None,m,1,1.9580327879994002,2727.424905766,None,2727.424905766,None,2727.424905766,None,2729.4573473809996,None,2729.4573473809996,None,2729.4573473809996,None,2729.4573473809996,None,,,,,,,,,,,,,,,,,,,,,,,,,,,,,,,,,,,,,,,,,,,,001,134,2020_Feb_18_1122,spring_faces,3.1.5,60.00999154340818,
condition files/Stage1_1.xlsx,,T4,B3,m,"['c', 'm']","['Clue', 'Monopoly']","[-0.15, 0.5]","[0.15, 0.5]",1,1,,,,,,,,,0,4,4,4,0,7,7,6,,,,,,,,,,,,,,,,,,,,,,,,,,,,,,,,,,,,,,,,,,,,,,,,,,,,,,,2731.4068364659997,None,2731.4068364659997,None,2731.4068364659997,None,m,1,1.7697630579987162,2732.957101682001,None,2732.957101682001,None,2732.957101682001,None,2734.7909535069994,None,2734.7909535069994,None,2734.7909535069994,None,2734.7909535069994,None,,,,,,,,,,,,,,,,,,,,,,,,,,,,,,,,,,,,,,,,,,,,001,134,2020_Feb_18_1122,spring_faces,3.1.5,60.00999154340818,
condition files/Stage1_2.xlsx,,B1,T1,c,"['c', 'm']","['Clue', 'Monopoly']","[-0.15, 0.5]","[0.15, 0.5]",1,1,,,,,,,,,0,5,5,5,0,0,0,0,,,,,,,,,,,,,,,,,,,,,,,,,,,,,,,,,,,,,,,,,,,,,,,,,,,,,,,2736.7737780120005,None,2736.7737780120005,None,2736.7737780120005,None,c,1,2.7858885410005314,2738.3090096510005,None,2738.3090096510005,None,2738.3090096510005,None,2741.173424675,None,2741.173424675,None,2741.173424675,None,2741.173424675,None,,,,,,,,,,,,,,,,,,,,,,,,,,,,,,,,,,,,,,,,,,,,001,134,2020_Feb_18_1122,spring_faces,3.1.5,60.00999154340818,
condition files/Stage1_2.xlsx,,B3,T4,m,"['c', 'm']","['Clue', 'Monopoly']","[-0.15, 0.5]","[0.15, 0.5]",1,1,,,,,,,,,0,5,5,5,0,1,1,6,,,,,,,,,,,,,,,,,,,,,,,,,,,,,,,,,,,,,,,,,,,,,,,,,,,,,,,2743.1236713159997,None,2743.1236713159997,None,2743.1236713159997,None,m,1,1.478012375999242,2744.656853343,None,2744.656853343,None,2744.656853343,None,2746.207171223001,None,2746.207171223001,None,2746.207171223001,None,2746.207171223001,None,,,,,,,,,,,,,,,,,,,,,,,,,,,,,,,,,,,,,,,,,,,,001,134,2020_Feb_18_1122,spring_faces,3.1.5,60.00999154340818,
condition files/Stage1_2.xlsx,,T3,B3,c,"['c', 'm']","['Clue', 'Monopoly']","[-0.15, 0.5]","[0.15, 0.5]",1,1,,,,,,,,,0,5,5,5,0,2,2,4,,,,,,,,,,,,,,,,,,,,,,,,,,,,,,,,,,,,,,,,,,,,,,,,,,,,,,,2748.1564847419995,None,2748.1564847419995,None,2748.1564847419995,None,c,1,1.2901583300008497,2749.6927700220003,None,2749.6927700220003,None,2749.6927700220003,None,2751.0573747510007,None,2751.0573747510007,None,2751.0573747510007,None,2751.0573747510007,None,,,,,,,,,,,,,,,,,,,,,,,,,,,,,,,,,,,,,,,,,,,,001,134,2020_Feb_18_1122,spring_faces,3.1.5,60.00999154340818,
condition files/Stage1_2.xlsx,,B2,T2,m,"['c', 'm']","['Clue', 'Monopoly']","[-0.15, 0.5]","[0.15, 0.5]",1,1,,,,,,,,,0,5,5,5,0,3,3,3,,,,,,,,,,,,,,,,,,,,,,,,,,,,,,,,,,,,,,,,,,,,,,,,,,,,,,,2753.007102697,None,2753.007102697,None,2753.007102697,None,m,1,1.1938761319997866,2754.5570515029995,None,2754.5570515029995,None,2754.5570515029995,None,2755.810065267,None,2755.810065267,None,2755.810065267,None,2755.810065267,None,,,,,,,,,,,,,,,,,,,,,,,,,,,,,,,,,,,,,,,,,,,,001,134,2020_Feb_18_1122,spring_faces,3.1.5,60.00999154340818,
condition files/Stage1_2.xlsx,,T4,B4,m,"['c', 'm']","['Clue', 'Monopoly']","[-0.15, 0.5]","[0.15, 0.5]",1,1,,,,,,,,,0,5,5,5,0,4,4,7,,,,,,,,,,,,,,,,,,,,,,,,,,,,,,,,,,,,,,,,,,,,,,,,,,,,,,,2757.773135706,None,2757.773135706,None,2757.773135706,None,m,1,1.7709960860011051,2759.323852392001,None,2759.323852392001,None,2759.323852392001,None,2761.1572662260005,None,2761.1572662260005,None,2761.1572662260005,None,2761.1572662260005,None,,,,,,,,,,,,,,,,,,,,,,,,,,,,,,,,,,,,,,,,,,,,001,134,2020_Feb_18_1122,spring_faces,3.1.5,60.00999154340818,
condition files/Stage1_2.xlsx,,T2,B1,c,"['c', 'm']","['Clue', 'Monopoly']","[-0.15, 0.5]","[0.15, 0.5]",1,1,,,,,,,,,0,5,5,5,0,5,5,1,,,,,,,,,,,,,,,,,,,,,,,,,,,,,,,,,,,,,,,,,,,,,,,,,,,,,,,2763.123669390001,None,2763.123669390001,None,2763.123669390001,None,c,1,1.957154770998386,2764.6577762279994,None,2764.6577762279994,None,2764.6577762279994,None,2766.6907334860007,None,2766.6907334860007,None,2766.6907334860007,None,2766.6907334860007,None,,,,,,,,,,,,,,,,,,,,,,,,,,,,,,,,,,,,,,,,,,,,001,134,2020_Feb_18_1122,spring_faces,3.1.5,60.00999154340818,
condition files/Stage1_2.xlsx,,T1,B2,m,"['c', 'm']","['Clue', 'Monopoly']","[-0.15, 0.5]","[0.15, 0.5]",1,1,,,,,,,,,0,5,5,5,0,6,6,2,,,,,,,,,,,,,,,,,,,,,,,,,,,,,,,,,,,,,,,,,,,,,,,,,,,,,,,2768.6400219360003,None,2768.6400219360003,None,2768.6400219360003,None,m,1,1.2725152020011592,2770.1903572640003,None,2770.1903572640003,None,2770.1903572640003,None,2771.5407783480005,None,2771.5407783480005,None,2771.5407783480005,None,2771.5407783480005,None,,,,,,,,,,,,,,,,,,,,,,,,,,,,,,,,,,,,,,,,,,,,001,134,2020_Feb_18_1122,spring_faces,3.1.5,60.00999154340818,
condition files/Stage1_2.xlsx,,B4,T3,c,"['c', 'm']","['Clue', 'Monopoly']","[-0.15, 0.5]","[0.15, 0.5]",1,1,,,,,,,,,0,5,5,5,0,7,7,5,,,,,,,,,,,,,,,,,,,,,,,,,,,,,,,,,,,,,,,,,,,,,,,,,,,,,,,2773.4904254840003,None,2773.4904254840003,None,2773.4904254840003,None,c,1,1.2380868630007171,2775.0407658059994,None,2775.0407658059994,None,2775.0407658059994,None,2776.3423073760005,None,2776.3423073760005,None,2776.3423073760005,None,2776.3423073760005,None,,,,,,,,,,,,,,,,,,,,,,,,,,,,,,,,,,,,,,,,,,,,001,134,2020_Feb_18_1122,spring_faces,3.1.5,60.00999154340818,
condition files/Stage1_1.xlsx,,B1,T2,c,"['c', 'm']","['Clue', 'Monopoly']","[-0.15, 0.5]","[0.15, 0.5]",1,1,,,,,,,,,0,6,6,6,0,0,0,1,,,,,,,,,,,,,,,,,,,,,,,,,,,,,,,,,,,,,,,,,,,,,,,,,,,,,,,2778.3241019449997,None,2778.3241019449997,None,2778.3241019449997,None,c,1,1.5887883920004242,2779.8740759890006,None,2779.8740759890006,None,2779.8740759890006,None,2781.524238995,None,2781.524238995,None,2781.524238995,None,2781.524238995,None,,,,,,,,,,,,,,,,,,,,,,,,,,,,,,,,,,,,,,,,,,,,001,134,2020_Feb_18_1122,spring_faces,3.1.5,60.00999154340818,
condition files/Stage1_1.xlsx,,B4,T4,m,"['c', 'm']","['Clue', 'Monopoly']","[-0.15, 0.5]","[0.15, 0.5]",1,1,,,,,,,,,0,6,6,6,0,1,1,7,,,,,,,,,,,,,,,,,,,,,,,,,,,,,,,,,,,,,,,,,,,,,,,,,,,,,,,2783.4904675359994,None,2783.4904675359994,None,2783.4904675359994,None,m,1,1.4451665189990308,2785.0257085070007,None,2785.0257085070007,None,2785.0257085070007,None,2786.5404178339995,None,2786.5404178339995,None,2786.5404178339995,None,2786.5404178339995,None,,,,,,,,,,,,,,,,,,,,,,,,,,,,,,,,,,,,,,,,,,,,001,134,2020_Feb_18_1122,spring_faces,3.1.5,60.00999154340818,
condition files/Stage1_1.xlsx,,T3,B4,c,"['c', 'm']","['Clue', 'Monopoly']","[-0.15, 0.5]","[0.15, 0.5]",1,1,,,,,,,,,0,6,6,6,0,2,2,5,,,,,,,,,,,,,,,,,,,,,,,,,,,,,,,,,,,,,,,,,,,,,,,,,,,,,,,2788.4898579990004,None,2788.4898579990004,None,2788.4898579990004,None,c,1,1.2940931749999436,2790.0247338209992,None,2790.0247338209992,None,2790.0247338209992,None,2791.390673195001,None,2791.390673195001,None,2791.390673195001,None,2791.390673195001,None,,,,,,,,,,,,,,,,,,,,,,,,,,,,,,,,,,,,,,,,,,,,001,134,2020_Feb_18_1122,spring_faces,3.1.5,60.00999154340818,
condition files/Stage1_1.xlsx,,T1,B1,c,"['c', 'm']","['Clue', 'Monopoly']","[-0.15, 0.5]","[0.15, 0.5]",1,1,,,,,,,,,0,6,6,6,0,3,3,0,,,,,,,,,,,,,,,,,,,,,,,,,,,,,,,,,,,,,,,,,,,,,,,,,,,,,,,2793.3404658910003,None,2793.3404658910003,None,2793.3404658910003,None,c,1,2.0266637220011035,2794.8761834060006,None,2794.8761834060006,None,2794.8761834060006,None,2796.9570325660006,None,2796.9570325660006,None,2796.9570325660006,None,2796.9570325660006,None,,,,,,,,,,,,,,,,,,,,,,,,,,,,,,,,,,,,,,,,,,,,001,134,2020_Feb_18_1122,spring_faces,3.1.5,60.00999154340818,
condition files/Stage1_1.xlsx,,T4,B3,m,"['c', 'm']","['Clue', 'Monopoly']","[-0.15, 0.5]","[0.15, 0.5]",1,1,,,,,,,,,0,6,6,6,0,4,4,6,,,,,,,,,,,,,,,,,,,,,,,,,,,,,,,,,,,,,,,,,,,,,,,,,,,,,,,2798.9237569390007,None,2798.9237569390007,None,2798.9237569390007,None,m,1,1.1329212050004571,2800.457861115001,None,2800.457861115001,None,2800.457861115001,None,2801.659655554,None,2801.659655554,None,2801.659655554,None,2801.659655554,None,,,,,,,,,,,,,,,,,,,,,,,,,,,,,,,,,,,,,,,,,,,,001,134,2020_Feb_18_1122,spring_faces,3.1.5,60.00999154340818,
condition files/Stage1_1.xlsx,,B2,T1,m,"['c', 'm']","['Clue', 'Monopoly']","[-0.15, 0.5]","[0.15, 0.5]",1,1,,,,,,,,,0,6,6,6,0,5,5,2,,,,,,,,,,,,,,,,,,,,,,,,,,,,,,,,,,,,,,,,,,,,,,,,,,,,,,,2803.623399139,None,2803.623399139,None,2803.623399139,None,m,1,1.1215150549996906,2805.173327306,None,2805.173327306,None,2805.173327306,None,2806.3568645649993,None,2806.3568645649993,None,2806.3568645649993,None,2806.3568645649993,None,,,,,,,,,,,,,,,,,,,,,,,,,,,,,,,,,,,,,,,,,,,,001,134,2020_Feb_18_1122,spring_faces,3.1.5,60.00999154340818,
condition files/Stage1_1.xlsx,,B3,T3,c,"['c', 'm']","['Clue', 'Monopoly']","[-0.15, 0.5]","[0.15, 0.5]",1,1,,,,,,,,,0,6,6,6,0,6,6,4,,,,,,,,,,,,,,,,,,,,,,,,,,,,,,,,,,,,,,,,,,,,,,,,,,,,,,,2808.3236770639996,None,2808.3236770639996,None,2808.3236770639996,None,c,1,1.6360371540013148,2809.858831116,None,2809.858831116,None,2809.858831116,None,2811.5737860160007,None,2811.5737860160007,None,2811.5737860160007,None,2811.5737860160007,None,,,,,,,,,,,,,,,,,,,,,,,,,,,,,,,,,,,,,,,,,,,,001,134,2020_Feb_18_1122,spring_faces,3.1.5,60.00999154340818,
condition files/Stage1_1.xlsx,,T2,B2,m,"['c', 'm']","['Clue', 'Monopoly']","[-0.15, 0.5]","[0.15, 0.5]",1,1,,,,,,,,,0,6,6,6,0,7,7,3,,,,,,,,,,,,,,,,,,,,,,,,,,,,,,,,,,,,,,,,,,,,,,,,,,,,,,,2813.5235452310008,None,2813.5235452310008,None,2813.5235452310008,None,m,1,1.3336188329994911,2815.057214622,None,2815.057214622,None,2815.057214622,None,2816.457333438,None,2816.457333438,None,2816.457333438,None,2816.457333438,None,,,,,,,,,,,,,,,,,,,,,,,,,,,,,,,,,,,,,,,,,,,,001,134,2020_Feb_18_1122,spring_faces,3.1.5,60.00999154340818,
condition files/Stage1_2.xlsx,,B1,T1,c,"['c', 'm']","['Clue', 'Monopoly']","[-0.15, 0.5]","[0.15, 0.5]",1,1,,,,,,,,,0,7,7,7,0,0,0,0,,,,,,,,,,,,,,,,,,,,,,,,,,,,,,,,,,,,,,,,,,,,,,,,,,,,,,,2818.424458773001,None,2818.424458773001,None,2818.424458773001,None,c,1,1.7129174059991783,2819.9739435110005,None,2819.9739435110005,None,2819.9739435110005,None,2821.756985301001,None,2821.756985301001,None,2821.756985301001,None,2821.756985301001,None,,,,,,,,,,,,,,,,,,,,,,,,,,,,,,,,,,,,,,,,,,,,001,134,2020_Feb_18_1122,spring_faces,3.1.5,60.00999154340818,
condition files/Stage1_2.xlsx,,B2,T2,m,"['c', 'm']","['Clue', 'Monopoly']","[-0.15, 0.5]","[0.15, 0.5]",1,1,,,,,,,,,0,7,7,7,0,1,1,3,,,,,,,,,,,,,,,,,,,,,,,,,,,,,,,,,,,,,,,,,,,,,,,,,,,,,,,2823.707016833001,None,2823.707016833001,None,2823.707016833001,None,m,1,1.0518675570001506,2825.2430006110008,None,2825.2430006110008,None,2825.2430006110008,None,2826.358862989,None,2826.358862989,None,2826.358862989,None,2826.358862989,None,,,,,,,,,,,,,,,,,,,,,,,,,,,,,,,,,,,,,,,,,,,,001,134,2020_Feb_18_1122,spring_faces,3.1.5,60.00999154340818,
condition files/Stage1_2.xlsx,,T4,B4,m,"['c', 'm']","['Clue', 'Monopoly']","[-0.15, 0.5]","[0.15, 0.5]",1,1,,,,,,,,,0,7,7,7,0,2,2,7,,,,,,,,,,,,,,,,,,,,,,,,,,,,,,,,,,,,,,,,,,,,,,,,,,,,,,,2828.3239598540003,None,2828.3239598540003,None,2828.3239598540003,None,m,1,1.8463154029996076,2829.8565253920005,None,2829.8565253920005,None,2829.8565253920005,None,2831.757530899,None,2831.757530899,None,2831.757530899,None,2831.757530899,None,,,,,,,,,,,,,,,,,,,,,,,,,,,,,,,,,,,,,,,,,,,,001,134,2020_Feb_18_1122,spring_faces,3.1.5,60.00999154340818,
condition files/Stage1_2.xlsx,,B3,T4,m,"['c', 'm']","['Clue', 'Monopoly']","[-0.15, 0.5]","[0.15, 0.5]",1,1,,,,,,,,,0,7,7,7,0,3,3,6,,,,,,,,,,,,,,,,,,,,,,,,,,,,,,,,,,,,,,,,,,,,,,,,,,,,,,,2833.723513025001,None,2833.723513025001,None,2833.723513025001,None,m,1,1.276899061000222,2835.274046429,None,2835.274046429,None,2835.274046429,None,2836.607170147001,None,2836.607170147001,None,2836.607170147001,None,2836.607170147001,None,,,,,,,,,,,,,,,,,,,,,,,,,,,,,,,,,,,,,,,,,,,,001,134,2020_Feb_18_1122,spring_faces,3.1.5,60.00999154340818,
condition files/Stage1_2.xlsx,,B4,T3,c,"['c', 'm']","['Clue', 'Monopoly']","[-0.15, 0.5]","[0.15, 0.5]",1,1,,,,,,,,,0,7,7,7,0,4,4,5,,,,,,,,,,,,,,,,,,,,,,,,,,,,,,,,,,,,,,,,,,,,,,,,,,,,,,,2838.573824923,None,2838.573824923,None,2838.573824923,None,c,1,1.0359331090003252,2840.1069316850007,None,2840.1069316850007,None,2840.1069316850007,None,2841.209569099001,None,2841.209569099001,None,2841.209569099001,None,2841.209569099001,None,,,,,,,,,,,,,,,,,,,,,,,,,,,,,,,,,,,,,,,,,,,,001,134,2020_Feb_18_1122,spring_faces,3.1.5,60.00999154340818,
condition files/Stage1_2.xlsx,,T2,B1,c,"['c', 'm']","['Clue', 'Monopoly']","[-0.15, 0.5]","[0.15, 0.5]",1,1,,,,,,,,,0,7,7,7,0,5,5,1,,,,,,,,,,,,,,,,,,,,,,,,,,,,,,,,,,,,,,,,,,,,,,,,,,,,,,,2843.1732623959997,None,2843.1732623959997,None,2843.1732623959997,None,c,1,2.0663045170003898,2844.7085276849994,None,2844.7085276849994,None,2844.7085276849994,None,2846.840949933001,None,2846.840949933001,None,2846.840949933001,None,2846.840949933001,None,,,,,,,,,,,,,,,,,,,,,,,,,,,,,,,,,,,,,,,,,,,,001,134,2020_Feb_18_1122,spring_faces,3.1.5,60.00999154340818,
condition files/Stage1_2.xlsx,,T3,B3,c,"['c', 'm']","['Clue', 'Monopoly']","[-0.15, 0.5]","[0.15, 0.5]",1,1,,,,,,,,,0,7,7,7,0,6,6,4,,,,,,,,,,,,,,,,,,,,,,,,,,,,,,,,,,,,,,,,,,,,,,,,,,,,,,,2848.807184225001,None,2848.807184225001,None,2848.807184225001,None,c,1,2.289803732999644,2850.341122805001,None,2850.341122805001,None,2850.341122805001,None,2852.6903002630006,None,2852.6903002630006,None,2852.6903002630006,None,2852.6903002630006,None,,,,,,,,,,,,,,,,,,,,,,,,,,,,,,,,,,,,,,,,,,,,001,134,2020_Feb_18_1122,spring_faces,3.1.5,60.00999154340818,
condition files/Stage1_2.xlsx,,T1,B2,m,"['c', 'm']","['Clue', 'Monopoly']","[-0.15, 0.5]","[0.15, 0.5]",1,1,,,,,,,,,0,7,7,7,0,7,7,2,,,,,,,,,,,,,,,,,,,,,,,,,,,,,,,,,,,,,,,,,,,,,,,,,,,,,,,2854.656837988001,None,2854.656837988001,None,2854.656837988001,None,m,1,2.4722954210010357,2856.206613564,None,2856.206613564,None,2856.206613564,None,2858.7574082129995,None,2858.7574082129995,None,2858.7574082129995,None,2858.7574082129995,None,,,,,,,,,,,,,,,,,,,,,,,,,,,,,,,,,,,,,,,,,,,,001,134,2020_Feb_18_1122,spring_faces,3.1.5,60.00999154340818,
condition files/Stage1_1.xlsx,,T4,B3,m,"['c', 'm']","['Clue', 'Monopoly']","[-0.15, 0.5]","[0.15, 0.5]",1,1,,,,,,,,,0,8,8,8,0,0,0,6,,,,,,,,,,,,,,,,,,,,,,,,,,,,,,,,,,,,,,,,,,,,,,,,,,,,,,,2860.724054106,None,2860.724054106,None,2860.724054106,None,m,1,1.8277679090006131,2862.2593472379995,None,2862.2593472379995,None,2862.2593472379995,None,2864.1406387919997,None,2864.1406387919997,None,2864.1406387919997,None,2864.1406387919997,None,,,,,,,,,,,,,,,,,,,,,,,,,,,,,,,,,,,,,,,,,,,,001,134,2020_Feb_18_1122,spring_faces,3.1.5,60.00999154340818,
condition files/Stage1_1.xlsx,,T2,B2,m,"['c', 'm']","['Clue', 'Monopoly']","[-0.15, 0.5]","[0.15, 0.5]",1,1,,,,,,,,,0,8,8,8,0,1,1,3,,,,,,,,,,,,,,,,,,,,,,,,,,,,,,,,,,,,,,,,,,,,,,,,,,,,,,,2866.1065025040007,None,2866.1065025040007,None,2866.1065025040007,None,m,1,1.3424690709998686,2867.6404716960005,None,2867.6404716960005,None,2867.6404716960005,None,2869.040900528,None,2869.040900528,None,2869.040900528,None,2869.040900528,None,,,,,,,,,,,,,,,,,,,,,,,,,,,,,,,,,,,,,,,,,,,,001,134,2020_Feb_18_1122,spring_faces,3.1.5,60.00999154340818,
condition files/Stage1_1.xlsx,,T1,B1,c,"['c', 'm']","['Clue', 'Monopoly']","[-0.15, 0.5]","[0.15, 0.5]",1,1,,,,,,,,,0,8,8,8,0,2,2,0,,,,,,,,,,,,,,,,,,,,,,,,,,,,,,,,,,,,,,,,,,,,,,,,,,,,,,,2871.006965245,None,2871.006965245,None,2871.006965245,None,c,1,1.8009056770006282,2872.541962821,None,2872.541962821,None,2872.541962821,None,2874.423936546,None,2874.423936546,None,2874.423936546,None,2874.423936546,None,,,,,,,,,,,,,,,,,,,,,,,,,,,,,,,,,,,,,,,,,,,,001,134,2020_Feb_18_1122,spring_faces,3.1.5,60.00999154340818,
condition files/Stage1_1.xlsx,,T3,B4,c,"['c', 'm']","['Clue', 'Monopoly']","[-0.15, 0.5]","[0.15, 0.5]",1,1,,,,,,,,,0,8,8,8,0,3,3,5,,,,,,,,,,,,,,,,,,,,,,,,,,,,,,,,,,,,,,,,,,,,,,,,,,,,,,,2876.3733345750006,None,2876.3733345750006,None,2876.3733345750006,None,c,1,1.8432293919995573,2877.9077147709995,None,2877.9077147709995,None,2877.9077147709995,None,2879.806717759,None,2879.806717759,None,2879.806717759,None,2879.806717759,None,,,,,,,,,,,,,,,,,,,,,,,,,,,,,,,,,,,,,,,,,,,,001,134,2020_Feb_18_1122,spring_faces,3.1.5,60.00999154340818,
condition files/Stage1_1.xlsx,,B1,T2,c,"['c', 'm']","['Clue', 'Monopoly']","[-0.15, 0.5]","[0.15, 0.5]",1,1,,,,,,,,,0,8,8,8,0,4,4,1,,,,,,,,,,,,,,,,,,,,,,,,,,,,,,,,,,,,,,,,,,,,,,,,,,,,,,,2881.7728671759996,None,2881.7728671759996,None,2881.7728671759996,None,c,1,0.8425196939988382,2883.3084126070007,None,2883.3084126070007,None,2883.3084126070007,None,2884.207451045,None,2884.207451045,None,2884.207451045,None,2884.207451045,None,,,,,,,,,,,,,,,,,,,,,,,,,,,,,,,,,,,,,,,,,,,,001,134,2020_Feb_18_1122,spring_faces,3.1.5,60.00999154340818,
condition files/Stage1_1.xlsx,,B2,T1,m,"['c', 'm']","['Clue', 'Monopoly']","[-0.15, 0.5]","[0.15, 0.5]",1,1,,,,,,,,,0,8,8,8,0,5,5,2,,,,,,,,,,,,,,,,,,,,,,,,,,,,,,,,,,,,,,,,,,,,,,,,,,,,,,,2886.17398745,None,2886.17398745,None,2886.17398745,None,m,1,0.8413619019993348,2887.709570053001,None,2887.709570053001,None,2887.709570053001,None,2888.623625253,None,2888.623625253,None,2888.623625253,None,2888.623625253,None,,,,,,,,,,,,,,,,,,,,,,,,,,,,,,,,,,,,,,,,,,,,001,134,2020_Feb_18_1122,spring_faces,3.1.5,60.00999154340818,
condition files/Stage1_1.xlsx,,B3,T3,c,"['c', 'm']","['Clue', 'Monopoly']","[-0.15, 0.5]","[0.15, 0.5]",1,1,,,,,,,,,0,8,8,8,0,6,6,4,,,,,,,,,,,,,,,,,,,,,,,,,,,,,,,,,,,,,,,,,,,,,,,,,,,,,,,2890.5732169189996,None,2890.5732169189996,None,2890.5732169189996,None,c,1,0.954599603999668,2892.108265035,None,2892.108265035,None,2892.108265035,None,2893.124237971,None,2893.124237971,None,2893.124237971,None,2893.124237971,None,,,,,,,,,,,,,,,,,,,,,,,,,,,,,,,,,,,,,,,,,,,,001,134,2020_Feb_18_1122,spring_faces,3.1.5,60.00999154340818,
condition files/Stage1_1.xlsx,,B4,T4,m,"['c', 'm']","['Clue', 'Monopoly']","[-0.15, 0.5]","[0.15, 0.5]",1,1,,,,,,,,,0,8,8,8,0,7,7,7,,,,,,,,,,,,,,,,,,,,,,,,,,,,,,,,,,,,,,,,,,,,,,,,,,,,,,,2895.0903686969996,None,2895.0903686969996,None,2895.0903686969996,None,m,1,0.965534134000336,2896.625303916,None,2896.625303916,None,2896.625303916,None,2897.6570800240006,None,2897.6570800240006,None,2897.6570800240006,None,2897.6570800240006,None,,,,,,,,,,,,,,,,,,,,,,,,,,,,,,,,,,,,,,,,,,,,001,134,2020_Feb_18_1122,spring_faces,3.1.5,60.00999154340818,
condition files/Stage1_2.xlsx,,B1,T1,c,"['c', 'm']","['Clue', 'Monopoly']","[-0.15, 0.5]","[0.15, 0.5]",1,1,,,,,,,,,0,9,9,9,0,0,0,0,,,,,,,,,,,,,,,,,,,,,,,,,,,,,,,,,,,,,,,,,,,,,,,,,,,,,,,2899.640534055001,None,2899.640534055001,None,2899.640534055001,None,c,1,1.2161748190010258,2901.1906861549996,None,2901.1906861549996,None,2901.1906861549996,None,2902.473937666,None,2902.473937666,None,2902.473937666,None,2902.473937666,None,,,,,,,,,,,,,,,,,,,,,,,,,,,,,,,,,,,,,,,,,,,,001,134,2020_Feb_18_1122,spring_faces,3.1.5,60.00999154340818,
condition files/Stage1_2.xlsx,,B3,T4,m,"['c', 'm']","['Clue', 'Monopoly']","[-0.15, 0.5]","[0.15, 0.5]",1,1,,,,,,,,,0,9,9,9,0,1,1,6,,,,,,,,,,,,,,,,,,,,,,,,,,,,,,,,,,,,,,,,,,,,,,,,,,,,,,,2904.4236891769997,None,2904.4236891769997,None,2904.4236891769997,None,m,1,1.1196802889990067,2905.9591890850006,None,2905.9591890850006,None,2905.9591890850006,None,2907.143157884,None,2907.143157884,None,2907.143157884,None,2907.143157884,None,,,,,,,,,,,,,,,,,,,,,,,,,,,,,,,,,,,,,,,,,,,,001,134,2020_Feb_18_1122,spring_faces,3.1.5,60.00999154340818,
condition files/Stage1_2.xlsx,,B2,T2,m,"['c', 'm']","['Clue', 'Monopoly']","[-0.15, 0.5]","[0.15, 0.5]",1,1,,,,,,,,,0,9,9,9,0,2,2,3,,,,,,,,,,,,,,,,,,,,,,,,,,,,,,,,,,,,,,,,,,,,,,,,,,,,,,,2909.1071126629995,None,2909.1071126629995,None,2909.1071126629995,None,m,1,1.030630019000455,2910.6402236939994,None,2910.6402236939994,None,2910.6402236939994,None,2911.723480867,None,2911.723480867,None,2911.723480867,None,2911.723480867,None,,,,,,,,,,,,,,,,,,,,,,,,,,,,,,,,,,,,,,,,,,,,001,134,2020_Feb_18_1122,spring_faces,3.1.5,60.00999154340818,
condition files/Stage1_2.xlsx,,T3,B3,c,"['c', 'm']","['Clue', 'Monopoly']","[-0.15, 0.5]","[0.15, 0.5]",1,1,,,,,,,,,0,9,9,9,0,3,3,4,,,,,,,,,,,,,,,,,,,,,,,,,,,,,,,,,,,,,,,,,,,,,,,,,,,,,,,2913.6903944000005,None,2913.6903944000005,None,2913.6903944000005,None,c,1,1.181723696001427,2915.22514563,None,2915.22514563,None,2915.22514563,None,2916.473976204001,None,2916.473976204001,None,2916.473976204001,None,2916.473976204001,None,,,,,,,,,,,,,,,,,,,,,,,,,,,,,,,,,,,,,,,,,,,,001,134,2020_Feb_18_1122,spring_faces,3.1.5,60.00999154340818,
condition files/Stage1_2.xlsx,,B4,T3,c,"['c', 'm']","['Clue', 'Monopoly']","[-0.15, 0.5]","[0.15, 0.5]",1,1,,,,,,,,,0,9,9,9,0,4,4,5,,,,,,,,,,,,,,,,,,,,,,,,,,,,,,,,,,,,,,,,,,,,,,,,,,,,,,,2918.4234793180003,None,2918.4234793180003,None,2918.4234793180003,None,c,1,1.4723476089984615,2919.958571227,None,2919.958571227,None,2919.958571227,None,2921.4909703989997,None,2921.4909703989997,None,2921.4909703989997,None,2921.4909703989997,None,,,,,,,,,,,,,,,,,,,,,,,,,,,,,,,,,,,,,,,,,,,,001,134,2020_Feb_18_1122,spring_faces,3.1.5,60.00999154340818,
condition files/Stage1_2.xlsx,,T4,B4,m,"['c', 'm']","['Clue', 'Monopoly']","[-0.15, 0.5]","[0.15, 0.5]",1,1,,,,,,,,,0,9,9,9,0,5,5,7,,,,,,,,,,,,,,,,,,,,,,,,,,,,,,,,,,,,,,,,,,,,,,,,,,,,,,,2923.4573611689993,None,2923.4573611689993,None,2923.4573611689993,None,m,1,1.1761258200003795,2924.9906826200004,None,2924.9906826200004,None,2924.9906826200004,None,2926.2263522920002,None,2926.2263522920002,None,2926.2263522920002,None,2926.2263522920002,None,,,,,,,,,,,,,,,,,,,,,,,,,,,,,,,,,,,,,,,,,,,,001,134,2020_Feb_18_1122,spring_faces,3.1.5,60.00999154340818,
condition files/Stage1_2.xlsx,,T1,B2,m,"['c', 'm']","['Clue', 'Monopoly']","[-0.15, 0.5]","[0.15, 0.5]",1,1,,,,,,,,,0,9,9,9,0,6,6,2,,,,,,,,,,,,,,,,,,,,,,,,,,,,,,,,,,,,,,,,,,,,,,,,,,,,,,,2928.190343315,None,2928.190343315,None,2928.190343315,None,m,1,2.2500126069990074,2929.7248030640003,None,2929.7248030640003,None,2929.7248030640003,None,2932.0407259090007,None,2932.0407259090007,None,2932.0407259090007,None,2932.0407259090007,None,,,,,,,,,,,,,,,,,,,,,,,,,,,,,,,,,,,,,,,,,,,,001,134,2020_Feb_18_1122,spring_faces,3.1.5,60.00999154340818,
condition files/Stage1_2.xlsx,,T2,B1,c,"['c', 'm']","['Clue', 'Monopoly']","[-0.15, 0.5]","[0.15, 0.5]",1,1,,,,,,,,,0,9,9,9,0,7,7,1,,,,,,,,,,,,,,,,,,,,,,,,,,,,,,,,,,,,,,,,,,,,,,,,,,,,,,,2934.0074775470002,None,2934.0074775470002,None,2934.0074775470002,None,c,1,2.0159615949996805,2935.5428965930005,None,2935.5428965930005,None,2935.5428965930005,None,2937.6409645940003,None,2937.6409645940003,None,2937.6409645940003,None,2937.6409645940003,None,,,,,,,,,,,,,,,,,,,,,,,,,,,,,,,,,,,,,,,,,,,,001,134,2020_Feb_18_1122,spring_faces,3.1.5,60.00999154340818,
condition files/Stage1_1.xlsx,,T3,B4,c,"['c', 'm']","['Clue', 'Monopoly']","[-0.15, 0.5]","[0.15, 0.5]",1,1,,,,,,,,,0,10,10,10,0,0,0,5,,,,,,,,,,,,,,,,,,,,,,,,,,,,,,,,,,,,,,,,,,,,,,,,,,,,,,,2939.6078115889995,None,2939.6078115889995,None,2939.6078115889995,None,c,1,1.1378056579997065,2941.1571268179996,None,2941.1571268179996,None,2941.1571268179996,None,2942.357104285,None,2942.357104285,None,2942.357104285,None,2942.357104285,None,,,,,,,,,,,,,,,,,,,,,,,,,,,,,,,,,,,,,,,,,,,,001,134,2020_Feb_18_1122,spring_faces,3.1.5,60.00999154340818,
condition files/Stage1_1.xlsx,,B3,T3,c,"['c', 'm']","['Clue', 'Monopoly']","[-0.15, 0.5]","[0.15, 0.5]",1,1,,,,,,,,,0,10,10,10,0,1,1,4,,,,,,,,,,,,,,,,,,,,,,,,,,,,,,,,,,,,,,,,,,,,,,,,,,,,,,,2944.3236951420004,None,2944.3236951420004,None,2944.3236951420004,None,c,1,1.2376541049998195,2945.857209799,None,2945.857209799,None,2945.857209799,None,2947.156924676001,None,2947.156924676001,None,2947.156924676001,None,2947.156924676001,None,,,,,,,,,,,,,,,,,,,,,,,,,,,,,,,,,,,,,,,,,,,,001,134,2020_Feb_18_1122,spring_faces,3.1.5,60.00999154340818,
condition files/Stage1_1.xlsx,,B4,T4,m,"['c', 'm']","['Clue', 'Monopoly']","[-0.15, 0.5]","[0.15, 0.5]",1,1,,,,,,,,,0,10,10,10,0,2,2,7,,,,,,,,,,,,,,,,,,,,,,,,,,,,,,,,,,,,,,,,,,,,,,,,,,,,,,,2949.123818291,None,2949.123818291,None,2949.123818291,None,m,1,1.0296403110005485,2950.6572320489995,None,2950.6572320489995,None,2950.6572320489995,None,2951.7569872599997,None,2951.7569872599997,None,2951.7569872599997,None,2951.7569872599997,None,,,,,,,,,,,,,,,,,,,,,,,,,,,,,,,,,,,,,,,,,,,,001,134,2020_Feb_18_1122,spring_faces,3.1.5,60.00999154340818,
condition files/Stage1_1.xlsx,,T4,B3,m,"['c', 'm']","['Clue', 'Monopoly']","[-0.15, 0.5]","[0.15, 0.5]",1,1,,,,,,,,,0,10,10,10,0,3,3,6,,,,,,,,,,,,,,,,,,,,,,,,,,,,,,,,,,,,,,,,,,,,,,,,,,,,,,,2953.706495659,None,2953.706495659,None,2953.706495659,None,m,1,1.5328210949992354,2955.242001304001,None,2955.242001304001,None,2955.242001304001,None,2956.8403741269994,None,2956.8403741269994,None,2956.8403741269994,None,2956.8403741269994,None,,,,,,,,,,,,,,,,,,,,,,,,,,,,,,,,,,,,,,,,,,,,001,134,2020_Feb_18_1122,spring_faces,3.1.5,60.00999154340818,
condition files/Stage1_1.xlsx,,T2,B2,m,"['c', 'm']","['Clue', 'Monopoly']","[-0.15, 0.5]","[0.15, 0.5]",1,1,,,,,,,,,0,10,10,10,0,4,4,3,,,,,,,,,,,,,,,,,,,,,,,,,,,,,,,,,,,,,,,,,,,,,,,,,,,,,,,2958.806814771,None,2958.806814771,None,2958.806814771,None,m,1,1.056098605000443,2960.342818289,None,2960.342818289,None,2960.342818289,None,2961.4573694909996,None,2961.4573694909996,None,2961.4573694909996,None,2961.4573694909996,None,,,,,,,,,,,,,,,,,,,,,,,,,,,,,,,,,,,,,,,,,,,,001,134,2020_Feb_18_1122,spring_faces,3.1.5,60.00999154340818,
condition files/Stage1_1.xlsx,,B2,T1,m,"['c', 'm']","['Clue', 'Monopoly']","[-0.15, 0.5]","[0.15, 0.5]",1,1,,,,,,,,,0,10,10,10,0,5,5,2,,,,,,,,,,,,,,,,,,,,,,,,,,,,,,,,,,,,,,,,,,,,,,,,,,,,,,,2963.4233563830003,None,2963.4233563830003,None,2963.4233563830003,None,m,1,1.3847669729984773,2964.9740198359996,None,2964.9740198359996,None,2964.9740198359996,None,2966.4233986319996,None,2966.4233986319996,None,2966.4233986319996,None,2966.4233986319996,None,,,,,,,,,,,,,,,,,,,,,,,,,,,,,,,,,,,,,,,,,,,,001,134,2020_Feb_18_1122,spring_faces,3.1.5,60.00999154340818,
condition files/Stage1_1.xlsx,,B1,T2,c,"['c', 'm']","['Clue', 'Monopoly']","[-0.15, 0.5]","[0.15, 0.5]",1,1,,,,,,,,,0,10,10,10,0,6,6,1,,,,,,,,,,,,,,,,,,,,,,,,,,,,,,,,,,,,,,,,,,,,,,,,,,,,,,,2968.390337531,None,2968.390337531,None,2968.390337531,None,c,1,0.8981978940009867,2969.9406493059996,None,2969.9406493059996,None,2969.9406493059996,None,2970.8929743629997,None,2970.8929743629997,None,2970.8929743629997,None,2970.8929743629997,None,,,,,,,,,,,,,,,,,,,,,,,,,,,,,,,,,,,,,,,,,,,,001,134,2020_Feb_18_1122,spring_faces,3.1.5,60.00999154340818,
condition files/Stage1_1.xlsx,,T1,B1,c,"['c', 'm']","['Clue', 'Monopoly']","[-0.15, 0.5]","[0.15, 0.5]",1,1,,,,,,,,,0,10,10,10,0,7,7,0,,,,,,,,,,,,,,,,,,,,,,,,,,,,,,,,,,,,,,,,,,,,,,,,,,,,,,,2972.8564493979993,None,2972.8564493979993,None,2972.8564493979993,None,c,1,1.8237367120000272,2974.407173656,None,2974.407173656,None,2974.407173656,None,2976.291053930001,None,2976.291053930001,None,2976.291053930001,None,2976.291053930001,None,,,,,,,,,,,,,,,,,,,,,,,,,,,,,,,,,,,,,,,,,,,,001,134,2020_Feb_18_1122,spring_faces,3.1.5,60.00999154340818,
condition files/Stage1_2.xlsx,,B4,T3,c,"['c', 'm']","['Clue', 'Monopoly']","[-0.15, 0.5]","[0.15, 0.5]",1,1,,,,,,,,,0,11,11,11,0,0,0,5,,,,,,,,,,,,,,,,,,,,,,,,,,,,,,,,,,,,,,,,,,,,,,,,,,,,,,,2978.273695293001,None,2978.273695293001,None,2978.273695293001,None,c,1,1.094648166999832,2979.808224710001,None,2979.808224710001,None,2979.808224710001,None,2980.957265989,None,2980.957265989,None,2980.957265989,None,2980.957265989,None,,,,,,,,,,,,,,,,,,,,,,,,,,,,,,,,,,,,,,,,,,,,001,134,2020_Feb_18_1122,spring_faces,3.1.5,60.00999154340818,
condition files/Stage1_2.xlsx,,T3,B3,c,"['c', 'm']","['Clue', 'Monopoly']","[-0.15, 0.5]","[0.15, 0.5]",1,1,,,,,,,,,0,11,11,11,0,1,1,4,,,,,,,,,,,,,,,,,,,,,,,,,,,,,,,,,,,,,,,,,,,,,,,,,,,,,,,2982.923755353,None,2982.923755353,None,2982.923755353,None,c,1,1.1157125419995282,2984.4591360079994,None,2984.4591360079994,None,2984.4591360079994,None,2985.623832993,None,2985.623832993,None,2985.623832993,None,2985.623832993,None,,,,,,,,,,,,,,,,,,,,,,,,,,,,,,,,,,,,,,,,,,,,001,134,2020_Feb_18_1122,spring_faces,3.1.5,60.00999154340818,
condition files/Stage1_2.xlsx,,T4,B4,m,"['c', 'm']","['Clue', 'Monopoly']","[-0.15, 0.5]","[0.15, 0.5]",1,1,,,,,,,,,0,11,11,11,0,2,2,7,,,,,,,,,,,,,,,,,,,,,,,,,,,,,,,,,,,,,,,,,,,,,,,,,,,,,,,2987.590194163,None,2987.590194163,None,2987.590194163,None,m,1,1.0113566919990262,2989.1234575420003,None,2989.1234575420003,None,2989.1234575420003,None,2990.1925341629994,None,2990.1925341629994,None,2990.1925341629994,None,2990.1925341629994,None,,,,,,,,,,,,,,,,,,,,,,,,,,,,,,,,,,,,,,,,,,,,001,134,2020_Feb_18_1122,spring_faces,3.1.5,60.00999154340818,
condition files/Stage1_2.xlsx,,B3,T4,m,"['c', 'm']","['Clue', 'Monopoly']","[-0.15, 0.5]","[0.15, 0.5]",1,1,,,,,,,,,0,11,11,11,0,3,3,6,,,,,,,,,,,,,,,,,,,,,,,,,,,,,,,,,,,,,,,,,,,,,,,,,,,,,,,2992.1569913639996,None,2992.1569913639996,None,2992.1569913639996,None,m,1,1.1314892589998635,2993.707355312001,None,2993.707355312001,None,2993.707355312001,None,2994.890786553,None,2994.890786553,None,2994.890786553,None,2994.890786553,None,,,,,,,,,,,,,,,,,,,,,,,,,,,,,,,,,,,,,,,,,,,,001,134,2020_Feb_18_1122,spring_faces,3.1.5,60.00999154340818,
condition files/Stage1_2.xlsx,,T1,B2,m,"['c', 'm']","['Clue', 'Monopoly']","[-0.15, 0.5]","[0.15, 0.5]",1,1,,,,,,,,,0,11,11,11,0,4,4,2,,,,,,,,,,,,,,,,,,,,,,,,,,,,,,,,,,,,,,,,,,,,,,,,,,,,,,,2996.856814097,None,2996.856814097,None,2996.856814097,None,m,1,0.8955049890009832,2998.407321345001,None,2998.407321345001,None,2998.407321345001,None,2999.3571103140002,None,2999.3571103140002,None,2999.3571103140002,None,2999.3571103140002,None,,,,,,,,,,,,,,,,,,,,,,,,,,,,,,,,,,,,,,,,,,,,001,134,2020_Feb_18_1122,spring_faces,3.1.5,60.00999154340818,
condition files/Stage1_2.xlsx,,B1,T1,c,"['c', 'm']","['Clue', 'Monopoly']","[-0.15, 0.5]","[0.15, 0.5]",1,1,,,,,,,,,0,11,11,11,0,5,5,0,,,,,,,,,,,,,,,,,,,,,,,,,,,,,,,,,,,,,,,,,,,,,,,,,,,,,,,3001.324100510001,None,3001.324100510001,None,3001.324100510001,None,c,1,1.116639302999829,3002.8741905980005,None,3002.8741905980005,None,3002.8741905980005,None,3004.0564678209994,None,3004.0564678209994,None,3004.0564678209994,None,3004.0564678209994,None,,,,,,,,,,,,,,,,,,,,,,,,,,,,,,,,,,,,,,,,,,,,001,134,2020_Feb_18_1122,spring_faces,3.1.5,60.00999154340818,
condition files/Stage1_2.xlsx,,B2,T2,m,"['c', 'm']","['Clue', 'Monopoly']","[-0.15, 0.5]","[0.15, 0.5]",1,1,,,,,,,,,0,11,11,11,0,6,6,3,,,,,,,,,,,,,,,,,,,,,,,,,,,,,,,,,,,,,,,,,,,,,,,,,,,,,,,3006.0237952690004,None,3006.0237952690004,None,3006.0237952690004,None,m,1,0.9771012820001488,3007.5738220109997,None,3007.5738220109997,None,3007.5738220109997,None,3008.6088991609995,None,3008.6088991609995,None,3008.6088991609995,None,3008.6088991609995,None,,,,,,,,,,,,,,,,,,,,,,,,,,,,,,,,,,,,,,,,,,,,001,134,2020_Feb_18_1122,spring_faces,3.1.5,60.00999154340818,
condition files/Stage1_2.xlsx,,T2,B1,c,"['c', 'm']","['Clue', 'Monopoly']","[-0.15, 0.5]","[0.15, 0.5]",1,1,,,,,,,,,0,11,11,11,0,7,7,1,,,,,,,,,,,,,,,,,,,,,,,,,,,,,,,,,,,,,,,,,,,,,,,,,,,,,,,3010.573771202,None,3010.573771202,None,3010.573771202,None,c,1,1.0988244639993354,3012.1240222920005,None,3012.1240222920005,None,3012.1240222920005,None,3013.2903008859994,None,3013.2903008859994,None,3013.2903008859994,None,3013.2903008859994,None,,,,,,,,,,,,,,,,,,,,,,,,,,,,,,,,,,,,,,,,,,,,001,134,2020_Feb_18_1122,spring_faces,3.1.5,60.00999154340818,
,,,,,,,,,,,,,,,,,,,,,,,,,,,,,,,,,,,,,,,,,,,,,,,,,,,,,,,,,,,,,,,,,,,,,,,,,,,,,,,,,,,,,,,,,,,,,,,,,,,,,,,,,,,,,,,,3015.2570243480004,None,space,3.3332903459995578,3020.2575017769996,None,,,,,,,,,,,,,,,,,,,,,,,,,,,,,,001,134,2020_Feb_18_1122,spring_faces,3.1.5,60.00999154340818,
condition files/Stage2_1.xlsx,,T5,B5,s,"['s', 'r']","['Stratego', 'Risk']","[-0.15, 0.5]","[0.15, 0.5]",1,1,,,,,,,,,,,,,,,,,0,0,0,0,0,0,0,0,,,,,,,,,,,,,,,,,,,,,,,,,,,,,,,,,,,,,,,,,,,,,,,3023.6409096829993,None,3023.6409096829993,None,3023.6409096829993,None,s,1,2.062827740001012,3025.224024471001,None,3025.224024471001,None,3025.224024471001,None,3027.343161588,None,3027.343161588,None,3027.343161588,None,3027.343161588,None,,,,,,,,,,,,,,,3020.2575017769996,None,,,,,,,,,,,,,,,,,,,,,,,,,,,,001,134,2020_Feb_18_1122,spring_faces,3.1.5,60.00999154340818,
condition files/Stage2_1.xlsx,,B2,T2,r,"['s', 'r']","['Stratego', 'Risk']","[-0.15, 0.5]","[0.15, 0.5]",1,1,,,,,,,,,,,,,,,,,0,0,0,0,0,1,1,3,,,,,,,,,,,,,,,,,,,,,,,,,,,,,,,,,,,,,,,,,,,,,,,3029.3063776649997,None,3029.3063776649997,None,3029.3063776649997,None,r,1,2.8121100589996786,3030.8427568320003,None,3030.8427568320003,None,3030.8427568320003,None,3033.7089629309994,None,3033.7089629309994,None,3033.7089629309994,None,3033.7089629309994,None,,,,,,,,,,,,,,,,,,,,,,,,,,,,,,,,,,,,,,,,,,,,001,134,2020_Feb_18_1122,spring_faces,3.1.5,60.00999154340818,
condition files/Stage2_1.xlsx,,B4,T4,r,"['s', 'r']","['Stratego', 'Risk']","[-0.15, 0.5]","[0.15, 0.5]",1,1,,,,,,,,,,,,,,,,,0,0,0,0,0,2,2,5,,,,,,,,,,,,,,,,,,,,,,,,,,,,,,,,,,,,,,,,,,,,,,,3035.6734608879997,None,3035.6734608879997,None,3035.6734608879997,None,s,0,1.694735684999614,3037.224103042001,None,3037.224103042001,None,3037.224103042001,None,3038.974157877001,None,3038.974157877001,None,3038.974157877001,None,3038.974157877001,None,,,,,,,,,,,,,,,,,,,,,,,,,,,,,,,,,,,,,,,,,,,,001,134,2020_Feb_18_1122,spring_faces,3.1.5,60.00999154340818,
condition files/Stage2_1.xlsx,,B6,T6,r,"['s', 'r']","['Stratego', 'Risk']","[-0.15, 0.5]","[0.15, 0.5]",1,1,,,,,,,,,,,,,,,,,0,0,0,0,0,3,3,1,,,,,,,,,,,,,,,,,,,,,,,,,,,,,,,,,,,,,,,,,,,,,,,3040.9398788519993,None,3040.9398788519993,None,3040.9398788519993,None,s,0,2.0286518009997963,3042.4901684960005,None,3042.4901684960005,None,3042.4901684960005,None,3044.57423914,None,3044.57423914,None,3044.57423914,None,3044.57423914,None,,,,,,,,,,,,,,,,,,,,,,,,,,,,,,,,,,,,,,,,,,,,001,134,2020_Feb_18_1122,spring_faces,3.1.5,60.00999154340818,
condition files/Stage2_1.xlsx,,T1,B1,s,"['s', 'r']","['Stratego', 'Risk']","[-0.15, 0.5]","[0.15, 0.5]",1,1,,,,,,,,,,,,,,,,,0,0,0,0,0,4,4,2,,,,,,,,,,,,,,,,,,,,,,,,,,,,,,,,,,,,,,,,,,,,,,,3046.5400708529996,None,3046.5400708529996,None,3046.5400708529996,None,s,1,2.2693692949997057,3048.0735072490006,None,3048.0735072490006,None,3048.0735072490006,None,3050.4239032759997,None,3050.4239032759997,None,3050.4239032759997,None,3050.4239032759997,None,,,,,,,,,,,,,,,,,,,,,,,,,,,,,,,,,,,,,,,,,,,,001,134,2020_Feb_18_1122,spring_faces,3.1.5,60.00999154340818,
condition files/Stage2_1.xlsx,,T3,B3,s,"['s', 'r']","['Stratego', 'Risk']","[-0.15, 0.5]","[0.15, 0.5]",1,1,,,,,,,,,,,,,,,,,0,0,0,0,0,5,5,4,,,,,,,,,,,,,,,,,,,,,,,,,,,,,,,,,,,,,,,,,,,,,,,3052.3733362269995,None,3052.3733362269995,None,3052.3733362269995,None,s,1,1.7475849530001142,3053.9232577820003,None,3053.9232577820003,None,3053.9232577820003,None,3055.7239683450007,None,3055.7239683450007,None,3055.7239683450007,None,3055.7239683450007,None,,,,,,,,,,,,,,,,,,,,,,,,,,,,,,,,,,,,,,,,,,,,001,134,2020_Feb_18_1122,spring_faces,3.1.5,60.00999154340818,
condition files/Stage2_2.xlsx,,B5,T5,s,"['s', 'r']","['Stratego', 'Risk']","[-0.15, 0.5]","[0.15, 0.5]",1,1,,,,,,,,,,,,,,,,,0,1,1,1,0,0,0,0,,,,,,,,,,,,,,,,,,,,,,,,,,,,,,,,,,,,,,,,,,,,,,,3057.7071021440006,None,3057.7071021440006,None,3057.7071021440006,None,r,0,2.5259386190009536,3059.2408789849997,None,3059.2408789849997,None,3059.2408789849997,None,3061.8237649189996,None,3061.8237649189996,None,3061.8237649189996,None,3061.8237649189996,None,,,,,,,,,,,,,,,,,,,,,,,,,,,,,,,,,,,,,,,,,,,,001,134,2020_Feb_18_1122,spring_faces,3.1.5,60.00999154340818,
condition files/Stage2_2.xlsx,,T4,B4,r,"['s', 'r']","['Stratego', 'Risk']","[-0.15, 0.5]","[0.15, 0.5]",1,1,,,,,,,,,,,,,,,,,0,1,1,1,0,1,1,5,,,,,,,,,,,,,,,,,,,,,,,,,,,,,,,,,,,,,,,,,,,,,,,3063.789681102,None,3063.789681102,None,3063.789681102,None,r,1,2.2815831970001454,3065.325285277,None,3065.325285277,None,3065.325285277,None,3067.6596302399994,None,3067.6596302399994,None,3067.6596302399994,None,3067.6596302399994,None,,,,,,,,,,,,,,,,,,,,,,,,,,,,,,,,,,,,,,,,,,,,001,134,2020_Feb_18_1122,spring_faces,3.1.5,60.00999154340818,
condition files/Stage2_2.xlsx,,B3,T3,s,"['s', 'r']","['Stratego', 'Risk']","[-0.15, 0.5]","[0.15, 0.5]",1,1,,,,,,,,,,,,,,,,,0,1,1,1,0,2,2,4,,,,,,,,,,,,,,,,,,,,,,,,,,,,,,,,,,,,,,,,,,,,,,,3069.623646352,None,3069.623646352,None,3069.623646352,None,s,1,1.552035609000086,3071.158817720001,None,3071.158817720001,None,3071.158817720001,None,3072.776005091,None,3072.776005091,None,3072.776005091,None,3072.776005091,None,,,,,,,,,,,,,,,,,,,,,,,,,,,,,,,,,,,,,,,,,,,,001,134,2020_Feb_18_1122,spring_faces,3.1.5,60.00999154340818,
condition files/Stage2_2.xlsx,,T6,B6,r,"['s', 'r']","['Stratego', 'Risk']","[-0.15, 0.5]","[0.15, 0.5]",1,1,,,,,,,,,,,,,,,,,0,1,1,1,0,3,3,1,,,,,,,,,,,,,,,,,,,,,,,,,,,,,,,,,,,,,,,,,,,,,,,3074.7409228470005,None,3074.7409228470005,None,3074.7409228470005,None,r,1,1.3956062580000435,3076.2751847149993,None,3076.2751847149993,None,3076.2751847149993,None,3077.7407308170004,None,3077.7407308170004,None,3077.7407308170004,None,3077.7407308170004,None,,,,,,,,,,,,,,,,,,,,,,,,,,,,,,,,,,,,,,,,,,,,001,134,2020_Feb_18_1122,spring_faces,3.1.5,60.00999154340818,
condition files/Stage2_2.xlsx,,B1,T1,s,"['s', 'r']","['Stratego', 'Risk']","[-0.15, 0.5]","[0.15, 0.5]",1,1,,,,,,,,,,,,,,,,,0,1,1,1,0,4,4,2,,,,,,,,,,,,,,,,,,,,,,,,,,,,,,,,,,,,,,,,,,,,,,,3079.6904506810006,None,3079.6904506810006,None,3079.6904506810006,None,s,1,2.2209139120004693,3081.226025338001,None,3081.226025338001,None,3081.226025338001,None,3083.5242020469996,None,3083.5242020469996,None,3083.5242020469996,None,3083.5242020469996,None,,,,,,,,,,,,,,,,,,,,,,,,,,,,,,,,,,,,,,,,,,,,001,134,2020_Feb_18_1122,spring_faces,3.1.5,60.00999154340818,
condition files/Stage2_2.xlsx,,T2,B2,r,"['s', 'r']","['Stratego', 'Risk']","[-0.15, 0.5]","[0.15, 0.5]",1,1,,,,,,,,,,,,,,,,,0,1,1,1,0,5,5,3,,,,,,,,,,,,,,,,,,,,,,,,,,,,,,,,,,,,,,,,,,,,,,,3085.473354996,None,3085.473354996,None,3085.473354996,None,s,0,2.3590659180008515,3087.0238584,None,3087.0238584,None,3087.0238584,None,3089.4573234609998,None,3089.4573234609998,None,3089.4573234609998,None,3089.4573234609998,None,,,,,,,,,,,,,,,,,,,,,,,,,,,,,,,,,,,,,,,,,,,,001,134,2020_Feb_18_1122,spring_faces,3.1.5,60.00999154340818,
condition files/Stage2_1.xlsx,,T1,B1,s,"['s', 'r']","['Stratego', 'Risk']","[-0.15, 0.5]","[0.15, 0.5]",1,1,,,,,,,,,,,,,,,,,0,2,2,2,0,0,0,2,,,,,,,,,,,,,,,,,,,,,,,,,,,,,,,,,,,,,,,,,,,,,,,3091.4240497299998,None,3091.4240497299998,None,3091.4240497299998,None,s,1,1.7528655210007855,3092.974002561001,None,3092.974002561001,None,3092.974002561001,None,3094.8073787150006,None,3094.8073787150006,None,3094.8073787150006,None,3094.8073787150006,None,,,,,,,,,,,,,,,,,,,,,,,,,,,,,,,,,,,,,,,,,,,,001,134,2020_Feb_18_1122,spring_faces,3.1.5,60.00999154340818,
condition files/Stage2_1.xlsx,,T3,B3,s,"['s', 'r']","['Stratego', 'Risk']","[-0.15, 0.5]","[0.15, 0.5]",1,1,,,,,,,,,,,,,,,,,0,2,2,2,0,1,1,4,,,,,,,,,,,,,,,,,,,,,,,,,,,,,,,,,,,,,,,,,,,,,,,3096.7570409300006,None,3096.7570409300006,None,3096.7570409300006,None,s,1,2.2746786150000844,3098.2921625340005,None,3098.2921625340005,None,3098.2921625340005,None,3100.6236199039995,None,3100.6236199039995,None,3100.6236199039995,None,3100.6236199039995,None,,,,,,,,,,,,,,,,,,,,,,,,,,,,,,,,,,,,,,,,,,,,001,134,2020_Feb_18_1122,spring_faces,3.1.5,60.00999154340818,
condition files/Stage2_1.xlsx,,B2,T2,r,"['s', 'r']","['Stratego', 'Risk']","[-0.15, 0.5]","[0.15, 0.5]",1,1,,,,,,,,,,,,,,,,,0,2,2,2,0,2,2,3,,,,,,,,,,,,,,,,,,,,,,,,,,,,,,,,,,,,,,,,,,,,,,,3102.5897234580007,None,3102.5897234580007,None,3102.5897234580007,None,r,1,1.4021085299991682,3104.1407610099996,None,3104.1407610099996,None,3104.1407610099996,None,3105.623956235,None,3105.623956235,None,3105.623956235,None,3105.623956235,None,,,,,,,,,,,,,,,,,,,,,,,,,,,,,,,,,,,,,,,,,,,,001,134,2020_Feb_18_1122,spring_faces,3.1.5,60.00999154340818,
condition files/Stage2_1.xlsx,,T5,B5,s,"['s', 'r']","['Stratego', 'Risk']","[-0.15, 0.5]","[0.15, 0.5]",1,1,,,,,,,,,,,,,,,,,0,2,2,2,0,3,3,0,,,,,,,,,,,,,,,,,,,,,,,,,,,,,,,,,,,,,,,,,,,,,,,3107.5737223779997,None,3107.5737223779997,None,3107.5737223779997,None,s,1,2.4180163940000057,3109.1088689080007,None,3109.1088689080007,None,3109.1088689080007,None,3111.607416359,None,3111.607416359,None,3111.607416359,None,3111.607416359,None,,,,,,,,,,,,,,,,,,,,,,,,,,,,,,,,,,,,,,,,,,,,001,134,2020_Feb_18_1122,spring_faces,3.1.5,60.00999154340818,
condition files/Stage2_1.xlsx,,B4,T4,r,"['s', 'r']","['Stratego', 'Risk']","[-0.15, 0.5]","[0.15, 0.5]",1,1,,,,,,,,,,,,,,,,,0,2,2,2,0,4,4,5,,,,,,,,,,,,,,,,,,,,,,,,,,,,,,,,,,,,,,,,,,,,,,,3113.5571378620007,None,3113.5571378620007,None,3113.5571378620007,None,r,1,1.5231234029997722,3115.0918174689996,None,3115.0918174689996,None,3115.0918174689996,None,3116.6748547240004,None,3116.6748547240004,None,3116.6748547240004,None,3116.6748547240004,None,,,,,,,,,,,,,,,,,,,,,,,,,,,,,,,,,,,,,,,,,,,,001,134,2020_Feb_18_1122,spring_faces,3.1.5,60.00999154340818,
condition files/Stage2_1.xlsx,,B6,T6,r,"['s', 'r']","['Stratego', 'Risk']","[-0.15, 0.5]","[0.15, 0.5]",1,1,,,,,,,,,,,,,,,,,0,2,2,2,0,5,5,1,,,,,,,,,,,,,,,,,,,,,,,,,,,,,,,,,,,,,,,,,,,,,,,3118.6404343520007,None,3118.6404343520007,None,3118.6404343520007,None,r,1,1.0490219620005519,3120.1738343529996,None,3120.1738343529996,None,3120.1738343529996,None,3121.273965638,None,3121.273965638,None,3121.273965638,None,3121.273965638,None,,,,,,,,,,,,,,,,,,,,,,,,,,,,,,,,,,,,,,,,,,,,001,134,2020_Feb_18_1122,spring_faces,3.1.5,60.00999154340818,
condition files/Stage2_2.xlsx,,B5,T5,s,"['s', 'r']","['Stratego', 'Risk']","[-0.15, 0.5]","[0.15, 0.5]",1,1,,,,,,,,,,,,,,,,,0,3,3,3,0,0,0,0,,,,,,,,,,,,,,,,,,,,,,,,,,,,,,,,,,,,,,,,,,,,,,,3123.2568819259996,None,3123.2568819259996,None,3123.2568819259996,None,s,1,1.8874796179989062,3124.8073930970004,None,3124.8073930970004,None,3124.8073930970004,None,3126.773454485001,None,3126.773454485001,None,3126.773454485001,None,3126.773454485001,None,,,,,,,,,,,,,,,,,,,,,,,,,,,,,,,,,,,,,,,,,,,,001,134,2020_Feb_18_1122,spring_faces,3.1.5,60.00999154340818,
condition files/Stage2_2.xlsx,,T4,B4,r,"['s', 'r']","['Stratego', 'Risk']","[-0.15, 0.5]","[0.15, 0.5]",1,1,,,,,,,,,,,,,,,,,0,3,3,3,0,1,1,5,,,,,,,,,,,,,,,,,,,,,,,,,,,,,,,,,,,,,,,,,,,,,,,3128.7241896489995,None,3128.7241896489995,None,3128.7241896489995,None,r,1,1.0451508130008733,3130.2576830889993,None,3130.2576830889993,None,3130.2576830889993,None,3131.3742806360005,None,3131.3742806360005,None,3131.3742806360005,None,3131.3742806360005,None,,,,,,,,,,,,,,,,,,,,,,,,,,,,,,,,,,,,,,,,,,,,001,134,2020_Feb_18_1122,spring_faces,3.1.5,60.00999154340818,
condition files/Stage2_2.xlsx,,B3,T3,s,"['s', 'r']","['Stratego', 'Risk']","[-0.15, 0.5]","[0.15, 0.5]",1,1,,,,,,,,,,,,,,,,,0,3,3,3,0,2,2,4,,,,,,,,,,,,,,,,,,,,,,,,,,,,,,,,,,,,,,,,,,,,,,,3133.323733753001,None,3133.323733753001,None,3133.323733753001,None,s,1,1.1809976499989716,3134.8738543260006,None,3134.8738543260006,None,3134.8738543260006,None,3136.1093933459997,None,3136.1093933459997,None,3136.1093933459997,None,3136.1093933459997,None,,,,,,,,,,,,,,,,,,,,,,,,,,,,,,,,,,,,,,,,,,,,001,134,2020_Feb_18_1122,spring_faces,3.1.5,60.00999154340818,
condition files/Stage2_2.xlsx,,T6,B6,r,"['s', 'r']","['Stratego', 'Risk']","[-0.15, 0.5]","[0.15, 0.5]",1,1,,,,,,,,,,,,,,,,,0,3,3,3,0,3,3,1,,,,,,,,,,,,,,,,,,,,,,,,,,,,,,,,,,,,,,,,,,,,,,,3138.0733242339993,None,3138.0733242339993,None,3138.0733242339993,None,r,1,0.9106262369987235,3139.608235539001,None,3139.608235539001,None,3139.608235539001,None,3140.5759701490006,None,3140.5759701490006,None,3140.5759701490006,None,3140.5759701490006,None,,,,,,,,,,,,,,,,,,,,,,,,,,,,,,,,,,,,,,,,,,,,001,134,2020_Feb_18_1122,spring_faces,3.1.5,60.00999154340818,
condition files/Stage2_2.xlsx,,T2,B2,r,"['s', 'r']","['Stratego', 'Risk']","[-0.15, 0.5]","[0.15, 0.5]",1,1,,,,,,,,,,,,,,,,,0,3,3,3,0,4,4,3,,,,,,,,,,,,,,,,,,,,,,,,,,,,,,,,,,,,,,,,,,,,,,,3142.5405123109995,None,3142.5405123109995,None,3142.5405123109995,None,r,1,1.1960444119995373,3144.0908028520007,None,3144.0908028520007,None,3144.0908028520007,None,3145.3401840770002,None,3145.3401840770002,None,3145.3401840770002,None,3145.3401840770002,None,,,,,,,,,,,,,,,,,,,,,,,,,,,,,,,,,,,,,,,,,,,,001,134,2020_Feb_18_1122,spring_faces,3.1.5,60.00999154340818,
condition files/Stage2_2.xlsx,,B1,T1,s,"['s', 'r']","['Stratego', 'Risk']","[-0.15, 0.5]","[0.15, 0.5]",1,1,,,,,,,,,,,,,,,,,0,3,3,3,0,5,5,2,,,,,,,,,,,,,,,,,,,,,,,,,,,,,,,,,,,,,,,,,,,,,,,3147.307177081,None,3147.307177081,None,3147.307177081,None,s,1,1.5339494029994967,3148.8568796100008,None,3148.8568796100008,None,3148.8568796100008,None,3150.4576240799997,None,3150.4576240799997,None,3150.4576240799997,None,3150.4576240799997,None,,,,,,,,,,,,,,,,,,,,,,,,,,,,,,,,,,,,,,,,,,,,001,134,2020_Feb_18_1122,spring_faces,3.1.5,60.00999154340818,
condition files/Stage2_1.xlsx,,T5,B5,s,"['s', 'r']","['Stratego', 'Risk']","[-0.15, 0.5]","[0.15, 0.5]",1,1,,,,,,,,,,,,,,,,,0,4,4,4,0,0,0,0,,,,,,,,,,,,,,,,,,,,,,,,,,,,,,,,,,,,,,,,,,,,,,,3152.42368059,None,3152.42368059,None,3152.42368059,None,s,1,1.0404875090007408,3153.958453722,None,3153.958453722,None,3153.958453722,None,3155.0573153719997,None,3155.0573153719997,None,3155.0573153719997,None,3155.0573153719997,None,,,,,,,,,,,,,,,,,,,,,,,,,,,,,,,,,,,,,,,,,,,,001,134,2020_Feb_18_1122,spring_faces,3.1.5,60.00999154340818,
condition files/Stage2_1.xlsx,,B6,T6,r,"['s', 'r']","['Stratego', 'Risk']","[-0.15, 0.5]","[0.15, 0.5]",1,1,,,,,,,,,,,,,,,,,0,4,4,4,0,1,1,1,,,,,,,,,,,,,,,,,,,,,,,,,,,,,,,,,,,,,,,,,,,,,,,3157.0238153610007,None,3157.0238153610007,None,3157.0238153610007,None,r,1,0.9039781680003216,3158.5588950170004,None,3158.5588950170004,None,3158.5588950170004,None,3159.540711492,None,3159.540711492,None,3159.540711492,None,3159.540711492,None,,,,,,,,,,,,,,,,,,,,,,,,,,,,,,,,,,,,,,,,,,,,001,134,2020_Feb_18_1122,spring_faces,3.1.5,60.00999154340818,
condition files/Stage2_1.xlsx,,B4,T4,r,"['s', 'r']","['Stratego', 'Risk']","[-0.15, 0.5]","[0.15, 0.5]",1,1,,,,,,,,,,,,,,,,,0,4,4,4,0,2,2,5,,,,,,,,,,,,,,,,,,,,,,,,,,,,,,,,,,,,,,,,,,,,,,,3161.4907077240005,None,3161.4907077240005,None,3161.4907077240005,None,r,1,1.0618742049991852,3163.024994941001,None,3163.024994941001,None,3163.024994941001,None,3164.141025408,None,3164.141025408,None,3164.141025408,None,3164.141025408,None,,,,,,,,,,,,,,,,,,,,,,,,,,,,,,,,,,,,,,,,,,,,001,134,2020_Feb_18_1122,spring_faces,3.1.5,60.00999154340818,
condition files/Stage2_1.xlsx,,T1,B1,s,"['s', 'r']","['Stratego', 'Risk']","[-0.15, 0.5]","[0.15, 0.5]",1,1,,,,,,,,,,,,,,,,,0,4,4,4,0,3,3,2,,,,,,,,,,,,,,,,,,,,,,,,,,,,,,,,,,,,,,,,,,,,,,,3166.1065260060004,None,3166.1065260060004,None,3166.1065260060004,None,s,1,2.174156615999891,3167.6567715620004,None,3167.6567715620004,None,3167.6567715620004,None,3169.9068243969996,None,3169.9068243969996,None,3169.9068243969996,None,3169.9068243969996,None,,,,,,,,,,,,,,,,,,,,,,,,,,,,,,,,,,,,,,,,,,,,001,134,2020_Feb_18_1122,spring_faces,3.1.5,60.00999154340818,
