condsFile,subStage,cue1,cue2,correct,responseKeys,responseNames,cue1Position,cue2Position,cue1Opacity,cue2Opacity,stageLoop0.thisRepN,stageLoop0.thisTrialN,stageLoop0.thisN,stageLoop0.thisIndex,blockLoop0.thisRepN,blockLoop0.thisTrialN,blockLoop0.thisN,blockLoop0.thisIndex,stage1Loop.thisRepN,stage1Loop.thisTrialN,stage1Loop.thisN,stage1Loop.thisIndex,blockLoop1.thisRepN,blockLoop1.thisTrialN,blockLoop1.thisN,blockLoop1.thisIndex,stage2Loop.thisRepN,stage2Loop.thisTrialN,stage2Loop.thisN,stage2Loop.thisIndex,blockLoop2.thisRepN,blockLoop2.thisTrialN,blockLoop2.thisN,blockLoop2.thisIndex,testLoop.thisRepN,testLoop.thisTrialN,testLoop.thisN,testLoop.thisIndex,blockLoopTest.thisRepN,blockLoopTest.thisTrialN,blockLoopTest.thisN,blockLoopTest.thisIndex,cuePics,id_instr_text.started,id_instr_text.stopped,space_to_continue_2.started,space_to_continue_2.stopped,end_instructions_resp_3.keys,end_instructions_resp_3.rt,end_instructions_resp_3.started,end_instructions_resp_3.stopped,id_input_instr.started,id_input_instr.stopped,id_input_rect.started,id_input_rect.stopped,id_input_resp.keys,id_input_resp.rt,id_input_resp.started,id_input_resp.stopped,sonaID,id_input_text.started,id_input_text.stopped,final_text.started,final_text.stopped,instructions.started,instructions.stopped,end_instructions_resp.keys,end_instructions_resp.rt,end_instructions_resp.started,end_instructions_resp.stopped,space_to_continue.started,space_to_continue.stopped,instructions_stage0.started,instructions_stage0.stopped,end_instructions_resp_stage0.keys,end_instructions_resp_stage0.rt,end_instructions_resp_stage0.started,end_instructions_resp_stage0.stopped,space_to_continue_stage0.started,space_to_continue_stage0.stopped,text.started,text.stopped,resp_text1.started,resp_text1.stopped,resp_text2.started,resp_text2.stopped,trial_resp.keys,trial_resp.corr,trial_resp.rt,trial_resp.started,trial_resp.stopped,cue1Image.started,cue1Image.stopped,cue2Image.started,cue2Image.stopped,cue1Image_fb.started,cue1Image_fb.stopped,cue2Image_fb.started,cue2Image_fb.stopped,fb_text_answer.started,fb_text_answer.stopped,feedback_image.started,feedback_image.stopped,instructions_stage1.started,instructions_stage1.stopped,end_instructions_resp_stage1.keys,end_instructions_resp_stage1.rt,end_instructions_resp_stage1.started,end_instructions_resp_stage1.stopped,space_to_continue_stage1.started,space_to_continue_stage1.stopped,instructions_2.started,instructions_2.stopped,end_instructions_resp_2.keys,end_instructions_resp_2.rt,end_instructions_resp_2.started,end_instructions_resp_2.stopped,press_space_to_continue_stage2.started,press_space_to_continue_stage2.stopped,instructions_testStage1.started,instructions_testStage1.stopped,end_instructions_resp_test1.keys,end_instructions_resp_test1.rt,end_instructions_resp_test1.started,end_instructions_resp_test1.stopped,press_space_to_continue_test1.started,press_space_to_continue_test1.stopped,cue1Image_testChoice.started,cue1Image_testChoice.stopped,cue2Image_testChoice.started,cue2Image_testChoice.stopped,test_resp.keys,test_resp.corr,test_resp.rt,test_resp.started,test_resp.stopped,cue1Image_testConf.started,cue1Image_testConf.stopped,cue2Image_testConf.started,cue2Image_testConf.stopped,conf_reminder.started,conf_reminder.stopped,conf_rating.response,conf_rating.rt,conf_rating.started,conf_rating.stopped,session,participant,date,expName,psychopyVersion,frameRate,
,,,,,,,,,,,,,,,,,,,,,,,,,,,,,,,,,,,,,,,,,,,"{'none': 'pictures/20M_AN_C.png', 'alpha': 'pictures/SHINEd_pear.png', 'beta': 'pictures/SHINEd_pepper.png', 'theta': 'pictures/SHINEd_apple.png', 'phi': 'pictures/SHINEd_melon.png', 'T1': 'pictures/26M_AN_C.png', 'T2': 'pictures/23M_AN_C.png', 'T3': 'pictures/33M_AN_C.png', 'T4': 'pictures/22M_AN_C.png', 'T5': 'pictures/36M_AN_C.png', 'T6': 'pictures/38M_AN_C.png', 'B1': 'pictures/31M_NE_C.png', 'B2': 'pictures/25M_NE_C.png', 'B3': 'pictures/20M_NE_C.png', 'B4': 'pictures/32M_NE_C.png', 'B5': 'pictures/37M_NE_C.png', 'B6': 'pictures/34M_NE_C.png'}",1811.8391008759972,None,1816.8223421619987,None,space,17.19753009700071,1816.8223421619987,None,,,,,,,,,,,,,,,,,,,,,,,,,,,,,,,,,,,,,,,,,,,,,,,,,,,,,,,,,,,,,,,,,,,,,,,,,,,,,,,,,,,,,,,,,,,,,,,,001,137,2020_Feb_18_1410,spring_faces,3.1.5,60.03669334654842,
,,,,,,,,,,,,,,,,,,,,,,,,,,,,,,,,,,,,,,,,,,,,,,,,,,,,1834.3895800760001,None,1834.3895800760001,None,"['0', '1', '2', '5', 'k', 'e', 'f', 'o', 's']","[6.814302023001801, 7.246533011002612, 11.694274954003049, 12.158356299001753, 17.10224487200321, 17.438326504001452, 21.182281977002276, 21.422338117001345, 21.67832147500303]",1834.3895800760001,None,,,,,,,,,,,,,,,,,,,,,,,,,,,,,,,,,,,,,,,,,,,,,,,,,,,,,,,,,,,,,,,,,,,,,,,,,,,,,,,,,,,,,,,,001,137,2020_Feb_18_1410,spring_faces,3.1.5,60.03669334654842,
,,,,,,,,,,,,,,,,,,,,,,,,,,,,,,,,,,,,,,,,,,,,,,,,,,,,,,,,,,,,0125kefos,1834.3895800760001,None,1834.3895800760001,None,1861.139409632,None,space,6.53659267400144,1866.1392946039996,None,,,,,,,,,,,,,,,,,,,,,,,,,,,,,,,,,,,,,,,,,,,,,,,,,,,,,,,,,,,,,,,,,,,,,,,,,,,,,001,137,2020_Feb_18_1410,spring_faces,3.1.5,60.03669334654842,
,,,,,,,,,,,,,,,,,,,,,,,,,,,,,,,,,,,,,,,,,,,,,,,,,,,,,,,,,,,,,,,,,,,,,,,1866.1392946039996,None,1872.7223714119973,None,space,6.586241899000015,1877.705658810999,None,,,,,,,,,,,,,,,,,,,,,,,,,,,,,,,,,,,,,,,,,,,,,,,,,,,,,,,,,,,,,,,,,,,,,001,137,2020_Feb_18_1410,spring_faces,3.1.5,60.03669334654842,
condition files/Stage0a.xlsx,0a,alpha,none,h,"['h', 'g']","['Chess', 'Go']","[0, 0.5]","[0, 0]",1,0,0,0,0,0,0,0,0,0,,,,,,,,,,,,,,,,,,,,,,,,,,,,,,,,,,,,,,,,,,,,,,,,,,,,,,,,,,,,,1877.705658810999,None,1884.3555443759979,None,1884.3555443759979,None,1884.3555443759979,None,h,1,6.416645041001175,1885.9391467549976,None,1885.9391467549976,None,1885.9391467549976,None,1892.4221042219979,None,1892.4221042219979,None,1892.4221042219979,None,1892.4221042219979,None,,,,,,,,,,,,,,,,,,,,,,,,,,,,,,,,,,,,,,,,,,,,001,137,2020_Feb_18_1410,spring_faces,3.1.5,60.03669334654842,
condition files/Stage0a.xlsx,0a,beta,none,g,"['h', 'g']","['Chess', 'Go']","[0, 0.5]","[0, 0]",1,0,0,0,0,0,0,1,1,1,,,,,,,,,,,,,,,,,,,,,,,,,,,,,,,,,,,,,,,,,,,,,,,,,,,,,,,,,,,,,,,1894.373675781997,None,1894.373675781997,None,1894.373675781997,None,h,0,2.4020651600003475,1895.9057807889985,None,1895.9057807889985,None,1895.9057807889985,None,1898.371842048,None,1898.371842048,None,1898.371842048,None,1898.371842048,None,,,,,,,,,,,,,,,,,,,,,,,,,,,,,,,,,,,,,,,,,,,,001,137,2020_Feb_18_1410,spring_faces,3.1.5,60.03669334654842,
condition files/Stage0a.xlsx,0a,alpha,none,h,"['h', 'g']","['Chess', 'Go']","[0, 0.5]","[0, 0]",1,0,0,1,1,1,0,0,0,0,,,,,,,,,,,,,,,,,,,,,,,,,,,,,,,,,,,,,,,,,,,,,,,,,,,,,,,,,,,,,,,1900.3561011089987,None,1900.3561011089987,None,1900.3561011089987,None,h,1,1.985899678998976,1901.8899944179975,None,1901.8899944179975,None,1901.8899944179975,None,1903.9400137669982,None,1903.9400137669982,None,1903.9400137669982,None,1903.9400137669982,None,,,,,,,,,,,,,,,,,,,,,,,,,,,,,,,,,,,,,,,,,,,,001,137,2020_Feb_18_1410,spring_faces,3.1.5,60.03669334654842,
condition files/Stage0a.xlsx,0a,beta,none,g,"['h', 'g']","['Chess', 'Go']","[0, 0.5]","[0, 0]",1,0,0,1,1,1,0,1,1,1,,,,,,,,,,,,,,,,,,,,,,,,,,,,,,,,,,,,,,,,,,,,,,,,,,,,,,,,,,,,,,,1905.9055969099973,None,1905.9055969099973,None,1905.9055969099973,None,g,1,1.0605300550014363,1907.4393809559988,None,1907.4393809559988,None,1907.4393809559988,None,1908.5556544169995,None,1908.5556544169995,None,1908.5556544169995,None,1908.5556544169995,None,,,,,,,,,,,,,,,,,,,,,,,,,,,,,,,,,,,,,,,,,,,,001,137,2020_Feb_18_1410,spring_faces,3.1.5,60.03669334654842,
condition files/Stage0a.xlsx,0a,alpha,none,h,"['h', 'g']","['Chess', 'Go']","[0, 0.5]","[0, 0]",1,0,0,2,2,2,0,0,0,0,,,,,,,,,,,,,,,,,,,,,,,,,,,,,,,,,,,,,,,,,,,,,,,,,,,,,,,,,,,,,,,1910.5394315239973,None,1910.5394315239973,None,1910.5394315239973,None,h,1,1.6585227760006092,1912.073393855997,None,1912.073393855997,None,1912.073393855997,None,1913.7896586139977,None,1913.7896586139977,None,1913.7896586139977,None,1913.7896586139977,None,,,,,,,,,,,,,,,,,,,,,,,,,,,,,,,,,,,,,,,,,,,,001,137,2020_Feb_18_1410,spring_faces,3.1.5,60.03669334654842,
condition files/Stage0a.xlsx,0a,beta,none,g,"['h', 'g']","['Chess', 'Go']","[0, 0.5]","[0, 0]",1,0,0,2,2,2,0,1,1,1,,,,,,,,,,,,,,,,,,,,,,,,,,,,,,,,,,,,,,,,,,,,,,,,,,,,,,,,,,,,,,,1915.7552317829977,None,1915.7552317829977,None,1915.7552317829977,None,g,1,0.794963882999582,1917.2889025859986,None,1917.2889025859986,None,1917.2889025859986,None,1918.1389441859974,None,1918.1389441859974,None,1918.1389441859974,None,1918.1389441859974,None,,,,,,,,,,,,,,,,,,,,,,,,,,,,,,,,,,,,,,,,,,,,001,137,2020_Feb_18_1410,spring_faces,3.1.5,60.03669334654842,
condition files/Stage0a.xlsx,0a,alpha,none,h,"['h', 'g']","['Chess', 'Go']","[0, 0.5]","[0, 0]",1,0,0,3,3,3,0,0,0,0,,,,,,,,,,,,,,,,,,,,,,,,,,,,,,,,,,,,,,,,,,,,,,,,,,,,,,,,,,,,,,,1920.1221646159975,None,1920.1221646159975,None,1920.1221646159975,None,h,1,1.0523374089971185,1921.6555480919997,None,1921.6555480919997,None,1921.6555480919997,None,1922.7723161409995,None,1922.7723161409995,None,1922.7723161409995,None,1922.7723161409995,None,,,,,,,,,,,,,,,,,,,,,,,,,,,,,,,,,,,,,,,,,,,,001,137,2020_Feb_18_1410,spring_faces,3.1.5,60.03669334654842,
condition files/Stage0a.xlsx,0a,beta,none,g,"['h', 'g']","['Chess', 'Go']","[0, 0.5]","[0, 0]",1,0,0,3,3,3,0,1,1,1,,,,,,,,,,,,,,,,,,,,,,,,,,,,,,,,,,,,,,,,,,,,,,,,,,,,,,,,,,,,,,,1924.739256883,None,1924.739256883,None,1924.739256883,None,g,1,0.9952356300018437,1926.2725635199968,None,1926.2725635199968,None,1926.2725635199968,None,1927.322601541,None,1927.322601541,None,1927.322601541,None,1927.322601541,None,,,,,,,,,,,,,,,,,,,,,,,,,,,,,,,,,,,,,,,,,,,,001,137,2020_Feb_18_1410,spring_faces,3.1.5,60.03669334654842,
condition files/Stage0a.xlsx,0a,alpha,none,h,"['h', 'g']","['Chess', 'Go']","[0, 0.5]","[0, 0]",1,0,0,4,4,4,0,0,0,0,,,,,,,,,,,,,,,,,,,,,,,,,,,,,,,,,,,,,,,,,,,,,,,,,,,,,,,,,,,,,,,1929.3060900290002,None,1929.3060900290002,None,1929.3060900290002,None,h,1,0.8762549510029203,1930.839671632999,None,1930.839671632999,None,1930.839671632999,None,1931.7726251729982,None,1931.7726251729982,None,1931.7726251729982,None,1931.7726251729982,None,,,,,,,,,,,,,,,,,,,,,,,,,,,,,,,,,,,,,,,,,,,,001,137,2020_Feb_18_1410,spring_faces,3.1.5,60.03669334654842,
condition files/Stage0a.xlsx,0a,beta,none,g,"['h', 'g']","['Chess', 'Go']","[0, 0.5]","[0, 0]",1,0,0,4,4,4,0,1,1,1,,,,,,,,,,,,,,,,,,,,,,,,,,,,,,,,,,,,,,,,,,,,,,,,,,,,,,,,,,,,,,,1933.738696499,None,1933.738696499,None,1933.738696499,None,g,1,0.6192390879987215,1935.2726148820002,None,1935.2726148820002,None,1935.2726148820002,None,1935.9556750899974,None,1935.9556750899974,None,1935.9556750899974,None,1935.9556750899974,None,,,,,,,,,,,,,,,,,,,,,,,,,,,,,,,,,,,,,,,,,,,,001,137,2020_Feb_18_1410,spring_faces,3.1.5,60.03669334654842,
condition files/Stage0a.xlsx,0a,beta,none,g,"['h', 'g']","['Chess', 'Go']","[0, 0.5]","[0, 0]",1,0,0,5,5,5,0,0,0,1,,,,,,,,,,,,,,,,,,,,,,,,,,,,,,,,,,,,,,,,,,,,,,,,,,,,,,,,,,,,,,,1937.938943309,None,1937.938943309,None,1937.938943309,None,g,1,1.3787841509983991,1939.4570301519998,None,1939.4570301519998,None,1939.4570301519998,None,1940.888721938998,None,1940.888721938998,None,1940.888721938998,None,1940.888721938998,None,,,,,,,,,,,,,,,,,,,,,,,,,,,,,,,,,,,,,,,,,,,,001,137,2020_Feb_18_1410,spring_faces,3.1.5,60.03669334654842,
condition files/Stage0a.xlsx,0a,alpha,none,h,"['h', 'g']","['Chess', 'Go']","[0, 0.5]","[0, 0]",1,0,0,5,5,5,0,1,1,0,,,,,,,,,,,,,,,,,,,,,,,,,,,,,,,,,,,,,,,,,,,,,,,,,,,,,,,,,,,,,,,1942.8557155239978,None,1942.8557155239978,None,1942.8557155239978,None,h,1,0.6233359520010708,1944.3885426749985,None,1944.3885426749985,None,1944.3885426749985,None,1945.072391554997,None,1945.072391554997,None,1945.072391554997,None,1945.072391554997,None,,,,,,,,,,,,,,,,,,,,,,,,,,,,,,,,,,,,,,,,,,,,001,137,2020_Feb_18_1410,spring_faces,3.1.5,60.03669334654842,
condition files/Stage0b_1.xlsx,0b,none,beta,g,"['h', 'g']","['Chess', 'Go']","[-0.15, 0.5]","[0.15, 0.5]",0,1,0,6,6,6,0,0,0,1,,,,,,,,,,,,,,,,,,,,,,,,,,,,,,,,,,,,,,,,,,,,,,,,,,,,,,,,,,,,,,,1947.056013608999,None,1947.056013608999,None,1947.056013608999,None,g,1,0.6783272339998803,1948.6055008209987,None,1948.6055008209987,None,1948.6055008209987,None,1949.355843262998,None,1949.355843262998,None,1949.355843262998,None,1949.355843262998,None,,,,,,,,,,,,,,,,,,,,,,,,,,,,,,,,,,,,,,,,,,,,001,137,2020_Feb_18_1410,spring_faces,3.1.5,60.03669334654842,
condition files/Stage0b_1.xlsx,0b,alpha,none,h,"['h', 'g']","['Chess', 'Go']","[-0.15, 0.5]","[0.15, 0.5]",1,0,0,6,6,6,0,1,1,0,,,,,,,,,,,,,,,,,,,,,,,,,,,,,,,,,,,,,,,,,,,,,,,,,,,,,,,,,,,,,,,1951.3049672429988,None,1951.3049672429988,None,1951.3049672429988,None,h,1,0.8763366519997362,1952.8555507219971,None,1952.8555507219971,None,1952.8555507219971,None,1953.7933797529986,None,1953.7933797529986,None,1953.7933797529986,None,1953.7933797529986,None,,,,,,,,,,,,,,,,,,,,,,,,,,,,,,,,,,,,,,,,,,,,001,137,2020_Feb_18_1410,spring_faces,3.1.5,60.03669334654842,
condition files/Stage0b_2.xlsx,0b,beta,none,g,"['h', 'g']","['Chess', 'Go']","[-0.15, 0.5]","[0.15, 0.5]",1,0,0,7,7,7,0,0,0,1,,,,,,,,,,,,,,,,,,,,,,,,,,,,,,,,,,,,,,,,,,,,,,,,,,,,,,,,,,,,,,,1955.7727196819978,None,1955.7727196819978,None,1955.7727196819978,None,g,1,0.9711467719971552,1957.2887350009987,None,1957.2887350009987,None,1957.2887350009987,None,1958.3218953729993,None,1958.3218953729993,None,1958.3218953729993,None,1958.3218953729993,None,,,,,,,,,,,,,,,,,,,,,,,,,,,,,,,,,,,,,,,,,,,,001,137,2020_Feb_18_1410,spring_faces,3.1.5,60.03669334654842,
condition files/Stage0b_2.xlsx,0b,none,alpha,h,"['h', 'g']","['Chess', 'Go']","[-0.15, 0.5]","[0.15, 0.5]",0,1,0,7,7,7,0,1,1,0,,,,,,,,,,,,,,,,,,,,,,,,,,,,,,,,,,,,,,,,,,,,,,,,,,,,,,,,,,,,,,,1960.288753367,None,1960.288753367,None,1960.288753367,None,h,1,0.7407102340002893,1961.8392047529996,None,1961.8392047529996,None,1961.8392047529996,None,1962.644945320997,None,1962.644945320997,None,1962.644945320997,None,1962.644945320997,None,,,,,,,,,,,,,,,,,,,,,,,,,,,,,,,,,,,,,,,,,,,,001,137,2020_Feb_18_1410,spring_faces,3.1.5,60.03669334654842,
condition files/Stage0b_1.xlsx,0b,none,beta,g,"['h', 'g']","['Chess', 'Go']","[-0.15, 0.5]","[0.15, 0.5]",0,1,0,8,8,8,0,0,0,1,,,,,,,,,,,,,,,,,,,,,,,,,,,,,,,,,,,,,,,,,,,,,,,,,,,,,,,,,,,,,,,1964.6224217819981,None,1964.6224217819981,None,1964.6224217819981,None,g,1,0.9356557770006475,1966.1562057889969,None,1966.1562057889969,None,1966.1562057889969,None,1967.1551937779986,None,1967.1551937779986,None,1967.1551937779986,None,1967.1551937779986,None,,,,,,,,,,,,,,,,,,,,,,,,,,,,,,,,,,,,,,,,,,,,001,137,2020_Feb_18_1410,spring_faces,3.1.5,60.03669334654842,
condition files/Stage0b_1.xlsx,0b,alpha,none,h,"['h', 'g']","['Chess', 'Go']","[-0.15, 0.5]","[0.15, 0.5]",1,0,0,8,8,8,0,1,1,0,,,,,,,,,,,,,,,,,,,,,,,,,,,,,,,,,,,,,,,,,,,,,,,,,,,,,,,,,,,,,,,1969.122765652999,None,1969.122765652999,None,1969.122765652999,None,h,1,0.7383075590005319,1970.6735831769984,None,1970.6735831769984,None,1970.6735831769984,None,1971.4893857689967,None,1971.4893857689967,None,1971.4893857689967,None,1971.4893857689967,None,,,,,,,,,,,,,,,,,,,,,,,,,,,,,,,,,,,,,,,,,,,,001,137,2020_Feb_18_1410,spring_faces,3.1.5,60.03669334654842,
condition files/Stage0b_2.xlsx,0b,beta,none,g,"['h', 'g']","['Chess', 'Go']","[-0.15, 0.5]","[0.15, 0.5]",1,0,0,9,9,9,0,0,0,1,,,,,,,,,,,,,,,,,,,,,,,,,,,,,,,,,,,,,,,,,,,,,,,,,,,,,,,,,,,,,,,1973.4557516749992,None,1973.4557516749992,None,1973.4557516749992,None,g,1,0.7746035839991237,1974.9893444679983,None,1974.9893444679983,None,1974.9893444679983,None,1975.8228172849995,None,1975.8228172849995,None,1975.8228172849995,None,1975.8228172849995,None,,,,,,,,,,,,,,,,,,,,,,,,,,,,,,,,,,,,,,,,,,,,001,137,2020_Feb_18_1410,spring_faces,3.1.5,60.03669334654842,
condition files/Stage0b_2.xlsx,0b,none,alpha,h,"['h', 'g']","['Chess', 'Go']","[-0.15, 0.5]","[0.15, 0.5]",0,1,0,9,9,9,0,1,1,0,,,,,,,,,,,,,,,,,,,,,,,,,,,,,,,,,,,,,,,,,,,,,,,,,,,,,,,,,,,,,,,1977.7890133239998,None,1977.7890133239998,None,1977.7890133239998,None,h,1,0.9489233690001129,1979.326956703997,None,1979.326956703997,None,1979.326956703997,None,1980.355901275998,None,1980.355901275998,None,1980.355901275998,None,1980.355901275998,None,,,,,,,,,,,,,,,,,,,,,,,,,,,,,,,,,,,,,,,,,,,,001,137,2020_Feb_18_1410,spring_faces,3.1.5,60.03669334654842,
condition files/Stage0b_1.xlsx,0b,none,beta,g,"['h', 'g']","['Chess', 'Go']","[-0.15, 0.5]","[0.15, 0.5]",0,1,0,10,10,10,0,0,0,1,,,,,,,,,,,,,,,,,,,,,,,,,,,,,,,,,,,,,,,,,,,,,,,,,,,,,,,,,,,,,,,1982.3227127109967,None,1982.3227127109967,None,1982.3227127109967,None,g,1,1.1556816060001438,1983.8561789009982,None,1983.8561789009982,None,1983.8561789009982,None,1985.0722501049968,None,1985.0722501049968,None,1985.0722501049968,None,1985.0722501049968,None,,,,,,,,,,,,,,,,,,,,,,,,,,,,,,,,,,,,,,,,,,,,001,137,2020_Feb_18_1410,spring_faces,3.1.5,60.03669334654842,
condition files/Stage0b_1.xlsx,0b,alpha,none,h,"['h', 'g']","['Chess', 'Go']","[-0.15, 0.5]","[0.15, 0.5]",1,0,0,10,10,10,0,1,1,0,,,,,,,,,,,,,,,,,,,,,,,,,,,,,,,,,,,,,,,,,,,,,,,,,,,,,,,,,,,,,,,1987.0389483309991,None,1987.0389483309991,None,1987.0389483309991,None,h,1,0.806853513000533,1988.5890571479977,None,1988.5890571479977,None,1988.5890571479977,None,1989.4616285699994,None,1989.4616285699994,None,1989.4616285699994,None,1989.4616285699994,None,,,,,,,,,,,,,,,,,,,,,,,,,,,,,,,,,,,,,,,,,,,,001,137,2020_Feb_18_1410,spring_faces,3.1.5,60.03669334654842,
condition files/Stage0b_2.xlsx,0b,none,alpha,h,"['h', 'g']","['Chess', 'Go']","[-0.15, 0.5]","[0.15, 0.5]",0,1,0,11,11,11,0,0,0,0,,,,,,,,,,,,,,,,,,,,,,,,,,,,,,,,,,,,,,,,,,,,,,,,,,,,,,,,,,,,,,,1991.4390798519998,None,1991.4390798519998,None,1991.4390798519998,None,h,1,1.186490074996982,1992.977439643997,None,1992.977439643997,None,1992.977439643997,None,1994.2215517849982,None,1994.2215517849982,None,1994.2215517849982,None,1994.2215517849982,None,,,,,,,,,,,,,,,,,,,,,,,,,,,,,,,,,,,,,,,,,,,,001,137,2020_Feb_18_1410,spring_faces,3.1.5,60.03669334654842,
condition files/Stage0b_2.xlsx,0b,beta,none,g,"['h', 'g']","['Chess', 'Go']","[-0.15, 0.5]","[0.15, 0.5]",1,0,0,11,11,11,0,1,1,1,,,,,,,,,,,,,,,,,,,,,,,,,,,,,,,,,,,,,,,,,,,,,,,,,,,,,,,,,,,,,,,1996.1883198189971,None,1996.1883198189971,None,1996.1883198189971,None,g,1,0.8565715099975932,1997.7393292609995,None,1997.7393292609995,None,1997.7393292609995,None,1998.656913603998,None,1998.656913603998,None,1998.656913603998,None,1998.656913603998,None,,,,,,,,,,,,,,,,,,,,,,,,,,,,,,,,,,,,,,,,,,,,001,137,2020_Feb_18_1410,spring_faces,3.1.5,60.03669334654842,
condition files/Stage0c_1.xlsx,0c,beta,theta,g,"['h', 'g']","['Chess', 'Go']","[-0.15, 0.5]","[0.15, 0.5]",1,1,0,12,12,12,0,0,0,2,,,,,,,,,,,,,,,,,,,,,,,,,,,,,,,,,,,,,,,,,,,,,,,,,,,,,,,,,,,,,,,2000.6389991539982,None,2000.6389991539982,None,2000.6389991539982,None,g,1,2.8711739770005806,2002.1727223749986,None,2002.1727223749986,None,2002.1727223749986,None,2005.1059829849983,None,2005.1059829849983,None,2005.1059829849983,None,2005.1059829849983,None,,,,,,,,,,,,,,,,,,,,,,,,,,,,,,,,,,,,,,,,,,,,001,137,2020_Feb_18_1410,spring_faces,3.1.5,60.03669334654842,
condition files/Stage0c_1.xlsx,0c,theta,alpha,h,"['h', 'g']","['Chess', 'Go']","[-0.15, 0.5]","[0.15, 0.5]",1,1,0,12,12,12,0,1,1,0,,,,,,,,,,,,,,,,,,,,,,,,,,,,,,,,,,,,,,,,,,,,,,,,,,,,,,,,,,,,,,,2007.0720982369967,None,2007.0720982369967,None,2007.0720982369967,None,h,1,1.3014540969998052,2008.6064065229984,None,2008.6064065229984,None,2008.6064065229984,None,2009.972750932,None,2009.972750932,None,2009.972750932,None,2009.972750932,None,,,,,,,,,,,,,,,,,,,,,,,,,,,,,,,,,,,,,,,,,,,,001,137,2020_Feb_18_1410,spring_faces,3.1.5,60.03669334654842,
condition files/Stage0c_1.xlsx,0c,phi,beta,g,"['h', 'g']","['Chess', 'Go']","[-0.15, 0.5]","[0.15, 0.5]",1,1,0,12,12,12,0,2,2,3,,,,,,,,,,,,,,,,,,,,,,,,,,,,,,,,,,,,,,,,,,,,,,,,,,,,,,,,,,,,,,,2011.9386478409979,None,2011.9386478409979,None,2011.9386478409979,None,g,1,1.2347802559997945,2013.4730289949985,None,2013.4730289949985,None,2013.4730289949985,None,2014.7726442629973,None,2014.7726442629973,None,2014.7726442629973,None,2014.7726442629973,None,,,,,,,,,,,,,,,,,,,,,,,,,,,,,,,,,,,,,,,,,,,,001,137,2020_Feb_18_1410,spring_faces,3.1.5,60.03669334654842,
condition files/Stage0c_1.xlsx,0c,alpha,phi,h,"['h', 'g']","['Chess', 'Go']","[-0.15, 0.5]","[0.15, 0.5]",1,1,0,12,12,12,0,3,3,1,,,,,,,,,,,,,,,,,,,,,,,,,,,,,,,,,,,,,,,,,,,,,,,,,,,,,,,,,,,,,,,2016.738684093998,None,2016.738684093998,None,2016.738684093998,None,h,1,1.4752589210002043,2018.2726551479973,None,2018.2726551479973,None,2018.2726551479973,None,2019.8057663869986,None,2019.8057663869986,None,2019.8057663869986,None,2019.8057663869986,None,,,,,,,,,,,,,,,,,,,,,,,,,,,,,,,,,,,,,,,,,,,,001,137,2020_Feb_18_1410,spring_faces,3.1.5,60.03669334654842,
condition files/Stage0c_2.xlsx,0c,alpha,theta,h,"['h', 'g']","['Chess', 'Go']","[-0.15, 0.5]","[0.15, 0.5]",1,1,0,13,13,13,0,0,0,0,,,,,,,,,,,,,,,,,,,,,,,,,,,,,,,,,,,,,,,,,,,,,,,,,,,,,,,,,,,,,,,2021.7891407239986,None,2021.7891407239986,None,2021.7891407239986,None,h,1,1.0010704749984143,2023.322772399999,None,2023.322772399999,None,2023.322772399999,None,2024.3751931029983,None,2024.3751931029983,None,2024.3751931029983,None,2024.3751931029983,None,,,,,,,,,,,,,,,,,,,,,,,,,,,,,,,,,,,,,,,,,,,,001,137,2020_Feb_18_1410,spring_faces,3.1.5,60.03669334654842,
condition files/Stage0c_2.xlsx,0c,phi,alpha,h,"['h', 'g']","['Chess', 'Go']","[-0.15, 0.5]","[0.15, 0.5]",1,1,0,13,13,13,0,1,1,1,,,,,,,,,,,,,,,,,,,,,,,,,,,,,,,,,,,,,,,,,,,,,,,,,,,,,,,,,,,,,,,2026.3549616459968,None,2026.3549616459968,None,2026.3549616459968,None,h,1,1.1872092689991405,2027.8886763219998,None,2027.8886763219998,None,2027.8886763219998,None,2029.125672967999,None,2029.125672967999,None,2029.125672967999,None,2029.125672967999,None,,,,,,,,,,,,,,,,,,,,,,,,,,,,,,,,,,,,,,,,,,,,001,137,2020_Feb_18_1410,spring_faces,3.1.5,60.03669334654842,
condition files/Stage0c_2.xlsx,0c,theta,beta,g,"['h', 'g']","['Chess', 'Go']","[-0.15, 0.5]","[0.15, 0.5]",1,1,0,13,13,13,0,2,2,2,,,,,,,,,,,,,,,,,,,,,,,,,,,,,,,,,,,,,,,,,,,,,,,,,,,,,,,,,,,,,,,2031.1061806949983,None,2031.1061806949983,None,2031.1061806949983,None,h,0,0.9484872039975016,2032.6394011489974,None,2032.6394011489974,None,2032.6394011489974,None,2033.6391859199975,None,2033.6391859199975,None,2033.6391859199975,None,2033.6391859199975,None,,,,,,,,,,,,,,,,,,,,,,,,,,,,,,,,,,,,,,,,,,,,001,137,2020_Feb_18_1410,spring_faces,3.1.5,60.03669334654842,
condition files/Stage0c_2.xlsx,0c,beta,phi,g,"['h', 'g']","['Chess', 'Go']","[-0.15, 0.5]","[0.15, 0.5]",1,1,0,13,13,13,0,3,3,3,,,,,,,,,,,,,,,,,,,,,,,,,,,,,,,,,,,,,,,,,,,,,,,,,,,,,,,,,,,,,,,2035.6054015369991,None,2035.6054015369991,None,2035.6054015369991,None,g,1,4.736588480998762,2037.1392938719982,None,2037.1392938719982,None,2037.1392938719982,None,2041.9240010299982,None,2041.9240010299982,None,2041.9240010299982,None,2041.9240010299982,None,,,,,,,,,,,,,,,,,,,,,,,,,,,,,,,,,,,,,,,,,,,,001,137,2020_Feb_18_1410,spring_faces,3.1.5,60.03669334654842,
condition files/Stage0c_1.xlsx,0c,theta,alpha,h,"['h', 'g']","['Chess', 'Go']","[-0.15, 0.5]","[0.15, 0.5]",1,1,0,14,14,14,0,0,0,0,,,,,,,,,,,,,,,,,,,,,,,,,,,,,,,,,,,,,,,,,,,,,,,,,,,,,,,,,,,,,,,2043.9226825039987,None,2043.9226825039987,None,2043.9226825039987,None,h,1,1.0598629230007646,2045.4560586909975,None,2045.4560586909975,None,2045.4560586909975,None,2046.572413742997,None,2046.572413742997,None,2046.572413742997,None,2046.572413742997,None,,,,,,,,,,,,,,,,,,,,,,,,,,,,,,,,,,,,,,,,,,,,001,137,2020_Feb_18_1410,spring_faces,3.1.5,60.03669334654842,
condition files/Stage0c_1.xlsx,0c,alpha,phi,h,"['h', 'g']","['Chess', 'Go']","[-0.15, 0.5]","[0.15, 0.5]",1,1,0,14,14,14,0,1,1,1,,,,,,,,,,,,,,,,,,,,,,,,,,,,,,,,,,,,,,,,,,,,,,,,,,,,,,,,,,,,,,,2048.5390830899996,None,2048.5390830899996,None,2048.5390830899996,None,h,1,0.9712255240010563,2050.0726501399986,None,2050.0726501399986,None,2050.0726501399986,None,2051.0901931809967,None,2051.0901931809967,None,2051.0901931809967,None,2051.0901931809967,None,,,,,,,,,,,,,,,,,,,,,,,,,,,,,,,,,,,,,,,,,,,,001,137,2020_Feb_18_1410,spring_faces,3.1.5,60.03669334654842,
condition files/Stage0c_1.xlsx,0c,phi,beta,g,"['h', 'g']","['Chess', 'Go']","[-0.15, 0.5]","[0.15, 0.5]",1,1,0,14,14,14,0,2,2,3,,,,,,,,,,,,,,,,,,,,,,,,,,,,,,,,,,,,,,,,,,,,,,,,,,,,,,,,,,,,,,,2053.0721890679997,None,2053.0721890679997,None,2053.0721890679997,None,g,1,1.429890383999009,2054.606084310999,None,2054.606084310999,None,2054.606084310999,None,2056.089144014997,None,2056.089144014997,None,2056.089144014997,None,2056.089144014997,None,,,,,,,,,,,,,,,,,,,,,,,,,,,,,,,,,,,,,,,,,,,,001,137,2020_Feb_18_1410,spring_faces,3.1.5,60.03669334654842,
condition files/Stage0c_1.xlsx,0c,beta,theta,g,"['h', 'g']","['Chess', 'Go']","[-0.15, 0.5]","[0.15, 0.5]",1,1,0,14,14,14,0,3,3,2,,,,,,,,,,,,,,,,,,,,,,,,,,,,,,,,,,,,,,,,,,,,,,,,,,,,,,,,,,,,,,,2058.057704980998,None,2058.057704980998,None,2058.057704980998,None,g,1,0.9745555970002897,2059.5893593129986,None,2059.5893593129986,None,2059.5893593129986,None,2060.6072802829985,None,2060.6072802829985,None,2060.6072802829985,None,2060.6072802829985,None,,,,,,,,,,,,,,,,,,,,,,,,,,,,,,,,,,,,,,,,,,,,001,137,2020_Feb_18_1410,spring_faces,3.1.5,60.03669334654842,
condition files/Stage0c_2.xlsx,0c,theta,beta,g,"['h', 'g']","['Chess', 'Go']","[-0.15, 0.5]","[0.15, 0.5]",1,1,0,15,15,15,0,0,0,2,,,,,,,,,,,,,,,,,,,,,,,,,,,,,,,,,,,,,,,,,,,,,,,,,,,,,,,,,,,,,,,2062.605319151997,None,2062.605319151997,None,2062.605319151997,None,g,1,0.7125376030016923,2064.139292418,None,2064.139292418,None,2064.139292418,None,2064.892097914999,None,2064.892097914999,None,2064.892097914999,None,2064.892097914999,None,,,,,,,,,,,,,,,,,,,,,,,,,,,,,,,,,,,,,,,,,,,,001,137,2020_Feb_18_1410,spring_faces,3.1.5,60.03669334654842,
condition files/Stage0c_2.xlsx,0c,phi,alpha,h,"['h', 'g']","['Chess', 'Go']","[-0.15, 0.5]","[0.15, 0.5]",1,1,0,15,15,15,0,1,1,1,,,,,,,,,,,,,,,,,,,,,,,,,,,,,,,,,,,,,,,,,,,,,,,,,,,,,,,,,,,,,,,2066.8727705389974,None,2066.8727705389974,None,2066.8727705389974,None,h,1,0.974080796000635,2068.4058352959983,None,2068.4058352959983,None,2068.4058352959983,None,2069.4394101159996,None,2069.4394101159996,None,2069.4394101159996,None,2069.4394101159996,None,,,,,,,,,,,,,,,,,,,,,,,,,,,,,,,,,,,,,,,,,,,,001,137,2020_Feb_18_1410,spring_faces,3.1.5,60.03669334654842,
condition files/Stage0c_2.xlsx,0c,alpha,theta,h,"['h', 'g']","['Chess', 'Go']","[-0.15, 0.5]","[0.15, 0.5]",1,1,0,15,15,15,0,2,2,0,,,,,,,,,,,,,,,,,,,,,,,,,,,,,,,,,,,,,,,,,,,,,,,,,,,,,,,,,,,,,,,2071.405699736999,None,2071.405699736999,None,2071.405699736999,None,h,1,1.6404612320002343,2072.9394461579977,None,2072.9394461579977,None,2072.9394461579977,None,2074.6243993589997,None,2074.6243993589997,None,2074.6243993589997,None,2074.6243993589997,None,,,,,,,,,,,,,,,,,,,,,,,,,,,,,,,,,,,,,,,,,,,,001,137,2020_Feb_18_1410,spring_faces,3.1.5,60.03669334654842,
condition files/Stage0c_2.xlsx,0c,beta,phi,g,"['h', 'g']","['Chess', 'Go']","[-0.15, 0.5]","[0.15, 0.5]",1,1,0,15,15,15,0,3,3,3,,,,,,,,,,,,,,,,,,,,,,,,,,,,,,,,,,,,,,,,,,,,,,,,,,,,,,,,,,,,,,,2076.605453336997,None,2076.605453336997,None,2076.605453336997,None,g,1,1.0162942630013276,2078.139572922999,None,2078.139572922999,None,2078.139572922999,None,2079.2059479769996,None,2079.2059479769996,None,2079.2059479769996,None,2079.2059479769996,None,,,,,,,,,,,,,,,,,,,,,,,,,,,,,,,,,,,,,,,,,,,,001,137,2020_Feb_18_1410,spring_faces,3.1.5,60.03669334654842,
condition files/Stage0c_1.xlsx,0c,beta,theta,g,"['h', 'g']","['Chess', 'Go']","[-0.15, 0.5]","[0.15, 0.5]",1,1,0,16,16,16,0,0,0,2,,,,,,,,,,,,,,,,,,,,,,,,,,,,,,,,,,,,,,,,,,,,,,,,,,,,,,,,,,,,,,,2081.189002985997,None,2081.189002985997,None,2081.189002985997,None,g,1,1.6173427749999973,2082.7225013589996,None,2082.7225013589996,None,2082.7225013589996,None,2084.389703589997,None,2084.389703589997,None,2084.389703589997,None,2084.389703589997,None,,,,,,,,,,,,,,,,,,,,,,,,,,,,,,,,,,,,,,,,,,,,001,137,2020_Feb_18_1410,spring_faces,3.1.5,60.03669334654842,
condition files/Stage0c_1.xlsx,0c,alpha,phi,h,"['h', 'g']","['Chess', 'Go']","[-0.15, 0.5]","[0.15, 0.5]",1,1,0,16,16,16,0,1,1,1,,,,,,,,,,,,,,,,,,,,,,,,,,,,,,,,,,,,,,,,,,,,,,,,,,,,,,,,,,,,,,,2086.372453648997,None,2086.372453648997,None,2086.372453648997,None,h,1,0.9298896869986493,2087.906013115,None,2087.906013115,None,2087.906013115,None,2088.8894333159988,None,2088.8894333159988,None,2088.8894333159988,None,2088.8894333159988,None,,,,,,,,,,,,,,,,,,,,,,,,,,,,,,,,,,,,,,,,,,,,001,137,2020_Feb_18_1410,spring_faces,3.1.5,60.03669334654842,
condition files/Stage0c_1.xlsx,0c,theta,alpha,h,"['h', 'g']","['Chess', 'Go']","[-0.15, 0.5]","[0.15, 0.5]",1,1,0,16,16,16,0,2,2,0,,,,,,,,,,,,,,,,,,,,,,,,,,,,,,,,,,,,,,,,,,,,,,,,,,,,,,,,,,,,,,,2090.855718374998,None,2090.855718374998,None,2090.855718374998,None,h,1,2.318850116000249,2092.3890125439975,None,2092.3890125439975,None,2092.3890125439975,None,2094.7575970459984,None,2094.7575970459984,None,2094.7575970459984,None,2094.7575970459984,None,,,,,,,,,,,,,,,,,,,,,,,,,,,,,,,,,,,,,,,,,,,,001,137,2020_Feb_18_1410,spring_faces,3.1.5,60.03669334654842,
condition files/Stage0c_1.xlsx,0c,phi,beta,g,"['h', 'g']","['Chess', 'Go']","[-0.15, 0.5]","[0.15, 0.5]",1,1,0,16,16,16,0,3,3,3,,,,,,,,,,,,,,,,,,,,,,,,,,,,,,,,,,,,,,,,,,,,,,,,,,,,,,,,,,,,,,,2096.7393087469973,None,2096.7393087469973,None,2096.7393087469973,None,g,1,1.2673975500001688,2098.2724285339973,None,2098.2724285339973,None,2098.2724285339973,None,2099.6062207199975,None,2099.6062207199975,None,2099.6062207199975,None,2099.6062207199975,None,,,,,,,,,,,,,,,,,,,,,,,,,,,,,,,,,,,,,,,,,,,,001,137,2020_Feb_18_1410,spring_faces,3.1.5,60.03669334654842,
condition files/Stage0c_2.xlsx,0c,beta,phi,g,"['h', 'g']","['Chess', 'Go']","[-0.15, 0.5]","[0.15, 0.5]",1,1,0,17,17,17,0,0,0,3,,,,,,,,,,,,,,,,,,,,,,,,,,,,,,,,,,,,,,,,,,,,,,,,,,,,,,,,,,,,,,,2101.5896210479987,None,2101.5896210479987,None,2101.5896210479987,None,g,1,1.6495027820019459,2103.1224011649974,None,2103.1224011649974,None,2103.1224011649974,None,2104.8080391489966,None,2104.8080391489966,None,2104.8080391489966,None,2104.8080391489966,None,,,,,,,,,,,,,,,,,,,,,,,,,,,,,,,,,,,,,,,,,,,,001,137,2020_Feb_18_1410,spring_faces,3.1.5,60.03669334654842,
condition files/Stage0c_2.xlsx,0c,theta,beta,g,"['h', 'g']","['Chess', 'Go']","[-0.15, 0.5]","[0.15, 0.5]",1,1,0,17,17,17,0,1,1,2,,,,,,,,,,,,,,,,,,,,,,,,,,,,,,,,,,,,,,,,,,,,,,,,,,,,,,,,,,,,,,,2106.7884517289967,None,2106.7884517289967,None,2106.7884517289967,None,g,1,1.1692215080001915,2108.322644710999,None,2108.322644710999,None,2108.322644710999,None,2109.540940024999,None,2109.540940024999,None,2109.540940024999,None,2109.540940024999,None,,,,,,,,,,,,,,,,,,,,,,,,,,,,,,,,,,,,,,,,,,,,001,137,2020_Feb_18_1410,spring_faces,3.1.5,60.03669334654842,
condition files/Stage0c_2.xlsx,0c,alpha,theta,h,"['h', 'g']","['Chess', 'Go']","[-0.15, 0.5]","[0.15, 0.5]",1,1,0,17,17,17,0,2,2,0,,,,,,,,,,,,,,,,,,,,,,,,,,,,,,,,,,,,,,,,,,,,,,,,,,,,,,,,,,,,,,,2111.522106324999,None,2111.522106324999,None,2111.522106324999,None,h,1,1.5721387170015078,2113.055762754,None,2113.055762754,None,2113.055762754,None,2114.689078520998,None,2114.689078520998,None,2114.689078520998,None,2114.689078520998,None,,,,,,,,,,,,,,,,,,,,,,,,,,,,,,,,,,,,,,,,,,,,001,137,2020_Feb_18_1410,spring_faces,3.1.5,60.03669334654842,
condition files/Stage0c_2.xlsx,0c,phi,alpha,h,"['h', 'g']","['Chess', 'Go']","[-0.15, 0.5]","[0.15, 0.5]",1,1,0,17,17,17,0,3,3,1,,,,,,,,,,,,,,,,,,,,,,,,,,,,,,,,,,,,,,,,,,,,,,,,,,,,,,,,,,,,,,,2116.655260591997,None,2116.655260591997,None,2116.655260591997,None,h,1,1.6553138670024055,2118.188568321999,None,2118.188568321999,None,2118.188568321999,None,2119.891207515997,None,2119.891207515997,None,2119.891207515997,None,2119.891207515997,None,,,,,,,,,,,,,,,,,,,,,,,,,,,,,,,,,,,,,,,,,,,,001,137,2020_Feb_18_1410,spring_faces,3.1.5,60.03669334654842,
,,,,,,,,,,,,,,,,,,,,,,,,,,,,,,,,,,,,,,,,,,,,,,,,,,,,,,,,,,,,,,,,,,,,,,,,,,,,,,,,,,,,,,,,,,,,,,,,,,,,,,,,2121.889185748998,None,space,3.6106344389991136,2126.889310281,None,,,,,,,,,,,,,,,,,,,,,,,,,,,,,,,,,,,,,,001,137,2020_Feb_18_1410,spring_faces,3.1.5,60.03669334654842,
condition files/Stage1_1.xlsx,,B1,T2,c,"['c', 'm']","['Clue', 'Monopoly']","[-0.15, 0.5]","[0.15, 0.5]",1,1,,,,,,,,,0,0,0,0,0,0,0,1,,,,,,,,,,,,,,,,,,,,,,,,,,,,,,,,,,,,,,,,,,,,,,,,,,,,,,,2130.555410142999,None,2130.555410142999,None,2130.555410142999,None,c,1,2.024645535999298,2132.139282903998,None,2132.139282903998,None,2132.139282903998,None,2134.239188407999,None,2134.239188407999,None,2134.239188407999,None,2134.239188407999,None,,,,,,,2126.889310281,None,,,,,,,,,,,,,,,,,,,,,,,,,,,,,,,,,,,,001,137,2020_Feb_18_1410,spring_faces,3.1.5,60.03669334654842,
condition files/Stage1_1.xlsx,,B2,T1,m,"['c', 'm']","['Clue', 'Monopoly']","[-0.15, 0.5]","[0.15, 0.5]",1,1,,,,,,,,,0,0,0,0,0,1,1,2,,,,,,,,,,,,,,,,,,,,,,,,,,,,,,,,,,,,,,,,,,,,,,,,,,,,,,,2136.1889710029973,None,2136.1889710029973,None,2136.1889710029973,None,c,0,1.368516272999841,2137.7393524269974,None,2137.7393524269974,None,2137.7393524269974,None,2139.1745810529974,None,2139.1745810529974,None,2139.1745810529974,None,2139.1745810529974,None,,,,,,,,,,,,,,,,,,,,,,,,,,,,,,,,,,,,,,,,,,,,001,137,2020_Feb_18_1410,spring_faces,3.1.5,60.03669334654842,
condition files/Stage1_1.xlsx,,T4,B3,m,"['c', 'm']","['Clue', 'Monopoly']","[-0.15, 0.5]","[0.15, 0.5]",1,1,,,,,,,,,0,0,0,0,0,2,2,6,,,,,,,,,,,,,,,,,,,,,,,,,,,,,,,,,,,,,,,,,,,,,,,,,,,,,,,2141.1389850019987,None,2141.1389850019987,None,2141.1389850019987,None,c,0,3.682214866999857,2142.673709720999,None,2142.673709720999,None,2142.673709720999,None,2146.405702295,None,2146.405702295,None,2146.405702295,None,2146.405702295,None,,,,,,,,,,,,,,,,,,,,,,,,,,,,,,,,,,,,,,,,,,,,001,137,2020_Feb_18_1410,spring_faces,3.1.5,60.03669334654842,
condition files/Stage1_1.xlsx,,B4,T4,m,"['c', 'm']","['Clue', 'Monopoly']","[-0.15, 0.5]","[0.15, 0.5]",1,1,,,,,,,,,0,0,0,0,0,3,3,7,,,,,,,,,,,,,,,,,,,,,,,,,,,,,,,,,,,,,,,,,,,,,,,,,,,,,,,2148.371850716998,None,2148.371850716998,None,2148.371850716998,None,m,1,3.0572263649992237,2149.9226697119993,None,2149.9226697119993,None,2149.9226697119993,None,2153.038780380997,None,2153.038780380997,None,2153.038780380997,None,2153.038780380997,None,,,,,,,,,,,,,,,,,,,,,,,,,,,,,,,,,,,,,,,,,,,,001,137,2020_Feb_18_1410,spring_faces,3.1.5,60.03669334654842,
condition files/Stage1_1.xlsx,,T1,B1,c,"['c', 'm']","['Clue', 'Monopoly']","[-0.15, 0.5]","[0.15, 0.5]",1,1,,,,,,,,,0,0,0,0,0,4,4,0,,,,,,,,,,,,,,,,,,,,,,,,,,,,,,,,,,,,,,,,,,,,,,,,,,,,,,,2155.0059484469966,None,2155.0059484469966,None,2155.0059484469966,None,c,1,1.207899458000611,2156.5560020019984,None,2156.5560020019984,None,2156.5560020019984,None,2157.8245568489983,None,2157.8245568489983,None,2157.8245568489983,None,2157.8245568489983,None,,,,,,,,,,,,,,,,,,,,,,,,,,,,,,,,,,,,,,,,,,,,001,137,2020_Feb_18_1410,spring_faces,3.1.5,60.03669334654842,
condition files/Stage1_1.xlsx,,T2,B2,m,"['c', 'm']","['Clue', 'Monopoly']","[-0.15, 0.5]","[0.15, 0.5]",1,1,,,,,,,,,0,0,0,0,0,5,5,3,,,,,,,,,,,,,,,,,,,,,,,,,,,,,,,,,,,,,,,,,,,,,,,,,,,,,,,2159.788725921997,None,2159.788725921997,None,2159.788725921997,None,m,1,2.3444447740002943,2161.3393710559976,None,2161.3393710559976,None,2161.3393710559976,None,2163.7561459869976,None,2163.7561459869976,None,2163.7561459869976,None,2163.7561459869976,None,,,,,,,,,,,,,,,,,,,,,,,,,,,,,,,,,,,,,,,,,,,,001,137,2020_Feb_18_1410,spring_faces,3.1.5,60.03669334654842,
condition files/Stage1_1.xlsx,,T3,B4,c,"['c', 'm']","['Clue', 'Monopoly']","[-0.15, 0.5]","[0.15, 0.5]",1,1,,,,,,,,,0,0,0,0,0,6,6,5,,,,,,,,,,,,,,,,,,,,,,,,,,,,,,,,,,,,,,,,,,,,,,,,,,,,,,,2165.7056009259977,None,2165.7056009259977,None,2165.7056009259977,None,c,1,1.7546458700016956,2167.2892391159985,None,2167.2892391159985,None,2167.2892391159985,None,2169.1053949689995,None,2169.1053949689995,None,2169.1053949689995,None,2169.1053949689995,None,,,,,,,,,,,,,,,,,,,,,,,,,,,,,,,,,,,,,,,,,,,,001,137,2020_Feb_18_1410,spring_faces,3.1.5,60.03669334654842,
condition files/Stage1_1.xlsx,,B3,T3,c,"['c', 'm']","['Clue', 'Monopoly']","[-0.15, 0.5]","[0.15, 0.5]",1,1,,,,,,,,,0,0,0,0,0,7,7,4,,,,,,,,,,,,,,,,,,,,,,,,,,,,,,,,,,,,,,,,,,,,,,,,,,,,,,,2171.0728887769983,None,2171.0728887769983,None,2171.0728887769983,None,c,1,1.1240112409977883,2172.607923702999,None,2172.607923702999,None,2172.607923702999,None,2173.7887353939986,None,2173.7887353939986,None,2173.7887353939986,None,2173.7887353939986,None,,,,,,,,,,,,,,,,,,,,,,,,,,,,,,,,,,,,,,,,,,,,001,137,2020_Feb_18_1410,spring_faces,3.1.5,60.03669334654842,
condition files/Stage1_2.xlsx,,T4,B4,m,"['c', 'm']","['Clue', 'Monopoly']","[-0.15, 0.5]","[0.15, 0.5]",1,1,,,,,,,,,0,1,1,1,0,0,0,7,,,,,,,,,,,,,,,,,,,,,,,,,,,,,,,,,,,,,,,,,,,,,,,,,,,,,,,2175.7723350199994,None,2175.7723350199994,None,2175.7723350199994,None,m,1,1.4657139299997652,2177.3221846749984,None,2177.3221846749984,None,2177.3221846749984,None,2178.856242390997,None,2178.856242390997,None,2178.856242390997,None,2178.856242390997,None,,,,,,,,,,,,,,,,,,,,,,,,,,,,,,,,,,,,,,,,,,,,001,137,2020_Feb_18_1410,spring_faces,3.1.5,60.03669334654842,
condition files/Stage1_2.xlsx,,B1,T1,c,"['c', 'm']","['Clue', 'Monopoly']","[-0.15, 0.5]","[0.15, 0.5]",1,1,,,,,,,,,0,1,1,1,0,1,1,0,,,,,,,,,,,,,,,,,,,,,,,,,,,,,,,,,,,,,,,,,,,,,,,,,,,,,,,2180.8050783599974,None,2180.8050783599974,None,2180.8050783599974,None,c,1,1.872066577001533,2182.3558120099988,None,2182.3558120099988,None,2182.3558120099988,None,2184.2914746809984,None,2184.2914746809984,None,2184.2914746809984,None,2184.2914746809984,None,,,,,,,,,,,,,,,,,,,,,,,,,,,,,,,,,,,,,,,,,,,,001,137,2020_Feb_18_1410,spring_faces,3.1.5,60.03669334654842,
condition files/Stage1_2.xlsx,,T2,B1,c,"['c', 'm']","['Clue', 'Monopoly']","[-0.15, 0.5]","[0.15, 0.5]",1,1,,,,,,,,,0,1,1,1,0,2,2,1,,,,,,,,,,,,,,,,,,,,,,,,,,,,,,,,,,,,,,,,,,,,,,,,,,,,,,,2186.2555857089974,None,2186.2555857089974,None,2186.2555857089974,None,c,1,1.8140031600014481,2187.8058407699973,None,2187.8058407699973,None,2187.8058407699973,None,2189.6723640359996,None,2189.6723640359996,None,2189.6723640359996,None,2189.6723640359996,None,,,,,,,,,,,,,,,,,,,,,,,,,,,,,,,,,,,,,,,,,,,,001,137,2020_Feb_18_1410,spring_faces,3.1.5,60.03669334654842,
condition files/Stage1_2.xlsx,,T1,B2,m,"['c', 'm']","['Clue', 'Monopoly']","[-0.15, 0.5]","[0.15, 0.5]",1,1,,,,,,,,,0,1,1,1,0,3,3,2,,,,,,,,,,,,,,,,,,,,,,,,,,,,,,,,,,,,,,,,,,,,,,,,,,,,,,,2191.639078152999,None,2191.639078152999,None,2191.639078152999,None,m,1,1.4231373010006791,2193.188736901997,None,2193.188736901997,None,2193.188736901997,None,2194.6896130139976,None,2194.6896130139976,None,2194.6896130139976,None,2194.6896130139976,None,,,,,,,,,,,,,,,,,,,,,,,,,,,,,,,,,,,,,,,,,,,,001,137,2020_Feb_18_1410,spring_faces,3.1.5,60.03669334654842,
condition files/Stage1_2.xlsx,,B2,T2,m,"['c', 'm']","['Clue', 'Monopoly']","[-0.15, 0.5]","[0.15, 0.5]",1,1,,,,,,,,,0,1,1,1,0,4,4,3,,,,,,,,,,,,,,,,,,,,,,,,,,,,,,,,,,,,,,,,,,,,,,,,,,,,,,,2196.6392853889993,None,2196.6392853889993,None,2196.6392853889993,None,m,1,3.207101453001087,2198.1888169979975,None,2198.1888169979975,None,2198.1888169979975,None,2201.4559400649996,None,2201.4559400649996,None,2201.4559400649996,None,2201.4559400649996,None,,,,,,,,,,,,,,,,,,,,,,,,,,,,,,,,,,,,,,,,,,,,001,137,2020_Feb_18_1410,spring_faces,3.1.5,60.03669334654842,
condition files/Stage1_2.xlsx,,B4,T3,c,"['c', 'm']","['Clue', 'Monopoly']","[-0.15, 0.5]","[0.15, 0.5]",1,1,,,,,,,,,0,1,1,1,0,5,5,5,,,,,,,,,,,,,,,,,,,,,,,,,,,,,,,,,,,,,,,,,,,,,,,,,,,,,,,2203.4223281079976,None,2203.4223281079976,None,2203.4223281079976,None,m,0,2.3912217750003038,2204.972705344,None,2204.972705344,None,2204.972705344,None,2207.4224326969997,None,2207.4224326969997,None,2207.4224326969997,None,2207.4224326969997,None,,,,,,,,,,,,,,,,,,,,,,,,,,,,,,,,,,,,,,,,,,,,001,137,2020_Feb_18_1410,spring_faces,3.1.5,60.03669334654842,
condition files/Stage1_2.xlsx,,T3,B3,c,"['c', 'm']","['Clue', 'Monopoly']","[-0.15, 0.5]","[0.15, 0.5]",1,1,,,,,,,,,0,1,1,1,0,6,6,4,,,,,,,,,,,,,,,,,,,,,,,,,,,,,,,,,,,,,,,,,,,,,,,,,,,,,,,2209.389100913999,None,2209.389100913999,None,2209.389100913999,None,m,0,1.367075363999902,2210.924797921998,None,2210.924797921998,None,2210.924797921998,None,2212.3554519129975,None,2212.3554519129975,None,2212.3554519129975,None,2212.3554519129975,None,,,,,,,,,,,,,,,,,,,,,,,,,,,,,,,,,,,,,,,,,,,,001,137,2020_Feb_18_1410,spring_faces,3.1.5,60.03669334654842,
condition files/Stage1_2.xlsx,,B3,T4,m,"['c', 'm']","['Clue', 'Monopoly']","[-0.15, 0.5]","[0.15, 0.5]",1,1,,,,,,,,,0,1,1,1,0,7,7,6,,,,,,,,,,,,,,,,,,,,,,,,,,,,,,,,,,,,,,,,,,,,,,,,,,,,,,,2214.322458448998,None,2214.322458448998,None,2214.322458448998,None,m,1,1.5702411700003722,2215.8576331159966,None,2215.8576331159966,None,2215.8576331159966,None,2217.490473589998,None,2217.490473589998,None,2217.490473589998,None,2217.490473589998,None,,,,,,,,,,,,,,,,,,,,,,,,,,,,,,,,,,,,,,,,,,,,001,137,2020_Feb_18_1410,spring_faces,3.1.5,60.03669334654842,
condition files/Stage1_1.xlsx,,T4,B3,m,"['c', 'm']","['Clue', 'Monopoly']","[-0.15, 0.5]","[0.15, 0.5]",1,1,,,,,,,,,0,2,2,2,0,0,0,6,,,,,,,,,,,,,,,,,,,,,,,,,,,,,,,,,,,,,,,,,,,,,,,,,,,,,,,2219.4729241269997,None,2219.4729241269997,None,2219.4729241269997,None,c,0,1.3653550609997183,2221.0225463319985,None,2221.0225463319985,None,2221.0225463319985,None,2222.439581128998,None,2222.439581128998,None,2222.439581128998,None,2222.439581128998,None,,,,,,,,,,,,,,,,,,,,,,,,,,,,,,,,,,,,,,,,,,,,001,137,2020_Feb_18_1410,spring_faces,3.1.5,60.03669334654842,
condition files/Stage1_1.xlsx,,B2,T1,m,"['c', 'm']","['Clue', 'Monopoly']","[-0.15, 0.5]","[0.15, 0.5]",1,1,,,,,,,,,0,2,2,2,0,1,1,2,,,,,,,,,,,,,,,,,,,,,,,,,,,,,,,,,,,,,,,,,,,,,,,,,,,,,,,2224.4054795699994,None,2224.4054795699994,None,2224.4054795699994,None,c,0,1.9680451239983086,2225.955789735999,None,2225.955789735999,None,2225.955789735999,None,2227.989687633999,None,2227.989687633999,None,2227.989687633999,None,2227.989687633999,None,,,,,,,,,,,,,,,,,,,,,,,,,,,,,,,,,,,,,,,,,,,,001,137,2020_Feb_18_1410,spring_faces,3.1.5,60.03669334654842,
condition files/Stage1_1.xlsx,,B4,T4,m,"['c', 'm']","['Clue', 'Monopoly']","[-0.15, 0.5]","[0.15, 0.5]",1,1,,,,,,,,,0,2,2,2,0,2,2,7,,,,,,,,,,,,,,,,,,,,,,,,,,,,,,,,,,,,,,,,,,,,,,,,,,,,,,,2229.955596257998,None,2229.955596257998,None,2229.955596257998,None,m,1,1.8568656349998491,2231.4910753259974,None,2231.4910753259974,None,2231.4910753259974,None,2233.405957060997,None,2233.405957060997,None,2233.405957060997,None,2233.405957060997,None,,,,,,,,,,,,,,,,,,,,,,,,,,,,,,,,,,,,,,,,,,,,001,137,2020_Feb_18_1410,spring_faces,3.1.5,60.03669334654842,
condition files/Stage1_1.xlsx,,T1,B1,c,"['c', 'm']","['Clue', 'Monopoly']","[-0.15, 0.5]","[0.15, 0.5]",1,1,,,,,,,,,0,2,2,2,0,3,3,0,,,,,,,,,,,,,,,,,,,,,,,,,,,,,,,,,,,,,,,,,,,,,,,,,,,,,,,2235.372556479997,None,2235.372556479997,None,2235.372556479997,None,m,0,2.6492407789992285,2236.922662418998,None,2236.922662418998,None,2236.922662418998,None,2239.6392397499985,None,2239.6392397499985,None,2239.6392397499985,None,2239.6392397499985,None,,,,,,,,,,,,,,,,,,,,,,,,,,,,,,,,,,,,,,,,,,,,001,137,2020_Feb_18_1410,spring_faces,3.1.5,60.03669334654842,
condition files/Stage1_1.xlsx,,B3,T3,c,"['c', 'm']","['Clue', 'Monopoly']","[-0.15, 0.5]","[0.15, 0.5]",1,1,,,,,,,,,0,2,2,2,0,4,4,4,,,,,,,,,,,,,,,,,,,,,,,,,,,,,,,,,,,,,,,,,,,,,,,,,,,,,,,2241.5895802139967,None,2241.5895802139967,None,2241.5895802139967,None,m,0,1.5671396929974435,2243.124759700997,None,2243.124759700997,None,2243.124759700997,None,2244.7557122269973,None,2244.7557122269973,None,2244.7557122269973,None,2244.7557122269973,None,,,,,,,,,,,,,,,,,,,,,,,,,,,,,,,,,,,,,,,,,,,,001,137,2020_Feb_18_1410,spring_faces,3.1.5,60.03669334654842,
condition files/Stage1_1.xlsx,,B1,T2,c,"['c', 'm']","['Clue', 'Monopoly']","[-0.15, 0.5]","[0.15, 0.5]",1,1,,,,,,,,,0,2,2,2,0,5,5,1,,,,,,,,,,,,,,,,,,,,,,,,,,,,,,,,,,,,,,,,,,,,,,,,,,,,,,,2246.722858019999,None,2246.722858019999,None,2246.722858019999,None,c,1,2.4998347140026453,2248.272067193997,None,2248.272067193997,None,2248.272067193997,None,2250.8227211939993,None,2250.8227211939993,None,2250.8227211939993,None,2250.8227211939993,None,,,,,,,,,,,,,,,,,,,,,,,,,,,,,,,,,,,,,,,,,,,,001,137,2020_Feb_18_1410,spring_faces,3.1.5,60.03669334654842,
condition files/Stage1_1.xlsx,,T2,B2,m,"['c', 'm']","['Clue', 'Monopoly']","[-0.15, 0.5]","[0.15, 0.5]",1,1,,,,,,,,,0,2,2,2,0,6,6,3,,,,,,,,,,,,,,,,,,,,,,,,,,,,,,,,,,,,,,,,,,,,,,,,,,,,,,,2252.789072546999,None,2252.789072546999,None,2252.789072546999,None,c,0,3.1206100279996463,2254.3232731699973,None,2254.3232731699973,None,2254.3232731699973,None,2257.508600186997,None,2257.508600186997,None,2257.508600186997,None,2257.508600186997,None,,,,,,,,,,,,,,,,,,,,,,,,,,,,,,,,,,,,,,,,,,,,001,137,2020_Feb_18_1410,spring_faces,3.1.5,60.03669334654842,
condition files/Stage1_1.xlsx,,T3,B4,c,"['c', 'm']","['Clue', 'Monopoly']","[-0.15, 0.5]","[0.15, 0.5]",1,1,,,,,,,,,0,2,2,2,0,7,7,5,,,,,,,,,,,,,,,,,,,,,,,,,,,,,,,,,,,,,,,,,,,,,,,,,,,,,,,2259.472152732,None,2259.472152732,None,2259.472152732,None,c,1,1.4596741770001245,2261.008173258997,None,2261.008173258997,None,2261.008173258997,None,2262.539394897998,None,2262.539394897998,None,2262.539394897998,None,2262.539394897998,None,,,,,,,,,,,,,,,,,,,,,,,,,,,,,,,,,,,,,,,,,,,,001,137,2020_Feb_18_1410,spring_faces,3.1.5,60.03669334654842,
condition files/Stage1_2.xlsx,,T3,B3,c,"['c', 'm']","['Clue', 'Monopoly']","[-0.15, 0.5]","[0.15, 0.5]",1,1,,,,,,,,,0,3,3,3,0,0,0,4,,,,,,,,,,,,,,,,,,,,,,,,,,,,,,,,,,,,,,,,,,,,,,,,,,,,,,,2264.505953959,None,2264.505953959,None,2264.505953959,None,c,1,0.7963482589984778,2266.055491392999,None,2266.055491392999,None,2266.055491392999,None,2266.9054684039984,None,2266.9054684039984,None,2266.9054684039984,None,2266.9054684039984,None,,,,,,,,,,,,,,,,,,,,,,,,,,,,,,,,,,,,,,,,,,,,001,137,2020_Feb_18_1410,spring_faces,3.1.5,60.03669334654842,
condition files/Stage1_2.xlsx,,T2,B1,c,"['c', 'm']","['Clue', 'Monopoly']","[-0.15, 0.5]","[0.15, 0.5]",1,1,,,,,,,,,0,3,3,3,0,1,1,1,,,,,,,,,,,,,,,,,,,,,,,,,,,,,,,,,,,,,,,,,,,,,,,,,,,,,,,2268.8720925929993,None,2268.8720925929993,None,2268.8720925929993,None,c,1,1.9481905290012946,2270.407730646999,None,2270.407730646999,None,2270.407730646999,None,2272.405760513997,None,2272.405760513997,None,2272.405760513997,None,2272.405760513997,None,,,,,,,,,,,,,,,,,,,,,,,,,,,,,,,,,,,,,,,,,,,,001,137,2020_Feb_18_1410,spring_faces,3.1.5,60.03669334654842,
condition files/Stage1_2.xlsx,,B4,T3,c,"['c', 'm']","['Clue', 'Monopoly']","[-0.15, 0.5]","[0.15, 0.5]",1,1,,,,,,,,,0,3,3,3,0,2,2,5,,,,,,,,,,,,,,,,,,,,,,,,,,,,,,,,,,,,,,,,,,,,,,,,,,,,,,,2274.3724712639996,None,2274.3724712639996,None,2274.3724712639996,None,m,0,1.9996250580006745,2275.9082553849985,None,2275.9082553849985,None,2275.9082553849985,None,2277.972450207999,None,2277.972450207999,None,2277.972450207999,None,2277.972450207999,None,,,,,,,,,,,,,,,,,,,,,,,,,,,,,,,,,,,,,,,,,,,,001,137,2020_Feb_18_1410,spring_faces,3.1.5,60.03669334654842,
condition files/Stage1_2.xlsx,,T1,B2,m,"['c', 'm']","['Clue', 'Monopoly']","[-0.15, 0.5]","[0.15, 0.5]",1,1,,,,,,,,,0,3,3,3,0,3,3,2,,,,,,,,,,,,,,,,,,,,,,,,,,,,,,,,,,,,,,,,,,,,,,,,,,,,,,,2279.9389867069985,None,2279.9389867069985,None,2279.9389867069985,None,m,1,1.2345405180021771,2281.4893014109985,None,2281.4893014109985,None,2281.4893014109985,None,2282.7911098229997,None,2282.7911098229997,None,2282.7911098229997,None,2282.7911098229997,None,,,,,,,,,,,,,,,,,,,,,,,,,,,,,,,,,,,,,,,,,,,,001,137,2020_Feb_18_1410,spring_faces,3.1.5,60.03669334654842,
condition files/Stage1_2.xlsx,,B1,T1,c,"['c', 'm']","['Clue', 'Monopoly']","[-0.15, 0.5]","[0.15, 0.5]",1,1,,,,,,,,,0,3,3,3,0,4,4,0,,,,,,,,,,,,,,,,,,,,,,,,,,,,,,,,,,,,,,,,,,,,,,,,,,,,,,,2284.755718393997,None,2284.755718393997,None,2284.755718393997,None,c,1,2.4341737370014016,2286.305657768,None,2286.305657768,None,2286.305657768,None,2288.805987247997,None,2288.805987247997,None,2288.805987247997,None,2288.805987247997,None,,,,,,,,,,,,,,,,,,,,,,,,,,,,,,,,,,,,,,,,,,,,001,137,2020_Feb_18_1410,spring_faces,3.1.5,60.03669334654842,
condition files/Stage1_2.xlsx,,B3,T4,m,"['c', 'm']","['Clue', 'Monopoly']","[-0.15, 0.5]","[0.15, 0.5]",1,1,,,,,,,,,0,3,3,3,0,5,5,6,,,,,,,,,,,,,,,,,,,,,,,,,,,,,,,,,,,,,,,,,,,,,,,,,,,,,,,2290.7723076949987,None,2290.7723076949987,None,2290.7723076949987,None,c,0,1.3116306929987331,2292.308240209997,None,2292.308240209997,None,2292.308240209997,None,2293.675493180999,None,2293.675493180999,None,2293.675493180999,None,2293.675493180999,None,,,,,,,,,,,,,,,,,,,,,,,,,,,,,,,,,,,,,,,,,,,,001,137,2020_Feb_18_1410,spring_faces,3.1.5,60.03669334654842,
condition files/Stage1_2.xlsx,,B2,T2,m,"['c', 'm']","['Clue', 'Monopoly']","[-0.15, 0.5]","[0.15, 0.5]",1,1,,,,,,,,,0,3,3,3,0,6,6,3,,,,,,,,,,,,,,,,,,,,,,,,,,,,,,,,,,,,,,,,,,,,,,,,,,,,,,,2295.6388750439983,None,2295.6388750439983,None,2295.6388750439983,None,m,1,2.8134354840003652,2297.1744392659966,None,2297.1744392659966,None,2297.1744392659966,None,2300.0389034599975,None,2300.0389034599975,None,2300.0389034599975,None,2300.0389034599975,None,,,,,,,,,,,,,,,,,,,,,,,,,,,,,,,,,,,,,,,,,,,,001,137,2020_Feb_18_1410,spring_faces,3.1.5,60.03669334654842,
condition files/Stage1_2.xlsx,,T4,B4,m,"['c', 'm']","['Clue', 'Monopoly']","[-0.15, 0.5]","[0.15, 0.5]",1,1,,,,,,,,,0,3,3,3,0,7,7,7,,,,,,,,,,,,,,,,,,,,,,,,,,,,,,,,,,,,,,,,,,,,,,,,,,,,,,,2302.005321856999,None,2302.005321856999,None,2302.005321856999,None,c,0,2.239864723997016,2303.5560588279986,None,2303.5560588279986,None,2303.5560588279986,None,2305.8556788279966,None,2305.8556788279966,None,2305.8556788279966,None,2305.8556788279966,None,,,,,,,,,,,,,,,,,,,,,,,,,,,,,,,,,,,,,,,,,,,,001,137,2020_Feb_18_1410,spring_faces,3.1.5,60.03669334654842,
condition files/Stage1_1.xlsx,,T3,B4,c,"['c', 'm']","['Clue', 'Monopoly']","[-0.15, 0.5]","[0.15, 0.5]",1,1,,,,,,,,,0,4,4,4,0,0,0,5,,,,,,,,,,,,,,,,,,,,,,,,,,,,,,,,,,,,,,,,,,,,,,,,,,,,,,,2307.839194376,None,2307.839194376,None,2307.839194376,None,c,1,1.12657650699839,2309.3893379099973,None,2309.3893379099973,None,2309.3893379099973,None,2310.589417570998,None,2310.589417570998,None,2310.589417570998,None,2310.589417570998,None,,,,,,,,,,,,,,,,,,,,,,,,,,,,,,,,,,,,,,,,,,,,001,137,2020_Feb_18_1410,spring_faces,3.1.5,60.03669334654842,
condition files/Stage1_1.xlsx,,T4,B3,m,"['c', 'm']","['Clue', 'Monopoly']","[-0.15, 0.5]","[0.15, 0.5]",1,1,,,,,,,,,0,4,4,4,0,1,1,6,,,,,,,,,,,,,,,,,,,,,,,,,,,,,,,,,,,,,,,,,,,,,,,,,,,,,,,2312.5391094909974,None,2312.5391094909974,None,2312.5391094909974,None,c,0,1.8667511090025073,2314.0730984679976,None,2314.0730984679976,None,2314.0730984679976,None,2316.0057416519994,None,2316.0057416519994,None,2316.0057416519994,None,2316.0057416519994,None,,,,,,,,,,,,,,,,,,,,,,,,,,,,,,,,,,,,,,,,,,,,001,137,2020_Feb_18_1410,spring_faces,3.1.5,60.03669334654842,
condition files/Stage1_1.xlsx,,T1,B1,c,"['c', 'm']","['Clue', 'Monopoly']","[-0.15, 0.5]","[0.15, 0.5]",1,1,,,,,,,,,0,4,4,4,0,2,2,0,,,,,,,,,,,,,,,,,,,,,,,,,,,,,,,,,,,,,,,,,,,,,,,,,,,,,,,2317.9720083289976,None,2317.9720083289976,None,2317.9720083289976,None,c,1,1.4897277519994532,2319.522091701998,None,2319.522091701998,None,2319.522091701998,None,2321.089299354,None,2321.089299354,None,2321.089299354,None,2321.089299354,None,,,,,,,,,,,,,,,,,,,,,,,,,,,,,,,,,,,,,,,,,,,,001,137,2020_Feb_18_1410,spring_faces,3.1.5,60.03669334654842,
condition files/Stage1_1.xlsx,,B2,T1,m,"['c', 'm']","['Clue', 'Monopoly']","[-0.15, 0.5]","[0.15, 0.5]",1,1,,,,,,,,,0,4,4,4,0,3,3,2,,,,,,,,,,,,,,,,,,,,,,,,,,,,,,,,,,,,,,,,,,,,,,,,,,,,,,,2323.0394896899998,None,2323.0394896899998,None,2323.0394896899998,None,c,0,1.9903726670017932,2324.589535185998,None,2324.589535185998,None,2324.589535185998,None,2326.656065054998,None,2326.656065054998,None,2326.656065054998,None,2326.656065054998,None,,,,,,,,,,,,,,,,,,,,,,,,,,,,,,,,,,,,,,,,,,,,001,137,2020_Feb_18_1410,spring_faces,3.1.5,60.03669334654842,
condition files/Stage1_1.xlsx,,B4,T4,m,"['c', 'm']","['Clue', 'Monopoly']","[-0.15, 0.5]","[0.15, 0.5]",1,1,,,,,,,,,0,4,4,4,0,4,4,7,,,,,,,,,,,,,,,,,,,,,,,,,,,,,,,,,,,,,,,,,,,,,,,,,,,,,,,2328.605260458,None,2328.605260458,None,2328.605260458,None,m,1,0.8561346259994025,2330.1557516209978,None,2330.1557516209978,None,2330.1557516209978,None,2331.0725028969973,None,2331.0725028969973,None,2331.0725028969973,None,2331.0725028969973,None,,,,,,,,,,,,,,,,,,,,,,,,,,,,,,,,,,,,,,,,,,,,001,137,2020_Feb_18_1410,spring_faces,3.1.5,60.03669334654842,
condition files/Stage1_1.xlsx,,B3,T3,c,"['c', 'm']","['Clue', 'Monopoly']","[-0.15, 0.5]","[0.15, 0.5]",1,1,,,,,,,,,0,4,4,4,0,5,5,4,,,,,,,,,,,,,,,,,,,,,,,,,,,,,,,,,,,,,,,,,,,,,,,,,,,,,,,2333.0389154369986,None,2333.0389154369986,None,2333.0389154369986,None,c,1,3.3666341329990246,2334.5892681339974,None,2334.5892681339974,None,2334.5892681339974,None,2338.008773439,None,2338.008773439,None,2338.008773439,None,2338.008773439,None,,,,,,,,,,,,,,,,,,,,,,,,,,,,,,,,,,,,,,,,,,,,001,137,2020_Feb_18_1410,spring_faces,3.1.5,60.03669334654842,
condition files/Stage1_1.xlsx,,T2,B2,m,"['c', 'm']","['Clue', 'Monopoly']","[-0.15, 0.5]","[0.15, 0.5]",1,1,,,,,,,,,0,4,4,4,0,6,6,3,,,,,,,,,,,,,,,,,,,,,,,,,,,,,,,,,,,,,,,,,,,,,,,,,,,,,,,2339.972259506998,None,2339.972259506998,None,2339.972259506998,None,m,1,1.1533147049995023,2341.5225803409994,None,2341.5225803409994,None,2341.5225803409994,None,2342.740747593998,None,2342.740747593998,None,2342.740747593998,None,2342.740747593998,None,,,,,,,,,,,,,,,,,,,,,,,,,,,,,,,,,,,,,,,,,,,,001,137,2020_Feb_18_1410,spring_faces,3.1.5,60.03669334654842,
condition files/Stage1_1.xlsx,,B1,T2,c,"['c', 'm']","['Clue', 'Monopoly']","[-0.15, 0.5]","[0.15, 0.5]",1,1,,,,,,,,,0,4,4,4,0,7,7,1,,,,,,,,,,,,,,,,,,,,,,,,,,,,,,,,,,,,,,,,,,,,,,,,,,,,,,,2344.7055803719995,None,2344.7055803719995,None,2344.7055803719995,None,c,1,1.28393195299941,2346.2558894779977,None,2346.2558894779977,None,2346.2558894779977,None,2347.6228965519986,None,2347.6228965519986,None,2347.6228965519986,None,2347.6228965519986,None,,,,,,,,,,,,,,,,,,,,,,,,,,,,,,,,,,,,,,,,,,,,001,137,2020_Feb_18_1410,spring_faces,3.1.5,60.03669334654842,
condition files/Stage1_2.xlsx,,T1,B2,m,"['c', 'm']","['Clue', 'Monopoly']","[-0.15, 0.5]","[0.15, 0.5]",1,1,,,,,,,,,0,5,5,5,0,0,0,2,,,,,,,,,,,,,,,,,,,,,,,,,,,,,,,,,,,,,,,,,,,,,,,,,,,,,,,2349.589106596999,None,2349.589106596999,None,2349.589106596999,None,m,1,0.7364367970003514,2351.1394803409967,None,2351.1394803409967,None,2351.1394803409967,None,2351.9561161009988,None,2351.9561161009988,None,2351.9561161009988,None,2351.9561161009988,None,,,,,,,,,,,,,,,,,,,,,,,,,,,,,,,,,,,,,,,,,,,,001,137,2020_Feb_18_1410,spring_faces,3.1.5,60.03669334654842,
condition files/Stage1_2.xlsx,,T3,B3,c,"['c', 'm']","['Clue', 'Monopoly']","[-0.15, 0.5]","[0.15, 0.5]",1,1,,,,,,,,,0,5,5,5,0,1,1,4,,,,,,,,,,,,,,,,,,,,,,,,,,,,,,,,,,,,,,,,,,,,,,,,,,,,,,,2353.9052990229975,None,2353.9052990229975,None,2353.9052990229975,None,c,1,2.355484822001017,2355.440436517998,None,2355.440436517998,None,2355.440436517998,None,2357.8580857609995,None,2357.8580857609995,None,2357.8580857609995,None,2357.8580857609995,None,,,,,,,,,,,,,,,,,,,,,,,,,,,,,,,,,,,,,,,,,,,,001,137,2020_Feb_18_1410,spring_faces,3.1.5,60.03669334654842,
condition files/Stage1_2.xlsx,,B4,T3,c,"['c', 'm']","['Clue', 'Monopoly']","[-0.15, 0.5]","[0.15, 0.5]",1,1,,,,,,,,,0,5,5,5,0,2,2,5,,,,,,,,,,,,,,,,,,,,,,,,,,,,,,,,,,,,,,,,,,,,,,,,,,,,,,,2359.8221885979983,None,2359.8221885979983,None,2359.8221885979983,None,c,1,1.5591562789995805,2361.372738695998,None,2361.372738695998,None,2361.372738695998,None,2362.989089977,None,2362.989089977,None,2362.989089977,None,2362.989089977,None,,,,,,,,,,,,,,,,,,,,,,,,,,,,,,,,,,,,,,,,,,,,001,137,2020_Feb_18_1410,spring_faces,3.1.5,60.03669334654842,
condition files/Stage1_2.xlsx,,B2,T2,m,"['c', 'm']","['Clue', 'Monopoly']","[-0.15, 0.5]","[0.15, 0.5]",1,1,,,,,,,,,0,5,5,5,0,3,3,3,,,,,,,,,,,,,,,,,,,,,,,,,,,,,,,,,,,,,,,,,,,,,,,,,,,,,,,2364.9559950409966,None,2364.9559950409966,None,2364.9559950409966,None,m,1,1.658258477000345,2366.5056681059978,None,2366.5056681059978,None,2366.5056681059978,None,2368.2247745629975,None,2368.2247745629975,None,2368.2247745629975,None,2368.2247745629975,None,,,,,,,,,,,,,,,,,,,,,,,,,,,,,,,,,,,,,,,,,,,,001,137,2020_Feb_18_1410,spring_faces,3.1.5,60.03669334654842,
condition files/Stage1_2.xlsx,,T2,B1,c,"['c', 'm']","['Clue', 'Monopoly']","[-0.15, 0.5]","[0.15, 0.5]",1,1,,,,,,,,,0,5,5,5,0,4,4,1,,,,,,,,,,,,,,,,,,,,,,,,,,,,,,,,,,,,,,,,,,,,,,,,,,,,,,,2370.1892465579986,None,2370.1892465579986,None,2370.1892465579986,None,c,1,1.4163055950011767,2371.739597759999,None,2371.739597759999,None,2371.739597759999,None,2373.2226830459986,None,2373.2226830459986,None,2373.2226830459986,None,2373.2226830459986,None,,,,,,,,,,,,,,,,,,,,,,,,,,,,,,,,,,,,,,,,,,,,001,137,2020_Feb_18_1410,spring_faces,3.1.5,60.03669334654842,
condition files/Stage1_2.xlsx,,T4,B4,m,"['c', 'm']","['Clue', 'Monopoly']","[-0.15, 0.5]","[0.15, 0.5]",1,1,,,,,,,,,0,5,5,5,0,5,5,7,,,,,,,,,,,,,,,,,,,,,,,,,,,,,,,,,,,,,,,,,,,,,,,,,,,,,,,2375.172705145,None,2375.172705145,None,2375.172705145,None,m,1,2.3201398980017984,2376.7077376359994,None,2376.7077376359994,None,2376.7077376359994,None,2379.0912134169994,None,2379.0912134169994,None,2379.0912134169994,None,2379.0912134169994,None,,,,,,,,,,,,,,,,,,,,,,,,,,,,,,,,,,,,,,,,,,,,001,137,2020_Feb_18_1410,spring_faces,3.1.5,60.03669334654842,
condition files/Stage1_2.xlsx,,B3,T4,m,"['c', 'm']","['Clue', 'Monopoly']","[-0.15, 0.5]","[0.15, 0.5]",1,1,,,,,,,,,0,5,5,5,0,6,6,6,,,,,,,,,,,,,,,,,,,,,,,,,,,,,,,,,,,,,,,,,,,,,,,,,,,,,,,2381.0557069809984,None,2381.0557069809984,None,2381.0557069809984,None,m,1,0.870246128000872,2382.605659514,None,2382.605659514,None,2382.605659514,None,2383.539319110998,None,2383.539319110998,None,2383.539319110998,None,2383.539319110998,None,,,,,,,,,,,,,,,,,,,,,,,,,,,,,,,,,,,,,,,,,,,,001,137,2020_Feb_18_1410,spring_faces,3.1.5,60.03669334654842,
condition files/Stage1_2.xlsx,,B1,T1,c,"['c', 'm']","['Clue', 'Monopoly']","[-0.15, 0.5]","[0.15, 0.5]",1,1,,,,,,,,,0,5,5,5,0,7,7,0,,,,,,,,,,,,,,,,,,,,,,,,,,,,,,,,,,,,,,,,,,,,,,,,,,,,,,,2385.5058137359993,None,2385.5058137359993,None,2385.5058137359993,None,c,1,1.47611929499908,2387.055785785,None,2387.055785785,None,2387.055785785,None,2388.6059164459984,None,2388.6059164459984,None,2388.6059164459984,None,2388.6059164459984,None,,,,,,,,,,,,,,,,,,,,,,,,,,,,,,,,,,,,,,,,,,,,001,137,2020_Feb_18_1410,spring_faces,3.1.5,60.03669334654842,
condition files/Stage1_1.xlsx,,T1,B1,c,"['c', 'm']","['Clue', 'Monopoly']","[-0.15, 0.5]","[0.15, 0.5]",1,1,,,,,,,,,0,6,6,6,0,0,0,0,,,,,,,,,,,,,,,,,,,,,,,,,,,,,,,,,,,,,,,,,,,,,,,,,,,,,,,2390.572036868998,None,2390.572036868998,None,2390.572036868998,None,c,1,1.257393031999527,2392.1225476679974,None,2392.1225476679974,None,2392.1225476679974,None,2393.4392909319977,None,2393.4392909319977,None,2393.4392909319977,None,2393.4392909319977,None,,,,,,,,,,,,,,,,,,,,,,,,,,,,,,,,,,,,,,,,,,,,001,137,2020_Feb_18_1410,spring_faces,3.1.5,60.03669334654842,
condition files/Stage1_1.xlsx,,B1,T2,c,"['c', 'm']","['Clue', 'Monopoly']","[-0.15, 0.5]","[0.15, 0.5]",1,1,,,,,,,,,0,6,6,6,0,1,1,1,,,,,,,,,,,,,,,,,,,,,,,,,,,,,,,,,,,,,,,,,,,,,,,,,,,,,,,2395.405778417,None,2395.405778417,None,2395.405778417,None,c,1,1.1284568830014905,2396.955354144997,None,2396.955354144997,None,2396.955354144997,None,2398.1395602249977,None,2398.1395602249977,None,2398.1395602249977,None,2398.1395602249977,None,,,,,,,,,,,,,,,,,,,,,,,,,,,,,,,,,,,,,,,,,,,,001,137,2020_Feb_18_1410,spring_faces,3.1.5,60.03669334654842,
condition files/Stage1_1.xlsx,,B2,T1,m,"['c', 'm']","['Clue', 'Monopoly']","[-0.15, 0.5]","[0.15, 0.5]",1,1,,,,,,,,,0,6,6,6,0,2,2,2,,,,,,,,,,,,,,,,,,,,,,,,,,,,,,,,,,,,,,,,,,,,,,,,,,,,,,,2400.1054230619993,None,2400.1054230619993,None,2400.1054230619993,None,m,1,1.5153146359989478,2401.6406037709967,None,2401.6406037709967,None,2401.6406037709967,None,2403.222739318997,None,2403.222739318997,None,2403.222739318997,None,2403.222739318997,None,,,,,,,,,,,,,,,,,,,,,,,,,,,,,,,,,,,,,,,,,,,,001,137,2020_Feb_18_1410,spring_faces,3.1.5,60.03669334654842,
condition files/Stage1_1.xlsx,,T2,B2,m,"['c', 'm']","['Clue', 'Monopoly']","[-0.15, 0.5]","[0.15, 0.5]",1,1,,,,,,,,,0,6,6,6,0,3,3,3,,,,,,,,,,,,,,,,,,,,,,,,,,,,,,,,,,,,,,,,,,,,,,,,,,,,,,,2405.1725963649988,None,2405.1725963649988,None,2405.1725963649988,None,m,1,1.745254762001423,2406.722621675999,None,2406.722621675999,None,2406.722621675999,None,2408.5223468609984,None,2408.5223468609984,None,2408.5223468609984,None,2408.5223468609984,None,,,,,,,,,,,,,,,,,,,,,,,,,,,,,,,,,,,,,,,,,,,,001,137,2020_Feb_18_1410,spring_faces,3.1.5,60.03669334654842,
condition files/Stage1_1.xlsx,,T3,B4,c,"['c', 'm']","['Clue', 'Monopoly']","[-0.15, 0.5]","[0.15, 0.5]",1,1,,,,,,,,,0,6,6,6,0,4,4,5,,,,,,,,,,,,,,,,,,,,,,,,,,,,,,,,,,,,,,,,,,,,,,,,,,,,,,,2410.488629266998,None,2410.488629266998,None,2410.488629266998,None,c,1,1.2453512389984098,2412.0225481239977,None,2412.0225481239977,None,2412.0225481239977,None,2413.325140735,None,2413.325140735,None,2413.325140735,None,2413.325140735,None,,,,,,,,,,,,,,,,,,,,,,,,,,,,,,,,,,,,,,,,,,,,001,137,2020_Feb_18_1410,spring_faces,3.1.5,60.03669334654842,
condition files/Stage1_1.xlsx,,T4,B3,m,"['c', 'm']","['Clue', 'Monopoly']","[-0.15, 0.5]","[0.15, 0.5]",1,1,,,,,,,,,0,6,6,6,0,5,5,6,,,,,,,,,,,,,,,,,,,,,,,,,,,,,,,,,,,,,,,,,,,,,,,,,,,,,,,2415.2885211879984,None,2415.2885211879984,None,2415.2885211879984,None,m,1,1.4683191119984258,2416.8394868979994,None,2416.8394868979994,None,2416.8394868979994,None,2418.37326185,None,2418.37326185,None,2418.37326185,None,2418.37326185,None,,,,,,,,,,,,,,,,,,,,,,,,,,,,,,,,,,,,,,,,,,,,001,137,2020_Feb_18_1410,spring_faces,3.1.5,60.03669334654842,
condition files/Stage1_1.xlsx,,B4,T4,m,"['c', 'm']","['Clue', 'Monopoly']","[-0.15, 0.5]","[0.15, 0.5]",1,1,,,,,,,,,0,6,6,6,0,6,6,7,,,,,,,,,,,,,,,,,,,,,,,,,,,,,,,,,,,,,,,,,,,,,,,,,,,,,,,2420.339107484,None,2420.339107484,None,2420.339107484,None,m,1,0.770397951000632,2421.8895087559977,None,2421.8895087559977,None,2421.8895087559977,None,2422.722307193999,None,2422.722307193999,None,2422.722307193999,None,2422.722307193999,None,,,,,,,,,,,,,,,,,,,,,,,,,,,,,,,,,,,,,,,,,,,,001,137,2020_Feb_18_1410,spring_faces,3.1.5,60.03669334654842,
condition files/Stage1_1.xlsx,,B3,T3,c,"['c', 'm']","['Clue', 'Monopoly']","[-0.15, 0.5]","[0.15, 0.5]",1,1,,,,,,,,,0,6,6,6,0,7,7,4,,,,,,,,,,,,,,,,,,,,,,,,,,,,,,,,,,,,,,,,,,,,,,,,,,,,,,,2424.688692853997,None,2424.688692853997,None,2424.688692853997,None,c,1,1.7645755970006576,2426.2393018799994,None,2426.2393018799994,None,2426.2393018799994,None,2428.0719322939985,None,2428.0719322939985,None,2428.0719322939985,None,2428.0719322939985,None,,,,,,,,,,,,,,,,,,,,,,,,,,,,,,,,,,,,,,,,,,,,001,137,2020_Feb_18_1410,spring_faces,3.1.5,60.03669334654842,
condition files/Stage1_2.xlsx,,T2,B1,c,"['c', 'm']","['Clue', 'Monopoly']","[-0.15, 0.5]","[0.15, 0.5]",1,1,,,,,,,,,0,7,7,7,0,0,0,1,,,,,,,,,,,,,,,,,,,,,,,,,,,,,,,,,,,,,,,,,,,,,,,,,,,,,,,2430.0396002909984,None,2430.0396002909984,None,2430.0396002909984,None,c,1,1.1833396229994833,2431.572593028999,None,2431.572593028999,None,2431.572593028999,None,2432.8055648539994,None,2432.8055648539994,None,2432.8055648539994,None,2432.8055648539994,None,,,,,,,,,,,,,,,,,,,,,,,,,,,,,,,,,,,,,,,,,,,,001,137,2020_Feb_18_1410,spring_faces,3.1.5,60.03669334654842,
condition files/Stage1_2.xlsx,,B1,T1,c,"['c', 'm']","['Clue', 'Monopoly']","[-0.15, 0.5]","[0.15, 0.5]",1,1,,,,,,,,,0,7,7,7,0,1,1,0,,,,,,,,,,,,,,,,,,,,,,,,,,,,,,,,,,,,,,,,,,,,,,,,,,,,,,,2434.772794591998,None,2434.772794591998,None,2434.772794591998,None,c,1,1.3132512289994338,2436.322643686999,None,2436.322643686999,None,2436.322643686999,None,2437.688897901,None,2437.688897901,None,2437.688897901,None,2437.688897901,None,,,,,,,,,,,,,,,,,,,,,,,,,,,,,,,,,,,,,,,,,,,,001,137,2020_Feb_18_1410,spring_faces,3.1.5,60.03669334654842,
condition files/Stage1_2.xlsx,,B4,T3,c,"['c', 'm']","['Clue', 'Monopoly']","[-0.15, 0.5]","[0.15, 0.5]",1,1,,,,,,,,,0,7,7,7,0,2,2,5,,,,,,,,,,,,,,,,,,,,,,,,,,,,,,,,,,,,,,,,,,,,,,,,,,,,,,,2439.6559631069977,None,2439.6559631069977,None,2439.6559631069977,None,c,1,1.0527078260020062,2441.191210137,None,2441.191210137,None,2441.191210137,None,2442.30547594,None,2442.30547594,None,2442.30547594,None,2442.30547594,None,,,,,,,,,,,,,,,,,,,,,,,,,,,,,,,,,,,,,,,,,,,,001,137,2020_Feb_18_1410,spring_faces,3.1.5,60.03669334654842,
condition files/Stage1_2.xlsx,,T1,B2,m,"['c', 'm']","['Clue', 'Monopoly']","[-0.15, 0.5]","[0.15, 0.5]",1,1,,,,,,,,,0,7,7,7,0,3,3,2,,,,,,,,,,,,,,,,,,,,,,,,,,,,,,,,,,,,,,,,,,,,,,,,,,,,,,,2444.2724453519986,None,2444.2724453519986,None,2444.2724453519986,None,m,1,1.3971511720010312,2445.8226965839967,None,2445.8226965839967,None,2445.8226965839967,None,2447.289423102,None,2447.289423102,None,2447.289423102,None,2447.289423102,None,,,,,,,,,,,,,,,,,,,,,,,,,,,,,,,,,,,,,,,,,,,,001,137,2020_Feb_18_1410,spring_faces,3.1.5,60.03669334654842,
condition files/Stage1_2.xlsx,,B2,T2,m,"['c', 'm']","['Clue', 'Monopoly']","[-0.15, 0.5]","[0.15, 0.5]",1,1,,,,,,,,,0,7,7,7,0,4,4,3,,,,,,,,,,,,,,,,,,,,,,,,,,,,,,,,,,,,,,,,,,,,,,,,,,,,,,,2449.239292754999,None,2449.239292754999,None,2449.239292754999,None,m,1,1.727520596999966,2450.7724089309995,None,2450.7724089309995,None,2450.7724089309995,None,2452.5560622569974,None,2452.5560622569974,None,2452.5560622569974,None,2452.5560622569974,None,,,,,,,,,,,,,,,,,,,,,,,,,,,,,,,,,,,,,,,,,,,,001,137,2020_Feb_18_1410,spring_faces,3.1.5,60.03669334654842,
condition files/Stage1_2.xlsx,,B3,T4,m,"['c', 'm']","['Clue', 'Monopoly']","[-0.15, 0.5]","[0.15, 0.5]",1,1,,,,,,,,,0,7,7,7,0,5,5,6,,,,,,,,,,,,,,,,,,,,,,,,,,,,,,,,,,,,,,,,,,,,,,,,,,,,,,,2454.5223488079973,None,2454.5223488079973,None,2454.5223488079973,None,m,1,2.411302448999777,2456.0725814339967,None,2456.0725814339967,None,2456.0725814339967,None,2458.539345072997,None,2458.539345072997,None,2458.539345072997,None,2458.539345072997,None,,,,,,,,,,,,,,,,,,,,,,,,,,,,,,,,,,,,,,,,,,,,001,137,2020_Feb_18_1410,spring_faces,3.1.5,60.03669334654842,
condition files/Stage1_2.xlsx,,T4,B4,m,"['c', 'm']","['Clue', 'Monopoly']","[-0.15, 0.5]","[0.15, 0.5]",1,1,,,,,,,,,0,7,7,7,0,6,6,7,,,,,,,,,,,,,,,,,,,,,,,,,,,,,,,,,,,,,,,,,,,,,,,,,,,,,,,2460.5054905189972,None,2460.5054905189972,None,2460.5054905189972,None,m,1,1.0991589720033517,2462.040706775999,None,2462.040706775999,None,2462.040706775999,None,2463.206259806,None,2463.206259806,None,2463.206259806,None,2463.206259806,None,,,,,,,,,,,,,,,,,,,,,,,,,,,,,,,,,,,,,,,,,,,,001,137,2020_Feb_18_1410,spring_faces,3.1.5,60.03669334654842,
condition files/Stage1_2.xlsx,,T3,B3,c,"['c', 'm']","['Clue', 'Monopoly']","[-0.15, 0.5]","[0.15, 0.5]",1,1,,,,,,,,,0,7,7,7,0,7,7,4,,,,,,,,,,,,,,,,,,,,,,,,,,,,,,,,,,,,,,,,,,,,,,,,,,,,,,,2465.1723489939977,None,2465.1723489939977,None,2465.1723489939977,None,m,0,1.5364500529976794,2466.707460177997,None,2466.707460177997,None,2466.707460177997,None,2468.306735318998,None,2468.306735318998,None,2468.306735318998,None,2468.306735318998,None,,,,,,,,,,,,,,,,,,,,,,,,,,,,,,,,,,,,,,,,,,,,001,137,2020_Feb_18_1410,spring_faces,3.1.5,60.03669334654842,
condition files/Stage1_1.xlsx,,B1,T2,c,"['c', 'm']","['Clue', 'Monopoly']","[-0.15, 0.5]","[0.15, 0.5]",1,1,,,,,,,,,0,8,8,8,0,0,0,1,,,,,,,,,,,,,,,,,,,,,,,,,,,,,,,,,,,,,,,,,,,,,,,,,,,,,,,2470.2891185249973,None,2470.2891185249973,None,2470.2891185249973,None,c,1,1.1087406510014262,2471.8392019219973,None,2471.8392019219973,None,2471.8392019219973,None,2473.005264534997,None,2473.005264534997,None,2473.005264534997,None,2473.005264534997,None,,,,,,,,,,,,,,,,,,,,,,,,,,,,,,,,,,,,,,,,,,,,001,137,2020_Feb_18_1410,spring_faces,3.1.5,60.03669334654842,
condition files/Stage1_1.xlsx,,T1,B1,c,"['c', 'm']","['Clue', 'Monopoly']","[-0.15, 0.5]","[0.15, 0.5]",1,1,,,,,,,,,0,8,8,8,0,1,1,0,,,,,,,,,,,,,,,,,,,,,,,,,,,,,,,,,,,,,,,,,,,,,,,,,,,,,,,2474.971847681998,None,2474.971847681998,None,2474.971847681998,None,c,1,2.8238182479981333,2476.5080077469975,None,2476.5080077469975,None,2476.5080077469975,None,2479.3892731119995,None,2479.3892731119995,None,2479.3892731119995,None,2479.3892731119995,None,,,,,,,,,,,,,,,,,,,,,,,,,,,,,,,,,,,,,,,,,,,,001,137,2020_Feb_18_1410,spring_faces,3.1.5,60.03669334654842,
condition files/Stage1_1.xlsx,,B3,T3,c,"['c', 'm']","['Clue', 'Monopoly']","[-0.15, 0.5]","[0.15, 0.5]",1,1,,,,,,,,,0,8,8,8,0,2,2,4,,,,,,,,,,,,,,,,,,,,,,,,,,,,,,,,,,,,,,,,,,,,,,,,,,,,,,,2481.355441382999,None,2481.355441382999,None,2481.355441382999,None,c,1,1.4175382479988912,2482.890349565998,None,2482.890349565998,None,2482.890349565998,None,2484.3726137259982,None,2484.3726137259982,None,2484.3726137259982,None,2484.3726137259982,None,,,,,,,,,,,,,,,,,,,,,,,,,,,,,,,,,,,,,,,,,,,,001,137,2020_Feb_18_1410,spring_faces,3.1.5,60.03669334654842,
condition files/Stage1_1.xlsx,,B2,T1,m,"['c', 'm']","['Clue', 'Monopoly']","[-0.15, 0.5]","[0.15, 0.5]",1,1,,,,,,,,,0,8,8,8,0,3,3,2,,,,,,,,,,,,,,,,,,,,,,,,,,,,,,,,,,,,,,,,,,,,,,,,,,,,,,,2486.339008682,None,2486.339008682,None,2486.339008682,None,m,1,2.0828266220014484,2487.889070841,None,2487.889070841,None,2487.889070841,None,2490.0393935059983,None,2490.0393935059983,None,2490.0393935059983,None,2490.0393935059983,None,,,,,,,,,,,,,,,,,,,,,,,,,,,,,,,,,,,,,,,,,,,,001,137,2020_Feb_18_1410,spring_faces,3.1.5,60.03669334654842,
condition files/Stage1_1.xlsx,,T2,B2,m,"['c', 'm']","['Clue', 'Monopoly']","[-0.15, 0.5]","[0.15, 0.5]",1,1,,,,,,,,,0,8,8,8,0,4,4,3,,,,,,,,,,,,,,,,,,,,,,,,,,,,,,,,,,,,,,,,,,,,,,,,,,,,,,,2491.9890694649985,None,2491.9890694649985,None,2491.9890694649985,None,m,1,2.2564333860027546,2493.539500208997,None,2493.539500208997,None,2493.539500208997,None,2495.856155898997,None,2495.856155898997,None,2495.856155898997,None,2495.856155898997,None,,,,,,,,,,,,,,,,,,,,,,,,,,,,,,,,,,,,,,,,,,,,001,137,2020_Feb_18_1410,spring_faces,3.1.5,60.03669334654842,
condition files/Stage1_1.xlsx,,B4,T4,m,"['c', 'm']","['Clue', 'Monopoly']","[-0.15, 0.5]","[0.15, 0.5]",1,1,,,,,,,,,0,8,8,8,0,5,5,7,,,,,,,,,,,,,,,,,,,,,,,,,,,,,,,,,,,,,,,,,,,,,,,,,,,,,,,2497.8226330649995,None,2497.8226330649995,None,2497.8226330649995,None,m,1,1.3839681259996723,2499.355849010997,None,2499.355849010997,None,2499.355849010997,None,2500.806112629998,None,2500.806112629998,None,2500.806112629998,None,2500.806112629998,None,,,,,,,,,,,,,,,,,,,,,,,,,,,,,,,,,,,,,,,,,,,,001,137,2020_Feb_18_1410,spring_faces,3.1.5,60.03669334654842,
condition files/Stage1_1.xlsx,,T3,B4,c,"['c', 'm']","['Clue', 'Monopoly']","[-0.15, 0.5]","[0.15, 0.5]",1,1,,,,,,,,,0,8,8,8,0,6,6,5,,,,,,,,,,,,,,,,,,,,,,,,,,,,,,,,,,,,,,,,,,,,,,,,,,,,,,,2502.7722763439997,None,2502.7722763439997,None,2502.7722763439997,None,c,1,2.418046645998402,2504.305814080999,None,2504.305814080999,None,2504.305814080999,None,2506.789114332998,None,2506.789114332998,None,2506.789114332998,None,2506.789114332998,None,,,,,,,,,,,,,,,,,,,,,,,,,,,,,,,,,,,,,,,,,,,,001,137,2020_Feb_18_1410,spring_faces,3.1.5,60.03669334654842,
condition files/Stage1_1.xlsx,,T4,B3,m,"['c', 'm']","['Clue', 'Monopoly']","[-0.15, 0.5]","[0.15, 0.5]",1,1,,,,,,,,,0,8,8,8,0,7,7,6,,,,,,,,,,,,,,,,,,,,,,,,,,,,,,,,,,,,,,,,,,,,,,,,,,,,,,,2508.755956130997,None,2508.755956130997,None,2508.755956130997,None,m,1,1.2647092929983046,2510.2912008919993,None,2510.2912008919993,None,2510.2912008919993,None,2511.62275264,None,2511.62275264,None,2511.62275264,None,2511.62275264,None,,,,,,,,,,,,,,,,,,,,,,,,,,,,,,,,,,,,,,,,,,,,001,137,2020_Feb_18_1410,spring_faces,3.1.5,60.03669334654842,
condition files/Stage1_2.xlsx,,B3,T4,m,"['c', 'm']","['Clue', 'Monopoly']","[-0.15, 0.5]","[0.15, 0.5]",1,1,,,,,,,,,0,9,9,9,0,0,0,6,,,,,,,,,,,,,,,,,,,,,,,,,,,,,,,,,,,,,,,,,,,,,,,,,,,,,,,2513.5886518939988,None,2513.5886518939988,None,2513.5886518939988,None,m,1,1.6339567830000306,2515.121978848998,None,2515.121978848998,None,2515.121978848998,None,2516.805819565998,None,2516.805819565998,None,2516.805819565998,None,2516.805819565998,None,,,,,,,,,,,,,,,,,,,,,,,,,,,,,,,,,,,,,,,,,,,,001,137,2020_Feb_18_1410,spring_faces,3.1.5,60.03669334654842,
condition files/Stage1_2.xlsx,,B1,T1,c,"['c', 'm']","['Clue', 'Monopoly']","[-0.15, 0.5]","[0.15, 0.5]",1,1,,,,,,,,,0,9,9,9,0,1,1,0,,,,,,,,,,,,,,,,,,,,,,,,,,,,,,,,,,,,,,,,,,,,,,,,,,,,,,,2518.7725862929983,None,2518.7725862929983,None,2518.7725862929983,None,c,1,1.473436917996878,2520.306497202997,None,2520.306497202997,None,2520.306497202997,None,2521.8420239299994,None,2521.8420239299994,None,2521.8420239299994,None,2521.8420239299994,None,,,,,,,,,,,,,,,,,,,,,,,,,,,,,,,,,,,,,,,,,,,,001,137,2020_Feb_18_1410,spring_faces,3.1.5,60.03669334654842,
condition files/Stage1_2.xlsx,,T2,B1,c,"['c', 'm']","['Clue', 'Monopoly']","[-0.15, 0.5]","[0.15, 0.5]",1,1,,,,,,,,,0,9,9,9,0,2,2,1,,,,,,,,,,,,,,,,,,,,,,,,,,,,,,,,,,,,,,,,,,,,,,,,,,,,,,,2523.8053570159973,None,2523.8053570159973,None,2523.8053570159973,None,c,1,1.2562165020026441,2525.3556447369992,None,2525.3556447369992,None,2525.3556447369992,None,2526.672521417997,None,2526.672521417997,None,2526.672521417997,None,2526.672521417997,None,,,,,,,,,,,,,,,,,,,,,,,,,,,,,,,,,,,,,,,,,,,,001,137,2020_Feb_18_1410,spring_faces,3.1.5,60.03669334654842,
condition files/Stage1_2.xlsx,,T1,B2,m,"['c', 'm']","['Clue', 'Monopoly']","[-0.15, 0.5]","[0.15, 0.5]",1,1,,,,,,,,,0,9,9,9,0,3,3,2,,,,,,,,,,,,,,,,,,,,,,,,,,,,,,,,,,,,,,,,,,,,,,,,,,,,,,,2528.638730216,None,2528.638730216,None,2528.638730216,None,m,1,1.8789717899999232,2530.1889257889998,None,2530.1889257889998,None,2530.1889257889998,None,2532.1393721409986,None,2532.1393721409986,None,2532.1393721409986,None,2532.1393721409986,None,,,,,,,,,,,,,,,,,,,,,,,,,,,,,,,,,,,,,,,,,,,,001,137,2020_Feb_18_1410,spring_faces,3.1.5,60.03669334654842,
condition files/Stage1_2.xlsx,,B2,T2,m,"['c', 'm']","['Clue', 'Monopoly']","[-0.15, 0.5]","[0.15, 0.5]",1,1,,,,,,,,,0,9,9,9,0,4,4,3,,,,,,,,,,,,,,,,,,,,,,,,,,,,,,,,,,,,,,,,,,,,,,,,,,,,,,,2534.08906251,None,2534.08906251,None,2534.08906251,None,m,1,1.3415937089994259,2535.6223539249986,None,2535.6223539249986,None,2535.6223539249986,None,2537.023014118,None,2537.023014118,None,2537.023014118,None,2537.023014118,None,,,,,,,,,,,,,,,,,,,,,,,,,,,,,,,,,,,,,,,,,,,,001,137,2020_Feb_18_1410,spring_faces,3.1.5,60.03669334654842,
condition files/Stage1_2.xlsx,,T3,B3,c,"['c', 'm']","['Clue', 'Monopoly']","[-0.15, 0.5]","[0.15, 0.5]",1,1,,,,,,,,,0,9,9,9,0,5,5,4,,,,,,,,,,,,,,,,,,,,,,,,,,,,,,,,,,,,,,,,,,,,,,,,,,,,,,,2538.989315048999,None,2538.989315048999,None,2538.989315048999,None,c,1,0.9204899369979103,2540.539414073999,None,2540.539414073999,None,2540.539414073999,None,2541.539474175999,None,2541.539474175999,None,2541.539474175999,None,2541.539474175999,None,,,,,,,,,,,,,,,,,,,,,,,,,,,,,,,,,,,,,,,,,,,,001,137,2020_Feb_18_1410,spring_faces,3.1.5,60.03669334654842,
condition files/Stage1_2.xlsx,,B4,T3,c,"['c', 'm']","['Clue', 'Monopoly']","[-0.15, 0.5]","[0.15, 0.5]",1,1,,,,,,,,,0,9,9,9,0,6,6,5,,,,,,,,,,,,,,,,,,,,,,,,,,,,,,,,,,,,,,,,,,,,,,,,,,,,,,,2543.488841585997,None,2543.488841585997,None,2543.488841585997,None,c,1,2.580529808998108,2545.039327721999,None,2545.039327721999,None,2545.039327721999,None,2547.6725329369983,None,2547.6725329369983,None,2547.6725329369983,None,2547.6725329369983,None,,,,,,,,,,,,,,,,,,,,,,,,,,,,,,,,,,,,,,,,,,,,001,137,2020_Feb_18_1410,spring_faces,3.1.5,60.03669334654842,
condition files/Stage1_2.xlsx,,T4,B4,m,"['c', 'm']","['Clue', 'Monopoly']","[-0.15, 0.5]","[0.15, 0.5]",1,1,,,,,,,,,0,9,9,9,0,7,7,7,,,,,,,,,,,,,,,,,,,,,,,,,,,,,,,,,,,,,,,,,,,,,,,,,,,,,,,2549.6392316719975,None,2549.6392316719975,None,2549.6392316719975,None,m,1,4.111840157998813,2551.172009247999,None,2551.172009247999,None,2551.172009247999,None,2555.340756423,None,2555.340756423,None,2555.340756423,None,2555.340756423,None,,,,,,,,,,,,,,,,,,,,,,,,,,,,,,,,,,,,,,,,,,,,001,137,2020_Feb_18_1410,spring_faces,3.1.5,60.03669334654842,
condition files/Stage1_1.xlsx,,B2,T1,m,"['c', 'm']","['Clue', 'Monopoly']","[-0.15, 0.5]","[0.15, 0.5]",1,1,,,,,,,,,0,10,10,10,0,0,0,2,,,,,,,,,,,,,,,,,,,,,,,,,,,,,,,,,,,,,,,,,,,,,,,,,,,,,,,2557.3223044159968,None,2557.3223044159968,None,2557.3223044159968,None,m,1,2.283358965003572,2558.872563533998,None,2558.872563533998,None,2558.872563533998,None,2561.2057768199993,None,2561.2057768199993,None,2561.2057768199993,None,2561.2057768199993,None,,,,,,,,,,,,,,,,,,,,,,,,,,,,,,,,,,,,,,,,,,,,001,137,2020_Feb_18_1410,spring_faces,3.1.5,60.03669334654842,
condition files/Stage1_1.xlsx,,T4,B3,m,"['c', 'm']","['Clue', 'Monopoly']","[-0.15, 0.5]","[0.15, 0.5]",1,1,,,,,,,,,0,10,10,10,0,1,1,6,,,,,,,,,,,,,,,,,,,,,,,,,,,,,,,,,,,,,,,,,,,,,,,,,,,,,,,2563.1718407629996,None,2563.1718407629996,None,2563.1718407629996,None,m,1,1.2016614269996353,2564.722155866999,None,2564.722155866999,None,2564.722155866999,None,2565.988641462998,None,2565.988641462998,None,2565.988641462998,None,2565.988641462998,None,,,,,,,,,,,,,,,,,,,,,,,,,,,,,,,,,,,,,,,,,,,,001,137,2020_Feb_18_1410,spring_faces,3.1.5,60.03669334654842,
condition files/Stage1_1.xlsx,,T1,B1,c,"['c', 'm']","['Clue', 'Monopoly']","[-0.15, 0.5]","[0.15, 0.5]",1,1,,,,,,,,,0,10,10,10,0,2,2,0,,,,,,,,,,,,,,,,,,,,,,,,,,,,,,,,,,,,,,,,,,,,,,,,,,,,,,,2567.955605029998,None,2567.955605029998,None,2567.955605029998,None,c,1,1.201770857001975,2569.506088680999,None,2569.506088680999,None,2569.506088680999,None,2570.7730201959967,None,2570.7730201959967,None,2570.7730201959967,None,2570.7730201959967,None,,,,,,,,,,,,,,,,,,,,,,,,,,,,,,,,,,,,,,,,,,,,001,137,2020_Feb_18_1410,spring_faces,3.1.5,60.03669334654842,
condition files/Stage1_1.xlsx,,B4,T4,m,"['c', 'm']","['Clue', 'Monopoly']","[-0.15, 0.5]","[0.15, 0.5]",1,1,,,,,,,,,0,10,10,10,0,3,3,7,,,,,,,,,,,,,,,,,,,,,,,,,,,,,,,,,,,,,,,,,,,,,,,,,,,,,,,2572.739034348,None,2572.739034348,None,2572.739034348,None,m,1,1.3310192370008735,2574.272863883998,None,2574.272863883998,None,2574.272863883998,None,2575.672508173997,None,2575.672508173997,None,2575.672508173997,None,2575.672508173997,None,,,,,,,,,,,,,,,,,,,,,,,,,,,,,,,,,,,,,,,,,,,,001,137,2020_Feb_18_1410,spring_faces,3.1.5,60.03669334654842,
condition files/Stage1_1.xlsx,,B3,T3,c,"['c', 'm']","['Clue', 'Monopoly']","[-0.15, 0.5]","[0.15, 0.5]",1,1,,,,,,,,,0,10,10,10,0,4,4,4,,,,,,,,,,,,,,,,,,,,,,,,,,,,,,,,,,,,,,,,,,,,,,,,,,,,,,,2577.622378273998,None,2577.622378273998,None,2577.622378273998,None,c,1,1.5677281839998614,2579.172072541998,None,2579.172072541998,None,2579.172072541998,None,2580.805037995,None,2580.805037995,None,2580.805037995,None,2580.805037995,None,,,,,,,,,,,,,,,,,,,,,,,,,,,,,,,,,,,,,,,,,,,,001,137,2020_Feb_18_1410,spring_faces,3.1.5,60.03669334654842,
condition files/Stage1_1.xlsx,,T2,B2,m,"['c', 'm']","['Clue', 'Monopoly']","[-0.15, 0.5]","[0.15, 0.5]",1,1,,,,,,,,,0,10,10,10,0,5,5,3,,,,,,,,,,,,,,,,,,,,,,,,,,,,,,,,,,,,,,,,,,,,,,,,,,,,,,,2582.772126226999,None,2582.772126226999,None,2582.772126226999,None,m,1,1.600530362000427,2584.307384312,None,2584.307384312,None,2584.307384312,None,2585.972844467,None,2585.972844467,None,2585.972844467,None,2585.972844467,None,,,,,,,,,,,,,,,,,,,,,,,,,,,,,,,,,,,,,,,,,,,,001,137,2020_Feb_18_1410,spring_faces,3.1.5,60.03669334654842,
condition files/Stage1_1.xlsx,,T3,B4,c,"['c', 'm']","['Clue', 'Monopoly']","[-0.15, 0.5]","[0.15, 0.5]",1,1,,,,,,,,,0,10,10,10,0,6,6,5,,,,,,,,,,,,,,,,,,,,,,,,,,,,,,,,,,,,,,,,,,,,,,,,,,,,,,,2587.9389449359987,None,2587.9389449359987,None,2587.9389449359987,None,m,0,1.0745289480000793,2589.489390972998,None,2589.489390972998,None,2589.489390972998,None,2590.6234270489986,None,2590.6234270489986,None,2590.6234270489986,None,2590.6234270489986,None,,,,,,,,,,,,,,,,,,,,,,,,,,,,,,,,,,,,,,,,,,,,001,137,2020_Feb_18_1410,spring_faces,3.1.5,60.03669334654842,
condition files/Stage1_1.xlsx,,B1,T2,c,"['c', 'm']","['Clue', 'Monopoly']","[-0.15, 0.5]","[0.15, 0.5]",1,1,,,,,,,,,0,10,10,10,0,7,7,1,,,,,,,,,,,,,,,,,,,,,,,,,,,,,,,,,,,,,,,,,,,,,,,,,,,,,,,2592.5889409599986,None,2592.5889409599986,None,2592.5889409599986,None,c,1,1.4163010140000551,2594.1396253109997,None,2594.1396253109997,None,2594.1396253109997,None,2595.605374118997,None,2595.605374118997,None,2595.605374118997,None,2595.605374118997,None,,,,,,,,,,,,,,,,,,,,,,,,,,,,,,,,,,,,,,,,,,,,001,137,2020_Feb_18_1410,spring_faces,3.1.5,60.03669334654842,
condition files/Stage1_2.xlsx,,T3,B3,c,"['c', 'm']","['Clue', 'Monopoly']","[-0.15, 0.5]","[0.15, 0.5]",1,1,,,,,,,,,0,11,11,11,0,0,0,4,,,,,,,,,,,,,,,,,,,,,,,,,,,,,,,,,,,,,,,,,,,,,,,,,,,,,,,2597.5893810299967,None,2597.5893810299967,None,2597.5893810299967,None,c,1,1.2162790889997268,2599.1396406939966,None,2599.1396406939966,None,2599.1396406939966,None,2600.4063742649996,None,2600.4063742649996,None,2600.4063742649996,None,2600.4063742649996,None,,,,,,,,,,,,,,,,,,,,,,,,,,,,,,,,,,,,,,,,,,,,001,137,2020_Feb_18_1410,spring_faces,3.1.5,60.03669334654842,
condition files/Stage1_2.xlsx,,B1,T1,c,"['c', 'm']","['Clue', 'Monopoly']","[-0.15, 0.5]","[0.15, 0.5]",1,1,,,,,,,,,0,11,11,11,0,1,1,0,,,,,,,,,,,,,,,,,,,,,,,,,,,,,,,,,,,,,,,,,,,,,,,,,,,,,,,2602.3722864409974,None,2602.3722864409974,None,2602.3722864409974,None,c,1,1.296778556999925,2603.9070890699986,None,2603.9070890699986,None,2603.9070890699986,None,2605.255723839997,None,2605.255723839997,None,2605.255723839997,None,2605.255723839997,None,,,,,,,,,,,,,,,,,,,,,,,,,,,,,,,,,,,,,,,,,,,,001,137,2020_Feb_18_1410,spring_faces,3.1.5,60.03669334654842,
condition files/Stage1_2.xlsx,,T4,B4,m,"['c', 'm']","['Clue', 'Monopoly']","[-0.15, 0.5]","[0.15, 0.5]",1,1,,,,,,,,,0,11,11,11,0,2,2,7,,,,,,,,,,,,,,,,,,,,,,,,,,,,,,,,,,,,,,,,,,,,,,,,,,,,,,,2607.222694934,None,2607.222694934,None,2607.222694934,None,m,1,1.0073020290001296,2608.7566202119997,None,2608.7566202119997,None,2608.7566202119997,None,2609.8239726579995,None,2609.8239726579995,None,2609.8239726579995,None,2609.8239726579995,None,,,,,,,,,,,,,,,,,,,,,,,,,,,,,,,,,,,,,,,,,,,,001,137,2020_Feb_18_1410,spring_faces,3.1.5,60.03669334654842,
condition files/Stage1_2.xlsx,,B4,T3,c,"['c', 'm']","['Clue', 'Monopoly']","[-0.15, 0.5]","[0.15, 0.5]",1,1,,,,,,,,,0,11,11,11,0,3,3,5,,,,,,,,,,,,,,,,,,,,,,,,,,,,,,,,,,,,,,,,,,,,,,,,,,,,,,,2611.7890858639985,None,2611.7890858639985,None,2611.7890858639985,None,c,1,3.4313670699993963,2613.3245576579975,None,2613.3245576579975,None,2613.3245576579975,None,2616.822980866,None,2616.822980866,None,2616.822980866,None,2616.822980866,None,,,,,,,,,,,,,,,,,,,,,,,,,,,,,,,,,,,,,,,,,,,,001,137,2020_Feb_18_1410,spring_faces,3.1.5,60.03669334654842,
condition files/Stage1_2.xlsx,,B3,T4,m,"['c', 'm']","['Clue', 'Monopoly']","[-0.15, 0.5]","[0.15, 0.5]",1,1,,,,,,,,,0,11,11,11,0,4,4,6,,,,,,,,,,,,,,,,,,,,,,,,,,,,,,,,,,,,,,,,,,,,,,,,,,,,,,,2618.772370769999,None,2618.772370769999,None,2618.772370769999,None,m,1,4.833184080001956,2620.322749464998,None,2620.322749464998,None,2620.322749464998,None,2625.222349702999,None,2625.222349702999,None,2625.222349702999,None,2625.222349702999,None,,,,,,,,,,,,,,,,,,,,,,,,,,,,,,,,,,,,,,,,,,,,001,137,2020_Feb_18_1410,spring_faces,3.1.5,60.03669334654842,
condition files/Stage1_2.xlsx,,T2,B1,c,"['c', 'm']","['Clue', 'Monopoly']","[-0.15, 0.5]","[0.15, 0.5]",1,1,,,,,,,,,0,11,11,11,0,5,5,1,,,,,,,,,,,,,,,,,,,,,,,,,,,,,,,,,,,,,,,,,,,,,,,,,,,,,,,2627.171956348,None,2627.171956348,None,2627.171956348,None,c,1,2.3531434779979463,2628.7227662569967,None,2628.7227662569967,None,2628.7227662569967,None,2631.156132885997,None,2631.156132885997,None,2631.156132885997,None,2631.156132885997,None,,,,,,,,,,,,,,,,,,,,,,,,,,,,,,,,,,,,,,,,,,,,001,137,2020_Feb_18_1410,spring_faces,3.1.5,60.03669334654842,
condition files/Stage1_2.xlsx,,B2,T2,m,"['c', 'm']","['Clue', 'Monopoly']","[-0.15, 0.5]","[0.15, 0.5]",1,1,,,,,,,,,0,11,11,11,0,6,6,3,,,,,,,,,,,,,,,,,,,,,,,,,,,,,,,,,,,,,,,,,,,,,,,,,,,,,,,2633.105860402,None,2633.105860402,None,2633.105860402,None,m,1,6.660262024997792,2634.655661187997,None,2634.655661187997,None,2634.655661187997,None,2641.3892079599973,None,2641.3892079599973,None,2641.3892079599973,None,2641.3892079599973,None,,,,,,,,,,,,,,,,,,,,,,,,,,,,,,,,,,,,,,,,,,,,001,137,2020_Feb_18_1410,spring_faces,3.1.5,60.03669334654842,
condition files/Stage1_2.xlsx,,T1,B2,m,"['c', 'm']","['Clue', 'Monopoly']","[-0.15, 0.5]","[0.15, 0.5]",1,1,,,,,,,,,0,11,11,11,0,7,7,2,,,,,,,,,,,,,,,,,,,,,,,,,,,,,,,,,,,,,,,,,,,,,,,,,,,,,,,2643.3391233069997,None,2643.3391233069997,None,2643.3391233069997,None,m,1,2.1864247960002103,2644.8894697899996,None,2644.8894697899996,None,2644.8894697899996,None,2647.1395027849976,None,2647.1395027849976,None,2647.1395027849976,None,2647.1395027849976,None,,,,,,,,,,,,,,,,,,,,,,,,,,,,,,,,,,,,,,,,,,,,001,137,2020_Feb_18_1410,spring_faces,3.1.5,60.03669334654842,
,,,,,,,,,,,,,,,,,,,,,,,,,,,,,,,,,,,,,,,,,,,,,,,,,,,,,,,,,,,,,,,,,,,,,,,,,,,,,,,,,,,,,,,,,,,,,,,,,,,,,,,,,,,,,,,,2649.122570902997,None,space,5.833350123000855,2654.122632560997,None,,,,,,,,,,,,,,,,,,,,,,,,,,,,,,001,137,2020_Feb_18_1410,spring_faces,3.1.5,60.03669334654842,
condition files/Stage2_1.xlsx,,B4,T4,r,"['s', 'r']","['Stratego', 'Risk']","[-0.15, 0.5]","[0.15, 0.5]",1,1,,,,,,,,,,,,,,,,,0,0,0,0,0,0,0,5,,,,,,,,,,,,,,,,,,,,,,,,,,,,,,,,,,,,,,,,,,,,,,,2660.0061594599974,None,2660.0061594599974,None,2660.0061594599974,None,s,0,2.3531232249988534,2661.5387705229987,None,2661.5387705229987,None,2661.5387705229987,None,2663.972882959999,None,2663.972882959999,None,2663.972882959999,None,2663.972882959999,None,,,,,,,,,,,,,,,2654.122632560997,None,,,,,,,,,,,,,,,,,,,,,,,,,,,,001,137,2020_Feb_18_1410,spring_faces,3.1.5,60.03669334654842,
condition files/Stage2_1.xlsx,,T3,B3,s,"['s', 'r']","['Stratego', 'Risk']","[-0.15, 0.5]","[0.15, 0.5]",1,1,,,,,,,,,,,,,,,,,0,0,0,0,0,1,1,4,,,,,,,,,,,,,,,,,,,,,,,,,,,,,,,,,,,,,,,,,,,,,,,2665.922169439,None,2665.922169439,None,2665.922169439,None,s,1,6.307216316999984,2667.4727214449995,None,2667.4727214449995,None,2667.4727214449995,None,2673.8555557149994,None,2673.8555557149994,None,2673.8555557149994,None,2673.8555557149994,None,,,,,,,,,,,,,,,,,,,,,,,,,,,,,,,,,,,,,,,,,,,,001,137,2020_Feb_18_1410,spring_faces,3.1.5,60.03669334654842,
condition files/Stage2_1.xlsx,,B2,T2,r,"['s', 'r']","['Stratego', 'Risk']","[-0.15, 0.5]","[0.15, 0.5]",1,1,,,,,,,,,,,,,,,,,0,0,0,0,0,2,2,3,,,,,,,,,,,,,,,,,,,,,,,,,,,,,,,,,,,,,,,,,,,,,,,2675.805367252,None,2675.805367252,None,2675.805367252,None,r,1,2.1685075950008468,2677.3553818729997,None,2677.3553818729997,None,2677.3553818729997,None,2679.605982228997,None,2679.605982228997,None,2679.605982228997,None,2679.605982228997,None,,,,,,,,,,,,,,,,,,,,,,,,,,,,,,,,,,,,,,,,,,,,001,137,2020_Feb_18_1410,spring_faces,3.1.5,60.03669334654842,
condition files/Stage2_1.xlsx,,T1,B1,s,"['s', 'r']","['Stratego', 'Risk']","[-0.15, 0.5]","[0.15, 0.5]",1,1,,,,,,,,,,,,,,,,,0,0,0,0,0,3,3,2,,,,,,,,,,,,,,,,,,,,,,,,,,,,,,,,,,,,,,,,,,,,,,,2681.5555672079972,None,2681.5555672079972,None,2681.5555672079972,None,s,1,1.2185035130023607,2683.105330659997,None,2683.105330659997,None,2683.105330659997,None,2684.405970996999,None,2684.405970996999,None,2684.405970996999,None,2684.405970996999,None,,,,,,,,,,,,,,,,,,,,,,,,,,,,,,,,,,,,,,,,,,,,001,137,2020_Feb_18_1410,spring_faces,3.1.5,60.03669334654842,
condition files/Stage2_1.xlsx,,T5,B5,s,"['s', 'r']","['Stratego', 'Risk']","[-0.15, 0.5]","[0.15, 0.5]",1,1,,,,,,,,,,,,,,,,,0,0,0,0,0,4,4,0,,,,,,,,,,,,,,,,,,,,,,,,,,,,,,,,,,,,,,,,,,,,,,,2686.35544055,None,2686.35544055,None,2686.35544055,None,r,0,4.176720293999097,2687.891157408998,None,2687.891157408998,None,2687.891157408998,None,2692.1226454009993,None,2692.1226454009993,None,2692.1226454009993,None,2692.1226454009993,None,,,,,,,,,,,,,,,,,,,,,,,,,,,,,,,,,,,,,,,,,,,,001,137,2020_Feb_18_1410,spring_faces,3.1.5,60.03669334654842,
condition files/Stage2_1.xlsx,,B6,T6,r,"['s', 'r']","['Stratego', 'Risk']","[-0.15, 0.5]","[0.15, 0.5]",1,1,,,,,,,,,,,,,,,,,0,0,0,0,0,5,5,1,,,,,,,,,,,,,,,,,,,,,,,,,,,,,,,,,,,,,,,,,,,,,,,2694.0898309699987,None,2694.0898309699987,None,2694.0898309699987,None,s,0,2.5240278970013605,2695.623910749,None,2695.623910749,None,2695.623910749,None,2698.207898348999,None,2698.207898348999,None,2698.207898348999,None,2698.207898348999,None,,,,,,,,,,,,,,,,,,,,,,,,,,,,,,,,,,,,,,,,,,,,001,137,2020_Feb_18_1410,spring_faces,3.1.5,60.03669334654842,
condition files/Stage2_2.xlsx,,B1,T1,s,"['s', 'r']","['Stratego', 'Risk']","[-0.15, 0.5]","[0.15, 0.5]",1,1,,,,,,,,,,,,,,,,,0,1,1,1,0,0,0,2,,,,,,,,,,,,,,,,,,,,,,,,,,,,,,,,,,,,,,,,,,,,,,,2700.189705722998,None,2700.189705722998,None,2700.189705722998,None,s,1,5.880548225999519,2701.7393399199973,None,2701.7393399199973,None,2701.7393399199973,None,2707.688806563998,None,2707.688806563998,None,2707.688806563998,None,2707.688806563998,None,,,,,,,,,,,,,,,,,,,,,,,,,,,,,,,,,,,,,,,,,,,,001,137,2020_Feb_18_1410,spring_faces,3.1.5,60.03669334654842,
condition files/Stage2_2.xlsx,,T2,B2,r,"['s', 'r']","['Stratego', 'Risk']","[-0.15, 0.5]","[0.15, 0.5]",1,1,,,,,,,,,,,,,,,,,0,1,1,1,0,1,1,3,,,,,,,,,,,,,,,,,,,,,,,,,,,,,,,,,,,,,,,,,,,,,,,2709.6392723969984,None,2709.6392723969984,None,2709.6392723969984,None,r,1,1.5983856560014829,2711.1895167619987,None,2711.1895167619987,None,2711.1895167619987,None,2712.8407680279997,None,2712.8407680279997,None,2712.8407680279997,None,2712.8407680279997,None,,,,,,,,,,,,,,,,,,,,,,,,,,,,,,,,,,,,,,,,,,,,001,137,2020_Feb_18_1410,spring_faces,3.1.5,60.03669334654842,
condition files/Stage2_2.xlsx,,T6,B6,r,"['s', 'r']","['Stratego', 'Risk']","[-0.15, 0.5]","[0.15, 0.5]",1,1,,,,,,,,,,,,,,,,,0,1,1,1,0,2,2,1,,,,,,,,,,,,,,,,,,,,,,,,,,,,,,,,,,,,,,,,,,,,,,,2714.8054582079967,None,2714.8054582079967,None,2714.8054582079967,None,r,1,2.367895225997927,2716.355940426998,None,2716.355940426998,None,2716.355940426998,None,2718.7893035499983,None,2718.7893035499983,None,2718.7893035499983,None,2718.7893035499983,None,,,,,,,,,,,,,,,,,,,,,,,,,,,,,,,,,,,,,,,,,,,,001,137,2020_Feb_18_1410,spring_faces,3.1.5,60.03669334654842,
condition files/Stage2_2.xlsx,,B5,T5,s,"['s', 'r']","['Stratego', 'Risk']","[-0.15, 0.5]","[0.15, 0.5]",1,1,,,,,,,,,,,,,,,,,0,1,1,1,0,3,3,0,,,,,,,,,,,,,,,,,,,,,,,,,,,,,,,,,,,,,,,,,,,,,,,2720.7561284179974,None,2720.7561284179974,None,2720.7561284179974,None,r,0,3.985679508998146,2722.3061972279975,None,2722.3061972279975,None,2722.3061972279975,None,2726.357605959998,None,2726.357605959998,None,2726.357605959998,None,2726.357605959998,None,,,,,,,,,,,,,,,,,,,,,,,,,,,,,,,,,,,,,,,,,,,,001,137,2020_Feb_18_1410,spring_faces,3.1.5,60.03669334654842,
condition files/Stage2_2.xlsx,,T4,B4,r,"['s', 'r']","['Stratego', 'Risk']","[-0.15, 0.5]","[0.15, 0.5]",1,1,,,,,,,,,,,,,,,,,0,1,1,1,0,4,4,5,,,,,,,,,,,,,,,,,,,,,,,,,,,,,,,,,,,,,,,,,,,,,,,2728.3226154449985,None,2728.3226154449985,None,2728.3226154449985,None,r,1,7.042098775997147,2729.8577695269996,None,2729.8577695269996,None,2729.8577695269996,None,2736.972551641,None,2736.972551641,None,2736.972551641,None,2736.972551641,None,,,,,,,,,,,,,,,,,,,,,,,,,,,,,,,,,,,,,,,,,,,,001,137,2020_Feb_18_1410,spring_faces,3.1.5,60.03669334654842,
condition files/Stage2_2.xlsx,,B3,T3,s,"['s', 'r']","['Stratego', 'Risk']","[-0.15, 0.5]","[0.15, 0.5]",1,1,,,,,,,,,,,,,,,,,0,1,1,1,0,5,5,4,,,,,,,,,,,,,,,,,,,,,,,,,,,,,,,,,,,,,,,,,,,,,,,2738.9223096279966,None,2738.9223096279966,None,2738.9223096279966,None,s,1,12.6041125260017,2740.455817465998,None,2740.455817465998,None,2740.455817465998,None,2753.124073425999,None,2753.124073425999,None,2753.124073425999,None,2753.124073425999,None,,,,,,,,,,,,,,,,,,,,,,,,,,,,,,,,,,,,,,,,,,,,001,137,2020_Feb_18_1410,spring_faces,3.1.5,60.03669334654842,
condition files/Stage2_1.xlsx,,T3,B3,s,"['s', 'r']","['Stratego', 'Risk']","[-0.15, 0.5]","[0.15, 0.5]",1,1,,,,,,,,,,,,,,,,,0,2,2,2,0,0,0,4,,,,,,,,,,,,,,,,,,,,,,,,,,,,,,,,,,,,,,,,,,,,,,,2755.1059516979985,None,2755.1059516979985,None,2755.1059516979985,None,s,1,2.1947422929988534,2756.641249270997,None,2756.641249270997,None,2756.641249270997,None,2758.888984672998,None,2758.888984672998,None,2758.888984672998,None,2758.888984672998,None,,,,,,,,,,,,,,,,,,,,,,,,,,,,,,,,,,,,,,,,,,,,001,137,2020_Feb_18_1410,spring_faces,3.1.5,60.03669334654842,
condition files/Stage2_1.xlsx,,T5,B5,s,"['s', 'r']","['Stratego', 'Risk']","[-0.15, 0.5]","[0.15, 0.5]",1,1,,,,,,,,,,,,,,,,,0,2,2,2,0,1,1,0,,,,,,,,,,,,,,,,,,,,,,,,,,,,,,,,,,,,,,,,,,,,,,,2760.855674388,None,2760.855674388,None,2760.855674388,None,s,1,2.415132734000508,2762.388751737999,None,2762.388751737999,None,2762.388751737999,None,2764.855797500997,None,2764.855797500997,None,2764.855797500997,None,2764.855797500997,None,,,,,,,,,,,,,,,,,,,,,,,,,,,,,,,,,,,,,,,,,,,,001,137,2020_Feb_18_1410,spring_faces,3.1.5,60.03669334654842,
condition files/Stage2_1.xlsx,,B4,T4,r,"['s', 'r']","['Stratego', 'Risk']","[-0.15, 0.5]","[0.15, 0.5]",1,1,,,,,,,,,,,,,,,,,0,2,2,2,0,2,2,5,,,,,,,,,,,,,,,,,,,,,,,,,,,,,,,,,,,,,,,,,,,,,,,2766.822034632998,None,2766.822034632998,None,2766.822034632998,None,r,1,1.7439295100011805,2768.371998683,None,2768.371998683,None,2768.371998683,None,2770.1741896779968,None,2770.1741896779968,None,2770.1741896779968,None,2770.1741896779968,None,,,,,,,,,,,,,,,,,,,,,,,,,,,,,,,,,,,,,,,,,,,,001,137,2020_Feb_18_1410,spring_faces,3.1.5,60.03669334654842,
condition files/Stage2_1.xlsx,,B2,T2,r,"['s', 'r']","['Stratego', 'Risk']","[-0.15, 0.5]","[0.15, 0.5]",1,1,,,,,,,,,,,,,,,,,0,2,2,2,0,3,3,3,,,,,,,,,,,,,,,,,,,,,,,,,,,,,,,,,,,,,,,,,,,,,,,2772.1390272299977,None,2772.1390272299977,None,2772.1390272299977,None,r,1,1.6747332689992618,2773.673215838,None,2773.673215838,None,2773.673215838,None,2775.4053206699973,None,2775.4053206699973,None,2775.4053206699973,None,2775.4053206699973,None,,,,,,,,,,,,,,,,,,,,,,,,,,,,,,,,,,,,,,,,,,,,001,137,2020_Feb_18_1410,spring_faces,3.1.5,60.03669334654842,
condition files/Stage2_1.xlsx,,T1,B1,s,"['s', 'r']","['Stratego', 'Risk']","[-0.15, 0.5]","[0.15, 0.5]",1,1,,,,,,,,,,,,,,,,,0,2,2,2,0,4,4,2,,,,,,,,,,,,,,,,,,,,,,,,,,,,,,,,,,,,,,,,,,,,,,,2777.3723095469977,None,2777.3723095469977,None,2777.3723095469977,None,s,1,3.7056061240000417,2778.922290118,None,2778.922290118,None,2778.922290118,None,2782.691826948998,None,2782.691826948998,None,2782.691826948998,None,2782.691826948998,None,,,,,,,,,,,,,,,,,,,,,,,,,,,,,,,,,,,,,,,,,,,,001,137,2020_Feb_18_1410,spring_faces,3.1.5,60.03669334654842,
condition files/Stage2_1.xlsx,,B6,T6,r,"['s', 'r']","['Stratego', 'Risk']","[-0.15, 0.5]","[0.15, 0.5]",1,1,,,,,,,,,,,,,,,,,0,2,2,2,0,5,5,1,,,,,,,,,,,,,,,,,,,,,,,,,,,,,,,,,,,,,,,,,,,,,,,2784.6556115079984,None,2784.6556115079984,None,2784.6556115079984,None,s,0,3.7177081259978877,2786.206111501997,None,2786.206111501997,None,2786.206111501997,None,2790.005743193,None,2790.005743193,None,2790.005743193,None,2790.005743193,None,,,,,,,,,,,,,,,,,,,,,,,,,,,,,,,,,,,,,,,,,,,,001,137,2020_Feb_18_1410,spring_faces,3.1.5,60.03669334654842,
condition files/Stage2_2.xlsx,,T2,B2,r,"['s', 'r']","['Stratego', 'Risk']","[-0.15, 0.5]","[0.15, 0.5]",1,1,,,,,,,,,,,,,,,,,0,3,3,3,0,0,0,3,,,,,,,,,,,,,,,,,,,,,,,,,,,,,,,,,,,,,,,,,,,,,,,2791.9724740349993,None,2791.9724740349993,None,2791.9724740349993,None,r,1,1.8568647030006105,2793.523079120998,None,2793.523079120998,None,2793.523079120998,None,2795.4396475389985,None,2795.4396475389985,None,2795.4396475389985,None,2795.4396475389985,None,,,,,,,,,,,,,,,,,,,,,,,,,,,,,,,,,,,,,,,,,,,,001,137,2020_Feb_18_1410,spring_faces,3.1.5,60.03669334654842,
condition files/Stage2_2.xlsx,,B1,T1,s,"['s', 'r']","['Stratego', 'Risk']","[-0.15, 0.5]","[0.15, 0.5]",1,1,,,,,,,,,,,,,,,,,0,3,3,3,0,1,1,2,,,,,,,,,,,,,,,,,,,,,,,,,,,,,,,,,,,,,,,,,,,,,,,2797.405607703,None,2797.405607703,None,2797.405607703,None,s,1,1.719805296001141,2798.956095851998,None,2798.956095851998,None,2798.956095851998,None,2800.7559903169968,None,2800.7559903169968,None,2800.7559903169968,None,2800.7559903169968,None,,,,,,,,,,,,,,,,,,,,,,,,,,,,,,,,,,,,,,,,,,,,001,137,2020_Feb_18_1410,spring_faces,3.1.5,60.03669334654842,
condition files/Stage2_2.xlsx,,T6,B6,r,"['s', 'r']","['Stratego', 'Risk']","[-0.15, 0.5]","[0.15, 0.5]",1,1,,,,,,,,,,,,,,,,,0,3,3,3,0,2,2,1,,,,,,,,,,,,,,,,,,,,,,,,,,,,,,,,,,,,,,,,,,,,,,,2802.7053938579993,None,2802.7053938579993,None,2802.7053938579993,None,s,0,1.4753917870002624,2804.240564902997,None,2804.240564902997,None,2804.240564902997,None,2805.773946669,None,2805.773946669,None,2805.773946669,None,2805.773946669,None,,,,,,,,,,,,,,,,,,,,,,,,,,,,,,,,,,,,,,,,,,,,001,137,2020_Feb_18_1410,spring_faces,3.1.5,60.03669334654842,
condition files/Stage2_2.xlsx,,B5,T5,s,"['s', 'r']","['Stratego', 'Risk']","[-0.15, 0.5]","[0.15, 0.5]",1,1,,,,,,,,,,,,,,,,,0,3,3,3,0,3,3,0,,,,,,,,,,,,,,,,,,,,,,,,,,,,,,,,,,,,,,,,,,,,,,,2807.739422904,None,2807.739422904,None,2807.739422904,None,s,1,1.1139612820006732,2809.2738528769987,None,2809.2738528769987,None,2809.2738528769987,None,2810.4420278079997,None,2810.4420278079997,None,2810.4420278079997,None,2810.4420278079997,None,,,,,,,,,,,,,,,,,,,,,,,,,,,,,,,,,,,,,,,,,,,,001,137,2020_Feb_18_1410,spring_faces,3.1.5,60.03669334654842,
condition files/Stage2_2.xlsx,,B3,T3,s,"['s', 'r']","['Stratego', 'Risk']","[-0.15, 0.5]","[0.15, 0.5]",1,1,,,,,,,,,,,,,,,,,0,3,3,3,0,4,4,4,,,,,,,,,,,,,,,,,,,,,,,,,,,,,,,,,,,,,,,,,,,,,,,2812.4056971669997,None,2812.4056971669997,None,2812.4056971669997,None,s,1,1.9838275330002944,2813.956015407999,None,2813.956015407999,None,2813.956015407999,None,2816.0057141079997,None,2816.0057141079997,None,2816.0057141079997,None,2816.0057141079997,None,,,,,,,,,,,,,,,,,,,,,,,,,,,,,,,,,,,,,,,,,,,,001,137,2020_Feb_18_1410,spring_faces,3.1.5,60.03669334654842,
condition files/Stage2_2.xlsx,,T4,B4,r,"['s', 'r']","['Stratego', 'Risk']","[-0.15, 0.5]","[0.15, 0.5]",1,1,,,,,,,,,,,,,,,,,0,3,3,3,0,5,5,5,,,,,,,,,,,,,,,,,,,,,,,,,,,,,,,,,,,,,,,,,,,,,,,2817.972419001999,None,2817.972419001999,None,2817.972419001999,None,r,1,2.8490752709985827,2819.5067845059966,None,2819.5067845059966,None,2819.5067845059966,None,2822.4086712499993,None,2822.4086712499993,None,2822.4086712499993,None,2822.4086712499993,None,,,,,,,,,,,,,,,,,,,,,,,,,,,,,,,,,,,,,,,,,,,,001,137,2020_Feb_18_1410,spring_faces,3.1.5,60.03669334654842,
condition files/Stage2_1.xlsx,,T1,B1,s,"['s', 'r']","['Stratego', 'Risk']","[-0.15, 0.5]","[0.15, 0.5]",1,1,,,,,,,,,,,,,,,,,0,4,4,4,0,0,0,2,,,,,,,,,,,,,,,,,,,,,,,,,,,,,,,,,,,,,,,,,,,,,,,2824.3893888139974,None,2824.3893888139974,None,2824.3893888139974,None,s,1,1.5045437379994837,2825.939378375999,None,2825.939378375999,None,2825.939378375999,None,2827.522452387999,None,2827.522452387999,None,2827.522452387999,None,2827.522452387999,None,,,,,,,,,,,,,,,,,,,,,,,,,,,,,,,,,,,,,,,,,,,,001,137,2020_Feb_18_1410,spring_faces,3.1.5,60.03669334654842,
condition files/Stage2_1.xlsx,,B4,T4,r,"['s', 'r']","['Stratego', 'Risk']","[-0.15, 0.5]","[0.15, 0.5]",1,1,,,,,,,,,,,,,,,,,0,4,4,4,0,1,1,5,,,,,,,,,,,,,,,,,,,,,,,,,,,,,,,,,,,,,,,,,,,,,,,2829.472177022999,None,2829.472177022999,None,2829.472177022999,None,r,1,3.8931899029994383,2831.0227436609966,None,2831.0227436609966,None,2831.0227436609966,None,2834.989449556,None,2834.989449556,None,2834.989449556,None,2834.989449556,None,,,,,,,,,,,,,,,,,,,,,,,,,,,,,,,,,,,,,,,,,,,,001,137,2020_Feb_18_1410,spring_faces,3.1.5,60.03669334654842,
condition files/Stage2_1.xlsx,,B2,T2,r,"['s', 'r']","['Stratego', 'Risk']","[-0.15, 0.5]","[0.15, 0.5]",1,1,,,,,,,,,,,,,,,,,0,4,4,4,0,2,2,3,,,,,,,,,,,,,,,,,,,,,,,,,,,,,,,,,,,,,,,,,,,,,,,2836.939066854997,None,2836.939066854997,None,2836.939066854997,None,r,1,2.2666058460017666,2838.489331429999,None,2838.489331429999,None,2838.489331429999,None,2840.8059035829974,None,2840.8059035829974,None,2840.8059035829974,None,2840.8059035829974,None,,,,,,,,,,,,,,,,,,,,,,,,,,,,,,,,,,,,,,,,,,,,001,137,2020_Feb_18_1410,spring_faces,3.1.5,60.03669334654842,
