condsFile,subStage,cue1,cue2,correct,responseKeys,responseNames,cue1Position,cue2Position,cue1Opacity,cue2Opacity,stageLoop0.thisRepN,stageLoop0.thisTrialN,stageLoop0.thisN,stageLoop0.thisIndex,blockLoop0.thisRepN,blockLoop0.thisTrialN,blockLoop0.thisN,blockLoop0.thisIndex,stage1Loop.thisRepN,stage1Loop.thisTrialN,stage1Loop.thisN,stage1Loop.thisIndex,blockLoop1.thisRepN,blockLoop1.thisTrialN,blockLoop1.thisN,blockLoop1.thisIndex,stage2Loop.thisRepN,stage2Loop.thisTrialN,stage2Loop.thisN,stage2Loop.thisIndex,blockLoop2.thisRepN,blockLoop2.thisTrialN,blockLoop2.thisN,blockLoop2.thisIndex,testLoop.thisRepN,testLoop.thisTrialN,testLoop.thisN,testLoop.thisIndex,blockLoopTest.thisRepN,blockLoopTest.thisTrialN,blockLoopTest.thisN,blockLoopTest.thisIndex,cuePics,id_instr_text.started,id_instr_text.stopped,space_to_continue_2.started,space_to_continue_2.stopped,end_instructions_resp_3.keys,end_instructions_resp_3.rt,end_instructions_resp_3.started,end_instructions_resp_3.stopped,id_input_instr.started,id_input_instr.stopped,id_input_rect.started,id_input_rect.stopped,id_input_resp.keys,id_input_resp.rt,id_input_resp.started,id_input_resp.stopped,sonaID,id_input_text.started,id_input_text.stopped,final_text.started,final_text.stopped,instructions.started,instructions.stopped,end_instructions_resp.keys,end_instructions_resp.rt,end_instructions_resp.started,end_instructions_resp.stopped,space_to_continue.started,space_to_continue.stopped,instructions_stage0.started,instructions_stage0.stopped,end_instructions_resp_stage0.keys,end_instructions_resp_stage0.rt,end_instructions_resp_stage0.started,end_instructions_resp_stage0.stopped,space_to_continue_stage0.started,space_to_continue_stage0.stopped,text.started,text.stopped,resp_text1.started,resp_text1.stopped,resp_text2.started,resp_text2.stopped,trial_resp.keys,trial_resp.corr,trial_resp.rt,trial_resp.started,trial_resp.stopped,cue1Image.started,cue1Image.stopped,cue2Image.started,cue2Image.stopped,cue1Image_fb.started,cue1Image_fb.stopped,cue2Image_fb.started,cue2Image_fb.stopped,fb_text_answer.started,fb_text_answer.stopped,feedback_image.started,feedback_image.stopped,instructions_stage1.started,instructions_stage1.stopped,end_instructions_resp_stage1.keys,end_instructions_resp_stage1.rt,end_instructions_resp_stage1.started,end_instructions_resp_stage1.stopped,space_to_continue_stage1.started,space_to_continue_stage1.stopped,instructions_2.started,instructions_2.stopped,end_instructions_resp_2.keys,end_instructions_resp_2.rt,end_instructions_resp_2.started,end_instructions_resp_2.stopped,press_space_to_continue_stage2.started,press_space_to_continue_stage2.stopped,instructions_testStage1.started,instructions_testStage1.stopped,end_instructions_resp_test1.keys,end_instructions_resp_test1.rt,end_instructions_resp_test1.started,end_instructions_resp_test1.stopped,press_space_to_continue_test1.started,press_space_to_continue_test1.stopped,cue1Image_testChoice.started,cue1Image_testChoice.stopped,cue2Image_testChoice.started,cue2Image_testChoice.stopped,test_resp.keys,test_resp.corr,test_resp.rt,test_resp.started,test_resp.stopped,cue1Image_testConf.started,cue1Image_testConf.stopped,cue2Image_testConf.started,cue2Image_testConf.stopped,conf_reminder.started,conf_reminder.stopped,conf_rating.response,conf_rating.rt,conf_rating.started,conf_rating.stopped,session,participant,date,expName,psychopyVersion,frameRate,
,,,,,,,,,,,,,,,,,,,,,,,,,,,,,,,,,,,,,,,,,,,"{'none': 'pictures/20M_AN_C.png', 'alpha': 'pictures/SHINEd_pepper.png', 'beta': 'pictures/SHINEd_melon.png', 'theta': 'pictures/SHINEd_apple.png', 'phi': 'pictures/SHINEd_pear.png', 'T1': 'pictures/34M_AN_C.png', 'T2': 'pictures/32M_AN_C.png', 'T3': 'pictures/37M_AN_C.png', 'T4': 'pictures/26M_AN_C.png', 'T5': 'pictures/38M_AN_C.png', 'T6': 'pictures/31M_AN_C.png', 'B1': 'pictures/23M_NE_C.png', 'B2': 'pictures/33M_NE_C.png', 'B3': 'pictures/25M_NE_C.png', 'B4': 'pictures/36M_NE_C.png', 'B5': 'pictures/20M_NE_C.png', 'B6': 'pictures/22M_NE_C.png'}",14.258077381000476,None,19.240988598001422,None,space,28.081716616998165,19.240988598001422,None,,,,,,,,,,,,,,,,,,,,,,,,,,,,,,,,,,,,,,,,,,,,,,,,,,,,,,,,,,,,,,,,,,,,,,,,,,,,,,,,,,,,,,,,,,,,,,,,001,138,2020_Feb_18_1428,spring_faces,3.1.5,60.04149948367395,
,,,,,,,,,,,,,,,,,,,,,,,,,,,,,,,,,,,,,,,,,,,,,,,,,,,,47.690498559000844,None,47.690498559000844,None,"['0', '6', '0', '2', 'p', 'a', 's', 'backspace', 'backspace', 'backspace', 'backspace', 'backspace', 'backspace', 'backspace', '0', '6', '0', '2', 's', 'h', 'p', 'a', 's', '0', '6', '0', '2', 's', 'h', 'p', 'a', 's', '0', '6', '0', '3', 'backspace', '2', 's', 'h', 'p', 'a', 's']","[10.864206405000004, 12.032218202002696, 18.080218735001836, 19.920217647002573, 29.008271442002297, 29.312190634002036, 29.648205711000628, 52.62422298599995, 53.008279333000246, 53.200208184000076, 53.392263499001274, 53.60019722300058, 53.80821189600101, 54.144281369000964, 58.560186023001734, 59.04022494600213, 59.28021336800157, 59.95215421100147, 69.31220621900138, 70.44820960300058, 72.5441349160028, 72.72021110500282, 72.86420746899967, 84.17628389400124, 84.88021363000007, 100.35215716899984, 100.84820951000074, 103.2962040070015, 103.68019406500025, 105.18417582600159, 105.34428536400083, 105.50422330900255, 115.53613686400058, 115.80821844200182, 116.32022429200151, 116.7202079330018, 117.45622246700077, 117.58416115500222, 118.72019850700235, 118.99227806999988, 120.04821471900141, 120.24023024900089, 120.36818708099963]",47.690498559000844,None,,,,,,,,,,,,,,,,,,,,,,,,,,,,,,,,,,,,,,,,,,,,,,,,,,,,,,,,,,,,,,,,,,,,,,,,,,,,,,,,,,,,,,,,001,138,2020_Feb_18_1428,spring_faces,3.1.5,60.04149948367395,
,,,,,,,,,,,,,,,,,,,,,,,,,,,,,,,,,,,,,,,,,,,,,,,,,,,,,,,,,,,,0602shpas,47.690498559000844,None,47.690498559000844,None,173.1412363519994,None,space,5.565282520001347,178.14142074100164,None,,,,,,,,,,,,,,,,,,,,,,,,,,,,,,,,,,,,,,,,,,,,,,,,,,,,,,,,,,,,,,,,,,,,,,,,,,,,,001,138,2020_Feb_18_1428,spring_faces,3.1.5,60.04149948367395,
,,,,,,,,,,,,,,,,,,,,,,,,,,,,,,,,,,,,,,,,,,,,,,,,,,,,,,,,,,,,,,,,,,,,,,,178.14142074100164,None,183.74090812099894,None,space,16.901968726000632,188.7407161839983,None,,,,,,,,,,,,,,,,,,,,,,,,,,,,,,,,,,,,,,,,,,,,,,,,,,,,,,,,,,,,,,,,,,,,,001,138,2020_Feb_18_1428,spring_faces,3.1.5,60.04149948367395,
condition files/Stage0a.xlsx,0a,beta,none,g,"['h', 'g']","['Chess', 'Go']","[0, 0.5]","[0, 0]",1,0,0,0,0,0,0,0,0,1,,,,,,,,,,,,,,,,,,,,,,,,,,,,,,,,,,,,,,,,,,,,,,,,,,,,,,,,,,,,,188.7407161839983,None,205.70781693000026,None,205.70781693000026,None,205.70781693000026,None,g,1,3.9835032310002134,207.29115309600093,None,207.29115309600093,None,207.29115309600093,None,211.35766574100126,None,211.35766574100126,None,211.35766574100126,None,211.35766574100126,None,,,,,,,,,,,,,,,,,,,,,,,,,,,,,,,,,,,,,,,,,,,,001,138,2020_Feb_18_1428,spring_faces,3.1.5,60.04149948367395,
condition files/Stage0a.xlsx,0a,alpha,none,h,"['h', 'g']","['Chess', 'Go']","[0, 0.5]","[0, 0]",1,0,0,0,0,0,0,1,1,0,,,,,,,,,,,,,,,,,,,,,,,,,,,,,,,,,,,,,,,,,,,,,,,,,,,,,,,,,,,,,,,213.30747061500006,None,213.30747061500006,None,213.30747061500006,None,h,1,1.7609938370005693,214.8576879430002,None,214.8576879430002,None,214.8576879430002,None,216.69063452299815,None,216.69063452299815,None,216.69063452299815,None,216.69063452299815,None,,,,,,,,,,,,,,,,,,,,,,,,,,,,,,,,,,,,,,,,,,,,001,138,2020_Feb_18_1428,spring_faces,3.1.5,60.04149948367395,
condition files/Stage0a.xlsx,0a,beta,none,g,"['h', 'g']","['Chess', 'Go']","[0, 0.5]","[0, 0]",1,0,0,1,1,1,0,0,0,1,,,,,,,,,,,,,,,,,,,,,,,,,,,,,,,,,,,,,,,,,,,,,,,,,,,,,,,,,,,,,,,218.65785622299882,None,218.65785622299882,None,218.65785622299882,None,g,1,1.2761275209995802,220.17453663999913,None,220.17453663999913,None,220.17453663999913,None,221.5081627489999,None,221.5081627489999,None,221.5081627489999,None,221.5081627489999,None,,,,,,,,,,,,,,,,,,,,,,,,,,,,,,,,,,,,,,,,,,,,001,138,2020_Feb_18_1428,spring_faces,3.1.5,60.04149948367395,
condition files/Stage0a.xlsx,0a,alpha,none,h,"['h', 'g']","['Chess', 'Go']","[0, 0.5]","[0, 0]",1,0,0,1,1,1,0,1,1,0,,,,,,,,,,,,,,,,,,,,,,,,,,,,,,,,,,,,,,,,,,,,,,,,,,,,,,,,,,,,,,,223.4743279969989,None,223.4743279969989,None,223.4743279969989,None,h,1,0.6350386279991653,225.00759679800103,None,225.00759679800103,None,225.00759679800103,None,225.7079465530005,None,225.7079465530005,None,225.7079465530005,None,225.7079465530005,None,,,,,,,,,,,,,,,,,,,,,,,,,,,,,,,,,,,,,,,,,,,,001,138,2020_Feb_18_1428,spring_faces,3.1.5,60.04149948367395,
condition files/Stage0a.xlsx,0a,alpha,none,h,"['h', 'g']","['Chess', 'Go']","[0, 0.5]","[0, 0]",1,0,0,2,2,2,0,0,0,0,,,,,,,,,,,,,,,,,,,,,,,,,,,,,,,,,,,,,,,,,,,,,,,,,,,,,,,,,,,,,,,227.69131974099946,None,227.69131974099946,None,227.69131974099946,None,h,1,1.2022649589998764,229.22443970699896,None,229.22443970699896,None,229.22443970699896,None,230.49113668200152,None,230.49113668200152,None,230.49113668200152,None,230.49113668200152,None,,,,,,,,,,,,,,,,,,,,,,,,,,,,,,,,,,,,,,,,,,,,001,138,2020_Feb_18_1428,spring_faces,3.1.5,60.04149948367395,
condition files/Stage0a.xlsx,0a,beta,none,g,"['h', 'g']","['Chess', 'Go']","[0, 0.5]","[0, 0]",1,0,0,2,2,2,0,1,1,1,,,,,,,,,,,,,,,,,,,,,,,,,,,,,,,,,,,,,,,,,,,,,,,,,,,,,,,,,,,,,,,232.45692267200138,None,232.45692267200138,None,232.45692267200138,None,g,1,0.8680787470002542,233.99058684299962,None,233.99058684299962,None,233.99058684299962,None,234.92630630699932,None,234.92630630699932,None,234.92630630699932,None,234.92630630699932,None,,,,,,,,,,,,,,,,,,,,,,,,,,,,,,,,,,,,,,,,,,,,001,138,2020_Feb_18_1428,spring_faces,3.1.5,60.04149948367395,
condition files/Stage0a.xlsx,0a,beta,none,g,"['h', 'g']","['Chess', 'Go']","[0, 0.5]","[0, 0]",1,0,0,3,3,3,0,0,0,1,,,,,,,,,,,,,,,,,,,,,,,,,,,,,,,,,,,,,,,,,,,,,,,,,,,,,,,,,,,,,,,236.90765749699858,None,236.90765749699858,None,236.90765749699858,None,g,1,0.9773708600005193,238.44135058900065,None,238.44135058900065,None,238.44135058900065,None,239.4740854470001,None,239.4740854470001,None,239.4740854470001,None,239.4740854470001,None,,,,,,,,,,,,,,,,,,,,,,,,,,,,,,,,,,,,,,,,,,,,001,138,2020_Feb_18_1428,spring_faces,3.1.5,60.04149948367395,
condition files/Stage0a.xlsx,0a,alpha,none,h,"['h', 'g']","['Chess', 'Go']","[0, 0.5]","[0, 0]",1,0,0,3,3,3,0,1,1,0,,,,,,,,,,,,,,,,,,,,,,,,,,,,,,,,,,,,,,,,,,,,,,,,,,,,,,,,,,,,,,,241.44100628199885,None,241.44100628199885,None,241.44100628199885,None,h,1,0.6201500840033987,242.9745343700015,None,242.9745343700015,None,242.9745343700015,None,243.65728868400038,None,243.65728868400038,None,243.65728868400038,None,243.65728868400038,None,,,,,,,,,,,,,,,,,,,,,,,,,,,,,,,,,,,,,,,,,,,,001,138,2020_Feb_18_1428,spring_faces,3.1.5,60.04149948367395,
condition files/Stage0a.xlsx,0a,beta,none,g,"['h', 'g']","['Chess', 'Go']","[0, 0.5]","[0, 0]",1,0,0,4,4,4,0,0,0,1,,,,,,,,,,,,,,,,,,,,,,,,,,,,,,,,,,,,,,,,,,,,,,,,,,,,,,,,,,,,,,,245.64112395600023,None,245.64112395600023,None,245.64112395600023,None,g,1,0.612439925000217,247.174283190001,None,247.174283190001,None,247.174283190001,None,247.84107805099848,None,247.84107805099848,None,247.84107805099848,None,247.84107805099848,None,,,,,,,,,,,,,,,,,,,,,,,,,,,,,,,,,,,,,,,,,,,,001,138,2020_Feb_18_1428,spring_faces,3.1.5,60.04149948367395,
condition files/Stage0a.xlsx,0a,alpha,none,h,"['h', 'g']","['Chess', 'Go']","[0, 0.5]","[0, 0]",1,0,0,4,4,4,0,1,1,0,,,,,,,,,,,,,,,,,,,,,,,,,,,,,,,,,,,,,,,,,,,,,,,,,,,,,,,,,,,,,,,249.8067091869998,None,249.8067091869998,None,249.8067091869998,None,h,1,0.6055946380001842,251.34110308899835,None,251.34110308899835,None,251.34110308899835,None,252.0081566129993,None,252.0081566129993,None,252.0081566129993,None,252.0081566129993,None,,,,,,,,,,,,,,,,,,,,,,,,,,,,,,,,,,,,,,,,,,,,001,138,2020_Feb_18_1428,spring_faces,3.1.5,60.04149948367395,
condition files/Stage0a.xlsx,0a,beta,none,g,"['h', 'g']","['Chess', 'Go']","[0, 0.5]","[0, 0]",1,0,0,5,5,5,0,0,0,1,,,,,,,,,,,,,,,,,,,,,,,,,,,,,,,,,,,,,,,,,,,,,,,,,,,,,,,,,,,,,,,253.99099679199935,None,253.99099679199935,None,253.99099679199935,None,g,1,0.7264793130016187,255.52419287099838,None,255.52419287099838,None,255.52419287099838,None,256.3077727050004,None,256.3077727050004,None,256.3077727050004,None,256.3077727050004,None,,,,,,,,,,,,,,,,,,,,,,,,,,,,,,,,,,,,,,,,,,,,001,138,2020_Feb_18_1428,spring_faces,3.1.5,60.04149948367395,
condition files/Stage0a.xlsx,0a,alpha,none,h,"['h', 'g']","['Chess', 'Go']","[0, 0.5]","[0, 0]",1,0,0,5,5,5,0,1,1,0,,,,,,,,,,,,,,,,,,,,,,,,,,,,,,,,,,,,,,,,,,,,,,,,,,,,,,,,,,,,,,,258.2742828590017,None,258.2742828590017,None,258.2742828590017,None,h,1,0.4589380190009251,259.8077233469994,None,259.8077233469994,None,259.8077233469994,None,260.3238015479983,None,260.3238015479983,None,260.3238015479983,None,260.3238015479983,None,,,,,,,,,,,,,,,,,,,,,,,,,,,,,,,,,,,,,,,,,,,,001,138,2020_Feb_18_1428,spring_faces,3.1.5,60.04149948367395,
condition files/Stage0b_1.xlsx,0b,alpha,none,h,"['h', 'g']","['Chess', 'Go']","[-0.15, 0.5]","[0.15, 0.5]",1,0,0,6,6,6,0,0,0,0,,,,,,,,,,,,,,,,,,,,,,,,,,,,,,,,,,,,,,,,,,,,,,,,,,,,,,,,,,,,,,,262.30758208300176,None,262.30758208300176,None,262.30758208300176,None,g,0,0.4420684530014114,263.8406861449985,None,263.8406861449985,None,263.8406861449985,None,264.34112339499916,None,264.34112339499916,None,264.34112339499916,None,264.34112339499916,None,,,,,,,,,,,,,,,,,,,,,,,,,,,,,,,,,,,,,,,,,,,,001,138,2020_Feb_18_1428,spring_faces,3.1.5,60.04149948367395,
condition files/Stage0b_1.xlsx,0b,none,beta,g,"['h', 'g']","['Chess', 'Go']","[-0.15, 0.5]","[0.15, 0.5]",0,1,0,6,6,6,0,1,1,1,,,,,,,,,,,,,,,,,,,,,,,,,,,,,,,,,,,,,,,,,,,,,,,,,,,,,,,,,,,,,,,266.3066851830008,None,266.3066851830008,None,266.3066851830008,None,g,1,0.9370352260011714,267.8576656490004,None,267.8576656490004,None,267.8576656490004,None,268.8608443839985,None,268.8608443839985,None,268.8608443839985,None,268.8608443839985,None,,,,,,,,,,,,,,,,,,,,,,,,,,,,,,,,,,,,,,,,,,,,001,138,2020_Feb_18_1428,spring_faces,3.1.5,60.04149948367395,
condition files/Stage0b_2.xlsx,0b,none,alpha,h,"['h', 'g']","['Chess', 'Go']","[-0.15, 0.5]","[0.15, 0.5]",0,1,0,7,7,7,0,0,0,0,,,,,,,,,,,,,,,,,,,,,,,,,,,,,,,,,,,,,,,,,,,,,,,,,,,,,,,,,,,,,,,270.84123474700027,None,270.84123474700027,None,270.84123474700027,None,h,1,0.7874474029995326,272.37526304100174,None,272.37526304100174,None,272.37526304100174,None,273.22456098600014,None,273.22456098600014,None,273.22456098600014,None,273.22456098600014,None,,,,,,,,,,,,,,,,,,,,,,,,,,,,,,,,,,,,,,,,,,,,001,138,2020_Feb_18_1428,spring_faces,3.1.5,60.04149948367395,
condition files/Stage0b_2.xlsx,0b,beta,none,g,"['h', 'g']","['Chess', 'Go']","[-0.15, 0.5]","[0.15, 0.5]",1,0,0,7,7,7,0,1,1,1,,,,,,,,,,,,,,,,,,,,,,,,,,,,,,,,,,,,,,,,,,,,,,,,,,,,,,,,,,,,,,,275.1908962080015,None,275.1908962080015,None,275.1908962080015,None,g,1,0.47006881999914185,276.74064961600016,None,276.74064961600016,None,276.74064961600016,None,277.2765584759982,None,277.2765584759982,None,277.2765584759982,None,277.2765584759982,None,,,,,,,,,,,,,,,,,,,,,,,,,,,,,,,,,,,,,,,,,,,,001,138,2020_Feb_18_1428,spring_faces,3.1.5,60.04149948367395,
condition files/Stage0b_1.xlsx,0b,alpha,none,h,"['h', 'g']","['Chess', 'Go']","[-0.15, 0.5]","[0.15, 0.5]",1,0,0,8,8,8,0,0,0,0,,,,,,,,,,,,,,,,,,,,,,,,,,,,,,,,,,,,,,,,,,,,,,,,,,,,,,,,,,,,,,,279.2576909160016,None,279.2576909160016,None,279.2576909160016,None,h,1,0.9319538650015602,280.79076589399847,None,280.79076589399847,None,280.79076589399847,None,281.77385206300096,None,281.77385206300096,None,281.77385206300096,None,281.77385206300096,None,,,,,,,,,,,,,,,,,,,,,,,,,,,,,,,,,,,,,,,,,,,,001,138,2020_Feb_18_1428,spring_faces,3.1.5,60.04149948367395,
condition files/Stage0b_1.xlsx,0b,none,beta,g,"['h', 'g']","['Chess', 'Go']","[-0.15, 0.5]","[0.15, 0.5]",0,1,0,8,8,8,0,1,1,1,,,,,,,,,,,,,,,,,,,,,,,,,,,,,,,,,,,,,,,,,,,,,,,,,,,,,,,,,,,,,,,283.74105587899976,None,283.74105587899976,None,283.74105587899976,None,g,1,0.5597679249985958,285.29092052000124,None,285.29092052000124,None,285.29092052000124,None,285.91127060800136,None,285.91127060800136,None,285.91127060800136,None,285.91127060800136,None,,,,,,,,,,,,,,,,,,,,,,,,,,,,,,,,,,,,,,,,,,,,001,138,2020_Feb_18_1428,spring_faces,3.1.5,60.04149948367395,
condition files/Stage0b_2.xlsx,0b,beta,none,g,"['h', 'g']","['Chess', 'Go']","[-0.15, 0.5]","[0.15, 0.5]",1,0,0,9,9,9,0,0,0,1,,,,,,,,,,,,,,,,,,,,,,,,,,,,,,,,,,,,,,,,,,,,,,,,,,,,,,,,,,,,,,,287.8908924069983,None,287.8908924069983,None,287.8908924069983,None,g,1,0.5688676099998702,289.4258617000014,None,289.4258617000014,None,289.4258617000014,None,290.0574666540015,None,290.0574666540015,None,290.0574666540015,None,290.0574666540015,None,,,,,,,,,,,,,,,,,,,,,,,,,,,,,,,,,,,,,,,,,,,,001,138,2020_Feb_18_1428,spring_faces,3.1.5,60.04149948367395,
condition files/Stage0b_2.xlsx,0b,none,alpha,h,"['h', 'g']","['Chess', 'Go']","[-0.15, 0.5]","[0.15, 0.5]",0,1,0,9,9,9,0,1,1,0,,,,,,,,,,,,,,,,,,,,,,,,,,,,,,,,,,,,,,,,,,,,,,,,,,,,,,,,,,,,,,,292.0241953279983,None,292.0241953279983,None,292.0241953279983,None,h,1,0.5457140229991637,293.56100158499976,None,293.56100158499976,None,293.56100158499976,None,294.16090176700163,None,294.16090176700163,None,294.16090176700163,None,294.16090176700163,None,,,,,,,,,,,,,,,,,,,,,,,,,,,,,,,,,,,,,,,,,,,,001,138,2020_Feb_18_1428,spring_faces,3.1.5,60.04149948367395,
condition files/Stage0b_1.xlsx,0b,alpha,none,h,"['h', 'g']","['Chess', 'Go']","[-0.15, 0.5]","[0.15, 0.5]",1,0,0,10,10,10,0,0,0,0,,,,,,,,,,,,,,,,,,,,,,,,,,,,,,,,,,,,,,,,,,,,,,,,,,,,,,,,,,,,,,,296.14120486699903,None,296.14120486699903,None,296.14120486699903,None,h,1,0.9269820730005449,297.6757029830005,None,297.6757029830005,None,297.6757029830005,None,298.657738023001,None,298.657738023001,None,298.657738023001,None,298.657738023001,None,,,,,,,,,,,,,,,,,,,,,,,,,,,,,,,,,,,,,,,,,,,,001,138,2020_Feb_18_1428,spring_faces,3.1.5,60.04149948367395,
condition files/Stage0b_1.xlsx,0b,none,beta,g,"['h', 'g']","['Chess', 'Go']","[-0.15, 0.5]","[0.15, 0.5]",0,1,0,10,10,10,0,1,1,1,,,,,,,,,,,,,,,,,,,,,,,,,,,,,,,,,,,,,,,,,,,,,,,,,,,,,,,,,,,,,,,300.6242828760005,None,300.6242828760005,None,300.6242828760005,None,g,1,0.6816160910020699,302.161057022,None,302.161057022,None,302.161057022,None,302.9110854719984,None,302.9110854719984,None,302.9110854719984,None,302.9110854719984,None,,,,,,,,,,,,,,,,,,,,,,,,,,,,,,,,,,,,,,,,,,,,001,138,2020_Feb_18_1428,spring_faces,3.1.5,60.04149948367395,
condition files/Stage0b_2.xlsx,0b,beta,none,g,"['h', 'g']","['Chess', 'Go']","[-0.15, 0.5]","[0.15, 0.5]",1,0,0,11,11,11,0,0,0,1,,,,,,,,,,,,,,,,,,,,,,,,,,,,,,,,,,,,,,,,,,,,,,,,,,,,,,,,,,,,,,,304.89116490499873,None,304.89116490499873,None,304.89116490499873,None,g,1,0.5456027850013925,306.4410879729985,None,306.4410879729985,None,306.4410879729985,None,307.0414778529994,None,307.0414778529994,None,307.0414778529994,None,307.0414778529994,None,,,,,,,,,,,,,,,,,,,,,,,,,,,,,,,,,,,,,,,,,,,,001,138,2020_Feb_18_1428,spring_faces,3.1.5,60.04149948367395,
condition files/Stage0b_2.xlsx,0b,none,alpha,h,"['h', 'g']","['Chess', 'Go']","[-0.15, 0.5]","[0.15, 0.5]",0,1,0,11,11,11,0,1,1,0,,,,,,,,,,,,,,,,,,,,,,,,,,,,,,,,,,,,,,,,,,,,,,,,,,,,,,,,,,,,,,,309.00756259099944,None,309.00756259099944,None,309.00756259099944,None,h,1,0.553369245997601,310.5454015530013,None,310.5454015530013,None,310.5454015530013,None,311.17461542399906,None,311.17461542399906,None,311.17461542399906,None,311.17461542399906,None,,,,,,,,,,,,,,,,,,,,,,,,,,,,,,,,,,,,,,,,,,,,001,138,2020_Feb_18_1428,spring_faces,3.1.5,60.04149948367395,
condition files/Stage0c_1.xlsx,0c,beta,theta,g,"['h', 'g']","['Chess', 'Go']","[-0.15, 0.5]","[0.15, 0.5]",1,1,0,12,12,12,0,0,0,2,,,,,,,,,,,,,,,,,,,,,,,,,,,,,,,,,,,,,,,,,,,,,,,,,,,,,,,,,,,,,,,313.1409155270012,None,313.1409155270012,None,313.1409155270012,None,g,1,2.248033709001902,314.67467802199826,None,314.67467802199826,None,314.67467802199826,None,316.97488122399955,None,316.97488122399955,None,316.97488122399955,None,316.97488122399955,None,,,,,,,,,,,,,,,,,,,,,,,,,,,,,,,,,,,,,,,,,,,,001,138,2020_Feb_18_1428,spring_faces,3.1.5,60.04149948367395,
condition files/Stage0c_1.xlsx,0c,theta,alpha,h,"['h', 'g']","['Chess', 'Go']","[-0.15, 0.5]","[0.15, 0.5]",1,1,0,12,12,12,0,1,1,0,,,,,,,,,,,,,,,,,,,,,,,,,,,,,,,,,,,,,,,,,,,,,,,,,,,,,,,,,,,,,,,318.94093446400075,None,318.94093446400075,None,318.94093446400075,None,h,1,3.0080415879965585,320.47472767399813,None,320.47472767399813,None,320.47472767399813,None,323.54097163700135,None,323.54097163700135,None,323.54097163700135,None,323.54097163700135,None,,,,,,,,,,,,,,,,,,,,,,,,,,,,,,,,,,,,,,,,,,,,001,138,2020_Feb_18_1428,spring_faces,3.1.5,60.04149948367395,
condition files/Stage0c_1.xlsx,0c,phi,beta,g,"['h', 'g']","['Chess', 'Go']","[-0.15, 0.5]","[0.15, 0.5]",1,1,0,12,12,12,0,2,2,3,,,,,,,,,,,,,,,,,,,,,,,,,,,,,,,,,,,,,,,,,,,,,,,,,,,,,,,,,,,,,,,325.50731519799956,None,325.50731519799956,None,325.50731519799956,None,g,1,0.9858291689997714,327.04086661900146,None,327.04086661900146,None,327.04086661900146,None,328.09164022999903,None,328.09164022999903,None,328.09164022999903,None,328.09164022999903,None,,,,,,,,,,,,,,,,,,,,,,,,,,,,,,,,,,,,,,,,,,,,001,138,2020_Feb_18_1428,spring_faces,3.1.5,60.04149948367395,
condition files/Stage0c_1.xlsx,0c,alpha,phi,h,"['h', 'g']","['Chess', 'Go']","[-0.15, 0.5]","[0.15, 0.5]",1,1,0,12,12,12,0,3,3,1,,,,,,,,,,,,,,,,,,,,,,,,,,,,,,,,,,,,,,,,,,,,,,,,,,,,,,,,,,,,,,,330.0570372430011,None,330.0570372430011,None,330.0570372430011,None,h,1,0.8193695340014528,331.59132974300155,None,331.59132974300155,None,331.59132974300155,None,332.47446164600115,None,332.47446164600115,None,332.47446164600115,None,332.47446164600115,None,,,,,,,,,,,,,,,,,,,,,,,,,,,,,,,,,,,,,,,,,,,,001,138,2020_Feb_18_1428,spring_faces,3.1.5,60.04149948367395,
condition files/Stage0c_2.xlsx,0c,theta,beta,g,"['h', 'g']","['Chess', 'Go']","[-0.15, 0.5]","[0.15, 0.5]",1,1,0,13,13,13,0,0,0,2,,,,,,,,,,,,,,,,,,,,,,,,,,,,,,,,,,,,,,,,,,,,,,,,,,,,,,,,,,,,,,,334.4579148010016,None,334.4579148010016,None,334.4579148010016,None,g,1,1.012534620000224,335.97413727800085,None,335.97413727800085,None,335.97413727800085,None,337.04096894300164,None,337.04096894300164,None,337.04096894300164,None,337.04096894300164,None,,,,,,,,,,,,,,,,,,,,,,,,,,,,,,,,,,,,,,,,,,,,001,138,2020_Feb_18_1428,spring_faces,3.1.5,60.04149948367395,
condition files/Stage0c_2.xlsx,0c,alpha,theta,h,"['h', 'g']","['Chess', 'Go']","[-0.15, 0.5]","[0.15, 0.5]",1,1,0,13,13,13,0,1,1,0,,,,,,,,,,,,,,,,,,,,,,,,,,,,,,,,,,,,,,,,,,,,,,,,,,,,,,,,,,,,,,,339.00756760199874,None,339.00756760199874,None,339.00756760199874,None,h,1,0.5898841980015277,340.5408216040014,None,340.5408216040014,None,340.5408216040014,None,341.1910826989988,None,341.1910826989988,None,341.1910826989988,None,341.1910826989988,None,,,,,,,,,,,,,,,,,,,,,,,,,,,,,,,,,,,,,,,,,,,,001,138,2020_Feb_18_1428,spring_faces,3.1.5,60.04149948367395,
condition files/Stage0c_2.xlsx,0c,phi,alpha,h,"['h', 'g']","['Chess', 'Go']","[-0.15, 0.5]","[0.15, 0.5]",1,1,0,13,13,13,0,2,2,1,,,,,,,,,,,,,,,,,,,,,,,,,,,,,,,,,,,,,,,,,,,,,,,,,,,,,,,,,,,,,,,343.1575582859987,None,343.1575582859987,None,343.1575582859987,None,h,1,0.5833747459982987,344.69130252299874,None,344.69130252299874,None,344.69130252299874,None,345.31040318599844,None,345.31040318599844,None,345.31040318599844,None,345.31040318599844,None,,,,,,,,,,,,,,,,,,,,,,,,,,,,,,,,,,,,,,,,,,,,001,138,2020_Feb_18_1428,spring_faces,3.1.5,60.04149948367395,
condition files/Stage0c_2.xlsx,0c,beta,phi,g,"['h', 'g']","['Chess', 'Go']","[-0.15, 0.5]","[0.15, 0.5]",1,1,0,13,13,13,0,3,3,3,,,,,,,,,,,,,,,,,,,,,,,,,,,,,,,,,,,,,,,,,,,,,,,,,,,,,,,,,,,,,,,347.29094673800137,None,347.29094673800137,None,347.29094673800137,None,g,1,0.8662851310000406,348.8244149940001,None,348.8244149940001,None,348.8244149940001,None,349.74055534299987,None,349.74055534299987,None,349.74055534299987,None,349.74055534299987,None,,,,,,,,,,,,,,,,,,,,,,,,,,,,,,,,,,,,,,,,,,,,001,138,2020_Feb_18_1428,spring_faces,3.1.5,60.04149948367395,
condition files/Stage0c_1.xlsx,0c,phi,beta,g,"['h', 'g']","['Chess', 'Go']","[-0.15, 0.5]","[0.15, 0.5]",1,1,0,14,14,14,0,0,0,3,,,,,,,,,,,,,,,,,,,,,,,,,,,,,,,,,,,,,,,,,,,,,,,,,,,,,,,,,,,,,,,351.7237504270015,None,351.7237504270015,None,351.7237504270015,None,g,1,0.8965262540004915,353.25829631300076,None,353.25829631300076,None,353.25829631300076,None,354.193376842999,None,354.193376842999,None,354.193376842999,None,354.193376842999,None,,,,,,,,,,,,,,,,,,,,,,,,,,,,,,,,,,,,,,,,,,,,001,138,2020_Feb_18_1428,spring_faces,3.1.5,60.04149948367395,
condition files/Stage0c_1.xlsx,0c,theta,alpha,h,"['h', 'g']","['Chess', 'Go']","[-0.15, 0.5]","[0.15, 0.5]",1,1,0,14,14,14,0,1,1,0,,,,,,,,,,,,,,,,,,,,,,,,,,,,,,,,,,,,,,,,,,,,,,,,,,,,,,,,,,,,,,,356.1735878440013,None,356.1735878440013,None,356.1735878440013,None,h,1,0.9110189669991087,357.7076916160004,None,357.7076916160004,None,357.7076916160004,None,358.67454141399867,None,358.67454141399867,None,358.67454141399867,None,358.67454141399867,None,,,,,,,,,,,,,,,,,,,,,,,,,,,,,,,,,,,,,,,,,,,,001,138,2020_Feb_18_1428,spring_faces,3.1.5,60.04149948367395,
condition files/Stage0c_1.xlsx,0c,alpha,phi,h,"['h', 'g']","['Chess', 'Go']","[-0.15, 0.5]","[0.15, 0.5]",1,1,0,14,14,14,0,2,2,1,,,,,,,,,,,,,,,,,,,,,,,,,,,,,,,,,,,,,,,,,,,,,,,,,,,,,,,,,,,,,,,360.6405785870011,None,360.6405785870011,None,360.6405785870011,None,h,1,0.9080700160011475,362.1746948850014,None,362.1746948850014,None,362.1746948850014,None,363.1257602629994,None,363.1257602629994,None,363.1257602629994,None,363.1257602629994,None,,,,,,,,,,,,,,,,,,,,,,,,,,,,,,,,,,,,,,,,,,,,001,138,2020_Feb_18_1428,spring_faces,3.1.5,60.04149948367395,
condition files/Stage0c_1.xlsx,0c,beta,theta,g,"['h', 'g']","['Chess', 'Go']","[-0.15, 0.5]","[0.15, 0.5]",1,1,0,14,14,14,0,3,3,2,,,,,,,,,,,,,,,,,,,,,,,,,,,,,,,,,,,,,,,,,,,,,,,,,,,,,,,,,,,,,,,365.1073584250007,None,365.1073584250007,None,365.1073584250007,None,g,1,1.0337231929988775,366.64097625499926,None,366.64097625499926,None,366.64097625499926,None,367.72431198100094,None,367.72431198100094,None,367.72431198100094,None,367.72431198100094,None,,,,,,,,,,,,,,,,,,,,,,,,,,,,,,,,,,,,,,,,,,,,001,138,2020_Feb_18_1428,spring_faces,3.1.5,60.04149948367395,
condition files/Stage0c_2.xlsx,0c,phi,alpha,h,"['h', 'g']","['Chess', 'Go']","[-0.15, 0.5]","[0.15, 0.5]",1,1,0,15,15,15,0,0,0,1,,,,,,,,,,,,,,,,,,,,,,,,,,,,,,,,,,,,,,,,,,,,,,,,,,,,,,,,,,,,,,,369.7076601459994,None,369.7076601459994,None,369.7076601459994,None,h,1,0.8982095600003959,371.22448656399865,None,371.22448656399865,None,371.22448656399865,None,372.1738722400005,None,372.1738722400005,None,372.1738722400005,None,372.1738722400005,None,,,,,,,,,,,,,,,,,,,,,,,,,,,,,,,,,,,,,,,,,,,,001,138,2020_Feb_18_1428,spring_faces,3.1.5,60.04149948367395,
condition files/Stage0c_2.xlsx,0c,beta,phi,g,"['h', 'g']","['Chess', 'Go']","[-0.15, 0.5]","[0.15, 0.5]",1,1,0,15,15,15,0,1,1,3,,,,,,,,,,,,,,,,,,,,,,,,,,,,,,,,,,,,,,,,,,,,,,,,,,,,,,,,,,,,,,,374.1409104859995,None,374.1409104859995,None,374.1409104859995,None,g,1,1.071937259999686,375.6747743740016,None,375.6747743740016,None,375.6747743740016,None,376.8078717060016,None,376.8078717060016,None,376.8078717060016,None,376.8078717060016,None,,,,,,,,,,,,,,,,,,,,,,,,,,,,,,,,,,,,,,,,,,,,001,138,2020_Feb_18_1428,spring_faces,3.1.5,60.04149948367395,
condition files/Stage0c_2.xlsx,0c,alpha,theta,h,"['h', 'g']","['Chess', 'Go']","[-0.15, 0.5]","[0.15, 0.5]",1,1,0,15,15,15,0,2,2,0,,,,,,,,,,,,,,,,,,,,,,,,,,,,,,,,,,,,,,,,,,,,,,,,,,,,,,,,,,,,,,,378.7741955499987,None,378.7741955499987,None,378.7741955499987,None,h,1,0.7752271540011861,380.3075130949983,None,380.3075130949983,None,380.3075130949983,None,381.1412481560001,None,381.1412481560001,None,381.1412481560001,None,381.1412481560001,None,,,,,,,,,,,,,,,,,,,,,,,,,,,,,,,,,,,,,,,,,,,,001,138,2020_Feb_18_1428,spring_faces,3.1.5,60.04149948367395,
condition files/Stage0c_2.xlsx,0c,theta,beta,g,"['h', 'g']","['Chess', 'Go']","[-0.15, 0.5]","[0.15, 0.5]",1,1,0,15,15,15,0,3,3,2,,,,,,,,,,,,,,,,,,,,,,,,,,,,,,,,,,,,,,,,,,,,,,,,,,,,,,,,,,,,,,,383.10745549700005,None,383.10745549700005,None,383.10745549700005,None,g,1,0.617661025000416,384.6410101729998,None,384.6410101729998,None,384.6410101729998,None,385.32386697900074,None,385.32386697900074,None,385.32386697900074,None,385.32386697900074,None,,,,,,,,,,,,,,,,,,,,,,,,,,,,,,,,,,,,,,,,,,,,001,138,2020_Feb_18_1428,spring_faces,3.1.5,60.04149948367395,
condition files/Stage0c_1.xlsx,0c,phi,beta,g,"['h', 'g']","['Chess', 'Go']","[-0.15, 0.5]","[0.15, 0.5]",1,1,0,16,16,16,0,0,0,3,,,,,,,,,,,,,,,,,,,,,,,,,,,,,,,,,,,,,,,,,,,,,,,,,,,,,,,,,,,,,,,387.30773408800087,None,387.30773408800087,None,387.30773408800087,None,g,1,0.8496105880003597,388.84109575299954,None,388.84109575299954,None,388.84109575299954,None,389.72677905100136,None,389.72677905100136,None,389.72677905100136,None,389.72677905100136,None,,,,,,,,,,,,,,,,,,,,,,,,,,,,,,,,,,,,,,,,,,,,001,138,2020_Feb_18_1428,spring_faces,3.1.5,60.04149948367395,
condition files/Stage0c_1.xlsx,0c,beta,theta,g,"['h', 'g']","['Chess', 'Go']","[-0.15, 0.5]","[0.15, 0.5]",1,1,0,16,16,16,0,1,1,2,,,,,,,,,,,,,,,,,,,,,,,,,,,,,,,,,,,,,,,,,,,,,,,,,,,,,,,,,,,,,,,391.7072472289983,None,391.7072472289983,None,391.7072472289983,None,g,1,0.8334282340001664,393.24124517499877,None,393.24124517499877,None,393.24124517499877,None,394.12407328799964,None,394.12407328799964,None,394.12407328799964,None,394.12407328799964,None,,,,,,,,,,,,,,,,,,,,,,,,,,,,,,,,,,,,,,,,,,,,001,138,2020_Feb_18_1428,spring_faces,3.1.5,60.04149948367395,
condition files/Stage0c_1.xlsx,0c,alpha,phi,h,"['h', 'g']","['Chess', 'Go']","[-0.15, 0.5]","[0.15, 0.5]",1,1,0,16,16,16,0,2,2,1,,,,,,,,,,,,,,,,,,,,,,,,,,,,,,,,,,,,,,,,,,,,,,,,,,,,,,,,,,,,,,,396.1077309499997,None,396.1077309499997,None,396.1077309499997,None,h,1,0.8174849690003612,397.6411858579995,None,397.6411858579995,None,397.6411858579995,None,398.524496910999,None,398.524496910999,None,398.524496910999,None,398.524496910999,None,,,,,,,,,,,,,,,,,,,,,,,,,,,,,,,,,,,,,,,,,,,,001,138,2020_Feb_18_1428,spring_faces,3.1.5,60.04149948367395,
condition files/Stage0c_1.xlsx,0c,theta,alpha,h,"['h', 'g']","['Chess', 'Go']","[-0.15, 0.5]","[0.15, 0.5]",1,1,0,16,16,16,0,3,3,0,,,,,,,,,,,,,,,,,,,,,,,,,,,,,,,,,,,,,,,,,,,,,,,,,,,,,,,,,,,,,,,400.4908145469999,None,400.4908145469999,None,400.4908145469999,None,h,1,1.1388735270011239,402.02382730300087,None,402.02382730300087,None,402.02382730300087,None,403.2240230110001,None,403.2240230110001,None,403.2240230110001,None,403.2240230110001,None,,,,,,,,,,,,,,,,,,,,,,,,,,,,,,,,,,,,,,,,,,,,001,138,2020_Feb_18_1428,spring_faces,3.1.5,60.04149948367395,
condition files/Stage0c_2.xlsx,0c,theta,beta,g,"['h', 'g']","['Chess', 'Go']","[-0.15, 0.5]","[0.15, 0.5]",1,1,0,17,17,17,0,0,0,2,,,,,,,,,,,,,,,,,,,,,,,,,,,,,,,,,,,,,,,,,,,,,,,,,,,,,,,,,,,,,,,405.20780889399975,None,405.20780889399975,None,405.20780889399975,None,g,1,0.822264312999323,406.72444098399865,None,406.72444098399865,None,406.72444098399865,None,407.6075989560013,None,407.6075989560013,None,407.6075989560013,None,407.6075989560013,None,,,,,,,,,,,,,,,,,,,,,,,,,,,,,,,,,,,,,,,,,,,,001,138,2020_Feb_18_1428,spring_faces,3.1.5,60.04149948367395,
condition files/Stage0c_2.xlsx,0c,alpha,theta,h,"['h', 'g']","['Chess', 'Go']","[-0.15, 0.5]","[0.15, 0.5]",1,1,0,17,17,17,0,1,1,0,,,,,,,,,,,,,,,,,,,,,,,,,,,,,,,,,,,,,,,,,,,,,,,,,,,,,,,,,,,,,,,409.57425516500007,None,409.57425516500007,None,409.57425516500007,None,h,1,0.7274142770002072,411.1073620930001,None,411.1073620930001,None,411.1073620930001,None,411.8908641679991,None,411.8908641679991,None,411.8908641679991,None,411.8908641679991,None,,,,,,,,,,,,,,,,,,,,,,,,,,,,,,,,,,,,,,,,,,,,001,138,2020_Feb_18_1428,spring_faces,3.1.5,60.04149948367395,
condition files/Stage0c_2.xlsx,0c,beta,phi,g,"['h', 'g']","['Chess', 'Go']","[-0.15, 0.5]","[0.15, 0.5]",1,1,0,17,17,17,0,2,2,3,,,,,,,,,,,,,,,,,,,,,,,,,,,,,,,,,,,,,,,,,,,,,,,,,,,,,,,,,,,,,,,413.85762533199886,None,413.85762533199886,None,413.85762533199886,None,g,1,0.9237403999977687,415.39096350399996,None,415.39096350399996,None,415.39096350399996,None,416.37485736799863,None,416.37485736799863,None,416.37485736799863,None,416.37485736799863,None,,,,,,,,,,,,,,,,,,,,,,,,,,,,,,,,,,,,,,,,,,,,001,138,2020_Feb_18_1428,spring_faces,3.1.5,60.04149948367395,
condition files/Stage0c_2.xlsx,0c,phi,alpha,h,"['h', 'g']","['Chess', 'Go']","[-0.15, 0.5]","[0.15, 0.5]",1,1,0,17,17,17,0,3,3,1,,,,,,,,,,,,,,,,,,,,,,,,,,,,,,,,,,,,,,,,,,,,,,,,,,,,,,,,,,,,,,,418.3406814609989,None,418.3406814609989,None,418.3406814609989,None,h,1,0.6163611219999439,419.8743445020009,None,419.8743445020009,None,419.8743445020009,None,420.5412476679994,None,420.5412476679994,None,420.5412476679994,None,420.5412476679994,None,,,,,,,,,,,,,,,,,,,,,,,,,,,,,,,,,,,,,,,,,,,,001,138,2020_Feb_18_1428,spring_faces,3.1.5,60.04149948367395,
,,,,,,,,,,,,,,,,,,,,,,,,,,,,,,,,,,,,,,,,,,,,,,,,,,,,,,,,,,,,,,,,,,,,,,,,,,,,,,,,,,,,,,,,,,,,,,,,,,,,,,,,422.5245256089984,None,space,7.894246116000431,427.5244400060001,None,,,,,,,,,,,,,,,,,,,,,,,,,,,,,,,,,,,,,,001,138,2020_Feb_18_1428,spring_faces,3.1.5,60.04149948367395,
condition files/Stage1_1.xlsx,,B3,T3,c,"['c', 'm']","['Clue', 'Monopoly']","[-0.15, 0.5]","[0.15, 0.5]",1,1,,,,,,,,,0,0,0,0,0,0,0,4,,,,,,,,,,,,,,,,,,,,,,,,,,,,,,,,,,,,,,,,,,,,,,,,,,,,,,,435.4744265929985,None,435.4744265929985,None,435.4744265929985,None,c,1,2.042706776999694,437.0079559879996,None,437.0079559879996,None,437.0079559879996,None,439.12402118200043,None,439.12402118200043,None,439.12402118200043,None,439.12402118200043,None,,,,,,,427.5244400060001,None,,,,,,,,,,,,,,,,,,,,,,,,,,,,,,,,,,,,001,138,2020_Feb_18_1428,spring_faces,3.1.5,60.04149948367395,
condition files/Stage1_1.xlsx,,B2,T1,m,"['c', 'm']","['Clue', 'Monopoly']","[-0.15, 0.5]","[0.15, 0.5]",1,1,,,,,,,,,0,0,0,0,0,1,1,2,,,,,,,,,,,,,,,,,,,,,,,,,,,,,,,,,,,,,,,,,,,,,,,,,,,,,,,441.0743336609994,None,441.0743336609994,None,441.0743336609994,None,m,1,1.3541370189996087,442.60860668199894,None,442.60860668199894,None,442.60860668199894,None,444.0240908609994,None,444.0240908609994,None,444.0240908609994,None,444.0240908609994,None,,,,,,,,,,,,,,,,,,,,,,,,,,,,,,,,,,,,,,,,,,,,001,138,2020_Feb_18_1428,spring_faces,3.1.5,60.04149948367395,
condition files/Stage1_1.xlsx,,T3,B4,c,"['c', 'm']","['Clue', 'Monopoly']","[-0.15, 0.5]","[0.15, 0.5]",1,1,,,,,,,,,0,0,0,0,0,2,2,5,,,,,,,,,,,,,,,,,,,,,,,,,,,,,,,,,,,,,,,,,,,,,,,,,,,,,,,445.99092018399824,None,445.99092018399824,None,445.99092018399824,None,c,1,1.73225869000089,447.5264082069989,None,447.5264082069989,None,447.5264082069989,None,449.3410307740014,None,449.3410307740014,None,449.3410307740014,None,449.3410307740014,None,,,,,,,,,,,,,,,,,,,,,,,,,,,,,,,,,,,,,,,,,,,,001,138,2020_Feb_18_1428,spring_faces,3.1.5,60.04149948367395,
condition files/Stage1_1.xlsx,,B1,T2,c,"['c', 'm']","['Clue', 'Monopoly']","[-0.15, 0.5]","[0.15, 0.5]",1,1,,,,,,,,,0,0,0,0,0,3,3,1,,,,,,,,,,,,,,,,,,,,,,,,,,,,,,,,,,,,,,,,,,,,,,,,,,,,,,,451.29063456199947,None,451.29063456199947,None,451.29063456199947,None,c,1,1.9205011890007881,452.8262277489994,None,452.8262277489994,None,452.8262277489994,None,454.80801328899906,None,454.80801328899906,None,454.80801328899906,None,454.80801328899906,None,,,,,,,,,,,,,,,,,,,,,,,,,,,,,,,,,,,,,,,,,,,,001,138,2020_Feb_18_1428,spring_faces,3.1.5,60.04149948367395,
condition files/Stage1_1.xlsx,,T2,B2,m,"['c', 'm']","['Clue', 'Monopoly']","[-0.15, 0.5]","[0.15, 0.5]",1,1,,,,,,,,,0,0,0,0,0,4,4,3,,,,,,,,,,,,,,,,,,,,,,,,,,,,,,,,,,,,,,,,,,,,,,,,,,,,,,,456.77388047099885,None,456.77388047099885,None,456.77388047099885,None,m,1,2.294105788001616,458.32459822799865,None,458.32459822799865,None,458.32459822799865,None,460.6907898419995,None,460.6907898419995,None,460.6907898419995,None,460.6907898419995,None,,,,,,,,,,,,,,,,,,,,,,,,,,,,,,,,,,,,,,,,,,,,001,138,2020_Feb_18_1428,spring_faces,3.1.5,60.04149948367395,
condition files/Stage1_1.xlsx,,B4,T4,m,"['c', 'm']","['Clue', 'Monopoly']","[-0.15, 0.5]","[0.15, 0.5]",1,1,,,,,,,,,0,0,0,0,0,5,5,7,,,,,,,,,,,,,,,,,,,,,,,,,,,,,,,,,,,,,,,,,,,,,,,,,,,,,,,462.6410353249994,None,462.6410353249994,None,462.6410353249994,None,c,0,1.420670538002014,464.17405366800085,None,464.17405366800085,None,464.17405366800085,None,465.6578108959984,None,465.6578108959984,None,465.6578108959984,None,465.6578108959984,None,,,,,,,,,,,,,,,,,,,,,,,,,,,,,,,,,,,,,,,,,,,,001,138,2020_Feb_18_1428,spring_faces,3.1.5,60.04149948367395,
condition files/Stage1_1.xlsx,,T1,B1,c,"['c', 'm']","['Clue', 'Monopoly']","[-0.15, 0.5]","[0.15, 0.5]",1,1,,,,,,,,,0,0,0,0,0,6,6,0,,,,,,,,,,,,,,,,,,,,,,,,,,,,,,,,,,,,,,,,,,,,,,,,,,,,,,,467.62421359400105,None,467.62421359400105,None,467.62421359400105,None,c,1,1.3167733649970614,469.15789862699967,None,469.15789862699967,None,469.15789862699967,None,470.54140664100123,None,470.54140664100123,None,470.54140664100123,None,470.54140664100123,None,,,,,,,,,,,,,,,,,,,,,,,,,,,,,,,,,,,,,,,,,,,,001,138,2020_Feb_18_1428,spring_faces,3.1.5,60.04149948367395,
condition files/Stage1_1.xlsx,,T4,B3,m,"['c', 'm']","['Clue', 'Monopoly']","[-0.15, 0.5]","[0.15, 0.5]",1,1,,,,,,,,,0,0,0,0,0,7,7,6,,,,,,,,,,,,,,,,,,,,,,,,,,,,,,,,,,,,,,,,,,,,,,,,,,,,,,,472.50723981600095,None,472.50723981600095,None,472.50723981600095,None,m,1,2.8475501739994797,474.04316680600095,None,474.04316680600095,None,474.04316680600095,None,476.957973165001,None,476.957973165001,None,476.957973165001,None,476.957973165001,None,,,,,,,,,,,,,,,,,,,,,,,,,,,,,,,,,,,,,,,,,,,,001,138,2020_Feb_18_1428,spring_faces,3.1.5,60.04149948367395,
condition files/Stage1_2.xlsx,,B4,T3,c,"['c', 'm']","['Clue', 'Monopoly']","[-0.15, 0.5]","[0.15, 0.5]",1,1,,,,,,,,,0,1,1,1,0,0,0,5,,,,,,,,,,,,,,,,,,,,,,,,,,,,,,,,,,,,,,,,,,,,,,,,,,,,,,,478.9244533730016,None,478.9244533730016,None,478.9244533730016,None,c,1,1.328131629001291,480.47452152700134,None,480.47452152700134,None,480.47452152700134,None,481.85980237699914,None,481.85980237699914,None,481.85980237699914,None,481.85980237699914,None,,,,,,,,,,,,,,,,,,,,,,,,,,,,,,,,,,,,,,,,,,,,001,138,2020_Feb_18_1428,spring_faces,3.1.5,60.04149948367395,
condition files/Stage1_2.xlsx,,B3,T4,m,"['c', 'm']","['Clue', 'Monopoly']","[-0.15, 0.5]","[0.15, 0.5]",1,1,,,,,,,,,0,1,1,1,0,1,1,6,,,,,,,,,,,,,,,,,,,,,,,,,,,,,,,,,,,,,,,,,,,,,,,,,,,,,,,483.82408230500005,None,483.82408230500005,None,483.82408230500005,None,c,0,2.1402973990007013,485.3744626189982,None,485.3744626189982,None,485.3744626189982,None,487.57639244099846,None,487.57639244099846,None,487.57639244099846,None,487.57639244099846,None,,,,,,,,,,,,,,,,,,,,,,,,,,,,,,,,,,,,,,,,,,,,001,138,2020_Feb_18_1428,spring_faces,3.1.5,60.04149948367395,
condition files/Stage1_2.xlsx,,T4,B4,m,"['c', 'm']","['Clue', 'Monopoly']","[-0.15, 0.5]","[0.15, 0.5]",1,1,,,,,,,,,0,1,1,1,0,2,2,7,,,,,,,,,,,,,,,,,,,,,,,,,,,,,,,,,,,,,,,,,,,,,,,,,,,,,,,489.54099746299835,None,489.54099746299835,None,489.54099746299835,None,c,0,1.9754098430021259,491.0913619810017,None,491.0913619810017,None,491.0913619810017,None,493.1243661209992,None,493.1243661209992,None,493.1243661209992,None,493.1243661209992,None,,,,,,,,,,,,,,,,,,,,,,,,,,,,,,,,,,,,,,,,,,,,001,138,2020_Feb_18_1428,spring_faces,3.1.5,60.04149948367395,
condition files/Stage1_2.xlsx,,T2,B1,c,"['c', 'm']","['Clue', 'Monopoly']","[-0.15, 0.5]","[0.15, 0.5]",1,1,,,,,,,,,0,1,1,1,0,3,3,1,,,,,,,,,,,,,,,,,,,,,,,,,,,,,,,,,,,,,,,,,,,,,,,,,,,,,,,495.09108506900156,None,495.09108506900156,None,495.09108506900156,None,m,0,1.6576613690012891,496.6251205340013,None,496.6251205340013,None,496.6251205340013,None,498.3403266130008,None,498.3403266130008,None,498.3403266130008,None,498.3403266130008,None,,,,,,,,,,,,,,,,,,,,,,,,,,,,,,,,,,,,,,,,,,,,001,138,2020_Feb_18_1428,spring_faces,3.1.5,60.04149948367395,
condition files/Stage1_2.xlsx,,T3,B3,c,"['c', 'm']","['Clue', 'Monopoly']","[-0.15, 0.5]","[0.15, 0.5]",1,1,,,,,,,,,0,1,1,1,0,4,4,4,,,,,,,,,,,,,,,,,,,,,,,,,,,,,,,,,,,,,,,,,,,,,,,,,,,,,,,500.3070618890015,None,500.3070618890015,None,500.3070618890015,None,c,1,1.065095015001134,501.8576032009987,None,501.8576032009987,None,501.8576032009987,None,502.97424095500173,None,502.97424095500173,None,502.97424095500173,None,502.97424095500173,None,,,,,,,,,,,,,,,,,,,,,,,,,,,,,,,,,,,,,,,,,,,,001,138,2020_Feb_18_1428,spring_faces,3.1.5,60.04149948367395,
condition files/Stage1_2.xlsx,,B1,T1,c,"['c', 'm']","['Clue', 'Monopoly']","[-0.15, 0.5]","[0.15, 0.5]",1,1,,,,,,,,,0,1,1,1,0,5,5,0,,,,,,,,,,,,,,,,,,,,,,,,,,,,,,,,,,,,,,,,,,,,,,,,,,,,,,,504.9410351789993,None,504.9410351789993,None,504.9410351789993,None,c,1,4.2887284780008486,506.47400583000126,None,506.47400583000126,None,506.47400583000126,None,510.82392203999916,None,510.82392203999916,None,510.82392203999916,None,510.82392203999916,None,,,,,,,,,,,,,,,,,,,,,,,,,,,,,,,,,,,,,,,,,,,,001,138,2020_Feb_18_1428,spring_faces,3.1.5,60.04149948367395,
condition files/Stage1_2.xlsx,,B2,T2,m,"['c', 'm']","['Clue', 'Monopoly']","[-0.15, 0.5]","[0.15, 0.5]",1,1,,,,,,,,,0,1,1,1,0,6,6,3,,,,,,,,,,,,,,,,,,,,,,,,,,,,,,,,,,,,,,,,,,,,,,,,,,,,,,,512.7911610109986,None,512.7911610109986,None,512.7911610109986,None,m,1,1.5583455140003935,514.3244413549983,None,514.3244413549983,None,514.3244413549983,None,515.9578769520012,None,515.9578769520012,None,515.9578769520012,None,515.9578769520012,None,,,,,,,,,,,,,,,,,,,,,,,,,,,,,,,,,,,,,,,,,,,,001,138,2020_Feb_18_1428,spring_faces,3.1.5,60.04149948367395,
condition files/Stage1_2.xlsx,,T1,B2,m,"['c', 'm']","['Clue', 'Monopoly']","[-0.15, 0.5]","[0.15, 0.5]",1,1,,,,,,,,,0,1,1,1,0,7,7,2,,,,,,,,,,,,,,,,,,,,,,,,,,,,,,,,,,,,,,,,,,,,,,,,,,,,,,,517.9070066509994,None,517.9070066509994,None,517.9070066509994,None,m,1,1.5765418209994095,519.4421631840014,None,519.4421631840014,None,519.4421631840014,None,521.0743379539999,None,521.0743379539999,None,521.0743379539999,None,521.0743379539999,None,,,,,,,,,,,,,,,,,,,,,,,,,,,,,,,,,,,,,,,,,,,,001,138,2020_Feb_18_1428,spring_faces,3.1.5,60.04149948367395,
condition files/Stage1_1.xlsx,,T4,B3,m,"['c', 'm']","['Clue', 'Monopoly']","[-0.15, 0.5]","[0.15, 0.5]",1,1,,,,,,,,,0,2,2,2,0,0,0,6,,,,,,,,,,,,,,,,,,,,,,,,,,,,,,,,,,,,,,,,,,,,,,,,,,,,,,,523.0581335530005,None,523.0581335530005,None,523.0581335530005,None,m,1,4.0910064469971985,524.6077668149992,None,524.6077668149992,None,524.6077668149992,None,528.757848674999,None,528.757848674999,None,528.757848674999,None,528.757848674999,None,,,,,,,,,,,,,,,,,,,,,,,,,,,,,,,,,,,,,,,,,,,,001,138,2020_Feb_18_1428,spring_faces,3.1.5,60.04149948367395,
condition files/Stage1_1.xlsx,,T1,B1,c,"['c', 'm']","['Clue', 'Monopoly']","[-0.15, 0.5]","[0.15, 0.5]",1,1,,,,,,,,,0,2,2,2,0,1,1,0,,,,,,,,,,,,,,,,,,,,,,,,,,,,,,,,,,,,,,,,,,,,,,,,,,,,,,,530.723404067001,None,530.723404067001,None,530.723404067001,None,c,1,1.7853269540028123,532.2573915989997,None,532.2573915989997,None,532.2573915989997,None,534.1105194599986,None,534.1105194599986,None,534.1105194599986,None,534.1105194599986,None,,,,,,,,,,,,,,,,,,,,,,,,,,,,,,,,,,,,,,,,,,,,001,138,2020_Feb_18_1428,spring_faces,3.1.5,60.04149948367395,
condition files/Stage1_1.xlsx,,B1,T2,c,"['c', 'm']","['Clue', 'Monopoly']","[-0.15, 0.5]","[0.15, 0.5]",1,1,,,,,,,,,0,2,2,2,0,2,2,1,,,,,,,,,,,,,,,,,,,,,,,,,,,,,,,,,,,,,,,,,,,,,,,,,,,,,,,536.0744451909995,None,536.0744451909995,None,536.0744451909995,None,m,0,1.9713290020008571,537.6073926270001,None,537.6073926270001,None,537.6073926270001,None,539.6411906290014,None,539.6411906290014,None,539.6411906290014,None,539.6411906290014,None,,,,,,,,,,,,,,,,,,,,,,,,,,,,,,,,,,,,,,,,,,,,001,138,2020_Feb_18_1428,spring_faces,3.1.5,60.04149948367395,
condition files/Stage1_1.xlsx,,T3,B4,c,"['c', 'm']","['Clue', 'Monopoly']","[-0.15, 0.5]","[0.15, 0.5]",1,1,,,,,,,,,0,2,2,2,0,3,3,5,,,,,,,,,,,,,,,,,,,,,,,,,,,,,,,,,,,,,,,,,,,,,,,,,,,,,,,541.6075536719982,None,541.6075536719982,None,541.6075536719982,None,m,0,4.58146618200044,543.1412525499982,None,543.1412525499982,None,543.1412525499982,None,547.7738282710015,None,547.7738282710015,None,547.7738282710015,None,547.7738282710015,None,,,,,,,,,,,,,,,,,,,,,,,,,,,,,,,,,,,,,,,,,,,,001,138,2020_Feb_18_1428,spring_faces,3.1.5,60.04149948367395,
condition files/Stage1_1.xlsx,,B2,T1,m,"['c', 'm']","['Clue', 'Monopoly']","[-0.15, 0.5]","[0.15, 0.5]",1,1,,,,,,,,,0,2,2,2,0,4,4,2,,,,,,,,,,,,,,,,,,,,,,,,,,,,,,,,,,,,,,,,,,,,,,,,,,,,,,,549.7403130540006,None,549.7403130540006,None,549.7403130540006,None,m,1,1.9195686629973352,551.2911184129989,None,551.2911184129989,None,551.2911184129989,None,553.2772981849994,None,553.2772981849994,None,553.2772981849994,None,553.2772981849994,None,,,,,,,,,,,,,,,,,,,,,,,,,,,,,,,,,,,,,,,,,,,,001,138,2020_Feb_18_1428,spring_faces,3.1.5,60.04149948367395,
condition files/Stage1_1.xlsx,,B4,T4,m,"['c', 'm']","['Clue', 'Monopoly']","[-0.15, 0.5]","[0.15, 0.5]",1,1,,,,,,,,,0,2,2,2,0,5,5,7,,,,,,,,,,,,,,,,,,,,,,,,,,,,,,,,,,,,,,,,,,,,,,,,,,,,,,,555.2409529180004,None,555.2409529180004,None,555.2409529180004,None,c,0,2.2922756480002136,556.7905075519993,None,556.7905075519993,None,556.7905075519993,None,559.1408550410015,None,559.1408550410015,None,559.1408550410015,None,559.1408550410015,None,,,,,,,,,,,,,,,,,,,,,,,,,,,,,,,,,,,,,,,,,,,,001,138,2020_Feb_18_1428,spring_faces,3.1.5,60.04149948367395,
condition files/Stage1_1.xlsx,,T2,B2,m,"['c', 'm']","['Clue', 'Monopoly']","[-0.15, 0.5]","[0.15, 0.5]",1,1,,,,,,,,,0,2,2,2,0,6,6,3,,,,,,,,,,,,,,,,,,,,,,,,,,,,,,,,,,,,,,,,,,,,,,,,,,,,,,,561.1076192360015,None,561.1076192360015,None,561.1076192360015,None,m,1,1.17748598199978,562.641212347,None,562.641212347,None,562.641212347,None,563.874516404001,None,563.874516404001,None,563.874516404001,None,563.874516404001,None,,,,,,,,,,,,,,,,,,,,,,,,,,,,,,,,,,,,,,,,,,,,001,138,2020_Feb_18_1428,spring_faces,3.1.5,60.04149948367395,
condition files/Stage1_1.xlsx,,B3,T3,c,"['c', 'm']","['Clue', 'Monopoly']","[-0.15, 0.5]","[0.15, 0.5]",1,1,,,,,,,,,0,2,2,2,0,7,7,4,,,,,,,,,,,,,,,,,,,,,,,,,,,,,,,,,,,,,,,,,,,,,,,,,,,,,,,565.8407974639995,None,565.8407974639995,None,565.8407974639995,None,m,0,3.370360321998305,567.3764212770002,None,567.3764212770002,None,567.3764212770002,None,570.8240525500005,None,570.8240525500005,None,570.8240525500005,None,570.8240525500005,None,,,,,,,,,,,,,,,,,,,,,,,,,,,,,,,,,,,,,,,,,,,,001,138,2020_Feb_18_1428,spring_faces,3.1.5,60.04149948367395,
condition files/Stage1_2.xlsx,,T2,B1,c,"['c', 'm']","['Clue', 'Monopoly']","[-0.15, 0.5]","[0.15, 0.5]",1,1,,,,,,,,,0,3,3,3,0,0,0,1,,,,,,,,,,,,,,,,,,,,,,,,,,,,,,,,,,,,,,,,,,,,,,,,,,,,,,,572.7912329870014,None,572.7912329870014,None,572.7912329870014,None,c,1,1.654514066001866,574.3242222920017,None,574.3242222920017,None,574.3242222920017,None,576.0407376500007,None,576.0407376500007,None,576.0407376500007,None,576.0407376500007,None,,,,,,,,,,,,,,,,,,,,,,,,,,,,,,,,,,,,,,,,,,,,001,138,2020_Feb_18_1428,spring_faces,3.1.5,60.04149948367395,
condition files/Stage1_2.xlsx,,B4,T3,c,"['c', 'm']","['Clue', 'Monopoly']","[-0.15, 0.5]","[0.15, 0.5]",1,1,,,,,,,,,0,3,3,3,0,1,1,5,,,,,,,,,,,,,,,,,,,,,,,,,,,,,,,,,,,,,,,,,,,,,,,,,,,,,,,578.0075302420009,None,578.0075302420009,None,578.0075302420009,None,c,1,2.2933473400007642,579.5414837850003,None,579.5414837850003,None,579.5414837850003,None,581.8911313969984,None,581.8911313969984,None,581.8911313969984,None,581.8911313969984,None,,,,,,,,,,,,,,,,,,,,,,,,,,,,,,,,,,,,,,,,,,,,001,138,2020_Feb_18_1428,spring_faces,3.1.5,60.04149948367395,
condition files/Stage1_2.xlsx,,T1,B2,m,"['c', 'm']","['Clue', 'Monopoly']","[-0.15, 0.5]","[0.15, 0.5]",1,1,,,,,,,,,0,3,3,3,0,2,2,2,,,,,,,,,,,,,,,,,,,,,,,,,,,,,,,,,,,,,,,,,,,,,,,,,,,,,,,583.8576897120001,None,583.8576897120001,None,583.8576897120001,None,m,1,1.0999546149978414,585.3907640489997,None,585.3907640489997,None,585.3907640489997,None,586.5576543630013,None,586.5576543630013,None,586.5576543630013,None,586.5576543630013,None,,,,,,,,,,,,,,,,,,,,,,,,,,,,,,,,,,,,,,,,,,,,001,138,2020_Feb_18_1428,spring_faces,3.1.5,60.04149948367395,
condition files/Stage1_2.xlsx,,T4,B4,m,"['c', 'm']","['Clue', 'Monopoly']","[-0.15, 0.5]","[0.15, 0.5]",1,1,,,,,,,,,0,3,3,3,0,3,3,7,,,,,,,,,,,,,,,,,,,,,,,,,,,,,,,,,,,,,,,,,,,,,,,,,,,,,,,588.5076107979985,None,588.5076107979985,None,588.5076107979985,None,c,0,1.424885747001099,590.0578935170015,None,590.0578935170015,None,590.0578935170015,None,591.5411645690001,None,591.5411645690001,None,591.5411645690001,None,591.5411645690001,None,,,,,,,,,,,,,,,,,,,,,,,,,,,,,,,,,,,,,,,,,,,,001,138,2020_Feb_18_1428,spring_faces,3.1.5,60.04149948367395,
condition files/Stage1_2.xlsx,,T3,B3,c,"['c', 'm']","['Clue', 'Monopoly']","[-0.15, 0.5]","[0.15, 0.5]",1,1,,,,,,,,,0,3,3,3,0,4,4,4,,,,,,,,,,,,,,,,,,,,,,,,,,,,,,,,,,,,,,,,,,,,,,,,,,,,,,,593.5077927269995,None,593.5077927269995,None,593.5077927269995,None,c,1,5.3046110210016195,595.0581101409989,None,595.0581101409989,None,595.0581101409989,None,600.424017633999,None,600.424017633999,None,600.424017633999,None,600.424017633999,None,,,,,,,,,,,,,,,,,,,,,,,,,,,,,,,,,,,,,,,,,,,,001,138,2020_Feb_18_1428,spring_faces,3.1.5,60.04149948367395,
condition files/Stage1_2.xlsx,,B1,T1,c,"['c', 'm']","['Clue', 'Monopoly']","[-0.15, 0.5]","[0.15, 0.5]",1,1,,,,,,,,,0,3,3,3,0,5,5,0,,,,,,,,,,,,,,,,,,,,,,,,,,,,,,,,,,,,,,,,,,,,,,,,,,,,,,,602.3904980629995,None,602.3904980629995,None,602.3904980629995,None,m,0,1.8790523469979235,603.923607484001,None,603.923607484001,None,603.923607484001,None,605.8576652410011,None,605.8576652410011,None,605.8576652410011,None,605.8576652410011,None,,,,,,,,,,,,,,,,,,,,,,,,,,,,,,,,,,,,,,,,,,,,001,138,2020_Feb_18_1428,spring_faces,3.1.5,60.04149948367395,
condition files/Stage1_2.xlsx,,B2,T2,m,"['c', 'm']","['Clue', 'Monopoly']","[-0.15, 0.5]","[0.15, 0.5]",1,1,,,,,,,,,0,3,3,3,0,6,6,3,,,,,,,,,,,,,,,,,,,,,,,,,,,,,,,,,,,,,,,,,,,,,,,,,,,,,,,607.824260428999,None,607.824260428999,None,607.824260428999,None,m,1,2.5562577259988757,609.3745171189985,None,609.3745171189985,None,609.3745171189985,None,611.9918042780009,None,611.9918042780009,None,611.9918042780009,None,611.9918042780009,None,,,,,,,,,,,,,,,,,,,,,,,,,,,,,,,,,,,,,,,,,,,,001,138,2020_Feb_18_1428,spring_faces,3.1.5,60.04149948367395,
condition files/Stage1_2.xlsx,,B3,T4,m,"['c', 'm']","['Clue', 'Monopoly']","[-0.15, 0.5]","[0.15, 0.5]",1,1,,,,,,,,,0,3,3,3,0,7,7,6,,,,,,,,,,,,,,,,,,,,,,,,,,,,,,,,,,,,,,,,,,,,,,,,,,,,,,,613.9572763399992,None,613.9572763399992,None,613.9572763399992,None,m,1,3.542649304999941,615.4921288219994,None,615.4921288219994,None,615.4921288219994,None,619.0912286040002,None,619.0912286040002,None,619.0912286040002,None,619.0912286040002,None,,,,,,,,,,,,,,,,,,,,,,,,,,,,,,,,,,,,,,,,,,,,001,138,2020_Feb_18_1428,spring_faces,3.1.5,60.04149948367395,
condition files/Stage1_1.xlsx,,B4,T4,m,"['c', 'm']","['Clue', 'Monopoly']","[-0.15, 0.5]","[0.15, 0.5]",1,1,,,,,,,,,0,4,4,4,0,0,0,7,,,,,,,,,,,,,,,,,,,,,,,,,,,,,,,,,,,,,,,,,,,,,,,,,,,,,,,621.0744285809997,None,621.0744285809997,None,621.0744285809997,None,m,1,1.5765960940007062,622.6100640020013,None,622.6100640020013,None,622.6100640020013,None,624.2407843619985,None,624.2407843619985,None,624.2407843619985,None,624.2407843619985,None,,,,,,,,,,,,,,,,,,,,,,,,,,,,,,,,,,,,,,,,,,,,001,138,2020_Feb_18_1428,spring_faces,3.1.5,60.04149948367395,
condition files/Stage1_1.xlsx,,T1,B1,c,"['c', 'm']","['Clue', 'Monopoly']","[-0.15, 0.5]","[0.15, 0.5]",1,1,,,,,,,,,0,4,4,4,0,1,1,0,,,,,,,,,,,,,,,,,,,,,,,,,,,,,,,,,,,,,,,,,,,,,,,,,,,,,,,626.2068135759982,None,626.2068135759982,None,626.2068135759982,None,c,1,1.9656391499993333,627.7410797529992,None,627.7410797529992,None,627.7410797529992,None,629.7603232330002,None,629.7603232330002,None,629.7603232330002,None,629.7603232330002,None,,,,,,,,,,,,,,,,,,,,,,,,,,,,,,,,,,,,,,,,,,,,001,138,2020_Feb_18_1428,spring_faces,3.1.5,60.04149948367395,
condition files/Stage1_1.xlsx,,B1,T2,c,"['c', 'm']","['Clue', 'Monopoly']","[-0.15, 0.5]","[0.15, 0.5]",1,1,,,,,,,,,0,4,4,4,0,2,2,1,,,,,,,,,,,,,,,,,,,,,,,,,,,,,,,,,,,,,,,,,,,,,,,,,,,,,,,631.7243625250012,None,631.7243625250012,None,631.7243625250012,None,c,1,3.601270958999521,633.2574205009987,None,633.2574205009987,None,633.2574205009987,None,636.9240654940004,None,636.9240654940004,None,636.9240654940004,None,636.9240654940004,None,,,,,,,,,,,,,,,,,,,,,,,,,,,,,,,,,,,,,,,,,,,,001,138,2020_Feb_18_1428,spring_faces,3.1.5,60.04149948367395,
condition files/Stage1_1.xlsx,,T4,B3,m,"['c', 'm']","['Clue', 'Monopoly']","[-0.15, 0.5]","[0.15, 0.5]",1,1,,,,,,,,,0,4,4,4,0,3,3,6,,,,,,,,,,,,,,,,,,,,,,,,,,,,,,,,,,,,,,,,,,,,,,,,,,,,,,,638.8903522979999,None,638.8903522979999,None,638.8903522979999,None,m,1,1.6960880240003462,640.4266293280016,None,640.4266293280016,None,640.4266293280016,None,642.1911875570004,None,642.1911875570004,None,642.1911875570004,None,642.1911875570004,None,,,,,,,,,,,,,,,,,,,,,,,,,,,,,,,,,,,,,,,,,,,,001,138,2020_Feb_18_1428,spring_faces,3.1.5,60.04149948367395,
condition files/Stage1_1.xlsx,,T3,B4,c,"['c', 'm']","['Clue', 'Monopoly']","[-0.15, 0.5]","[0.15, 0.5]",1,1,,,,,,,,,0,4,4,4,0,4,4,5,,,,,,,,,,,,,,,,,,,,,,,,,,,,,,,,,,,,,,,,,,,,,,,,,,,,,,,644.140349456,None,644.140349456,None,644.140349456,None,c,1,3.182829564997519,645.6758520799995,None,645.6758520799995,None,645.6758520799995,None,648.9407308250011,None,648.9407308250011,None,648.9407308250011,None,648.9407308250011,None,,,,,,,,,,,,,,,,,,,,,,,,,,,,,,,,,,,,,,,,,,,,001,138,2020_Feb_18_1428,spring_faces,3.1.5,60.04149948367395,
condition files/Stage1_1.xlsx,,B2,T1,m,"['c', 'm']","['Clue', 'Monopoly']","[-0.15, 0.5]","[0.15, 0.5]",1,1,,,,,,,,,0,4,4,4,0,5,5,2,,,,,,,,,,,,,,,,,,,,,,,,,,,,,,,,,,,,,,,,,,,,,,,,,,,,,,,650.8908523700011,None,650.8908523700011,None,650.8908523700011,None,m,1,5.041718075000972,652.4250721930002,None,652.4250721930002,None,652.4250721930002,None,657.5268455039986,None,657.5268455039986,None,657.5268455039986,None,657.5268455039986,None,,,,,,,,,,,,,,,,,,,,,,,,,,,,,,,,,,,,,,,,,,,,001,138,2020_Feb_18_1428,spring_faces,3.1.5,60.04149948367395,
condition files/Stage1_1.xlsx,,B3,T3,c,"['c', 'm']","['Clue', 'Monopoly']","[-0.15, 0.5]","[0.15, 0.5]",1,1,,,,,,,,,0,4,4,4,0,6,6,4,,,,,,,,,,,,,,,,,,,,,,,,,,,,,,,,,,,,,,,,,,,,,,,,,,,,,,,659.4908835230017,None,659.4908835230017,None,659.4908835230017,None,c,1,1.4651327510000556,661.0255750530014,None,661.0255750530014,None,661.0255750530014,None,662.5572739339987,None,662.5572739339987,None,662.5572739339987,None,662.5572739339987,None,,,,,,,,,,,,,,,,,,,,,,,,,,,,,,,,,,,,,,,,,,,,001,138,2020_Feb_18_1428,spring_faces,3.1.5,60.04149948367395,
condition files/Stage1_1.xlsx,,T2,B2,m,"['c', 'm']","['Clue', 'Monopoly']","[-0.15, 0.5]","[0.15, 0.5]",1,1,,,,,,,,,0,4,4,4,0,7,7,3,,,,,,,,,,,,,,,,,,,,,,,,,,,,,,,,,,,,,,,,,,,,,,,,,,,,,,,664.5076522689997,None,664.5076522689997,None,664.5076522689997,None,m,1,6.161178652997478,666.0414953709987,None,666.0414953709987,None,666.0414953709987,None,672.2599286629993,None,672.2599286629993,None,672.2599286629993,None,672.2599286629993,None,,,,,,,,,,,,,,,,,,,,,,,,,,,,,,,,,,,,,,,,,,,,001,138,2020_Feb_18_1428,spring_faces,3.1.5,60.04149948367395,
condition files/Stage1_2.xlsx,,T2,B1,c,"['c', 'm']","['Clue', 'Monopoly']","[-0.15, 0.5]","[0.15, 0.5]",1,1,,,,,,,,,0,5,5,5,0,0,0,1,,,,,,,,,,,,,,,,,,,,,,,,,,,,,,,,,,,,,,,,,,,,,,,,,,,,,,,674.2414495679986,None,674.2414495679986,None,674.2414495679986,None,c,1,4.636061585999414,675.7906601149989,None,675.7906601149989,None,675.7906601149989,None,680.5074912109994,None,680.5074912109994,None,680.5074912109994,None,680.5074912109994,None,,,,,,,,,,,,,,,,,,,,,,,,,,,,,,,,,,,,,,,,,,,,001,138,2020_Feb_18_1428,spring_faces,3.1.5,60.04149948367395,
condition files/Stage1_2.xlsx,,T4,B4,m,"['c', 'm']","['Clue', 'Monopoly']","[-0.15, 0.5]","[0.15, 0.5]",1,1,,,,,,,,,0,5,5,5,0,1,1,7,,,,,,,,,,,,,,,,,,,,,,,,,,,,,,,,,,,,,,,,,,,,,,,,,,,,,,,682.45750176,None,682.45750176,None,682.45750176,None,c,0,13.186564485000417,684.0081578710015,None,684.0081578710015,None,684.0081578710015,None,697.2745190970018,None,697.2745190970018,None,697.2745190970018,None,697.2745190970018,None,,,,,,,,,,,,,,,,,,,,,,,,,,,,,,,,,,,,,,,,,,,,001,138,2020_Feb_18_1428,spring_faces,3.1.5,60.04149948367395,
condition files/Stage1_2.xlsx,,T3,B3,c,"['c', 'm']","['Clue', 'Monopoly']","[-0.15, 0.5]","[0.15, 0.5]",1,1,,,,,,,,,0,5,5,5,0,2,2,4,,,,,,,,,,,,,,,,,,,,,,,,,,,,,,,,,,,,,,,,,,,,,,,,,,,,,,,699.2242930079992,None,699.2242930079992,None,699.2242930079992,None,c,1,2.51536766999925,700.7593123119987,None,700.7593123119987,None,700.7593123119987,None,703.3578358810009,None,703.3578358810009,None,703.3578358810009,None,703.3578358810009,None,,,,,,,,,,,,,,,,,,,,,,,,,,,,,,,,,,,,,,,,,,,,001,138,2020_Feb_18_1428,spring_faces,3.1.5,60.04149948367395,
condition files/Stage1_2.xlsx,,B4,T3,c,"['c', 'm']","['Clue', 'Monopoly']","[-0.15, 0.5]","[0.15, 0.5]",1,1,,,,,,,,,0,5,5,5,0,3,3,5,,,,,,,,,,,,,,,,,,,,,,,,,,,,,,,,,,,,,,,,,,,,,,,,,,,,,,,705.3077471200013,None,705.3077471200013,None,705.3077471200013,None,c,1,2.4167903929992463,706.8578603040005,None,706.8578603040005,None,706.8578603040005,None,709.3411598870007,None,709.3411598870007,None,709.3411598870007,None,709.3411598870007,None,,,,,,,,,,,,,,,,,,,,,,,,,,,,,,,,,,,,,,,,,,,,001,138,2020_Feb_18_1428,spring_faces,3.1.5,60.04149948367395,
condition files/Stage1_2.xlsx,,T1,B2,m,"['c', 'm']","['Clue', 'Monopoly']","[-0.15, 0.5]","[0.15, 0.5]",1,1,,,,,,,,,0,5,5,5,0,4,4,2,,,,,,,,,,,,,,,,,,,,,,,,,,,,,,,,,,,,,,,,,,,,,,,,,,,,,,,711.3070051850009,None,711.3070051850009,None,711.3070051850009,None,m,1,3.3286494519998087,712.8580225740006,None,712.8580225740006,None,712.8580225740006,None,716.2422546579983,None,716.2422546579983,None,716.2422546579983,None,716.2422546579983,None,,,,,,,,,,,,,,,,,,,,,,,,,,,,,,,,,,,,,,,,,,,,001,138,2020_Feb_18_1428,spring_faces,3.1.5,60.04149948367395,
condition files/Stage1_2.xlsx,,B1,T1,c,"['c', 'm']","['Clue', 'Monopoly']","[-0.15, 0.5]","[0.15, 0.5]",1,1,,,,,,,,,0,5,5,5,0,5,5,0,,,,,,,,,,,,,,,,,,,,,,,,,,,,,,,,,,,,,,,,,,,,,,,,,,,,,,,718.2076242410003,None,718.2076242410003,None,718.2076242410003,None,c,1,3.4524574060014857,719.7422822990011,None,719.7422822990011,None,719.7422822990011,None,723.2743588509984,None,723.2743588509984,None,723.2743588509984,None,723.2743588509984,None,,,,,,,,,,,,,,,,,,,,,,,,,,,,,,,,,,,,,,,,,,,,001,138,2020_Feb_18_1428,spring_faces,3.1.5,60.04149948367395,
condition files/Stage1_2.xlsx,,B3,T4,m,"['c', 'm']","['Clue', 'Monopoly']","[-0.15, 0.5]","[0.15, 0.5]",1,1,,,,,,,,,0,5,5,5,0,6,6,6,,,,,,,,,,,,,,,,,,,,,,,,,,,,,,,,,,,,,,,,,,,,,,,,,,,,,,,725.2242239539992,None,725.2242239539992,None,725.2242239539992,None,m,1,2.3243149789996096,726.7744568029993,None,726.7744568029993,None,726.7744568029993,None,729.174613878,None,729.174613878,None,729.174613878,None,729.174613878,None,,,,,,,,,,,,,,,,,,,,,,,,,,,,,,,,,,,,,,,,,,,,001,138,2020_Feb_18_1428,spring_faces,3.1.5,60.04149948367395,
condition files/Stage1_2.xlsx,,B2,T2,m,"['c', 'm']","['Clue', 'Monopoly']","[-0.15, 0.5]","[0.15, 0.5]",1,1,,,,,,,,,0,5,5,5,0,7,7,3,,,,,,,,,,,,,,,,,,,,,,,,,,,,,,,,,,,,,,,,,,,,,,,,,,,,,,,731.1238444640003,None,731.1238444640003,None,731.1238444640003,None,m,1,2.7289971240024897,732.6577227130001,None,732.6577227130001,None,732.6577227130001,None,735.440678433999,None,735.440678433999,None,735.440678433999,None,735.440678433999,None,,,,,,,,,,,,,,,,,,,,,,,,,,,,,,,,,,,,,,,,,,,,001,138,2020_Feb_18_1428,spring_faces,3.1.5,60.04149948367395,
condition files/Stage1_1.xlsx,,B3,T3,c,"['c', 'm']","['Clue', 'Monopoly']","[-0.15, 0.5]","[0.15, 0.5]",1,1,,,,,,,,,0,6,6,6,0,0,0,4,,,,,,,,,,,,,,,,,,,,,,,,,,,,,,,,,,,,,,,,,,,,,,,,,,,,,,,737.4248468109981,None,737.4248468109981,None,737.4248468109981,None,c,1,4.460564944001817,738.974225119,None,738.974225119,None,738.974225119,None,743.5071685799994,None,743.5071685799994,None,743.5071685799994,None,743.5071685799994,None,,,,,,,,,,,,,,,,,,,,,,,,,,,,,,,,,,,,,,,,,,,,001,138,2020_Feb_18_1428,spring_faces,3.1.5,60.04149948367395,
condition files/Stage1_1.xlsx,,B2,T1,m,"['c', 'm']","['Clue', 'Monopoly']","[-0.15, 0.5]","[0.15, 0.5]",1,1,,,,,,,,,0,6,6,6,0,1,1,2,,,,,,,,,,,,,,,,,,,,,,,,,,,,,,,,,,,,,,,,,,,,,,,,,,,,,,,745.4578700390011,None,745.4578700390011,None,745.4578700390011,None,m,1,2.1231173790001776,747.0076579390006,None,747.0076579390006,None,747.0076579390006,None,749.1913126789987,None,749.1913126789987,None,749.1913126789987,None,749.1913126789987,None,,,,,,,,,,,,,,,,,,,,,,,,,,,,,,,,,,,,,,,,,,,,001,138,2020_Feb_18_1428,spring_faces,3.1.5,60.04149948367395,
condition files/Stage1_1.xlsx,,T1,B1,c,"['c', 'm']","['Clue', 'Monopoly']","[-0.15, 0.5]","[0.15, 0.5]",1,1,,,,,,,,,0,6,6,6,0,2,2,0,,,,,,,,,,,,,,,,,,,,,,,,,,,,,,,,,,,,,,,,,,,,,,,,,,,,,,,751.1573932030005,None,751.1573932030005,None,751.1573932030005,None,c,1,3.670421358998283,752.692322818999,None,752.692322818999,None,752.692322818999,None,756.4266699209984,None,756.4266699209984,None,756.4266699209984,None,756.4266699209984,None,,,,,,,,,,,,,,,,,,,,,,,,,,,,,,,,,,,,,,,,,,,,001,138,2020_Feb_18_1428,spring_faces,3.1.5,60.04149948367395,
condition files/Stage1_1.xlsx,,B1,T2,c,"['c', 'm']","['Clue', 'Monopoly']","[-0.15, 0.5]","[0.15, 0.5]",1,1,,,,,,,,,0,6,6,6,0,3,3,1,,,,,,,,,,,,,,,,,,,,,,,,,,,,,,,,,,,,,,,,,,,,,,,,,,,,,,,758.3910445209985,None,758.3910445209985,None,758.3910445209985,None,c,1,3.798690768002416,759.9240316210016,None,759.9240316210016,None,759.9240316210016,None,763.774516223999,None,763.774516223999,None,763.774516223999,None,763.774516223999,None,,,,,,,,,,,,,,,,,,,,,,,,,,,,,,,,,,,,,,,,,,,,001,138,2020_Feb_18_1428,spring_faces,3.1.5,60.04149948367395,
condition files/Stage1_1.xlsx,,T2,B2,m,"['c', 'm']","['Clue', 'Monopoly']","[-0.15, 0.5]","[0.15, 0.5]",1,1,,,,,,,,,0,6,6,6,0,4,4,3,,,,,,,,,,,,,,,,,,,,,,,,,,,,,,,,,,,,,,,,,,,,,,,,,,,,,,,765.7403118750008,None,765.7403118750008,None,765.7403118750008,None,m,1,1.9518766319997667,767.2908323400006,None,767.2908323400006,None,767.2908323400006,None,769.3073473199984,None,769.3073473199984,None,769.3073473199984,None,769.3073473199984,None,,,,,,,,,,,,,,,,,,,,,,,,,,,,,,,,,,,,,,,,,,,,001,138,2020_Feb_18_1428,spring_faces,3.1.5,60.04149948367395,
condition files/Stage1_1.xlsx,,T4,B3,m,"['c', 'm']","['Clue', 'Monopoly']","[-0.15, 0.5]","[0.15, 0.5]",1,1,,,,,,,,,0,6,6,6,0,5,5,6,,,,,,,,,,,,,,,,,,,,,,,,,,,,,,,,,,,,,,,,,,,,,,,,,,,,,,,771.2737451659996,None,771.2737451659996,None,771.2737451659996,None,m,1,3.7299920550030947,772.8087269310017,None,772.8087269310017,None,772.8087269310017,None,776.5905237789993,None,776.5905237789993,None,776.5905237789993,None,776.5905237789993,None,,,,,,,,,,,,,,,,,,,,,,,,,,,,,,,,,,,,,,,,,,,,001,138,2020_Feb_18_1428,spring_faces,3.1.5,60.04149948367395,
condition files/Stage1_1.xlsx,,T3,B4,c,"['c', 'm']","['Clue', 'Monopoly']","[-0.15, 0.5]","[0.15, 0.5]",1,1,,,,,,,,,0,6,6,6,0,6,6,5,,,,,,,,,,,,,,,,,,,,,,,,,,,,,,,,,,,,,,,,,,,,,,,,,,,,,,,778.5574877959989,None,778.5574877959989,None,778.5574877959989,None,c,1,13.886709849997715,780.0920251460011,None,780.0920251460011,None,780.0920251460011,None,794.0572045459994,None,794.0572045459994,None,794.0572045459994,None,794.0572045459994,None,,,,,,,,,,,,,,,,,,,,,,,,,,,,,,,,,,,,,,,,,,,,001,138,2020_Feb_18_1428,spring_faces,3.1.5,60.04149948367395,
condition files/Stage1_1.xlsx,,B4,T4,m,"['c', 'm']","['Clue', 'Monopoly']","[-0.15, 0.5]","[0.15, 0.5]",1,1,,,,,,,,,0,6,6,6,0,7,7,7,,,,,,,,,,,,,,,,,,,,,,,,,,,,,,,,,,,,,,,,,,,,,,,,,,,,,,,796.0075991890008,None,796.0075991890008,None,796.0075991890008,None,m,1,1.461784245002491,797.5409163959994,None,797.5409163959994,None,797.5409163959994,None,799.0741543209988,None,799.0741543209988,None,799.0741543209988,None,799.0741543209988,None,,,,,,,,,,,,,,,,,,,,,,,,,,,,,,,,,,,,,,,,,,,,001,138,2020_Feb_18_1428,spring_faces,3.1.5,60.04149948367395,
condition files/Stage1_2.xlsx,,T4,B4,m,"['c', 'm']","['Clue', 'Monopoly']","[-0.15, 0.5]","[0.15, 0.5]",1,1,,,,,,,,,0,7,7,7,0,0,0,7,,,,,,,,,,,,,,,,,,,,,,,,,,,,,,,,,,,,,,,,,,,,,,,,,,,,,,,801.0407844319998,None,801.0407844319998,None,801.0407844319998,None,m,1,1.7705564710013277,802.5761889159985,None,802.5761889159985,None,802.5761889159985,None,804.4081286440014,None,804.4081286440014,None,804.4081286440014,None,804.4081286440014,None,,,,,,,,,,,,,,,,,,,,,,,,,,,,,,,,,,,,,,,,,,,,001,138,2020_Feb_18_1428,spring_faces,3.1.5,60.04149948367395,
condition files/Stage1_2.xlsx,,B1,T1,c,"['c', 'm']","['Clue', 'Monopoly']","[-0.15, 0.5]","[0.15, 0.5]",1,1,,,,,,,,,0,7,7,7,0,1,1,0,,,,,,,,,,,,,,,,,,,,,,,,,,,,,,,,,,,,,,,,,,,,,,,,,,,,,,,806.3741805259997,None,806.3741805259997,None,806.3741805259997,None,c,1,3.334691805001057,807.9080073000005,None,807.9080073000005,None,807.9080073000005,None,811.3089875820006,None,811.3089875820006,None,811.3089875820006,None,811.3089875820006,None,,,,,,,,,,,,,,,,,,,,,,,,,,,,,,,,,,,,,,,,,,,,001,138,2020_Feb_18_1428,spring_faces,3.1.5,60.04149948367395,
condition files/Stage1_2.xlsx,,T2,B1,c,"['c', 'm']","['Clue', 'Monopoly']","[-0.15, 0.5]","[0.15, 0.5]",1,1,,,,,,,,,0,7,7,7,0,2,2,1,,,,,,,,,,,,,,,,,,,,,,,,,,,,,,,,,,,,,,,,,,,,,,,,,,,,,,,813.2745441929983,None,813.2745441929983,None,813.2745441929983,None,c,1,7.875500251000631,814.8072818,None,814.8072818,None,814.8072818,None,822.741152169001,None,822.741152169001,None,822.741152169001,None,822.741152169001,None,,,,,,,,,,,,,,,,,,,,,,,,,,,,,,,,,,,,,,,,,,,,001,138,2020_Feb_18_1428,spring_faces,3.1.5,60.04149948367395,
condition files/Stage1_2.xlsx,,B3,T4,m,"['c', 'm']","['Clue', 'Monopoly']","[-0.15, 0.5]","[0.15, 0.5]",1,1,,,,,,,,,0,7,7,7,0,3,3,6,,,,,,,,,,,,,,,,,,,,,,,,,,,,,,,,,,,,,,,,,,,,,,,,,,,,,,,824.7075302689991,None,824.7075302689991,None,824.7075302689991,None,m,1,3.353964703001111,826.2407752500003,None,826.2407752500003,None,826.2407752500003,None,829.6746092860012,None,829.6746092860012,None,829.6746092860012,None,829.6746092860012,None,,,,,,,,,,,,,,,,,,,,,,,,,,,,,,,,,,,,,,,,,,,,001,138,2020_Feb_18_1428,spring_faces,3.1.5,60.04149948367395,
condition files/Stage1_2.xlsx,,B4,T3,c,"['c', 'm']","['Clue', 'Monopoly']","[-0.15, 0.5]","[0.15, 0.5]",1,1,,,,,,,,,0,7,7,7,0,4,4,5,,,,,,,,,,,,,,,,,,,,,,,,,,,,,,,,,,,,,,,,,,,,,,,,,,,,,,,831.624276139999,None,831.624276139999,None,831.624276139999,None,c,1,1.9243644420021155,833.1744200350004,None,833.1744200350004,None,833.1744200350004,None,835.1594199089996,None,835.1594199089996,None,835.1594199089996,None,835.1594199089996,None,,,,,,,,,,,,,,,,,,,,,,,,,,,,,,,,,,,,,,,,,,,,001,138,2020_Feb_18_1428,spring_faces,3.1.5,60.04149948367395,
condition files/Stage1_2.xlsx,,B2,T2,m,"['c', 'm']","['Clue', 'Monopoly']","[-0.15, 0.5]","[0.15, 0.5]",1,1,,,,,,,,,0,7,7,7,0,5,5,3,,,,,,,,,,,,,,,,,,,,,,,,,,,,,,,,,,,,,,,,,,,,,,,,,,,,,,,837.124143953999,None,837.124143953999,None,837.124143953999,None,m,1,3.591526602001977,838.6591342329993,None,838.6591342329993,None,838.6591342329993,None,842.323964788,None,842.323964788,None,842.323964788,None,842.323964788,None,,,,,,,,,,,,,,,,,,,,,,,,,,,,,,,,,,,,,,,,,,,,001,138,2020_Feb_18_1428,spring_faces,3.1.5,60.04149948367395,
condition files/Stage1_2.xlsx,,T1,B2,m,"['c', 'm']","['Clue', 'Monopoly']","[-0.15, 0.5]","[0.15, 0.5]",1,1,,,,,,,,,0,7,7,7,0,6,6,2,,,,,,,,,,,,,,,,,,,,,,,,,,,,,,,,,,,,,,,,,,,,,,,,,,,,,,,844.273603185,None,844.273603185,None,844.273603185,None,m,1,1.7550592600018717,845.8076876630003,None,845.8076876630003,None,845.8076876630003,None,847.624504536001,None,847.624504536001,None,847.624504536001,None,847.624504536001,None,,,,,,,,,,,,,,,,,,,,,,,,,,,,,,,,,,,,,,,,,,,,001,138,2020_Feb_18_1428,spring_faces,3.1.5,60.04149948367395,
condition files/Stage1_2.xlsx,,T3,B3,c,"['c', 'm']","['Clue', 'Monopoly']","[-0.15, 0.5]","[0.15, 0.5]",1,1,,,,,,,,,0,7,7,7,0,7,7,4,,,,,,,,,,,,,,,,,,,,,,,,,,,,,,,,,,,,,,,,,,,,,,,,,,,,,,,849.5908783960003,None,849.5908783960003,None,849.5908783960003,None,c,1,4.052221857000404,851.1265280039988,None,851.1265280039988,None,851.1265280039988,None,855.2435956340014,None,855.2435956340014,None,855.2435956340014,None,855.2435956340014,None,,,,,,,,,,,,,,,,,,,,,,,,,,,,,,,,,,,,,,,,,,,,001,138,2020_Feb_18_1428,spring_faces,3.1.5,60.04149948367395,
condition files/Stage1_1.xlsx,,T1,B1,c,"['c', 'm']","['Clue', 'Monopoly']","[-0.15, 0.5]","[0.15, 0.5]",1,1,,,,,,,,,0,8,8,8,0,0,0,0,,,,,,,,,,,,,,,,,,,,,,,,,,,,,,,,,,,,,,,,,,,,,,,,,,,,,,,857.2242559449987,None,857.2242559449987,None,857.2242559449987,None,c,1,6.036662121001427,858.7740680079987,None,858.7740680079987,None,858.7740680079987,None,864.8744790150013,None,864.8744790150013,None,864.8744790150013,None,864.8744790150013,None,,,,,,,,,,,,,,,,,,,,,,,,,,,,,,,,,,,,,,,,,,,,001,138,2020_Feb_18_1428,spring_faces,3.1.5,60.04149948367395,
condition files/Stage1_1.xlsx,,B2,T1,m,"['c', 'm']","['Clue', 'Monopoly']","[-0.15, 0.5]","[0.15, 0.5]",1,1,,,,,,,,,0,8,8,8,0,1,1,2,,,,,,,,,,,,,,,,,,,,,,,,,,,,,,,,,,,,,,,,,,,,,,,,,,,,,,,866.8408460630017,None,866.8408460630017,None,866.8408460630017,None,m,1,2.7238483889996132,868.390937696,None,868.390937696,None,868.390937696,None,871.174805486,None,871.174805486,None,871.174805486,None,871.174805486,None,,,,,,,,,,,,,,,,,,,,,,,,,,,,,,,,,,,,,,,,,,,,001,138,2020_Feb_18_1428,spring_faces,3.1.5,60.04149948367395,
condition files/Stage1_1.xlsx,,B1,T2,c,"['c', 'm']","['Clue', 'Monopoly']","[-0.15, 0.5]","[0.15, 0.5]",1,1,,,,,,,,,0,8,8,8,0,2,2,1,,,,,,,,,,,,,,,,,,,,,,,,,,,,,,,,,,,,,,,,,,,,,,,,,,,,,,,873.1406903979987,None,873.1406903979987,None,873.1406903979987,None,c,1,2.135739179000666,874.6909815200015,None,874.6909815200015,None,874.6909815200015,None,876.9071854719987,None,876.9071854719987,None,876.9071854719987,None,876.9071854719987,None,,,,,,,,,,,,,,,,,,,,,,,,,,,,,,,,,,,,,,,,,,,,001,138,2020_Feb_18_1428,spring_faces,3.1.5,60.04149948367395,
condition files/Stage1_1.xlsx,,T2,B2,m,"['c', 'm']","['Clue', 'Monopoly']","[-0.15, 0.5]","[0.15, 0.5]",1,1,,,,,,,,,0,8,8,8,0,3,3,3,,,,,,,,,,,,,,,,,,,,,,,,,,,,,,,,,,,,,,,,,,,,,,,,,,,,,,,878.8574138590011,None,878.8574138590011,None,878.8574138590011,None,m,1,6.754647134999686,880.408077524,None,880.408077524,None,880.408077524,None,887.224862471001,None,887.224862471001,None,887.224862471001,None,887.224862471001,None,,,,,,,,,,,,,,,,,,,,,,,,,,,,,,,,,,,,,,,,,,,,001,138,2020_Feb_18_1428,spring_faces,3.1.5,60.04149948367395,
condition files/Stage1_1.xlsx,,T3,B4,c,"['c', 'm']","['Clue', 'Monopoly']","[-0.15, 0.5]","[0.15, 0.5]",1,1,,,,,,,,,0,8,8,8,0,4,4,5,,,,,,,,,,,,,,,,,,,,,,,,,,,,,,,,,,,,,,,,,,,,,,,,,,,,,,,889.1909152859989,None,889.1909152859989,None,889.1909152859989,None,c,1,2.549877794001077,890.7408252979985,None,890.7408252979985,None,890.7408252979985,None,893.3572006649993,None,893.3572006649993,None,893.3572006649993,None,893.3572006649993,None,,,,,,,,,,,,,,,,,,,,,,,,,,,,,,,,,,,,,,,,,,,,001,138,2020_Feb_18_1428,spring_faces,3.1.5,60.04149948367395,
condition files/Stage1_1.xlsx,,T4,B3,m,"['c', 'm']","['Clue', 'Monopoly']","[-0.15, 0.5]","[0.15, 0.5]",1,1,,,,,,,,,0,8,8,8,0,5,5,6,,,,,,,,,,,,,,,,,,,,,,,,,,,,,,,,,,,,,,,,,,,,,,,,,,,,,,,895.3073359019982,None,895.3073359019982,None,895.3073359019982,None,m,1,1.8393476359997294,896.8434557219989,None,896.8434557219989,None,896.8434557219989,None,898.7429300000003,None,898.7429300000003,None,898.7429300000003,None,898.7429300000003,None,,,,,,,,,,,,,,,,,,,,,,,,,,,,,,,,,,,,,,,,,,,,001,138,2020_Feb_18_1428,spring_faces,3.1.5,60.04149948367395,
condition files/Stage1_1.xlsx,,B3,T3,c,"['c', 'm']","['Clue', 'Monopoly']","[-0.15, 0.5]","[0.15, 0.5]",1,1,,,,,,,,,0,8,8,8,0,6,6,4,,,,,,,,,,,,,,,,,,,,,,,,,,,,,,,,,,,,,,,,,,,,,,,,,,,,,,,900.7074619039995,None,900.7074619039995,None,900.7074619039995,None,c,1,5.24080997800047,902.2579649120016,None,902.2579649120016,None,902.2579649120016,None,907.559439613,None,907.559439613,None,907.559439613,None,907.559439613,None,,,,,,,,,,,,,,,,,,,,,,,,,,,,,,,,,,,,,,,,,,,,001,138,2020_Feb_18_1428,spring_faces,3.1.5,60.04149948367395,
condition files/Stage1_1.xlsx,,B4,T4,m,"['c', 'm']","['Clue', 'Monopoly']","[-0.15, 0.5]","[0.15, 0.5]",1,1,,,,,,,,,0,8,8,8,0,7,7,7,,,,,,,,,,,,,,,,,,,,,,,,,,,,,,,,,,,,,,,,,,,,,,,,,,,,,,,909.5242717619985,None,909.5242717619985,None,909.5242717619985,None,m,1,1.7832639290027146,911.0594556670003,None,911.0594556670003,None,911.0594556670003,None,912.9245130060008,None,912.9245130060008,None,912.9245130060008,None,912.9245130060008,None,,,,,,,,,,,,,,,,,,,,,,,,,,,,,,,,,,,,,,,,,,,,001,138,2020_Feb_18_1428,spring_faces,3.1.5,60.04149948367395,
condition files/Stage1_2.xlsx,,B2,T2,m,"['c', 'm']","['Clue', 'Monopoly']","[-0.15, 0.5]","[0.15, 0.5]",1,1,,,,,,,,,0,9,9,9,0,0,0,3,,,,,,,,,,,,,,,,,,,,,,,,,,,,,,,,,,,,,,,,,,,,,,,,,,,,,,,914.8911268800002,None,914.8911268800002,None,914.8911268800002,None,m,1,0.7374288229984813,916.4413093330004,None,916.4413093330004,None,916.4413093330004,None,917.2409122749996,None,917.2409122749996,None,917.2409122749996,None,917.2409122749996,None,,,,,,,,,,,,,,,,,,,,,,,,,,,,,,,,,,,,,,,,,,,,001,138,2020_Feb_18_1428,spring_faces,3.1.5,60.04149948367395,
condition files/Stage1_2.xlsx,,B3,T4,m,"['c', 'm']","['Clue', 'Monopoly']","[-0.15, 0.5]","[0.15, 0.5]",1,1,,,,,,,,,0,9,9,9,0,1,1,6,,,,,,,,,,,,,,,,,,,,,,,,,,,,,,,,,,,,,,,,,,,,,,,,,,,,,,,919.2072902709988,None,919.2072902709988,None,919.2072902709988,None,m,1,0.9638935850016424,920.742831653999,None,920.742831653999,None,920.742831653999,None,921.7581604660008,None,921.7581604660008,None,921.7581604660008,None,921.7581604660008,None,,,,,,,,,,,,,,,,,,,,,,,,,,,,,,,,,,,,,,,,,,,,001,138,2020_Feb_18_1428,spring_faces,3.1.5,60.04149948367395,
condition files/Stage1_2.xlsx,,T3,B3,c,"['c', 'm']","['Clue', 'Monopoly']","[-0.15, 0.5]","[0.15, 0.5]",1,1,,,,,,,,,0,9,9,9,0,2,2,4,,,,,,,,,,,,,,,,,,,,,,,,,,,,,,,,,,,,,,,,,,,,,,,,,,,,,,,923.7237265110016,None,923.7237265110016,None,923.7237265110016,None,c,1,3.4727174479994574,925.2739447929998,None,925.2739447929998,None,925.2739447929998,None,928.8098279719998,None,928.8098279719998,None,928.8098279719998,None,928.8098279719998,None,,,,,,,,,,,,,,,,,,,,,,,,,,,,,,,,,,,,,,,,,,,,001,138,2020_Feb_18_1428,spring_faces,3.1.5,60.04149948367395,
condition files/Stage1_2.xlsx,,T2,B1,c,"['c', 'm']","['Clue', 'Monopoly']","[-0.15, 0.5]","[0.15, 0.5]",1,1,,,,,,,,,0,9,9,9,0,3,3,1,,,,,,,,,,,,,,,,,,,,,,,,,,,,,,,,,,,,,,,,,,,,,,,,,,,,,,,930.7744144040007,None,930.7744144040007,None,930.7744144040007,None,c,1,3.0468075790013245,932.3239123899984,None,932.3239123899984,None,932.3239123899984,None,935.4238805759996,None,935.4238805759996,None,935.4238805759996,None,935.4238805759996,None,,,,,,,,,,,,,,,,,,,,,,,,,,,,,,,,,,,,,,,,,,,,001,138,2020_Feb_18_1428,spring_faces,3.1.5,60.04149948367395,
condition files/Stage1_2.xlsx,,B4,T3,c,"['c', 'm']","['Clue', 'Monopoly']","[-0.15, 0.5]","[0.15, 0.5]",1,1,,,,,,,,,0,9,9,9,0,4,4,5,,,,,,,,,,,,,,,,,,,,,,,,,,,,,,,,,,,,,,,,,,,,,,,,,,,,,,,937.3908599679999,None,937.3908599679999,None,937.3908599679999,None,c,1,12.061677280998993,938.9410848320003,None,938.9410848320003,None,938.9410848320003,None,951.0577877379983,None,951.0577877379983,None,951.0577877379983,None,951.0577877379983,None,,,,,,,,,,,,,,,,,,,,,,,,,,,,,,,,,,,,,,,,,,,,001,138,2020_Feb_18_1428,spring_faces,3.1.5,60.04149948367395,
condition files/Stage1_2.xlsx,,T1,B2,m,"['c', 'm']","['Clue', 'Monopoly']","[-0.15, 0.5]","[0.15, 0.5]",1,1,,,,,,,,,0,9,9,9,0,5,5,2,,,,,,,,,,,,,,,,,,,,,,,,,,,,,,,,,,,,,,,,,,,,,,,,,,,,,,,953.0236868450011,None,953.0236868450011,None,953.0236868450011,None,m,1,2.2211312199979147,954.5576028789983,None,954.5576028789983,None,954.5576028789983,None,956.8410930600003,None,956.8410930600003,None,956.8410930600003,None,956.8410930600003,None,,,,,,,,,,,,,,,,,,,,,,,,,,,,,,,,,,,,,,,,,,,,001,138,2020_Feb_18_1428,spring_faces,3.1.5,60.04149948367395,
condition files/Stage1_2.xlsx,,T4,B4,m,"['c', 'm']","['Clue', 'Monopoly']","[-0.15, 0.5]","[0.15, 0.5]",1,1,,,,,,,,,0,9,9,9,0,6,6,7,,,,,,,,,,,,,,,,,,,,,,,,,,,,,,,,,,,,,,,,,,,,,,,,,,,,,,,958.8075773960009,None,958.8075773960009,None,958.8075773960009,None,m,1,3.1257673440013605,960.341036834001,None,960.341036834001,None,960.341036834001,None,963.5242090159991,None,963.5242090159991,None,963.5242090159991,None,963.5242090159991,None,,,,,,,,,,,,,,,,,,,,,,,,,,,,,,,,,,,,,,,,,,,,001,138,2020_Feb_18_1428,spring_faces,3.1.5,60.04149948367395,
condition files/Stage1_2.xlsx,,B1,T1,c,"['c', 'm']","['Clue', 'Monopoly']","[-0.15, 0.5]","[0.15, 0.5]",1,1,,,,,,,,,0,9,9,9,0,7,7,0,,,,,,,,,,,,,,,,,,,,,,,,,,,,,,,,,,,,,,,,,,,,,,,,,,,,,,,965.4907896289988,None,965.4907896289988,None,965.4907896289988,None,c,1,2.4105896670007496,967.0242063859987,None,967.0242063859987,None,967.0242063859987,None,969.507466938001,None,969.507466938001,None,969.507466938001,None,969.507466938001,None,,,,,,,,,,,,,,,,,,,,,,,,,,,,,,,,,,,,,,,,,,,,001,138,2020_Feb_18_1428,spring_faces,3.1.5,60.04149948367395,
condition files/Stage1_1.xlsx,,B2,T1,m,"['c', 'm']","['Clue', 'Monopoly']","[-0.15, 0.5]","[0.15, 0.5]",1,1,,,,,,,,,0,10,10,10,0,0,0,2,,,,,,,,,,,,,,,,,,,,,,,,,,,,,,,,,,,,,,,,,,,,,,,,,,,,,,,971.4745112300006,None,971.4745112300006,None,971.4745112300006,None,m,1,2.105473294002877,973.0093306540002,None,973.0093306540002,None,973.0093306540002,None,975.1745811410001,None,975.1745811410001,None,975.1745811410001,None,975.1745811410001,None,,,,,,,,,,,,,,,,,,,,,,,,,,,,,,,,,,,,,,,,,,,,001,138,2020_Feb_18_1428,spring_faces,3.1.5,60.04149948367395,
condition files/Stage1_1.xlsx,,T1,B1,c,"['c', 'm']","['Clue', 'Monopoly']","[-0.15, 0.5]","[0.15, 0.5]",1,1,,,,,,,,,0,10,10,10,0,1,1,0,,,,,,,,,,,,,,,,,,,,,,,,,,,,,,,,,,,,,,,,,,,,,,,,,,,,,,,977.140278941999,None,977.140278941999,None,977.140278941999,None,c,1,3.9259521839994704,978.676750341001,None,978.676750341001,None,978.676750341001,None,982.6594622080011,None,982.6594622080011,None,982.6594622080011,None,982.6594622080011,None,,,,,,,,,,,,,,,,,,,,,,,,,,,,,,,,,,,,,,,,,,,,001,138,2020_Feb_18_1428,spring_faces,3.1.5,60.04149948367395,
condition files/Stage1_1.xlsx,,B3,T3,c,"['c', 'm']","['Clue', 'Monopoly']","[-0.15, 0.5]","[0.15, 0.5]",1,1,,,,,,,,,0,10,10,10,0,2,2,4,,,,,,,,,,,,,,,,,,,,,,,,,,,,,,,,,,,,,,,,,,,,,,,,,,,,,,,984.6244106779995,None,984.6244106779995,None,984.6244106779995,None,c,1,1.4681144149981264,986.1746022070001,None,986.1746022070001,None,986.1746022070001,None,987.7078857400011,None,987.7078857400011,None,987.7078857400011,None,987.7078857400011,None,,,,,,,,,,,,,,,,,,,,,,,,,,,,,,,,,,,,,,,,,,,,001,138,2020_Feb_18_1428,spring_faces,3.1.5,60.04149948367395,
condition files/Stage1_1.xlsx,,B4,T4,m,"['c', 'm']","['Clue', 'Monopoly']","[-0.15, 0.5]","[0.15, 0.5]",1,1,,,,,,,,,0,10,10,10,0,3,3,7,,,,,,,,,,,,,,,,,,,,,,,,,,,,,,,,,,,,,,,,,,,,,,,,,,,,,,,989.6744880689985,None,989.6744880689985,None,989.6744880689985,None,m,1,1.3787306010017346,991.2239444000006,None,991.2239444000006,None,991.2239444000006,None,992.6600874920005,None,992.6600874920005,None,992.6600874920005,None,992.6600874920005,None,,,,,,,,,,,,,,,,,,,,,,,,,,,,,,,,,,,,,,,,,,,,001,138,2020_Feb_18_1428,spring_faces,3.1.5,60.04149948367395,
condition files/Stage1_1.xlsx,,T4,B3,m,"['c', 'm']","['Clue', 'Monopoly']","[-0.15, 0.5]","[0.15, 0.5]",1,1,,,,,,,,,0,10,10,10,0,4,4,6,,,,,,,,,,,,,,,,,,,,,,,,,,,,,,,,,,,,,,,,,,,,,,,,,,,,,,,994.6242924690014,None,994.6242924690014,None,994.6242924690014,None,m,1,1.9162911679995887,996.1583925160012,None,996.1583925160012,None,996.1583925160012,None,998.1409839869993,None,998.1409839869993,None,998.1409839869993,None,998.1409839869993,None,,,,,,,,,,,,,,,,,,,,,,,,,,,,,,,,,,,,,,,,,,,,001,138,2020_Feb_18_1428,spring_faces,3.1.5,60.04149948367395,
condition files/Stage1_1.xlsx,,B1,T2,c,"['c', 'm']","['Clue', 'Monopoly']","[-0.15, 0.5]","[0.15, 0.5]",1,1,,,,,,,,,0,10,10,10,0,5,5,1,,,,,,,,,,,,,,,,,,,,,,,,,,,,,,,,,,,,,,,,,,,,,,,,,,,,,,,1000.1076649210008,None,1000.1076649210008,None,1000.1076649210008,None,c,1,1.9527525659977982,1001.6419864070012,None,1001.6419864070012,None,1001.6419864070012,None,1003.6596269430011,None,1003.6596269430011,None,1003.6596269430011,None,1003.6596269430011,None,,,,,,,,,,,,,,,,,,,,,,,,,,,,,,,,,,,,,,,,,,,,001,138,2020_Feb_18_1428,spring_faces,3.1.5,60.04149948367395,
condition files/Stage1_1.xlsx,,T3,B4,c,"['c', 'm']","['Clue', 'Monopoly']","[-0.15, 0.5]","[0.15, 0.5]",1,1,,,,,,,,,0,10,10,10,0,6,6,5,,,,,,,,,,,,,,,,,,,,,,,,,,,,,,,,,,,,,,,,,,,,,,,,,,,,,,,1005.6236237619996,None,1005.6236237619996,None,1005.6236237619996,None,c,1,9.123435491997952,1007.1593629870003,None,1007.1593629870003,None,1007.1593629870003,None,1016.3409230200014,None,1016.3409230200014,None,1016.3409230200014,None,1016.3409230200014,None,,,,,,,,,,,,,,,,,,,,,,,,,,,,,,,,,,,,,,,,,,,,001,138,2020_Feb_18_1428,spring_faces,3.1.5,60.04149948367395,
condition files/Stage1_1.xlsx,,T2,B2,m,"['c', 'm']","['Clue', 'Monopoly']","[-0.15, 0.5]","[0.15, 0.5]",1,1,,,,,,,,,0,10,10,10,0,7,7,3,,,,,,,,,,,,,,,,,,,,,,,,,,,,,,,,,,,,,,,,,,,,,,,,,,,,,,,1018.307342013999,None,1018.307342013999,None,1018.307342013999,None,m,1,13.83362507000129,1019.8410754299985,None,1019.8410754299985,None,1019.8410754299985,None,1033.7264102049994,None,1033.7264102049994,None,1033.7264102049994,None,1033.7264102049994,None,,,,,,,,,,,,,,,,,,,,,,,,,,,,,,,,,,,,,,,,,,,,001,138,2020_Feb_18_1428,spring_faces,3.1.5,60.04149948367395,
condition files/Stage1_2.xlsx,,B4,T3,c,"['c', 'm']","['Clue', 'Monopoly']","[-0.15, 0.5]","[0.15, 0.5]",1,1,,,,,,,,,0,11,11,11,0,0,0,5,,,,,,,,,,,,,,,,,,,,,,,,,,,,,,,,,,,,,,,,,,,,,,,,,,,,,,,1035.7076347670009,None,1035.7076347670009,None,1035.7076347670009,None,c,1,1.7593741889977537,1037.2433454599995,None,1037.2433454599995,None,1037.2433454599995,None,1039.0741921970002,None,1039.0741921970002,None,1039.0741921970002,None,1039.0741921970002,None,,,,,,,,,,,,,,,,,,,,,,,,,,,,,,,,,,,,,,,,,,,,001,138,2020_Feb_18_1428,spring_faces,3.1.5,60.04149948367395,
condition files/Stage1_2.xlsx,,T4,B4,m,"['c', 'm']","['Clue', 'Monopoly']","[-0.15, 0.5]","[0.15, 0.5]",1,1,,,,,,,,,0,11,11,11,0,1,1,7,,,,,,,,,,,,,,,,,,,,,,,,,,,,,,,,,,,,,,,,,,,,,,,,,,,,,,,1041.0247081870002,None,1041.0247081870002,None,1041.0247081870002,None,m,1,0.7325285219994839,1042.5581985069985,None,1042.5581985069985,None,1042.5581985069985,None,1043.3414206960006,None,1043.3414206960006,None,1043.3414206960006,None,1043.3414206960006,None,,,,,,,,,,,,,,,,,,,,,,,,,,,,,,,,,,,,,,,,,,,,001,138,2020_Feb_18_1428,spring_faces,3.1.5,60.04149948367395,
condition files/Stage1_2.xlsx,,B1,T1,c,"['c', 'm']","['Clue', 'Monopoly']","[-0.15, 0.5]","[0.15, 0.5]",1,1,,,,,,,,,0,11,11,11,0,2,2,0,,,,,,,,,,,,,,,,,,,,,,,,,,,,,,,,,,,,,,,,,,,,,,,,,,,,,,,1045.3070523710012,None,1045.3070523710012,None,1045.3070523710012,None,c,1,0.7536417539995455,1046.8410993510006,None,1046.8410993510006,None,1046.8410993510006,None,1047.674746048,None,1047.674746048,None,1047.674746048,None,1047.674746048,None,,,,,,,,,,,,,,,,,,,,,,,,,,,,,,,,,,,,,,,,,,,,001,138,2020_Feb_18_1428,spring_faces,3.1.5,60.04149948367395,
condition files/Stage1_2.xlsx,,T1,B2,m,"['c', 'm']","['Clue', 'Monopoly']","[-0.15, 0.5]","[0.15, 0.5]",1,1,,,,,,,,,0,11,11,11,0,3,3,2,,,,,,,,,,,,,,,,,,,,,,,,,,,,,,,,,,,,,,,,,,,,,,,,,,,,,,,1049.6243761699989,None,1049.6243761699989,None,1049.6243761699989,None,m,1,1.1547129899990978,1051.1600900609992,None,1051.1600900609992,None,1051.1600900609992,None,1052.3749171650015,None,1052.3749171650015,None,1052.3749171650015,None,1052.3749171650015,None,,,,,,,,,,,,,,,,,,,,,,,,,,,,,,,,,,,,,,,,,,,,001,138,2020_Feb_18_1428,spring_faces,3.1.5,60.04149948367395,
condition files/Stage1_2.xlsx,,T3,B3,c,"['c', 'm']","['Clue', 'Monopoly']","[-0.15, 0.5]","[0.15, 0.5]",1,1,,,,,,,,,0,11,11,11,0,4,4,4,,,,,,,,,,,,,,,,,,,,,,,,,,,,,,,,,,,,,,,,,,,,,,,,,,,,,,,1054.3407070629983,None,1054.3407070629983,None,1054.3407070629983,None,c,1,0.7599747240019497,1055.8906883659984,None,1055.8906883659984,None,1055.8906883659984,None,1056.7245337700006,None,1056.7245337700006,None,1056.7245337700006,None,1056.7245337700006,None,,,,,,,,,,,,,,,,,,,,,,,,,,,,,,,,,,,,,,,,,,,,001,138,2020_Feb_18_1428,spring_faces,3.1.5,60.04149948367395,
condition files/Stage1_2.xlsx,,B2,T2,m,"['c', 'm']","['Clue', 'Monopoly']","[-0.15, 0.5]","[0.15, 0.5]",1,1,,,,,,,,,0,11,11,11,0,5,5,3,,,,,,,,,,,,,,,,,,,,,,,,,,,,,,,,,,,,,,,,,,,,,,,,,,,,,,,1058.6738769340009,None,1058.6738769340009,None,1058.6738769340009,None,m,1,1.114438489999884,1060.224302183,None,1060.224302183,None,1060.224302183,None,1061.391659410001,None,1061.391659410001,None,1061.391659410001,None,1061.391659410001,None,,,,,,,,,,,,,,,,,,,,,,,,,,,,,,,,,,,,,,,,,,,,001,138,2020_Feb_18_1428,spring_faces,3.1.5,60.04149948367395,
condition files/Stage1_2.xlsx,,T2,B1,c,"['c', 'm']","['Clue', 'Monopoly']","[-0.15, 0.5]","[0.15, 0.5]",1,1,,,,,,,,,0,11,11,11,0,6,6,1,,,,,,,,,,,,,,,,,,,,,,,,,,,,,,,,,,,,,,,,,,,,,,,,,,,,,,,1063.3574163919984,None,1063.3574163919984,None,1063.3574163919984,None,c,1,1.2938933650002582,1064.8928048039998,None,1064.8928048039998,None,1064.8928048039998,None,1066.2438179240016,None,1066.2438179240016,None,1066.2438179240016,None,1066.2438179240016,None,,,,,,,,,,,,,,,,,,,,,,,,,,,,,,,,,,,,,,,,,,,,001,138,2020_Feb_18_1428,spring_faces,3.1.5,60.04149948367395,
condition files/Stage1_2.xlsx,,B3,T4,m,"['c', 'm']","['Clue', 'Monopoly']","[-0.15, 0.5]","[0.15, 0.5]",1,1,,,,,,,,,0,11,11,11,0,7,7,6,,,,,,,,,,,,,,,,,,,,,,,,,,,,,,,,,,,,,,,,,,,,,,,,,,,,,,,1068.207310321999,None,1068.207310321999,None,1068.207310321999,None,m,1,3.596806296001887,1069.7578856850014,None,1069.7578856850014,None,1069.7578856850014,None,1073.4244813840014,None,1073.4244813840014,None,1073.4244813840014,None,1073.4244813840014,None,,,,,,,,,,,,,,,,,,,,,,,,,,,,,,,,,,,,,,,,,,,,001,138,2020_Feb_18_1428,spring_faces,3.1.5,60.04149948367395,
,,,,,,,,,,,,,,,,,,,,,,,,,,,,,,,,,,,,,,,,,,,,,,,,,,,,,,,,,,,,,,,,,,,,,,,,,,,,,,,,,,,,,,,,,,,,,,,,,,,,,,,,,,,,,,,,1075.391447127,None,space,11.539517537999927,1080.3912732220015,None,,,,,,,,,,,,,,,,,,,,,,,,,,,,,,001,138,2020_Feb_18_1428,spring_faces,3.1.5,60.04149948367395,
condition files/Stage2_1.xlsx,,T3,B3,s,"['s', 'r']","['Stratego', 'Risk']","[-0.15, 0.5]","[0.15, 0.5]",1,1,,,,,,,,,,,,,,,,,0,0,0,0,0,0,0,4,,,,,,,,,,,,,,,,,,,,,,,,,,,,,,,,,,,,,,,,,,,,,,,1091.9914834160008,None,1091.9914834160008,None,1091.9914834160008,None,s,1,1.7348580210018554,1093.5238146580014,None,1093.5238146580014,None,1093.5238146580014,None,1095.341052975,None,1095.341052975,None,1095.341052975,None,1095.341052975,None,,,,,,,,,,,,,,,1080.3912732220015,None,,,,,,,,,,,,,,,,,,,,,,,,,,,,001,138,2020_Feb_18_1428,spring_faces,3.1.5,60.04149948367395,
condition files/Stage2_1.xlsx,,B2,T2,r,"['s', 'r']","['Stratego', 'Risk']","[-0.15, 0.5]","[0.15, 0.5]",1,1,,,,,,,,,,,,,,,,,0,0,0,0,0,1,1,3,,,,,,,,,,,,,,,,,,,,,,,,,,,,,,,,,,,,,,,,,,,,,,,1097.2901649359992,None,1097.2901649359992,None,1097.2901649359992,None,r,1,1.2982753139986016,1098.8404406679983,None,1098.8404406679983,None,1098.8404406679983,None,1100.1938203850004,None,1100.1938203850004,None,1100.1938203850004,None,1100.1938203850004,None,,,,,,,,,,,,,,,,,,,,,,,,,,,,,,,,,,,,,,,,,,,,001,138,2020_Feb_18_1428,spring_faces,3.1.5,60.04149948367395,
condition files/Stage2_1.xlsx,,T5,B5,s,"['s', 'r']","['Stratego', 'Risk']","[-0.15, 0.5]","[0.15, 0.5]",1,1,,,,,,,,,,,,,,,,,0,0,0,0,0,2,2,0,,,,,,,,,,,,,,,,,,,,,,,,,,,,,,,,,,,,,,,,,,,,,,,1102.1577123969982,None,1102.1577123969982,None,1102.1577123969982,None,s,1,2.7816605049993086,1103.6930415230017,None,1103.6930415230017,None,1103.6930415230017,None,1106.5407772580002,None,1106.5407772580002,None,1106.5407772580002,None,1106.5407772580002,None,,,,,,,,,,,,,,,,,,,,,,,,,,,,,,,,,,,,,,,,,,,,001,138,2020_Feb_18_1428,spring_faces,3.1.5,60.04149948367395,
condition files/Stage2_1.xlsx,,B4,T4,r,"['s', 'r']","['Stratego', 'Risk']","[-0.15, 0.5]","[0.15, 0.5]",1,1,,,,,,,,,,,,,,,,,0,0,0,0,0,3,3,5,,,,,,,,,,,,,,,,,,,,,,,,,,,,,,,,,,,,,,,,,,,,,,,1108.507633764999,None,1108.507633764999,None,1108.507633764999,None,r,1,2.2875323750013195,1110.043274306001,None,1110.043274306001,None,1110.043274306001,None,1112.3932975450007,None,1112.3932975450007,None,1112.3932975450007,None,1112.3932975450007,None,,,,,,,,,,,,,,,,,,,,,,,,,,,,,,,,,,,,,,,,,,,,001,138,2020_Feb_18_1428,spring_faces,3.1.5,60.04149948367395,
condition files/Stage2_1.xlsx,,T1,B1,s,"['s', 'r']","['Stratego', 'Risk']","[-0.15, 0.5]","[0.15, 0.5]",1,1,,,,,,,,,,,,,,,,,0,0,0,0,0,4,4,2,,,,,,,,,,,,,,,,,,,,,,,,,,,,,,,,,,,,,,,,,,,,,,,1114.3571706660005,None,1114.3571706660005,None,1114.3571706660005,None,s,1,2.0713080230016203,1115.9074316180013,None,1115.9074316180013,None,1115.9074316180013,None,1118.0578902060006,None,1118.0578902060006,None,1118.0578902060006,None,1118.0578902060006,None,,,,,,,,,,,,,,,,,,,,,,,,,,,,,,,,,,,,,,,,,,,,001,138,2020_Feb_18_1428,spring_faces,3.1.5,60.04149948367395,
condition files/Stage2_1.xlsx,,B6,T6,r,"['s', 'r']","['Stratego', 'Risk']","[-0.15, 0.5]","[0.15, 0.5]",1,1,,,,,,,,,,,,,,,,,0,0,0,0,0,5,5,1,,,,,,,,,,,,,,,,,,,,,,,,,,,,,,,,,,,,,,,,,,,,,,,1120.007862524999,None,1120.007862524999,None,1120.007862524999,None,r,1,2.9808503599997493,1121.5418694670007,None,1121.5418694670007,None,1121.5418694670007,None,1124.5912009989988,None,1124.5912009989988,None,1124.5912009989988,None,1124.5912009989988,None,,,,,,,,,,,,,,,,,,,,,,,,,,,,,,,,,,,,,,,,,,,,001,138,2020_Feb_18_1428,spring_faces,3.1.5,60.04149948367395,
condition files/Stage2_2.xlsx,,B3,T3,s,"['s', 'r']","['Stratego', 'Risk']","[-0.15, 0.5]","[0.15, 0.5]",1,1,,,,,,,,,,,,,,,,,0,1,1,1,0,0,0,4,,,,,,,,,,,,,,,,,,,,,,,,,,,,,,,,,,,,,,,,,,,,,,,1126.557901125001,None,1126.557901125001,None,1126.557901125001,None,s,1,2.4149031170018134,1128.1078225730016,None,1128.1078225730016,None,1128.1078225730016,None,1130.5914129999983,None,1130.5914129999983,None,1130.5914129999983,None,1130.5914129999983,None,,,,,,,,,,,,,,,,,,,,,,,,,,,,,,,,,,,,,,,,,,,,001,138,2020_Feb_18_1428,spring_faces,3.1.5,60.04149948367395,
condition files/Stage2_2.xlsx,,T4,B4,r,"['s', 'r']","['Stratego', 'Risk']","[-0.15, 0.5]","[0.15, 0.5]",1,1,,,,,,,,,,,,,,,,,0,1,1,1,0,1,1,5,,,,,,,,,,,,,,,,,,,,,,,,,,,,,,,,,,,,,,,,,,,,,,,1132.5409183880001,None,1132.5409183880001,None,1132.5409183880001,None,r,1,1.231904473999748,1134.0908083649992,None,1134.0908083649992,None,1134.0908083649992,None,1135.3913465350015,None,1135.3913465350015,None,1135.3913465350015,None,1135.3913465350015,None,,,,,,,,,,,,,,,,,,,,,,,,,,,,,,,,,,,,,,,,,,,,001,138,2020_Feb_18_1428,spring_faces,3.1.5,60.04149948367395,
condition files/Stage2_2.xlsx,,B1,T1,s,"['s', 'r']","['Stratego', 'Risk']","[-0.15, 0.5]","[0.15, 0.5]",1,1,,,,,,,,,,,,,,,,,0,1,1,1,0,2,2,2,,,,,,,,,,,,,,,,,,,,,,,,,,,,,,,,,,,,,,,,,,,,,,,1137.341104449999,None,1137.341104449999,None,1137.341104449999,None,s,1,3.935199799001566,1138.8755467279989,None,1138.8755467279989,None,1138.8755467279989,None,1142.8909160250005,None,1142.8909160250005,None,1142.8909160250005,None,1142.8909160250005,None,,,,,,,,,,,,,,,,,,,,,,,,,,,,,,,,,,,,,,,,,,,,001,138,2020_Feb_18_1428,spring_faces,3.1.5,60.04149948367395,
condition files/Stage2_2.xlsx,,T2,B2,r,"['s', 'r']","['Stratego', 'Risk']","[-0.15, 0.5]","[0.15, 0.5]",1,1,,,,,,,,,,,,,,,,,0,1,1,1,0,3,3,3,,,,,,,,,,,,,,,,,,,,,,,,,,,,,,,,,,,,,,,,,,,,,,,1144.840262357,None,1144.840262357,None,1144.840262357,None,r,1,1.60336764600288,1146.3753674709988,None,1146.3753674709988,None,1146.3753674709988,None,1148.0421805549995,None,1148.0421805549995,None,1148.0421805549995,None,1148.0421805549995,None,,,,,,,,,,,,,,,,,,,,,,,,,,,,,,,,,,,,,,,,,,,,001,138,2020_Feb_18_1428,spring_faces,3.1.5,60.04149948367395,
condition files/Stage2_2.xlsx,,B5,T5,s,"['s', 'r']","['Stratego', 'Risk']","[-0.15, 0.5]","[0.15, 0.5]",1,1,,,,,,,,,,,,,,,,,0,1,1,1,0,4,4,0,,,,,,,,,,,,,,,,,,,,,,,,,,,,,,,,,,,,,,,,,,,,,,,1150.0076564789997,None,1150.0076564789997,None,1150.0076564789997,None,s,1,2.853077179999673,1151.5416652099993,None,1151.5416652099993,None,1151.5416652099993,None,1154.4606683329985,None,1154.4606683329985,None,1154.4606683329985,None,1154.4606683329985,None,,,,,,,,,,,,,,,,,,,,,,,,,,,,,,,,,,,,,,,,,,,,001,138,2020_Feb_18_1428,spring_faces,3.1.5,60.04149948367395,
condition files/Stage2_2.xlsx,,T6,B6,r,"['s', 'r']","['Stratego', 'Risk']","[-0.15, 0.5]","[0.15, 0.5]",1,1,,,,,,,,,,,,,,,,,0,1,1,1,0,5,5,1,,,,,,,,,,,,,,,,,,,,,,,,,,,,,,,,,,,,,,,,,,,,,,,1156.4237431170004,None,1156.4237431170004,None,1156.4237431170004,None,r,1,2.037029598002846,1157.9577098709997,None,1157.9577098709997,None,1157.9577098709997,None,1160.059108204001,None,1160.059108204001,None,1160.059108204001,None,1160.059108204001,None,,,,,,,,,,,,,,,,,,,,,,,,,,,,,,,,,,,,,,,,,,,,001,138,2020_Feb_18_1428,spring_faces,3.1.5,60.04149948367395,
condition files/Stage2_1.xlsx,,B6,T6,r,"['s', 'r']","['Stratego', 'Risk']","[-0.15, 0.5]","[0.15, 0.5]",1,1,,,,,,,,,,,,,,,,,0,2,2,2,0,0,0,1,,,,,,,,,,,,,,,,,,,,,,,,,,,,,,,,,,,,,,,,,,,,,,,1162.0406213690003,None,1162.0406213690003,None,1162.0406213690003,None,r,1,1.2521767600010207,1163.5745708739996,None,1163.5745708739996,None,1163.5745708739996,None,1164.8911376690012,None,1164.8911376690012,None,1164.8911376690012,None,1164.8911376690012,None,,,,,,,,,,,,,,,,,,,,,,,,,,,,,,,,,,,,,,,,,,,,001,138,2020_Feb_18_1428,spring_faces,3.1.5,60.04149948367395,
condition files/Stage2_1.xlsx,,B4,T4,r,"['s', 'r']","['Stratego', 'Risk']","[-0.15, 0.5]","[0.15, 0.5]",1,1,,,,,,,,,,,,,,,,,0,2,2,2,0,1,1,5,,,,,,,,,,,,,,,,,,,,,,,,,,,,,,,,,,,,,,,,,,,,,,,1166.857625618999,None,1166.857625618999,None,1166.857625618999,None,r,1,1.4416361790026713,1168.393176556001,None,1168.393176556001,None,1168.393176556001,None,1169.890674975999,None,1169.890674975999,None,1169.890674975999,None,1169.890674975999,None,,,,,,,,,,,,,,,,,,,,,,,,,,,,,,,,,,,,,,,,,,,,001,138,2020_Feb_18_1428,spring_faces,3.1.5,60.04149948367395,
condition files/Stage2_1.xlsx,,T5,B5,s,"['s', 'r']","['Stratego', 'Risk']","[-0.15, 0.5]","[0.15, 0.5]",1,1,,,,,,,,,,,,,,,,,0,2,2,2,0,2,2,0,,,,,,,,,,,,,,,,,,,,,,,,,,,,,,,,,,,,,,,,,,,,,,,1171.857662516999,None,1171.857662516999,None,1171.857662516999,None,s,1,1.1461563109987765,1173.3925747380017,None,1173.3925747380017,None,1173.3925747380017,None,1174.5933592090005,None,1174.5933592090005,None,1174.5933592090005,None,1174.5933592090005,None,,,,,,,,,,,,,,,,,,,,,,,,,,,,,,,,,,,,,,,,,,,,001,138,2020_Feb_18_1428,spring_faces,3.1.5,60.04149948367395,
condition files/Stage2_1.xlsx,,T3,B3,s,"['s', 'r']","['Stratego', 'Risk']","[-0.15, 0.5]","[0.15, 0.5]",1,1,,,,,,,,,,,,,,,,,0,2,2,2,0,3,3,4,,,,,,,,,,,,,,,,,,,,,,,,,,,,,,,,,,,,,,,,,,,,,,,1176.5570342190003,None,1176.5570342190003,None,1176.5570342190003,None,s,1,1.486712753001484,1178.1080169769994,None,1178.1080169769994,None,1178.1080169769994,None,1179.6573834590017,None,1179.6573834590017,None,1179.6573834590017,None,1179.6573834590017,None,,,,,,,,,,,,,,,,,,,,,,,,,,,,,,,,,,,,,,,,,,,,001,138,2020_Feb_18_1428,spring_faces,3.1.5,60.04149948367395,
condition files/Stage2_1.xlsx,,B2,T2,r,"['s', 'r']","['Stratego', 'Risk']","[-0.15, 0.5]","[0.15, 0.5]",1,1,,,,,,,,,,,,,,,,,0,2,2,2,0,4,4,3,,,,,,,,,,,,,,,,,,,,,,,,,,,,,,,,,,,,,,,,,,,,,,,1181.6242950449996,None,1181.6242950449996,None,1181.6242950449996,None,r,1,1.3310434490012995,1183.1596921359996,None,1183.1596921359996,None,1183.1596921359996,None,1184.543945166999,None,1184.543945166999,None,1184.543945166999,None,1184.543945166999,None,,,,,,,,,,,,,,,,,,,,,,,,,,,,,,,,,,,,,,,,,,,,001,138,2020_Feb_18_1428,spring_faces,3.1.5,60.04149948367395,
condition files/Stage2_1.xlsx,,T1,B1,s,"['s', 'r']","['Stratego', 'Risk']","[-0.15, 0.5]","[0.15, 0.5]",1,1,,,,,,,,,,,,,,,,,0,2,2,2,0,5,5,2,,,,,,,,,,,,,,,,,,,,,,,,,,,,,,,,,,,,,,,,,,,,,,,1186.5076195879992,None,1186.5076195879992,None,1186.5076195879992,None,s,1,2.0956668210019416,1188.043064428999,None,1188.043064428999,None,1188.043064428999,None,1190.1912743969988,None,1190.1912743969988,None,1190.1912743969988,None,1190.1912743969988,None,,,,,,,,,,,,,,,,,,,,,,,,,,,,,,,,,,,,,,,,,,,,001,138,2020_Feb_18_1428,spring_faces,3.1.5,60.04149948367395,
condition files/Stage2_2.xlsx,,B3,T3,s,"['s', 'r']","['Stratego', 'Risk']","[-0.15, 0.5]","[0.15, 0.5]",1,1,,,,,,,,,,,,,,,,,0,3,3,3,0,0,0,4,,,,,,,,,,,,,,,,,,,,,,,,,,,,,,,,,,,,,,,,,,,,,,,1192.174252678,None,1192.174252678,None,1192.174252678,None,s,1,1.3262579160000314,1193.7244146060002,None,1193.7244146060002,None,1193.7244146060002,None,1195.1076377200006,None,1195.1076377200006,None,1195.1076377200006,None,1195.1076377200006,None,,,,,,,,,,,,,,,,,,,,,,,,,,,,,,,,,,,,,,,,,,,,001,138,2020_Feb_18_1428,spring_faces,3.1.5,60.04149948367395,
condition files/Stage2_2.xlsx,,B5,T5,s,"['s', 'r']","['Stratego', 'Risk']","[-0.15, 0.5]","[0.15, 0.5]",1,1,,,,,,,,,,,,,,,,,0,3,3,3,0,1,1,0,,,,,,,,,,,,,,,,,,,,,,,,,,,,,,,,,,,,,,,,,,,,,,,1197.0734458180013,None,1197.0734458180013,None,1197.0734458180013,None,s,1,1.1463180140017357,1198.624563073001,None,1198.624563073001,None,1198.624563073001,None,1199.8248355379983,None,1199.8248355379983,None,1199.8248355379983,None,1199.8248355379983,None,,,,,,,,,,,,,,,,,,,,,,,,,,,,,,,,,,,,,,,,,,,,001,138,2020_Feb_18_1428,spring_faces,3.1.5,60.04149948367395,
condition files/Stage2_2.xlsx,,T6,B6,r,"['s', 'r']","['Stratego', 'Risk']","[-0.15, 0.5]","[0.15, 0.5]",1,1,,,,,,,,,,,,,,,,,0,3,3,3,0,2,2,1,,,,,,,,,,,,,,,,,,,,,,,,,,,,,,,,,,,,,,,,,,,,,,,1201.7910337950016,None,1201.7910337950016,None,1201.7910337950016,None,r,1,2.4297949639985745,1203.3249326029982,None,1203.3249326029982,None,1203.3249326029982,None,1205.8079756920015,None,1205.8079756920015,None,1205.8079756920015,None,1205.8079756920015,None,,,,,,,,,,,,,,,,,,,,,,,,,,,,,,,,,,,,,,,,,,,,001,138,2020_Feb_18_1428,spring_faces,3.1.5,60.04149948367395,
condition files/Stage2_2.xlsx,,T4,B4,r,"['s', 'r']","['Stratego', 'Risk']","[-0.15, 0.5]","[0.15, 0.5]",1,1,,,,,,,,,,,,,,,,,0,3,3,3,0,3,3,5,,,,,,,,,,,,,,,,,,,,,,,,,,,,,,,,,,,,,,,,,,,,,,,1207.7742512039986,None,1207.7742512039986,None,1207.7742512039986,None,r,1,3.1502190760002122,1209.324455561,None,1209.324455561,None,1209.324455561,None,1212.5413692479997,None,1212.5413692479997,None,1212.5413692479997,None,1212.5413692479997,None,,,,,,,,,,,,,,,,,,,,,,,,,,,,,,,,,,,,,,,,,,,,001,138,2020_Feb_18_1428,spring_faces,3.1.5,60.04149948367395,
condition files/Stage2_2.xlsx,,B1,T1,s,"['s', 'r']","['Stratego', 'Risk']","[-0.15, 0.5]","[0.15, 0.5]",1,1,,,,,,,,,,,,,,,,,0,3,3,3,0,4,4,2,,,,,,,,,,,,,,,,,,,,,,,,,,,,,,,,,,,,,,,,,,,,,,,1214.5077479540014,None,1214.5077479540014,None,1214.5077479540014,None,s,1,1.9195022950007115,1216.0431887859995,None,1216.0431887859995,None,1216.0431887859995,None,1218.0249599630006,None,1218.0249599630006,None,1218.0249599630006,None,1218.0249599630006,None,,,,,,,,,,,,,,,,,,,,,,,,,,,,,,,,,,,,,,,,,,,,001,138,2020_Feb_18_1428,spring_faces,3.1.5,60.04149948367395,
condition files/Stage2_2.xlsx,,T2,B2,r,"['s', 'r']","['Stratego', 'Risk']","[-0.15, 0.5]","[0.15, 0.5]",1,1,,,,,,,,,,,,,,,,,0,3,3,3,0,5,5,3,,,,,,,,,,,,,,,,,,,,,,,,,,,,,,,,,,,,,,,,,,,,,,,1219.9909329000002,None,1219.9909329000002,None,1219.9909329000002,None,r,1,1.8143886079997174,1221.5243469820016,None,1221.5243469820016,None,1221.5243469820016,None,1223.3910406130017,None,1223.3910406130017,None,1223.3910406130017,None,1223.3910406130017,None,,,,,,,,,,,,,,,,,,,,,,,,,,,,,,,,,,,,,,,,,,,,001,138,2020_Feb_18_1428,spring_faces,3.1.5,60.04149948367395,
condition files/Stage2_1.xlsx,,B2,T2,r,"['s', 'r']","['Stratego', 'Risk']","[-0.15, 0.5]","[0.15, 0.5]",1,1,,,,,,,,,,,,,,,,,0,4,4,4,0,0,0,3,,,,,,,,,,,,,,,,,,,,,,,,,,,,,,,,,,,,,,,,,,,,,,,1225.3745189369984,None,1225.3745189369984,None,1225.3745189369984,None,r,1,1.6938470899985987,1226.9088706529983,None,1226.9088706529983,None,1226.9088706529983,None,1228.6576383489992,None,1228.6576383489992,None,1228.6576383489992,None,1228.6576383489992,None,,,,,,,,,,,,,,,,,,,,,,,,,,,,,,,,,,,,,,,,,,,,001,138,2020_Feb_18_1428,spring_faces,3.1.5,60.04149948367395,
condition files/Stage2_1.xlsx,,T1,B1,s,"['s', 'r']","['Stratego', 'Risk']","[-0.15, 0.5]","[0.15, 0.5]",1,1,,,,,,,,,,,,,,,,,0,4,4,4,0,1,1,2,,,,,,,,,,,,,,,,,,,,,,,,,,,,,,,,,,,,,,,,,,,,,,,1230.6242291570015,None,1230.6242291570015,None,1230.6242291570015,None,s,1,1.7721909169995342,1232.1745205939987,None,1232.1745205939987,None,1232.1745205939987,None,1234.009877509001,None,1234.009877509001,None,1234.009877509001,None,1234.009877509001,None,,,,,,,,,,,,,,,,,,,,,,,,,,,,,,,,,,,,,,,,,,,,001,138,2020_Feb_18_1428,spring_faces,3.1.5,60.04149948367395,
