condsFile,subStage,cue1,cue2,correct,responseKeys,responseNames,cue1Position,cue2Position,cue1Opacity,cue2Opacity,stageLoop0.thisRepN,stageLoop0.thisTrialN,stageLoop0.thisN,stageLoop0.thisIndex,blockLoop0.thisRepN,blockLoop0.thisTrialN,blockLoop0.thisN,blockLoop0.thisIndex,stage1Loop.thisRepN,stage1Loop.thisTrialN,stage1Loop.thisN,stage1Loop.thisIndex,blockLoop1.thisRepN,blockLoop1.thisTrialN,blockLoop1.thisN,blockLoop1.thisIndex,stage2Loop.thisRepN,stage2Loop.thisTrialN,stage2Loop.thisN,stage2Loop.thisIndex,blockLoop2.thisRepN,blockLoop2.thisTrialN,blockLoop2.thisN,blockLoop2.thisIndex,testLoop.thisRepN,testLoop.thisTrialN,testLoop.thisN,testLoop.thisIndex,blockLoopTest.thisRepN,blockLoopTest.thisTrialN,blockLoopTest.thisN,blockLoopTest.thisIndex,cuePics,id_instr_text.started,id_instr_text.stopped,space_to_continue_2.started,space_to_continue_2.stopped,end_instructions_resp_3.keys,end_instructions_resp_3.rt,end_instructions_resp_3.started,end_instructions_resp_3.stopped,id_input_instr.started,id_input_instr.stopped,id_input_rect.started,id_input_rect.stopped,id_input_resp.keys,id_input_resp.rt,id_input_resp.started,id_input_resp.stopped,sonaID,id_input_text.started,id_input_text.stopped,final_text.started,final_text.stopped,instructions.started,instructions.stopped,end_instructions_resp.keys,end_instructions_resp.rt,end_instructions_resp.started,end_instructions_resp.stopped,space_to_continue.started,space_to_continue.stopped,instructions_stage0.started,instructions_stage0.stopped,end_instructions_resp_stage0.keys,end_instructions_resp_stage0.rt,end_instructions_resp_stage0.started,end_instructions_resp_stage0.stopped,space_to_continue_stage0.started,space_to_continue_stage0.stopped,text.started,text.stopped,resp_text1.started,resp_text1.stopped,resp_text2.started,resp_text2.stopped,trial_resp.keys,trial_resp.corr,trial_resp.rt,trial_resp.started,trial_resp.stopped,cue1Image.started,cue1Image.stopped,cue2Image.started,cue2Image.stopped,cue1Image_fb.started,cue1Image_fb.stopped,cue2Image_fb.started,cue2Image_fb.stopped,fb_text_answer.started,fb_text_answer.stopped,feedback_image.started,feedback_image.stopped,instructions_stage1.started,instructions_stage1.stopped,end_instructions_resp_stage1.keys,end_instructions_resp_stage1.rt,end_instructions_resp_stage1.started,end_instructions_resp_stage1.stopped,space_to_continue_stage1.started,space_to_continue_stage1.stopped,instructions_2.started,instructions_2.stopped,end_instructions_resp_2.keys,end_instructions_resp_2.rt,end_instructions_resp_2.started,end_instructions_resp_2.stopped,press_space_to_continue_stage2.started,press_space_to_continue_stage2.stopped,instructions_testStage1.started,instructions_testStage1.stopped,end_instructions_resp_test1.keys,end_instructions_resp_test1.rt,end_instructions_resp_test1.started,end_instructions_resp_test1.stopped,press_space_to_continue_test1.started,press_space_to_continue_test1.stopped,cue1Image_testChoice.started,cue1Image_testChoice.stopped,cue2Image_testChoice.started,cue2Image_testChoice.stopped,test_resp.keys,test_resp.corr,test_resp.rt,test_resp.started,test_resp.stopped,cue1Image_testConf.started,cue1Image_testConf.stopped,cue2Image_testConf.started,cue2Image_testConf.stopped,conf_reminder.started,conf_reminder.stopped,conf_rating.response,conf_rating.rt,conf_rating.started,conf_rating.stopped,session,participant,date,expName,psychopyVersion,frameRate,
,,,,,,,,,,,,,,,,,,,,,,,,,,,,,,,,,,,,,,,,,,,"{'none': 'pictures/20M_AN_C.png', 'alpha': 'pictures/SHINEd_pear.png', 'beta': 'pictures/SHINEd_melon.png', 'theta': 'pictures/SHINEd_apple.png', 'phi': 'pictures/SHINEd_pepper.png', 'T1': 'pictures/32M_AN_C.png', 'T2': 'pictures/23M_AN_C.png', 'T3': 'pictures/38M_AN_C.png', 'T4': 'pictures/37M_AN_C.png', 'T5': 'pictures/31M_AN_C.png', 'T6': 'pictures/34M_AN_C.png', 'B1': 'pictures/22M_NE_C.png', 'B2': 'pictures/26M_NE_C.png', 'B3': 'pictures/36M_NE_C.png', 'B4': 'pictures/25M_NE_C.png', 'B5': 'pictures/20M_NE_C.png', 'B6': 'pictures/33M_NE_C.png'}",111.67996573500204,None,116.66379247499935,None,space,30.22906172399962,116.66379247499935,None,,,,,,,,,,,,,,,,,,,,,,,,,,,,,,,,,,,,,,,,,,,,,,,,,,,,,,,,,,,,,,,,,,,,,,,,,,,,,,,,,,,,,,,,,,,,,,,,001,139,2020_Feb_18_1501,spring_faces,3.1.5,60.1119372032175,
,,,,,,,,,,,,,,,,,,,,,,,,,,,,,,,,,,,,,,,,,,,,,,,,,,,,147.26393591600208,None,147.26393591600208,None,"['0', '2', '2', '1', 's', 'a', 'a', 'b', 'd']","[11.852933014000882, 12.492875166000886, 19.54892001799817, 19.916871553999954, 25.788938116998906, 26.20493796699884, 41.388929902997916, 41.948912331998145, 42.30089183599921]",147.26393591600208,None,,,,,,,,,,,,,,,,,,,,,,,,,,,,,,,,,,,,,,,,,,,,,,,,,,,,,,,,,,,,,,,,,,,,,,,,,,,,,,,,,,,,,,,,001,139,2020_Feb_18_1501,spring_faces,3.1.5,60.1119372032175,
,,,,,,,,,,,,,,,,,,,,,,,,,,,,,,,,,,,,,,,,,,,,,,,,,,,,,,,,,,,,0221saabd,147.26393591600208,None,147.26393591600208,None,194.646733253001,None,space,8.989598683001532,199.64730204599982,None,,,,,,,,,,,,,,,,,,,,,,,,,,,,,,,,,,,,,,,,,,,,,,,,,,,,,,,,,,,,,,,,,,,,,,,,,,,,,001,139,2020_Feb_18_1501,spring_faces,3.1.5,60.1119372032175,
,,,,,,,,,,,,,,,,,,,,,,,,,,,,,,,,,,,,,,,,,,,,,,,,,,,,,,,,,,,,,,,,,,,,,,,199.64730204599982,None,208.6804803640007,None,space,17.484389918998204,213.68042168600005,None,,,,,,,,,,,,,,,,,,,,,,,,,,,,,,,,,,,,,,,,,,,,,,,,,,,,,,,,,,,,,,,,,,,,,001,139,2020_Feb_18_1501,spring_faces,3.1.5,60.1119372032175,
condition files/Stage0a.xlsx,0a,beta,none,g,"['h', 'g']","['Chess', 'Go']","[0, 0.5]","[0, 0]",1,0,0,0,0,0,0,0,0,1,,,,,,,,,,,,,,,,,,,,,,,,,,,,,,,,,,,,,,,,,,,,,,,,,,,,,,,,,,,,,213.68042168600005,None,231.23070369999914,None,231.23070369999914,None,231.23070369999914,None,h,0,3.7706444680006825,232.80228239699863,None,232.80228239699863,None,232.80228239699863,None,236.64681015500173,None,236.64681015500173,None,236.64681015500173,None,236.64681015500173,None,,,,,,,,,,,,,,,,,,,,,,,,,,,,,,,,,,,,,,,,,,,,001,139,2020_Feb_18_1501,spring_faces,3.1.5,60.1119372032175,
condition files/Stage0a.xlsx,0a,alpha,none,h,"['h', 'g']","['Chess', 'Go']","[0, 0.5]","[0, 0]",1,0,0,0,0,0,0,1,1,0,,,,,,,,,,,,,,,,,,,,,,,,,,,,,,,,,,,,,,,,,,,,,,,,,,,,,,,,,,,,,,,238.59709919500165,None,238.59709919500165,None,238.59709919500165,None,h,1,3.849560541999381,240.13123932600138,None,240.13123932600138,None,240.13123932600138,None,244.04682571300145,None,244.04682571300145,None,244.04682571300145,None,244.04682571300145,None,,,,,,,,,,,,,,,,,,,,,,,,,,,,,,,,,,,,,,,,,,,,001,139,2020_Feb_18_1501,spring_faces,3.1.5,60.1119372032175,
condition files/Stage0a.xlsx,0a,alpha,none,h,"['h', 'g']","['Chess', 'Go']","[0, 0.5]","[0, 0]",1,0,0,1,1,1,0,0,0,0,,,,,,,,,,,,,,,,,,,,,,,,,,,,,,,,,,,,,,,,,,,,,,,,,,,,,,,,,,,,,,,246.03054369299934,None,246.03054369299934,None,246.03054369299934,None,h,1,1.9690568139994866,247.56378658900212,None,247.56378658900212,None,247.56378658900212,None,249.59665273300197,None,249.59665273300197,None,249.59665273300197,None,249.59665273300197,None,,,,,,,,,,,,,,,,,,,,,,,,,,,,,,,,,,,,,,,,,,,,001,139,2020_Feb_18_1501,spring_faces,3.1.5,60.1119372032175,
condition files/Stage0a.xlsx,0a,beta,none,g,"['h', 'g']","['Chess', 'Go']","[0, 0.5]","[0, 0]",1,0,0,1,1,1,0,1,1,1,,,,,,,,,,,,,,,,,,,,,,,,,,,,,,,,,,,,,,,,,,,,,,,,,,,,,,,,,,,,,,,251.56368465299965,None,251.56368465299965,None,251.56368465299965,None,g,1,1.012017343997286,253.0968189189989,None,253.0968189189989,None,253.0968189189989,None,254.16427139200096,None,254.16427139200096,None,254.16427139200096,None,254.16427139200096,None,,,,,,,,,,,,,,,,,,,,,,,,,,,,,,,,,,,,,,,,,,,,001,139,2020_Feb_18_1501,spring_faces,3.1.5,60.1119372032175,
condition files/Stage0a.xlsx,0a,alpha,none,h,"['h', 'g']","['Chess', 'Go']","[0, 0.5]","[0, 0]",1,0,0,2,2,2,0,0,0,0,,,,,,,,,,,,,,,,,,,,,,,,,,,,,,,,,,,,,,,,,,,,,,,,,,,,,,,,,,,,,,,256.14722223100034,None,256.14722223100034,None,256.14722223100034,None,h,1,1.0204991650025477,257.68035647299985,None,257.68035647299985,None,257.68035647299985,None,258.7640069730005,None,258.7640069730005,None,258.7640069730005,None,258.7640069730005,None,,,,,,,,,,,,,,,,,,,,,,,,,,,,,,,,,,,,,,,,,,,,001,139,2020_Feb_18_1501,spring_faces,3.1.5,60.1119372032175,
condition files/Stage0a.xlsx,0a,beta,none,g,"['h', 'g']","['Chess', 'Go']","[0, 0.5]","[0, 0]",1,0,0,2,2,2,0,1,1,1,,,,,,,,,,,,,,,,,,,,,,,,,,,,,,,,,,,,,,,,,,,,,,,,,,,,,,,,,,,,,,,260.73038312599965,None,260.73038312599965,None,260.73038312599965,None,g,1,0.5971546900000249,262.26362946600057,None,262.26362946600057,None,262.26362946600057,None,262.91395078999994,None,262.91395078999994,None,262.91395078999994,None,262.91395078999994,None,,,,,,,,,,,,,,,,,,,,,,,,,,,,,,,,,,,,,,,,,,,,001,139,2020_Feb_18_1501,spring_faces,3.1.5,60.1119372032175,
condition files/Stage0a.xlsx,0a,alpha,none,h,"['h', 'g']","['Chess', 'Go']","[0, 0.5]","[0, 0]",1,0,0,3,3,3,0,0,0,0,,,,,,,,,,,,,,,,,,,,,,,,,,,,,,,,,,,,,,,,,,,,,,,,,,,,,,,,,,,,,,,264.8972885740004,None,264.8972885740004,None,264.8972885740004,None,h,1,0.7511339560005581,266.42972848299905,None,266.42972848299905,None,266.42972848299905,None,267.2306806279994,None,267.2306806279994,None,267.2306806279994,None,267.2306806279994,None,,,,,,,,,,,,,,,,,,,,,,,,,,,,,,,,,,,,,,,,,,,,001,139,2020_Feb_18_1501,spring_faces,3.1.5,60.1119372032175,
condition files/Stage0a.xlsx,0a,beta,none,g,"['h', 'g']","['Chess', 'Go']","[0, 0.5]","[0, 0]",1,0,0,3,3,3,0,1,1,1,,,,,,,,,,,,,,,,,,,,,,,,,,,,,,,,,,,,,,,,,,,,,,,,,,,,,,,,,,,,,,,269.19706727599987,None,269.19706727599987,None,269.19706727599987,None,g,1,0.5465071299986448,270.73031313400134,None,270.73031313400134,None,270.73031313400134,None,271.33038213500186,None,271.33038213500186,None,271.33038213500186,None,271.33038213500186,None,,,,,,,,,,,,,,,,,,,,,,,,,,,,,,,,,,,,,,,,,,,,001,139,2020_Feb_18_1501,spring_faces,3.1.5,60.1119372032175,
condition files/Stage0a.xlsx,0a,beta,none,g,"['h', 'g']","['Chess', 'Go']","[0, 0.5]","[0, 0]",1,0,0,4,4,4,0,0,0,1,,,,,,,,,,,,,,,,,,,,,,,,,,,,,,,,,,,,,,,,,,,,,,,,,,,,,,,,,,,,,,,273.31377796800007,None,273.31377796800007,None,273.31377796800007,None,g,1,0.814135336997424,274.8466476319991,None,274.8466476319991,None,274.8466476319991,None,275.71379357600017,None,275.71379357600017,None,275.71379357600017,None,275.71379357600017,None,,,,,,,,,,,,,,,,,,,,,,,,,,,,,,,,,,,,,,,,,,,,001,139,2020_Feb_18_1501,spring_faces,3.1.5,60.1119372032175,
condition files/Stage0a.xlsx,0a,alpha,none,h,"['h', 'g']","['Chess', 'Go']","[0, 0.5]","[0, 0]",1,0,0,4,4,4,0,1,1,0,,,,,,,,,,,,,,,,,,,,,,,,,,,,,,,,,,,,,,,,,,,,,,,,,,,,,,,,,,,,,,,277.6802466359986,None,277.6802466359986,None,277.6802466359986,None,h,1,0.8467889780004043,279.21403154600193,None,279.21403154600193,None,279.21403154600193,None,280.1133576300017,None,280.1133576300017,None,280.1133576300017,None,280.1133576300017,None,,,,,,,,,,,,,,,,,,,,,,,,,,,,,,,,,,,,,,,,,,,,001,139,2020_Feb_18_1501,spring_faces,3.1.5,60.1119372032175,
condition files/Stage0a.xlsx,0a,beta,none,g,"['h', 'g']","['Chess', 'Go']","[0, 0.5]","[0, 0]",1,0,0,5,5,5,0,0,0,1,,,,,,,,,,,,,,,,,,,,,,,,,,,,,,,,,,,,,,,,,,,,,,,,,,,,,,,,,,,,,,,282.09690512499947,None,282.09690512499947,None,282.09690512499947,None,g,1,1.0381225979981537,283.6306479060004,None,283.6306479060004,None,283.6306479060004,None,284.73091392900096,None,284.73091392900096,None,284.73091392900096,None,284.73091392900096,None,,,,,,,,,,,,,,,,,,,,,,,,,,,,,,,,,,,,,,,,,,,,001,139,2020_Feb_18_1501,spring_faces,3.1.5,60.1119372032175,
condition files/Stage0a.xlsx,0a,alpha,none,h,"['h', 'g']","['Chess', 'Go']","[0, 0.5]","[0, 0]",1,0,0,5,5,5,0,1,1,0,,,,,,,,,,,,,,,,,,,,,,,,,,,,,,,,,,,,,,,,,,,,,,,,,,,,,,,,,,,,,,,286.6971595899995,None,286.6971595899995,None,286.6971595899995,None,h,1,1.0948113250015012,288.2300487399989,None,288.2300487399989,None,288.2300487399989,None,289.3799449549988,None,289.3799449549988,None,289.3799449549988,None,289.3799449549988,None,,,,,,,,,,,,,,,,,,,,,,,,,,,,,,,,,,,,,,,,,,,,001,139,2020_Feb_18_1501,spring_faces,3.1.5,60.1119372032175,
condition files/Stage0b_1.xlsx,0b,none,beta,g,"['h', 'g']","['Chess', 'Go']","[-0.15, 0.5]","[0.15, 0.5]",0,1,0,6,6,6,0,0,0,1,,,,,,,,,,,,,,,,,,,,,,,,,,,,,,,,,,,,,,,,,,,,,,,,,,,,,,,,,,,,,,,291.36399693000203,None,291.36399693000203,None,291.36399693000203,None,g,1,0.9066735150008753,292.91423916200074,None,292.91423916200074,None,292.91423916200074,None,293.89741547800077,None,293.89741547800077,None,293.89741547800077,None,293.89741547800077,None,,,,,,,,,,,,,,,,,,,,,,,,,,,,,,,,,,,,,,,,,,,,001,139,2020_Feb_18_1501,spring_faces,3.1.5,60.1119372032175,
condition files/Stage0b_1.xlsx,0b,alpha,none,h,"['h', 'g']","['Chess', 'Go']","[-0.15, 0.5]","[0.15, 0.5]",1,0,0,6,6,6,0,1,1,0,,,,,,,,,,,,,,,,,,,,,,,,,,,,,,,,,,,,,,,,,,,,,,,,,,,,,,,,,,,,,,,295.84677297300004,None,295.84677297300004,None,295.84677297300004,None,h,1,0.8082711539973388,297.39662250400215,None,297.39662250400215,None,297.39662250400215,None,298.26569175700206,None,298.26569175700206,None,298.26569175700206,None,298.26569175700206,None,,,,,,,,,,,,,,,,,,,,,,,,,,,,,,,,,,,,,,,,,,,,001,139,2020_Feb_18_1501,spring_faces,3.1.5,60.1119372032175,
condition files/Stage0b_2.xlsx,0b,none,alpha,h,"['h', 'g']","['Chess', 'Go']","[-0.15, 0.5]","[0.15, 0.5]",0,1,0,7,7,7,0,0,0,0,,,,,,,,,,,,,,,,,,,,,,,,,,,,,,,,,,,,,,,,,,,,,,,,,,,,,,,,,,,,,,,300.2474188660017,None,300.2474188660017,None,300.2474188660017,None,h,1,1.3006716470008541,301.78419717400175,None,301.78419717400175,None,301.78419717400175,None,303.14732294699934,None,303.14732294699934,None,303.14732294699934,None,303.14732294699934,None,,,,,,,,,,,,,,,,,,,,,,,,,,,,,,,,,,,,,,,,,,,,001,139,2020_Feb_18_1501,spring_faces,3.1.5,60.1119372032175,
condition files/Stage0b_2.xlsx,0b,beta,none,g,"['h', 'g']","['Chess', 'Go']","[-0.15, 0.5]","[0.15, 0.5]",1,0,0,7,7,7,0,1,1,1,,,,,,,,,,,,,,,,,,,,,,,,,,,,,,,,,,,,,,,,,,,,,,,,,,,,,,,,,,,,,,,305.113749999,None,305.113749999,None,305.113749999,None,g,1,0.7216154350026045,306.6512806899991,None,306.6512806899991,None,306.6512806899991,None,307.4345059309999,None,307.4345059309999,None,307.4345059309999,None,307.4345059309999,None,,,,,,,,,,,,,,,,,,,,,,,,,,,,,,,,,,,,,,,,,,,,001,139,2020_Feb_18_1501,spring_faces,3.1.5,60.1119372032175,
condition files/Stage0b_1.xlsx,0b,none,beta,g,"['h', 'g']","['Chess', 'Go']","[-0.15, 0.5]","[0.15, 0.5]",0,1,0,8,8,8,0,0,0,1,,,,,,,,,,,,,,,,,,,,,,,,,,,,,,,,,,,,,,,,,,,,,,,,,,,,,,,,,,,,,,,309.4137166729997,None,309.4137166729997,None,309.4137166729997,None,g,1,0.7756503929995233,310.94921994200195,None,310.94921994200195,None,310.94921994200195,None,311.7801213700004,None,311.7801213700004,None,311.7801213700004,None,311.7801213700004,None,,,,,,,,,,,,,,,,,,,,,,,,,,,,,,,,,,,,,,,,,,,,001,139,2020_Feb_18_1501,spring_faces,3.1.5,60.1119372032175,
condition files/Stage0b_1.xlsx,0b,alpha,none,h,"['h', 'g']","['Chess', 'Go']","[-0.15, 0.5]","[0.15, 0.5]",1,0,0,8,8,8,0,1,1,0,,,,,,,,,,,,,,,,,,,,,,,,,,,,,,,,,,,,,,,,,,,,,,,,,,,,,,,,,,,,,,,313.7469593409987,None,313.7469593409987,None,313.7469593409987,None,h,1,0.6805168149985548,315.28431031500077,None,315.28431031500077,None,315.28431031500077,None,316.03270868899926,None,316.03270868899926,None,316.03270868899926,None,316.03270868899926,None,,,,,,,,,,,,,,,,,,,,,,,,,,,,,,,,,,,,,,,,,,,,001,139,2020_Feb_18_1501,spring_faces,3.1.5,60.1119372032175,
condition files/Stage0b_2.xlsx,0b,none,alpha,h,"['h', 'g']","['Chess', 'Go']","[-0.15, 0.5]","[0.15, 0.5]",0,1,0,9,9,9,0,0,0,0,,,,,,,,,,,,,,,,,,,,,,,,,,,,,,,,,,,,,,,,,,,,,,,,,,,,,,,,,,,,,,,318.01392545899944,None,318.01392545899944,None,318.01392545899944,None,h,1,0.8144271609999123,319.55040846599877,None,319.55040846599877,None,319.55040846599877,None,320.4302304090015,None,320.4302304090015,None,320.4302304090015,None,320.4302304090015,None,,,,,,,,,,,,,,,,,,,,,,,,,,,,,,,,,,,,,,,,,,,,001,139,2020_Feb_18_1501,spring_faces,3.1.5,60.1119372032175,
condition files/Stage0b_2.xlsx,0b,beta,none,g,"['h', 'g']","['Chess', 'Go']","[-0.15, 0.5]","[0.15, 0.5]",1,0,0,9,9,9,0,1,1,1,,,,,,,,,,,,,,,,,,,,,,,,,,,,,,,,,,,,,,,,,,,,,,,,,,,,,,,,,,,,,,,322.396834596002,None,322.396834596002,None,322.396834596002,None,g,1,0.5450857790019654,323.9317327680001,None,323.9317327680001,None,323.9317327680001,None,324.5312587430017,None,324.5312587430017,None,324.5312587430017,None,324.5312587430017,None,,,,,,,,,,,,,,,,,,,,,,,,,,,,,,,,,,,,,,,,,,,,001,139,2020_Feb_18_1501,spring_faces,3.1.5,60.1119372032175,
condition files/Stage0b_1.xlsx,0b,none,beta,g,"['h', 'g']","['Chess', 'Go']","[-0.15, 0.5]","[0.15, 0.5]",0,1,0,10,10,10,0,0,0,1,,,,,,,,,,,,,,,,,,,,,,,,,,,,,,,,,,,,,,,,,,,,,,,,,,,,,,,,,,,,,,,326.51391498700104,None,326.51391498700104,None,326.51391498700104,None,g,1,0.6511212379991775,328.0497528670021,None,328.0497528670021,None,328.0497528670021,None,328.76384430100006,None,328.76384430100006,None,328.76384430100006,None,328.76384430100006,None,,,,,,,,,,,,,,,,,,,,,,,,,,,,,,,,,,,,,,,,,,,,001,139,2020_Feb_18_1501,spring_faces,3.1.5,60.1119372032175,
condition files/Stage0b_1.xlsx,0b,alpha,none,h,"['h', 'g']","['Chess', 'Go']","[-0.15, 0.5]","[0.15, 0.5]",1,0,0,10,10,10,0,1,1,0,,,,,,,,,,,,,,,,,,,,,,,,,,,,,,,,,,,,,,,,,,,,,,,,,,,,,,,,,,,,,,,330.7302578560011,None,330.7302578560011,None,330.7302578560011,None,h,1,0.6584287240002595,332.2663949890011,None,332.2663949890011,None,332.2663949890011,None,332.9849690439987,None,332.9849690439987,None,332.9849690439987,None,332.9849690439987,None,,,,,,,,,,,,,,,,,,,,,,,,,,,,,,,,,,,,,,,,,,,,001,139,2020_Feb_18_1501,spring_faces,3.1.5,60.1119372032175,
condition files/Stage0b_2.xlsx,0b,beta,none,g,"['h', 'g']","['Chess', 'Go']","[-0.15, 0.5]","[0.15, 0.5]",1,0,0,11,11,11,0,0,0,1,,,,,,,,,,,,,,,,,,,,,,,,,,,,,,,,,,,,,,,,,,,,,,,,,,,,,,,,,,,,,,,334.9639970019998,None,334.9639970019998,None,334.9639970019998,None,g,1,0.6833915260031063,336.4974349360018,None,336.4974349360018,None,336.4974349360018,None,337.2309903460009,None,337.2309903460009,None,337.2309903460009,None,337.2309903460009,None,,,,,,,,,,,,,,,,,,,,,,,,,,,,,,,,,,,,,,,,,,,,001,139,2020_Feb_18_1501,spring_faces,3.1.5,60.1119372032175,
condition files/Stage0b_2.xlsx,0b,none,alpha,h,"['h', 'g']","['Chess', 'Go']","[-0.15, 0.5]","[0.15, 0.5]",0,1,0,11,11,11,0,1,1,0,,,,,,,,,,,,,,,,,,,,,,,,,,,,,,,,,,,,,,,,,,,,,,,,,,,,,,,,,,,,,,,339.19717784800014,None,339.19717784800014,None,339.19717784800014,None,h,1,0.7330967710004188,340.7357665290001,None,340.7357665290001,None,340.7357665290001,None,341.5323203270018,None,341.5323203270018,None,341.5323203270018,None,341.5323203270018,None,,,,,,,,,,,,,,,,,,,,,,,,,,,,,,,,,,,,,,,,,,,,001,139,2020_Feb_18_1501,spring_faces,3.1.5,60.1119372032175,
condition files/Stage0c_1.xlsx,0c,beta,theta,g,"['h', 'g']","['Chess', 'Go']","[-0.15, 0.5]","[0.15, 0.5]",1,1,0,12,12,12,0,0,0,2,,,,,,,,,,,,,,,,,,,,,,,,,,,,,,,,,,,,,,,,,,,,,,,,,,,,,,,,,,,,,,,343.5132658049988,None,343.5132658049988,None,343.5132658049988,None,g,1,2.1649362440002733,345.047915809002,None,345.047915809002,None,345.047915809002,None,347.26388749800026,None,347.26388749800026,None,347.26388749800026,None,347.26388749800026,None,,,,,,,,,,,,,,,,,,,,,,,,,,,,,,,,,,,,,,,,,,,,001,139,2020_Feb_18_1501,spring_faces,3.1.5,60.1119372032175,
condition files/Stage0c_1.xlsx,0c,phi,beta,g,"['h', 'g']","['Chess', 'Go']","[-0.15, 0.5]","[0.15, 0.5]",1,1,0,12,12,12,0,1,1,3,,,,,,,,,,,,,,,,,,,,,,,,,,,,,,,,,,,,,,,,,,,,,,,,,,,,,,,,,,,,,,,349.23039333699853,None,349.23039333699853,None,349.23039333699853,None,g,1,1.4089664420025656,350.76393921699855,None,350.76393921699855,None,350.76393921699855,None,352.2301290380019,None,352.2301290380019,None,352.2301290380019,None,352.2301290380019,None,,,,,,,,,,,,,,,,,,,,,,,,,,,,,,,,,,,,,,,,,,,,001,139,2020_Feb_18_1501,spring_faces,3.1.5,60.1119372032175,
condition files/Stage0c_1.xlsx,0c,theta,alpha,h,"['h', 'g']","['Chess', 'Go']","[-0.15, 0.5]","[0.15, 0.5]",1,1,0,12,12,12,0,2,2,0,,,,,,,,,,,,,,,,,,,,,,,,,,,,,,,,,,,,,,,,,,,,,,,,,,,,,,,,,,,,,,,354.1971400229995,None,354.1971400229995,None,354.1971400229995,None,h,1,1.3227792079997016,355.73005443700094,None,355.73005443700094,None,355.73005443700094,None,357.11390550000215,None,357.11390550000215,None,357.11390550000215,None,357.11390550000215,None,,,,,,,,,,,,,,,,,,,,,,,,,,,,,,,,,,,,,,,,,,,,001,139,2020_Feb_18_1501,spring_faces,3.1.5,60.1119372032175,
condition files/Stage0c_1.xlsx,0c,alpha,phi,h,"['h', 'g']","['Chess', 'Go']","[-0.15, 0.5]","[0.15, 0.5]",1,1,0,12,12,12,0,3,3,1,,,,,,,,,,,,,,,,,,,,,,,,,,,,,,,,,,,,,,,,,,,,,,,,,,,,,,,,,,,,,,,359.08015957799944,None,359.08015957799944,None,359.08015957799944,None,h,1,0.7750143369994476,360.61389088800206,None,360.61389088800206,None,360.61389088800206,None,361.43153454799904,None,361.43153454799904,None,361.43153454799904,None,361.43153454799904,None,,,,,,,,,,,,,,,,,,,,,,,,,,,,,,,,,,,,,,,,,,,,001,139,2020_Feb_18_1501,spring_faces,3.1.5,60.1119372032175,
condition files/Stage0c_2.xlsx,0c,phi,alpha,h,"['h', 'g']","['Chess', 'Go']","[-0.15, 0.5]","[0.15, 0.5]",1,1,0,13,13,13,0,0,0,1,,,,,,,,,,,,,,,,,,,,,,,,,,,,,,,,,,,,,,,,,,,,,,,,,,,,,,,,,,,,,,,363.43025166699954,None,363.43025166699954,None,363.43025166699954,None,h,1,0.9209365759998036,364.96391452199896,None,364.96391452199896,None,364.96391452199896,None,365.93188878100045,None,365.93188878100045,None,365.93188878100045,None,365.93188878100045,None,,,,,,,,,,,,,,,,,,,,,,,,,,,,,,,,,,,,,,,,,,,,001,139,2020_Feb_18_1501,spring_faces,3.1.5,60.1119372032175,
condition files/Stage0c_2.xlsx,0c,beta,phi,g,"['h', 'g']","['Chess', 'Go']","[-0.15, 0.5]","[0.15, 0.5]",1,1,0,13,13,13,0,1,1,3,,,,,,,,,,,,,,,,,,,,,,,,,,,,,,,,,,,,,,,,,,,,,,,,,,,,,,,,,,,,,,,367.9137463270017,None,367.9137463270017,None,367.9137463270017,None,g,1,0.7255886340026336,369.44731861000037,None,369.44731861000037,None,369.44731861000037,None,370.2307069660019,None,370.2307069660019,None,370.2307069660019,None,370.2307069660019,None,,,,,,,,,,,,,,,,,,,,,,,,,,,,,,,,,,,,,,,,,,,,001,139,2020_Feb_18_1501,spring_faces,3.1.5,60.1119372032175,
condition files/Stage0c_2.xlsx,0c,theta,beta,g,"['h', 'g']","['Chess', 'Go']","[-0.15, 0.5]","[0.15, 0.5]",1,1,0,13,13,13,0,2,2,2,,,,,,,,,,,,,,,,,,,,,,,,,,,,,,,,,,,,,,,,,,,,,,,,,,,,,,,,,,,,,,,372.19709287099977,None,372.19709287099977,None,372.19709287099977,None,g,1,1.1786338960009743,373.7301857599996,None,373.7301857599996,None,373.7301857599996,None,374.94821684600174,None,374.94821684600174,None,374.94821684600174,None,374.94821684600174,None,,,,,,,,,,,,,,,,,,,,,,,,,,,,,,,,,,,,,,,,,,,,001,139,2020_Feb_18_1501,spring_faces,3.1.5,60.1119372032175,
condition files/Stage0c_2.xlsx,0c,alpha,theta,h,"['h', 'g']","['Chess', 'Go']","[-0.15, 0.5]","[0.15, 0.5]",1,1,0,13,13,13,0,3,3,0,,,,,,,,,,,,,,,,,,,,,,,,,,,,,,,,,,,,,,,,,,,,,,,,,,,,,,,,,,,,,,,376.9297957759991,None,376.9297957759991,None,376.9297957759991,None,h,1,0.5411866639988148,378.46371749600075,None,378.46371749600075,None,378.46371749600075,None,379.0641028630016,None,379.0641028630016,None,379.0641028630016,None,379.0641028630016,None,,,,,,,,,,,,,,,,,,,,,,,,,,,,,,,,,,,,,,,,,,,,001,139,2020_Feb_18_1501,spring_faces,3.1.5,60.1119372032175,
condition files/Stage0c_1.xlsx,0c,beta,theta,g,"['h', 'g']","['Chess', 'Go']","[-0.15, 0.5]","[0.15, 0.5]",1,1,0,14,14,14,0,0,0,2,,,,,,,,,,,,,,,,,,,,,,,,,,,,,,,,,,,,,,,,,,,,,,,,,,,,,,,,,,,,,,,381.047177769,None,381.047177769,None,381.047177769,None,g,1,0.8083030150010018,382.5806166129987,None,382.5806166129987,None,382.5806166129987,None,383.44736466000177,None,383.44736466000177,None,383.44736466000177,None,383.44736466000177,None,,,,,,,,,,,,,,,,,,,,,,,,,,,,,,,,,,,,,,,,,,,,001,139,2020_Feb_18_1501,spring_faces,3.1.5,60.1119372032175,
condition files/Stage0c_1.xlsx,0c,alpha,phi,h,"['h', 'g']","['Chess', 'Go']","[-0.15, 0.5]","[0.15, 0.5]",1,1,0,14,14,14,0,1,1,1,,,,,,,,,,,,,,,,,,,,,,,,,,,,,,,,,,,,,,,,,,,,,,,,,,,,,,,,,,,,,,,385.413712556001,None,385.413712556001,None,385.413712556001,None,h,1,0.7780623539983935,386.94677106900053,None,386.94677106900053,None,386.94677106900053,None,387.7805153650006,None,387.7805153650006,None,387.7805153650006,None,387.7805153650006,None,,,,,,,,,,,,,,,,,,,,,,,,,,,,,,,,,,,,,,,,,,,,001,139,2020_Feb_18_1501,spring_faces,3.1.5,60.1119372032175,
condition files/Stage0c_1.xlsx,0c,theta,alpha,h,"['h', 'g']","['Chess', 'Go']","[-0.15, 0.5]","[0.15, 0.5]",1,1,0,14,14,14,0,2,2,0,,,,,,,,,,,,,,,,,,,,,,,,,,,,,,,,,,,,,,,,,,,,,,,,,,,,,,,,,,,,,,,389.7470486810016,None,389.7470486810016,None,389.7470486810016,None,h,1,0.9728112689990667,391.2800286560014,None,391.2800286560014,None,391.2800286560014,None,392.29861160400105,None,392.29861160400105,None,392.29861160400105,None,392.29861160400105,None,,,,,,,,,,,,,,,,,,,,,,,,,,,,,,,,,,,,,,,,,,,,001,139,2020_Feb_18_1501,spring_faces,3.1.5,60.1119372032175,
condition files/Stage0c_1.xlsx,0c,phi,beta,g,"['h', 'g']","['Chess', 'Go']","[-0.15, 0.5]","[0.15, 0.5]",1,1,0,14,14,14,0,3,3,3,,,,,,,,,,,,,,,,,,,,,,,,,,,,,,,,,,,,,,,,,,,,,,,,,,,,,,,,,,,,,,,394.2819513200011,None,394.2819513200011,None,394.2819513200011,None,g,1,0.6946779429999879,395.81414543199935,None,395.81414543199935,None,395.81414543199935,None,396.5641464420005,None,396.5641464420005,None,396.5641464420005,None,396.5641464420005,None,,,,,,,,,,,,,,,,,,,,,,,,,,,,,,,,,,,,,,,,,,,,001,139,2020_Feb_18_1501,spring_faces,3.1.5,60.1119372032175,
condition files/Stage0c_2.xlsx,0c,beta,phi,g,"['h', 'g']","['Chess', 'Go']","[-0.15, 0.5]","[0.15, 0.5]",1,1,0,15,15,15,0,0,0,3,,,,,,,,,,,,,,,,,,,,,,,,,,,,,,,,,,,,,,,,,,,,,,,,,,,,,,,,,,,,,,,398.5468014729995,None,398.5468014729995,None,398.5468014729995,None,g,1,0.6840803429986408,400.0807269069992,None,400.0807269069992,None,400.0807269069992,None,400.81595142900187,None,400.81595142900187,None,400.81595142900187,None,400.81595142900187,None,,,,,,,,,,,,,,,,,,,,,,,,,,,,,,,,,,,,,,,,,,,,001,139,2020_Feb_18_1501,spring_faces,3.1.5,60.1119372032175,
condition files/Stage0c_2.xlsx,0c,theta,beta,g,"['h', 'g']","['Chess', 'Go']","[-0.15, 0.5]","[0.15, 0.5]",1,1,0,15,15,15,0,1,1,2,,,,,,,,,,,,,,,,,,,,,,,,,,,,,,,,,,,,,,,,,,,,,,,,,,,,,,,,,,,,,,,402.79695047399946,None,402.79695047399946,None,402.79695047399946,None,g,1,0.706716578999476,404.3301254709986,None,404.3301254709986,None,404.3301254709986,None,405.09728809300213,None,405.09728809300213,None,405.09728809300213,None,405.09728809300213,None,,,,,,,,,,,,,,,,,,,,,,,,,,,,,,,,,,,,,,,,,,,,001,139,2020_Feb_18_1501,spring_faces,3.1.5,60.1119372032175,
condition files/Stage0c_2.xlsx,0c,phi,alpha,h,"['h', 'g']","['Chess', 'Go']","[-0.15, 0.5]","[0.15, 0.5]",1,1,0,15,15,15,0,2,2,1,,,,,,,,,,,,,,,,,,,,,,,,,,,,,,,,,,,,,,,,,,,,,,,,,,,,,,,,,,,,,,,407.0638499250017,None,407.0638499250017,None,407.0638499250017,None,h,1,0.743759510001837,408.59716476500034,None,408.59716476500034,None,408.59716476500034,None,409.39713933299936,None,409.39713933299936,None,409.39713933299936,None,409.39713933299936,None,,,,,,,,,,,,,,,,,,,,,,,,,,,,,,,,,,,,,,,,,,,,001,139,2020_Feb_18_1501,spring_faces,3.1.5,60.1119372032175,
condition files/Stage0c_2.xlsx,0c,alpha,theta,h,"['h', 'g']","['Chess', 'Go']","[-0.15, 0.5]","[0.15, 0.5]",1,1,0,15,15,15,0,3,3,0,,,,,,,,,,,,,,,,,,,,,,,,,,,,,,,,,,,,,,,,,,,,,,,,,,,,,,,,,,,,,,,411.363703772,None,411.363703772,None,411.363703772,None,h,1,0.9076745080019464,412.89722377200087,None,412.89722377200087,None,412.89722377200087,None,413.8490985499993,None,413.8490985499993,None,413.8490985499993,None,413.8490985499993,None,,,,,,,,,,,,,,,,,,,,,,,,,,,,,,,,,,,,,,,,,,,,001,139,2020_Feb_18_1501,spring_faces,3.1.5,60.1119372032175,
condition files/Stage0c_1.xlsx,0c,phi,beta,g,"['h', 'g']","['Chess', 'Go']","[-0.15, 0.5]","[0.15, 0.5]",1,1,0,16,16,16,0,0,0,3,,,,,,,,,,,,,,,,,,,,,,,,,,,,,,,,,,,,,,,,,,,,,,,,,,,,,,,,,,,,,,,415.8473120540002,None,415.8473120540002,None,415.8473120540002,None,g,1,0.8403225820002262,417.3805948820009,None,417.3805948820009,None,417.3805948820009,None,418.28082386000096,None,418.28082386000096,None,418.28082386000096,None,418.28082386000096,None,,,,,,,,,,,,,,,,,,,,,,,,,,,,,,,,,,,,,,,,,,,,001,139,2020_Feb_18_1501,spring_faces,3.1.5,60.1119372032175,
condition files/Stage0c_1.xlsx,0c,alpha,phi,h,"['h', 'g']","['Chess', 'Go']","[-0.15, 0.5]","[0.15, 0.5]",1,1,0,16,16,16,0,1,1,1,,,,,,,,,,,,,,,,,,,,,,,,,,,,,,,,,,,,,,,,,,,,,,,,,,,,,,,,,,,,,,,420.2470244130018,None,420.2470244130018,None,420.2470244130018,None,h,1,0.6967453050019685,421.7800614129992,None,421.7800614129992,None,421.7800614129992,None,422.5306318969997,None,422.5306318969997,None,422.5306318969997,None,422.5306318969997,None,,,,,,,,,,,,,,,,,,,,,,,,,,,,,,,,,,,,,,,,,,,,001,139,2020_Feb_18_1501,spring_faces,3.1.5,60.1119372032175,
condition files/Stage0c_1.xlsx,0c,theta,alpha,h,"['h', 'g']","['Chess', 'Go']","[-0.15, 0.5]","[0.15, 0.5]",1,1,0,16,16,16,0,2,2,0,,,,,,,,,,,,,,,,,,,,,,,,,,,,,,,,,,,,,,,,,,,,,,,,,,,,,,,,,,,,,,,424.4967513400006,None,424.4967513400006,None,424.4967513400006,None,h,1,0.6705605429997377,426.0302829680004,None,426.0302829680004,None,426.0302829680004,None,426.7467082030016,None,426.7467082030016,None,426.7467082030016,None,426.7467082030016,None,,,,,,,,,,,,,,,,,,,,,,,,,,,,,,,,,,,,,,,,,,,,001,139,2020_Feb_18_1501,spring_faces,3.1.5,60.1119372032175,
condition files/Stage0c_1.xlsx,0c,beta,theta,g,"['h', 'g']","['Chess', 'Go']","[-0.15, 0.5]","[0.15, 0.5]",1,1,0,16,16,16,0,3,3,2,,,,,,,,,,,,,,,,,,,,,,,,,,,,,,,,,,,,,,,,,,,,,,,,,,,,,,,,,,,,,,,428.7303846270006,None,428.7303846270006,None,428.7303846270006,None,g,1,0.6610455390000425,430.26380128600067,None,430.26380128600067,None,430.26380128600067,None,430.9804264250015,None,430.9804264250015,None,430.9804264250015,None,430.9804264250015,None,,,,,,,,,,,,,,,,,,,,,,,,,,,,,,,,,,,,,,,,,,,,001,139,2020_Feb_18_1501,spring_faces,3.1.5,60.1119372032175,
condition files/Stage0c_2.xlsx,0c,alpha,theta,h,"['h', 'g']","['Chess', 'Go']","[-0.15, 0.5]","[0.15, 0.5]",1,1,0,17,17,17,0,0,0,0,,,,,,,,,,,,,,,,,,,,,,,,,,,,,,,,,,,,,,,,,,,,,,,,,,,,,,,,,,,,,,,432.96418179399916,None,432.96418179399916,None,432.96418179399916,None,h,1,0.5877726670005359,434.497067995002,None,434.497067995002,None,434.497067995002,None,435.1473669930019,None,435.1473669930019,None,435.1473669930019,None,435.1473669930019,None,,,,,,,,,,,,,,,,,,,,,,,,,,,,,,,,,,,,,,,,,,,,001,139,2020_Feb_18_1501,spring_faces,3.1.5,60.1119372032175,
condition files/Stage0c_2.xlsx,0c,beta,phi,g,"['h', 'g']","['Chess', 'Go']","[-0.15, 0.5]","[0.15, 0.5]",1,1,0,17,17,17,0,1,1,3,,,,,,,,,,,,,,,,,,,,,,,,,,,,,,,,,,,,,,,,,,,,,,,,,,,,,,,,,,,,,,,437.1136940590004,None,437.1136940590004,None,437.1136940590004,None,g,1,0.5817851450010494,438.6470766179991,None,438.6470766179991,None,438.6470766179991,None,439.2808756550003,None,439.2808756550003,None,439.2808756550003,None,439.2808756550003,None,,,,,,,,,,,,,,,,,,,,,,,,,,,,,,,,,,,,,,,,,,,,001,139,2020_Feb_18_1501,spring_faces,3.1.5,60.1119372032175,
condition files/Stage0c_2.xlsx,0c,theta,beta,g,"['h', 'g']","['Chess', 'Go']","[-0.15, 0.5]","[0.15, 0.5]",1,1,0,17,17,17,0,2,2,2,,,,,,,,,,,,,,,,,,,,,,,,,,,,,,,,,,,,,,,,,,,,,,,,,,,,,,,,,,,,,,,441.24705771799927,None,441.24705771799927,None,441.24705771799927,None,g,1,0.7363290530011,442.7805106449996,None,442.7805106449996,None,442.7805106449996,None,443.5651350619992,None,443.5651350619992,None,443.5651350619992,None,443.5651350619992,None,,,,,,,,,,,,,,,,,,,,,,,,,,,,,,,,,,,,,,,,,,,,001,139,2020_Feb_18_1501,spring_faces,3.1.5,60.1119372032175,
condition files/Stage0c_2.xlsx,0c,phi,alpha,h,"['h', 'g']","['Chess', 'Go']","[-0.15, 0.5]","[0.15, 0.5]",1,1,0,17,17,17,0,3,3,1,,,,,,,,,,,,,,,,,,,,,,,,,,,,,,,,,,,,,,,,,,,,,,,,,,,,,,,,,,,,,,,445.5474088209994,None,445.5474088209994,None,445.5474088209994,None,h,1,0.7084731019967876,447.0804324460005,None,447.0804324460005,None,447.0804324460005,None,447.8472924439993,None,447.8472924439993,None,447.8472924439993,None,447.8472924439993,None,,,,,,,,,,,,,,,,,,,,,,,,,,,,,,,,,,,,,,,,,,,,001,139,2020_Feb_18_1501,spring_faces,3.1.5,60.1119372032175,
,,,,,,,,,,,,,,,,,,,,,,,,,,,,,,,,,,,,,,,,,,,,,,,,,,,,,,,,,,,,,,,,,,,,,,,,,,,,,,,,,,,,,,,,,,,,,,,,,,,,,,,,449.8303288140014,None,space,5.646480463001353,454.83038853700054,None,,,,,,,,,,,,,,,,,,,,,,,,,,,,,,,,,,,,,,001,139,2020_Feb_18_1501,spring_faces,3.1.5,60.1119372032175,
condition files/Stage1_1.xlsx,,B1,T2,c,"['c', 'm']","['Clue', 'Monopoly']","[-0.15, 0.5]","[0.15, 0.5]",1,1,,,,,,,,,0,0,0,0,0,0,0,1,,,,,,,,,,,,,,,,,,,,,,,,,,,,,,,,,,,,,,,,,,,,,,,,,,,,,,,460.53093572099897,None,460.53093572099897,None,460.53093572099897,None,m,0,2.9728676439990522,462.0640594690012,None,462.0640594690012,None,462.0640594690012,None,465.11363372399865,None,465.11363372399865,None,465.11363372399865,None,465.11363372399865,None,,,,,,,454.83038853700054,None,,,,,,,,,,,,,,,,,,,,,,,,,,,,,,,,,,,,001,139,2020_Feb_18_1501,spring_faces,3.1.5,60.1119372032175,
condition files/Stage1_1.xlsx,,T4,B3,m,"['c', 'm']","['Clue', 'Monopoly']","[-0.15, 0.5]","[0.15, 0.5]",1,1,,,,,,,,,0,0,0,0,0,1,1,6,,,,,,,,,,,,,,,,,,,,,,,,,,,,,,,,,,,,,,,,,,,,,,,,,,,,,,,467.0635117749989,None,467.0635117749989,None,467.0635117749989,None,m,1,1.894815813000605,468.5979890720009,None,468.5979890720009,None,468.5979890720009,None,470.5639360310015,None,470.5639360310015,None,470.5639360310015,None,470.5639360310015,None,,,,,,,,,,,,,,,,,,,,,,,,,,,,,,,,,,,,,,,,,,,,001,139,2020_Feb_18_1501,spring_faces,3.1.5,60.1119372032175,
condition files/Stage1_1.xlsx,,B2,T1,m,"['c', 'm']","['Clue', 'Monopoly']","[-0.15, 0.5]","[0.15, 0.5]",1,1,,,,,,,,,0,0,0,0,0,2,2,2,,,,,,,,,,,,,,,,,,,,,,,,,,,,,,,,,,,,,,,,,,,,,,,,,,,,,,,472.5137306760007,None,472.5137306760007,None,472.5137306760007,None,m,1,4.412877055001445,474.0639612140003,None,474.0639612140003,None,474.0639612140003,None,478.53051487500124,None,478.53051487500124,None,478.53051487500124,None,478.53051487500124,None,,,,,,,,,,,,,,,,,,,,,,,,,,,,,,,,,,,,,,,,,,,,001,139,2020_Feb_18_1501,spring_faces,3.1.5,60.1119372032175,
condition files/Stage1_1.xlsx,,B3,T3,c,"['c', 'm']","['Clue', 'Monopoly']","[-0.15, 0.5]","[0.15, 0.5]",1,1,,,,,,,,,0,0,0,0,0,3,3,4,,,,,,,,,,,,,,,,,,,,,,,,,,,,,,,,,,,,,,,,,,,,,,,,,,,,,,,480.4966013630001,None,480.4966013630001,None,480.4966013630001,None,c,1,1.6141803319987957,482.0306781500003,None,482.0306781500003,None,482.0306781500003,None,483.7139467720008,None,483.7139467720008,None,483.7139467720008,None,483.7139467720008,None,,,,,,,,,,,,,,,,,,,,,,,,,,,,,,,,,,,,,,,,,,,,001,139,2020_Feb_18_1501,spring_faces,3.1.5,60.1119372032175,
condition files/Stage1_1.xlsx,,T1,B1,c,"['c', 'm']","['Clue', 'Monopoly']","[-0.15, 0.5]","[0.15, 0.5]",1,1,,,,,,,,,0,0,0,0,0,4,4,0,,,,,,,,,,,,,,,,,,,,,,,,,,,,,,,,,,,,,,,,,,,,,,,,,,,,,,,485.66392474999884,None,485.66392474999884,None,485.66392474999884,None,m,0,1.9992742880021979,487.1975763650007,None,487.1975763650007,None,487.1975763650007,None,489.24696906700046,None,489.24696906700046,None,489.24696906700046,None,489.24696906700046,None,,,,,,,,,,,,,,,,,,,,,,,,,,,,,,,,,,,,,,,,,,,,001,139,2020_Feb_18_1501,spring_faces,3.1.5,60.1119372032175,
condition files/Stage1_1.xlsx,,T3,B4,c,"['c', 'm']","['Clue', 'Monopoly']","[-0.15, 0.5]","[0.15, 0.5]",1,1,,,,,,,,,0,0,0,0,0,5,5,5,,,,,,,,,,,,,,,,,,,,,,,,,,,,,,,,,,,,,,,,,,,,,,,,,,,,,,,491.21377146099985,None,491.21377146099985,None,491.21377146099985,None,m,0,2.0326767199985625,492.76416094900196,None,492.76416094900196,None,492.76416094900196,None,494.84711092499856,None,494.84711092499856,None,494.84711092499856,None,494.84711092499856,None,,,,,,,,,,,,,,,,,,,,,,,,,,,,,,,,,,,,,,,,,,,,001,139,2020_Feb_18_1501,spring_faces,3.1.5,60.1119372032175,
condition files/Stage1_1.xlsx,,T2,B2,m,"['c', 'm']","['Clue', 'Monopoly']","[-0.15, 0.5]","[0.15, 0.5]",1,1,,,,,,,,,0,0,0,0,0,6,6,3,,,,,,,,,,,,,,,,,,,,,,,,,,,,,,,,,,,,,,,,,,,,,,,,,,,,,,,496.81382988399855,None,496.81382988399855,None,496.81382988399855,None,c,0,4.049542336000741,498.3473204430011,None,498.3473204430011,None,498.3473204430011,None,502.46390720899944,None,502.46390720899944,None,502.46390720899944,None,502.46390720899944,None,,,,,,,,,,,,,,,,,,,,,,,,,,,,,,,,,,,,,,,,,,,,001,139,2020_Feb_18_1501,spring_faces,3.1.5,60.1119372032175,
condition files/Stage1_1.xlsx,,B4,T4,m,"['c', 'm']","['Clue', 'Monopoly']","[-0.15, 0.5]","[0.15, 0.5]",1,1,,,,,,,,,0,0,0,0,0,7,7,7,,,,,,,,,,,,,,,,,,,,,,,,,,,,,,,,,,,,,,,,,,,,,,,,,,,,,,,504.4137688869996,None,504.4137688869996,None,504.4137688869996,None,m,1,4.7215009779974935,505.94734866,None,505.94734866,None,505.94734866,None,510.73101955600214,None,510.73101955600214,None,510.73101955600214,None,510.73101955600214,None,,,,,,,,,,,,,,,,,,,,,,,,,,,,,,,,,,,,,,,,,,,,001,139,2020_Feb_18_1501,spring_faces,3.1.5,60.1119372032175,
condition files/Stage1_2.xlsx,,B4,T3,c,"['c', 'm']","['Clue', 'Monopoly']","[-0.15, 0.5]","[0.15, 0.5]",1,1,,,,,,,,,0,1,1,1,0,0,0,5,,,,,,,,,,,,,,,,,,,,,,,,,,,,,,,,,,,,,,,,,,,,,,,,,,,,,,,512.713681215002,None,512.713681215002,None,512.713681215002,None,m,0,3.461224136997771,514.2475721250012,None,514.2475721250012,None,514.2475721250012,None,517.7634292660005,None,517.7634292660005,None,517.7634292660005,None,517.7634292660005,None,,,,,,,,,,,,,,,,,,,,,,,,,,,,,,,,,,,,,,,,,,,,001,139,2020_Feb_18_1501,spring_faces,3.1.5,60.1119372032175,
condition files/Stage1_2.xlsx,,B2,T2,m,"['c', 'm']","['Clue', 'Monopoly']","[-0.15, 0.5]","[0.15, 0.5]",1,1,,,,,,,,,0,1,1,1,0,1,1,3,,,,,,,,,,,,,,,,,,,,,,,,,,,,,,,,,,,,,,,,,,,,,,,,,,,,,,,519.7305256510008,None,519.7305256510008,None,519.7305256510008,None,m,1,2.1873938759999874,521.2655213420003,None,521.2655213420003,None,521.2655213420003,None,523.5129617240018,None,523.5129617240018,None,523.5129617240018,None,523.5129617240018,None,,,,,,,,,,,,,,,,,,,,,,,,,,,,,,,,,,,,,,,,,,,,001,139,2020_Feb_18_1501,spring_faces,3.1.5,60.1119372032175,
condition files/Stage1_2.xlsx,,T1,B2,m,"['c', 'm']","['Clue', 'Monopoly']","[-0.15, 0.5]","[0.15, 0.5]",1,1,,,,,,,,,0,1,1,1,0,2,2,2,,,,,,,,,,,,,,,,,,,,,,,,,,,,,,,,,,,,,,,,,,,,,,,,,,,,,,,525.4804881689997,None,525.4804881689997,None,525.4804881689997,None,m,1,0.8849132350005675,527.0159438170012,None,527.0159438170012,None,527.0159438170012,None,527.9638327360008,None,527.9638327360008,None,527.9638327360008,None,527.9638327360008,None,,,,,,,,,,,,,,,,,,,,,,,,,,,,,,,,,,,,,,,,,,,,001,139,2020_Feb_18_1501,spring_faces,3.1.5,60.1119372032175,
condition files/Stage1_2.xlsx,,T2,B1,c,"['c', 'm']","['Clue', 'Monopoly']","[-0.15, 0.5]","[0.15, 0.5]",1,1,,,,,,,,,0,1,1,1,0,3,3,1,,,,,,,,,,,,,,,,,,,,,,,,,,,,,,,,,,,,,,,,,,,,,,,,,,,,,,,529.9300716879989,None,529.9300716879989,None,529.9300716879989,None,c,1,1.5557607030023064,531.4651605530016,None,531.4651605530016,None,531.4651605530016,None,533.0821291069988,None,533.0821291069988,None,533.0821291069988,None,533.0821291069988,None,,,,,,,,,,,,,,,,,,,,,,,,,,,,,,,,,,,,,,,,,,,,001,139,2020_Feb_18_1501,spring_faces,3.1.5,60.1119372032175,
condition files/Stage1_2.xlsx,,B3,T4,m,"['c', 'm']","['Clue', 'Monopoly']","[-0.15, 0.5]","[0.15, 0.5]",1,1,,,,,,,,,0,1,1,1,0,4,4,6,,,,,,,,,,,,,,,,,,,,,,,,,,,,,,,,,,,,,,,,,,,,,,,,,,,,,,,535.0470172210007,None,535.0470172210007,None,535.0470172210007,None,c,0,1.1595667889996548,536.5972516290021,None,536.5972516290021,None,536.5972516290021,None,537.8304214529999,None,537.8304214529999,None,537.8304214529999,None,537.8304214529999,None,,,,,,,,,,,,,,,,,,,,,,,,,,,,,,,,,,,,,,,,,,,,001,139,2020_Feb_18_1501,spring_faces,3.1.5,60.1119372032175,
condition files/Stage1_2.xlsx,,B1,T1,c,"['c', 'm']","['Clue', 'Monopoly']","[-0.15, 0.5]","[0.15, 0.5]",1,1,,,,,,,,,0,1,1,1,0,5,5,0,,,,,,,,,,,,,,,,,,,,,,,,,,,,,,,,,,,,,,,,,,,,,,,,,,,,,,,539.7804207100016,None,539.7804207100016,None,539.7804207100016,None,m,0,4.9553817240011995,541.3134902839993,None,541.3134902839993,None,541.3134902839993,None,546.3296944110007,None,546.3296944110007,None,546.3296944110007,None,546.3296944110007,None,,,,,,,,,,,,,,,,,,,,,,,,,,,,,,,,,,,,,,,,,,,,001,139,2020_Feb_18_1501,spring_faces,3.1.5,60.1119372032175,
condition files/Stage1_2.xlsx,,T3,B3,c,"['c', 'm']","['Clue', 'Monopoly']","[-0.15, 0.5]","[0.15, 0.5]",1,1,,,,,,,,,0,1,1,1,0,6,6,4,,,,,,,,,,,,,,,,,,,,,,,,,,,,,,,,,,,,,,,,,,,,,,,,,,,,,,,548.2969272570008,None,548.2969272570008,None,548.2969272570008,None,m,0,2.2772758530009014,549.8475240330008,None,549.8475240330008,None,549.8475240330008,None,552.1801641989987,None,552.1801641989987,None,552.1801641989987,None,552.1801641989987,None,,,,,,,,,,,,,,,,,,,,,,,,,,,,,,,,,,,,,,,,,,,,001,139,2020_Feb_18_1501,spring_faces,3.1.5,60.1119372032175,
condition files/Stage1_2.xlsx,,T4,B4,m,"['c', 'm']","['Clue', 'Monopoly']","[-0.15, 0.5]","[0.15, 0.5]",1,1,,,,,,,,,0,1,1,1,0,7,7,7,,,,,,,,,,,,,,,,,,,,,,,,,,,,,,,,,,,,,,,,,,,,,,,,,,,,,,,554.1471442520015,None,554.1471442520015,None,554.1471442520015,None,c,0,4.6673249209998176,555.6974942790002,None,555.6974942790002,None,555.6974942790002,None,560.4473219310021,None,560.4473219310021,None,560.4473219310021,None,560.4473219310021,None,,,,,,,,,,,,,,,,,,,,,,,,,,,,,,,,,,,,,,,,,,,,001,139,2020_Feb_18_1501,spring_faces,3.1.5,60.1119372032175,
condition files/Stage1_1.xlsx,,T4,B3,m,"['c', 'm']","['Clue', 'Monopoly']","[-0.15, 0.5]","[0.15, 0.5]",1,1,,,,,,,,,0,2,2,2,0,0,0,6,,,,,,,,,,,,,,,,,,,,,,,,,,,,,,,,,,,,,,,,,,,,,,,,,,,,,,,562.4142700990014,None,562.4142700990014,None,562.4142700990014,None,m,1,3.5683327360020485,563.9485486880003,None,563.9485486880003,None,563.9485486880003,None,567.5800686809998,None,567.5800686809998,None,567.5800686809998,None,567.5800686809998,None,,,,,,,,,,,,,,,,,,,,,,,,,,,,,,,,,,,,,,,,,,,,001,139,2020_Feb_18_1501,spring_faces,3.1.5,60.1119372032175,
condition files/Stage1_1.xlsx,,B2,T1,m,"['c', 'm']","['Clue', 'Monopoly']","[-0.15, 0.5]","[0.15, 0.5]",1,1,,,,,,,,,0,2,2,2,0,1,1,2,,,,,,,,,,,,,,,,,,,,,,,,,,,,,,,,,,,,,,,,,,,,,,,,,,,,,,,569.5470530800012,None,569.5470530800012,None,569.5470530800012,None,m,1,1.4760780960023112,571.0807215970017,None,571.0807215970017,None,571.0807215970017,None,572.6136426679986,None,572.6136426679986,None,572.6136426679986,None,572.6136426679986,None,,,,,,,,,,,,,,,,,,,,,,,,,,,,,,,,,,,,,,,,,,,,001,139,2020_Feb_18_1501,spring_faces,3.1.5,60.1119372032175,
condition files/Stage1_1.xlsx,,B4,T4,m,"['c', 'm']","['Clue', 'Monopoly']","[-0.15, 0.5]","[0.15, 0.5]",1,1,,,,,,,,,0,2,2,2,0,2,2,7,,,,,,,,,,,,,,,,,,,,,,,,,,,,,,,,,,,,,,,,,,,,,,,,,,,,,,,574.5803705379985,None,574.5803705379985,None,574.5803705379985,None,m,1,2.5545175959996413,576.1143503419989,None,576.1143503419989,None,576.1143503419989,None,578.7303463220014,None,578.7303463220014,None,578.7303463220014,None,578.7303463220014,None,,,,,,,,,,,,,,,,,,,,,,,,,,,,,,,,,,,,,,,,,,,,001,139,2020_Feb_18_1501,spring_faces,3.1.5,60.1119372032175,
condition files/Stage1_1.xlsx,,T2,B2,m,"['c', 'm']","['Clue', 'Monopoly']","[-0.15, 0.5]","[0.15, 0.5]",1,1,,,,,,,,,0,2,2,2,0,3,3,3,,,,,,,,,,,,,,,,,,,,,,,,,,,,,,,,,,,,,,,,,,,,,,,,,,,,,,,580.6970440619989,None,580.6970440619989,None,580.6970440619989,None,m,1,1.030339027998707,582.2304957369997,None,582.2304957369997,None,582.2304957369997,None,583.3134559280006,None,583.3134559280006,None,583.3134559280006,None,583.3134559280006,None,,,,,,,,,,,,,,,,,,,,,,,,,,,,,,,,,,,,,,,,,,,,001,139,2020_Feb_18_1501,spring_faces,3.1.5,60.1119372032175,
condition files/Stage1_1.xlsx,,T3,B4,c,"['c', 'm']","['Clue', 'Monopoly']","[-0.15, 0.5]","[0.15, 0.5]",1,1,,,,,,,,,0,2,2,2,0,4,4,5,,,,,,,,,,,,,,,,,,,,,,,,,,,,,,,,,,,,,,,,,,,,,,,,,,,,,,,585.2803862250003,None,585.2803862250003,None,585.2803862250003,None,m,0,0.8794404830005078,586.8134316370015,None,586.8134316370015,None,586.8134316370015,None,587.747374863,None,587.747374863,None,587.747374863,None,587.747374863,None,,,,,,,,,,,,,,,,,,,,,,,,,,,,,,,,,,,,,,,,,,,,001,139,2020_Feb_18_1501,spring_faces,3.1.5,60.1119372032175,
condition files/Stage1_1.xlsx,,B1,T2,c,"['c', 'm']","['Clue', 'Monopoly']","[-0.15, 0.5]","[0.15, 0.5]",1,1,,,,,,,,,0,2,2,2,0,5,5,1,,,,,,,,,,,,,,,,,,,,,,,,,,,,,,,,,,,,,,,,,,,,,,,,,,,,,,,589.713822785001,None,589.713822785001,None,589.713822785001,None,m,0,1.9014497620009934,591.2473412200015,None,591.2473412200015,None,591.2473412200015,None,593.213964139999,None,593.213964139999,None,593.213964139999,None,593.213964139999,None,,,,,,,,,,,,,,,,,,,,,,,,,,,,,,,,,,,,,,,,,,,,001,139,2020_Feb_18_1501,spring_faces,3.1.5,60.1119372032175,
condition files/Stage1_1.xlsx,,B3,T3,c,"['c', 'm']","['Clue', 'Monopoly']","[-0.15, 0.5]","[0.15, 0.5]",1,1,,,,,,,,,0,2,2,2,0,6,6,4,,,,,,,,,,,,,,,,,,,,,,,,,,,,,,,,,,,,,,,,,,,,,,,,,,,,,,,595.1800023750002,None,595.1800023750002,None,595.1800023750002,None,c,1,3.0103011440005503,596.7146066659989,None,596.7146066659989,None,596.7146066659989,None,599.7807048200011,None,599.7807048200011,None,599.7807048200011,None,599.7807048200011,None,,,,,,,,,,,,,,,,,,,,,,,,,,,,,,,,,,,,,,,,,,,,001,139,2020_Feb_18_1501,spring_faces,3.1.5,60.1119372032175,
condition files/Stage1_1.xlsx,,T1,B1,c,"['c', 'm']","['Clue', 'Monopoly']","[-0.15, 0.5]","[0.15, 0.5]",1,1,,,,,,,,,0,2,2,2,0,7,7,0,,,,,,,,,,,,,,,,,,,,,,,,,,,,,,,,,,,,,,,,,,,,,,,,,,,,,,,601.7471920520002,None,601.7471920520002,None,601.7471920520002,None,m,0,1.6765753539984871,603.2802313350003,None,603.2802313350003,None,603.2802313350003,None,605.013837237002,None,605.013837237002,None,605.013837237002,None,605.013837237002,None,,,,,,,,,,,,,,,,,,,,,,,,,,,,,,,,,,,,,,,,,,,,001,139,2020_Feb_18_1501,spring_faces,3.1.5,60.1119372032175,
condition files/Stage1_2.xlsx,,T2,B1,c,"['c', 'm']","['Clue', 'Monopoly']","[-0.15, 0.5]","[0.15, 0.5]",1,1,,,,,,,,,0,3,3,3,0,0,0,1,,,,,,,,,,,,,,,,,,,,,,,,,,,,,,,,,,,,,,,,,,,,,,,,,,,,,,,606.9971749190008,None,606.9971749190008,None,606.9971749190008,None,m,0,2.250056692999351,608.5308314880021,None,608.5308314880021,None,608.5308314880021,None,610.8309485850004,None,610.8309485850004,None,610.8309485850004,None,610.8309485850004,None,,,,,,,,,,,,,,,,,,,,,,,,,,,,,,,,,,,,,,,,,,,,001,139,2020_Feb_18_1501,spring_faces,3.1.5,60.1119372032175,
condition files/Stage1_2.xlsx,,B3,T4,m,"['c', 'm']","['Clue', 'Monopoly']","[-0.15, 0.5]","[0.15, 0.5]",1,1,,,,,,,,,0,3,3,3,0,1,1,6,,,,,,,,,,,,,,,,,,,,,,,,,,,,,,,,,,,,,,,,,,,,,,,,,,,,,,,612.7975373000008,None,612.7975373000008,None,612.7975373000008,None,m,1,1.153465719999076,614.347376351001,None,614.347376351001,None,614.347376351001,None,615.5639315939989,None,615.5639315939989,None,615.5639315939989,None,615.5639315939989,None,,,,,,,,,,,,,,,,,,,,,,,,,,,,,,,,,,,,,,,,,,,,001,139,2020_Feb_18_1501,spring_faces,3.1.5,60.1119372032175,
condition files/Stage1_2.xlsx,,B1,T1,c,"['c', 'm']","['Clue', 'Monopoly']","[-0.15, 0.5]","[0.15, 0.5]",1,1,,,,,,,,,0,3,3,3,0,2,2,0,,,,,,,,,,,,,,,,,,,,,,,,,,,,,,,,,,,,,,,,,,,,,,,,,,,,,,,617.530511721001,None,617.530511721001,None,617.530511721001,None,m,0,1.141246739000053,619.063674776,None,619.063674776,None,619.063674776,None,620.2653285550005,None,620.2653285550005,None,620.2653285550005,None,620.2653285550005,None,,,,,,,,,,,,,,,,,,,,,,,,,,,,,,,,,,,,,,,,,,,,001,139,2020_Feb_18_1501,spring_faces,3.1.5,60.1119372032175,
condition files/Stage1_2.xlsx,,B4,T3,c,"['c', 'm']","['Clue', 'Monopoly']","[-0.15, 0.5]","[0.15, 0.5]",1,1,,,,,,,,,0,3,3,3,0,3,3,5,,,,,,,,,,,,,,,,,,,,,,,,,,,,,,,,,,,,,,,,,,,,,,,,,,,,,,,622.2305219180016,None,622.2305219180016,None,622.2305219180016,None,c,1,1.8642964030004805,623.7645610079999,None,623.7645610079999,None,623.7645610079999,None,625.6803774020009,None,625.6803774020009,None,625.6803774020009,None,625.6803774020009,None,,,,,,,,,,,,,,,,,,,,,,,,,,,,,,,,,,,,,,,,,,,,001,139,2020_Feb_18_1501,spring_faces,3.1.5,60.1119372032175,
condition files/Stage1_2.xlsx,,B2,T2,m,"['c', 'm']","['Clue', 'Monopoly']","[-0.15, 0.5]","[0.15, 0.5]",1,1,,,,,,,,,0,3,3,3,0,4,4,3,,,,,,,,,,,,,,,,,,,,,,,,,,,,,,,,,,,,,,,,,,,,,,,,,,,,,,,627.647029710999,None,627.647029710999,None,627.647029710999,None,m,1,0.5279394860008324,629.1809154809998,None,629.1809154809998,None,629.1809154809998,None,629.7804978730019,None,629.7804978730019,None,629.7804978730019,None,629.7804978730019,None,,,,,,,,,,,,,,,,,,,,,,,,,,,,,,,,,,,,,,,,,,,,001,139,2020_Feb_18_1501,spring_faces,3.1.5,60.1119372032175,
condition files/Stage1_2.xlsx,,T3,B3,c,"['c', 'm']","['Clue', 'Monopoly']","[-0.15, 0.5]","[0.15, 0.5]",1,1,,,,,,,,,0,3,3,3,0,5,5,4,,,,,,,,,,,,,,,,,,,,,,,,,,,,,,,,,,,,,,,,,,,,,,,,,,,,,,,631.7304572760004,None,631.7304572760004,None,631.7304572760004,None,c,1,0.618570651000482,633.2662974449995,None,633.2662974449995,None,633.2662974449995,None,633.9480294810019,None,633.9480294810019,None,633.9480294810019,None,633.9480294810019,None,,,,,,,,,,,,,,,,,,,,,,,,,,,,,,,,,,,,,,,,,,,,001,139,2020_Feb_18_1501,spring_faces,3.1.5,60.1119372032175,
condition files/Stage1_2.xlsx,,T1,B2,m,"['c', 'm']","['Clue', 'Monopoly']","[-0.15, 0.5]","[0.15, 0.5]",1,1,,,,,,,,,0,3,3,3,0,6,6,2,,,,,,,,,,,,,,,,,,,,,,,,,,,,,,,,,,,,,,,,,,,,,,,,,,,,,,,635.9136136099987,None,635.9136136099987,None,635.9136136099987,None,m,1,1.3972833000007086,637.4475659890013,None,637.4475659890013,None,637.4475659890013,None,638.9138129599996,None,638.9138129599996,None,638.9138129599996,None,638.9138129599996,None,,,,,,,,,,,,,,,,,,,,,,,,,,,,,,,,,,,,,,,,,,,,001,139,2020_Feb_18_1501,spring_faces,3.1.5,60.1119372032175,
condition files/Stage1_2.xlsx,,T4,B4,m,"['c', 'm']","['Clue', 'Monopoly']","[-0.15, 0.5]","[0.15, 0.5]",1,1,,,,,,,,,0,3,3,3,0,7,7,7,,,,,,,,,,,,,,,,,,,,,,,,,,,,,,,,,,,,,,,,,,,,,,,,,,,,,,,640.8637206950007,None,640.8637206950007,None,640.8637206950007,None,c,0,0.9911170539999148,642.4137954809994,None,642.4137954809994,None,642.4137954809994,None,643.4636610849993,None,643.4636610849993,None,643.4636610849993,None,643.4636610849993,None,,,,,,,,,,,,,,,,,,,,,,,,,,,,,,,,,,,,,,,,,,,,001,139,2020_Feb_18_1501,spring_faces,3.1.5,60.1119372032175,
condition files/Stage1_1.xlsx,,B1,T2,c,"['c', 'm']","['Clue', 'Monopoly']","[-0.15, 0.5]","[0.15, 0.5]",1,1,,,,,,,,,0,4,4,4,0,0,0,1,,,,,,,,,,,,,,,,,,,,,,,,,,,,,,,,,,,,,,,,,,,,,,,,,,,,,,,645.446602805001,None,645.446602805001,None,645.446602805001,None,c,1,1.368102121999982,646.9807347099995,None,646.9807347099995,None,646.9807347099995,None,648.414154782,None,648.414154782,None,648.414154782,None,648.414154782,None,,,,,,,,,,,,,,,,,,,,,,,,,,,,,,,,,,,,,,,,,,,,001,139,2020_Feb_18_1501,spring_faces,3.1.5,60.1119372032175,
condition files/Stage1_1.xlsx,,T3,B4,c,"['c', 'm']","['Clue', 'Monopoly']","[-0.15, 0.5]","[0.15, 0.5]",1,1,,,,,,,,,0,4,4,4,0,1,1,5,,,,,,,,,,,,,,,,,,,,,,,,,,,,,,,,,,,,,,,,,,,,,,,,,,,,,,,650.3803328770009,None,650.3803328770009,None,650.3803328770009,None,c,1,1.6499031570019724,651.9308977860019,None,651.9308977860019,None,651.9308977860019,None,653.6472796730013,None,653.6472796730013,None,653.6472796730013,None,653.6472796730013,None,,,,,,,,,,,,,,,,,,,,,,,,,,,,,,,,,,,,,,,,,,,,001,139,2020_Feb_18_1501,spring_faces,3.1.5,60.1119372032175,
condition files/Stage1_1.xlsx,,B4,T4,m,"['c', 'm']","['Clue', 'Monopoly']","[-0.15, 0.5]","[0.15, 0.5]",1,1,,,,,,,,,0,4,4,4,0,2,2,7,,,,,,,,,,,,,,,,,,,,,,,,,,,,,,,,,,,,,,,,,,,,,,,,,,,,,,,655.6135124169996,None,655.6135124169996,None,655.6135124169996,None,m,1,1.9219739719992504,657.1468980440004,None,657.1468980440004,None,657.1468980440004,None,659.1470946510017,None,659.1470946510017,None,659.1470946510017,None,659.1470946510017,None,,,,,,,,,,,,,,,,,,,,,,,,,,,,,,,,,,,,,,,,,,,,001,139,2020_Feb_18_1501,spring_faces,3.1.5,60.1119372032175,
condition files/Stage1_1.xlsx,,B2,T1,m,"['c', 'm']","['Clue', 'Monopoly']","[-0.15, 0.5]","[0.15, 0.5]",1,1,,,,,,,,,0,4,4,4,0,3,3,2,,,,,,,,,,,,,,,,,,,,,,,,,,,,,,,,,,,,,,,,,,,,,,,,,,,,,,,661.0969345609992,None,661.0969345609992,None,661.0969345609992,None,m,1,0.5337012740019418,662.6311356030019,None,662.6311356030019,None,662.6311356030019,None,663.2300517889998,None,663.2300517889998,None,663.2300517889998,None,663.2300517889998,None,,,,,,,,,,,,,,,,,,,,,,,,,,,,,,,,,,,,,,,,,,,,001,139,2020_Feb_18_1501,spring_faces,3.1.5,60.1119372032175,
condition files/Stage1_1.xlsx,,T2,B2,m,"['c', 'm']","['Clue', 'Monopoly']","[-0.15, 0.5]","[0.15, 0.5]",1,1,,,,,,,,,0,4,4,4,0,4,4,3,,,,,,,,,,,,,,,,,,,,,,,,,,,,,,,,,,,,,,,,,,,,,,,,,,,,,,,665.1973600810015,None,665.1973600810015,None,665.1973600810015,None,m,1,2.49750688900167,666.747339632002,None,666.747339632002,None,666.747339632002,None,669.2971898940013,None,669.2971898940013,None,669.2971898940013,None,669.2971898940013,None,,,,,,,,,,,,,,,,,,,,,,,,,,,,,,,,,,,,,,,,,,,,001,139,2020_Feb_18_1501,spring_faces,3.1.5,60.1119372032175,
condition files/Stage1_1.xlsx,,T1,B1,c,"['c', 'm']","['Clue', 'Monopoly']","[-0.15, 0.5]","[0.15, 0.5]",1,1,,,,,,,,,0,4,4,4,0,5,5,0,,,,,,,,,,,,,,,,,,,,,,,,,,,,,,,,,,,,,,,,,,,,,,,,,,,,,,,671.2637139719991,None,671.2637139719991,None,671.2637139719991,None,c,1,2.383480705000693,672.7973294610019,None,672.7973294610019,None,672.7973294610019,None,675.2470477610004,None,675.2470477610004,None,675.2470477610004,None,675.2470477610004,None,,,,,,,,,,,,,,,,,,,,,,,,,,,,,,,,,,,,,,,,,,,,001,139,2020_Feb_18_1501,spring_faces,3.1.5,60.1119372032175,
condition files/Stage1_1.xlsx,,T4,B3,m,"['c', 'm']","['Clue', 'Monopoly']","[-0.15, 0.5]","[0.15, 0.5]",1,1,,,,,,,,,0,4,4,4,0,6,6,6,,,,,,,,,,,,,,,,,,,,,,,,,,,,,,,,,,,,,,,,,,,,,,,,,,,,,,,677.2137492930015,None,677.2137492930015,None,677.2137492930015,None,m,1,1.296346426999662,678.7485007790019,None,678.7485007790019,None,678.7485007790019,None,680.1140250509998,None,680.1140250509998,None,680.1140250509998,None,680.1140250509998,None,,,,,,,,,,,,,,,,,,,,,,,,,,,,,,,,,,,,,,,,,,,,001,139,2020_Feb_18_1501,spring_faces,3.1.5,60.1119372032175,
condition files/Stage1_1.xlsx,,B3,T3,c,"['c', 'm']","['Clue', 'Monopoly']","[-0.15, 0.5]","[0.15, 0.5]",1,1,,,,,,,,,0,4,4,4,0,7,7,4,,,,,,,,,,,,,,,,,,,,,,,,,,,,,,,,,,,,,,,,,,,,,,,,,,,,,,,682.0633440720012,None,682.0633440720012,None,682.0633440720012,None,c,1,0.8467055060027633,683.5981517969994,None,683.5981517969994,None,683.5981517969994,None,684.4976158780009,None,684.4976158780009,None,684.4976158780009,None,684.4976158780009,None,,,,,,,,,,,,,,,,,,,,,,,,,,,,,,,,,,,,,,,,,,,,001,139,2020_Feb_18_1501,spring_faces,3.1.5,60.1119372032175,
condition files/Stage1_2.xlsx,,T2,B1,c,"['c', 'm']","['Clue', 'Monopoly']","[-0.15, 0.5]","[0.15, 0.5]",1,1,,,,,,,,,0,5,5,5,0,0,0,1,,,,,,,,,,,,,,,,,,,,,,,,,,,,,,,,,,,,,,,,,,,,,,,,,,,,,,,686.4807939730017,None,686.4807939730017,None,686.4807939730017,None,c,1,2.7167095499971765,688.0161613130003,None,688.0161613130003,None,688.0161613130003,None,690.7975593720003,None,690.7975593720003,None,690.7975593720003,None,690.7975593720003,None,,,,,,,,,,,,,,,,,,,,,,,,,,,,,,,,,,,,,,,,,,,,001,139,2020_Feb_18_1501,spring_faces,3.1.5,60.1119372032175,
condition files/Stage1_2.xlsx,,B3,T4,m,"['c', 'm']","['Clue', 'Monopoly']","[-0.15, 0.5]","[0.15, 0.5]",1,1,,,,,,,,,0,5,5,5,0,1,1,6,,,,,,,,,,,,,,,,,,,,,,,,,,,,,,,,,,,,,,,,,,,,,,,,,,,,,,,692.7637197969998,None,692.7637197969998,None,692.7637197969998,None,m,1,1.3633938599996327,694.2974591150014,None,694.2974591150014,None,694.2974591150014,None,695.7148751370005,None,695.7148751370005,None,695.7148751370005,None,695.7148751370005,None,,,,,,,,,,,,,,,,,,,,,,,,,,,,,,,,,,,,,,,,,,,,001,139,2020_Feb_18_1501,spring_faces,3.1.5,60.1119372032175,
condition files/Stage1_2.xlsx,,T3,B3,c,"['c', 'm']","['Clue', 'Monopoly']","[-0.15, 0.5]","[0.15, 0.5]",1,1,,,,,,,,,0,5,5,5,0,2,2,4,,,,,,,,,,,,,,,,,,,,,,,,,,,,,,,,,,,,,,,,,,,,,,,,,,,,,,,697.6799315079988,None,697.6799315079988,None,697.6799315079988,None,c,1,1.3742783239977143,699.2146564960021,None,699.2146564960021,None,699.2146564960021,None,700.6487696789991,None,700.6487696789991,None,700.6487696789991,None,700.6487696789991,None,,,,,,,,,,,,,,,,,,,,,,,,,,,,,,,,,,,,,,,,,,,,001,139,2020_Feb_18_1501,spring_faces,3.1.5,60.1119372032175,
condition files/Stage1_2.xlsx,,B2,T2,m,"['c', 'm']","['Clue', 'Monopoly']","[-0.15, 0.5]","[0.15, 0.5]",1,1,,,,,,,,,0,5,5,5,0,3,3,3,,,,,,,,,,,,,,,,,,,,,,,,,,,,,,,,,,,,,,,,,,,,,,,,,,,,,,,702.6137464540006,None,702.6137464540006,None,702.6137464540006,None,m,1,2.7605134149998776,704.1483177570008,None,704.1483177570008,None,704.1483177570008,None,706.9656336609987,None,706.9656336609987,None,706.9656336609987,None,706.9656336609987,None,,,,,,,,,,,,,,,,,,,,,,,,,,,,,,,,,,,,,,,,,,,,001,139,2020_Feb_18_1501,spring_faces,3.1.5,60.1119372032175,
condition files/Stage1_2.xlsx,,T4,B4,m,"['c', 'm']","['Clue', 'Monopoly']","[-0.15, 0.5]","[0.15, 0.5]",1,1,,,,,,,,,0,5,5,5,0,4,4,7,,,,,,,,,,,,,,,,,,,,,,,,,,,,,,,,,,,,,,,,,,,,,,,,,,,,,,,708.9300263309997,None,708.9300263309997,None,708.9300263309997,None,c,0,2.268117018000339,710.4806951280007,None,710.4806951280007,None,710.4806951280007,None,712.814435954002,None,712.814435954002,None,712.814435954002,None,712.814435954002,None,,,,,,,,,,,,,,,,,,,,,,,,,,,,,,,,,,,,,,,,,,,,001,139,2020_Feb_18_1501,spring_faces,3.1.5,60.1119372032175,
condition files/Stage1_2.xlsx,,T1,B2,m,"['c', 'm']","['Clue', 'Monopoly']","[-0.15, 0.5]","[0.15, 0.5]",1,1,,,,,,,,,0,5,5,5,0,5,5,2,,,,,,,,,,,,,,,,,,,,,,,,,,,,,,,,,,,,,,,,,,,,,,,,,,,,,,,714.7800248169988,None,714.7800248169988,None,714.7800248169988,None,m,1,1.1705407030021888,716.3143105070012,None,716.3143105070012,None,716.3143105070012,None,717.5468693139992,None,717.5468693139992,None,717.5468693139992,None,717.5468693139992,None,,,,,,,,,,,,,,,,,,,,,,,,,,,,,,,,,,,,,,,,,,,,001,139,2020_Feb_18_1501,spring_faces,3.1.5,60.1119372032175,
condition files/Stage1_2.xlsx,,B1,T1,c,"['c', 'm']","['Clue', 'Monopoly']","[-0.15, 0.5]","[0.15, 0.5]",1,1,,,,,,,,,0,5,5,5,0,6,6,0,,,,,,,,,,,,,,,,,,,,,,,,,,,,,,,,,,,,,,,,,,,,,,,,,,,,,,,719.513713286,None,719.513713286,None,719.513713286,None,c,1,2.229962006000278,721.0468880640001,None,721.0468880640001,None,721.0468880640001,None,723.3467162800007,None,723.3467162800007,None,723.3467162800007,None,723.3467162800007,None,,,,,,,,,,,,,,,,,,,,,,,,,,,,,,,,,,,,,,,,,,,,001,139,2020_Feb_18_1501,spring_faces,3.1.5,60.1119372032175,
condition files/Stage1_2.xlsx,,B4,T3,c,"['c', 'm']","['Clue', 'Monopoly']","[-0.15, 0.5]","[0.15, 0.5]",1,1,,,,,,,,,0,5,5,5,0,7,7,5,,,,,,,,,,,,,,,,,,,,,,,,,,,,,,,,,,,,,,,,,,,,,,,,,,,,,,,725.2967828010005,None,725.2967828010005,None,725.2967828010005,None,c,1,0.9422340299970529,726.8306895339992,None,726.8306895339992,None,726.8306895339992,None,727.8307560249996,None,727.8307560249996,None,727.8307560249996,None,727.8307560249996,None,,,,,,,,,,,,,,,,,,,,,,,,,,,,,,,,,,,,,,,,,,,,001,139,2020_Feb_18_1501,spring_faces,3.1.5,60.1119372032175,
condition files/Stage1_1.xlsx,,B1,T2,c,"['c', 'm']","['Clue', 'Monopoly']","[-0.15, 0.5]","[0.15, 0.5]",1,1,,,,,,,,,0,6,6,6,0,0,0,1,,,,,,,,,,,,,,,,,,,,,,,,,,,,,,,,,,,,,,,,,,,,,,,,,,,,,,,729.8136899720012,None,729.8136899720012,None,729.8136899720012,None,c,1,1.8984162890010339,731.3464389110013,None,731.3464389110013,None,731.3464389110013,None,733.297429516002,None,733.297429516002,None,733.297429516002,None,733.297429516002,None,,,,,,,,,,,,,,,,,,,,,,,,,,,,,,,,,,,,,,,,,,,,001,139,2020_Feb_18_1501,spring_faces,3.1.5,60.1119372032175,
condition files/Stage1_1.xlsx,,B4,T4,m,"['c', 'm']","['Clue', 'Monopoly']","[-0.15, 0.5]","[0.15, 0.5]",1,1,,,,,,,,,0,6,6,6,0,1,1,7,,,,,,,,,,,,,,,,,,,,,,,,,,,,,,,,,,,,,,,,,,,,,,,,,,,,,,,735.2635151180002,None,735.2635151180002,None,735.2635151180002,None,m,1,1.0548978169972543,736.8139647610005,None,736.8139647610005,None,736.8139647610005,None,737.9324474249988,None,737.9324474249988,None,737.9324474249988,None,737.9324474249988,None,,,,,,,,,,,,,,,,,,,,,,,,,,,,,,,,,,,,,,,,,,,,001,139,2020_Feb_18_1501,spring_faces,3.1.5,60.1119372032175,
condition files/Stage1_1.xlsx,,B3,T3,c,"['c', 'm']","['Clue', 'Monopoly']","[-0.15, 0.5]","[0.15, 0.5]",1,1,,,,,,,,,0,6,6,6,0,2,2,4,,,,,,,,,,,,,,,,,,,,,,,,,,,,,,,,,,,,,,,,,,,,,,,,,,,,,,,739.896703172999,None,739.896703172999,None,739.896703172999,None,c,1,0.8695818169981067,741.4472681740008,None,741.4472681740008,None,741.4472681740008,None,742.3817999530002,None,742.3817999530002,None,742.3817999530002,None,742.3817999530002,None,,,,,,,,,,,,,,,,,,,,,,,,,,,,,,,,,,,,,,,,,,,,001,139,2020_Feb_18_1501,spring_faces,3.1.5,60.1119372032175,
condition files/Stage1_1.xlsx,,B2,T1,m,"['c', 'm']","['Clue', 'Monopoly']","[-0.15, 0.5]","[0.15, 0.5]",1,1,,,,,,,,,0,6,6,6,0,3,3,2,,,,,,,,,,,,,,,,,,,,,,,,,,,,,,,,,,,,,,,,,,,,,,,,,,,,,,,744.3467875339993,None,744.3467875339993,None,744.3467875339993,None,m,1,1.1401729460012575,745.8807658709993,None,745.8807658709993,None,745.8807658709993,None,747.0832778760014,None,747.0832778760014,None,747.0832778760014,None,747.0832778760014,None,,,,,,,,,,,,,,,,,,,,,,,,,,,,,,,,,,,,,,,,,,,,001,139,2020_Feb_18_1501,spring_faces,3.1.5,60.1119372032175,
condition files/Stage1_1.xlsx,,T4,B3,m,"['c', 'm']","['Clue', 'Monopoly']","[-0.15, 0.5]","[0.15, 0.5]",1,1,,,,,,,,,0,6,6,6,0,4,4,6,,,,,,,,,,,,,,,,,,,,,,,,,,,,,,,,,,,,,,,,,,,,,,,,,,,,,,,749.0470655530007,None,749.0470655530007,None,749.0470655530007,None,m,1,2.9508466240004054,750.5820189229999,None,750.5820189229999,None,750.5820189229999,None,753.596935734,None,753.596935734,None,753.596935734,None,753.596935734,None,,,,,,,,,,,,,,,,,,,,,,,,,,,,,,,,,,,,,,,,,,,,001,139,2020_Feb_18_1501,spring_faces,3.1.5,60.1119372032175,
condition files/Stage1_1.xlsx,,T1,B1,c,"['c', 'm']","['Clue', 'Monopoly']","[-0.15, 0.5]","[0.15, 0.5]",1,1,,,,,,,,,0,6,6,6,0,5,5,0,,,,,,,,,,,,,,,,,,,,,,,,,,,,,,,,,,,,,,,,,,,,,,,,,,,,,,,755.5636355630013,None,755.5636355630013,None,755.5636355630013,None,c,1,2.290743184999883,757.0981911210001,None,757.0981911210001,None,757.0981911210001,None,759.4478432700016,None,759.4478432700016,None,759.4478432700016,None,759.4478432700016,None,,,,,,,,,,,,,,,,,,,,,,,,,,,,,,,,,,,,,,,,,,,,001,139,2020_Feb_18_1501,spring_faces,3.1.5,60.1119372032175,
condition files/Stage1_1.xlsx,,T3,B4,c,"['c', 'm']","['Clue', 'Monopoly']","[-0.15, 0.5]","[0.15, 0.5]",1,1,,,,,,,,,0,6,6,6,0,6,6,5,,,,,,,,,,,,,,,,,,,,,,,,,,,,,,,,,,,,,,,,,,,,,,,,,,,,,,,761.4133727180015,None,761.4133727180015,None,761.4133727180015,None,c,1,1.8646231580023596,762.9642165320001,None,762.9642165320001,None,762.9642165320001,None,764.880978379002,None,764.880978379002,None,764.880978379002,None,764.880978379002,None,,,,,,,,,,,,,,,,,,,,,,,,,,,,,,,,,,,,,,,,,,,,001,139,2020_Feb_18_1501,spring_faces,3.1.5,60.1119372032175,
condition files/Stage1_1.xlsx,,T2,B2,m,"['c', 'm']","['Clue', 'Monopoly']","[-0.15, 0.5]","[0.15, 0.5]",1,1,,,,,,,,,0,6,6,6,0,7,7,3,,,,,,,,,,,,,,,,,,,,,,,,,,,,,,,,,,,,,,,,,,,,,,,,,,,,,,,766.8465227720008,None,766.8465227720008,None,766.8465227720008,None,m,1,0.6874598590002279,768.3973971699997,None,768.3973971699997,None,768.3973971699997,None,769.1496926299988,None,769.1496926299988,None,769.1496926299988,None,769.1496926299988,None,,,,,,,,,,,,,,,,,,,,,,,,,,,,,,,,,,,,,,,,,,,,001,139,2020_Feb_18_1501,spring_faces,3.1.5,60.1119372032175,
condition files/Stage1_2.xlsx,,T4,B4,m,"['c', 'm']","['Clue', 'Monopoly']","[-0.15, 0.5]","[0.15, 0.5]",1,1,,,,,,,,,0,7,7,7,0,0,0,7,,,,,,,,,,,,,,,,,,,,,,,,,,,,,,,,,,,,,,,,,,,,,,,,,,,,,,,771.1306742449997,None,771.1306742449997,None,771.1306742449997,None,m,1,3.316191264999361,772.6646527490011,None,772.6646527490011,None,772.6646527490011,None,776.0472744500003,None,776.0472744500003,None,776.0472744500003,None,776.0472744500003,None,,,,,,,,,,,,,,,,,,,,,,,,,,,,,,,,,,,,,,,,,,,,001,139,2020_Feb_18_1501,spring_faces,3.1.5,60.1119372032175,
condition files/Stage1_2.xlsx,,B4,T3,c,"['c', 'm']","['Clue', 'Monopoly']","[-0.15, 0.5]","[0.15, 0.5]",1,1,,,,,,,,,0,7,7,7,0,1,1,5,,,,,,,,,,,,,,,,,,,,,,,,,,,,,,,,,,,,,,,,,,,,,,,,,,,,,,,778.0138091939989,None,778.0138091939989,None,778.0138091939989,None,c,1,1.809303957001248,779.547494931001,None,779.547494931001,None,779.547494931001,None,781.4160956160013,None,781.4160956160013,None,781.4160956160013,None,781.4160956160013,None,,,,,,,,,,,,,,,,,,,,,,,,,,,,,,,,,,,,,,,,,,,,001,139,2020_Feb_18_1501,spring_faces,3.1.5,60.1119372032175,
condition files/Stage1_2.xlsx,,T2,B1,c,"['c', 'm']","['Clue', 'Monopoly']","[-0.15, 0.5]","[0.15, 0.5]",1,1,,,,,,,,,0,7,7,7,0,2,2,1,,,,,,,,,,,,,,,,,,,,,,,,,,,,,,,,,,,,,,,,,,,,,,,,,,,,,,,783.3806023600009,None,783.3806023600009,None,783.3806023600009,None,c,1,1.241388785001618,784.9154414440018,None,784.9154414440018,None,784.9154414440018,None,786.2142389319997,None,786.2142389319997,None,786.2142389319997,None,786.2142389319997,None,,,,,,,,,,,,,,,,,,,,,,,,,,,,,,,,,,,,,,,,,,,,001,139,2020_Feb_18_1501,spring_faces,3.1.5,60.1119372032175,
condition files/Stage1_2.xlsx,,B1,T1,c,"['c', 'm']","['Clue', 'Monopoly']","[-0.15, 0.5]","[0.15, 0.5]",1,1,,,,,,,,,0,7,7,7,0,3,3,0,,,,,,,,,,,,,,,,,,,,,,,,,,,,,,,,,,,,,,,,,,,,,,,,,,,,,,,788.1797708920021,None,788.1797708920021,None,788.1797708920021,None,c,1,1.3389464569991105,789.7138990169988,None,789.7138990169988,None,789.7138990169988,None,791.1141386980016,None,791.1141386980016,None,791.1141386980016,None,791.1141386980016,None,,,,,,,,,,,,,,,,,,,,,,,,,,,,,,,,,,,,,,,,,,,,001,139,2020_Feb_18_1501,spring_faces,3.1.5,60.1119372032175,
condition files/Stage1_2.xlsx,,T1,B2,m,"['c', 'm']","['Clue', 'Monopoly']","[-0.15, 0.5]","[0.15, 0.5]",1,1,,,,,,,,,0,7,7,7,0,4,4,2,,,,,,,,,,,,,,,,,,,,,,,,,,,,,,,,,,,,,,,,,,,,,,,,,,,,,,,793.0800767330002,None,793.0800767330002,None,793.0800767330002,None,m,1,0.998708216000523,794.6301298700018,None,794.6301298700018,None,794.6301298700018,None,795.6976855239991,None,795.6976855239991,None,795.6976855239991,None,795.6976855239991,None,,,,,,,,,,,,,,,,,,,,,,,,,,,,,,,,,,,,,,,,,,,,001,139,2020_Feb_18_1501,spring_faces,3.1.5,60.1119372032175,
condition files/Stage1_2.xlsx,,T3,B3,c,"['c', 'm']","['Clue', 'Monopoly']","[-0.15, 0.5]","[0.15, 0.5]",1,1,,,,,,,,,0,7,7,7,0,5,5,4,,,,,,,,,,,,,,,,,,,,,,,,,,,,,,,,,,,,,,,,,,,,,,,,,,,,,,,797.6470786809987,None,797.6470786809987,None,797.6470786809987,None,c,1,1.599704460000794,799.1810861199992,None,799.1810861199992,None,799.1810861199992,None,800.8467652180007,None,800.8467652180007,None,800.8467652180007,None,800.8467652180007,None,,,,,,,,,,,,,,,,,,,,,,,,,,,,,,,,,,,,,,,,,,,,001,139,2020_Feb_18_1501,spring_faces,3.1.5,60.1119372032175,
condition files/Stage1_2.xlsx,,B3,T4,m,"['c', 'm']","['Clue', 'Monopoly']","[-0.15, 0.5]","[0.15, 0.5]",1,1,,,,,,,,,0,7,7,7,0,6,6,6,,,,,,,,,,,,,,,,,,,,,,,,,,,,,,,,,,,,,,,,,,,,,,,,,,,,,,,802.8138897870012,None,802.8138897870012,None,802.8138897870012,None,m,1,2.1444859219991486,804.3483474970017,None,804.3483474970017,None,804.3483474970017,None,806.56400803,None,806.56400803,None,806.56400803,None,806.56400803,None,,,,,,,,,,,,,,,,,,,,,,,,,,,,,,,,,,,,,,,,,,,,001,139,2020_Feb_18_1501,spring_faces,3.1.5,60.1119372032175,
condition files/Stage1_2.xlsx,,B2,T2,m,"['c', 'm']","['Clue', 'Monopoly']","[-0.15, 0.5]","[0.15, 0.5]",1,1,,,,,,,,,0,7,7,7,0,7,7,3,,,,,,,,,,,,,,,,,,,,,,,,,,,,,,,,,,,,,,,,,,,,,,,,,,,,,,,808.5136903849998,None,808.5136903849998,None,808.5136903849998,None,m,1,3.3091611659983755,810.0637602060015,None,810.0637602060015,None,810.0637602060015,None,813.4298818450006,None,813.4298818450006,None,813.4298818450006,None,813.4298818450006,None,,,,,,,,,,,,,,,,,,,,,,,,,,,,,,,,,,,,,,,,,,,,001,139,2020_Feb_18_1501,spring_faces,3.1.5,60.1119372032175,
condition files/Stage1_1.xlsx,,B4,T4,m,"['c', 'm']","['Clue', 'Monopoly']","[-0.15, 0.5]","[0.15, 0.5]",1,1,,,,,,,,,0,8,8,8,0,0,0,7,,,,,,,,,,,,,,,,,,,,,,,,,,,,,,,,,,,,,,,,,,,,,,,,,,,,,,,815.4138830990014,None,815.4138830990014,None,815.4138830990014,None,m,1,1.4642656589967373,816.9486057419999,None,816.9486057419999,None,816.9486057419999,None,818.4634216650011,None,818.4634216650011,None,818.4634216650011,None,818.4634216650011,None,,,,,,,,,,,,,,,,,,,,,,,,,,,,,,,,,,,,,,,,,,,,001,139,2020_Feb_18_1501,spring_faces,3.1.5,60.1119372032175,
condition files/Stage1_1.xlsx,,B1,T2,c,"['c', 'm']","['Clue', 'Monopoly']","[-0.15, 0.5]","[0.15, 0.5]",1,1,,,,,,,,,0,8,8,8,0,1,1,1,,,,,,,,,,,,,,,,,,,,,,,,,,,,,,,,,,,,,,,,,,,,,,,,,,,,,,,820.430454788002,None,820.430454788002,None,820.430454788002,None,c,1,0.7854972489985812,821.9633727610017,None,821.9633727610017,None,821.9633727610017,None,822.8301624800006,None,822.8301624800006,None,822.8301624800006,None,822.8301624800006,None,,,,,,,,,,,,,,,,,,,,,,,,,,,,,,,,,,,,,,,,,,,,001,139,2020_Feb_18_1501,spring_faces,3.1.5,60.1119372032175,
condition files/Stage1_1.xlsx,,T2,B2,m,"['c', 'm']","['Clue', 'Monopoly']","[-0.15, 0.5]","[0.15, 0.5]",1,1,,,,,,,,,0,8,8,8,0,2,2,3,,,,,,,,,,,,,,,,,,,,,,,,,,,,,,,,,,,,,,,,,,,,,,,,,,,,,,,824.7804152419994,None,824.7804152419994,None,824.7804152419994,None,m,1,1.0566146560013294,826.316319212001,None,826.316319212001,None,826.316319212001,None,827.4331196530002,None,827.4331196530002,None,827.4331196530002,None,827.4331196530002,None,,,,,,,,,,,,,,,,,,,,,,,,,,,,,,,,,,,,,,,,,,,,001,139,2020_Feb_18_1501,spring_faces,3.1.5,60.1119372032175,
condition files/Stage1_1.xlsx,,T4,B3,m,"['c', 'm']","['Clue', 'Monopoly']","[-0.15, 0.5]","[0.15, 0.5]",1,1,,,,,,,,,0,8,8,8,0,3,3,6,,,,,,,,,,,,,,,,,,,,,,,,,,,,,,,,,,,,,,,,,,,,,,,,,,,,,,,829.3964031510004,None,829.3964031510004,None,829.3964031510004,None,m,1,1.2894654279989481,830.9314722730014,None,830.9314722730014,None,830.9314722730014,None,832.2807783140015,None,832.2807783140015,None,832.2807783140015,None,832.2807783140015,None,,,,,,,,,,,,,,,,,,,,,,,,,,,,,,,,,,,,,,,,,,,,001,139,2020_Feb_18_1501,spring_faces,3.1.5,60.1119372032175,
condition files/Stage1_1.xlsx,,T1,B1,c,"['c', 'm']","['Clue', 'Monopoly']","[-0.15, 0.5]","[0.15, 0.5]",1,1,,,,,,,,,0,8,8,8,0,4,4,0,,,,,,,,,,,,,,,,,,,,,,,,,,,,,,,,,,,,,,,,,,,,,,,,,,,,,,,834.2470832219988,None,834.2470832219988,None,834.2470832219988,None,c,1,1.288354779000656,835.7805304899994,None,835.7805304899994,None,835.7805304899994,None,837.1304855890012,None,837.1304855890012,None,837.1304855890012,None,837.1304855890012,None,,,,,,,,,,,,,,,,,,,,,,,,,,,,,,,,,,,,,,,,,,,,001,139,2020_Feb_18_1501,spring_faces,3.1.5,60.1119372032175,
condition files/Stage1_1.xlsx,,B3,T3,c,"['c', 'm']","['Clue', 'Monopoly']","[-0.15, 0.5]","[0.15, 0.5]",1,1,,,,,,,,,0,8,8,8,0,5,5,4,,,,,,,,,,,,,,,,,,,,,,,,,,,,,,,,,,,,,,,,,,,,,,,,,,,,,,,839.0970651610005,None,839.0970651610005,None,839.0970651610005,None,c,1,0.7405194409984688,840.6324199750015,None,840.6324199750015,None,840.6324199750015,None,841.430358996,None,841.430358996,None,841.430358996,None,841.430358996,None,,,,,,,,,,,,,,,,,,,,,,,,,,,,,,,,,,,,,,,,,,,,001,139,2020_Feb_18_1501,spring_faces,3.1.5,60.1119372032175,
condition files/Stage1_1.xlsx,,B2,T1,m,"['c', 'm']","['Clue', 'Monopoly']","[-0.15, 0.5]","[0.15, 0.5]",1,1,,,,,,,,,0,8,8,8,0,6,6,2,,,,,,,,,,,,,,,,,,,,,,,,,,,,,,,,,,,,,,,,,,,,,,,,,,,,,,,843.3970254129999,None,843.3970254129999,None,843.3970254129999,None,m,1,1.5455628670024453,844.9472521649986,None,844.9472521649986,None,844.9472521649986,None,846.5642822699992,None,846.5642822699992,None,846.5642822699992,None,846.5642822699992,None,,,,,,,,,,,,,,,,,,,,,,,,,,,,,,,,,,,,,,,,,,,,001,139,2020_Feb_18_1501,spring_faces,3.1.5,60.1119372032175,
condition files/Stage1_1.xlsx,,T3,B4,c,"['c', 'm']","['Clue', 'Monopoly']","[-0.15, 0.5]","[0.15, 0.5]",1,1,,,,,,,,,0,8,8,8,0,7,7,5,,,,,,,,,,,,,,,,,,,,,,,,,,,,,,,,,,,,,,,,,,,,,,,,,,,,,,,848.513631132002,None,848.513631132002,None,848.513631132002,None,c,1,1.96552514999712,850.0633191919987,None,850.0633191919987,None,850.0633191919987,None,852.0819313280008,None,852.0819313280008,None,852.0819313280008,None,852.0819313280008,None,,,,,,,,,,,,,,,,,,,,,,,,,,,,,,,,,,,,,,,,,,,,001,139,2020_Feb_18_1501,spring_faces,3.1.5,60.1119372032175,
condition files/Stage1_2.xlsx,,B4,T3,c,"['c', 'm']","['Clue', 'Monopoly']","[-0.15, 0.5]","[0.15, 0.5]",1,1,,,,,,,,,0,9,9,9,0,0,0,5,,,,,,,,,,,,,,,,,,,,,,,,,,,,,,,,,,,,,,,,,,,,,,,,,,,,,,,854.0637117959996,None,854.0637117959996,None,854.0637117959996,None,c,1,0.6067867900019337,855.6141435419995,None,855.6141435419995,None,855.6141435419995,None,856.2817569460021,None,856.2817569460021,None,856.2817569460021,None,856.2817569460021,None,,,,,,,,,,,,,,,,,,,,,,,,,,,,,,,,,,,,,,,,,,,,001,139,2020_Feb_18_1501,spring_faces,3.1.5,60.1119372032175,
condition files/Stage1_2.xlsx,,B3,T4,m,"['c', 'm']","['Clue', 'Monopoly']","[-0.15, 0.5]","[0.15, 0.5]",1,1,,,,,,,,,0,9,9,9,0,1,1,6,,,,,,,,,,,,,,,,,,,,,,,,,,,,,,,,,,,,,,,,,,,,,,,,,,,,,,,858.2471594060007,None,858.2471594060007,None,858.2471594060007,None,m,1,1.574235055999452,859.7826175810005,None,859.7826175810005,None,859.7826175810005,None,861.4303645660002,None,861.4303645660002,None,861.4303645660002,None,861.4303645660002,None,,,,,,,,,,,,,,,,,,,,,,,,,,,,,,,,,,,,,,,,,,,,001,139,2020_Feb_18_1501,spring_faces,3.1.5,60.1119372032175,
condition files/Stage1_2.xlsx,,T4,B4,m,"['c', 'm']","['Clue', 'Monopoly']","[-0.15, 0.5]","[0.15, 0.5]",1,1,,,,,,,,,0,9,9,9,0,2,2,7,,,,,,,,,,,,,,,,,,,,,,,,,,,,,,,,,,,,,,,,,,,,,,,,,,,,,,,863.3805453310015,None,863.3805453310015,None,863.3805453310015,None,m,1,4.026861255999393,864.9299309400012,None,864.9299309400012,None,864.9299309400012,None,869.0137892940002,None,869.0137892940002,None,869.0137892940002,None,869.0137892940002,None,,,,,,,,,,,,,,,,,,,,,,,,,,,,,,,,,,,,,,,,,,,,001,139,2020_Feb_18_1501,spring_faces,3.1.5,60.1119372032175,
condition files/Stage1_2.xlsx,,T1,B2,m,"['c', 'm']","['Clue', 'Monopoly']","[-0.15, 0.5]","[0.15, 0.5]",1,1,,,,,,,,,0,9,9,9,0,3,3,2,,,,,,,,,,,,,,,,,,,,,,,,,,,,,,,,,,,,,,,,,,,,,,,,,,,,,,,870.9804429860014,None,870.9804429860014,None,870.9804429860014,None,m,1,1.5463930250007252,872.5306715789993,None,872.5306715789993,None,872.5306715789993,None,874.1304432700017,None,874.1304432700017,None,874.1304432700017,None,874.1304432700017,None,,,,,,,,,,,,,,,,,,,,,,,,,,,,,,,,,,,,,,,,,,,,001,139,2020_Feb_18_1501,spring_faces,3.1.5,60.1119372032175,
condition files/Stage1_2.xlsx,,B2,T2,m,"['c', 'm']","['Clue', 'Monopoly']","[-0.15, 0.5]","[0.15, 0.5]",1,1,,,,,,,,,0,9,9,9,0,4,4,3,,,,,,,,,,,,,,,,,,,,,,,,,,,,,,,,,,,,,,,,,,,,,,,,,,,,,,,876.0970821379997,None,876.0970821379997,None,876.0970821379997,None,m,1,1.1322031349991448,877.6326377730002,None,877.6326377730002,None,877.6326377730002,None,878.8309484040001,None,878.8309484040001,None,878.8309484040001,None,878.8309484040001,None,,,,,,,,,,,,,,,,,,,,,,,,,,,,,,,,,,,,,,,,,,,,001,139,2020_Feb_18_1501,spring_faces,3.1.5,60.1119372032175,
condition files/Stage1_2.xlsx,,T2,B1,c,"['c', 'm']","['Clue', 'Monopoly']","[-0.15, 0.5]","[0.15, 0.5]",1,1,,,,,,,,,0,9,9,9,0,5,5,1,,,,,,,,,,,,,,,,,,,,,,,,,,,,,,,,,,,,,,,,,,,,,,,,,,,,,,,880.7969647499995,None,880.7969647499995,None,880.7969647499995,None,c,1,1.1365060870011803,882.3323706500014,None,882.3323706500014,None,882.3323706500014,None,883.5301993450012,None,883.5301993450012,None,883.5301993450012,None,883.5301993450012,None,,,,,,,,,,,,,,,,,,,,,,,,,,,,,,,,,,,,,,,,,,,,001,139,2020_Feb_18_1501,spring_faces,3.1.5,60.1119372032175,
condition files/Stage1_2.xlsx,,B1,T1,c,"['c', 'm']","['Clue', 'Monopoly']","[-0.15, 0.5]","[0.15, 0.5]",1,1,,,,,,,,,0,9,9,9,0,6,6,0,,,,,,,,,,,,,,,,,,,,,,,,,,,,,,,,,,,,,,,,,,,,,,,,,,,,,,,885.4964491700011,None,885.4964491700011,None,885.4964491700011,None,c,1,2.5986267579974083,887.0302348209989,None,887.0302348209989,None,887.0302348209989,None,889.6805696970005,None,889.6805696970005,None,889.6805696970005,None,889.6805696970005,None,,,,,,,,,,,,,,,,,,,,,,,,,,,,,,,,,,,,,,,,,,,,001,139,2020_Feb_18_1501,spring_faces,3.1.5,60.1119372032175,
condition files/Stage1_2.xlsx,,T3,B3,c,"['c', 'm']","['Clue', 'Monopoly']","[-0.15, 0.5]","[0.15, 0.5]",1,1,,,,,,,,,0,9,9,9,0,7,7,4,,,,,,,,,,,,,,,,,,,,,,,,,,,,,,,,,,,,,,,,,,,,,,,,,,,,,,,891.6466778829999,None,891.6466778829999,None,891.6466778829999,None,c,1,1.1193435169989243,893.1975079420008,None,893.1975079420008,None,893.1975079420008,None,894.3804266160005,None,894.3804266160005,None,894.3804266160005,None,894.3804266160005,None,,,,,,,,,,,,,,,,,,,,,,,,,,,,,,,,,,,,,,,,,,,,001,139,2020_Feb_18_1501,spring_faces,3.1.5,60.1119372032175,
condition files/Stage1_1.xlsx,,T4,B3,m,"['c', 'm']","['Clue', 'Monopoly']","[-0.15, 0.5]","[0.15, 0.5]",1,1,,,,,,,,,0,10,10,10,0,0,0,6,,,,,,,,,,,,,,,,,,,,,,,,,,,,,,,,,,,,,,,,,,,,,,,,,,,,,,,896.3639194700008,None,896.3639194700008,None,896.3639194700008,None,m,1,2.3870309019985143,897.9138377380004,None,897.9138377380004,None,897.9138377380004,None,900.3646459049996,None,900.3646459049996,None,900.3646459049996,None,900.3646459049996,None,,,,,,,,,,,,,,,,,,,,,,,,,,,,,,,,,,,,,,,,,,,,001,139,2020_Feb_18_1501,spring_faces,3.1.5,60.1119372032175,
condition files/Stage1_1.xlsx,,T3,B4,c,"['c', 'm']","['Clue', 'Monopoly']","[-0.15, 0.5]","[0.15, 0.5]",1,1,,,,,,,,,0,10,10,10,0,1,1,5,,,,,,,,,,,,,,,,,,,,,,,,,,,,,,,,,,,,,,,,,,,,,,,,,,,,,,,902.3303875980018,None,902.3303875980018,None,902.3303875980018,None,c,1,1.2669918589999725,903.8658753480013,None,903.8658753480013,None,903.8658753480013,None,905.1998274790021,None,905.1998274790021,None,905.1998274790021,None,905.1998274790021,None,,,,,,,,,,,,,,,,,,,,,,,,,,,,,,,,,,,,,,,,,,,,001,139,2020_Feb_18_1501,spring_faces,3.1.5,60.1119372032175,
condition files/Stage1_1.xlsx,,B1,T2,c,"['c', 'm']","['Clue', 'Monopoly']","[-0.15, 0.5]","[0.15, 0.5]",1,1,,,,,,,,,0,10,10,10,0,2,2,1,,,,,,,,,,,,,,,,,,,,,,,,,,,,,,,,,,,,,,,,,,,,,,,,,,,,,,,907.1636113550012,None,907.1636113550012,None,907.1636113550012,None,c,1,1.1544725780004228,908.6984596469993,None,908.6984596469993,None,908.6984596469993,None,909.914016019,None,909.914016019,None,909.914016019,None,909.914016019,None,,,,,,,,,,,,,,,,,,,,,,,,,,,,,,,,,,,,,,,,,,,,001,139,2020_Feb_18_1501,spring_faces,3.1.5,60.1119372032175,
condition files/Stage1_1.xlsx,,B2,T1,m,"['c', 'm']","['Clue', 'Monopoly']","[-0.15, 0.5]","[0.15, 0.5]",1,1,,,,,,,,,0,10,10,10,0,3,3,2,,,,,,,,,,,,,,,,,,,,,,,,,,,,,,,,,,,,,,,,,,,,,,,,,,,,,,,911.8804023990015,None,911.8804023990015,None,911.8804023990015,None,m,1,1.2545754729981127,913.4302810129993,None,913.4302810129993,None,913.4302810129993,None,914.7493846450016,None,914.7493846450016,None,914.7493846450016,None,914.7493846450016,None,,,,,,,,,,,,,,,,,,,,,,,,,,,,,,,,,,,,,,,,,,,,001,139,2020_Feb_18_1501,spring_faces,3.1.5,60.1119372032175,
condition files/Stage1_1.xlsx,,B4,T4,m,"['c', 'm']","['Clue', 'Monopoly']","[-0.15, 0.5]","[0.15, 0.5]",1,1,,,,,,,,,0,10,10,10,0,4,4,7,,,,,,,,,,,,,,,,,,,,,,,,,,,,,,,,,,,,,,,,,,,,,,,,,,,,,,,916.7132311370005,None,916.7132311370005,None,916.7132311370005,None,m,1,4.165482146003342,918.2473690810002,None,918.2473690810002,None,918.2473690810002,None,922.4638792020014,None,922.4638792020014,None,922.4638792020014,None,922.4638792020014,None,,,,,,,,,,,,,,,,,,,,,,,,,,,,,,,,,,,,,,,,,,,,001,139,2020_Feb_18_1501,spring_faces,3.1.5,60.1119372032175,
condition files/Stage1_1.xlsx,,T2,B2,m,"['c', 'm']","['Clue', 'Monopoly']","[-0.15, 0.5]","[0.15, 0.5]",1,1,,,,,,,,,0,10,10,10,0,5,5,3,,,,,,,,,,,,,,,,,,,,,,,,,,,,,,,,,,,,,,,,,,,,,,,,,,,,,,,924.4297871950002,None,924.4297871950002,None,924.4297871950002,None,m,1,1.5846400860027643,925.9641592049993,None,925.9641592049993,None,925.9641592049993,None,927.613938814,None,927.613938814,None,927.613938814,None,927.613938814,None,,,,,,,,,,,,,,,,,,,,,,,,,,,,,,,,,,,,,,,,,,,,001,139,2020_Feb_18_1501,spring_faces,3.1.5,60.1119372032175,
condition files/Stage1_1.xlsx,,T1,B1,c,"['c', 'm']","['Clue', 'Monopoly']","[-0.15, 0.5]","[0.15, 0.5]",1,1,,,,,,,,,0,10,10,10,0,6,6,0,,,,,,,,,,,,,,,,,,,,,,,,,,,,,,,,,,,,,,,,,,,,,,,,,,,,,,,929.5803468020022,None,929.5803468020022,None,929.5803468020022,None,c,1,1.0421154180003214,931.1307936459998,None,931.1307936459998,None,931.1307936459998,None,932.246852160999,None,932.246852160999,None,932.246852160999,None,932.246852160999,None,,,,,,,,,,,,,,,,,,,,,,,,,,,,,,,,,,,,,,,,,,,,001,139,2020_Feb_18_1501,spring_faces,3.1.5,60.1119372032175,
condition files/Stage1_1.xlsx,,B3,T3,c,"['c', 'm']","['Clue', 'Monopoly']","[-0.15, 0.5]","[0.15, 0.5]",1,1,,,,,,,,,0,10,10,10,0,7,7,4,,,,,,,,,,,,,,,,,,,,,,,,,,,,,,,,,,,,,,,,,,,,,,,,,,,,,,,934.1964141319986,None,934.1964141319986,None,934.1964141319986,None,c,1,0.8252957789991342,935.7314929550012,None,935.7314929550012,None,935.7314929550012,None,936.6137450259994,None,936.6137450259994,None,936.6137450259994,None,936.6137450259994,None,,,,,,,,,,,,,,,,,,,,,,,,,,,,,,,,,,,,,,,,,,,,001,139,2020_Feb_18_1501,spring_faces,3.1.5,60.1119372032175,
condition files/Stage1_2.xlsx,,T2,B1,c,"['c', 'm']","['Clue', 'Monopoly']","[-0.15, 0.5]","[0.15, 0.5]",1,1,,,,,,,,,0,11,11,11,0,0,0,1,,,,,,,,,,,,,,,,,,,,,,,,,,,,,,,,,,,,,,,,,,,,,,,,,,,,,,,938.5970478439995,None,938.5970478439995,None,938.5970478439995,None,c,1,1.418708560999221,940.1301659269993,None,940.1301659269993,None,940.1301659269993,None,941.6138935679992,None,941.6138935679992,None,941.6138935679992,None,941.6138935679992,None,,,,,,,,,,,,,,,,,,,,,,,,,,,,,,,,,,,,,,,,,,,,001,139,2020_Feb_18_1501,spring_faces,3.1.5,60.1119372032175,
condition files/Stage1_2.xlsx,,B4,T3,c,"['c', 'm']","['Clue', 'Monopoly']","[-0.15, 0.5]","[0.15, 0.5]",1,1,,,,,,,,,0,11,11,11,0,1,1,5,,,,,,,,,,,,,,,,,,,,,,,,,,,,,,,,,,,,,,,,,,,,,,,,,,,,,,,943.5804703489994,None,943.5804703489994,None,943.5804703489994,None,c,1,0.707446077001805,945.1134829539988,None,945.1134829539988,None,945.1134829539988,None,945.880618817002,None,945.880618817002,None,945.880618817002,None,945.880618817002,None,,,,,,,,,,,,,,,,,,,,,,,,,,,,,,,,,,,,,,,,,,,,001,139,2020_Feb_18_1501,spring_faces,3.1.5,60.1119372032175,
condition files/Stage1_2.xlsx,,B1,T1,c,"['c', 'm']","['Clue', 'Monopoly']","[-0.15, 0.5]","[0.15, 0.5]",1,1,,,,,,,,,0,11,11,11,0,2,2,0,,,,,,,,,,,,,,,,,,,,,,,,,,,,,,,,,,,,,,,,,,,,,,,,,,,,,,,947.8466029859992,None,947.8466029859992,None,947.8466029859992,None,c,1,1.0636409469989303,949.3812145730008,None,949.3812145730008,None,949.3812145730008,None,950.497276418002,None,950.497276418002,None,950.497276418002,None,950.497276418002,None,,,,,,,,,,,,,,,,,,,,,,,,,,,,,,,,,,,,,,,,,,,,001,139,2020_Feb_18_1501,spring_faces,3.1.5,60.1119372032175,
condition files/Stage1_2.xlsx,,T4,B4,m,"['c', 'm']","['Clue', 'Monopoly']","[-0.15, 0.5]","[0.15, 0.5]",1,1,,,,,,,,,0,11,11,11,0,3,3,7,,,,,,,,,,,,,,,,,,,,,,,,,,,,,,,,,,,,,,,,,,,,,,,,,,,,,,,952.463581502001,None,952.463581502001,None,952.463581502001,None,m,1,2.126807999000448,953.9980539040007,None,953.9980539040007,None,953.9980539040007,None,956.1972689370014,None,956.1972689370014,None,956.1972689370014,None,956.1972689370014,None,,,,,,,,,,,,,,,,,,,,,,,,,,,,,,,,,,,,,,,,,,,,001,139,2020_Feb_18_1501,spring_faces,3.1.5,60.1119372032175,
condition files/Stage1_2.xlsx,,B2,T2,m,"['c', 'm']","['Clue', 'Monopoly']","[-0.15, 0.5]","[0.15, 0.5]",1,1,,,,,,,,,0,11,11,11,0,4,4,3,,,,,,,,,,,,,,,,,,,,,,,,,,,,,,,,,,,,,,,,,,,,,,,,,,,,,,,958.1464249669989,None,958.1464249669989,None,958.1464249669989,None,m,1,1.0822824649985705,959.6825356469999,None,959.6825356469999,None,959.6825356469999,None,960.8306324719997,None,960.8306324719997,None,960.8306324719997,None,960.8306324719997,None,,,,,,,,,,,,,,,,,,,,,,,,,,,,,,,,,,,,,,,,,,,,001,139,2020_Feb_18_1501,spring_faces,3.1.5,60.1119372032175,
condition files/Stage1_2.xlsx,,T3,B3,c,"['c', 'm']","['Clue', 'Monopoly']","[-0.15, 0.5]","[0.15, 0.5]",1,1,,,,,,,,,0,11,11,11,0,5,5,4,,,,,,,,,,,,,,,,,,,,,,,,,,,,,,,,,,,,,,,,,,,,,,,,,,,,,,,962.7972129769987,None,962.7972129769987,None,962.7972129769987,None,c,1,0.6734058069996536,964.3315289240018,None,964.3315289240018,None,964.3315289240018,None,965.0649638620016,None,965.0649638620016,None,965.0649638620016,None,965.0649638620016,None,,,,,,,,,,,,,,,,,,,,,,,,,,,,,,,,,,,,,,,,,,,,001,139,2020_Feb_18_1501,spring_faces,3.1.5,60.1119372032175,
condition files/Stage1_2.xlsx,,B3,T4,m,"['c', 'm']","['Clue', 'Monopoly']","[-0.15, 0.5]","[0.15, 0.5]",1,1,,,,,,,,,0,11,11,11,0,6,6,6,,,,,,,,,,,,,,,,,,,,,,,,,,,,,,,,,,,,,,,,,,,,,,,,,,,,,,,967.0298192709997,None,967.0298192709997,None,967.0298192709997,None,m,1,1.001002494002023,968.5638406210019,None,968.5638406210019,None,968.5638406210019,None,969.6470997309989,None,969.6470997309989,None,969.6470997309989,None,969.6470997309989,None,,,,,,,,,,,,,,,,,,,,,,,,,,,,,,,,,,,,,,,,,,,,001,139,2020_Feb_18_1501,spring_faces,3.1.5,60.1119372032175,
condition files/Stage1_2.xlsx,,T1,B2,m,"['c', 'm']","['Clue', 'Monopoly']","[-0.15, 0.5]","[0.15, 0.5]",1,1,,,,,,,,,0,11,11,11,0,7,7,2,,,,,,,,,,,,,,,,,,,,,,,,,,,,,,,,,,,,,,,,,,,,,,,,,,,,,,,971.5967079090005,None,971.5967079090005,None,971.5967079090005,None,m,1,0.8001930409991473,973.1326825249998,None,973.1326825249998,None,973.1326825249998,None,973.9971004379986,None,973.9971004379986,None,973.9971004379986,None,973.9971004379986,None,,,,,,,,,,,,,,,,,,,,,,,,,,,,,,,,,,,,,,,,,,,,001,139,2020_Feb_18_1501,spring_faces,3.1.5,60.1119372032175,
,,,,,,,,,,,,,,,,,,,,,,,,,,,,,,,,,,,,,,,,,,,,,,,,,,,,,,,,,,,,,,,,,,,,,,,,,,,,,,,,,,,,,,,,,,,,,,,,,,,,,,,,,,,,,,,,975.9807440010009,None,space,17.128257290001784,980.9805802010014,None,,,,,,,,,,,,,,,,,,,,,,,,,,,,,,001,139,2020_Feb_18_1501,spring_faces,3.1.5,60.1119372032175,
condition files/Stage2_1.xlsx,,B4,T4,r,"['s', 'r']","['Stratego', 'Risk']","[-0.15, 0.5]","[0.15, 0.5]",1,1,,,,,,,,,,,,,,,,,0,0,0,0,0,0,0,5,,,,,,,,,,,,,,,,,,,,,,,,,,,,,,,,,,,,,,,,,,,,,,,998.1634254560013,None,998.1634254560013,None,998.1634254560013,None,s,0,2.1076407879991166,999.6972830150007,None,999.6972830150007,None,999.6972830150007,None,1001.8809699580015,None,1001.8809699580015,None,1001.8809699580015,None,1001.8809699580015,None,,,,,,,,,,,,,,,980.9805802010014,None,,,,,,,,,,,,,,,,,,,,,,,,,,,,001,139,2020_Feb_18_1501,spring_faces,3.1.5,60.1119372032175,
condition files/Stage2_1.xlsx,,B2,T2,r,"['s', 'r']","['Stratego', 'Risk']","[-0.15, 0.5]","[0.15, 0.5]",1,1,,,,,,,,,,,,,,,,,0,0,0,0,0,1,1,3,,,,,,,,,,,,,,,,,,,,,,,,,,,,,,,,,,,,,,,,,,,,,,,1003.830200837001,None,1003.830200837001,None,1003.830200837001,None,r,1,1.0159911930022645,1005.380851326001,None,1005.380851326001,None,1005.380851326001,None,1006.4476830470012,None,1006.4476830470012,None,1006.4476830470012,None,1006.4476830470012,None,,,,,,,,,,,,,,,,,,,,,,,,,,,,,,,,,,,,,,,,,,,,001,139,2020_Feb_18_1501,spring_faces,3.1.5,60.1119372032175,
condition files/Stage2_1.xlsx,,T1,B1,s,"['s', 'r']","['Stratego', 'Risk']","[-0.15, 0.5]","[0.15, 0.5]",1,1,,,,,,,,,,,,,,,,,0,0,0,0,0,2,2,2,,,,,,,,,,,,,,,,,,,,,,,,,,,,,,,,,,,,,,,,,,,,,,,1008.4137804890015,None,1008.4137804890015,None,1008.4137804890015,None,s,1,1.3295248270005686,1009.9473428370002,None,1009.9473428370002,None,1009.9473428370002,None,1011.3324684420004,None,1011.3324684420004,None,1011.3324684420004,None,1011.3324684420004,None,,,,,,,,,,,,,,,,,,,,,,,,,,,,,,,,,,,,,,,,,,,,001,139,2020_Feb_18_1501,spring_faces,3.1.5,60.1119372032175,
condition files/Stage2_1.xlsx,,B6,T6,r,"['s', 'r']","['Stratego', 'Risk']","[-0.15, 0.5]","[0.15, 0.5]",1,1,,,,,,,,,,,,,,,,,0,0,0,0,0,3,3,1,,,,,,,,,,,,,,,,,,,,,,,,,,,,,,,,,,,,,,,,,,,,,,,1013.2970389200018,None,1013.2970389200018,None,1013.2970389200018,None,r,1,1.5346534000018437,1014.8301676320007,None,1014.8301676320007,None,1014.8301676320007,None,1016.4472457320007,None,1016.4472457320007,None,1016.4472457320007,None,1016.4472457320007,None,,,,,,,,,,,,,,,,,,,,,,,,,,,,,,,,,,,,,,,,,,,,001,139,2020_Feb_18_1501,spring_faces,3.1.5,60.1119372032175,
condition files/Stage2_1.xlsx,,T5,B5,s,"['s', 'r']","['Stratego', 'Risk']","[-0.15, 0.5]","[0.15, 0.5]",1,1,,,,,,,,,,,,,,,,,0,0,0,0,0,4,4,0,,,,,,,,,,,,,,,,,,,,,,,,,,,,,,,,,,,,,,,,,,,,,,,1018.3970799330018,None,1018.3970799330018,None,1018.3970799330018,None,s,1,3.00972499099953,1019.931214100001,None,1019.931214100001,None,1019.931214100001,None,1023.0142119820011,None,1023.0142119820011,None,1023.0142119820011,None,1023.0142119820011,None,,,,,,,,,,,,,,,,,,,,,,,,,,,,,,,,,,,,,,,,,,,,001,139,2020_Feb_18_1501,spring_faces,3.1.5,60.1119372032175,
condition files/Stage2_1.xlsx,,T3,B3,s,"['s', 'r']","['Stratego', 'Risk']","[-0.15, 0.5]","[0.15, 0.5]",1,1,,,,,,,,,,,,,,,,,0,0,0,0,0,5,5,4,,,,,,,,,,,,,,,,,,,,,,,,,,,,,,,,,,,,,,,,,,,,,,,1024.9637795279996,None,1024.9637795279996,None,1024.9637795279996,None,r,0,2.33106852399942,1026.4977967010018,None,1026.4977967010018,None,1026.4977967010018,None,1028.8804262109988,None,1028.8804262109988,None,1028.8804262109988,None,1028.8804262109988,None,,,,,,,,,,,,,,,,,,,,,,,,,,,,,,,,,,,,,,,,,,,,001,139,2020_Feb_18_1501,spring_faces,3.1.5,60.1119372032175,
condition files/Stage2_2.xlsx,,B3,T3,s,"['s', 'r']","['Stratego', 'Risk']","[-0.15, 0.5]","[0.15, 0.5]",1,1,,,,,,,,,,,,,,,,,0,1,1,1,0,0,0,4,,,,,,,,,,,,,,,,,,,,,,,,,,,,,,,,,,,,,,,,,,,,,,,1030.8642184429991,None,1030.8642184429991,None,1030.8642184429991,None,s,1,1.21476971499942,1032.41408744,None,1032.41408744,None,1032.41408744,None,1033.6802080179987,None,1033.6802080179987,None,1033.6802080179987,None,1033.6802080179987,None,,,,,,,,,,,,,,,,,,,,,,,,,,,,,,,,,,,,,,,,,,,,001,139,2020_Feb_18_1501,spring_faces,3.1.5,60.1119372032175,
condition files/Stage2_2.xlsx,,B5,T5,s,"['s', 'r']","['Stratego', 'Risk']","[-0.15, 0.5]","[0.15, 0.5]",1,1,,,,,,,,,,,,,,,,,0,1,1,1,0,1,1,0,,,,,,,,,,,,,,,,,,,,,,,,,,,,,,,,,,,,,,,,,,,,,,,1035.6470873380022,None,1035.6470873380022,None,1035.6470873380022,None,r,0,1.631363087999489,1037.197485621,None,1037.197485621,None,1037.197485621,None,1038.8801145090001,None,1038.8801145090001,None,1038.8801145090001,None,1038.8801145090001,None,,,,,,,,,,,,,,,,,,,,,,,,,,,,,,,,,,,,,,,,,,,,001,139,2020_Feb_18_1501,spring_faces,3.1.5,60.1119372032175,
condition files/Stage2_2.xlsx,,B1,T1,s,"['s', 'r']","['Stratego', 'Risk']","[-0.15, 0.5]","[0.15, 0.5]",1,1,,,,,,,,,,,,,,,,,0,1,1,1,0,2,2,2,,,,,,,,,,,,,,,,,,,,,,,,,,,,,,,,,,,,,,,,,,,,,,,1040.8464818220018,None,1040.8464818220018,None,1040.8464818220018,None,s,1,2.2561667839981965,1042.380697847002,None,1042.380697847002,None,1042.380697847002,None,1044.697265576,None,1044.697265576,None,1044.697265576,None,1044.697265576,None,,,,,,,,,,,,,,,,,,,,,,,,,,,,,,,,,,,,,,,,,,,,001,139,2020_Feb_18_1501,spring_faces,3.1.5,60.1119372032175,
condition files/Stage2_2.xlsx,,T2,B2,r,"['s', 'r']","['Stratego', 'Risk']","[-0.15, 0.5]","[0.15, 0.5]",1,1,,,,,,,,,,,,,,,,,0,1,1,1,0,3,3,3,,,,,,,,,,,,,,,,,,,,,,,,,,,,,,,,,,,,,,,,,,,,,,,1046.663898065999,None,1046.663898065999,None,1046.663898065999,None,r,1,0.5839536110033805,1048.1968692299997,None,1048.1968692299997,None,1048.1968692299997,None,1048.8490587369997,None,1048.8490587369997,None,1048.8490587369997,None,1048.8490587369997,None,,,,,,,,,,,,,,,,,,,,,,,,,,,,,,,,,,,,,,,,,,,,001,139,2020_Feb_18_1501,spring_faces,3.1.5,60.1119372032175,
condition files/Stage2_2.xlsx,,T6,B6,r,"['s', 'r']","['Stratego', 'Risk']","[-0.15, 0.5]","[0.15, 0.5]",1,1,,,,,,,,,,,,,,,,,0,1,1,1,0,4,4,1,,,,,,,,,,,,,,,,,,,,,,,,,,,,,,,,,,,,,,,,,,,,,,,1050.813361523,None,1050.813361523,None,1050.813361523,None,r,1,2.4651480699976673,1052.3477021450017,None,1052.3477021450017,None,1052.3477021450017,None,1054.864090338,None,1054.864090338,None,1054.864090338,None,1054.864090338,None,,,,,,,,,,,,,,,,,,,,,,,,,,,,,,,,,,,,,,,,,,,,001,139,2020_Feb_18_1501,spring_faces,3.1.5,60.1119372032175,
condition files/Stage2_2.xlsx,,T4,B4,r,"['s', 'r']","['Stratego', 'Risk']","[-0.15, 0.5]","[0.15, 0.5]",1,1,,,,,,,,,,,,,,,,,0,1,1,1,0,5,5,5,,,,,,,,,,,,,,,,,,,,,,,,,,,,,,,,,,,,,,,,,,,,,,,1056.8303605440015,None,1056.8303605440015,None,1056.8303605440015,None,r,1,4.080854871997872,1058.3639995490012,None,1058.3639995490012,None,1058.3639995490012,None,1062.4969031,None,1062.4969031,None,1062.4969031,None,1062.4969031,None,,,,,,,,,,,,,,,,,,,,,,,,,,,,,,,,,,,,,,,,,,,,001,139,2020_Feb_18_1501,spring_faces,3.1.5,60.1119372032175,
condition files/Stage2_1.xlsx,,T5,B5,s,"['s', 'r']","['Stratego', 'Risk']","[-0.15, 0.5]","[0.15, 0.5]",1,1,,,,,,,,,,,,,,,,,0,2,2,2,0,0,0,0,,,,,,,,,,,,,,,,,,,,,,,,,,,,,,,,,,,,,,,,,,,,,,,1064.4801335420016,None,1064.4801335420016,None,1064.4801335420016,None,s,1,1.3263002910025534,1066.0146530540005,None,1066.0146530540005,None,1066.0146530540005,None,1067.399728676999,None,1067.399728676999,None,1067.399728676999,None,1067.399728676999,None,,,,,,,,,,,,,,,,,,,,,,,,,,,,,,,,,,,,,,,,,,,,001,139,2020_Feb_18_1501,spring_faces,3.1.5,60.1119372032175,
condition files/Stage2_1.xlsx,,T1,B1,s,"['s', 'r']","['Stratego', 'Risk']","[-0.15, 0.5]","[0.15, 0.5]",1,1,,,,,,,,,,,,,,,,,0,2,2,2,0,1,1,2,,,,,,,,,,,,,,,,,,,,,,,,,,,,,,,,,,,,,,,,,,,,,,,1069.363688690999,None,1069.363688690999,None,1069.363688690999,None,r,0,4.66686782800025,1070.913953629999,None,1070.913953629999,None,1070.913953629999,None,1075.647234201002,None,1075.647234201002,None,1075.647234201002,None,1075.647234201002,None,,,,,,,,,,,,,,,,,,,,,,,,,,,,,,,,,,,,,,,,,,,,001,139,2020_Feb_18_1501,spring_faces,3.1.5,60.1119372032175,
condition files/Stage2_1.xlsx,,B2,T2,r,"['s', 'r']","['Stratego', 'Risk']","[-0.15, 0.5]","[0.15, 0.5]",1,1,,,,,,,,,,,,,,,,,0,2,2,2,0,2,2,3,,,,,,,,,,,,,,,,,,,,,,,,,,,,,,,,,,,,,,,,,,,,,,,1077.6136659980002,None,1077.6136659980002,None,1077.6136659980002,None,r,1,3.4255942910021986,1079.147354560002,None,1079.147354560002,None,1079.147354560002,None,1082.6465809760011,None,1082.6465809760011,None,1082.6465809760011,None,1082.6465809760011,None,,,,,,,,,,,,,,,,,,,,,,,,,,,,,,,,,,,,,,,,,,,,001,139,2020_Feb_18_1501,spring_faces,3.1.5,60.1119372032175,
condition files/Stage2_1.xlsx,,B4,T4,r,"['s', 'r']","['Stratego', 'Risk']","[-0.15, 0.5]","[0.15, 0.5]",1,1,,,,,,,,,,,,,,,,,0,2,2,2,0,3,3,5,,,,,,,,,,,,,,,,,,,,,,,,,,,,,,,,,,,,,,,,,,,,,,,1084.5964360770013,None,1084.5964360770013,None,1084.5964360770013,None,r,1,5.705747064002935,1086.1470498870003,None,1086.1470498870003,None,1086.1470498870003,None,1091.9139488250003,None,1091.9139488250003,None,1091.9139488250003,None,1091.9139488250003,None,,,,,,,,,,,,,,,,,,,,,,,,,,,,,,,,,,,,,,,,,,,,001,139,2020_Feb_18_1501,spring_faces,3.1.5,60.1119372032175,
condition files/Stage2_1.xlsx,,B6,T6,r,"['s', 'r']","['Stratego', 'Risk']","[-0.15, 0.5]","[0.15, 0.5]",1,1,,,,,,,,,,,,,,,,,0,2,2,2,0,4,4,1,,,,,,,,,,,,,,,,,,,,,,,,,,,,,,,,,,,,,,,,,,,,,,,1093.8803875020021,None,1093.8803875020021,None,1093.8803875020021,None,r,1,1.941126069999882,1095.4157076949996,None,1095.4157076949996,None,1095.4157076949996,None,1097.4135123839988,None,1097.4135123839988,None,1097.4135123839988,None,1097.4135123839988,None,,,,,,,,,,,,,,,,,,,,,,,,,,,,,,,,,,,,,,,,,,,,001,139,2020_Feb_18_1501,spring_faces,3.1.5,60.1119372032175,
condition files/Stage2_1.xlsx,,T3,B3,s,"['s', 'r']","['Stratego', 'Risk']","[-0.15, 0.5]","[0.15, 0.5]",1,1,,,,,,,,,,,,,,,,,0,2,2,2,0,5,5,4,,,,,,,,,,,,,,,,,,,,,,,,,,,,,,,,,,,,,,,,,,,,,,,1099.380390192,None,1099.380390192,None,1099.380390192,None,s,1,1.8487786929981667,1100.9160378410015,None,1100.9160378410015,None,1100.9160378410015,None,1102.8468073330005,None,1102.8468073330005,None,1102.8468073330005,None,1102.8468073330005,None,,,,,,,,,,,,,,,,,,,,,,,,,,,,,,,,,,,,,,,,,,,,001,139,2020_Feb_18_1501,spring_faces,3.1.5,60.1119372032175,
condition files/Stage2_2.xlsx,,B5,T5,s,"['s', 'r']","['Stratego', 'Risk']","[-0.15, 0.5]","[0.15, 0.5]",1,1,,,,,,,,,,,,,,,,,0,3,3,3,0,0,0,0,,,,,,,,,,,,,,,,,,,,,,,,,,,,,,,,,,,,,,,,,,,,,,,1104.813937908999,None,1104.813937908999,None,1104.813937908999,None,s,1,2.881370193001203,1106.3634824210021,None,1106.3634824210021,None,1106.3634824210021,None,1109.296422673,None,1109.296422673,None,1109.296422673,None,1109.296422673,None,,,,,,,,,,,,,,,,,,,,,,,,,,,,,,,,,,,,,,,,,,,,001,139,2020_Feb_18_1501,spring_faces,3.1.5,60.1119372032175,
condition files/Stage2_2.xlsx,,B3,T3,s,"['s', 'r']","['Stratego', 'Risk']","[-0.15, 0.5]","[0.15, 0.5]",1,1,,,,,,,,,,,,,,,,,0,3,3,3,0,1,1,4,,,,,,,,,,,,,,,,,,,,,,,,,,,,,,,,,,,,,,,,,,,,,,,1111.2637352150014,None,1111.2637352150014,None,1111.2637352150014,None,s,1,4.975078440998914,1112.8138464000003,None,1112.8138464000003,None,1112.8138464000003,None,1117.8469943909986,None,1117.8469943909986,None,1117.8469943909986,None,1117.8469943909986,None,,,,,,,,,,,,,,,,,,,,,,,,,,,,,,,,,,,,,,,,,,,,001,139,2020_Feb_18_1501,spring_faces,3.1.5,60.1119372032175,
condition files/Stage2_2.xlsx,,T6,B6,r,"['s', 'r']","['Stratego', 'Risk']","[-0.15, 0.5]","[0.15, 0.5]",1,1,,,,,,,,,,,,,,,,,0,3,3,3,0,2,2,1,,,,,,,,,,,,,,,,,,,,,,,,,,,,,,,,,,,,,,,,,,,,,,,1119.8130977850014,None,1119.8130977850014,None,1119.8130977850014,None,r,1,0.8097434250012157,1121.347080251002,None,1121.347080251002,None,1121.347080251002,None,1122.2153419220012,None,1122.2153419220012,None,1122.2153419220012,None,1122.2153419220012,None,,,,,,,,,,,,,,,,,,,,,,,,,,,,,,,,,,,,,,,,,,,,001,139,2020_Feb_18_1501,spring_faces,3.1.5,60.1119372032175,
condition files/Stage2_2.xlsx,,T4,B4,r,"['s', 'r']","['Stratego', 'Risk']","[-0.15, 0.5]","[0.15, 0.5]",1,1,,,,,,,,,,,,,,,,,0,3,3,3,0,3,3,5,,,,,,,,,,,,,,,,,,,,,,,,,,,,,,,,,,,,,,,,,,,,,,,1124.180600227999,None,1124.180600227999,None,1124.180600227999,None,r,1,2.0279375959980825,1125.7130123669995,None,1125.7130123669995,None,1125.7130123669995,None,1127.7969895739989,None,1127.7969895739989,None,1127.7969895739989,None,1127.7969895739989,None,,,,,,,,,,,,,,,,,,,,,,,,,,,,,,,,,,,,,,,,,,,,001,139,2020_Feb_18_1501,spring_faces,3.1.5,60.1119372032175,
condition files/Stage2_2.xlsx,,T2,B2,r,"['s', 'r']","['Stratego', 'Risk']","[-0.15, 0.5]","[0.15, 0.5]",1,1,,,,,,,,,,,,,,,,,0,3,3,3,0,4,4,3,,,,,,,,,,,,,,,,,,,,,,,,,,,,,,,,,,,,,,,,,,,,,,,1129.7637109040006,None,1129.7637109040006,None,1129.7637109040006,None,r,1,0.8920830780007236,1131.2968306809998,None,1131.2968306809998,None,1131.2968306809998,None,1132.2473856760007,None,1132.2473856760007,None,1132.2473856760007,None,1132.2473856760007,None,,,,,,,,,,,,,,,,,,,,,,,,,,,,,,,,,,,,,,,,,,,,001,139,2020_Feb_18_1501,spring_faces,3.1.5,60.1119372032175,
condition files/Stage2_2.xlsx,,B1,T1,s,"['s', 'r']","['Stratego', 'Risk']","[-0.15, 0.5]","[0.15, 0.5]",1,1,,,,,,,,,,,,,,,,,0,3,3,3,0,5,5,2,,,,,,,,,,,,,,,,,,,,,,,,,,,,,,,,,,,,,,,,,,,,,,,1134.2130158670006,None,1134.2130158670006,None,1134.2130158670006,None,s,1,3.8958732950013655,1135.7489937009996,None,1135.7489937009996,None,1135.7489937009996,None,1139.7135849039987,None,1139.7135849039987,None,1139.7135849039987,None,1139.7135849039987,None,,,,,,,,,,,,,,,,,,,,,,,,,,,,,,,,,,,,,,,,,,,,001,139,2020_Feb_18_1501,spring_faces,3.1.5,60.1119372032175,
condition files/Stage2_1.xlsx,,T1,B1,s,"['s', 'r']","['Stratego', 'Risk']","[-0.15, 0.5]","[0.15, 0.5]",1,1,,,,,,,,,,,,,,,,,0,4,4,4,0,0,0,2,,,,,,,,,,,,,,,,,,,,,,,,,,,,,,,,,,,,,,,,,,,,,,,1141.6805637959988,None,1141.6805637959988,None,1141.6805637959988,None,s,1,2.6063980249964516,1143.2305419980003,None,1143.2305419980003,None,1143.2305419980003,None,1145.8965443769994,None,1145.8965443769994,None,1145.8965443769994,None,1145.8965443769994,None,,,,,,,,,,,,,,,,,,,,,,,,,,,,,,,,,,,,,,,,,,,,001,139,2020_Feb_18_1501,spring_faces,3.1.5,60.1119372032175,
condition files/Stage2_1.xlsx,,T5,B5,s,"['s', 'r']","['Stratego', 'Risk']","[-0.15, 0.5]","[0.15, 0.5]",1,1,,,,,,,,,,,,,,,,,0,4,4,4,0,1,1,0,,,,,,,,,,,,,,,,,,,,,,,,,,,,,,,,,,,,,,,,,,,,,,,1147.8628139270004,None,1147.8628139270004,None,1147.8628139270004,None,s,1,2.535168258997146,1149.397700458001,None,1149.397700458001,None,1149.397700458001,None,1151.9971225000008,None,1151.9971225000008,None,1151.9971225000008,None,1151.9971225000008,None,,,,,,,,,,,,,,,,,,,,,,,,,,,,,,,,,,,,,,,,,,,,001,139,2020_Feb_18_1501,spring_faces,3.1.5,60.1119372032175,
condition files/Stage2_1.xlsx,,B4,T4,r,"['s', 'r']","['Stratego', 'Risk']","[-0.15, 0.5]","[0.15, 0.5]",1,1,,,,,,,,,,,,,,,,,0,4,4,4,0,2,2,5,,,,,,,,,,,,,,,,,,,,,,,,,,,,,,,,,,,,,,,,,,,,,,,1153.9634807680013,None,1153.9634807680013,None,1153.9634807680013,None,r,1,2.0182584810027038,1155.498615028002,None,1155.498615028002,None,1155.498615028002,None,1157.5974927880015,None,1157.5974927880015,None,1157.5974927880015,None,1157.5974927880015,None,,,,,,,,,,,,,,,,,,,,,,,,,,,,,,,,,,,,,,,,,,,,001,139,2020_Feb_18_1501,spring_faces,3.1.5,60.1119372032175,
condition files/Stage2_1.xlsx,,T3,B3,s,"['s', 'r']","['Stratego', 'Risk']","[-0.15, 0.5]","[0.15, 0.5]",1,1,,,,,,,,,,,,,,,,,0,4,4,4,0,3,3,4,,,,,,,,,,,,,,,,,,,,,,,,,,,,,,,,,,,,,,,,,,,,,,,1159.5470172880014,None,1159.5470172880014,None,1159.5470172880014,None,s,1,1.1247350280027604,1161.0802099659995,None,1161.0802099659995,None,1161.0802099659995,None,1162.2799705159996,None,1162.2799705159996,None,1162.2799705159996,None,1162.2799705159996,None,,,,,,,,,,,,,,,,,,,,,,,,,,,,,,,,,,,,,,,,,,,,001,139,2020_Feb_18_1501,spring_faces,3.1.5,60.1119372032175,
