condsFile,subStage,cue1,cue2,correct,responseKeys,responseNames,cue1Position,cue2Position,cue1Opacity,cue2Opacity,stageLoop0.thisRepN,stageLoop0.thisTrialN,stageLoop0.thisN,stageLoop0.thisIndex,blockLoop0.thisRepN,blockLoop0.thisTrialN,blockLoop0.thisN,blockLoop0.thisIndex,stage1Loop.thisRepN,stage1Loop.thisTrialN,stage1Loop.thisN,stage1Loop.thisIndex,blockLoop1.thisRepN,blockLoop1.thisTrialN,blockLoop1.thisN,blockLoop1.thisIndex,stage2Loop.thisRepN,stage2Loop.thisTrialN,stage2Loop.thisN,stage2Loop.thisIndex,blockLoop2.thisRepN,blockLoop2.thisTrialN,blockLoop2.thisN,blockLoop2.thisIndex,testLoop.thisRepN,testLoop.thisTrialN,testLoop.thisN,testLoop.thisIndex,blockLoopTest.thisRepN,blockLoopTest.thisTrialN,blockLoopTest.thisN,blockLoopTest.thisIndex,cuePics,id_instr_text.started,id_instr_text.stopped,space_to_continue_2.started,space_to_continue_2.stopped,end_instructions_resp_3.keys,end_instructions_resp_3.rt,end_instructions_resp_3.started,end_instructions_resp_3.stopped,id_input_instr.started,id_input_instr.stopped,id_input_rect.started,id_input_rect.stopped,id_input_resp.keys,id_input_resp.rt,id_input_resp.started,id_input_resp.stopped,sonaID,id_input_text.started,id_input_text.stopped,final_text.started,final_text.stopped,instructions.started,instructions.stopped,end_instructions_resp.keys,end_instructions_resp.rt,end_instructions_resp.started,end_instructions_resp.stopped,space_to_continue.started,space_to_continue.stopped,instructions_stage0.started,instructions_stage0.stopped,end_instructions_resp_stage0.keys,end_instructions_resp_stage0.rt,end_instructions_resp_stage0.started,end_instructions_resp_stage0.stopped,space_to_continue_stage0.started,space_to_continue_stage0.stopped,text.started,text.stopped,resp_text1.started,resp_text1.stopped,resp_text2.started,resp_text2.stopped,trial_resp.keys,trial_resp.corr,trial_resp.rt,trial_resp.started,trial_resp.stopped,cue1Image.started,cue1Image.stopped,cue2Image.started,cue2Image.stopped,cue1Image_fb.started,cue1Image_fb.stopped,cue2Image_fb.started,cue2Image_fb.stopped,fb_text_answer.started,fb_text_answer.stopped,feedback_image.started,feedback_image.stopped,instructions_stage1.started,instructions_stage1.stopped,end_instructions_resp_stage1.keys,end_instructions_resp_stage1.rt,end_instructions_resp_stage1.started,end_instructions_resp_stage1.stopped,space_to_continue_stage1.started,space_to_continue_stage1.stopped,instructions_2.started,instructions_2.stopped,end_instructions_resp_2.keys,end_instructions_resp_2.rt,end_instructions_resp_2.started,end_instructions_resp_2.stopped,press_space_to_continue_stage2.started,press_space_to_continue_stage2.stopped,instructions_testStage1.started,instructions_testStage1.stopped,end_instructions_resp_test1.keys,end_instructions_resp_test1.rt,end_instructions_resp_test1.started,end_instructions_resp_test1.stopped,press_space_to_continue_test1.started,press_space_to_continue_test1.stopped,cue1Image_testChoice.started,cue1Image_testChoice.stopped,cue2Image_testChoice.started,cue2Image_testChoice.stopped,test_resp.keys,test_resp.corr,test_resp.rt,test_resp.started,test_resp.stopped,cue1Image_testConf.started,cue1Image_testConf.stopped,cue2Image_testConf.started,cue2Image_testConf.stopped,conf_reminder.started,conf_reminder.stopped,conf_rating.response,conf_rating.rt,conf_rating.started,conf_rating.stopped,session,participant,date,expName,psychopyVersion,frameRate,
,,,,,,,,,,,,,,,,,,,,,,,,,,,,,,,,,,,,,,,,,,,"{'none': 'pictures/20M_AN_C.png', 'alpha': 'pictures/SHINEd_melon.png', 'beta': 'pictures/SHINEd_apple.png', 'theta': 'pictures/SHINEd_pepper.png', 'phi': 'pictures/SHINEd_pear.png', 'T1': 'pictures/36M_AN_C.png', 'T2': 'pictures/20M_AN_C.png', 'T3': 'pictures/34M_AN_C.png', 'T4': 'pictures/26M_AN_C.png', 'T5': 'pictures/25M_AN_C.png', 'T6': 'pictures/23M_AN_C.png', 'B1': 'pictures/33M_NE_C.png', 'B2': 'pictures/31M_NE_C.png', 'B3': 'pictures/38M_NE_C.png', 'B4': 'pictures/32M_NE_C.png', 'B5': 'pictures/37M_NE_C.png', 'B6': 'pictures/22M_NE_C.png'}",13.557366136999917,None,18.541120187999695,None,space,2369.5026804179997,18.541120187999695,None,,,,,,,,,,,,,,,,,,,,,,,,,,,,,,,,,,,,,,,,,,,,,,,,,,,,,,,,,,,,,,,,,,,,,,,,,,,,,,,,,,,,,,,,,,,,,,,,001,13,2020_Jan_28_1142,spring_faces,3.1.5,60.034115947395,
,,,,,,,,,,,,,,,,,,,,,,,,,,,,,,,,,,,,,,,,,,,,,,,,,,,,2388.440521841001,None,2388.440521841001,None,"['a', 'm', 'backspace', 'backspace', '0', 'backspace', 'backspace', '1', '1', '2', '3', 'l', 'i', 'b', 'e', 'l', 'backspace', '1', '1', '2', '3', 'a', 'm', 'b', 'e', 'l', '1', '1', '2', '3', 'l', 'i', 'b', 'e', 'l']","[39.939296571999876, 40.96325950699975, 42.33930803899966, 42.53128668499994, 45.011367281000275, 46.611361483999644, 46.819216039999446, 47.123280370999055, 47.34737867600052, 47.587307341998894, 47.84336402000008, 60.99527724200016, 61.2192391690005, 67.09126900800038, 67.41137290000006, 67.74728735600002, 70.41936087199974, 74.27535606799938, 74.4352406500002, 74.59526606600048, 74.73930560500048, 87.36329310499968, 87.60329481699955, 88.54741189900051, 88.78729095299968, 89.12329520999992, 116.32330454799921, 116.46723476899933, 116.7712910249993, 116.96328772599918, 126.72327999499976, 126.97929598399969, 130.77130976099943, 131.075356112, 131.3633116990004]",2388.440521841001,None,,,,,,,,,,,,,,,,,,,,,,,,,,,,,,,,,,,,,,,,,,,,,,,,,,,,,,,,,,,,,,,,,,,,,,,,,,,,,,,,,,,,,,,,001,13,2020_Jan_28_1142,spring_faces,3.1.5,60.034115947395,
,,,,,,,,,,,,,,,,,,,,,,,,,,,,,,,,,,,,,,,,,,,,,,,,,,,,,,,,,,,,1123libel,2388.440521841001,None,2388.440521841001,None,2524.874568526,None,space,0.058228829999279696,2529.8736488560007,None,,,,,,,,,,,,,,,,,,,,,,,,,,,,,,,,,,,,,,,,,,,,,,,,,,,,,,,,,,,,,,,,,,,,,,,,,,,,,001,13,2020_Jan_28_1142,spring_faces,3.1.5,60.034115947395,
,,,,,,,,,,,,,,,,,,,,,,,,,,,,,,,,,,,,,,,,,,,,,,,,,,,,,,,,,,,,,,,,,,,,,,,2529.8736488560007,None,2529.974747698001,None,space,35.64608288499949,2534.9577376920006,None,,,,,,,,,,,,,,,,,,,,,,,,,,,,,,,,,,,,,,,,,,,,,,,,,,,,,,,,,,,,,,,,,,,,,001,13,2020_Jan_28_1142,spring_faces,3.1.5,60.034115947395,
condition files/Stage0a.xlsx,0a,beta,none,g,"['h', 'g']","['Chess', 'Go']","[0, 0.5]","[0, 0]",1,0,0,0,0,0,0,0,0,1,,,,,,,,,,,,,,,,,,,,,,,,,,,,,,,,,,,,,,,,,,,,,,,,,,,,,,,,,,,,,2534.9577376920006,None,2570.707224670001,None,2570.707224670001,None,2570.707224670001,None,g,1,2.1705752329999086,2572.2412403960006,None,2572.2412403960006,None,2572.2412403960006,None,2574.49137281,None,2574.49137281,None,2574.49137281,None,2574.49137281,None,,,,,,,,,,,,,,,,,,,,,,,,,,,,,,,,,,,,,,,,,,,,001,13,2020_Jan_28_1142,spring_faces,3.1.5,60.034115947395,
condition files/Stage0a.xlsx,0a,alpha,none,h,"['h', 'g']","['Chess', 'Go']","[0, 0.5]","[0, 0]",1,0,0,0,0,0,0,1,1,0,,,,,,,,,,,,,,,,,,,,,,,,,,,,,,,,,,,,,,,,,,,,,,,,,,,,,,,,,,,,,,,2576.4402095980004,None,2576.4402095980004,None,2576.4402095980004,None,g,0,1.7315741139991587,2577.992221636001,None,2577.992221636001,None,2577.992221636001,None,2579.7742848279995,None,2579.7742848279995,None,2579.7742848279995,None,2579.7742848279995,None,,,,,,,,,,,,,,,,,,,,,,,,,,,,,,,,,,,,,,,,,,,,001,13,2020_Jan_28_1142,spring_faces,3.1.5,60.034115947395,
condition files/Stage0a.xlsx,0a,beta,none,g,"['h', 'g']","['Chess', 'Go']","[0, 0.5]","[0, 0]",1,0,0,1,1,1,0,0,0,1,,,,,,,,,,,,,,,,,,,,,,,,,,,,,,,,,,,,,,,,,,,,,,,,,,,,,,,,,,,,,,,2581.7578410740007,None,2581.7578410740007,None,2581.7578410740007,None,g,1,3.761039035000067,2583.290851717,None,2583.290851717,None,2583.290851717,None,2587.1085679570006,None,2587.1085679570006,None,2587.1085679570006,None,2587.1085679570006,None,,,,,,,,,,,,,,,,,,,,,,,,,,,,,,,,,,,,,,,,,,,,001,13,2020_Jan_28_1142,spring_faces,3.1.5,60.034115947395,
condition files/Stage0a.xlsx,0a,alpha,none,h,"['h', 'g']","['Chess', 'Go']","[0, 0.5]","[0, 0]",1,0,0,1,1,1,0,1,1,0,,,,,,,,,,,,,,,,,,,,,,,,,,,,,,,,,,,,,,,,,,,,,,,,,,,,,,,,,,,,,,,2589.07365957,None,2589.07365957,None,2589.07365957,None,h,1,0.988332053000704,2590.6074787800007,None,2590.6074787800007,None,2590.6074787800007,None,2591.6576615880003,None,2591.6576615880003,None,2591.6576615880003,None,2591.6576615880003,None,,,,,,,,,,,,,,,,,,,,,,,,,,,,,,,,,,,,,,,,,,,,001,13,2020_Jan_28_1142,spring_faces,3.1.5,60.034115947395,
condition files/Stage0a.xlsx,0a,beta,none,g,"['h', 'g']","['Chess', 'Go']","[0, 0.5]","[0, 0]",1,0,0,2,2,2,0,0,0,1,,,,,,,,,,,,,,,,,,,,,,,,,,,,,,,,,,,,,,,,,,,,,,,,,,,,,,,,,,,,,,,2593.641264330001,None,2593.641264330001,None,2593.641264330001,None,g,1,0.7101898939999955,2595.1576132459995,None,2595.1576132459995,None,2595.1576132459995,None,2595.924629270001,None,2595.924629270001,None,2595.924629270001,None,2595.924629270001,None,,,,,,,,,,,,,,,,,,,,,,,,,,,,,,,,,,,,,,,,,,,,001,13,2020_Jan_28_1142,spring_faces,3.1.5,60.034115947395,
condition files/Stage0a.xlsx,0a,alpha,none,h,"['h', 'g']","['Chess', 'Go']","[0, 0.5]","[0, 0]",1,0,0,2,2,2,0,1,1,0,,,,,,,,,,,,,,,,,,,,,,,,,,,,,,,,,,,,,,,,,,,,,,,,,,,,,,,,,,,,,,,2597.890663409,None,2597.890663409,None,2597.890663409,None,h,1,0.891251959001238,2599.424603397001,None,2599.424603397001,None,2599.424603397001,None,2600.3743527429997,None,2600.3743527429997,None,2600.3743527429997,None,2600.3743527429997,None,,,,,,,,,,,,,,,,,,,,,,,,,,,,,,,,,,,,,,,,,,,,001,13,2020_Jan_28_1142,spring_faces,3.1.5,60.034115947395,
condition files/Stage0a.xlsx,0a,alpha,none,h,"['h', 'g']","['Chess', 'Go']","[0, 0.5]","[0, 0]",1,0,0,3,3,3,0,0,0,0,,,,,,,,,,,,,,,,,,,,,,,,,,,,,,,,,,,,,,,,,,,,,,,,,,,,,,,,,,,,,,,2602.3575273980005,None,2602.3575273980005,None,2602.3575273980005,None,h,1,0.7283486029991764,2603.891500412001,None,2603.891500412001,None,2603.891500412001,None,2604.6740694950004,None,2604.6740694950004,None,2604.6740694950004,None,2604.6740694950004,None,,,,,,,,,,,,,,,,,,,,,,,,,,,,,,,,,,,,,,,,,,,,001,13,2020_Jan_28_1142,spring_faces,3.1.5,60.034115947395,
condition files/Stage0a.xlsx,0a,beta,none,g,"['h', 'g']","['Chess', 'Go']","[0, 0.5]","[0, 0]",1,0,0,3,3,3,0,1,1,1,,,,,,,,,,,,,,,,,,,,,,,,,,,,,,,,,,,,,,,,,,,,,,,,,,,,,,,,,,,,,,,2606.641066774,None,2606.641066774,None,2606.641066774,None,g,1,0.5255141409998032,2608.1743701220003,None,2608.1743701220003,None,2608.1743701220003,None,2608.757747929001,None,2608.757747929001,None,2608.757747929001,None,2608.757747929001,None,,,,,,,,,,,,,,,,,,,,,,,,,,,,,,,,,,,,,,,,,,,,001,13,2020_Jan_28_1142,spring_faces,3.1.5,60.034115947395,
condition files/Stage0a.xlsx,0a,beta,none,g,"['h', 'g']","['Chess', 'Go']","[0, 0.5]","[0, 0]",1,0,0,4,4,4,0,0,0,1,,,,,,,,,,,,,,,,,,,,,,,,,,,,,,,,,,,,,,,,,,,,,,,,,,,,,,,,,,,,,,,2610.7413369040005,None,2610.7413369040005,None,2610.7413369040005,None,g,1,0.9538954210001975,2612.273914738,None,2612.273914738,None,2612.273914738,None,2613.2914373010008,None,2613.2914373010008,None,2613.2914373010008,None,2613.2914373010008,None,,,,,,,,,,,,,,,,,,,,,,,,,,,,,,,,,,,,,,,,,,,,001,13,2020_Jan_28_1142,spring_faces,3.1.5,60.034115947395,
condition files/Stage0a.xlsx,0a,alpha,none,h,"['h', 'g']","['Chess', 'Go']","[0, 0.5]","[0, 0]",1,0,0,4,4,4,0,1,1,0,,,,,,,,,,,,,,,,,,,,,,,,,,,,,,,,,,,,,,,,,,,,,,,,,,,,,,,,,,,,,,,2615.2575310850007,None,2615.2575310850007,None,2615.2575310850007,None,h,1,0.5488634979992639,2616.790940344001,None,2616.790940344001,None,2616.790940344001,None,2617.4075823349995,None,2617.4075823349995,None,2617.4075823349995,None,2617.4075823349995,None,,,,,,,,,,,,,,,,,,,,,,,,,,,,,,,,,,,,,,,,,,,,001,13,2020_Jan_28_1142,spring_faces,3.1.5,60.034115947395,
condition files/Stage0a.xlsx,0a,beta,none,g,"['h', 'g']","['Chess', 'Go']","[0, 0.5]","[0, 0]",1,0,0,5,5,5,0,0,0,1,,,,,,,,,,,,,,,,,,,,,,,,,,,,,,,,,,,,,,,,,,,,,,,,,,,,,,,,,,,,,,,2619.3743357700005,None,2619.3743357700005,None,2619.3743357700005,None,g,1,0.7843243130009796,2620.907454364,None,2620.907454364,None,2620.907454364,None,2621.7576990710004,None,2621.7576990710004,None,2621.7576990710004,None,2621.7576990710004,None,,,,,,,,,,,,,,,,,,,,,,,,,,,,,,,,,,,,,,,,,,,,001,13,2020_Jan_28_1142,spring_faces,3.1.5,60.034115947395,
condition files/Stage0a.xlsx,0a,alpha,none,h,"['h', 'g']","['Chess', 'Go']","[0, 0.5]","[0, 0]",1,0,0,5,5,5,0,1,1,0,,,,,,,,,,,,,,,,,,,,,,,,,,,,,,,,,,,,,,,,,,,,,,,,,,,,,,,,,,,,,,,2623.724370752001,None,2623.724370752001,None,2623.724370752001,None,h,1,0.7218992870002694,2625.2579118880003,None,2625.2579118880003,None,2625.2579118880003,None,2626.040980990001,None,2626.040980990001,None,2626.040980990001,None,2626.040980990001,None,,,,,,,,,,,,,,,,,,,,,,,,,,,,,,,,,,,,,,,,,,,,001,13,2020_Jan_28_1142,spring_faces,3.1.5,60.034115947395,
condition files/Stage0b_1.xlsx,0b,none,beta,g,"['h', 'g']","['Chess', 'Go']","[-0.15, 0.5]","[0.15, 0.5]",0,1,0,6,6,6,0,0,0,1,,,,,,,,,,,,,,,,,,,,,,,,,,,,,,,,,,,,,,,,,,,,,,,,,,,,,,,,,,,,,,,2628.0244832810004,None,2628.0244832810004,None,2628.0244832810004,None,g,1,0.7900864640014333,2629.557778175,None,2629.557778175,None,2629.557778175,None,2630.424713161001,None,2630.424713161001,None,2630.424713161001,None,2630.424713161001,None,,,,,,,,,,,,,,,,,,,,,,,,,,,,,,,,,,,,,,,,,,,,001,13,2020_Jan_28_1142,spring_faces,3.1.5,60.034115947395,
condition files/Stage0b_1.xlsx,0b,alpha,none,h,"['h', 'g']","['Chess', 'Go']","[-0.15, 0.5]","[0.15, 0.5]",1,0,0,6,6,6,0,1,1,0,,,,,,,,,,,,,,,,,,,,,,,,,,,,,,,,,,,,,,,,,,,,,,,,,,,,,,,,,,,,,,,2632.3743893190003,None,2632.3743893190003,None,2632.3743893190003,None,h,1,0.6268953090002469,2633.9129177190007,None,2633.9129177190007,None,2633.9129177190007,None,2634.595324244001,None,2634.595324244001,None,2634.595324244001,None,2634.595324244001,None,,,,,,,,,,,,,,,,,,,,,,,,,,,,,,,,,,,,,,,,,,,,001,13,2020_Jan_28_1142,spring_faces,3.1.5,60.034115947395,
condition files/Stage0b_2.xlsx,0b,beta,none,g,"['h', 'g']","['Chess', 'Go']","[-0.15, 0.5]","[0.15, 0.5]",1,0,0,7,7,7,0,0,0,1,,,,,,,,,,,,,,,,,,,,,,,,,,,,,,,,,,,,,,,,,,,,,,,,,,,,,,,,,,,,,,,2636.573834513001,None,2636.573834513001,None,2636.573834513001,None,g,1,0.5759762339985173,2638.107903023001,None,2638.107903023001,None,2638.107903023001,None,2638.740622399,None,2638.740622399,None,2638.740622399,None,2638.740622399,None,,,,,,,,,,,,,,,,,,,,,,,,,,,,,,,,,,,,,,,,,,,,001,13,2020_Jan_28_1142,spring_faces,3.1.5,60.034115947395,
condition files/Stage0b_2.xlsx,0b,none,alpha,h,"['h', 'g']","['Chess', 'Go']","[-0.15, 0.5]","[0.15, 0.5]",0,1,0,7,7,7,0,1,1,0,,,,,,,,,,,,,,,,,,,,,,,,,,,,,,,,,,,,,,,,,,,,,,,,,,,,,,,,,,,,,,,2640.7073341529995,None,2640.7073341529995,None,2640.7073341529995,None,h,1,1.0176619029989524,2642.2580962600005,None,2642.2580962600005,None,2642.2580962600005,None,2643.357186522,None,2643.357186522,None,2643.357186522,None,2643.357186522,None,,,,,,,,,,,,,,,,,,,,,,,,,,,,,,,,,,,,,,,,,,,,001,13,2020_Jan_28_1142,spring_faces,3.1.5,60.034115947395,
condition files/Stage0b_1.xlsx,0b,alpha,none,h,"['h', 'g']","['Chess', 'Go']","[-0.15, 0.5]","[0.15, 0.5]",1,0,0,8,8,8,0,0,0,0,,,,,,,,,,,,,,,,,,,,,,,,,,,,,,,,,,,,,,,,,,,,,,,,,,,,,,,,,,,,,,,2645.324562769001,None,2645.324562769001,None,2645.324562769001,None,h,1,0.7496106149992556,2646.8622037820005,None,2646.8622037820005,None,2646.8622037820005,None,2647.674268793,None,2647.674268793,None,2647.674268793,None,2647.674268793,None,,,,,,,,,,,,,,,,,,,,,,,,,,,,,,,,,,,,,,,,,,,,001,13,2020_Jan_28_1142,spring_faces,3.1.5,60.034115947395,
condition files/Stage0b_1.xlsx,0b,none,beta,g,"['h', 'g']","['Chess', 'Go']","[-0.15, 0.5]","[0.15, 0.5]",0,1,0,8,8,8,0,1,1,1,,,,,,,,,,,,,,,,,,,,,,,,,,,,,,,,,,,,,,,,,,,,,,,,,,,,,,,,,,,,,,,2649.641391160001,None,2649.641391160001,None,2649.641391160001,None,g,1,0.6297755909999978,2651.174008913,None,2651.174008913,None,2651.174008913,None,2651.862356943,None,2651.862356943,None,2651.862356943,None,2651.862356943,None,,,,,,,,,,,,,,,,,,,,,,,,,,,,,,,,,,,,,,,,,,,,001,13,2020_Jan_28_1142,spring_faces,3.1.5,60.034115947395,
condition files/Stage0b_2.xlsx,0b,none,alpha,h,"['h', 'g']","['Chess', 'Go']","[-0.15, 0.5]","[0.15, 0.5]",0,1,0,9,9,9,0,0,0,0,,,,,,,,,,,,,,,,,,,,,,,,,,,,,,,,,,,,,,,,,,,,,,,,,,,,,,,,,,,,,,,2653.841095455,None,2653.841095455,None,2653.841095455,None,h,1,1.2460388830004376,2655.373738286,None,2655.373738286,None,2655.373738286,None,2656.6736068650007,None,2656.6736068650007,None,2656.6736068650007,None,2656.6736068650007,None,,,,,,,,,,,,,,,,,,,,,,,,,,,,,,,,,,,,,,,,,,,,001,13,2020_Jan_28_1142,spring_faces,3.1.5,60.034115947395,
condition files/Stage0b_2.xlsx,0b,beta,none,g,"['h', 'g']","['Chess', 'Go']","[-0.15, 0.5]","[0.15, 0.5]",1,0,0,9,9,9,0,1,1,1,,,,,,,,,,,,,,,,,,,,,,,,,,,,,,,,,,,,,,,,,,,,,,,,,,,,,,,,,,,,,,,2658.640711569,None,2658.640711569,None,2658.640711569,None,g,1,0.6207972400006838,2660.191009956001,None,2660.191009956001,None,2660.191009956001,None,2660.875802241,None,2660.875802241,None,2660.875802241,None,2660.875802241,None,,,,,,,,,,,,,,,,,,,,,,,,,,,,,,,,,,,,,,,,,,,,001,13,2020_Jan_28_1142,spring_faces,3.1.5,60.034115947395,
condition files/Stage0b_1.xlsx,0b,alpha,none,h,"['h', 'g']","['Chess', 'Go']","[-0.15, 0.5]","[0.15, 0.5]",1,0,0,10,10,10,0,0,0,0,,,,,,,,,,,,,,,,,,,,,,,,,,,,,,,,,,,,,,,,,,,,,,,,,,,,,,,,,,,,,,,2662.8577497530005,None,2662.8577497530005,None,2662.8577497530005,None,h,1,0.6609197060006409,2664.39097176,None,2664.39097176,None,2664.39097176,None,2665.107417168001,None,2665.107417168001,None,2665.107417168001,None,2665.107417168001,None,,,,,,,,,,,,,,,,,,,,,,,,,,,,,,,,,,,,,,,,,,,,001,13,2020_Jan_28_1142,spring_faces,3.1.5,60.034115947395,
condition files/Stage0b_1.xlsx,0b,none,beta,g,"['h', 'g']","['Chess', 'Go']","[-0.15, 0.5]","[0.15, 0.5]",0,1,0,10,10,10,0,1,1,1,,,,,,,,,,,,,,,,,,,,,,,,,,,,,,,,,,,,,,,,,,,,,,,,,,,,,,,,,,,,,,,2667.074479508001,None,2667.074479508001,None,2667.074479508001,None,g,1,0.9365346539998427,2668.611334747,None,2668.611334747,None,2668.611334747,None,2669.612121796001,None,2669.612121796001,None,2669.612121796001,None,2669.612121796001,None,,,,,,,,,,,,,,,,,,,,,,,,,,,,,,,,,,,,,,,,,,,,001,13,2020_Jan_28_1142,spring_faces,3.1.5,60.034115947395,
condition files/Stage0b_2.xlsx,0b,none,alpha,h,"['h', 'g']","['Chess', 'Go']","[-0.15, 0.5]","[0.15, 0.5]",0,1,0,11,11,11,0,0,0,0,,,,,,,,,,,,,,,,,,,,,,,,,,,,,,,,,,,,,,,,,,,,,,,,,,,,,,,,,,,,,,,2671.5908361700003,None,2671.5908361700003,None,2671.5908361700003,None,h,1,0.6794788259994675,2673.1243264170007,None,2673.1243264170007,None,2673.1243264170007,None,2673.8576648020007,None,2673.8576648020007,None,2673.8576648020007,None,2673.8576648020007,None,,,,,,,,,,,,,,,,,,,,,,,,,,,,,,,,,,,,,,,,,,,,001,13,2020_Jan_28_1142,spring_faces,3.1.5,60.034115947395,
condition files/Stage0b_2.xlsx,0b,beta,none,g,"['h', 'g']","['Chess', 'Go']","[-0.15, 0.5]","[0.15, 0.5]",1,0,0,11,11,11,0,1,1,1,,,,,,,,,,,,,,,,,,,,,,,,,,,,,,,,,,,,,,,,,,,,,,,,,,,,,,,,,,,,,,,2675.824267319,None,2675.824267319,None,2675.824267319,None,g,1,0.989117842998894,2677.3746955780007,None,2677.3746955780007,None,2677.3746955780007,None,2678.4272348470004,None,2678.4272348470004,None,2678.4272348470004,None,2678.4272348470004,None,,,,,,,,,,,,,,,,,,,,,,,,,,,,,,,,,,,,,,,,,,,,001,13,2020_Jan_28_1142,spring_faces,3.1.5,60.034115947395,
condition files/Stage0c_1.xlsx,0c,beta,theta,g,"['h', 'g']","['Chess', 'Go']","[-0.15, 0.5]","[0.15, 0.5]",1,1,0,12,12,12,0,0,0,2,,,,,,,,,,,,,,,,,,,,,,,,,,,,,,,,,,,,,,,,,,,,,,,,,,,,,,,,,,,,,,,2680.407866546,None,2680.407866546,None,2680.407866546,None,g,1,1.2066114019999077,2681.941186445001,None,2681.941186445001,None,2681.941186445001,None,2683.2073311210006,None,2683.2073311210006,None,2683.2073311210006,None,2683.2073311210006,None,,,,,,,,,,,,,,,,,,,,,,,,,,,,,,,,,,,,,,,,,,,,001,13,2020_Jan_28_1142,spring_faces,3.1.5,60.034115947395,
condition files/Stage0c_1.xlsx,0c,phi,beta,g,"['h', 'g']","['Chess', 'Go']","[-0.15, 0.5]","[0.15, 0.5]",1,1,0,12,12,12,0,1,1,3,,,,,,,,,,,,,,,,,,,,,,,,,,,,,,,,,,,,,,,,,,,,,,,,,,,,,,,,,,,,,,,2685.1735312,None,2685.1735312,None,2685.1735312,None,h,0,1.4639471119990048,2686.7078530420004,None,2686.7078530420004,None,2686.7078530420004,None,2688.224657152001,None,2688.224657152001,None,2688.224657152001,None,2688.224657152001,None,,,,,,,,,,,,,,,,,,,,,,,,,,,,,,,,,,,,,,,,,,,,001,13,2020_Jan_28_1142,spring_faces,3.1.5,60.034115947395,
condition files/Stage0c_1.xlsx,0c,alpha,phi,h,"['h', 'g']","['Chess', 'Go']","[-0.15, 0.5]","[0.15, 0.5]",1,1,0,12,12,12,0,2,2,1,,,,,,,,,,,,,,,,,,,,,,,,,,,,,,,,,,,,,,,,,,,,,,,,,,,,,,,,,,,,,,,2690.1910023849996,None,2690.1910023849996,None,2690.1910023849996,None,h,1,1.631209408000359,2691.7245898559995,None,2691.7245898559995,None,2691.7245898559995,None,2693.4082617090007,None,2693.4082617090007,None,2693.4082617090007,None,2693.4082617090007,None,,,,,,,,,,,,,,,,,,,,,,,,,,,,,,,,,,,,,,,,,,,,001,13,2020_Jan_28_1142,spring_faces,3.1.5,60.034115947395,
condition files/Stage0c_1.xlsx,0c,theta,alpha,h,"['h', 'g']","['Chess', 'Go']","[-0.15, 0.5]","[0.15, 0.5]",1,1,0,12,12,12,0,3,3,0,,,,,,,,,,,,,,,,,,,,,,,,,,,,,,,,,,,,,,,,,,,,,,,,,,,,,,,,,,,,,,,2695.3744156850007,None,2695.3744156850007,None,2695.3744156850007,None,h,1,1.183698512000774,2696.9080542640004,None,2696.9080542640004,None,2696.9080542640004,None,2698.157892798001,None,2698.157892798001,None,2698.157892798001,None,2698.157892798001,None,,,,,,,,,,,,,,,,,,,,,,,,,,,,,,,,,,,,,,,,,,,,001,13,2020_Jan_28_1142,spring_faces,3.1.5,60.034115947395,
condition files/Stage0c_2.xlsx,0c,theta,beta,g,"['h', 'g']","['Chess', 'Go']","[-0.15, 0.5]","[0.15, 0.5]",1,1,0,13,13,13,0,0,0,2,,,,,,,,,,,,,,,,,,,,,,,,,,,,,,,,,,,,,,,,,,,,,,,,,,,,,,,,,,,,,,,2700.141277558001,None,2700.141277558001,None,2700.141277558001,None,g,1,0.9773262360013177,2701.674540926,None,2701.674540926,None,2701.674540926,None,2702.7079395399996,None,2702.7079395399996,None,2702.7079395399996,None,2702.7079395399996,None,,,,,,,,,,,,,,,,,,,,,,,,,,,,,,,,,,,,,,,,,,,,001,13,2020_Jan_28_1142,spring_faces,3.1.5,60.034115947395,
condition files/Stage0c_2.xlsx,0c,phi,alpha,h,"['h', 'g']","['Chess', 'Go']","[-0.15, 0.5]","[0.15, 0.5]",1,1,0,13,13,13,0,1,1,1,,,,,,,,,,,,,,,,,,,,,,,,,,,,,,,,,,,,,,,,,,,,,,,,,,,,,,,,,,,,,,,2704.6736239870006,None,2704.6736239870006,None,2704.6736239870006,None,h,1,0.6524759690000792,2706.207325935,None,2706.207325935,None,2706.207325935,None,2706.924380294,None,2706.924380294,None,2706.924380294,None,2706.924380294,None,,,,,,,,,,,,,,,,,,,,,,,,,,,,,,,,,,,,,,,,,,,,001,13,2020_Jan_28_1142,spring_faces,3.1.5,60.034115947395,
condition files/Stage0c_2.xlsx,0c,alpha,theta,h,"['h', 'g']","['Chess', 'Go']","[-0.15, 0.5]","[0.15, 0.5]",1,1,0,13,13,13,0,2,2,0,,,,,,,,,,,,,,,,,,,,,,,,,,,,,,,,,,,,,,,,,,,,,,,,,,,,,,,,,,,,,,,2708.891211979,None,2708.891211979,None,2708.891211979,None,h,1,0.947274156000276,2710.4245255919996,None,2710.4245255919996,None,2710.4245255919996,None,2711.409118921001,None,2711.409118921001,None,2711.409118921001,None,2711.409118921001,None,,,,,,,,,,,,,,,,,,,,,,,,,,,,,,,,,,,,,,,,,,,,001,13,2020_Jan_28_1142,spring_faces,3.1.5,60.034115947395,
condition files/Stage0c_2.xlsx,0c,beta,phi,g,"['h', 'g']","['Chess', 'Go']","[-0.15, 0.5]","[0.15, 0.5]",1,1,0,13,13,13,0,3,3,3,,,,,,,,,,,,,,,,,,,,,,,,,,,,,,,,,,,,,,,,,,,,,,,,,,,,,,,,,,,,,,,2713.3909952640006,None,2713.3909952640006,None,2713.3909952640006,None,g,1,0.7669862920010928,2714.9247902429997,None,2714.9247902429997,None,2714.9247902429997,None,2715.7574938529997,None,2715.7574938529997,None,2715.7574938529997,None,2715.7574938529997,None,,,,,,,,,,,,,,,,,,,,,,,,,,,,,,,,,,,,,,,,,,,,001,13,2020_Jan_28_1142,spring_faces,3.1.5,60.034115947395,
condition files/Stage0c_1.xlsx,0c,theta,alpha,h,"['h', 'g']","['Chess', 'Go']","[-0.15, 0.5]","[0.15, 0.5]",1,1,0,14,14,14,0,0,0,0,,,,,,,,,,,,,,,,,,,,,,,,,,,,,,,,,,,,,,,,,,,,,,,,,,,,,,,,,,,,,,,2717.740694319,None,2717.740694319,None,2717.740694319,None,h,1,0.5616562099985458,2719.274139213001,None,2719.274139213001,None,2719.274139213001,None,2719.8910111660007,None,2719.8910111660007,None,2719.8910111660007,None,2719.8910111660007,None,,,,,,,,,,,,,,,,,,,,,,,,,,,,,,,,,,,,,,,,,,,,001,13,2020_Jan_28_1142,spring_faces,3.1.5,60.034115947395,
condition files/Stage0c_1.xlsx,0c,beta,theta,g,"['h', 'g']","['Chess', 'Go']","[-0.15, 0.5]","[0.15, 0.5]",1,1,0,14,14,14,0,1,1,2,,,,,,,,,,,,,,,,,,,,,,,,,,,,,,,,,,,,,,,,,,,,,,,,,,,,,,,,,,,,,,,2721.8574142260004,None,2721.8574142260004,None,2721.8574142260004,None,g,1,0.8766909269997996,2723.3911114170005,None,2723.3911114170005,None,2723.3911114170005,None,2724.324527926001,None,2724.324527926001,None,2724.324527926001,None,2724.324527926001,None,,,,,,,,,,,,,,,,,,,,,,,,,,,,,,,,,,,,,,,,,,,,001,13,2020_Jan_28_1142,spring_faces,3.1.5,60.034115947395,
condition files/Stage0c_1.xlsx,0c,alpha,phi,h,"['h', 'g']","['Chess', 'Go']","[-0.15, 0.5]","[0.15, 0.5]",1,1,0,14,14,14,0,2,2,1,,,,,,,,,,,,,,,,,,,,,,,,,,,,,,,,,,,,,,,,,,,,,,,,,,,,,,,,,,,,,,,2726.2907894620002,None,2726.2907894620002,None,2726.2907894620002,None,h,1,1.003671583999676,2727.8241402660005,None,2727.8241402660005,None,2727.8241402660005,None,2728.891520985,None,2728.891520985,None,2728.891520985,None,2728.891520985,None,,,,,,,,,,,,,,,,,,,,,,,,,,,,,,,,,,,,,,,,,,,,001,13,2020_Jan_28_1142,spring_faces,3.1.5,60.034115947395,
condition files/Stage0c_1.xlsx,0c,phi,beta,g,"['h', 'g']","['Chess', 'Go']","[-0.15, 0.5]","[0.15, 0.5]",1,1,0,14,14,14,0,3,3,3,,,,,,,,,,,,,,,,,,,,,,,,,,,,,,,,,,,,,,,,,,,,,,,,,,,,,,,,,,,,,,,2730.8576823969997,None,2730.8576823969997,None,2730.8576823969997,None,g,1,0.8365232190008101,2732.391286625001,None,2732.391286625001,None,2732.391286625001,None,2733.2905947769996,None,2733.2905947769996,None,2733.2905947769996,None,2733.2905947769996,None,,,,,,,,,,,,,,,,,,,,,,,,,,,,,,,,,,,,,,,,,,,,001,13,2020_Jan_28_1142,spring_faces,3.1.5,60.034115947395,
condition files/Stage0c_2.xlsx,0c,phi,alpha,h,"['h', 'g']","['Chess', 'Go']","[-0.15, 0.5]","[0.15, 0.5]",1,1,0,15,15,15,0,0,0,1,,,,,,,,,,,,,,,,,,,,,,,,,,,,,,,,,,,,,,,,,,,,,,,,,,,,,,,,,,,,,,,2735.2738558580004,None,2735.2738558580004,None,2735.2738558580004,None,h,1,0.5962006270001439,2736.807618631001,None,2736.807618631001,None,2736.807618631001,None,2737.457869383001,None,2737.457869383001,None,2737.457869383001,None,2737.457869383001,None,,,,,,,,,,,,,,,,,,,,,,,,,,,,,,,,,,,,,,,,,,,,001,13,2020_Jan_28_1142,spring_faces,3.1.5,60.034115947395,
condition files/Stage0c_2.xlsx,0c,theta,beta,g,"['h', 'g']","['Chess', 'Go']","[-0.15, 0.5]","[0.15, 0.5]",1,1,0,15,15,15,0,1,1,2,,,,,,,,,,,,,,,,,,,,,,,,,,,,,,,,,,,,,,,,,,,,,,,,,,,,,,,,,,,,,,,2739.4241348180003,None,2739.4241348180003,None,2739.4241348180003,None,g,1,0.7500366530002793,2740.9577151190006,None,2740.9577151190006,None,2740.9577151190006,None,2741.774789176001,None,2741.774789176001,None,2741.774789176001,None,2741.774789176001,None,,,,,,,,,,,,,,,,,,,,,,,,,,,,,,,,,,,,,,,,,,,,001,13,2020_Jan_28_1142,spring_faces,3.1.5,60.034115947395,
condition files/Stage0c_2.xlsx,0c,beta,phi,g,"['h', 'g']","['Chess', 'Go']","[-0.15, 0.5]","[0.15, 0.5]",1,1,0,15,15,15,0,2,2,3,,,,,,,,,,,,,,,,,,,,,,,,,,,,,,,,,,,,,,,,,,,,,,,,,,,,,,,,,,,,,,,2743.7404429239996,None,2743.7404429239996,None,2743.7404429239996,None,h,0,0.6891608780006209,2745.274643034001,None,2745.274643034001,None,2745.274643034001,None,2746.008124528,None,2746.008124528,None,2746.008124528,None,2746.008124528,None,,,,,,,,,,,,,,,,,,,,,,,,,,,,,,,,,,,,,,,,,,,,001,13,2020_Jan_28_1142,spring_faces,3.1.5,60.034115947395,
condition files/Stage0c_2.xlsx,0c,alpha,theta,h,"['h', 'g']","['Chess', 'Go']","[-0.15, 0.5]","[0.15, 0.5]",1,1,0,15,15,15,0,3,3,0,,,,,,,,,,,,,,,,,,,,,,,,,,,,,,,,,,,,,,,,,,,,,,,,,,,,,,,,,,,,,,,2747.991021646001,None,2747.991021646001,None,2747.991021646001,None,h,1,1.2076183179997315,2749.524254795,None,2749.524254795,None,2749.524254795,None,2750.7905476390006,None,2750.7905476390006,None,2750.7905476390006,None,2750.7905476390006,None,,,,,,,,,,,,,,,,,,,,,,,,,,,,,,,,,,,,,,,,,,,,001,13,2020_Jan_28_1142,spring_faces,3.1.5,60.034115947395,
condition files/Stage0c_1.xlsx,0c,beta,theta,g,"['h', 'g']","['Chess', 'Go']","[-0.15, 0.5]","[0.15, 0.5]",1,1,0,16,16,16,0,0,0,2,,,,,,,,,,,,,,,,,,,,,,,,,,,,,,,,,,,,,,,,,,,,,,,,,,,,,,,,,,,,,,,2752.773947175001,None,2752.773947175001,None,2752.773947175001,None,g,1,0.7603907809989323,2754.307420393001,None,2754.307420393001,None,2754.307420393001,None,2755.1243761349997,None,2755.1243761349997,None,2755.1243761349997,None,2755.1243761349997,None,,,,,,,,,,,,,,,,,,,,,,,,,,,,,,,,,,,,,,,,,,,,001,13,2020_Jan_28_1142,spring_faces,3.1.5,60.034115947395,
condition files/Stage0c_1.xlsx,0c,phi,beta,g,"['h', 'g']","['Chess', 'Go']","[-0.15, 0.5]","[0.15, 0.5]",1,1,0,16,16,16,0,1,1,3,,,,,,,,,,,,,,,,,,,,,,,,,,,,,,,,,,,,,,,,,,,,,,,,,,,,,,,,,,,,,,,2757.091086497001,None,2757.091086497001,None,2757.091086497001,None,g,1,1.3558673719999206,2758.6239454799997,None,2758.6239454799997,None,2758.6239454799997,None,2760.024347050001,None,2760.024347050001,None,2760.024347050001,None,2760.024347050001,None,,,,,,,,,,,,,,,,,,,,,,,,,,,,,,,,,,,,,,,,,,,,001,13,2020_Jan_28_1142,spring_faces,3.1.5,60.034115947395,
condition files/Stage0c_1.xlsx,0c,theta,alpha,h,"['h', 'g']","['Chess', 'Go']","[-0.15, 0.5]","[0.15, 0.5]",1,1,0,16,16,16,0,2,2,0,,,,,,,,,,,,,,,,,,,,,,,,,,,,,,,,,,,,,,,,,,,,,,,,,,,,,,,,,,,,,,,2762.0080309059995,None,2762.0080309059995,None,2762.0080309059995,None,h,1,0.7745009619993652,2763.541371014,None,2763.541371014,None,2763.541371014,None,2764.374616971001,None,2764.374616971001,None,2764.374616971001,None,2764.374616971001,None,,,,,,,,,,,,,,,,,,,,,,,,,,,,,,,,,,,,,,,,,,,,001,13,2020_Jan_28_1142,spring_faces,3.1.5,60.034115947395,
condition files/Stage0c_1.xlsx,0c,alpha,phi,h,"['h', 'g']","['Chess', 'Go']","[-0.15, 0.5]","[0.15, 0.5]",1,1,0,16,16,16,0,3,3,1,,,,,,,,,,,,,,,,,,,,,,,,,,,,,,,,,,,,,,,,,,,,,,,,,,,,,,,,,,,,,,,2766.3411550319997,None,2766.3411550319997,None,2766.3411550319997,None,h,1,1.3059946929988655,2767.8738135450003,None,2767.8738135450003,None,2767.8738135450003,None,2769.2259172110007,None,2769.2259172110007,None,2769.2259172110007,None,2769.2259172110007,None,,,,,,,,,,,,,,,,,,,,,,,,,,,,,,,,,,,,,,,,,,,,001,13,2020_Jan_28_1142,spring_faces,3.1.5,60.034115947395,
condition files/Stage0c_2.xlsx,0c,alpha,theta,h,"['h', 'g']","['Chess', 'Go']","[-0.15, 0.5]","[0.15, 0.5]",1,1,0,17,17,17,0,0,0,0,,,,,,,,,,,,,,,,,,,,,,,,,,,,,,,,,,,,,,,,,,,,,,,,,,,,,,,,,,,,,,,2771.224498308,None,2771.224498308,None,2771.224498308,None,h,1,1.2699653939998825,2772.757850348,None,2772.757850348,None,2772.757850348,None,2774.0744238629995,None,2774.0744238629995,None,2774.0744238629995,None,2774.0744238629995,None,,,,,,,,,,,,,,,,,,,,,,,,,,,,,,,,,,,,,,,,,,,,001,13,2020_Jan_28_1142,spring_faces,3.1.5,60.034115947395,
condition files/Stage0c_2.xlsx,0c,beta,phi,g,"['h', 'g']","['Chess', 'Go']","[-0.15, 0.5]","[0.15, 0.5]",1,1,0,17,17,17,0,1,1,3,,,,,,,,,,,,,,,,,,,,,,,,,,,,,,,,,,,,,,,,,,,,,,,,,,,,,,,,,,,,,,,2776.0575255250005,None,2776.0575255250005,None,2776.0575255250005,None,g,1,0.7086803469992446,2777.5911898840004,None,2777.5911898840004,None,2777.5911898840004,None,2778.3577607400002,None,2778.3577607400002,None,2778.3577607400002,None,2778.3577607400002,None,,,,,,,,,,,,,,,,,,,,,,,,,,,,,,,,,,,,,,,,,,,,001,13,2020_Jan_28_1142,spring_faces,3.1.5,60.034115947395,
condition files/Stage0c_2.xlsx,0c,phi,alpha,h,"['h', 'g']","['Chess', 'Go']","[-0.15, 0.5]","[0.15, 0.5]",1,1,0,17,17,17,0,2,2,1,,,,,,,,,,,,,,,,,,,,,,,,,,,,,,,,,,,,,,,,,,,,,,,,,,,,,,,,,,,,,,,2780.324350838,None,2780.324350838,None,2780.324350838,None,g,0,0.4905130610004562,2781.857277901001,None,2781.857277901001,None,2781.857277901001,None,2782.4079132650004,None,2782.4079132650004,None,2782.4079132650004,None,2782.4079132650004,None,,,,,,,,,,,,,,,,,,,,,,,,,,,,,,,,,,,,,,,,,,,,001,13,2020_Jan_28_1142,spring_faces,3.1.5,60.034115947395,
condition files/Stage0c_2.xlsx,0c,theta,beta,g,"['h', 'g']","['Chess', 'Go']","[-0.15, 0.5]","[0.15, 0.5]",1,1,0,17,17,17,0,3,3,2,,,,,,,,,,,,,,,,,,,,,,,,,,,,,,,,,,,,,,,,,,,,,,,,,,,,,,,,,,,,,,,2784.373704368001,None,2784.373704368001,None,2784.373704368001,None,g,1,0.6802229639997677,2785.907844575,None,2785.907844575,None,2785.907844575,None,2786.6409961940008,None,2786.6409961940008,None,2786.6409961940008,None,2786.6409961940008,None,,,,,,,,,,,,,,,,,,,,,,,,,,,,,,,,,,,,,,,,,,,,001,13,2020_Jan_28_1142,spring_faces,3.1.5,60.034115947395,
,,,,,,,,,,,,,,,,,,,,,,,,,,,,,,,,,,,,,,,,,,,,,,,,,,,,,,,,,,,,,,,,,,,,,,,,,,,,,,,,,,,,,,,,,,,,,,,,,,,,,,,,2788.624406522,None,space,2.0673646760005795,2793.6244274,None,,,,,,,,,,,,,,,,,,,,,,,,,,,,,,,,,,,,,,001,13,2020_Jan_28_1142,spring_faces,3.1.5,60.034115947395,
condition files/Stage1_1.xlsx,,T1,B1,c,"['c', 'm']","['Clue', 'Monopoly']","[-0.15, 0.5]","[0.15, 0.5]",1,1,,,,,,,,,0,0,0,0,0,0,0,0,,,,,,,,,,,,,,,,,,,,,,,,,,,,,,,,,,,,,,,,,,,,,,,,,,,,,,,2795.7577507250007,None,2795.7577507250007,None,2795.7577507250007,None,c,1,3.438122583000222,2797.357691444,None,2797.357691444,None,2797.357691444,None,2800.8747082770005,None,2800.8747082770005,None,2800.8747082770005,None,2800.8747082770005,None,,,,,,,2793.6244274,None,,,,,,,,,,,,,,,,,,,,,,,,,,,,,,,,,,,,001,13,2020_Jan_28_1142,spring_faces,3.1.5,60.034115947395,
condition files/Stage1_1.xlsx,,T2,B2,m,"['c', 'm']","['Clue', 'Monopoly']","[-0.15, 0.5]","[0.15, 0.5]",1,1,,,,,,,,,0,0,0,0,0,1,1,3,,,,,,,,,,,,,,,,,,,,,,,,,,,,,,,,,,,,,,,,,,,,,,,,,,,,,,,2802.8248175339995,None,2802.8248175339995,None,2802.8248175339995,None,m,1,1.4139738339999894,2804.3578453070004,None,2804.3578453070004,None,2804.3578453070004,None,2805.84119347,None,2805.84119347,None,2805.84119347,None,2805.84119347,None,,,,,,,,,,,,,,,,,,,,,,,,,,,,,,,,,,,,,,,,,,,,001,13,2020_Jan_28_1142,spring_faces,3.1.5,60.034115947395,
condition files/Stage1_1.xlsx,,B1,T2,c,"['c', 'm']","['Clue', 'Monopoly']","[-0.15, 0.5]","[0.15, 0.5]",1,1,,,,,,,,,0,0,0,0,0,2,2,1,,,,,,,,,,,,,,,,,,,,,,,,,,,,,,,,,,,,,,,,,,,,,,,,,,,,,,,2807.7910576249997,None,2807.7910576249997,None,2807.7910576249997,None,m,0,1.2782891290007683,2809.3255380009996,None,2809.3255380009996,None,2809.3255380009996,None,2810.658396259001,None,2810.658396259001,None,2810.658396259001,None,2810.658396259001,None,,,,,,,,,,,,,,,,,,,,,,,,,,,,,,,,,,,,,,,,,,,,001,13,2020_Jan_28_1142,spring_faces,3.1.5,60.034115947395,
condition files/Stage1_1.xlsx,,B4,T4,m,"['c', 'm']","['Clue', 'Monopoly']","[-0.15, 0.5]","[0.15, 0.5]",1,1,,,,,,,,,0,0,0,0,0,3,3,7,,,,,,,,,,,,,,,,,,,,,,,,,,,,,,,,,,,,,,,,,,,,,,,,,,,,,,,2812.624399423001,None,2812.624399423001,None,2812.624399423001,None,c,0,2.252471866000633,2814.1913372260005,None,2814.1913372260005,None,2814.1913372260005,None,2816.5245818010007,None,2816.5245818010007,None,2816.5245818010007,None,2816.5245818010007,None,,,,,,,,,,,,,,,,,,,,,,,,,,,,,,,,,,,,,,,,,,,,001,13,2020_Jan_28_1142,spring_faces,3.1.5,60.034115947395,
condition files/Stage1_1.xlsx,,B3,T3,c,"['c', 'm']","['Clue', 'Monopoly']","[-0.15, 0.5]","[0.15, 0.5]",1,1,,,,,,,,,0,0,0,0,0,4,4,4,,,,,,,,,,,,,,,,,,,,,,,,,,,,,,,,,,,,,,,,,,,,,,,,,,,,,,,2818.4745142680003,None,2818.4745142680003,None,2818.4745142680003,None,c,1,0.7872637780001241,2820.0245405799997,None,2820.0245405799997,None,2820.0245405799997,None,2820.8766798569995,None,2820.8766798569995,None,2820.8766798569995,None,2820.8766798569995,None,,,,,,,,,,,,,,,,,,,,,,,,,,,,,,,,,,,,,,,,,,,,001,13,2020_Jan_28_1142,spring_faces,3.1.5,60.034115947395,
condition files/Stage1_1.xlsx,,T3,B4,c,"['c', 'm']","['Clue', 'Monopoly']","[-0.15, 0.5]","[0.15, 0.5]",1,1,,,,,,,,,0,0,0,0,0,5,5,5,,,,,,,,,,,,,,,,,,,,,,,,,,,,,,,,,,,,,,,,,,,,,,,,,,,,,,,2822.840761524001,None,2822.840761524001,None,2822.840761524001,None,c,1,1.107537025000056,2824.3763519839995,None,2824.3763519839995,None,2824.3763519839995,None,2825.540998871,None,2825.540998871,None,2825.540998871,None,2825.540998871,None,,,,,,,,,,,,,,,,,,,,,,,,,,,,,,,,,,,,,,,,,,,,001,13,2020_Jan_28_1142,spring_faces,3.1.5,60.034115947395,
condition files/Stage1_1.xlsx,,T4,B3,m,"['c', 'm']","['Clue', 'Monopoly']","[-0.15, 0.5]","[0.15, 0.5]",1,1,,,,,,,,,0,0,0,0,0,6,6,6,,,,,,,,,,,,,,,,,,,,,,,,,,,,,,,,,,,,,,,,,,,,,,,,,,,,,,,2827.5077461109995,None,2827.5077461109995,None,2827.5077461109995,None,c,0,1.4827180929987662,2829.0410888240003,None,2829.0410888240003,None,2829.0410888240003,None,2830.576614177,None,2830.576614177,None,2830.576614177,None,2830.576614177,None,,,,,,,,,,,,,,,,,,,,,,,,,,,,,,,,,,,,,,,,,,,,001,13,2020_Jan_28_1142,spring_faces,3.1.5,60.034115947395,
condition files/Stage1_1.xlsx,,B2,T1,m,"['c', 'm']","['Clue', 'Monopoly']","[-0.15, 0.5]","[0.15, 0.5]",1,1,,,,,,,,,0,0,0,0,0,7,7,2,,,,,,,,,,,,,,,,,,,,,,,,,,,,,,,,,,,,,,,,,,,,,,,,,,,,,,,2832.5405352,None,2832.5405352,None,2832.5405352,None,m,1,0.8324234219999198,2834.075400281001,None,2834.075400281001,None,2834.075400281001,None,2834.957900939,None,2834.957900939,None,2834.957900939,None,2834.957900939,None,,,,,,,,,,,,,,,,,,,,,,,,,,,,,,,,,,,,,,,,,,,,001,13,2020_Jan_28_1142,spring_faces,3.1.5,60.034115947395,
condition files/Stage1_2.xlsx,,B3,T4,m,"['c', 'm']","['Clue', 'Monopoly']","[-0.15, 0.5]","[0.15, 0.5]",1,1,,,,,,,,,0,1,1,1,0,0,0,6,,,,,,,,,,,,,,,,,,,,,,,,,,,,,,,,,,,,,,,,,,,,,,,,,,,,,,,2836.941225837001,None,2836.941225837001,None,2836.941225837001,None,c,0,1.9845050280000578,2838.4912651880004,None,2838.4912651880004,None,2838.4912651880004,None,2840.540865383,None,2840.540865383,None,2840.540865383,None,2840.540865383,None,,,,,,,,,,,,,,,,,,,,,,,,,,,,,,,,,,,,,,,,,,,,001,13,2020_Jan_28_1142,spring_faces,3.1.5,60.034115947395,
condition files/Stage1_2.xlsx,,B2,T2,m,"['c', 'm']","['Clue', 'Monopoly']","[-0.15, 0.5]","[0.15, 0.5]",1,1,,,,,,,,,0,1,1,1,0,1,1,3,,,,,,,,,,,,,,,,,,,,,,,,,,,,,,,,,,,,,,,,,,,,,,,,,,,,,,,2842.5073056969995,None,2842.5073056969995,None,2842.5073056969995,None,m,1,1.2491007549997448,2844.042665647001,None,2844.042665647001,None,2844.042665647001,None,2845.357822377,None,2845.357822377,None,2845.357822377,None,2845.357822377,None,,,,,,,,,,,,,,,,,,,,,,,,,,,,,,,,,,,,,,,,,,,,001,13,2020_Jan_28_1142,spring_faces,3.1.5,60.034115947395,
condition files/Stage1_2.xlsx,,T3,B3,c,"['c', 'm']","['Clue', 'Monopoly']","[-0.15, 0.5]","[0.15, 0.5]",1,1,,,,,,,,,0,1,1,1,0,2,2,4,,,,,,,,,,,,,,,,,,,,,,,,,,,,,,,,,,,,,,,,,,,,,,,,,,,,,,,2847.3245724480003,None,2847.3245724480003,None,2847.3245724480003,None,m,0,3.8560562300008314,2848.8598317960004,None,2848.8598317960004,None,2848.8598317960004,None,2852.774887284,None,2852.774887284,None,2852.774887284,None,2852.774887284,None,,,,,,,,,,,,,,,,,,,,,,,,,,,,,,,,,,,,,,,,,,,,001,13,2020_Jan_28_1142,spring_faces,3.1.5,60.034115947395,
condition files/Stage1_2.xlsx,,T4,B4,m,"['c', 'm']","['Clue', 'Monopoly']","[-0.15, 0.5]","[0.15, 0.5]",1,1,,,,,,,,,0,1,1,1,0,3,3,7,,,,,,,,,,,,,,,,,,,,,,,,,,,,,,,,,,,,,,,,,,,,,,,,,,,,,,,2854.741129244001,None,2854.741129244001,None,2854.741129244001,None,m,1,1.5613932720007142,2856.2743608439996,None,2856.2743608439996,None,2856.2743608439996,None,2857.90744628,None,2857.90744628,None,2857.90744628,None,2857.90744628,None,,,,,,,,,,,,,,,,,,,,,,,,,,,,,,,,,,,,,,,,,,,,001,13,2020_Jan_28_1142,spring_faces,3.1.5,60.034115947395,
condition files/Stage1_2.xlsx,,B4,T3,c,"['c', 'm']","['Clue', 'Monopoly']","[-0.15, 0.5]","[0.15, 0.5]",1,1,,,,,,,,,0,1,1,1,0,4,4,5,,,,,,,,,,,,,,,,,,,,,,,,,,,,,,,,,,,,,,,,,,,,,,,,,,,,,,,2859.8577100250004,None,2859.8577100250004,None,2859.8577100250004,None,c,1,2.2193908039989765,2861.3924470029997,None,2861.3924470029997,None,2861.3924470029997,None,2863.677493071,None,2863.677493071,None,2863.677493071,None,2863.677493071,None,,,,,,,,,,,,,,,,,,,,,,,,,,,,,,,,,,,,,,,,,,,,001,13,2020_Jan_28_1142,spring_faces,3.1.5,60.034115947395,
condition files/Stage1_2.xlsx,,B1,T1,c,"['c', 'm']","['Clue', 'Monopoly']","[-0.15, 0.5]","[0.15, 0.5]",1,1,,,,,,,,,0,1,1,1,0,5,5,0,,,,,,,,,,,,,,,,,,,,,,,,,,,,,,,,,,,,,,,,,,,,,,,,,,,,,,,2865.6404814960006,None,2865.6404814960006,None,2865.6404814960006,None,m,0,1.061367505999442,2867.1744200890007,None,2867.1744200890007,None,2867.1744200890007,None,2868.2911978579996,None,2868.2911978579996,None,2868.2911978579996,None,2868.2911978579996,None,,,,,,,,,,,,,,,,,,,,,,,,,,,,,,,,,,,,,,,,,,,,001,13,2020_Jan_28_1142,spring_faces,3.1.5,60.034115947395,
condition files/Stage1_2.xlsx,,T1,B2,m,"['c', 'm']","['Clue', 'Monopoly']","[-0.15, 0.5]","[0.15, 0.5]",1,1,,,,,,,,,0,1,1,1,0,6,6,2,,,,,,,,,,,,,,,,,,,,,,,,,,,,,,,,,,,,,,,,,,,,,,,,,,,,,,,2870.2577011920002,None,2870.2577011920002,None,2870.2577011920002,None,m,1,1.5801510339988454,2871.791638939001,None,2871.791638939001,None,2871.791638939001,None,2873.427287710001,None,2873.427287710001,None,2873.427287710001,None,2873.427287710001,None,,,,,,,,,,,,,,,,,,,,,,,,,,,,,,,,,,,,,,,,,,,,001,13,2020_Jan_28_1142,spring_faces,3.1.5,60.034115947395,
condition files/Stage1_2.xlsx,,T2,B1,c,"['c', 'm']","['Clue', 'Monopoly']","[-0.15, 0.5]","[0.15, 0.5]",1,1,,,,,,,,,0,1,1,1,0,7,7,1,,,,,,,,,,,,,,,,,,,,,,,,,,,,,,,,,,,,,,,,,,,,,,,,,,,,,,,2875.3911315290006,None,2875.3911315290006,None,2875.3911315290006,None,m,0,2.0634025370000018,2876.924422178001,None,2876.924422178001,None,2876.924422178001,None,2879.04158329,None,2879.04158329,None,2879.04158329,None,2879.04158329,None,,,,,,,,,,,,,,,,,,,,,,,,,,,,,,,,,,,,,,,,,,,,001,13,2020_Jan_28_1142,spring_faces,3.1.5,60.034115947395,
condition files/Stage1_1.xlsx,,B3,T3,c,"['c', 'm']","['Clue', 'Monopoly']","[-0.15, 0.5]","[0.15, 0.5]",1,1,,,,,,,,,0,2,2,2,0,0,0,4,,,,,,,,,,,,,,,,,,,,,,,,,,,,,,,,,,,,,,,,,,,,,,,,,,,,,,,2881.024889323,None,2881.024889323,None,2881.024889323,None,c,1,1.5326018659998226,2882.559203453,None,2882.559203453,None,2882.559203453,None,2884.158013514001,None,2884.158013514001,None,2884.158013514001,None,2884.158013514001,None,,,,,,,,,,,,,,,,,,,,,,,,,,,,,,,,,,,,,,,,,,,,001,13,2020_Jan_28_1142,spring_faces,3.1.5,60.034115947395,
condition files/Stage1_1.xlsx,,T1,B1,c,"['c', 'm']","['Clue', 'Monopoly']","[-0.15, 0.5]","[0.15, 0.5]",1,1,,,,,,,,,0,2,2,2,0,1,1,0,,,,,,,,,,,,,,,,,,,,,,,,,,,,,,,,,,,,,,,,,,,,,,,,,,,,,,,2886.124414007001,None,2886.124414007001,None,2886.124414007001,None,m,0,1.0900615499995183,2887.657832836001,None,2887.657832836001,None,2887.657832836001,None,2888.8081489300002,None,2888.8081489300002,None,2888.8081489300002,None,2888.8081489300002,None,,,,,,,,,,,,,,,,,,,,,,,,,,,,,,,,,,,,,,,,,,,,001,13,2020_Jan_28_1142,spring_faces,3.1.5,60.034115947395,
condition files/Stage1_1.xlsx,,T4,B3,m,"['c', 'm']","['Clue', 'Monopoly']","[-0.15, 0.5]","[0.15, 0.5]",1,1,,,,,,,,,0,2,2,2,0,2,2,6,,,,,,,,,,,,,,,,,,,,,,,,,,,,,,,,,,,,,,,,,,,,,,,,,,,,,,,2890.7743772960002,None,2890.7743772960002,None,2890.7743772960002,None,m,1,0.629414741999426,2892.310404121001,None,2892.310404121001,None,2892.310404121001,None,2893.007518882001,None,2893.007518882001,None,2893.007518882001,None,2893.007518882001,None,,,,,,,,,,,,,,,,,,,,,,,,,,,,,,,,,,,,,,,,,,,,001,13,2020_Jan_28_1142,spring_faces,3.1.5,60.034115947395,
condition files/Stage1_1.xlsx,,B4,T4,m,"['c', 'm']","['Clue', 'Monopoly']","[-0.15, 0.5]","[0.15, 0.5]",1,1,,,,,,,,,0,2,2,2,0,3,3,7,,,,,,,,,,,,,,,,,,,,,,,,,,,,,,,,,,,,,,,,,,,,,,,,,,,,,,,2894.9578223589997,None,2894.9578223589997,None,2894.9578223589997,None,m,1,0.5286558010011504,2896.5071409270004,None,2896.5071409270004,None,2896.5071409270004,None,2897.1078875540006,None,2897.1078875540006,None,2897.1078875540006,None,2897.1078875540006,None,,,,,,,,,,,,,,,,,,,,,,,,,,,,,,,,,,,,,,,,,,,,001,13,2020_Jan_28_1142,spring_faces,3.1.5,60.034115947395,
condition files/Stage1_1.xlsx,,B2,T1,m,"['c', 'm']","['Clue', 'Monopoly']","[-0.15, 0.5]","[0.15, 0.5]",1,1,,,,,,,,,0,2,2,2,0,4,4,2,,,,,,,,,,,,,,,,,,,,,,,,,,,,,,,,,,,,,,,,,,,,,,,,,,,,,,,2899.057660171,None,2899.057660171,None,2899.057660171,None,c,0,1.1166222100000596,2900.591146596,None,2900.591146596,None,2900.591146596,None,2901.757951507001,None,2901.757951507001,None,2901.757951507001,None,2901.757951507001,None,,,,,,,,,,,,,,,,,,,,,,,,,,,,,,,,,,,,,,,,,,,,001,13,2020_Jan_28_1142,spring_faces,3.1.5,60.034115947395,
condition files/Stage1_1.xlsx,,B1,T2,c,"['c', 'm']","['Clue', 'Monopoly']","[-0.15, 0.5]","[0.15, 0.5]",1,1,,,,,,,,,0,2,2,2,0,5,5,1,,,,,,,,,,,,,,,,,,,,,,,,,,,,,,,,,,,,,,,,,,,,,,,,,,,,,,,2903.7244995870005,None,2903.7244995870005,None,2903.7244995870005,None,m,0,0.8500375410003471,2905.2578032340007,None,2905.2578032340007,None,2905.2578032340007,None,2906.1747488500005,None,2906.1747488500005,None,2906.1747488500005,None,2906.1747488500005,None,,,,,,,,,,,,,,,,,,,,,,,,,,,,,,,,,,,,,,,,,,,,001,13,2020_Jan_28_1142,spring_faces,3.1.5,60.034115947395,
condition files/Stage1_1.xlsx,,T3,B4,c,"['c', 'm']","['Clue', 'Monopoly']","[-0.15, 0.5]","[0.15, 0.5]",1,1,,,,,,,,,0,2,2,2,0,6,6,5,,,,,,,,,,,,,,,,,,,,,,,,,,,,,,,,,,,,,,,,,,,,,,,,,,,,,,,2908.124390361001,None,2908.124390361001,None,2908.124390361001,None,c,1,1.121317488999921,2909.674501233001,None,2909.674501233001,None,2909.674501233001,None,2910.857263737,None,2910.857263737,None,2910.857263737,None,2910.857263737,None,,,,,,,,,,,,,,,,,,,,,,,,,,,,,,,,,,,,,,,,,,,,001,13,2020_Jan_28_1142,spring_faces,3.1.5,60.034115947395,
condition files/Stage1_1.xlsx,,T2,B2,m,"['c', 'm']","['Clue', 'Monopoly']","[-0.15, 0.5]","[0.15, 0.5]",1,1,,,,,,,,,0,2,2,2,0,7,7,3,,,,,,,,,,,,,,,,,,,,,,,,,,,,,,,,,,,,,,,,,,,,,,,,,,,,,,,2912.8243380050008,None,2912.8243380050008,None,2912.8243380050008,None,m,1,1.189898587999778,2914.3579840950006,None,2914.3579840950006,None,2914.3579840950006,None,2915.624261271001,None,2915.624261271001,None,2915.624261271001,None,2915.624261271001,None,,,,,,,,,,,,,,,,,,,,,,,,,,,,,,,,,,,,,,,,,,,,001,13,2020_Jan_28_1142,spring_faces,3.1.5,60.034115947395,
condition files/Stage1_2.xlsx,,B4,T3,c,"['c', 'm']","['Clue', 'Monopoly']","[-0.15, 0.5]","[0.15, 0.5]",1,1,,,,,,,,,0,3,3,3,0,0,0,5,,,,,,,,,,,,,,,,,,,,,,,,,,,,,,,,,,,,,,,,,,,,,,,,,,,,,,,2917.5913035000012,None,2917.5913035000012,None,2917.5913035000012,None,m,0,1.2544490079999377,2919.1254003900012,None,2919.1254003900012,None,2919.1254003900012,None,2920.440904801,None,2920.440904801,None,2920.440904801,None,2920.440904801,None,,,,,,,,,,,,,,,,,,,,,,,,,,,,,,,,,,,,,,,,,,,,001,13,2020_Jan_28_1142,spring_faces,3.1.5,60.034115947395,
condition files/Stage1_2.xlsx,,T2,B1,c,"['c', 'm']","['Clue', 'Monopoly']","[-0.15, 0.5]","[0.15, 0.5]",1,1,,,,,,,,,0,3,3,3,0,1,1,1,,,,,,,,,,,,,,,,,,,,,,,,,,,,,,,,,,,,,,,,,,,,,,,,,,,,,,,2922.407659337001,None,2922.407659337001,None,2922.407659337001,None,m,0,0.8212391840006603,2923.9425225530013,None,2923.9425225530013,None,2923.9425225530013,None,2924.823570171,None,2924.823570171,None,2924.823570171,None,2924.823570171,None,,,,,,,,,,,,,,,,,,,,,,,,,,,,,,,,,,,,,,,,,,,,001,13,2020_Jan_28_1142,spring_faces,3.1.5,60.034115947395,
condition files/Stage1_2.xlsx,,B3,T4,m,"['c', 'm']","['Clue', 'Monopoly']","[-0.15, 0.5]","[0.15, 0.5]",1,1,,,,,,,,,0,3,3,3,0,2,2,6,,,,,,,,,,,,,,,,,,,,,,,,,,,,,,,,,,,,,,,,,,,,,,,,,,,,,,,2926.790575522,None,2926.790575522,None,2926.790575522,None,m,1,1.3188979779988586,2928.3409138839997,None,2928.3409138839997,None,2928.3409138839997,None,2929.7405607220007,None,2929.7405607220007,None,2929.7405607220007,None,2929.7405607220007,None,,,,,,,,,,,,,,,,,,,,,,,,,,,,,,,,,,,,,,,,,,,,001,13,2020_Jan_28_1142,spring_faces,3.1.5,60.034115947395,
condition files/Stage1_2.xlsx,,T4,B4,m,"['c', 'm']","['Clue', 'Monopoly']","[-0.15, 0.5]","[0.15, 0.5]",1,1,,,,,,,,,0,3,3,3,0,3,3,7,,,,,,,,,,,,,,,,,,,,,,,,,,,,,,,,,,,,,,,,,,,,,,,,,,,,,,,2931.691024306001,None,2931.691024306001,None,2931.691024306001,None,c,0,2.2429732300006435,2933.2249064320004,None,2933.2249064320004,None,2933.2249064320004,None,2935.524491827,None,2935.524491827,None,2935.524491827,None,2935.524491827,None,,,,,,,,,,,,,,,,,,,,,,,,,,,,,,,,,,,,,,,,,,,,001,13,2020_Jan_28_1142,spring_faces,3.1.5,60.034115947395,
condition files/Stage1_2.xlsx,,B1,T1,c,"['c', 'm']","['Clue', 'Monopoly']","[-0.15, 0.5]","[0.15, 0.5]",1,1,,,,,,,,,0,3,3,3,0,4,4,0,,,,,,,,,,,,,,,,,,,,,,,,,,,,,,,,,,,,,,,,,,,,,,,,,,,,,,,2937.491027958,None,2937.491027958,None,2937.491027958,None,c,1,1.6273087589997886,2939.024592283,None,2939.024592283,None,2939.024592283,None,2940.7094124819996,None,2940.7094124819996,None,2940.7094124819996,None,2940.7094124819996,None,,,,,,,,,,,,,,,,,,,,,,,,,,,,,,,,,,,,,,,,,,,,001,13,2020_Jan_28_1142,spring_faces,3.1.5,60.034115947395,
condition files/Stage1_2.xlsx,,B2,T2,m,"['c', 'm']","['Clue', 'Monopoly']","[-0.15, 0.5]","[0.15, 0.5]",1,1,,,,,,,,,0,3,3,3,0,5,5,3,,,,,,,,,,,,,,,,,,,,,,,,,,,,,,,,,,,,,,,,,,,,,,,,,,,,,,,2942.6737696069995,None,2942.6737696069995,None,2942.6737696069995,None,m,1,1.69217464599933,2944.207711551,None,2944.207711551,None,2944.207711551,None,2945.974430297001,None,2945.974430297001,None,2945.974430297001,None,2945.974430297001,None,,,,,,,,,,,,,,,,,,,,,,,,,,,,,,,,,,,,,,,,,,,,001,13,2020_Jan_28_1142,spring_faces,3.1.5,60.034115947395,
condition files/Stage1_2.xlsx,,T3,B3,c,"['c', 'm']","['Clue', 'Monopoly']","[-0.15, 0.5]","[0.15, 0.5]",1,1,,,,,,,,,0,3,3,3,0,6,6,4,,,,,,,,,,,,,,,,,,,,,,,,,,,,,,,,,,,,,,,,,,,,,,,,,,,,,,,2947.9244245520003,None,2947.9244245520003,None,2947.9244245520003,None,m,0,1.5781539019990305,2949.457614201001,None,2949.457614201001,None,2949.457614201001,None,2951.091313680001,None,2951.091313680001,None,2951.091313680001,None,2951.091313680001,None,,,,,,,,,,,,,,,,,,,,,,,,,,,,,,,,,,,,,,,,,,,,001,13,2020_Jan_28_1142,spring_faces,3.1.5,60.034115947395,
condition files/Stage1_2.xlsx,,T1,B2,m,"['c', 'm']","['Clue', 'Monopoly']","[-0.15, 0.5]","[0.15, 0.5]",1,1,,,,,,,,,0,3,3,3,0,7,7,2,,,,,,,,,,,,,,,,,,,,,,,,,,,,,,,,,,,,,,,,,,,,,,,,,,,,,,,2953.0576426610005,None,2953.0576426610005,None,2953.0576426610005,None,c,0,1.0509800620002352,2954.5928360770013,None,2954.5928360770013,None,2954.5928360770013,None,2955.710316273,None,2955.710316273,None,2955.710316273,None,2955.710316273,None,,,,,,,,,,,,,,,,,,,,,,,,,,,,,,,,,,,,,,,,,,,,001,13,2020_Jan_28_1142,spring_faces,3.1.5,60.034115947395,
condition files/Stage1_1.xlsx,,B2,T1,m,"['c', 'm']","['Clue', 'Monopoly']","[-0.15, 0.5]","[0.15, 0.5]",1,1,,,,,,,,,0,4,4,4,0,0,0,2,,,,,,,,,,,,,,,,,,,,,,,,,,,,,,,,,,,,,,,,,,,,,,,,,,,,,,,2957.691325803,None,2957.691325803,None,2957.691325803,None,m,1,1.5070375799987232,2959.224864635,None,2959.224864635,None,2959.224864635,None,2960.7912938910013,None,2960.7912938910013,None,2960.7912938910013,None,2960.7912938910013,None,,,,,,,,,,,,,,,,,,,,,,,,,,,,,,,,,,,,,,,,,,,,001,13,2020_Jan_28_1142,spring_faces,3.1.5,60.034115947395,
condition files/Stage1_1.xlsx,,B4,T4,m,"['c', 'm']","['Clue', 'Monopoly']","[-0.15, 0.5]","[0.15, 0.5]",1,1,,,,,,,,,0,4,4,4,0,1,1,7,,,,,,,,,,,,,,,,,,,,,,,,,,,,,,,,,,,,,,,,,,,,,,,,,,,,,,,2962.757473806001,None,2962.757473806001,None,2962.757473806001,None,m,1,0.8079970750004577,2964.307884687001,None,2964.307884687001,None,2964.307884687001,None,2965.174526508001,None,2965.174526508001,None,2965.174526508001,None,2965.174526508001,None,,,,,,,,,,,,,,,,,,,,,,,,,,,,,,,,,,,,,,,,,,,,001,13,2020_Jan_28_1142,spring_faces,3.1.5,60.034115947395,
condition files/Stage1_1.xlsx,,B1,T2,c,"['c', 'm']","['Clue', 'Monopoly']","[-0.15, 0.5]","[0.15, 0.5]",1,1,,,,,,,,,0,4,4,4,0,2,2,1,,,,,,,,,,,,,,,,,,,,,,,,,,,,,,,,,,,,,,,,,,,,,,,,,,,,,,,2967.1410445620004,None,2967.1410445620004,None,2967.1410445620004,None,m,0,0.8093855539991637,2968.674485451,None,2968.674485451,None,2968.674485451,None,2969.5412572610003,None,2969.5412572610003,None,2969.5412572610003,None,2969.5412572610003,None,,,,,,,,,,,,,,,,,,,,,,,,,,,,,,,,,,,,,,,,,,,,001,13,2020_Jan_28_1142,spring_faces,3.1.5,60.034115947395,
condition files/Stage1_1.xlsx,,B3,T3,c,"['c', 'm']","['Clue', 'Monopoly']","[-0.15, 0.5]","[0.15, 0.5]",1,1,,,,,,,,,0,4,4,4,0,3,3,4,,,,,,,,,,,,,,,,,,,,,,,,,,,,,,,,,,,,,,,,,,,,,,,,,,,,,,,2971.5076778229995,None,2971.5076778229995,None,2971.5076778229995,None,m,0,1.8031051779998961,2973.0407056080003,None,2973.0407056080003,None,2973.0407056080003,None,2974.9081931830005,None,2974.9081931830005,None,2974.9081931830005,None,2974.9081931830005,None,,,,,,,,,,,,,,,,,,,,,,,,,,,,,,,,,,,,,,,,,,,,001,13,2020_Jan_28_1142,spring_faces,3.1.5,60.034115947395,
condition files/Stage1_1.xlsx,,T2,B2,m,"['c', 'm']","['Clue', 'Monopoly']","[-0.15, 0.5]","[0.15, 0.5]",1,1,,,,,,,,,0,4,4,4,0,4,4,3,,,,,,,,,,,,,,,,,,,,,,,,,,,,,,,,,,,,,,,,,,,,,,,,,,,,,,,2976.8743525190002,None,2976.8743525190002,None,2976.8743525190002,None,c,0,1.681961764999869,2978.4098287430006,None,2978.4098287430006,None,2978.4098287430006,None,2980.157554775,None,2980.157554775,None,2980.157554775,None,2980.157554775,None,,,,,,,,,,,,,,,,,,,,,,,,,,,,,,,,,,,,,,,,,,,,001,13,2020_Jan_28_1142,spring_faces,3.1.5,60.034115947395,
condition files/Stage1_1.xlsx,,T3,B4,c,"['c', 'm']","['Clue', 'Monopoly']","[-0.15, 0.5]","[0.15, 0.5]",1,1,,,,,,,,,0,4,4,4,0,5,5,5,,,,,,,,,,,,,,,,,,,,,,,,,,,,,,,,,,,,,,,,,,,,,,,,,,,,,,,2982.1243768780005,None,2982.1243768780005,None,2982.1243768780005,None,c,1,0.9920003499992163,2983.659897011001,None,2983.659897011001,None,2983.659897011001,None,2984.7104030970004,None,2984.7104030970004,None,2984.7104030970004,None,2984.7104030970004,None,,,,,,,,,,,,,,,,,,,,,,,,,,,,,,,,,,,,,,,,,,,,001,13,2020_Jan_28_1142,spring_faces,3.1.5,60.034115947395,
condition files/Stage1_1.xlsx,,T1,B1,c,"['c', 'm']","['Clue', 'Monopoly']","[-0.15, 0.5]","[0.15, 0.5]",1,1,,,,,,,,,0,4,4,4,0,6,6,0,,,,,,,,,,,,,,,,,,,,,,,,,,,,,,,,,,,,,,,,,,,,,,,,,,,,,,,2986.6743170070004,None,2986.6743170070004,None,2986.6743170070004,None,c,1,1.6757474940004613,2988.208128329001,None,2988.208128329001,None,2988.208128329001,None,2989.941112149001,None,2989.941112149001,None,2989.941112149001,None,2989.941112149001,None,,,,,,,,,,,,,,,,,,,,,,,,,,,,,,,,,,,,,,,,,,,,001,13,2020_Jan_28_1142,spring_faces,3.1.5,60.034115947395,
condition files/Stage1_1.xlsx,,T4,B3,m,"['c', 'm']","['Clue', 'Monopoly']","[-0.15, 0.5]","[0.15, 0.5]",1,1,,,,,,,,,0,4,4,4,0,7,7,6,,,,,,,,,,,,,,,,,,,,,,,,,,,,,,,,,,,,,,,,,,,,,,,,,,,,,,,2991.9077270960006,None,2991.9077270960006,None,2991.9077270960006,None,m,1,0.6828801470001054,2993.440928725,None,2993.440928725,None,2993.440928725,None,2994.1912560540004,None,2994.1912560540004,None,2994.1912560540004,None,2994.1912560540004,None,,,,,,,,,,,,,,,,,,,,,,,,,,,,,,,,,,,,,,,,,,,,001,13,2020_Jan_28_1142,spring_faces,3.1.5,60.034115947395,
condition files/Stage1_2.xlsx,,T4,B4,m,"['c', 'm']","['Clue', 'Monopoly']","[-0.15, 0.5]","[0.15, 0.5]",1,1,,,,,,,,,0,5,5,5,0,0,0,7,,,,,,,,,,,,,,,,,,,,,,,,,,,,,,,,,,,,,,,,,,,,,,,,,,,,,,,2996.1580614940012,None,2996.1580614940012,None,2996.1580614940012,None,m,1,0.46270410099896253,2997.693121338001,None,2997.693121338001,None,2997.693121338001,None,2998.208106446,None,2998.208106446,None,2998.208106446,None,2998.208106446,None,,,,,,,,,,,,,,,,,,,,,,,,,,,,,,,,,,,,,,,,,,,,001,13,2020_Jan_28_1142,spring_faces,3.1.5,60.034115947395,
condition files/Stage1_2.xlsx,,B3,T4,m,"['c', 'm']","['Clue', 'Monopoly']","[-0.15, 0.5]","[0.15, 0.5]",1,1,,,,,,,,,0,5,5,5,0,1,1,6,,,,,,,,,,,,,,,,,,,,,,,,,,,,,,,,,,,,,,,,,,,,,,,,,,,,,,,3000.1742803710003,None,3000.1742803710003,None,3000.1742803710003,None,m,1,0.43113304100006644,3001.708677449,None,3001.708677449,None,3001.708677449,None,3002.1907023189997,None,3002.1907023189997,None,3002.1907023189997,None,3002.1907023189997,None,,,,,,,,,,,,,,,,,,,,,,,,,,,,,,,,,,,,,,,,,,,,001,13,2020_Jan_28_1142,spring_faces,3.1.5,60.034115947395,
condition files/Stage1_2.xlsx,,B4,T3,c,"['c', 'm']","['Clue', 'Monopoly']","[-0.15, 0.5]","[0.15, 0.5]",1,1,,,,,,,,,0,5,5,5,0,2,2,5,,,,,,,,,,,,,,,,,,,,,,,,,,,,,,,,,,,,,,,,,,,,,,,,,,,,,,,3004.157700891001,None,3004.157700891001,None,3004.157700891001,None,c,1,0.9765968539995811,3005.6912544179995,None,3005.6912544179995,None,3005.6912544179995,None,3006.7274238400005,None,3006.7274238400005,None,3006.7274238400005,None,3006.7274238400005,None,,,,,,,,,,,,,,,,,,,,,,,,,,,,,,,,,,,,,,,,,,,,001,13,2020_Jan_28_1142,spring_faces,3.1.5,60.034115947395,
condition files/Stage1_2.xlsx,,T1,B2,m,"['c', 'm']","['Clue', 'Monopoly']","[-0.15, 0.5]","[0.15, 0.5]",1,1,,,,,,,,,0,5,5,5,0,3,3,2,,,,,,,,,,,,,,,,,,,,,,,,,,,,,,,,,,,,,,,,,,,,,,,,,,,,,,,3008.6907854969995,None,3008.6907854969995,None,3008.6907854969995,None,c,0,1.1452493420001701,3010.226568145001,None,3010.226568145001,None,3010.226568145001,None,3011.4414957139998,None,3011.4414957139998,None,3011.4414957139998,None,3011.4414957139998,None,,,,,,,,,,,,,,,,,,,,,,,,,,,,,,,,,,,,,,,,,,,,001,13,2020_Jan_28_1142,spring_faces,3.1.5,60.034115947395,
condition files/Stage1_2.xlsx,,B2,T2,m,"['c', 'm']","['Clue', 'Monopoly']","[-0.15, 0.5]","[0.15, 0.5]",1,1,,,,,,,,,0,5,5,5,0,4,4,3,,,,,,,,,,,,,,,,,,,,,,,,,,,,,,,,,,,,,,,,,,,,,,,,,,,,,,,3013.391090012001,None,3013.391090012001,None,3013.391090012001,None,m,1,0.6067128150007193,3014.9411577440005,None,3014.9411577440005,None,3014.9411577440005,None,3015.607114751001,None,3015.607114751001,None,3015.607114751001,None,3015.607114751001,None,,,,,,,,,,,,,,,,,,,,,,,,,,,,,,,,,,,,,,,,,,,,001,13,2020_Jan_28_1142,spring_faces,3.1.5,60.034115947395,
condition files/Stage1_2.xlsx,,T3,B3,c,"['c', 'm']","['Clue', 'Monopoly']","[-0.15, 0.5]","[0.15, 0.5]",1,1,,,,,,,,,0,5,5,5,0,5,5,4,,,,,,,,,,,,,,,,,,,,,,,,,,,,,,,,,,,,,,,,,,,,,,,,,,,,,,,3017.574387042001,None,3017.574387042001,None,3017.574387042001,None,m,0,0.7261324400005833,3019.109658223,None,3019.109658223,None,3019.109658223,None,3019.8915092509997,None,3019.8915092509997,None,3019.8915092509997,None,3019.8915092509997,None,,,,,,,,,,,,,,,,,,,,,,,,,,,,,,,,,,,,,,,,,,,,001,13,2020_Jan_28_1142,spring_faces,3.1.5,60.034115947395,
condition files/Stage1_2.xlsx,,B1,T1,c,"['c', 'm']","['Clue', 'Monopoly']","[-0.15, 0.5]","[0.15, 0.5]",1,1,,,,,,,,,0,5,5,5,0,6,6,0,,,,,,,,,,,,,,,,,,,,,,,,,,,,,,,,,,,,,,,,,,,,,,,,,,,,,,,3021.8578543759995,None,3021.8578543759995,None,3021.8578543759995,None,m,0,0.7805031839998264,3023.3913136499996,None,3023.3913136499996,None,3023.3913136499996,None,3024.2240086300008,None,3024.2240086300008,None,3024.2240086300008,None,3024.2240086300008,None,,,,,,,,,,,,,,,,,,,,,,,,,,,,,,,,,,,,,,,,,,,,001,13,2020_Jan_28_1142,spring_faces,3.1.5,60.034115947395,
condition files/Stage1_2.xlsx,,T2,B1,c,"['c', 'm']","['Clue', 'Monopoly']","[-0.15, 0.5]","[0.15, 0.5]",1,1,,,,,,,,,0,5,5,5,0,7,7,1,,,,,,,,,,,,,,,,,,,,,,,,,,,,,,,,,,,,,,,,,,,,,,,,,,,,,,,3026.191089606,None,3026.191089606,None,3026.191089606,None,c,1,0.5597401790000731,3027.7241398589995,None,3027.7241398589995,None,3027.7241398589995,None,3028.3408719060008,None,3028.3408719060008,None,3028.3408719060008,None,3028.3408719060008,None,,,,,,,,,,,,,,,,,,,,,,,,,,,,,,,,,,,,,,,,,,,,001,13,2020_Jan_28_1142,spring_faces,3.1.5,60.034115947395,
condition files/Stage1_1.xlsx,,B1,T2,c,"['c', 'm']","['Clue', 'Monopoly']","[-0.15, 0.5]","[0.15, 0.5]",1,1,,,,,,,,,0,6,6,6,0,0,0,1,,,,,,,,,,,,,,,,,,,,,,,,,,,,,,,,,,,,,,,,,,,,,,,,,,,,,,,3030.324676551001,None,3030.324676551001,None,3030.324676551001,None,c,1,1.5441557909998664,3031.8596836800007,None,3031.8596836800007,None,3031.8596836800007,None,3033.4582438840007,None,3033.4582438840007,None,3033.4582438840007,None,3033.4582438840007,None,,,,,,,,,,,,,,,,,,,,,,,,,,,,,,,,,,,,,,,,,,,,001,13,2020_Jan_28_1142,spring_faces,3.1.5,60.034115947395,
condition files/Stage1_1.xlsx,,T3,B4,c,"['c', 'm']","['Clue', 'Monopoly']","[-0.15, 0.5]","[0.15, 0.5]",1,1,,,,,,,,,0,6,6,6,0,1,1,5,,,,,,,,,,,,,,,,,,,,,,,,,,,,,,,,,,,,,,,,,,,,,,,,,,,,,,,3035.4241555379995,None,3035.4241555379995,None,3035.4241555379995,None,c,1,0.9573140070006048,3036.958593065001,None,3036.958593065001,None,3036.958593065001,None,3037.9736860890007,None,3037.9736860890007,None,3037.9736860890007,None,3037.9736860890007,None,,,,,,,,,,,,,,,,,,,,,,,,,,,,,,,,,,,,,,,,,,,,001,13,2020_Jan_28_1142,spring_faces,3.1.5,60.034115947395,
condition files/Stage1_1.xlsx,,B4,T4,m,"['c', 'm']","['Clue', 'Monopoly']","[-0.15, 0.5]","[0.15, 0.5]",1,1,,,,,,,,,0,6,6,6,0,2,2,7,,,,,,,,,,,,,,,,,,,,,,,,,,,,,,,,,,,,,,,,,,,,,,,,,,,,,,,3039.9409920590006,None,3039.9409920590006,None,3039.9409920590006,None,m,1,1.1443637410011434,3041.475503267,None,3041.475503267,None,3041.475503267,None,3042.6914907990013,None,3042.6914907990013,None,3042.6914907990013,None,3042.6914907990013,None,,,,,,,,,,,,,,,,,,,,,,,,,,,,,,,,,,,,,,,,,,,,001,13,2020_Jan_28_1142,spring_faces,3.1.5,60.034115947395,
condition files/Stage1_1.xlsx,,T1,B1,c,"['c', 'm']","['Clue', 'Monopoly']","[-0.15, 0.5]","[0.15, 0.5]",1,1,,,,,,,,,0,6,6,6,0,3,3,0,,,,,,,,,,,,,,,,,,,,,,,,,,,,,,,,,,,,,,,,,,,,,,,,,,,,,,,3044.641022557,None,3044.641022557,None,3044.641022557,None,c,1,0.8135809800005518,3046.174389322001,None,3046.174389322001,None,3046.174389322001,None,3047.0573637710004,None,3047.0573637710004,None,3047.0573637710004,None,3047.0573637710004,None,,,,,,,,,,,,,,,,,,,,,,,,,,,,,,,,,,,,,,,,,,,,001,13,2020_Jan_28_1142,spring_faces,3.1.5,60.034115947395,
condition files/Stage1_1.xlsx,,B3,T3,c,"['c', 'm']","['Clue', 'Monopoly']","[-0.15, 0.5]","[0.15, 0.5]",1,1,,,,,,,,,0,6,6,6,0,4,4,4,,,,,,,,,,,,,,,,,,,,,,,,,,,,,,,,,,,,,,,,,,,,,,,,,,,,,,,3049.007763474001,None,3049.007763474001,None,3049.007763474001,None,c,1,0.6378031250005733,3050.5580091350002,None,3050.5580091350002,None,3050.5580091350002,None,3051.258087639,None,3051.258087639,None,3051.258087639,None,3051.258087639,None,,,,,,,,,,,,,,,,,,,,,,,,,,,,,,,,,,,,,,,,,,,,001,13,2020_Jan_28_1142,spring_faces,3.1.5,60.034115947395,
condition files/Stage1_1.xlsx,,T4,B3,m,"['c', 'm']","['Clue', 'Monopoly']","[-0.15, 0.5]","[0.15, 0.5]",1,1,,,,,,,,,0,6,6,6,0,5,5,6,,,,,,,,,,,,,,,,,,,,,,,,,,,,,,,,,,,,,,,,,,,,,,,,,,,,,,,3053.224357379,None,3053.224357379,None,3053.224357379,None,m,1,1.574071343000469,3054.757842268,None,3054.757842268,None,3054.757842268,None,3056.392053376001,None,3056.392053376001,None,3056.392053376001,None,3056.392053376001,None,,,,,,,,,,,,,,,,,,,,,,,,,,,,,,,,,,,,,,,,,,,,001,13,2020_Jan_28_1142,spring_faces,3.1.5,60.034115947395,
condition files/Stage1_1.xlsx,,T2,B2,m,"['c', 'm']","['Clue', 'Monopoly']","[-0.15, 0.5]","[0.15, 0.5]",1,1,,,,,,,,,0,6,6,6,0,6,6,3,,,,,,,,,,,,,,,,,,,,,,,,,,,,,,,,,,,,,,,,,,,,,,,,,,,,,,,3058.3576988510013,None,3058.3576988510013,None,3058.3576988510013,None,m,1,0.9666192669992597,3059.893148913001,None,3059.893148913001,None,3059.893148913001,None,3060.9243513790007,None,3060.9243513790007,None,3060.9243513790007,None,3060.9243513790007,None,,,,,,,,,,,,,,,,,,,,,,,,,,,,,,,,,,,,,,,,,,,,001,13,2020_Jan_28_1142,spring_faces,3.1.5,60.034115947395,
condition files/Stage1_1.xlsx,,B2,T1,m,"['c', 'm']","['Clue', 'Monopoly']","[-0.15, 0.5]","[0.15, 0.5]",1,1,,,,,,,,,0,6,6,6,0,7,7,2,,,,,,,,,,,,,,,,,,,,,,,,,,,,,,,,,,,,,,,,,,,,,,,,,,,,,,,3062.891145851001,None,3062.891145851001,None,3062.891145851001,None,m,1,0.7228377729989006,3064.4409164709996,None,3064.4409164709996,None,3064.4409164709996,None,3065.2244346099997,None,3065.2244346099997,None,3065.2244346099997,None,3065.2244346099997,None,,,,,,,,,,,,,,,,,,,,,,,,,,,,,,,,,,,,,,,,,,,,001,13,2020_Jan_28_1142,spring_faces,3.1.5,60.034115947395,
condition files/Stage1_2.xlsx,,B2,T2,m,"['c', 'm']","['Clue', 'Monopoly']","[-0.15, 0.5]","[0.15, 0.5]",1,1,,,,,,,,,0,7,7,7,0,0,0,3,,,,,,,,,,,,,,,,,,,,,,,,,,,,,,,,,,,,,,,,,,,,,,,,,,,,,,,3067.2078391739997,None,3067.2078391739997,None,3067.2078391739997,None,m,1,0.5809630490002746,3068.742867918001,None,3068.742867918001,None,3068.742867918001,None,3069.3741388809995,None,3069.3741388809995,None,3069.3741388809995,None,3069.3741388809995,None,,,,,,,,,,,,,,,,,,,,,,,,,,,,,,,,,,,,,,,,,,,,001,13,2020_Jan_28_1142,spring_faces,3.1.5,60.034115947395,
condition files/Stage1_2.xlsx,,T2,B1,c,"['c', 'm']","['Clue', 'Monopoly']","[-0.15, 0.5]","[0.15, 0.5]",1,1,,,,,,,,,0,7,7,7,0,1,1,1,,,,,,,,,,,,,,,,,,,,,,,,,,,,,,,,,,,,,,,,,,,,,,,,,,,,,,,3071.340162648001,None,3071.340162648001,None,3071.340162648001,None,c,1,0.8323488990008627,3072.8754734150007,None,3072.8754734150007,None,3072.8754734150007,None,3073.7591165470003,None,3073.7591165470003,None,3073.7591165470003,None,3073.7591165470003,None,,,,,,,,,,,,,,,,,,,,,,,,,,,,,,,,,,,,,,,,,,,,001,13,2020_Jan_28_1142,spring_faces,3.1.5,60.034115947395,
condition files/Stage1_2.xlsx,,B3,T4,m,"['c', 'm']","['Clue', 'Monopoly']","[-0.15, 0.5]","[0.15, 0.5]",1,1,,,,,,,,,0,7,7,7,0,2,2,6,,,,,,,,,,,,,,,,,,,,,,,,,,,,,,,,,,,,,,,,,,,,,,,,,,,,,,,3075.7248109930006,None,3075.7248109930006,None,3075.7248109930006,None,m,1,0.8800325880001765,3077.259784543001,None,3077.259784543001,None,3077.259784543001,None,3078.2078676290002,None,3078.2078676290002,None,3078.2078676290002,None,3078.2078676290002,None,,,,,,,,,,,,,,,,,,,,,,,,,,,,,,,,,,,,,,,,,,,,001,13,2020_Jan_28_1142,spring_faces,3.1.5,60.034115947395,
condition files/Stage1_2.xlsx,,T4,B4,m,"['c', 'm']","['Clue', 'Monopoly']","[-0.15, 0.5]","[0.15, 0.5]",1,1,,,,,,,,,0,7,7,7,0,3,3,7,,,,,,,,,,,,,,,,,,,,,,,,,,,,,,,,,,,,,,,,,,,,,,,,,,,,,,,3080.1571479020004,None,3080.1571479020004,None,3080.1571479020004,None,m,1,0.7361461609998514,3081.7076679149995,None,3081.7076679149995,None,3081.7076679149995,None,3082.5079588240005,None,3082.5079588240005,None,3082.5079588240005,None,3082.5079588240005,None,,,,,,,,,,,,,,,,,,,,,,,,,,,,,,,,,,,,,,,,,,,,001,13,2020_Jan_28_1142,spring_faces,3.1.5,60.034115947395,
condition files/Stage1_2.xlsx,,B1,T1,c,"['c', 'm']","['Clue', 'Monopoly']","[-0.15, 0.5]","[0.15, 0.5]",1,1,,,,,,,,,0,7,7,7,0,4,4,0,,,,,,,,,,,,,,,,,,,,,,,,,,,,,,,,,,,,,,,,,,,,,,,,,,,,,,,3084.474380611,None,3084.474380611,None,3084.474380611,None,c,1,0.658568232000107,3086.0093156950006,None,3086.0093156950006,None,3086.0093156950006,None,3086.724010486001,None,3086.724010486001,None,3086.724010486001,None,3086.724010486001,None,,,,,,,,,,,,,,,,,,,,,,,,,,,,,,,,,,,,,,,,,,,,001,13,2020_Jan_28_1142,spring_faces,3.1.5,60.034115947395,
condition files/Stage1_2.xlsx,,T1,B2,m,"['c', 'm']","['Clue', 'Monopoly']","[-0.15, 0.5]","[0.15, 0.5]",1,1,,,,,,,,,0,7,7,7,0,5,5,2,,,,,,,,,,,,,,,,,,,,,,,,,,,,,,,,,,,,,,,,,,,,,,,,,,,,,,,3088.6912092149996,None,3088.6912092149996,None,3088.6912092149996,None,m,1,0.667733804000818,3090.224037109001,None,3090.224037109001,None,3090.224037109001,None,3090.9746912730006,None,3090.9746912730006,None,3090.9746912730006,None,3090.9746912730006,None,,,,,,,,,,,,,,,,,,,,,,,,,,,,,,,,,,,,,,,,,,,,001,13,2020_Jan_28_1142,spring_faces,3.1.5,60.034115947395,
condition files/Stage1_2.xlsx,,B4,T3,c,"['c', 'm']","['Clue', 'Monopoly']","[-0.15, 0.5]","[0.15, 0.5]",1,1,,,,,,,,,0,7,7,7,0,6,6,5,,,,,,,,,,,,,,,,,,,,,,,,,,,,,,,,,,,,,,,,,,,,,,,,,,,,,,,3092.9244478210003,None,3092.9244478210003,None,3092.9244478210003,None,c,1,2.9448523970004317,3094.458945634,None,3094.458945634,None,3094.458945634,None,3097.4593770600004,None,3097.4593770600004,None,3097.4593770600004,None,3097.4593770600004,None,,,,,,,,,,,,,,,,,,,,,,,,,,,,,,,,,,,,,,,,,,,,001,13,2020_Jan_28_1142,spring_faces,3.1.5,60.034115947395,
condition files/Stage1_2.xlsx,,T3,B3,c,"['c', 'm']","['Clue', 'Monopoly']","[-0.15, 0.5]","[0.15, 0.5]",1,1,,,,,,,,,0,7,7,7,0,7,7,4,,,,,,,,,,,,,,,,,,,,,,,,,,,,,,,,,,,,,,,,,,,,,,,,,,,,,,,3099.4243412720007,None,3099.4243412720007,None,3099.4243412720007,None,c,1,0.7181129199998395,3100.9576584240003,None,3100.9576584240003,None,3100.9576584240003,None,3101.7414469220003,None,3101.7414469220003,None,3101.7414469220003,None,3101.7414469220003,None,,,,,,,,,,,,,,,,,,,,,,,,,,,,,,,,,,,,,,,,,,,,001,13,2020_Jan_28_1142,spring_faces,3.1.5,60.034115947395,
condition files/Stage1_1.xlsx,,T4,B3,m,"['c', 'm']","['Clue', 'Monopoly']","[-0.15, 0.5]","[0.15, 0.5]",1,1,,,,,,,,,0,8,8,8,0,0,0,6,,,,,,,,,,,,,,,,,,,,,,,,,,,,,,,,,,,,,,,,,,,,,,,,,,,,,,,3103.724577709001,None,3103.724577709001,None,3103.724577709001,None,m,1,0.7675069150009222,3105.2603276200007,None,3105.2603276200007,None,3105.2603276200007,None,3106.1071896989997,None,3106.1071896989997,None,3106.1071896989997,None,3106.1071896989997,None,,,,,,,,,,,,,,,,,,,,,,,,,,,,,,,,,,,,,,,,,,,,001,13,2020_Jan_28_1142,spring_faces,3.1.5,60.034115947395,
condition files/Stage1_1.xlsx,,T1,B1,c,"['c', 'm']","['Clue', 'Monopoly']","[-0.15, 0.5]","[0.15, 0.5]",1,1,,,,,,,,,0,8,8,8,0,1,1,0,,,,,,,,,,,,,,,,,,,,,,,,,,,,,,,,,,,,,,,,,,,,,,,,,,,,,,,3108.057677338,None,3108.057677338,None,3108.057677338,None,c,1,2.4529002770013904,3109.5909244490012,None,3109.5909244490012,None,3109.5909244490012,None,3112.1101678760006,None,3112.1101678760006,None,3112.1101678760006,None,3112.1101678760006,None,,,,,,,,,,,,,,,,,,,,,,,,,,,,,,,,,,,,,,,,,,,,001,13,2020_Jan_28_1142,spring_faces,3.1.5,60.034115947395,
condition files/Stage1_1.xlsx,,T2,B2,m,"['c', 'm']","['Clue', 'Monopoly']","[-0.15, 0.5]","[0.15, 0.5]",1,1,,,,,,,,,0,8,8,8,0,2,2,3,,,,,,,,,,,,,,,,,,,,,,,,,,,,,,,,,,,,,,,,,,,,,,,,,,,,,,,3114.074242896,None,3114.074242896,None,3114.074242896,None,m,1,1.9702435560011509,3115.609593344001,None,3115.609593344001,None,3115.609593344001,None,3117.657820478,None,3117.657820478,None,3117.657820478,None,3117.657820478,None,,,,,,,,,,,,,,,,,,,,,,,,,,,,,,,,,,,,,,,,,,,,001,13,2020_Jan_28_1142,spring_faces,3.1.5,60.034115947395,
condition files/Stage1_1.xlsx,,B1,T2,c,"['c', 'm']","['Clue', 'Monopoly']","[-0.15, 0.5]","[0.15, 0.5]",1,1,,,,,,,,,0,8,8,8,0,3,3,1,,,,,,,,,,,,,,,,,,,,,,,,,,,,,,,,,,,,,,,,,,,,,,,,,,,,,,,3119.607843807,None,3119.607843807,None,3119.607843807,None,c,1,2.262811849001082,3121.1410224829997,None,3121.1410224829997,None,3121.1410224829997,None,3123.4604983339996,None,3123.4604983339996,None,3123.4604983339996,None,3123.4604983339996,None,,,,,,,,,,,,,,,,,,,,,,,,,,,,,,,,,,,,,,,,,,,,001,13,2020_Jan_28_1142,spring_faces,3.1.5,60.034115947395,
condition files/Stage1_1.xlsx,,T3,B4,c,"['c', 'm']","['Clue', 'Monopoly']","[-0.15, 0.5]","[0.15, 0.5]",1,1,,,,,,,,,0,8,8,8,0,4,4,5,,,,,,,,,,,,,,,,,,,,,,,,,,,,,,,,,,,,,,,,,,,,,,,,,,,,,,,3125.4244842629996,None,3125.4244842629996,None,3125.4244842629996,None,c,1,0.7012657729992497,3126.974523539,None,3126.974523539,None,3126.974523539,None,3127.741329628001,None,3127.741329628001,None,3127.741329628001,None,3127.741329628001,None,,,,,,,,,,,,,,,,,,,,,,,,,,,,,,,,,,,,,,,,,,,,001,13,2020_Jan_28_1142,spring_faces,3.1.5,60.034115947395,
condition files/Stage1_1.xlsx,,B2,T1,m,"['c', 'm']","['Clue', 'Monopoly']","[-0.15, 0.5]","[0.15, 0.5]",1,1,,,,,,,,,0,8,8,8,0,5,5,2,,,,,,,,,,,,,,,,,,,,,,,,,,,,,,,,,,,,,,,,,,,,,,,,,,,,,,,3129.707731464001,None,3129.707731464001,None,3129.707731464001,None,m,1,0.7226414140004636,3131.24126196,None,3131.24126196,None,3131.24126196,None,3132.02481995,None,3132.02481995,None,3132.02481995,None,3132.02481995,None,,,,,,,,,,,,,,,,,,,,,,,,,,,,,,,,,,,,,,,,,,,,001,13,2020_Jan_28_1142,spring_faces,3.1.5,60.034115947395,
condition files/Stage1_1.xlsx,,B4,T4,m,"['c', 'm']","['Clue', 'Monopoly']","[-0.15, 0.5]","[0.15, 0.5]",1,1,,,,,,,,,0,8,8,8,0,6,6,7,,,,,,,,,,,,,,,,,,,,,,,,,,,,,,,,,,,,,,,,,,,,,,,,,,,,,,,3133.991034564,None,3133.991034564,None,3133.991034564,None,m,1,0.7898415639992891,3135.526058673,None,3135.526058673,None,3135.526058673,None,3136.3745010910006,None,3136.3745010910006,None,3136.3745010910006,None,3136.3745010910006,None,,,,,,,,,,,,,,,,,,,,,,,,,,,,,,,,,,,,,,,,,,,,001,13,2020_Jan_28_1142,spring_faces,3.1.5,60.034115947395,
condition files/Stage1_1.xlsx,,B3,T3,c,"['c', 'm']","['Clue', 'Monopoly']","[-0.15, 0.5]","[0.15, 0.5]",1,1,,,,,,,,,0,8,8,8,0,7,7,4,,,,,,,,,,,,,,,,,,,,,,,,,,,,,,,,,,,,,,,,,,,,,,,,,,,,,,,3138.341026489001,None,3138.341026489001,None,3138.341026489001,None,m,0,0.9523421710000548,3139.8754763550005,None,3139.8754763550005,None,3139.8754763550005,None,3140.8909518540004,None,3140.8909518540004,None,3140.8909518540004,None,3140.8909518540004,None,,,,,,,,,,,,,,,,,,,,,,,,,,,,,,,,,,,,,,,,,,,,001,13,2020_Jan_28_1142,spring_faces,3.1.5,60.034115947395,
condition files/Stage1_2.xlsx,,B4,T3,c,"['c', 'm']","['Clue', 'Monopoly']","[-0.15, 0.5]","[0.15, 0.5]",1,1,,,,,,,,,0,9,9,9,0,0,0,5,,,,,,,,,,,,,,,,,,,,,,,,,,,,,,,,,,,,,,,,,,,,,,,,,,,,,,,3142.8740081859996,None,3142.8740081859996,None,3142.8740081859996,None,c,1,0.7560375460016076,3144.407863845001,None,3144.407863845001,None,3144.407863845001,None,3145.2244557560007,None,3145.2244557560007,None,3145.2244557560007,None,3145.2244557560007,None,,,,,,,,,,,,,,,,,,,,,,,,,,,,,,,,,,,,,,,,,,,,001,13,2020_Jan_28_1142,spring_faces,3.1.5,60.034115947395,
condition files/Stage1_2.xlsx,,T2,B1,c,"['c', 'm']","['Clue', 'Monopoly']","[-0.15, 0.5]","[0.15, 0.5]",1,1,,,,,,,,,0,9,9,9,0,1,1,1,,,,,,,,,,,,,,,,,,,,,,,,,,,,,,,,,,,,,,,,,,,,,,,,,,,,,,,3147.1906970809996,None,3147.1906970809996,None,3147.1906970809996,None,c,1,0.4850070559987216,3148.7268302699995,None,3148.7268302699995,None,3148.7268302699995,None,3149.2739944019995,None,3149.2739944019995,None,3149.2739944019995,None,3149.2739944019995,None,,,,,,,,,,,,,,,,,,,,,,,,,,,,,,,,,,,,,,,,,,,,001,13,2020_Jan_28_1142,spring_faces,3.1.5,60.034115947395,
condition files/Stage1_2.xlsx,,B3,T4,m,"['c', 'm']","['Clue', 'Monopoly']","[-0.15, 0.5]","[0.15, 0.5]",1,1,,,,,,,,,0,9,9,9,0,2,2,6,,,,,,,,,,,,,,,,,,,,,,,,,,,,,,,,,,,,,,,,,,,,,,,,,,,,,,,3151.2414408639997,None,3151.2414408639997,None,3151.2414408639997,None,m,1,0.9971429170000192,3152.7746799300003,None,3152.7746799300003,None,3152.7746799300003,None,3153.8270149689997,None,3153.8270149689997,None,3153.8270149689997,None,3153.8270149689997,None,,,,,,,,,,,,,,,,,,,,,,,,,,,,,,,,,,,,,,,,,,,,001,13,2020_Jan_28_1142,spring_faces,3.1.5,60.034115947395,
condition files/Stage1_2.xlsx,,T1,B2,m,"['c', 'm']","['Clue', 'Monopoly']","[-0.15, 0.5]","[0.15, 0.5]",1,1,,,,,,,,,0,9,9,9,0,3,3,2,,,,,,,,,,,,,,,,,,,,,,,,,,,,,,,,,,,,,,,,,,,,,,,,,,,,,,,3155.791131760001,None,3155.791131760001,None,3155.791131760001,None,m,1,0.8312310860001162,3157.3245526400005,None,3157.3245526400005,None,3157.3245526400005,None,3158.208319602001,None,3158.208319602001,None,3158.208319602001,None,3158.208319602001,None,,,,,,,,,,,,,,,,,,,,,,,,,,,,,,,,,,,,,,,,,,,,001,13,2020_Jan_28_1142,spring_faces,3.1.5,60.034115947395,
condition files/Stage1_2.xlsx,,T4,B4,m,"['c', 'm']","['Clue', 'Monopoly']","[-0.15, 0.5]","[0.15, 0.5]",1,1,,,,,,,,,0,9,9,9,0,4,4,7,,,,,,,,,,,,,,,,,,,,,,,,,,,,,,,,,,,,,,,,,,,,,,,,,,,,,,,3160.174408365001,None,3160.174408365001,None,3160.174408365001,None,m,1,0.9114247620000242,3161.708367413001,None,3161.708367413001,None,3161.708367413001,None,3162.674605800001,None,3162.674605800001,None,3162.674605800001,None,3162.674605800001,None,,,,,,,,,,,,,,,,,,,,,,,,,,,,,,,,,,,,,,,,,,,,001,13,2020_Jan_28_1142,spring_faces,3.1.5,60.034115947395,
condition files/Stage1_2.xlsx,,T3,B3,c,"['c', 'm']","['Clue', 'Monopoly']","[-0.15, 0.5]","[0.15, 0.5]",1,1,,,,,,,,,0,9,9,9,0,5,5,4,,,,,,,,,,,,,,,,,,,,,,,,,,,,,,,,,,,,,,,,,,,,,,,,,,,,,,,3164.641009879,None,3164.641009879,None,3164.641009879,None,c,1,1.1471009439992486,3166.176721711001,None,3166.176721711001,None,3166.176721711001,None,3167.391514084,None,3167.391514084,None,3167.391514084,None,3167.391514084,None,,,,,,,,,,,,,,,,,,,,,,,,,,,,,,,,,,,,,,,,,,,,001,13,2020_Jan_28_1142,spring_faces,3.1.5,60.034115947395,
condition files/Stage1_2.xlsx,,B2,T2,m,"['c', 'm']","['Clue', 'Monopoly']","[-0.15, 0.5]","[0.15, 0.5]",1,1,,,,,,,,,0,9,9,9,0,6,6,3,,,,,,,,,,,,,,,,,,,,,,,,,,,,,,,,,,,,,,,,,,,,,,,,,,,,,,,3169.341044382001,None,3169.341044382001,None,3169.341044382001,None,m,1,1.6649993560004077,3170.874820508001,None,3170.874820508001,None,3170.874820508001,None,3172.5925463679996,None,3172.5925463679996,None,3172.5925463679996,None,3172.5925463679996,None,,,,,,,,,,,,,,,,,,,,,,,,,,,,,,,,,,,,,,,,,,,,001,13,2020_Jan_28_1142,spring_faces,3.1.5,60.034115947395,
condition files/Stage1_2.xlsx,,B1,T1,c,"['c', 'm']","['Clue', 'Monopoly']","[-0.15, 0.5]","[0.15, 0.5]",1,1,,,,,,,,,0,9,9,9,0,7,7,0,,,,,,,,,,,,,,,,,,,,,,,,,,,,,,,,,,,,,,,,,,,,,,,,,,,,,,,3174.5577787969996,None,3174.5577787969996,None,3174.5577787969996,None,c,1,0.6253102289992967,3176.090598058001,None,3176.090598058001,None,3176.090598058001,None,3176.7766279200005,None,3176.7766279200005,None,3176.7766279200005,None,3176.7766279200005,None,,,,,,,,,,,,,,,,,,,,,,,,,,,,,,,,,,,,,,,,,,,,001,13,2020_Jan_28_1142,spring_faces,3.1.5,60.034115947395,
condition files/Stage1_1.xlsx,,B1,T2,c,"['c', 'm']","['Clue', 'Monopoly']","[-0.15, 0.5]","[0.15, 0.5]",1,1,,,,,,,,,0,10,10,10,0,0,0,1,,,,,,,,,,,,,,,,,,,,,,,,,,,,,,,,,,,,,,,,,,,,,,,,,,,,,,,3178.757877252001,None,3178.757877252001,None,3178.757877252001,None,m,0,1.3850794949994452,3180.2907021320007,None,3180.2907021320007,None,3180.2907021320007,None,3181.7408041630006,None,3181.7408041630006,None,3181.7408041630006,None,3181.7408041630006,None,,,,,,,,,,,,,,,,,,,,,,,,,,,,,,,,,,,,,,,,,,,,001,13,2020_Jan_28_1142,spring_faces,3.1.5,60.034115947395,
condition files/Stage1_1.xlsx,,B4,T4,m,"['c', 'm']","['Clue', 'Monopoly']","[-0.15, 0.5]","[0.15, 0.5]",1,1,,,,,,,,,0,10,10,10,0,1,1,7,,,,,,,,,,,,,,,,,,,,,,,,,,,,,,,,,,,,,,,,,,,,,,,,,,,,,,,3183.7081668640003,None,3183.7081668640003,None,3183.7081668640003,None,m,1,0.7693593719995988,3185.242476124,None,3185.242476124,None,3185.242476124,None,3186.090481131001,None,3186.090481131001,None,3186.090481131001,None,3186.090481131001,None,,,,,,,,,,,,,,,,,,,,,,,,,,,,,,,,,,,,,,,,,,,,001,13,2020_Jan_28_1142,spring_faces,3.1.5,60.034115947395,
condition files/Stage1_1.xlsx,,T4,B3,m,"['c', 'm']","['Clue', 'Monopoly']","[-0.15, 0.5]","[0.15, 0.5]",1,1,,,,,,,,,0,10,10,10,0,2,2,6,,,,,,,,,,,,,,,,,,,,,,,,,,,,,,,,,,,,,,,,,,,,,,,,,,,,,,,3188.04101807,None,3188.04101807,None,3188.04101807,None,m,1,0.8221166530001938,3189.5737239440004,None,3189.5737239440004,None,3189.5737239440004,None,3190.458065955001,None,3190.458065955001,None,3190.458065955001,None,3190.458065955001,None,,,,,,,,,,,,,,,,,,,,,,,,,,,,,,,,,,,,,,,,,,,,001,13,2020_Jan_28_1142,spring_faces,3.1.5,60.034115947395,
condition files/Stage1_1.xlsx,,T3,B4,c,"['c', 'm']","['Clue', 'Monopoly']","[-0.15, 0.5]","[0.15, 0.5]",1,1,,,,,,,,,0,10,10,10,0,3,3,5,,,,,,,,,,,,,,,,,,,,,,,,,,,,,,,,,,,,,,,,,,,,,,,,,,,,,,,3192.4243406839996,None,3192.4243406839996,None,3192.4243406839996,None,c,1,1.9901848119989154,3193.957707525,None,3193.957707525,None,3193.957707525,None,3196.024861078,None,3196.024861078,None,3196.024861078,None,3196.024861078,None,,,,,,,,,,,,,,,,,,,,,,,,,,,,,,,,,,,,,,,,,,,,001,13,2020_Jan_28_1142,spring_faces,3.1.5,60.034115947395,
condition files/Stage1_1.xlsx,,B3,T3,c,"['c', 'm']","['Clue', 'Monopoly']","[-0.15, 0.5]","[0.15, 0.5]",1,1,,,,,,,,,0,10,10,10,0,4,4,4,,,,,,,,,,,,,,,,,,,,,,,,,,,,,,,,,,,,,,,,,,,,,,,,,,,,,,,3197.9743727900004,None,3197.9743727900004,None,3197.9743727900004,None,c,1,2.3445387789997767,3199.507361795,None,3199.507361795,None,3199.507361795,None,3201.9078163699996,None,3201.9078163699996,None,3201.9078163699996,None,3201.9078163699996,None,,,,,,,,,,,,,,,,,,,,,,,,,,,,,,,,,,,,,,,,,,,,001,13,2020_Jan_28_1142,spring_faces,3.1.5,60.034115947395,
condition files/Stage1_1.xlsx,,T2,B2,m,"['c', 'm']","['Clue', 'Monopoly']","[-0.15, 0.5]","[0.15, 0.5]",1,1,,,,,,,,,0,10,10,10,0,5,5,3,,,,,,,,,,,,,,,,,,,,,,,,,,,,,,,,,,,,,,,,,,,,,,,,,,,,,,,3203.873672992,None,3203.873672992,None,3203.873672992,None,m,1,0.6671272910007247,3205.4086994789996,None,3205.4086994789996,None,3205.4086994789996,None,3206.157263160001,None,3206.157263160001,None,3206.157263160001,None,3206.157263160001,None,,,,,,,,,,,,,,,,,,,,,,,,,,,,,,,,,,,,,,,,,,,,001,13,2020_Jan_28_1142,spring_faces,3.1.5,60.034115947395,
condition files/Stage1_1.xlsx,,T1,B1,c,"['c', 'm']","['Clue', 'Monopoly']","[-0.15, 0.5]","[0.15, 0.5]",1,1,,,,,,,,,0,10,10,10,0,6,6,0,,,,,,,,,,,,,,,,,,,,,,,,,,,,,,,,,,,,,,,,,,,,,,,,,,,,,,,3208.107903666001,None,3208.107903666001,None,3208.107903666001,None,c,1,1.3310307640003884,3209.640778694,None,3209.640778694,None,3209.640778694,None,3211.0256862139995,None,3211.0256862139995,None,3211.0256862139995,None,3211.0256862139995,None,,,,,,,,,,,,,,,,,,,,,,,,,,,,,,,,,,,,,,,,,,,,001,13,2020_Jan_28_1142,spring_faces,3.1.5,60.034115947395,
condition files/Stage1_1.xlsx,,B2,T1,m,"['c', 'm']","['Clue', 'Monopoly']","[-0.15, 0.5]","[0.15, 0.5]",1,1,,,,,,,,,0,10,10,10,0,7,7,2,,,,,,,,,,,,,,,,,,,,,,,,,,,,,,,,,,,,,,,,,,,,,,,,,,,,,,,3212.9910213910007,None,3212.9910213910007,None,3212.9910213910007,None,c,0,0.9435670250004478,3214.5243037050004,None,3214.5243037050004,None,3214.5243037050004,None,3215.524883242,None,3215.524883242,None,3215.524883242,None,3215.524883242,None,,,,,,,,,,,,,,,,,,,,,,,,,,,,,,,,,,,,,,,,,,,,001,13,2020_Jan_28_1142,spring_faces,3.1.5,60.034115947395,
condition files/Stage1_2.xlsx,,B2,T2,m,"['c', 'm']","['Clue', 'Monopoly']","[-0.15, 0.5]","[0.15, 0.5]",1,1,,,,,,,,,0,11,11,11,0,0,0,3,,,,,,,,,,,,,,,,,,,,,,,,,,,,,,,,,,,,,,,,,,,,,,,,,,,,,,,3217.507997603001,None,3217.507997603001,None,3217.507997603001,None,m,1,0.6016790859994217,3219.0421610890007,None,3219.0421610890007,None,3219.0421610890007,None,3219.7080161480008,None,3219.7080161480008,None,3219.7080161480008,None,3219.7080161480008,None,,,,,,,,,,,,,,,,,,,,,,,,,,,,,,,,,,,,,,,,,,,,001,13,2020_Jan_28_1142,spring_faces,3.1.5,60.034115947395,
condition files/Stage1_2.xlsx,,T4,B4,m,"['c', 'm']","['Clue', 'Monopoly']","[-0.15, 0.5]","[0.15, 0.5]",1,1,,,,,,,,,0,11,11,11,0,1,1,7,,,,,,,,,,,,,,,,,,,,,,,,,,,,,,,,,,,,,,,,,,,,,,,,,,,,,,,3221.6743257340004,None,3221.6743257340004,None,3221.6743257340004,None,m,1,1.4430407180007023,3223.2087213020004,None,3223.2087213020004,None,3223.2087213020004,None,3224.707545618001,None,3224.707545618001,None,3224.707545618001,None,3224.707545618001,None,,,,,,,,,,,,,,,,,,,,,,,,,,,,,,,,,,,,,,,,,,,,001,13,2020_Jan_28_1142,spring_faces,3.1.5,60.034115947395,
condition files/Stage1_2.xlsx,,T3,B3,c,"['c', 'm']","['Clue', 'Monopoly']","[-0.15, 0.5]","[0.15, 0.5]",1,1,,,,,,,,,0,11,11,11,0,2,2,4,,,,,,,,,,,,,,,,,,,,,,,,,,,,,,,,,,,,,,,,,,,,,,,,,,,,,,,3226.674467637,None,3226.674467637,None,3226.674467637,None,c,1,1.2444301970008382,3228.207462124001,None,3228.207462124001,None,3228.207462124001,None,3229.5088333639997,None,3229.5088333639997,None,3229.5088333639997,None,3229.5088333639997,None,,,,,,,,,,,,,,,,,,,,,,,,,,,,,,,,,,,,,,,,,,,,001,13,2020_Jan_28_1142,spring_faces,3.1.5,60.034115947395,
condition files/Stage1_2.xlsx,,B1,T1,c,"['c', 'm']","['Clue', 'Monopoly']","[-0.15, 0.5]","[0.15, 0.5]",1,1,,,,,,,,,0,11,11,11,0,3,3,0,,,,,,,,,,,,,,,,,,,,,,,,,,,,,,,,,,,,,,,,,,,,,,,,,,,,,,,3231.4743204349998,None,3231.4743204349998,None,3231.4743204349998,None,c,1,1.3390075669994985,3233.0088758050006,None,3233.0088758050006,None,3233.0088758050006,None,3234.407980133001,None,3234.407980133001,None,3234.407980133001,None,3234.407980133001,None,,,,,,,,,,,,,,,,,,,,,,,,,,,,,,,,,,,,,,,,,,,,001,13,2020_Jan_28_1142,spring_faces,3.1.5,60.034115947395,
condition files/Stage1_2.xlsx,,B3,T4,m,"['c', 'm']","['Clue', 'Monopoly']","[-0.15, 0.5]","[0.15, 0.5]",1,1,,,,,,,,,0,11,11,11,0,4,4,6,,,,,,,,,,,,,,,,,,,,,,,,,,,,,,,,,,,,,,,,,,,,,,,,,,,,,,,3236.3745543200002,None,3236.3745543200002,None,3236.3745543200002,None,m,1,0.8858610089991998,3237.909969661001,None,3237.909969661001,None,3237.909969661001,None,3238.8600999499995,None,3238.8600999499995,None,3238.8600999499995,None,3238.8600999499995,None,,,,,,,,,,,,,,,,,,,,,,,,,,,,,,,,,,,,,,,,,,,,001,13,2020_Jan_28_1142,spring_faces,3.1.5,60.034115947395,
condition files/Stage1_2.xlsx,,T2,B1,c,"['c', 'm']","['Clue', 'Monopoly']","[-0.15, 0.5]","[0.15, 0.5]",1,1,,,,,,,,,0,11,11,11,0,5,5,1,,,,,,,,,,,,,,,,,,,,,,,,,,,,,,,,,,,,,,,,,,,,,,,,,,,,,,,3240.8244493639995,None,3240.8244493639995,None,3240.8244493639995,None,c,1,1.0941586669996468,3242.357749824001,None,3242.357749824001,None,3242.357749824001,None,3243.509928601001,None,3243.509928601001,None,3243.509928601001,None,3243.509928601001,None,,,,,,,,,,,,,,,,,,,,,,,,,,,,,,,,,,,,,,,,,,,,001,13,2020_Jan_28_1142,spring_faces,3.1.5,60.034115947395,
condition files/Stage1_2.xlsx,,T1,B2,m,"['c', 'm']","['Clue', 'Monopoly']","[-0.15, 0.5]","[0.15, 0.5]",1,1,,,,,,,,,0,11,11,11,0,6,6,2,,,,,,,,,,,,,,,,,,,,,,,,,,,,,,,,,,,,,,,,,,,,,,,,,,,,,,,3245.474313365001,None,3245.474313365001,None,3245.474313365001,None,m,1,0.5398555579995445,3247.0080319829995,None,3247.0080319829995,None,3247.0080319829995,None,3247.6100832909997,None,3247.6100832909997,None,3247.6100832909997,None,3247.6100832909997,None,,,,,,,,,,,,,,,,,,,,,,,,,,,,,,,,,,,,,,,,,,,,001,13,2020_Jan_28_1142,spring_faces,3.1.5,60.034115947395,
condition files/Stage1_2.xlsx,,B4,T3,c,"['c', 'm']","['Clue', 'Monopoly']","[-0.15, 0.5]","[0.15, 0.5]",1,1,,,,,,,,,0,11,11,11,0,7,7,5,,,,,,,,,,,,,,,,,,,,,,,,,,,,,,,,,,,,,,,,,,,,,,,,,,,,,,,3249.5743908940003,None,3249.5743908940003,None,3249.5743908940003,None,c,1,0.615045751001162,3251.124764909,None,3251.124764909,None,3251.124764909,None,3251.8079528430007,None,3251.8079528430007,None,3251.8079528430007,None,3251.8079528430007,None,,,,,,,,,,,,,,,,,,,,,,,,,,,,,,,,,,,,,,,,,,,,001,13,2020_Jan_28_1142,spring_faces,3.1.5,60.034115947395,
,,,,,,,,,,,,,,,,,,,,,,,,,,,,,,,,,,,,,,,,,,,,,,,,,,,,,,,,,,,,,,,,,,,,,,,,,,,,,,,,,,,,,,,,,,,,,,,,,,,,,,,,,,,,,,,,3253.774651466001,None,space,10.773391218999677,3258.7745103529996,None,,,,,,,,,,,,,,,,,,,,,,,,,,,,,,001,13,2020_Jan_28_1142,spring_faces,3.1.5,60.034115947395,
condition files/Stage2_1.xlsx,,T3,B3,s,"['s', 'r']","['Stratego', 'Risk']","[-0.15, 0.5]","[0.15, 0.5]",1,1,,,,,,,,,,,,,,,,,0,0,0,0,0,0,0,4,,,,,,,,,,,,,,,,,,,,,,,,,,,,,,,,,,,,,,,,,,,,,,,3269.6077803860007,None,3269.6077803860007,None,3269.6077803860007,None,s,1,1.1569309719998273,3271.1269646170003,None,3271.1269646170003,None,3271.1269646170003,None,3272.357621819001,None,3272.357621819001,None,3272.357621819001,None,3272.357621819001,None,,,,,,,,,,,,,,,3258.7745103529996,None,,,,,,,,,,,,,,,,,,,,,,,,,,,,001,13,2020_Jan_28_1142,spring_faces,3.1.5,60.034115947395,
condition files/Stage2_1.xlsx,,T5,B5,s,"['s', 'r']","['Stratego', 'Risk']","[-0.15, 0.5]","[0.15, 0.5]",1,1,,,,,,,,,,,,,,,,,0,0,0,0,0,1,1,0,,,,,,,,,,,,,,,,,,,,,,,,,,,,,,,,,,,,,,,,,,,,,,,3274.3077926839997,None,3274.3077926839997,None,3274.3077926839997,None,r,0,0.5053741869996884,3275.8425065579995,None,3275.8425065579995,None,3275.8425065579995,None,3276.408151865,None,3276.408151865,None,3276.408151865,None,3276.408151865,None,,,,,,,,,,,,,,,,,,,,,,,,,,,,,,,,,,,,,,,,,,,,001,13,2020_Jan_28_1142,spring_faces,3.1.5,60.034115947395,
condition files/Stage2_1.xlsx,,B4,T4,r,"['s', 'r']","['Stratego', 'Risk']","[-0.15, 0.5]","[0.15, 0.5]",1,1,,,,,,,,,,,,,,,,,0,0,0,0,0,2,2,5,,,,,,,,,,,,,,,,,,,,,,,,,,,,,,,,,,,,,,,,,,,,,,,3278.374019021001,None,3278.374019021001,None,3278.374019021001,None,r,1,0.7267168140006106,3279.9091077699995,None,3279.9091077699995,None,3279.9091077699995,None,3280.707534002,None,3280.707534002,None,3280.707534002,None,3280.707534002,None,,,,,,,,,,,,,,,,,,,,,,,,,,,,,,,,,,,,,,,,,,,,001,13,2020_Jan_28_1142,spring_faces,3.1.5,60.034115947395,
condition files/Stage2_1.xlsx,,T1,B1,s,"['s', 'r']","['Stratego', 'Risk']","[-0.15, 0.5]","[0.15, 0.5]",1,1,,,,,,,,,,,,,,,,,0,0,0,0,0,3,3,2,,,,,,,,,,,,,,,,,,,,,,,,,,,,,,,,,,,,,,,,,,,,,,,3282.6577934430006,None,3282.6577934430006,None,3282.6577934430006,None,s,1,0.6372220200009906,3284.1906047030006,None,3284.1906047030006,None,3284.1906047030006,None,3284.907769450001,None,3284.907769450001,None,3284.907769450001,None,3284.907769450001,None,,,,,,,,,,,,,,,,,,,,,,,,,,,,,,,,,,,,,,,,,,,,001,13,2020_Jan_28_1142,spring_faces,3.1.5,60.034115947395,
condition files/Stage2_1.xlsx,,B6,T6,r,"['s', 'r']","['Stratego', 'Risk']","[-0.15, 0.5]","[0.15, 0.5]",1,1,,,,,,,,,,,,,,,,,0,0,0,0,0,4,4,1,,,,,,,,,,,,,,,,,,,,,,,,,,,,,,,,,,,,,,,,,,,,,,,3286.8575634850004,None,3286.8575634850004,None,3286.8575634850004,None,r,1,1.2365492040007666,3288.391285265001,None,3288.391285265001,None,3288.391285265001,None,3289.6918117879995,None,3289.6918117879995,None,3289.6918117879995,None,3289.6918117879995,None,,,,,,,,,,,,,,,,,,,,,,,,,,,,,,,,,,,,,,,,,,,,001,13,2020_Jan_28_1142,spring_faces,3.1.5,60.034115947395,
condition files/Stage2_1.xlsx,,B2,T2,r,"['s', 'r']","['Stratego', 'Risk']","[-0.15, 0.5]","[0.15, 0.5]",1,1,,,,,,,,,,,,,,,,,0,0,0,0,0,5,5,3,,,,,,,,,,,,,,,,,,,,,,,,,,,,,,,,,,,,,,,,,,,,,,,3291.657767091001,None,3291.657767091001,None,3291.657767091001,None,r,1,0.9645224619998771,3293.191304131,None,3293.191304131,None,3293.191304131,None,3294.207183747001,None,3294.207183747001,None,3294.207183747001,None,3294.207183747001,None,,,,,,,,,,,,,,,,,,,,,,,,,,,,,,,,,,,,,,,,,,,,001,13,2020_Jan_28_1142,spring_faces,3.1.5,60.034115947395,
condition files/Stage2_2.xlsx,,T2,B2,r,"['s', 'r']","['Stratego', 'Risk']","[-0.15, 0.5]","[0.15, 0.5]",1,1,,,,,,,,,,,,,,,,,0,1,1,1,0,0,0,3,,,,,,,,,,,,,,,,,,,,,,,,,,,,,,,,,,,,,,,,,,,,,,,3296.1913170610005,None,3296.1913170610005,None,3296.1913170610005,None,r,1,0.6868511940010649,3297.724989937,None,3297.724989937,None,3297.724989937,None,3298.475032522001,None,3298.475032522001,None,3298.475032522001,None,3298.475032522001,None,,,,,,,,,,,,,,,,,,,,,,,,,,,,,,,,,,,,,,,,,,,,001,13,2020_Jan_28_1142,spring_faces,3.1.5,60.034115947395,
condition files/Stage2_2.xlsx,,B5,T5,s,"['s', 'r']","['Stratego', 'Risk']","[-0.15, 0.5]","[0.15, 0.5]",1,1,,,,,,,,,,,,,,,,,0,1,1,1,0,1,1,0,,,,,,,,,,,,,,,,,,,,,,,,,,,,,,,,,,,,,,,,,,,,,,,3300.441038948,None,3300.441038948,None,3300.441038948,None,s,1,0.5811171260011179,3301.9747134110003,None,3301.9747134110003,None,3301.9747134110003,None,3302.624590159001,None,3302.624590159001,None,3302.624590159001,None,3302.624590159001,None,,,,,,,,,,,,,,,,,,,,,,,,,,,,,,,,,,,,,,,,,,,,001,13,2020_Jan_28_1142,spring_faces,3.1.5,60.034115947395,
condition files/Stage2_2.xlsx,,T4,B4,r,"['s', 'r']","['Stratego', 'Risk']","[-0.15, 0.5]","[0.15, 0.5]",1,1,,,,,,,,,,,,,,,,,0,1,1,1,0,2,2,5,,,,,,,,,,,,,,,,,,,,,,,,,,,,,,,,,,,,,,,,,,,,,,,3304.5737899079995,None,3304.5737899079995,None,3304.5737899079995,None,s,0,0.6859143270012282,3306.1099208570013,None,3306.1099208570013,None,3306.1099208570013,None,3306.874491497001,None,3306.874491497001,None,3306.874491497001,None,3306.874491497001,None,,,,,,,,,,,,,,,,,,,,,,,,,,,,,,,,,,,,,,,,,,,,001,13,2020_Jan_28_1142,spring_faces,3.1.5,60.034115947395,
condition files/Stage2_2.xlsx,,B3,T3,s,"['s', 'r']","['Stratego', 'Risk']","[-0.15, 0.5]","[0.15, 0.5]",1,1,,,,,,,,,,,,,,,,,0,1,1,1,0,3,3,4,,,,,,,,,,,,,,,,,,,,,,,,,,,,,,,,,,,,,,,,,,,,,,,3308.824192309001,None,3308.824192309001,None,3308.824192309001,None,r,0,0.4064000289999967,3310.3574986580006,None,3310.3574986580006,None,3310.3574986580006,None,3310.825544798001,None,3310.825544798001,None,3310.825544798001,None,3310.825544798001,None,,,,,,,,,,,,,,,,,,,,,,,,,,,,,,,,,,,,,,,,,,,,001,13,2020_Jan_28_1142,spring_faces,3.1.5,60.034115947395,
condition files/Stage2_2.xlsx,,B1,T1,s,"['s', 'r']","['Stratego', 'Risk']","[-0.15, 0.5]","[0.15, 0.5]",1,1,,,,,,,,,,,,,,,,,0,1,1,1,0,4,4,2,,,,,,,,,,,,,,,,,,,,,,,,,,,,,,,,,,,,,,,,,,,,,,,3312.791133003,None,3312.791133003,None,3312.791133003,None,s,1,0.7095003619997442,3314.326302945001,None,3314.326302945001,None,3314.326302945001,None,3315.0906923500006,None,3315.0906923500006,None,3315.0906923500006,None,3315.0906923500006,None,,,,,,,,,,,,,,,,,,,,,,,,,,,,,,,,,,,,,,,,,,,,001,13,2020_Jan_28_1142,spring_faces,3.1.5,60.034115947395,
condition files/Stage2_2.xlsx,,T6,B6,r,"['s', 'r']","['Stratego', 'Risk']","[-0.15, 0.5]","[0.15, 0.5]",1,1,,,,,,,,,,,,,,,,,0,1,1,1,0,5,5,1,,,,,,,,,,,,,,,,,,,,,,,,,,,,,,,,,,,,,,,,,,,,,,,3317.0577017230007,None,3317.0577017230007,None,3317.0577017230007,None,r,1,1.1167958149999322,3318.591033678,None,3318.591033678,None,3318.591033678,None,3319.774723925,None,3319.774723925,None,3319.774723925,None,3319.774723925,None,,,,,,,,,,,,,,,,,,,,,,,,,,,,,,,,,,,,,,,,,,,,001,13,2020_Jan_28_1142,spring_faces,3.1.5,60.034115947395,
condition files/Stage2_1.xlsx,,B4,T4,r,"['s', 'r']","['Stratego', 'Risk']","[-0.15, 0.5]","[0.15, 0.5]",1,1,,,,,,,,,,,,,,,,,0,2,2,2,0,0,0,5,,,,,,,,,,,,,,,,,,,,,,,,,,,,,,,,,,,,,,,,,,,,,,,3321.741307561,None,3321.741307561,None,3321.741307561,None,r,1,1.3286456459991314,3323.2751928180005,None,3323.2751928180005,None,3323.2751928180005,None,3324.657756288001,None,3324.657756288001,None,3324.657756288001,None,3324.657756288001,None,,,,,,,,,,,,,,,,,,,,,,,,,,,,,,,,,,,,,,,,,,,,001,13,2020_Jan_28_1142,spring_faces,3.1.5,60.034115947395,
condition files/Stage2_1.xlsx,,T1,B1,s,"['s', 'r']","['Stratego', 'Risk']","[-0.15, 0.5]","[0.15, 0.5]",1,1,,,,,,,,,,,,,,,,,0,2,2,2,0,1,1,2,,,,,,,,,,,,,,,,,,,,,,,,,,,,,,,,,,,,,,,,,,,,,,,3326.6244080779998,None,3326.6244080779998,None,3326.6244080779998,None,s,1,1.2456424769989098,3328.1581920360004,None,3328.1581920360004,None,3328.1581920360004,None,3329.458850309,None,3329.458850309,None,3329.458850309,None,3329.458850309,None,,,,,,,,,,,,,,,,,,,,,,,,,,,,,,,,,,,,,,,,,,,,001,13,2020_Jan_28_1142,spring_faces,3.1.5,60.034115947395,
condition files/Stage2_1.xlsx,,T5,B5,s,"['s', 'r']","['Stratego', 'Risk']","[-0.15, 0.5]","[0.15, 0.5]",1,1,,,,,,,,,,,,,,,,,0,2,2,2,0,2,2,0,,,,,,,,,,,,,,,,,,,,,,,,,,,,,,,,,,,,,,,,,,,,,,,3331.4243916760006,None,3331.4243916760006,None,3331.4243916760006,None,s,1,0.6360076330001903,3332.9598326060004,None,3332.9598326060004,None,3332.9598326060004,None,3333.6575034119996,None,3333.6575034119996,None,3333.6575034119996,None,3333.6575034119996,None,,,,,,,,,,,,,,,,,,,,,,,,,,,,,,,,,,,,,,,,,,,,001,13,2020_Jan_28_1142,spring_faces,3.1.5,60.034115947395,
condition files/Stage2_1.xlsx,,B2,T2,r,"['s', 'r']","['Stratego', 'Risk']","[-0.15, 0.5]","[0.15, 0.5]",1,1,,,,,,,,,,,,,,,,,0,2,2,2,0,3,3,3,,,,,,,,,,,,,,,,,,,,,,,,,,,,,,,,,,,,,,,,,,,,,,,3335.624408611,None,3335.624408611,None,3335.624408611,None,r,1,1.1903904740011058,3337.157518621001,None,3337.157518621001,None,3337.157518621001,None,3338.4239539499995,None,3338.4239539499995,None,3338.4239539499995,None,3338.4239539499995,None,,,,,,,,,,,,,,,,,,,,,,,,,,,,,,,,,,,,,,,,,,,,001,13,2020_Jan_28_1142,spring_faces,3.1.5,60.034115947395,
condition files/Stage2_1.xlsx,,B6,T6,r,"['s', 'r']","['Stratego', 'Risk']","[-0.15, 0.5]","[0.15, 0.5]",1,1,,,,,,,,,,,,,,,,,0,2,2,2,0,4,4,1,,,,,,,,,,,,,,,,,,,,,,,,,,,,,,,,,,,,,,,,,,,,,,,3340.3743546019996,None,3340.3743546019996,None,3340.3743546019996,None,r,1,1.2719848249998904,3341.9078336029997,None,3341.9078336029997,None,3341.9078336029997,None,3343.2405541810003,None,3343.2405541810003,None,3343.2405541810003,None,3343.2405541810003,None,,,,,,,,,,,,,,,,,,,,,,,,,,,,,,,,,,,,,,,,,,,,001,13,2020_Jan_28_1142,spring_faces,3.1.5,60.034115947395,
condition files/Stage2_1.xlsx,,T3,B3,s,"['s', 'r']","['Stratego', 'Risk']","[-0.15, 0.5]","[0.15, 0.5]",1,1,,,,,,,,,,,,,,,,,0,2,2,2,0,5,5,4,,,,,,,,,,,,,,,,,,,,,,,,,,,,,,,,,,,,,,,,,,,,,,,3345.207549095001,None,3345.207549095001,None,3345.207549095001,None,s,1,0.7429637879995425,3346.740919508,None,3346.740919508,None,3346.740919508,None,3347.5415453080004,None,3347.5415453080004,None,3347.5415453080004,None,3347.5415453080004,None,,,,,,,,,,,,,,,,,,,,,,,,,,,,,,,,,,,,,,,,,,,,001,13,2020_Jan_28_1142,spring_faces,3.1.5,60.034115947395,
condition files/Stage2_2.xlsx,,T6,B6,r,"['s', 'r']","['Stratego', 'Risk']","[-0.15, 0.5]","[0.15, 0.5]",1,1,,,,,,,,,,,,,,,,,0,3,3,3,0,0,0,1,,,,,,,,,,,,,,,,,,,,,,,,,,,,,,,,,,,,,,,,,,,,,,,3349.524491516,None,3349.524491516,None,3349.524491516,None,s,0,1.0168999249999615,3351.0589110479996,None,3351.0589110479996,None,3351.0589110479996,None,3352.1572614119996,None,3352.1572614119996,None,3352.1572614119996,None,3352.1572614119996,None,,,,,,,,,,,,,,,,,,,,,,,,,,,,,,,,,,,,,,,,,,,,001,13,2020_Jan_28_1142,spring_faces,3.1.5,60.034115947395,
condition files/Stage2_2.xlsx,,T4,B4,r,"['s', 'r']","['Stratego', 'Risk']","[-0.15, 0.5]","[0.15, 0.5]",1,1,,,,,,,,,,,,,,,,,0,3,3,3,0,1,1,5,,,,,,,,,,,,,,,,,,,,,,,,,,,,,,,,,,,,,,,,,,,,,,,3354.107316971,None,3354.107316971,None,3354.107316971,None,r,1,0.9940334179991623,3355.6417699209996,None,3355.6417699209996,None,3355.6417699209996,None,3356.6908006619997,None,3356.6908006619997,None,3356.6908006619997,None,3356.6908006619997,None,,,,,,,,,,,,,,,,,,,,,,,,,,,,,,,,,,,,,,,,,,,,001,13,2020_Jan_28_1142,spring_faces,3.1.5,60.034115947395,
condition files/Stage2_2.xlsx,,B1,T1,s,"['s', 'r']","['Stratego', 'Risk']","[-0.15, 0.5]","[0.15, 0.5]",1,1,,,,,,,,,,,,,,,,,0,3,3,3,0,2,2,2,,,,,,,,,,,,,,,,,,,,,,,,,,,,,,,,,,,,,,,,,,,,,,,3358.6576791139996,None,3358.6576791139996,None,3358.6576791139996,None,s,1,0.6672812039996643,3360.1925181770002,None,3360.1925181770002,None,3360.1925181770002,None,3360.9262794469996,None,3360.9262794469996,None,3360.9262794469996,None,3360.9262794469996,None,,,,,,,,,,,,,,,,,,,,,,,,,,,,,,,,,,,,,,,,,,,,001,13,2020_Jan_28_1142,spring_faces,3.1.5,60.034115947395,
condition files/Stage2_2.xlsx,,B3,T3,s,"['s', 'r']","['Stratego', 'Risk']","[-0.15, 0.5]","[0.15, 0.5]",1,1,,,,,,,,,,,,,,,,,0,3,3,3,0,3,3,4,,,,,,,,,,,,,,,,,,,,,,,,,,,,,,,,,,,,,,,,,,,,,,,3362.89116603,None,3362.89116603,None,3362.89116603,None,s,1,0.8668927799990342,3364.424912212,None,3364.424912212,None,3364.424912212,None,3365.3581950280004,None,3365.3581950280004,None,3365.3581950280004,None,3365.3581950280004,None,,,,,,,,,,,,,,,,,,,,,,,,,,,,,,,,,,,,,,,,,,,,001,13,2020_Jan_28_1142,spring_faces,3.1.5,60.034115947395,
condition files/Stage2_2.xlsx,,B5,T5,s,"['s', 'r']","['Stratego', 'Risk']","[-0.15, 0.5]","[0.15, 0.5]",1,1,,,,,,,,,,,,,,,,,0,3,3,3,0,4,4,0,,,,,,,,,,,,,,,,,,,,,,,,,,,,,,,,,,,,,,,,,,,,,,,3367.3244081850007,None,3367.3244081850007,None,3367.3244081850007,None,r,0,1.264928028000213,3368.8589017470003,None,3368.8589017470003,None,3368.8589017470003,None,3370.174189356001,None,3370.174189356001,None,3370.174189356001,None,3370.174189356001,None,,,,,,,,,,,,,,,,,,,,,,,,,,,,,,,,,,,,,,,,,,,,001,13,2020_Jan_28_1142,spring_faces,3.1.5,60.034115947395,
condition files/Stage2_2.xlsx,,T2,B2,r,"['s', 'r']","['Stratego', 'Risk']","[-0.15, 0.5]","[0.15, 0.5]",1,1,,,,,,,,,,,,,,,,,0,3,3,3,0,5,5,3,,,,,,,,,,,,,,,,,,,,,,,,,,,,,,,,,,,,,,,,,,,,,,,3372.140745986,None,3372.140745986,None,3372.140745986,None,r,1,0.6729952519999642,3373.6749129220007,None,3373.6749129220007,None,3373.6749129220007,None,3374.4249274930007,None,3374.4249274930007,None,3374.4249274930007,None,3374.4249274930007,None,,,,,,,,,,,,,,,,,,,,,,,,,,,,,,,,,,,,,,,,,,,,001,13,2020_Jan_28_1142,spring_faces,3.1.5,60.034115947395,
condition files/Stage2_1.xlsx,,T1,B1,s,"['s', 'r']","['Stratego', 'Risk']","[-0.15, 0.5]","[0.15, 0.5]",1,1,,,,,,,,,,,,,,,,,0,4,4,4,0,0,0,2,,,,,,,,,,,,,,,,,,,,,,,,,,,,,,,,,,,,,,,,,,,,,,,3376.3911930739996,None,3376.3911930739996,None,3376.3911930739996,None,s,1,1.6376013070002955,3377.9262448360005,None,3377.9262448360005,None,3377.9262448360005,None,3379.626680516001,None,3379.626680516001,None,3379.626680516001,None,3379.626680516001,None,,,,,,,,,,,,,,,,,,,,,,,,,,,,,,,,,,,,,,,,,,,,001,13,2020_Jan_28_1142,spring_faces,3.1.5,60.034115947395,
condition files/Stage2_1.xlsx,,B6,T6,r,"['s', 'r']","['Stratego', 'Risk']","[-0.15, 0.5]","[0.15, 0.5]",1,1,,,,,,,,,,,,,,,,,0,4,4,4,0,1,1,1,,,,,,,,,,,,,,,,,,,,,,,,,,,,,,,,,,,,,,,,,,,,,,,3381.5908415970007,None,3381.5908415970007,None,3381.5908415970007,None,s,0,1.7653806999987864,3383.1264269269996,None,3383.1264269269996,None,3383.1264269269996,None,3384.957843245,None,3384.957843245,None,3384.957843245,None,3384.957843245,None,,,,,,,,,,,,,,,,,,,,,,,,,,,,,,,,,,,,,,,,,,,,001,13,2020_Jan_28_1142,spring_faces,3.1.5,60.034115947395,
condition files/Stage2_1.xlsx,,T3,B3,s,"['s', 'r']","['Stratego', 'Risk']","[-0.15, 0.5]","[0.15, 0.5]",1,1,,,,,,,,,,,,,,,,,0,4,4,4,0,2,2,4,,,,,,,,,,,,,,,,,,,,,,,,,,,,,,,,,,,,,,,,,,,,,,,3386.92449252,None,3386.92449252,None,3386.92449252,None,s,1,0.7541742810008145,3388.457664349,None,3388.457664349,None,3388.457664349,None,3389.2906755580007,None,3389.2906755580007,None,3389.2906755580007,None,3389.2906755580007,None,,,,,,,,,,,,,,,,,,,,,,,,,,,,,,,,,,,,,,,,,,,,001,13,2020_Jan_28_1142,spring_faces,3.1.5,60.034115947395,
condition files/Stage2_1.xlsx,,B2,T2,r,"['s', 'r']","['Stratego', 'Risk']","[-0.15, 0.5]","[0.15, 0.5]",1,1,,,,,,,,,,,,,,,,,0,4,4,4,0,3,3,3,,,,,,,,,,,,,,,,,,,,,,,,,,,,,,,,,,,,,,,,,,,,,,,3391.2408890330007,None,3391.2408890330007,None,3391.2408890330007,None,r,1,1.2533316950011795,3392.774505366,None,3392.774505366,None,3392.774505366,None,3394.1076768479998,None,3394.1076768479998,None,3394.1076768479998,None,3394.1076768479998,None,,,,,,,,,,,,,,,,,,,,,,,,,,,,,,,,,,,,,,,,,,,,001,13,2020_Jan_28_1142,spring_faces,3.1.5,60.034115947395,
