condsFile,subStage,cue1,cue2,correct,responseKeys,responseNames,cue1Position,cue2Position,cue1Opacity,cue2Opacity,stageLoop0.thisRepN,stageLoop0.thisTrialN,stageLoop0.thisN,stageLoop0.thisIndex,blockLoop0.thisRepN,blockLoop0.thisTrialN,blockLoop0.thisN,blockLoop0.thisIndex,stage1Loop.thisRepN,stage1Loop.thisTrialN,stage1Loop.thisN,stage1Loop.thisIndex,blockLoop1.thisRepN,blockLoop1.thisTrialN,blockLoop1.thisN,blockLoop1.thisIndex,stage2Loop.thisRepN,stage2Loop.thisTrialN,stage2Loop.thisN,stage2Loop.thisIndex,blockLoop2.thisRepN,blockLoop2.thisTrialN,blockLoop2.thisN,blockLoop2.thisIndex,testLoop.thisRepN,testLoop.thisTrialN,testLoop.thisN,testLoop.thisIndex,blockLoopTest.thisRepN,blockLoopTest.thisTrialN,blockLoopTest.thisN,blockLoopTest.thisIndex,cuePics,id_instr_text.started,id_instr_text.stopped,space_to_continue_2.started,space_to_continue_2.stopped,end_instructions_resp_3.keys,end_instructions_resp_3.rt,end_instructions_resp_3.started,end_instructions_resp_3.stopped,id_input_instr.started,id_input_instr.stopped,id_input_rect.started,id_input_rect.stopped,id_input_resp.keys,id_input_resp.rt,id_input_resp.started,id_input_resp.stopped,sonaID,id_input_text.started,id_input_text.stopped,final_text.started,final_text.stopped,instructions.started,instructions.stopped,end_instructions_resp.keys,end_instructions_resp.rt,end_instructions_resp.started,end_instructions_resp.stopped,space_to_continue.started,space_to_continue.stopped,instructions_stage0.started,instructions_stage0.stopped,end_instructions_resp_stage0.keys,end_instructions_resp_stage0.rt,end_instructions_resp_stage0.started,end_instructions_resp_stage0.stopped,space_to_continue_stage0.started,space_to_continue_stage0.stopped,text.started,text.stopped,resp_text1.started,resp_text1.stopped,resp_text2.started,resp_text2.stopped,trial_resp.keys,trial_resp.corr,trial_resp.rt,trial_resp.started,trial_resp.stopped,cue1Image.started,cue1Image.stopped,cue2Image.started,cue2Image.stopped,cue1Image_fb.started,cue1Image_fb.stopped,cue2Image_fb.started,cue2Image_fb.stopped,fb_text_answer.started,fb_text_answer.stopped,feedback_image.started,feedback_image.stopped,instructions_stage1.started,instructions_stage1.stopped,end_instructions_resp_stage1.keys,end_instructions_resp_stage1.rt,end_instructions_resp_stage1.started,end_instructions_resp_stage1.stopped,space_to_continue_stage1.started,space_to_continue_stage1.stopped,instructions_2.started,instructions_2.stopped,end_instructions_resp_2.keys,end_instructions_resp_2.rt,end_instructions_resp_2.started,end_instructions_resp_2.stopped,press_space_to_continue_stage2.started,press_space_to_continue_stage2.stopped,instructions_testStage1.started,instructions_testStage1.stopped,end_instructions_resp_test1.keys,end_instructions_resp_test1.rt,end_instructions_resp_test1.started,end_instructions_resp_test1.stopped,press_space_to_continue_test1.started,press_space_to_continue_test1.stopped,cue1Image_testChoice.started,cue1Image_testChoice.stopped,cue2Image_testChoice.started,cue2Image_testChoice.stopped,test_resp.keys,test_resp.corr,test_resp.rt,test_resp.started,test_resp.stopped,cue1Image_testConf.started,cue1Image_testConf.stopped,cue2Image_testConf.started,cue2Image_testConf.stopped,conf_reminder.started,conf_reminder.stopped,conf_rating.response,conf_rating.rt,conf_rating.started,conf_rating.stopped,session,participant,date,expName,psychopyVersion,frameRate,
,,,,,,,,,,,,,,,,,,,,,,,,,,,,,,,,,,,,,,,,,,,"{'none': 'pictures/20M_AN_C.png', 'alpha': 'pictures/SHINEd_pepper.png', 'beta': 'pictures/SHINEd_melon.png', 'theta': 'pictures/SHINEd_apple.png', 'phi': 'pictures/SHINEd_pear.png', 'T1': 'pictures/20M_AN_C.png', 'T2': 'pictures/38M_AN_C.png', 'T3': 'pictures/32M_AN_C.png', 'T4': 'pictures/22M_AN_C.png', 'T5': 'pictures/37M_AN_C.png', 'T6': 'pictures/23M_AN_C.png', 'B1': 'pictures/26M_NE_C.png', 'B2': 'pictures/36M_NE_C.png', 'B3': 'pictures/31M_NE_C.png', 'B4': 'pictures/33M_NE_C.png', 'B5': 'pictures/34M_NE_C.png', 'B6': 'pictures/25M_NE_C.png'}",1215.824059794002,None,1220.8074680089994,None,space,22.438021410998772,1220.8074680089994,None,,,,,,,,,,,,,,,,,,,,,,,,,,,,,,,,,,,,,,,,,,,,,,,,,,,,,,,,,,,,,,,,,,,,,,,,,,,,,,,,,,,,,,,,,,,,,,,,001,140,2020_Feb_18_1520,spring_faces,3.1.5,59.96475535417739,
,,,,,,,,,,,,,,,,,,,,,,,,,,,,,,,,,,,,,,,,,,,,,,,,,,,,1243.6409131680011,None,1243.6409131680011,None,"['0', '8', '1', '0', 't', 'a', 't', 'a', 'k']","[20.756563382998138, 21.47660766899935, 24.29257610499917, 24.436571182999614, 34.916573111000616, 35.04453733799892, 47.15657215800093, 47.25250464000055, 48.32459310699778]",1243.6409131680011,None,,,,,,,,,,,,,,,,,,,,,,,,,,,,,,,,,,,,,,,,,,,,,,,,,,,,,,,,,,,,,,,,,,,,,,,,,,,,,,,,,,,,,,,,001,140,2020_Feb_18_1520,spring_faces,3.1.5,59.96475535417739,
,,,,,,,,,,,,,,,,,,,,,,,,,,,,,,,,,,,,,,,,,,,,,,,,,,,,,,,,,,,,0810tatak,1243.6409131680011,None,1243.6409131680011,None,1297.0404928429998,None,space,27.23684195000169,1302.0406548630017,None,,,,,,,,,,,,,,,,,,,,,,,,,,,,,,,,,,,,,,,,,,,,,,,,,,,,,,,,,,,,,,,,,,,,,,,,,,,,,001,140,2020_Feb_18_1520,spring_faces,3.1.5,59.96475535417739,
,,,,,,,,,,,,,,,,,,,,,,,,,,,,,,,,,,,,,,,,,,,,,,,,,,,,,,,,,,,,,,,,,,,,,,,1302.0406548630017,None,1329.3240634310023,None,space,19.081289162000758,1334.3241744260013,None,,,,,,,,,,,,,,,,,,,,,,,,,,,,,,,,,,,,,,,,,,,,,,,,,,,,,,,,,,,,,,,,,,,,,001,140,2020_Feb_18_1520,spring_faces,3.1.5,59.96475535417739,
condition files/Stage0a.xlsx,0a,alpha,none,h,"['h', 'g']","['Chess', 'Go']","[0, 0.5]","[0, 0]",1,0,0,0,0,0,0,0,0,0,,,,,,,,,,,,,,,,,,,,,,,,,,,,,,,,,,,,,,,,,,,,,,,,,,,,,,,,,,,,,1334.3241744260013,None,1353.4573550259993,None,1353.4573550259993,None,1353.4573550259993,None,g,0,19.980563400000392,1355.0408593520006,None,1355.0408593520006,None,1355.0408593520006,None,1375.0906124040011,None,1375.0906124040011,None,1375.0906124040011,None,1375.0906124040011,None,,,,,,,,,,,,,,,,,,,,,,,,,,,,,,,,,,,,,,,,,,,,001,140,2020_Feb_18_1520,spring_faces,3.1.5,59.96475535417739,
condition files/Stage0a.xlsx,0a,beta,none,g,"['h', 'g']","['Chess', 'Go']","[0, 0.5]","[0, 0]",1,0,0,0,0,0,0,1,1,1,,,,,,,,,,,,,,,,,,,,,,,,,,,,,,,,,,,,,,,,,,,,,,,,,,,,,,,,,,,,,,,1377.0405898339995,None,1377.0405898339995,None,1377.0405898339995,None,g,1,15.983050135000667,1378.590468366001,None,1378.590468366001,None,1378.590468366001,None,1394.6238310890003,None,1394.6238310890003,None,1394.6238310890003,None,1394.6238310890003,None,,,,,,,,,,,,,,,,,,,,,,,,,,,,,,,,,,,,,,,,,,,,001,140,2020_Feb_18_1520,spring_faces,3.1.5,59.96475535417739,
condition files/Stage0a.xlsx,0a,alpha,none,h,"['h', 'g']","['Chess', 'Go']","[0, 0.5]","[0, 0]",1,0,0,1,1,1,0,0,0,0,,,,,,,,,,,,,,,,,,,,,,,,,,,,,,,,,,,,,,,,,,,,,,,,,,,,,,,,,,,,,,,1396.6076673690004,None,1396.6076673690004,None,1396.6076673690004,None,g,0,4.0485276079998584,1398.1409690719993,None,1398.1409690719993,None,1398.1409690719993,None,1402.2414197079997,None,1402.2414197079997,None,1402.2414197079997,None,1402.2414197079997,None,,,,,,,,,,,,,,,,,,,,,,,,,,,,,,,,,,,,,,,,,,,,001,140,2020_Feb_18_1520,spring_faces,3.1.5,59.96475535417739,
condition files/Stage0a.xlsx,0a,beta,none,g,"['h', 'g']","['Chess', 'Go']","[0, 0.5]","[0, 0]",1,0,0,1,1,1,0,1,1,1,,,,,,,,,,,,,,,,,,,,,,,,,,,,,,,,,,,,,,,,,,,,,,,,,,,,,,,,,,,,,,,1404.2074102629995,None,1404.2074102629995,None,1404.2074102629995,None,g,1,1.6643498449993785,1405.7411347790003,None,1405.7411347790003,None,1405.7411347790003,None,1407.4573926869998,None,1407.4573926869998,None,1407.4573926869998,None,1407.4573926869998,None,,,,,,,,,,,,,,,,,,,,,,,,,,,,,,,,,,,,,,,,,,,,001,140,2020_Feb_18_1520,spring_faces,3.1.5,59.96475535417739,
condition files/Stage0a.xlsx,0a,alpha,none,h,"['h', 'g']","['Chess', 'Go']","[0, 0.5]","[0, 0]",1,0,0,2,2,2,0,0,0,0,,,,,,,,,,,,,,,,,,,,,,,,,,,,,,,,,,,,,,,,,,,,,,,,,,,,,,,,,,,,,,,1409.4408790080015,None,1409.4408790080015,None,1409.4408790080015,None,h,1,11.743675146000896,1410.9738632459994,None,1410.9738632459994,None,1410.9738632459994,None,1422.7771225979996,None,1422.7771225979996,None,1422.7771225979996,None,1422.7771225979996,None,,,,,,,,,,,,,,,,,,,,,,,,,,,,,,,,,,,,,,,,,,,,001,140,2020_Feb_18_1520,spring_faces,3.1.5,59.96475535417739,
condition files/Stage0a.xlsx,0a,beta,none,g,"['h', 'g']","['Chess', 'Go']","[0, 0.5]","[0, 0]",1,0,0,2,2,2,0,1,1,1,,,,,,,,,,,,,,,,,,,,,,,,,,,,,,,,,,,,,,,,,,,,,,,,,,,,,,,,,,,,,,,1424.740304985,None,1424.740304985,None,1424.740304985,None,g,1,1.2114869409997482,1426.2739480269993,None,1426.2739480269993,None,1426.2739480269993,None,1427.540794474,None,1427.540794474,None,1427.540794474,None,1427.540794474,None,,,,,,,,,,,,,,,,,,,,,,,,,,,,,,,,,,,,,,,,,,,,001,140,2020_Feb_18_1520,spring_faces,3.1.5,59.96475535417739,
condition files/Stage0a.xlsx,0a,beta,none,g,"['h', 'g']","['Chess', 'Go']","[0, 0.5]","[0, 0]",1,0,0,3,3,3,0,0,0,1,,,,,,,,,,,,,,,,,,,,,,,,,,,,,,,,,,,,,,,,,,,,,,,,,,,,,,,,,,,,,,,1429.5242606960019,None,1429.5242606960019,None,1429.5242606960019,None,g,1,1.3082278500005486,1431.0572954470008,None,1431.0572954470008,None,1431.0572954470008,None,1432.424382461002,None,1432.424382461002,None,1432.424382461002,None,1432.424382461002,None,,,,,,,,,,,,,,,,,,,,,,,,,,,,,,,,,,,,,,,,,,,,001,140,2020_Feb_18_1520,spring_faces,3.1.5,59.96475535417739,
condition files/Stage0a.xlsx,0a,alpha,none,h,"['h', 'g']","['Chess', 'Go']","[0, 0.5]","[0, 0]",1,0,0,3,3,3,0,1,1,0,,,,,,,,,,,,,,,,,,,,,,,,,,,,,,,,,,,,,,,,,,,,,,,,,,,,,,,,,,,,,,,1434.3903174570005,None,1434.3903174570005,None,1434.3903174570005,None,h,1,0.6656897690008918,1435.9237897429994,None,1435.9237897429994,None,1435.9237897429994,None,1436.6399153390012,None,1436.6399153390012,None,1436.6399153390012,None,1436.6399153390012,None,,,,,,,,,,,,,,,,,,,,,,,,,,,,,,,,,,,,,,,,,,,,001,140,2020_Feb_18_1520,spring_faces,3.1.5,59.96475535417739,
condition files/Stage0a.xlsx,0a,beta,none,g,"['h', 'g']","['Chess', 'Go']","[0, 0.5]","[0, 0]",1,0,0,4,4,4,0,0,0,1,,,,,,,,,,,,,,,,,,,,,,,,,,,,,,,,,,,,,,,,,,,,,,,,,,,,,,,,,,,,,,,1438.6243150640003,None,1438.6243150640003,None,1438.6243150640003,None,g,1,0.4319144699984463,1440.1575870580018,None,1440.1575870580018,None,1440.1575870580018,None,1440.6402777059993,None,1440.6402777059993,None,1440.6402777059993,None,1440.6402777059993,None,,,,,,,,,,,,,,,,,,,,,,,,,,,,,,,,,,,,,,,,,,,,001,140,2020_Feb_18_1520,spring_faces,3.1.5,59.96475535417739,
condition files/Stage0a.xlsx,0a,alpha,none,h,"['h', 'g']","['Chess', 'Go']","[0, 0.5]","[0, 0]",1,0,0,4,4,4,0,1,1,0,,,,,,,,,,,,,,,,,,,,,,,,,,,,,,,,,,,,,,,,,,,,,,,,,,,,,,,,,,,,,,,1442.6069372599995,None,1442.6069372599995,None,1442.6069372599995,None,h,1,1.3770012700006191,1444.1405316920027,None,1444.1405316920027,None,1444.1405316920027,None,1445.5735748810002,None,1445.5735748810002,None,1445.5735748810002,None,1445.5735748810002,None,,,,,,,,,,,,,,,,,,,,,,,,,,,,,,,,,,,,,,,,,,,,001,140,2020_Feb_18_1520,spring_faces,3.1.5,59.96475535417739,
condition files/Stage0a.xlsx,0a,beta,none,g,"['h', 'g']","['Chess', 'Go']","[0, 0.5]","[0, 0]",1,0,0,5,5,5,0,0,0,1,,,,,,,,,,,,,,,,,,,,,,,,,,,,,,,,,,,,,,,,,,,,,,,,,,,,,,,,,,,,,,,1447.5575575680014,None,1447.5575575680014,None,1447.5575575680014,None,g,1,0.6188975690020015,1449.0905755990025,None,1449.0905755990025,None,1449.0905755990025,None,1449.7742762660018,None,1449.7742762660018,None,1449.7742762660018,None,1449.7742762660018,None,,,,,,,,,,,,,,,,,,,,,,,,,,,,,,,,,,,,,,,,,,,,001,140,2020_Feb_18_1520,spring_faces,3.1.5,59.96475535417739,
condition files/Stage0a.xlsx,0a,alpha,none,h,"['h', 'g']","['Chess', 'Go']","[0, 0.5]","[0, 0]",1,0,0,5,5,5,0,1,1,0,,,,,,,,,,,,,,,,,,,,,,,,,,,,,,,,,,,,,,,,,,,,,,,,,,,,,,,,,,,,,,,1451.7401856610013,None,1451.7401856610013,None,1451.7401856610013,None,h,1,0.627285860999109,1453.2742245000009,None,1453.2742245000009,None,1453.2742245000009,None,1453.9573092710016,None,1453.9573092710016,None,1453.9573092710016,None,1453.9573092710016,None,,,,,,,,,,,,,,,,,,,,,,,,,,,,,,,,,,,,,,,,,,,,001,140,2020_Feb_18_1520,spring_faces,3.1.5,59.96475535417739,
condition files/Stage0b_1.xlsx,0b,none,beta,g,"['h', 'g']","['Chess', 'Go']","[-0.15, 0.5]","[0.15, 0.5]",0,1,0,6,6,6,0,0,0,1,,,,,,,,,,,,,,,,,,,,,,,,,,,,,,,,,,,,,,,,,,,,,,,,,,,,,,,,,,,,,,,1455.9409970460001,None,1455.9409970460001,None,1455.9409970460001,None,g,1,0.6824589209973055,1457.491046088002,None,1457.491046088002,None,1457.491046088002,None,1458.240636284001,None,1458.240636284001,None,1458.240636284001,None,1458.240636284001,None,,,,,,,,,,,,,,,,,,,,,,,,,,,,,,,,,,,,,,,,,,,,001,140,2020_Feb_18_1520,spring_faces,3.1.5,59.96475535417739,
condition files/Stage0b_1.xlsx,0b,alpha,none,h,"['h', 'g']","['Chess', 'Go']","[-0.15, 0.5]","[0.15, 0.5]",1,0,0,6,6,6,0,1,1,0,,,,,,,,,,,,,,,,,,,,,,,,,,,,,,,,,,,,,,,,,,,,,,,,,,,,,,,,,,,,,,,1460.1903902640006,None,1460.1903902640006,None,1460.1903902640006,None,h,1,0.5248639900019043,1461.7285947170021,None,1461.7285947170021,None,1461.7285947170021,None,1462.3125651360024,None,1462.3125651360024,None,1462.3125651360024,None,1462.3125651360024,None,,,,,,,,,,,,,,,,,,,,,,,,,,,,,,,,,,,,,,,,,,,,001,140,2020_Feb_18_1520,spring_faces,3.1.5,59.96475535417739,
condition files/Stage0b_2.xlsx,0b,none,alpha,h,"['h', 'g']","['Chess', 'Go']","[-0.15, 0.5]","[0.15, 0.5]",0,1,0,7,7,7,0,0,0,0,,,,,,,,,,,,,,,,,,,,,,,,,,,,,,,,,,,,,,,,,,,,,,,,,,,,,,,,,,,,,,,1464.2908715470003,None,1464.2908715470003,None,1464.2908715470003,None,h,1,0.44258233399887104,1465.8108300669992,None,1465.8108300669992,None,1465.8108300669992,None,1466.3075772619995,None,1466.3075772619995,None,1466.3075772619995,None,1466.3075772619995,None,,,,,,,,,,,,,,,,,,,,,,,,,,,,,,,,,,,,,,,,,,,,001,140,2020_Feb_18_1520,spring_faces,3.1.5,59.96475535417739,
condition files/Stage0b_2.xlsx,0b,beta,none,g,"['h', 'g']","['Chess', 'Go']","[-0.15, 0.5]","[0.15, 0.5]",1,0,0,7,7,7,0,1,1,1,,,,,,,,,,,,,,,,,,,,,,,,,,,,,,,,,,,,,,,,,,,,,,,,,,,,,,,,,,,,,,,1468.2736357640024,None,1468.2736357640024,None,1468.2736357640024,None,g,1,0.44506783000178984,1469.8243901540009,None,1469.8243901540009,None,1469.8243901540009,None,1470.3264021370014,None,1470.3264021370014,None,1470.3264021370014,None,1470.3264021370014,None,,,,,,,,,,,,,,,,,,,,,,,,,,,,,,,,,,,,,,,,,,,,001,140,2020_Feb_18_1520,spring_faces,3.1.5,59.96475535417739,
condition files/Stage0b_1.xlsx,0b,alpha,none,h,"['h', 'g']","['Chess', 'Go']","[-0.15, 0.5]","[0.15, 0.5]",1,0,0,8,8,8,0,0,0,0,,,,,,,,,,,,,,,,,,,,,,,,,,,,,,,,,,,,,,,,,,,,,,,,,,,,,,,,,,,,,,,1472.3076860270012,None,1472.3076860270012,None,1472.3076860270012,None,h,1,0.6525074099990888,1473.8409727920007,None,1473.8409727920007,None,1473.8409727920007,None,1474.5569130010008,None,1474.5569130010008,None,1474.5569130010008,None,1474.5569130010008,None,,,,,,,,,,,,,,,,,,,,,,,,,,,,,,,,,,,,,,,,,,,,001,140,2020_Feb_18_1520,spring_faces,3.1.5,59.96475535417739,
condition files/Stage0b_1.xlsx,0b,none,beta,g,"['h', 'g']","['Chess', 'Go']","[-0.15, 0.5]","[0.15, 0.5]",0,1,0,8,8,8,0,1,1,1,,,,,,,,,,,,,,,,,,,,,,,,,,,,,,,,,,,,,,,,,,,,,,,,,,,,,,,,,,,,,,,1476.5239289700003,None,1476.5239289700003,None,1476.5239289700003,None,g,1,0.5313284029980423,1478.0741265360011,None,1478.0741265360011,None,1478.0741265360011,None,1478.674474626001,None,1478.674474626001,None,1478.674474626001,None,1478.674474626001,None,,,,,,,,,,,,,,,,,,,,,,,,,,,,,,,,,,,,,,,,,,,,001,140,2020_Feb_18_1520,spring_faces,3.1.5,59.96475535417739,
condition files/Stage0b_2.xlsx,0b,beta,none,g,"['h', 'g']","['Chess', 'Go']","[-0.15, 0.5]","[0.15, 0.5]",1,0,0,9,9,9,0,0,0,1,,,,,,,,,,,,,,,,,,,,,,,,,,,,,,,,,,,,,,,,,,,,,,,,,,,,,,,,,,,,,,,1480.640978970001,None,1480.640978970001,None,1480.640978970001,None,g,1,0.4617051100030949,1482.1758183029997,None,1482.1758183029997,None,1482.1758183029997,None,1482.6910847639992,None,1482.6910847639992,None,1482.6910847639992,None,1482.6910847639992,None,,,,,,,,,,,,,,,,,,,,,,,,,,,,,,,,,,,,,,,,,,,,001,140,2020_Feb_18_1520,spring_faces,3.1.5,59.96475535417739,
condition files/Stage0b_2.xlsx,0b,none,alpha,h,"['h', 'g']","['Chess', 'Go']","[-0.15, 0.5]","[0.15, 0.5]",0,1,0,9,9,9,0,1,1,0,,,,,,,,,,,,,,,,,,,,,,,,,,,,,,,,,,,,,,,,,,,,,,,,,,,,,,,,,,,,,,,1484.6574066130015,None,1484.6574066130015,None,1484.6574066130015,None,h,1,0.29899851799928,1486.1944681410023,None,1486.1944681410023,None,1486.1944681410023,None,1486.5594796320001,None,1486.5594796320001,None,1486.5594796320001,None,1486.5594796320001,None,,,,,,,,,,,,,,,,,,,,,,,,,,,,,,,,,,,,,,,,,,,,001,140,2020_Feb_18_1520,spring_faces,3.1.5,59.96475535417739,
condition files/Stage0b_1.xlsx,0b,none,beta,g,"['h', 'g']","['Chess', 'Go']","[-0.15, 0.5]","[0.15, 0.5]",0,1,0,10,10,10,0,0,0,1,,,,,,,,,,,,,,,,,,,,,,,,,,,,,,,,,,,,,,,,,,,,,,,,,,,,,,,,,,,,,,,1488.5403187030024,None,1488.5403187030024,None,1488.5403187030024,None,g,1,0.45028099800038035,1490.0751746410024,None,1490.0751746410024,None,1490.0751746410024,None,1490.5905555600002,None,1490.5905555600002,None,1490.5905555600002,None,1490.5905555600002,None,,,,,,,,,,,,,,,,,,,,,,,,,,,,,,,,,,,,,,,,,,,,001,140,2020_Feb_18_1520,spring_faces,3.1.5,59.96475535417739,
condition files/Stage0b_1.xlsx,0b,alpha,none,h,"['h', 'g']","['Chess', 'Go']","[-0.15, 0.5]","[0.15, 0.5]",1,0,0,10,10,10,0,1,1,0,,,,,,,,,,,,,,,,,,,,,,,,,,,,,,,,,,,,,,,,,,,,,,,,,,,,,,,,,,,,,,,1492.5575958910013,None,1492.5575958910013,None,1492.5575958910013,None,h,1,0.46569924800132867,1494.107793809002,None,1494.107793809002,None,1494.107793809002,None,1494.629515187,None,1494.629515187,None,1494.629515187,None,1494.629515187,None,,,,,,,,,,,,,,,,,,,,,,,,,,,,,,,,,,,,,,,,,,,,001,140,2020_Feb_18_1520,spring_faces,3.1.5,59.96475535417739,
condition files/Stage0b_2.xlsx,0b,none,alpha,h,"['h', 'g']","['Chess', 'Go']","[-0.15, 0.5]","[0.15, 0.5]",0,1,0,11,11,11,0,0,0,0,,,,,,,,,,,,,,,,,,,,,,,,,,,,,,,,,,,,,,,,,,,,,,,,,,,,,,,,,,,,,,,1496.6075744770023,None,1496.6075744770023,None,1496.6075744770023,None,h,1,0.3654701390005357,1498.1440151550014,None,1498.1440151550014,None,1498.1440151550014,None,1498.5741667740003,None,1498.5741667740003,None,1498.5741667740003,None,1498.5741667740003,None,,,,,,,,,,,,,,,,,,,,,,,,,,,,,,,,,,,,,,,,,,,,001,140,2020_Feb_18_1520,spring_faces,3.1.5,59.96475535417739,
condition files/Stage0b_2.xlsx,0b,beta,none,g,"['h', 'g']","['Chess', 'Go']","[-0.15, 0.5]","[0.15, 0.5]",1,0,0,11,11,11,0,1,1,1,,,,,,,,,,,,,,,,,,,,,,,,,,,,,,,,,,,,,,,,,,,,,,,,,,,,,,,,,,,,,,,1500.5406156730023,None,1500.5406156730023,None,1500.5406156730023,None,g,1,0.4319614750020264,1502.0775156670024,None,1502.0775156670024,None,1502.0775156670024,None,1502.5771806580015,None,1502.5771806580015,None,1502.5771806580015,None,1502.5771806580015,None,,,,,,,,,,,,,,,,,,,,,,,,,,,,,,,,,,,,,,,,,,,,001,140,2020_Feb_18_1520,spring_faces,3.1.5,59.96475535417739,
condition files/Stage0c_1.xlsx,0c,phi,beta,g,"['h', 'g']","['Chess', 'Go']","[-0.15, 0.5]","[0.15, 0.5]",1,1,0,12,12,12,0,0,0,3,,,,,,,,,,,,,,,,,,,,,,,,,,,,,,,,,,,,,,,,,,,,,,,,,,,,,,,,,,,,,,,1504.5578175510018,None,1504.5578175510018,None,1504.5578175510018,None,g,1,1.8264178829995217,1506.0911177810012,None,1506.0911177810012,None,1506.0911177810012,None,1507.9742946170009,None,1507.9742946170009,None,1507.9742946170009,None,1507.9742946170009,None,,,,,,,,,,,,,,,,,,,,,,,,,,,,,,,,,,,,,,,,,,,,001,140,2020_Feb_18_1520,spring_faces,3.1.5,59.96475535417739,
condition files/Stage0c_1.xlsx,0c,beta,theta,g,"['h', 'g']","['Chess', 'Go']","[-0.15, 0.5]","[0.15, 0.5]",1,1,0,12,12,12,0,1,1,2,,,,,,,,,,,,,,,,,,,,,,,,,,,,,,,,,,,,,,,,,,,,,,,,,,,,,,,,,,,,,,,1509.9407239290013,None,1509.9407239290013,None,1509.9407239290013,None,g,1,0.6990022709978803,1511.4744883910025,None,1511.4744883910025,None,1511.4744883910025,None,1512.2243752640024,None,1512.2243752640024,None,1512.2243752640024,None,1512.2243752640024,None,,,,,,,,,,,,,,,,,,,,,,,,,,,,,,,,,,,,,,,,,,,,001,140,2020_Feb_18_1520,spring_faces,3.1.5,59.96475535417739,
condition files/Stage0c_1.xlsx,0c,alpha,phi,h,"['h', 'g']","['Chess', 'Go']","[-0.15, 0.5]","[0.15, 0.5]",1,1,0,12,12,12,0,2,2,1,,,,,,,,,,,,,,,,,,,,,,,,,,,,,,,,,,,,,,,,,,,,,,,,,,,,,,,,,,,,,,,1514.1910625439996,None,1514.1910625439996,None,1514.1910625439996,None,h,1,0.3854216159998032,1515.7239963419997,None,1515.7239963419997,None,1515.7239963419997,None,1516.1742608340028,None,1516.1742608340028,None,1516.1742608340028,None,1516.1742608340028,None,,,,,,,,,,,,,,,,,,,,,,,,,,,,,,,,,,,,,,,,,,,,001,140,2020_Feb_18_1520,spring_faces,3.1.5,59.96475535417739,
condition files/Stage0c_1.xlsx,0c,theta,alpha,h,"['h', 'g']","['Chess', 'Go']","[-0.15, 0.5]","[0.15, 0.5]",1,1,0,12,12,12,0,3,3,0,,,,,,,,,,,,,,,,,,,,,,,,,,,,,,,,,,,,,,,,,,,,,,,,,,,,,,,,,,,,,,,1518.1406752340008,None,1518.1406752340008,None,1518.1406752340008,None,h,1,0.40349924999827635,1519.6739594329993,None,1519.6739594329993,None,1519.6739594329993,None,1520.1403836610007,None,1520.1403836610007,None,1520.1403836610007,None,1520.1403836610007,None,,,,,,,,,,,,,,,,,,,,,,,,,,,,,,,,,,,,,,,,,,,,001,140,2020_Feb_18_1520,spring_faces,3.1.5,59.96475535417739,
condition files/Stage0c_2.xlsx,0c,theta,beta,g,"['h', 'g']","['Chess', 'Go']","[-0.15, 0.5]","[0.15, 0.5]",1,1,0,13,13,13,0,0,0,2,,,,,,,,,,,,,,,,,,,,,,,,,,,,,,,,,,,,,,,,,,,,,,,,,,,,,,,,,,,,,,,1522.1240989450016,None,1522.1240989450016,None,1522.1240989450016,None,g,1,0.8204683270014357,1523.641036342,None,1523.641036342,None,1523.641036342,None,1524.5239167719992,None,1524.5239167719992,None,1524.5239167719992,None,1524.5239167719992,None,,,,,,,,,,,,,,,,,,,,,,,,,,,,,,,,,,,,,,,,,,,,001,140,2020_Feb_18_1520,spring_faces,3.1.5,59.96475535417739,
condition files/Stage0c_2.xlsx,0c,beta,phi,g,"['h', 'g']","['Chess', 'Go']","[-0.15, 0.5]","[0.15, 0.5]",1,1,0,13,13,13,0,1,1,3,,,,,,,,,,,,,,,,,,,,,,,,,,,,,,,,,,,,,,,,,,,,,,,,,,,,,,,,,,,,,,,1526.4907932970018,None,1526.4907932970018,None,1526.4907932970018,None,g,1,0.46934980299920426,1528.0240685490025,None,1528.0240685490025,None,1528.0240685490025,None,1528.5407184210017,None,1528.5407184210017,None,1528.5407184210017,None,1528.5407184210017,None,,,,,,,,,,,,,,,,,,,,,,,,,,,,,,,,,,,,,,,,,,,,001,140,2020_Feb_18_1520,spring_faces,3.1.5,59.96475535417739,
condition files/Stage0c_2.xlsx,0c,alpha,theta,h,"['h', 'g']","['Chess', 'Go']","[-0.15, 0.5]","[0.15, 0.5]",1,1,0,13,13,13,0,2,2,0,,,,,,,,,,,,,,,,,,,,,,,,,,,,,,,,,,,,,,,,,,,,,,,,,,,,,,,,,,,,,,,1530.524192727,None,1530.524192727,None,1530.524192727,None,h,1,0.5318272589975095,1532.0576477899995,None,1532.0576477899995,None,1532.0576477899995,None,1532.640967231,None,1532.640967231,None,1532.640967231,None,1532.640967231,None,,,,,,,,,,,,,,,,,,,,,,,,,,,,,,,,,,,,,,,,,,,,001,140,2020_Feb_18_1520,spring_faces,3.1.5,59.96475535417739,
condition files/Stage0c_2.xlsx,0c,phi,alpha,h,"['h', 'g']","['Chess', 'Go']","[-0.15, 0.5]","[0.15, 0.5]",1,1,0,13,13,13,0,3,3,1,,,,,,,,,,,,,,,,,,,,,,,,,,,,,,,,,,,,,,,,,,,,,,,,,,,,,,,,,,,,,,,1534.606632031002,None,1534.606632031002,None,1534.606632031002,None,g,0,0.576552784001251,1536.140962714002,None,1536.140962714002,None,1536.140962714002,None,1536.7585889729999,None,1536.7585889729999,None,1536.7585889729999,None,1536.7585889729999,None,,,,,,,,,,,,,,,,,,,,,,,,,,,,,,,,,,,,,,,,,,,,001,140,2020_Feb_18_1520,spring_faces,3.1.5,59.96475535417739,
condition files/Stage0c_1.xlsx,0c,phi,beta,g,"['h', 'g']","['Chess', 'Go']","[-0.15, 0.5]","[0.15, 0.5]",1,1,0,14,14,14,0,0,0,3,,,,,,,,,,,,,,,,,,,,,,,,,,,,,,,,,,,,,,,,,,,,,,,,,,,,,,,,,,,,,,,1538.7578163100006,None,1538.7578163100006,None,1538.7578163100006,None,g,1,0.427035889999388,1540.2904990080024,None,1540.2904990080024,None,1540.2904990080024,None,1540.7735467269995,None,1540.7735467269995,None,1540.7735467269995,None,1540.7735467269995,None,,,,,,,,,,,,,,,,,,,,,,,,,,,,,,,,,,,,,,,,,,,,001,140,2020_Feb_18_1520,spring_faces,3.1.5,59.96475535417739,
condition files/Stage0c_1.xlsx,0c,beta,theta,g,"['h', 'g']","['Chess', 'Go']","[-0.15, 0.5]","[0.15, 0.5]",1,1,0,14,14,14,0,1,1,2,,,,,,,,,,,,,,,,,,,,,,,,,,,,,,,,,,,,,,,,,,,,,,,,,,,,,,,,,,,,,,,1542.7407216870015,None,1542.7407216870015,None,1542.7407216870015,None,g,1,0.5713568970022607,1544.274136068001,None,1544.274136068001,None,1544.274136068001,None,1544.8904547050006,None,1544.8904547050006,None,1544.8904547050006,None,1544.8904547050006,None,,,,,,,,,,,,,,,,,,,,,,,,,,,,,,,,,,,,,,,,,,,,001,140,2020_Feb_18_1520,spring_faces,3.1.5,59.96475535417739,
condition files/Stage0c_1.xlsx,0c,theta,alpha,h,"['h', 'g']","['Chess', 'Go']","[-0.15, 0.5]","[0.15, 0.5]",1,1,0,14,14,14,0,2,2,0,,,,,,,,,,,,,,,,,,,,,,,,,,,,,,,,,,,,,,,,,,,,,,,,,,,,,,,,,,,,,,,1546.8739556100008,None,1546.8739556100008,None,1546.8739556100008,None,h,1,0.5180814380000811,1548.4073419279994,None,1548.4073419279994,None,1548.4073419279994,None,1548.9907599750004,None,1548.9907599750004,None,1548.9907599750004,None,1548.9907599750004,None,,,,,,,,,,,,,,,,,,,,,,,,,,,,,,,,,,,,,,,,,,,,001,140,2020_Feb_18_1520,spring_faces,3.1.5,59.96475535417739,
condition files/Stage0c_1.xlsx,0c,alpha,phi,h,"['h', 'g']","['Chess', 'Go']","[-0.15, 0.5]","[0.15, 0.5]",1,1,0,14,14,14,0,3,3,1,,,,,,,,,,,,,,,,,,,,,,,,,,,,,,,,,,,,,,,,,,,,,,,,,,,,,,,,,,,,,,,1550.957345365001,None,1550.957345365001,None,1550.957345365001,None,h,1,0.40265362699938123,1552.4908262400022,None,1552.4908262400022,None,1552.4908262400022,None,1552.941507765001,None,1552.941507765001,None,1552.941507765001,None,1552.941507765001,None,,,,,,,,,,,,,,,,,,,,,,,,,,,,,,,,,,,,,,,,,,,,001,140,2020_Feb_18_1520,spring_faces,3.1.5,59.96475535417739,
condition files/Stage0c_2.xlsx,0c,beta,phi,g,"['h', 'g']","['Chess', 'Go']","[-0.15, 0.5]","[0.15, 0.5]",1,1,0,15,15,15,0,0,0,3,,,,,,,,,,,,,,,,,,,,,,,,,,,,,,,,,,,,,,,,,,,,,,,,,,,,,,,,,,,,,,,1554.940594480002,None,1554.940594480002,None,1554.940594480002,None,h,0,0.4034334280004259,1556.4740729510013,None,1556.4740729510013,None,1556.4740729510013,None,1556.9402178020027,None,1556.9402178020027,None,1556.9402178020027,None,1556.9402178020027,None,,,,,,,,,,,,,,,,,,,,,,,,,,,,,,,,,,,,,,,,,,,,001,140,2020_Feb_18_1520,spring_faces,3.1.5,59.96475535417739,
condition files/Stage0c_2.xlsx,0c,alpha,theta,h,"['h', 'g']","['Chess', 'Go']","[-0.15, 0.5]","[0.15, 0.5]",1,1,0,15,15,15,0,1,1,0,,,,,,,,,,,,,,,,,,,,,,,,,,,,,,,,,,,,,,,,,,,,,,,,,,,,,,,,,,,,,,,1558.9066943960024,None,1558.9066943960024,None,1558.9066943960024,None,h,1,0.45271043899992947,1560.440748377001,None,1560.440748377001,None,1560.440748377001,None,1560.9577439189998,None,1560.9577439189998,None,1560.9577439189998,None,1560.9577439189998,None,,,,,,,,,,,,,,,,,,,,,,,,,,,,,,,,,,,,,,,,,,,,001,140,2020_Feb_18_1520,spring_faces,3.1.5,59.96475535417739,
condition files/Stage0c_2.xlsx,0c,theta,beta,g,"['h', 'g']","['Chess', 'Go']","[-0.15, 0.5]","[0.15, 0.5]",1,1,0,15,15,15,0,2,2,2,,,,,,,,,,,,,,,,,,,,,,,,,,,,,,,,,,,,,,,,,,,,,,,,,,,,,,,,,,,,,,,1562.9235789970007,None,1562.9235789970007,None,1562.9235789970007,None,g,1,0.6759241430008842,1564.4575819189995,None,1564.4575819189995,None,1564.4575819189995,None,1565.1907122470002,None,1565.1907122470002,None,1565.1907122470002,None,1565.1907122470002,None,,,,,,,,,,,,,,,,,,,,,,,,,,,,,,,,,,,,,,,,,,,,001,140,2020_Feb_18_1520,spring_faces,3.1.5,59.96475535417739,
condition files/Stage0c_2.xlsx,0c,phi,alpha,h,"['h', 'g']","['Chess', 'Go']","[-0.15, 0.5]","[0.15, 0.5]",1,1,0,15,15,15,0,3,3,1,,,,,,,,,,,,,,,,,,,,,,,,,,,,,,,,,,,,,,,,,,,,,,,,,,,,,,,,,,,,,,,1567.1573327030019,None,1567.1573327030019,None,1567.1573327030019,None,h,1,0.7787195470009465,1568.6907552750017,None,1568.6907552750017,None,1568.6907552750017,None,1569.5238170640005,None,1569.5238170640005,None,1569.5238170640005,None,1569.5238170640005,None,,,,,,,,,,,,,,,,,,,,,,,,,,,,,,,,,,,,,,,,,,,,001,140,2020_Feb_18_1520,spring_faces,3.1.5,59.96475535417739,
condition files/Stage0c_1.xlsx,0c,phi,beta,g,"['h', 'g']","['Chess', 'Go']","[-0.15, 0.5]","[0.15, 0.5]",1,1,0,16,16,16,0,0,0,3,,,,,,,,,,,,,,,,,,,,,,,,,,,,,,,,,,,,,,,,,,,,,,,,,,,,,,,,,,,,,,,1571.5078417959994,None,1571.5078417959994,None,1571.5078417959994,None,g,1,0.49285588299972005,1573.0406378860025,None,1573.0406378860025,None,1573.0406378860025,None,1573.5909602440006,None,1573.5909602440006,None,1573.5909602440006,None,1573.5909602440006,None,,,,,,,,,,,,,,,,,,,,,,,,,,,,,,,,,,,,,,,,,,,,001,140,2020_Feb_18_1520,spring_faces,3.1.5,59.96475535417739,
condition files/Stage0c_1.xlsx,0c,beta,theta,g,"['h', 'g']","['Chess', 'Go']","[-0.15, 0.5]","[0.15, 0.5]",1,1,0,16,16,16,0,1,1,2,,,,,,,,,,,,,,,,,,,,,,,,,,,,,,,,,,,,,,,,,,,,,,,,,,,,,,,,,,,,,,,1575.5572091329996,None,1575.5572091329996,None,1575.5572091329996,None,g,1,0.4269741640018765,1577.0905433160005,None,1577.0905433160005,None,1577.0905433160005,None,1577.5583651350025,None,1577.5583651350025,None,1577.5583651350025,None,1577.5583651350025,None,,,,,,,,,,,,,,,,,,,,,,,,,,,,,,,,,,,,,,,,,,,,001,140,2020_Feb_18_1520,spring_faces,3.1.5,59.96475535417739,
condition files/Stage0c_1.xlsx,0c,theta,alpha,h,"['h', 'g']","['Chess', 'Go']","[-0.15, 0.5]","[0.15, 0.5]",1,1,0,16,16,16,0,2,2,0,,,,,,,,,,,,,,,,,,,,,,,,,,,,,,,,,,,,,,,,,,,,,,,,,,,,,,,,,,,,,,,1579.5412005990001,None,1579.5412005990001,None,1579.5412005990001,None,g,0,0.5395595930021955,1581.0739304740018,None,1581.0739304740018,None,1581.0739304740018,None,1581.6746907609995,None,1581.6746907609995,None,1581.6746907609995,None,1581.6746907609995,None,,,,,,,,,,,,,,,,,,,,,,,,,,,,,,,,,,,,,,,,,,,,001,140,2020_Feb_18_1520,spring_faces,3.1.5,59.96475535417739,
condition files/Stage0c_1.xlsx,0c,alpha,phi,h,"['h', 'g']","['Chess', 'Go']","[-0.15, 0.5]","[0.15, 0.5]",1,1,0,16,16,16,0,3,3,1,,,,,,,,,,,,,,,,,,,,,,,,,,,,,,,,,,,,,,,,,,,,,,,,,,,,,,,,,,,,,,,1583.6409199629998,None,1583.6409199629998,None,1583.6409199629998,None,h,1,0.7109496510020108,1585.1744973200002,None,1585.1744973200002,None,1585.1744973200002,None,1585.9408754210017,None,1585.9408754210017,None,1585.9408754210017,None,1585.9408754210017,None,,,,,,,,,,,,,,,,,,,,,,,,,,,,,,,,,,,,,,,,,,,,001,140,2020_Feb_18_1520,spring_faces,3.1.5,59.96475535417739,
condition files/Stage0c_2.xlsx,0c,theta,beta,g,"['h', 'g']","['Chess', 'Go']","[-0.15, 0.5]","[0.15, 0.5]",1,1,0,17,17,17,0,0,0,2,,,,,,,,,,,,,,,,,,,,,,,,,,,,,,,,,,,,,,,,,,,,,,,,,,,,,,,,,,,,,,,1587.9236956080022,None,1587.9236956080022,None,1587.9236956080022,None,g,1,0.5721670540006016,1589.4573364060016,None,1589.4573364060016,None,1589.4573364060016,None,1590.0907149539998,None,1590.0907149539998,None,1590.0907149539998,None,1590.0907149539998,None,,,,,,,,,,,,,,,,,,,,,,,,,,,,,,,,,,,,,,,,,,,,001,140,2020_Feb_18_1520,spring_faces,3.1.5,59.96475535417739,
condition files/Stage0c_2.xlsx,0c,alpha,theta,h,"['h', 'g']","['Chess', 'Go']","[-0.15, 0.5]","[0.15, 0.5]",1,1,0,17,17,17,0,1,1,0,,,,,,,,,,,,,,,,,,,,,,,,,,,,,,,,,,,,,,,,,,,,,,,,,,,,,,,,,,,,,,,1592.057424562001,None,1592.057424562001,None,1592.057424562001,None,h,1,0.5344761329979519,1593.5909448390012,None,1593.5909448390012,None,1593.5909448390012,None,1594.1909776130015,None,1594.1909776130015,None,1594.1909776130015,None,1594.1909776130015,None,,,,,,,,,,,,,,,,,,,,,,,,,,,,,,,,,,,,,,,,,,,,001,140,2020_Feb_18_1520,spring_faces,3.1.5,59.96475535417739,
condition files/Stage0c_2.xlsx,0c,beta,phi,g,"['h', 'g']","['Chess', 'Go']","[-0.15, 0.5]","[0.15, 0.5]",1,1,0,17,17,17,0,2,2,3,,,,,,,,,,,,,,,,,,,,,,,,,,,,,,,,,,,,,,,,,,,,,,,,,,,,,,,,,,,,,,,1596.1569619250004,None,1596.1569619250004,None,1596.1569619250004,None,g,1,0.6746616860000358,1597.6908652780003,None,1597.6908652780003,None,1597.6908652780003,None,1598.4242356450013,None,1598.4242356450013,None,1598.4242356450013,None,1598.4242356450013,None,,,,,,,,,,,,,,,,,,,,,,,,,,,,,,,,,,,,,,,,,,,,001,140,2020_Feb_18_1520,spring_faces,3.1.5,59.96475535417739,
condition files/Stage0c_2.xlsx,0c,phi,alpha,h,"['h', 'g']","['Chess', 'Go']","[-0.15, 0.5]","[0.15, 0.5]",1,1,0,17,17,17,0,3,3,1,,,,,,,,,,,,,,,,,,,,,,,,,,,,,,,,,,,,,,,,,,,,,,,,,,,,,,,,,,,,,,,1600.3905993219996,None,1600.3905993219996,None,1600.3905993219996,None,h,1,0.39333954399990034,1601.924190550002,None,1601.924190550002,None,1601.924190550002,None,1602.3742240440006,None,1602.3742240440006,None,1602.3742240440006,None,1602.3742240440006,None,,,,,,,,,,,,,,,,,,,,,,,,,,,,,,,,,,,,,,,,,,,,001,140,2020_Feb_18_1520,spring_faces,3.1.5,59.96475535417739,
,,,,,,,,,,,,,,,,,,,,,,,,,,,,,,,,,,,,,,,,,,,,,,,,,,,,,,,,,,,,,,,,,,,,,,,,,,,,,,,,,,,,,,,,,,,,,,,,,,,,,,,,1604.357835515002,None,space,9.552122237997537,1609.3573618450027,None,,,,,,,,,,,,,,,,,,,,,,,,,,,,,,,,,,,,,,001,140,2020_Feb_18_1520,spring_faces,3.1.5,59.96475535417739,
condition files/Stage1_1.xlsx,,B3,T3,c,"['c', 'm']","['Clue', 'Monopoly']","[-0.15, 0.5]","[0.15, 0.5]",1,1,,,,,,,,,0,0,0,0,0,0,0,4,,,,,,,,,,,,,,,,,,,,,,,,,,,,,,,,,,,,,,,,,,,,,,,,,,,,,,,1618.9741670229996,None,1618.9741670229996,None,1618.9741670229996,None,m,0,3.4265400050026074,1620.5069639460016,None,1620.5069639460016,None,1620.5069639460016,None,1624.007004520001,None,1624.007004520001,None,1624.007004520001,None,1624.007004520001,None,,,,,,,1609.3573618450027,None,,,,,,,,,,,,,,,,,,,,,,,,,,,,,,,,,,,,001,140,2020_Feb_18_1520,spring_faces,3.1.5,59.96475535417739,
condition files/Stage1_1.xlsx,,T4,B3,m,"['c', 'm']","['Clue', 'Monopoly']","[-0.15, 0.5]","[0.15, 0.5]",1,1,,,,,,,,,0,0,0,0,0,1,1,6,,,,,,,,,,,,,,,,,,,,,,,,,,,,,,,,,,,,,,,,,,,,,,,,,,,,,,,1625.956765715,None,1625.956765715,None,1625.956765715,None,c,0,2.0898509990001912,1627.5076763319994,None,1627.5076763319994,None,1627.5076763319994,None,1629.659516738,None,1629.659516738,None,1629.659516738,None,1629.659516738,None,,,,,,,,,,,,,,,,,,,,,,,,,,,,,,,,,,,,,,,,,,,,001,140,2020_Feb_18_1520,spring_faces,3.1.5,59.96475535417739,
condition files/Stage1_1.xlsx,,B4,T4,m,"['c', 'm']","['Clue', 'Monopoly']","[-0.15, 0.5]","[0.15, 0.5]",1,1,,,,,,,,,0,0,0,0,0,2,2,7,,,,,,,,,,,,,,,,,,,,,,,,,,,,,,,,,,,,,,,,,,,,,,,,,,,,,,,1631.6241676730024,None,1631.6241676730024,None,1631.6241676730024,None,m,1,5.750463740001578,1633.1589933739997,None,1633.1589933739997,None,1633.1589933739997,None,1638.9744884489992,None,1638.9744884489992,None,1638.9744884489992,None,1638.9744884489992,None,,,,,,,,,,,,,,,,,,,,,,,,,,,,,,,,,,,,,,,,,,,,001,140,2020_Feb_18_1520,spring_faces,3.1.5,59.96475535417739,
condition files/Stage1_1.xlsx,,B2,T1,m,"['c', 'm']","['Clue', 'Monopoly']","[-0.15, 0.5]","[0.15, 0.5]",1,1,,,,,,,,,0,0,0,0,0,3,3,2,,,,,,,,,,,,,,,,,,,,,,,,,,,,,,,,,,,,,,,,,,,,,,,,,,,,,,,1640.9404342800008,None,1640.9404342800008,None,1640.9404342800008,None,c,0,1.4584895259977202,1642.4910314350018,None,1642.4910314350018,None,1642.4910314350018,None,1644.0067509690016,None,1644.0067509690016,None,1644.0067509690016,None,1644.0067509690016,None,,,,,,,,,,,,,,,,,,,,,,,,,,,,,,,,,,,,,,,,,,,,001,140,2020_Feb_18_1520,spring_faces,3.1.5,59.96475535417739,
condition files/Stage1_1.xlsx,,T2,B2,m,"['c', 'm']","['Clue', 'Monopoly']","[-0.15, 0.5]","[0.15, 0.5]",1,1,,,,,,,,,0,0,0,0,0,4,4,3,,,,,,,,,,,,,,,,,,,,,,,,,,,,,,,,,,,,,,,,,,,,,,,,,,,,,,,1645.973544151002,None,1645.973544151002,None,1645.973544151002,None,c,0,1.1944072599981155,1647.5071515400014,None,1647.5071515400014,None,1647.5071515400014,None,1648.7577789280003,None,1648.7577789280003,None,1648.7577789280003,None,1648.7577789280003,None,,,,,,,,,,,,,,,,,,,,,,,,,,,,,,,,,,,,,,,,,,,,001,140,2020_Feb_18_1520,spring_faces,3.1.5,59.96475535417739,
condition files/Stage1_1.xlsx,,B1,T2,c,"['c', 'm']","['Clue', 'Monopoly']","[-0.15, 0.5]","[0.15, 0.5]",1,1,,,,,,,,,0,0,0,0,0,5,5,1,,,,,,,,,,,,,,,,,,,,,,,,,,,,,,,,,,,,,,,,,,,,,,,,,,,,,,,1650.7244605689993,None,1650.7244605689993,None,1650.7244605689993,None,m,0,3.610717551000562,1652.2587301420026,None,1652.2587301420026,None,1652.2587301420026,None,1655.925356609001,None,1655.925356609001,None,1655.925356609001,None,1655.925356609001,None,,,,,,,,,,,,,,,,,,,,,,,,,,,,,,,,,,,,,,,,,,,,001,140,2020_Feb_18_1520,spring_faces,3.1.5,59.96475535417739,
condition files/Stage1_1.xlsx,,T3,B4,c,"['c', 'm']","['Clue', 'Monopoly']","[-0.15, 0.5]","[0.15, 0.5]",1,1,,,,,,,,,0,0,0,0,0,6,6,5,,,,,,,,,,,,,,,,,,,,,,,,,,,,,,,,,,,,,,,,,,,,,,,,,,,,,,,1657.8911670300004,None,1657.8911670300004,None,1657.8911670300004,None,m,0,3.388755869000306,1659.4247642280025,None,1659.4247642280025,None,1659.4247642280025,None,1662.874220302001,None,1662.874220302001,None,1662.874220302001,None,1662.874220302001,None,,,,,,,,,,,,,,,,,,,,,,,,,,,,,,,,,,,,,,,,,,,,001,140,2020_Feb_18_1520,spring_faces,3.1.5,59.96475535417739,
condition files/Stage1_1.xlsx,,T1,B1,c,"['c', 'm']","['Clue', 'Monopoly']","[-0.15, 0.5]","[0.15, 0.5]",1,1,,,,,,,,,0,0,0,0,0,7,7,0,,,,,,,,,,,,,,,,,,,,,,,,,,,,,,,,,,,,,,,,,,,,,,,,,,,,,,,1664.8403052370013,None,1664.8403052370013,None,1664.8403052370013,None,c,1,1.3818775029976678,1666.3756353050012,None,1666.3756353050012,None,1666.3756353050012,None,1667.8077076260015,None,1667.8077076260015,None,1667.8077076260015,None,1667.8077076260015,None,,,,,,,,,,,,,,,,,,,,,,,,,,,,,,,,,,,,,,,,,,,,001,140,2020_Feb_18_1520,spring_faces,3.1.5,59.96475535417739,
condition files/Stage1_2.xlsx,,B2,T2,m,"['c', 'm']","['Clue', 'Monopoly']","[-0.15, 0.5]","[0.15, 0.5]",1,1,,,,,,,,,0,1,1,1,0,0,0,3,,,,,,,,,,,,,,,,,,,,,,,,,,,,,,,,,,,,,,,,,,,,,,,,,,,,,,,1669.7909854140016,None,1669.7909854140016,None,1669.7909854140016,None,m,1,0.7206990240010782,1671.3408047850025,None,1671.3408047850025,None,1671.3408047850025,None,1672.140894944001,None,1672.140894944001,None,1672.140894944001,None,1672.140894944001,None,,,,,,,,,,,,,,,,,,,,,,,,,,,,,,,,,,,,,,,,,,,,001,140,2020_Feb_18_1520,spring_faces,3.1.5,59.96475535417739,
condition files/Stage1_2.xlsx,,B4,T3,c,"['c', 'm']","['Clue', 'Monopoly']","[-0.15, 0.5]","[0.15, 0.5]",1,1,,,,,,,,,0,1,1,1,0,1,1,5,,,,,,,,,,,,,,,,,,,,,,,,,,,,,,,,,,,,,,,,,,,,,,,,,,,,,,,1674.0907602020015,None,1674.0907602020015,None,1674.0907602020015,None,m,0,0.8846635020017857,1675.6247562499993,None,1675.6247562499993,None,1675.6247562499993,None,1676.5754559870002,None,1676.5754559870002,None,1676.5754559870002,None,1676.5754559870002,None,,,,,,,,,,,,,,,,,,,,,,,,,,,,,,,,,,,,,,,,,,,,001,140,2020_Feb_18_1520,spring_faces,3.1.5,59.96475535417739,
condition files/Stage1_2.xlsx,,B1,T1,c,"['c', 'm']","['Clue', 'Monopoly']","[-0.15, 0.5]","[0.15, 0.5]",1,1,,,,,,,,,0,1,1,1,0,2,2,0,,,,,,,,,,,,,,,,,,,,,,,,,,,,,,,,,,,,,,,,,,,,,,,,,,,,,,,1678.5405908739995,None,1678.5405908739995,None,1678.5405908739995,None,m,0,1.4117432200000621,1680.073730248001,None,1680.073730248001,None,1680.073730248001,None,1681.5409242620008,None,1681.5409242620008,None,1681.5409242620008,None,1681.5409242620008,None,,,,,,,,,,,,,,,,,,,,,,,,,,,,,,,,,,,,,,,,,,,,001,140,2020_Feb_18_1520,spring_faces,3.1.5,59.96475535417739,
condition files/Stage1_2.xlsx,,T4,B4,m,"['c', 'm']","['Clue', 'Monopoly']","[-0.15, 0.5]","[0.15, 0.5]",1,1,,,,,,,,,0,1,1,1,0,3,3,7,,,,,,,,,,,,,,,,,,,,,,,,,,,,,,,,,,,,,,,,,,,,,,,,,,,,,,,1683.5073666470016,None,1683.5073666470016,None,1683.5073666470016,None,c,0,1.787445559999469,1685.0420626990017,None,1685.0420626990017,None,1685.0420626990017,None,1686.8919030430006,None,1686.8919030430006,None,1686.8919030430006,None,1686.8919030430006,None,,,,,,,,,,,,,,,,,,,,,,,,,,,,,,,,,,,,,,,,,,,,001,140,2020_Feb_18_1520,spring_faces,3.1.5,59.96475535417739,
condition files/Stage1_2.xlsx,,T2,B1,c,"['c', 'm']","['Clue', 'Monopoly']","[-0.15, 0.5]","[0.15, 0.5]",1,1,,,,,,,,,0,1,1,1,0,4,4,1,,,,,,,,,,,,,,,,,,,,,,,,,,,,,,,,,,,,,,,,,,,,,,,,,,,,,,,1688.8572481709998,None,1688.8572481709998,None,1688.8572481709998,None,m,0,3.700553481001407,1690.392959916,None,1690.392959916,None,1690.392959916,None,1694.17451696,None,1694.17451696,None,1694.17451696,None,1694.17451696,None,,,,,,,,,,,,,,,,,,,,,,,,,,,,,,,,,,,,,,,,,,,,001,140,2020_Feb_18_1520,spring_faces,3.1.5,59.96475535417739,
condition files/Stage1_2.xlsx,,T3,B3,c,"['c', 'm']","['Clue', 'Monopoly']","[-0.15, 0.5]","[0.15, 0.5]",1,1,,,,,,,,,0,1,1,1,0,5,5,4,,,,,,,,,,,,,,,,,,,,,,,,,,,,,,,,,,,,,,,,,,,,,,,,,,,,,,,1696.1236921750024,None,1696.1236921750024,None,1696.1236921750024,None,c,1,4.372104074001982,1697.6574006940027,None,1697.6574006940027,None,1697.6574006940027,None,1702.0906670100012,None,1702.0906670100012,None,1702.0906670100012,None,1702.0906670100012,None,,,,,,,,,,,,,,,,,,,,,,,,,,,,,,,,,,,,,,,,,,,,001,140,2020_Feb_18_1520,spring_faces,3.1.5,59.96475535417739,
condition files/Stage1_2.xlsx,,B3,T4,m,"['c', 'm']","['Clue', 'Monopoly']","[-0.15, 0.5]","[0.15, 0.5]",1,1,,,,,,,,,0,1,1,1,0,6,6,6,,,,,,,,,,,,,,,,,,,,,,,,,,,,,,,,,,,,,,,,,,,,,,,,,,,,,,,1704.056813047002,None,1704.056813047002,None,1704.056813047002,None,m,1,3.5086182779996307,1705.5929290150016,None,1705.5929290150016,None,1705.5929290150016,None,1709.1742617870004,None,1709.1742617870004,None,1709.1742617870004,None,1709.1742617870004,None,,,,,,,,,,,,,,,,,,,,,,,,,,,,,,,,,,,,,,,,,,,,001,140,2020_Feb_18_1520,spring_faces,3.1.5,59.96475535417739,
condition files/Stage1_2.xlsx,,T1,B2,m,"['c', 'm']","['Clue', 'Monopoly']","[-0.15, 0.5]","[0.15, 0.5]",1,1,,,,,,,,,0,1,1,1,0,7,7,2,,,,,,,,,,,,,,,,,,,,,,,,,,,,,,,,,,,,,,,,,,,,,,,,,,,,,,,1711.1239224310011,None,1711.1239224310011,None,1711.1239224310011,None,m,1,0.9881031980003172,1712.6573725730013,None,1712.6573725730013,None,1712.6573725730013,None,1713.7077344249992,None,1713.7077344249992,None,1713.7077344249992,None,1713.7077344249992,None,,,,,,,,,,,,,,,,,,,,,,,,,,,,,,,,,,,,,,,,,,,,001,140,2020_Feb_18_1520,spring_faces,3.1.5,59.96475535417739,
condition files/Stage1_1.xlsx,,B4,T4,m,"['c', 'm']","['Clue', 'Monopoly']","[-0.15, 0.5]","[0.15, 0.5]",1,1,,,,,,,,,0,2,2,2,0,0,0,7,,,,,,,,,,,,,,,,,,,,,,,,,,,,,,,,,,,,,,,,,,,,,,,,,,,,,,,1715.6910570740001,None,1715.6910570740001,None,1715.6910570740001,None,m,1,0.8531990159972338,1717.2243211999994,None,1717.2243211999994,None,1717.2243211999994,None,1718.140860112002,None,1718.140860112002,None,1718.140860112002,None,1718.140860112002,None,,,,,,,,,,,,,,,,,,,,,,,,,,,,,,,,,,,,,,,,,,,,001,140,2020_Feb_18_1520,spring_faces,3.1.5,59.96475535417739,
condition files/Stage1_1.xlsx,,B1,T2,c,"['c', 'm']","['Clue', 'Monopoly']","[-0.15, 0.5]","[0.15, 0.5]",1,1,,,,,,,,,0,2,2,2,0,1,1,1,,,,,,,,,,,,,,,,,,,,,,,,,,,,,,,,,,,,,,,,,,,,,,,,,,,,,,,1720.106903977001,None,1720.106903977001,None,1720.106903977001,None,m,0,1.1412778699996124,1721.6402712929994,None,1721.6402712929994,None,1721.6402712929994,None,1722.8422719539994,None,1722.8422719539994,None,1722.8422719539994,None,1722.8422719539994,None,,,,,,,,,,,,,,,,,,,,,,,,,,,,,,,,,,,,,,,,,,,,001,140,2020_Feb_18_1520,spring_faces,3.1.5,59.96475535417739,
condition files/Stage1_1.xlsx,,B3,T3,c,"['c', 'm']","['Clue', 'Monopoly']","[-0.15, 0.5]","[0.15, 0.5]",1,1,,,,,,,,,0,2,2,2,0,2,2,4,,,,,,,,,,,,,,,,,,,,,,,,,,,,,,,,,,,,,,,,,,,,,,,,,,,,,,,1724.807169169002,None,1724.807169169002,None,1724.807169169002,None,c,1,2.374592426000163,1726.3427979709995,None,1726.3427979709995,None,1726.3427979709995,None,1728.7747130530006,None,1728.7747130530006,None,1728.7747130530006,None,1728.7747130530006,None,,,,,,,,,,,,,,,,,,,,,,,,,,,,,,,,,,,,,,,,,,,,001,140,2020_Feb_18_1520,spring_faces,3.1.5,59.96475535417739,
condition files/Stage1_1.xlsx,,T2,B2,m,"['c', 'm']","['Clue', 'Monopoly']","[-0.15, 0.5]","[0.15, 0.5]",1,1,,,,,,,,,0,2,2,2,0,3,3,3,,,,,,,,,,,,,,,,,,,,,,,,,,,,,,,,,,,,,,,,,,,,,,,,,,,,,,,1730.7404310460006,None,1730.7404310460006,None,1730.7404310460006,None,c,0,1.9320701270007703,1732.273400012,None,1732.273400012,None,1732.273400012,None,1734.2735663120002,None,1734.2735663120002,None,1734.2735663120002,None,1734.2735663120002,None,,,,,,,,,,,,,,,,,,,,,,,,,,,,,,,,,,,,,,,,,,,,001,140,2020_Feb_18_1520,spring_faces,3.1.5,59.96475535417739,
condition files/Stage1_1.xlsx,,T4,B3,m,"['c', 'm']","['Clue', 'Monopoly']","[-0.15, 0.5]","[0.15, 0.5]",1,1,,,,,,,,,0,2,2,2,0,4,4,6,,,,,,,,,,,,,,,,,,,,,,,,,,,,,,,,,,,,,,,,,,,,,,,,,,,,,,,1736.2241889760007,None,1736.2241889760007,None,1736.2241889760007,None,m,1,0.7678419170006237,1737.7576311350022,None,1737.7576311350022,None,1737.7576311350022,None,1738.5907543800022,None,1738.5907543800022,None,1738.5907543800022,None,1738.5907543800022,None,,,,,,,,,,,,,,,,,,,,,,,,,,,,,,,,,,,,,,,,,,,,001,140,2020_Feb_18_1520,spring_faces,3.1.5,59.96475535417739,
condition files/Stage1_1.xlsx,,T1,B1,c,"['c', 'm']","['Clue', 'Monopoly']","[-0.15, 0.5]","[0.15, 0.5]",1,1,,,,,,,,,0,2,2,2,0,5,5,0,,,,,,,,,,,,,,,,,,,,,,,,,,,,,,,,,,,,,,,,,,,,,,,,,,,,,,,1740.5576985810003,None,1740.5576985810003,None,1740.5576985810003,None,m,0,0.6738814710006409,1742.1076358870014,None,1742.1076358870014,None,1742.1076358870014,None,1742.8576761479999,None,1742.8576761479999,None,1742.8576761479999,None,1742.8576761479999,None,,,,,,,,,,,,,,,,,,,,,,,,,,,,,,,,,,,,,,,,,,,,001,140,2020_Feb_18_1520,spring_faces,3.1.5,59.96475535417739,
condition files/Stage1_1.xlsx,,B2,T1,m,"['c', 'm']","['Clue', 'Monopoly']","[-0.15, 0.5]","[0.15, 0.5]",1,1,,,,,,,,,0,2,2,2,0,6,6,2,,,,,,,,,,,,,,,,,,,,,,,,,,,,,,,,,,,,,,,,,,,,,,,,,,,,,,,1744.8076075050012,None,1744.8076075050012,None,1744.8076075050012,None,m,1,1.9924956479990215,1746.341012615001,None,1746.341012615001,None,1746.341012615001,None,1748.4074391030008,None,1748.4074391030008,None,1748.4074391030008,None,1748.4074391030008,None,,,,,,,,,,,,,,,,,,,,,,,,,,,,,,,,,,,,,,,,,,,,001,140,2020_Feb_18_1520,spring_faces,3.1.5,59.96475535417739,
condition files/Stage1_1.xlsx,,T3,B4,c,"['c', 'm']","['Clue', 'Monopoly']","[-0.15, 0.5]","[0.15, 0.5]",1,1,,,,,,,,,0,2,2,2,0,7,7,5,,,,,,,,,,,,,,,,,,,,,,,,,,,,,,,,,,,,,,,,,,,,,,,,,,,,,,,1750.3568812550002,None,1750.3568812550002,None,1750.3568812550002,None,m,0,1.4972683880005206,1751.8922406980018,None,1751.8922406980018,None,1751.8922406980018,None,1753.4430667670022,None,1753.4430667670022,None,1753.4430667670022,None,1753.4430667670022,None,,,,,,,,,,,,,,,,,,,,,,,,,,,,,,,,,,,,,,,,,,,,001,140,2020_Feb_18_1520,spring_faces,3.1.5,59.96475535417739,
condition files/Stage1_2.xlsx,,B2,T2,m,"['c', 'm']","['Clue', 'Monopoly']","[-0.15, 0.5]","[0.15, 0.5]",1,1,,,,,,,,,0,3,3,3,0,0,0,3,,,,,,,,,,,,,,,,,,,,,,,,,,,,,,,,,,,,,,,,,,,,,,,,,,,,,,,1755.4245346570024,None,1755.4245346570024,None,1755.4245346570024,None,m,1,1.120042504000594,1756.9574750249994,None,1756.9574750249994,None,1756.9574750249994,None,1758.1576057320017,None,1758.1576057320017,None,1758.1576057320017,None,1758.1576057320017,None,,,,,,,,,,,,,,,,,,,,,,,,,,,,,,,,,,,,,,,,,,,,001,140,2020_Feb_18_1520,spring_faces,3.1.5,59.96475535417739,
condition files/Stage1_2.xlsx,,B1,T1,c,"['c', 'm']","['Clue', 'Monopoly']","[-0.15, 0.5]","[0.15, 0.5]",1,1,,,,,,,,,0,3,3,3,0,1,1,0,,,,,,,,,,,,,,,,,,,,,,,,,,,,,,,,,,,,,,,,,,,,,,,,,,,,,,,1760.1068468320009,None,1760.1068468320009,None,1760.1068468320009,None,m,0,1.123842474000412,1761.6576835939995,None,1761.6576835939995,None,1761.6576835939995,None,1762.8572192890024,None,1762.8572192890024,None,1762.8572192890024,None,1762.8572192890024,None,,,,,,,,,,,,,,,,,,,,,,,,,,,,,,,,,,,,,,,,,,,,001,140,2020_Feb_18_1520,spring_faces,3.1.5,59.96475535417739,
condition files/Stage1_2.xlsx,,T3,B3,c,"['c', 'm']","['Clue', 'Monopoly']","[-0.15, 0.5]","[0.15, 0.5]",1,1,,,,,,,,,0,3,3,3,0,2,2,4,,,,,,,,,,,,,,,,,,,,,,,,,,,,,,,,,,,,,,,,,,,,,,,,,,,,,,,1764.807322599001,None,1764.807322599001,None,1764.807322599001,None,m,0,2.6965026750003744,1766.3569707140014,None,1766.3569707140014,None,1766.3569707140014,None,1769.1078195850023,None,1769.1078195850023,None,1769.1078195850023,None,1769.1078195850023,None,,,,,,,,,,,,,,,,,,,,,,,,,,,,,,,,,,,,,,,,,,,,001,140,2020_Feb_18_1520,spring_faces,3.1.5,59.96475535417739,
condition files/Stage1_2.xlsx,,T1,B2,m,"['c', 'm']","['Clue', 'Monopoly']","[-0.15, 0.5]","[0.15, 0.5]",1,1,,,,,,,,,0,3,3,3,0,3,3,2,,,,,,,,,,,,,,,,,,,,,,,,,,,,,,,,,,,,,,,,,,,,,,,,,,,,,,,1771.0740945340003,None,1771.0740945340003,None,1771.0740945340003,None,m,1,2.0137621630019567,1772.6077116199995,None,1772.6077116199995,None,1772.6077116199995,None,1774.690949095002,None,1774.690949095002,None,1774.690949095002,None,1774.690949095002,None,,,,,,,,,,,,,,,,,,,,,,,,,,,,,,,,,,,,,,,,,,,,001,140,2020_Feb_18_1520,spring_faces,3.1.5,59.96475535417739,
condition files/Stage1_2.xlsx,,T2,B1,c,"['c', 'm']","['Clue', 'Monopoly']","[-0.15, 0.5]","[0.15, 0.5]",1,1,,,,,,,,,0,3,3,3,0,4,4,1,,,,,,,,,,,,,,,,,,,,,,,,,,,,,,,,,,,,,,,,,,,,,,,,,,,,,,,1776.6403727979996,None,1776.6403727979996,None,1776.6403727979996,None,m,0,2.1596175140002742,1778.1738916950017,None,1778.1738916950017,None,1778.1738916950017,None,1780.3934581979993,None,1780.3934581979993,None,1780.3934581979993,None,1780.3934581979993,None,,,,,,,,,,,,,,,,,,,,,,,,,,,,,,,,,,,,,,,,,,,,001,140,2020_Feb_18_1520,spring_faces,3.1.5,59.96475535417739,
condition files/Stage1_2.xlsx,,B3,T4,m,"['c', 'm']","['Clue', 'Monopoly']","[-0.15, 0.5]","[0.15, 0.5]",1,1,,,,,,,,,0,3,3,3,0,5,5,6,,,,,,,,,,,,,,,,,,,,,,,,,,,,,,,,,,,,,,,,,,,,,,,,,,,,,,,1782.3569022180018,None,1782.3569022180018,None,1782.3569022180018,None,m,1,1.6103331259982951,1783.8911356850003,None,1783.8911356850003,None,1783.8911356850003,None,1785.5742639689997,None,1785.5742639689997,None,1785.5742639689997,None,1785.5742639689997,None,,,,,,,,,,,,,,,,,,,,,,,,,,,,,,,,,,,,,,,,,,,,001,140,2020_Feb_18_1520,spring_faces,3.1.5,59.96475535417739,
condition files/Stage1_2.xlsx,,T4,B4,m,"['c', 'm']","['Clue', 'Monopoly']","[-0.15, 0.5]","[0.15, 0.5]",1,1,,,,,,,,,0,3,3,3,0,6,6,7,,,,,,,,,,,,,,,,,,,,,,,,,,,,,,,,,,,,,,,,,,,,,,,,,,,,,,,1787.5238113449996,None,1787.5238113449996,None,1787.5238113449996,None,c,0,0.8764718570018886,1789.0570147590006,None,1789.0570147590006,None,1789.0570147590006,None,1789.9909707350016,None,1789.9909707350016,None,1789.9909707350016,None,1789.9909707350016,None,,,,,,,,,,,,,,,,,,,,,,,,,,,,,,,,,,,,,,,,,,,,001,140,2020_Feb_18_1520,spring_faces,3.1.5,59.96475535417739,
condition files/Stage1_2.xlsx,,B4,T3,c,"['c', 'm']","['Clue', 'Monopoly']","[-0.15, 0.5]","[0.15, 0.5]",1,1,,,,,,,,,0,3,3,3,0,7,7,5,,,,,,,,,,,,,,,,,,,,,,,,,,,,,,,,,,,,,,,,,,,,,,,,,,,,,,,1791.9574087660003,None,1791.9574087660003,None,1791.9574087660003,None,m,0,1.3219200769999588,1793.5075569510009,None,1793.5075569510009,None,1793.5075569510009,None,1794.9075994150007,None,1794.9075994150007,None,1794.9075994150007,None,1794.9075994150007,None,,,,,,,,,,,,,,,,,,,,,,,,,,,,,,,,,,,,,,,,,,,,001,140,2020_Feb_18_1520,spring_faces,3.1.5,59.96475535417739,
condition files/Stage1_1.xlsx,,T1,B1,c,"['c', 'm']","['Clue', 'Monopoly']","[-0.15, 0.5]","[0.15, 0.5]",1,1,,,,,,,,,0,4,4,4,0,0,0,0,,,,,,,,,,,,,,,,,,,,,,,,,,,,,,,,,,,,,,,,,,,,,,,,,,,,,,,1796.8742819630024,None,1796.8742819630024,None,1796.8742819630024,None,m,0,2.020658323999669,1798.4088741310006,None,1798.4088741310006,None,1798.4088741310006,None,1800.4910104940027,None,1800.4910104940027,None,1800.4910104940027,None,1800.4910104940027,None,,,,,,,,,,,,,,,,,,,,,,,,,,,,,,,,,,,,,,,,,,,,001,140,2020_Feb_18_1520,spring_faces,3.1.5,59.96475535417739,
condition files/Stage1_1.xlsx,,T2,B2,m,"['c', 'm']","['Clue', 'Monopoly']","[-0.15, 0.5]","[0.15, 0.5]",1,1,,,,,,,,,0,4,4,4,0,1,1,3,,,,,,,,,,,,,,,,,,,,,,,,,,,,,,,,,,,,,,,,,,,,,,,,,,,,,,,1802.4573645910023,None,1802.4573645910023,None,1802.4573645910023,None,m,1,0.9020395020015712,1804.0074750880012,None,1804.0074750880012,None,1804.0074750880012,None,1804.9748571689997,None,1804.9748571689997,None,1804.9748571689997,None,1804.9748571689997,None,,,,,,,,,,,,,,,,,,,,,,,,,,,,,,,,,,,,,,,,,,,,001,140,2020_Feb_18_1520,spring_faces,3.1.5,59.96475535417739,
condition files/Stage1_1.xlsx,,B3,T3,c,"['c', 'm']","['Clue', 'Monopoly']","[-0.15, 0.5]","[0.15, 0.5]",1,1,,,,,,,,,0,4,4,4,0,2,2,4,,,,,,,,,,,,,,,,,,,,,,,,,,,,,,,,,,,,,,,,,,,,,,,,,,,,,,,1806.940833484001,None,1806.940833484001,None,1806.940833484001,None,c,1,3.32998953599963,1808.4754813470026,None,1808.4754813470026,None,1808.4754813470026,None,1811.8740088600025,None,1811.8740088600025,None,1811.8740088600025,None,1811.8740088600025,None,,,,,,,,,,,,,,,,,,,,,,,,,,,,,,,,,,,,,,,,,,,,001,140,2020_Feb_18_1520,spring_faces,3.1.5,59.96475535417739,
condition files/Stage1_1.xlsx,,B4,T4,m,"['c', 'm']","['Clue', 'Monopoly']","[-0.15, 0.5]","[0.15, 0.5]",1,1,,,,,,,,,0,4,4,4,0,3,3,7,,,,,,,,,,,,,,,,,,,,,,,,,,,,,,,,,,,,,,,,,,,,,,,,,,,,,,,1813.8235692870003,None,1813.8235692870003,None,1813.8235692870003,None,m,1,1.1991360590000113,1815.3583751510014,None,1815.3583751510014,None,1815.3583751510014,None,1816.610045505,None,1816.610045505,None,1816.610045505,None,1816.610045505,None,,,,,,,,,,,,,,,,,,,,,,,,,,,,,,,,,,,,,,,,,,,,001,140,2020_Feb_18_1520,spring_faces,3.1.5,59.96475535417739,
condition files/Stage1_1.xlsx,,B2,T1,m,"['c', 'm']","['Clue', 'Monopoly']","[-0.15, 0.5]","[0.15, 0.5]",1,1,,,,,,,,,0,4,4,4,0,4,4,2,,,,,,,,,,,,,,,,,,,,,,,,,,,,,,,,,,,,,,,,,,,,,,,,,,,,,,,1818.573618773,None,1818.573618773,None,1818.573618773,None,m,1,1.073039468999923,1820.108492069001,None,1820.108492069001,None,1820.108492069001,None,1821.2407941290003,None,1821.2407941290003,None,1821.2407941290003,None,1821.2407941290003,None,,,,,,,,,,,,,,,,,,,,,,,,,,,,,,,,,,,,,,,,,,,,001,140,2020_Feb_18_1520,spring_faces,3.1.5,59.96475535417739,
condition files/Stage1_1.xlsx,,B1,T2,c,"['c', 'm']","['Clue', 'Monopoly']","[-0.15, 0.5]","[0.15, 0.5]",1,1,,,,,,,,,0,4,4,4,0,5,5,1,,,,,,,,,,,,,,,,,,,,,,,,,,,,,,,,,,,,,,,,,,,,,,,,,,,,,,,1823.2070205359996,None,1823.2070205359996,None,1823.2070205359996,None,m,0,1.0945311469986336,1824.7428800160014,None,1824.7428800160014,None,1824.7428800160014,None,1825.8929305050005,None,1825.8929305050005,None,1825.8929305050005,None,1825.8929305050005,None,,,,,,,,,,,,,,,,,,,,,,,,,,,,,,,,,,,,,,,,,,,,001,140,2020_Feb_18_1520,spring_faces,3.1.5,59.96475535417739,
condition files/Stage1_1.xlsx,,T3,B4,c,"['c', 'm']","['Clue', 'Monopoly']","[-0.15, 0.5]","[0.15, 0.5]",1,1,,,,,,,,,0,4,4,4,0,6,6,5,,,,,,,,,,,,,,,,,,,,,,,,,,,,,,,,,,,,,,,,,,,,,,,,,,,,,,,1827.8576386259992,None,1827.8576386259992,None,1827.8576386259992,None,c,1,1.8709648180010845,1829.3905461230024,None,1829.3905461230024,None,1829.3905461230024,None,1831.3245736610006,None,1831.3245736610006,None,1831.3245736610006,None,1831.3245736610006,None,,,,,,,,,,,,,,,,,,,,,,,,,,,,,,,,,,,,,,,,,,,,001,140,2020_Feb_18_1520,spring_faces,3.1.5,59.96475535417739,
condition files/Stage1_1.xlsx,,T4,B3,m,"['c', 'm']","['Clue', 'Monopoly']","[-0.15, 0.5]","[0.15, 0.5]",1,1,,,,,,,,,0,4,4,4,0,7,7,6,,,,,,,,,,,,,,,,,,,,,,,,,,,,,,,,,,,,,,,,,,,,,,,,,,,,,,,1833.2908105080023,None,1833.2908105080023,None,1833.2908105080023,None,m,1,1.4133629759999167,1834.8241635209997,None,1834.8241635209997,None,1834.8241635209997,None,1836.2919715940006,None,1836.2919715940006,None,1836.2919715940006,None,1836.2919715940006,None,,,,,,,,,,,,,,,,,,,,,,,,,,,,,,,,,,,,,,,,,,,,001,140,2020_Feb_18_1520,spring_faces,3.1.5,59.96475535417739,
condition files/Stage1_2.xlsx,,T4,B4,m,"['c', 'm']","['Clue', 'Monopoly']","[-0.15, 0.5]","[0.15, 0.5]",1,1,,,,,,,,,0,5,5,5,0,0,0,7,,,,,,,,,,,,,,,,,,,,,,,,,,,,,,,,,,,,,,,,,,,,,,,,,,,,,,,1838.2743870049999,None,1838.2743870049999,None,1838.2743870049999,None,m,1,1.0375193600011698,1839.8079795000012,None,1839.8079795000012,None,1839.8079795000012,None,1840.907479630001,None,1840.907479630001,None,1840.907479630001,None,1840.907479630001,None,,,,,,,,,,,,,,,,,,,,,,,,,,,,,,,,,,,,,,,,,,,,001,140,2020_Feb_18_1520,spring_faces,3.1.5,59.96475535417739,
condition files/Stage1_2.xlsx,,B3,T4,m,"['c', 'm']","['Clue', 'Monopoly']","[-0.15, 0.5]","[0.15, 0.5]",1,1,,,,,,,,,0,5,5,5,0,1,1,6,,,,,,,,,,,,,,,,,,,,,,,,,,,,,,,,,,,,,,,,,,,,,,,,,,,,,,,1842.8737251160019,None,1842.8737251160019,None,1842.8737251160019,None,m,1,1.3339976429997478,1844.4074412539994,None,1844.4074412539994,None,1844.4074412539994,None,1845.8077203850007,None,1845.8077203850007,None,1845.8077203850007,None,1845.8077203850007,None,,,,,,,,,,,,,,,,,,,,,,,,,,,,,,,,,,,,,,,,,,,,001,140,2020_Feb_18_1520,spring_faces,3.1.5,59.96475535417739,
condition files/Stage1_2.xlsx,,T3,B3,c,"['c', 'm']","['Clue', 'Monopoly']","[-0.15, 0.5]","[0.15, 0.5]",1,1,,,,,,,,,0,5,5,5,0,2,2,4,,,,,,,,,,,,,,,,,,,,,,,,,,,,,,,,,,,,,,,,,,,,,,,,,,,,,,,1847.773764362002,None,1847.773764362002,None,1847.773764362002,None,c,1,1.089263771998958,1849.324229574002,None,1849.324229574002,None,1849.324229574002,None,1850.473832181,None,1850.473832181,None,1850.473832181,None,1850.473832181,None,,,,,,,,,,,,,,,,,,,,,,,,,,,,,,,,,,,,,,,,,,,,001,140,2020_Feb_18_1520,spring_faces,3.1.5,59.96475535417739,
condition files/Stage1_2.xlsx,,T2,B1,c,"['c', 'm']","['Clue', 'Monopoly']","[-0.15, 0.5]","[0.15, 0.5]",1,1,,,,,,,,,0,5,5,5,0,3,3,1,,,,,,,,,,,,,,,,,,,,,,,,,,,,,,,,,,,,,,,,,,,,,,,,,,,,,,,1852.4402670460004,None,1852.4402670460004,None,1852.4402670460004,None,c,1,0.5682448459992884,1853.9732002430028,None,1853.9732002430028,None,1853.9732002430028,None,1854.6066823040019,None,1854.6066823040019,None,1854.6066823040019,None,1854.6066823040019,None,,,,,,,,,,,,,,,,,,,,,,,,,,,,,,,,,,,,,,,,,,,,001,140,2020_Feb_18_1520,spring_faces,3.1.5,59.96475535417739,
condition files/Stage1_2.xlsx,,T1,B2,m,"['c', 'm']","['Clue', 'Monopoly']","[-0.15, 0.5]","[0.15, 0.5]",1,1,,,,,,,,,0,5,5,5,0,4,4,2,,,,,,,,,,,,,,,,,,,,,,,,,,,,,,,,,,,,,,,,,,,,,,,,,,,,,,,1856.5741056049992,None,1856.5741056049992,None,1856.5741056049992,None,m,1,0.7691774320010154,1858.1242908720014,None,1858.1242908720014,None,1858.1242908720014,None,1858.9742382210025,None,1858.9742382210025,None,1858.9742382210025,None,1858.9742382210025,None,,,,,,,,,,,,,,,,,,,,,,,,,,,,,,,,,,,,,,,,,,,,001,140,2020_Feb_18_1520,spring_faces,3.1.5,59.96475535417739,
condition files/Stage1_2.xlsx,,B1,T1,c,"['c', 'm']","['Clue', 'Monopoly']","[-0.15, 0.5]","[0.15, 0.5]",1,1,,,,,,,,,0,5,5,5,0,5,5,0,,,,,,,,,,,,,,,,,,,,,,,,,,,,,,,,,,,,,,,,,,,,,,,,,,,,,,,1860.9237460719996,None,1860.9237460719996,None,1860.9237460719996,None,m,0,1.379635794000933,1862.4738264900006,None,1862.4738264900006,None,1862.4738264900006,None,1863.9238435789994,None,1863.9238435789994,None,1863.9238435789994,None,1863.9238435789994,None,,,,,,,,,,,,,,,,,,,,,,,,,,,,,,,,,,,,,,,,,,,,001,140,2020_Feb_18_1520,spring_faces,3.1.5,59.96475535417739,
condition files/Stage1_2.xlsx,,B4,T3,c,"['c', 'm']","['Clue', 'Monopoly']","[-0.15, 0.5]","[0.15, 0.5]",1,1,,,,,,,,,0,5,5,5,0,6,6,5,,,,,,,,,,,,,,,,,,,,,,,,,,,,,,,,,,,,,,,,,,,,,,,,,,,,,,,1865.8740237310012,None,1865.8740237310012,None,1865.8740237310012,None,c,1,1.0691833029995905,1867.4242834680008,None,1867.4242834680008,None,1867.4242834680008,None,1868.557765114001,None,1868.557765114001,None,1868.557765114001,None,1868.557765114001,None,,,,,,,,,,,,,,,,,,,,,,,,,,,,,,,,,,,,,,,,,,,,001,140,2020_Feb_18_1520,spring_faces,3.1.5,59.96475535417739,
condition files/Stage1_2.xlsx,,B2,T2,m,"['c', 'm']","['Clue', 'Monopoly']","[-0.15, 0.5]","[0.15, 0.5]",1,1,,,,,,,,,0,5,5,5,0,7,7,3,,,,,,,,,,,,,,,,,,,,,,,,,,,,,,,,,,,,,,,,,,,,,,,,,,,,,,,1870.5245589600017,None,1870.5245589600017,None,1870.5245589600017,None,c,0,0.563284219999332,1872.074113777002,None,1872.074113777002,None,1872.074113777002,None,1872.7071440559994,None,1872.7071440559994,None,1872.7071440559994,None,1872.7071440559994,None,,,,,,,,,,,,,,,,,,,,,,,,,,,,,,,,,,,,,,,,,,,,001,140,2020_Feb_18_1520,spring_faces,3.1.5,59.96475535417739,
condition files/Stage1_1.xlsx,,T2,B2,m,"['c', 'm']","['Clue', 'Monopoly']","[-0.15, 0.5]","[0.15, 0.5]",1,1,,,,,,,,,0,6,6,6,0,0,0,3,,,,,,,,,,,,,,,,,,,,,,,,,,,,,,,,,,,,,,,,,,,,,,,,,,,,,,,1874.673628646,None,1874.673628646,None,1874.673628646,None,c,0,1.5977286209999875,1876.2077824379994,None,1876.2077824379994,None,1876.2077824379994,None,1877.857277739,None,1877.857277739,None,1877.857277739,None,1877.857277739,None,,,,,,,,,,,,,,,,,,,,,,,,,,,,,,,,,,,,,,,,,,,,001,140,2020_Feb_18_1520,spring_faces,3.1.5,59.96475535417739,
condition files/Stage1_1.xlsx,,B4,T4,m,"['c', 'm']","['Clue', 'Monopoly']","[-0.15, 0.5]","[0.15, 0.5]",1,1,,,,,,,,,0,6,6,6,0,1,1,7,,,,,,,,,,,,,,,,,,,,,,,,,,,,,,,,,,,,,,,,,,,,,,,,,,,,,,,1879.8239433630006,None,1879.8239433630006,None,1879.8239433630006,None,m,1,1.2317583689982712,1881.3577353809997,None,1881.3577353809997,None,1881.3577353809997,None,1882.6406153259995,None,1882.6406153259995,None,1882.6406153259995,None,1882.6406153259995,None,,,,,,,,,,,,,,,,,,,,,,,,,,,,,,,,,,,,,,,,,,,,001,140,2020_Feb_18_1520,spring_faces,3.1.5,59.96475535417739,
condition files/Stage1_1.xlsx,,T1,B1,c,"['c', 'm']","['Clue', 'Monopoly']","[-0.15, 0.5]","[0.15, 0.5]",1,1,,,,,,,,,0,6,6,6,0,2,2,0,,,,,,,,,,,,,,,,,,,,,,,,,,,,,,,,,,,,,,,,,,,,,,,,,,,,,,,1884.6071056850014,None,1884.6071056850014,None,1884.6071056850014,None,c,1,1.1356957550015068,1886.1578010550002,None,1886.1578010550002,None,1886.1578010550002,None,1887.360239411002,None,1887.360239411002,None,1887.360239411002,None,1887.360239411002,None,,,,,,,,,,,,,,,,,,,,,,,,,,,,,,,,,,,,,,,,,,,,001,140,2020_Feb_18_1520,spring_faces,3.1.5,59.96475535417739,
condition files/Stage1_1.xlsx,,B2,T1,m,"['c', 'm']","['Clue', 'Monopoly']","[-0.15, 0.5]","[0.15, 0.5]",1,1,,,,,,,,,0,6,6,6,0,3,3,2,,,,,,,,,,,,,,,,,,,,,,,,,,,,,,,,,,,,,,,,,,,,,,,,,,,,,,,1889.3239222410011,None,1889.3239222410011,None,1889.3239222410011,None,c,0,1.4592566930004978,1890.8742476730004,None,1890.8742476730004,None,1890.8742476730004,None,1892.4072660890015,None,1892.4072660890015,None,1892.4072660890015,None,1892.4072660890015,None,,,,,,,,,,,,,,,,,,,,,,,,,,,,,,,,,,,,,,,,,,,,001,140,2020_Feb_18_1520,spring_faces,3.1.5,59.96475535417739,
condition files/Stage1_1.xlsx,,B3,T3,c,"['c', 'm']","['Clue', 'Monopoly']","[-0.15, 0.5]","[0.15, 0.5]",1,1,,,,,,,,,0,6,6,6,0,4,4,4,,,,,,,,,,,,,,,,,,,,,,,,,,,,,,,,,,,,,,,,,,,,,,,,,,,,,,,1894.3570356430027,None,1894.3570356430027,None,1894.3570356430027,None,c,1,1.8347675719996914,1895.8907442900017,None,1895.8907442900017,None,1895.8907442900017,None,1897.7905433220003,None,1897.7905433220003,None,1897.7905433220003,None,1897.7905433220003,None,,,,,,,,,,,,,,,,,,,,,,,,,,,,,,,,,,,,,,,,,,,,001,140,2020_Feb_18_1520,spring_faces,3.1.5,59.96475535417739,
condition files/Stage1_1.xlsx,,B1,T2,c,"['c', 'm']","['Clue', 'Monopoly']","[-0.15, 0.5]","[0.15, 0.5]",1,1,,,,,,,,,0,6,6,6,0,5,5,1,,,,,,,,,,,,,,,,,,,,,,,,,,,,,,,,,,,,,,,,,,,,,,,,,,,,,,,1899.757297649001,None,1899.757297649001,None,1899.757297649001,None,m,0,3.2177806700019573,1901.307662026,None,1901.307662026,None,1901.307662026,None,1904.5904848210012,None,1904.5904848210012,None,1904.5904848210012,None,1904.5904848210012,None,,,,,,,,,,,,,,,,,,,,,,,,,,,,,,,,,,,,,,,,,,,,001,140,2020_Feb_18_1520,spring_faces,3.1.5,59.96475535417739,
condition files/Stage1_1.xlsx,,T4,B3,m,"['c', 'm']","['Clue', 'Monopoly']","[-0.15, 0.5]","[0.15, 0.5]",1,1,,,,,,,,,0,6,6,6,0,6,6,6,,,,,,,,,,,,,,,,,,,,,,,,,,,,,,,,,,,,,,,,,,,,,,,,,,,,,,,1906.5577201030028,None,1906.5577201030028,None,1906.5577201030028,None,m,1,1.1540695559997403,1908.1074270950012,None,1908.1074270950012,None,1908.1074270950012,None,1909.3243303599993,None,1909.3243303599993,None,1909.3243303599993,None,1909.3243303599993,None,,,,,,,,,,,,,,,,,,,,,,,,,,,,,,,,,,,,,,,,,,,,001,140,2020_Feb_18_1520,spring_faces,3.1.5,59.96475535417739,
condition files/Stage1_1.xlsx,,T3,B4,c,"['c', 'm']","['Clue', 'Monopoly']","[-0.15, 0.5]","[0.15, 0.5]",1,1,,,,,,,,,0,6,6,6,0,7,7,5,,,,,,,,,,,,,,,,,,,,,,,,,,,,,,,,,,,,,,,,,,,,,,,,,,,,,,,1911.2902762129997,None,1911.2902762129997,None,1911.2902762129997,None,c,1,1.205044746002386,1912.824463836001,None,1912.824463836001,None,1912.824463836001,None,1914.1075853190014,None,1914.1075853190014,None,1914.1075853190014,None,1914.1075853190014,None,,,,,,,,,,,,,,,,,,,,,,,,,,,,,,,,,,,,,,,,,,,,001,140,2020_Feb_18_1520,spring_faces,3.1.5,59.96475535417739,
condition files/Stage1_2.xlsx,,T1,B2,m,"['c', 'm']","['Clue', 'Monopoly']","[-0.15, 0.5]","[0.15, 0.5]",1,1,,,,,,,,,0,7,7,7,0,0,0,2,,,,,,,,,,,,,,,,,,,,,,,,,,,,,,,,,,,,,,,,,,,,,,,,,,,,,,,1916.0742823149994,None,1916.0742823149994,None,1916.0742823149994,None,c,0,1.012473801998567,1917.6090095030013,None,1917.6090095030013,None,1917.6090095030013,None,1918.6908130200027,None,1918.6908130200027,None,1918.6908130200027,None,1918.6908130200027,None,,,,,,,,,,,,,,,,,,,,,,,,,,,,,,,,,,,,,,,,,,,,001,140,2020_Feb_18_1520,spring_faces,3.1.5,59.96475535417739,
condition files/Stage1_2.xlsx,,T2,B1,c,"['c', 'm']","['Clue', 'Monopoly']","[-0.15, 0.5]","[0.15, 0.5]",1,1,,,,,,,,,0,7,7,7,0,1,1,1,,,,,,,,,,,,,,,,,,,,,,,,,,,,,,,,,,,,,,,,,,,,,,,,,,,,,,,1920.6405892360017,None,1920.6405892360017,None,1920.6405892360017,None,c,1,2.0784610289992997,1922.1909644190018,None,1922.1909644190018,None,1922.1909644190018,None,1924.3266860130025,None,1924.3266860130025,None,1924.3266860130025,None,1924.3266860130025,None,,,,,,,,,,,,,,,,,,,,,,,,,,,,,,,,,,,,,,,,,,,,001,140,2020_Feb_18_1520,spring_faces,3.1.5,59.96475535417739,
condition files/Stage1_2.xlsx,,T4,B4,m,"['c', 'm']","['Clue', 'Monopoly']","[-0.15, 0.5]","[0.15, 0.5]",1,1,,,,,,,,,0,7,7,7,0,2,2,7,,,,,,,,,,,,,,,,,,,,,,,,,,,,,,,,,,,,,,,,,,,,,,,,,,,,,,,1926.290508719001,None,1926.290508719001,None,1926.290508719001,None,m,1,2.0456191480006964,1927.8238192440003,None,1927.8238192440003,None,1927.8238192440003,None,1929.9268175150028,None,1929.9268175150028,None,1929.9268175150028,None,1929.9268175150028,None,,,,,,,,,,,,,,,,,,,,,,,,,,,,,,,,,,,,,,,,,,,,001,140,2020_Feb_18_1520,spring_faces,3.1.5,59.96475535417739,
condition files/Stage1_2.xlsx,,B4,T3,c,"['c', 'm']","['Clue', 'Monopoly']","[-0.15, 0.5]","[0.15, 0.5]",1,1,,,,,,,,,0,7,7,7,0,3,3,5,,,,,,,,,,,,,,,,,,,,,,,,,,,,,,,,,,,,,,,,,,,,,,,,,,,,,,,1931.8905654200025,None,1931.8905654200025,None,1931.8905654200025,None,c,1,1.8682900790008716,1933.441199877001,None,1933.441199877001,None,1933.441199877001,None,1935.3913687940003,None,1935.3913687940003,None,1935.3913687940003,None,1935.3913687940003,None,,,,,,,,,,,,,,,,,,,,,,,,,,,,,,,,,,,,,,,,,,,,001,140,2020_Feb_18_1520,spring_faces,3.1.5,59.96475535417739,
condition files/Stage1_2.xlsx,,B2,T2,m,"['c', 'm']","['Clue', 'Monopoly']","[-0.15, 0.5]","[0.15, 0.5]",1,1,,,,,,,,,0,7,7,7,0,4,4,3,,,,,,,,,,,,,,,,,,,,,,,,,,,,,,,,,,,,,,,,,,,,,,,,,,,,,,,1937.3405984750025,None,1937.3405984750025,None,1937.3405984750025,None,m,1,2.626110258999688,1938.8753465830014,None,1938.8753465830014,None,1938.8753465830014,None,1941.5739410179995,None,1941.5739410179995,None,1941.5739410179995,None,1941.5739410179995,None,,,,,,,,,,,,,,,,,,,,,,,,,,,,,,,,,,,,,,,,,,,,001,140,2020_Feb_18_1520,spring_faces,3.1.5,59.96475535417739,
condition files/Stage1_2.xlsx,,B3,T4,m,"['c', 'm']","['Clue', 'Monopoly']","[-0.15, 0.5]","[0.15, 0.5]",1,1,,,,,,,,,0,7,7,7,0,5,5,6,,,,,,,,,,,,,,,,,,,,,,,,,,,,,,,,,,,,,,,,,,,,,,,,,,,,,,,1943.5239266169992,None,1943.5239266169992,None,1943.5239266169992,None,m,1,3.963898110003356,1945.0575593390022,None,1945.0575593390022,None,1945.0575593390022,None,1949.0746527379997,None,1949.0746527379997,None,1949.0746527379997,None,1949.0746527379997,None,,,,,,,,,,,,,,,,,,,,,,,,,,,,,,,,,,,,,,,,,,,,001,140,2020_Feb_18_1520,spring_faces,3.1.5,59.96475535417739,
condition files/Stage1_2.xlsx,,B1,T1,c,"['c', 'm']","['Clue', 'Monopoly']","[-0.15, 0.5]","[0.15, 0.5]",1,1,,,,,,,,,0,7,7,7,0,6,6,0,,,,,,,,,,,,,,,,,,,,,,,,,,,,,,,,,,,,,,,,,,,,,,,,,,,,,,,1951.040625646001,None,1951.040625646001,None,1951.040625646001,None,c,1,1.70933463700203,1952.5761378230018,None,1952.5761378230018,None,1952.5761378230018,None,1954.3576132870003,None,1954.3576132870003,None,1954.3576132870003,None,1954.3576132870003,None,,,,,,,,,,,,,,,,,,,,,,,,,,,,,,,,,,,,,,,,,,,,001,140,2020_Feb_18_1520,spring_faces,3.1.5,59.96475535417739,
condition files/Stage1_2.xlsx,,T3,B3,c,"['c', 'm']","['Clue', 'Monopoly']","[-0.15, 0.5]","[0.15, 0.5]",1,1,,,,,,,,,0,7,7,7,0,7,7,4,,,,,,,,,,,,,,,,,,,,,,,,,,,,,,,,,,,,,,,,,,,,,,,,,,,,,,,1956.3074013120022,None,1956.3074013120022,None,1956.3074013120022,None,c,1,1.4994784779992187,1957.8419833120024,None,1957.8419833120024,None,1957.8419833120024,None,1959.4075790160023,None,1959.4075790160023,None,1959.4075790160023,None,1959.4075790160023,None,,,,,,,,,,,,,,,,,,,,,,,,,,,,,,,,,,,,,,,,,,,,001,140,2020_Feb_18_1520,spring_faces,3.1.5,59.96475535417739,
condition files/Stage1_1.xlsx,,B3,T3,c,"['c', 'm']","['Clue', 'Monopoly']","[-0.15, 0.5]","[0.15, 0.5]",1,1,,,,,,,,,0,8,8,8,0,0,0,4,,,,,,,,,,,,,,,,,,,,,,,,,,,,,,,,,,,,,,,,,,,,,,,,,,,,,,,1961.3909336020006,None,1961.3909336020006,None,1961.3909336020006,None,c,1,1.8407470239981194,1962.9407952140027,None,1962.9407952140027,None,1962.9407952140027,None,1964.8411792020015,None,1964.8411792020015,None,1964.8411792020015,None,1964.8411792020015,None,,,,,,,,,,,,,,,,,,,,,,,,,,,,,,,,,,,,,,,,,,,,001,140,2020_Feb_18_1520,spring_faces,3.1.5,59.96475535417739,
condition files/Stage1_1.xlsx,,T3,B4,c,"['c', 'm']","['Clue', 'Monopoly']","[-0.15, 0.5]","[0.15, 0.5]",1,1,,,,,,,,,0,8,8,8,0,1,1,5,,,,,,,,,,,,,,,,,,,,,,,,,,,,,,,,,,,,,,,,,,,,,,,,,,,,,,,1966.8072982449994,None,1966.8072982449994,None,1966.8072982449994,None,c,1,4.61651015499956,1968.3409348400019,None,1968.3409348400019,None,1968.3409348400019,None,1973.0079516490005,None,1973.0079516490005,None,1973.0079516490005,None,1973.0079516490005,None,,,,,,,,,,,,,,,,,,,,,,,,,,,,,,,,,,,,,,,,,,,,001,140,2020_Feb_18_1520,spring_faces,3.1.5,59.96475535417739,
condition files/Stage1_1.xlsx,,T1,B1,c,"['c', 'm']","['Clue', 'Monopoly']","[-0.15, 0.5]","[0.15, 0.5]",1,1,,,,,,,,,0,8,8,8,0,2,2,0,,,,,,,,,,,,,,,,,,,,,,,,,,,,,,,,,,,,,,,,,,,,,,,,,,,,,,,1974.973522958,None,1974.973522958,None,1974.973522958,None,c,1,1.0559272020000208,1976.5096228610018,None,1976.5096228610018,None,1976.5096228610018,None,1977.6237769710024,None,1977.6237769710024,None,1977.6237769710024,None,1977.6237769710024,None,,,,,,,,,,,,,,,,,,,,,,,,,,,,,,,,,,,,,,,,,,,,001,140,2020_Feb_18_1520,spring_faces,3.1.5,59.96475535417739,
condition files/Stage1_1.xlsx,,T2,B2,m,"['c', 'm']","['Clue', 'Monopoly']","[-0.15, 0.5]","[0.15, 0.5]",1,1,,,,,,,,,0,8,8,8,0,3,3,3,,,,,,,,,,,,,,,,,,,,,,,,,,,,,,,,,,,,,,,,,,,,,,,,,,,,,,,1979.5906921290007,None,1979.5906921290007,None,1979.5906921290007,None,m,1,2.7920255370008817,1981.125525063002,None,1981.125525063002,None,1981.125525063002,None,1983.9910379050016,None,1983.9910379050016,None,1983.9910379050016,None,1983.9910379050016,None,,,,,,,,,,,,,,,,,,,,,,,,,,,,,,,,,,,,,,,,,,,,001,140,2020_Feb_18_1520,spring_faces,3.1.5,59.96475535417739,
condition files/Stage1_1.xlsx,,T4,B3,m,"['c', 'm']","['Clue', 'Monopoly']","[-0.15, 0.5]","[0.15, 0.5]",1,1,,,,,,,,,0,8,8,8,0,4,4,6,,,,,,,,,,,,,,,,,,,,,,,,,,,,,,,,,,,,,,,,,,,,,,,,,,,,,,,1985.940359829001,None,1985.940359829001,None,1985.940359829001,None,c,0,0.8435531880022609,1987.473989645001,None,1987.473989645001,None,1987.473989645001,None,1988.3742742370014,None,1988.3742742370014,None,1988.3742742370014,None,1988.3742742370014,None,,,,,,,,,,,,,,,,,,,,,,,,,,,,,,,,,,,,,,,,,,,,001,140,2020_Feb_18_1520,spring_faces,3.1.5,59.96475535417739,
condition files/Stage1_1.xlsx,,B1,T2,c,"['c', 'm']","['Clue', 'Monopoly']","[-0.15, 0.5]","[0.15, 0.5]",1,1,,,,,,,,,0,8,8,8,0,5,5,1,,,,,,,,,,,,,,,,,,,,,,,,,,,,,,,,,,,,,,,,,,,,,,,,,,,,,,,1990.3401666200007,None,1990.3401666200007,None,1990.3401666200007,None,c,1,0.6978001429997676,1991.875706439001,None,1991.875706439001,None,1991.875706439001,None,1992.626749670002,None,1992.626749670002,None,1992.626749670002,None,1992.626749670002,None,,,,,,,,,,,,,,,,,,,,,,,,,,,,,,,,,,,,,,,,,,,,001,140,2020_Feb_18_1520,spring_faces,3.1.5,59.96475535417739,
condition files/Stage1_1.xlsx,,B2,T1,m,"['c', 'm']","['Clue', 'Monopoly']","[-0.15, 0.5]","[0.15, 0.5]",1,1,,,,,,,,,0,8,8,8,0,6,6,2,,,,,,,,,,,,,,,,,,,,,,,,,,,,,,,,,,,,,,,,,,,,,,,,,,,,,,,1994.590216839002,None,1994.590216839002,None,1994.590216839002,None,m,1,1.0724134920019424,1996.1251038560004,None,1996.1251038560004,None,1996.1251038560004,None,1997.258233736,None,1997.258233736,None,1997.258233736,None,1997.258233736,None,,,,,,,,,,,,,,,,,,,,,,,,,,,,,,,,,,,,,,,,,,,,001,140,2020_Feb_18_1520,spring_faces,3.1.5,59.96475535417739,
condition files/Stage1_1.xlsx,,B4,T4,m,"['c', 'm']","['Clue', 'Monopoly']","[-0.15, 0.5]","[0.15, 0.5]",1,1,,,,,,,,,0,8,8,8,0,7,7,7,,,,,,,,,,,,,,,,,,,,,,,,,,,,,,,,,,,,,,,,,,,,,,,,,,,,,,,1999.2241774760005,None,1999.2241774760005,None,1999.2241774760005,None,m,1,3.1601524530015013,2000.7573994490012,None,2000.7573994490012,None,2000.7573994490012,None,2003.9736776950012,None,2003.9736776950012,None,2003.9736776950012,None,2003.9736776950012,None,,,,,,,,,,,,,,,,,,,,,,,,,,,,,,,,,,,,,,,,,,,,001,140,2020_Feb_18_1520,spring_faces,3.1.5,59.96475535417739,
condition files/Stage1_2.xlsx,,T2,B1,c,"['c', 'm']","['Clue', 'Monopoly']","[-0.15, 0.5]","[0.15, 0.5]",1,1,,,,,,,,,0,9,9,9,0,0,0,1,,,,,,,,,,,,,,,,,,,,,,,,,,,,,,,,,,,,,,,,,,,,,,,,,,,,,,,2005.9568290060015,None,2005.9568290060015,None,2005.9568290060015,None,c,1,1.1290044449997367,2007.4924656959993,None,2007.4924656959993,None,2007.4924656959993,None,2008.6757605670027,None,2008.6757605670027,None,2008.6757605670027,None,2008.6757605670027,None,,,,,,,,,,,,,,,,,,,,,,,,,,,,,,,,,,,,,,,,,,,,001,140,2020_Feb_18_1520,spring_faces,3.1.5,59.96475535417739,
condition files/Stage1_2.xlsx,,T1,B2,m,"['c', 'm']","['Clue', 'Monopoly']","[-0.15, 0.5]","[0.15, 0.5]",1,1,,,,,,,,,0,9,9,9,0,1,1,2,,,,,,,,,,,,,,,,,,,,,,,,,,,,,,,,,,,,,,,,,,,,,,,,,,,,,,,2010.6406459110003,None,2010.6406459110003,None,2010.6406459110003,None,m,1,1.6786041660016053,2012.1908821780016,None,2012.1908821780016,None,2012.1908821780016,None,2013.9408746480003,None,2013.9408746480003,None,2013.9408746480003,None,2013.9408746480003,None,,,,,,,,,,,,,,,,,,,,,,,,,,,,,,,,,,,,,,,,,,,,001,140,2020_Feb_18_1520,spring_faces,3.1.5,59.96475535417739,
condition files/Stage1_2.xlsx,,B1,T1,c,"['c', 'm']","['Clue', 'Monopoly']","[-0.15, 0.5]","[0.15, 0.5]",1,1,,,,,,,,,0,9,9,9,0,2,2,0,,,,,,,,,,,,,,,,,,,,,,,,,,,,,,,,,,,,,,,,,,,,,,,,,,,,,,,2015.8906024000025,None,2015.8906024000025,None,2015.8906024000025,None,c,1,0.5883580689987866,2017.4411440790027,None,2017.4411440790027,None,2017.4411440790027,None,2018.0922984300014,None,2018.0922984300014,None,2018.0922984300014,None,2018.0922984300014,None,,,,,,,,,,,,,,,,,,,,,,,,,,,,,,,,,,,,,,,,,,,,001,140,2020_Feb_18_1520,spring_faces,3.1.5,59.96475535417739,
condition files/Stage1_2.xlsx,,B2,T2,m,"['c', 'm']","['Clue', 'Monopoly']","[-0.15, 0.5]","[0.15, 0.5]",1,1,,,,,,,,,0,9,9,9,0,3,3,3,,,,,,,,,,,,,,,,,,,,,,,,,,,,,,,,,,,,,,,,,,,,,,,,,,,,,,,2020.056963764,None,2020.056963764,None,2020.056963764,None,m,1,1.2059351440002501,2021.6075637649992,None,2021.6075637649992,None,2021.6075637649992,None,2022.8760812159999,None,2022.8760812159999,None,2022.8760812159999,None,2022.8760812159999,None,,,,,,,,,,,,,,,,,,,,,,,,,,,,,,,,,,,,,,,,,,,,001,140,2020_Feb_18_1520,spring_faces,3.1.5,59.96475535417739,
condition files/Stage1_2.xlsx,,T3,B3,c,"['c', 'm']","['Clue', 'Monopoly']","[-0.15, 0.5]","[0.15, 0.5]",1,1,,,,,,,,,0,9,9,9,0,4,4,4,,,,,,,,,,,,,,,,,,,,,,,,,,,,,,,,,,,,,,,,,,,,,,,,,,,,,,,2024.8407563330002,None,2024.8407563330002,None,2024.8407563330002,None,m,0,1.2210263939996366,2026.3765236220024,None,2026.3765236220024,None,2026.3765236220024,None,2027.6584781010024,None,2027.6584781010024,None,2027.6584781010024,None,2027.6584781010024,None,,,,,,,,,,,,,,,,,,,,,,,,,,,,,,,,,,,,,,,,,,,,001,140,2020_Feb_18_1520,spring_faces,3.1.5,59.96475535417739,
condition files/Stage1_2.xlsx,,B4,T3,c,"['c', 'm']","['Clue', 'Monopoly']","[-0.15, 0.5]","[0.15, 0.5]",1,1,,,,,,,,,0,9,9,9,0,5,5,5,,,,,,,,,,,,,,,,,,,,,,,,,,,,,,,,,,,,,,,,,,,,,,,,,,,,,,,2029.6239561200018,None,2029.6239561200018,None,2029.6239561200018,None,m,0,1.686382511001284,2031.1591272789992,None,2031.1591272789992,None,2031.1591272789992,None,2032.9079639930023,None,2032.9079639930023,None,2032.9079639930023,None,2032.9079639930023,None,,,,,,,,,,,,,,,,,,,,,,,,,,,,,,,,,,,,,,,,,,,,001,140,2020_Feb_18_1520,spring_faces,3.1.5,59.96475535417739,
condition files/Stage1_2.xlsx,,T4,B4,m,"['c', 'm']","['Clue', 'Monopoly']","[-0.15, 0.5]","[0.15, 0.5]",1,1,,,,,,,,,0,9,9,9,0,6,6,7,,,,,,,,,,,,,,,,,,,,,,,,,,,,,,,,,,,,,,,,,,,,,,,,,,,,,,,2034.8738912780027,None,2034.8738912780027,None,2034.8738912780027,None,m,1,1.2064193949991022,2036.4070917999998,None,2036.4070917999998,None,2036.4070917999998,None,2037.6749222060025,None,2037.6749222060025,None,2037.6749222060025,None,2037.6749222060025,None,,,,,,,,,,,,,,,,,,,,,,,,,,,,,,,,,,,,,,,,,,,,001,140,2020_Feb_18_1520,spring_faces,3.1.5,59.96475535417739,
condition files/Stage1_2.xlsx,,B3,T4,m,"['c', 'm']","['Clue', 'Monopoly']","[-0.15, 0.5]","[0.15, 0.5]",1,1,,,,,,,,,0,9,9,9,0,7,7,6,,,,,,,,,,,,,,,,,,,,,,,,,,,,,,,,,,,,,,,,,,,,,,,,,,,,,,,2039.640016362002,None,2039.640016362002,None,2039.640016362002,None,c,0,1.908768522000173,2041.1767060300008,None,2041.1767060300008,None,2041.1767060300008,None,2043.140874015,None,2043.140874015,None,2043.140874015,None,2043.140874015,None,,,,,,,,,,,,,,,,,,,,,,,,,,,,,,,,,,,,,,,,,,,,001,140,2020_Feb_18_1520,spring_faces,3.1.5,59.96475535417739,
condition files/Stage1_1.xlsx,,B3,T3,c,"['c', 'm']","['Clue', 'Monopoly']","[-0.15, 0.5]","[0.15, 0.5]",1,1,,,,,,,,,0,10,10,10,0,0,0,4,,,,,,,,,,,,,,,,,,,,,,,,,,,,,,,,,,,,,,,,,,,,,,,,,,,,,,,2045.1243082360015,None,2045.1243082360015,None,2045.1243082360015,None,c,1,2.267477269997471,2046.6579742579997,None,2046.6579742579997,None,2046.6579742579997,None,2048.993356316001,None,2048.993356316001,None,2048.993356316001,None,2048.993356316001,None,,,,,,,,,,,,,,,,,,,,,,,,,,,,,,,,,,,,,,,,,,,,001,140,2020_Feb_18_1520,spring_faces,3.1.5,59.96475535417739,
condition files/Stage1_1.xlsx,,T4,B3,m,"['c', 'm']","['Clue', 'Monopoly']","[-0.15, 0.5]","[0.15, 0.5]",1,1,,,,,,,,,0,10,10,10,0,1,1,6,,,,,,,,,,,,,,,,,,,,,,,,,,,,,,,,,,,,,,,,,,,,,,,,,,,,,,,2050.9572891179996,None,2050.9572891179996,None,2050.9572891179996,None,c,0,1.9376180079998448,2052.507865652002,None,2052.507865652002,None,2052.507865652002,None,2054.5088641010007,None,2054.5088641010007,None,2054.5088641010007,None,2054.5088641010007,None,,,,,,,,,,,,,,,,,,,,,,,,,,,,,,,,,,,,,,,,,,,,001,140,2020_Feb_18_1520,spring_faces,3.1.5,59.96475535417739,
condition files/Stage1_1.xlsx,,T3,B4,c,"['c', 'm']","['Clue', 'Monopoly']","[-0.15, 0.5]","[0.15, 0.5]",1,1,,,,,,,,,0,10,10,10,0,2,2,5,,,,,,,,,,,,,,,,,,,,,,,,,,,,,,,,,,,,,,,,,,,,,,,,,,,,,,,2056.4739333889993,None,2056.4739333889993,None,2056.4739333889993,None,m,0,0.8371987879982044,2058.0242921909994,None,2058.0242921909994,None,2058.0242921909994,None,2058.9257127510027,None,2058.9257127510027,None,2058.9257127510027,None,2058.9257127510027,None,,,,,,,,,,,,,,,,,,,,,,,,,,,,,,,,,,,,,,,,,,,,001,140,2020_Feb_18_1520,spring_faces,3.1.5,59.96475535417739,
condition files/Stage1_1.xlsx,,B1,T2,c,"['c', 'm']","['Clue', 'Monopoly']","[-0.15, 0.5]","[0.15, 0.5]",1,1,,,,,,,,,0,10,10,10,0,3,3,1,,,,,,,,,,,,,,,,,,,,,,,,,,,,,,,,,,,,,,,,,,,,,,,,,,,,,,,2060.8907543259993,None,2060.8907543259993,None,2060.8907543259993,None,c,1,0.8669181879995449,2062.4265739069997,None,2062.4265739069997,None,2062.4265739069997,None,2063.356813055001,None,2063.356813055001,None,2063.356813055001,None,2063.356813055001,None,,,,,,,,,,,,,,,,,,,,,,,,,,,,,,,,,,,,,,,,,,,,001,140,2020_Feb_18_1520,spring_faces,3.1.5,59.96475535417739,
condition files/Stage1_1.xlsx,,T2,B2,m,"['c', 'm']","['Clue', 'Monopoly']","[-0.15, 0.5]","[0.15, 0.5]",1,1,,,,,,,,,0,10,10,10,0,4,4,3,,,,,,,,,,,,,,,,,,,,,,,,,,,,,,,,,,,,,,,,,,,,,,,,,,,,,,,2065.324365581,None,2065.324365581,None,2065.324365581,None,m,1,1.011453392002295,2066.8580422330015,None,2066.8580422330015,None,2066.8580422330015,None,2067.9410496460005,None,2067.9410496460005,None,2067.9410496460005,None,2067.9410496460005,None,,,,,,,,,,,,,,,,,,,,,,,,,,,,,,,,,,,,,,,,,,,,001,140,2020_Feb_18_1520,spring_faces,3.1.5,59.96475535417739,
condition files/Stage1_1.xlsx,,B2,T1,m,"['c', 'm']","['Clue', 'Monopoly']","[-0.15, 0.5]","[0.15, 0.5]",1,1,,,,,,,,,0,10,10,10,0,5,5,2,,,,,,,,,,,,,,,,,,,,,,,,,,,,,,,,,,,,,,,,,,,,,,,,,,,,,,,2069.891126816001,None,2069.891126816001,None,2069.891126816001,None,c,0,3.8680113429982157,2071.4255125220006,None,2071.4255125220006,None,2071.4255125220006,None,2075.3572230490026,None,2075.3572230490026,None,2075.3572230490026,None,2075.3572230490026,None,,,,,,,,,,,,,,,,,,,,,,,,,,,,,,,,,,,,,,,,,,,,001,140,2020_Feb_18_1520,spring_faces,3.1.5,59.96475535417739,
condition files/Stage1_1.xlsx,,T1,B1,c,"['c', 'm']","['Clue', 'Monopoly']","[-0.15, 0.5]","[0.15, 0.5]",1,1,,,,,,,,,0,10,10,10,0,6,6,0,,,,,,,,,,,,,,,,,,,,,,,,,,,,,,,,,,,,,,,,,,,,,,,,,,,,,,,2077.323854573002,None,2077.323854573002,None,2077.323854573002,None,c,1,1.0423546269994404,2078.8591385770014,None,2078.8591385770014,None,2078.8591385770014,None,2079.9742060009994,None,2079.9742060009994,None,2079.9742060009994,None,2079.9742060009994,None,,,,,,,,,,,,,,,,,,,,,,,,,,,,,,,,,,,,,,,,,,,,001,140,2020_Feb_18_1520,spring_faces,3.1.5,59.96475535417739,
condition files/Stage1_1.xlsx,,B4,T4,m,"['c', 'm']","['Clue', 'Monopoly']","[-0.15, 0.5]","[0.15, 0.5]",1,1,,,,,,,,,0,10,10,10,0,7,7,7,,,,,,,,,,,,,,,,,,,,,,,,,,,,,,,,,,,,,,,,,,,,,,,,,,,,,,,2081.9242280960025,None,2081.9242280960025,None,2081.9242280960025,None,m,1,1.41993143199943,2083.4575689129997,None,2083.4575689129997,None,2083.4575689129997,None,2084.9419222960023,None,2084.9419222960023,None,2084.9419222960023,None,2084.9419222960023,None,,,,,,,,,,,,,,,,,,,,,,,,,,,,,,,,,,,,,,,,,,,,001,140,2020_Feb_18_1520,spring_faces,3.1.5,59.96475535417739,
condition files/Stage1_2.xlsx,,T2,B1,c,"['c', 'm']","['Clue', 'Monopoly']","[-0.15, 0.5]","[0.15, 0.5]",1,1,,,,,,,,,0,11,11,11,0,0,0,1,,,,,,,,,,,,,,,,,,,,,,,,,,,,,,,,,,,,,,,,,,,,,,,,,,,,,,,2086.9242919330027,None,2086.9242919330027,None,2086.9242919330027,None,c,1,0.8993407070011017,2088.4741761130026,None,2088.4741761130026,None,2088.4741761130026,None,2089.4264421059997,None,2089.4264421059997,None,2089.4264421059997,None,2089.4264421059997,None,,,,,,,,,,,,,,,,,,,,,,,,,,,,,,,,,,,,,,,,,,,,001,140,2020_Feb_18_1520,spring_faces,3.1.5,59.96475535417739,
condition files/Stage1_2.xlsx,,T1,B2,m,"['c', 'm']","['Clue', 'Monopoly']","[-0.15, 0.5]","[0.15, 0.5]",1,1,,,,,,,,,0,11,11,11,0,1,1,2,,,,,,,,,,,,,,,,,,,,,,,,,,,,,,,,,,,,,,,,,,,,,,,,,,,,,,,2091.3902376350015,None,2091.3902376350015,None,2091.3902376350015,None,m,1,2.5451334770004905,2092.924325412001,None,2092.924325412001,None,2092.924325412001,None,2095.5257686930017,None,2095.5257686930017,None,2095.5257686930017,None,2095.5257686930017,None,,,,,,,,,,,,,,,,,,,,,,,,,,,,,,,,,,,,,,,,,,,,001,140,2020_Feb_18_1520,spring_faces,3.1.5,59.96475535417739,
condition files/Stage1_2.xlsx,,B4,T3,c,"['c', 'm']","['Clue', 'Monopoly']","[-0.15, 0.5]","[0.15, 0.5]",1,1,,,,,,,,,0,11,11,11,0,2,2,5,,,,,,,,,,,,,,,,,,,,,,,,,,,,,,,,,,,,,,,,,,,,,,,,,,,,,,,2097.490477866002,None,2097.490477866002,None,2097.490477866002,None,m,0,1.8679472879994137,2099.025571506001,None,2099.025571506001,None,2099.025571506001,None,2100.9568149920015,None,2100.9568149920015,None,2100.9568149920015,None,2100.9568149920015,None,,,,,,,,,,,,,,,,,,,,,,,,,,,,,,,,,,,,,,,,,,,,001,140,2020_Feb_18_1520,spring_faces,3.1.5,59.96475535417739,
condition files/Stage1_2.xlsx,,B1,T1,c,"['c', 'm']","['Clue', 'Monopoly']","[-0.15, 0.5]","[0.15, 0.5]",1,1,,,,,,,,,0,11,11,11,0,3,3,0,,,,,,,,,,,,,,,,,,,,,,,,,,,,,,,,,,,,,,,,,,,,,,,,,,,,,,,2102.923646989002,None,2102.923646989002,None,2102.923646989002,None,c,1,0.7391273510002065,2104.474354463,None,2104.474354463,None,2104.474354463,None,2105.2744664780002,None,2105.2744664780002,None,2105.2744664780002,None,2105.2744664780002,None,,,,,,,,,,,,,,,,,,,,,,,,,,,,,,,,,,,,,,,,,,,,001,140,2020_Feb_18_1520,spring_faces,3.1.5,59.96475535417739,
condition files/Stage1_2.xlsx,,T4,B4,m,"['c', 'm']","['Clue', 'Monopoly']","[-0.15, 0.5]","[0.15, 0.5]",1,1,,,,,,,,,0,11,11,11,0,4,4,7,,,,,,,,,,,,,,,,,,,,,,,,,,,,,,,,,,,,,,,,,,,,,,,,,,,,,,,2107.2406907290024,None,2107.2406907290024,None,2107.2406907290024,None,c,0,3.878547175001586,2108.7909393610025,None,2108.7909393610025,None,2108.7909393610025,None,2112.7261803910005,None,2112.7261803910005,None,2112.7261803910005,None,2112.7261803910005,None,,,,,,,,,,,,,,,,,,,,,,,,,,,,,,,,,,,,,,,,,,,,001,140,2020_Feb_18_1520,spring_faces,3.1.5,59.96475535417739,
condition files/Stage1_2.xlsx,,B3,T4,m,"['c', 'm']","['Clue', 'Monopoly']","[-0.15, 0.5]","[0.15, 0.5]",1,1,,,,,,,,,0,11,11,11,0,5,5,6,,,,,,,,,,,,,,,,,,,,,,,,,,,,,,,,,,,,,,,,,,,,,,,,,,,,,,,2114.6902080690015,None,2114.6902080690015,None,2114.6902080690015,None,m,1,1.9813604690025386,2116.2241352180026,None,2116.2241352180026,None,2116.2241352180026,None,2118.257526798003,None,2118.257526798003,None,2118.257526798003,None,2118.257526798003,None,,,,,,,,,,,,,,,,,,,,,,,,,,,,,,,,,,,,,,,,,,,,001,140,2020_Feb_18_1520,spring_faces,3.1.5,59.96475535417739,
condition files/Stage1_2.xlsx,,B2,T2,m,"['c', 'm']","['Clue', 'Monopoly']","[-0.15, 0.5]","[0.15, 0.5]",1,1,,,,,,,,,0,11,11,11,0,6,6,3,,,,,,,,,,,,,,,,,,,,,,,,,,,,,,,,,,,,,,,,,,,,,,,,,,,,,,,2120.2242571450006,None,2120.2242571450006,None,2120.2242571450006,None,m,1,1.8558864629994787,2121.757632386001,None,2121.757632386001,None,2121.757632386001,None,2123.6740332480003,None,2123.6740332480003,None,2123.6740332480003,None,2123.6740332480003,None,,,,,,,,,,,,,,,,,,,,,,,,,,,,,,,,,,,,,,,,,,,,001,140,2020_Feb_18_1520,spring_faces,3.1.5,59.96475535417739,
condition files/Stage1_2.xlsx,,T3,B3,c,"['c', 'm']","['Clue', 'Monopoly']","[-0.15, 0.5]","[0.15, 0.5]",1,1,,,,,,,,,0,11,11,11,0,7,7,4,,,,,,,,,,,,,,,,,,,,,,,,,,,,,,,,,,,,,,,,,,,,,,,,,,,,,,,2125.6404117500024,None,2125.6404117500024,None,2125.6404117500024,None,c,1,1.303621667000698,2127.1738825950015,None,2127.1738825950015,None,2127.1738825950015,None,2128.541033231002,None,2128.541033231002,None,2128.541033231002,None,2128.541033231002,None,,,,,,,,,,,,,,,,,,,,,,,,,,,,,,,,,,,,,,,,,,,,001,140,2020_Feb_18_1520,spring_faces,3.1.5,59.96475535417739,
,,,,,,,,,,,,,,,,,,,,,,,,,,,,,,,,,,,,,,,,,,,,,,,,,,,,,,,,,,,,,,,,,,,,,,,,,,,,,,,,,,,,,,,,,,,,,,,,,,,,,,,,,,,,,,,,2130.523751331002,None,space,20.473124090000056,2135.524423147999,None,,,,,,,,,,,,,,,,,,,,,,,,,,,,,,001,140,2020_Feb_18_1520,spring_faces,3.1.5,59.96475535417739,
condition files/Stage2_1.xlsx,,B2,T2,r,"['s', 'r']","['Stratego', 'Risk']","[-0.15, 0.5]","[0.15, 0.5]",1,1,,,,,,,,,,,,,,,,,0,0,0,0,0,0,0,3,,,,,,,,,,,,,,,,,,,,,,,,,,,,,,,,,,,,,,,,,,,,,,,2156.0574000800007,None,2156.0574000800007,None,2156.0574000800007,None,s,0,12.759203866000462,2157.5903559649996,None,2157.5903559649996,None,2157.5903559649996,None,2170.4093393270014,None,2170.4093393270014,None,2170.4093393270014,None,2170.4093393270014,None,,,,,,,,,,,,,,,2135.524423147999,None,,,,,,,,,,,,,,,,,,,,,,,,,,,,001,140,2020_Feb_18_1520,spring_faces,3.1.5,59.96475535417739,
condition files/Stage2_1.xlsx,,B4,T4,r,"['s', 'r']","['Stratego', 'Risk']","[-0.15, 0.5]","[0.15, 0.5]",1,1,,,,,,,,,,,,,,,,,0,0,0,0,0,1,1,5,,,,,,,,,,,,,,,,,,,,,,,,,,,,,,,,,,,,,,,,,,,,,,,2172.3744255439997,None,2172.3744255439997,None,2172.3744255439997,None,s,0,4.249591439998767,2173.907838813,None,2173.907838813,None,2173.907838813,None,2178.2076136210017,None,2178.2076136210017,None,2178.2076136210017,None,2178.2076136210017,None,,,,,,,,,,,,,,,,,,,,,,,,,,,,,,,,,,,,,,,,,,,,001,140,2020_Feb_18_1520,spring_faces,3.1.5,59.96475535417739,
condition files/Stage2_1.xlsx,,T1,B1,s,"['s', 'r']","['Stratego', 'Risk']","[-0.15, 0.5]","[0.15, 0.5]",1,1,,,,,,,,,,,,,,,,,0,0,0,0,0,2,2,2,,,,,,,,,,,,,,,,,,,,,,,,,,,,,,,,,,,,,,,,,,,,,,,2180.174205268002,None,2180.174205268002,None,2180.174205268002,None,s,1,1.457495321999886,2181.7240437470027,None,2181.7240437470027,None,2181.7240437470027,None,2183.2575383300027,None,2183.2575383300027,None,2183.2575383300027,None,2183.2575383300027,None,,,,,,,,,,,,,,,,,,,,,,,,,,,,,,,,,,,,,,,,,,,,001,140,2020_Feb_18_1520,spring_faces,3.1.5,59.96475535417739,
condition files/Stage2_1.xlsx,,B6,T6,r,"['s', 'r']","['Stratego', 'Risk']","[-0.15, 0.5]","[0.15, 0.5]",1,1,,,,,,,,,,,,,,,,,0,0,0,0,0,3,3,1,,,,,,,,,,,,,,,,,,,,,,,,,,,,,,,,,,,,,,,,,,,,,,,2185.2073033080014,None,2185.2073033080014,None,2185.2073033080014,None,s,0,2.729010050999932,2186.740476381001,None,2186.740476381001,None,2186.740476381001,None,2189.525887292002,None,2189.525887292002,None,2189.525887292002,None,2189.525887292002,None,,,,,,,,,,,,,,,,,,,,,,,,,,,,,,,,,,,,,,,,,,,,001,140,2020_Feb_18_1520,spring_faces,3.1.5,59.96475535417739,
condition files/Stage2_1.xlsx,,T3,B3,s,"['s', 'r']","['Stratego', 'Risk']","[-0.15, 0.5]","[0.15, 0.5]",1,1,,,,,,,,,,,,,,,,,0,0,0,0,0,4,4,4,,,,,,,,,,,,,,,,,,,,,,,,,,,,,,,,,,,,,,,,,,,,,,,2191.49041011,None,2191.49041011,None,2191.49041011,None,r,0,1.4676537810009904,2193.025855095002,None,2193.025855095002,None,2193.025855095002,None,2194.574139501001,None,2194.574139501001,None,2194.574139501001,None,2194.574139501001,None,,,,,,,,,,,,,,,,,,,,,,,,,,,,,,,,,,,,,,,,,,,,001,140,2020_Feb_18_1520,spring_faces,3.1.5,59.96475535417739,
condition files/Stage2_1.xlsx,,T5,B5,s,"['s', 'r']","['Stratego', 'Risk']","[-0.15, 0.5]","[0.15, 0.5]",1,1,,,,,,,,,,,,,,,,,0,0,0,0,0,5,5,0,,,,,,,,,,,,,,,,,,,,,,,,,,,,,,,,,,,,,,,,,,,,,,,2196.524035155002,None,2196.524035155002,None,2196.524035155002,None,s,1,2.083708337002463,2198.0577765320013,None,2198.0577765320013,None,2198.0577765320013,None,2200.207669337,None,2200.207669337,None,2200.207669337,None,2200.207669337,None,,,,,,,,,,,,,,,,,,,,,,,,,,,,,,,,,,,,,,,,,,,,001,140,2020_Feb_18_1520,spring_faces,3.1.5,59.96475535417739,
condition files/Stage2_2.xlsx,,B3,T3,s,"['s', 'r']","['Stratego', 'Risk']","[-0.15, 0.5]","[0.15, 0.5]",1,1,,,,,,,,,,,,,,,,,0,1,1,1,0,0,0,4,,,,,,,,,,,,,,,,,,,,,,,,,,,,,,,,,,,,,,,,,,,,,,,2202.1903540099993,None,2202.1903540099993,None,2202.1903540099993,None,r,0,1.1529254189990752,2203.7405892839997,None,2203.7405892839997,None,2203.7405892839997,None,2204.9568832629993,None,2204.9568832629993,None,2204.9568832629993,None,2204.9568832629993,None,,,,,,,,,,,,,,,,,,,,,,,,,,,,,,,,,,,,,,,,,,,,001,140,2020_Feb_18_1520,spring_faces,3.1.5,59.96475535417739,
condition files/Stage2_2.xlsx,,T2,B2,r,"['s', 'r']","['Stratego', 'Risk']","[-0.15, 0.5]","[0.15, 0.5]",1,1,,,,,,,,,,,,,,,,,0,1,1,1,0,1,1,3,,,,,,,,,,,,,,,,,,,,,,,,,,,,,,,,,,,,,,,,,,,,,,,2206.924027369001,None,2206.924027369001,None,2206.924027369001,None,r,1,1.778033766997396,2208.459385860002,None,2208.459385860002,None,2208.459385860002,None,2210.3076467089995,None,2210.3076467089995,None,2210.3076467089995,None,2210.3076467089995,None,,,,,,,,,,,,,,,,,,,,,,,,,,,,,,,,,,,,,,,,,,,,001,140,2020_Feb_18_1520,spring_faces,3.1.5,59.96475535417739,
condition files/Stage2_2.xlsx,,T6,B6,r,"['s', 'r']","['Stratego', 'Risk']","[-0.15, 0.5]","[0.15, 0.5]",1,1,,,,,,,,,,,,,,,,,0,1,1,1,0,2,2,1,,,,,,,,,,,,,,,,,,,,,,,,,,,,,,,,,,,,,,,,,,,,,,,2212.2568814059996,None,2212.2568814059996,None,2212.2568814059996,None,s,0,1.469819500001904,2213.8076824300006,None,2213.8076824300006,None,2213.8076824300006,None,2215.3403852770025,None,2215.3403852770025,None,2215.3403852770025,None,2215.3403852770025,None,,,,,,,,,,,,,,,,,,,,,,,,,,,,,,,,,,,,,,,,,,,,001,140,2020_Feb_18_1520,spring_faces,3.1.5,59.96475535417739,
condition files/Stage2_2.xlsx,,B5,T5,s,"['s', 'r']","['Stratego', 'Risk']","[-0.15, 0.5]","[0.15, 0.5]",1,1,,,,,,,,,,,,,,,,,0,1,1,1,0,3,3,0,,,,,,,,,,,,,,,,,,,,,,,,,,,,,,,,,,,,,,,,,,,,,,,2217.3068198660003,None,2217.3068198660003,None,2217.3068198660003,None,r,0,5.267911740000272,2218.8575835120027,None,2218.8575835120027,None,2218.8575835120027,None,2224.1917640409993,None,2224.1917640409993,None,2224.1917640409993,None,2224.1917640409993,None,,,,,,,,,,,,,,,,,,,,,,,,,,,,,,,,,,,,,,,,,,,,001,140,2020_Feb_18_1520,spring_faces,3.1.5,59.96475535417739,
condition files/Stage2_2.xlsx,,T4,B4,r,"['s', 'r']","['Stratego', 'Risk']","[-0.15, 0.5]","[0.15, 0.5]",1,1,,,,,,,,,,,,,,,,,0,1,1,1,0,4,4,5,,,,,,,,,,,,,,,,,,,,,,,,,,,,,,,,,,,,,,,,,,,,,,,2226.1568187690027,None,2226.1568187690027,None,2226.1568187690027,None,s,0,1.937109716996929,2227.692407590999,None,2227.692407590999,None,2227.692407590999,None,2229.6910047849997,None,2229.6910047849997,None,2229.6910047849997,None,2229.6910047849997,None,,,,,,,,,,,,,,,,,,,,,,,,,,,,,,,,,,,,,,,,,,,,001,140,2020_Feb_18_1520,spring_faces,3.1.5,59.96475535417739,
condition files/Stage2_2.xlsx,,B1,T1,s,"['s', 'r']","['Stratego', 'Risk']","[-0.15, 0.5]","[0.15, 0.5]",1,1,,,,,,,,,,,,,,,,,0,1,1,1,0,5,5,2,,,,,,,,,,,,,,,,,,,,,,,,,,,,,,,,,,,,,,,,,,,,,,,2231.656653913,None,2231.656653913,None,2231.656653913,None,r,0,3.1415445470011036,2233.1919832370004,None,2233.1919832370004,None,2233.1919832370004,None,2236.4075954319997,None,2236.4075954319997,None,2236.4075954319997,None,2236.4075954319997,None,,,,,,,,,,,,,,,,,,,,,,,,,,,,,,,,,,,,,,,,,,,,001,140,2020_Feb_18_1520,spring_faces,3.1.5,59.96475535417739,
condition files/Stage2_1.xlsx,,T3,B3,s,"['s', 'r']","['Stratego', 'Risk']","[-0.15, 0.5]","[0.15, 0.5]",1,1,,,,,,,,,,,,,,,,,0,2,2,2,0,0,0,4,,,,,,,,,,,,,,,,,,,,,,,,,,,,,,,,,,,,,,,,,,,,,,,2238.373798847002,None,2238.373798847002,None,2238.373798847002,None,s,1,2.8096947470003215,2239.9238167300027,None,2239.9238167300027,None,2239.9238167300027,None,2242.790626531001,None,2242.790626531001,None,2242.790626531001,None,2242.790626531001,None,,,,,,,,,,,,,,,,,,,,,,,,,,,,,,,,,,,,,,,,,,,,001,140,2020_Feb_18_1520,spring_faces,3.1.5,59.96475535417739,
condition files/Stage2_1.xlsx,,T5,B5,s,"['s', 'r']","['Stratego', 'Risk']","[-0.15, 0.5]","[0.15, 0.5]",1,1,,,,,,,,,,,,,,,,,0,2,2,2,0,1,1,0,,,,,,,,,,,,,,,,,,,,,,,,,,,,,,,,,,,,,,,,,,,,,,,2244.757229977,None,2244.757229977,None,2244.757229977,None,r,0,2.522496729001432,2246.307008036001,None,2246.307008036001,None,2246.307008036001,None,2248.8909518110013,None,2248.8909518110013,None,2248.8909518110013,None,2248.8909518110013,None,,,,,,,,,,,,,,,,,,,,,,,,,,,,,,,,,,,,,,,,,,,,001,140,2020_Feb_18_1520,spring_faces,3.1.5,59.96475535417739,
condition files/Stage2_1.xlsx,,T1,B1,s,"['s', 'r']","['Stratego', 'Risk']","[-0.15, 0.5]","[0.15, 0.5]",1,1,,,,,,,,,,,,,,,,,0,2,2,2,0,2,2,2,,,,,,,,,,,,,,,,,,,,,,,,,,,,,,,,,,,,,,,,,,,,,,,2250.857723178,None,2250.857723178,None,2250.857723178,None,s,1,2.2619159820023924,2252.407580135001,None,2252.407580135001,None,2252.407580135001,None,2254.7245898399997,None,2254.7245898399997,None,2254.7245898399997,None,2254.7245898399997,None,,,,,,,,,,,,,,,,,,,,,,,,,,,,,,,,,,,,,,,,,,,,001,140,2020_Feb_18_1520,spring_faces,3.1.5,59.96475535417739,
condition files/Stage2_1.xlsx,,B4,T4,r,"['s', 'r']","['Stratego', 'Risk']","[-0.15, 0.5]","[0.15, 0.5]",1,1,,,,,,,,,,,,,,,,,0,2,2,2,0,3,3,5,,,,,,,,,,,,,,,,,,,,,,,,,,,,,,,,,,,,,,,,,,,,,,,2256.6906641900023,None,2256.6906641900023,None,2256.6906641900023,None,r,1,3.1971660859999247,2258.224330827001,None,2258.224330827001,None,2258.224330827001,None,2261.475779716002,None,2261.475779716002,None,2261.475779716002,None,2261.475779716002,None,,,,,,,,,,,,,,,,,,,,,,,,,,,,,,,,,,,,,,,,,,,,001,140,2020_Feb_18_1520,spring_faces,3.1.5,59.96475535417739,
condition files/Stage2_1.xlsx,,B6,T6,r,"['s', 'r']","['Stratego', 'Risk']","[-0.15, 0.5]","[0.15, 0.5]",1,1,,,,,,,,,,,,,,,,,0,2,2,2,0,4,4,1,,,,,,,,,,,,,,,,,,,,,,,,,,,,,,,,,,,,,,,,,,,,,,,2263.440035077001,None,2263.440035077001,None,2263.440035077001,None,s,0,1.966574104000756,2264.9909823960006,None,2264.9909823960006,None,2264.9909823960006,None,2267.0073205080007,None,2267.0073205080007,None,2267.0073205080007,None,2267.0073205080007,None,,,,,,,,,,,,,,,,,,,,,,,,,,,,,,,,,,,,,,,,,,,,001,140,2020_Feb_18_1520,spring_faces,3.1.5,59.96475535417739,
condition files/Stage2_1.xlsx,,B2,T2,r,"['s', 'r']","['Stratego', 'Risk']","[-0.15, 0.5]","[0.15, 0.5]",1,1,,,,,,,,,,,,,,,,,0,2,2,2,0,5,5,3,,,,,,,,,,,,,,,,,,,,,,,,,,,,,,,,,,,,,,,,,,,,,,,2268.973949133,None,2268.973949133,None,2268.973949133,None,r,1,1.9542420670004503,2270.507259269001,None,2270.507259269001,None,2270.507259269001,None,2272.5243066580006,None,2272.5243066580006,None,2272.5243066580006,None,2272.5243066580006,None,,,,,,,,,,,,,,,,,,,,,,,,,,,,,,,,,,,,,,,,,,,,001,140,2020_Feb_18_1520,spring_faces,3.1.5,59.96475535417739,
condition files/Stage2_2.xlsx,,T6,B6,r,"['s', 'r']","['Stratego', 'Risk']","[-0.15, 0.5]","[0.15, 0.5]",1,1,,,,,,,,,,,,,,,,,0,3,3,3,0,0,0,1,,,,,,,,,,,,,,,,,,,,,,,,,,,,,,,,,,,,,,,,,,,,,,,2274.507307251002,None,2274.507307251002,None,2274.507307251002,None,r,1,1.6677344290001201,2276.041697279001,None,2276.041697279001,None,2276.041697279001,None,2277.7737527060017,None,2277.7737527060017,None,2277.7737527060017,None,2277.7737527060017,None,,,,,,,,,,,,,,,,,,,,,,,,,,,,,,,,,,,,,,,,,,,,001,140,2020_Feb_18_1520,spring_faces,3.1.5,59.96475535417739,
condition files/Stage2_2.xlsx,,B5,T5,s,"['s', 'r']","['Stratego', 'Risk']","[-0.15, 0.5]","[0.15, 0.5]",1,1,,,,,,,,,,,,,,,,,0,3,3,3,0,1,1,0,,,,,,,,,,,,,,,,,,,,,,,,,,,,,,,,,,,,,,,,,,,,,,,2279.740852535,None,2279.740852535,None,2279.740852535,None,r,0,1.2836271060004947,2281.2738684680007,None,2281.2738684680007,None,2281.2738684680007,None,2282.609389448,None,2282.609389448,None,2282.609389448,None,2282.609389448,None,,,,,,,,,,,,,,,,,,,,,,,,,,,,,,,,,,,,,,,,,,,,001,140,2020_Feb_18_1520,spring_faces,3.1.5,59.96475535417739,
condition files/Stage2_2.xlsx,,T2,B2,r,"['s', 'r']","['Stratego', 'Risk']","[-0.15, 0.5]","[0.15, 0.5]",1,1,,,,,,,,,,,,,,,,,0,3,3,3,0,2,2,3,,,,,,,,,,,,,,,,,,,,,,,,,,,,,,,,,,,,,,,,,,,,,,,2284.5741569599995,None,2284.5741569599995,None,2284.5741569599995,None,r,1,2.1448662820002937,2286.108612786,None,2286.108612786,None,2286.108612786,None,2288.308833688003,None,2288.308833688003,None,2288.308833688003,None,2288.308833688003,None,,,,,,,,,,,,,,,,,,,,,,,,,,,,,,,,,,,,,,,,,,,,001,140,2020_Feb_18_1520,spring_faces,3.1.5,59.96475535417739,
condition files/Stage2_2.xlsx,,B3,T3,s,"['s', 'r']","['Stratego', 'Risk']","[-0.15, 0.5]","[0.15, 0.5]",1,1,,,,,,,,,,,,,,,,,0,3,3,3,0,3,3,4,,,,,,,,,,,,,,,,,,,,,,,,,,,,,,,,,,,,,,,,,,,,,,,2290.273542348001,None,2290.273542348001,None,2290.273542348001,None,s,1,1.3099111370029277,2291.823608292001,None,2291.823608292001,None,2291.823608292001,None,2293.193421387001,None,2293.193421387001,None,2293.193421387001,None,2293.193421387001,None,,,,,,,,,,,,,,,,,,,,,,,,,,,,,,,,,,,,,,,,,,,,001,140,2020_Feb_18_1520,spring_faces,3.1.5,59.96475535417739,
condition files/Stage2_2.xlsx,,B1,T1,s,"['s', 'r']","['Stratego', 'Risk']","[-0.15, 0.5]","[0.15, 0.5]",1,1,,,,,,,,,,,,,,,,,0,3,3,3,0,4,4,2,,,,,,,,,,,,,,,,,,,,,,,,,,,,,,,,,,,,,,,,,,,,,,,2295.157381846002,None,2295.157381846002,None,2295.157381846002,None,s,1,2.041714522001712,2296.7078305130017,None,2296.7078305130017,None,2296.7078305130017,None,2298.8076174439993,None,2298.8076174439993,None,2298.8076174439993,None,2298.8076174439993,None,,,,,,,,,,,,,,,,,,,,,,,,,,,,,,,,,,,,,,,,,,,,001,140,2020_Feb_18_1520,spring_faces,3.1.5,59.96475535417739,
condition files/Stage2_2.xlsx,,T4,B4,r,"['s', 'r']","['Stratego', 'Risk']","[-0.15, 0.5]","[0.15, 0.5]",1,1,,,,,,,,,,,,,,,,,0,3,3,3,0,5,5,5,,,,,,,,,,,,,,,,,,,,,,,,,,,,,,,,,,,,,,,,,,,,,,,2300.773912572,None,2300.773912572,None,2300.773912572,None,s,0,2.0084025940013817,2302.309163123002,None,2302.309163123002,None,2302.309163123002,None,2304.390898263002,None,2304.390898263002,None,2304.390898263002,None,2304.390898263002,None,,,,,,,,,,,,,,,,,,,,,,,,,,,,,,,,,,,,,,,,,,,,001,140,2020_Feb_18_1520,spring_faces,3.1.5,59.96475535417739,
condition files/Stage2_1.xlsx,,B2,T2,r,"['s', 'r']","['Stratego', 'Risk']","[-0.15, 0.5]","[0.15, 0.5]",1,1,,,,,,,,,,,,,,,,,0,4,4,4,0,0,0,3,,,,,,,,,,,,,,,,,,,,,,,,,,,,,,,,,,,,,,,,,,,,,,,2306.3570113259993,None,2306.3570113259993,None,2306.3570113259993,None,r,1,2.2669314310005575,2307.8905925860017,None,2307.8905925860017,None,2307.8905925860017,None,2310.2068933869996,None,2310.2068933869996,None,2310.2068933869996,None,2310.2068933869996,None,,,,,,,,,,,,,,,,,,,,,,,,,,,,,,,,,,,,,,,,,,,,001,140,2020_Feb_18_1520,spring_faces,3.1.5,59.96475535417739,
condition files/Stage2_1.xlsx,,T3,B3,s,"['s', 'r']","['Stratego', 'Risk']","[-0.15, 0.5]","[0.15, 0.5]",1,1,,,,,,,,,,,,,,,,,0,4,4,4,0,1,1,4,,,,,,,,,,,,,,,,,,,,,,,,,,,,,,,,,,,,,,,,,,,,,,,2312.1739013219994,None,2312.1739013219994,None,2312.1739013219994,None,s,1,1.1050547969971376,2313.724446289001,None,2313.724446289001,None,2313.724446289001,None,2314.892602461001,None,2314.892602461001,None,2314.892602461001,None,2314.892602461001,None,,,,,,,,,,,,,,,,,,,,,,,,,,,,,,,,,,,,,,,,,,,,001,140,2020_Feb_18_1520,spring_faces,3.1.5,59.96475535417739,
