condsFile,subStage,cue1,cue2,correct,responseKeys,responseNames,cue1Position,cue2Position,cue1Opacity,cue2Opacity,stageLoop0.thisRepN,stageLoop0.thisTrialN,stageLoop0.thisN,stageLoop0.thisIndex,blockLoop0.thisRepN,blockLoop0.thisTrialN,blockLoop0.thisN,blockLoop0.thisIndex,stage1Loop.thisRepN,stage1Loop.thisTrialN,stage1Loop.thisN,stage1Loop.thisIndex,blockLoop1.thisRepN,blockLoop1.thisTrialN,blockLoop1.thisN,blockLoop1.thisIndex,stage2Loop.thisRepN,stage2Loop.thisTrialN,stage2Loop.thisN,stage2Loop.thisIndex,blockLoop2.thisRepN,blockLoop2.thisTrialN,blockLoop2.thisN,blockLoop2.thisIndex,testLoop.thisRepN,testLoop.thisTrialN,testLoop.thisN,testLoop.thisIndex,blockLoopTest.thisRepN,blockLoopTest.thisTrialN,blockLoopTest.thisN,blockLoopTest.thisIndex,cuePics,id_instr_text.started,id_instr_text.stopped,space_to_continue_2.started,space_to_continue_2.stopped,end_instructions_resp_3.keys,end_instructions_resp_3.rt,end_instructions_resp_3.started,end_instructions_resp_3.stopped,id_input_instr.started,id_input_instr.stopped,id_input_rect.started,id_input_rect.stopped,id_input_resp.keys,id_input_resp.rt,id_input_resp.started,id_input_resp.stopped,sonaID,id_input_text.started,id_input_text.stopped,final_text.started,final_text.stopped,instructions.started,instructions.stopped,end_instructions_resp.keys,end_instructions_resp.rt,end_instructions_resp.started,end_instructions_resp.stopped,space_to_continue.started,space_to_continue.stopped,instructions_stage0.started,instructions_stage0.stopped,end_instructions_resp_stage0.keys,end_instructions_resp_stage0.rt,end_instructions_resp_stage0.started,end_instructions_resp_stage0.stopped,space_to_continue_stage0.started,space_to_continue_stage0.stopped,text.started,text.stopped,resp_text1.started,resp_text1.stopped,resp_text2.started,resp_text2.stopped,trial_resp.keys,trial_resp.corr,trial_resp.rt,trial_resp.started,trial_resp.stopped,cue1Image.started,cue1Image.stopped,cue2Image.started,cue2Image.stopped,cue1Image_fb.started,cue1Image_fb.stopped,cue2Image_fb.started,cue2Image_fb.stopped,fb_text_answer.started,fb_text_answer.stopped,feedback_image.started,feedback_image.stopped,instructions_stage1.started,instructions_stage1.stopped,end_instructions_resp_stage1.keys,end_instructions_resp_stage1.rt,end_instructions_resp_stage1.started,end_instructions_resp_stage1.stopped,space_to_continue_stage1.started,space_to_continue_stage1.stopped,instructions_2.started,instructions_2.stopped,end_instructions_resp_2.keys,end_instructions_resp_2.rt,end_instructions_resp_2.started,end_instructions_resp_2.stopped,press_space_to_continue_stage2.started,press_space_to_continue_stage2.stopped,instructions_testStage1.started,instructions_testStage1.stopped,end_instructions_resp_test1.keys,end_instructions_resp_test1.rt,end_instructions_resp_test1.started,end_instructions_resp_test1.stopped,press_space_to_continue_test1.started,press_space_to_continue_test1.stopped,cue1Image_testChoice.started,cue1Image_testChoice.stopped,cue2Image_testChoice.started,cue2Image_testChoice.stopped,test_resp.keys,test_resp.corr,test_resp.rt,test_resp.started,test_resp.stopped,cue1Image_testConf.started,cue1Image_testConf.stopped,cue2Image_testConf.started,cue2Image_testConf.stopped,conf_reminder.started,conf_reminder.stopped,conf_rating.response,conf_rating.rt,conf_rating.started,conf_rating.stopped,session,participant,date,expName,psychopyVersion,frameRate,
,,,,,,,,,,,,,,,,,,,,,,,,,,,,,,,,,,,,,,,,,,,"{'none': 'pictures/20M_AN_C.png', 'alpha': 'pictures/SHINEd_pear.png', 'beta': 'pictures/SHINEd_pepper.png', 'theta': 'pictures/SHINEd_melon.png', 'phi': 'pictures/SHINEd_apple.png', 'T1': 'pictures/26M_AN_C.png', 'T2': 'pictures/31M_AN_C.png', 'T3': 'pictures/25M_AN_C.png', 'T4': 'pictures/32M_AN_C.png', 'T5': 'pictures/20M_AN_C.png', 'T6': 'pictures/38M_AN_C.png', 'B1': 'pictures/36M_NE_C.png', 'B2': 'pictures/34M_NE_C.png', 'B3': 'pictures/23M_NE_C.png', 'B4': 'pictures/22M_NE_C.png', 'B5': 'pictures/37M_NE_C.png', 'B6': 'pictures/33M_NE_C.png'}",19.27078932099994,None,24.25411446199996,None,space,2195.0237272020004,24.25411446199996,None,,,,,,,,,,,,,,,,,,,,,,,,,,,,,,,,,,,,,,,,,,,,,,,,,,,,,,,,,,,,,,,,,,,,,,,,,,,,,,,,,,,,,,,,,,,,,,,,001,144,2020_Feb_20_0923,spring_faces,3.2.3,60.02417677804763,
,,,,,,,,,,,,,,,,,,,,,,,,,,,,,,,,,,,,,,,,,,,,,,,,,,,,2220.169930989,None,2220.169930989,None,"['0', '4', '2', '2', 'f', 'a', 'e', 'a', 's', 'backspace', '0', '4', '2', '2', 'm', 'e', 'e', 'a', 's', 'backspace', '0', '4', '2', '2', 'f', 'a', 'e', 'a', 's']","[22.964088562000143, 23.603950092000105, 26.419944113000383, 26.803949525000007, 31.7960611540002, 32.13211577100037, 35.63596305500005, 35.79606042700016, 36.13212076100035, 39.71605281600023, 42.996047423000164, 43.18801207700017, 44.1160458420004, 44.41996863500026, 47.988012748000074, 48.19605238600025, 48.46797820400025, 48.80394994900007, 49.012057825000284, 50.46805016799999, 113.12401900900022, 113.30013495700041, 120.29198373600002, 120.48412337000036, 123.3161301250002, 123.70013511300021, 140.803949656, 141.04406235900024, 141.284105231]",2220.169930989,None,,,,,,,,,,,,,,,,,,,,,,,,,,,,,,,,,,,,,,,,,,,,,,,,,,,,,,,,,,,,,,,,,,,,,,,,,,,,,,,,,,,,,,,,001,144,2020_Feb_20_0923,spring_faces,3.2.3,60.02417677804763,
,,,,,,,,,,,,,,,,,,,,,,,,,,,,,,,,,,,,,,,,,,,,,,,,,,,,,,,,,,,,0422faeas,2220.169930989,None,2220.169930989,None,2366.5041736460003,None,space,4.846568165999997,2371.487455639,None,,,,,,,,,,,,,,,,,,,,,,,,,,,,,,,,,,,,,,,,,,,,,,,,,,,,,,,,,,,,,,,,,,,,,,,,,,,,,001,144,2020_Feb_20_0923,spring_faces,3.2.3,60.02417677804763,
,,,,,,,,,,,,,,,,,,,,,,,,,,,,,,,,,,,,,,,,,,,,,,,,,,,,,,,,,,,,,,,,,,,,,,,2371.487455639,None,2376.354170706,None,space,2.4683615349999855,2381.337522508,None,,,,,,,,,,,,,,,,,,,,,,,,,,,,,,,,,,,,,,,,,,,,,,,,,,,,,,,,,,,,,,,,,,,,,001,144,2020_Feb_20_0923,spring_faces,3.2.3,60.02417677804763,
condition files/Stage0a.xlsx,0a,alpha,none,h,"['h', 'g']","['Chess', 'Go']","[0, 0.5]","[0, 0]",1,0,0,0,0,0,0,0,0,0,,,,,,,,,,,,,,,,,,,,,,,,,,,,,,,,,,,,,,,,,,,,,,,,,,,,,,,,,,,,,2381.337522508,None,2383.9542201140002,None,2383.9542201140002,None,2383.9542201140002,None,g,0,6.186494898000092,2385.603447855,None,2385.603447855,None,2385.603447855,None,2391.870787366,None,2391.870787366,None,2391.870787366,None,2391.870787366,None,,,,,,,,,,,,,,,,,,,,,,,,,,,,,,,,,,,,,,,,,,,,001,144,2020_Feb_20_0923,spring_faces,3.2.3,60.02417677804763,
condition files/Stage0a.xlsx,0a,beta,none,g,"['h', 'g']","['Chess', 'Go']","[0, 0.5]","[0, 0]",1,0,0,0,0,0,0,1,1,1,,,,,,,,,,,,,,,,,,,,,,,,,,,,,,,,,,,,,,,,,,,,,,,,,,,,,,,,,,,,,,,2393.837495691,None,2393.837495691,None,2393.837495691,None,g,1,1.0305052099997738,2395.687496476,None,2395.687496476,None,2395.687496476,None,2396.820892142,None,2396.820892142,None,2396.820892142,None,2396.820892142,None,,,,,,,,,,,,,,,,,,,,,,,,,,,,,,,,,,,,,,,,,,,,001,144,2020_Feb_20_0923,spring_faces,3.2.3,60.02417677804763,
condition files/Stage0a.xlsx,0a,beta,none,g,"['h', 'g']","['Chess', 'Go']","[0, 0.5]","[0, 0]",1,0,0,1,1,1,0,0,0,1,,,,,,,,,,,,,,,,,,,,,,,,,,,,,,,,,,,,,,,,,,,,,,,,,,,,,,,,,,,,,,,2398.770856312,None,2398.770856312,None,2398.770856312,None,g,1,1.1658449600004133,2400.3042002370003,None,2400.3042002370003,None,2400.3042002370003,None,2401.5207820640003,None,2401.5207820640003,None,2401.5207820640003,None,2401.5207820640003,None,,,,,,,,,,,,,,,,,,,,,,,,,,,,,,,,,,,,,,,,,,,,001,144,2020_Feb_20_0923,spring_faces,3.2.3,60.02417677804763,
condition files/Stage0a.xlsx,0a,alpha,none,h,"['h', 'g']","['Chess', 'Go']","[0, 0.5]","[0, 0]",1,0,0,1,1,1,0,1,1,0,,,,,,,,,,,,,,,,,,,,,,,,,,,,,,,,,,,,,,,,,,,,,,,,,,,,,,,,,,,,,,,2403.504116529,None,2403.504116529,None,2403.504116529,None,h,1,0.44849228899965965,2405.03752128,None,2405.03752128,None,2405.03752128,None,2405.553962691,None,2405.553962691,None,2405.553962691,None,2405.553962691,None,,,,,,,,,,,,,,,,,,,,,,,,,,,,,,,,,,,,,,,,,,,,001,144,2020_Feb_20_0923,spring_faces,3.2.3,60.02417677804763,
condition files/Stage0a.xlsx,0a,beta,none,g,"['h', 'g']","['Chess', 'Go']","[0, 0.5]","[0, 0]",1,0,0,2,2,2,0,0,0,1,,,,,,,,,,,,,,,,,,,,,,,,,,,,,,,,,,,,,,,,,,,,,,,,,,,,,,,,,,,,,,,2407.5375379360003,None,2407.5375379360003,None,2407.5375379360003,None,g,1,0.6551552710002397,2409.07080366,None,2409.07080366,None,2409.07080366,None,2409.8041702180003,None,2409.8041702180003,None,2409.8041702180003,None,2409.8041702180003,None,,,,,,,,,,,,,,,,,,,,,,,,,,,,,,,,,,,,,,,,,,,,001,144,2020_Feb_20_0923,spring_faces,3.2.3,60.02417677804763,
condition files/Stage0a.xlsx,0a,alpha,none,h,"['h', 'g']","['Chess', 'Go']","[0, 0.5]","[0, 0]",1,0,0,2,2,2,0,1,1,0,,,,,,,,,,,,,,,,,,,,,,,,,,,,,,,,,,,,,,,,,,,,,,,,,,,,,,,,,,,,,,,2411.7708369360003,None,2411.7708369360003,None,2411.7708369360003,None,h,1,0.38975405800010776,2413.304171952,None,2413.304171952,None,2413.304171952,None,2413.770857306,None,2413.770857306,None,2413.770857306,None,2413.770857306,None,,,,,,,,,,,,,,,,,,,,,,,,,,,,,,,,,,,,,,,,,,,,001,144,2020_Feb_20_0923,spring_faces,3.2.3,60.02417677804763,
condition files/Stage0a.xlsx,0a,beta,none,g,"['h', 'g']","['Chess', 'Go']","[0, 0.5]","[0, 0]",1,0,0,3,3,3,0,0,0,1,,,,,,,,,,,,,,,,,,,,,,,,,,,,,,,,,,,,,,,,,,,,,,,,,,,,,,,,,,,,,,,2415.754180972,None,2415.754180972,None,2415.754180972,None,g,1,0.4544167000003654,2417.287525495,None,2417.287525495,None,2417.287525495,None,2417.820844083,None,2417.820844083,None,2417.820844083,None,2417.820844083,None,,,,,,,,,,,,,,,,,,,,,,,,,,,,,,,,,,,,,,,,,,,,001,144,2020_Feb_20_0923,spring_faces,3.2.3,60.02417677804763,
condition files/Stage0a.xlsx,0a,alpha,none,h,"['h', 'g']","['Chess', 'Go']","[0, 0.5]","[0, 0]",1,0,0,3,3,3,0,1,1,0,,,,,,,,,,,,,,,,,,,,,,,,,,,,,,,,,,,,,,,,,,,,,,,,,,,,,,,,,,,,,,,2419.787522344,None,2419.787522344,None,2419.787522344,None,h,1,0.45306072500034134,2421.320848099,None,2421.320848099,None,2421.320848099,None,2421.8375497770003,None,2421.8375497770003,None,2421.8375497770003,None,2421.8375497770003,None,,,,,,,,,,,,,,,,,,,,,,,,,,,,,,,,,,,,,,,,,,,,001,144,2020_Feb_20_0923,spring_faces,3.2.3,60.02417677804763,
condition files/Stage0a.xlsx,0a,beta,none,g,"['h', 'g']","['Chess', 'Go']","[0, 0.5]","[0, 0]",1,0,0,4,4,4,0,0,0,1,,,,,,,,,,,,,,,,,,,,,,,,,,,,,,,,,,,,,,,,,,,,,,,,,,,,,,,,,,,,,,,2423.83749195,None,2423.83749195,None,2423.83749195,None,h,0,0.5951224850000472,2425.370848821,None,2425.370848821,None,2425.370848821,None,2426.0207776800003,None,2426.0207776800003,None,2426.0207776800003,None,2426.0207776800003,None,,,,,,,,,,,,,,,,,,,,,,,,,,,,,,,,,,,,,,,,,,,,001,144,2020_Feb_20_0923,spring_faces,3.2.3,60.02417677804763,
condition files/Stage0a.xlsx,0a,alpha,none,h,"['h', 'g']","['Chess', 'Go']","[0, 0.5]","[0, 0]",1,0,0,4,4,4,0,1,1,0,,,,,,,,,,,,,,,,,,,,,,,,,,,,,,,,,,,,,,,,,,,,,,,,,,,,,,,,,,,,,,,2428.004169103,None,2428.004169103,None,2428.004169103,None,h,1,0.49253747500006284,2429.5374436800003,None,2429.5374436800003,None,2429.5374436800003,None,2430.0874746110003,None,2430.0874746110003,None,2430.0874746110003,None,2430.0874746110003,None,,,,,,,,,,,,,,,,,,,,,,,,,,,,,,,,,,,,,,,,,,,,001,144,2020_Feb_20_0923,spring_faces,3.2.3,60.02417677804763,
condition files/Stage0a.xlsx,0a,beta,none,g,"['h', 'g']","['Chess', 'Go']","[0, 0.5]","[0, 0]",1,0,0,5,5,5,0,0,0,1,,,,,,,,,,,,,,,,,,,,,,,,,,,,,,,,,,,,,,,,,,,,,,,,,,,,,,,,,,,,,,,2432.08750096,None,2432.08750096,None,2432.08750096,None,g,1,0.3931307829998332,2433.6208357210003,None,2433.6208357210003,None,2433.6208357210003,None,2434.070882984,None,2434.070882984,None,2434.070882984,None,2434.070882984,None,,,,,,,,,,,,,,,,,,,,,,,,,,,,,,,,,,,,,,,,,,,,001,144,2020_Feb_20_0923,spring_faces,3.2.3,60.02417677804763,
condition files/Stage0a.xlsx,0a,alpha,none,h,"['h', 'g']","['Chess', 'Go']","[0, 0.5]","[0, 0]",1,0,0,5,5,5,0,1,1,0,,,,,,,,,,,,,,,,,,,,,,,,,,,,,,,,,,,,,,,,,,,,,,,,,,,,,,,,,,,,,,,2436.054192833,None,2436.054192833,None,2436.054192833,None,h,1,0.49043860699975994,2437.587496343,None,2437.587496343,None,2437.587496343,None,2438.154188838,None,2438.154188838,None,2438.154188838,None,2438.154188838,None,,,,,,,,,,,,,,,,,,,,,,,,,,,,,,,,,,,,,,,,,,,,001,144,2020_Feb_20_0923,spring_faces,3.2.3,60.02417677804763,
condition files/Stage0b_1.xlsx,0b,alpha,none,h,"['h', 'g']","['Chess', 'Go']","[-0.15, 0.5]","[0.15, 0.5]",1,0,0,6,6,6,0,0,0,0,,,,,,,,,,,,,,,,,,,,,,,,,,,,,,,,,,,,,,,,,,,,,,,,,,,,,,,,,,,,,,,2440.187522361,None,2440.187522361,None,2440.187522361,None,h,1,0.5831585549999545,2441.670855825,None,2441.670855825,None,2441.670855825,None,2442.304110974,None,2442.304110974,None,2442.304110974,None,2442.304110974,None,,,,,,,,,,,,,,,,,,,,,,,,,,,,,,,,,,,,,,,,,,,,001,144,2020_Feb_20_0923,spring_faces,3.2.3,60.02417677804763,
condition files/Stage0b_1.xlsx,0b,none,beta,g,"['h', 'g']","['Chess', 'Go']","[-0.15, 0.5]","[0.15, 0.5]",0,1,0,6,6,6,0,1,1,1,,,,,,,,,,,,,,,,,,,,,,,,,,,,,,,,,,,,,,,,,,,,,,,,,,,,,,,,,,,,,,,2444.287515065,None,2444.287515065,None,2444.287515065,None,g,1,0.5139310099998511,2445.8200767030003,None,2445.8200767030003,None,2445.8200767030003,None,2446.404238611,None,2446.404238611,None,2446.404238611,None,2446.404238611,None,,,,,,,,,,,,,,,,,,,,,,,,,,,,,,,,,,,,,,,,,,,,001,144,2020_Feb_20_0923,spring_faces,3.2.3,60.02417677804763,
condition files/Stage0b_2.xlsx,0b,beta,none,g,"['h', 'g']","['Chess', 'Go']","[-0.15, 0.5]","[0.15, 0.5]",1,0,0,7,7,7,0,0,0,1,,,,,,,,,,,,,,,,,,,,,,,,,,,,,,,,,,,,,,,,,,,,,,,,,,,,,,,,,,,,,,,2448.437514697,None,2448.437514697,None,2448.437514697,None,g,1,1.0371520720000262,2449.920803954,None,2449.920803954,None,2449.920803954,None,2451.020468698,None,2451.020468698,None,2451.020468698,None,2451.020468698,None,,,,,,,,,,,,,,,,,,,,,,,,,,,,,,,,,,,,,,,,,,,,001,144,2020_Feb_20_0923,spring_faces,3.2.3,60.02417677804763,
condition files/Stage0b_2.xlsx,0b,none,alpha,h,"['h', 'g']","['Chess', 'Go']","[-0.15, 0.5]","[0.15, 0.5]",0,1,0,7,7,7,0,1,1,0,,,,,,,,,,,,,,,,,,,,,,,,,,,,,,,,,,,,,,,,,,,,,,,,,,,,,,,,,,,,,,,2453.004220365,None,2453.004220365,None,2453.004220365,None,h,1,0.5644870349997291,2454.5375218970003,None,2454.5375218970003,None,2454.5375218970003,None,2455.170825423,None,2455.170825423,None,2455.170825423,None,2455.170825423,None,,,,,,,,,,,,,,,,,,,,,,,,,,,,,,,,,,,,,,,,,,,,001,144,2020_Feb_20_0923,spring_faces,3.2.3,60.02417677804763,
condition files/Stage0b_1.xlsx,0b,none,beta,g,"['h', 'g']","['Chess', 'Go']","[-0.15, 0.5]","[0.15, 0.5]",0,1,0,8,8,8,0,0,0,1,,,,,,,,,,,,,,,,,,,,,,,,,,,,,,,,,,,,,,,,,,,,,,,,,,,,,,,,,,,,,,,2457.1541638490003,None,2457.1541638490003,None,2457.1541638490003,None,g,1,0.5904499049997867,2458.6874979510003,None,2458.6874979510003,None,2458.6874979510003,None,2459.354187664,None,2459.354187664,None,2459.354187664,None,2459.354187664,None,,,,,,,,,,,,,,,,,,,,,,,,,,,,,,,,,,,,,,,,,,,,001,144,2020_Feb_20_0923,spring_faces,3.2.3,60.02417677804763,
condition files/Stage0b_1.xlsx,0b,alpha,none,h,"['h', 'g']","['Chess', 'Go']","[-0.15, 0.5]","[0.15, 0.5]",1,0,0,8,8,8,0,1,1,0,,,,,,,,,,,,,,,,,,,,,,,,,,,,,,,,,,,,,,,,,,,,,,,,,,,,,,,,,,,,,,,2461.320881101,None,2461.320881101,None,2461.320881101,None,h,1,0.6320997570001055,2462.853955979,None,2462.853955979,None,2462.853955979,None,2463.5540774230003,None,2463.5540774230003,None,2463.5540774230003,None,2463.5540774230003,None,,,,,,,,,,,,,,,,,,,,,,,,,,,,,,,,,,,,,,,,,,,,001,144,2020_Feb_20_0923,spring_faces,3.2.3,60.02417677804763,
condition files/Stage0b_2.xlsx,0b,none,alpha,h,"['h', 'g']","['Chess', 'Go']","[-0.15, 0.5]","[0.15, 0.5]",0,1,0,9,9,9,0,0,0,0,,,,,,,,,,,,,,,,,,,,,,,,,,,,,,,,,,,,,,,,,,,,,,,,,,,,,,,,,,,,,,,2465.537453979,None,2465.537453979,None,2465.537453979,None,h,1,0.7992153810000673,2467.0708359170003,None,2467.0708359170003,None,2467.0708359170003,None,2467.920839835,None,2467.920839835,None,2467.920839835,None,2467.920839835,None,,,,,,,,,,,,,,,,,,,,,,,,,,,,,,,,,,,,,,,,,,,,001,144,2020_Feb_20_0923,spring_faces,3.2.3,60.02417677804763,
condition files/Stage0b_2.xlsx,0b,beta,none,g,"['h', 'g']","['Chess', 'Go']","[-0.15, 0.5]","[0.15, 0.5]",1,0,0,9,9,9,0,1,1,1,,,,,,,,,,,,,,,,,,,,,,,,,,,,,,,,,,,,,,,,,,,,,,,,,,,,,,,,,,,,,,,2469.90407844,None,2469.90407844,None,2469.90407844,None,g,1,0.5767253099998015,2471.437254059,None,2471.437254059,None,2471.437254059,None,2472.087535736,None,2472.087535736,None,2472.087535736,None,2472.087535736,None,,,,,,,,,,,,,,,,,,,,,,,,,,,,,,,,,,,,,,,,,,,,001,144,2020_Feb_20_0923,spring_faces,3.2.3,60.02417677804763,
condition files/Stage0b_1.xlsx,0b,alpha,none,h,"['h', 'g']","['Chess', 'Go']","[-0.15, 0.5]","[0.15, 0.5]",1,0,0,10,10,10,0,0,0,0,,,,,,,,,,,,,,,,,,,,,,,,,,,,,,,,,,,,,,,,,,,,,,,,,,,,,,,,,,,,,,,2474.070833409,None,2474.070833409,None,2474.070833409,None,h,1,0.4097922210003162,2475.604175941,None,2475.604175941,None,2475.604175941,None,2476.07084437,None,2476.07084437,None,2476.07084437,None,2476.07084437,None,,,,,,,,,,,,,,,,,,,,,,,,,,,,,,,,,,,,,,,,,,,,001,144,2020_Feb_20_0923,spring_faces,3.2.3,60.02417677804763,
condition files/Stage0b_1.xlsx,0b,none,beta,g,"['h', 'g']","['Chess', 'Go']","[-0.15, 0.5]","[0.15, 0.5]",0,1,0,10,10,10,0,1,1,1,,,,,,,,,,,,,,,,,,,,,,,,,,,,,,,,,,,,,,,,,,,,,,,,,,,,,,,,,,,,,,,2478.05421833,None,2478.05421833,None,2478.05421833,None,g,1,0.6503204529999493,2479.5875413940003,None,2479.5875413940003,None,2479.5875413940003,None,2480.3208413830002,None,2480.3208413830002,None,2480.3208413830002,None,2480.3208413830002,None,,,,,,,,,,,,,,,,,,,,,,,,,,,,,,,,,,,,,,,,,,,,001,144,2020_Feb_20_0923,spring_faces,3.2.3,60.02417677804763,
condition files/Stage0b_2.xlsx,0b,beta,none,g,"['h', 'g']","['Chess', 'Go']","[-0.15, 0.5]","[0.15, 0.5]",1,0,0,11,11,11,0,0,0,1,,,,,,,,,,,,,,,,,,,,,,,,,,,,,,,,,,,,,,,,,,,,,,,,,,,,,,,,,,,,,,,2482.304103747,None,2482.304103747,None,2482.304103747,None,g,1,0.5126436470000044,2483.837258222,None,2483.837258222,None,2483.837258222,None,2484.4039073110002,None,2484.4039073110002,None,2484.4039073110002,None,2484.4039073110002,None,,,,,,,,,,,,,,,,,,,,,,,,,,,,,,,,,,,,,,,,,,,,001,144,2020_Feb_20_0923,spring_faces,3.2.3,60.02417677804763,
condition files/Stage0b_2.xlsx,0b,none,alpha,h,"['h', 'g']","['Chess', 'Go']","[-0.15, 0.5]","[0.15, 0.5]",0,1,0,11,11,11,0,1,1,0,,,,,,,,,,,,,,,,,,,,,,,,,,,,,,,,,,,,,,,,,,,,,,,,,,,,,,,,,,,,,,,2486.387517851,None,2486.387517851,None,2486.387517851,None,h,1,0.8771591089998765,2487.9208099780003,None,2487.9208099780003,None,2487.9208099780003,None,2488.870899506,None,2488.870899506,None,2488.870899506,None,2488.870899506,None,,,,,,,,,,,,,,,,,,,,,,,,,,,,,,,,,,,,,,,,,,,,001,144,2020_Feb_20_0923,spring_faces,3.2.3,60.02417677804763,
condition files/Stage0c_1.xlsx,0c,phi,beta,g,"['h', 'g']","['Chess', 'Go']","[-0.15, 0.5]","[0.15, 0.5]",1,1,0,12,12,12,0,0,0,3,,,,,,,,,,,,,,,,,,,,,,,,,,,,,,,,,,,,,,,,,,,,,,,,,,,,,,,,,,,,,,,2490.854186292,None,2490.854186292,None,2490.854186292,None,g,1,5.150345314999868,2492.687537069,None,2492.687537069,None,2492.687537069,None,2497.904062439,None,2497.904062439,None,2497.904062439,None,2497.904062439,None,,,,,,,,,,,,,,,,,,,,,,,,,,,,,,,,,,,,,,,,,,,,001,144,2020_Feb_20_0923,spring_faces,3.2.3,60.02417677804763,
condition files/Stage0c_1.xlsx,0c,theta,alpha,h,"['h', 'g']","['Chess', 'Go']","[-0.15, 0.5]","[0.15, 0.5]",1,1,0,12,12,12,0,1,1,0,,,,,,,,,,,,,,,,,,,,,,,,,,,,,,,,,,,,,,,,,,,,,,,,,,,,,,,,,,,,,,,2499.887457633,None,2499.887457633,None,2499.887457633,None,h,1,0.837048562000291,2501.720871993,None,2501.720871993,None,2501.720871993,None,2502.620898432,None,2502.620898432,None,2502.620898432,None,2502.620898432,None,,,,,,,,,,,,,,,,,,,,,,,,,,,,,,,,,,,,,,,,,,,,001,144,2020_Feb_20_0923,spring_faces,3.2.3,60.02417677804763,
condition files/Stage0c_1.xlsx,0c,beta,theta,g,"['h', 'g']","['Chess', 'Go']","[-0.15, 0.5]","[0.15, 0.5]",1,1,0,12,12,12,0,2,2,2,,,,,,,,,,,,,,,,,,,,,,,,,,,,,,,,,,,,,,,,,,,,,,,,,,,,,,,,,,,,,,,2504.6041739360003,None,2504.6041739360003,None,2504.6041739360003,None,g,1,1.028437619000215,2506.137506412,None,2506.137506412,None,2506.137506412,None,2507.220869947,None,2507.220869947,None,2507.220869947,None,2507.220869947,None,,,,,,,,,,,,,,,,,,,,,,,,,,,,,,,,,,,,,,,,,,,,001,144,2020_Feb_20_0923,spring_faces,3.2.3,60.02417677804763,
condition files/Stage0c_1.xlsx,0c,alpha,phi,h,"['h', 'g']","['Chess', 'Go']","[-0.15, 0.5]","[0.15, 0.5]",1,1,0,12,12,12,0,3,3,1,,,,,,,,,,,,,,,,,,,,,,,,,,,,,,,,,,,,,,,,,,,,,,,,,,,,,,,,,,,,,,,2509.2041951680003,None,2509.2041951680003,None,2509.2041951680003,None,h,1,0.4931611699998939,2510.720826909,None,2510.720826909,None,2510.720826909,None,2511.2708610570003,None,2511.2708610570003,None,2511.2708610570003,None,2511.2708610570003,None,,,,,,,,,,,,,,,,,,,,,,,,,,,,,,,,,,,,,,,,,,,,001,144,2020_Feb_20_0923,spring_faces,3.2.3,60.02417677804763,
condition files/Stage0c_2.xlsx,0c,beta,phi,g,"['h', 'g']","['Chess', 'Go']","[-0.15, 0.5]","[0.15, 0.5]",1,1,0,13,13,13,0,0,0,3,,,,,,,,,,,,,,,,,,,,,,,,,,,,,,,,,,,,,,,,,,,,,,,,,,,,,,,,,,,,,,,2513.5708759510003,None,2513.5708759510003,None,2513.5708759510003,None,g,1,0.5866199820002294,2514.787326911,None,2514.787326911,None,2514.787326911,None,2515.437452265,None,2515.437452265,None,2515.437452265,None,2515.437452265,None,,,,,,,,,,,,,,,,,,,,,,,,,,,,,,,,,,,,,,,,,,,,001,144,2020_Feb_20_0923,spring_faces,3.2.3,60.02417677804763,
condition files/Stage0c_2.xlsx,0c,theta,beta,g,"['h', 'g']","['Chess', 'Go']","[-0.15, 0.5]","[0.15, 0.5]",1,1,0,13,13,13,0,1,1,2,,,,,,,,,,,,,,,,,,,,,,,,,,,,,,,,,,,,,,,,,,,,,,,,,,,,,,,,,,,,,,,2517.4208639450003,None,2517.4208639450003,None,2517.4208639450003,None,g,1,1.156642027000089,2518.937268726,None,2518.937268726,None,2518.937268726,None,2520.154191417,None,2520.154191417,None,2520.154191417,None,2520.154191417,None,,,,,,,,,,,,,,,,,,,,,,,,,,,,,,,,,,,,,,,,,,,,001,144,2020_Feb_20_0923,spring_faces,3.2.3,60.02417677804763,
condition files/Stage0c_2.xlsx,0c,phi,alpha,h,"['h', 'g']","['Chess', 'Go']","[-0.15, 0.5]","[0.15, 0.5]",1,1,0,13,13,13,0,2,2,1,,,,,,,,,,,,,,,,,,,,,,,,,,,,,,,,,,,,,,,,,,,,,,,,,,,,,,,,,,,,,,,2522.137520405,None,2522.137520405,None,2522.137520405,None,h,1,0.8077655500001129,2523.654185762,None,2523.654185762,None,2523.654185762,None,2524.5208386550003,None,2524.5208386550003,None,2524.5208386550003,None,2524.5208386550003,None,,,,,,,,,,,,,,,,,,,,,,,,,,,,,,,,,,,,,,,,,,,,001,144,2020_Feb_20_0923,spring_faces,3.2.3,60.02417677804763,
condition files/Stage0c_2.xlsx,0c,alpha,theta,h,"['h', 'g']","['Chess', 'Go']","[-0.15, 0.5]","[0.15, 0.5]",1,1,0,13,13,13,0,3,3,0,,,,,,,,,,,,,,,,,,,,,,,,,,,,,,,,,,,,,,,,,,,,,,,,,,,,,,,,,,,,,,,2526.5042167340002,None,2526.5042167340002,None,2526.5042167340002,None,h,1,0.873123048999787,2528.020794224,None,2528.020794224,None,2528.020794224,None,2528.954197033,None,2528.954197033,None,2528.954197033,None,2528.954197033,None,,,,,,,,,,,,,,,,,,,,,,,,,,,,,,,,,,,,,,,,,,,,001,144,2020_Feb_20_0923,spring_faces,3.2.3,60.02417677804763,
condition files/Stage0c_1.xlsx,0c,theta,alpha,h,"['h', 'g']","['Chess', 'Go']","[-0.15, 0.5]","[0.15, 0.5]",1,1,0,14,14,14,0,0,0,0,,,,,,,,,,,,,,,,,,,,,,,,,,,,,,,,,,,,,,,,,,,,,,,,,,,,,,,,,,,,,,,2530.9541796860003,None,2530.9541796860003,None,2530.9541796860003,None,h,1,1.686411876999955,2532.487503244,None,2532.487503244,None,2532.487503244,None,2534.237528248,None,2534.237528248,None,2534.237528248,None,2534.237528248,None,,,,,,,,,,,,,,,,,,,,,,,,,,,,,,,,,,,,,,,,,,,,001,144,2020_Feb_20_0923,spring_faces,3.2.3,60.02417677804763,
condition files/Stage0c_1.xlsx,0c,alpha,phi,h,"['h', 'g']","['Chess', 'Go']","[-0.15, 0.5]","[0.15, 0.5]",1,1,0,14,14,14,0,1,1,1,,,,,,,,,,,,,,,,,,,,,,,,,,,,,,,,,,,,,,,,,,,,,,,,,,,,,,,,,,,,,,,2536.220838053,None,2536.220838053,None,2536.220838053,None,h,1,0.8205488929997955,2537.737380249,None,2537.737380249,None,2537.737380249,None,2538.620858227,None,2538.620858227,None,2538.620858227,None,2538.620858227,None,,,,,,,,,,,,,,,,,,,,,,,,,,,,,,,,,,,,,,,,,,,,001,144,2020_Feb_20_0923,spring_faces,3.2.3,60.02417677804763,
condition files/Stage0c_1.xlsx,0c,phi,beta,g,"['h', 'g']","['Chess', 'Go']","[-0.15, 0.5]","[0.15, 0.5]",1,1,0,14,14,14,0,2,2,3,,,,,,,,,,,,,,,,,,,,,,,,,,,,,,,,,,,,,,,,,,,,,,,,,,,,,,,,,,,,,,,2540.604200301,None,2540.604200301,None,2540.604200301,None,g,1,0.8054581410001447,2542.120491056,None,2542.120491056,None,2542.120491056,None,2542.9875003730003,None,2542.9875003730003,None,2542.9875003730003,None,2542.9875003730003,None,,,,,,,,,,,,,,,,,,,,,,,,,,,,,,,,,,,,,,,,,,,,001,144,2020_Feb_20_0923,spring_faces,3.2.3,60.02417677804763,
condition files/Stage0c_1.xlsx,0c,beta,theta,g,"['h', 'g']","['Chess', 'Go']","[-0.15, 0.5]","[0.15, 0.5]",1,1,0,14,14,14,0,3,3,2,,,,,,,,,,,,,,,,,,,,,,,,,,,,,,,,,,,,,,,,,,,,,,,,,,,,,,,,,,,,,,,2544.970857284,None,2544.970857284,None,2544.970857284,None,g,1,0.7897181359999195,2546.5041950620002,None,2546.5041950620002,None,2546.5041950620002,None,2547.354174872,None,2547.354174872,None,2547.354174872,None,2547.354174872,None,,,,,,,,,,,,,,,,,,,,,,,,,,,,,,,,,,,,,,,,,,,,001,144,2020_Feb_20_0923,spring_faces,3.2.3,60.02417677804763,
condition files/Stage0c_2.xlsx,0c,alpha,theta,h,"['h', 'g']","['Chess', 'Go']","[-0.15, 0.5]","[0.15, 0.5]",1,1,0,15,15,15,0,0,0,0,,,,,,,,,,,,,,,,,,,,,,,,,,,,,,,,,,,,,,,,,,,,,,,,,,,,,,,,,,,,,,,2549.354206133,None,2549.354206133,None,2549.354206133,None,h,1,0.790361976999975,2550.8875252810003,None,2550.8875252810003,None,2550.8875252810003,None,2551.737503842,None,2551.737503842,None,2551.737503842,None,2551.737503842,None,,,,,,,,,,,,,,,,,,,,,,,,,,,,,,,,,,,,,,,,,,,,001,144,2020_Feb_20_0923,spring_faces,3.2.3,60.02417677804763,
condition files/Stage0c_2.xlsx,0c,theta,beta,g,"['h', 'g']","['Chess', 'Go']","[-0.15, 0.5]","[0.15, 0.5]",1,1,0,15,15,15,0,1,1,2,,,,,,,,,,,,,,,,,,,,,,,,,,,,,,,,,,,,,,,,,,,,,,,,,,,,,,,,,,,,,,,2553.7208886840003,None,2553.7208886840003,None,2553.7208886840003,None,g,1,0.7444414369997503,2555.2375091510003,None,2555.2375091510003,None,2555.2375091510003,None,2556.0375286940002,None,2556.0375286940002,None,2556.0375286940002,None,2556.0375286940002,None,,,,,,,,,,,,,,,,,,,,,,,,,,,,,,,,,,,,,,,,,,,,001,144,2020_Feb_20_0923,spring_faces,3.2.3,60.02417677804763,
condition files/Stage0c_2.xlsx,0c,phi,alpha,h,"['h', 'g']","['Chess', 'Go']","[-0.15, 0.5]","[0.15, 0.5]",1,1,0,15,15,15,0,2,2,1,,,,,,,,,,,,,,,,,,,,,,,,,,,,,,,,,,,,,,,,,,,,,,,,,,,,,,,,,,,,,,,2558.020840838,None,2558.020840838,None,2558.020840838,None,h,1,0.7806667300001209,2559.5373620190003,None,2559.5373620190003,None,2559.5373620190003,None,2560.370823565,None,2560.370823565,None,2560.370823565,None,2560.370823565,None,,,,,,,,,,,,,,,,,,,,,,,,,,,,,,,,,,,,,,,,,,,,001,144,2020_Feb_20_0923,spring_faces,3.2.3,60.02417677804763,
condition files/Stage0c_2.xlsx,0c,beta,phi,g,"['h', 'g']","['Chess', 'Go']","[-0.15, 0.5]","[0.15, 0.5]",1,1,0,15,15,15,0,3,3,3,,,,,,,,,,,,,,,,,,,,,,,,,,,,,,,,,,,,,,,,,,,,,,,,,,,,,,,,,,,,,,,2562.3541988720003,None,2562.3541988720003,None,2562.3541988720003,None,g,1,0.57526959300003,2563.870703035,None,2563.870703035,None,2563.870703035,None,2564.5042092010003,None,2564.5042092010003,None,2564.5042092010003,None,2564.5042092010003,None,,,,,,,,,,,,,,,,,,,,,,,,,,,,,,,,,,,,,,,,,,,,001,144,2020_Feb_20_0923,spring_faces,3.2.3,60.02417677804763,
condition files/Stage0c_1.xlsx,0c,beta,theta,g,"['h', 'g']","['Chess', 'Go']","[-0.15, 0.5]","[0.15, 0.5]",1,1,0,16,16,16,0,0,0,2,,,,,,,,,,,,,,,,,,,,,,,,,,,,,,,,,,,,,,,,,,,,,,,,,,,,,,,,,,,,,,,2566.5041760920003,None,2566.5041760920003,None,2566.5041760920003,None,g,1,0.6965073540000049,2568.037502059,None,2568.037502059,None,2568.037502059,None,2568.787455995,None,2568.787455995,None,2568.787455995,None,2568.787455995,None,,,,,,,,,,,,,,,,,,,,,,,,,,,,,,,,,,,,,,,,,,,,001,144,2020_Feb_20_0923,spring_faces,3.2.3,60.02417677804763,
condition files/Stage0c_1.xlsx,0c,phi,beta,g,"['h', 'g']","['Chess', 'Go']","[-0.15, 0.5]","[0.15, 0.5]",1,1,0,16,16,16,0,1,1,3,,,,,,,,,,,,,,,,,,,,,,,,,,,,,,,,,,,,,,,,,,,,,,,,,,,,,,,,,,,,,,,2570.770839792,None,2570.770839792,None,2570.770839792,None,g,1,0.8466003109997473,2572.287386261,None,2572.287386261,None,2572.287386261,None,2573.187502663,None,2573.187502663,None,2573.187502663,None,2573.187502663,None,,,,,,,,,,,,,,,,,,,,,,,,,,,,,,,,,,,,,,,,,,,,001,144,2020_Feb_20_0923,spring_faces,3.2.3,60.02417677804763,
condition files/Stage0c_1.xlsx,0c,theta,alpha,h,"['h', 'g']","['Chess', 'Go']","[-0.15, 0.5]","[0.15, 0.5]",1,1,0,16,16,16,0,2,2,0,,,,,,,,,,,,,,,,,,,,,,,,,,,,,,,,,,,,,,,,,,,,,,,,,,,,,,,,,,,,,,,2575.170837566,None,2575.170837566,None,2575.170837566,None,h,1,0.670506375000059,2576.68745152,None,2576.68745152,None,2576.68745152,None,2577.420853562,None,2577.420853562,None,2577.420853562,None,2577.420853562,None,,,,,,,,,,,,,,,,,,,,,,,,,,,,,,,,,,,,,,,,,,,,001,144,2020_Feb_20_0923,spring_faces,3.2.3,60.02417677804763,
condition files/Stage0c_1.xlsx,0c,alpha,phi,h,"['h', 'g']","['Chess', 'Go']","[-0.15, 0.5]","[0.15, 0.5]",1,1,0,16,16,16,0,3,3,1,,,,,,,,,,,,,,,,,,,,,,,,,,,,,,,,,,,,,,,,,,,,,,,,,,,,,,,,,,,,,,,2579.404172443,None,2579.404172443,None,2579.404172443,None,g,0,0.5165120449996721,2580.937514882,None,2580.937514882,None,2580.937514882,None,2581.50412496,None,2581.50412496,None,2581.50412496,None,2581.50412496,None,,,,,,,,,,,,,,,,,,,,,,,,,,,,,,,,,,,,,,,,,,,,001,144,2020_Feb_20_0923,spring_faces,3.2.3,60.02417677804763,
condition files/Stage0c_2.xlsx,0c,beta,phi,g,"['h', 'g']","['Chess', 'Go']","[-0.15, 0.5]","[0.15, 0.5]",1,1,0,17,17,17,0,0,0,3,,,,,,,,,,,,,,,,,,,,,,,,,,,,,,,,,,,,,,,,,,,,,,,,,,,,,,,,,,,,,,,2583.5041196800003,None,2583.5041196800003,None,2583.5041196800003,None,g,1,0.38437436200001684,2585.037502211,None,2585.037502211,None,2585.037502211,None,2585.487475754,None,2585.487475754,None,2585.487475754,None,2585.487475754,None,,,,,,,,,,,,,,,,,,,,,,,,,,,,,,,,,,,,,,,,,,,,001,144,2020_Feb_20_0923,spring_faces,3.2.3,60.02417677804763,
condition files/Stage0c_2.xlsx,0c,alpha,theta,h,"['h', 'g']","['Chess', 'Go']","[-0.15, 0.5]","[0.15, 0.5]",1,1,0,17,17,17,0,1,1,0,,,,,,,,,,,,,,,,,,,,,,,,,,,,,,,,,,,,,,,,,,,,,,,,,,,,,,,,,,,,,,,2587.470866576,None,2587.470866576,None,2587.470866576,None,h,1,0.5617811059996711,2589.004173143,None,2589.004173143,None,2589.004173143,None,2589.6208586380003,None,2589.6208586380003,None,2589.6208586380003,None,2589.6208586380003,None,,,,,,,,,,,,,,,,,,,,,,,,,,,,,,,,,,,,,,,,,,,,001,144,2020_Feb_20_0923,spring_faces,3.2.3,60.02417677804763,
condition files/Stage0c_2.xlsx,0c,phi,alpha,h,"['h', 'g']","['Chess', 'Go']","[-0.15, 0.5]","[0.15, 0.5]",1,1,0,17,17,17,0,2,2,1,,,,,,,,,,,,,,,,,,,,,,,,,,,,,,,,,,,,,,,,,,,,,,,,,,,,,,,,,,,,,,,2591.620836015,None,2591.620836015,None,2591.620836015,None,h,1,0.6997011140001632,2593.154193064,None,2593.154193064,None,2593.154193064,None,2593.904196796,None,2593.904196796,None,2593.904196796,None,2593.904196796,None,,,,,,,,,,,,,,,,,,,,,,,,,,,,,,,,,,,,,,,,,,,,001,144,2020_Feb_20_0923,spring_faces,3.2.3,60.02417677804763,
condition files/Stage0c_2.xlsx,0c,theta,beta,g,"['h', 'g']","['Chess', 'Go']","[-0.15, 0.5]","[0.15, 0.5]",1,1,0,17,17,17,0,3,3,2,,,,,,,,,,,,,,,,,,,,,,,,,,,,,,,,,,,,,,,,,,,,,,,,,,,,,,,,,,,,,,,2595.887534818,None,2595.887534818,None,2595.887534818,None,g,1,1.057997468999929,2597.40394449,None,2597.40394449,None,2597.40394449,None,2598.520857396,None,2598.520857396,None,2598.520857396,None,2598.520857396,None,,,,,,,,,,,,,,,,,,,,,,,,,,,,,,,,,,,,,,,,,,,,001,144,2020_Feb_20_0923,spring_faces,3.2.3,60.02417677804763,
,,,,,,,,,,,,,,,,,,,,,,,,,,,,,,,,,,,,,,,,,,,,,,,,,,,,,,,,,,,,,,,,,,,,,,,,,,,,,,,,,,,,,,,,,,,,,,,,,,,,,,,,2600.5041697,None,space,0.9265533279999545,2605.4874302440003,None,,,,,,,,,,,,,,,,,,,,,,,,,,,,,,,,,,,,,,001,144,2020_Feb_20_0923,spring_faces,3.2.3,60.02417677804763,
condition files/Stage1_1.xlsx,,B2,T1,m,"['c', 'm']","['Clue', 'Monopoly']","[-0.15, 0.5]","[0.15, 0.5]",1,1,,,,,,,,,0,0,0,0,0,0,0,2,,,,,,,,,,,,,,,,,,,,,,,,,,,,,,,,,,,,,,,,,,,,,,,,,,,,,,,2606.804170644,None,2606.804170644,None,2606.804170644,None,m,1,1.415184546999626,2608.070855879,None,2608.070855879,None,2608.070855879,None,2609.570884322,None,2609.570884322,None,2609.570884322,None,2609.570884322,None,,,,,,,2605.4874302440003,None,,,,,,,,,,,,,,,,,,,,,,,,,,,,,,,,,,,,001,144,2020_Feb_20_0923,spring_faces,3.2.3,60.02417677804763,
condition files/Stage1_1.xlsx,,T1,B1,c,"['c', 'm']","['Clue', 'Monopoly']","[-0.15, 0.5]","[0.15, 0.5]",1,1,,,,,,,,,0,0,0,0,0,1,1,0,,,,,,,,,,,,,,,,,,,,,,,,,,,,,,,,,,,,,,,,,,,,,,,,,,,,,,,2611.5207600900003,None,2611.5207600900003,None,2611.5207600900003,None,m,0,2.333778150999933,2613.1041225510003,None,2613.1041225510003,None,2613.1041225510003,None,2615.520789573,None,2615.520789573,None,2615.520789573,None,2615.520789573,None,,,,,,,,,,,,,,,,,,,,,,,,,,,,,,,,,,,,,,,,,,,,001,144,2020_Feb_20_0923,spring_faces,3.2.3,60.02417677804763,
condition files/Stage1_1.xlsx,,T3,B4,c,"['c', 'm']","['Clue', 'Monopoly']","[-0.15, 0.5]","[0.15, 0.5]",1,1,,,,,,,,,0,0,0,0,0,2,2,5,,,,,,,,,,,,,,,,,,,,,,,,,,,,,,,,,,,,,,,,,,,,,,,,,,,,,,,2617.487531307,None,2617.487531307,None,2617.487531307,None,c,1,1.6785139140001775,2619.08746699,None,2619.08746699,None,2619.08746699,None,2620.837510146,None,2620.837510146,None,2620.837510146,None,2620.837510146,None,,,,,,,,,,,,,,,,,,,,,,,,,,,,,,,,,,,,,,,,,,,,001,144,2020_Feb_20_0923,spring_faces,3.2.3,60.02417677804763,
condition files/Stage1_1.xlsx,,B4,T4,m,"['c', 'm']","['Clue', 'Monopoly']","[-0.15, 0.5]","[0.15, 0.5]",1,1,,,,,,,,,0,0,0,0,0,3,3,7,,,,,,,,,,,,,,,,,,,,,,,,,,,,,,,,,,,,,,,,,,,,,,,,,,,,,,,2622.804171073,None,2622.804171073,None,2622.804171073,None,m,1,1.804546400000163,2624.337413286,None,2624.337413286,None,2624.337413286,None,2626.220842647,None,2626.220842647,None,2626.220842647,None,2626.220842647,None,,,,,,,,,,,,,,,,,,,,,,,,,,,,,,,,,,,,,,,,,,,,001,144,2020_Feb_20_0923,spring_faces,3.2.3,60.02417677804763,
condition files/Stage1_1.xlsx,,B1,T2,c,"['c', 'm']","['Clue', 'Monopoly']","[-0.15, 0.5]","[0.15, 0.5]",1,1,,,,,,,,,0,0,0,0,0,4,4,1,,,,,,,,,,,,,,,,,,,,,,,,,,,,,,,,,,,,,,,,,,,,,,,,,,,,,,,2628.187517122,None,2628.187517122,None,2628.187517122,None,m,0,1.2849881930001175,2629.7208727790003,None,2629.7208727790003,None,2629.7208727790003,None,2631.087481216,None,2631.087481216,None,2631.087481216,None,2631.087481216,None,,,,,,,,,,,,,,,,,,,,,,,,,,,,,,,,,,,,,,,,,,,,001,144,2020_Feb_20_0923,spring_faces,3.2.3,60.02417677804763,
condition files/Stage1_1.xlsx,,B3,T3,c,"['c', 'm']","['Clue', 'Monopoly']","[-0.15, 0.5]","[0.15, 0.5]",1,1,,,,,,,,,0,0,0,0,0,5,5,4,,,,,,,,,,,,,,,,,,,,,,,,,,,,,,,,,,,,,,,,,,,,,,,,,,,,,,,2633.054204503,None,2633.054204503,None,2633.054204503,None,m,0,3.3623077650004234,2634.587542071,None,2634.587542071,None,2634.587542071,None,2638.020857372,None,2638.020857372,None,2638.020857372,None,2638.020857372,None,,,,,,,,,,,,,,,,,,,,,,,,,,,,,,,,,,,,,,,,,,,,001,144,2020_Feb_20_0923,spring_faces,3.2.3,60.02417677804763,
condition files/Stage1_1.xlsx,,T4,B3,m,"['c', 'm']","['Clue', 'Monopoly']","[-0.15, 0.5]","[0.15, 0.5]",1,1,,,,,,,,,0,0,0,0,0,6,6,6,,,,,,,,,,,,,,,,,,,,,,,,,,,,,,,,,,,,,,,,,,,,,,,,,,,,,,,2639.987510281,None,2639.987510281,None,2639.987510281,None,c,0,2.6851025849996404,2641.520787888,None,2641.520787888,None,2641.520787888,None,2644.287521545,None,2644.287521545,None,2644.287521545,None,2644.287521545,None,,,,,,,,,,,,,,,,,,,,,,,,,,,,,,,,,,,,,,,,,,,,001,144,2020_Feb_20_0923,spring_faces,3.2.3,60.02417677804763,
condition files/Stage1_1.xlsx,,T2,B2,m,"['c', 'm']","['Clue', 'Monopoly']","[-0.15, 0.5]","[0.15, 0.5]",1,1,,,,,,,,,0,0,0,0,0,7,7,3,,,,,,,,,,,,,,,,,,,,,,,,,,,,,,,,,,,,,,,,,,,,,,,,,,,,,,,2646.254197888,None,2646.254197888,None,2646.254197888,None,c,0,1.5223750559998734,2647.7875450680003,None,2647.7875450680003,None,2647.7875450680003,None,2649.3708392880003,None,2649.3708392880003,None,2649.3708392880003,None,2649.3708392880003,None,,,,,,,,,,,,,,,,,,,,,,,,,,,,,,,,,,,,,,,,,,,,001,144,2020_Feb_20_0923,spring_faces,3.2.3,60.02417677804763,
condition files/Stage1_2.xlsx,,B3,T4,m,"['c', 'm']","['Clue', 'Monopoly']","[-0.15, 0.5]","[0.15, 0.5]",1,1,,,,,,,,,0,1,1,1,0,0,0,6,,,,,,,,,,,,,,,,,,,,,,,,,,,,,,,,,,,,,,,,,,,,,,,,,,,,,,,2651.687376662,None,2651.687376662,None,2651.687376662,None,m,1,4.581907408999996,2652.904145376,None,2652.904145376,None,2652.904145376,None,2657.554199526,None,2657.554199526,None,2657.554199526,None,2657.554199526,None,,,,,,,,,,,,,,,,,,,,,,,,,,,,,,,,,,,,,,,,,,,,001,144,2020_Feb_20_0923,spring_faces,3.2.3,60.02417677804763,
condition files/Stage1_2.xlsx,,T2,B1,c,"['c', 'm']","['Clue', 'Monopoly']","[-0.15, 0.5]","[0.15, 0.5]",1,1,,,,,,,,,0,1,1,1,0,1,1,1,,,,,,,,,,,,,,,,,,,,,,,,,,,,,,,,,,,,,,,,,,,,,,,,,,,,,,,2659.520772802,None,2659.520772802,None,2659.520772802,None,c,1,1.2151934130001791,2661.070841239,None,2661.070841239,None,2661.070841239,None,2662.35417294,None,2662.35417294,None,2662.35417294,None,2662.35417294,None,,,,,,,,,,,,,,,,,,,,,,,,,,,,,,,,,,,,,,,,,,,,001,144,2020_Feb_20_0923,spring_faces,3.2.3,60.02417677804763,
condition files/Stage1_2.xlsx,,T4,B4,m,"['c', 'm']","['Clue', 'Monopoly']","[-0.15, 0.5]","[0.15, 0.5]",1,1,,,,,,,,,0,1,1,1,0,2,2,7,,,,,,,,,,,,,,,,,,,,,,,,,,,,,,,,,,,,,,,,,,,,,,,,,,,,,,,2664.3207635460003,None,2664.3207635460003,None,2664.3207635460003,None,c,0,1.5356704710002305,2665.854216477,None,2665.854216477,None,2665.854216477,None,2667.470785407,None,2667.470785407,None,2667.470785407,None,2667.470785407,None,,,,,,,,,,,,,,,,,,,,,,,,,,,,,,,,,,,,,,,,,,,,001,144,2020_Feb_20_0923,spring_faces,3.2.3,60.02417677804763,
condition files/Stage1_2.xlsx,,B1,T1,c,"['c', 'm']","['Clue', 'Monopoly']","[-0.15, 0.5]","[0.15, 0.5]",1,1,,,,,,,,,0,1,1,1,0,3,3,0,,,,,,,,,,,,,,,,,,,,,,,,,,,,,,,,,,,,,,,,,,,,,,,,,,,,,,,2669.437511953,None,2669.437511953,None,2669.437511953,None,m,0,1.5870084529997257,2670.970837598,None,2670.970837598,None,2670.970837598,None,2672.637551401,None,2672.637551401,None,2672.637551401,None,2672.637551401,None,,,,,,,,,,,,,,,,,,,,,,,,,,,,,,,,,,,,,,,,,,,,001,144,2020_Feb_20_0923,spring_faces,3.2.3,60.02417677804763,
condition files/Stage1_2.xlsx,,B2,T2,m,"['c', 'm']","['Clue', 'Monopoly']","[-0.15, 0.5]","[0.15, 0.5]",1,1,,,,,,,,,0,1,1,1,0,4,4,3,,,,,,,,,,,,,,,,,,,,,,,,,,,,,,,,,,,,,,,,,,,,,,,,,,,,,,,2674.604200848,None,2674.604200848,None,2674.604200848,None,m,1,0.7244485060000443,2676.137504288,None,2676.137504288,None,2676.137504288,None,2676.9375306290003,None,2676.9375306290003,None,2676.9375306290003,None,2676.9375306290003,None,,,,,,,,,,,,,,,,,,,,,,,,,,,,,,,,,,,,,,,,,,,,001,144,2020_Feb_20_0923,spring_faces,3.2.3,60.02417677804763,
condition files/Stage1_2.xlsx,,B4,T3,c,"['c', 'm']","['Clue', 'Monopoly']","[-0.15, 0.5]","[0.15, 0.5]",1,1,,,,,,,,,0,1,1,1,0,5,5,5,,,,,,,,,,,,,,,,,,,,,,,,,,,,,,,,,,,,,,,,,,,,,,,,,,,,,,,2678.904189482,None,2678.904189482,None,2678.904189482,None,c,1,1.9284228330002406,2680.437528753,None,2680.437528753,None,2680.437528753,None,2682.4375021680003,None,2682.4375021680003,None,2682.4375021680003,None,2682.4375021680003,None,,,,,,,,,,,,,,,,,,,,,,,,,,,,,,,,,,,,,,,,,,,,001,144,2020_Feb_20_0923,spring_faces,3.2.3,60.02417677804763,
condition files/Stage1_2.xlsx,,T1,B2,m,"['c', 'm']","['Clue', 'Monopoly']","[-0.15, 0.5]","[0.15, 0.5]",1,1,,,,,,,,,0,1,1,1,0,6,6,2,,,,,,,,,,,,,,,,,,,,,,,,,,,,,,,,,,,,,,,,,,,,,,,,,,,,,,,2684.4041694790003,None,2684.4041694790003,None,2684.4041694790003,None,m,1,1.6285019460001422,2685.937485644,None,2685.937485644,None,2685.937485644,None,2687.637531504,None,2687.637531504,None,2687.637531504,None,2687.637531504,None,,,,,,,,,,,,,,,,,,,,,,,,,,,,,,,,,,,,,,,,,,,,001,144,2020_Feb_20_0923,spring_faces,3.2.3,60.02417677804763,
condition files/Stage1_2.xlsx,,T3,B3,c,"['c', 'm']","['Clue', 'Monopoly']","[-0.15, 0.5]","[0.15, 0.5]",1,1,,,,,,,,,0,1,1,1,0,7,7,4,,,,,,,,,,,,,,,,,,,,,,,,,,,,,,,,,,,,,,,,,,,,,,,,,,,,,,,2689.604222561,None,2689.604222561,None,2689.604222561,None,c,1,2.1724697079998805,2691.1374800880003,None,2691.1374800880003,None,2691.1374800880003,None,2693.387527471,None,2693.387527471,None,2693.387527471,None,2693.387527471,None,,,,,,,,,,,,,,,,,,,,,,,,,,,,,,,,,,,,,,,,,,,,001,144,2020_Feb_20_0923,spring_faces,3.2.3,60.02417677804763,
condition files/Stage1_1.xlsx,,T2,B2,m,"['c', 'm']","['Clue', 'Monopoly']","[-0.15, 0.5]","[0.15, 0.5]",1,1,,,,,,,,,0,2,2,2,0,0,0,3,,,,,,,,,,,,,,,,,,,,,,,,,,,,,,,,,,,,,,,,,,,,,,,,,,,,,,,2695.370870975,None,2695.370870975,None,2695.370870975,None,m,1,1.6697487100000217,2696.904198008,None,2696.904198008,None,2696.904198008,None,2698.654208516,None,2698.654208516,None,2698.654208516,None,2698.654208516,None,,,,,,,,,,,,,,,,,,,,,,,,,,,,,,,,,,,,,,,,,,,,001,144,2020_Feb_20_0923,spring_faces,3.2.3,60.02417677804763,
condition files/Stage1_1.xlsx,,B4,T4,m,"['c', 'm']","['Clue', 'Monopoly']","[-0.15, 0.5]","[0.15, 0.5]",1,1,,,,,,,,,0,2,2,2,0,1,1,7,,,,,,,,,,,,,,,,,,,,,,,,,,,,,,,,,,,,,,,,,,,,,,,,,,,,,,,2700.6208583370003,None,2700.6208583370003,None,2700.6208583370003,None,c,0,1.4917446259996723,2702.154207768,None,2702.154207768,None,2702.154207768,None,2703.7041683810003,None,2703.7041683810003,None,2703.7041683810003,None,2703.7041683810003,None,,,,,,,,,,,,,,,,,,,,,,,,,,,,,,,,,,,,,,,,,,,,001,144,2020_Feb_20_0923,spring_faces,3.2.3,60.02417677804763,
condition files/Stage1_1.xlsx,,T4,B3,m,"['c', 'm']","['Clue', 'Monopoly']","[-0.15, 0.5]","[0.15, 0.5]",1,1,,,,,,,,,0,2,2,2,0,2,2,6,,,,,,,,,,,,,,,,,,,,,,,,,,,,,,,,,,,,,,,,,,,,,,,,,,,,,,,2705.687555067,None,2705.687555067,None,2705.687555067,None,m,1,0.7930919089999406,2707.2208569160002,None,2707.2208569160002,None,2707.2208569160002,None,2708.070863283,None,2708.070863283,None,2708.070863283,None,2708.070863283,None,,,,,,,,,,,,,,,,,,,,,,,,,,,,,,,,,,,,,,,,,,,,001,144,2020_Feb_20_0923,spring_faces,3.2.3,60.02417677804763,
condition files/Stage1_1.xlsx,,T1,B1,c,"['c', 'm']","['Clue', 'Monopoly']","[-0.15, 0.5]","[0.15, 0.5]",1,1,,,,,,,,,0,2,2,2,0,3,3,0,,,,,,,,,,,,,,,,,,,,,,,,,,,,,,,,,,,,,,,,,,,,,,,,,,,,,,,2710.054098208,None,2710.054098208,None,2710.054098208,None,c,1,0.3145143910001025,2711.587517841,None,2711.587517841,None,2711.587517841,None,2711.9708735550003,None,2711.9708735550003,None,2711.9708735550003,None,2711.9708735550003,None,,,,,,,,,,,,,,,,,,,,,,,,,,,,,,,,,,,,,,,,,,,,001,144,2020_Feb_20_0923,spring_faces,3.2.3,60.02417677804763,
condition files/Stage1_1.xlsx,,B3,T3,c,"['c', 'm']","['Clue', 'Monopoly']","[-0.15, 0.5]","[0.15, 0.5]",1,1,,,,,,,,,0,2,2,2,0,4,4,4,,,,,,,,,,,,,,,,,,,,,,,,,,,,,,,,,,,,,,,,,,,,,,,,,,,,,,,2713.937558825,None,2713.937558825,None,2713.937558825,None,m,0,0.2550580480001372,2715.47086051,None,2715.47086051,None,2715.47086051,None,2715.804167069,None,2715.804167069,None,2715.804167069,None,2715.804167069,None,,,,,,,,,,,,,,,,,,,,,,,,,,,,,,,,,,,,,,,,,,,,001,144,2020_Feb_20_0923,spring_faces,3.2.3,60.02417677804763,
condition files/Stage1_1.xlsx,,B2,T1,m,"['c', 'm']","['Clue', 'Monopoly']","[-0.15, 0.5]","[0.15, 0.5]",1,1,,,,,,,,,0,2,2,2,0,5,5,2,,,,,,,,,,,,,,,,,,,,,,,,,,,,,,,,,,,,,,,,,,,,,,,,,,,,,,,2717.7708422250003,None,2717.7708422250003,None,2717.7708422250003,None,c,0,0.3576408700000684,2719.304177751,None,2719.304177751,None,2719.304177751,None,2719.737530323,None,2719.737530323,None,2719.737530323,None,2719.737530323,None,,,,,,,,,,,,,,,,,,,,,,,,,,,,,,,,,,,,,,,,,,,,001,144,2020_Feb_20_0923,spring_faces,3.2.3,60.02417677804763,
condition files/Stage1_1.xlsx,,T3,B4,c,"['c', 'm']","['Clue', 'Monopoly']","[-0.15, 0.5]","[0.15, 0.5]",1,1,,,,,,,,,0,2,2,2,0,6,6,5,,,,,,,,,,,,,,,,,,,,,,,,,,,,,,,,,,,,,,,,,,,,,,,,,,,,,,,2721.704226196,None,2721.704226196,None,2721.704226196,None,c,1,0.2964475999997376,2723.237531607,None,2723.237531607,None,2723.237531607,None,2723.6041767710003,None,2723.6041767710003,None,2723.6041767710003,None,2723.6041767710003,None,,,,,,,,,,,,,,,,,,,,,,,,,,,,,,,,,,,,,,,,,,,,001,144,2020_Feb_20_0923,spring_faces,3.2.3,60.02417677804763,
condition files/Stage1_1.xlsx,,B1,T2,c,"['c', 'm']","['Clue', 'Monopoly']","[-0.15, 0.5]","[0.15, 0.5]",1,1,,,,,,,,,0,2,2,2,0,7,7,1,,,,,,,,,,,,,,,,,,,,,,,,,,,,,,,,,,,,,,,,,,,,,,,,,,,,,,,2725.570820196,None,2725.570820196,None,2725.570820196,None,m,0,0.621822186999907,2727.104128807,None,2727.104128807,None,2727.104128807,None,2727.804216668,None,2727.804216668,None,2727.804216668,None,2727.804216668,None,,,,,,,,,,,,,,,,,,,,,,,,,,,,,,,,,,,,,,,,,,,,001,144,2020_Feb_20_0923,spring_faces,3.2.3,60.02417677804763,
condition files/Stage1_2.xlsx,,B3,T4,m,"['c', 'm']","['Clue', 'Monopoly']","[-0.15, 0.5]","[0.15, 0.5]",1,1,,,,,,,,,0,3,3,3,0,0,0,6,,,,,,,,,,,,,,,,,,,,,,,,,,,,,,,,,,,,,,,,,,,,,,,,,,,,,,,2729.78752109,None,2729.78752109,None,2729.78752109,None,m,1,0.26110151800003223,2731.320865877,None,2731.320865877,None,2731.320865877,None,2731.654179659,None,2731.654179659,None,2731.654179659,None,2731.654179659,None,,,,,,,,,,,,,,,,,,,,,,,,,,,,,,,,,,,,,,,,,,,,001,144,2020_Feb_20_0923,spring_faces,3.2.3,60.02417677804763,
condition files/Stage1_2.xlsx,,B1,T1,c,"['c', 'm']","['Clue', 'Monopoly']","[-0.15, 0.5]","[0.15, 0.5]",1,1,,,,,,,,,0,3,3,3,0,1,1,0,,,,,,,,,,,,,,,,,,,,,,,,,,,,,,,,,,,,,,,,,,,,,,,,,,,,,,,2733.620865439,None,2733.620865439,None,2733.620865439,None,c,1,0.347834160000275,2735.1541808290003,None,2735.1541808290003,None,2735.1541808290003,None,2735.5708587510003,None,2735.5708587510003,None,2735.5708587510003,None,2735.5708587510003,None,,,,,,,,,,,,,,,,,,,,,,,,,,,,,,,,,,,,,,,,,,,,001,144,2020_Feb_20_0923,spring_faces,3.2.3,60.02417677804763,
condition files/Stage1_2.xlsx,,T4,B4,m,"['c', 'm']","['Clue', 'Monopoly']","[-0.15, 0.5]","[0.15, 0.5]",1,1,,,,,,,,,0,3,3,3,0,2,2,7,,,,,,,,,,,,,,,,,,,,,,,,,,,,,,,,,,,,,,,,,,,,,,,,,,,,,,,2737.5374396400002,None,2737.5374396400002,None,2737.5374396400002,None,c,0,1.887165152000307,2739.07078457,None,2739.07078457,None,2739.07078457,None,2741.037534613,None,2741.037534613,None,2741.037534613,None,2741.037534613,None,,,,,,,,,,,,,,,,,,,,,,,,,,,,,,,,,,,,,,,,,,,,001,144,2020_Feb_20_0923,spring_faces,3.2.3,60.02417677804763,
condition files/Stage1_2.xlsx,,T1,B2,m,"['c', 'm']","['Clue', 'Monopoly']","[-0.15, 0.5]","[0.15, 0.5]",1,1,,,,,,,,,0,3,3,3,0,3,3,2,,,,,,,,,,,,,,,,,,,,,,,,,,,,,,,,,,,,,,,,,,,,,,,,,,,,,,,2743.004193532,None,2743.004193532,None,2743.004193532,None,m,1,0.4043870999998944,2744.537537861,None,2744.537537861,None,2744.537537861,None,2745.0208666870003,None,2745.0208666870003,None,2745.0208666870003,None,2745.0208666870003,None,,,,,,,,,,,,,,,,,,,,,,,,,,,,,,,,,,,,,,,,,,,,001,144,2020_Feb_20_0923,spring_faces,3.2.3,60.02417677804763,
condition files/Stage1_2.xlsx,,T3,B3,c,"['c', 'm']","['Clue', 'Monopoly']","[-0.15, 0.5]","[0.15, 0.5]",1,1,,,,,,,,,0,3,3,3,0,4,4,4,,,,,,,,,,,,,,,,,,,,,,,,,,,,,,,,,,,,,,,,,,,,,,,,,,,,,,,2746.987562821,None,2746.987562821,None,2746.987562821,None,c,1,0.29308285800016165,2748.520865983,None,2748.520865983,None,2748.520865983,None,2748.887526295,None,2748.887526295,None,2748.887526295,None,2748.887526295,None,,,,,,,,,,,,,,,,,,,,,,,,,,,,,,,,,,,,,,,,,,,,001,144,2020_Feb_20_0923,spring_faces,3.2.3,60.02417677804763,
condition files/Stage1_2.xlsx,,B4,T3,c,"['c', 'm']","['Clue', 'Monopoly']","[-0.15, 0.5]","[0.15, 0.5]",1,1,,,,,,,,,0,3,3,3,0,5,5,5,,,,,,,,,,,,,,,,,,,,,,,,,,,,,,,,,,,,,,,,,,,,,,,,,,,,,,,2750.8542019280003,None,2750.8542019280003,None,2750.8542019280003,None,c,1,0.31471806200033825,2752.387308403,None,2752.387308403,None,2752.387308403,None,2752.770841331,None,2752.770841331,None,2752.770841331,None,2752.770841331,None,,,,,,,,,,,,,,,,,,,,,,,,,,,,,,,,,,,,,,,,,,,,001,144,2020_Feb_20_0923,spring_faces,3.2.3,60.02417677804763,
condition files/Stage1_2.xlsx,,B2,T2,m,"['c', 'm']","['Clue', 'Monopoly']","[-0.15, 0.5]","[0.15, 0.5]",1,1,,,,,,,,,0,3,3,3,0,6,6,3,,,,,,,,,,,,,,,,,,,,,,,,,,,,,,,,,,,,,,,,,,,,,,,,,,,,,,,2754.73742884,None,2754.73742884,None,2754.73742884,None,m,1,0.23907450700016852,2756.270850466,None,2756.270850466,None,2756.270850466,None,2756.587510529,None,2756.587510529,None,2756.587510529,None,2756.587510529,None,,,,,,,,,,,,,,,,,,,,,,,,,,,,,,,,,,,,,,,,,,,,001,144,2020_Feb_20_0923,spring_faces,3.2.3,60.02417677804763,
condition files/Stage1_2.xlsx,,T2,B1,c,"['c', 'm']","['Clue', 'Monopoly']","[-0.15, 0.5]","[0.15, 0.5]",1,1,,,,,,,,,0,3,3,3,0,7,7,1,,,,,,,,,,,,,,,,,,,,,,,,,,,,,,,,,,,,,,,,,,,,,,,,,,,,,,,2758.554167103,None,2758.554167103,None,2758.554167103,None,m,0,0.2464576689999376,2760.087519494,None,2760.087519494,None,2760.087519494,None,2760.404177502,None,2760.404177502,None,2760.404177502,None,2760.404177502,None,,,,,,,,,,,,,,,,,,,,,,,,,,,,,,,,,,,,,,,,,,,,001,144,2020_Feb_20_0923,spring_faces,3.2.3,60.02417677804763,
condition files/Stage1_1.xlsx,,B2,T1,m,"['c', 'm']","['Clue', 'Monopoly']","[-0.15, 0.5]","[0.15, 0.5]",1,1,,,,,,,,,0,4,4,4,0,0,0,2,,,,,,,,,,,,,,,,,,,,,,,,,,,,,,,,,,,,,,,,,,,,,,,,,,,,,,,2762.387498933,None,2762.387498933,None,2762.387498933,None,m,1,0.013213526000072306,2763.9207981520003,None,2763.9207981520003,None,2763.9207981520003,None,2764.004185346,None,2764.004185346,None,2764.004185346,None,2764.004185346,None,,,,,,,,,,,,,,,,,,,,,,,,,,,,,,,,,,,,,,,,,,,,001,144,2020_Feb_20_0923,spring_faces,3.2.3,60.02417677804763,
condition files/Stage1_1.xlsx,,T2,B2,m,"['c', 'm']","['Clue', 'Monopoly']","[-0.15, 0.5]","[0.15, 0.5]",1,1,,,,,,,,,0,4,4,4,0,1,1,3,,,,,,,,,,,,,,,,,,,,,,,,,,,,,,,,,,,,,,,,,,,,,,,,,,,,,,,2765.970825614,None,2765.970825614,None,2765.970825614,None,c,0,0.3017599129998416,2767.504130825,None,2767.504130825,None,2767.504130825,None,2767.870797766,None,2767.870797766,None,2767.870797766,None,2767.870797766,None,,,,,,,,,,,,,,,,,,,,,,,,,,,,,,,,,,,,,,,,,,,,001,144,2020_Feb_20_0923,spring_faces,3.2.3,60.02417677804763,
condition files/Stage1_1.xlsx,,B4,T4,m,"['c', 'm']","['Clue', 'Monopoly']","[-0.15, 0.5]","[0.15, 0.5]",1,1,,,,,,,,,0,4,4,4,0,2,2,7,,,,,,,,,,,,,,,,,,,,,,,,,,,,,,,,,,,,,,,,,,,,,,,,,,,,,,,2769.854195619,None,2769.854195619,None,2769.854195619,None,c,0,0.3062724569999773,2771.387550898,None,2771.387550898,None,2771.387550898,None,2771.754214521,None,2771.754214521,None,2771.754214521,None,2771.754214521,None,,,,,,,,,,,,,,,,,,,,,,,,,,,,,,,,,,,,,,,,,,,,001,144,2020_Feb_20_0923,spring_faces,3.2.3,60.02417677804763,
condition files/Stage1_1.xlsx,,T3,B4,c,"['c', 'm']","['Clue', 'Monopoly']","[-0.15, 0.5]","[0.15, 0.5]",1,1,,,,,,,,,0,4,4,4,0,3,3,5,,,,,,,,,,,,,,,,,,,,,,,,,,,,,,,,,,,,,,,,,,,,,,,,,,,,,,,2773.73751464,None,2773.73751464,None,2773.73751464,None,c,1,0.19919124900025054,2775.270848255,None,2775.270848255,None,2775.270848255,None,2775.537480294,None,2775.537480294,None,2775.537480294,None,2775.537480294,None,,,,,,,,,,,,,,,,,,,,,,,,,,,,,,,,,,,,,,,,,,,,001,144,2020_Feb_20_0923,spring_faces,3.2.3,60.02417677804763,
condition files/Stage1_1.xlsx,,B1,T2,c,"['c', 'm']","['Clue', 'Monopoly']","[-0.15, 0.5]","[0.15, 0.5]",1,1,,,,,,,,,0,4,4,4,0,4,4,1,,,,,,,,,,,,,,,,,,,,,,,,,,,,,,,,,,,,,,,,,,,,,,,,,,,,,,,2777.504118462,None,2777.504118462,None,2777.504118462,None,c,1,0.22440542300000743,2779.0375522540003,None,2779.0375522540003,None,2779.0375522540003,None,2779.320801809,None,2779.320801809,None,2779.320801809,None,2779.320801809,None,,,,,,,,,,,,,,,,,,,,,,,,,,,,,,,,,,,,,,,,,,,,001,144,2020_Feb_20_0923,spring_faces,3.2.3,60.02417677804763,
condition files/Stage1_1.xlsx,,T1,B1,c,"['c', 'm']","['Clue', 'Monopoly']","[-0.15, 0.5]","[0.15, 0.5]",1,1,,,,,,,,,0,4,4,4,0,5,5,0,,,,,,,,,,,,,,,,,,,,,,,,,,,,,,,,,,,,,,,,,,,,,,,,,,,,,,,2781.304229311,None,2781.304229311,None,2781.304229311,None,m,0,0.3444270219997634,2782.83752975,None,2782.83752975,None,2782.83752975,None,2783.254212577,None,2783.254212577,None,2783.254212577,None,2783.254212577,None,,,,,,,,,,,,,,,,,,,,,,,,,,,,,,,,,,,,,,,,,,,,001,144,2020_Feb_20_0923,spring_faces,3.2.3,60.02417677804763,
condition files/Stage1_1.xlsx,,T4,B3,m,"['c', 'm']","['Clue', 'Monopoly']","[-0.15, 0.5]","[0.15, 0.5]",1,1,,,,,,,,,0,4,4,4,0,6,6,6,,,,,,,,,,,,,,,,,,,,,,,,,,,,,,,,,,,,,,,,,,,,,,,,,,,,,,,2785.220865007,None,2785.220865007,None,2785.220865007,None,m,1,0.28367570899990824,2786.754198954,None,2786.754198954,None,2786.754198954,None,2787.120797591,None,2787.120797591,None,2787.120797591,None,2787.120797591,None,,,,,,,,,,,,,,,,,,,,,,,,,,,,,,,,,,,,,,,,,,,,001,144,2020_Feb_20_0923,spring_faces,3.2.3,60.02417677804763,
condition files/Stage1_1.xlsx,,B3,T3,c,"['c', 'm']","['Clue', 'Monopoly']","[-0.15, 0.5]","[0.15, 0.5]",1,1,,,,,,,,,0,4,4,4,0,7,7,4,,,,,,,,,,,,,,,,,,,,,,,,,,,,,,,,,,,,,,,,,,,,,,,,,,,,,,,2789.087433038,None,2789.087433038,None,2789.087433038,None,c,1,0.3370891740000843,2790.6208424710003,None,2790.6208424710003,None,2790.6208424710003,None,2791.037529061,None,2791.037529061,None,2791.037529061,None,2791.037529061,None,,,,,,,,,,,,,,,,,,,,,,,,,,,,,,,,,,,,,,,,,,,,001,144,2020_Feb_20_0923,spring_faces,3.2.3,60.02417677804763,
condition files/Stage1_2.xlsx,,T2,B1,c,"['c', 'm']","['Clue', 'Monopoly']","[-0.15, 0.5]","[0.15, 0.5]",1,1,,,,,,,,,0,5,5,5,0,0,0,1,,,,,,,,,,,,,,,,,,,,,,,,,,,,,,,,,,,,,,,,,,,,,,,,,,,,,,,2793.020841411,None,2793.020841411,None,2793.020841411,None,c,1,1.5557829930003209,2794.554169466,None,2794.554169466,None,2794.554169466,None,2796.187550792,None,2796.187550792,None,2796.187550792,None,2796.187550792,None,,,,,,,,,,,,,,,,,,,,,,,,,,,,,,,,,,,,,,,,,,,,001,144,2020_Feb_20_0923,spring_faces,3.2.3,60.02417677804763,
condition files/Stage1_2.xlsx,,T4,B4,m,"['c', 'm']","['Clue', 'Monopoly']","[-0.15, 0.5]","[0.15, 0.5]",1,1,,,,,,,,,0,5,5,5,0,1,1,7,,,,,,,,,,,,,,,,,,,,,,,,,,,,,,,,,,,,,,,,,,,,,,,,,,,,,,,2798.154220257,None,2798.154220257,None,2798.154220257,None,m,1,0.32640233500023896,2799.687552663,None,2799.687552663,None,2799.687552663,None,2800.087509167,None,2800.087509167,None,2800.087509167,None,2800.087509167,None,,,,,,,,,,,,,,,,,,,,,,,,,,,,,,,,,,,,,,,,,,,,001,144,2020_Feb_20_0923,spring_faces,3.2.3,60.02417677804763,
condition files/Stage1_2.xlsx,,B1,T1,c,"['c', 'm']","['Clue', 'Monopoly']","[-0.15, 0.5]","[0.15, 0.5]",1,1,,,,,,,,,0,5,5,5,0,2,2,0,,,,,,,,,,,,,,,,,,,,,,,,,,,,,,,,,,,,,,,,,,,,,,,,,,,,,,,2802.054203897,None,2802.054203897,None,2802.054203897,None,m,0,0.31448328800024683,2803.5875327480003,None,2803.5875327480003,None,2803.5875327480003,None,2803.970844132,None,2803.970844132,None,2803.970844132,None,2803.970844132,None,,,,,,,,,,,,,,,,,,,,,,,,,,,,,,,,,,,,,,,,,,,,001,144,2020_Feb_20_0923,spring_faces,3.2.3,60.02417677804763,
condition files/Stage1_2.xlsx,,T3,B3,c,"['c', 'm']","['Clue', 'Monopoly']","[-0.15, 0.5]","[0.15, 0.5]",1,1,,,,,,,,,0,5,5,5,0,3,3,4,,,,,,,,,,,,,,,,,,,,,,,,,,,,,,,,,,,,,,,,,,,,,,,,,,,,,,,2805.93751874,None,2805.93751874,None,2805.93751874,None,m,0,0.38324423200037927,2807.47079161,None,2807.47079161,None,2807.47079161,None,2807.920791505,None,2807.920791505,None,2807.920791505,None,2807.920791505,None,,,,,,,,,,,,,,,,,,,,,,,,,,,,,,,,,,,,,,,,,,,,001,144,2020_Feb_20_0923,spring_faces,3.2.3,60.02417677804763,
condition files/Stage1_2.xlsx,,B3,T4,m,"['c', 'm']","['Clue', 'Monopoly']","[-0.15, 0.5]","[0.15, 0.5]",1,1,,,,,,,,,0,5,5,5,0,4,4,6,,,,,,,,,,,,,,,,,,,,,,,,,,,,,,,,,,,,,,,,,,,,,,,,,,,,,,,2809.887514969,None,2809.887514969,None,2809.887514969,None,c,0,1.569065380000211,2811.42084548,None,2811.42084548,None,2811.42084548,None,2813.0708030250003,None,2813.0708030250003,None,2813.0708030250003,None,2813.0708030250003,None,,,,,,,,,,,,,,,,,,,,,,,,,,,,,,,,,,,,,,,,,,,,001,144,2020_Feb_20_0923,spring_faces,3.2.3,60.02417677804763,
condition files/Stage1_2.xlsx,,T1,B2,m,"['c', 'm']","['Clue', 'Monopoly']","[-0.15, 0.5]","[0.15, 0.5]",1,1,,,,,,,,,0,5,5,5,0,5,5,2,,,,,,,,,,,,,,,,,,,,,,,,,,,,,,,,,,,,,,,,,,,,,,,,,,,,,,,2815.037551594,None,2815.037551594,None,2815.037551594,None,m,1,0.13119049400029326,2816.570839174,None,2816.570839174,None,2816.570839174,None,2816.754206575,None,2816.754206575,None,2816.754206575,None,2816.754206575,None,,,,,,,,,,,,,,,,,,,,,,,,,,,,,,,,,,,,,,,,,,,,001,144,2020_Feb_20_0923,spring_faces,3.2.3,60.02417677804763,
condition files/Stage1_2.xlsx,,B4,T3,c,"['c', 'm']","['Clue', 'Monopoly']","[-0.15, 0.5]","[0.15, 0.5]",1,1,,,,,,,,,0,5,5,5,0,6,6,5,,,,,,,,,,,,,,,,,,,,,,,,,,,,,,,,,,,,,,,,,,,,,,,,,,,,,,,2818.737438873,None,2818.737438873,None,2818.737438873,None,m,0,0.07900491400005194,2820.270864383,None,2820.270864383,None,2820.270864383,None,2820.420886754,None,2820.420886754,None,2820.420886754,None,2820.420886754,None,,,,,,,,,,,,,,,,,,,,,,,,,,,,,,,,,,,,,,,,,,,,001,144,2020_Feb_20_0923,spring_faces,3.2.3,60.02417677804763,
condition files/Stage1_2.xlsx,,B2,T2,m,"['c', 'm']","['Clue', 'Monopoly']","[-0.15, 0.5]","[0.15, 0.5]",1,1,,,,,,,,,0,5,5,5,0,7,7,3,,,,,,,,,,,,,,,,,,,,,,,,,,,,,,,,,,,,,,,,,,,,,,,,,,,,,,,2822.38738584,None,2822.38738584,None,2822.38738584,None,m,1,0.23706133999985468,2823.920874451,None,2823.920874451,None,2823.920874451,None,2824.237517652,None,2824.237517652,None,2824.237517652,None,2824.237517652,None,,,,,,,,,,,,,,,,,,,,,,,,,,,,,,,,,,,,,,,,,,,,001,144,2020_Feb_20_0923,spring_faces,3.2.3,60.02417677804763,
condition files/Stage1_1.xlsx,,B3,T3,c,"['c', 'm']","['Clue', 'Monopoly']","[-0.15, 0.5]","[0.15, 0.5]",1,1,,,,,,,,,0,6,6,6,0,0,0,4,,,,,,,,,,,,,,,,,,,,,,,,,,,,,,,,,,,,,,,,,,,,,,,,,,,,,,,2826.220841959,None,2826.220841959,None,2826.220841959,None,m,0,0.16385055600039777,2827.754174224,None,2827.754174224,None,2827.754174224,None,2827.9875371020003,None,2827.9875371020003,None,2827.9875371020003,None,2827.9875371020003,None,,,,,,,,,,,,,,,,,,,,,,,,,,,,,,,,,,,,,,,,,,,,001,144,2020_Feb_20_0923,spring_faces,3.2.3,60.02417677804763,
condition files/Stage1_1.xlsx,,T2,B2,m,"['c', 'm']","['Clue', 'Monopoly']","[-0.15, 0.5]","[0.15, 0.5]",1,1,,,,,,,,,0,6,6,6,0,1,1,3,,,,,,,,,,,,,,,,,,,,,,,,,,,,,,,,,,,,,,,,,,,,,,,,,,,,,,,2829.95422182,None,2829.95422182,None,2829.95422182,None,m,1,0.014561832999788749,2831.487489399,None,2831.487489399,None,2831.487489399,None,2831.5708695850003,None,2831.5708695850003,None,2831.5708695850003,None,2831.5708695850003,None,,,,,,,,,,,,,,,,,,,,,,,,,,,,,,,,,,,,,,,,,,,,001,144,2020_Feb_20_0923,spring_faces,3.2.3,60.02417677804763,
condition files/Stage1_1.xlsx,,T3,B4,c,"['c', 'm']","['Clue', 'Monopoly']","[-0.15, 0.5]","[0.15, 0.5]",1,1,,,,,,,,,0,6,6,6,0,2,2,5,,,,,,,,,,,,,,,,,,,,,,,,,,,,,,,,,,,,,,,,,,,,,,,,,,,,,,,2833.537457205,None,2833.537457205,None,2833.537457205,None,m,0,0.11107033700000102,2835.070884436,None,2835.070884436,None,2835.070884436,None,2835.254201315,None,2835.254201315,None,2835.254201315,None,2835.254201315,None,,,,,,,,,,,,,,,,,,,,,,,,,,,,,,,,,,,,,,,,,,,,001,144,2020_Feb_20_0923,spring_faces,3.2.3,60.02417677804763,
condition files/Stage1_1.xlsx,,T1,B1,c,"['c', 'm']","['Clue', 'Monopoly']","[-0.15, 0.5]","[0.15, 0.5]",1,1,,,,,,,,,0,6,6,6,0,3,3,0,,,,,,,,,,,,,,,,,,,,,,,,,,,,,,,,,,,,,,,,,,,,,,,,,,,,,,,2837.220860518,None,2837.220860518,None,2837.220860518,None,m,0,0.203725700999712,2838.754201503,None,2838.754201503,None,2838.754201503,None,2839.037548656,None,2839.037548656,None,2839.037548656,None,2839.037548656,None,,,,,,,,,,,,,,,,,,,,,,,,,,,,,,,,,,,,,,,,,,,,001,144,2020_Feb_20_0923,spring_faces,3.2.3,60.02417677804763,
condition files/Stage1_1.xlsx,,B2,T1,m,"['c', 'm']","['Clue', 'Monopoly']","[-0.15, 0.5]","[0.15, 0.5]",1,1,,,,,,,,,0,6,6,6,0,4,4,2,,,,,,,,,,,,,,,,,,,,,,,,,,,,,,,,,,,,,,,,,,,,,,,,,,,,,,,2841.004187296,None,2841.004187296,None,2841.004187296,None,c,0,0.2764271680002821,2842.53753275,None,2842.53753275,None,2842.53753275,None,2842.887535765,None,2842.887535765,None,2842.887535765,None,2842.887535765,None,,,,,,,,,,,,,,,,,,,,,,,,,,,,,,,,,,,,,,,,,,,,001,144,2020_Feb_20_0923,spring_faces,3.2.3,60.02417677804763,
condition files/Stage1_1.xlsx,,B4,T4,m,"['c', 'm']","['Clue', 'Monopoly']","[-0.15, 0.5]","[0.15, 0.5]",1,1,,,,,,,,,0,6,6,6,0,5,5,7,,,,,,,,,,,,,,,,,,,,,,,,,,,,,,,,,,,,,,,,,,,,,,,,,,,,,,,2844.854227241,None,2844.854227241,None,2844.854227241,None,m,1,0.8584188989998438,2846.387527727,None,2846.387527727,None,2846.387527727,None,2847.304218665,None,2847.304218665,None,2847.304218665,None,2847.304218665,None,,,,,,,,,,,,,,,,,,,,,,,,,,,,,,,,,,,,,,,,,,,,001,144,2020_Feb_20_0923,spring_faces,3.2.3,60.02417677804763,
condition files/Stage1_1.xlsx,,B1,T2,c,"['c', 'm']","['Clue', 'Monopoly']","[-0.15, 0.5]","[0.15, 0.5]",1,1,,,,,,,,,0,6,6,6,0,6,6,1,,,,,,,,,,,,,,,,,,,,,,,,,,,,,,,,,,,,,,,,,,,,,,,,,,,,,,,2849.2875257230003,None,2849.2875257230003,None,2849.2875257230003,None,m,0,0.4570801609997943,2850.820902339,None,2850.820902339,None,2850.820902339,None,2851.3541854220002,None,2851.3541854220002,None,2851.3541854220002,None,2851.3541854220002,None,,,,,,,,,,,,,,,,,,,,,,,,,,,,,,,,,,,,,,,,,,,,001,144,2020_Feb_20_0923,spring_faces,3.2.3,60.02417677804763,
condition files/Stage1_1.xlsx,,T4,B3,m,"['c', 'm']","['Clue', 'Monopoly']","[-0.15, 0.5]","[0.15, 0.5]",1,1,,,,,,,,,0,6,6,6,0,7,7,6,,,,,,,,,,,,,,,,,,,,,,,,,,,,,,,,,,,,,,,,,,,,,,,,,,,,,,,2853.32085177,None,2853.32085177,None,2853.32085177,None,m,1,0.2478325520000908,2854.854183946,None,2854.854183946,None,2854.854183946,None,2855.17083254,None,2855.17083254,None,2855.17083254,None,2855.17083254,None,,,,,,,,,,,,,,,,,,,,,,,,,,,,,,,,,,,,,,,,,,,,001,144,2020_Feb_20_0923,spring_faces,3.2.3,60.02417677804763,
condition files/Stage1_2.xlsx,,B2,T2,m,"['c', 'm']","['Clue', 'Monopoly']","[-0.15, 0.5]","[0.15, 0.5]",1,1,,,,,,,,,0,7,7,7,0,0,0,3,,,,,,,,,,,,,,,,,,,,,,,,,,,,,,,,,,,,,,,,,,,,,,,,,,,,,,,2857.154171431,None,2857.154171431,None,2857.154171431,None,c,0,1.2945430690001558,2858.687457654,None,2858.687457654,None,2858.687457654,None,2860.0542032870003,None,2860.0542032870003,None,2860.0542032870003,None,2860.0542032870003,None,,,,,,,,,,,,,,,,,,,,,,,,,,,,,,,,,,,,,,,,,,,,001,144,2020_Feb_20_0923,spring_faces,3.2.3,60.02417677804763,
condition files/Stage1_2.xlsx,,T4,B4,m,"['c', 'm']","['Clue', 'Monopoly']","[-0.15, 0.5]","[0.15, 0.5]",1,1,,,,,,,,,0,7,7,7,0,1,1,7,,,,,,,,,,,,,,,,,,,,,,,,,,,,,,,,,,,,,,,,,,,,,,,,,,,,,,,2862.020890095,None,2862.020890095,None,2862.020890095,None,c,0,0.44375905800006876,2863.554198934,None,2863.554198934,None,2863.554198934,None,2864.054211795,None,2864.054211795,None,2864.054211795,None,2864.054211795,None,,,,,,,,,,,,,,,,,,,,,,,,,,,,,,,,,,,,,,,,,,,,001,144,2020_Feb_20_0923,spring_faces,3.2.3,60.02417677804763,
condition files/Stage1_2.xlsx,,B1,T1,c,"['c', 'm']","['Clue', 'Monopoly']","[-0.15, 0.5]","[0.15, 0.5]",1,1,,,,,,,,,0,7,7,7,0,2,2,0,,,,,,,,,,,,,,,,,,,,,,,,,,,,,,,,,,,,,,,,,,,,,,,,,,,,,,,2866.0375139820003,None,2866.0375139820003,None,2866.0375139820003,None,c,1,1.0030770550001762,2867.570842391,None,2867.570842391,None,2867.570842391,None,2868.654179086,None,2868.654179086,None,2868.654179086,None,2868.654179086,None,,,,,,,,,,,,,,,,,,,,,,,,,,,,,,,,,,,,,,,,,,,,001,144,2020_Feb_20_0923,spring_faces,3.2.3,60.02417677804763,
condition files/Stage1_2.xlsx,,T3,B3,c,"['c', 'm']","['Clue', 'Monopoly']","[-0.15, 0.5]","[0.15, 0.5]",1,1,,,,,,,,,0,7,7,7,0,3,3,4,,,,,,,,,,,,,,,,,,,,,,,,,,,,,,,,,,,,,,,,,,,,,,,,,,,,,,,2870.620873973,None,2870.620873973,None,2870.620873973,None,m,0,0.9318378309999389,2872.154183076,None,2872.154183076,None,2872.154183076,None,2873.1542030240003,None,2873.1542030240003,None,2873.1542030240003,None,2873.1542030240003,None,,,,,,,,,,,,,,,,,,,,,,,,,,,,,,,,,,,,,,,,,,,,001,144,2020_Feb_20_0923,spring_faces,3.2.3,60.02417677804763,
condition files/Stage1_2.xlsx,,B3,T4,m,"['c', 'm']","['Clue', 'Monopoly']","[-0.15, 0.5]","[0.15, 0.5]",1,1,,,,,,,,,0,7,7,7,0,4,4,6,,,,,,,,,,,,,,,,,,,,,,,,,,,,,,,,,,,,,,,,,,,,,,,,,,,,,,,2875.120791266,None,2875.120791266,None,2875.120791266,None,c,0,0.2396291850000125,2876.654203656,None,2876.654203656,None,2876.654203656,None,2876.970871256,None,2876.970871256,None,2876.970871256,None,2876.970871256,None,,,,,,,,,,,,,,,,,,,,,,,,,,,,,,,,,,,,,,,,,,,,001,144,2020_Feb_20_0923,spring_faces,3.2.3,60.02417677804763,
condition files/Stage1_2.xlsx,,B4,T3,c,"['c', 'm']","['Clue', 'Monopoly']","[-0.15, 0.5]","[0.15, 0.5]",1,1,,,,,,,,,0,7,7,7,0,5,5,5,,,,,,,,,,,,,,,,,,,,,,,,,,,,,,,,,,,,,,,,,,,,,,,,,,,,,,,2878.937539083,None,2878.937539083,None,2878.937539083,None,m,0,0.3271330699999453,2880.470864979,None,2880.470864979,None,2880.470864979,None,2880.8708606590003,None,2880.8708606590003,None,2880.8708606590003,None,2880.8708606590003,None,,,,,,,,,,,,,,,,,,,,,,,,,,,,,,,,,,,,,,,,,,,,001,144,2020_Feb_20_0923,spring_faces,3.2.3,60.02417677804763,
condition files/Stage1_2.xlsx,,T1,B2,m,"['c', 'm']","['Clue', 'Monopoly']","[-0.15, 0.5]","[0.15, 0.5]",1,1,,,,,,,,,0,7,7,7,0,6,6,2,,,,,,,,,,,,,,,,,,,,,,,,,,,,,,,,,,,,,,,,,,,,,,,,,,,,,,,2882.83750534,None,2882.83750534,None,2882.83750534,None,m,1,0.12310695899986968,2884.370830437,None,2884.370830437,None,2884.370830437,None,2884.570873089,None,2884.570873089,None,2884.570873089,None,2884.570873089,None,,,,,,,,,,,,,,,,,,,,,,,,,,,,,,,,,,,,,,,,,,,,001,144,2020_Feb_20_0923,spring_faces,3.2.3,60.02417677804763,
condition files/Stage1_2.xlsx,,T2,B1,c,"['c', 'm']","['Clue', 'Monopoly']","[-0.15, 0.5]","[0.15, 0.5]",1,1,,,,,,,,,0,7,7,7,0,7,7,1,,,,,,,,,,,,,,,,,,,,,,,,,,,,,,,,,,,,,,,,,,,,,,,,,,,,,,,2886.5375478670003,None,2886.5375478670003,None,2886.5375478670003,None,m,0,0.13499563099958323,2888.07087051,None,2888.07087051,None,2888.07087051,None,2888.287533317,None,2888.287533317,None,2888.287533317,None,2888.287533317,None,,,,,,,,,,,,,,,,,,,,,,,,,,,,,,,,,,,,,,,,,,,,001,144,2020_Feb_20_0923,spring_faces,3.2.3,60.02417677804763,
condition files/Stage1_1.xlsx,,B4,T4,m,"['c', 'm']","['Clue', 'Monopoly']","[-0.15, 0.5]","[0.15, 0.5]",1,1,,,,,,,,,0,8,8,8,0,0,0,7,,,,,,,,,,,,,,,,,,,,,,,,,,,,,,,,,,,,,,,,,,,,,,,,,,,,,,,2890.270819616,None,2890.270819616,None,2890.270819616,None,m,1,0.11380421299963928,2891.804216073,None,2891.804216073,None,2891.804216073,None,2891.987544955,None,2891.987544955,None,2891.987544955,None,2891.987544955,None,,,,,,,,,,,,,,,,,,,,,,,,,,,,,,,,,,,,,,,,,,,,001,144,2020_Feb_20_0923,spring_faces,3.2.3,60.02417677804763,
condition files/Stage1_1.xlsx,,T2,B2,m,"['c', 'm']","['Clue', 'Monopoly']","[-0.15, 0.5]","[0.15, 0.5]",1,1,,,,,,,,,0,8,8,8,0,1,1,3,,,,,,,,,,,,,,,,,,,,,,,,,,,,,,,,,,,,,,,,,,,,,,,,,,,,,,,2893.954190885,None,2893.954190885,None,2893.954190885,None,m,1,0.12651242799984175,2895.487481553,None,2895.487481553,None,2895.487481553,None,2895.670853032,None,2895.670853032,None,2895.670853032,None,2895.670853032,None,,,,,,,,,,,,,,,,,,,,,,,,,,,,,,,,,,,,,,,,,,,,001,144,2020_Feb_20_0923,spring_faces,3.2.3,60.02417677804763,
condition files/Stage1_1.xlsx,,T4,B3,m,"['c', 'm']","['Clue', 'Monopoly']","[-0.15, 0.5]","[0.15, 0.5]",1,1,,,,,,,,,0,8,8,8,0,2,2,6,,,,,,,,,,,,,,,,,,,,,,,,,,,,,,,,,,,,,,,,,,,,,,,,,,,,,,,2897.654190405,None,2897.654190405,None,2897.654190405,None,m,1,0.20165726699997322,2899.2042035140003,None,2899.2042035140003,None,2899.2042035140003,None,2899.470805879,None,2899.470805879,None,2899.470805879,None,2899.470805879,None,,,,,,,,,,,,,,,,,,,,,,,,,,,,,,,,,,,,,,,,,,,,001,144,2020_Feb_20_0923,spring_faces,3.2.3,60.02417677804763,
condition files/Stage1_1.xlsx,,T1,B1,c,"['c', 'm']","['Clue', 'Monopoly']","[-0.15, 0.5]","[0.15, 0.5]",1,1,,,,,,,,,0,8,8,8,0,3,3,0,,,,,,,,,,,,,,,,,,,,,,,,,,,,,,,,,,,,,,,,,,,,,,,,,,,,,,,2901.4542236340003,None,2901.4542236340003,None,2901.4542236340003,None,c,1,0.2264485179998701,2902.987510888,None,2902.987510888,None,2902.987510888,None,2903.28754128,None,2903.28754128,None,2903.28754128,None,2903.28754128,None,,,,,,,,,,,,,,,,,,,,,,,,,,,,,,,,,,,,,,,,,,,,001,144,2020_Feb_20_0923,spring_faces,3.2.3,60.02417677804763,
condition files/Stage1_1.xlsx,,B3,T3,c,"['c', 'm']","['Clue', 'Monopoly']","[-0.15, 0.5]","[0.15, 0.5]",1,1,,,,,,,,,0,8,8,8,0,4,4,4,,,,,,,,,,,,,,,,,,,,,,,,,,,,,,,,,,,,,,,,,,,,,,,,,,,,,,,2905.254229402,None,2905.254229402,None,2905.254229402,None,c,1,0.0424285840003904,2906.7875369880003,None,2906.7875369880003,None,2906.7875369880003,None,2906.8875457470003,None,2906.8875457470003,None,2906.8875457470003,None,2906.8875457470003,None,,,,,,,,,,,,,,,,,,,,,,,,,,,,,,,,,,,,,,,,,,,,001,144,2020_Feb_20_0923,spring_faces,3.2.3,60.02417677804763,
condition files/Stage1_1.xlsx,,B2,T1,m,"['c', 'm']","['Clue', 'Monopoly']","[-0.15, 0.5]","[0.15, 0.5]",1,1,,,,,,,,,0,8,8,8,0,5,5,2,,,,,,,,,,,,,,,,,,,,,,,,,,,,,,,,,,,,,,,,,,,,,,,,,,,,,,,2908.870844701,None,2908.870844701,None,2908.870844701,None,c,0,0.12175754100007907,2910.4042128290002,None,2910.4042128290002,None,2910.4042128290002,None,2910.6042147450003,None,2910.6042147450003,None,2910.6042147450003,None,2910.6042147450003,None,,,,,,,,,,,,,,,,,,,,,,,,,,,,,,,,,,,,,,,,,,,,001,144,2020_Feb_20_0923,spring_faces,3.2.3,60.02417677804763,
condition files/Stage1_1.xlsx,,B1,T2,c,"['c', 'm']","['Clue', 'Monopoly']","[-0.15, 0.5]","[0.15, 0.5]",1,1,,,,,,,,,0,8,8,8,0,6,6,1,,,,,,,,,,,,,,,,,,,,,,,,,,,,,,,,,,,,,,,,,,,,,,,,,,,,,,,2912.570862395,None,2912.570862395,None,2912.570862395,None,m,0,0.21378025200010597,2914.1042180130003,None,2914.1042180130003,None,2914.1042180130003,None,2914.387545996,None,2914.387545996,None,2914.387545996,None,2914.387545996,None,,,,,,,,,,,,,,,,,,,,,,,,,,,,,,,,,,,,,,,,,,,,001,144,2020_Feb_20_0923,spring_faces,3.2.3,60.02417677804763,
condition files/Stage1_1.xlsx,,T3,B4,c,"['c', 'm']","['Clue', 'Monopoly']","[-0.15, 0.5]","[0.15, 0.5]",1,1,,,,,,,,,0,8,8,8,0,7,7,5,,,,,,,,,,,,,,,,,,,,,,,,,,,,,,,,,,,,,,,,,,,,,,,,,,,,,,,2916.354004364,None,2916.354004364,None,2916.354004364,None,c,1,0.11049968899988016,2917.8874899330003,None,2917.8874899330003,None,2917.8874899330003,None,2918.070872651,None,2918.070872651,None,2918.070872651,None,2918.070872651,None,,,,,,,,,,,,,,,,,,,,,,,,,,,,,,,,,,,,,,,,,,,,001,144,2020_Feb_20_0923,spring_faces,3.2.3,60.02417677804763,
condition files/Stage1_2.xlsx,,B4,T3,c,"['c', 'm']","['Clue', 'Monopoly']","[-0.15, 0.5]","[0.15, 0.5]",1,1,,,,,,,,,0,9,9,9,0,0,0,5,,,,,,,,,,,,,,,,,,,,,,,,,,,,,,,,,,,,,,,,,,,,,,,,,,,,,,,2920.05421074,None,2920.05421074,None,2920.05421074,None,c,1,0.12243604100012817,2921.587510972,None,2921.587510972,None,2921.587510972,None,2921.770720644,None,2921.770720644,None,2921.770720644,None,2921.770720644,None,,,,,,,,,,,,,,,,,,,,,,,,,,,,,,,,,,,,,,,,,,,,001,144,2020_Feb_20_0923,spring_faces,3.2.3,60.02417677804763,
condition files/Stage1_2.xlsx,,B3,T4,m,"['c', 'm']","['Clue', 'Monopoly']","[-0.15, 0.5]","[0.15, 0.5]",1,1,,,,,,,,,0,9,9,9,0,1,1,6,,,,,,,,,,,,,,,,,,,,,,,,,,,,,,,,,,,,,,,,,,,,,,,,,,,,,,,2923.754176885,None,2923.754176885,None,2923.754176885,None,c,0,0.15032156500001292,2925.287554827,None,2925.287554827,None,2925.287554827,None,2925.5206504820003,None,2925.5206504820003,None,2925.5206504820003,None,2925.5206504820003,None,,,,,,,,,,,,,,,,,,,,,,,,,,,,,,,,,,,,,,,,,,,,001,144,2020_Feb_20_0923,spring_faces,3.2.3,60.02417677804763,
condition files/Stage1_2.xlsx,,T3,B3,c,"['c', 'm']","['Clue', 'Monopoly']","[-0.15, 0.5]","[0.15, 0.5]",1,1,,,,,,,,,0,9,9,9,0,2,2,4,,,,,,,,,,,,,,,,,,,,,,,,,,,,,,,,,,,,,,,,,,,,,,,,,,,,,,,2927.487547819,None,2927.487547819,None,2927.487547819,None,c,1,0.049136052999983804,2929.020887364,None,2929.020887364,None,2929.020887364,None,2929.137492032,None,2929.137492032,None,2929.137492032,None,2929.137492032,None,,,,,,,,,,,,,,,,,,,,,,,,,,,,,,,,,,,,,,,,,,,,001,144,2020_Feb_20_0923,spring_faces,3.2.3,60.02417677804763,
condition files/Stage1_2.xlsx,,B2,T2,m,"['c', 'm']","['Clue', 'Monopoly']","[-0.15, 0.5]","[0.15, 0.5]",1,1,,,,,,,,,0,9,9,9,0,3,3,3,,,,,,,,,,,,,,,,,,,,,,,,,,,,,,,,,,,,,,,,,,,,,,,,,,,,,,,2931.104099004,None,2931.104099004,None,2931.104099004,None,c,0,0.2563000360000842,2932.637539318,None,2932.637539318,None,2932.637539318,None,2932.970871589,None,2932.970871589,None,2932.970871589,None,2932.970871589,None,,,,,,,,,,,,,,,,,,,,,,,,,,,,,,,,,,,,,,,,,,,,001,144,2020_Feb_20_0923,spring_faces,3.2.3,60.02417677804763,
condition files/Stage1_2.xlsx,,T4,B4,m,"['c', 'm']","['Clue', 'Monopoly']","[-0.15, 0.5]","[0.15, 0.5]",1,1,,,,,,,,,0,9,9,9,0,4,4,7,,,,,,,,,,,,,,,,,,,,,,,,,,,,,,,,,,,,,,,,,,,,,,,,,,,,,,,2934.937550733,None,2934.937550733,None,2934.937550733,None,c,0,0.27894203100004233,2936.470888608,None,2936.470888608,None,2936.470888608,None,2936.8209389070003,None,2936.8209389070003,None,2936.8209389070003,None,2936.8209389070003,None,,,,,,,,,,,,,,,,,,,,,,,,,,,,,,,,,,,,,,,,,,,,001,144,2020_Feb_20_0923,spring_faces,3.2.3,60.02417677804763,
condition files/Stage1_2.xlsx,,T2,B1,c,"['c', 'm']","['Clue', 'Monopoly']","[-0.15, 0.5]","[0.15, 0.5]",1,1,,,,,,,,,0,9,9,9,0,5,5,1,,,,,,,,,,,,,,,,,,,,,,,,,,,,,,,,,,,,,,,,,,,,,,,,,,,,,,,2938.7873871770003,None,2938.7873871770003,None,2938.7873871770003,None,m,0,0.6211549770000602,2940.3208091680003,None,2940.3208091680003,None,2940.3208091680003,None,2941.020852854,None,2941.020852854,None,2941.020852854,None,2941.020852854,None,,,,,,,,,,,,,,,,,,,,,,,,,,,,,,,,,,,,,,,,,,,,001,144,2020_Feb_20_0923,spring_faces,3.2.3,60.02417677804763,
condition files/Stage1_2.xlsx,,T1,B2,m,"['c', 'm']","['Clue', 'Monopoly']","[-0.15, 0.5]","[0.15, 0.5]",1,1,,,,,,,,,0,9,9,9,0,6,6,2,,,,,,,,,,,,,,,,,,,,,,,,,,,,,,,,,,,,,,,,,,,,,,,,,,,,,,,2942.987532434,None,2942.987532434,None,2942.987532434,None,c,0,0.18117251100011345,2944.5208601920003,None,2944.5208601920003,None,2944.5208601920003,None,2944.7708727530003,None,2944.7708727530003,None,2944.7708727530003,None,2944.7708727530003,None,,,,,,,,,,,,,,,,,,,,,,,,,,,,,,,,,,,,,,,,,,,,001,144,2020_Feb_20_0923,spring_faces,3.2.3,60.02417677804763,
condition files/Stage1_2.xlsx,,B1,T1,c,"['c', 'm']","['Clue', 'Monopoly']","[-0.15, 0.5]","[0.15, 0.5]",1,1,,,,,,,,,0,9,9,9,0,7,7,0,,,,,,,,,,,,,,,,,,,,,,,,,,,,,,,,,,,,,,,,,,,,,,,,,,,,,,,2946.7375202010003,None,2946.7375202010003,None,2946.7375202010003,None,m,0,0.33510107400024935,2948.27079464,None,2948.27079464,None,2948.27079464,None,2948.687517441,None,2948.687517441,None,2948.687517441,None,2948.687517441,None,,,,,,,,,,,,,,,,,,,,,,,,,,,,,,,,,,,,,,,,,,,,001,144,2020_Feb_20_0923,spring_faces,3.2.3,60.02417677804763,
condition files/Stage1_1.xlsx,,B1,T2,c,"['c', 'm']","['Clue', 'Monopoly']","[-0.15, 0.5]","[0.15, 0.5]",1,1,,,,,,,,,0,10,10,10,0,0,0,1,,,,,,,,,,,,,,,,,,,,,,,,,,,,,,,,,,,,,,,,,,,,,,,,,,,,,,,2950.6706672620003,None,2950.6706672620003,None,2950.6706672620003,None,c,1,0.017701368999951228,2952.2041932770003,None,2952.2041932770003,None,2952.2041932770003,None,2952.30420672,None,2952.30420672,None,2952.30420672,None,2952.30420672,None,,,,,,,,,,,,,,,,,,,,,,,,,,,,,,,,,,,,,,,,,,,,001,144,2020_Feb_20_0923,spring_faces,3.2.3,60.02417677804763,
condition files/Stage1_1.xlsx,,B2,T1,m,"['c', 'm']","['Clue', 'Monopoly']","[-0.15, 0.5]","[0.15, 0.5]",1,1,,,,,,,,,0,10,10,10,0,1,1,2,,,,,,,,,,,,,,,,,,,,,,,,,,,,,,,,,,,,,,,,,,,,,,,,,,,,,,,2954.270657942,None,2954.270657942,None,2954.270657942,None,m,1,0.09783592499979932,2955.804182381,None,2955.804182381,None,2955.804182381,None,2955.970862911,None,2955.970862911,None,2955.970862911,None,2955.970862911,None,,,,,,,,,,,,,,,,,,,,,,,,,,,,,,,,,,,,,,,,,,,,001,144,2020_Feb_20_0923,spring_faces,3.2.3,60.02417677804763,
condition files/Stage1_1.xlsx,,B4,T4,m,"['c', 'm']","['Clue', 'Monopoly']","[-0.15, 0.5]","[0.15, 0.5]",1,1,,,,,,,,,0,10,10,10,0,2,2,7,,,,,,,,,,,,,,,,,,,,,,,,,,,,,,,,,,,,,,,,,,,,,,,,,,,,,,,2957.9374682790003,None,2957.9374682790003,None,2957.9374682790003,None,m,1,0.1111749060000875,2959.470817341,None,2959.470817341,None,2959.470817341,None,2959.637575576,None,2959.637575576,None,2959.637575576,None,2959.637575576,None,,,,,,,,,,,,,,,,,,,,,,,,,,,,,,,,,,,,,,,,,,,,001,144,2020_Feb_20_0923,spring_faces,3.2.3,60.02417677804763,
condition files/Stage1_1.xlsx,,T2,B2,m,"['c', 'm']","['Clue', 'Monopoly']","[-0.15, 0.5]","[0.15, 0.5]",1,1,,,,,,,,,0,10,10,10,0,3,3,3,,,,,,,,,,,,,,,,,,,,,,,,,,,,,,,,,,,,,,,,,,,,,,,,,,,,,,,2961.6208696900003,None,2961.6208696900003,None,2961.6208696900003,None,m,1,0.04376505199979874,2963.15419688,None,2963.15419688,None,2963.15419688,None,2963.270888975,None,2963.270888975,None,2963.270888975,None,2963.270888975,None,,,,,,,,,,,,,,,,,,,,,,,,,,,,,,,,,,,,,,,,,,,,001,144,2020_Feb_20_0923,spring_faces,3.2.3,60.02417677804763,
condition files/Stage1_1.xlsx,,T4,B3,m,"['c', 'm']","['Clue', 'Monopoly']","[-0.15, 0.5]","[0.15, 0.5]",1,1,,,,,,,,,0,10,10,10,0,4,4,6,,,,,,,,,,,,,,,,,,,,,,,,,,,,,,,,,,,,,,,,,,,,,,,,,,,,,,,2965.237524638,None,2965.237524638,None,2965.237524638,None,c,0,0.3464677769998161,2966.787523067,None,2966.787523067,None,2966.787523067,None,2967.204224563,None,2967.204224563,None,2967.204224563,None,2967.204224563,None,,,,,,,,,,,,,,,,,,,,,,,,,,,,,,,,,,,,,,,,,,,,001,144,2020_Feb_20_0923,spring_faces,3.2.3,60.02417677804763,
condition files/Stage1_1.xlsx,,T1,B1,c,"['c', 'm']","['Clue', 'Monopoly']","[-0.15, 0.5]","[0.15, 0.5]",1,1,,,,,,,,,0,10,10,10,0,5,5,0,,,,,,,,,,,,,,,,,,,,,,,,,,,,,,,,,,,,,,,,,,,,,,,,,,,,,,,2969.170880301,None,2969.170880301,None,2969.170880301,None,c,1,0.31777044299997215,2970.7041267160002,None,2970.7041267160002,None,2970.7041267160002,None,2971.104154142,None,2971.104154142,None,2971.104154142,None,2971.104154142,None,,,,,,,,,,,,,,,,,,,,,,,,,,,,,,,,,,,,,,,,,,,,001,144,2020_Feb_20_0923,spring_faces,3.2.3,60.02417677804763,
condition files/Stage1_1.xlsx,,B3,T3,c,"['c', 'm']","['Clue', 'Monopoly']","[-0.15, 0.5]","[0.15, 0.5]",1,1,,,,,,,,,0,10,10,10,0,6,6,4,,,,,,,,,,,,,,,,,,,,,,,,,,,,,,,,,,,,,,,,,,,,,,,,,,,,,,,2973.070798222,None,2973.070798222,None,2973.070798222,None,c,1,0.36971202499989886,2974.6042153860003,None,2974.6042153860003,None,2974.6042153860003,None,2975.054310499,None,2975.054310499,None,2975.054310499,None,2975.054310499,None,,,,,,,,,,,,,,,,,,,,,,,,,,,,,,,,,,,,,,,,,,,,001,144,2020_Feb_20_0923,spring_faces,3.2.3,60.02417677804763,
condition files/Stage1_1.xlsx,,T3,B4,c,"['c', 'm']","['Clue', 'Monopoly']","[-0.15, 0.5]","[0.15, 0.5]",1,1,,,,,,,,,0,10,10,10,0,7,7,5,,,,,,,,,,,,,,,,,,,,,,,,,,,,,,,,,,,,,,,,,,,,,,,,,,,,,,,2977.020877421,None,2977.020877421,None,2977.020877421,None,m,0,0.995649948999926,2978.554218273,None,2978.554218273,None,2978.554218273,None,2979.604191232,None,2979.604191232,None,2979.604191232,None,2979.604191232,None,,,,,,,,,,,,,,,,,,,,,,,,,,,,,,,,,,,,,,,,,,,,001,144,2020_Feb_20_0923,spring_faces,3.2.3,60.02417677804763,
condition files/Stage1_2.xlsx,,B2,T2,m,"['c', 'm']","['Clue', 'Monopoly']","[-0.15, 0.5]","[0.15, 0.5]",1,1,,,,,,,,,0,11,11,11,0,0,0,3,,,,,,,,,,,,,,,,,,,,,,,,,,,,,,,,,,,,,,,,,,,,,,,,,,,,,,,2981.6041964240003,None,2981.6041964240003,None,2981.6041964240003,None,c,0,1.4684410599998046,2983.137472364,None,2983.137472364,None,2983.137472364,None,2984.687543217,None,2984.687543217,None,2984.687543217,None,2984.687543217,None,,,,,,,,,,,,,,,,,,,,,,,,,,,,,,,,,,,,,,,,,,,,001,144,2020_Feb_20_0923,spring_faces,3.2.3,60.02417677804763,
condition files/Stage1_2.xlsx,,T2,B1,c,"['c', 'm']","['Clue', 'Monopoly']","[-0.15, 0.5]","[0.15, 0.5]",1,1,,,,,,,,,0,11,11,11,0,1,1,1,,,,,,,,,,,,,,,,,,,,,,,,,,,,,,,,,,,,,,,,,,,,,,,,,,,,,,,2986.654205847,None,2986.654205847,None,2986.654205847,None,m,0,1.2503312199996799,2988.187544888,None,2988.187544888,None,2988.187544888,None,2989.5207886430003,None,2989.5207886430003,None,2989.5207886430003,None,2989.5207886430003,None,,,,,,,,,,,,,,,,,,,,,,,,,,,,,,,,,,,,,,,,,,,,001,144,2020_Feb_20_0923,spring_faces,3.2.3,60.02417677804763,
condition files/Stage1_2.xlsx,,B1,T1,c,"['c', 'm']","['Clue', 'Monopoly']","[-0.15, 0.5]","[0.15, 0.5]",1,1,,,,,,,,,0,11,11,11,0,2,2,0,,,,,,,,,,,,,,,,,,,,,,,,,,,,,,,,,,,,,,,,,,,,,,,,,,,,,,,2991.487471205,None,2991.487471205,None,2991.487471205,None,m,0,1.6170333759996538,2993.020845066,None,2993.020845066,None,2993.020845066,None,2994.720819434,None,2994.720819434,None,2994.720819434,None,2994.720819434,None,,,,,,,,,,,,,,,,,,,,,,,,,,,,,,,,,,,,,,,,,,,,001,144,2020_Feb_20_0923,spring_faces,3.2.3,60.02417677804763,
condition files/Stage1_2.xlsx,,T4,B4,m,"['c', 'm']","['Clue', 'Monopoly']","[-0.15, 0.5]","[0.15, 0.5]",1,1,,,,,,,,,0,11,11,11,0,3,3,7,,,,,,,,,,,,,,,,,,,,,,,,,,,,,,,,,,,,,,,,,,,,,,,,,,,,,,,2996.6874726220003,None,2996.6874726220003,None,2996.6874726220003,None,c,0,0.7690170219998436,2998.220880954,None,2998.220880954,None,2998.220880954,None,2999.070873524,None,2999.070873524,None,2999.070873524,None,2999.070873524,None,,,,,,,,,,,,,,,,,,,,,,,,,,,,,,,,,,,,,,,,,,,,001,144,2020_Feb_20_0923,spring_faces,3.2.3,60.02417677804763,
condition files/Stage1_2.xlsx,,B3,T4,m,"['c', 'm']","['Clue', 'Monopoly']","[-0.15, 0.5]","[0.15, 0.5]",1,1,,,,,,,,,0,11,11,11,0,4,4,6,,,,,,,,,,,,,,,,,,,,,,,,,,,,,,,,,,,,,,,,,,,,,,,,,,,,,,,3001.0375365,None,3001.0375365,None,3001.0375365,None,m,1,1.7950740989999758,3002.570881613,None,3002.570881613,None,3002.570881613,None,3004.420848583,None,3004.420848583,None,3004.420848583,None,3004.420848583,None,,,,,,,,,,,,,,,,,,,,,,,,,,,,,,,,,,,,,,,,,,,,001,144,2020_Feb_20_0923,spring_faces,3.2.3,60.02417677804763,
condition files/Stage1_2.xlsx,,B4,T3,c,"['c', 'm']","['Clue', 'Monopoly']","[-0.15, 0.5]","[0.15, 0.5]",1,1,,,,,,,,,0,11,11,11,0,5,5,5,,,,,,,,,,,,,,,,,,,,,,,,,,,,,,,,,,,,,,,,,,,,,,,,,,,,,,,3006.404217318,None,3006.404217318,None,3006.404217318,None,m,0,2.796523028000138,3007.937501401,None,3007.937501401,None,3007.937501401,None,3010.804200652,None,3010.804200652,None,3010.804200652,None,3010.804200652,None,,,,,,,,,,,,,,,,,,,,,,,,,,,,,,,,,,,,,,,,,,,,001,144,2020_Feb_20_0923,spring_faces,3.2.3,60.02417677804763,
condition files/Stage1_2.xlsx,,T1,B2,m,"['c', 'm']","['Clue', 'Monopoly']","[-0.15, 0.5]","[0.15, 0.5]",1,1,,,,,,,,,0,11,11,11,0,6,6,2,,,,,,,,,,,,,,,,,,,,,,,,,,,,,,,,,,,,,,,,,,,,,,,,,,,,,,,3012.770856221,None,3012.770856221,None,3012.770856221,None,m,1,1.0218283409999458,3014.304136307,None,3014.304136307,None,3014.304136307,None,3015.40421669,None,3015.40421669,None,3015.40421669,None,3015.40421669,None,,,,,,,,,,,,,,,,,,,,,,,,,,,,,,,,,,,,,,,,,,,,001,144,2020_Feb_20_0923,spring_faces,3.2.3,60.02417677804763,
condition files/Stage1_2.xlsx,,T3,B3,c,"['c', 'm']","['Clue', 'Monopoly']","[-0.15, 0.5]","[0.15, 0.5]",1,1,,,,,,,,,0,11,11,11,0,7,7,4,,,,,,,,,,,,,,,,,,,,,,,,,,,,,,,,,,,,,,,,,,,,,,,,,,,,,,,3017.370866786,None,3017.370866786,None,3017.370866786,None,m,0,0.5818271440002718,3018.90419699,None,3018.90419699,None,3018.90419699,None,3019.554226144,None,3019.554226144,None,3019.554226144,None,3019.554226144,None,,,,,,,,,,,,,,,,,,,,,,,,,,,,,,,,,,,,,,,,,,,,001,144,2020_Feb_20_0923,spring_faces,3.2.3,60.02417677804763,
,,,,,,,,,,,,,,,,,,,,,,,,,,,,,,,,,,,,,,,,,,,,,,,,,,,,,,,,,,,,,,,,,,,,,,,,,,,,,,,,,,,,,,,,,,,,,,,,,,,,,,,,,,,,,,,,3021.520821852,None,space,6.949854793000213,3026.504177263,None,,,,,,,,,,,,,,,,,,,,,,,,,,,,,,001,144,2020_Feb_20_0923,spring_faces,3.2.3,60.02417677804763,
condition files/Stage2_1.xlsx,,T1,B1,s,"['s', 'r']","['Stratego', 'Risk']","[-0.15, 0.5]","[0.15, 0.5]",1,1,,,,,,,,,,,,,,,,,0,0,0,0,0,0,0,2,,,,,,,,,,,,,,,,,,,,,,,,,,,,,,,,,,,,,,,,,,,,,,,3033.804198058,None,3033.804198058,None,3033.804198058,None,s,1,3.041117747000044,3035.020864052,None,3035.020864052,None,3035.020864052,None,3038.137552475,None,3038.137552475,None,3038.137552475,None,3038.137552475,None,,,,,,,,,,,,,,,3026.504177263,None,,,,,,,,,,,,,,,,,,,,,,,,,,,,001,144,2020_Feb_20_0923,spring_faces,3.2.3,60.02417677804763,
condition files/Stage2_1.xlsx,,B4,T4,r,"['s', 'r']","['Stratego', 'Risk']","[-0.15, 0.5]","[0.15, 0.5]",1,1,,,,,,,,,,,,,,,,,0,0,0,0,0,1,1,5,,,,,,,,,,,,,,,,,,,,,,,,,,,,,,,,,,,,,,,,,,,,,,,3040.104236297,None,3040.104236297,None,3040.104236297,None,r,1,1.0484929409999495,3041.637538544,None,3041.637538544,None,3041.637538544,None,3042.754198552,None,3042.754198552,None,3042.754198552,None,3042.754198552,None,,,,,,,,,,,,,,,,,,,,,,,,,,,,,,,,,,,,,,,,,,,,001,144,2020_Feb_20_0923,spring_faces,3.2.3,60.02417677804763,
condition files/Stage2_1.xlsx,,T3,B3,s,"['s', 'r']","['Stratego', 'Risk']","[-0.15, 0.5]","[0.15, 0.5]",1,1,,,,,,,,,,,,,,,,,0,0,0,0,0,2,2,4,,,,,,,,,,,,,,,,,,,,,,,,,,,,,,,,,,,,,,,,,,,,,,,3044.720783588,None,3044.720783588,None,3044.720783588,None,s,1,0.6077587739996488,3046.2542012890003,None,3046.2542012890003,None,3046.2542012890003,None,3046.937545013,None,3046.937545013,None,3046.937545013,None,3046.937545013,None,,,,,,,,,,,,,,,,,,,,,,,,,,,,,,,,,,,,,,,,,,,,001,144,2020_Feb_20_0923,spring_faces,3.2.3,60.02417677804763,
condition files/Stage2_1.xlsx,,T5,B5,s,"['s', 'r']","['Stratego', 'Risk']","[-0.15, 0.5]","[0.15, 0.5]",1,1,,,,,,,,,,,,,,,,,0,0,0,0,0,3,3,0,,,,,,,,,,,,,,,,,,,,,,,,,,,,,,,,,,,,,,,,,,,,,,,3048.904183487,None,3048.904183487,None,3048.904183487,None,s,1,0.886402137999994,3050.487533652,None,3050.487533652,None,3050.487533652,None,3051.454182031,None,3051.454182031,None,3051.454182031,None,3051.454182031,None,,,,,,,,,,,,,,,,,,,,,,,,,,,,,,,,,,,,,,,,,,,,001,144,2020_Feb_20_0923,spring_faces,3.2.3,60.02417677804763,
condition files/Stage2_1.xlsx,,B6,T6,r,"['s', 'r']","['Stratego', 'Risk']","[-0.15, 0.5]","[0.15, 0.5]",1,1,,,,,,,,,,,,,,,,,0,0,0,0,0,4,4,1,,,,,,,,,,,,,,,,,,,,,,,,,,,,,,,,,,,,,,,,,,,,,,,3053.420849138,None,3053.420849138,None,3053.420849138,None,r,1,0.5304655840000123,3054.987531658,None,3054.987531658,None,3054.987531658,None,3055.587585274,None,3055.587585274,None,3055.587585274,None,3055.587585274,None,,,,,,,,,,,,,,,,,,,,,,,,,,,,,,,,,,,,,,,,,,,,001,144,2020_Feb_20_0923,spring_faces,3.2.3,60.02417677804763,
condition files/Stage2_1.xlsx,,B2,T2,r,"['s', 'r']","['Stratego', 'Risk']","[-0.15, 0.5]","[0.15, 0.5]",1,1,,,,,,,,,,,,,,,,,0,0,0,0,0,5,5,3,,,,,,,,,,,,,,,,,,,,,,,,,,,,,,,,,,,,,,,,,,,,,,,3057.55422532,None,3057.55422532,None,3057.55422532,None,r,1,0.6384568279995619,3059.087491891,None,3059.087491891,None,3059.087491891,None,3059.8042220340003,None,3059.8042220340003,None,3059.8042220340003,None,3059.8042220340003,None,,,,,,,,,,,,,,,,,,,,,,,,,,,,,,,,,,,,,,,,,,,,001,144,2020_Feb_20_0923,spring_faces,3.2.3,60.02417677804763,
condition files/Stage2_2.xlsx,,T4,B4,r,"['s', 'r']","['Stratego', 'Risk']","[-0.15, 0.5]","[0.15, 0.5]",1,1,,,,,,,,,,,,,,,,,0,1,1,1,0,0,0,5,,,,,,,,,,,,,,,,,,,,,,,,,,,,,,,,,,,,,,,,,,,,,,,3061.820882033,None,3061.820882033,None,3061.820882033,None,s,0,0.9811454440000489,3063.320888492,None,3063.320888492,None,3063.320888492,None,3064.370872299,None,3064.370872299,None,3064.370872299,None,3064.370872299,None,,,,,,,,,,,,,,,,,,,,,,,,,,,,,,,,,,,,,,,,,,,,001,144,2020_Feb_20_0923,spring_faces,3.2.3,60.02417677804763,
condition files/Stage2_2.xlsx,,B5,T5,s,"['s', 'r']","['Stratego', 'Risk']","[-0.15, 0.5]","[0.15, 0.5]",1,1,,,,,,,,,,,,,,,,,0,1,1,1,0,1,1,0,,,,,,,,,,,,,,,,,,,,,,,,,,,,,,,,,,,,,,,,,,,,,,,3066.337440399,None,3066.337440399,None,3066.337440399,None,r,0,1.3591585670001223,3067.870831841,None,3067.870831841,None,3067.870831841,None,3069.3042035940002,None,3069.3042035940002,None,3069.3042035940002,None,3069.3042035940002,None,,,,,,,,,,,,,,,,,,,,,,,,,,,,,,,,,,,,,,,,,,,,001,144,2020_Feb_20_0923,spring_faces,3.2.3,60.02417677804763,
condition files/Stage2_2.xlsx,,T6,B6,r,"['s', 'r']","['Stratego', 'Risk']","[-0.15, 0.5]","[0.15, 0.5]",1,1,,,,,,,,,,,,,,,,,0,1,1,1,0,2,2,1,,,,,,,,,,,,,,,,,,,,,,,,,,,,,,,,,,,,,,,,,,,,,,,3071.2708735710003,None,3071.2708735710003,None,3071.2708735710003,None,s,0,1.1619568289997915,3072.803919881,None,3072.803919881,None,3072.803919881,None,3074.037571549,None,3074.037571549,None,3074.037571549,None,3074.037571549,None,,,,,,,,,,,,,,,,,,,,,,,,,,,,,,,,,,,,,,,,,,,,001,144,2020_Feb_20_0923,spring_faces,3.2.3,60.02417677804763,
condition files/Stage2_2.xlsx,,B3,T3,s,"['s', 'r']","['Stratego', 'Risk']","[-0.15, 0.5]","[0.15, 0.5]",1,1,,,,,,,,,,,,,,,,,0,1,1,1,0,3,3,4,,,,,,,,,,,,,,,,,,,,,,,,,,,,,,,,,,,,,,,,,,,,,,,3076.00423803,None,3076.00423803,None,3076.00423803,None,s,1,0.7485664440000619,3077.537483293,None,3077.537483293,None,3077.537483293,None,3078.354233867,None,3078.354233867,None,3078.354233867,None,3078.354233867,None,,,,,,,,,,,,,,,,,,,,,,,,,,,,,,,,,,,,,,,,,,,,001,144,2020_Feb_20_0923,spring_faces,3.2.3,60.02417677804763,
condition files/Stage2_2.xlsx,,T2,B2,r,"['s', 'r']","['Stratego', 'Risk']","[-0.15, 0.5]","[0.15, 0.5]",1,1,,,,,,,,,,,,,,,,,0,1,1,1,0,4,4,3,,,,,,,,,,,,,,,,,,,,,,,,,,,,,,,,,,,,,,,,,,,,,,,3080.320802758,None,3080.320802758,None,3080.320802758,None,r,1,0.41595841099979225,3081.854106936,None,3081.854106936,None,3081.854106936,None,3082.337531878,None,3082.337531878,None,3082.337531878,None,3082.337531878,None,,,,,,,,,,,,,,,,,,,,,,,,,,,,,,,,,,,,,,,,,,,,001,144,2020_Feb_20_0923,spring_faces,3.2.3,60.02417677804763,
condition files/Stage2_2.xlsx,,B1,T1,s,"['s', 'r']","['Stratego', 'Risk']","[-0.15, 0.5]","[0.15, 0.5]",1,1,,,,,,,,,,,,,,,,,0,1,1,1,0,5,5,2,,,,,,,,,,,,,,,,,,,,,,,,,,,,,,,,,,,,,,,,,,,,,,,3084.304231846,None,3084.304231846,None,3084.304231846,None,s,1,1.3284007319998636,3085.83755484,None,3085.83755484,None,3085.83755484,None,3087.237511521,None,3087.237511521,None,3087.237511521,None,3087.237511521,None,,,,,,,,,,,,,,,,,,,,,,,,,,,,,,,,,,,,,,,,,,,,001,144,2020_Feb_20_0923,spring_faces,3.2.3,60.02417677804763,
condition files/Stage2_1.xlsx,,T3,B3,s,"['s', 'r']","['Stratego', 'Risk']","[-0.15, 0.5]","[0.15, 0.5]",1,1,,,,,,,,,,,,,,,,,0,2,2,2,0,0,0,4,,,,,,,,,,,,,,,,,,,,,,,,,,,,,,,,,,,,,,,,,,,,,,,3089.220850368,None,3089.220850368,None,3089.220850368,None,r,0,0.8117637370000921,3090.754213968,None,3090.754213968,None,3090.754213968,None,3091.637518347,None,3091.637518347,None,3091.637518347,None,3091.637518347,None,,,,,,,,,,,,,,,,,,,,,,,,,,,,,,,,,,,,,,,,,,,,001,144,2020_Feb_20_0923,spring_faces,3.2.3,60.02417677804763,
condition files/Stage2_1.xlsx,,B4,T4,r,"['s', 'r']","['Stratego', 'Risk']","[-0.15, 0.5]","[0.15, 0.5]",1,1,,,,,,,,,,,,,,,,,0,2,2,2,0,1,1,5,,,,,,,,,,,,,,,,,,,,,,,,,,,,,,,,,,,,,,,,,,,,,,,3093.6041877370003,None,3093.6041877370003,None,3093.6041877370003,None,r,1,0.7964539129998229,3095.137541768,None,3095.137541768,None,3095.137541768,None,3096.0042018910003,None,3096.0042018910003,None,3096.0042018910003,None,3096.0042018910003,None,,,,,,,,,,,,,,,,,,,,,,,,,,,,,,,,,,,,,,,,,,,,001,144,2020_Feb_20_0923,spring_faces,3.2.3,60.02417677804763,
condition files/Stage2_1.xlsx,,T1,B1,s,"['s', 'r']","['Stratego', 'Risk']","[-0.15, 0.5]","[0.15, 0.5]",1,1,,,,,,,,,,,,,,,,,0,2,2,2,0,2,2,2,,,,,,,,,,,,,,,,,,,,,,,,,,,,,,,,,,,,,,,,,,,,,,,3097.9709071820002,None,3097.9709071820002,None,3097.9709071820002,None,s,1,0.7659110980002879,3099.504160405,None,3099.504160405,None,3099.504160405,None,3100.33748108,None,3100.33748108,None,3100.33748108,None,3100.33748108,None,,,,,,,,,,,,,,,,,,,,,,,,,,,,,,,,,,,,,,,,,,,,001,144,2020_Feb_20_0923,spring_faces,3.2.3,60.02417677804763,
condition files/Stage2_1.xlsx,,B6,T6,r,"['s', 'r']","['Stratego', 'Risk']","[-0.15, 0.5]","[0.15, 0.5]",1,1,,,,,,,,,,,,,,,,,0,2,2,2,0,3,3,1,,,,,,,,,,,,,,,,,,,,,,,,,,,,,,,,,,,,,,,,,,,,,,,3102.304230691,None,3102.304230691,None,3102.304230691,None,r,1,0.5604411839999557,3103.837522585,None,3103.837522585,None,3103.837522585,None,3104.470877286,None,3104.470877286,None,3104.470877286,None,3104.470877286,None,,,,,,,,,,,,,,,,,,,,,,,,,,,,,,,,,,,,,,,,,,,,001,144,2020_Feb_20_0923,spring_faces,3.2.3,60.02417677804763,
condition files/Stage2_1.xlsx,,B2,T2,r,"['s', 'r']","['Stratego', 'Risk']","[-0.15, 0.5]","[0.15, 0.5]",1,1,,,,,,,,,,,,,,,,,0,2,2,2,0,4,4,3,,,,,,,,,,,,,,,,,,,,,,,,,,,,,,,,,,,,,,,,,,,,,,,3106.4375586230003,None,3106.4375586230003,None,3106.4375586230003,None,r,1,0.667034256000079,3107.970855013,None,3107.970855013,None,3107.970855013,None,3108.704202294,None,3108.704202294,None,3108.704202294,None,3108.704202294,None,,,,,,,,,,,,,,,,,,,,,,,,,,,,,,,,,,,,,,,,,,,,001,144,2020_Feb_20_0923,spring_faces,3.2.3,60.02417677804763,
condition files/Stage2_1.xlsx,,T5,B5,s,"['s', 'r']","['Stratego', 'Risk']","[-0.15, 0.5]","[0.15, 0.5]",1,1,,,,,,,,,,,,,,,,,0,2,2,2,0,5,5,0,,,,,,,,,,,,,,,,,,,,,,,,,,,,,,,,,,,,,,,,,,,,,,,3110.687447648,None,3110.687447648,None,3110.687447648,None,s,1,1.1850175869999475,3112.220850264,None,3112.220850264,None,3112.220850264,None,3113.487489809,None,3113.487489809,None,3113.487489809,None,3113.487489809,None,,,,,,,,,,,,,,,,,,,,,,,,,,,,,,,,,,,,,,,,,,,,001,144,2020_Feb_20_0923,spring_faces,3.2.3,60.02417677804763,
condition files/Stage2_2.xlsx,,T6,B6,r,"['s', 'r']","['Stratego', 'Risk']","[-0.15, 0.5]","[0.15, 0.5]",1,1,,,,,,,,,,,,,,,,,0,3,3,3,0,0,0,1,,,,,,,,,,,,,,,,,,,,,,,,,,,,,,,,,,,,,,,,,,,,,,,3115.470817374,None,3115.470817374,None,3115.470817374,None,s,0,0.8658581770000637,3117.004205298,None,3117.004205298,None,3117.004205298,None,3117.937463702,None,3117.937463702,None,3117.937463702,None,3117.937463702,None,,,,,,,,,,,,,,,,,,,,,,,,,,,,,,,,,,,,,,,,,,,,001,144,2020_Feb_20_0923,spring_faces,3.2.3,60.02417677804763,
condition files/Stage2_2.xlsx,,T2,B2,r,"['s', 'r']","['Stratego', 'Risk']","[-0.15, 0.5]","[0.15, 0.5]",1,1,,,,,,,,,,,,,,,,,0,3,3,3,0,1,1,3,,,,,,,,,,,,,,,,,,,,,,,,,,,,,,,,,,,,,,,,,,,,,,,3119.904209552,None,3119.904209552,None,3119.904209552,None,r,1,1.3924392330000046,3121.437510876,None,3121.437510876,None,3121.437510876,None,3122.88755658,None,3122.88755658,None,3122.88755658,None,3122.88755658,None,,,,,,,,,,,,,,,,,,,,,,,,,,,,,,,,,,,,,,,,,,,,001,144,2020_Feb_20_0923,spring_faces,3.2.3,60.02417677804763,
condition files/Stage2_2.xlsx,,B3,T3,s,"['s', 'r']","['Stratego', 'Risk']","[-0.15, 0.5]","[0.15, 0.5]",1,1,,,,,,,,,,,,,,,,,0,3,3,3,0,2,2,4,,,,,,,,,,,,,,,,,,,,,,,,,,,,,,,,,,,,,,,,,,,,,,,3124.870865231,None,3124.870865231,None,3124.870865231,None,s,1,0.5217354490000616,3126.404199822,None,3126.404199822,None,3126.404199822,None,3127.004203524,None,3127.004203524,None,3127.004203524,None,3127.004203524,None,,,,,,,,,,,,,,,,,,,,,,,,,,,,,,,,,,,,,,,,,,,,001,144,2020_Feb_20_0923,spring_faces,3.2.3,60.02417677804763,
condition files/Stage2_2.xlsx,,B5,T5,s,"['s', 'r']","['Stratego', 'Risk']","[-0.15, 0.5]","[0.15, 0.5]",1,1,,,,,,,,,,,,,,,,,0,3,3,3,0,3,3,0,,,,,,,,,,,,,,,,,,,,,,,,,,,,,,,,,,,,,,,,,,,,,,,3128.970874647,None,3128.970874647,None,3128.970874647,None,r,0,1.8777534600003492,3130.504209342,None,3130.504209342,None,3130.504209342,None,3132.4542026110003,None,3132.4542026110003,None,3132.4542026110003,None,3132.4542026110003,None,,,,,,,,,,,,,,,,,,,,,,,,,,,,,,,,,,,,,,,,,,,,001,144,2020_Feb_20_0923,spring_faces,3.2.3,60.02417677804763,
condition files/Stage2_2.xlsx,,B1,T1,s,"['s', 'r']","['Stratego', 'Risk']","[-0.15, 0.5]","[0.15, 0.5]",1,1,,,,,,,,,,,,,,,,,0,3,3,3,0,4,4,2,,,,,,,,,,,,,,,,,,,,,,,,,,,,,,,,,,,,,,,,,,,,,,,3134.420875715,None,3134.420875715,None,3134.420875715,None,s,1,1.1637904520002849,3135.954207045,None,3135.954207045,None,3135.954207045,None,3137.187535037,None,3137.187535037,None,3137.187535037,None,3137.187535037,None,,,,,,,,,,,,,,,,,,,,,,,,,,,,,,,,,,,,,,,,,,,,001,144,2020_Feb_20_0923,spring_faces,3.2.3,60.02417677804763,
condition files/Stage2_2.xlsx,,T4,B4,r,"['s', 'r']","['Stratego', 'Risk']","[-0.15, 0.5]","[0.15, 0.5]",1,1,,,,,,,,,,,,,,,,,0,3,3,3,0,5,5,5,,,,,,,,,,,,,,,,,,,,,,,,,,,,,,,,,,,,,,,,,,,,,,,3139.154190263,None,3139.154190263,None,3139.154190263,None,r,1,1.8225736999997935,3140.6874012020003,None,3140.6874012020003,None,3140.6874012020003,None,3142.587539348,None,3142.587539348,None,3142.587539348,None,3142.587539348,None,,,,,,,,,,,,,,,,,,,,,,,,,,,,,,,,,,,,,,,,,,,,001,144,2020_Feb_20_0923,spring_faces,3.2.3,60.02417677804763,
condition files/Stage2_1.xlsx,,T3,B3,s,"['s', 'r']","['Stratego', 'Risk']","[-0.15, 0.5]","[0.15, 0.5]",1,1,,,,,,,,,,,,,,,,,0,4,4,4,0,0,0,4,,,,,,,,,,,,,,,,,,,,,,,,,,,,,,,,,,,,,,,,,,,,,,,3144.570866541,None,3144.570866541,None,3144.570866541,None,r,0,1.829806586000359,3146.104207747,None,3146.104207747,None,3146.104207747,None,3148.0041884360003,None,3148.0041884360003,None,3148.0041884360003,None,3148.0041884360003,None,,,,,,,,,,,,,,,,,,,,,,,,,,,,,,,,,,,,,,,,,,,,001,144,2020_Feb_20_0923,spring_faces,3.2.3,60.02417677804763,
condition files/Stage2_1.xlsx,,T5,B5,s,"['s', 'r']","['Stratego', 'Risk']","[-0.15, 0.5]","[0.15, 0.5]",1,1,,,,,,,,,,,,,,,,,0,4,4,4,0,1,1,0,,,,,,,,,,,,,,,,,,,,,,,,,,,,,,,,,,,,,,,,,,,,,,,3149.970828369,None,3149.970828369,None,3149.970828369,None,s,1,0.893853616999877,3151.5041292690003,None,3151.5041292690003,None,3151.5041292690003,None,3152.470883468,None,3152.470883468,None,3152.470883468,None,3152.470883468,None,,,,,,,,,,,,,,,,,,,,,,,,,,,,,,,,,,,,,,,,,,,,001,144,2020_Feb_20_0923,spring_faces,3.2.3,60.02417677804763,
condition files/Stage2_1.xlsx,,B6,T6,r,"['s', 'r']","['Stratego', 'Risk']","[-0.15, 0.5]","[0.15, 0.5]",1,1,,,,,,,,,,,,,,,,,0,4,4,4,0,2,2,1,,,,,,,,,,,,,,,,,,,,,,,,,,,,,,,,,,,,,,,,,,,,,,,3154.437563026,None,3154.437563026,None,3154.437563026,None,r,1,0.7311704890003057,3155.9708592770003,None,3155.9708592770003,None,3155.9708592770003,None,3156.7708491460003,None,3156.7708491460003,None,3156.7708491460003,None,3156.7708491460003,None,,,,,,,,,,,,,,,,,,,,,,,,,,,,,,,,,,,,,,,,,,,,001,144,2020_Feb_20_0923,spring_faces,3.2.3,60.02417677804763,
condition files/Stage2_1.xlsx,,B4,T4,r,"['s', 'r']","['Stratego', 'Risk']","[-0.15, 0.5]","[0.15, 0.5]",1,1,,,,,,,,,,,,,,,,,0,4,4,4,0,3,3,5,,,,,,,,,,,,,,,,,,,,,,,,,,,,,,,,,,,,,,,,,,,,,,,3158.7375452320002,None,3158.7375452320002,None,3158.7375452320002,None,r,1,0.6391714490000595,3160.2708103550003,None,3160.2708103550003,None,3160.2708103550003,None,3160.970722213,None,3160.970722213,None,3160.970722213,None,3160.970722213,None,,,,,,,,,,,,,,,,,,,,,,,,,,,,,,,,,,,,,,,,,,,,001,144,2020_Feb_20_0923,spring_faces,3.2.3,60.02417677804763,
condition files/Stage2_1.xlsx,,T1,B1,s,"['s', 'r']","['Stratego', 'Risk']","[-0.15, 0.5]","[0.15, 0.5]",1,1,,,,,,,,,,,,,,,,,0,4,4,4,0,4,4,2,,,,,,,,,,,,,,,,,,,,,,,,,,,,,,,,,,,,,,,,,,,,,,,3162.95423806,None,3162.95423806,None,3162.95423806,None,s,1,0.5664740329998494,3164.487556721,None,3164.487556721,None,3164.487556721,None,3165.1207971530002,None,3165.1207971530002,None,3165.1207971530002,None,3165.1207971530002,None,,,,,,,,,,,,,,,,,,,,,,,,,,,,,,,,,,,,,,,,,,,,001,144,2020_Feb_20_0923,spring_faces,3.2.3,60.02417677804763,
condition files/Stage2_1.xlsx,,B2,T2,r,"['s', 'r']","['Stratego', 'Risk']","[-0.15, 0.5]","[0.15, 0.5]",1,1,,,,,,,,,,,,,,,,,0,4,4,4,0,5,5,3,,,,,,,,,,,,,,,,,,,,,,,,,,,,,,,,,,,,,,,,,,,,,,,3167.087516471,None,3167.087516471,None,3167.087516471,None,r,1,1.969062489999942,3168.620846372,None,3168.620846372,None,3168.620846372,None,3170.670855971,None,3170.670855971,None,3170.670855971,None,3170.670855971,None,,,,,,,,,,,,,,,,,,,,,,,,,,,,,,,,,,,,,,,,,,,,001,144,2020_Feb_20_0923,spring_faces,3.2.3,60.02417677804763,
condition files/Stage2_2.xlsx,,B3,T3,s,"['s', 'r']","['Stratego', 'Risk']","[-0.15, 0.5]","[0.15, 0.5]",1,1,,,,,,,,,,,,,,,,,0,5,5,5,0,0,0,4,,,,,,,,,,,,,,,,,,,,,,,,,,,,,,,,,,,,,,,,,,,,,,,3172.654260998,None,3172.654260998,None,3172.654260998,None,s,1,0.8825386860003164,3174.1875238820003,None,3174.1875238820003,None,3174.1875238820003,None,3175.13740267,None,3175.13740267,None,3175.13740267,None,3175.13740267,None,,,,,,,,,,,,,,,,,,,,,,,,,,,,,,,,,,,,,,,,,,,,001,144,2020_Feb_20_0923,spring_faces,3.2.3,60.02417677804763,
condition files/Stage2_2.xlsx,,T4,B4,r,"['s', 'r']","['Stratego', 'Risk']","[-0.15, 0.5]","[0.15, 0.5]",1,1,,,,,,,,,,,,,,,,,0,5,5,5,0,1,1,5,,,,,,,,,,,,,,,,,,,,,,,,,,,,,,,,,,,,,,,,,,,,,,,3177.104118571,None,3177.104118571,None,3177.104118571,None,r,1,0.7044178239993926,3178.637521032,None,3178.637521032,None,3178.637521032,None,3179.420862741,None,3179.420862741,None,3179.420862741,None,3179.420862741,None,,,,,,,,,,,,,,,,,,,,,,,,,,,,,,,,,,,,,,,,,,,,001,144,2020_Feb_20_0923,spring_faces,3.2.3,60.02417677804763,
condition files/Stage2_2.xlsx,,B5,T5,s,"['s', 'r']","['Stratego', 'Risk']","[-0.15, 0.5]","[0.15, 0.5]",1,1,,,,,,,,,,,,,,,,,0,5,5,5,0,2,2,0,,,,,,,,,,,,,,,,,,,,,,,,,,,,,,,,,,,,,,,,,,,,,,,3181.387543693,None,3181.387543693,None,3181.387543693,None,s,1,0.629026485000395,3182.920849522,None,3182.920849522,None,3182.920849522,None,3183.6208752029997,None,3183.6208752029997,None,3183.6208752029997,None,3183.6208752029997,None,,,,,,,,,,,,,,,,,,,,,,,,,,,,,,,,,,,,,,,,,,,,001,144,2020_Feb_20_0923,spring_faces,3.2.3,60.02417677804763,
condition files/Stage2_2.xlsx,,B1,T1,s,"['s', 'r']","['Stratego', 'Risk']","[-0.15, 0.5]","[0.15, 0.5]",1,1,,,,,,,,,,,,,,,,,0,5,5,5,0,3,3,2,,,,,,,,,,,,,,,,,,,,,,,,,,,,,,,,,,,,,,,,,,,,,,,3185.5875718650004,None,3185.5875718650004,None,3185.5875718650004,None,s,1,0.5411576140004399,3187.1208305689997,None,3187.1208305689997,None,3187.1208305689997,None,3187.737564897,None,3187.737564897,None,3187.737564897,None,3187.737564897,None,,,,,,,,,,,,,,,,,,,,,,,,,,,,,,,,,,,,,,,,,,,,001,144,2020_Feb_20_0923,spring_faces,3.2.3,60.02417677804763,
