condsFile,subStage,cue1,cue2,correct,responseKeys,responseNames,cue1Position,cue2Position,cue1Opacity,cue2Opacity,stageLoop0.thisRepN,stageLoop0.thisTrialN,stageLoop0.thisN,stageLoop0.thisIndex,blockLoop0.thisRepN,blockLoop0.thisTrialN,blockLoop0.thisN,blockLoop0.thisIndex,stage1Loop.thisRepN,stage1Loop.thisTrialN,stage1Loop.thisN,stage1Loop.thisIndex,blockLoop1.thisRepN,blockLoop1.thisTrialN,blockLoop1.thisN,blockLoop1.thisIndex,stage2Loop.thisRepN,stage2Loop.thisTrialN,stage2Loop.thisN,stage2Loop.thisIndex,blockLoop2.thisRepN,blockLoop2.thisTrialN,blockLoop2.thisN,blockLoop2.thisIndex,testLoop.thisRepN,testLoop.thisTrialN,testLoop.thisN,testLoop.thisIndex,blockLoopTest.thisRepN,blockLoopTest.thisTrialN,blockLoopTest.thisN,blockLoopTest.thisIndex,cuePics,id_instr_text.started,id_instr_text.stopped,space_to_continue_2.started,space_to_continue_2.stopped,end_instructions_resp_3.keys,end_instructions_resp_3.rt,end_instructions_resp_3.started,end_instructions_resp_3.stopped,id_input_instr.started,id_input_instr.stopped,id_input_rect.started,id_input_rect.stopped,id_input_resp.keys,id_input_resp.rt,id_input_resp.started,id_input_resp.stopped,sonaID,id_input_text.started,id_input_text.stopped,final_text.started,final_text.stopped,instructions.started,instructions.stopped,end_instructions_resp.keys,end_instructions_resp.rt,end_instructions_resp.started,end_instructions_resp.stopped,space_to_continue.started,space_to_continue.stopped,instructions_stage0.started,instructions_stage0.stopped,end_instructions_resp_stage0.keys,end_instructions_resp_stage0.rt,end_instructions_resp_stage0.started,end_instructions_resp_stage0.stopped,space_to_continue_stage0.started,space_to_continue_stage0.stopped,text.started,text.stopped,resp_text1.started,resp_text1.stopped,resp_text2.started,resp_text2.stopped,trial_resp.keys,trial_resp.corr,trial_resp.rt,trial_resp.started,trial_resp.stopped,cue1Image.started,cue1Image.stopped,cue2Image.started,cue2Image.stopped,cue1Image_fb.started,cue1Image_fb.stopped,cue2Image_fb.started,cue2Image_fb.stopped,fb_text_answer.started,fb_text_answer.stopped,feedback_image.started,feedback_image.stopped,instructions_stage1.started,instructions_stage1.stopped,end_instructions_resp_stage1.keys,end_instructions_resp_stage1.rt,end_instructions_resp_stage1.started,end_instructions_resp_stage1.stopped,space_to_continue_stage1.started,space_to_continue_stage1.stopped,instructions_2.started,instructions_2.stopped,end_instructions_resp_2.keys,end_instructions_resp_2.rt,end_instructions_resp_2.started,end_instructions_resp_2.stopped,press_space_to_continue_stage2.started,press_space_to_continue_stage2.stopped,instructions_testStage1.started,instructions_testStage1.stopped,end_instructions_resp_test1.keys,end_instructions_resp_test1.rt,end_instructions_resp_test1.started,end_instructions_resp_test1.stopped,press_space_to_continue_test1.started,press_space_to_continue_test1.stopped,cue1Image_testChoice.started,cue1Image_testChoice.stopped,cue2Image_testChoice.started,cue2Image_testChoice.stopped,test_resp.keys,test_resp.corr,test_resp.rt,test_resp.started,test_resp.stopped,cue1Image_testConf.started,cue1Image_testConf.stopped,cue2Image_testConf.started,cue2Image_testConf.stopped,conf_reminder.started,conf_reminder.stopped,conf_rating.response,conf_rating.rt,conf_rating.started,conf_rating.stopped,session,participant,date,expName,psychopyVersion,frameRate,
,,,,,,,,,,,,,,,,,,,,,,,,,,,,,,,,,,,,,,,,,,,"{'none': 'pictures/20M_AN_C.png', 'alpha': 'pictures/SHINEd_melon.png', 'beta': 'pictures/SHINEd_pepper.png', 'theta': 'pictures/SHINEd_apple.png', 'phi': 'pictures/SHINEd_pear.png', 'T1': 'pictures/36M_AN_C.png', 'T2': 'pictures/37M_AN_C.png', 'T3': 'pictures/31M_AN_C.png', 'T4': 'pictures/33M_AN_C.png', 'T5': 'pictures/22M_AN_C.png', 'T6': 'pictures/26M_AN_C.png', 'B1': 'pictures/25M_NE_C.png', 'B2': 'pictures/34M_NE_C.png', 'B3': 'pictures/20M_NE_C.png', 'B4': 'pictures/23M_NE_C.png', 'B5': 'pictures/38M_NE_C.png', 'B6': 'pictures/32M_NE_C.png'}",15.578844343000128,None,20.57866455200019,None,space,35.06103500500012,20.57866455200019,None,,,,,,,,,,,,,,,,,,,,,,,,,,,,,,,,,,,,,,,,,,,,,,,,,,,,,,,,,,,,,,,,,,,,,,,,,,,,,,,,,,,,,,,,,,,,,,,,001,145,2020_Feb_20_1009,spring_faces,3.1.5,60.03905071933988,
,,,,,,,,,,,,,,,,,,,,,,,,,,,,,,,,,,,,,,,,,,,,,,,,,,,,56.02893891599979,None,56.02893891599979,None,"['0', '5', '0', '5', 'j', 'u', 'r', 'o', 'backspace', 'backspace', 'backspace', 'backspace', 'backspace', '3', 'j', 'u', 'r', 'o', 'c', '0', '5', '0', '3', 'j', 'u', 'r', 'o', 'c', '0', '5', '0', '3', 'j', 'u', 'r', 'o', 'c']","[14.250748421000026, 18.426851315999556, 19.146771900999738, 21.770793140999558, 26.282772997999928, 28.15479759200025, 37.61077862499951, 38.04273069699957, 40.76277944599951, 40.97079583300001, 41.16278521200002, 41.610779626000294, 42.058845814999586, 43.16279861899966, 44.39473754699975, 44.76277685700006, 45.642728329999954, 45.94671136800025, 49.386788046999754, 59.05072286900031, 63.258842647000165, 69.29083297899979, 70.92281090599954, 75.96277708900016, 77.46675073099959, 81.4667372670001, 81.80279249399973, 82.4427251950001, 98.18679671300015, 98.7947882440003, 99.22684922899953, 102.95479297099973, 114.93879849800032, 115.64277604299969, 123.57872783099992, 123.89877822499966, 125.85073902000022]",56.02893891599979,None,,,,,,,,,,,,,,,,,,,,,,,,,,,,,,,,,,,,,,,,,,,,,,,,,,,,,,,,,,,,,,,,,,,,,,,,,,,,,,,,,,,,,,,,001,145,2020_Feb_20_1009,spring_faces,3.1.5,60.03905071933988,
,,,,,,,,,,,,,,,,,,,,,,,,,,,,,,,,,,,,,,,,,,,,,,,,,,,,,,,,,,,,0503juroc,56.02893891599979,None,56.02893891599979,None,186.96256815499964,None,space,9.11727828400035,191.9623960050003,None,,,,,,,,,,,,,,,,,,,,,,,,,,,,,,,,,,,,,,,,,,,,,,,,,,,,,,,,,,,,,,,,,,,,,,,,,,,,,001,145,2020_Feb_20_1009,spring_faces,3.1.5,60.03905071933988,
,,,,,,,,,,,,,,,,,,,,,,,,,,,,,,,,,,,,,,,,,,,,,,,,,,,,,,,,,,,,,,,,,,,,,,,191.9623960050003,None,201.12892797600034,None,space,13.383047636999436,206.12868130399966,None,,,,,,,,,,,,,,,,,,,,,,,,,,,,,,,,,,,,,,,,,,,,,,,,,,,,,,,,,,,,,,,,,,,,,001,145,2020_Feb_20_1009,spring_faces,3.1.5,60.03905071933988,
condition files/Stage0a.xlsx,0a,beta,none,g,"['h', 'g']","['Chess', 'Go']","[0, 0.5]","[0, 0]",1,0,0,0,0,0,0,0,0,1,,,,,,,,,,,,,,,,,,,,,,,,,,,,,,,,,,,,,,,,,,,,,,,,,,,,,,,,,,,,,206.12868130399966,None,219.56232883899975,None,219.56232883899975,None,219.56232883899975,None,g,1,2.3821936079993975,221.14553773399984,None,221.14553773399984,None,221.14553773399984,None,223.59551521000049,None,223.59551521000049,None,223.59551521000049,None,223.59551521000049,None,,,,,,,,,,,,,,,,,,,,,,,,,,,,,,,,,,,,,,,,,,,,001,145,2020_Feb_20_1009,spring_faces,3.1.5,60.03905071933988,
condition files/Stage0a.xlsx,0a,alpha,none,h,"['h', 'g']","['Chess', 'Go']","[0, 0.5]","[0, 0]",1,0,0,0,0,0,0,1,1,0,,,,,,,,,,,,,,,,,,,,,,,,,,,,,,,,,,,,,,,,,,,,,,,,,,,,,,,,,,,,,,,225.54460153200034,None,225.54460153200034,None,225.54460153200034,None,h,1,0.9272031860000425,227.0964741079997,None,227.0964741079997,None,227.0964741079997,None,228.07897269299974,None,228.07897269299974,None,228.07897269299974,None,228.07897269299974,None,,,,,,,,,,,,,,,,,,,,,,,,,,,,,,,,,,,,,,,,,,,,001,145,2020_Feb_20_1009,spring_faces,3.1.5,60.03905071933988,
condition files/Stage0a.xlsx,0a,beta,none,g,"['h', 'g']","['Chess', 'Go']","[0, 0.5]","[0, 0]",1,0,0,1,1,1,0,0,0,1,,,,,,,,,,,,,,,,,,,,,,,,,,,,,,,,,,,,,,,,,,,,,,,,,,,,,,,,,,,,,,,230.0621757580002,None,230.0621757580002,None,230.0621757580002,None,h,0,0.5079775750000408,231.59582006100027,None,231.59582006100027,None,231.59582006100027,None,232.1620019789998,None,232.1620019789998,None,232.1620019789998,None,232.1620019789998,None,,,,,,,,,,,,,,,,,,,,,,,,,,,,,,,,,,,,,,,,,,,,001,145,2020_Feb_20_1009,spring_faces,3.1.5,60.03905071933988,
condition files/Stage0a.xlsx,0a,alpha,none,h,"['h', 'g']","['Chess', 'Go']","[0, 0.5]","[0, 0]",1,0,0,1,1,1,0,1,1,0,,,,,,,,,,,,,,,,,,,,,,,,,,,,,,,,,,,,,,,,,,,,,,,,,,,,,,,,,,,,,,,234.12933552200047,None,234.12933552200047,None,234.12933552200047,None,h,1,0.8581814300005135,235.66159790500024,None,235.66159790500024,None,235.66159790500024,None,236.57864166699983,None,236.57864166699983,None,236.57864166699983,None,236.57864166699983,None,,,,,,,,,,,,,,,,,,,,,,,,,,,,,,,,,,,,,,,,,,,,001,145,2020_Feb_20_1009,spring_faces,3.1.5,60.03905071933988,
condition files/Stage0a.xlsx,0a,beta,none,g,"['h', 'g']","['Chess', 'Go']","[0, 0.5]","[0, 0]",1,0,0,2,2,2,0,0,0,1,,,,,,,,,,,,,,,,,,,,,,,,,,,,,,,,,,,,,,,,,,,,,,,,,,,,,,,,,,,,,,,238.5616425139997,None,238.5616425139997,None,238.5616425139997,None,g,1,0.6166127360002065,240.0951195890002,None,240.0951195890002,None,240.0951195890002,None,240.76186463700014,None,240.76186463700014,None,240.76186463700014,None,240.76186463700014,None,,,,,,,,,,,,,,,,,,,,,,,,,,,,,,,,,,,,,,,,,,,,001,145,2020_Feb_20_1009,spring_faces,3.1.5,60.03905071933988,
condition files/Stage0a.xlsx,0a,alpha,none,h,"['h', 'g']","['Chess', 'Go']","[0, 0.5]","[0, 0]",1,0,0,2,2,2,0,1,1,0,,,,,,,,,,,,,,,,,,,,,,,,,,,,,,,,,,,,,,,,,,,,,,,,,,,,,,,,,,,,,,,242.7285866960001,None,242.7285866960001,None,242.7285866960001,None,h,1,2.1139226739996957,244.2617643630001,None,244.2617643630001,None,244.2617643630001,None,246.42803187800018,None,246.42803187800018,None,246.42803187800018,None,246.42803187800018,None,,,,,,,,,,,,,,,,,,,,,,,,,,,,,,,,,,,,,,,,,,,,001,145,2020_Feb_20_1009,spring_faces,3.1.5,60.03905071933988,
condition files/Stage0a.xlsx,0a,alpha,none,h,"['h', 'g']","['Chess', 'Go']","[0, 0.5]","[0, 0]",1,0,0,3,3,3,0,0,0,0,,,,,,,,,,,,,,,,,,,,,,,,,,,,,,,,,,,,,,,,,,,,,,,,,,,,,,,,,,,,,,,248.41212974399969,None,248.41212974399969,None,248.41212974399969,None,h,1,1.2466492809999181,249.94509160300004,None,249.94509160300004,None,249.94509160300004,None,251.24541973000032,None,251.24541973000032,None,251.24541973000032,None,251.24541973000032,None,,,,,,,,,,,,,,,,,,,,,,,,,,,,,,,,,,,,,,,,,,,,001,145,2020_Feb_20_1009,spring_faces,3.1.5,60.03905071933988,
condition files/Stage0a.xlsx,0a,beta,none,g,"['h', 'g']","['Chess', 'Go']","[0, 0.5]","[0, 0]",1,0,0,3,3,3,0,1,1,1,,,,,,,,,,,,,,,,,,,,,,,,,,,,,,,,,,,,,,,,,,,,,,,,,,,,,,,,,,,,,,,253.21240228700026,None,253.21240228700026,None,253.21240228700026,None,g,1,0.6544471560000602,254.74528123799973,None,254.74528123799973,None,254.74528123799973,None,255.46270019700023,None,255.46270019700023,None,255.46270019700023,None,255.46270019700023,None,,,,,,,,,,,,,,,,,,,,,,,,,,,,,,,,,,,,,,,,,,,,001,145,2020_Feb_20_1009,spring_faces,3.1.5,60.03905071933988,
condition files/Stage0a.xlsx,0a,alpha,none,h,"['h', 'g']","['Chess', 'Go']","[0, 0.5]","[0, 0]",1,0,0,4,4,4,0,0,0,0,,,,,,,,,,,,,,,,,,,,,,,,,,,,,,,,,,,,,,,,,,,,,,,,,,,,,,,,,,,,,,,257.4456820329997,None,257.4456820329997,None,257.4456820329997,None,h,1,0.6932556789997761,258.9784710040003,None,258.9784710040003,None,258.9784710040003,None,259.72836097599975,None,259.72836097599975,None,259.72836097599975,None,259.72836097599975,None,,,,,,,,,,,,,,,,,,,,,,,,,,,,,,,,,,,,,,,,,,,,001,145,2020_Feb_20_1009,spring_faces,3.1.5,60.03905071933988,
condition files/Stage0a.xlsx,0a,beta,none,g,"['h', 'g']","['Chess', 'Go']","[0, 0.5]","[0, 0]",1,0,0,4,4,4,0,1,1,1,,,,,,,,,,,,,,,,,,,,,,,,,,,,,,,,,,,,,,,,,,,,,,,,,,,,,,,,,,,,,,,261.6953388290003,None,261.6953388290003,None,261.6953388290003,None,g,1,0.42724371000076644,263.2285360960004,None,263.2285360960004,None,263.2285360960004,None,263.71176465400004,None,263.71176465400004,None,263.71176465400004,None,263.71176465400004,None,,,,,,,,,,,,,,,,,,,,,,,,,,,,,,,,,,,,,,,,,,,,001,145,2020_Feb_20_1009,spring_faces,3.1.5,60.03905071933988,
condition files/Stage0a.xlsx,0a,alpha,none,h,"['h', 'g']","['Chess', 'Go']","[0, 0.5]","[0, 0]",1,0,0,5,5,5,0,0,0,0,,,,,,,,,,,,,,,,,,,,,,,,,,,,,,,,,,,,,,,,,,,,,,,,,,,,,,,,,,,,,,,265.6952686989998,None,265.6952686989998,None,265.6952686989998,None,h,1,0.8426843460001692,267.22899974400025,None,267.22899974400025,None,267.22899974400025,None,268.1289359880002,None,268.1289359880002,None,268.1289359880002,None,268.1289359880002,None,,,,,,,,,,,,,,,,,,,,,,,,,,,,,,,,,,,,,,,,,,,,001,145,2020_Feb_20_1009,spring_faces,3.1.5,60.03905071933988,
condition files/Stage0a.xlsx,0a,beta,none,g,"['h', 'g']","['Chess', 'Go']","[0, 0.5]","[0, 0]",1,0,0,5,5,5,0,1,1,1,,,,,,,,,,,,,,,,,,,,,,,,,,,,,,,,,,,,,,,,,,,,,,,,,,,,,,,,,,,,,,,270.0952708630002,None,270.0952708630002,None,270.0952708630002,None,g,1,0.7307022330005566,271.6290169550002,None,271.6290169550002,None,271.6290169550002,None,272.41197942000053,None,272.41197942000053,None,272.41197942000053,None,272.41197942000053,None,,,,,,,,,,,,,,,,,,,,,,,,,,,,,,,,,,,,,,,,,,,,001,145,2020_Feb_20_1009,spring_faces,3.1.5,60.03905071933988,
condition files/Stage0b_1.xlsx,0b,none,beta,g,"['h', 'g']","['Chess', 'Go']","[-0.15, 0.5]","[0.15, 0.5]",0,1,0,6,6,6,0,0,0,1,,,,,,,,,,,,,,,,,,,,,,,,,,,,,,,,,,,,,,,,,,,,,,,,,,,,,,,,,,,,,,,274.39557746100036,None,274.39557746100036,None,274.39557746100036,None,g,1,0.6061577849995956,275.94562436399974,None,275.94562436399974,None,275.94562436399974,None,276.6129194060004,None,276.6129194060004,None,276.6129194060004,None,276.6129194060004,None,,,,,,,,,,,,,,,,,,,,,,,,,,,,,,,,,,,,,,,,,,,,001,145,2020_Feb_20_1009,spring_faces,3.1.5,60.03905071933988,
condition files/Stage0b_1.xlsx,0b,alpha,none,h,"['h', 'g']","['Chess', 'Go']","[-0.15, 0.5]","[0.15, 0.5]",1,0,0,6,6,6,0,1,1,0,,,,,,,,,,,,,,,,,,,,,,,,,,,,,,,,,,,,,,,,,,,,,,,,,,,,,,,,,,,,,,,278.57845031000033,None,278.57845031000033,None,278.57845031000033,None,h,1,0.6744889130004594,280.1172316029997,None,280.1172316029997,None,280.1172316029997,None,280.8464093800003,None,280.8464093800003,None,280.8464093800003,None,280.8464093800003,None,,,,,,,,,,,,,,,,,,,,,,,,,,,,,,,,,,,,,,,,,,,,001,145,2020_Feb_20_1009,spring_faces,3.1.5,60.03905071933988,
condition files/Stage0b_2.xlsx,0b,beta,none,g,"['h', 'g']","['Chess', 'Go']","[-0.15, 0.5]","[0.15, 0.5]",1,0,0,7,7,7,0,0,0,1,,,,,,,,,,,,,,,,,,,,,,,,,,,,,,,,,,,,,,,,,,,,,,,,,,,,,,,,,,,,,,,282.82917267799985,None,282.82917267799985,None,282.82917267799985,None,g,1,0.7344610390000526,284.3612492410002,None,284.3612492410002,None,284.3612492410002,None,285.1615652210003,None,285.1615652210003,None,285.1615652210003,None,285.1615652210003,None,,,,,,,,,,,,,,,,,,,,,,,,,,,,,,,,,,,,,,,,,,,,001,145,2020_Feb_20_1009,spring_faces,3.1.5,60.03905071933988,
condition files/Stage0b_2.xlsx,0b,none,alpha,h,"['h', 'g']","['Chess', 'Go']","[-0.15, 0.5]","[0.15, 0.5]",0,1,0,7,7,7,0,1,1,0,,,,,,,,,,,,,,,,,,,,,,,,,,,,,,,,,,,,,,,,,,,,,,,,,,,,,,,,,,,,,,,287.12867929000004,None,287.12867929000004,None,287.12867929000004,None,h,1,0.6088995330001126,288.67887464199976,None,288.67887464199976,None,288.67887464199976,None,289.3485540669999,None,289.3485540669999,None,289.3485540669999,None,289.3485540669999,None,,,,,,,,,,,,,,,,,,,,,,,,,,,,,,,,,,,,,,,,,,,,001,145,2020_Feb_20_1009,spring_faces,3.1.5,60.03905071933988,
condition files/Stage0b_1.xlsx,0b,none,beta,g,"['h', 'g']","['Chess', 'Go']","[-0.15, 0.5]","[0.15, 0.5]",0,1,0,8,8,8,0,0,0,1,,,,,,,,,,,,,,,,,,,,,,,,,,,,,,,,,,,,,,,,,,,,,,,,,,,,,,,,,,,,,,,291.32851053800005,None,291.32851053800005,None,291.32851053800005,None,h,0,0.32987527800014504,292.86185767700044,None,292.86185767700044,None,292.86185767700044,None,293.2448053850003,None,293.2448053850003,None,293.2448053850003,None,293.2448053850003,None,,,,,,,,,,,,,,,,,,,,,,,,,,,,,,,,,,,,,,,,,,,,001,145,2020_Feb_20_1009,spring_faces,3.1.5,60.03905071933988,
condition files/Stage0b_1.xlsx,0b,alpha,none,h,"['h', 'g']","['Chess', 'Go']","[-0.15, 0.5]","[0.15, 0.5]",1,0,0,8,8,8,0,1,1,0,,,,,,,,,,,,,,,,,,,,,,,,,,,,,,,,,,,,,,,,,,,,,,,,,,,,,,,,,,,,,,,295.2119411290005,None,295.2119411290005,None,295.2119411290005,None,g,0,0.6057403860004342,296.7620081519999,None,296.7620081519999,None,296.7620081519999,None,297.4327510290004,None,297.4327510290004,None,297.4327510290004,None,297.4327510290004,None,,,,,,,,,,,,,,,,,,,,,,,,,,,,,,,,,,,,,,,,,,,,001,145,2020_Feb_20_1009,spring_faces,3.1.5,60.03905071933988,
condition files/Stage0b_2.xlsx,0b,none,alpha,h,"['h', 'g']","['Chess', 'Go']","[-0.15, 0.5]","[0.15, 0.5]",0,1,0,9,9,9,0,0,0,0,,,,,,,,,,,,,,,,,,,,,,,,,,,,,,,,,,,,,,,,,,,,,,,,,,,,,,,,,,,,,,,299.41172663,None,299.41172663,None,299.41172663,None,h,1,0.7228040410000176,300.94893300400054,None,300.94893300400054,None,300.94893300400054,None,301.7286046899999,None,301.7286046899999,None,301.7286046899999,None,301.7286046899999,None,,,,,,,,,,,,,,,,,,,,,,,,,,,,,,,,,,,,,,,,,,,,001,145,2020_Feb_20_1009,spring_faces,3.1.5,60.03905071933988,
condition files/Stage0b_2.xlsx,0b,beta,none,g,"['h', 'g']","['Chess', 'Go']","[-0.15, 0.5]","[0.15, 0.5]",1,0,0,9,9,9,0,1,1,1,,,,,,,,,,,,,,,,,,,,,,,,,,,,,,,,,,,,,,,,,,,,,,,,,,,,,,,,,,,,,,,303.6948078719997,None,303.6948078719997,None,303.6948078719997,None,g,1,0.586156125999878,305.24556773099994,None,305.24556773099994,None,305.24556773099994,None,305.89581339600045,None,305.89581339600045,None,305.89581339600045,None,305.89581339600045,None,,,,,,,,,,,,,,,,,,,,,,,,,,,,,,,,,,,,,,,,,,,,001,145,2020_Feb_20_1009,spring_faces,3.1.5,60.03905071933988,
condition files/Stage0b_1.xlsx,0b,alpha,none,h,"['h', 'g']","['Chess', 'Go']","[-0.15, 0.5]","[0.15, 0.5]",1,0,0,10,10,10,0,0,0,0,,,,,,,,,,,,,,,,,,,,,,,,,,,,,,,,,,,,,,,,,,,,,,,,,,,,,,,,,,,,,,,307.87902352400033,None,307.87902352400033,None,307.87902352400033,None,h,1,0.803555659000267,309.41218342499997,None,309.41218342499997,None,309.41218342499997,None,310.27926614900025,None,310.27926614900025,None,310.27926614900025,None,310.27926614900025,None,,,,,,,,,,,,,,,,,,,,,,,,,,,,,,,,,,,,,,,,,,,,001,145,2020_Feb_20_1009,spring_faces,3.1.5,60.03905071933988,
condition files/Stage0b_1.xlsx,0b,none,beta,g,"['h', 'g']","['Chess', 'Go']","[-0.15, 0.5]","[0.15, 0.5]",0,1,0,10,10,10,0,1,1,1,,,,,,,,,,,,,,,,,,,,,,,,,,,,,,,,,,,,,,,,,,,,,,,,,,,,,,,,,,,,,,,312.2452989660005,None,312.2452989660005,None,312.2452989660005,None,g,1,0.500069663999966,313.7956459469997,None,313.7956459469997,None,313.7956459469997,None,314.36692149100054,None,314.36692149100054,None,314.36692149100054,None,314.36692149100054,None,,,,,,,,,,,,,,,,,,,,,,,,,,,,,,,,,,,,,,,,,,,,001,145,2020_Feb_20_1009,spring_faces,3.1.5,60.03905071933988,
condition files/Stage0b_2.xlsx,0b,beta,none,g,"['h', 'g']","['Chess', 'Go']","[-0.15, 0.5]","[0.15, 0.5]",1,0,0,11,11,11,0,0,0,1,,,,,,,,,,,,,,,,,,,,,,,,,,,,,,,,,,,,,,,,,,,,,,,,,,,,,,,,,,,,,,,316.3450523190004,None,316.3450523190004,None,316.3450523190004,None,g,1,0.557737189999898,317.8819953960001,None,317.8819953960001,None,317.8819953960001,None,318.4951334939997,None,318.4951334939997,None,318.4951334939997,None,318.4951334939997,None,,,,,,,,,,,,,,,,,,,,,,,,,,,,,,,,,,,,,,,,,,,,001,145,2020_Feb_20_1009,spring_faces,3.1.5,60.03905071933988,
condition files/Stage0b_2.xlsx,0b,none,alpha,h,"['h', 'g']","['Chess', 'Go']","[-0.15, 0.5]","[0.15, 0.5]",0,1,0,11,11,11,0,1,1,0,,,,,,,,,,,,,,,,,,,,,,,,,,,,,,,,,,,,,,,,,,,,,,,,,,,,,,,,,,,,,,,320.4615267859999,None,320.4615267859999,None,320.4615267859999,None,h,1,0.555497447999187,321.9961888759999,None,321.9961888759999,None,321.9961888759999,None,322.6132131109998,None,322.6132131109998,None,322.6132131109998,None,322.6132131109998,None,,,,,,,,,,,,,,,,,,,,,,,,,,,,,,,,,,,,,,,,,,,,001,145,2020_Feb_20_1009,spring_faces,3.1.5,60.03905071933988,
condition files/Stage0c_1.xlsx,0c,alpha,phi,h,"['h', 'g']","['Chess', 'Go']","[-0.15, 0.5]","[0.15, 0.5]",1,1,0,12,12,12,0,0,0,1,,,,,,,,,,,,,,,,,,,,,,,,,,,,,,,,,,,,,,,,,,,,,,,,,,,,,,,,,,,,,,,324.59509282,None,324.59509282,None,324.59509282,None,g,0,1.0954739230000996,326.1282287889999,None,326.1282287889999,None,326.1282287889999,None,327.27917104599965,None,327.27917104599965,None,327.27917104599965,None,327.27917104599965,None,,,,,,,,,,,,,,,,,,,,,,,,,,,,,,,,,,,,,,,,,,,,001,145,2020_Feb_20_1009,spring_faces,3.1.5,60.03905071933988,
condition files/Stage0c_1.xlsx,0c,beta,theta,g,"['h', 'g']","['Chess', 'Go']","[-0.15, 0.5]","[0.15, 0.5]",1,1,0,12,12,12,0,1,1,2,,,,,,,,,,,,,,,,,,,,,,,,,,,,,,,,,,,,,,,,,,,,,,,,,,,,,,,,,,,,,,,329.24512722000054,None,329.24512722000054,None,329.24512722000054,None,g,1,1.3896150999999008,330.7781174689999,None,330.7781174689999,None,330.7781174689999,None,332.22884602700015,None,332.22884602700015,None,332.22884602700015,None,332.22884602700015,None,,,,,,,,,,,,,,,,,,,,,,,,,,,,,,,,,,,,,,,,,,,,001,145,2020_Feb_20_1009,spring_faces,3.1.5,60.03905071933988,
condition files/Stage0c_1.xlsx,0c,theta,alpha,h,"['h', 'g']","['Chess', 'Go']","[-0.15, 0.5]","[0.15, 0.5]",1,1,0,12,12,12,0,2,2,0,,,,,,,,,,,,,,,,,,,,,,,,,,,,,,,,,,,,,,,,,,,,,,,,,,,,,,,,,,,,,,,334.19471634300044,None,334.19471634300044,None,334.19471634300044,None,h,1,2.0076172819999556,335.7281609210004,None,335.7281609210004,None,335.7281609210004,None,337.7949629479999,None,337.7949629479999,None,337.7949629479999,None,337.7949629479999,None,,,,,,,,,,,,,,,,,,,,,,,,,,,,,,,,,,,,,,,,,,,,001,145,2020_Feb_20_1009,spring_faces,3.1.5,60.03905071933988,
condition files/Stage0c_1.xlsx,0c,phi,beta,g,"['h', 'g']","['Chess', 'Go']","[-0.15, 0.5]","[0.15, 0.5]",1,1,0,12,12,12,0,3,3,3,,,,,,,,,,,,,,,,,,,,,,,,,,,,,,,,,,,,,,,,,,,,,,,,,,,,,,,,,,,,,,,339.76207966200036,None,339.76207966200036,None,339.76207966200036,None,g,1,0.7446949269997276,341.29501108299974,None,341.29501108299974,None,341.29501108299974,None,342.0949592960005,None,342.0949592960005,None,342.0949592960005,None,342.0949592960005,None,,,,,,,,,,,,,,,,,,,,,,,,,,,,,,,,,,,,,,,,,,,,001,145,2020_Feb_20_1009,spring_faces,3.1.5,60.03905071933988,
condition files/Stage0c_2.xlsx,0c,phi,alpha,h,"['h', 'g']","['Chess', 'Go']","[-0.15, 0.5]","[0.15, 0.5]",1,1,0,13,13,13,0,0,0,1,,,,,,,,,,,,,,,,,,,,,,,,,,,,,,,,,,,,,,,,,,,,,,,,,,,,,,,,,,,,,,,344.0792194120004,None,344.0792194120004,None,344.0792194120004,None,h,1,0.9074368329993376,345.61236116000055,None,345.61236116000055,None,345.61236116000055,None,346.5788125420004,None,346.5788125420004,None,346.5788125420004,None,346.5788125420004,None,,,,,,,,,,,,,,,,,,,,,,,,,,,,,,,,,,,,,,,,,,,,001,145,2020_Feb_20_1009,spring_faces,3.1.5,60.03905071933988,
condition files/Stage0c_2.xlsx,0c,alpha,theta,h,"['h', 'g']","['Chess', 'Go']","[-0.15, 0.5]","[0.15, 0.5]",1,1,0,13,13,13,0,1,1,0,,,,,,,,,,,,,,,,,,,,,,,,,,,,,,,,,,,,,,,,,,,,,,,,,,,,,,,,,,,,,,,348.5452390299997,None,348.5452390299997,None,348.5452390299997,None,h,1,1.401051746000121,350.0786380210002,None,350.0786380210002,None,350.0786380210002,None,351.53054741100004,None,351.53054741100004,None,351.53054741100004,None,351.53054741100004,None,,,,,,,,,,,,,,,,,,,,,,,,,,,,,,,,,,,,,,,,,,,,001,145,2020_Feb_20_1009,spring_faces,3.1.5,60.03905071933988,
condition files/Stage0c_2.xlsx,0c,theta,beta,g,"['h', 'g']","['Chess', 'Go']","[-0.15, 0.5]","[0.15, 0.5]",1,1,0,13,13,13,0,2,2,2,,,,,,,,,,,,,,,,,,,,,,,,,,,,,,,,,,,,,,,,,,,,,,,,,,,,,,,,,,,,,,,353.5121376590005,None,353.5121376590005,None,353.5121376590005,None,g,1,0.8027274169999146,355.04500280200045,None,355.04500280200045,None,355.04500280200045,None,355.89897566499985,None,355.89897566499985,None,355.89897566499985,None,355.89897566499985,None,,,,,,,,,,,,,,,,,,,,,,,,,,,,,,,,,,,,,,,,,,,,001,145,2020_Feb_20_1009,spring_faces,3.1.5,60.03905071933988,
condition files/Stage0c_2.xlsx,0c,beta,phi,g,"['h', 'g']","['Chess', 'Go']","[-0.15, 0.5]","[0.15, 0.5]",1,1,0,13,13,13,0,3,3,3,,,,,,,,,,,,,,,,,,,,,,,,,,,,,,,,,,,,,,,,,,,,,,,,,,,,,,,,,,,,,,,357.8787042439999,None,357.8787042439999,None,357.8787042439999,None,h,0,0.788246211999649,359.4114875410005,None,359.4114875410005,None,359.4114875410005,None,360.2462390569999,None,360.2462390569999,None,360.2462390569999,None,360.2462390569999,None,,,,,,,,,,,,,,,,,,,,,,,,,,,,,,,,,,,,,,,,,,,,001,145,2020_Feb_20_1009,spring_faces,3.1.5,60.03905071933988,
condition files/Stage0c_1.xlsx,0c,theta,alpha,h,"['h', 'g']","['Chess', 'Go']","[-0.15, 0.5]","[0.15, 0.5]",1,1,0,14,14,14,0,0,0,0,,,,,,,,,,,,,,,,,,,,,,,,,,,,,,,,,,,,,,,,,,,,,,,,,,,,,,,,,,,,,,,362.24554975200044,None,362.24554975200044,None,362.24554975200044,None,g,0,0.7891844599998876,363.77856438300023,None,363.77856438300023,None,363.77856438300023,None,364.62893110300047,None,364.62893110300047,None,364.62893110300047,None,364.62893110300047,None,,,,,,,,,,,,,,,,,,,,,,,,,,,,,,,,,,,,,,,,,,,,001,145,2020_Feb_20_1009,spring_faces,3.1.5,60.03905071933988,
condition files/Stage0c_1.xlsx,0c,phi,beta,g,"['h', 'g']","['Chess', 'Go']","[-0.15, 0.5]","[0.15, 0.5]",1,1,0,14,14,14,0,1,1,3,,,,,,,,,,,,,,,,,,,,,,,,,,,,,,,,,,,,,,,,,,,,,,,,,,,,,,,,,,,,,,,366.5952707690003,None,366.5952707690003,None,366.5952707690003,None,g,1,0.8875207529999898,368.1282010599998,None,368.1282010599998,None,368.1282010599998,None,369.0789227759997,None,369.0789227759997,None,369.0789227759997,None,369.0789227759997,None,,,,,,,,,,,,,,,,,,,,,,,,,,,,,,,,,,,,,,,,,,,,001,145,2020_Feb_20_1009,spring_faces,3.1.5,60.03905071933988,
condition files/Stage0c_1.xlsx,0c,alpha,phi,h,"['h', 'g']","['Chess', 'Go']","[-0.15, 0.5]","[0.15, 0.5]",1,1,0,14,14,14,0,2,2,1,,,,,,,,,,,,,,,,,,,,,,,,,,,,,,,,,,,,,,,,,,,,,,,,,,,,,,,,,,,,,,,371.04529358699983,None,371.04529358699983,None,371.04529358699983,None,h,1,1.0453279549992658,372.5783735220002,None,372.5783735220002,None,372.5783735220002,None,373.67914665100034,None,373.67914665100034,None,373.67914665100034,None,373.67914665100034,None,,,,,,,,,,,,,,,,,,,,,,,,,,,,,,,,,,,,,,,,,,,,001,145,2020_Feb_20_1009,spring_faces,3.1.5,60.03905071933988,
condition files/Stage0c_1.xlsx,0c,beta,theta,g,"['h', 'g']","['Chess', 'Go']","[-0.15, 0.5]","[0.15, 0.5]",1,1,0,14,14,14,0,3,3,2,,,,,,,,,,,,,,,,,,,,,,,,,,,,,,,,,,,,,,,,,,,,,,,,,,,,,,,,,,,,,,,375.64463671500016,None,375.64463671500016,None,375.64463671500016,None,g,1,0.701616567000201,377.17808449099994,None,377.17808449099994,None,377.17808449099994,None,377.9456181249998,None,377.9456181249998,None,377.9456181249998,None,377.9456181249998,None,,,,,,,,,,,,,,,,,,,,,,,,,,,,,,,,,,,,,,,,,,,,001,145,2020_Feb_20_1009,spring_faces,3.1.5,60.03905071933988,
condition files/Stage0c_2.xlsx,0c,beta,phi,g,"['h', 'g']","['Chess', 'Go']","[-0.15, 0.5]","[0.15, 0.5]",1,1,0,15,15,15,0,0,0,3,,,,,,,,,,,,,,,,,,,,,,,,,,,,,,,,,,,,,,,,,,,,,,,,,,,,,,,,,,,,,,,379.9282939880004,None,379.9282939880004,None,379.9282939880004,None,g,1,0.9455105200004255,381.46223152200037,None,381.46223152200037,None,381.46223152200037,None,382.4448017730001,None,382.4448017730001,None,382.4448017730001,None,382.4448017730001,None,,,,,,,,,,,,,,,,,,,,,,,,,,,,,,,,,,,,,,,,,,,,001,145,2020_Feb_20_1009,spring_faces,3.1.5,60.03905071933988,
condition files/Stage0c_2.xlsx,0c,theta,beta,g,"['h', 'g']","['Chess', 'Go']","[-0.15, 0.5]","[0.15, 0.5]",1,1,0,15,15,15,0,1,1,2,,,,,,,,,,,,,,,,,,,,,,,,,,,,,,,,,,,,,,,,,,,,,,,,,,,,,,,,,,,,,,,384.428593052,None,384.428593052,None,384.428593052,None,g,1,0.8139079860002312,385.9617477840002,None,385.9617477840002,None,385.9617477840002,None,386.8122784369998,None,386.8122784369998,None,386.8122784369998,None,386.8122784369998,None,,,,,,,,,,,,,,,,,,,,,,,,,,,,,,,,,,,,,,,,,,,,001,145,2020_Feb_20_1009,spring_faces,3.1.5,60.03905071933988,
condition files/Stage0c_2.xlsx,0c,phi,alpha,h,"['h', 'g']","['Chess', 'Go']","[-0.15, 0.5]","[0.15, 0.5]",1,1,0,15,15,15,0,2,2,1,,,,,,,,,,,,,,,,,,,,,,,,,,,,,,,,,,,,,,,,,,,,,,,,,,,,,,,,,,,,,,,388.7953558580002,None,388.7953558580002,None,388.7953558580002,None,h,1,1.2153680660003374,390.3283569659998,None,390.3283569659998,None,390.3283569659998,None,391.5954800740001,None,391.5954800740001,None,391.5954800740001,None,391.5954800740001,None,,,,,,,,,,,,,,,,,,,,,,,,,,,,,,,,,,,,,,,,,,,,001,145,2020_Feb_20_1009,spring_faces,3.1.5,60.03905071933988,
condition files/Stage0c_2.xlsx,0c,alpha,theta,h,"['h', 'g']","['Chess', 'Go']","[-0.15, 0.5]","[0.15, 0.5]",1,1,0,15,15,15,0,3,3,0,,,,,,,,,,,,,,,,,,,,,,,,,,,,,,,,,,,,,,,,,,,,,,,,,,,,,,,,,,,,,,,393.5619318609997,None,393.5619318609997,None,393.5619318609997,None,g,0,1.1200781630004712,395.09565152600044,None,395.09565152600044,None,395.09565152600044,None,396.26508161200036,None,396.26508161200036,None,396.26508161200036,None,396.26508161200036,None,,,,,,,,,,,,,,,,,,,,,,,,,,,,,,,,,,,,,,,,,,,,001,145,2020_Feb_20_1009,spring_faces,3.1.5,60.03905071933988,
condition files/Stage0c_1.xlsx,0c,phi,beta,g,"['h', 'g']","['Chess', 'Go']","[-0.15, 0.5]","[0.15, 0.5]",1,1,0,16,16,16,0,0,0,3,,,,,,,,,,,,,,,,,,,,,,,,,,,,,,,,,,,,,,,,,,,,,,,,,,,,,,,,,,,,,,,398.2622457819998,None,398.2622457819998,None,398.2622457819998,None,g,1,0.7559965829996145,399.7957483830005,None,399.7957483830005,None,399.7957483830005,None,400.61220121800034,None,400.61220121800034,None,400.61220121800034,None,400.61220121800034,None,,,,,,,,,,,,,,,,,,,,,,,,,,,,,,,,,,,,,,,,,,,,001,145,2020_Feb_20_1009,spring_faces,3.1.5,60.03905071933988,
condition files/Stage0c_1.xlsx,0c,beta,theta,g,"['h', 'g']","['Chess', 'Go']","[-0.15, 0.5]","[0.15, 0.5]",1,1,0,16,16,16,0,1,1,2,,,,,,,,,,,,,,,,,,,,,,,,,,,,,,,,,,,,,,,,,,,,,,,,,,,,,,,,,,,,,,,402.5785845090004,None,402.5785845090004,None,402.5785845090004,None,h,0,1.7992861020002238,404.1124226689999,None,404.1124226689999,None,404.1124226689999,None,405.94730487200013,None,405.94730487200013,None,405.94730487200013,None,405.94730487200013,None,,,,,,,,,,,,,,,,,,,,,,,,,,,,,,,,,,,,,,,,,,,,001,145,2020_Feb_20_1009,spring_faces,3.1.5,60.03905071933988,
condition files/Stage0c_1.xlsx,0c,alpha,phi,h,"['h', 'g']","['Chess', 'Go']","[-0.15, 0.5]","[0.15, 0.5]",1,1,0,16,16,16,0,2,2,1,,,,,,,,,,,,,,,,,,,,,,,,,,,,,,,,,,,,,,,,,,,,,,,,,,,,,,,,,,,,,,,407.9286799020001,None,407.9286799020001,None,407.9286799020001,None,g,0,0.6734274069995081,409.4622736470001,None,409.4622736470001,None,409.4622736470001,None,410.1956976290003,None,410.1956976290003,None,410.1956976290003,None,410.1956976290003,None,,,,,,,,,,,,,,,,,,,,,,,,,,,,,,,,,,,,,,,,,,,,001,145,2020_Feb_20_1009,spring_faces,3.1.5,60.03905071933988,
condition files/Stage0c_1.xlsx,0c,theta,alpha,h,"['h', 'g']","['Chess', 'Go']","[-0.15, 0.5]","[0.15, 0.5]",1,1,0,16,16,16,0,3,3,0,,,,,,,,,,,,,,,,,,,,,,,,,,,,,,,,,,,,,,,,,,,,,,,,,,,,,,,,,,,,,,,412.1621474630001,None,412.1621474630001,None,412.1621474630001,None,h,1,0.9681364469997789,413.6955347869998,None,413.6955347869998,None,413.6955347869998,None,414.7130585800005,None,414.7130585800005,None,414.7130585800005,None,414.7130585800005,None,,,,,,,,,,,,,,,,,,,,,,,,,,,,,,,,,,,,,,,,,,,,001,145,2020_Feb_20_1009,spring_faces,3.1.5,60.03905071933988,
condition files/Stage0c_2.xlsx,0c,theta,beta,g,"['h', 'g']","['Chess', 'Go']","[-0.15, 0.5]","[0.15, 0.5]",1,1,0,17,17,17,0,0,0,2,,,,,,,,,,,,,,,,,,,,,,,,,,,,,,,,,,,,,,,,,,,,,,,,,,,,,,,,,,,,,,,416.7122394520002,None,416.7122394520002,None,416.7122394520002,None,g,1,0.8181755400000839,418.2455321590005,None,418.2455321590005,None,418.2455321590005,None,419.12882409400027,None,419.12882409400027,None,419.12882409400027,None,419.12882409400027,None,,,,,,,,,,,,,,,,,,,,,,,,,,,,,,,,,,,,,,,,,,,,001,145,2020_Feb_20_1009,spring_faces,3.1.5,60.03905071933988,
condition files/Stage0c_2.xlsx,0c,phi,alpha,h,"['h', 'g']","['Chess', 'Go']","[-0.15, 0.5]","[0.15, 0.5]",1,1,0,17,17,17,0,1,1,1,,,,,,,,,,,,,,,,,,,,,,,,,,,,,,,,,,,,,,,,,,,,,,,,,,,,,,,,,,,,,,,421.0951726330004,None,421.0951726330004,None,421.0951726330004,None,h,1,0.6910312290001457,422.62875643700045,None,422.62875643700045,None,422.62875643700045,None,423.37882000900026,None,423.37882000900026,None,423.37882000900026,None,423.37882000900026,None,,,,,,,,,,,,,,,,,,,,,,,,,,,,,,,,,,,,,,,,,,,,001,145,2020_Feb_20_1009,spring_faces,3.1.5,60.03905071933988,
condition files/Stage0c_2.xlsx,0c,beta,phi,g,"['h', 'g']","['Chess', 'Go']","[-0.15, 0.5]","[0.15, 0.5]",1,1,0,17,17,17,0,2,2,3,,,,,,,,,,,,,,,,,,,,,,,,,,,,,,,,,,,,,,,,,,,,,,,,,,,,,,,,,,,,,,,425.3445506750004,None,425.3445506750004,None,425.3445506750004,None,g,1,0.5684437039999466,426.8792733480004,None,426.8792733480004,None,426.8792733480004,None,427.5122838899997,None,427.5122838899997,None,427.5122838899997,None,427.5122838899997,None,,,,,,,,,,,,,,,,,,,,,,,,,,,,,,,,,,,,,,,,,,,,001,145,2020_Feb_20_1009,spring_faces,3.1.5,60.03905071933988,
condition files/Stage0c_2.xlsx,0c,alpha,theta,h,"['h', 'g']","['Chess', 'Go']","[-0.15, 0.5]","[0.15, 0.5]",1,1,0,17,17,17,0,3,3,0,,,,,,,,,,,,,,,,,,,,,,,,,,,,,,,,,,,,,,,,,,,,,,,,,,,,,,,,,,,,,,,429.47890764299973,None,429.47890764299973,None,429.47890764299973,None,h,1,0.6115338409999822,431.0121832579998,None,431.0121832579998,None,431.0121832579998,None,431.67898557900025,None,431.67898557900025,None,431.67898557900025,None,431.67898557900025,None,,,,,,,,,,,,,,,,,,,,,,,,,,,,,,,,,,,,,,,,,,,,001,145,2020_Feb_20_1009,spring_faces,3.1.5,60.03905071933988,
,,,,,,,,,,,,,,,,,,,,,,,,,,,,,,,,,,,,,,,,,,,,,,,,,,,,,,,,,,,,,,,,,,,,,,,,,,,,,,,,,,,,,,,,,,,,,,,,,,,,,,,,433.66205444800016,None,space,5.20159486600005,438.6621481940001,None,,,,,,,,,,,,,,,,,,,,,,,,,,,,,,,,,,,,,,001,145,2020_Feb_20_1009,spring_faces,3.1.5,60.03905071933988,
condition files/Stage1_1.xlsx,,B2,T1,m,"['c', 'm']","['Clue', 'Monopoly']","[-0.15, 0.5]","[0.15, 0.5]",1,1,,,,,,,,,0,0,0,0,0,0,0,2,,,,,,,,,,,,,,,,,,,,,,,,,,,,,,,,,,,,,,,,,,,,,,,,,,,,,,,443.92891703500027,None,443.92891703500027,None,443.92891703500027,None,c,0,2.223981393000031,445.51180853000005,None,445.51180853000005,None,445.51180853000005,None,447.81169675599995,None,447.81169675599995,None,447.81169675599995,None,447.81169675599995,None,,,,,,,438.6621481940001,None,,,,,,,,,,,,,,,,,,,,,,,,,,,,,,,,,,,,001,145,2020_Feb_20_1009,spring_faces,3.1.5,60.03905071933988,
condition files/Stage1_1.xlsx,,T1,B1,c,"['c', 'm']","['Clue', 'Monopoly']","[-0.15, 0.5]","[0.15, 0.5]",1,1,,,,,,,,,0,0,0,0,0,1,1,0,,,,,,,,,,,,,,,,,,,,,,,,,,,,,,,,,,,,,,,,,,,,,,,,,,,,,,,449.7619858480002,None,449.7619858480002,None,449.7619858480002,None,m,0,1.0933722699992359,451.36242525299986,None,451.36242525299986,None,451.36242525299986,None,452.52904505399965,None,452.52904505399965,None,452.52904505399965,None,452.52904505399965,None,,,,,,,,,,,,,,,,,,,,,,,,,,,,,,,,,,,,,,,,,,,,001,145,2020_Feb_20_1009,spring_faces,3.1.5,60.03905071933988,
condition files/Stage1_1.xlsx,,B1,T2,c,"['c', 'm']","['Clue', 'Monopoly']","[-0.15, 0.5]","[0.15, 0.5]",1,1,,,,,,,,,0,0,0,0,0,2,2,1,,,,,,,,,,,,,,,,,,,,,,,,,,,,,,,,,,,,,,,,,,,,,,,,,,,,,,,454.4788384330004,None,454.4788384330004,None,454.4788384330004,None,m,0,0.8756482250000772,456.01215042199965,None,456.01215042199965,None,456.01215042199965,None,456.94554496599994,None,456.94554496599994,None,456.94554496599994,None,456.94554496599994,None,,,,,,,,,,,,,,,,,,,,,,,,,,,,,,,,,,,,,,,,,,,,001,145,2020_Feb_20_1009,spring_faces,3.1.5,60.03905071933988,
condition files/Stage1_1.xlsx,,T4,B3,m,"['c', 'm']","['Clue', 'Monopoly']","[-0.15, 0.5]","[0.15, 0.5]",1,1,,,,,,,,,0,0,0,0,0,3,3,6,,,,,,,,,,,,,,,,,,,,,,,,,,,,,,,,,,,,,,,,,,,,,,,,,,,,,,,458.9119595410002,None,458.9119595410002,None,458.9119595410002,None,m,1,0.6347217310003543,460.444942866,None,460.444942866,None,460.444942866,None,461.1478942470003,None,461.1478942470003,None,461.1478942470003,None,461.1478942470003,None,,,,,,,,,,,,,,,,,,,,,,,,,,,,,,,,,,,,,,,,,,,,001,145,2020_Feb_20_1009,spring_faces,3.1.5,60.03905071933988,
condition files/Stage1_1.xlsx,,T3,B4,c,"['c', 'm']","['Clue', 'Monopoly']","[-0.15, 0.5]","[0.15, 0.5]",1,1,,,,,,,,,0,0,0,0,0,4,4,5,,,,,,,,,,,,,,,,,,,,,,,,,,,,,,,,,,,,,,,,,,,,,,,,,,,,,,,463.11178467300033,None,463.11178467300033,None,463.11178467300033,None,c,1,0.2722117299999809,464.6955294600002,None,464.6955294600002,None,464.6955294600002,None,465.0284132679999,None,465.0284132679999,None,465.0284132679999,None,465.0284132679999,None,,,,,,,,,,,,,,,,,,,,,,,,,,,,,,,,,,,,,,,,,,,,001,145,2020_Feb_20_1009,spring_faces,3.1.5,60.03905071933988,
condition files/Stage1_1.xlsx,,B4,T4,m,"['c', 'm']","['Clue', 'Monopoly']","[-0.15, 0.5]","[0.15, 0.5]",1,1,,,,,,,,,0,0,0,0,0,5,5,7,,,,,,,,,,,,,,,,,,,,,,,,,,,,,,,,,,,,,,,,,,,,,,,,,,,,,,,466.9952269530004,None,466.9952269530004,None,466.9952269530004,None,c,0,1.0782723989996157,468.52941566499976,None,468.52941566499976,None,468.52941566499976,None,469.6629066779997,None,469.6629066779997,None,469.6629066779997,None,469.6629066779997,None,,,,,,,,,,,,,,,,,,,,,,,,,,,,,,,,,,,,,,,,,,,,001,145,2020_Feb_20_1009,spring_faces,3.1.5,60.03905071933988,
condition files/Stage1_1.xlsx,,B3,T3,c,"['c', 'm']","['Clue', 'Monopoly']","[-0.15, 0.5]","[0.15, 0.5]",1,1,,,,,,,,,0,0,0,0,0,6,6,4,,,,,,,,,,,,,,,,,,,,,,,,,,,,,,,,,,,,,,,,,,,,,,,,,,,,,,,471.62864653900033,None,471.62864653900033,None,471.62864653900033,None,m,0,0.8297511729997495,473.1621984200001,None,473.1621984200001,None,473.1621984200001,None,474.0449998260001,None,474.0449998260001,None,474.0449998260001,None,474.0449998260001,None,,,,,,,,,,,,,,,,,,,,,,,,,,,,,,,,,,,,,,,,,,,,001,145,2020_Feb_20_1009,spring_faces,3.1.5,60.03905071933988,
condition files/Stage1_1.xlsx,,T2,B2,m,"['c', 'm']","['Clue', 'Monopoly']","[-0.15, 0.5]","[0.15, 0.5]",1,1,,,,,,,,,0,0,0,0,0,7,7,3,,,,,,,,,,,,,,,,,,,,,,,,,,,,,,,,,,,,,,,,,,,,,,,,,,,,,,,476.0119050780004,None,476.0119050780004,None,476.0119050780004,None,m,1,1.0542802159998246,477.5454516959999,None,477.5454516959999,None,477.5454516959999,None,478.6784013260003,None,478.6784013260003,None,478.6784013260003,None,478.6784013260003,None,,,,,,,,,,,,,,,,,,,,,,,,,,,,,,,,,,,,,,,,,,,,001,145,2020_Feb_20_1009,spring_faces,3.1.5,60.03905071933988,
condition files/Stage1_2.xlsx,,T3,B3,c,"['c', 'm']","['Clue', 'Monopoly']","[-0.15, 0.5]","[0.15, 0.5]",1,1,,,,,,,,,0,1,1,1,0,0,0,4,,,,,,,,,,,,,,,,,,,,,,,,,,,,,,,,,,,,,,,,,,,,,,,,,,,,,,,480.6451332610004,None,480.6451332610004,None,480.6451332610004,None,c,1,1.204283834999842,482.1794771730001,None,482.1794771730001,None,482.1794771730001,None,483.44809244000044,None,483.44809244000044,None,483.44809244000044,None,483.44809244000044,None,,,,,,,,,,,,,,,,,,,,,,,,,,,,,,,,,,,,,,,,,,,,001,145,2020_Feb_20_1009,spring_faces,3.1.5,60.03905071933988,
condition files/Stage1_2.xlsx,,T1,B2,m,"['c', 'm']","['Clue', 'Monopoly']","[-0.15, 0.5]","[0.15, 0.5]",1,1,,,,,,,,,0,1,1,1,0,1,1,2,,,,,,,,,,,,,,,,,,,,,,,,,,,,,,,,,,,,,,,,,,,,,,,,,,,,,,,485.4120679280004,None,485.4120679280004,None,485.4120679280004,None,c,0,2.741881150000154,486.9459144470002,None,486.9459144470002,None,486.9459144470002,None,489.7460510990004,None,489.7460510990004,None,489.7460510990004,None,489.7460510990004,None,,,,,,,,,,,,,,,,,,,,,,,,,,,,,,,,,,,,,,,,,,,,001,145,2020_Feb_20_1009,spring_faces,3.1.5,60.03905071933988,
condition files/Stage1_2.xlsx,,T4,B4,m,"['c', 'm']","['Clue', 'Monopoly']","[-0.15, 0.5]","[0.15, 0.5]",1,1,,,,,,,,,0,1,1,1,0,2,2,7,,,,,,,,,,,,,,,,,,,,,,,,,,,,,,,,,,,,,,,,,,,,,,,,,,,,,,,491.7119400239999,None,491.7119400239999,None,491.7119400239999,None,m,1,2.5388835779995134,493.24485785399975,None,493.24485785399975,None,493.24485785399975,None,495.8454124629998,None,495.8454124629998,None,495.8454124629998,None,495.8454124629998,None,,,,,,,,,,,,,,,,,,,,,,,,,,,,,,,,,,,,,,,,,,,,001,145,2020_Feb_20_1009,spring_faces,3.1.5,60.03905071933988,
condition files/Stage1_2.xlsx,,B3,T4,m,"['c', 'm']","['Clue', 'Monopoly']","[-0.15, 0.5]","[0.15, 0.5]",1,1,,,,,,,,,0,1,1,1,0,3,3,6,,,,,,,,,,,,,,,,,,,,,,,,,,,,,,,,,,,,,,,,,,,,,,,,,,,,,,,497.8115897830003,None,497.8115897830003,None,497.8115897830003,None,m,1,1.9106280599999081,499.34518310600015,None,499.34518310600015,None,499.34518310600015,None,501.3117854990005,None,501.3117854990005,None,501.3117854990005,None,501.3117854990005,None,,,,,,,,,,,,,,,,,,,,,,,,,,,,,,,,,,,,,,,,,,,,001,145,2020_Feb_20_1009,spring_faces,3.1.5,60.03905071933988,
condition files/Stage1_2.xlsx,,B4,T3,c,"['c', 'm']","['Clue', 'Monopoly']","[-0.15, 0.5]","[0.15, 0.5]",1,1,,,,,,,,,0,1,1,1,0,4,4,5,,,,,,,,,,,,,,,,,,,,,,,,,,,,,,,,,,,,,,,,,,,,,,,,,,,,,,,503.2788932430003,None,503.2788932430003,None,503.2788932430003,None,m,0,2.1395625269997254,504.81223211500037,None,504.81223211500037,None,504.81223211500037,None,507.012571018,None,507.012571018,None,507.012571018,None,507.012571018,None,,,,,,,,,,,,,,,,,,,,,,,,,,,,,,,,,,,,,,,,,,,,001,145,2020_Feb_20_1009,spring_faces,3.1.5,60.03905071933988,
condition files/Stage1_2.xlsx,,T2,B1,c,"['c', 'm']","['Clue', 'Monopoly']","[-0.15, 0.5]","[0.15, 0.5]",1,1,,,,,,,,,0,1,1,1,0,5,5,1,,,,,,,,,,,,,,,,,,,,,,,,,,,,,,,,,,,,,,,,,,,,,,,,,,,,,,,508.97862166699997,None,508.97862166699997,None,508.97862166699997,None,c,1,1.8150374729993928,510.5286843599997,None,510.5286843599997,None,510.5286843599997,None,512.3955344599999,None,512.3955344599999,None,512.3955344599999,None,512.3955344599999,None,,,,,,,,,,,,,,,,,,,,,,,,,,,,,,,,,,,,,,,,,,,,001,145,2020_Feb_20_1009,spring_faces,3.1.5,60.03905071933988,
condition files/Stage1_2.xlsx,,B1,T1,c,"['c', 'm']","['Clue', 'Monopoly']","[-0.15, 0.5]","[0.15, 0.5]",1,1,,,,,,,,,0,1,1,1,0,6,6,0,,,,,,,,,,,,,,,,,,,,,,,,,,,,,,,,,,,,,,,,,,,,,,,,,,,,,,,514.361973262,None,514.361973262,None,514.361973262,None,c,1,0.6071199409998371,515.8966844790002,None,515.8966844790002,None,515.8966844790002,None,516.5620897400004,None,516.5620897400004,None,516.5620897400004,None,516.5620897400004,None,,,,,,,,,,,,,,,,,,,,,,,,,,,,,,,,,,,,,,,,,,,,001,145,2020_Feb_20_1009,spring_faces,3.1.5,60.03905071933988,
condition files/Stage1_2.xlsx,,B2,T2,m,"['c', 'm']","['Clue', 'Monopoly']","[-0.15, 0.5]","[0.15, 0.5]",1,1,,,,,,,,,0,1,1,1,0,7,7,3,,,,,,,,,,,,,,,,,,,,,,,,,,,,,,,,,,,,,,,,,,,,,,,,,,,,,,,518.5280847069998,None,518.5280847069998,None,518.5280847069998,None,c,0,1.27157107200037,520.0642338899997,None,520.0642338899997,None,520.0642338899997,None,521.4122132040002,None,521.4122132040002,None,521.4122132040002,None,521.4122132040002,None,,,,,,,,,,,,,,,,,,,,,,,,,,,,,,,,,,,,,,,,,,,,001,145,2020_Feb_20_1009,spring_faces,3.1.5,60.03905071933988,
condition files/Stage1_1.xlsx,,T3,B4,c,"['c', 'm']","['Clue', 'Monopoly']","[-0.15, 0.5]","[0.15, 0.5]",1,1,,,,,,,,,0,2,2,2,0,0,0,5,,,,,,,,,,,,,,,,,,,,,,,,,,,,,,,,,,,,,,,,,,,,,,,,,,,,,,,523.3789702869999,None,523.3789702869999,None,523.3789702869999,None,m,0,0.4548073390005811,524.9129510160001,None,524.9129510160001,None,524.9129510160001,None,525.4295636870002,None,525.4295636870002,None,525.4295636870002,None,525.4295636870002,None,,,,,,,,,,,,,,,,,,,,,,,,,,,,,,,,,,,,,,,,,,,,001,145,2020_Feb_20_1009,spring_faces,3.1.5,60.03905071933988,
condition files/Stage1_1.xlsx,,B4,T4,m,"['c', 'm']","['Clue', 'Monopoly']","[-0.15, 0.5]","[0.15, 0.5]",1,1,,,,,,,,,0,2,2,2,0,1,1,7,,,,,,,,,,,,,,,,,,,,,,,,,,,,,,,,,,,,,,,,,,,,,,,,,,,,,,,527.3950562319997,None,527.3950562319997,None,527.3950562319997,None,c,0,0.24641559000065172,528.9455499420001,None,528.9455499420001,None,528.9455499420001,None,529.2455666149999,None,529.2455666149999,None,529.2455666149999,None,529.2455666149999,None,,,,,,,,,,,,,,,,,,,,,,,,,,,,,,,,,,,,,,,,,,,,001,145,2020_Feb_20_1009,spring_faces,3.1.5,60.03905071933988,
condition files/Stage1_1.xlsx,,B2,T1,m,"['c', 'm']","['Clue', 'Monopoly']","[-0.15, 0.5]","[0.15, 0.5]",1,1,,,,,,,,,0,2,2,2,0,2,2,2,,,,,,,,,,,,,,,,,,,,,,,,,,,,,,,,,,,,,,,,,,,,,,,,,,,,,,,531.2120193290002,None,531.2120193290002,None,531.2120193290002,None,m,1,0.8617495170001348,532.7459931889998,None,532.7459931889998,None,532.7459931889998,None,533.6618002610003,None,533.6618002610003,None,533.6618002610003,None,533.6618002610003,None,,,,,,,,,,,,,,,,,,,,,,,,,,,,,,,,,,,,,,,,,,,,001,145,2020_Feb_20_1009,spring_faces,3.1.5,60.03905071933988,
condition files/Stage1_1.xlsx,,T1,B1,c,"['c', 'm']","['Clue', 'Monopoly']","[-0.15, 0.5]","[0.15, 0.5]",1,1,,,,,,,,,0,2,2,2,0,3,3,0,,,,,,,,,,,,,,,,,,,,,,,,,,,,,,,,,,,,,,,,,,,,,,,,,,,,,,,535.6281285060004,None,535.6281285060004,None,535.6281285060004,None,m,0,0.8764563039994755,537.1632883470002,None,537.1632883470002,None,537.1632883470002,None,538.0966802100002,None,538.0966802100002,None,538.0966802100002,None,538.0966802100002,None,,,,,,,,,,,,,,,,,,,,,,,,,,,,,,,,,,,,,,,,,,,,001,145,2020_Feb_20_1009,spring_faces,3.1.5,60.03905071933988,
condition files/Stage1_1.xlsx,,B3,T3,c,"['c', 'm']","['Clue', 'Monopoly']","[-0.15, 0.5]","[0.15, 0.5]",1,1,,,,,,,,,0,2,2,2,0,4,4,4,,,,,,,,,,,,,,,,,,,,,,,,,,,,,,,,,,,,,,,,,,,,,,,,,,,,,,,540.0614390399996,None,540.0614390399996,None,540.0614390399996,None,c,1,4.604549633000715,541.5951940410005,None,541.5951940410005,None,541.5951940410005,None,546.2618233200001,None,546.2618233200001,None,546.2618233200001,None,546.2618233200001,None,,,,,,,,,,,,,,,,,,,,,,,,,,,,,,,,,,,,,,,,,,,,001,145,2020_Feb_20_1009,spring_faces,3.1.5,60.03905071933988,
condition files/Stage1_1.xlsx,,T2,B2,m,"['c', 'm']","['Clue', 'Monopoly']","[-0.15, 0.5]","[0.15, 0.5]",1,1,,,,,,,,,0,2,2,2,0,5,5,3,,,,,,,,,,,,,,,,,,,,,,,,,,,,,,,,,,,,,,,,,,,,,,,,,,,,,,,548.2286674480001,None,548.2286674480001,None,548.2286674480001,None,c,0,0.5333797510002114,549.7623325730001,None,549.7623325730001,None,549.7623325730001,None,550.3480697060004,None,550.3480697060004,None,550.3480697060004,None,550.3480697060004,None,,,,,,,,,,,,,,,,,,,,,,,,,,,,,,,,,,,,,,,,,,,,001,145,2020_Feb_20_1009,spring_faces,3.1.5,60.03905071933988,
condition files/Stage1_1.xlsx,,B1,T2,c,"['c', 'm']","['Clue', 'Monopoly']","[-0.15, 0.5]","[0.15, 0.5]",1,1,,,,,,,,,0,2,2,2,0,6,6,1,,,,,,,,,,,,,,,,,,,,,,,,,,,,,,,,,,,,,,,,,,,,,,,,,,,,,,,552.3112171069997,None,552.3112171069997,None,552.3112171069997,None,m,0,0.22693686599996,553.8447513299998,None,553.8447513299998,None,553.8447513299998,None,554.1283476500003,None,554.1283476500003,None,554.1283476500003,None,554.1283476500003,None,,,,,,,,,,,,,,,,,,,,,,,,,,,,,,,,,,,,,,,,,,,,001,145,2020_Feb_20_1009,spring_faces,3.1.5,60.03905071933988,
condition files/Stage1_1.xlsx,,T4,B3,m,"['c', 'm']","['Clue', 'Monopoly']","[-0.15, 0.5]","[0.15, 0.5]",1,1,,,,,,,,,0,2,2,2,0,7,7,6,,,,,,,,,,,,,,,,,,,,,,,,,,,,,,,,,,,,,,,,,,,,,,,,,,,,,,,556.0953462630005,None,556.0953462630005,None,556.0953462630005,None,c,0,0.20247857400045177,557.6292707530001,None,557.6292707530001,None,557.6292707530001,None,557.8950835610003,None,557.8950835610003,None,557.8950835610003,None,557.8950835610003,None,,,,,,,,,,,,,,,,,,,,,,,,,,,,,,,,,,,,,,,,,,,,001,145,2020_Feb_20_1009,spring_faces,3.1.5,60.03905071933988,
condition files/Stage1_2.xlsx,,B3,T4,m,"['c', 'm']","['Clue', 'Monopoly']","[-0.15, 0.5]","[0.15, 0.5]",1,1,,,,,,,,,0,3,3,3,0,0,0,6,,,,,,,,,,,,,,,,,,,,,,,,,,,,,,,,,,,,,,,,,,,,,,,,,,,,,,,559.878855256,None,559.878855256,None,559.878855256,None,c,0,0.22796647399991343,561.4117787390005,None,561.4117787390005,None,561.4117787390005,None,561.6955072860001,None,561.6955072860001,None,561.6955072860001,None,561.6955072860001,None,,,,,,,,,,,,,,,,,,,,,,,,,,,,,,,,,,,,,,,,,,,,001,145,2020_Feb_20_1009,spring_faces,3.1.5,60.03905071933988,
condition files/Stage1_2.xlsx,,T2,B1,c,"['c', 'm']","['Clue', 'Monopoly']","[-0.15, 0.5]","[0.15, 0.5]",1,1,,,,,,,,,0,3,3,3,0,1,1,1,,,,,,,,,,,,,,,,,,,,,,,,,,,,,,,,,,,,,,,,,,,,,,,,,,,,,,,563.6619927430002,None,563.6619927430002,None,563.6619927430002,None,c,1,0.23538078699948528,565.1963624520004,None,565.1963624520004,None,565.1963624520004,None,565.4976556379997,None,565.4976556379997,None,565.4976556379997,None,565.4976556379997,None,,,,,,,,,,,,,,,,,,,,,,,,,,,,,,,,,,,,,,,,,,,,001,145,2020_Feb_20_1009,spring_faces,3.1.5,60.03905071933988,
condition files/Stage1_2.xlsx,,T1,B2,m,"['c', 'm']","['Clue', 'Monopoly']","[-0.15, 0.5]","[0.15, 0.5]",1,1,,,,,,,,,0,3,3,3,0,2,2,2,,,,,,,,,,,,,,,,,,,,,,,,,,,,,,,,,,,,,,,,,,,,,,,,,,,,,,,567.4618303990001,None,567.4618303990001,None,567.4618303990001,None,m,1,0.30734186900008353,568.9964544940003,None,568.9964544940003,None,568.9964544940003,None,569.3620578600003,None,569.3620578600003,None,569.3620578600003,None,569.3620578600003,None,,,,,,,,,,,,,,,,,,,,,,,,,,,,,,,,,,,,,,,,,,,,001,145,2020_Feb_20_1009,spring_faces,3.1.5,60.03905071933988,
condition files/Stage1_2.xlsx,,T4,B4,m,"['c', 'm']","['Clue', 'Monopoly']","[-0.15, 0.5]","[0.15, 0.5]",1,1,,,,,,,,,0,3,3,3,0,3,3,7,,,,,,,,,,,,,,,,,,,,,,,,,,,,,,,,,,,,,,,,,,,,,,,,,,,,,,,571.328304875,None,571.328304875,None,571.328304875,None,m,1,0.5060178370003996,572.8617194409999,None,572.8617194409999,None,572.8617194409999,None,573.4284023299997,None,573.4284023299997,None,573.4284023299997,None,573.4284023299997,None,,,,,,,,,,,,,,,,,,,,,,,,,,,,,,,,,,,,,,,,,,,,001,145,2020_Feb_20_1009,spring_faces,3.1.5,60.03905071933988,
condition files/Stage1_2.xlsx,,B1,T1,c,"['c', 'm']","['Clue', 'Monopoly']","[-0.15, 0.5]","[0.15, 0.5]",1,1,,,,,,,,,0,3,3,3,0,4,4,0,,,,,,,,,,,,,,,,,,,,,,,,,,,,,,,,,,,,,,,,,,,,,,,,,,,,,,,575.3953904760001,None,575.3953904760001,None,575.3953904760001,None,m,0,0.007617571999617212,None,None,None,None,None,None,576.9787692609998,None,576.9787692609998,None,576.9787692609998,None,576.9787692609998,None,,,,,,,,,,,,,,,,,,,,,,,,,,,,,,,,,,,,,,,,,,,,001,145,2020_Feb_20_1009,spring_faces,3.1.5,60.03905071933988,
condition files/Stage1_2.xlsx,,T3,B3,c,"['c', 'm']","['Clue', 'Monopoly']","[-0.15, 0.5]","[0.15, 0.5]",1,1,,,,,,,,,0,3,3,3,0,5,5,4,,,,,,,,,,,,,,,,,,,,,,,,,,,,,,,,,,,,,,,,,,,,,,,,,,,,,,,578.9282277640004,None,578.9282277640004,None,578.9282277640004,None,c,1,0.5854455529997722,580.462303063,None,580.462303063,None,580.462303063,None,581.1119907530001,None,581.1119907530001,None,581.1119907530001,None,581.1119907530001,None,,,,,,,,,,,,,,,,,,,,,,,,,,,,,,,,,,,,,,,,,,,,001,145,2020_Feb_20_1009,spring_faces,3.1.5,60.03905071933988,
condition files/Stage1_2.xlsx,,B4,T3,c,"['c', 'm']","['Clue', 'Monopoly']","[-0.15, 0.5]","[0.15, 0.5]",1,1,,,,,,,,,0,3,3,3,0,6,6,5,,,,,,,,,,,,,,,,,,,,,,,,,,,,,,,,,,,,,,,,,,,,,,,,,,,,,,,583.0786061609997,None,583.0786061609997,None,583.0786061609997,None,m,0,0.4027821209992908,584.6129687490002,None,584.6129687490002,None,584.6129687490002,None,585.0783618100004,None,585.0783618100004,None,585.0783618100004,None,585.0783618100004,None,,,,,,,,,,,,,,,,,,,,,,,,,,,,,,,,,,,,,,,,,,,,001,145,2020_Feb_20_1009,spring_faces,3.1.5,60.03905071933988,
condition files/Stage1_2.xlsx,,B2,T2,m,"['c', 'm']","['Clue', 'Monopoly']","[-0.15, 0.5]","[0.15, 0.5]",1,1,,,,,,,,,0,3,3,3,0,7,7,3,,,,,,,,,,,,,,,,,,,,,,,,,,,,,,,,,,,,,,,,,,,,,,,,,,,,,,,587.0453045249997,None,587.0453045249997,None,587.0453045249997,None,c,0,2.853116583000883,588.5786432169998,None,588.5786432169998,None,588.5786432169998,None,591.5122455250003,None,591.5122455250003,None,591.5122455250003,None,591.5122455250003,None,,,,,,,,,,,,,,,,,,,,,,,,,,,,,,,,,,,,,,,,,,,,001,145,2020_Feb_20_1009,spring_faces,3.1.5,60.03905071933988,
condition files/Stage1_1.xlsx,,T3,B4,c,"['c', 'm']","['Clue', 'Monopoly']","[-0.15, 0.5]","[0.15, 0.5]",1,1,,,,,,,,,0,4,4,4,0,0,0,5,,,,,,,,,,,,,,,,,,,,,,,,,,,,,,,,,,,,,,,,,,,,,,,,,,,,,,,593.4787737690003,None,593.4787737690003,None,593.4787737690003,None,m,0,5.059896183000092,595.011835716,None,595.011835716,None,595.011835716,None,600.1299526680004,None,600.1299526680004,None,600.1299526680004,None,600.1299526680004,None,,,,,,,,,,,,,,,,,,,,,,,,,,,,,,,,,,,,,,,,,,,,001,145,2020_Feb_20_1009,spring_faces,3.1.5,60.03905071933988,
condition files/Stage1_1.xlsx,,T1,B1,c,"['c', 'm']","['Clue', 'Monopoly']","[-0.15, 0.5]","[0.15, 0.5]",1,1,,,,,,,,,0,4,4,4,0,1,1,0,,,,,,,,,,,,,,,,,,,,,,,,,,,,,,,,,,,,,,,,,,,,,,,,,,,,,,,602.0952654869998,None,602.0952654869998,None,602.0952654869998,None,c,1,1.8663407659996665,603.6293798980005,None,603.6293798980005,None,603.6293798980005,None,605.5454521410002,None,605.5454521410002,None,605.5454521410002,None,605.5454521410002,None,,,,,,,,,,,,,,,,,,,,,,,,,,,,,,,,,,,,,,,,,,,,001,145,2020_Feb_20_1009,spring_faces,3.1.5,60.03905071933988,
condition files/Stage1_1.xlsx,,B4,T4,m,"['c', 'm']","['Clue', 'Monopoly']","[-0.15, 0.5]","[0.15, 0.5]",1,1,,,,,,,,,0,4,4,4,0,2,2,7,,,,,,,,,,,,,,,,,,,,,,,,,,,,,,,,,,,,,,,,,,,,,,,,,,,,,,,607.5116741090005,None,607.5116741090005,None,607.5116741090005,None,c,0,6.480091471000378,609.047652364,None,609.047652364,None,609.047652364,None,615.5791373290003,None,615.5791373290003,None,615.5791373290003,None,615.5791373290003,None,,,,,,,,,,,,,,,,,,,,,,,,,,,,,,,,,,,,,,,,,,,,001,145,2020_Feb_20_1009,spring_faces,3.1.5,60.03905071933988,
condition files/Stage1_1.xlsx,,B2,T1,m,"['c', 'm']","['Clue', 'Monopoly']","[-0.15, 0.5]","[0.15, 0.5]",1,1,,,,,,,,,0,4,4,4,0,3,3,2,,,,,,,,,,,,,,,,,,,,,,,,,,,,,,,,,,,,,,,,,,,,,,,,,,,,,,,617.5450870929999,None,617.5450870929999,None,617.5450870929999,None,m,1,0.6251337269995929,619.0786606290003,None,619.0786606290003,None,619.0786606290003,None,619.7622009340002,None,619.7622009340002,None,619.7622009340002,None,619.7622009340002,None,,,,,,,,,,,,,,,,,,,,,,,,,,,,,,,,,,,,,,,,,,,,001,145,2020_Feb_20_1009,spring_faces,3.1.5,60.03905071933988,
condition files/Stage1_1.xlsx,,B3,T3,c,"['c', 'm']","['Clue', 'Monopoly']","[-0.15, 0.5]","[0.15, 0.5]",1,1,,,,,,,,,0,4,4,4,0,4,4,4,,,,,,,,,,,,,,,,,,,,,,,,,,,,,,,,,,,,,,,,,,,,,,,,,,,,,,,621.7280434390004,None,621.7280434390004,None,621.7280434390004,None,m,0,0.026627283000379975,None,None,None,None,None,None,623.296888117,None,623.296888117,None,623.296888117,None,623.296888117,None,,,,,,,,,,,,,,,,,,,,,,,,,,,,,,,,,,,,,,,,,,,,001,145,2020_Feb_20_1009,spring_faces,3.1.5,60.03905071933988,
condition files/Stage1_1.xlsx,,T4,B3,m,"['c', 'm']","['Clue', 'Monopoly']","[-0.15, 0.5]","[0.15, 0.5]",1,1,,,,,,,,,0,4,4,4,0,5,5,6,,,,,,,,,,,,,,,,,,,,,,,,,,,,,,,,,,,,,,,,,,,,,,,,,,,,,,,625.2621075300003,None,625.2621075300003,None,625.2621075300003,None,c,0,1.1322994040001504,626.7954491660003,None,626.7954491660003,None,626.7954491660003,None,627.9814441970002,None,627.9814441970002,None,627.9814441970002,None,627.9814441970002,None,,,,,,,,,,,,,,,,,,,,,,,,,,,,,,,,,,,,,,,,,,,,001,145,2020_Feb_20_1009,spring_faces,3.1.5,60.03905071933988,
condition files/Stage1_1.xlsx,,B1,T2,c,"['c', 'm']","['Clue', 'Monopoly']","[-0.15, 0.5]","[0.15, 0.5]",1,1,,,,,,,,,0,4,4,4,0,6,6,1,,,,,,,,,,,,,,,,,,,,,,,,,,,,,,,,,,,,,,,,,,,,,,,,,,,,,,,629.9452606610002,None,629.9452606610002,None,629.9452606610002,None,c,1,0.5933595350006726,631.4783841240005,None,631.4783841240005,None,631.4783841240005,None,632.1303664859997,None,632.1303664859997,None,632.1303664859997,None,632.1303664859997,None,,,,,,,,,,,,,,,,,,,,,,,,,,,,,,,,,,,,,,,,,,,,001,145,2020_Feb_20_1009,spring_faces,3.1.5,60.03905071933988,
condition files/Stage1_1.xlsx,,T2,B2,m,"['c', 'm']","['Clue', 'Monopoly']","[-0.15, 0.5]","[0.15, 0.5]",1,1,,,,,,,,,0,4,4,4,0,7,7,3,,,,,,,,,,,,,,,,,,,,,,,,,,,,,,,,,,,,,,,,,,,,,,,,,,,,,,,634.0953552000001,None,634.0953552000001,None,634.0953552000001,None,c,0,0.6995726169998306,635.6281863849999,None,635.6281863849999,None,635.6281863849999,None,636.3807814450001,None,636.3807814450001,None,636.3807814450001,None,636.3807814450001,None,,,,,,,,,,,,,,,,,,,,,,,,,,,,,,,,,,,,,,,,,,,,001,145,2020_Feb_20_1009,spring_faces,3.1.5,60.03905071933988,
condition files/Stage1_2.xlsx,,T2,B1,c,"['c', 'm']","['Clue', 'Monopoly']","[-0.15, 0.5]","[0.15, 0.5]",1,1,,,,,,,,,0,5,5,5,0,0,0,1,,,,,,,,,,,,,,,,,,,,,,,,,,,,,,,,,,,,,,,,,,,,,,,,,,,,,,,638.3625693740005,None,638.3625693740005,None,638.3625693740005,None,c,1,0.47890541500055406,639.9128340130001,None,639.9128340130001,None,639.9128340130001,None,640.4465082510005,None,640.4465082510005,None,640.4465082510005,None,640.4465082510005,None,,,,,,,,,,,,,,,,,,,,,,,,,,,,,,,,,,,,,,,,,,,,001,145,2020_Feb_20_1009,spring_faces,3.1.5,60.03905071933988,
condition files/Stage1_2.xlsx,,B2,T2,m,"['c', 'm']","['Clue', 'Monopoly']","[-0.15, 0.5]","[0.15, 0.5]",1,1,,,,,,,,,0,5,5,5,0,1,1,3,,,,,,,,,,,,,,,,,,,,,,,,,,,,,,,,,,,,,,,,,,,,,,,,,,,,,,,642.4118623390004,None,642.4118623390004,None,642.4118623390004,None,m,1,0.36538857799951074,643.9463591080003,None,643.9463591080003,None,643.9463591080003,None,644.3788997729998,None,644.3788997729998,None,644.3788997729998,None,644.3788997729998,None,,,,,,,,,,,,,,,,,,,,,,,,,,,,,,,,,,,,,,,,,,,,001,145,2020_Feb_20_1009,spring_faces,3.1.5,60.03905071933988,
condition files/Stage1_2.xlsx,,T3,B3,c,"['c', 'm']","['Clue', 'Monopoly']","[-0.15, 0.5]","[0.15, 0.5]",1,1,,,,,,,,,0,5,5,5,0,2,2,4,,,,,,,,,,,,,,,,,,,,,,,,,,,,,,,,,,,,,,,,,,,,,,,,,,,,,,,646.3288967930002,None,646.3288967930002,None,646.3288967930002,None,m,0,0.4481177879997631,647.863627533,None,647.863627533,None,647.863627533,None,648.3646164080001,None,648.3646164080001,None,648.3646164080001,None,648.3646164080001,None,,,,,,,,,,,,,,,,,,,,,,,,,,,,,,,,,,,,,,,,,,,,001,145,2020_Feb_20_1009,spring_faces,3.1.5,60.03905071933988,
condition files/Stage1_2.xlsx,,B4,T3,c,"['c', 'm']","['Clue', 'Monopoly']","[-0.15, 0.5]","[0.15, 0.5]",1,1,,,,,,,,,0,5,5,5,0,3,3,5,,,,,,,,,,,,,,,,,,,,,,,,,,,,,,,,,,,,,,,,,,,,,,,,,,,,,,,650.3286299800002,None,650.3286299800002,None,650.3286299800002,None,c,1,0.43212485000003653,651.8635897069998,None,651.8635897069998,None,651.8635897069998,None,652.3459418829998,None,652.3459418829998,None,652.3459418829998,None,652.3459418829998,None,,,,,,,,,,,,,,,,,,,,,,,,,,,,,,,,,,,,,,,,,,,,001,145,2020_Feb_20_1009,spring_faces,3.1.5,60.03905071933988,
condition files/Stage1_2.xlsx,,B1,T1,c,"['c', 'm']","['Clue', 'Monopoly']","[-0.15, 0.5]","[0.15, 0.5]",1,1,,,,,,,,,0,5,5,5,0,4,4,0,,,,,,,,,,,,,,,,,,,,,,,,,,,,,,,,,,,,,,,,,,,,,,,,,,,,,,,654.3114815950003,None,654.3114815950003,None,654.3114815950003,None,m,0,0.0822922280003695,655.8454511199998,None,655.8454511199998,None,655.8454511199998,None,655.978648411,None,655.978648411,None,655.978648411,None,655.978648411,None,,,,,,,,,,,,,,,,,,,,,,,,,,,,,,,,,,,,,,,,,,,,001,145,2020_Feb_20_1009,spring_faces,3.1.5,60.03905071933988,
condition files/Stage1_2.xlsx,,B3,T4,m,"['c', 'm']","['Clue', 'Monopoly']","[-0.15, 0.5]","[0.15, 0.5]",1,1,,,,,,,,,0,5,5,5,0,5,5,6,,,,,,,,,,,,,,,,,,,,,,,,,,,,,,,,,,,,,,,,,,,,,,,,,,,,,,,657.9448629979997,None,657.9448629979997,None,657.9448629979997,None,m,1,0.4173070769993501,659.4783845279999,None,659.4783845279999,None,659.4783845279999,None,659.9620394820004,None,659.9620394820004,None,659.9620394820004,None,659.9620394820004,None,,,,,,,,,,,,,,,,,,,,,,,,,,,,,,,,,,,,,,,,,,,,001,145,2020_Feb_20_1009,spring_faces,3.1.5,60.03905071933988,
condition files/Stage1_2.xlsx,,T1,B2,m,"['c', 'm']","['Clue', 'Monopoly']","[-0.15, 0.5]","[0.15, 0.5]",1,1,,,,,,,,,0,5,5,5,0,6,6,2,,,,,,,,,,,,,,,,,,,,,,,,,,,,,,,,,,,,,,,,,,,,,,,,,,,,,,,661.9285966529997,None,661.9285966529997,None,661.9285966529997,None,m,1,0.018409794000035618,None,None,None,None,None,None,663.4954001940005,None,663.4954001940005,None,663.4954001940005,None,663.4954001940005,None,,,,,,,,,,,,,,,,,,,,,,,,,,,,,,,,,,,,,,,,,,,,001,145,2020_Feb_20_1009,spring_faces,3.1.5,60.03905071933988,
condition files/Stage1_2.xlsx,,T4,B4,m,"['c', 'm']","['Clue', 'Monopoly']","[-0.15, 0.5]","[0.15, 0.5]",1,1,,,,,,,,,0,5,5,5,0,7,7,7,,,,,,,,,,,,,,,,,,,,,,,,,,,,,,,,,,,,,,,,,,,,,,,,,,,,,,,665.4614570579997,None,665.4614570579997,None,665.4614570579997,None,m,1,0.211870641999667,666.9958876569999,None,666.9958876569999,None,666.9958876569999,None,667.2619734979999,None,667.2619734979999,None,667.2619734979999,None,667.2619734979999,None,,,,,,,,,,,,,,,,,,,,,,,,,,,,,,,,,,,,,,,,,,,,001,145,2020_Feb_20_1009,spring_faces,3.1.5,60.03905071933988,
condition files/Stage1_1.xlsx,,B4,T4,m,"['c', 'm']","['Clue', 'Monopoly']","[-0.15, 0.5]","[0.15, 0.5]",1,1,,,,,,,,,0,6,6,6,0,0,0,7,,,,,,,,,,,,,,,,,,,,,,,,,,,,,,,,,,,,,,,,,,,,,,,,,,,,,,,669.2456461769998,None,669.2456461769998,None,669.2456461769998,None,m,1,0.10953966200031573,670.7782470749999,None,670.7782470749999,None,670.7782470749999,None,670.9453730840005,None,670.9453730840005,None,670.9453730840005,None,670.9453730840005,None,,,,,,,,,,,,,,,,,,,,,,,,,,,,,,,,,,,,,,,,,,,,001,145,2020_Feb_20_1009,spring_faces,3.1.5,60.03905071933988,
condition files/Stage1_1.xlsx,,T1,B1,c,"['c', 'm']","['Clue', 'Monopoly']","[-0.15, 0.5]","[0.15, 0.5]",1,1,,,,,,,,,0,6,6,6,0,1,1,0,,,,,,,,,,,,,,,,,,,,,,,,,,,,,,,,,,,,,,,,,,,,,,,,,,,,,,,672.9119230360002,None,672.9119230360002,None,672.9119230360002,None,c,1,-0.005170710000129475,674.4448387089997,None,674.4448387089997,None,674.4448387089997,None,674.4959207029997,None,674.4959207029997,None,674.4959207029997,None,674.4959207029997,None,,,,,,,,,,,,,,,,,,,,,,,,,,,,,,,,,,,,,,,,,,,,001,145,2020_Feb_20_1009,spring_faces,3.1.5,60.03905071933988,
condition files/Stage1_1.xlsx,,B2,T1,m,"['c', 'm']","['Clue', 'Monopoly']","[-0.15, 0.5]","[0.15, 0.5]",1,1,,,,,,,,,0,6,6,6,0,2,2,2,,,,,,,,,,,,,,,,,,,,,,,,,,,,,,,,,,,,,,,,,,,,,,,,,,,,,,,676.4617398310002,None,676.4617398310002,None,676.4617398310002,None,m,1,0.12277893399914319,677.9970401379996,None,677.9970401379996,None,677.9970401379996,None,678.1787006269997,None,678.1787006269997,None,678.1787006269997,None,678.1787006269997,None,,,,,,,,,,,,,,,,,,,,,,,,,,,,,,,,,,,,,,,,,,,,001,145,2020_Feb_20_1009,spring_faces,3.1.5,60.03905071933988,
condition files/Stage1_1.xlsx,,T4,B3,m,"['c', 'm']","['Clue', 'Monopoly']","[-0.15, 0.5]","[0.15, 0.5]",1,1,,,,,,,,,0,6,6,6,0,3,3,6,,,,,,,,,,,,,,,,,,,,,,,,,,,,,,,,,,,,,,,,,,,,,,,,,,,,,,,680.1454261360004,None,680.1454261360004,None,680.1454261360004,None,c,0,0.2322374340001261,681.6795048889999,None,681.6795048889999,None,681.6795048889999,None,681.9616453389999,None,681.9616453389999,None,681.9616453389999,None,681.9616453389999,None,,,,,,,,,,,,,,,,,,,,,,,,,,,,,,,,,,,,,,,,,,,,001,145,2020_Feb_20_1009,spring_faces,3.1.5,60.03905071933988,
condition files/Stage1_1.xlsx,,T2,B2,m,"['c', 'm']","['Clue', 'Monopoly']","[-0.15, 0.5]","[0.15, 0.5]",1,1,,,,,,,,,0,6,6,6,0,4,4,3,,,,,,,,,,,,,,,,,,,,,,,,,,,,,,,,,,,,,,,,,,,,,,,,,,,,,,,683.9280125390005,None,683.9280125390005,None,683.9280125390005,None,c,0,0.25756813200041506,685.4622344449999,None,685.4622344449999,None,685.4622344449999,None,685.77878057,None,685.77878057,None,685.77878057,None,685.77878057,None,,,,,,,,,,,,,,,,,,,,,,,,,,,,,,,,,,,,,,,,,,,,001,145,2020_Feb_20_1009,spring_faces,3.1.5,60.03905071933988,
condition files/Stage1_1.xlsx,,B1,T2,c,"['c', 'm']","['Clue', 'Monopoly']","[-0.15, 0.5]","[0.15, 0.5]",1,1,,,,,,,,,0,6,6,6,0,5,5,1,,,,,,,,,,,,,,,,,,,,,,,,,,,,,,,,,,,,,,,,,,,,,,,,,,,,,,,687.7454295950001,None,687.7454295950001,None,687.7454295950001,None,c,1,0.008890866000001552,689.2789220960003,None,689.2789220960003,None,689.2789220960003,None,689.3622084050003,None,689.3622084050003,None,689.3622084050003,None,689.3622084050003,None,,,,,,,,,,,,,,,,,,,,,,,,,,,,,,,,,,,,,,,,,,,,001,145,2020_Feb_20_1009,spring_faces,3.1.5,60.03905071933988,
condition files/Stage1_1.xlsx,,B3,T3,c,"['c', 'm']","['Clue', 'Monopoly']","[-0.15, 0.5]","[0.15, 0.5]",1,1,,,,,,,,,0,6,6,6,0,6,6,4,,,,,,,,,,,,,,,,,,,,,,,,,,,,,,,,,,,,,,,,,,,,,,,,,,,,,,,691.311820078,None,691.311820078,None,691.311820078,None,c,1,0.12160533799942641,692.8461610109998,None,692.8461610109998,None,692.8461610109998,None,693.0289787669999,None,693.0289787669999,None,693.0289787669999,None,693.0289787669999,None,,,,,,,,,,,,,,,,,,,,,,,,,,,,,,,,,,,,,,,,,,,,001,145,2020_Feb_20_1009,spring_faces,3.1.5,60.03905071933988,
condition files/Stage1_1.xlsx,,T3,B4,c,"['c', 'm']","['Clue', 'Monopoly']","[-0.15, 0.5]","[0.15, 0.5]",1,1,,,,,,,,,0,6,6,6,0,7,7,5,,,,,,,,,,,,,,,,,,,,,,,,,,,,,,,,,,,,,,,,,,,,,,,,,,,,,,,694.9950350290001,None,694.9950350290001,None,694.9950350290001,None,c,1,0.15112882999983412,696.5285589519999,None,696.5285589519999,None,696.5285589519999,None,696.7451419260005,None,696.7451419260005,None,696.7451419260005,None,696.7451419260005,None,,,,,,,,,,,,,,,,,,,,,,,,,,,,,,,,,,,,,,,,,,,,001,145,2020_Feb_20_1009,spring_faces,3.1.5,60.03905071933988,
condition files/Stage1_2.xlsx,,T1,B2,m,"['c', 'm']","['Clue', 'Monopoly']","[-0.15, 0.5]","[0.15, 0.5]",1,1,,,,,,,,,0,7,7,7,0,0,0,2,,,,,,,,,,,,,,,,,,,,,,,,,,,,,,,,,,,,,,,,,,,,,,,,,,,,,,,698.7280534199999,None,698.7280534199999,None,698.7280534199999,None,m,1,-0.014537514999574341,None,None,None,None,None,None,700.3124318210002,None,700.3124318210002,None,700.3124318210002,None,700.3124318210002,None,,,,,,,,,,,,,,,,,,,,,,,,,,,,,,,,,,,,,,,,,,,,001,145,2020_Feb_20_1009,spring_faces,3.1.5,60.03905071933988,
condition files/Stage1_2.xlsx,,B1,T1,c,"['c', 'm']","['Clue', 'Monopoly']","[-0.15, 0.5]","[0.15, 0.5]",1,1,,,,,,,,,0,7,7,7,0,1,1,0,,,,,,,,,,,,,,,,,,,,,,,,,,,,,,,,,,,,,,,,,,,,,,,,,,,,,,,702.2618668140003,None,702.2618668140003,None,702.2618668140003,None,c,1,0.16517034000025888,703.7945712780001,None,703.7945712780001,None,703.7945712780001,None,704.0124209530004,None,704.0124209530004,None,704.0124209530004,None,704.0124209530004,None,,,,,,,,,,,,,,,,,,,,,,,,,,,,,,,,,,,,,,,,,,,,001,145,2020_Feb_20_1009,spring_faces,3.1.5,60.03905071933988,
condition files/Stage1_2.xlsx,,B4,T3,c,"['c', 'm']","['Clue', 'Monopoly']","[-0.15, 0.5]","[0.15, 0.5]",1,1,,,,,,,,,0,7,7,7,0,2,2,5,,,,,,,,,,,,,,,,,,,,,,,,,,,,,,,,,,,,,,,,,,,,,,,,,,,,,,,705.9779778270004,None,705.9779778270004,None,705.9779778270004,None,c,1,0.1266156809997483,707.5291826140001,None,707.5291826140001,None,707.5291826140001,None,707.7119527929999,None,707.7119527929999,None,707.7119527929999,None,707.7119527929999,None,,,,,,,,,,,,,,,,,,,,,,,,,,,,,,,,,,,,,,,,,,,,001,145,2020_Feb_20_1009,spring_faces,3.1.5,60.03905071933988,
condition files/Stage1_2.xlsx,,T3,B3,c,"['c', 'm']","['Clue', 'Monopoly']","[-0.15, 0.5]","[0.15, 0.5]",1,1,,,,,,,,,0,7,7,7,0,3,3,4,,,,,,,,,,,,,,,,,,,,,,,,,,,,,,,,,,,,,,,,,,,,,,,,,,,,,,,709.6788643930004,None,709.6788643930004,None,709.6788643930004,None,c,1,0.07607006899979751,711.2117392010005,None,711.2117392010005,None,711.2117392010005,None,711.3453572240005,None,711.3453572240005,None,711.3453572240005,None,711.3453572240005,None,,,,,,,,,,,,,,,,,,,,,,,,,,,,,,,,,,,,,,,,,,,,001,145,2020_Feb_20_1009,spring_faces,3.1.5,60.03905071933988,
condition files/Stage1_2.xlsx,,B2,T2,m,"['c', 'm']","['Clue', 'Monopoly']","[-0.15, 0.5]","[0.15, 0.5]",1,1,,,,,,,,,0,7,7,7,0,4,4,3,,,,,,,,,,,,,,,,,,,,,,,,,,,,,,,,,,,,,,,,,,,,,,,,,,,,,,,713.3119312199997,None,713.3119312199997,None,713.3119312199997,None,m,1,0.23290215299948613,714.8467526310005,None,714.8467526310005,None,714.8467526310005,None,715.1624576650001,None,715.1624576650001,None,715.1624576650001,None,715.1624576650001,None,,,,,,,,,,,,,,,,,,,,,,,,,,,,,,,,,,,,,,,,,,,,001,145,2020_Feb_20_1009,spring_faces,3.1.5,60.03905071933988,
condition files/Stage1_2.xlsx,,T2,B1,c,"['c', 'm']","['Clue', 'Monopoly']","[-0.15, 0.5]","[0.15, 0.5]",1,1,,,,,,,,,0,7,7,7,0,5,5,1,,,,,,,,,,,,,,,,,,,,,,,,,,,,,,,,,,,,,,,,,,,,,,,,,,,,,,,717.1115916199997,None,717.1115916199997,None,717.1115916199997,None,m,0,0.0028503339999588206,None,None,None,None,None,None,718.6949966470002,None,718.6949966470002,None,718.6949966470002,None,718.6949966470002,None,,,,,,,,,,,,,,,,,,,,,,,,,,,,,,,,,,,,,,,,,,,,001,145,2020_Feb_20_1009,spring_faces,3.1.5,60.03905071933988,
condition files/Stage1_2.xlsx,,B3,T4,m,"['c', 'm']","['Clue', 'Monopoly']","[-0.15, 0.5]","[0.15, 0.5]",1,1,,,,,,,,,0,7,7,7,0,6,6,6,,,,,,,,,,,,,,,,,,,,,,,,,,,,,,,,,,,,,,,,,,,,,,,,,,,,,,,720.6448851900004,None,720.6448851900004,None,720.6448851900004,None,c,0,0.2922528949993648,722.1955504460002,None,722.1955504460002,None,722.1955504460002,None,722.545030712,None,722.545030712,None,722.545030712,None,722.545030712,None,,,,,,,,,,,,,,,,,,,,,,,,,,,,,,,,,,,,,,,,,,,,001,145,2020_Feb_20_1009,spring_faces,3.1.5,60.03905071933988,
condition files/Stage1_2.xlsx,,T4,B4,m,"['c', 'm']","['Clue', 'Monopoly']","[-0.15, 0.5]","[0.15, 0.5]",1,1,,,,,,,,,0,7,7,7,0,7,7,7,,,,,,,,,,,,,,,,,,,,,,,,,,,,,,,,,,,,,,,,,,,,,,,,,,,,,,,724.5119777749997,None,724.5119777749997,None,724.5119777749997,None,m,1,0.2805917830000908,726.0471547260004,None,726.0471547260004,None,726.0471547260004,None,726.3784877130001,None,726.3784877130001,None,726.3784877130001,None,726.3784877130001,None,,,,,,,,,,,,,,,,,,,,,,,,,,,,,,,,,,,,,,,,,,,,001,145,2020_Feb_20_1009,spring_faces,3.1.5,60.03905071933988,
condition files/Stage1_1.xlsx,,B1,T2,c,"['c', 'm']","['Clue', 'Monopoly']","[-0.15, 0.5]","[0.15, 0.5]",1,1,,,,,,,,,0,8,8,8,0,0,0,1,,,,,,,,,,,,,,,,,,,,,,,,,,,,,,,,,,,,,,,,,,,,,,,,,,,,,,,728.3620448900001,None,728.3620448900001,None,728.3620448900001,None,m,0,0.19243795999955182,729.8953835900002,None,729.8953835900002,None,729.8953835900002,None,730.1468293099997,None,730.1468293099997,None,730.1468293099997,None,730.1468293099997,None,,,,,,,,,,,,,,,,,,,,,,,,,,,,,,,,,,,,,,,,,,,,001,145,2020_Feb_20_1009,spring_faces,3.1.5,60.03905071933988,
condition files/Stage1_1.xlsx,,B2,T1,m,"['c', 'm']","['Clue', 'Monopoly']","[-0.15, 0.5]","[0.15, 0.5]",1,1,,,,,,,,,0,8,8,8,0,1,1,2,,,,,,,,,,,,,,,,,,,,,,,,,,,,,,,,,,,,,,,,,,,,,,,,,,,,,,,732.112045287,None,732.112045287,None,732.112045287,None,c,0,0.010221941000054358,None,None,None,None,None,None,733.695008662,None,733.695008662,None,733.695008662,None,733.695008662,None,,,,,,,,,,,,,,,,,,,,,,,,,,,,,,,,,,,,,,,,,,,,001,145,2020_Feb_20_1009,spring_faces,3.1.5,60.03905071933988,
condition files/Stage1_1.xlsx,,T3,B4,c,"['c', 'm']","['Clue', 'Monopoly']","[-0.15, 0.5]","[0.15, 0.5]",1,1,,,,,,,,,0,8,8,8,0,2,2,5,,,,,,,,,,,,,,,,,,,,,,,,,,,,,,,,,,,,,,,,,,,,,,,,,,,,,,,735.6453335470005,None,735.6453335470005,None,735.6453335470005,None,c,1,0.5407988799997838,737.1789954349997,None,737.1789954349997,None,737.1789954349997,None,737.7955301809998,None,737.7955301809998,None,737.7955301809998,None,737.7955301809998,None,,,,,,,,,,,,,,,,,,,,,,,,,,,,,,,,,,,,,,,,,,,,001,145,2020_Feb_20_1009,spring_faces,3.1.5,60.03905071933988,
condition files/Stage1_1.xlsx,,B4,T4,m,"['c', 'm']","['Clue', 'Monopoly']","[-0.15, 0.5]","[0.15, 0.5]",1,1,,,,,,,,,0,8,8,8,0,3,3,7,,,,,,,,,,,,,,,,,,,,,,,,,,,,,,,,,,,,,,,,,,,,,,,,,,,,,,,739.7452929010005,None,739.7452929010005,None,739.7452929010005,None,c,0,0.009429507999811904,741.2783894189997,None,741.2783894189997,None,741.2783894189997,None,741.3467675749998,None,741.3467675749998,None,741.3467675749998,None,741.3467675749998,None,,,,,,,,,,,,,,,,,,,,,,,,,,,,,,,,,,,,,,,,,,,,001,145,2020_Feb_20_1009,spring_faces,3.1.5,60.03905071933988,
condition files/Stage1_1.xlsx,,B3,T3,c,"['c', 'm']","['Clue', 'Monopoly']","[-0.15, 0.5]","[0.15, 0.5]",1,1,,,,,,,,,0,8,8,8,0,4,4,4,,,,,,,,,,,,,,,,,,,,,,,,,,,,,,,,,,,,,,,,,,,,,,,,,,,,,,,743.3118763120001,None,743.3118763120001,None,743.3118763120001,None,m,0,0.027425016000051983,None,None,None,None,None,None,744.8952198289999,None,744.8952198289999,None,744.8952198289999,None,744.8952198289999,None,,,,,,,,,,,,,,,,,,,,,,,,,,,,,,,,,,,,,,,,,,,,001,145,2020_Feb_20_1009,spring_faces,3.1.5,60.03905071933988,
condition files/Stage1_1.xlsx,,T4,B3,m,"['c', 'm']","['Clue', 'Monopoly']","[-0.15, 0.5]","[0.15, 0.5]",1,1,,,,,,,,,0,8,8,8,0,5,5,6,,,,,,,,,,,,,,,,,,,,,,,,,,,,,,,,,,,,,,,,,,,,,,,,,,,,,,,746.8448977260005,None,746.8448977260005,None,746.8448977260005,None,c,0,0.013893767999434203,None,None,None,None,None,None,748.4283209590003,None,748.4283209590003,None,748.4283209590003,None,748.4283209590003,None,,,,,,,,,,,,,,,,,,,,,,,,,,,,,,,,,,,,,,,,,,,,001,145,2020_Feb_20_1009,spring_faces,3.1.5,60.03905071933988,
condition files/Stage1_1.xlsx,,T2,B2,m,"['c', 'm']","['Clue', 'Monopoly']","[-0.15, 0.5]","[0.15, 0.5]",1,1,,,,,,,,,0,8,8,8,0,6,6,3,,,,,,,,,,,,,,,,,,,,,,,,,,,,,,,,,,,,,,,,,,,,,,,,,,,,,,,750.3786292770001,None,750.3786292770001,None,750.3786292770001,None,m,1,0.4148313990008319,751.9289012730005,None,751.9289012730005,None,751.9289012730005,None,752.3951928590004,None,752.3951928590004,None,752.3951928590004,None,752.3951928590004,None,,,,,,,,,,,,,,,,,,,,,,,,,,,,,,,,,,,,,,,,,,,,001,145,2020_Feb_20_1009,spring_faces,3.1.5,60.03905071933988,
condition files/Stage1_1.xlsx,,T1,B1,c,"['c', 'm']","['Clue', 'Monopoly']","[-0.15, 0.5]","[0.15, 0.5]",1,1,,,,,,,,,0,8,8,8,0,7,7,0,,,,,,,,,,,,,,,,,,,,,,,,,,,,,,,,,,,,,,,,,,,,,,,,,,,,,,,754.3612532300003,None,754.3612532300003,None,754.3612532300003,None,m,0,0.40067317400007596,755.8950358390002,None,755.8950358390002,None,755.8950358390002,None,756.3625310150001,None,756.3625310150001,None,756.3625310150001,None,756.3625310150001,None,,,,,,,,,,,,,,,,,,,,,,,,,,,,,,,,,,,,,,,,,,,,001,145,2020_Feb_20_1009,spring_faces,3.1.5,60.03905071933988,
condition files/Stage1_2.xlsx,,B2,T2,m,"['c', 'm']","['Clue', 'Monopoly']","[-0.15, 0.5]","[0.15, 0.5]",1,1,,,,,,,,,0,9,9,9,0,0,0,3,,,,,,,,,,,,,,,,,,,,,,,,,,,,,,,,,,,,,,,,,,,,,,,,,,,,,,,758.3293087230004,None,758.3293087230004,None,758.3293087230004,None,c,0,0.08094930900006148,759.8628032730003,None,759.8628032730003,None,759.8628032730003,None,759.9981386230002,None,759.9981386230002,None,759.9981386230002,None,759.9981386230002,None,,,,,,,,,,,,,,,,,,,,,,,,,,,,,,,,,,,,,,,,,,,,001,145,2020_Feb_20_1009,spring_faces,3.1.5,60.03905071933988,
condition files/Stage1_2.xlsx,,B1,T1,c,"['c', 'm']","['Clue', 'Monopoly']","[-0.15, 0.5]","[0.15, 0.5]",1,1,,,,,,,,,0,9,9,9,0,1,1,0,,,,,,,,,,,,,,,,,,,,,,,,,,,,,,,,,,,,,,,,,,,,,,,,,,,,,,,761.9612610410004,None,761.9612610410004,None,761.9612610410004,None,m,0,0.030347894999977143,763.4973993490003,None,763.4973993490003,None,763.4973993490003,None,763.5794491240003,None,763.5794491240003,None,763.5794491240003,None,763.5794491240003,None,,,,,,,,,,,,,,,,,,,,,,,,,,,,,,,,,,,,,,,,,,,,001,145,2020_Feb_20_1009,spring_faces,3.1.5,60.03905071933988,
condition files/Stage1_2.xlsx,,T3,B3,c,"['c', 'm']","['Clue', 'Monopoly']","[-0.15, 0.5]","[0.15, 0.5]",1,1,,,,,,,,,0,9,9,9,0,2,2,4,,,,,,,,,,,,,,,,,,,,,,,,,,,,,,,,,,,,,,,,,,,,,,,,,,,,,,,765.545264505,None,765.545264505,None,765.545264505,None,c,1,0.25736281700028485,767.0784481070004,None,767.0784481070004,None,767.0784481070004,None,767.3954259040001,None,767.3954259040001,None,767.3954259040001,None,767.3954259040001,None,,,,,,,,,,,,,,,,,,,,,,,,,,,,,,,,,,,,,,,,,,,,001,145,2020_Feb_20_1009,spring_faces,3.1.5,60.03905071933988,
condition files/Stage1_2.xlsx,,T4,B4,m,"['c', 'm']","['Clue', 'Monopoly']","[-0.15, 0.5]","[0.15, 0.5]",1,1,,,,,,,,,0,9,9,9,0,3,3,7,,,,,,,,,,,,,,,,,,,,,,,,,,,,,,,,,,,,,,,,,,,,,,,,,,,,,,,769.3615155460002,None,769.3615155460002,None,769.3615155460002,None,c,0,0.04110770700026478,770.8947070049999,None,770.8947070049999,None,770.8947070049999,None,770.9948542820002,None,770.9948542820002,None,770.9948542820002,None,770.9948542820002,None,,,,,,,,,,,,,,,,,,,,,,,,,,,,,,,,,,,,,,,,,,,,001,145,2020_Feb_20_1009,spring_faces,3.1.5,60.03905071933988,
condition files/Stage1_2.xlsx,,B4,T3,c,"['c', 'm']","['Clue', 'Monopoly']","[-0.15, 0.5]","[0.15, 0.5]",1,1,,,,,,,,,0,9,9,9,0,4,4,5,,,,,,,,,,,,,,,,,,,,,,,,,,,,,,,,,,,,,,,,,,,,,,,,,,,,,,,772.9615384899998,None,772.9615384899998,None,772.9615384899998,None,m,0,0.008230273000663146,774.4955761480005,None,774.4955761480005,None,774.4955761480005,None,774.5791460589999,None,774.5791460589999,None,774.5791460589999,None,774.5791460589999,None,,,,,,,,,,,,,,,,,,,,,,,,,,,,,,,,,,,,,,,,,,,,001,145,2020_Feb_20_1009,spring_faces,3.1.5,60.03905071933988,
condition files/Stage1_2.xlsx,,T2,B1,c,"['c', 'm']","['Clue', 'Monopoly']","[-0.15, 0.5]","[0.15, 0.5]",1,1,,,,,,,,,0,9,9,9,0,5,5,1,,,,,,,,,,,,,,,,,,,,,,,,,,,,,,,,,,,,,,,,,,,,,,,,,,,,,,,776.5286171110001,None,776.5286171110001,None,776.5286171110001,None,c,1,0.28093375300068146,778.0787999330005,None,778.0787999330005,None,778.0787999330005,None,778.4119768930004,None,778.4119768930004,None,778.4119768930004,None,778.4119768930004,None,,,,,,,,,,,,,,,,,,,,,,,,,,,,,,,,,,,,,,,,,,,,001,145,2020_Feb_20_1009,spring_faces,3.1.5,60.03905071933988,
condition files/Stage1_2.xlsx,,T1,B2,m,"['c', 'm']","['Clue', 'Monopoly']","[-0.15, 0.5]","[0.15, 0.5]",1,1,,,,,,,,,0,9,9,9,0,6,6,2,,,,,,,,,,,,,,,,,,,,,,,,,,,,,,,,,,,,,,,,,,,,,,,,,,,,,,,780.3786089940004,None,780.3786089940004,None,780.3786089940004,None,c,0,0.01627073800045764,None,None,None,None,None,None,781.9622817950003,None,781.9622817950003,None,781.9622817950003,None,781.9622817950003,None,,,,,,,,,,,,,,,,,,,,,,,,,,,,,,,,,,,,,,,,,,,,001,145,2020_Feb_20_1009,spring_faces,3.1.5,60.03905071933988,
condition files/Stage1_2.xlsx,,B3,T4,m,"['c', 'm']","['Clue', 'Monopoly']","[-0.15, 0.5]","[0.15, 0.5]",1,1,,,,,,,,,0,9,9,9,0,7,7,6,,,,,,,,,,,,,,,,,,,,,,,,,,,,,,,,,,,,,,,,,,,,,,,,,,,,,,,783.911274258,None,783.911274258,None,783.911274258,None,m,1,0.0008070499998211744,785.4468968330002,None,785.4468968330002,None,785.4468968330002,None,785.5122391320001,None,785.5122391320001,None,785.5122391320001,None,785.5122391320001,None,,,,,,,,,,,,,,,,,,,,,,,,,,,,,,,,,,,,,,,,,,,,001,145,2020_Feb_20_1009,spring_faces,3.1.5,60.03905071933988,
condition files/Stage1_1.xlsx,,B1,T2,c,"['c', 'm']","['Clue', 'Monopoly']","[-0.15, 0.5]","[0.15, 0.5]",1,1,,,,,,,,,0,10,10,10,0,0,0,1,,,,,,,,,,,,,,,,,,,,,,,,,,,,,,,,,,,,,,,,,,,,,,,,,,,,,,,787.4953854960004,None,787.4953854960004,None,787.4953854960004,None,m,0,0.09737350499926833,789.0303786470004,None,789.0303786470004,None,789.0303786470004,None,789.1803723190005,None,789.1803723190005,None,789.1803723190005,None,789.1803723190005,None,,,,,,,,,,,,,,,,,,,,,,,,,,,,,,,,,,,,,,,,,,,,001,145,2020_Feb_20_1009,spring_faces,3.1.5,60.03905071933988,
condition files/Stage1_1.xlsx,,B3,T3,c,"['c', 'm']","['Clue', 'Monopoly']","[-0.15, 0.5]","[0.15, 0.5]",1,1,,,,,,,,,0,10,10,10,0,1,1,4,,,,,,,,,,,,,,,,,,,,,,,,,,,,,,,,,,,,,,,,,,,,,,,,,,,,,,,791.1450504229997,None,791.1450504229997,None,791.1450504229997,None,c,1,0.14505881200057047,792.6946794430005,None,792.6946794430005,None,792.6946794430005,None,792.8956378270004,None,792.8956378270004,None,792.8956378270004,None,792.8956378270004,None,,,,,,,,,,,,,,,,,,,,,,,,,,,,,,,,,,,,,,,,,,,,001,145,2020_Feb_20_1009,spring_faces,3.1.5,60.03905071933988,
condition files/Stage1_1.xlsx,,T3,B4,c,"['c', 'm']","['Clue', 'Monopoly']","[-0.15, 0.5]","[0.15, 0.5]",1,1,,,,,,,,,0,10,10,10,0,2,2,5,,,,,,,,,,,,,,,,,,,,,,,,,,,,,,,,,,,,,,,,,,,,,,,,,,,,,,,794.8621259259999,None,794.8621259259999,None,794.8621259259999,None,c,1,0.3953864570003134,796.3963701760003,None,796.3963701760003,None,796.3963701760003,None,796.8455508019997,None,796.8455508019997,None,796.8455508019997,None,796.8455508019997,None,,,,,,,,,,,,,,,,,,,,,,,,,,,,,,,,,,,,,,,,,,,,001,145,2020_Feb_20_1009,spring_faces,3.1.5,60.03905071933988,
condition files/Stage1_1.xlsx,,T4,B3,m,"['c', 'm']","['Clue', 'Monopoly']","[-0.15, 0.5]","[0.15, 0.5]",1,1,,,,,,,,,0,10,10,10,0,3,3,6,,,,,,,,,,,,,,,,,,,,,,,,,,,,,,,,,,,,,,,,,,,,,,,,,,,,,,,798.812094078,None,798.812094078,None,798.812094078,None,c,0,0.25387903099999676,800.3458783380001,None,800.3458783380001,None,800.3458783380001,None,800.6647718659997,None,800.6647718659997,None,800.6647718659997,None,800.6647718659997,None,,,,,,,,,,,,,,,,,,,,,,,,,,,,,,,,,,,,,,,,,,,,001,145,2020_Feb_20_1009,spring_faces,3.1.5,60.03905071933988,
condition files/Stage1_1.xlsx,,T2,B2,m,"['c', 'm']","['Clue', 'Monopoly']","[-0.15, 0.5]","[0.15, 0.5]",1,1,,,,,,,,,0,10,10,10,0,4,4,3,,,,,,,,,,,,,,,,,,,,,,,,,,,,,,,,,,,,,,,,,,,,,,,,,,,,,,,802.6285291249997,None,802.6285291249997,None,802.6285291249997,None,c,0,0.7900638999999501,804.1617375380001,None,804.1617375380001,None,804.1617375380001,None,805.0114373329998,None,805.0114373329998,None,805.0114373329998,None,805.0114373329998,None,,,,,,,,,,,,,,,,,,,,,,,,,,,,,,,,,,,,,,,,,,,,001,145,2020_Feb_20_1009,spring_faces,3.1.5,60.03905071933988,
condition files/Stage1_1.xlsx,,B2,T1,m,"['c', 'm']","['Clue', 'Monopoly']","[-0.15, 0.5]","[0.15, 0.5]",1,1,,,,,,,,,0,10,10,10,0,5,5,2,,,,,,,,,,,,,,,,,,,,,,,,,,,,,,,,,,,,,,,,,,,,,,,,,,,,,,,806.9784057320003,None,806.9784057320003,None,806.9784057320003,None,m,1,0.8078642749997016,808.5119405080004,None,808.5119405080004,None,808.5119405080004,None,809.3782706990005,None,809.3782706990005,None,809.3782706990005,None,809.3782706990005,None,,,,,,,,,,,,,,,,,,,,,,,,,,,,,,,,,,,,,,,,,,,,001,145,2020_Feb_20_1009,spring_faces,3.1.5,60.03905071933988,
condition files/Stage1_1.xlsx,,B4,T4,m,"['c', 'm']","['Clue', 'Monopoly']","[-0.15, 0.5]","[0.15, 0.5]",1,1,,,,,,,,,0,10,10,10,0,6,6,7,,,,,,,,,,,,,,,,,,,,,,,,,,,,,,,,,,,,,,,,,,,,,,,,,,,,,,,811.3452624910005,None,811.3452624910005,None,811.3452624910005,None,m,1,0.4725930510003309,812.8792035100005,None,812.8792035100005,None,812.8792035100005,None,813.4125203240001,None,813.4125203240001,None,813.4125203240001,None,813.4125203240001,None,,,,,,,,,,,,,,,,,,,,,,,,,,,,,,,,,,,,,,,,,,,,001,145,2020_Feb_20_1009,spring_faces,3.1.5,60.03905071933988,
condition files/Stage1_1.xlsx,,T1,B1,c,"['c', 'm']","['Clue', 'Monopoly']","[-0.15, 0.5]","[0.15, 0.5]",1,1,,,,,,,,,0,10,10,10,0,7,7,0,,,,,,,,,,,,,,,,,,,,,,,,,,,,,,,,,,,,,,,,,,,,,,,,,,,,,,,815.3786311530002,None,815.3786311530002,None,815.3786311530002,None,c,1,0.10263175100044464,816.9291132079998,None,816.9291132079998,None,816.9291132079998,None,817.0958270290002,None,817.0958270290002,None,817.0958270290002,None,817.0958270290002,None,,,,,,,,,,,,,,,,,,,,,,,,,,,,,,,,,,,,,,,,,,,,001,145,2020_Feb_20_1009,spring_faces,3.1.5,60.03905071933988,
condition files/Stage1_2.xlsx,,T1,B2,m,"['c', 'm']","['Clue', 'Monopoly']","[-0.15, 0.5]","[0.15, 0.5]",1,1,,,,,,,,,0,11,11,11,0,0,0,2,,,,,,,,,,,,,,,,,,,,,,,,,,,,,,,,,,,,,,,,,,,,,,,,,,,,,,,819.0787918699998,None,819.0787918699998,None,819.0787918699998,None,m,1,0.0026275970003553084,820.6291124310001,None,820.6291124310001,None,820.6291124310001,None,820.6955323439997,None,820.6955323439997,None,820.6955323439997,None,820.6955323439997,None,,,,,,,,,,,,,,,,,,,,,,,,,,,,,,,,,,,,,,,,,,,,001,145,2020_Feb_20_1009,spring_faces,3.1.5,60.03905071933988,
condition files/Stage1_2.xlsx,,B2,T2,m,"['c', 'm']","['Clue', 'Monopoly']","[-0.15, 0.5]","[0.15, 0.5]",1,1,,,,,,,,,0,11,11,11,0,1,1,3,,,,,,,,,,,,,,,,,,,,,,,,,,,,,,,,,,,,,,,,,,,,,,,,,,,,,,,822.6619877550002,None,822.6619877550002,None,822.6619877550002,None,m,1,0.004195266999886371,824.1955431900005,None,824.1955431900005,None,824.1955431900005,None,824.2622518280004,None,824.2622518280004,None,824.2622518280004,None,824.2622518280004,None,,,,,,,,,,,,,,,,,,,,,,,,,,,,,,,,,,,,,,,,,,,,001,145,2020_Feb_20_1009,spring_faces,3.1.5,60.03905071933988,
condition files/Stage1_2.xlsx,,T2,B1,c,"['c', 'm']","['Clue', 'Monopoly']","[-0.15, 0.5]","[0.15, 0.5]",1,1,,,,,,,,,0,11,11,11,0,2,2,1,,,,,,,,,,,,,,,,,,,,,,,,,,,,,,,,,,,,,,,,,,,,,,,,,,,,,,,826.228666252,None,826.228666252,None,826.228666252,None,c,1,-0.010481551000339095,827.7782811910001,None,827.7782811910001,None,827.7782811910001,None,827.8302413170004,None,827.8302413170004,None,827.8302413170004,None,827.8302413170004,None,,,,,,,,,,,,,,,,,,,,,,,,,,,,,,,,,,,,,,,,,,,,001,145,2020_Feb_20_1009,spring_faces,3.1.5,60.03905071933988,
condition files/Stage1_2.xlsx,,T4,B4,m,"['c', 'm']","['Clue', 'Monopoly']","[-0.15, 0.5]","[0.15, 0.5]",1,1,,,,,,,,,0,11,11,11,0,3,3,7,,,,,,,,,,,,,,,,,,,,,,,,,,,,,,,,,,,,,,,,,,,,,,,,,,,,,,,829.7949556330004,None,829.7949556330004,None,829.7949556330004,None,m,1,0.19810936900012166,831.3296386430002,None,831.3296386430002,None,831.3296386430002,None,831.5790953000005,None,831.5790953000005,None,831.5790953000005,None,831.5790953000005,None,,,,,,,,,,,,,,,,,,,,,,,,,,,,,,,,,,,,,,,,,,,,001,145,2020_Feb_20_1009,spring_faces,3.1.5,60.03905071933988,
condition files/Stage1_2.xlsx,,B1,T1,c,"['c', 'm']","['Clue', 'Monopoly']","[-0.15, 0.5]","[0.15, 0.5]",1,1,,,,,,,,,0,11,11,11,0,4,4,0,,,,,,,,,,,,,,,,,,,,,,,,,,,,,,,,,,,,,,,,,,,,,,,,,,,,,,,833.5450806879999,None,833.5450806879999,None,833.5450806879999,None,m,0,0.09601385700079845,835.0796768700002,None,835.0796768700002,None,835.0796768700002,None,835.244996331,None,835.244996331,None,835.244996331,None,835.244996331,None,,,,,,,,,,,,,,,,,,,,,,,,,,,,,,,,,,,,,,,,,,,,001,145,2020_Feb_20_1009,spring_faces,3.1.5,60.03905071933988,
condition files/Stage1_2.xlsx,,T3,B3,c,"['c', 'm']","['Clue', 'Monopoly']","[-0.15, 0.5]","[0.15, 0.5]",1,1,,,,,,,,,0,11,11,11,0,5,5,4,,,,,,,,,,,,,,,,,,,,,,,,,,,,,,,,,,,,,,,,,,,,,,,,,,,,,,,837.1951738329999,None,837.1951738329999,None,837.1951738329999,None,c,1,0.2548469010007466,838.7289096000004,None,838.7289096000004,None,838.7289096000004,None,839.0465725720005,None,839.0465725720005,None,839.0465725720005,None,839.0465725720005,None,,,,,,,,,,,,,,,,,,,,,,,,,,,,,,,,,,,,,,,,,,,,001,145,2020_Feb_20_1009,spring_faces,3.1.5,60.03905071933988,
condition files/Stage1_2.xlsx,,B4,T3,c,"['c', 'm']","['Clue', 'Monopoly']","[-0.15, 0.5]","[0.15, 0.5]",1,1,,,,,,,,,0,11,11,11,0,6,6,5,,,,,,,,,,,,,,,,,,,,,,,,,,,,,,,,,,,,,,,,,,,,,,,,,,,,,,,841.0119904129997,None,841.0119904129997,None,841.0119904129997,None,c,1,0.06954731800033187,842.5621976310003,None,842.5621976310003,None,842.5621976310003,None,842.6955414539998,None,842.6955414539998,None,842.6955414539998,None,842.6955414539998,None,,,,,,,,,,,,,,,,,,,,,,,,,,,,,,,,,,,,,,,,,,,,001,145,2020_Feb_20_1009,spring_faces,3.1.5,60.03905071933988,
condition files/Stage1_2.xlsx,,B3,T4,m,"['c', 'm']","['Clue', 'Monopoly']","[-0.15, 0.5]","[0.15, 0.5]",1,1,,,,,,,,,0,11,11,11,0,7,7,6,,,,,,,,,,,,,,,,,,,,,,,,,,,,,,,,,,,,,,,,,,,,,,,,,,,,,,,844.6618480030002,None,844.6618480030002,None,844.6618480030002,None,c,0,0.004907644999548211,None,None,None,None,None,None,846.2455846339999,None,846.2455846339999,None,846.2455846339999,None,846.2455846339999,None,,,,,,,,,,,,,,,,,,,,,,,,,,,,,,,,,,,,,,,,,,,,001,145,2020_Feb_20_1009,spring_faces,3.1.5,60.03905071933988,
,,,,,,,,,,,,,,,,,,,,,,,,,,,,,,,,,,,,,,,,,,,,,,,,,,,,,,,,,,,,,,,,,,,,,,,,,,,,,,,,,,,,,,,,,,,,,,,,,,,,,,,,,,,,,,,,848.21242471,None,space,15.467779455999334,853.2119309970003,None,,,,,,,,,,,,,,,,,,,,,,,,,,,,,,001,145,2020_Feb_20_1009,spring_faces,3.1.5,60.03905071933988,
condition files/Stage2_1.xlsx,,B4,T4,r,"['s', 'r']","['Stratego', 'Risk']","[-0.15, 0.5]","[0.15, 0.5]",1,1,,,,,,,,,,,,,,,,,0,0,0,0,0,0,0,5,,,,,,,,,,,,,,,,,,,,,,,,,,,,,,,,,,,,,,,,,,,,,,,868.7451336290005,None,868.7451336290005,None,868.7451336290005,None,s,0,0.7843816489994424,870.2473787099998,None,870.2473787099998,None,870.2473787099998,None,871.1122682100004,None,871.1122682100004,None,871.1122682100004,None,871.1122682100004,None,,,,,,,,,,,,,,,853.2119309970003,None,,,,,,,,,,,,,,,,,,,,,,,,,,,,001,145,2020_Feb_20_1009,spring_faces,3.1.5,60.03905071933988,
condition files/Stage2_1.xlsx,,T1,B1,s,"['s', 'r']","['Stratego', 'Risk']","[-0.15, 0.5]","[0.15, 0.5]",1,1,,,,,,,,,,,,,,,,,0,0,0,0,0,1,1,2,,,,,,,,,,,,,,,,,,,,,,,,,,,,,,,,,,,,,,,,,,,,,,,873.0621030170005,None,873.0621030170005,None,873.0621030170005,None,s,1,0.11625863100016431,874.6114755480003,None,874.6114755480003,None,874.6114755480003,None,874.781239768,None,874.781239768,None,874.781239768,None,874.781239768,None,,,,,,,,,,,,,,,,,,,,,,,,,,,,,,,,,,,,,,,,,,,,001,145,2020_Feb_20_1009,spring_faces,3.1.5,60.03905071933988,
condition files/Stage2_1.xlsx,,T3,B3,s,"['s', 'r']","['Stratego', 'Risk']","[-0.15, 0.5]","[0.15, 0.5]",1,1,,,,,,,,,,,,,,,,,0,0,0,0,0,2,2,4,,,,,,,,,,,,,,,,,,,,,,,,,,,,,,,,,,,,,,,,,,,,,,,876.7453185470004,None,876.7453185470004,None,876.7453185470004,None,r,0,0.17666360000021086,878.2791643290002,None,878.2791643290002,None,878.2791643290002,None,878.5122832420002,None,878.5122832420002,None,878.5122832420002,None,878.5122832420002,None,,,,,,,,,,,,,,,,,,,,,,,,,,,,,,,,,,,,,,,,,,,,001,145,2020_Feb_20_1009,spring_faces,3.1.5,60.03905071933988,
condition files/Stage2_1.xlsx,,B2,T2,r,"['s', 'r']","['Stratego', 'Risk']","[-0.15, 0.5]","[0.15, 0.5]",1,1,,,,,,,,,,,,,,,,,0,0,0,0,0,3,3,3,,,,,,,,,,,,,,,,,,,,,,,,,,,,,,,,,,,,,,,,,,,,,,,880.4780619009998,None,880.4780619009998,None,880.4780619009998,None,s,0,0.04325739100022474,882.0125592390004,None,882.0125592390004,None,882.0125592390004,None,882.128210799,None,882.128210799,None,882.128210799,None,882.128210799,None,,,,,,,,,,,,,,,,,,,,,,,,,,,,,,,,,,,,,,,,,,,,001,145,2020_Feb_20_1009,spring_faces,3.1.5,60.03905071933988,
condition files/Stage2_1.xlsx,,T5,B5,s,"['s', 'r']","['Stratego', 'Risk']","[-0.15, 0.5]","[0.15, 0.5]",1,1,,,,,,,,,,,,,,,,,0,0,0,0,0,4,4,0,,,,,,,,,,,,,,,,,,,,,,,,,,,,,,,,,,,,,,,,,,,,,,,884.0783132340002,None,884.0783132340002,None,884.0783132340002,None,s,1,0.3138194629991631,885.6619082739999,None,885.6619082739999,None,885.6619082739999,None,886.0449503910004,None,886.0449503910004,None,886.0449503910004,None,886.0449503910004,None,,,,,,,,,,,,,,,,,,,,,,,,,,,,,,,,,,,,,,,,,,,,001,145,2020_Feb_20_1009,spring_faces,3.1.5,60.03905071933988,
condition files/Stage2_1.xlsx,,B6,T6,r,"['s', 'r']","['Stratego', 'Risk']","[-0.15, 0.5]","[0.15, 0.5]",1,1,,,,,,,,,,,,,,,,,0,0,0,0,0,5,5,1,,,,,,,,,,,,,,,,,,,,,,,,,,,,,,,,,,,,,,,,,,,,,,,887.9946558199999,None,887.9946558199999,None,887.9946558199999,None,s,0,0.33348652599943307,889.5782494960004,None,889.5782494960004,None,889.5782494960004,None,889.978872789,None,889.978872789,None,889.978872789,None,889.978872789,None,,,,,,,,,,,,,,,,,,,,,,,,,,,,,,,,,,,,,,,,,,,,001,145,2020_Feb_20_1009,spring_faces,3.1.5,60.03905071933988,
condition files/Stage2_2.xlsx,,B5,T5,s,"['s', 'r']","['Stratego', 'Risk']","[-0.15, 0.5]","[0.15, 0.5]",1,1,,,,,,,,,,,,,,,,,0,1,1,1,0,0,0,0,,,,,,,,,,,,,,,,,,,,,,,,,,,,,,,,,,,,,,,,,,,,,,,891.9454046910005,None,891.9454046910005,None,891.9454046910005,None,s,1,0.48122509000040736,893.4785330209997,None,893.4785330209997,None,893.4785330209997,None,894.0290484019997,None,894.0290484019997,None,894.0290484019997,None,894.0290484019997,None,,,,,,,,,,,,,,,,,,,,,,,,,,,,,,,,,,,,,,,,,,,,001,145,2020_Feb_20_1009,spring_faces,3.1.5,60.03905071933988,
condition files/Stage2_2.xlsx,,T4,B4,r,"['s', 'r']","['Stratego', 'Risk']","[-0.15, 0.5]","[0.15, 0.5]",1,1,,,,,,,,,,,,,,,,,0,1,1,1,0,1,1,5,,,,,,,,,,,,,,,,,,,,,,,,,,,,,,,,,,,,,,,,,,,,,,,895.9778826740003,None,895.9778826740003,None,895.9778826740003,None,r,1,0.3196410079999623,897.5120924720004,None,897.5120924720004,None,897.5120924720004,None,897.8955849450003,None,897.8955849450003,None,897.8955849450003,None,897.8955849450003,None,,,,,,,,,,,,,,,,,,,,,,,,,,,,,,,,,,,,,,,,,,,,001,145,2020_Feb_20_1009,spring_faces,3.1.5,60.03905071933988,
condition files/Stage2_2.xlsx,,T2,B2,r,"['s', 'r']","['Stratego', 'Risk']","[-0.15, 0.5]","[0.15, 0.5]",1,1,,,,,,,,,,,,,,,,,0,1,1,1,0,2,2,3,,,,,,,,,,,,,,,,,,,,,,,,,,,,,,,,,,,,,,,,,,,,,,,899.8619556860003,None,899.8619556860003,None,899.8619556860003,None,s,0,0.2925905279998915,901.3951754649997,None,901.3951754649997,None,901.3951754649997,None,901.7446315300003,None,901.7446315300003,None,901.7446315300003,None,901.7446315300003,None,,,,,,,,,,,,,,,,,,,,,,,,,,,,,,,,,,,,,,,,,,,,001,145,2020_Feb_20_1009,spring_faces,3.1.5,60.03905071933988,
condition files/Stage2_2.xlsx,,B3,T3,s,"['s', 'r']","['Stratego', 'Risk']","[-0.15, 0.5]","[0.15, 0.5]",1,1,,,,,,,,,,,,,,,,,0,1,1,1,0,3,3,4,,,,,,,,,,,,,,,,,,,,,,,,,,,,,,,,,,,,,,,,,,,,,,,903.7113033900005,None,903.7113033900005,None,903.7113033900005,None,r,0,-0.006312507000075129,905.2621176869998,None,905.2621176869998,None,905.2621176869998,None,905.3291412170001,None,905.3291412170001,None,905.3291412170001,None,905.3291412170001,None,,,,,,,,,,,,,,,,,,,,,,,,,,,,,,,,,,,,,,,,,,,,001,145,2020_Feb_20_1009,spring_faces,3.1.5,60.03905071933988,
condition files/Stage2_2.xlsx,,T6,B6,r,"['s', 'r']","['Stratego', 'Risk']","[-0.15, 0.5]","[0.15, 0.5]",1,1,,,,,,,,,,,,,,,,,0,1,1,1,0,4,4,1,,,,,,,,,,,,,,,,,,,,,,,,,,,,,,,,,,,,,,,,,,,,,,,907.2785851750004,None,907.2785851750004,None,907.2785851750004,None,s,0,0.202807507000216,908.8129526370003,None,908.8129526370003,None,908.8129526370003,None,909.0794794029998,None,909.0794794029998,None,909.0794794029998,None,909.0794794029998,None,,,,,,,,,,,,,,,,,,,,,,,,,,,,,,,,,,,,,,,,,,,,001,145,2020_Feb_20_1009,spring_faces,3.1.5,60.03905071933988,
condition files/Stage2_2.xlsx,,B1,T1,s,"['s', 'r']","['Stratego', 'Risk']","[-0.15, 0.5]","[0.15, 0.5]",1,1,,,,,,,,,,,,,,,,,0,1,1,1,0,5,5,2,,,,,,,,,,,,,,,,,,,,,,,,,,,,,,,,,,,,,,,,,,,,,,,911.0449667499997,None,911.0449667499997,None,911.0449667499997,None,s,1,0.08387964600024134,912.5958085869997,None,912.5958085869997,None,912.5958085869997,None,912.7614492310004,None,912.7614492310004,None,912.7614492310004,None,912.7614492310004,None,,,,,,,,,,,,,,,,,,,,,,,,,,,,,,,,,,,,,,,,,,,,001,145,2020_Feb_20_1009,spring_faces,3.1.5,60.03905071933988,
condition files/Stage2_1.xlsx,,T1,B1,s,"['s', 'r']","['Stratego', 'Risk']","[-0.15, 0.5]","[0.15, 0.5]",1,1,,,,,,,,,,,,,,,,,0,2,2,2,0,0,0,2,,,,,,,,,,,,,,,,,,,,,,,,,,,,,,,,,,,,,,,,,,,,,,,914.7292241100004,None,914.7292241100004,None,914.7292241100004,None,r,0,0.22493280499929824,916.2788750950003,None,916.2788750950003,None,916.2788750950003,None,916.5622499190004,None,916.5622499190004,None,916.5622499190004,None,916.5622499190004,None,,,,,,,,,,,,,,,,,,,,,,,,,,,,,,,,,,,,,,,,,,,,001,145,2020_Feb_20_1009,spring_faces,3.1.5,60.03905071933988,
condition files/Stage2_1.xlsx,,B6,T6,r,"['s', 'r']","['Stratego', 'Risk']","[-0.15, 0.5]","[0.15, 0.5]",1,1,,,,,,,,,,,,,,,,,0,2,2,2,0,1,1,1,,,,,,,,,,,,,,,,,,,,,,,,,,,,,,,,,,,,,,,,,,,,,,,918.5298246949997,None,918.5298246949997,None,918.5298246949997,None,s,0,0.009700213000542135,None,None,None,None,None,None,920.1119846620004,None,920.1119846620004,None,920.1119846620004,None,920.1119846620004,None,,,,,,,,,,,,,,,,,,,,,,,,,,,,,,,,,,,,,,,,,,,,001,145,2020_Feb_20_1009,spring_faces,3.1.5,60.03905071933988,
condition files/Stage2_1.xlsx,,B4,T4,r,"['s', 'r']","['Stratego', 'Risk']","[-0.15, 0.5]","[0.15, 0.5]",1,1,,,,,,,,,,,,,,,,,0,2,2,2,0,2,2,5,,,,,,,,,,,,,,,,,,,,,,,,,,,,,,,,,,,,,,,,,,,,,,,922.0619800229997,None,922.0619800229997,None,922.0619800229997,None,s,0,0.5224671800006035,923.597333957,None,923.597333957,None,923.597333957,None,924.1786242650005,None,924.1786242650005,None,924.1786242650005,None,924.1786242650005,None,,,,,,,,,,,,,,,,,,,,,,,,,,,,,,,,,,,,,,,,,,,,001,145,2020_Feb_20_1009,spring_faces,3.1.5,60.03905071933988,
condition files/Stage2_1.xlsx,,B2,T2,r,"['s', 'r']","['Stratego', 'Risk']","[-0.15, 0.5]","[0.15, 0.5]",1,1,,,,,,,,,,,,,,,,,0,2,2,2,0,3,3,3,,,,,,,,,,,,,,,,,,,,,,,,,,,,,,,,,,,,,,,,,,,,,,,926.1451068750002,None,926.1451068750002,None,926.1451068750002,None,r,1,0.16820773600011307,927.6795562520001,None,927.6795562520001,None,927.6795562520001,None,927.9123163490003,None,927.9123163490003,None,927.9123163490003,None,927.9123163490003,None,,,,,,,,,,,,,,,,,,,,,,,,,,,,,,,,,,,,,,,,,,,,001,145,2020_Feb_20_1009,spring_faces,3.1.5,60.03905071933988,
condition files/Stage2_1.xlsx,,T3,B3,s,"['s', 'r']","['Stratego', 'Risk']","[-0.15, 0.5]","[0.15, 0.5]",1,1,,,,,,,,,,,,,,,,,0,2,2,2,0,4,4,4,,,,,,,,,,,,,,,,,,,,,,,,,,,,,,,,,,,,,,,,,,,,,,,929.8787254580002,None,929.8787254580002,None,929.8787254580002,None,r,0,0.06768966000072396,931.4120080789999,None,931.4120080789999,None,931.4120080789999,None,931.5620601350001,None,931.5620601350001,None,931.5620601350001,None,931.5620601350001,None,,,,,,,,,,,,,,,,,,,,,,,,,,,,,,,,,,,,,,,,,,,,001,145,2020_Feb_20_1009,spring_faces,3.1.5,60.03905071933988,
condition files/Stage2_1.xlsx,,T5,B5,s,"['s', 'r']","['Stratego', 'Risk']","[-0.15, 0.5]","[0.15, 0.5]",1,1,,,,,,,,,,,,,,,,,0,2,2,2,0,5,5,0,,,,,,,,,,,,,,,,,,,,,,,,,,,,,,,,,,,,,,,,,,,,,,,933.5117150699998,None,933.5117150699998,None,933.5117150699998,None,r,0,1.7147404229999665,935.0449971010003,None,935.0449971010003,None,935.0449971010003,None,936.8122080599996,None,936.8122080599996,None,936.8122080599996,None,936.8122080599996,None,,,,,,,,,,,,,,,,,,,,,,,,,,,,,,,,,,,,,,,,,,,,001,145,2020_Feb_20_1009,spring_faces,3.1.5,60.03905071933988,
condition files/Stage2_2.xlsx,,B3,T3,s,"['s', 'r']","['Stratego', 'Risk']","[-0.15, 0.5]","[0.15, 0.5]",1,1,,,,,,,,,,,,,,,,,0,3,3,3,0,0,0,4,,,,,,,,,,,,,,,,,,,,,,,,,,,,,,,,,,,,,,,,,,,,,,,938.7948236909997,None,938.7948236909997,None,938.7948236909997,None,s,1,3.6304215939999267,940.3453246190002,None,940.3453246190002,None,940.3453246190002,None,944.0312267520003,None,944.0312267520003,None,944.0312267520003,None,944.0312267520003,None,,,,,,,,,,,,,,,,,,,,,,,,,,,,,,,,,,,,,,,,,,,,001,145,2020_Feb_20_1009,spring_faces,3.1.5,60.03905071933988,
condition files/Stage2_2.xlsx,,T2,B2,r,"['s', 'r']","['Stratego', 'Risk']","[-0.15, 0.5]","[0.15, 0.5]",1,1,,,,,,,,,,,,,,,,,0,3,3,3,0,1,1,3,,,,,,,,,,,,,,,,,,,,,,,,,,,,,,,,,,,,,,,,,,,,,,,945.9952024249997,None,945.9952024249997,None,945.9952024249997,None,s,0,1.9981191179995221,947.5456164120005,None,947.5456164120005,None,947.5456164120005,None,949.5979893740005,None,949.5979893740005,None,949.5979893740005,None,949.5979893740005,None,,,,,,,,,,,,,,,,,,,,,,,,,,,,,,,,,,,,,,,,,,,,001,145,2020_Feb_20_1009,spring_faces,3.1.5,60.03905071933988,
condition files/Stage2_2.xlsx,,T6,B6,r,"['s', 'r']","['Stratego', 'Risk']","[-0.15, 0.5]","[0.15, 0.5]",1,1,,,,,,,,,,,,,,,,,0,3,3,3,0,2,2,1,,,,,,,,,,,,,,,,,,,,,,,,,,,,,,,,,,,,,,,,,,,,,,,951.5615726450005,None,951.5615726450005,None,951.5615726450005,None,s,0,0.07973003300048731,953.095992986,None,953.095992986,None,953.095992986,None,953.2292075739997,None,953.2292075739997,None,953.2292075739997,None,953.2292075739997,None,,,,,,,,,,,,,,,,,,,,,,,,,,,,,,,,,,,,,,,,,,,,001,145,2020_Feb_20_1009,spring_faces,3.1.5,60.03905071933988,
condition files/Stage2_2.xlsx,,B1,T1,s,"['s', 'r']","['Stratego', 'Risk']","[-0.15, 0.5]","[0.15, 0.5]",1,1,,,,,,,,,,,,,,,,,0,3,3,3,0,3,3,2,,,,,,,,,,,,,,,,,,,,,,,,,,,,,,,,,,,,,,,,,,,,,,,955.1952316489997,None,955.1952316489997,None,955.1952316489997,None,s,1,0.14213059399935446,956.7295707069998,None,956.7295707069998,None,956.7295707069998,None,956.945099173,None,956.945099173,None,956.945099173,None,956.945099173,None,,,,,,,,,,,,,,,,,,,,,,,,,,,,,,,,,,,,,,,,,,,,001,145,2020_Feb_20_1009,spring_faces,3.1.5,60.03905071933988,
condition files/Stage2_2.xlsx,,T4,B4,r,"['s', 'r']","['Stratego', 'Risk']","[-0.15, 0.5]","[0.15, 0.5]",1,1,,,,,,,,,,,,,,,,,0,3,3,3,0,4,4,5,,,,,,,,,,,,,,,,,,,,,,,,,,,,,,,,,,,,,,,,,,,,,,,958.8954469400005,None,958.8954469400005,None,958.8954469400005,None,s,0,0.3299450650001745,960.4457208029999,None,960.4457208029999,None,960.4457208029999,None,960.8304764989998,None,960.8304764989998,None,960.8304764989998,None,960.8304764989998,None,,,,,,,,,,,,,,,,,,,,,,,,,,,,,,,,,,,,,,,,,,,,001,145,2020_Feb_20_1009,spring_faces,3.1.5,60.03905071933988,
condition files/Stage2_2.xlsx,,B5,T5,s,"['s', 'r']","['Stratego', 'Risk']","[-0.15, 0.5]","[0.15, 0.5]",1,1,,,,,,,,,,,,,,,,,0,3,3,3,0,5,5,0,,,,,,,,,,,,,,,,,,,,,,,,,,,,,,,,,,,,,,,,,,,,,,,962.7960374470003,None,962.7960374470003,None,962.7960374470003,None,r,0,0.3341218450004817,964.3296322819997,None,964.3296322819997,None,964.3296322819997,None,964.7310823329999,None,964.7310823329999,None,964.7310823329999,None,964.7310823329999,None,,,,,,,,,,,,,,,,,,,,,,,,,,,,,,,,,,,,,,,,,,,,001,145,2020_Feb_20_1009,spring_faces,3.1.5,60.03905071933988,
condition files/Stage2_1.xlsx,,B2,T2,r,"['s', 'r']","['Stratego', 'Risk']","[-0.15, 0.5]","[0.15, 0.5]",1,1,,,,,,,,,,,,,,,,,0,4,4,4,0,0,0,3,,,,,,,,,,,,,,,,,,,,,,,,,,,,,,,,,,,,,,,,,,,,,,,966.7122024119999,None,966.7122024119999,None,966.7122024119999,None,s,0,0.3545829179993234,968.2451821579998,None,968.2451821579998,None,968.2451821579998,None,968.6645497420004,None,968.6645497420004,None,968.6645497420004,None,968.6645497420004,None,,,,,,,,,,,,,,,,,,,,,,,,,,,,,,,,,,,,,,,,,,,,001,145,2020_Feb_20_1009,spring_faces,3.1.5,60.03905071933988,
condition files/Stage2_1.xlsx,,B4,T4,r,"['s', 'r']","['Stratego', 'Risk']","[-0.15, 0.5]","[0.15, 0.5]",1,1,,,,,,,,,,,,,,,,,0,4,4,4,0,1,1,5,,,,,,,,,,,,,,,,,,,,,,,,,,,,,,,,,,,,,,,,,,,,,,,970.6283277929997,None,970.6283277929997,None,970.6283277929997,None,r,1,0.3394118240003081,972.1643945659998,None,972.1643945659998,None,972.1643945659998,None,972.5624841859999,None,972.5624841859999,None,972.5624841859999,None,972.5624841859999,None,,,,,,,,,,,,,,,,,,,,,,,,,,,,,,,,,,,,,,,,,,,,001,145,2020_Feb_20_1009,spring_faces,3.1.5,60.03905071933988,
condition files/Stage2_1.xlsx,,B6,T6,r,"['s', 'r']","['Stratego', 'Risk']","[-0.15, 0.5]","[0.15, 0.5]",1,1,,,,,,,,,,,,,,,,,0,4,4,4,0,2,2,1,,,,,,,,,,,,,,,,,,,,,,,,,,,,,,,,,,,,,,,,,,,,,,,974.5279222019999,None,974.5279222019999,None,974.5279222019999,None,r,1,0.360463059999347,976.0792603780001,None,976.0792603780001,None,976.0792603780001,None,976.495490669,None,976.495490669,None,976.495490669,None,976.495490669,None,,,,,,,,,,,,,,,,,,,,,,,,,,,,,,,,,,,,,,,,,,,,001,145,2020_Feb_20_1009,spring_faces,3.1.5,60.03905071933988,
