condsFile,subStage,cue1,cue2,correct,responseKeys,responseNames,cue1Position,cue2Position,cue1Opacity,cue2Opacity,stageLoop0.thisRepN,stageLoop0.thisTrialN,stageLoop0.thisN,stageLoop0.thisIndex,blockLoop0.thisRepN,blockLoop0.thisTrialN,blockLoop0.thisN,blockLoop0.thisIndex,stage1Loop.thisRepN,stage1Loop.thisTrialN,stage1Loop.thisN,stage1Loop.thisIndex,blockLoop1.thisRepN,blockLoop1.thisTrialN,blockLoop1.thisN,blockLoop1.thisIndex,stage2Loop.thisRepN,stage2Loop.thisTrialN,stage2Loop.thisN,stage2Loop.thisIndex,blockLoop2.thisRepN,blockLoop2.thisTrialN,blockLoop2.thisN,blockLoop2.thisIndex,testLoop.thisRepN,testLoop.thisTrialN,testLoop.thisN,testLoop.thisIndex,blockLoopTest.thisRepN,blockLoopTest.thisTrialN,blockLoopTest.thisN,blockLoopTest.thisIndex,cuePics,id_instr_text.started,id_instr_text.stopped,space_to_continue_2.started,space_to_continue_2.stopped,end_instructions_resp_3.keys,end_instructions_resp_3.rt,end_instructions_resp_3.started,end_instructions_resp_3.stopped,id_input_instr.started,id_input_instr.stopped,id_input_rect.started,id_input_rect.stopped,id_input_resp.keys,id_input_resp.rt,id_input_resp.started,id_input_resp.stopped,sonaID,id_input_text.started,id_input_text.stopped,final_text.started,final_text.stopped,instructions.started,instructions.stopped,end_instructions_resp.keys,end_instructions_resp.rt,end_instructions_resp.started,end_instructions_resp.stopped,space_to_continue.started,space_to_continue.stopped,instructions_stage0.started,instructions_stage0.stopped,end_instructions_resp_stage0.keys,end_instructions_resp_stage0.rt,end_instructions_resp_stage0.started,end_instructions_resp_stage0.stopped,space_to_continue_stage0.started,space_to_continue_stage0.stopped,text.started,text.stopped,resp_text1.started,resp_text1.stopped,resp_text2.started,resp_text2.stopped,trial_resp.keys,trial_resp.corr,trial_resp.rt,trial_resp.started,trial_resp.stopped,cue1Image.started,cue1Image.stopped,cue2Image.started,cue2Image.stopped,cue1Image_fb.started,cue1Image_fb.stopped,cue2Image_fb.started,cue2Image_fb.stopped,fb_text_answer.started,fb_text_answer.stopped,feedback_image.started,feedback_image.stopped,instructions_stage1.started,instructions_stage1.stopped,end_instructions_resp_stage1.keys,end_instructions_resp_stage1.rt,end_instructions_resp_stage1.started,end_instructions_resp_stage1.stopped,space_to_continue_stage1.started,space_to_continue_stage1.stopped,instructions_2.started,instructions_2.stopped,end_instructions_resp_2.keys,end_instructions_resp_2.rt,end_instructions_resp_2.started,end_instructions_resp_2.stopped,press_space_to_continue_stage2.started,press_space_to_continue_stage2.stopped,instructions_testStage1.started,instructions_testStage1.stopped,end_instructions_resp_test1.keys,end_instructions_resp_test1.rt,end_instructions_resp_test1.started,end_instructions_resp_test1.stopped,press_space_to_continue_test1.started,press_space_to_continue_test1.stopped,cue1Image_testChoice.started,cue1Image_testChoice.stopped,cue2Image_testChoice.started,cue2Image_testChoice.stopped,test_resp.keys,test_resp.corr,test_resp.rt,test_resp.started,test_resp.stopped,cue1Image_testConf.started,cue1Image_testConf.stopped,cue2Image_testConf.started,cue2Image_testConf.stopped,conf_reminder.started,conf_reminder.stopped,conf_rating.response,conf_rating.rt,conf_rating.started,conf_rating.stopped,session,participant,date,expName,psychopyVersion,frameRate,
,,,,,,,,,,,,,,,,,,,,,,,,,,,,,,,,,,,,,,,,,,,"{'none': 'pictures/20M_AN_C.png', 'alpha': 'pictures/SHINEd_pear.png', 'beta': 'pictures/SHINEd_pepper.png', 'theta': 'pictures/SHINEd_melon.png', 'phi': 'pictures/SHINEd_apple.png', 'T1': 'pictures/36M_AN_C.png', 'T2': 'pictures/34M_AN_C.png', 'T3': 'pictures/20M_AN_C.png', 'T4': 'pictures/23M_AN_C.png', 'T5': 'pictures/33M_AN_C.png', 'T6': 'pictures/31M_AN_C.png', 'B1': 'pictures/37M_NE_C.png', 'B2': 'pictures/25M_NE_C.png', 'B3': 'pictures/32M_NE_C.png', 'B4': 'pictures/22M_NE_C.png', 'B5': 'pictures/38M_NE_C.png', 'B6': 'pictures/26M_NE_C.png'}",18.88419512499968,None,23.868098686999474,None,space,28.359592521000195,23.868098686999474,None,,,,,,,,,,,,,,,,,,,,,,,,,,,,,,,,,,,,,,,,,,,,,,,,,,,,,,,,,,,,,,,,,,,,,,,,,,,,,,,,,,,,,,,,,,,,,,,,001,146,2020_Feb_20_1015,spring_faces,3.1.5,60.0023169292479,
,,,,,,,,,,,,,,,,,,,,,,,,,,,,,,,,,,,,,,,,,,,,,,,,,,,,52.61818400500033,None,52.61818400500033,None,"['1', '1', '0', '1', 'l', 'i', 'v', 'i', 's', 'backspace', 'backspace', '1', '1', '0', '1', 'l', 'i', 'backspace', 'backspace', 'backspace', 'backspace', 'backspace', 'backspace', '1', '1', '0', '1', 'l', 'i', 'v', 'i', 's', 'backspace', '1', '1', '0', '1', 'l', 'i', 'v', 'i', 's']","[14.985402913000144, 15.353466583000227, 23.545392460000585, 24.02550724899993, 46.13747273399986, 46.50547075899976, 54.105470219999916, 54.45743736500026, 54.64947553100046, 57.91350429199974, 59.84941696599981, 75.83343631800017, 76.16947304899986, 81.52950430200053, 81.88145696300035, 95.59350891099984, 96.71347340400007, 103.52945274900048, 103.83341950700014, 104.02551030399991, 104.16944033799973, 104.377432796, 104.47350836999976, 138.24947515300028, 138.55342145899976, 139.60946088299988, 139.8814415550005, 143.03342922200045, 143.30547397700047, 147.52945541100053, 148.24947924800017, 148.66547651900055, 156.76143097299973, 194.23340442400058, 194.48946227299984, 194.79351283600045, 195.08146165200014, 197.01742106599977, 197.41739774000052, 199.27343281200046, 199.56143069900008, 199.76944222600014]",52.61818400500033,None,,,,,,,,,,,,,,,,,,,,,,,,,,,,,,,,,,,,,,,,,,,,,,,,,,,,,,,,,,,,,,,,,,,,,,,,,,,,,,,,,,,,,,,,001,146,2020_Feb_20_1015,spring_faces,3.1.5,60.0023169292479,
,,,,,,,,,,,,,,,,,,,,,,,,,,,,,,,,,,,,,,,,,,,,,,,,,,,,,,,,,,,,1101livis,52.61818400500033,None,52.61818400500033,None,257.46806361499966,None,space,4.351472360000116,262.4681364150001,None,,,,,,,,,,,,,,,,,,,,,,,,,,,,,,,,,,,,,,,,,,,,,,,,,,,,,,,,,,,,,,,,,,,,,,,,,,,,,001,146,2020_Feb_20_1015,spring_faces,3.1.5,60.0023169292479,
,,,,,,,,,,,,,,,,,,,,,,,,,,,,,,,,,,,,,,,,,,,,,,,,,,,,,,,,,,,,,,,,,,,,,,,262.4681364150001,None,266.86808633999954,None,space,15.41649996399974,271.85114880699984,None,,,,,,,,,,,,,,,,,,,,,,,,,,,,,,,,,,,,,,,,,,,,,,,,,,,,,,,,,,,,,,,,,,,,,001,146,2020_Feb_20_1015,spring_faces,3.1.5,60.0023169292479,
condition files/Stage0a.xlsx,0a,beta,none,g,"['h', 'g']","['Chess', 'Go']","[0, 0.5]","[0, 0]",1,0,0,0,0,0,0,0,0,1,,,,,,,,,,,,,,,,,,,,,,,,,,,,,,,,,,,,,,,,,,,,,,,,,,,,,,,,,,,,,271.85114880699984,None,287.31854197699977,None,287.31854197699977,None,287.31854197699977,None,g,1,9.626835275999838,288.98487135100004,None,288.98487135100004,None,288.98487135100004,None,298.6845733560003,None,298.6845733560003,None,298.6845733560003,None,298.6845733560003,None,,,,,,,,,,,,,,,,,,,,,,,,,,,,,,,,,,,,,,,,,,,,001,146,2020_Feb_20_1015,spring_faces,3.1.5,60.0023169292479,
condition files/Stage0a.xlsx,0a,alpha,none,h,"['h', 'g']","['Chess', 'Go']","[0, 0.5]","[0, 0]",1,0,0,0,0,0,0,1,1,0,,,,,,,,,,,,,,,,,,,,,,,,,,,,,,,,,,,,,,,,,,,,,,,,,,,,,,,,,,,,,,,300.6347802800001,None,300.6347802800001,None,300.6347802800001,None,h,1,8.729327011999885,302.1703300480003,None,302.1703300480003,None,302.1703300480003,None,310.95215534399995,None,310.95215534399995,None,310.95215534399995,None,310.95215534399995,None,,,,,,,,,,,,,,,,,,,,,,,,,,,,,,,,,,,,,,,,,,,,001,146,2020_Feb_20_1015,spring_faces,3.1.5,60.0023169292479,
condition files/Stage0a.xlsx,0a,beta,none,g,"['h', 'g']","['Chess', 'Go']","[0, 0.5]","[0, 0]",1,0,0,1,1,1,0,0,0,1,,,,,,,,,,,,,,,,,,,,,,,,,,,,,,,,,,,,,,,,,,,,,,,,,,,,,,,,,,,,,,,312.93484807000004,None,312.93484807000004,None,312.93484807000004,None,g,1,3.5678531650000878,314.4677725949996,None,314.4677725949996,None,314.4677725949996,None,318.10159017000024,None,318.10159017000024,None,318.10159017000024,None,318.10159017000024,None,,,,,,,,,,,,,,,,,,,,,,,,,,,,,,,,,,,,,,,,,,,,001,146,2020_Feb_20_1015,spring_faces,3.1.5,60.0023169292479,
condition files/Stage0a.xlsx,0a,alpha,none,h,"['h', 'g']","['Chess', 'Go']","[0, 0.5]","[0, 0]",1,0,0,1,1,1,0,1,1,0,,,,,,,,,,,,,,,,,,,,,,,,,,,,,,,,,,,,,,,,,,,,,,,,,,,,,,,,,,,,,,,320.06798021600025,None,320.06798021600025,None,320.06798021600025,None,h,1,1.1863512780000747,321.6013116559998,None,321.6013116559998,None,321.6013116559998,None,322.85129497599974,None,322.85129497599974,None,322.85129497599974,None,322.85129497599974,None,,,,,,,,,,,,,,,,,,,,,,,,,,,,,,,,,,,,,,,,,,,,001,146,2020_Feb_20_1015,spring_faces,3.1.5,60.0023169292479,
condition files/Stage0a.xlsx,0a,alpha,none,h,"['h', 'g']","['Chess', 'Go']","[0, 0.5]","[0, 0]",1,0,0,2,2,2,0,0,0,0,,,,,,,,,,,,,,,,,,,,,,,,,,,,,,,,,,,,,,,,,,,,,,,,,,,,,,,,,,,,,,,324.83474729799946,None,324.83474729799946,None,324.83474729799946,None,g,0,2.3076742430002923,326.36803104799947,None,326.36803104799947,None,326.36803104799947,None,328.7349126809995,None,328.7349126809995,None,328.7349126809995,None,328.7349126809995,None,,,,,,,,,,,,,,,,,,,,,,,,,,,,,,,,,,,,,,,,,,,,001,146,2020_Feb_20_1015,spring_faces,3.1.5,60.0023169292479,
condition files/Stage0a.xlsx,0a,beta,none,g,"['h', 'g']","['Chess', 'Go']","[0, 0.5]","[0, 0]",1,0,0,2,2,2,0,1,1,1,,,,,,,,,,,,,,,,,,,,,,,,,,,,,,,,,,,,,,,,,,,,,,,,,,,,,,,,,,,,,,,330.70075278399963,None,330.70075278399963,None,330.70075278399963,None,h,0,1.193898470000022,332.23377067599995,None,332.23377067599995,None,332.23377067599995,None,333.4850726369996,None,333.4850726369996,None,333.4850726369996,None,333.4850726369996,None,,,,,,,,,,,,,,,,,,,,,,,,,,,,,,,,,,,,,,,,,,,,001,146,2020_Feb_20_1015,spring_faces,3.1.5,60.0023169292479,
condition files/Stage0a.xlsx,0a,beta,none,g,"['h', 'g']","['Chess', 'Go']","[0, 0.5]","[0, 0]",1,0,0,3,3,3,0,0,0,1,,,,,,,,,,,,,,,,,,,,,,,,,,,,,,,,,,,,,,,,,,,,,,,,,,,,,,,,,,,,,,,335.4677695949995,None,335.4677695949995,None,335.4677695949995,None,h,0,4.394762140000239,337.00087073800023,None,337.00087073800023,None,337.00087073800023,None,341.45176954699946,None,341.45176954699946,None,341.45176954699946,None,341.45176954699946,None,,,,,,,,,,,,,,,,,,,,,,,,,,,,,,,,,,,,,,,,,,,,001,146,2020_Feb_20_1015,spring_faces,3.1.5,60.0023169292479,
condition files/Stage0a.xlsx,0a,alpha,none,h,"['h', 'g']","['Chess', 'Go']","[0, 0.5]","[0, 0]",1,0,0,3,3,3,0,1,1,0,,,,,,,,,,,,,,,,,,,,,,,,,,,,,,,,,,,,,,,,,,,,,,,,,,,,,,,,,,,,,,,343.41741978699974,None,343.41741978699974,None,343.41741978699974,None,g,0,2.636452366999947,344.9512158890002,None,344.9512158890002,None,344.9512158890002,None,347.65145682599996,None,347.65145682599996,None,347.65145682599996,None,347.65145682599996,None,,,,,,,,,,,,,,,,,,,,,,,,,,,,,,,,,,,,,,,,,,,,001,146,2020_Feb_20_1015,spring_faces,3.1.5,60.0023169292479,
condition files/Stage0a.xlsx,0a,alpha,none,h,"['h', 'g']","['Chess', 'Go']","[0, 0.5]","[0, 0]",1,0,0,4,4,4,0,0,0,0,,,,,,,,,,,,,,,,,,,,,,,,,,,,,,,,,,,,,,,,,,,,,,,,,,,,,,,,,,,,,,,349.63465580499997,None,349.63465580499997,None,349.63465580499997,None,g,0,3.2037700620003307,351.16789541100025,None,351.16789541100025,None,351.16789541100025,None,354.43491723900024,None,354.43491723900024,None,354.43491723900024,None,354.43491723900024,None,,,,,,,,,,,,,,,,,,,,,,,,,,,,,,,,,,,,,,,,,,,,001,146,2020_Feb_20_1015,spring_faces,3.1.5,60.0023169292479,
condition files/Stage0a.xlsx,0a,beta,none,g,"['h', 'g']","['Chess', 'Go']","[0, 0.5]","[0, 0]",1,0,0,4,4,4,0,1,1,1,,,,,,,,,,,,,,,,,,,,,,,,,,,,,,,,,,,,,,,,,,,,,,,,,,,,,,,,,,,,,,,356.40112577699983,None,356.40112577699983,None,356.40112577699983,None,g,1,7.828912426999523,357.93473434800035,None,357.93473434800035,None,357.93473434800035,None,365.8177839350001,None,365.8177839350001,None,365.8177839350001,None,365.8177839350001,None,,,,,,,,,,,,,,,,,,,,,,,,,,,,,,,,,,,,,,,,,,,,001,146,2020_Feb_20_1015,spring_faces,3.1.5,60.0023169292479,
condition files/Stage0a.xlsx,0a,alpha,none,h,"['h', 'g']","['Chess', 'Go']","[0, 0.5]","[0, 0]",1,0,0,5,5,5,0,0,0,0,,,,,,,,,,,,,,,,,,,,,,,,,,,,,,,,,,,,,,,,,,,,,,,,,,,,,,,,,,,,,,,367.80163737899966,None,367.80163737899966,None,367.80163737899966,None,h,1,8.029006194999965,369.3346059830001,None,369.3346059830001,None,369.3346059830001,None,377.41750062699975,None,377.41750062699975,None,377.41750062699975,None,377.41750062699975,None,,,,,,,,,,,,,,,,,,,,,,,,,,,,,,,,,,,,,,,,,,,,001,146,2020_Feb_20_1015,spring_faces,3.1.5,60.0023169292479,
condition files/Stage0a.xlsx,0a,beta,none,g,"['h', 'g']","['Chess', 'Go']","[0, 0.5]","[0, 0]",1,0,0,5,5,5,0,1,1,1,,,,,,,,,,,,,,,,,,,,,,,,,,,,,,,,,,,,,,,,,,,,,,,,,,,,,,,,,,,,,,,379.38440894299947,None,379.38440894299947,None,379.38440894299947,None,g,1,2.1099903040003483,380.9176893060003,None,380.9176893060003,None,380.9176893060003,None,383.0842285409999,None,383.0842285409999,None,383.0842285409999,None,383.0842285409999,None,,,,,,,,,,,,,,,,,,,,,,,,,,,,,,,,,,,,,,,,,,,,001,146,2020_Feb_20_1015,spring_faces,3.1.5,60.0023169292479,
condition files/Stage0b_1.xlsx,0b,none,beta,g,"['h', 'g']","['Chess', 'Go']","[-0.15, 0.5]","[0.15, 0.5]",0,1,0,6,6,6,0,0,0,1,,,,,,,,,,,,,,,,,,,,,,,,,,,,,,,,,,,,,,,,,,,,,,,,,,,,,,,,,,,,,,,385.06789783099975,None,385.06789783099975,None,385.06789783099975,None,g,1,0.9855067650005367,386.6181498549995,None,386.6181498549995,None,386.6181498549995,None,387.66912635300014,None,387.66912635300014,None,387.66912635300014,None,387.66912635300014,None,,,,,,,,,,,,,,,,,,,,,,,,,,,,,,,,,,,,,,,,,,,,001,146,2020_Feb_20_1015,spring_faces,3.1.5,60.0023169292479,
condition files/Stage0b_1.xlsx,0b,alpha,none,h,"['h', 'g']","['Chess', 'Go']","[-0.15, 0.5]","[0.15, 0.5]",1,0,0,6,6,6,0,1,1,0,,,,,,,,,,,,,,,,,,,,,,,,,,,,,,,,,,,,,,,,,,,,,,,,,,,,,,,,,,,,,,,389.6346411730001,None,389.6346411730001,None,389.6346411730001,None,g,0,2.0325562669995634,391.17109562399946,None,391.17109562399946,None,391.17109562399946,None,393.268941843,None,393.268941843,None,393.268941843,None,393.268941843,None,,,,,,,,,,,,,,,,,,,,,,,,,,,,,,,,,,,,,,,,,,,,001,146,2020_Feb_20_1015,spring_faces,3.1.5,60.0023169292479,
condition files/Stage0b_2.xlsx,0b,none,alpha,h,"['h', 'g']","['Chess', 'Go']","[-0.15, 0.5]","[0.15, 0.5]",0,1,0,7,7,7,0,0,0,0,,,,,,,,,,,,,,,,,,,,,,,,,,,,,,,,,,,,,,,,,,,,,,,,,,,,,,,,,,,,,,,395.25112063899996,None,395.25112063899996,None,395.25112063899996,None,h,1,0.7221829760001128,396.80150843699994,None,396.80150843699994,None,396.80150843699994,None,397.5870067799997,None,397.5870067799997,None,397.5870067799997,None,397.5870067799997,None,,,,,,,,,,,,,,,,,,,,,,,,,,,,,,,,,,,,,,,,,,,,001,146,2020_Feb_20_1015,spring_faces,3.1.5,60.0023169292479,
condition files/Stage0b_2.xlsx,0b,beta,none,g,"['h', 'g']","['Chess', 'Go']","[-0.15, 0.5]","[0.15, 0.5]",1,0,0,7,7,7,0,1,1,1,,,,,,,,,,,,,,,,,,,,,,,,,,,,,,,,,,,,,,,,,,,,,,,,,,,,,,,,,,,,,,,399.55096460299956,None,399.55096460299956,None,399.55096460299956,None,g,1,1.4438086430000112,401.08778319500016,None,401.08778319500016,None,401.08778319500016,None,402.5855996049995,None,402.5855996049995,None,402.5855996049995,None,402.5855996049995,None,,,,,,,,,,,,,,,,,,,,,,,,,,,,,,,,,,,,,,,,,,,,001,146,2020_Feb_20_1015,spring_faces,3.1.5,60.0023169292479,
condition files/Stage0b_1.xlsx,0b,none,beta,g,"['h', 'g']","['Chess', 'Go']","[-0.15, 0.5]","[0.15, 0.5]",0,1,0,8,8,8,0,0,0,1,,,,,,,,,,,,,,,,,,,,,,,,,,,,,,,,,,,,,,,,,,,,,,,,,,,,,,,,,,,,,,,404.56809547899957,None,404.56809547899957,None,404.56809547899957,None,g,1,0.8951066519994129,406.10053436,None,406.10053436,None,406.10053436,None,407.0518020899999,None,407.0518020899999,None,407.0518020899999,None,407.0518020899999,None,,,,,,,,,,,,,,,,,,,,,,,,,,,,,,,,,,,,,,,,,,,,001,146,2020_Feb_20_1015,spring_faces,3.1.5,60.0023169292479,
condition files/Stage0b_1.xlsx,0b,alpha,none,h,"['h', 'g']","['Chess', 'Go']","[-0.15, 0.5]","[0.15, 0.5]",1,0,0,8,8,8,0,1,1,0,,,,,,,,,,,,,,,,,,,,,,,,,,,,,,,,,,,,,,,,,,,,,,,,,,,,,,,,,,,,,,,409.01774755599945,None,409.01774755599945,None,409.01774755599945,None,h,1,0.8274071220002952,410.55220024699975,None,410.55220024699975,None,410.55220024699975,None,411.4517371009997,None,411.4517371009997,None,411.4517371009997,None,411.4517371009997,None,,,,,,,,,,,,,,,,,,,,,,,,,,,,,,,,,,,,,,,,,,,,001,146,2020_Feb_20_1015,spring_faces,3.1.5,60.0023169292479,
condition files/Stage0b_2.xlsx,0b,beta,none,g,"['h', 'g']","['Chess', 'Go']","[-0.15, 0.5]","[0.15, 0.5]",1,0,0,9,9,9,0,0,0,1,,,,,,,,,,,,,,,,,,,,,,,,,,,,,,,,,,,,,,,,,,,,,,,,,,,,,,,,,,,,,,,413.41815258800034,None,413.41815258800034,None,413.41815258800034,None,g,1,0.7163219280000703,414.9513638039998,None,414.9513638039998,None,414.9513638039998,None,415.7177649189998,None,415.7177649189998,None,415.7177649189998,None,415.7177649189998,None,,,,,,,,,,,,,,,,,,,,,,,,,,,,,,,,,,,,,,,,,,,,001,146,2020_Feb_20_1015,spring_faces,3.1.5,60.0023169292479,
condition files/Stage0b_2.xlsx,0b,none,alpha,h,"['h', 'g']","['Chess', 'Go']","[-0.15, 0.5]","[0.15, 0.5]",0,1,0,9,9,9,0,1,1,0,,,,,,,,,,,,,,,,,,,,,,,,,,,,,,,,,,,,,,,,,,,,,,,,,,,,,,,,,,,,,,,417.6837948659995,None,417.6837948659995,None,417.6837948659995,None,h,1,1.2644618109998191,419.23518065699955,None,419.23518065699955,None,419.23518065699955,None,420.55580258699956,None,420.55580258699956,None,420.55580258699956,None,420.55580258699956,None,,,,,,,,,,,,,,,,,,,,,,,,,,,,,,,,,,,,,,,,,,,,001,146,2020_Feb_20_1015,spring_faces,3.1.5,60.0023169292479,
condition files/Stage0b_1.xlsx,0b,alpha,none,h,"['h', 'g']","['Chess', 'Go']","[-0.15, 0.5]","[0.15, 0.5]",1,0,0,10,10,10,0,0,0,0,,,,,,,,,,,,,,,,,,,,,,,,,,,,,,,,,,,,,,,,,,,,,,,,,,,,,,,,,,,,,,,422.53504713799975,None,422.53504713799975,None,422.53504713799975,None,h,1,0.8792071719999512,424.06846026899984,None,424.06846026899984,None,424.06846026899984,None,425.0015025350003,None,425.0015025350003,None,425.0015025350003,None,425.0015025350003,None,,,,,,,,,,,,,,,,,,,,,,,,,,,,,,,,,,,,,,,,,,,,001,146,2020_Feb_20_1015,spring_faces,3.1.5,60.0023169292479,
condition files/Stage0b_1.xlsx,0b,none,beta,g,"['h', 'g']","['Chess', 'Go']","[-0.15, 0.5]","[0.15, 0.5]",0,1,0,10,10,10,0,1,1,1,,,,,,,,,,,,,,,,,,,,,,,,,,,,,,,,,,,,,,,,,,,,,,,,,,,,,,,,,,,,,,,426.96783011200023,None,426.96783011200023,None,426.96783011200023,None,g,1,0.813735008000549,428.5019050390001,None,428.5019050390001,None,428.5019050390001,None,429.3686161380001,None,429.3686161380001,None,429.3686161380001,None,429.3686161380001,None,,,,,,,,,,,,,,,,,,,,,,,,,,,,,,,,,,,,,,,,,,,,001,146,2020_Feb_20_1015,spring_faces,3.1.5,60.0023169292479,
condition files/Stage0b_2.xlsx,0b,none,alpha,h,"['h', 'g']","['Chess', 'Go']","[-0.15, 0.5]","[0.15, 0.5]",0,1,0,11,11,11,0,0,0,0,,,,,,,,,,,,,,,,,,,,,,,,,,,,,,,,,,,,,,,,,,,,,,,,,,,,,,,,,,,,,,,431.35159775400007,None,431.35159775400007,None,431.35159775400007,None,h,1,0.9907448610001666,432.8849580169999,None,432.8849580169999,None,432.8849580169999,None,433.936595012,None,433.936595012,None,433.936595012,None,433.936595012,None,,,,,,,,,,,,,,,,,,,,,,,,,,,,,,,,,,,,,,,,,,,,001,146,2020_Feb_20_1015,spring_faces,3.1.5,60.0023169292479,
condition files/Stage0b_2.xlsx,0b,beta,none,g,"['h', 'g']","['Chess', 'Go']","[-0.15, 0.5]","[0.15, 0.5]",1,0,0,11,11,11,0,1,1,1,,,,,,,,,,,,,,,,,,,,,,,,,,,,,,,,,,,,,,,,,,,,,,,,,,,,,,,,,,,,,,,435.90061935299946,None,435.90061935299946,None,435.90061935299946,None,g,1,1.1280703259999427,437.4515592779999,None,437.4515592779999,None,437.4515592779999,None,438.63799622700026,None,438.63799622700026,None,438.63799622700026,None,438.63799622700026,None,,,,,,,,,,,,,,,,,,,,,,,,,,,,,,,,,,,,,,,,,,,,001,146,2020_Feb_20_1015,spring_faces,3.1.5,60.0023169292479,
condition files/Stage0c_1.xlsx,0c,theta,alpha,h,"['h', 'g']","['Chess', 'Go']","[-0.15, 0.5]","[0.15, 0.5]",1,1,0,12,12,12,0,0,0,0,,,,,,,,,,,,,,,,,,,,,,,,,,,,,,,,,,,,,,,,,,,,,,,,,,,,,,,,,,,,,,,440.6180660689997,None,440.6180660689997,None,440.6180660689997,None,h,1,4.171827183999994,442.15182914199977,None,442.15182914199977,None,442.15182914199977,None,446.38429223099956,None,446.38429223099956,None,446.38429223099956,None,446.38429223099956,None,,,,,,,,,,,,,,,,,,,,,,,,,,,,,,,,,,,,,,,,,,,,001,146,2020_Feb_20_1015,spring_faces,3.1.5,60.0023169292479,
condition files/Stage0c_1.xlsx,0c,beta,theta,g,"['h', 'g']","['Chess', 'Go']","[-0.15, 0.5]","[0.15, 0.5]",1,1,0,12,12,12,0,1,1,2,,,,,,,,,,,,,,,,,,,,,,,,,,,,,,,,,,,,,,,,,,,,,,,,,,,,,,,,,,,,,,,448.35097738700006,None,448.35097738700006,None,448.35097738700006,None,g,1,1.110785703000147,449.8848424500002,None,449.8848424500002,None,449.8848424500002,None,451.05176822500016,None,451.05176822500016,None,451.05176822500016,None,451.05176822500016,None,,,,,,,,,,,,,,,,,,,,,,,,,,,,,,,,,,,,,,,,,,,,001,146,2020_Feb_20_1015,spring_faces,3.1.5,60.0023169292479,
condition files/Stage0c_1.xlsx,0c,phi,beta,g,"['h', 'g']","['Chess', 'Go']","[-0.15, 0.5]","[0.15, 0.5]",1,1,0,12,12,12,0,2,2,3,,,,,,,,,,,,,,,,,,,,,,,,,,,,,,,,,,,,,,,,,,,,,,,,,,,,,,,,,,,,,,,453.01825124900006,None,453.01825124900006,None,453.01825124900006,None,g,1,0.8602726949993666,454.5514272219998,None,454.5514272219998,None,454.5514272219998,None,455.46805698299977,None,455.46805698299977,None,455.46805698299977,None,455.46805698299977,None,,,,,,,,,,,,,,,,,,,,,,,,,,,,,,,,,,,,,,,,,,,,001,146,2020_Feb_20_1015,spring_faces,3.1.5,60.0023169292479,
condition files/Stage0c_1.xlsx,0c,alpha,phi,h,"['h', 'g']","['Chess', 'Go']","[-0.15, 0.5]","[0.15, 0.5]",1,1,0,12,12,12,0,3,3,1,,,,,,,,,,,,,,,,,,,,,,,,,,,,,,,,,,,,,,,,,,,,,,,,,,,,,,,,,,,,,,,457.43449739599964,None,457.43449739599964,None,457.43449739599964,None,h,1,0.8916271239995694,458.96806682700026,None,458.96806682700026,None,458.96806682700026,None,459.9183673560001,None,459.9183673560001,None,459.9183673560001,None,459.9183673560001,None,,,,,,,,,,,,,,,,,,,,,,,,,,,,,,,,,,,,,,,,,,,,001,146,2020_Feb_20_1015,spring_faces,3.1.5,60.0023169292479,
condition files/Stage0c_2.xlsx,0c,alpha,theta,h,"['h', 'g']","['Chess', 'Go']","[-0.15, 0.5]","[0.15, 0.5]",1,1,0,13,13,13,0,0,0,0,,,,,,,,,,,,,,,,,,,,,,,,,,,,,,,,,,,,,,,,,,,,,,,,,,,,,,,,,,,,,,,461.9013339189996,None,461.9013339189996,None,461.9013339189996,None,h,1,1.048835519000022,463.43484344599983,None,463.43484344599983,None,463.43484344599983,None,464.519933261,None,464.519933261,None,464.519933261,None,464.519933261,None,,,,,,,,,,,,,,,,,,,,,,,,,,,,,,,,,,,,,,,,,,,,001,146,2020_Feb_20_1015,spring_faces,3.1.5,60.0023169292479,
condition files/Stage0c_2.xlsx,0c,beta,phi,g,"['h', 'g']","['Chess', 'Go']","[-0.15, 0.5]","[0.15, 0.5]",1,1,0,13,13,13,0,1,1,3,,,,,,,,,,,,,,,,,,,,,,,,,,,,,,,,,,,,,,,,,,,,,,,,,,,,,,,,,,,,,,,466.5010884940002,None,466.5010884940002,None,466.5010884940002,None,g,1,0.608993329000441,468.0346984159996,None,468.0346984159996,None,468.0346984159996,None,468.7016241599995,None,468.7016241599995,None,468.7016241599995,None,468.7016241599995,None,,,,,,,,,,,,,,,,,,,,,,,,,,,,,,,,,,,,,,,,,,,,001,146,2020_Feb_20_1015,spring_faces,3.1.5,60.0023169292479,
condition files/Stage0c_2.xlsx,0c,theta,beta,g,"['h', 'g']","['Chess', 'Go']","[-0.15, 0.5]","[0.15, 0.5]",1,1,0,13,13,13,0,2,2,2,,,,,,,,,,,,,,,,,,,,,,,,,,,,,,,,,,,,,,,,,,,,,,,,,,,,,,,,,,,,,,,470.66783012199994,None,470.66783012199994,None,470.66783012199994,None,g,1,2.0263507079998817,472.2013012460002,None,472.2013012460002,None,472.2013012460002,None,474.26956798300034,None,474.26956798300034,None,474.26956798300034,None,474.26956798300034,None,,,,,,,,,,,,,,,,,,,,,,,,,,,,,,,,,,,,,,,,,,,,001,146,2020_Feb_20_1015,spring_faces,3.1.5,60.0023169292479,
condition files/Stage0c_2.xlsx,0c,phi,alpha,h,"['h', 'g']","['Chess', 'Go']","[-0.15, 0.5]","[0.15, 0.5]",1,1,0,13,13,13,0,3,3,1,,,,,,,,,,,,,,,,,,,,,,,,,,,,,,,,,,,,,,,,,,,,,,,,,,,,,,,,,,,,,,,476.25114757400024,None,476.25114757400024,None,476.25114757400024,None,h,1,0.8587009630000466,477.7849949619995,None,477.7849949619995,None,477.7849949619995,None,478.7013130710002,None,478.7013130710002,None,478.7013130710002,None,478.7013130710002,None,,,,,,,,,,,,,,,,,,,,,,,,,,,,,,,,,,,,,,,,,,,,001,146,2020_Feb_20_1015,spring_faces,3.1.5,60.0023169292479,
condition files/Stage0c_1.xlsx,0c,phi,beta,g,"['h', 'g']","['Chess', 'Go']","[-0.15, 0.5]","[0.15, 0.5]",1,1,0,14,14,14,0,0,0,3,,,,,,,,,,,,,,,,,,,,,,,,,,,,,,,,,,,,,,,,,,,,,,,,,,,,,,,,,,,,,,,480.6846732590002,None,480.6846732590002,None,480.6846732590002,None,g,1,1.1453788569997414,482.2182298689995,None,482.2182298689995,None,482.2182298689995,None,483.41763918000015,None,483.41763918000015,None,483.41763918000015,None,483.41763918000015,None,,,,,,,,,,,,,,,,,,,,,,,,,,,,,,,,,,,,,,,,,,,,001,146,2020_Feb_20_1015,spring_faces,3.1.5,60.0023169292479,
condition files/Stage0c_1.xlsx,0c,alpha,phi,h,"['h', 'g']","['Chess', 'Go']","[-0.15, 0.5]","[0.15, 0.5]",1,1,0,14,14,14,0,1,1,1,,,,,,,,,,,,,,,,,,,,,,,,,,,,,,,,,,,,,,,,,,,,,,,,,,,,,,,,,,,,,,,485.3846917339997,None,485.3846917339997,None,485.3846917339997,None,h,1,2.4613932399997793,486.91823084299995,None,486.91823084299995,None,486.91823084299995,None,489.4348729679996,None,489.4348729679996,None,489.4348729679996,None,489.4348729679996,None,,,,,,,,,,,,,,,,,,,,,,,,,,,,,,,,,,,,,,,,,,,,001,146,2020_Feb_20_1015,spring_faces,3.1.5,60.0023169292479,
condition files/Stage0c_1.xlsx,0c,theta,alpha,h,"['h', 'g']","['Chess', 'Go']","[-0.15, 0.5]","[0.15, 0.5]",1,1,0,14,14,14,0,2,2,0,,,,,,,,,,,,,,,,,,,,,,,,,,,,,,,,,,,,,,,,,,,,,,,,,,,,,,,,,,,,,,,491.40064089599946,None,491.40064089599946,None,491.40064089599946,None,h,1,2.188756604000446,492.9349030100002,None,492.9349030100002,None,492.9349030100002,None,495.1849175890002,None,495.1849175890002,None,495.1849175890002,None,495.1849175890002,None,,,,,,,,,,,,,,,,,,,,,,,,,,,,,,,,,,,,,,,,,,,,001,146,2020_Feb_20_1015,spring_faces,3.1.5,60.0023169292479,
condition files/Stage0c_1.xlsx,0c,beta,theta,g,"['h', 'g']","['Chess', 'Go']","[-0.15, 0.5]","[0.15, 0.5]",1,1,0,14,14,14,0,3,3,2,,,,,,,,,,,,,,,,,,,,,,,,,,,,,,,,,,,,,,,,,,,,,,,,,,,,,,,,,,,,,,,497.1511692570002,None,497.1511692570002,None,497.1511692570002,None,g,1,2.0548704410002756,498.68478685099944,None,498.68478685099944,None,498.68478685099944,None,500.80150471399975,None,500.80150471399975,None,500.80150471399975,None,500.80150471399975,None,,,,,,,,,,,,,,,,,,,,,,,,,,,,,,,,,,,,,,,,,,,,001,146,2020_Feb_20_1015,spring_faces,3.1.5,60.0023169292479,
condition files/Stage0c_2.xlsx,0c,alpha,theta,h,"['h', 'g']","['Chess', 'Go']","[-0.15, 0.5]","[0.15, 0.5]",1,1,0,15,15,15,0,0,0,0,,,,,,,,,,,,,,,,,,,,,,,,,,,,,,,,,,,,,,,,,,,,,,,,,,,,,,,,,,,,,,,502.78483995199986,None,502.78483995199986,None,502.78483995199986,None,h,1,1.5258177309997336,504.3178873750003,None,504.3178873750003,None,504.3178873750003,None,505.9013381249997,None,505.9013381249997,None,505.9013381249997,None,505.9013381249997,None,,,,,,,,,,,,,,,,,,,,,,,,,,,,,,,,,,,,,,,,,,,,001,146,2020_Feb_20_1015,spring_faces,3.1.5,60.0023169292479,
condition files/Stage0c_2.xlsx,0c,phi,alpha,h,"['h', 'g']","['Chess', 'Go']","[-0.15, 0.5]","[0.15, 0.5]",1,1,0,15,15,15,0,1,1,1,,,,,,,,,,,,,,,,,,,,,,,,,,,,,,,,,,,,,,,,,,,,,,,,,,,,,,,,,,,,,,,507.8678313370001,None,507.8678313370001,None,507.8678313370001,None,h,1,0.9867982140003733,509.40086170700033,None,509.40086170700033,None,509.40086170700033,None,510.43432131699956,None,510.43432131699956,None,510.43432131699956,None,510.43432131699956,None,,,,,,,,,,,,,,,,,,,,,,,,,,,,,,,,,,,,,,,,,,,,001,146,2020_Feb_20_1015,spring_faces,3.1.5,60.0023169292479,
condition files/Stage0c_2.xlsx,0c,beta,phi,g,"['h', 'g']","['Chess', 'Go']","[-0.15, 0.5]","[0.15, 0.5]",1,1,0,15,15,15,0,2,2,3,,,,,,,,,,,,,,,,,,,,,,,,,,,,,,,,,,,,,,,,,,,,,,,,,,,,,,,,,,,,,,,512.417254,None,512.417254,None,512.417254,None,g,1,1.5560828669995317,513.9515733440003,None,513.9515733440003,None,513.9515733440003,None,515.5683805660001,None,515.5683805660001,None,515.5683805660001,None,515.5683805660001,None,,,,,,,,,,,,,,,,,,,,,,,,,,,,,,,,,,,,,,,,,,,,001,146,2020_Feb_20_1015,spring_faces,3.1.5,60.0023169292479,
condition files/Stage0c_2.xlsx,0c,theta,beta,g,"['h', 'g']","['Chess', 'Go']","[-0.15, 0.5]","[0.15, 0.5]",1,1,0,15,15,15,0,3,3,2,,,,,,,,,,,,,,,,,,,,,,,,,,,,,,,,,,,,,,,,,,,,,,,,,,,,,,,,,,,,,,,517.5346836150002,None,517.5346836150002,None,517.5346836150002,None,g,1,1.0317600239995954,519.0678939480003,None,519.0678939480003,None,519.0678939480003,None,520.136176942,None,520.136176942,None,520.136176942,None,520.136176942,None,,,,,,,,,,,,,,,,,,,,,,,,,,,,,,,,,,,,,,,,,,,,001,146,2020_Feb_20_1015,spring_faces,3.1.5,60.0023169292479,
condition files/Stage0c_1.xlsx,0c,phi,beta,g,"['h', 'g']","['Chess', 'Go']","[-0.15, 0.5]","[0.15, 0.5]",1,1,0,16,16,16,0,0,0,3,,,,,,,,,,,,,,,,,,,,,,,,,,,,,,,,,,,,,,,,,,,,,,,,,,,,,,,,,,,,,,,522.1344990039997,None,522.1344990039997,None,522.1344990039997,None,g,1,1.1994662710003468,523.668212902,None,523.668212902,None,523.668212902,None,524.9036412879996,None,524.9036412879996,None,524.9036412879996,None,524.9036412879996,None,,,,,,,,,,,,,,,,,,,,,,,,,,,,,,,,,,,,,,,,,,,,001,146,2020_Feb_20_1015,spring_faces,3.1.5,60.0023169292479,
condition files/Stage0c_1.xlsx,0c,beta,theta,g,"['h', 'g']","['Chess', 'Go']","[-0.15, 0.5]","[0.15, 0.5]",1,1,0,16,16,16,0,1,1,2,,,,,,,,,,,,,,,,,,,,,,,,,,,,,,,,,,,,,,,,,,,,,,,,,,,,,,,,,,,,,,,526.8841560989995,None,526.8841560989995,None,526.8841560989995,None,g,1,0.7212493480001285,528.4184127469998,None,528.4184127469998,None,528.4184127469998,None,529.184454835,None,529.184454835,None,529.184454835,None,529.184454835,None,,,,,,,,,,,,,,,,,,,,,,,,,,,,,,,,,,,,,,,,,,,,001,146,2020_Feb_20_1015,spring_faces,3.1.5,60.0023169292479,
condition files/Stage0c_1.xlsx,0c,theta,alpha,h,"['h', 'g']","['Chess', 'Go']","[-0.15, 0.5]","[0.15, 0.5]",1,1,0,16,16,16,0,2,2,0,,,,,,,,,,,,,,,,,,,,,,,,,,,,,,,,,,,,,,,,,,,,,,,,,,,,,,,,,,,,,,,531.168039104,None,531.168039104,None,531.168039104,None,h,1,0.6139981260002969,532.7016337149998,None,532.7016337149998,None,532.7016337149998,None,533.3682784379998,None,533.3682784379998,None,533.3682784379998,None,533.3682784379998,None,,,,,,,,,,,,,,,,,,,,,,,,,,,,,,,,,,,,,,,,,,,,001,146,2020_Feb_20_1015,spring_faces,3.1.5,60.0023169292479,
condition files/Stage0c_1.xlsx,0c,alpha,phi,h,"['h', 'g']","['Chess', 'Go']","[-0.15, 0.5]","[0.15, 0.5]",1,1,0,16,16,16,0,3,3,1,,,,,,,,,,,,,,,,,,,,,,,,,,,,,,,,,,,,,,,,,,,,,,,,,,,,,,,,,,,,,,,535.3347089930003,None,535.3347089930003,None,535.3347089930003,None,h,1,0.8155316099991978,536.8681354219998,None,536.8681354219998,None,536.8681354219998,None,537.7342380479995,None,537.7342380479995,None,537.7342380479995,None,537.7342380479995,None,,,,,,,,,,,,,,,,,,,,,,,,,,,,,,,,,,,,,,,,,,,,001,146,2020_Feb_20_1015,spring_faces,3.1.5,60.0023169292479,
condition files/Stage0c_2.xlsx,0c,beta,phi,g,"['h', 'g']","['Chess', 'Go']","[-0.15, 0.5]","[0.15, 0.5]",1,1,0,17,17,17,0,0,0,3,,,,,,,,,,,,,,,,,,,,,,,,,,,,,,,,,,,,,,,,,,,,,,,,,,,,,,,,,,,,,,,539.7183142389995,None,539.7183142389995,None,539.7183142389995,None,g,1,1.1681458180000845,541.2514749869997,None,541.2514749869997,None,541.2514749869997,None,542.48465235,None,542.48465235,None,542.48465235,None,542.48465235,None,,,,,,,,,,,,,,,,,,,,,,,,,,,,,,,,,,,,,,,,,,,,001,146,2020_Feb_20_1015,spring_faces,3.1.5,60.0023169292479,
condition files/Stage0c_2.xlsx,0c,phi,alpha,h,"['h', 'g']","['Chess', 'Go']","[-0.15, 0.5]","[0.15, 0.5]",1,1,0,17,17,17,0,1,1,1,,,,,,,,,,,,,,,,,,,,,,,,,,,,,,,,,,,,,,,,,,,,,,,,,,,,,,,,,,,,,,,544.450877411,None,544.450877411,None,544.450877411,None,h,1,0.7234123540001747,545.9842391699995,None,545.9842391699995,None,545.9842391699995,None,546.7678076499997,None,546.7678076499997,None,546.7678076499997,None,546.7678076499997,None,,,,,,,,,,,,,,,,,,,,,,,,,,,,,,,,,,,,,,,,,,,,001,146,2020_Feb_20_1015,spring_faces,3.1.5,60.0023169292479,
condition files/Stage0c_2.xlsx,0c,theta,beta,g,"['h', 'g']","['Chess', 'Go']","[-0.15, 0.5]","[0.15, 0.5]",1,1,0,17,17,17,0,2,2,2,,,,,,,,,,,,,,,,,,,,,,,,,,,,,,,,,,,,,,,,,,,,,,,,,,,,,,,,,,,,,,,548.7352099600002,None,548.7352099600002,None,548.7352099600002,None,g,1,1.0795080909992976,550.2681242620001,None,550.2681242620001,None,550.2681242620001,None,551.4011833550003,None,551.4011833550003,None,551.4011833550003,None,551.4011833550003,None,,,,,,,,,,,,,,,,,,,,,,,,,,,,,,,,,,,,,,,,,,,,001,146,2020_Feb_20_1015,spring_faces,3.1.5,60.0023169292479,
condition files/Stage0c_2.xlsx,0c,alpha,theta,h,"['h', 'g']","['Chess', 'Go']","[-0.15, 0.5]","[0.15, 0.5]",1,1,0,17,17,17,0,3,3,0,,,,,,,,,,,,,,,,,,,,,,,,,,,,,,,,,,,,,,,,,,,,,,,,,,,,,,,,,,,,,,,553.3674395299995,None,553.3674395299995,None,553.3674395299995,None,h,1,1.5340734080000402,554.901537453,None,554.901537453,None,554.901537453,None,556.5011703959999,None,556.5011703959999,None,556.5011703959999,None,556.5011703959999,None,,,,,,,,,,,,,,,,,,,,,,,,,,,,,,,,,,,,,,,,,,,,001,146,2020_Feb_20_1015,spring_faces,3.1.5,60.0023169292479,
,,,,,,,,,,,,,,,,,,,,,,,,,,,,,,,,,,,,,,,,,,,,,,,,,,,,,,,,,,,,,,,,,,,,,,,,,,,,,,,,,,,,,,,,,,,,,,,,,,,,,,,,558.4849336360003,None,space,6.679078191000372,563.484584459,None,,,,,,,,,,,,,,,,,,,,,,,,,,,,,,,,,,,,,,001,146,2020_Feb_20_1015,spring_faces,3.1.5,60.0023169292479,
condition files/Stage1_1.xlsx,,B2,T1,m,"['c', 'm']","['Clue', 'Monopoly']","[-0.15, 0.5]","[0.15, 0.5]",1,1,,,,,,,,,0,0,0,0,0,0,0,2,,,,,,,,,,,,,,,,,,,,,,,,,,,,,,,,,,,,,,,,,,,,,,,,,,,,,,,570.2182257920003,None,570.2182257920003,None,570.2182257920003,None,c,0,5.128928114999326,571.786720094,None,571.786720094,None,571.786720094,None,576.9840058720001,None,576.9840058720001,None,576.9840058720001,None,576.9840058720001,None,,,,,,,563.484584459,None,,,,,,,,,,,,,,,,,,,,,,,,,,,,,,,,,,,,001,146,2020_Feb_20_1015,spring_faces,3.1.5,60.0023169292479,
condition files/Stage1_1.xlsx,,B1,T2,c,"['c', 'm']","['Clue', 'Monopoly']","[-0.15, 0.5]","[0.15, 0.5]",1,1,,,,,,,,,0,0,0,0,0,1,1,1,,,,,,,,,,,,,,,,,,,,,,,,,,,,,,,,,,,,,,,,,,,,,,,,,,,,,,,578.9339875670003,None,578.9339875670003,None,578.9339875670003,None,c,1,2.140361727999334,580.5353359270002,None,580.5353359270002,None,580.5353359270002,None,582.7363199410001,None,582.7363199410001,None,582.7363199410001,None,582.7363199410001,None,,,,,,,,,,,,,,,,,,,,,,,,,,,,,,,,,,,,,,,,,,,,001,146,2020_Feb_20_1015,spring_faces,3.1.5,60.0023169292479,
condition files/Stage1_1.xlsx,,T3,B4,c,"['c', 'm']","['Clue', 'Monopoly']","[-0.15, 0.5]","[0.15, 0.5]",1,1,,,,,,,,,0,0,0,0,0,2,2,5,,,,,,,,,,,,,,,,,,,,,,,,,,,,,,,,,,,,,,,,,,,,,,,,,,,,,,,584.7011114830002,None,584.7011114830002,None,584.7011114830002,None,m,0,2.680615786999624,586.2350314670002,None,586.2350314670002,None,586.2350314670002,None,588.9684671630002,None,588.9684671630002,None,588.9684671630002,None,588.9684671630002,None,,,,,,,,,,,,,,,,,,,,,,,,,,,,,,,,,,,,,,,,,,,,001,146,2020_Feb_20_1015,spring_faces,3.1.5,60.0023169292479,
condition files/Stage1_1.xlsx,,T2,B2,m,"['c', 'm']","['Clue', 'Monopoly']","[-0.15, 0.5]","[0.15, 0.5]",1,1,,,,,,,,,0,0,0,0,0,3,3,3,,,,,,,,,,,,,,,,,,,,,,,,,,,,,,,,,,,,,,,,,,,,,,,,,,,,,,,590.9345799299999,None,590.9345799299999,None,590.9345799299999,None,m,1,4.783021405999534,592.4846503039998,None,592.4846503039998,None,592.4846503039998,None,597.3199134449997,None,597.3199134449997,None,597.3199134449997,None,597.3199134449997,None,,,,,,,,,,,,,,,,,,,,,,,,,,,,,,,,,,,,,,,,,,,,001,146,2020_Feb_20_1015,spring_faces,3.1.5,60.0023169292479,
condition files/Stage1_1.xlsx,,B3,T3,c,"['c', 'm']","['Clue', 'Monopoly']","[-0.15, 0.5]","[0.15, 0.5]",1,1,,,,,,,,,0,0,0,0,0,4,4,4,,,,,,,,,,,,,,,,,,,,,,,,,,,,,,,,,,,,,,,,,,,,,,,,,,,,,,,599.2839100149995,None,599.2839100149995,None,599.2839100149995,None,m,0,1.7132006940000792,600.8344377610001,None,600.8344377610001,None,600.8344377610001,None,602.6182225619996,None,602.6182225619996,None,602.6182225619996,None,602.6182225619996,None,,,,,,,,,,,,,,,,,,,,,,,,,,,,,,,,,,,,,,,,,,,,001,146,2020_Feb_20_1015,spring_faces,3.1.5,60.0023169292479,
condition files/Stage1_1.xlsx,,T1,B1,c,"['c', 'm']","['Clue', 'Monopoly']","[-0.15, 0.5]","[0.15, 0.5]",1,1,,,,,,,,,0,0,0,0,0,5,5,0,,,,,,,,,,,,,,,,,,,,,,,,,,,,,,,,,,,,,,,,,,,,,,,,,,,,,,,604.5675918919997,None,604.5675918919997,None,604.5675918919997,None,c,1,1.8376636639995922,606.1020211750001,None,606.1020211750001,None,606.1020211750001,None,608.0012524479998,None,608.0012524479998,None,608.0012524479998,None,608.0012524479998,None,,,,,,,,,,,,,,,,,,,,,,,,,,,,,,,,,,,,,,,,,,,,001,146,2020_Feb_20_1015,spring_faces,3.1.5,60.0023169292479,
condition files/Stage1_1.xlsx,,T4,B3,m,"['c', 'm']","['Clue', 'Monopoly']","[-0.15, 0.5]","[0.15, 0.5]",1,1,,,,,,,,,0,0,0,0,0,6,6,6,,,,,,,,,,,,,,,,,,,,,,,,,,,,,,,,,,,,,,,,,,,,,,,,,,,,,,,609.9678422010002,None,609.9678422010002,None,609.9678422010002,None,m,1,1.9413117049998618,611.5183803749997,None,611.5183803749997,None,611.5183803749997,None,613.5202715360001,None,613.5202715360001,None,613.5202715360001,None,613.5202715360001,None,,,,,,,,,,,,,,,,,,,,,,,,,,,,,,,,,,,,,,,,,,,,001,146,2020_Feb_20_1015,spring_faces,3.1.5,60.0023169292479,
condition files/Stage1_1.xlsx,,B4,T4,m,"['c', 'm']","['Clue', 'Monopoly']","[-0.15, 0.5]","[0.15, 0.5]",1,1,,,,,,,,,0,0,0,0,0,7,7,7,,,,,,,,,,,,,,,,,,,,,,,,,,,,,,,,,,,,,,,,,,,,,,,,,,,,,,,615.4843709090001,None,615.4843709090001,None,615.4843709090001,None,c,0,1.4482774200005224,617.0194113349999,None,617.0194113349999,None,617.0194113349999,None,618.518663031,None,618.518663031,None,618.518663031,None,618.518663031,None,,,,,,,,,,,,,,,,,,,,,,,,,,,,,,,,,,,,,,,,,,,,001,146,2020_Feb_20_1015,spring_faces,3.1.5,60.0023169292479,
condition files/Stage1_2.xlsx,,T1,B2,m,"['c', 'm']","['Clue', 'Monopoly']","[-0.15, 0.5]","[0.15, 0.5]",1,1,,,,,,,,,0,1,1,1,0,0,0,2,,,,,,,,,,,,,,,,,,,,,,,,,,,,,,,,,,,,,,,,,,,,,,,,,,,,,,,620.501215798,None,620.501215798,None,620.501215798,None,c,0,1.3449385670000993,622.0346662809998,None,622.0346662809998,None,622.0346662809998,None,623.4341703919999,None,623.4341703919999,None,623.4341703919999,None,623.4341703919999,None,,,,,,,,,,,,,,,,,,,,,,,,,,,,,,,,,,,,,,,,,,,,001,146,2020_Feb_20_1015,spring_faces,3.1.5,60.0023169292479,
condition files/Stage1_2.xlsx,,B2,T2,m,"['c', 'm']","['Clue', 'Monopoly']","[-0.15, 0.5]","[0.15, 0.5]",1,1,,,,,,,,,0,1,1,1,0,1,1,3,,,,,,,,,,,,,,,,,,,,,,,,,,,,,,,,,,,,,,,,,,,,,,,,,,,,,,,625.4006916959997,None,625.4006916959997,None,625.4006916959997,None,m,1,1.116287423000358,626.951366192,None,626.951366192,None,626.951366192,None,628.1178902089996,None,628.1178902089996,None,628.1178902089996,None,628.1178902089996,None,,,,,,,,,,,,,,,,,,,,,,,,,,,,,,,,,,,,,,,,,,,,001,146,2020_Feb_20_1015,spring_faces,3.1.5,60.0023169292479,
condition files/Stage1_2.xlsx,,T4,B4,m,"['c', 'm']","['Clue', 'Monopoly']","[-0.15, 0.5]","[0.15, 0.5]",1,1,,,,,,,,,0,1,1,1,0,2,2,7,,,,,,,,,,,,,,,,,,,,,,,,,,,,,,,,,,,,,,,,,,,,,,,,,,,,,,,630.0839933970001,None,630.0839933970001,None,630.0839933970001,None,m,1,0.9446098640000855,631.618983413,None,631.618983413,None,631.618983413,None,632.6180223720003,None,632.6180223720003,None,632.6180223720003,None,632.6180223720003,None,,,,,,,,,,,,,,,,,,,,,,,,,,,,,,,,,,,,,,,,,,,,001,146,2020_Feb_20_1015,spring_faces,3.1.5,60.0023169292479,
condition files/Stage1_2.xlsx,,B3,T4,m,"['c', 'm']","['Clue', 'Monopoly']","[-0.15, 0.5]","[0.15, 0.5]",1,1,,,,,,,,,0,1,1,1,0,3,3,6,,,,,,,,,,,,,,,,,,,,,,,,,,,,,,,,,,,,,,,,,,,,,,,,,,,,,,,634.5846153169996,None,634.5846153169996,None,634.5846153169996,None,m,1,1.4539084329999241,636.1177772709998,None,636.1177772709998,None,636.1177772709998,None,637.6350082059998,None,637.6350082059998,None,637.6350082059998,None,637.6350082059998,None,,,,,,,,,,,,,,,,,,,,,,,,,,,,,,,,,,,,,,,,,,,,001,146,2020_Feb_20_1015,spring_faces,3.1.5,60.0023169292479,
condition files/Stage1_2.xlsx,,T3,B3,c,"['c', 'm']","['Clue', 'Monopoly']","[-0.15, 0.5]","[0.15, 0.5]",1,1,,,,,,,,,0,1,1,1,0,4,4,4,,,,,,,,,,,,,,,,,,,,,,,,,,,,,,,,,,,,,,,,,,,,,,,,,,,,,,,639.6010812690001,None,639.6010812690001,None,639.6010812690001,None,m,0,1.0933667979998063,641.1343331190001,None,641.1343331190001,None,641.1343331190001,None,642.2850926279998,None,642.2850926279998,None,642.2850926279998,None,642.2850926279998,None,,,,,,,,,,,,,,,,,,,,,,,,,,,,,,,,,,,,,,,,,,,,001,146,2020_Feb_20_1015,spring_faces,3.1.5,60.0023169292479,
condition files/Stage1_2.xlsx,,T2,B1,c,"['c', 'm']","['Clue', 'Monopoly']","[-0.15, 0.5]","[0.15, 0.5]",1,1,,,,,,,,,0,1,1,1,0,5,5,1,,,,,,,,,,,,,,,,,,,,,,,,,,,,,,,,,,,,,,,,,,,,,,,,,,,,,,,644.2513414240002,None,644.2513414240002,None,644.2513414240002,None,m,0,1.019758997000281,645.7838934390002,None,645.7838934390002,None,645.7838934390002,None,646.8683522330002,None,646.8683522330002,None,646.8683522330002,None,646.8683522330002,None,,,,,,,,,,,,,,,,,,,,,,,,,,,,,,,,,,,,,,,,,,,,001,146,2020_Feb_20_1015,spring_faces,3.1.5,60.0023169292479,
condition files/Stage1_2.xlsx,,B4,T3,c,"['c', 'm']","['Clue', 'Monopoly']","[-0.15, 0.5]","[0.15, 0.5]",1,1,,,,,,,,,0,1,1,1,0,6,6,5,,,,,,,,,,,,,,,,,,,,,,,,,,,,,,,,,,,,,,,,,,,,,,,,,,,,,,,648.8343239400001,None,648.8343239400001,None,648.8343239400001,None,c,1,2.0671086330003163,650.3684969409996,None,650.3684969409996,None,650.3684969409996,None,652.5010457500002,None,652.5010457500002,None,652.5010457500002,None,652.5010457500002,None,,,,,,,,,,,,,,,,,,,,,,,,,,,,,,,,,,,,,,,,,,,,001,146,2020_Feb_20_1015,spring_faces,3.1.5,60.0023169292479,
condition files/Stage1_2.xlsx,,B1,T1,c,"['c', 'm']","['Clue', 'Monopoly']","[-0.15, 0.5]","[0.15, 0.5]",1,1,,,,,,,,,0,1,1,1,0,7,7,0,,,,,,,,,,,,,,,,,,,,,,,,,,,,,,,,,,,,,,,,,,,,,,,,,,,,,,,654.4682677789997,None,654.4682677789997,None,654.4682677789997,None,c,1,1.714192546999584,656.0014438839999,None,656.0014438839999,None,656.0014438839999,None,657.7685371039997,None,657.7685371039997,None,657.7685371039997,None,657.7685371039997,None,,,,,,,,,,,,,,,,,,,,,,,,,,,,,,,,,,,,,,,,,,,,001,146,2020_Feb_20_1015,spring_faces,3.1.5,60.0023169292479,
condition files/Stage1_1.xlsx,,B4,T4,m,"['c', 'm']","['Clue', 'Monopoly']","[-0.15, 0.5]","[0.15, 0.5]",1,1,,,,,,,,,0,2,2,2,0,0,0,7,,,,,,,,,,,,,,,,,,,,,,,,,,,,,,,,,,,,,,,,,,,,,,,,,,,,,,,659.7519663889998,None,659.7519663889998,None,659.7519663889998,None,m,1,2.7667408389997945,661.2848538210001,None,661.2848538210001,None,661.2848538210001,None,664.1179366289998,None,664.1179366289998,None,664.1179366289998,None,664.1179366289998,None,,,,,,,,,,,,,,,,,,,,,,,,,,,,,,,,,,,,,,,,,,,,001,146,2020_Feb_20_1015,spring_faces,3.1.5,60.0023169292479,
condition files/Stage1_1.xlsx,,B1,T2,c,"['c', 'm']","['Clue', 'Monopoly']","[-0.15, 0.5]","[0.15, 0.5]",1,1,,,,,,,,,0,2,2,2,0,1,1,1,,,,,,,,,,,,,,,,,,,,,,,,,,,,,,,,,,,,,,,,,,,,,,,,,,,,,,,666.0844180189997,None,666.0844180189997,None,666.0844180189997,None,c,1,1.1862217279995093,667.6174100199996,None,667.6174100199996,None,667.6174100199996,None,668.8676631039998,None,668.8676631039998,None,668.8676631039998,None,668.8676631039998,None,,,,,,,,,,,,,,,,,,,,,,,,,,,,,,,,,,,,,,,,,,,,001,146,2020_Feb_20_1015,spring_faces,3.1.5,60.0023169292479,
condition files/Stage1_1.xlsx,,T2,B2,m,"['c', 'm']","['Clue', 'Monopoly']","[-0.15, 0.5]","[0.15, 0.5]",1,1,,,,,,,,,0,2,2,2,0,2,2,3,,,,,,,,,,,,,,,,,,,,,,,,,,,,,,,,,,,,,,,,,,,,,,,,,,,,,,,670.8344905889999,None,670.8344905889999,None,670.8344905889999,None,m,1,0.9469621400003234,672.3686903400003,None,672.3686903400003,None,672.3686903400003,None,673.3846492450002,None,673.3846492450002,None,673.3846492450002,None,673.3846492450002,None,,,,,,,,,,,,,,,,,,,,,,,,,,,,,,,,,,,,,,,,,,,,001,146,2020_Feb_20_1015,spring_faces,3.1.5,60.0023169292479,
condition files/Stage1_1.xlsx,,B2,T1,m,"['c', 'm']","['Clue', 'Monopoly']","[-0.15, 0.5]","[0.15, 0.5]",1,1,,,,,,,,,0,2,2,2,0,3,3,2,,,,,,,,,,,,,,,,,,,,,,,,,,,,,,,,,,,,,,,,,,,,,,,,,,,,,,,675.3347697729996,None,675.3347697729996,None,675.3347697729996,None,c,0,3.006706877000397,676.869033639,None,676.869033639,None,676.869033639,None,679.934680843,None,679.934680843,None,679.934680843,None,679.934680843,None,,,,,,,,,,,,,,,,,,,,,,,,,,,,,,,,,,,,,,,,,,,,001,146,2020_Feb_20_1015,spring_faces,3.1.5,60.0023169292479,
condition files/Stage1_1.xlsx,,T1,B1,c,"['c', 'm']","['Clue', 'Monopoly']","[-0.15, 0.5]","[0.15, 0.5]",1,1,,,,,,,,,0,2,2,2,0,4,4,0,,,,,,,,,,,,,,,,,,,,,,,,,,,,,,,,,,,,,,,,,,,,,,,,,,,,,,,681.9012944609995,None,681.9012944609995,None,681.9012944609995,None,m,0,1.1923167360000662,683.451379778,None,683.451379778,None,683.451379778,None,684.703246819,None,684.703246819,None,684.703246819,None,684.703246819,None,,,,,,,,,,,,,,,,,,,,,,,,,,,,,,,,,,,,,,,,,,,,001,146,2020_Feb_20_1015,spring_faces,3.1.5,60.0023169292479,
condition files/Stage1_1.xlsx,,T4,B3,m,"['c', 'm']","['Clue', 'Monopoly']","[-0.15, 0.5]","[0.15, 0.5]",1,1,,,,,,,,,0,2,2,2,0,5,5,6,,,,,,,,,,,,,,,,,,,,,,,,,,,,,,,,,,,,,,,,,,,,,,,,,,,,,,,686.6675761619999,None,686.6675761619999,None,686.6675761619999,None,m,1,1.7542640049996407,688.2014204090001,None,688.2014204090001,None,688.2014204090001,None,690.0177819419996,None,690.0177819419996,None,690.0177819419996,None,690.0177819419996,None,,,,,,,,,,,,,,,,,,,,,,,,,,,,,,,,,,,,,,,,,,,,001,146,2020_Feb_20_1015,spring_faces,3.1.5,60.0023169292479,
condition files/Stage1_1.xlsx,,T3,B4,c,"['c', 'm']","['Clue', 'Monopoly']","[-0.15, 0.5]","[0.15, 0.5]",1,1,,,,,,,,,0,2,2,2,0,6,6,5,,,,,,,,,,,,,,,,,,,,,,,,,,,,,,,,,,,,,,,,,,,,,,,,,,,,,,,691.9845428469998,None,691.9845428469998,None,691.9845428469998,None,c,1,2.6933642630001486,693.5183729589999,None,693.5183729589999,None,693.5183729589999,None,696.2700691909995,None,696.2700691909995,None,696.2700691909995,None,696.2700691909995,None,,,,,,,,,,,,,,,,,,,,,,,,,,,,,,,,,,,,,,,,,,,,001,146,2020_Feb_20_1015,spring_faces,3.1.5,60.0023169292479,
condition files/Stage1_1.xlsx,,B3,T3,c,"['c', 'm']","['Clue', 'Monopoly']","[-0.15, 0.5]","[0.15, 0.5]",1,1,,,,,,,,,0,2,2,2,0,7,7,4,,,,,,,,,,,,,,,,,,,,,,,,,,,,,,,,,,,,,,,,,,,,,,,,,,,,,,,698.2344508650003,None,698.2344508650003,None,698.2344508650003,None,c,1,0.8918349300001864,699.767863434,None,699.767863434,None,699.767863434,None,700.7179297069997,None,700.7179297069997,None,700.7179297069997,None,700.7179297069997,None,,,,,,,,,,,,,,,,,,,,,,,,,,,,,,,,,,,,,,,,,,,,001,146,2020_Feb_20_1015,spring_faces,3.1.5,60.0023169292479,
condition files/Stage1_2.xlsx,,B3,T4,m,"['c', 'm']","['Clue', 'Monopoly']","[-0.15, 0.5]","[0.15, 0.5]",1,1,,,,,,,,,0,3,3,3,0,0,0,6,,,,,,,,,,,,,,,,,,,,,,,,,,,,,,,,,,,,,,,,,,,,,,,,,,,,,,,702.7013082779995,None,702.7013082779995,None,702.7013082779995,None,c,0,1.320654289000231,704.2350104839998,None,704.2350104839998,None,704.2350104839998,None,705.6205145100002,None,705.6205145100002,None,705.6205145100002,None,705.6205145100002,None,,,,,,,,,,,,,,,,,,,,,,,,,,,,,,,,,,,,,,,,,,,,001,146,2020_Feb_20_1015,spring_faces,3.1.5,60.0023169292479,
condition files/Stage1_2.xlsx,,T4,B4,m,"['c', 'm']","['Clue', 'Monopoly']","[-0.15, 0.5]","[0.15, 0.5]",1,1,,,,,,,,,0,3,3,3,0,1,1,7,,,,,,,,,,,,,,,,,,,,,,,,,,,,,,,,,,,,,,,,,,,,,,,,,,,,,,,707.5842340059999,None,707.5842340059999,None,707.5842340059999,None,m,1,1.445921683999586,709.1176979519996,None,709.1176979519996,None,709.1176979519996,None,710.6182087560001,None,710.6182087560001,None,710.6182087560001,None,710.6182087560001,None,,,,,,,,,,,,,,,,,,,,,,,,,,,,,,,,,,,,,,,,,,,,001,146,2020_Feb_20_1015,spring_faces,3.1.5,60.0023169292479,
condition files/Stage1_2.xlsx,,B2,T2,m,"['c', 'm']","['Clue', 'Monopoly']","[-0.15, 0.5]","[0.15, 0.5]",1,1,,,,,,,,,0,3,3,3,0,2,2,3,,,,,,,,,,,,,,,,,,,,,,,,,,,,,,,,,,,,,,,,,,,,,,,,,,,,,,,712.584663009,None,712.584663009,None,712.584663009,None,c,0,1.1338473229998272,714.1178479660002,None,714.1178479660002,None,714.1178479660002,None,715.3015023560001,None,715.3015023560001,None,715.3015023560001,None,715.3015023560001,None,,,,,,,,,,,,,,,,,,,,,,,,,,,,,,,,,,,,,,,,,,,,001,146,2020_Feb_20_1015,spring_faces,3.1.5,60.0023169292479,
condition files/Stage1_2.xlsx,,T3,B3,c,"['c', 'm']","['Clue', 'Monopoly']","[-0.15, 0.5]","[0.15, 0.5]",1,1,,,,,,,,,0,3,3,3,0,3,3,4,,,,,,,,,,,,,,,,,,,,,,,,,,,,,,,,,,,,,,,,,,,,,,,,,,,,,,,717.2676297500002,None,717.2676297500002,None,717.2676297500002,None,c,1,1.0267089560002205,718.8009851589995,None,718.8009851589995,None,718.8009851589995,None,719.8859969120003,None,719.8859969120003,None,719.8859969120003,None,719.8859969120003,None,,,,,,,,,,,,,,,,,,,,,,,,,,,,,,,,,,,,,,,,,,,,001,146,2020_Feb_20_1015,spring_faces,3.1.5,60.0023169292479,
condition files/Stage1_2.xlsx,,T1,B2,m,"['c', 'm']","['Clue', 'Monopoly']","[-0.15, 0.5]","[0.15, 0.5]",1,1,,,,,,,,,0,3,3,3,0,4,4,2,,,,,,,,,,,,,,,,,,,,,,,,,,,,,,,,,,,,,,,,,,,,,,,,,,,,,,,721.8506304430002,None,721.8506304430002,None,721.8506304430002,None,m,1,1.9151310870001907,723.3845421189999,None,723.3845421189999,None,723.3845421189999,None,725.3674442219999,None,725.3674442219999,None,725.3674442219999,None,725.3674442219999,None,,,,,,,,,,,,,,,,,,,,,,,,,,,,,,,,,,,,,,,,,,,,001,146,2020_Feb_20_1015,spring_faces,3.1.5,60.0023169292479,
condition files/Stage1_2.xlsx,,T2,B1,c,"['c', 'm']","['Clue', 'Monopoly']","[-0.15, 0.5]","[0.15, 0.5]",1,1,,,,,,,,,0,3,3,3,0,5,5,1,,,,,,,,,,,,,,,,,,,,,,,,,,,,,,,,,,,,,,,,,,,,,,,,,,,,,,,727.3178614830003,None,727.3178614830003,None,727.3178614830003,None,m,0,0.9276598270007526,728.8679682450002,None,728.8679682450002,None,728.8679682450002,None,729.8677637250003,None,729.8677637250003,None,729.8677637250003,None,729.8677637250003,None,,,,,,,,,,,,,,,,,,,,,,,,,,,,,,,,,,,,,,,,,,,,001,146,2020_Feb_20_1015,spring_faces,3.1.5,60.0023169292479,
condition files/Stage1_2.xlsx,,B4,T3,c,"['c', 'm']","['Clue', 'Monopoly']","[-0.15, 0.5]","[0.15, 0.5]",1,1,,,,,,,,,0,3,3,3,0,6,6,5,,,,,,,,,,,,,,,,,,,,,,,,,,,,,,,,,,,,,,,,,,,,,,,,,,,,,,,731.8172858190001,None,731.8172858190001,None,731.8172858190001,None,c,1,1.0676019540005655,733.367992292,None,733.367992292,None,733.367992292,None,734.5011009350001,None,734.5011009350001,None,734.5011009350001,None,734.5011009350001,None,,,,,,,,,,,,,,,,,,,,,,,,,,,,,,,,,,,,,,,,,,,,001,146,2020_Feb_20_1015,spring_faces,3.1.5,60.0023169292479,
condition files/Stage1_2.xlsx,,B1,T1,c,"['c', 'm']","['Clue', 'Monopoly']","[-0.15, 0.5]","[0.15, 0.5]",1,1,,,,,,,,,0,3,3,3,0,7,7,0,,,,,,,,,,,,,,,,,,,,,,,,,,,,,,,,,,,,,,,,,,,,,,,,,,,,,,,736.4676998269997,None,736.4676998269997,None,736.4676998269997,None,c,1,2.5301317180001206,738.0015393610001,None,738.0015393610001,None,738.0015393610001,None,740.5849877840001,None,740.5849877840001,None,740.5849877840001,None,740.5849877840001,None,,,,,,,,,,,,,,,,,,,,,,,,,,,,,,,,,,,,,,,,,,,,001,146,2020_Feb_20_1015,spring_faces,3.1.5,60.0023169292479,
condition files/Stage1_1.xlsx,,T3,B4,c,"['c', 'm']","['Clue', 'Monopoly']","[-0.15, 0.5]","[0.15, 0.5]",1,1,,,,,,,,,0,4,4,4,0,0,0,5,,,,,,,,,,,,,,,,,,,,,,,,,,,,,,,,,,,,,,,,,,,,,,,,,,,,,,,742.5678709329995,None,742.5678709329995,None,742.5678709329995,None,c,1,1.3094005309994827,744.1182020879996,None,744.1182020879996,None,744.1182020879996,None,745.4845415700001,None,745.4845415700001,None,745.4845415700001,None,745.4845415700001,None,,,,,,,,,,,,,,,,,,,,,,,,,,,,,,,,,,,,,,,,,,,,001,146,2020_Feb_20_1015,spring_faces,3.1.5,60.0023169292479,
condition files/Stage1_1.xlsx,,T2,B2,m,"['c', 'm']","['Clue', 'Monopoly']","[-0.15, 0.5]","[0.15, 0.5]",1,1,,,,,,,,,0,4,4,4,0,1,1,3,,,,,,,,,,,,,,,,,,,,,,,,,,,,,,,,,,,,,,,,,,,,,,,,,,,,,,,747.4513584260003,None,747.4513584260003,None,747.4513584260003,None,m,1,1.4669000140002026,749.0007687079997,None,749.0007687079997,None,749.0007687079997,None,750.5198608969995,None,750.5198608969995,None,750.5198608969995,None,750.5198608969995,None,,,,,,,,,,,,,,,,,,,,,,,,,,,,,,,,,,,,,,,,,,,,001,146,2020_Feb_20_1015,spring_faces,3.1.5,60.0023169292479,
condition files/Stage1_1.xlsx,,T4,B3,m,"['c', 'm']","['Clue', 'Monopoly']","[-0.15, 0.5]","[0.15, 0.5]",1,1,,,,,,,,,0,4,4,4,0,2,2,6,,,,,,,,,,,,,,,,,,,,,,,,,,,,,,,,,,,,,,,,,,,,,,,,,,,,,,,752.4845203519999,None,752.4845203519999,None,752.4845203519999,None,c,0,2.033564671000022,754.0180532220002,None,754.0180532220002,None,754.0180532220002,None,756.1179388330002,None,756.1179388330002,None,756.1179388330002,None,756.1179388330002,None,,,,,,,,,,,,,,,,,,,,,,,,,,,,,,,,,,,,,,,,,,,,001,146,2020_Feb_20_1015,spring_faces,3.1.5,60.0023169292479,
condition files/Stage1_1.xlsx,,B1,T2,c,"['c', 'm']","['Clue', 'Monopoly']","[-0.15, 0.5]","[0.15, 0.5]",1,1,,,,,,,,,0,4,4,4,0,3,3,1,,,,,,,,,,,,,,,,,,,,,,,,,,,,,,,,,,,,,,,,,,,,,,,,,,,,,,,758.0842909490002,None,758.0842909490002,None,758.0842909490002,None,c,1,1.521657215000232,759.6180118900002,None,759.6180118900002,None,759.6180118900002,None,761.2034693579999,None,761.2034693579999,None,761.2034693579999,None,761.2034693579999,None,,,,,,,,,,,,,,,,,,,,,,,,,,,,,,,,,,,,,,,,,,,,001,146,2020_Feb_20_1015,spring_faces,3.1.5,60.0023169292479,
condition files/Stage1_1.xlsx,,T1,B1,c,"['c', 'm']","['Clue', 'Monopoly']","[-0.15, 0.5]","[0.15, 0.5]",1,1,,,,,,,,,0,4,4,4,0,4,4,0,,,,,,,,,,,,,,,,,,,,,,,,,,,,,,,,,,,,,,,,,,,,,,,,,,,,,,,763.1678948749995,None,763.1678948749995,None,763.1678948749995,None,c,1,1.2852312750001147,764.7024555259995,None,764.7024555259995,None,764.7024555259995,None,766.0514227249996,None,766.0514227249996,None,766.0514227249996,None,766.0514227249996,None,,,,,,,,,,,,,,,,,,,,,,,,,,,,,,,,,,,,,,,,,,,,001,146,2020_Feb_20_1015,spring_faces,3.1.5,60.0023169292479,
condition files/Stage1_1.xlsx,,B2,T1,m,"['c', 'm']","['Clue', 'Monopoly']","[-0.15, 0.5]","[0.15, 0.5]",1,1,,,,,,,,,0,4,4,4,0,5,5,2,,,,,,,,,,,,,,,,,,,,,,,,,,,,,,,,,,,,,,,,,,,,,,,,,,,,,,,768.0178455759997,None,768.0178455759997,None,768.0178455759997,None,m,1,0.9962528149999343,769.5513877169997,None,769.5513877169997,None,769.5513877169997,None,770.6024424309999,None,770.6024424309999,None,770.6024424309999,None,770.6024424309999,None,,,,,,,,,,,,,,,,,,,,,,,,,,,,,,,,,,,,,,,,,,,,001,146,2020_Feb_20_1015,spring_faces,3.1.5,60.0023169292479,
condition files/Stage1_1.xlsx,,B3,T3,c,"['c', 'm']","['Clue', 'Monopoly']","[-0.15, 0.5]","[0.15, 0.5]",1,1,,,,,,,,,0,4,4,4,0,6,6,4,,,,,,,,,,,,,,,,,,,,,,,,,,,,,,,,,,,,,,,,,,,,,,,,,,,,,,,772.5676860889998,None,772.5676860889998,None,772.5676860889998,None,c,1,0.9586811429999216,774.101042241,None,774.101042241,None,774.101042241,None,775.1203425779995,None,775.1203425779995,None,775.1203425779995,None,775.1203425779995,None,,,,,,,,,,,,,,,,,,,,,,,,,,,,,,,,,,,,,,,,,,,,001,146,2020_Feb_20_1015,spring_faces,3.1.5,60.0023169292479,
condition files/Stage1_1.xlsx,,B4,T4,m,"['c', 'm']","['Clue', 'Monopoly']","[-0.15, 0.5]","[0.15, 0.5]",1,1,,,,,,,,,0,4,4,4,0,7,7,7,,,,,,,,,,,,,,,,,,,,,,,,,,,,,,,,,,,,,,,,,,,,,,,,,,,,,,,777.0845482479999,None,777.0845482479999,None,777.0845482479999,None,m,1,1.353674131999469,778.618005804,None,778.618005804,None,778.618005804,None,780.0510490979996,None,780.0510490979996,None,780.0510490979996,None,780.0510490979996,None,,,,,,,,,,,,,,,,,,,,,,,,,,,,,,,,,,,,,,,,,,,,001,146,2020_Feb_20_1015,spring_faces,3.1.5,60.0023169292479,
condition files/Stage1_2.xlsx,,T2,B1,c,"['c', 'm']","['Clue', 'Monopoly']","[-0.15, 0.5]","[0.15, 0.5]",1,1,,,,,,,,,0,5,5,5,0,0,0,1,,,,,,,,,,,,,,,,,,,,,,,,,,,,,,,,,,,,,,,,,,,,,,,,,,,,,,,782.0182901620001,None,782.0182901620001,None,782.0182901620001,None,m,0,2.084067769000285,783.5675840309996,None,783.5675840309996,None,783.5675840309996,None,785.7181368359998,None,785.7181368359998,None,785.7181368359998,None,785.7181368359998,None,,,,,,,,,,,,,,,,,,,,,,,,,,,,,,,,,,,,,,,,,,,,001,146,2020_Feb_20_1015,spring_faces,3.1.5,60.0023169292479,
condition files/Stage1_2.xlsx,,T1,B2,m,"['c', 'm']","['Clue', 'Monopoly']","[-0.15, 0.5]","[0.15, 0.5]",1,1,,,,,,,,,0,5,5,5,0,1,1,2,,,,,,,,,,,,,,,,,,,,,,,,,,,,,,,,,,,,,,,,,,,,,,,,,,,,,,,787.6675320289996,None,787.6675320289996,None,787.6675320289996,None,m,1,1.7146165260000998,789.2010384639998,None,789.2010384639998,None,789.2010384639998,None,790.9847608979999,None,790.9847608979999,None,790.9847608979999,None,790.9847608979999,None,,,,,,,,,,,,,,,,,,,,,,,,,,,,,,,,,,,,,,,,,,,,001,146,2020_Feb_20_1015,spring_faces,3.1.5,60.0023169292479,
condition files/Stage1_2.xlsx,,T3,B3,c,"['c', 'm']","['Clue', 'Monopoly']","[-0.15, 0.5]","[0.15, 0.5]",1,1,,,,,,,,,0,5,5,5,0,2,2,4,,,,,,,,,,,,,,,,,,,,,,,,,,,,,,,,,,,,,,,,,,,,,,,,,,,,,,,792.9347163530001,None,792.9347163530001,None,792.9347163530001,None,c,1,1.0553175989998635,794.484344558,None,794.484344558,None,794.484344558,None,795.6177962880001,None,795.6177962880001,None,795.6177962880001,None,795.6177962880001,None,,,,,,,,,,,,,,,,,,,,,,,,,,,,,,,,,,,,,,,,,,,,001,146,2020_Feb_20_1015,spring_faces,3.1.5,60.0023169292479,
condition files/Stage1_2.xlsx,,T4,B4,m,"['c', 'm']","['Clue', 'Monopoly']","[-0.15, 0.5]","[0.15, 0.5]",1,1,,,,,,,,,0,5,5,5,0,3,3,7,,,,,,,,,,,,,,,,,,,,,,,,,,,,,,,,,,,,,,,,,,,,,,,,,,,,,,,797.567805832,None,797.567805832,None,797.567805832,None,m,1,0.9494024310006353,799.1022096670004,None,799.1022096670004,None,799.1022096670004,None,800.1186532430002,None,800.1186532430002,None,800.1186532430002,None,800.1186532430002,None,,,,,,,,,,,,,,,,,,,,,,,,,,,,,,,,,,,,,,,,,,,,001,146,2020_Feb_20_1015,spring_faces,3.1.5,60.0023169292479,
condition files/Stage1_2.xlsx,,B1,T1,c,"['c', 'm']","['Clue', 'Monopoly']","[-0.15, 0.5]","[0.15, 0.5]",1,1,,,,,,,,,0,5,5,5,0,4,4,0,,,,,,,,,,,,,,,,,,,,,,,,,,,,,,,,,,,,,,,,,,,,,,,,,,,,,,,802.0678386869995,None,802.0678386869995,None,802.0678386869995,None,c,1,0.8185307409994493,803.6011037369999,None,803.6011037369999,None,803.6011037369999,None,804.4866718479998,None,804.4866718479998,None,804.4866718479998,None,804.4866718479998,None,,,,,,,,,,,,,,,,,,,,,,,,,,,,,,,,,,,,,,,,,,,,001,146,2020_Feb_20_1015,spring_faces,3.1.5,60.0023169292479,
condition files/Stage1_2.xlsx,,B4,T3,c,"['c', 'm']","['Clue', 'Monopoly']","[-0.15, 0.5]","[0.15, 0.5]",1,1,,,,,,,,,0,5,5,5,0,5,5,5,,,,,,,,,,,,,,,,,,,,,,,,,,,,,,,,,,,,,,,,,,,,,,,,,,,,,,,806.4506687430003,None,806.4506687430003,None,806.4506687430003,None,c,1,2.9783283759998085,808.001301192,None,808.001301192,None,808.001301192,None,811.0348600480002,None,811.0348600480002,None,811.0348600480002,None,811.0348600480002,None,,,,,,,,,,,,,,,,,,,,,,,,,,,,,,,,,,,,,,,,,,,,001,146,2020_Feb_20_1015,spring_faces,3.1.5,60.0023169292479,
condition files/Stage1_2.xlsx,,B2,T2,m,"['c', 'm']","['Clue', 'Monopoly']","[-0.15, 0.5]","[0.15, 0.5]",1,1,,,,,,,,,0,5,5,5,0,6,6,3,,,,,,,,,,,,,,,,,,,,,,,,,,,,,,,,,,,,,,,,,,,,,,,,,,,,,,,813.0012177970002,None,813.0012177970002,None,813.0012177970002,None,m,1,6.588854171999628,814.5348269939996,None,814.5348269939996,None,814.5348269939996,None,821.1866602110003,None,821.1866602110003,None,821.1866602110003,None,821.1866602110003,None,,,,,,,,,,,,,,,,,,,,,,,,,,,,,,,,,,,,,,,,,,,,001,146,2020_Feb_20_1015,spring_faces,3.1.5,60.0023169292479,
condition files/Stage1_2.xlsx,,B3,T4,m,"['c', 'm']","['Clue', 'Monopoly']","[-0.15, 0.5]","[0.15, 0.5]",1,1,,,,,,,,,0,5,5,5,0,7,7,6,,,,,,,,,,,,,,,,,,,,,,,,,,,,,,,,,,,,,,,,,,,,,,,,,,,,,,,823.150988716,None,823.150988716,None,823.150988716,None,m,1,1.462059634999605,824.7015532710002,None,824.7015532710002,None,824.7015532710002,None,826.2178895739999,None,826.2178895739999,None,826.2178895739999,None,826.2178895739999,None,,,,,,,,,,,,,,,,,,,,,,,,,,,,,,,,,,,,,,,,,,,,001,146,2020_Feb_20_1015,spring_faces,3.1.5,60.0023169292479,
condition files/Stage1_1.xlsx,,T4,B3,m,"['c', 'm']","['Clue', 'Monopoly']","[-0.15, 0.5]","[0.15, 0.5]",1,1,,,,,,,,,0,6,6,6,0,0,0,6,,,,,,,,,,,,,,,,,,,,,,,,,,,,,,,,,,,,,,,,,,,,,,,,,,,,,,,828.201261407,None,828.201261407,None,828.201261407,None,m,1,1.4048929939999653,829.7507832370002,None,829.7507832370002,None,829.7507832370002,None,831.2177668570002,None,831.2177668570002,None,831.2177668570002,None,831.2177668570002,None,,,,,,,,,,,,,,,,,,,,,,,,,,,,,,,,,,,,,,,,,,,,001,146,2020_Feb_20_1015,spring_faces,3.1.5,60.0023169292479,
condition files/Stage1_1.xlsx,,B2,T1,m,"['c', 'm']","['Clue', 'Monopoly']","[-0.15, 0.5]","[0.15, 0.5]",1,1,,,,,,,,,0,6,6,6,0,1,1,2,,,,,,,,,,,,,,,,,,,,,,,,,,,,,,,,,,,,,,,,,,,,,,,,,,,,,,,833.1844823700003,None,833.1844823700003,None,833.1844823700003,None,m,1,1.7325285619999704,834.7351486790003,None,834.7351486790003,None,834.7351486790003,None,836.5178156860002,None,836.5178156860002,None,836.5178156860002,None,836.5178156860002,None,,,,,,,,,,,,,,,,,,,,,,,,,,,,,,,,,,,,,,,,,,,,001,146,2020_Feb_20_1015,spring_faces,3.1.5,60.0023169292479,
condition files/Stage1_1.xlsx,,B1,T2,c,"['c', 'm']","['Clue', 'Monopoly']","[-0.15, 0.5]","[0.15, 0.5]",1,1,,,,,,,,,0,6,6,6,0,2,2,1,,,,,,,,,,,,,,,,,,,,,,,,,,,,,,,,,,,,,,,,,,,,,,,,,,,,,,,838.4845123779996,None,838.4845123779996,None,838.4845123779996,None,m,0,0.8171399699995163,840.0184916609996,None,840.0184916609996,None,840.0184916609996,None,840.901944874,None,840.901944874,None,840.901944874,None,840.901944874,None,,,,,,,,,,,,,,,,,,,,,,,,,,,,,,,,,,,,,,,,,,,,001,146,2020_Feb_20_1015,spring_faces,3.1.5,60.0023169292479,
condition files/Stage1_1.xlsx,,T2,B2,m,"['c', 'm']","['Clue', 'Monopoly']","[-0.15, 0.5]","[0.15, 0.5]",1,1,,,,,,,,,0,6,6,6,0,3,3,3,,,,,,,,,,,,,,,,,,,,,,,,,,,,,,,,,,,,,,,,,,,,,,,,,,,,,,,842.867801204,None,842.867801204,None,842.867801204,None,m,1,0.8024081029998342,844.4011919409995,None,844.4011919409995,None,844.4011919409995,None,845.2843551289998,None,845.2843551289998,None,845.2843551289998,None,845.2843551289998,None,,,,,,,,,,,,,,,,,,,,,,,,,,,,,,,,,,,,,,,,,,,,001,146,2020_Feb_20_1015,spring_faces,3.1.5,60.0023169292479,
condition files/Stage1_1.xlsx,,B4,T4,m,"['c', 'm']","['Clue', 'Monopoly']","[-0.15, 0.5]","[0.15, 0.5]",1,1,,,,,,,,,0,6,6,6,0,4,4,7,,,,,,,,,,,,,,,,,,,,,,,,,,,,,,,,,,,,,,,,,,,,,,,,,,,,,,,847.2340211430001,None,847.2340211430001,None,847.2340211430001,None,m,1,0.7718339330003801,848.7678523899995,None,848.7678523899995,None,848.7678523899995,None,849.6011894049998,None,849.6011894049998,None,849.6011894049998,None,849.6011894049998,None,,,,,,,,,,,,,,,,,,,,,,,,,,,,,,,,,,,,,,,,,,,,001,146,2020_Feb_20_1015,spring_faces,3.1.5,60.0023169292479,
condition files/Stage1_1.xlsx,,T3,B4,c,"['c', 'm']","['Clue', 'Monopoly']","[-0.15, 0.5]","[0.15, 0.5]",1,1,,,,,,,,,0,6,6,6,0,5,5,5,,,,,,,,,,,,,,,,,,,,,,,,,,,,,,,,,,,,,,,,,,,,,,,,,,,,,,,851.5679058149999,None,851.5679058149999,None,851.5679058149999,None,m,0,0.7098618059999353,853.1178299419998,None,853.1178299419998,None,853.1178299419998,None,853.8854321540002,None,853.8854321540002,None,853.8854321540002,None,853.8854321540002,None,,,,,,,,,,,,,,,,,,,,,,,,,,,,,,,,,,,,,,,,,,,,001,146,2020_Feb_20_1015,spring_faces,3.1.5,60.0023169292479,
condition files/Stage1_1.xlsx,,B3,T3,c,"['c', 'm']","['Clue', 'Monopoly']","[-0.15, 0.5]","[0.15, 0.5]",1,1,,,,,,,,,0,6,6,6,0,6,6,4,,,,,,,,,,,,,,,,,,,,,,,,,,,,,,,,,,,,,,,,,,,,,,,,,,,,,,,855.8512046630003,None,855.8512046630003,None,855.8512046630003,None,c,1,1.1460125690000496,857.3856400300001,None,857.3856400300001,None,857.3856400300001,None,858.5849018130002,None,858.5849018130002,None,858.5849018130002,None,858.5849018130002,None,,,,,,,,,,,,,,,,,,,,,,,,,,,,,,,,,,,,,,,,,,,,001,146,2020_Feb_20_1015,spring_faces,3.1.5,60.0023169292479,
condition files/Stage1_1.xlsx,,T1,B1,c,"['c', 'm']","['Clue', 'Monopoly']","[-0.15, 0.5]","[0.15, 0.5]",1,1,,,,,,,,,0,6,6,6,0,7,7,0,,,,,,,,,,,,,,,,,,,,,,,,,,,,,,,,,,,,,,,,,,,,,,,,,,,,,,,860.5512797559995,None,860.5512797559995,None,860.5512797559995,None,c,1,1.0220780179997746,862.1015624239999,None,862.1015624239999,None,862.1015624239999,None,863.1848299000003,None,863.1848299000003,None,863.1848299000003,None,863.1848299000003,None,,,,,,,,,,,,,,,,,,,,,,,,,,,,,,,,,,,,,,,,,,,,001,146,2020_Feb_20_1015,spring_faces,3.1.5,60.0023169292479,
condition files/Stage1_2.xlsx,,B4,T3,c,"['c', 'm']","['Clue', 'Monopoly']","[-0.15, 0.5]","[0.15, 0.5]",1,1,,,,,,,,,0,7,7,7,0,0,0,5,,,,,,,,,,,,,,,,,,,,,,,,,,,,,,,,,,,,,,,,,,,,,,,,,,,,,,,865.1678736659997,None,865.1678736659997,None,865.1678736659997,None,c,1,0.9027672020001773,866.7009009789999,None,866.7009009789999,None,866.7009009789999,None,867.6690547159997,None,867.6690547159997,None,867.6690547159997,None,867.6690547159997,None,,,,,,,,,,,,,,,,,,,,,,,,,,,,,,,,,,,,,,,,,,,,001,146,2020_Feb_20_1015,spring_faces,3.1.5,60.0023169292479,
condition files/Stage1_2.xlsx,,T2,B1,c,"['c', 'm']","['Clue', 'Monopoly']","[-0.15, 0.5]","[0.15, 0.5]",1,1,,,,,,,,,0,7,7,7,0,1,1,1,,,,,,,,,,,,,,,,,,,,,,,,,,,,,,,,,,,,,,,,,,,,,,,,,,,,,,,869.634410572,None,869.634410572,None,869.634410572,None,c,1,1.0432732890003535,871.1684314779995,None,871.1684314779995,None,871.1684314779995,None,872.2682003640002,None,872.2682003640002,None,872.2682003640002,None,872.2682003640002,None,,,,,,,,,,,,,,,,,,,,,,,,,,,,,,,,,,,,,,,,,,,,001,146,2020_Feb_20_1015,spring_faces,3.1.5,60.0023169292479,
condition files/Stage1_2.xlsx,,B1,T1,c,"['c', 'm']","['Clue', 'Monopoly']","[-0.15, 0.5]","[0.15, 0.5]",1,1,,,,,,,,,0,7,7,7,0,2,2,0,,,,,,,,,,,,,,,,,,,,,,,,,,,,,,,,,,,,,,,,,,,,,,,,,,,,,,,874.233834746,None,874.233834746,None,874.233834746,None,c,1,1.4030498409993015,875.7686213099996,None,875.7686213099996,None,875.7686213099996,None,877.2345078400003,None,877.2345078400003,None,877.2345078400003,None,877.2345078400003,None,,,,,,,,,,,,,,,,,,,,,,,,,,,,,,,,,,,,,,,,,,,,001,146,2020_Feb_20_1015,spring_faces,3.1.5,60.0023169292479,
condition files/Stage1_2.xlsx,,T1,B2,m,"['c', 'm']","['Clue', 'Monopoly']","[-0.15, 0.5]","[0.15, 0.5]",1,1,,,,,,,,,0,7,7,7,0,3,3,2,,,,,,,,,,,,,,,,,,,,,,,,,,,,,,,,,,,,,,,,,,,,,,,,,,,,,,,879.2010215150003,None,879.2010215150003,None,879.2010215150003,None,m,1,1.4129558560007354,880.7347065129998,None,880.7347065129998,None,880.7347065129998,None,882.217733515,None,882.217733515,None,882.217733515,None,882.217733515,None,,,,,,,,,,,,,,,,,,,,,,,,,,,,,,,,,,,,,,,,,,,,001,146,2020_Feb_20_1015,spring_faces,3.1.5,60.0023169292479,
condition files/Stage1_2.xlsx,,B3,T4,m,"['c', 'm']","['Clue', 'Monopoly']","[-0.15, 0.5]","[0.15, 0.5]",1,1,,,,,,,,,0,7,7,7,0,4,4,6,,,,,,,,,,,,,,,,,,,,,,,,,,,,,,,,,,,,,,,,,,,,,,,,,,,,,,,884.1675116400002,None,884.1675116400002,None,884.1675116400002,None,m,1,1.5012102040000173,885.7184427530001,None,885.7184427530001,None,885.7184427530001,None,887.2846378980003,None,887.2846378980003,None,887.2846378980003,None,887.2846378980003,None,,,,,,,,,,,,,,,,,,,,,,,,,,,,,,,,,,,,,,,,,,,,001,146,2020_Feb_20_1015,spring_faces,3.1.5,60.0023169292479,
condition files/Stage1_2.xlsx,,B2,T2,m,"['c', 'm']","['Clue', 'Monopoly']","[-0.15, 0.5]","[0.15, 0.5]",1,1,,,,,,,,,0,7,7,7,0,5,5,3,,,,,,,,,,,,,,,,,,,,,,,,,,,,,,,,,,,,,,,,,,,,,,,,,,,,,,,889.2513652199996,None,889.2513652199996,None,889.2513652199996,None,m,1,5.938020225999935,890.8016516039997,None,890.8016516039997,None,890.8016516039997,None,896.8014998099998,None,896.8014998099998,None,896.8014998099998,None,896.8014998099998,None,,,,,,,,,,,,,,,,,,,,,,,,,,,,,,,,,,,,,,,,,,,,001,146,2020_Feb_20_1015,spring_faces,3.1.5,60.0023169292479,
condition files/Stage1_2.xlsx,,T3,B3,c,"['c', 'm']","['Clue', 'Monopoly']","[-0.15, 0.5]","[0.15, 0.5]",1,1,,,,,,,,,0,7,7,7,0,6,6,4,,,,,,,,,,,,,,,,,,,,,,,,,,,,,,,,,,,,,,,,,,,,,,,,,,,,,,,898.7678508079998,None,898.7678508079998,None,898.7678508079998,None,c,1,3.462195289000192,900.3014302709998,None,900.3014302709998,None,900.3014302709998,None,903.8202888579999,None,903.8202888579999,None,903.8202888579999,None,903.8202888579999,None,,,,,,,,,,,,,,,,,,,,,,,,,,,,,,,,,,,,,,,,,,,,001,146,2020_Feb_20_1015,spring_faces,3.1.5,60.0023169292479,
condition files/Stage1_2.xlsx,,T4,B4,m,"['c', 'm']","['Clue', 'Monopoly']","[-0.15, 0.5]","[0.15, 0.5]",1,1,,,,,,,,,0,7,7,7,0,7,7,7,,,,,,,,,,,,,,,,,,,,,,,,,,,,,,,,,,,,,,,,,,,,,,,,,,,,,,,905.7840498699998,None,905.7840498699998,None,905.7840498699998,None,m,1,0.7657296980005412,907.3179589809997,None,907.3179589809997,None,907.3179589809997,None,908.1343749340003,None,908.1343749340003,None,908.1343749340003,None,908.1343749340003,None,,,,,,,,,,,,,,,,,,,,,,,,,,,,,,,,,,,,,,,,,,,,001,146,2020_Feb_20_1015,spring_faces,3.1.5,60.0023169292479,
condition files/Stage1_1.xlsx,,T2,B2,m,"['c', 'm']","['Clue', 'Monopoly']","[-0.15, 0.5]","[0.15, 0.5]",1,1,,,,,,,,,0,8,8,8,0,0,0,3,,,,,,,,,,,,,,,,,,,,,,,,,,,,,,,,,,,,,,,,,,,,,,,,,,,,,,,910.1184621149996,None,910.1184621149996,None,910.1184621149996,None,m,1,0.7206988899997668,911.6509980190003,None,911.6509980190003,None,911.6509980190003,None,912.4349476990001,None,912.4349476990001,None,912.4349476990001,None,912.4349476990001,None,,,,,,,,,,,,,,,,,,,,,,,,,,,,,,,,,,,,,,,,,,,,001,146,2020_Feb_20_1015,spring_faces,3.1.5,60.0023169292479,
condition files/Stage1_1.xlsx,,B2,T1,m,"['c', 'm']","['Clue', 'Monopoly']","[-0.15, 0.5]","[0.15, 0.5]",1,1,,,,,,,,,0,8,8,8,0,1,1,2,,,,,,,,,,,,,,,,,,,,,,,,,,,,,,,,,,,,,,,,,,,,,,,,,,,,,,,914.4006536839997,None,914.4006536839997,None,914.4006536839997,None,m,1,1.2857527579999442,915.9339131469997,None,915.9339131469997,None,915.9339131469997,None,917.2851108909999,None,917.2851108909999,None,917.2851108909999,None,917.2851108909999,None,,,,,,,,,,,,,,,,,,,,,,,,,,,,,,,,,,,,,,,,,,,,001,146,2020_Feb_20_1015,spring_faces,3.1.5,60.0023169292479,
condition files/Stage1_1.xlsx,,B4,T4,m,"['c', 'm']","['Clue', 'Monopoly']","[-0.15, 0.5]","[0.15, 0.5]",1,1,,,,,,,,,0,8,8,8,0,2,2,7,,,,,,,,,,,,,,,,,,,,,,,,,,,,,,,,,,,,,,,,,,,,,,,,,,,,,,,919.2508829489998,None,919.2508829489998,None,919.2508829489998,None,m,1,12.787693405000027,920.7839939839996,None,920.7839939839996,None,920.7839939839996,None,933.6344051420001,None,933.6344051420001,None,933.6344051420001,None,933.6344051420001,None,,,,,,,,,,,,,,,,,,,,,,,,,,,,,,,,,,,,,,,,,,,,001,146,2020_Feb_20_1015,spring_faces,3.1.5,60.0023169292479,
condition files/Stage1_1.xlsx,,T1,B1,c,"['c', 'm']","['Clue', 'Monopoly']","[-0.15, 0.5]","[0.15, 0.5]",1,1,,,,,,,,,0,8,8,8,0,3,3,0,,,,,,,,,,,,,,,,,,,,,,,,,,,,,,,,,,,,,,,,,,,,,,,,,,,,,,,935.6010886739996,None,935.6010886739996,None,935.6010886739996,None,m,0,14.468682681000246,937.1349613659995,None,937.1349613659995,None,937.1349613659995,None,951.6704984130001,None,951.6704984130001,None,951.6704984130001,None,951.6704984130001,None,,,,,,,,,,,,,,,,,,,,,,,,,,,,,,,,,,,,,,,,,,,,001,146,2020_Feb_20_1015,spring_faces,3.1.5,60.0023169292479,
condition files/Stage1_1.xlsx,,B3,T3,c,"['c', 'm']","['Clue', 'Monopoly']","[-0.15, 0.5]","[0.15, 0.5]",1,1,,,,,,,,,0,8,8,8,0,4,4,4,,,,,,,,,,,,,,,,,,,,,,,,,,,,,,,,,,,,,,,,,,,,,,,,,,,,,,,953.6345618229998,None,953.6345618229998,None,953.6345618229998,None,m,0,0.7240078579998226,955.1676933979998,None,955.1676933979998,None,955.1676933979998,None,955.9511411909998,None,955.9511411909998,None,955.9511411909998,None,955.9511411909998,None,,,,,,,,,,,,,,,,,,,,,,,,,,,,,,,,,,,,,,,,,,,,001,146,2020_Feb_20_1015,spring_faces,3.1.5,60.0023169292479,
condition files/Stage1_1.xlsx,,T3,B4,c,"['c', 'm']","['Clue', 'Monopoly']","[-0.15, 0.5]","[0.15, 0.5]",1,1,,,,,,,,,0,8,8,8,0,5,5,5,,,,,,,,,,,,,,,,,,,,,,,,,,,,,,,,,,,,,,,,,,,,,,,,,,,,,,,957.917791242,None,957.917791242,None,957.917791242,None,c,1,0.9526655660001779,959.4510253030003,None,959.4510253030003,None,959.4510253030003,None,960.4679531239999,None,960.4679531239999,None,960.4679531239999,None,960.4679531239999,None,,,,,,,,,,,,,,,,,,,,,,,,,,,,,,,,,,,,,,,,,,,,001,146,2020_Feb_20_1015,spring_faces,3.1.5,60.0023169292479,
condition files/Stage1_1.xlsx,,B1,T2,c,"['c', 'm']","['Clue', 'Monopoly']","[-0.15, 0.5]","[0.15, 0.5]",1,1,,,,,,,,,0,8,8,8,0,6,6,1,,,,,,,,,,,,,,,,,,,,,,,,,,,,,,,,,,,,,,,,,,,,,,,,,,,,,,,962.4344758179996,None,962.4344758179996,None,962.4344758179996,None,c,1,0.7555422859995815,963.9681527399998,None,963.9681527399998,None,963.9681527399998,None,964.7849050209998,None,964.7849050209998,None,964.7849050209998,None,964.7849050209998,None,,,,,,,,,,,,,,,,,,,,,,,,,,,,,,,,,,,,,,,,,,,,001,146,2020_Feb_20_1015,spring_faces,3.1.5,60.0023169292479,
condition files/Stage1_1.xlsx,,T4,B3,m,"['c', 'm']","['Clue', 'Monopoly']","[-0.15, 0.5]","[0.15, 0.5]",1,1,,,,,,,,,0,8,8,8,0,7,7,6,,,,,,,,,,,,,,,,,,,,,,,,,,,,,,,,,,,,,,,,,,,,,,,,,,,,,,,966.7516798460001,None,966.7516798460001,None,966.7516798460001,None,m,1,1.60687981799947,968.2848424249996,None,968.2848424249996,None,968.2848424249996,None,969.9682333649998,None,969.9682333649998,None,969.9682333649998,None,969.9682333649998,None,,,,,,,,,,,,,,,,,,,,,,,,,,,,,,,,,,,,,,,,,,,,001,146,2020_Feb_20_1015,spring_faces,3.1.5,60.0023169292479,
condition files/Stage1_2.xlsx,,T4,B4,m,"['c', 'm']","['Clue', 'Monopoly']","[-0.15, 0.5]","[0.15, 0.5]",1,1,,,,,,,,,0,9,9,9,0,0,0,7,,,,,,,,,,,,,,,,,,,,,,,,,,,,,,,,,,,,,,,,,,,,,,,,,,,,,,,971.9348622380003,None,971.9348622380003,None,971.9348622380003,None,m,1,1.624166372000218,973.4675472170002,None,973.4675472170002,None,973.4675472170002,None,975.151175,None,975.151175,None,975.151175,None,975.151175,None,,,,,,,,,,,,,,,,,,,,,,,,,,,,,,,,,,,,,,,,,,,,001,146,2020_Feb_20_1015,spring_faces,3.1.5,60.0023169292479,
condition files/Stage1_2.xlsx,,T2,B1,c,"['c', 'm']","['Clue', 'Monopoly']","[-0.15, 0.5]","[0.15, 0.5]",1,1,,,,,,,,,0,9,9,9,0,1,1,1,,,,,,,,,,,,,,,,,,,,,,,,,,,,,,,,,,,,,,,,,,,,,,,,,,,,,,,977.1170873539995,None,977.1170873539995,None,977.1170873539995,None,c,1,3.4166729799999302,978.6510053209995,None,978.6510053209995,None,978.6510053209995,None,982.1345556460001,None,982.1345556460001,None,982.1345556460001,None,982.1345556460001,None,,,,,,,,,,,,,,,,,,,,,,,,,,,,,,,,,,,,,,,,,,,,001,146,2020_Feb_20_1015,spring_faces,3.1.5,60.0023169292479,
condition files/Stage1_2.xlsx,,T3,B3,c,"['c', 'm']","['Clue', 'Monopoly']","[-0.15, 0.5]","[0.15, 0.5]",1,1,,,,,,,,,0,9,9,9,0,2,2,4,,,,,,,,,,,,,,,,,,,,,,,,,,,,,,,,,,,,,,,,,,,,,,,,,,,,,,,984.0841108519999,None,984.0841108519999,None,984.0841108519999,None,c,1,0.8657203789998675,985.617973554,None,985.617973554,None,985.617973554,None,986.5344265639997,None,986.5344265639997,None,986.5344265639997,None,986.5344265639997,None,,,,,,,,,,,,,,,,,,,,,,,,,,,,,,,,,,,,,,,,,,,,001,146,2020_Feb_20_1015,spring_faces,3.1.5,60.0023169292479,
condition files/Stage1_2.xlsx,,B4,T3,c,"['c', 'm']","['Clue', 'Monopoly']","[-0.15, 0.5]","[0.15, 0.5]",1,1,,,,,,,,,0,9,9,9,0,3,3,5,,,,,,,,,,,,,,,,,,,,,,,,,,,,,,,,,,,,,,,,,,,,,,,,,,,,,,,988.5007877170001,None,988.5007877170001,None,988.5007877170001,None,c,1,2.2571763969999665,990.0345418950001,None,990.0345418950001,None,990.0345418950001,None,992.3512076249999,None,992.3512076249999,None,992.3512076249999,None,992.3512076249999,None,,,,,,,,,,,,,,,,,,,,,,,,,,,,,,,,,,,,,,,,,,,,001,146,2020_Feb_20_1015,spring_faces,3.1.5,60.0023169292479,
condition files/Stage1_2.xlsx,,B2,T2,m,"['c', 'm']","['Clue', 'Monopoly']","[-0.15, 0.5]","[0.15, 0.5]",1,1,,,,,,,,,0,9,9,9,0,4,4,3,,,,,,,,,,,,,,,,,,,,,,,,,,,,,,,,,,,,,,,,,,,,,,,,,,,,,,,994.3177523189997,None,994.3177523189997,None,994.3177523189997,None,m,1,2.440395671999795,995.8513263389996,None,995.8513263389996,None,995.8513263389996,None,998.3532067440001,None,998.3532067440001,None,998.3532067440001,None,998.3532067440001,None,,,,,,,,,,,,,,,,,,,,,,,,,,,,,,,,,,,,,,,,,,,,001,146,2020_Feb_20_1015,spring_faces,3.1.5,60.0023169292479,
condition files/Stage1_2.xlsx,,B3,T4,m,"['c', 'm']","['Clue', 'Monopoly']","[-0.15, 0.5]","[0.15, 0.5]",1,1,,,,,,,,,0,9,9,9,0,5,5,6,,,,,,,,,,,,,,,,,,,,,,,,,,,,,,,,,,,,,,,,,,,,,,,,,,,,,,,1000.3179520670001,None,1000.3179520670001,None,1000.3179520670001,None,m,1,1.1747548319999623,1001.8529290269998,None,1001.8529290269998,None,1001.8529290269998,None,1003.0846686149998,None,1003.0846686149998,None,1003.0846686149998,None,1003.0846686149998,None,,,,,,,,,,,,,,,,,,,,,,,,,,,,,,,,,,,,,,,,,,,,001,146,2020_Feb_20_1015,spring_faces,3.1.5,60.0023169292479,
condition files/Stage1_2.xlsx,,B1,T1,c,"['c', 'm']","['Clue', 'Monopoly']","[-0.15, 0.5]","[0.15, 0.5]",1,1,,,,,,,,,0,9,9,9,0,6,6,0,,,,,,,,,,,,,,,,,,,,,,,,,,,,,,,,,,,,,,,,,,,,,,,,,,,,,,,1005.0512424050003,None,1005.0512424050003,None,1005.0512424050003,None,c,1,1.1946655270003248,1006.60095198,None,1006.60095198,None,1006.60095198,None,1007.8508218799998,None,1007.8508218799998,None,1007.8508218799998,None,1007.8508218799998,None,,,,,,,,,,,,,,,,,,,,,,,,,,,,,,,,,,,,,,,,,,,,001,146,2020_Feb_20_1015,spring_faces,3.1.5,60.0023169292479,
condition files/Stage1_2.xlsx,,T1,B2,m,"['c', 'm']","['Clue', 'Monopoly']","[-0.15, 0.5]","[0.15, 0.5]",1,1,,,,,,,,,0,9,9,9,0,7,7,2,,,,,,,,,,,,,,,,,,,,,,,,,,,,,,,,,,,,,,,,,,,,,,,,,,,,,,,1009.8177724999996,None,1009.8177724999996,None,1009.8177724999996,None,m,1,2.5393952329995955,1011.3682136689995,None,1011.3682136689995,None,1011.3682136689995,None,1013.9843835020001,None,1013.9843835020001,None,1013.9843835020001,None,1013.9843835020001,None,,,,,,,,,,,,,,,,,,,,,,,,,,,,,,,,,,,,,,,,,,,,001,146,2020_Feb_20_1015,spring_faces,3.1.5,60.0023169292479,
condition files/Stage1_1.xlsx,,T2,B2,m,"['c', 'm']","['Clue', 'Monopoly']","[-0.15, 0.5]","[0.15, 0.5]",1,1,,,,,,,,,0,10,10,10,0,0,0,3,,,,,,,,,,,,,,,,,,,,,,,,,,,,,,,,,,,,,,,,,,,,,,,,,,,,,,,1015.9517054839998,None,1015.9517054839998,None,1015.9517054839998,None,m,1,1.5114419399997132,1017.4842227549998,None,1017.4842227549998,None,1017.4842227549998,None,1019.0513744520003,None,1019.0513744520003,None,1019.0513744520003,None,1019.0513744520003,None,,,,,,,,,,,,,,,,,,,,,,,,,,,,,,,,,,,,,,,,,,,,001,146,2020_Feb_20_1015,spring_faces,3.1.5,60.0023169292479,
condition files/Stage1_1.xlsx,,B4,T4,m,"['c', 'm']","['Clue', 'Monopoly']","[-0.15, 0.5]","[0.15, 0.5]",1,1,,,,,,,,,0,10,10,10,0,1,1,7,,,,,,,,,,,,,,,,,,,,,,,,,,,,,,,,,,,,,,,,,,,,,,,,,,,,,,,1021.0182519640002,None,1021.0182519640002,None,1021.0182519640002,None,m,1,2.7325390690002678,1022.5511538929995,None,1022.5511538929995,None,1022.5511538929995,None,1025.3350265190002,None,1025.3350265190002,None,1025.3350265190002,None,1025.3350265190002,None,,,,,,,,,,,,,,,,,,,,,,,,,,,,,,,,,,,,,,,,,,,,001,146,2020_Feb_20_1015,spring_faces,3.1.5,60.0023169292479,
condition files/Stage1_1.xlsx,,T1,B1,c,"['c', 'm']","['Clue', 'Monopoly']","[-0.15, 0.5]","[0.15, 0.5]",1,1,,,,,,,,,0,10,10,10,0,2,2,0,,,,,,,,,,,,,,,,,,,,,,,,,,,,,,,,,,,,,,,,,,,,,,,,,,,,,,,1027.3009732929995,None,1027.3009732929995,None,1027.3009732929995,None,c,1,1.0566176689999338,1028.8510239449997,None,1028.8510239449997,None,1028.8510239449997,None,1029.985025676,None,1029.985025676,None,1029.985025676,None,1029.985025676,None,,,,,,,,,,,,,,,,,,,,,,,,,,,,,,,,,,,,,,,,,,,,001,146,2020_Feb_20_1015,spring_faces,3.1.5,60.0023169292479,
condition files/Stage1_1.xlsx,,T4,B3,m,"['c', 'm']","['Clue', 'Monopoly']","[-0.15, 0.5]","[0.15, 0.5]",1,1,,,,,,,,,0,10,10,10,0,3,3,6,,,,,,,,,,,,,,,,,,,,,,,,,,,,,,,,,,,,,,,,,,,,,,,,,,,,,,,1031.9338603779997,None,1031.9338603779997,None,1031.9338603779997,None,m,1,1.5599595810008395,1033.4677562179995,None,1033.4677562179995,None,1033.4677562179995,None,1035.1014573009998,None,1035.1014573009998,None,1035.1014573009998,None,1035.1014573009998,None,,,,,,,,,,,,,,,,,,,,,,,,,,,,,,,,,,,,,,,,,,,,001,146,2020_Feb_20_1015,spring_faces,3.1.5,60.0023169292479,
condition files/Stage1_1.xlsx,,T3,B4,c,"['c', 'm']","['Clue', 'Monopoly']","[-0.15, 0.5]","[0.15, 0.5]",1,1,,,,,,,,,0,10,10,10,0,4,4,5,,,,,,,,,,,,,,,,,,,,,,,,,,,,,,,,,,,,,,,,,,,,,,,,,,,,,,,1037.0508006929995,None,1037.0508006929995,None,1037.0508006929995,None,c,1,2.889322558999993,1038.5863780110003,None,1038.5863780110003,None,1038.5863780110003,None,1041.5346821579997,None,1041.5346821579997,None,1041.5346821579997,None,1041.5346821579997,None,,,,,,,,,,,,,,,,,,,,,,,,,,,,,,,,,,,,,,,,,,,,001,146,2020_Feb_20_1015,spring_faces,3.1.5,60.0023169292479,
condition files/Stage1_1.xlsx,,B3,T3,c,"['c', 'm']","['Clue', 'Monopoly']","[-0.15, 0.5]","[0.15, 0.5]",1,1,,,,,,,,,0,10,10,10,0,5,5,4,,,,,,,,,,,,,,,,,,,,,,,,,,,,,,,,,,,,,,,,,,,,,,,,,,,,,,,1043.5010835149997,None,1043.5010835149997,None,1043.5010835149997,None,c,1,4.440805160999844,1045.0349063519998,None,1045.0349063519998,None,1045.0349063519998,None,1049.5349415660003,None,1049.5349415660003,None,1049.5349415660003,None,1049.5349415660003,None,,,,,,,,,,,,,,,,,,,,,,,,,,,,,,,,,,,,,,,,,,,,001,146,2020_Feb_20_1015,spring_faces,3.1.5,60.0023169292479,
condition files/Stage1_1.xlsx,,B1,T2,c,"['c', 'm']","['Clue', 'Monopoly']","[-0.15, 0.5]","[0.15, 0.5]",1,1,,,,,,,,,0,10,10,10,0,6,6,1,,,,,,,,,,,,,,,,,,,,,,,,,,,,,,,,,,,,,,,,,,,,,,,,,,,,,,,1051.5006993369998,None,1051.5006993369998,None,1051.5006993369998,None,c,1,2.936052400000335,1053.0516234329998,None,1053.0516234329998,None,1053.0516234329998,None,1056.051665637,None,1056.051665637,None,1056.051665637,None,1056.051665637,None,,,,,,,,,,,,,,,,,,,,,,,,,,,,,,,,,,,,,,,,,,,,001,146,2020_Feb_20_1015,spring_faces,3.1.5,60.0023169292479,
condition files/Stage1_1.xlsx,,B2,T1,m,"['c', 'm']","['Clue', 'Monopoly']","[-0.15, 0.5]","[0.15, 0.5]",1,1,,,,,,,,,0,10,10,10,0,7,7,2,,,,,,,,,,,,,,,,,,,,,,,,,,,,,,,,,,,,,,,,,,,,,,,,,,,,,,,1058.0183692640003,None,1058.0183692640003,None,1058.0183692640003,None,m,1,2.4514641050000137,1059.5521986519998,None,1059.5521986519998,None,1059.5521986519998,None,1062.0694603820002,None,1062.0694603820002,None,1062.0694603820002,None,1062.0694603820002,None,,,,,,,,,,,,,,,,,,,,,,,,,,,,,,,,,,,,,,,,,,,,001,146,2020_Feb_20_1015,spring_faces,3.1.5,60.0023169292479,
condition files/Stage1_2.xlsx,,B4,T3,c,"['c', 'm']","['Clue', 'Monopoly']","[-0.15, 0.5]","[0.15, 0.5]",1,1,,,,,,,,,0,11,11,11,0,0,0,5,,,,,,,,,,,,,,,,,,,,,,,,,,,,,,,,,,,,,,,,,,,,,,,,,,,,,,,1064.0512945129994,None,1064.0512945129994,None,1064.0512945129994,None,c,1,1.2194041870006913,1065.5842728509997,None,1065.5842728509997,None,1065.5842728509997,None,1066.8688192139998,None,1066.8688192139998,None,1066.8688192139998,None,1066.8688192139998,None,,,,,,,,,,,,,,,,,,,,,,,,,,,,,,,,,,,,,,,,,,,,001,146,2020_Feb_20_1015,spring_faces,3.1.5,60.0023169292479,
condition files/Stage1_2.xlsx,,T1,B2,m,"['c', 'm']","['Clue', 'Monopoly']","[-0.15, 0.5]","[0.15, 0.5]",1,1,,,,,,,,,0,11,11,11,0,1,1,2,,,,,,,,,,,,,,,,,,,,,,,,,,,,,,,,,,,,,,,,,,,,,,,,,,,,,,,1068.8347014829997,None,1068.8347014829997,None,1068.8347014829997,None,m,1,1.1864572690001296,1070.3852140669997,None,1070.3852140669997,None,1070.3852140669997,None,1071.6347539950002,None,1071.6347539950002,None,1071.6347539950002,None,1071.6347539950002,None,,,,,,,,,,,,,,,,,,,,,,,,,,,,,,,,,,,,,,,,,,,,001,146,2020_Feb_20_1015,spring_faces,3.1.5,60.0023169292479,
condition files/Stage1_2.xlsx,,B1,T1,c,"['c', 'm']","['Clue', 'Monopoly']","[-0.15, 0.5]","[0.15, 0.5]",1,1,,,,,,,,,0,11,11,11,0,2,2,0,,,,,,,,,,,,,,,,,,,,,,,,,,,,,,,,,,,,,,,,,,,,,,,,,,,,,,,1073.6008445750003,None,1073.6008445750003,None,1073.6008445750003,None,m,0,0.7241968939997605,1075.1515390989998,None,1075.1515390989998,None,1075.1515390989998,None,1075.9512927249998,None,1075.9512927249998,None,1075.9512927249998,None,1075.9512927249998,None,,,,,,,,,,,,,,,,,,,,,,,,,,,,,,,,,,,,,,,,,,,,001,146,2020_Feb_20_1015,spring_faces,3.1.5,60.0023169292479,
condition files/Stage1_2.xlsx,,B2,T2,m,"['c', 'm']","['Clue', 'Monopoly']","[-0.15, 0.5]","[0.15, 0.5]",1,1,,,,,,,,,0,11,11,11,0,3,3,3,,,,,,,,,,,,,,,,,,,,,,,,,,,,,,,,,,,,,,,,,,,,,,,,,,,,,,,1077.9011864679997,None,1077.9011864679997,None,1077.9011864679997,None,m,1,0.6807940680000684,1079.434914761,None,1079.434914761,None,1079.434914761,None,1080.1849168609997,None,1080.1849168609997,None,1080.1849168609997,None,1080.1849168609997,None,,,,,,,,,,,,,,,,,,,,,,,,,,,,,,,,,,,,,,,,,,,,001,146,2020_Feb_20_1015,spring_faces,3.1.5,60.0023169292479,
condition files/Stage1_2.xlsx,,B3,T4,m,"['c', 'm']","['Clue', 'Monopoly']","[-0.15, 0.5]","[0.15, 0.5]",1,1,,,,,,,,,0,11,11,11,0,4,4,6,,,,,,,,,,,,,,,,,,,,,,,,,,,,,,,,,,,,,,,,,,,,,,,,,,,,,,,1082.1339339790002,None,1082.1339339790002,None,1082.1339339790002,None,m,1,1.0877607040001749,1083.6679297800001,None,1083.6679297800001,None,1083.6679297800001,None,1084.817886592,None,1084.817886592,None,1084.817886592,None,1084.817886592,None,,,,,,,,,,,,,,,,,,,,,,,,,,,,,,,,,,,,,,,,,,,,001,146,2020_Feb_20_1015,spring_faces,3.1.5,60.0023169292479,
condition files/Stage1_2.xlsx,,T3,B3,c,"['c', 'm']","['Clue', 'Monopoly']","[-0.15, 0.5]","[0.15, 0.5]",1,1,,,,,,,,,0,11,11,11,0,5,5,4,,,,,,,,,,,,,,,,,,,,,,,,,,,,,,,,,,,,,,,,,,,,,,,,,,,,,,,1086.7845274800002,None,1086.7845274800002,None,1086.7845274800002,None,c,1,1.4614486689997648,1088.3181662429997,None,1088.3181662429997,None,1088.3181662429997,None,1089.8515001369997,None,1089.8515001369997,None,1089.8515001369997,None,1089.8515001369997,None,,,,,,,,,,,,,,,,,,,,,,,,,,,,,,,,,,,,,,,,,,,,001,146,2020_Feb_20_1015,spring_faces,3.1.5,60.0023169292479,
condition files/Stage1_2.xlsx,,T2,B1,c,"['c', 'm']","['Clue', 'Monopoly']","[-0.15, 0.5]","[0.15, 0.5]",1,1,,,,,,,,,0,11,11,11,0,6,6,1,,,,,,,,,,,,,,,,,,,,,,,,,,,,,,,,,,,,,,,,,,,,,,,,,,,,,,,1091.8012044779998,None,1091.8012044779998,None,1091.8012044779998,None,c,1,1.260400430000118,1093.351321268,None,1093.351321268,None,1093.351321268,None,1094.6678009050001,None,1094.6678009050001,None,1094.6678009050001,None,1094.6678009050001,None,,,,,,,,,,,,,,,,,,,,,,,,,,,,,,,,,,,,,,,,,,,,001,146,2020_Feb_20_1015,spring_faces,3.1.5,60.0023169292479,
condition files/Stage1_2.xlsx,,T4,B4,m,"['c', 'm']","['Clue', 'Monopoly']","[-0.15, 0.5]","[0.15, 0.5]",1,1,,,,,,,,,0,11,11,11,0,7,7,7,,,,,,,,,,,,,,,,,,,,,,,,,,,,,,,,,,,,,,,,,,,,,,,,,,,,,,,1096.6337645889998,None,1096.6337645889998,None,1096.6337645889998,None,m,1,1.771991165000145,1098.1676843469995,None,1098.1676843469995,None,1098.1676843469995,None,1100.000910152,None,1100.000910152,None,1100.000910152,None,1100.000910152,None,,,,,,,,,,,,,,,,,,,,,,,,,,,,,,,,,,,,,,,,,,,,001,146,2020_Feb_20_1015,spring_faces,3.1.5,60.0023169292479,
,,,,,,,,,,,,,,,,,,,,,,,,,,,,,,,,,,,,,,,,,,,,,,,,,,,,,,,,,,,,,,,,,,,,,,,,,,,,,,,,,,,,,,,,,,,,,,,,,,,,,,,,,,,,,,,,1101.9845333829999,None,space,14.698729329000344,1106.9849578980002,None,,,,,,,,,,,,,,,,,,,,,,,,,,,,,,001,146,2020_Feb_20_1015,spring_faces,3.1.5,60.0023169292479,
condition files/Stage2_1.xlsx,,T5,B5,s,"['s', 'r']","['Stratego', 'Risk']","[-0.15, 0.5]","[0.15, 0.5]",1,1,,,,,,,,,,,,,,,,,0,0,0,0,0,0,0,0,,,,,,,,,,,,,,,,,,,,,,,,,,,,,,,,,,,,,,,,,,,,,,,1121.735138135,None,1121.735138135,None,1121.735138135,None,s,1,1.6968343189992083,1123.2508318629998,None,1123.2508318629998,None,1123.2508318629998,None,1125.0019537950002,None,1125.0019537950002,None,1125.0019537950002,None,1125.0019537950002,None,,,,,,,,,,,,,,,1106.9849578980002,None,,,,,,,,,,,,,,,,,,,,,,,,,,,,001,146,2020_Feb_20_1015,spring_faces,3.1.5,60.0023169292479,
condition files/Stage2_1.xlsx,,B6,T6,r,"['s', 'r']","['Stratego', 'Risk']","[-0.15, 0.5]","[0.15, 0.5]",1,1,,,,,,,,,,,,,,,,,0,0,0,0,0,1,1,1,,,,,,,,,,,,,,,,,,,,,,,,,,,,,,,,,,,,,,,,,,,,,,,1126.967922885,None,1126.967922885,None,1126.967922885,None,r,1,1.3420347709998168,1128.5176814349998,None,1128.5176814349998,None,1128.5176814349998,None,1129.9202704709996,None,1129.9202704709996,None,1129.9202704709996,None,1129.9202704709996,None,,,,,,,,,,,,,,,,,,,,,,,,,,,,,,,,,,,,,,,,,,,,001,146,2020_Feb_20_1015,spring_faces,3.1.5,60.0023169292479,
condition files/Stage2_1.xlsx,,T1,B1,s,"['s', 'r']","['Stratego', 'Risk']","[-0.15, 0.5]","[0.15, 0.5]",1,1,,,,,,,,,,,,,,,,,0,0,0,0,0,2,2,2,,,,,,,,,,,,,,,,,,,,,,,,,,,,,,,,,,,,,,,,,,,,,,,1131.8841363749998,None,1131.8841363749998,None,1131.8841363749998,None,s,1,2.3301525209999454,1133.4175155949997,None,1133.4175155949997,None,1133.4175155949997,None,1135.8178924920003,None,1135.8178924920003,None,1135.8178924920003,None,1135.8178924920003,None,,,,,,,,,,,,,,,,,,,,,,,,,,,,,,,,,,,,,,,,,,,,001,146,2020_Feb_20_1015,spring_faces,3.1.5,60.0023169292479,
condition files/Stage2_1.xlsx,,T3,B3,s,"['s', 'r']","['Stratego', 'Risk']","[-0.15, 0.5]","[0.15, 0.5]",1,1,,,,,,,,,,,,,,,,,0,0,0,0,0,3,3,4,,,,,,,,,,,,,,,,,,,,,,,,,,,,,,,,,,,,,,,,,,,,,,,1137.7680421489995,None,1137.7680421489995,None,1137.7680421489995,None,r,0,1.3263599570000224,1139.301346155,None,1139.301346155,None,1139.301346155,None,1140.6847947879996,None,1140.6847947879996,None,1140.6847947879996,None,1140.6847947879996,None,,,,,,,,,,,,,,,,,,,,,,,,,,,,,,,,,,,,,,,,,,,,001,146,2020_Feb_20_1015,spring_faces,3.1.5,60.0023169292479,
condition files/Stage2_1.xlsx,,B4,T4,r,"['s', 'r']","['Stratego', 'Risk']","[-0.15, 0.5]","[0.15, 0.5]",1,1,,,,,,,,,,,,,,,,,0,0,0,0,0,4,4,5,,,,,,,,,,,,,,,,,,,,,,,,,,,,,,,,,,,,,,,,,,,,,,,1142.6506553669997,None,1142.6506553669997,None,1142.6506553669997,None,s,0,1.4179210570000578,1144.201688309,None,1144.201688309,None,1144.201688309,None,1145.6843743970003,None,1145.6843743970003,None,1145.6843743970003,None,1145.6843743970003,None,,,,,,,,,,,,,,,,,,,,,,,,,,,,,,,,,,,,,,,,,,,,001,146,2020_Feb_20_1015,spring_faces,3.1.5,60.0023169292479,
condition files/Stage2_1.xlsx,,B2,T2,r,"['s', 'r']","['Stratego', 'Risk']","[-0.15, 0.5]","[0.15, 0.5]",1,1,,,,,,,,,,,,,,,,,0,0,0,0,0,5,5,3,,,,,,,,,,,,,,,,,,,,,,,,,,,,,,,,,,,,,,,,,,,,,,,1147.6511557799995,None,1147.6511557799995,None,1147.6511557799995,None,r,1,1.3459732709998207,1149.1857222950002,None,1149.1857222950002,None,1149.1857222950002,None,1150.5858412830003,None,1150.5858412830003,None,1150.5858412830003,None,1150.5858412830003,None,,,,,,,,,,,,,,,,,,,,,,,,,,,,,,,,,,,,,,,,,,,,001,146,2020_Feb_20_1015,spring_faces,3.1.5,60.0023169292479,
condition files/Stage2_2.xlsx,,T4,B4,r,"['s', 'r']","['Stratego', 'Risk']","[-0.15, 0.5]","[0.15, 0.5]",1,1,,,,,,,,,,,,,,,,,0,1,1,1,0,0,0,5,,,,,,,,,,,,,,,,,,,,,,,,,,,,,,,,,,,,,,,,,,,,,,,1152.5680893540002,None,1152.5680893540002,None,1152.5680893540002,None,r,1,1.1985067209998306,1154.10118289,None,1154.10118289,None,1154.10118289,None,1155.3510757289996,None,1155.3510757289996,None,1155.3510757289996,None,1155.3510757289996,None,,,,,,,,,,,,,,,,,,,,,,,,,,,,,,,,,,,,,,,,,,,,001,146,2020_Feb_20_1015,spring_faces,3.1.5,60.0023169292479,
condition files/Stage2_2.xlsx,,B5,T5,s,"['s', 'r']","['Stratego', 'Risk']","[-0.15, 0.5]","[0.15, 0.5]",1,1,,,,,,,,,,,,,,,,,0,1,1,1,0,1,1,0,,,,,,,,,,,,,,,,,,,,,,,,,,,,,,,,,,,,,,,,,,,,,,,1157.3177458760001,None,1157.3177458760001,None,1157.3177458760001,None,s,1,0.7045883920000051,1158.8510905169996,None,1158.8510905169996,None,1158.8510905169996,None,1159.6193853019995,None,1159.6193853019995,None,1159.6193853019995,None,1159.6193853019995,None,,,,,,,,,,,,,,,,,,,,,,,,,,,,,,,,,,,,,,,,,,,,001,146,2020_Feb_20_1015,spring_faces,3.1.5,60.0023169292479,
condition files/Stage2_2.xlsx,,T2,B2,r,"['s', 'r']","['Stratego', 'Risk']","[-0.15, 0.5]","[0.15, 0.5]",1,1,,,,,,,,,,,,,,,,,0,1,1,1,0,2,2,3,,,,,,,,,,,,,,,,,,,,,,,,,,,,,,,,,,,,,,,,,,,,,,,1161.584490319,None,1161.584490319,None,1161.584490319,None,r,1,0.7572449330000381,1163.118492775,None,1163.118492775,None,1163.118492775,None,1163.936102658,None,1163.936102658,None,1163.936102658,None,1163.936102658,None,,,,,,,,,,,,,,,,,,,,,,,,,,,,,,,,,,,,,,,,,,,,001,146,2020_Feb_20_1015,spring_faces,3.1.5,60.0023169292479,
condition files/Stage2_2.xlsx,,T6,B6,r,"['s', 'r']","['Stratego', 'Risk']","[-0.15, 0.5]","[0.15, 0.5]",1,1,,,,,,,,,,,,,,,,,0,1,1,1,0,3,3,1,,,,,,,,,,,,,,,,,,,,,,,,,,,,,,,,,,,,,,,,,,,,,,,1165.9012777059997,None,1165.9012777059997,None,1165.9012777059997,None,r,1,1.4156901429996651,1167.4359319599998,None,1167.4359319599998,None,1167.4359319599998,None,1168.9186325009996,None,1168.9186325009996,None,1168.9186325009996,None,1168.9186325009996,None,,,,,,,,,,,,,,,,,,,,,,,,,,,,,,,,,,,,,,,,,,,,001,146,2020_Feb_20_1015,spring_faces,3.1.5,60.0023169292479,
condition files/Stage2_2.xlsx,,B1,T1,s,"['s', 'r']","['Stratego', 'Risk']","[-0.15, 0.5]","[0.15, 0.5]",1,1,,,,,,,,,,,,,,,,,0,1,1,1,0,4,4,2,,,,,,,,,,,,,,,,,,,,,,,,,,,,,,,,,,,,,,,,,,,,,,,1170.8845850629996,None,1170.8845850629996,None,1170.8845850629996,None,s,1,2.017946937000488,1172.4176774259995,None,1172.4176774259995,None,1172.4176774259995,None,1174.5179078989995,None,1174.5179078989995,None,1174.5179078989995,None,1174.5179078989995,None,,,,,,,,,,,,,,,,,,,,,,,,,,,,,,,,,,,,,,,,,,,,001,146,2020_Feb_20_1015,spring_faces,3.1.5,60.0023169292479,
condition files/Stage2_2.xlsx,,B3,T3,s,"['s', 'r']","['Stratego', 'Risk']","[-0.15, 0.5]","[0.15, 0.5]",1,1,,,,,,,,,,,,,,,,,0,1,1,1,0,5,5,4,,,,,,,,,,,,,,,,,,,,,,,,,,,,,,,,,,,,,,,,,,,,,,,1176.467802993,None,1176.467802993,None,1176.467802993,None,s,1,1.7604098000001613,1178.0032403469995,None,1178.0032403469995,None,1178.0032403469995,None,1179.8180747409997,None,1179.8180747409997,None,1179.8180747409997,None,1179.8180747409997,None,,,,,,,,,,,,,,,,,,,,,,,,,,,,,,,,,,,,,,,,,,,,001,146,2020_Feb_20_1015,spring_faces,3.1.5,60.0023169292479,
condition files/Stage2_1.xlsx,,T3,B3,s,"['s', 'r']","['Stratego', 'Risk']","[-0.15, 0.5]","[0.15, 0.5]",1,1,,,,,,,,,,,,,,,,,0,2,2,2,0,0,0,4,,,,,,,,,,,,,,,,,,,,,,,,,,,,,,,,,,,,,,,,,,,,,,,1181.8012322169998,None,1181.8012322169998,None,1181.8012322169998,None,s,1,0.6523278859995116,1183.3353772049995,None,1183.3353772049995,None,1183.3353772049995,None,1184.0511447600002,None,1184.0511447600002,None,1184.0511447600002,None,1184.0511447600002,None,,,,,,,,,,,,,,,,,,,,,,,,,,,,,,,,,,,,,,,,,,,,001,146,2020_Feb_20_1015,spring_faces,3.1.5,60.0023169292479,
condition files/Stage2_1.xlsx,,T5,B5,s,"['s', 'r']","['Stratego', 'Risk']","[-0.15, 0.5]","[0.15, 0.5]",1,1,,,,,,,,,,,,,,,,,0,2,2,2,0,1,1,0,,,,,,,,,,,,,,,,,,,,,,,,,,,,,,,,,,,,,,,,,,,,,,,1186.017631283,None,1186.017631283,None,1186.017631283,None,s,1,1.2522649529992123,1187.551419978,None,1187.551419978,None,1187.551419978,None,1188.8681273929997,None,1188.8681273929997,None,1188.8681273929997,None,1188.8681273929997,None,,,,,,,,,,,,,,,,,,,,,,,,,,,,,,,,,,,,,,,,,,,,001,146,2020_Feb_20_1015,spring_faces,3.1.5,60.0023169292479,
condition files/Stage2_1.xlsx,,B2,T2,r,"['s', 'r']","['Stratego', 'Risk']","[-0.15, 0.5]","[0.15, 0.5]",1,1,,,,,,,,,,,,,,,,,0,2,2,2,0,2,2,3,,,,,,,,,,,,,,,,,,,,,,,,,,,,,,,,,,,,,,,,,,,,,,,1190.8340254160003,None,1190.8340254160003,None,1190.8340254160003,None,r,1,2.0334964669991678,1192.370174365,None,1192.370174365,None,1192.370174365,None,1194.4697897309998,None,1194.4697897309998,None,1194.4697897309998,None,1194.4697897309998,None,,,,,,,,,,,,,,,,,,,,,,,,,,,,,,,,,,,,,,,,,,,,001,146,2020_Feb_20_1015,spring_faces,3.1.5,60.0023169292479,
condition files/Stage2_1.xlsx,,B6,T6,r,"['s', 'r']","['Stratego', 'Risk']","[-0.15, 0.5]","[0.15, 0.5]",1,1,,,,,,,,,,,,,,,,,0,2,2,2,0,3,3,1,,,,,,,,,,,,,,,,,,,,,,,,,,,,,,,,,,,,,,,,,,,,,,,1196.434505661,None,1196.434505661,None,1196.434505661,None,r,1,1.2499740490002296,1197.9697016159998,None,1197.9697016159998,None,1197.9697016159998,None,1199.2849428649997,None,1199.2849428649997,None,1199.2849428649997,None,1199.2849428649997,None,,,,,,,,,,,,,,,,,,,,,,,,,,,,,,,,,,,,,,,,,,,,001,146,2020_Feb_20_1015,spring_faces,3.1.5,60.0023169292479,
condition files/Stage2_1.xlsx,,T1,B1,s,"['s', 'r']","['Stratego', 'Risk']","[-0.15, 0.5]","[0.15, 0.5]",1,1,,,,,,,,,,,,,,,,,0,2,2,2,0,4,4,2,,,,,,,,,,,,,,,,,,,,,,,,,,,,,,,,,,,,,,,,,,,,,,,1201.2512593689999,None,1201.2512593689999,None,1201.2512593689999,None,s,1,1.3629218599999149,1202.7847481420004,None,1202.7847481420004,None,1202.7847481420004,None,1204.2035569990003,None,1204.2035569990003,None,1204.2035569990003,None,1204.2035569990003,None,,,,,,,,,,,,,,,,,,,,,,,,,,,,,,,,,,,,,,,,,,,,001,146,2020_Feb_20_1015,spring_faces,3.1.5,60.0023169292479,
condition files/Stage2_1.xlsx,,B4,T4,r,"['s', 'r']","['Stratego', 'Risk']","[-0.15, 0.5]","[0.15, 0.5]",1,1,,,,,,,,,,,,,,,,,0,2,2,2,0,5,5,5,,,,,,,,,,,,,,,,,,,,,,,,,,,,,,,,,,,,,,,,,,,,,,,1206.1676356899998,None,1206.1676356899998,None,1206.1676356899998,None,r,1,0.973190446999979,1207.702530558,None,1207.702530558,None,1207.702530558,None,1208.736190054,None,1208.736190054,None,1208.736190054,None,1208.736190054,None,,,,,,,,,,,,,,,,,,,,,,,,,,,,,,,,,,,,,,,,,,,,001,146,2020_Feb_20_1015,spring_faces,3.1.5,60.0023169292479,
condition files/Stage2_2.xlsx,,T2,B2,r,"['s', 'r']","['Stratego', 'Risk']","[-0.15, 0.5]","[0.15, 0.5]",1,1,,,,,,,,,,,,,,,,,0,3,3,3,0,0,0,3,,,,,,,,,,,,,,,,,,,,,,,,,,,,,,,,,,,,,,,,,,,,,,,1210.7181606369995,None,1210.7181606369995,None,1210.7181606369995,None,r,1,0.9994558729995333,1212.2682460220003,None,1212.2682460220003,None,1212.2682460220003,None,1213.3182621469996,None,1213.3182621469996,None,1213.3182621469996,None,1213.3182621469996,None,,,,,,,,,,,,,,,,,,,,,,,,,,,,,,,,,,,,,,,,,,,,001,146,2020_Feb_20_1015,spring_faces,3.1.5,60.0023169292479,
condition files/Stage2_2.xlsx,,B1,T1,s,"['s', 'r']","['Stratego', 'Risk']","[-0.15, 0.5]","[0.15, 0.5]",1,1,,,,,,,,,,,,,,,,,0,3,3,3,0,1,1,2,,,,,,,,,,,,,,,,,,,,,,,,,,,,,,,,,,,,,,,,,,,,,,,1215.2837785129996,None,1215.2837785129996,None,1215.2837785129996,None,s,1,0.801795403000142,1216.8178662789996,None,1216.8178662789996,None,1216.8178662789996,None,1217.6860115849995,None,1217.6860115849995,None,1217.6860115849995,None,1217.6860115849995,None,,,,,,,,,,,,,,,,,,,,,,,,,,,,,,,,,,,,,,,,,,,,001,146,2020_Feb_20_1015,spring_faces,3.1.5,60.0023169292479,
condition files/Stage2_2.xlsx,,B5,T5,s,"['s', 'r']","['Stratego', 'Risk']","[-0.15, 0.5]","[0.15, 0.5]",1,1,,,,,,,,,,,,,,,,,0,3,3,3,0,2,2,0,,,,,,,,,,,,,,,,,,,,,,,,,,,,,,,,,,,,,,,,,,,,,,,1219.650773853,None,1219.650773853,None,1219.650773853,None,s,1,2.179242826000518,1221.1844018189995,None,1221.1844018189995,None,1221.1844018189995,None,1223.4182340489997,None,1223.4182340489997,None,1223.4182340489997,None,1223.4182340489997,None,,,,,,,,,,,,,,,,,,,,,,,,,,,,,,,,,,,,,,,,,,,,001,146,2020_Feb_20_1015,spring_faces,3.1.5,60.0023169292479,
condition files/Stage2_2.xlsx,,T6,B6,r,"['s', 'r']","['Stratego', 'Risk']","[-0.15, 0.5]","[0.15, 0.5]",1,1,,,,,,,,,,,,,,,,,0,3,3,3,0,3,3,1,,,,,,,,,,,,,,,,,,,,,,,,,,,,,,,,,,,,,,,,,,,,,,,1225.3842725779996,None,1225.3842725779996,None,1225.3842725779996,None,r,1,3.325956832999509,1226.917777265,None,1226.917777265,None,1226.917777265,None,1230.3180458750003,None,1230.3180458750003,None,1230.3180458750003,None,1230.3180458750003,None,,,,,,,,,,,,,,,,,,,,,,,,,,,,,,,,,,,,,,,,,,,,001,146,2020_Feb_20_1015,spring_faces,3.1.5,60.0023169292479,
condition files/Stage2_2.xlsx,,T4,B4,r,"['s', 'r']","['Stratego', 'Risk']","[-0.15, 0.5]","[0.15, 0.5]",1,1,,,,,,,,,,,,,,,,,0,3,3,3,0,4,4,5,,,,,,,,,,,,,,,,,,,,,,,,,,,,,,,,,,,,,,,,,,,,,,,1232.267273077,None,1232.267273077,None,1232.267273077,None,r,1,1.1302506339998217,1233.8013505930003,None,1233.8013505930003,None,1233.8013505930003,None,1234.9848687920003,None,1234.9848687920003,None,1234.9848687920003,None,1234.9848687920003,None,,,,,,,,,,,,,,,,,,,,,,,,,,,,,,,,,,,,,,,,,,,,001,146,2020_Feb_20_1015,spring_faces,3.1.5,60.0023169292479,
condition files/Stage2_2.xlsx,,B3,T3,s,"['s', 'r']","['Stratego', 'Risk']","[-0.15, 0.5]","[0.15, 0.5]",1,1,,,,,,,,,,,,,,,,,0,3,3,3,0,5,5,4,,,,,,,,,,,,,,,,,,,,,,,,,,,,,,,,,,,,,,,,,,,,,,,1236.9512430989998,None,1236.9512430989998,None,1236.9512430989998,None,s,1,3.791374456000085,1238.4843625610001,None,1238.4843625610001,None,1238.4843625610001,None,1242.3358628879996,None,1242.3358628879996,None,1242.3358628879996,None,1242.3358628879996,None,,,,,,,,,,,,,,,,,,,,,,,,,,,,,,,,,,,,,,,,,,,,001,146,2020_Feb_20_1015,spring_faces,3.1.5,60.0023169292479,
condition files/Stage2_1.xlsx,,T1,B1,s,"['s', 'r']","['Stratego', 'Risk']","[-0.15, 0.5]","[0.15, 0.5]",1,1,,,,,,,,,,,,,,,,,0,4,4,4,0,0,0,2,,,,,,,,,,,,,,,,,,,,,,,,,,,,,,,,,,,,,,,,,,,,,,,1244.3180640439996,None,1244.3180640439996,None,1244.3180640439996,None,r,0,1.2241360480002186,1245.8516038609996,None,1245.8516038609996,None,1245.8516038609996,None,1247.1338981899999,None,1247.1338981899999,None,1247.1338981899999,None,1247.1338981899999,None,,,,,,,,,,,,,,,,,,,,,,,,,,,,,,,,,,,,,,,,,,,,001,146,2020_Feb_20_1015,spring_faces,3.1.5,60.0023169292479,
condition files/Stage2_1.xlsx,,T3,B3,s,"['s', 'r']","['Stratego', 'Risk']","[-0.15, 0.5]","[0.15, 0.5]",1,1,,,,,,,,,,,,,,,,,0,4,4,4,0,1,1,4,,,,,,,,,,,,,,,,,,,,,,,,,,,,,,,,,,,,,,,,,,,,,,,1249.1008809739997,None,1249.1008809739997,None,1249.1008809739997,None,r,0,0.8575190600004134,1250.6342039840001,None,1250.6342039840001,None,1250.6342039840001,None,1251.5516082920003,None,1251.5516082920003,None,1251.5516082920003,None,1251.5516082920003,None,,,,,,,,,,,,,,,,,,,,,,,,,,,,,,,,,,,,,,,,,,,,001,146,2020_Feb_20_1015,spring_faces,3.1.5,60.0023169292479,
condition files/Stage2_1.xlsx,,B6,T6,r,"['s', 'r']","['Stratego', 'Risk']","[-0.15, 0.5]","[0.15, 0.5]",1,1,,,,,,,,,,,,,,,,,0,4,4,4,0,2,2,1,,,,,,,,,,,,,,,,,,,,,,,,,,,,,,,,,,,,,,,,,,,,,,,1253.5180047559998,None,1253.5180047559998,None,1253.5180047559998,None,r,1,0.5686276989999897,1255.0510334290002,None,1255.0510334290002,None,1255.0510334290002,None,1255.6847010539996,None,1255.6847010539996,None,1255.6847010539996,None,1255.6847010539996,None,,,,,,,,,,,,,,,,,,,,,,,,,,,,,,,,,,,,,,,,,,,,001,146,2020_Feb_20_1015,spring_faces,3.1.5,60.0023169292479,
