condsFile,subStage,cue1,cue2,correct,responseKeys,responseNames,cue1Position,cue2Position,cue1Opacity,cue2Opacity,stageLoop0.thisRepN,stageLoop0.thisTrialN,stageLoop0.thisN,stageLoop0.thisIndex,blockLoop0.thisRepN,blockLoop0.thisTrialN,blockLoop0.thisN,blockLoop0.thisIndex,stage1Loop.thisRepN,stage1Loop.thisTrialN,stage1Loop.thisN,stage1Loop.thisIndex,blockLoop1.thisRepN,blockLoop1.thisTrialN,blockLoop1.thisN,blockLoop1.thisIndex,stage2Loop.thisRepN,stage2Loop.thisTrialN,stage2Loop.thisN,stage2Loop.thisIndex,blockLoop2.thisRepN,blockLoop2.thisTrialN,blockLoop2.thisN,blockLoop2.thisIndex,testLoop.thisRepN,testLoop.thisTrialN,testLoop.thisN,testLoop.thisIndex,blockLoopTest.thisRepN,blockLoopTest.thisTrialN,blockLoopTest.thisN,blockLoopTest.thisIndex,cuePics,id_instr_text.started,id_instr_text.stopped,space_to_continue_2.started,space_to_continue_2.stopped,end_instructions_resp_3.keys,end_instructions_resp_3.rt,end_instructions_resp_3.started,end_instructions_resp_3.stopped,id_input_instr.started,id_input_instr.stopped,id_input_rect.started,id_input_rect.stopped,id_input_resp.keys,id_input_resp.rt,id_input_resp.started,id_input_resp.stopped,sonaID,id_input_text.started,id_input_text.stopped,final_text.started,final_text.stopped,instructions.started,instructions.stopped,end_instructions_resp.keys,end_instructions_resp.rt,end_instructions_resp.started,end_instructions_resp.stopped,space_to_continue.started,space_to_continue.stopped,instructions_stage0.started,instructions_stage0.stopped,end_instructions_resp_stage0.keys,end_instructions_resp_stage0.rt,end_instructions_resp_stage0.started,end_instructions_resp_stage0.stopped,space_to_continue_stage0.started,space_to_continue_stage0.stopped,text.started,text.stopped,resp_text1.started,resp_text1.stopped,resp_text2.started,resp_text2.stopped,trial_resp.keys,trial_resp.corr,trial_resp.rt,trial_resp.started,trial_resp.stopped,cue1Image.started,cue1Image.stopped,cue2Image.started,cue2Image.stopped,cue1Image_fb.started,cue1Image_fb.stopped,cue2Image_fb.started,cue2Image_fb.stopped,fb_text_answer.started,fb_text_answer.stopped,feedback_image.started,feedback_image.stopped,instructions_stage1.started,instructions_stage1.stopped,end_instructions_resp_stage1.keys,end_instructions_resp_stage1.rt,end_instructions_resp_stage1.started,end_instructions_resp_stage1.stopped,space_to_continue_stage1.started,space_to_continue_stage1.stopped,instructions_2.started,instructions_2.stopped,end_instructions_resp_2.keys,end_instructions_resp_2.rt,end_instructions_resp_2.started,end_instructions_resp_2.stopped,press_space_to_continue_stage2.started,press_space_to_continue_stage2.stopped,instructions_testStage1.started,instructions_testStage1.stopped,end_instructions_resp_test1.keys,end_instructions_resp_test1.rt,end_instructions_resp_test1.started,end_instructions_resp_test1.stopped,press_space_to_continue_test1.started,press_space_to_continue_test1.stopped,cue1Image_testChoice.started,cue1Image_testChoice.stopped,cue2Image_testChoice.started,cue2Image_testChoice.stopped,test_resp.keys,test_resp.corr,test_resp.rt,test_resp.started,test_resp.stopped,cue1Image_testConf.started,cue1Image_testConf.stopped,cue2Image_testConf.started,cue2Image_testConf.stopped,conf_reminder.started,conf_reminder.stopped,conf_rating.response,conf_rating.rt,conf_rating.started,conf_rating.stopped,session,participant,date,expName,psychopyVersion,frameRate,
,,,,,,,,,,,,,,,,,,,,,,,,,,,,,,,,,,,,,,,,,,,"{'none': 'pictures/20M_AN_C.png', 'alpha': 'pictures/SHINEd_pear.png', 'beta': 'pictures/SHINEd_melon.png', 'theta': 'pictures/SHINEd_pepper.png', 'phi': 'pictures/SHINEd_apple.png', 'T1': 'pictures/34M_AN_C.png', 'T2': 'pictures/31M_AN_C.png', 'T3': 'pictures/33M_AN_C.png', 'T4': 'pictures/23M_AN_C.png', 'T5': 'pictures/38M_AN_C.png', 'T6': 'pictures/32M_AN_C.png', 'B1': 'pictures/37M_NE_C.png', 'B2': 'pictures/36M_NE_C.png', 'B3': 'pictures/25M_NE_C.png', 'B4': 'pictures/20M_NE_C.png', 'B5': 'pictures/26M_NE_C.png', 'B6': 'pictures/22M_NE_C.png'}",308.0547871030012,None,313.0378540670008,None,space,27.157108818999404,313.0378540670008,None,,,,,,,,,,,,,,,,,,,,,,,,,,,,,,,,,,,,,,,,,,,,,,,,,,,,,,,,,,,,,,,,,,,,,,,,,,,,,,,,,,,,,,,,,,,,,,,,001,148,2020_Feb_20_1127,spring_faces,3.1.5,60.02037883915873,
,,,,,,,,,,,,,,,,,,,,,,,,,,,,,,,,,,,,,,,,,,,,,,,,,,,,340.58810496000115,None,340.58810496000115,None,"['0', '6', '2', '5', 'l', 'i', 'backspace', 'backspace', 'l', 'i', 'm', 'o', 'u']","[7.094817392999175, 7.318801153000095, 10.966768762998981, 11.31882002599923, 15.862819799000135, 16.166784392999034, 18.118822147000174, 18.294774308000342, 18.902820710000015, 19.44680603099914, 29.398813067999072, 32.02283761099898, 32.35888621199956]",340.58810496000115,None,,,,,,,,,,,,,,,,,,,,,,,,,,,,,,,,,,,,,,,,,,,,,,,,,,,,,,,,,,,,,,,,,,,,,,,,,,,,,,,,,,,,,,,,001,148,2020_Feb_20_1127,spring_faces,3.1.5,60.02037883915873,
,,,,,,,,,,,,,,,,,,,,,,,,,,,,,,,,,,,,,,,,,,,,,,,,,,,,,,,,,,,,0625limou,340.58810496000115,None,340.58810496000115,None,378.0216329900013,None,space,0.9978689990002749,383.02108455800044,None,,,,,,,,,,,,,,,,,,,,,,,,,,,,,,,,,,,,,,,,,,,,,,,,,,,,,,,,,,,,,,,,,,,,,,,,,,,,,001,148,2020_Feb_20_1127,spring_faces,3.1.5,60.02037883915873,
,,,,,,,,,,,,,,,,,,,,,,,,,,,,,,,,,,,,,,,,,,,,,,,,,,,,,,,,,,,,,,,,,,,,,,,383.02108455800044,None,384.05474756400145,None,space,2.7401150620007684,389.054913123,None,,,,,,,,,,,,,,,,,,,,,,,,,,,,,,,,,,,,,,,,,,,,,,,,,,,,,,,,,,,,,,,,,,,,,001,148,2020_Feb_20_1127,spring_faces,3.1.5,60.02037883915873,
condition files/Stage0a.xlsx,0a,alpha,none,h,"['h', 'g']","['Chess', 'Go']","[0, 0.5]","[0, 0]",1,0,0,0,0,0,0,0,0,0,,,,,,,,,,,,,,,,,,,,,,,,,,,,,,,,,,,,,,,,,,,,,,,,,,,,,,,,,,,,,389.054913123,None,391.8547932350011,None,391.8547932350011,None,391.8547932350011,None,g,0,18.374094494998644,393.42090608299986,None,393.42090608299986,None,393.42090608299986,None,411.87132233900047,None,411.87132233900047,None,411.87132233900047,None,411.87132233900047,None,,,,,,,,,,,,,,,,,,,,,,,,,,,,,,,,,,,,,,,,,,,,001,148,2020_Feb_20_1127,spring_faces,3.1.5,60.02037883915873,
condition files/Stage0a.xlsx,0a,beta,none,g,"['h', 'g']","['Chess', 'Go']","[0, 0.5]","[0, 0]",1,0,0,0,0,0,0,1,1,1,,,,,,,,,,,,,,,,,,,,,,,,,,,,,,,,,,,,,,,,,,,,,,,,,,,,,,,,,,,,,,,413.8203084249999,None,413.8203084249999,None,413.8203084249999,None,g,1,1.286813026001255,415.372127007,None,415.372127007,None,415.372127007,None,416.72131387599984,None,416.72131387599984,None,416.72131387599984,None,416.72131387599984,None,,,,,,,,,,,,,,,,,,,,,,,,,,,,,,,,,,,,,,,,,,,,001,148,2020_Feb_20_1127,spring_faces,3.1.5,60.02037883915873,
condition files/Stage0a.xlsx,0a,beta,none,g,"['h', 'g']","['Chess', 'Go']","[0, 0.5]","[0, 0]",1,0,0,1,1,1,0,0,0,1,,,,,,,,,,,,,,,,,,,,,,,,,,,,,,,,,,,,,,,,,,,,,,,,,,,,,,,,,,,,,,,418.7047853290005,None,418.7047853290005,None,418.7047853290005,None,g,1,0.6284293370008527,420.2385316180007,None,420.2385316180007,None,420.2385316180007,None,420.9213886940015,None,420.9213886940015,None,420.9213886940015,None,420.9213886940015,None,,,,,,,,,,,,,,,,,,,,,,,,,,,,,,,,,,,,,,,,,,,,001,148,2020_Feb_20_1127,spring_faces,3.1.5,60.02037883915873,
condition files/Stage0a.xlsx,0a,alpha,none,h,"['h', 'g']","['Chess', 'Go']","[0, 0.5]","[0, 0]",1,0,0,1,1,1,0,1,1,0,,,,,,,,,,,,,,,,,,,,,,,,,,,,,,,,,,,,,,,,,,,,,,,,,,,,,,,,,,,,,,,422.8875403890015,None,422.8875403890015,None,422.8875403890015,None,g,0,0.6054922469993471,424.42145298000105,None,424.42145298000105,None,424.42145298000105,None,425.0880963540003,None,425.0880963540003,None,425.0880963540003,None,425.0880963540003,None,,,,,,,,,,,,,,,,,,,,,,,,,,,,,,,,,,,,,,,,,,,,001,148,2020_Feb_20_1127,spring_faces,3.1.5,60.02037883915873,
condition files/Stage0a.xlsx,0a,beta,none,g,"['h', 'g']","['Chess', 'Go']","[0, 0.5]","[0, 0]",1,0,0,2,2,2,0,0,0,1,,,,,,,,,,,,,,,,,,,,,,,,,,,,,,,,,,,,,,,,,,,,,,,,,,,,,,,,,,,,,,,427.0713836220002,None,427.0713836220002,None,427.0713836220002,None,g,1,0.7108538470001804,428.6041763150006,None,428.6041763150006,None,428.6041763150006,None,429.37152748300105,None,429.37152748300105,None,429.37152748300105,None,429.37152748300105,None,,,,,,,,,,,,,,,,,,,,,,,,,,,,,,,,,,,,,,,,,,,,001,148,2020_Feb_20_1127,spring_faces,3.1.5,60.02037883915873,
condition files/Stage0a.xlsx,0a,alpha,none,h,"['h', 'g']","['Chess', 'Go']","[0, 0.5]","[0, 0]",1,0,0,2,2,2,0,1,1,0,,,,,,,,,,,,,,,,,,,,,,,,,,,,,,,,,,,,,,,,,,,,,,,,,,,,,,,,,,,,,,,431.33771241900104,None,431.33771241900104,None,431.33771241900104,None,h,1,0.6035660800007463,432.87137080400134,None,432.87137080400134,None,432.87137080400134,None,433.53794450500027,None,433.53794450500027,None,433.53794450500027,None,433.53794450500027,None,,,,,,,,,,,,,,,,,,,,,,,,,,,,,,,,,,,,,,,,,,,,001,148,2020_Feb_20_1127,spring_faces,3.1.5,60.02037883915873,
condition files/Stage0a.xlsx,0a,alpha,none,h,"['h', 'g']","['Chess', 'Go']","[0, 0.5]","[0, 0]",1,0,0,3,3,3,0,0,0,0,,,,,,,,,,,,,,,,,,,,,,,,,,,,,,,,,,,,,,,,,,,,,,,,,,,,,,,,,,,,,,,435.521405468,None,435.521405468,None,435.521405468,None,h,1,0.6117653630008135,437.0551687010011,None,437.0551687010011,None,437.0551687010011,None,437.72072270600074,None,437.72072270600074,None,437.72072270600074,None,437.72072270600074,None,,,,,,,,,,,,,,,,,,,,,,,,,,,,,,,,,,,,,,,,,,,,001,148,2020_Feb_20_1127,spring_faces,3.1.5,60.02037883915873,
condition files/Stage0a.xlsx,0a,beta,none,g,"['h', 'g']","['Chess', 'Go']","[0, 0.5]","[0, 0]",1,0,0,3,3,3,0,1,1,1,,,,,,,,,,,,,,,,,,,,,,,,,,,,,,,,,,,,,,,,,,,,,,,,,,,,,,,,,,,,,,,439.68779236200135,None,439.68779236200135,None,439.68779236200135,None,g,1,0.5414845769992098,441.22151606100124,None,441.22151606100124,None,441.22151606100124,None,441.82161591300064,None,441.82161591300064,None,441.82161591300064,None,441.82161591300064,None,,,,,,,,,,,,,,,,,,,,,,,,,,,,,,,,,,,,,,,,,,,,001,148,2020_Feb_20_1127,spring_faces,3.1.5,60.02037883915873,
condition files/Stage0a.xlsx,0a,beta,none,g,"['h', 'g']","['Chess', 'Go']","[0, 0.5]","[0, 0]",1,0,0,4,4,4,0,0,0,1,,,,,,,,,,,,,,,,,,,,,,,,,,,,,,,,,,,,,,,,,,,,,,,,,,,,,,,,,,,,,,,443.804402699001,None,443.804402699001,None,443.804402699001,None,g,1,0.7454271879996668,445.3375079160014,None,445.3375079160014,None,445.3375079160014,None,446.1380522740001,None,446.1380522740001,None,446.1380522740001,None,446.1380522740001,None,,,,,,,,,,,,,,,,,,,,,,,,,,,,,,,,,,,,,,,,,,,,001,148,2020_Feb_20_1127,spring_faces,3.1.5,60.02037883915873,
condition files/Stage0a.xlsx,0a,alpha,none,h,"['h', 'g']","['Chess', 'Go']","[0, 0.5]","[0, 0]",1,0,0,4,4,4,0,1,1,0,,,,,,,,,,,,,,,,,,,,,,,,,,,,,,,,,,,,,,,,,,,,,,,,,,,,,,,,,,,,,,,448.1043574560008,None,448.1043574560008,None,448.1043574560008,None,h,1,0.6205880749985226,449.6383517869999,None,449.6383517869999,None,449.6383517869999,None,450.3214422260007,None,450.3214422260007,None,450.3214422260007,None,450.3214422260007,None,,,,,,,,,,,,,,,,,,,,,,,,,,,,,,,,,,,,,,,,,,,,001,148,2020_Feb_20_1127,spring_faces,3.1.5,60.02037883915873,
condition files/Stage0a.xlsx,0a,beta,none,g,"['h', 'g']","['Chess', 'Go']","[0, 0.5]","[0, 0]",1,0,0,5,5,5,0,0,0,1,,,,,,,,,,,,,,,,,,,,,,,,,,,,,,,,,,,,,,,,,,,,,,,,,,,,,,,,,,,,,,,452.30481590599993,None,452.30481590599993,None,452.30481590599993,None,g,1,0.5972907850009506,453.8376258600001,None,453.8376258600001,None,453.8376258600001,None,454.48774586000036,None,454.48774586000036,None,454.48774586000036,None,454.48774586000036,None,,,,,,,,,,,,,,,,,,,,,,,,,,,,,,,,,,,,,,,,,,,,001,148,2020_Feb_20_1127,spring_faces,3.1.5,60.02037883915873,
condition files/Stage0a.xlsx,0a,alpha,none,h,"['h', 'g']","['Chess', 'Go']","[0, 0.5]","[0, 0]",1,0,0,5,5,5,0,1,1,0,,,,,,,,,,,,,,,,,,,,,,,,,,,,,,,,,,,,,,,,,,,,,,,,,,,,,,,,,,,,,,,456.4543362530003,None,456.4543362530003,None,456.4543362530003,None,h,1,0.590836560999378,457.98816318900026,None,457.98816318900026,None,457.98816318900026,None,458.63777538900104,None,458.63777538900104,None,458.63777538900104,None,458.63777538900104,None,,,,,,,,,,,,,,,,,,,,,,,,,,,,,,,,,,,,,,,,,,,,001,148,2020_Feb_20_1127,spring_faces,3.1.5,60.02037883915873,
condition files/Stage0b_1.xlsx,0b,alpha,none,h,"['h', 'g']","['Chess', 'Go']","[-0.15, 0.5]","[0.15, 0.5]",1,0,0,6,6,6,0,0,0,0,,,,,,,,,,,,,,,,,,,,,,,,,,,,,,,,,,,,,,,,,,,,,,,,,,,,,,,,,,,,,,,460.62145126500036,None,460.62145126500036,None,460.62145126500036,None,h,1,0.7766687460007233,462.1543212790002,None,462.1543212790002,None,462.1543212790002,None,462.9879039630014,None,462.9879039630014,None,462.9879039630014,None,462.9879039630014,None,,,,,,,,,,,,,,,,,,,,,,,,,,,,,,,,,,,,,,,,,,,,001,148,2020_Feb_20_1127,spring_faces,3.1.5,60.02037883915873,
condition files/Stage0b_1.xlsx,0b,none,beta,g,"['h', 'g']","['Chess', 'Go']","[-0.15, 0.5]","[0.15, 0.5]",0,1,0,6,6,6,0,1,1,1,,,,,,,,,,,,,,,,,,,,,,,,,,,,,,,,,,,,,,,,,,,,,,,,,,,,,,,,,,,,,,,464.9538755350004,None,464.9538755350004,None,464.9538755350004,None,g,1,0.7458621099995071,466.50506969300113,None,466.50506969300113,None,466.50506969300113,None,467.30954579600075,None,467.30954579600075,None,467.30954579600075,None,467.30954579600075,None,,,,,,,,,,,,,,,,,,,,,,,,,,,,,,,,,,,,,,,,,,,,001,148,2020_Feb_20_1127,spring_faces,3.1.5,60.02037883915873,
condition files/Stage0b_2.xlsx,0b,beta,none,g,"['h', 'g']","['Chess', 'Go']","[-0.15, 0.5]","[0.15, 0.5]",1,0,0,7,7,7,0,0,0,1,,,,,,,,,,,,,,,,,,,,,,,,,,,,,,,,,,,,,,,,,,,,,,,,,,,,,,,,,,,,,,,469.28843578000124,None,469.28843578000124,None,469.28843578000124,None,g,1,0.856780362999416,470.8261261360003,None,470.8261261360003,None,470.8261261360003,None,471.737476454,None,471.737476454,None,471.737476454,None,471.737476454,None,,,,,,,,,,,,,,,,,,,,,,,,,,,,,,,,,,,,,,,,,,,,001,148,2020_Feb_20_1127,spring_faces,3.1.5,60.02037883915873,
condition files/Stage0b_2.xlsx,0b,none,alpha,h,"['h', 'g']","['Chess', 'Go']","[-0.15, 0.5]","[0.15, 0.5]",0,1,0,7,7,7,0,1,1,0,,,,,,,,,,,,,,,,,,,,,,,,,,,,,,,,,,,,,,,,,,,,,,,,,,,,,,,,,,,,,,,473.7044318490007,None,473.7044318490007,None,473.7044318490007,None,h,1,0.7935257839999394,475.2413442900015,None,475.2413442900015,None,475.2413442900015,None,476.0901643270008,None,476.0901643270008,None,476.0901643270008,None,476.0901643270008,None,,,,,,,,,,,,,,,,,,,,,,,,,,,,,,,,,,,,,,,,,,,,001,148,2020_Feb_20_1127,spring_faces,3.1.5,60.02037883915873,
condition files/Stage0b_1.xlsx,0b,alpha,none,h,"['h', 'g']","['Chess', 'Go']","[-0.15, 0.5]","[0.15, 0.5]",1,0,0,8,8,8,0,0,0,0,,,,,,,,,,,,,,,,,,,,,,,,,,,,,,,,,,,,,,,,,,,,,,,,,,,,,,,,,,,,,,,478.07155792900085,None,478.07155792900085,None,478.07155792900085,None,h,1,0.8417831729984755,479.6091270420002,None,479.6091270420002,None,479.6091270420002,None,480.5048795060011,None,480.5048795060011,None,480.5048795060011,None,480.5048795060011,None,,,,,,,,,,,,,,,,,,,,,,,,,,,,,,,,,,,,,,,,,,,,001,148,2020_Feb_20_1127,spring_faces,3.1.5,60.02037883915873,
condition files/Stage0b_1.xlsx,0b,none,beta,g,"['h', 'g']","['Chess', 'Go']","[-0.15, 0.5]","[0.15, 0.5]",0,1,0,8,8,8,0,1,1,1,,,,,,,,,,,,,,,,,,,,,,,,,,,,,,,,,,,,,,,,,,,,,,,,,,,,,,,,,,,,,,,482.47111660800147,None,482.47111660800147,None,482.47111660800147,None,g,1,0.5905793719994108,484.004418808001,None,484.004418808001,None,484.004418808001,None,484.65968596899984,None,484.65968596899984,None,484.65968596899984,None,484.65968596899984,None,,,,,,,,,,,,,,,,,,,,,,,,,,,,,,,,,,,,,,,,,,,,001,148,2020_Feb_20_1127,spring_faces,3.1.5,60.02037883915873,
condition files/Stage0b_2.xlsx,0b,beta,none,g,"['h', 'g']","['Chess', 'Go']","[-0.15, 0.5]","[0.15, 0.5]",1,0,0,9,9,9,0,0,0,1,,,,,,,,,,,,,,,,,,,,,,,,,,,,,,,,,,,,,,,,,,,,,,,,,,,,,,,,,,,,,,,486.63800051600083,None,486.63800051600083,None,486.63800051600083,None,g,1,0.596191048000037,488.17476320900096,None,488.17476320900096,None,488.17476320900096,None,488.82146885900147,None,488.82146885900147,None,488.82146885900147,None,488.82146885900147,None,,,,,,,,,,,,,,,,,,,,,,,,,,,,,,,,,,,,,,,,,,,,001,148,2020_Feb_20_1127,spring_faces,3.1.5,60.02037883915873,
condition files/Stage0b_2.xlsx,0b,none,alpha,h,"['h', 'g']","['Chess', 'Go']","[-0.15, 0.5]","[0.15, 0.5]",0,1,0,9,9,9,0,1,1,0,,,,,,,,,,,,,,,,,,,,,,,,,,,,,,,,,,,,,,,,,,,,,,,,,,,,,,,,,,,,,,,490.7874581390006,None,490.7874581390006,None,490.7874581390006,None,h,1,0.5601170680001815,492.32279769399975,None,492.32279769399975,None,492.32279769399975,None,492.954806062,None,492.954806062,None,492.954806062,None,492.954806062,None,,,,,,,,,,,,,,,,,,,,,,,,,,,,,,,,,,,,,,,,,,,,001,148,2020_Feb_20_1127,spring_faces,3.1.5,60.02037883915873,
condition files/Stage0b_1.xlsx,0b,none,beta,g,"['h', 'g']","['Chess', 'Go']","[-0.15, 0.5]","[0.15, 0.5]",0,1,0,10,10,10,0,0,0,1,,,,,,,,,,,,,,,,,,,,,,,,,,,,,,,,,,,,,,,,,,,,,,,,,,,,,,,,,,,,,,,494.9215294630012,None,494.9215294630012,None,494.9215294630012,None,g,1,0.5722334790007153,496.4547272630007,None,496.4547272630007,None,496.4547272630007,None,497.0876494920012,None,497.0876494920012,None,497.0876494920012,None,497.0876494920012,None,,,,,,,,,,,,,,,,,,,,,,,,,,,,,,,,,,,,,,,,,,,,001,148,2020_Feb_20_1127,spring_faces,3.1.5,60.02037883915873,
condition files/Stage0b_1.xlsx,0b,alpha,none,h,"['h', 'g']","['Chess', 'Go']","[-0.15, 0.5]","[0.15, 0.5]",1,0,0,10,10,10,0,1,1,0,,,,,,,,,,,,,,,,,,,,,,,,,,,,,,,,,,,,,,,,,,,,,,,,,,,,,,,,,,,,,,,499.0538825720014,None,499.0538825720014,None,499.0538825720014,None,h,1,1.0433026690006955,500.5915716420004,None,500.5915716420004,None,500.5915716420004,None,501.69233755500136,None,501.69233755500136,None,501.69233755500136,None,501.69233755500136,None,,,,,,,,,,,,,,,,,,,,,,,,,,,,,,,,,,,,,,,,,,,,001,148,2020_Feb_20_1127,spring_faces,3.1.5,60.02037883915873,
condition files/Stage0b_2.xlsx,0b,beta,none,g,"['h', 'g']","['Chess', 'Go']","[-0.15, 0.5]","[0.15, 0.5]",1,0,0,11,11,11,0,0,0,1,,,,,,,,,,,,,,,,,,,,,,,,,,,,,,,,,,,,,,,,,,,,,,,,,,,,,,,,,,,,,,,503.6711435390007,None,503.6711435390007,None,503.6711435390007,None,g,1,0.749245486998916,505.20568481600094,None,505.20568481600094,None,505.20568481600094,None,506.02142621200073,None,506.02142621200073,None,506.02142621200073,None,506.02142621200073,None,,,,,,,,,,,,,,,,,,,,,,,,,,,,,,,,,,,,,,,,,,,,001,148,2020_Feb_20_1127,spring_faces,3.1.5,60.02037883915873,
condition files/Stage0b_2.xlsx,0b,none,alpha,h,"['h', 'g']","['Chess', 'Go']","[-0.15, 0.5]","[0.15, 0.5]",0,1,0,11,11,11,0,1,1,0,,,,,,,,,,,,,,,,,,,,,,,,,,,,,,,,,,,,,,,,,,,,,,,,,,,,,,,,,,,,,,,507.98783310100043,None,507.98783310100043,None,507.98783310100043,None,h,1,0.5752634429991303,509.5236677310004,None,509.5236677310004,None,509.5236677310004,None,510.1580833750013,None,510.1580833750013,None,510.1580833750013,None,510.1580833750013,None,,,,,,,,,,,,,,,,,,,,,,,,,,,,,,,,,,,,,,,,,,,,001,148,2020_Feb_20_1127,spring_faces,3.1.5,60.02037883915873,
condition files/Stage0c_1.xlsx,0c,beta,theta,g,"['h', 'g']","['Chess', 'Go']","[-0.15, 0.5]","[0.15, 0.5]",1,1,0,12,12,12,0,0,0,2,,,,,,,,,,,,,,,,,,,,,,,,,,,,,,,,,,,,,,,,,,,,,,,,,,,,,,,,,,,,,,,512.1374954430012,None,512.1374954430012,None,512.1374954430012,None,g,1,2.1395120170000155,513.6714371870003,None,513.6714371870003,None,513.6714371870003,None,515.8712840570006,None,515.8712840570006,None,515.8712840570006,None,515.8712840570006,None,,,,,,,,,,,,,,,,,,,,,,,,,,,,,,,,,,,,,,,,,,,,001,148,2020_Feb_20_1127,spring_faces,3.1.5,60.02037883915873,
condition files/Stage0c_1.xlsx,0c,phi,beta,g,"['h', 'g']","['Chess', 'Go']","[-0.15, 0.5]","[0.15, 0.5]",1,1,0,12,12,12,0,1,1,3,,,,,,,,,,,,,,,,,,,,,,,,,,,,,,,,,,,,,,,,,,,,,,,,,,,,,,,,,,,,,,,517.8371388220003,None,517.8371388220003,None,517.8371388220003,None,g,1,1.6716112140002224,519.3713352169998,None,519.3713352169998,None,519.3713352169998,None,521.1044194660008,None,521.1044194660008,None,521.1044194660008,None,521.1044194660008,None,,,,,,,,,,,,,,,,,,,,,,,,,,,,,,,,,,,,,,,,,,,,001,148,2020_Feb_20_1127,spring_faces,3.1.5,60.02037883915873,
condition files/Stage0c_1.xlsx,0c,theta,alpha,h,"['h', 'g']","['Chess', 'Go']","[-0.15, 0.5]","[0.15, 0.5]",1,1,0,12,12,12,0,2,2,0,,,,,,,,,,,,,,,,,,,,,,,,,,,,,,,,,,,,,,,,,,,,,,,,,,,,,,,,,,,,,,,523.0716401620011,None,523.0716401620011,None,523.0716401620011,None,h,1,1.3505712449987186,524.6043409940012,None,524.6043409940012,None,524.6043409940012,None,526.0042359580002,None,526.0042359580002,None,526.0042359580002,None,526.0042359580002,None,,,,,,,,,,,,,,,,,,,,,,,,,,,,,,,,,,,,,,,,,,,,001,148,2020_Feb_20_1127,spring_faces,3.1.5,60.02037883915873,
condition files/Stage0c_1.xlsx,0c,alpha,phi,h,"['h', 'g']","['Chess', 'Go']","[-0.15, 0.5]","[0.15, 0.5]",1,1,0,12,12,12,0,3,3,1,,,,,,,,,,,,,,,,,,,,,,,,,,,,,,,,,,,,,,,,,,,,,,,,,,,,,,,,,,,,,,,527.988128682,None,527.988128682,None,527.988128682,None,h,1,0.9783981380005571,529.5045201880002,None,529.5045201880002,None,529.5045201880002,None,530.5226814180005,None,530.5226814180005,None,530.5226814180005,None,530.5226814180005,None,,,,,,,,,,,,,,,,,,,,,,,,,,,,,,,,,,,,,,,,,,,,001,148,2020_Feb_20_1127,spring_faces,3.1.5,60.02037883915873,
condition files/Stage0c_2.xlsx,0c,beta,phi,g,"['h', 'g']","['Chess', 'Go']","[-0.15, 0.5]","[0.15, 0.5]",1,1,0,13,13,13,0,0,0,3,,,,,,,,,,,,,,,,,,,,,,,,,,,,,,,,,,,,,,,,,,,,,,,,,,,,,,,,,,,,,,,532.5213814600011,None,532.5213814600011,None,532.5213814600011,None,g,1,1.1637214299989864,534.0552183420004,None,534.0552183420004,None,534.0552183420004,None,535.2713204510001,None,535.2713204510001,None,535.2713204510001,None,535.2713204510001,None,,,,,,,,,,,,,,,,,,,,,,,,,,,,,,,,,,,,,,,,,,,,001,148,2020_Feb_20_1127,spring_faces,3.1.5,60.02037883915873,
condition files/Stage0c_2.xlsx,0c,theta,beta,g,"['h', 'g']","['Chess', 'Go']","[-0.15, 0.5]","[0.15, 0.5]",1,1,0,13,13,13,0,1,1,2,,,,,,,,,,,,,,,,,,,,,,,,,,,,,,,,,,,,,,,,,,,,,,,,,,,,,,,,,,,,,,,537.2377396480006,None,537.2377396480006,None,537.2377396480006,None,g,1,0.8313834110012976,538.7715481530013,None,538.7715481530013,None,538.7715481530013,None,539.6388988420003,None,539.6388988420003,None,539.6388988420003,None,539.6388988420003,None,,,,,,,,,,,,,,,,,,,,,,,,,,,,,,,,,,,,,,,,,,,,001,148,2020_Feb_20_1127,spring_faces,3.1.5,60.02037883915873,
condition files/Stage0c_2.xlsx,0c,alpha,theta,h,"['h', 'g']","['Chess', 'Go']","[-0.15, 0.5]","[0.15, 0.5]",1,1,0,13,13,13,0,2,2,0,,,,,,,,,,,,,,,,,,,,,,,,,,,,,,,,,,,,,,,,,,,,,,,,,,,,,,,,,,,,,,,541.6230625110002,None,541.6230625110002,None,541.6230625110002,None,h,1,0.7996822750010324,543.1552244800005,None,543.1552244800005,None,543.1552244800005,None,544.007768585001,None,544.007768585001,None,544.007768585001,None,544.007768585001,None,,,,,,,,,,,,,,,,,,,,,,,,,,,,,,,,,,,,,,,,,,,,001,148,2020_Feb_20_1127,spring_faces,3.1.5,60.02037883915873,
condition files/Stage0c_2.xlsx,0c,phi,alpha,h,"['h', 'g']","['Chess', 'Go']","[-0.15, 0.5]","[0.15, 0.5]",1,1,0,13,13,13,0,3,3,1,,,,,,,,,,,,,,,,,,,,,,,,,,,,,,,,,,,,,,,,,,,,,,,,,,,,,,,,,,,,,,,545.9878362020008,None,545.9878362020008,None,545.9878362020008,None,h,1,0.9133529600003385,547.5215133910006,None,547.5215133910006,None,547.5215133910006,None,548.4723230140007,None,548.4723230140007,None,548.4723230140007,None,548.4723230140007,None,,,,,,,,,,,,,,,,,,,,,,,,,,,,,,,,,,,,,,,,,,,,001,148,2020_Feb_20_1127,spring_faces,3.1.5,60.02037883915873,
condition files/Stage0c_1.xlsx,0c,beta,theta,g,"['h', 'g']","['Chess', 'Go']","[-0.15, 0.5]","[0.15, 0.5]",1,1,0,14,14,14,0,0,0,2,,,,,,,,,,,,,,,,,,,,,,,,,,,,,,,,,,,,,,,,,,,,,,,,,,,,,,,,,,,,,,,550.4709664940001,None,550.4709664940001,None,550.4709664940001,None,g,1,0.7821910289985681,552.0047554379998,None,552.0047554379998,None,552.0047554379998,None,552.8378898270003,None,552.8378898270003,None,552.8378898270003,None,552.8378898270003,None,,,,,,,,,,,,,,,,,,,,,,,,,,,,,,,,,,,,,,,,,,,,001,148,2020_Feb_20_1127,spring_faces,3.1.5,60.02037883915873,
condition files/Stage0c_1.xlsx,0c,alpha,phi,h,"['h', 'g']","['Chess', 'Go']","[-0.15, 0.5]","[0.15, 0.5]",1,1,0,14,14,14,0,1,1,1,,,,,,,,,,,,,,,,,,,,,,,,,,,,,,,,,,,,,,,,,,,,,,,,,,,,,,,,,,,,,,,554.8044031610007,None,554.8044031610007,None,554.8044031610007,None,h,1,0.6406782989997737,556.3383211130003,None,556.3383211130003,None,556.3383211130003,None,557.0377676250009,None,557.0377676250009,None,557.0377676250009,None,557.0377676250009,None,,,,,,,,,,,,,,,,,,,,,,,,,,,,,,,,,,,,,,,,,,,,001,148,2020_Feb_20_1127,spring_faces,3.1.5,60.02037883915873,
condition files/Stage0c_1.xlsx,0c,phi,beta,g,"['h', 'g']","['Chess', 'Go']","[-0.15, 0.5]","[0.15, 0.5]",1,1,0,14,14,14,0,2,2,3,,,,,,,,,,,,,,,,,,,,,,,,,,,,,,,,,,,,,,,,,,,,,,,,,,,,,,,,,,,,,,,559.0043494330002,None,559.0043494330002,None,559.0043494330002,None,g,1,0.9368163260005531,560.5381270480011,None,560.5381270480011,None,560.5381270480011,None,561.5374376529999,None,561.5374376529999,None,561.5374376529999,None,561.5374376529999,None,,,,,,,,,,,,,,,,,,,,,,,,,,,,,,,,,,,,,,,,,,,,001,148,2020_Feb_20_1127,spring_faces,3.1.5,60.02037883915873,
condition files/Stage0c_1.xlsx,0c,theta,alpha,h,"['h', 'g']","['Chess', 'Go']","[-0.15, 0.5]","[0.15, 0.5]",1,1,0,14,14,14,0,3,3,0,,,,,,,,,,,,,,,,,,,,,,,,,,,,,,,,,,,,,,,,,,,,,,,,,,,,,,,,,,,,,,,563.5051590540006,None,563.5051590540006,None,563.5051590540006,None,h,1,0.6127598179991764,565.0381887809999,None,565.0381887809999,None,565.0381887809999,None,565.704850999,None,565.704850999,None,565.704850999,None,565.704850999,None,,,,,,,,,,,,,,,,,,,,,,,,,,,,,,,,,,,,,,,,,,,,001,148,2020_Feb_20_1127,spring_faces,3.1.5,60.02037883915873,
condition files/Stage0c_2.xlsx,0c,theta,beta,g,"['h', 'g']","['Chess', 'Go']","[-0.15, 0.5]","[0.15, 0.5]",1,1,0,15,15,15,0,0,0,2,,,,,,,,,,,,,,,,,,,,,,,,,,,,,,,,,,,,,,,,,,,,,,,,,,,,,,,,,,,,,,,567.6884394509998,None,567.6884394509998,None,567.6884394509998,None,g,1,0.653715608001221,569.2212409610001,None,569.2212409610001,None,569.2212409610001,None,569.9384182320009,None,569.9384182320009,None,569.9384182320009,None,569.9384182320009,None,,,,,,,,,,,,,,,,,,,,,,,,,,,,,,,,,,,,,,,,,,,,001,148,2020_Feb_20_1127,spring_faces,3.1.5,60.02037883915873,
condition files/Stage0c_2.xlsx,0c,phi,alpha,h,"['h', 'g']","['Chess', 'Go']","[-0.15, 0.5]","[0.15, 0.5]",1,1,0,15,15,15,0,1,1,1,,,,,,,,,,,,,,,,,,,,,,,,,,,,,,,,,,,,,,,,,,,,,,,,,,,,,,,,,,,,,,,571.9042573320003,None,571.9042573320003,None,571.9042573320003,None,h,1,0.6134833739997703,573.4374556390012,None,573.4374556390012,None,573.4374556390012,None,574.1045090080006,None,574.1045090080006,None,574.1045090080006,None,574.1045090080006,None,,,,,,,,,,,,,,,,,,,,,,,,,,,,,,,,,,,,,,,,,,,,001,148,2020_Feb_20_1127,spring_faces,3.1.5,60.02037883915873,
condition files/Stage0c_2.xlsx,0c,alpha,theta,h,"['h', 'g']","['Chess', 'Go']","[-0.15, 0.5]","[0.15, 0.5]",1,1,0,15,15,15,0,2,2,0,,,,,,,,,,,,,,,,,,,,,,,,,,,,,,,,,,,,,,,,,,,,,,,,,,,,,,,,,,,,,,,576.0714136590013,None,576.0714136590013,None,576.0714136590013,None,h,1,0.7498392239995155,577.6050535490012,None,577.6050535490012,None,577.6050535490012,None,578.4044737820004,None,578.4044737820004,None,578.4044737820004,None,578.4044737820004,None,,,,,,,,,,,,,,,,,,,,,,,,,,,,,,,,,,,,,,,,,,,,001,148,2020_Feb_20_1127,spring_faces,3.1.5,60.02037883915873,
condition files/Stage0c_2.xlsx,0c,beta,phi,g,"['h', 'g']","['Chess', 'Go']","[-0.15, 0.5]","[0.15, 0.5]",1,1,0,15,15,15,0,3,3,3,,,,,,,,,,,,,,,,,,,,,,,,,,,,,,,,,,,,,,,,,,,,,,,,,,,,,,,,,,,,,,,580.3878192350003,None,580.3878192350003,None,580.3878192350003,None,g,1,0.9137948220013641,581.9211082460006,None,581.9211082460006,None,581.9211082460006,None,582.8877028830011,None,582.8877028830011,None,582.8877028830011,None,582.8877028830011,None,,,,,,,,,,,,,,,,,,,,,,,,,,,,,,,,,,,,,,,,,,,,001,148,2020_Feb_20_1127,spring_faces,3.1.5,60.02037883915873,
condition files/Stage0c_1.xlsx,0c,phi,beta,g,"['h', 'g']","['Chess', 'Go']","[-0.15, 0.5]","[0.15, 0.5]",1,1,0,16,16,16,0,0,0,3,,,,,,,,,,,,,,,,,,,,,,,,,,,,,,,,,,,,,,,,,,,,,,,,,,,,,,,,,,,,,,,584.8715777350008,None,584.8715777350008,None,584.8715777350008,None,g,1,0.8141041649996623,586.4048400500014,None,586.4048400500014,None,586.4048400500014,None,587.256677333,None,587.256677333,None,587.256677333,None,587.256677333,None,,,,,,,,,,,,,,,,,,,,,,,,,,,,,,,,,,,,,,,,,,,,001,148,2020_Feb_20_1127,spring_faces,3.1.5,60.02037883915873,
condition files/Stage0c_1.xlsx,0c,theta,alpha,h,"['h', 'g']","['Chess', 'Go']","[-0.15, 0.5]","[0.15, 0.5]",1,1,0,16,16,16,0,1,1,0,,,,,,,,,,,,,,,,,,,,,,,,,,,,,,,,,,,,,,,,,,,,,,,,,,,,,,,,,,,,,,,589.2379425590007,None,589.2379425590007,None,589.2379425590007,None,h,1,0.7034557059996587,590.7714840160006,None,590.7714840160006,None,590.7714840160006,None,591.5375952440008,None,591.5375952440008,None,591.5375952440008,None,591.5375952440008,None,,,,,,,,,,,,,,,,,,,,,,,,,,,,,,,,,,,,,,,,,,,,001,148,2020_Feb_20_1127,spring_faces,3.1.5,60.02037883915873,
condition files/Stage0c_1.xlsx,0c,beta,theta,g,"['h', 'g']","['Chess', 'Go']","[-0.15, 0.5]","[0.15, 0.5]",1,1,0,16,16,16,0,2,2,2,,,,,,,,,,,,,,,,,,,,,,,,,,,,,,,,,,,,,,,,,,,,,,,,,,,,,,,,,,,,,,,593.5044866040007,None,593.5044866040007,None,593.5044866040007,None,g,1,0.5811955290009791,595.0377428910015,None,595.0377428910015,None,595.0377428910015,None,595.6715287759998,None,595.6715287759998,None,595.6715287759998,None,595.6715287759998,None,,,,,,,,,,,,,,,,,,,,,,,,,,,,,,,,,,,,,,,,,,,,001,148,2020_Feb_20_1127,spring_faces,3.1.5,60.02037883915873,
condition files/Stage0c_1.xlsx,0c,alpha,phi,h,"['h', 'g']","['Chess', 'Go']","[-0.15, 0.5]","[0.15, 0.5]",1,1,0,16,16,16,0,3,3,1,,,,,,,,,,,,,,,,,,,,,,,,,,,,,,,,,,,,,,,,,,,,,,,,,,,,,,,,,,,,,,,597.6376322230008,None,597.6376322230008,None,597.6376322230008,None,h,1,0.6396459349998622,599.1712900310013,None,599.1712900310013,None,599.1712900310013,None,599.8714905420002,None,599.8714905420002,None,599.8714905420002,None,599.8714905420002,None,,,,,,,,,,,,,,,,,,,,,,,,,,,,,,,,,,,,,,,,,,,,001,148,2020_Feb_20_1127,spring_faces,3.1.5,60.02037883915873,
condition files/Stage0c_2.xlsx,0c,alpha,theta,h,"['h', 'g']","['Chess', 'Go']","[-0.15, 0.5]","[0.15, 0.5]",1,1,0,17,17,17,0,0,0,0,,,,,,,,,,,,,,,,,,,,,,,,,,,,,,,,,,,,,,,,,,,,,,,,,,,,,,,,,,,,,,,601.8548366499999,None,601.8548366499999,None,601.8548366499999,None,h,1,0.82266687900119,603.3882857799999,None,603.3882857799999,None,603.3882857799999,None,604.2571087570013,None,604.2571087570013,None,604.2571087570013,None,604.2571087570013,None,,,,,,,,,,,,,,,,,,,,,,,,,,,,,,,,,,,,,,,,,,,,001,148,2020_Feb_20_1127,spring_faces,3.1.5,60.02037883915873,
condition files/Stage0c_2.xlsx,0c,theta,beta,g,"['h', 'g']","['Chess', 'Go']","[-0.15, 0.5]","[0.15, 0.5]",1,1,0,17,17,17,0,1,1,2,,,,,,,,,,,,,,,,,,,,,,,,,,,,,,,,,,,,,,,,,,,,,,,,,,,,,,,,,,,,,,,606.2373456679998,None,606.2373456679998,None,606.2373456679998,None,g,1,0.7757127259992558,607.7713257920004,None,607.7713257920004,None,607.7713257920004,None,608.6047802920002,None,608.6047802920002,None,608.6047802920002,None,608.6047802920002,None,,,,,,,,,,,,,,,,,,,,,,,,,,,,,,,,,,,,,,,,,,,,001,148,2020_Feb_20_1127,spring_faces,3.1.5,60.02037883915873,
condition files/Stage0c_2.xlsx,0c,phi,alpha,h,"['h', 'g']","['Chess', 'Go']","[-0.15, 0.5]","[0.15, 0.5]",1,1,0,17,17,17,0,2,2,1,,,,,,,,,,,,,,,,,,,,,,,,,,,,,,,,,,,,,,,,,,,,,,,,,,,,,,,,,,,,,,,610.5711065610012,None,610.5711065610012,None,610.5711065610012,None,h,1,0.6022034020006686,612.104735369001,None,612.104735369001,None,612.104735369001,None,612.7714021259999,None,612.7714021259999,None,612.7714021259999,None,612.7714021259999,None,,,,,,,,,,,,,,,,,,,,,,,,,,,,,,,,,,,,,,,,,,,,001,148,2020_Feb_20_1127,spring_faces,3.1.5,60.02037883915873,
condition files/Stage0c_2.xlsx,0c,beta,phi,g,"['h', 'g']","['Chess', 'Go']","[-0.15, 0.5]","[0.15, 0.5]",1,1,0,17,17,17,0,3,3,3,,,,,,,,,,,,,,,,,,,,,,,,,,,,,,,,,,,,,,,,,,,,,,,,,,,,,,,,,,,,,,,614.7378255350013,None,614.7378255350013,None,614.7378255350013,None,g,1,0.7714273809997394,616.2715184480003,None,616.2715184480003,None,616.2715184480003,None,617.1047208130003,None,617.1047208130003,None,617.1047208130003,None,617.1047208130003,None,,,,,,,,,,,,,,,,,,,,,,,,,,,,,,,,,,,,,,,,,,,,001,148,2020_Feb_20_1127,spring_faces,3.1.5,60.02037883915873,
,,,,,,,,,,,,,,,,,,,,,,,,,,,,,,,,,,,,,,,,,,,,,,,,,,,,,,,,,,,,,,,,,,,,,,,,,,,,,,,,,,,,,,,,,,,,,,,,,,,,,,,,619.0881389840015,None,space,2.8274095590004436,624.0876116159998,None,,,,,,,,,,,,,,,,,,,,,,,,,,,,,,,,,,,,,,001,148,2020_Feb_20_1127,spring_faces,3.1.5,60.02037883915873,
condition files/Stage1_1.xlsx,,B2,T1,m,"['c', 'm']","['Clue', 'Monopoly']","[-0.15, 0.5]","[0.15, 0.5]",1,1,,,,,,,,,0,0,0,0,0,0,0,2,,,,,,,,,,,,,,,,,,,,,,,,,,,,,,,,,,,,,,,,,,,,,,,,,,,,,,,626.9710197060012,None,626.9710197060012,None,626.9710197060012,None,m,1,3.3697781350001605,628.5051732930006,None,628.5051732930006,None,628.5051732930006,None,631.9543515000005,None,631.9543515000005,None,631.9543515000005,None,631.9543515000005,None,,,,,,,624.0876116159998,None,,,,,,,,,,,,,,,,,,,,,,,,,,,,,,,,,,,,001,148,2020_Feb_20_1127,spring_faces,3.1.5,60.02037883915873,
condition files/Stage1_1.xlsx,,T1,B1,c,"['c', 'm']","['Clue', 'Monopoly']","[-0.15, 0.5]","[0.15, 0.5]",1,1,,,,,,,,,0,0,0,0,0,1,1,0,,,,,,,,,,,,,,,,,,,,,,,,,,,,,,,,,,,,,,,,,,,,,,,,,,,,,,,633.9045464850005,None,633.9045464850005,None,633.9045464850005,None,m,0,0.7081515930003661,635.4388814030008,None,635.4388814030008,None,635.4388814030008,None,636.2211776310014,None,636.2211776310014,None,636.2211776310014,None,636.2211776310014,None,,,,,,,,,,,,,,,,,,,,,,,,,,,,,,,,,,,,,,,,,,,,001,148,2020_Feb_20_1127,spring_faces,3.1.5,60.02037883915873,
condition files/Stage1_1.xlsx,,T3,B4,c,"['c', 'm']","['Clue', 'Monopoly']","[-0.15, 0.5]","[0.15, 0.5]",1,1,,,,,,,,,0,0,0,0,0,2,2,5,,,,,,,,,,,,,,,,,,,,,,,,,,,,,,,,,,,,,,,,,,,,,,,,,,,,,,,638.1711802230002,None,638.1711802230002,None,638.1711802230002,None,c,1,1.624367626998719,639.7546398160011,None,639.7546398160011,None,639.7546398160011,None,641.4379990859998,None,641.4379990859998,None,641.4379990859998,None,641.4379990859998,None,,,,,,,,,,,,,,,,,,,,,,,,,,,,,,,,,,,,,,,,,,,,001,148,2020_Feb_20_1127,spring_faces,3.1.5,60.02037883915873,
condition files/Stage1_1.xlsx,,B1,T2,c,"['c', 'm']","['Clue', 'Monopoly']","[-0.15, 0.5]","[0.15, 0.5]",1,1,,,,,,,,,0,0,0,0,0,3,3,1,,,,,,,,,,,,,,,,,,,,,,,,,,,,,,,,,,,,,,,,,,,,,,,,,,,,,,,643.4048656520008,None,643.4048656520008,None,643.4048656520008,None,m,0,1.7686072640008206,644.9543394970005,None,644.9543394970005,None,644.9543394970005,None,646.787967712,None,646.787967712,None,646.787967712,None,646.787967712,None,,,,,,,,,,,,,,,,,,,,,,,,,,,,,,,,,,,,,,,,,,,,001,148,2020_Feb_20_1127,spring_faces,3.1.5,60.02037883915873,
condition files/Stage1_1.xlsx,,T2,B2,m,"['c', 'm']","['Clue', 'Monopoly']","[-0.15, 0.5]","[0.15, 0.5]",1,1,,,,,,,,,0,0,0,0,0,4,4,3,,,,,,,,,,,,,,,,,,,,,,,,,,,,,,,,,,,,,,,,,,,,,,,,,,,,,,,648.7541979200014,None,648.7541979200014,None,648.7541979200014,None,c,0,1.2024576149997301,650.2885012080005,None,650.2885012080005,None,650.2885012080005,None,651.5557648110007,None,651.5557648110007,None,651.5557648110007,None,651.5557648110007,None,,,,,,,,,,,,,,,,,,,,,,,,,,,,,,,,,,,,,,,,,,,,001,148,2020_Feb_20_1127,spring_faces,3.1.5,60.02037883915873,
condition files/Stage1_1.xlsx,,B4,T4,m,"['c', 'm']","['Clue', 'Monopoly']","[-0.15, 0.5]","[0.15, 0.5]",1,1,,,,,,,,,0,0,0,0,0,5,5,7,,,,,,,,,,,,,,,,,,,,,,,,,,,,,,,,,,,,,,,,,,,,,,,,,,,,,,,653.5214846340004,None,653.5214846340004,None,653.5214846340004,None,c,0,2.180278249001276,655.0546608380009,None,655.0546608380009,None,655.0546608380009,None,657.2879133040005,None,657.2879133040005,None,657.2879133040005,None,657.2879133040005,None,,,,,,,,,,,,,,,,,,,,,,,,,,,,,,,,,,,,,,,,,,,,001,148,2020_Feb_20_1127,spring_faces,3.1.5,60.02037883915873,
condition files/Stage1_1.xlsx,,T4,B3,m,"['c', 'm']","['Clue', 'Monopoly']","[-0.15, 0.5]","[0.15, 0.5]",1,1,,,,,,,,,0,0,0,0,0,6,6,6,,,,,,,,,,,,,,,,,,,,,,,,,,,,,,,,,,,,,,,,,,,,,,,,,,,,,,,659.2554273639998,None,659.2554273639998,None,659.2554273639998,None,m,1,1.6289432299981854,660.7900496270013,None,660.7900496270013,None,660.7900496270013,None,662.4716512200011,None,662.4716512200011,None,662.4716512200011,None,662.4716512200011,None,,,,,,,,,,,,,,,,,,,,,,,,,,,,,,,,,,,,,,,,,,,,001,148,2020_Feb_20_1127,spring_faces,3.1.5,60.02037883915873,
condition files/Stage1_1.xlsx,,B3,T3,c,"['c', 'm']","['Clue', 'Monopoly']","[-0.15, 0.5]","[0.15, 0.5]",1,1,,,,,,,,,0,0,0,0,0,7,7,4,,,,,,,,,,,,,,,,,,,,,,,,,,,,,,,,,,,,,,,,,,,,,,,,,,,,,,,664.4379603130001,None,664.4379603130001,None,664.4379603130001,None,c,1,2.080469709000681,665.9704895270006,None,665.9704895270006,None,665.9704895270006,None,668.103773107001,None,668.103773107001,None,668.103773107001,None,668.103773107001,None,,,,,,,,,,,,,,,,,,,,,,,,,,,,,,,,,,,,,,,,,,,,001,148,2020_Feb_20_1127,spring_faces,3.1.5,60.02037883915873,
condition files/Stage1_2.xlsx,,B3,T4,m,"['c', 'm']","['Clue', 'Monopoly']","[-0.15, 0.5]","[0.15, 0.5]",1,1,,,,,,,,,0,1,1,1,0,0,0,6,,,,,,,,,,,,,,,,,,,,,,,,,,,,,,,,,,,,,,,,,,,,,,,,,,,,,,,670.0880646630012,None,670.0880646630012,None,670.0880646630012,None,c,0,1.133598800000982,671.6213407800005,None,671.6213407800005,None,671.6213407800005,None,672.8214023580003,None,672.8214023580003,None,672.8214023580003,None,672.8214023580003,None,,,,,,,,,,,,,,,,,,,,,,,,,,,,,,,,,,,,,,,,,,,,001,148,2020_Feb_20_1127,spring_faces,3.1.5,60.02037883915873,
condition files/Stage1_2.xlsx,,T1,B2,m,"['c', 'm']","['Clue', 'Monopoly']","[-0.15, 0.5]","[0.15, 0.5]",1,1,,,,,,,,,0,1,1,1,0,1,1,2,,,,,,,,,,,,,,,,,,,,,,,,,,,,,,,,,,,,,,,,,,,,,,,,,,,,,,,674.7710379750006,None,674.7710379750006,None,674.7710379750006,None,m,1,1.2321509409994178,676.3067270380016,None,676.3067270380016,None,676.3067270380016,None,677.6049227330004,None,677.6049227330004,None,677.6049227330004,None,677.6049227330004,None,,,,,,,,,,,,,,,,,,,,,,,,,,,,,,,,,,,,,,,,,,,,001,148,2020_Feb_20_1127,spring_faces,3.1.5,60.02037883915873,
condition files/Stage1_2.xlsx,,T3,B3,c,"['c', 'm']","['Clue', 'Monopoly']","[-0.15, 0.5]","[0.15, 0.5]",1,1,,,,,,,,,0,1,1,1,0,2,2,4,,,,,,,,,,,,,,,,,,,,,,,,,,,,,,,,,,,,,,,,,,,,,,,,,,,,,,,679.5708931000008,None,679.5708931000008,None,679.5708931000008,None,c,1,3.7626994629990804,681.1042150829999,None,681.1042150829999,None,681.1042150829999,None,684.9228386880004,None,684.9228386880004,None,684.9228386880004,None,684.9228386880004,None,,,,,,,,,,,,,,,,,,,,,,,,,,,,,,,,,,,,,,,,,,,,001,148,2020_Feb_20_1127,spring_faces,3.1.5,60.02037883915873,
condition files/Stage1_2.xlsx,,T4,B4,m,"['c', 'm']","['Clue', 'Monopoly']","[-0.15, 0.5]","[0.15, 0.5]",1,1,,,,,,,,,0,1,1,1,0,3,3,7,,,,,,,,,,,,,,,,,,,,,,,,,,,,,,,,,,,,,,,,,,,,,,,,,,,,,,,686.8875166270009,None,686.8875166270009,None,686.8875166270009,None,c,0,1.149460670998451,688.4214906640009,None,688.4214906640009,None,688.4214906640009,None,689.6381927720013,None,689.6381927720013,None,689.6381927720013,None,689.6381927720013,None,,,,,,,,,,,,,,,,,,,,,,,,,,,,,,,,,,,,,,,,,,,,001,148,2020_Feb_20_1127,spring_faces,3.1.5,60.02037883915873,
condition files/Stage1_2.xlsx,,B4,T3,c,"['c', 'm']","['Clue', 'Monopoly']","[-0.15, 0.5]","[0.15, 0.5]",1,1,,,,,,,,,0,1,1,1,0,4,4,5,,,,,,,,,,,,,,,,,,,,,,,,,,,,,,,,,,,,,,,,,,,,,,,,,,,,,,,691.5875095230003,None,691.5875095230003,None,691.5875095230003,None,c,1,1.6008616400013125,693.1220943500011,None,693.1220943500011,None,693.1220943500011,None,694.7874650490012,None,694.7874650490012,None,694.7874650490012,None,694.7874650490012,None,,,,,,,,,,,,,,,,,,,,,,,,,,,,,,,,,,,,,,,,,,,,001,148,2020_Feb_20_1127,spring_faces,3.1.5,60.02037883915873,
condition files/Stage1_2.xlsx,,B1,T1,c,"['c', 'm']","['Clue', 'Monopoly']","[-0.15, 0.5]","[0.15, 0.5]",1,1,,,,,,,,,0,1,1,1,0,5,5,0,,,,,,,,,,,,,,,,,,,,,,,,,,,,,,,,,,,,,,,,,,,,,,,,,,,,,,,696.7544427970006,None,696.7544427970006,None,696.7544427970006,None,m,0,1.7303122210014408,698.2886399390009,None,698.2886399390009,None,698.2886399390009,None,700.0717514900007,None,700.0717514900007,None,700.0717514900007,None,700.0717514900007,None,,,,,,,,,,,,,,,,,,,,,,,,,,,,,,,,,,,,,,,,,,,,001,148,2020_Feb_20_1127,spring_faces,3.1.5,60.02037883915873,
condition files/Stage1_2.xlsx,,T2,B1,c,"['c', 'm']","['Clue', 'Monopoly']","[-0.15, 0.5]","[0.15, 0.5]",1,1,,,,,,,,,0,1,1,1,0,6,6,1,,,,,,,,,,,,,,,,,,,,,,,,,,,,,,,,,,,,,,,,,,,,,,,,,,,,,,,702.037825804,None,702.037825804,None,702.037825804,None,m,0,1.246298926000236,703.5726448900004,None,703.5726448900004,None,703.5726448900004,None,704.8708871079998,None,704.8708871079998,None,704.8708871079998,None,704.8708871079998,None,,,,,,,,,,,,,,,,,,,,,,,,,,,,,,,,,,,,,,,,,,,,001,148,2020_Feb_20_1127,spring_faces,3.1.5,60.02037883915873,
condition files/Stage1_2.xlsx,,B2,T2,m,"['c', 'm']","['Clue', 'Monopoly']","[-0.15, 0.5]","[0.15, 0.5]",1,1,,,,,,,,,0,1,1,1,0,7,7,3,,,,,,,,,,,,,,,,,,,,,,,,,,,,,,,,,,,,,,,,,,,,,,,,,,,,,,,706.8376473919998,None,706.8376473919998,None,706.8376473919998,None,m,1,1.1824825509993389,708.3724235910013,None,708.3724235910013,None,708.3724235910013,None,709.623785052001,None,709.623785052001,None,709.623785052001,None,709.623785052001,None,,,,,,,,,,,,,,,,,,,,,,,,,,,,,,,,,,,,,,,,,,,,001,148,2020_Feb_20_1127,spring_faces,3.1.5,60.02037883915873,
condition files/Stage1_1.xlsx,,T4,B3,m,"['c', 'm']","['Clue', 'Monopoly']","[-0.15, 0.5]","[0.15, 0.5]",1,1,,,,,,,,,0,2,2,2,0,0,0,6,,,,,,,,,,,,,,,,,,,,,,,,,,,,,,,,,,,,,,,,,,,,,,,,,,,,,,,711.6046680979998,None,711.6046680979998,None,711.6046680979998,None,m,1,4.847432448999825,713.1395104820003,None,713.1395104820003,None,713.1395104820003,None,718.0382616000006,None,718.0382616000006,None,718.0382616000006,None,718.0382616000006,None,,,,,,,,,,,,,,,,,,,,,,,,,,,,,,,,,,,,,,,,,,,,001,148,2020_Feb_20_1127,spring_faces,3.1.5,60.02037883915873,
condition files/Stage1_1.xlsx,,T2,B2,m,"['c', 'm']","['Clue', 'Monopoly']","[-0.15, 0.5]","[0.15, 0.5]",1,1,,,,,,,,,0,2,2,2,0,1,1,3,,,,,,,,,,,,,,,,,,,,,,,,,,,,,,,,,,,,,,,,,,,,,,,,,,,,,,,720.0043476480005,None,720.0043476480005,None,720.0043476480005,None,m,1,2.5758074050008872,721.5391857020004,None,721.5391857020004,None,721.5391857020004,None,724.1713855160015,None,724.1713855160015,None,724.1713855160015,None,724.1713855160015,None,,,,,,,,,,,,,,,,,,,,,,,,,,,,,,,,,,,,,,,,,,,,001,148,2020_Feb_20_1127,spring_faces,3.1.5,60.02037883915873,
condition files/Stage1_1.xlsx,,B1,T2,c,"['c', 'm']","['Clue', 'Monopoly']","[-0.15, 0.5]","[0.15, 0.5]",1,1,,,,,,,,,0,2,2,2,0,2,2,1,,,,,,,,,,,,,,,,,,,,,,,,,,,,,,,,,,,,,,,,,,,,,,,,,,,,,,,726.1379822310009,None,726.1379822310009,None,726.1379822310009,None,c,1,1.0831405590015493,727.6717726690003,None,727.6717726690003,None,727.6717726690003,None,728.8228778910016,None,728.8228778910016,None,728.8228778910016,None,728.8228778910016,None,,,,,,,,,,,,,,,,,,,,,,,,,,,,,,,,,,,,,,,,,,,,001,148,2020_Feb_20_1127,spring_faces,3.1.5,60.02037883915873,
condition files/Stage1_1.xlsx,,T3,B4,c,"['c', 'm']","['Clue', 'Monopoly']","[-0.15, 0.5]","[0.15, 0.5]",1,1,,,,,,,,,0,2,2,2,0,3,3,5,,,,,,,,,,,,,,,,,,,,,,,,,,,,,,,,,,,,,,,,,,,,,,,,,,,,,,,730.7874807480002,None,730.7874807480002,None,730.7874807480002,None,c,1,2.1128536900014296,732.3380997200002,None,732.3380997200002,None,732.3380997200002,None,734.5050952140009,None,734.5050952140009,None,734.5050952140009,None,734.5050952140009,None,,,,,,,,,,,,,,,,,,,,,,,,,,,,,,,,,,,,,,,,,,,,001,148,2020_Feb_20_1127,spring_faces,3.1.5,60.02037883915873,
condition files/Stage1_1.xlsx,,B4,T4,m,"['c', 'm']","['Clue', 'Monopoly']","[-0.15, 0.5]","[0.15, 0.5]",1,1,,,,,,,,,0,2,2,2,0,4,4,7,,,,,,,,,,,,,,,,,,,,,,,,,,,,,,,,,,,,,,,,,,,,,,,,,,,,,,,736.471220622001,None,736.471220622001,None,736.471220622001,None,m,1,1.580914906999169,738.0060220490013,None,738.0060220490013,None,738.0060220490013,None,739.6546133230004,None,739.6546133230004,None,739.6546133230004,None,739.6546133230004,None,,,,,,,,,,,,,,,,,,,,,,,,,,,,,,,,,,,,,,,,,,,,001,148,2020_Feb_20_1127,spring_faces,3.1.5,60.02037883915873,
condition files/Stage1_1.xlsx,,T1,B1,c,"['c', 'm']","['Clue', 'Monopoly']","[-0.15, 0.5]","[0.15, 0.5]",1,1,,,,,,,,,0,2,2,2,0,5,5,0,,,,,,,,,,,,,,,,,,,,,,,,,,,,,,,,,,,,,,,,,,,,,,,,,,,,,,,741.604446022,None,741.604446022,None,741.604446022,None,c,1,1.7119348070009437,743.1389994239998,None,743.1389994239998,None,743.1389994239998,None,744.9055592280001,None,744.9055592280001,None,744.9055592280001,None,744.9055592280001,None,,,,,,,,,,,,,,,,,,,,,,,,,,,,,,,,,,,,,,,,,,,,001,148,2020_Feb_20_1127,spring_faces,3.1.5,60.02037883915873,
condition files/Stage1_1.xlsx,,B3,T3,c,"['c', 'm']","['Clue', 'Monopoly']","[-0.15, 0.5]","[0.15, 0.5]",1,1,,,,,,,,,0,2,2,2,0,6,6,4,,,,,,,,,,,,,,,,,,,,,,,,,,,,,,,,,,,,,,,,,,,,,,,,,,,,,,,746.8706603530009,None,746.8706603530009,None,746.8706603530009,None,c,1,2.1406610280009772,748.4063544700002,None,748.4063544700002,None,748.4063544700002,None,750.6045350370005,None,750.6045350370005,None,750.6045350370005,None,750.6045350370005,None,,,,,,,,,,,,,,,,,,,,,,,,,,,,,,,,,,,,,,,,,,,,001,148,2020_Feb_20_1127,spring_faces,3.1.5,60.02037883915873,
condition files/Stage1_1.xlsx,,B2,T1,m,"['c', 'm']","['Clue', 'Monopoly']","[-0.15, 0.5]","[0.15, 0.5]",1,1,,,,,,,,,0,2,2,2,0,7,7,2,,,,,,,,,,,,,,,,,,,,,,,,,,,,,,,,,,,,,,,,,,,,,,,,,,,,,,,752.5715322840006,None,752.5715322840006,None,752.5715322840006,None,m,1,1.0170837290006602,754.1058690620011,None,754.1058690620011,None,754.1058690620011,None,755.187637717001,None,755.187637717001,None,755.187637717001,None,755.187637717001,None,,,,,,,,,,,,,,,,,,,,,,,,,,,,,,,,,,,,,,,,,,,,001,148,2020_Feb_20_1127,spring_faces,3.1.5,60.02037883915873,
condition files/Stage1_2.xlsx,,B2,T2,m,"['c', 'm']","['Clue', 'Monopoly']","[-0.15, 0.5]","[0.15, 0.5]",1,1,,,,,,,,,0,3,3,3,0,0,0,3,,,,,,,,,,,,,,,,,,,,,,,,,,,,,,,,,,,,,,,,,,,,,,,,,,,,,,,757.1714526680007,None,757.1714526680007,None,757.1714526680007,None,c,0,1.7284394569996948,758.7064928979999,None,758.7064928979999,None,758.7064928979999,None,760.4881902100005,None,760.4881902100005,None,760.4881902100005,None,760.4881902100005,None,,,,,,,,,,,,,,,,,,,,,,,,,,,,,,,,,,,,,,,,,,,,001,148,2020_Feb_20_1127,spring_faces,3.1.5,60.02037883915873,
condition files/Stage1_2.xlsx,,B4,T3,c,"['c', 'm']","['Clue', 'Monopoly']","[-0.15, 0.5]","[0.15, 0.5]",1,1,,,,,,,,,0,3,3,3,0,1,1,5,,,,,,,,,,,,,,,,,,,,,,,,,,,,,,,,,,,,,,,,,,,,,,,,,,,,,,,762.4543362889999,None,762.4543362889999,None,762.4543362889999,None,c,1,1.2158222500002012,763.9871262910001,None,763.9871262910001,None,763.9871262910001,None,765.2546683609999,None,765.2546683609999,None,765.2546683609999,None,765.2546683609999,None,,,,,,,,,,,,,,,,,,,,,,,,,,,,,,,,,,,,,,,,,,,,001,148,2020_Feb_20_1127,spring_faces,3.1.5,60.02037883915873,
condition files/Stage1_2.xlsx,,B3,T4,m,"['c', 'm']","['Clue', 'Monopoly']","[-0.15, 0.5]","[0.15, 0.5]",1,1,,,,,,,,,0,3,3,3,0,2,2,6,,,,,,,,,,,,,,,,,,,,,,,,,,,,,,,,,,,,,,,,,,,,,,,,,,,,,,,767.2211528750013,None,767.2211528750013,None,767.2211528750013,None,m,1,1.216456449999896,768.7544961800013,None,768.7544961800013,None,768.7544961800013,None,770.0222972720003,None,770.0222972720003,None,770.0222972720003,None,770.0222972720003,None,,,,,,,,,,,,,,,,,,,,,,,,,,,,,,,,,,,,,,,,,,,,001,148,2020_Feb_20_1127,spring_faces,3.1.5,60.02037883915873,
condition files/Stage1_2.xlsx,,B1,T1,c,"['c', 'm']","['Clue', 'Monopoly']","[-0.15, 0.5]","[0.15, 0.5]",1,1,,,,,,,,,0,3,3,3,0,3,3,0,,,,,,,,,,,,,,,,,,,,,,,,,,,,,,,,,,,,,,,,,,,,,,,,,,,,,,,771.9877922390006,None,771.9877922390006,None,771.9877922390006,None,c,1,1.761279956999715,773.5376495590008,None,773.5376495590008,None,773.5376495590008,None,775.3714528310011,None,775.3714528310011,None,775.3714528310011,None,775.3714528310011,None,,,,,,,,,,,,,,,,,,,,,,,,,,,,,,,,,,,,,,,,,,,,001,148,2020_Feb_20_1127,spring_faces,3.1.5,60.02037883915873,
condition files/Stage1_2.xlsx,,T2,B1,c,"['c', 'm']","['Clue', 'Monopoly']","[-0.15, 0.5]","[0.15, 0.5]",1,1,,,,,,,,,0,3,3,3,0,4,4,1,,,,,,,,,,,,,,,,,,,,,,,,,,,,,,,,,,,,,,,,,,,,,,,,,,,,,,,777.3206300230013,None,777.3206300230013,None,777.3206300230013,None,c,1,1.2422861909999483,778.8566460660004,None,778.8566460660004,None,778.8566460660004,None,780.1550984599999,None,780.1550984599999,None,780.1550984599999,None,780.1550984599999,None,,,,,,,,,,,,,,,,,,,,,,,,,,,,,,,,,,,,,,,,,,,,001,148,2020_Feb_20_1127,spring_faces,3.1.5,60.02037883915873,
condition files/Stage1_2.xlsx,,T1,B2,m,"['c', 'm']","['Clue', 'Monopoly']","[-0.15, 0.5]","[0.15, 0.5]",1,1,,,,,,,,,0,3,3,3,0,5,5,2,,,,,,,,,,,,,,,,,,,,,,,,,,,,,,,,,,,,,,,,,,,,,,,,,,,,,,,782.1209412260014,None,782.1209412260014,None,782.1209412260014,None,m,1,1.163314633000482,783.6715605810004,None,783.6715605810004,None,783.6715605810004,None,784.9047752840015,None,784.9047752840015,None,784.9047752840015,None,784.9047752840015,None,,,,,,,,,,,,,,,,,,,,,,,,,,,,,,,,,,,,,,,,,,,,001,148,2020_Feb_20_1127,spring_faces,3.1.5,60.02037883915873,
condition files/Stage1_2.xlsx,,T4,B4,m,"['c', 'm']","['Clue', 'Monopoly']","[-0.15, 0.5]","[0.15, 0.5]",1,1,,,,,,,,,0,3,3,3,0,6,6,7,,,,,,,,,,,,,,,,,,,,,,,,,,,,,,,,,,,,,,,,,,,,,,,,,,,,,,,786.8539292599999,None,786.8539292599999,None,786.8539292599999,None,m,1,0.814286737000657,788.4046520339998,None,788.4046520339998,None,788.4046520339998,None,789.2716717210005,None,789.2716717210005,None,789.2716717210005,None,789.2716717210005,None,,,,,,,,,,,,,,,,,,,,,,,,,,,,,,,,,,,,,,,,,,,,001,148,2020_Feb_20_1127,spring_faces,3.1.5,60.02037883915873,
condition files/Stage1_2.xlsx,,T3,B3,c,"['c', 'm']","['Clue', 'Monopoly']","[-0.15, 0.5]","[0.15, 0.5]",1,1,,,,,,,,,0,3,3,3,0,7,7,4,,,,,,,,,,,,,,,,,,,,,,,,,,,,,,,,,,,,,,,,,,,,,,,,,,,,,,,791.2378685860003,None,791.2378685860003,None,791.2378685860003,None,c,1,1.4385278160007147,792.7884086070007,None,792.7884086070007,None,792.7884086070007,None,794.2882092390009,None,794.2882092390009,None,794.2882092390009,None,794.2882092390009,None,,,,,,,,,,,,,,,,,,,,,,,,,,,,,,,,,,,,,,,,,,,,001,148,2020_Feb_20_1127,spring_faces,3.1.5,60.02037883915873,
condition files/Stage1_1.xlsx,,B4,T4,m,"['c', 'm']","['Clue', 'Monopoly']","[-0.15, 0.5]","[0.15, 0.5]",1,1,,,,,,,,,0,4,4,4,0,0,0,7,,,,,,,,,,,,,,,,,,,,,,,,,,,,,,,,,,,,,,,,,,,,,,,,,,,,,,,796.2719822810013,None,796.2719822810013,None,796.2719822810013,None,m,1,1.220967544000814,797.8059929930005,None,797.8059929930005,None,797.8059929930005,None,799.1046113320008,None,799.1046113320008,None,799.1046113320008,None,799.1046113320008,None,,,,,,,,,,,,,,,,,,,,,,,,,,,,,,,,,,,,,,,,,,,,001,148,2020_Feb_20_1127,spring_faces,3.1.5,60.02037883915873,
condition files/Stage1_1.xlsx,,T3,B4,c,"['c', 'm']","['Clue', 'Monopoly']","[-0.15, 0.5]","[0.15, 0.5]",1,1,,,,,,,,,0,4,4,4,0,1,1,5,,,,,,,,,,,,,,,,,,,,,,,,,,,,,,,,,,,,,,,,,,,,,,,,,,,,,,,801.0544508800012,None,801.0544508800012,None,801.0544508800012,None,c,1,1.0947684909988311,802.6041548860012,None,802.6041548860012,None,802.6041548860012,None,803.7569213070001,None,803.7569213070001,None,803.7569213070001,None,803.7569213070001,None,,,,,,,,,,,,,,,,,,,,,,,,,,,,,,,,,,,,,,,,,,,,001,148,2020_Feb_20_1127,spring_faces,3.1.5,60.02037883915873,
condition files/Stage1_1.xlsx,,B3,T3,c,"['c', 'm']","['Clue', 'Monopoly']","[-0.15, 0.5]","[0.15, 0.5]",1,1,,,,,,,,,0,4,4,4,0,2,2,4,,,,,,,,,,,,,,,,,,,,,,,,,,,,,,,,,,,,,,,,,,,,,,,,,,,,,,,805.7209512810005,None,805.7209512810005,None,805.7209512810005,None,c,1,1.4047503849997156,807.254221348001,None,807.254221348001,None,807.254221348001,None,808.7214039540013,None,808.7214039540013,None,808.7214039540013,None,808.7214039540013,None,,,,,,,,,,,,,,,,,,,,,,,,,,,,,,,,,,,,,,,,,,,,001,148,2020_Feb_20_1127,spring_faces,3.1.5,60.02037883915873,
condition files/Stage1_1.xlsx,,T1,B1,c,"['c', 'm']","['Clue', 'Monopoly']","[-0.15, 0.5]","[0.15, 0.5]",1,1,,,,,,,,,0,4,4,4,0,3,3,0,,,,,,,,,,,,,,,,,,,,,,,,,,,,,,,,,,,,,,,,,,,,,,,,,,,,,,,810.6873392730013,None,810.6873392730013,None,810.6873392730013,None,c,1,1.1410808889995678,812.2219337900005,None,812.2219337900005,None,812.2219337900005,None,813.4211044700005,None,813.4211044700005,None,813.4211044700005,None,813.4211044700005,None,,,,,,,,,,,,,,,,,,,,,,,,,,,,,,,,,,,,,,,,,,,,001,148,2020_Feb_20_1127,spring_faces,3.1.5,60.02037883915873,
condition files/Stage1_1.xlsx,,T4,B3,m,"['c', 'm']","['Clue', 'Monopoly']","[-0.15, 0.5]","[0.15, 0.5]",1,1,,,,,,,,,0,4,4,4,0,4,4,6,,,,,,,,,,,,,,,,,,,,,,,,,,,,,,,,,,,,,,,,,,,,,,,,,,,,,,,815.3873230180016,None,815.3873230180016,None,815.3873230180016,None,m,1,0.6660909719994379,816.9208607740002,None,816.9208607740002,None,816.9208607740002,None,817.6389704950016,None,817.6389704950016,None,817.6389704950016,None,817.6389704950016,None,,,,,,,,,,,,,,,,,,,,,,,,,,,,,,,,,,,,,,,,,,,,001,148,2020_Feb_20_1127,spring_faces,3.1.5,60.02037883915873,
condition files/Stage1_1.xlsx,,B1,T2,c,"['c', 'm']","['Clue', 'Monopoly']","[-0.15, 0.5]","[0.15, 0.5]",1,1,,,,,,,,,0,4,4,4,0,5,5,1,,,,,,,,,,,,,,,,,,,,,,,,,,,,,,,,,,,,,,,,,,,,,,,,,,,,,,,819.6044813260014,None,819.6044813260014,None,819.6044813260014,None,c,1,0.9774593700003607,821.1375824630013,None,821.1375824630013,None,821.1375824630013,None,822.1715261099998,None,822.1715261099998,None,822.1715261099998,None,822.1715261099998,None,,,,,,,,,,,,,,,,,,,,,,,,,,,,,,,,,,,,,,,,,,,,001,148,2020_Feb_20_1127,spring_faces,3.1.5,60.02037883915873,
condition files/Stage1_1.xlsx,,T2,B2,m,"['c', 'm']","['Clue', 'Monopoly']","[-0.15, 0.5]","[0.15, 0.5]",1,1,,,,,,,,,0,4,4,4,0,6,6,3,,,,,,,,,,,,,,,,,,,,,,,,,,,,,,,,,,,,,,,,,,,,,,,,,,,,,,,824.1370392059998,None,824.1370392059998,None,824.1370392059998,None,c,0,0.8261373599998478,825.6727953070003,None,825.6727953070003,None,825.6727953070003,None,826.5713971189998,None,826.5713971189998,None,826.5713971189998,None,826.5713971189998,None,,,,,,,,,,,,,,,,,,,,,,,,,,,,,,,,,,,,,,,,,,,,001,148,2020_Feb_20_1127,spring_faces,3.1.5,60.02037883915873,
condition files/Stage1_1.xlsx,,B2,T1,m,"['c', 'm']","['Clue', 'Monopoly']","[-0.15, 0.5]","[0.15, 0.5]",1,1,,,,,,,,,0,4,4,4,0,7,7,2,,,,,,,,,,,,,,,,,,,,,,,,,,,,,,,,,,,,,,,,,,,,,,,,,,,,,,,828.5206682340013,None,828.5206682340013,None,828.5206682340013,None,m,1,0.8434683939995011,830.0715197509999,None,830.0715197509999,None,830.0715197509999,None,830.9714164369998,None,830.9714164369998,None,830.9714164369998,None,830.9714164369998,None,,,,,,,,,,,,,,,,,,,,,,,,,,,,,,,,,,,,,,,,,,,,001,148,2020_Feb_20_1127,spring_faces,3.1.5,60.02037883915873,
condition files/Stage1_2.xlsx,,B4,T3,c,"['c', 'm']","['Clue', 'Monopoly']","[-0.15, 0.5]","[0.15, 0.5]",1,1,,,,,,,,,0,5,5,5,0,0,0,5,,,,,,,,,,,,,,,,,,,,,,,,,,,,,,,,,,,,,,,,,,,,,,,,,,,,,,,832.9546902150014,None,832.9546902150014,None,832.9546902150014,None,c,1,1.227618300999893,834.4874157150007,None,834.4874157150007,None,834.4874157150007,None,835.7723878470006,None,835.7723878470006,None,835.7723878470006,None,835.7723878470006,None,,,,,,,,,,,,,,,,,,,,,,,,,,,,,,,,,,,,,,,,,,,,001,148,2020_Feb_20_1127,spring_faces,3.1.5,60.02037883915873,
condition files/Stage1_2.xlsx,,T2,B1,c,"['c', 'm']","['Clue', 'Monopoly']","[-0.15, 0.5]","[0.15, 0.5]",1,1,,,,,,,,,0,5,5,5,0,1,1,1,,,,,,,,,,,,,,,,,,,,,,,,,,,,,,,,,,,,,,,,,,,,,,,,,,,,,,,837.7382033450012,None,837.7382033450012,None,837.7382033450012,None,c,1,1.8497361750014534,839.2732198909998,None,839.2732198909998,None,839.2732198909998,None,841.1882952659998,None,841.1882952659998,None,841.1882952659998,None,841.1882952659998,None,,,,,,,,,,,,,,,,,,,,,,,,,,,,,,,,,,,,,,,,,,,,001,148,2020_Feb_20_1127,spring_faces,3.1.5,60.02037883915873,
condition files/Stage1_2.xlsx,,B3,T4,m,"['c', 'm']","['Clue', 'Monopoly']","[-0.15, 0.5]","[0.15, 0.5]",1,1,,,,,,,,,0,5,5,5,0,2,2,6,,,,,,,,,,,,,,,,,,,,,,,,,,,,,,,,,,,,,,,,,,,,,,,,,,,,,,,843.1539079700015,None,843.1539079700015,None,843.1539079700015,None,m,1,1.043010953000703,844.6879641820015,None,844.6879641820015,None,844.6879641820015,None,845.7882489140011,None,845.7882489140011,None,845.7882489140011,None,845.7882489140011,None,,,,,,,,,,,,,,,,,,,,,,,,,,,,,,,,,,,,,,,,,,,,001,148,2020_Feb_20_1127,spring_faces,3.1.5,60.02037883915873,
condition files/Stage1_2.xlsx,,B2,T2,m,"['c', 'm']","['Clue', 'Monopoly']","[-0.15, 0.5]","[0.15, 0.5]",1,1,,,,,,,,,0,5,5,5,0,3,3,3,,,,,,,,,,,,,,,,,,,,,,,,,,,,,,,,,,,,,,,,,,,,,,,,,,,,,,,847.7545764770002,None,847.7545764770002,None,847.7545764770002,None,c,0,1.8978701689993613,849.2890910710012,None,849.2890910710012,None,849.2890910710012,None,851.2379506249999,None,851.2379506249999,None,851.2379506249999,None,851.2379506249999,None,,,,,,,,,,,,,,,,,,,,,,,,,,,,,,,,,,,,,,,,,,,,001,148,2020_Feb_20_1127,spring_faces,3.1.5,60.02037883915873,
condition files/Stage1_2.xlsx,,T4,B4,m,"['c', 'm']","['Clue', 'Monopoly']","[-0.15, 0.5]","[0.15, 0.5]",1,1,,,,,,,,,0,5,5,5,0,4,4,7,,,,,,,,,,,,,,,,,,,,,,,,,,,,,,,,,,,,,,,,,,,,,,,,,,,,,,,853.2044828730013,None,853.2044828730013,None,853.2044828730013,None,m,1,0.7678851740001846,854.7550259750005,None,854.7550259750005,None,854.7550259750005,None,855.5878036030008,None,855.5878036030008,None,855.5878036030008,None,855.5878036030008,None,,,,,,,,,,,,,,,,,,,,,,,,,,,,,,,,,,,,,,,,,,,,001,148,2020_Feb_20_1127,spring_faces,3.1.5,60.02037883915873,
condition files/Stage1_2.xlsx,,T1,B2,m,"['c', 'm']","['Clue', 'Monopoly']","[-0.15, 0.5]","[0.15, 0.5]",1,1,,,,,,,,,0,5,5,5,0,5,5,2,,,,,,,,,,,,,,,,,,,,,,,,,,,,,,,,,,,,,,,,,,,,,,,,,,,,,,,857.5544133620006,None,857.5544133620006,None,857.5544133620006,None,m,1,1.026523095999437,859.0884966810008,None,859.0884966810008,None,859.0884966810008,None,860.1719505130004,None,860.1719505130004,None,860.1719505130004,None,860.1719505130004,None,,,,,,,,,,,,,,,,,,,,,,,,,,,,,,,,,,,,,,,,,,,,001,148,2020_Feb_20_1127,spring_faces,3.1.5,60.02037883915873,
condition files/Stage1_2.xlsx,,B1,T1,c,"['c', 'm']","['Clue', 'Monopoly']","[-0.15, 0.5]","[0.15, 0.5]",1,1,,,,,,,,,0,5,5,5,0,6,6,0,,,,,,,,,,,,,,,,,,,,,,,,,,,,,,,,,,,,,,,,,,,,,,,,,,,,,,,862.1370932350001,None,862.1370932350001,None,862.1370932350001,None,c,1,1.082016738000675,863.6729442619999,None,863.6729442619999,None,863.6729442619999,None,864.8213587290011,None,864.8213587290011,None,864.8213587290011,None,864.8213587290011,None,,,,,,,,,,,,,,,,,,,,,,,,,,,,,,,,,,,,,,,,,,,,001,148,2020_Feb_20_1127,spring_faces,3.1.5,60.02037883915873,
condition files/Stage1_2.xlsx,,T3,B3,c,"['c', 'm']","['Clue', 'Monopoly']","[-0.15, 0.5]","[0.15, 0.5]",1,1,,,,,,,,,0,5,5,5,0,7,7,4,,,,,,,,,,,,,,,,,,,,,,,,,,,,,,,,,,,,,,,,,,,,,,,,,,,,,,,866.7704368900013,None,866.7704368900013,None,866.7704368900013,None,c,1,1.408830663000117,868.3062166330001,None,868.3062166330001,None,868.3062166330001,None,869.7714238670014,None,869.7714238670014,None,869.7714238670014,None,869.7714238670014,None,,,,,,,,,,,,,,,,,,,,,,,,,,,,,,,,,,,,,,,,,,,,001,148,2020_Feb_20_1127,spring_faces,3.1.5,60.02037883915873,
condition files/Stage1_1.xlsx,,B4,T4,m,"['c', 'm']","['Clue', 'Monopoly']","[-0.15, 0.5]","[0.15, 0.5]",1,1,,,,,,,,,0,6,6,6,0,0,0,7,,,,,,,,,,,,,,,,,,,,,,,,,,,,,,,,,,,,,,,,,,,,,,,,,,,,,,,871.7550302140007,None,871.7550302140007,None,871.7550302140007,None,m,1,0.6656343100003141,873.2892734720008,None,873.2892734720008,None,873.2892734720008,None,874.0239328520001,None,874.0239328520001,None,874.0239328520001,None,874.0239328520001,None,,,,,,,,,,,,,,,,,,,,,,,,,,,,,,,,,,,,,,,,,,,,001,148,2020_Feb_20_1127,spring_faces,3.1.5,60.02037883915873,
condition files/Stage1_1.xlsx,,T4,B3,m,"['c', 'm']","['Clue', 'Monopoly']","[-0.15, 0.5]","[0.15, 0.5]",1,1,,,,,,,,,0,6,6,6,0,1,1,6,,,,,,,,,,,,,,,,,,,,,,,,,,,,,,,,,,,,,,,,,,,,,,,,,,,,,,,875.9873931010006,None,875.9873931010006,None,875.9873931010006,None,m,1,0.5928721730015241,877.538116261001,None,877.538116261001,None,877.538116261001,None,878.187773652,None,878.187773652,None,878.187773652,None,878.187773652,None,,,,,,,,,,,,,,,,,,,,,,,,,,,,,,,,,,,,,,,,,,,,001,148,2020_Feb_20_1127,spring_faces,3.1.5,60.02037883915873,
condition files/Stage1_1.xlsx,,T1,B1,c,"['c', 'm']","['Clue', 'Monopoly']","[-0.15, 0.5]","[0.15, 0.5]",1,1,,,,,,,,,0,6,6,6,0,2,2,0,,,,,,,,,,,,,,,,,,,,,,,,,,,,,,,,,,,,,,,,,,,,,,,,,,,,,,,880.1541168700005,None,880.1541168700005,None,880.1541168700005,None,c,1,0.7471584180002537,881.687731516,None,881.687731516,None,881.687731516,None,882.5049566610014,None,882.5049566610014,None,882.5049566610014,None,882.5049566610014,None,,,,,,,,,,,,,,,,,,,,,,,,,,,,,,,,,,,,,,,,,,,,001,148,2020_Feb_20_1127,spring_faces,3.1.5,60.02037883915873,
condition files/Stage1_1.xlsx,,T3,B4,c,"['c', 'm']","['Clue', 'Monopoly']","[-0.15, 0.5]","[0.15, 0.5]",1,1,,,,,,,,,0,6,6,6,0,3,3,5,,,,,,,,,,,,,,,,,,,,,,,,,,,,,,,,,,,,,,,,,,,,,,,,,,,,,,,884.454393420001,None,884.454393420001,None,884.454393420001,None,c,1,0.6075296150011127,885.987493214001,None,885.987493214001,None,885.987493214001,None,886.654853127,None,886.654853127,None,886.654853127,None,886.654853127,None,,,,,,,,,,,,,,,,,,,,,,,,,,,,,,,,,,,,,,,,,,,,001,148,2020_Feb_20_1127,spring_faces,3.1.5,60.02037883915873,
condition files/Stage1_1.xlsx,,B2,T1,m,"['c', 'm']","['Clue', 'Monopoly']","[-0.15, 0.5]","[0.15, 0.5]",1,1,,,,,,,,,0,6,6,6,0,4,4,2,,,,,,,,,,,,,,,,,,,,,,,,,,,,,,,,,,,,,,,,,,,,,,,,,,,,,,,888.621166115001,None,888.621166115001,None,888.621166115001,None,m,1,1.175106575999962,890.1719074910015,None,890.1719074910015,None,890.1719074910015,None,891.4055412329999,None,891.4055412329999,None,891.4055412329999,None,891.4055412329999,None,,,,,,,,,,,,,,,,,,,,,,,,,,,,,,,,,,,,,,,,,,,,001,148,2020_Feb_20_1127,spring_faces,3.1.5,60.02037883915873,
condition files/Stage1_1.xlsx,,B3,T3,c,"['c', 'm']","['Clue', 'Monopoly']","[-0.15, 0.5]","[0.15, 0.5]",1,1,,,,,,,,,0,6,6,6,0,5,5,4,,,,,,,,,,,,,,,,,,,,,,,,,,,,,,,,,,,,,,,,,,,,,,,,,,,,,,,893.371178020001,None,893.371178020001,None,893.371178020001,None,c,1,1.0342539149987715,894.9046561249997,None,894.9046561249997,None,894.9046561249997,None,896.0058653790002,None,896.0058653790002,None,896.0058653790002,None,896.0058653790002,None,,,,,,,,,,,,,,,,,,,,,,,,,,,,,,,,,,,,,,,,,,,,001,148,2020_Feb_20_1127,spring_faces,3.1.5,60.02037883915873,
condition files/Stage1_1.xlsx,,B1,T2,c,"['c', 'm']","['Clue', 'Monopoly']","[-0.15, 0.5]","[0.15, 0.5]",1,1,,,,,,,,,0,6,6,6,0,6,6,1,,,,,,,,,,,,,,,,,,,,,,,,,,,,,,,,,,,,,,,,,,,,,,,,,,,,,,,897.9706323099999,None,897.9706323099999,None,897.9706323099999,None,c,1,0.9146494640008314,899.5043506030015,None,899.5043506030015,None,899.5043506030015,None,900.4712127340008,None,900.4712127340008,None,900.4712127340008,None,900.4712127340008,None,,,,,,,,,,,,,,,,,,,,,,,,,,,,,,,,,,,,,,,,,,,,001,148,2020_Feb_20_1127,spring_faces,3.1.5,60.02037883915873,
condition files/Stage1_1.xlsx,,T2,B2,m,"['c', 'm']","['Clue', 'Monopoly']","[-0.15, 0.5]","[0.15, 0.5]",1,1,,,,,,,,,0,6,6,6,0,7,7,3,,,,,,,,,,,,,,,,,,,,,,,,,,,,,,,,,,,,,,,,,,,,,,,,,,,,,,,902.4379409040012,None,902.4379409040012,None,902.4379409040012,None,c,0,1.0541340630006744,903.9727864400011,None,903.9727864400011,None,903.9727864400011,None,905.0893796770015,None,905.0893796770015,None,905.0893796770015,None,905.0893796770015,None,,,,,,,,,,,,,,,,,,,,,,,,,,,,,,,,,,,,,,,,,,,,001,148,2020_Feb_20_1127,spring_faces,3.1.5,60.02037883915873,
condition files/Stage1_2.xlsx,,T3,B3,c,"['c', 'm']","['Clue', 'Monopoly']","[-0.15, 0.5]","[0.15, 0.5]",1,1,,,,,,,,,0,7,7,7,0,0,0,4,,,,,,,,,,,,,,,,,,,,,,,,,,,,,,,,,,,,,,,,,,,,,,,,,,,,,,,907.071202571,None,907.071202571,None,907.071202571,None,c,1,1.1262620319994312,908.6047656480005,None,908.6047656480005,None,908.6047656480005,None,909.7883286209999,None,909.7883286209999,None,909.7883286209999,None,909.7883286209999,None,,,,,,,,,,,,,,,,,,,,,,,,,,,,,,,,,,,,,,,,,,,,001,148,2020_Feb_20_1127,spring_faces,3.1.5,60.02037883915873,
condition files/Stage1_2.xlsx,,T2,B1,c,"['c', 'm']","['Clue', 'Monopoly']","[-0.15, 0.5]","[0.15, 0.5]",1,1,,,,,,,,,0,7,7,7,0,1,1,1,,,,,,,,,,,,,,,,,,,,,,,,,,,,,,,,,,,,,,,,,,,,,,,,,,,,,,,911.7543195460003,None,911.7543195460003,None,911.7543195460003,None,c,1,1.1473656149992166,913.2875512910014,None,913.2875512910014,None,913.2875512910014,None,914.4875716650004,None,914.4875716650004,None,914.4875716650004,None,914.4875716650004,None,,,,,,,,,,,,,,,,,,,,,,,,,,,,,,,,,,,,,,,,,,,,001,148,2020_Feb_20_1127,spring_faces,3.1.5,60.02037883915873,
condition files/Stage1_2.xlsx,,B2,T2,m,"['c', 'm']","['Clue', 'Monopoly']","[-0.15, 0.5]","[0.15, 0.5]",1,1,,,,,,,,,0,7,7,7,0,2,2,3,,,,,,,,,,,,,,,,,,,,,,,,,,,,,,,,,,,,,,,,,,,,,,,,,,,,,,,916.4545396930007,None,916.4545396930007,None,916.4545396930007,None,m,1,1.0234548480002559,917.9875655800006,None,917.9875655800006,None,917.9875655800006,None,919.0876616350015,None,919.0876616350015,None,919.0876616350015,None,919.0876616350015,None,,,,,,,,,,,,,,,,,,,,,,,,,,,,,,,,,,,,,,,,,,,,001,148,2020_Feb_20_1127,spring_faces,3.1.5,60.02037883915873,
condition files/Stage1_2.xlsx,,T1,B2,m,"['c', 'm']","['Clue', 'Monopoly']","[-0.15, 0.5]","[0.15, 0.5]",1,1,,,,,,,,,0,7,7,7,0,3,3,2,,,,,,,,,,,,,,,,,,,,,,,,,,,,,,,,,,,,,,,,,,,,,,,,,,,,,,,921.0379148030006,None,921.0379148030006,None,921.0379148030006,None,m,1,1.174660918999507,922.5723711750015,None,922.5723711750015,None,922.5723711750015,None,923.8046083950012,None,923.8046083950012,None,923.8046083950012,None,923.8046083950012,None,,,,,,,,,,,,,,,,,,,,,,,,,,,,,,,,,,,,,,,,,,,,001,148,2020_Feb_20_1127,spring_faces,3.1.5,60.02037883915873,
condition files/Stage1_2.xlsx,,T4,B4,m,"['c', 'm']","['Clue', 'Monopoly']","[-0.15, 0.5]","[0.15, 0.5]",1,1,,,,,,,,,0,7,7,7,0,4,4,7,,,,,,,,,,,,,,,,,,,,,,,,,,,,,,,,,,,,,,,,,,,,,,,,,,,,,,,925.7705534280012,None,925.7705534280012,None,925.7705534280012,None,m,1,0.7458998229994904,927.3210536410006,None,927.3210536410006,None,927.3210536410006,None,928.1214783120013,None,928.1214783120013,None,928.1214783120013,None,928.1214783120013,None,,,,,,,,,,,,,,,,,,,,,,,,,,,,,,,,,,,,,,,,,,,,001,148,2020_Feb_20_1127,spring_faces,3.1.5,60.02037883915873,
condition files/Stage1_2.xlsx,,B1,T1,c,"['c', 'm']","['Clue', 'Monopoly']","[-0.15, 0.5]","[0.15, 0.5]",1,1,,,,,,,,,0,7,7,7,0,5,5,0,,,,,,,,,,,,,,,,,,,,,,,,,,,,,,,,,,,,,,,,,,,,,,,,,,,,,,,930.0879693180013,None,930.0879693180013,None,930.0879693180013,None,c,1,0.8940234059991781,931.6210224280003,None,931.6210224280003,None,931.6210224280003,None,932.5723230000003,None,932.5723230000003,None,932.5723230000003,None,932.5723230000003,None,,,,,,,,,,,,,,,,,,,,,,,,,,,,,,,,,,,,,,,,,,,,001,148,2020_Feb_20_1127,spring_faces,3.1.5,60.02037883915873,
condition files/Stage1_2.xlsx,,B4,T3,c,"['c', 'm']","['Clue', 'Monopoly']","[-0.15, 0.5]","[0.15, 0.5]",1,1,,,,,,,,,0,7,7,7,0,6,6,5,,,,,,,,,,,,,,,,,,,,,,,,,,,,,,,,,,,,,,,,,,,,,,,,,,,,,,,934.5369475380012,None,934.5369475380012,None,934.5369475380012,None,c,1,1.6426510689998395,936.0723711490009,None,936.0723711490009,None,936.0723711490009,None,937.7710069390014,None,937.7710069390014,None,937.7710069390014,None,937.7710069390014,None,,,,,,,,,,,,,,,,,,,,,,,,,,,,,,,,,,,,,,,,,,,,001,148,2020_Feb_20_1127,spring_faces,3.1.5,60.02037883915873,
condition files/Stage1_2.xlsx,,B3,T4,m,"['c', 'm']","['Clue', 'Monopoly']","[-0.15, 0.5]","[0.15, 0.5]",1,1,,,,,,,,,0,7,7,7,0,7,7,6,,,,,,,,,,,,,,,,,,,,,,,,,,,,,,,,,,,,,,,,,,,,,,,,,,,,,,,939.7369232850015,None,939.7369232850015,None,939.7369232850015,None,m,1,1.1789149799988081,941.2880237280006,None,941.2880237280006,None,941.2880237280006,None,942.5234570310004,None,942.5234570310004,None,942.5234570310004,None,942.5234570310004,None,,,,,,,,,,,,,,,,,,,,,,,,,,,,,,,,,,,,,,,,,,,,001,148,2020_Feb_20_1127,spring_faces,3.1.5,60.02037883915873,
condition files/Stage1_1.xlsx,,B3,T3,c,"['c', 'm']","['Clue', 'Monopoly']","[-0.15, 0.5]","[0.15, 0.5]",1,1,,,,,,,,,0,8,8,8,0,0,0,4,,,,,,,,,,,,,,,,,,,,,,,,,,,,,,,,,,,,,,,,,,,,,,,,,,,,,,,944.5048162000003,None,944.5048162000003,None,944.5048162000003,None,c,1,1.1158887629990204,946.0390916249999,None,946.0390916249999,None,946.0390916249999,None,947.206583354,None,947.206583354,None,947.206583354,None,947.206583354,None,,,,,,,,,,,,,,,,,,,,,,,,,,,,,,,,,,,,,,,,,,,,001,148,2020_Feb_20_1127,spring_faces,3.1.5,60.02037883915873,
condition files/Stage1_1.xlsx,,B2,T1,m,"['c', 'm']","['Clue', 'Monopoly']","[-0.15, 0.5]","[0.15, 0.5]",1,1,,,,,,,,,0,8,8,8,0,1,1,2,,,,,,,,,,,,,,,,,,,,,,,,,,,,,,,,,,,,,,,,,,,,,,,,,,,,,,,949.1705147320008,None,949.1705147320008,None,949.1705147320008,None,m,1,1.5231962849993579,950.7037525310006,None,950.7037525310006,None,950.7037525310006,None,952.3048036199998,None,952.3048036199998,None,952.3048036199998,None,952.3048036199998,None,,,,,,,,,,,,,,,,,,,,,,,,,,,,,,,,,,,,,,,,,,,,001,148,2020_Feb_20_1127,spring_faces,3.1.5,60.02037883915873,
condition files/Stage1_1.xlsx,,T1,B1,c,"['c', 'm']","['Clue', 'Monopoly']","[-0.15, 0.5]","[0.15, 0.5]",1,1,,,,,,,,,0,8,8,8,0,2,2,0,,,,,,,,,,,,,,,,,,,,,,,,,,,,,,,,,,,,,,,,,,,,,,,,,,,,,,,954.2546089900006,None,954.2546089900006,None,954.2546089900006,None,c,1,1.7661463869990257,955.7887665110011,None,955.7887665110011,None,955.7887665110011,None,957.6215029900013,None,957.6215029900013,None,957.6215029900013,None,957.6215029900013,None,,,,,,,,,,,,,,,,,,,,,,,,,,,,,,,,,,,,,,,,,,,,001,148,2020_Feb_20_1127,spring_faces,3.1.5,60.02037883915873,
condition files/Stage1_1.xlsx,,T3,B4,c,"['c', 'm']","['Clue', 'Monopoly']","[-0.15, 0.5]","[0.15, 0.5]",1,1,,,,,,,,,0,8,8,8,0,3,3,5,,,,,,,,,,,,,,,,,,,,,,,,,,,,,,,,,,,,,,,,,,,,,,,,,,,,,,,959.5877615600002,None,959.5877615600002,None,959.5877615600002,None,c,1,0.8981175499993697,961.1208342700011,None,961.1208342700011,None,961.1208342700011,None,962.0714199670001,None,962.0714199670001,None,962.0714199670001,None,962.0714199670001,None,,,,,,,,,,,,,,,,,,,,,,,,,,,,,,,,,,,,,,,,,,,,001,148,2020_Feb_20_1127,spring_faces,3.1.5,60.02037883915873,
condition files/Stage1_1.xlsx,,T4,B3,m,"['c', 'm']","['Clue', 'Monopoly']","[-0.15, 0.5]","[0.15, 0.5]",1,1,,,,,,,,,0,8,8,8,0,4,4,6,,,,,,,,,,,,,,,,,,,,,,,,,,,,,,,,,,,,,,,,,,,,,,,,,,,,,,,964.0377993980001,None,964.0377993980001,None,964.0377993980001,None,m,1,0.6877269950000482,965.5712401310011,None,965.5712401310011,None,965.5712401310011,None,966.3380254820004,None,966.3380254820004,None,966.3380254820004,None,966.3380254820004,None,,,,,,,,,,,,,,,,,,,,,,,,,,,,,,,,,,,,,,,,,,,,001,148,2020_Feb_20_1127,spring_faces,3.1.5,60.02037883915873,
condition files/Stage1_1.xlsx,,B1,T2,c,"['c', 'm']","['Clue', 'Monopoly']","[-0.15, 0.5]","[0.15, 0.5]",1,1,,,,,,,,,0,8,8,8,0,5,5,1,,,,,,,,,,,,,,,,,,,,,,,,,,,,,,,,,,,,,,,,,,,,,,,,,,,,,,,968.2877719960015,None,968.2877719960015,None,968.2877719960015,None,c,1,0.7581016399999498,969.8209265660007,None,969.8209265660007,None,969.8209265660007,None,970.6403517570016,None,970.6403517570016,None,970.6403517570016,None,970.6403517570016,None,,,,,,,,,,,,,,,,,,,,,,,,,,,,,,,,,,,,,,,,,,,,001,148,2020_Feb_20_1127,spring_faces,3.1.5,60.02037883915873,
condition files/Stage1_1.xlsx,,T2,B2,m,"['c', 'm']","['Clue', 'Monopoly']","[-0.15, 0.5]","[0.15, 0.5]",1,1,,,,,,,,,0,8,8,8,0,6,6,3,,,,,,,,,,,,,,,,,,,,,,,,,,,,,,,,,,,,,,,,,,,,,,,,,,,,,,,972.6044498160009,None,972.6044498160009,None,972.6044498160009,None,m,1,2.3128299780000816,974.1383087470003,None,974.1383087470003,None,974.1383087470003,None,976.5071691560006,None,976.5071691560006,None,976.5071691560006,None,976.5071691560006,None,,,,,,,,,,,,,,,,,,,,,,,,,,,,,,,,,,,,,,,,,,,,001,148,2020_Feb_20_1127,spring_faces,3.1.5,60.02037883915873,
condition files/Stage1_1.xlsx,,B4,T4,m,"['c', 'm']","['Clue', 'Monopoly']","[-0.15, 0.5]","[0.15, 0.5]",1,1,,,,,,,,,0,8,8,8,0,7,7,7,,,,,,,,,,,,,,,,,,,,,,,,,,,,,,,,,,,,,,,,,,,,,,,,,,,,,,,978.4711384910006,None,978.4711384910006,None,978.4711384910006,None,m,1,1.005982351000057,980.0210123960005,None,980.0210123960005,None,980.0210123960005,None,981.0879768610012,None,981.0879768610012,None,981.0879768610012,None,981.0879768610012,None,,,,,,,,,,,,,,,,,,,,,,,,,,,,,,,,,,,,,,,,,,,,001,148,2020_Feb_20_1127,spring_faces,3.1.5,60.02037883915873,
condition files/Stage1_2.xlsx,,T4,B4,m,"['c', 'm']","['Clue', 'Monopoly']","[-0.15, 0.5]","[0.15, 0.5]",1,1,,,,,,,,,0,9,9,9,0,0,0,7,,,,,,,,,,,,,,,,,,,,,,,,,,,,,,,,,,,,,,,,,,,,,,,,,,,,,,,983.0713100360008,None,983.0713100360008,None,983.0713100360008,None,m,1,1.1746032970004308,984.604425775,None,984.604425775,None,984.604425775,None,985.8380412300012,None,985.8380412300012,None,985.8380412300012,None,985.8380412300012,None,,,,,,,,,,,,,,,,,,,,,,,,,,,,,,,,,,,,,,,,,,,,001,148,2020_Feb_20_1127,spring_faces,3.1.5,60.02037883915873,
condition files/Stage1_2.xlsx,,T2,B1,c,"['c', 'm']","['Clue', 'Monopoly']","[-0.15, 0.5]","[0.15, 0.5]",1,1,,,,,,,,,0,9,9,9,0,1,1,1,,,,,,,,,,,,,,,,,,,,,,,,,,,,,,,,,,,,,,,,,,,,,,,,,,,,,,,987.8044091730007,None,987.8044091730007,None,987.8044091730007,None,c,1,1.2406894430005195,989.3383481890014,None,989.3383481890014,None,989.3383481890014,None,990.6396118410012,None,990.6396118410012,None,990.6396118410012,None,990.6396118410012,None,,,,,,,,,,,,,,,,,,,,,,,,,,,,,,,,,,,,,,,,,,,,001,148,2020_Feb_20_1127,spring_faces,3.1.5,60.02037883915873,
condition files/Stage1_2.xlsx,,B3,T4,m,"['c', 'm']","['Clue', 'Monopoly']","[-0.15, 0.5]","[0.15, 0.5]",1,1,,,,,,,,,0,9,9,9,0,2,2,6,,,,,,,,,,,,,,,,,,,,,,,,,,,,,,,,,,,,,,,,,,,,,,,,,,,,,,,992.6039805250002,None,992.6039805250002,None,992.6039805250002,None,m,1,1.0011333220008964,994.1377886170012,None,994.1377886170012,None,994.1377886170012,None,995.2215947570003,None,995.2215947570003,None,995.2215947570003,None,995.2215947570003,None,,,,,,,,,,,,,,,,,,,,,,,,,,,,,,,,,,,,,,,,,,,,001,148,2020_Feb_20_1127,spring_faces,3.1.5,60.02037883915873,
condition files/Stage1_2.xlsx,,B1,T1,c,"['c', 'm']","['Clue', 'Monopoly']","[-0.15, 0.5]","[0.15, 0.5]",1,1,,,,,,,,,0,9,9,9,0,3,3,0,,,,,,,,,,,,,,,,,,,,,,,,,,,,,,,,,,,,,,,,,,,,,,,,,,,,,,,997.1706926229999,None,997.1706926229999,None,997.1706926229999,None,c,1,0.8977112680004211,998.7052511000002,None,998.7052511000002,None,998.7052511000002,None,999.6714606500009,None,999.6714606500009,None,999.6714606500009,None,999.6714606500009,None,,,,,,,,,,,,,,,,,,,,,,,,,,,,,,,,,,,,,,,,,,,,001,148,2020_Feb_20_1127,spring_faces,3.1.5,60.02037883915873,
condition files/Stage1_2.xlsx,,T3,B3,c,"['c', 'm']","['Clue', 'Monopoly']","[-0.15, 0.5]","[0.15, 0.5]",1,1,,,,,,,,,0,9,9,9,0,4,4,4,,,,,,,,,,,,,,,,,,,,,,,,,,,,,,,,,,,,,,,,,,,,,,,,,,,,,,,1001.6205683820008,None,1001.6205683820008,None,1001.6205683820008,None,c,1,1.2001490180009569,1003.154765749001,None,1003.154765749001,None,1003.154765749001,None,1004.4214667370015,None,1004.4214667370015,None,1004.4214667370015,None,1004.4214667370015,None,,,,,,,,,,,,,,,,,,,,,,,,,,,,,,,,,,,,,,,,,,,,001,148,2020_Feb_20_1127,spring_faces,3.1.5,60.02037883915873,
condition files/Stage1_2.xlsx,,B4,T3,c,"['c', 'm']","['Clue', 'Monopoly']","[-0.15, 0.5]","[0.15, 0.5]",1,1,,,,,,,,,0,9,9,9,0,5,5,5,,,,,,,,,,,,,,,,,,,,,,,,,,,,,,,,,,,,,,,,,,,,,,,,,,,,,,,1006.3874270280012,None,1006.3874270280012,None,1006.3874270280012,None,c,1,0.8327216389989189,1007.9382234090008,None,1007.9382234090008,None,1007.9382234090008,None,1008.8215190600004,None,1008.8215190600004,None,1008.8215190600004,None,1008.8215190600004,None,,,,,,,,,,,,,,,,,,,,,,,,,,,,,,,,,,,,,,,,,,,,001,148,2020_Feb_20_1127,spring_faces,3.1.5,60.02037883915873,
condition files/Stage1_2.xlsx,,T1,B2,m,"['c', 'm']","['Clue', 'Monopoly']","[-0.15, 0.5]","[0.15, 0.5]",1,1,,,,,,,,,0,9,9,9,0,6,6,2,,,,,,,,,,,,,,,,,,,,,,,,,,,,,,,,,,,,,,,,,,,,,,,,,,,,,,,1010.7881908170002,None,1010.7881908170002,None,1010.7881908170002,None,m,1,1.3444162140003755,1012.3225428960013,None,1012.3225428960013,None,1012.3225428960013,None,1013.7374495100012,None,1013.7374495100012,None,1013.7374495100012,None,1013.7374495100012,None,,,,,,,,,,,,,,,,,,,,,,,,,,,,,,,,,,,,,,,,,,,,001,148,2020_Feb_20_1127,spring_faces,3.1.5,60.02037883915873,
condition files/Stage1_2.xlsx,,B2,T2,m,"['c', 'm']","['Clue', 'Monopoly']","[-0.15, 0.5]","[0.15, 0.5]",1,1,,,,,,,,,0,9,9,9,0,7,7,3,,,,,,,,,,,,,,,,,,,,,,,,,,,,,,,,,,,,,,,,,,,,,,,,,,,,,,,1015.6872970700006,None,1015.6872970700006,None,1015.6872970700006,None,m,1,1.3244213430007221,1017.2226116300008,None,1017.2226116300008,None,1017.2226116300008,None,1018.604724371,None,1018.604724371,None,1018.604724371,None,1018.604724371,None,,,,,,,,,,,,,,,,,,,,,,,,,,,,,,,,,,,,,,,,,,,,001,148,2020_Feb_20_1127,spring_faces,3.1.5,60.02037883915873,
condition files/Stage1_1.xlsx,,B1,T2,c,"['c', 'm']","['Clue', 'Monopoly']","[-0.15, 0.5]","[0.15, 0.5]",1,1,,,,,,,,,0,10,10,10,0,0,0,1,,,,,,,,,,,,,,,,,,,,,,,,,,,,,,,,,,,,,,,,,,,,,,,,,,,,,,,1020.5878441060013,None,1020.5878441060013,None,1020.5878441060013,None,c,1,1.912072975999763,1022.1228970580014,None,1022.1228970580014,None,1022.1228970580014,None,1024.087557627001,None,1024.087557627001,None,1024.087557627001,None,1024.087557627001,None,,,,,,,,,,,,,,,,,,,,,,,,,,,,,,,,,,,,,,,,,,,,001,148,2020_Feb_20_1127,spring_faces,3.1.5,60.02037883915873,
condition files/Stage1_1.xlsx,,T2,B2,m,"['c', 'm']","['Clue', 'Monopoly']","[-0.15, 0.5]","[0.15, 0.5]",1,1,,,,,,,,,0,10,10,10,0,1,1,3,,,,,,,,,,,,,,,,,,,,,,,,,,,,,,,,,,,,,,,,,,,,,,,,,,,,,,,1026.054445834001,None,1026.054445834001,None,1026.054445834001,None,m,1,1.3744247110007564,1027.588582444001,None,1027.588582444001,None,1027.588582444001,None,1029.0375921080013,None,1029.0375921080013,None,1029.0375921080013,None,1029.0375921080013,None,,,,,,,,,,,,,,,,,,,,,,,,,,,,,,,,,,,,,,,,,,,,001,148,2020_Feb_20_1127,spring_faces,3.1.5,60.02037883915873,
condition files/Stage1_1.xlsx,,B2,T1,m,"['c', 'm']","['Clue', 'Monopoly']","[-0.15, 0.5]","[0.15, 0.5]",1,1,,,,,,,,,0,10,10,10,0,2,2,2,,,,,,,,,,,,,,,,,,,,,,,,,,,,,,,,,,,,,,,,,,,,,,,,,,,,,,,1030.9878819690002,None,1030.9878819690002,None,1030.9878819690002,None,m,1,0.9207018020006217,1032.5222837630008,None,1032.5222837630008,None,1032.5222837630008,None,1033.5044316940002,None,1033.5044316940002,None,1033.5044316940002,None,1033.5044316940002,None,,,,,,,,,,,,,,,,,,,,,,,,,,,,,,,,,,,,,,,,,,,,001,148,2020_Feb_20_1127,spring_faces,3.1.5,60.02037883915873,
condition files/Stage1_1.xlsx,,T3,B4,c,"['c', 'm']","['Clue', 'Monopoly']","[-0.15, 0.5]","[0.15, 0.5]",1,1,,,,,,,,,0,10,10,10,0,3,3,5,,,,,,,,,,,,,,,,,,,,,,,,,,,,,,,,,,,,,,,,,,,,,,,,,,,,,,,1035.4711120480006,None,1035.4711120480006,None,1035.4711120480006,None,c,1,0.8375062550003349,1037.0214466900015,None,1037.0214466900015,None,1037.0214466900015,None,1037.924050945001,None,1037.924050945001,None,1037.924050945001,None,1037.924050945001,None,,,,,,,,,,,,,,,,,,,,,,,,,,,,,,,,,,,,,,,,,,,,001,148,2020_Feb_20_1127,spring_faces,3.1.5,60.02037883915873,
condition files/Stage1_1.xlsx,,T1,B1,c,"['c', 'm']","['Clue', 'Monopoly']","[-0.15, 0.5]","[0.15, 0.5]",1,1,,,,,,,,,0,10,10,10,0,4,4,0,,,,,,,,,,,,,,,,,,,,,,,,,,,,,,,,,,,,,,,,,,,,,,,,,,,,,,,1039.8876574690003,None,1039.8876574690003,None,1039.8876574690003,None,c,1,1.0935196390000783,1041.421510528,None,1041.421510528,None,1041.421510528,None,1042.5714621570005,None,1042.5714621570005,None,1042.5714621570005,None,1042.5714621570005,None,,,,,,,,,,,,,,,,,,,,,,,,,,,,,,,,,,,,,,,,,,,,001,148,2020_Feb_20_1127,spring_faces,3.1.5,60.02037883915873,
condition files/Stage1_1.xlsx,,B3,T3,c,"['c', 'm']","['Clue', 'Monopoly']","[-0.15, 0.5]","[0.15, 0.5]",1,1,,,,,,,,,0,10,10,10,0,5,5,4,,,,,,,,,,,,,,,,,,,,,,,,,,,,,,,,,,,,,,,,,,,,,,,,,,,,,,,1044.5370994580007,None,1044.5370994580007,None,1044.5370994580007,None,c,1,0.9075254810013575,1046.0715012100009,None,1046.0715012100009,None,1046.0715012100009,None,1047.0374110210014,None,1047.0374110210014,None,1047.0374110210014,None,1047.0374110210014,None,,,,,,,,,,,,,,,,,,,,,,,,,,,,,,,,,,,,,,,,,,,,001,148,2020_Feb_20_1127,spring_faces,3.1.5,60.02037883915873,
condition files/Stage1_1.xlsx,,T4,B3,m,"['c', 'm']","['Clue', 'Monopoly']","[-0.15, 0.5]","[0.15, 0.5]",1,1,,,,,,,,,0,10,10,10,0,6,6,6,,,,,,,,,,,,,,,,,,,,,,,,,,,,,,,,,,,,,,,,,,,,,,,,,,,,,,,1049.0044227529997,None,1049.0044227529997,None,1049.0044227529997,None,m,1,0.8254362329989817,1050.5375972319998,None,1050.5375972319998,None,1050.5375972319998,None,1051.423759151001,None,1051.423759151001,None,1051.423759151001,None,1051.423759151001,None,,,,,,,,,,,,,,,,,,,,,,,,,,,,,,,,,,,,,,,,,,,,001,148,2020_Feb_20_1127,spring_faces,3.1.5,60.02037883915873,
condition files/Stage1_1.xlsx,,B4,T4,m,"['c', 'm']","['Clue', 'Monopoly']","[-0.15, 0.5]","[0.15, 0.5]",1,1,,,,,,,,,0,10,10,10,0,7,7,7,,,,,,,,,,,,,,,,,,,,,,,,,,,,,,,,,,,,,,,,,,,,,,,,,,,,,,,1053.3879106920012,None,1053.3879106920012,None,1053.3879106920012,None,m,1,0.7606573960001697,1054.922286682,None,1054.922286682,None,1054.922286682,None,1055.7374854320005,None,1055.7374854320005,None,1055.7374854320005,None,1055.7374854320005,None,,,,,,,,,,,,,,,,,,,,,,,,,,,,,,,,,,,,,,,,,,,,001,148,2020_Feb_20_1127,spring_faces,3.1.5,60.02037883915873,
condition files/Stage1_2.xlsx,,B4,T3,c,"['c', 'm']","['Clue', 'Monopoly']","[-0.15, 0.5]","[0.15, 0.5]",1,1,,,,,,,,,0,11,11,11,0,0,0,5,,,,,,,,,,,,,,,,,,,,,,,,,,,,,,,,,,,,,,,,,,,,,,,,,,,,,,,1057.721804271001,None,1057.721804271001,None,1057.721804271001,None,c,1,0.7795342419994995,1059.2714256670006,None,1059.2714256670006,None,1059.2714256670006,None,1060.1065541450007,None,1060.1065541450007,None,1060.1065541450007,None,1060.1065541450007,None,,,,,,,,,,,,,,,,,,,,,,,,,,,,,,,,,,,,,,,,,,,,001,148,2020_Feb_20_1127,spring_faces,3.1.5,60.02037883915873,
condition files/Stage1_2.xlsx,,T4,B4,m,"['c', 'm']","['Clue', 'Monopoly']","[-0.15, 0.5]","[0.15, 0.5]",1,1,,,,,,,,,0,11,11,11,0,1,1,7,,,,,,,,,,,,,,,,,,,,,,,,,,,,,,,,,,,,,,,,,,,,,,,,,,,,,,,1062.07111997,None,1062.07111997,None,1062.07111997,None,m,1,0.7012556099998619,1063.6216422430007,None,1063.6216422430007,None,1063.6216422430007,None,1064.3901906660012,None,1064.3901906660012,None,1064.3901906660012,None,1064.3901906660012,None,,,,,,,,,,,,,,,,,,,,,,,,,,,,,,,,,,,,,,,,,,,,001,148,2020_Feb_20_1127,spring_faces,3.1.5,60.02037883915873,
condition files/Stage1_2.xlsx,,B3,T4,m,"['c', 'm']","['Clue', 'Monopoly']","[-0.15, 0.5]","[0.15, 0.5]",1,1,,,,,,,,,0,11,11,11,0,2,2,6,,,,,,,,,,,,,,,,,,,,,,,,,,,,,,,,,,,,,,,,,,,,,,,,,,,,,,,1066.354522132,None,1066.354522132,None,1066.354522132,None,m,1,0.7541236430006393,1067.9048341440011,None,1067.9048341440011,None,1067.9048341440011,None,1068.7218493170003,None,1068.7218493170003,None,1068.7218493170003,None,1068.7218493170003,None,,,,,,,,,,,,,,,,,,,,,,,,,,,,,,,,,,,,,,,,,,,,001,148,2020_Feb_20_1127,spring_faces,3.1.5,60.02037883915873,
condition files/Stage1_2.xlsx,,B1,T1,c,"['c', 'm']","['Clue', 'Monopoly']","[-0.15, 0.5]","[0.15, 0.5]",1,1,,,,,,,,,0,11,11,11,0,3,3,0,,,,,,,,,,,,,,,,,,,,,,,,,,,,,,,,,,,,,,,,,,,,,,,,,,,,,,,1070.6879299360007,None,1070.6879299360007,None,1070.6879299360007,None,c,1,0.8053993699995772,1072.2375661980004,None,1072.2375661980004,None,1072.2375661980004,None,1073.120795750001,None,1073.120795750001,None,1073.120795750001,None,1073.120795750001,None,,,,,,,,,,,,,,,,,,,,,,,,,,,,,,,,,,,,,,,,,,,,001,148,2020_Feb_20_1127,spring_faces,3.1.5,60.02037883915873,
condition files/Stage1_2.xlsx,,T1,B2,m,"['c', 'm']","['Clue', 'Monopoly']","[-0.15, 0.5]","[0.15, 0.5]",1,1,,,,,,,,,0,11,11,11,0,4,4,2,,,,,,,,,,,,,,,,,,,,,,,,,,,,,,,,,,,,,,,,,,,,,,,,,,,,,,,1075.0710778170014,None,1075.0710778170014,None,1075.0710778170014,None,m,1,1.765441589999682,1076.621496492,None,1076.621496492,None,1076.621496492,None,1078.454417768,None,1078.454417768,None,1078.454417768,None,1078.454417768,None,,,,,,,,,,,,,,,,,,,,,,,,,,,,,,,,,,,,,,,,,,,,001,148,2020_Feb_20_1127,spring_faces,3.1.5,60.02037883915873,
condition files/Stage1_2.xlsx,,T3,B3,c,"['c', 'm']","['Clue', 'Monopoly']","[-0.15, 0.5]","[0.15, 0.5]",1,1,,,,,,,,,0,11,11,11,0,5,5,4,,,,,,,,,,,,,,,,,,,,,,,,,,,,,,,,,,,,,,,,,,,,,,,,,,,,,,,1080.4044444259998,None,1080.4044444259998,None,1080.4044444259998,None,c,1,0.8171528379989468,1081.9377557610005,None,1081.9377557610005,None,1081.9377557610005,None,1082.8220970430011,None,1082.8220970430011,None,1082.8220970430011,None,1082.8220970430011,None,,,,,,,,,,,,,,,,,,,,,,,,,,,,,,,,,,,,,,,,,,,,001,148,2020_Feb_20_1127,spring_faces,3.1.5,60.02037883915873,
condition files/Stage1_2.xlsx,,B2,T2,m,"['c', 'm']","['Clue', 'Monopoly']","[-0.15, 0.5]","[0.15, 0.5]",1,1,,,,,,,,,0,11,11,11,0,6,6,3,,,,,,,,,,,,,,,,,,,,,,,,,,,,,,,,,,,,,,,,,,,,,,,,,,,,,,,1084.7878053240001,None,1084.7878053240001,None,1084.7878053240001,None,m,1,0.8167061009989993,1086.3381876700005,None,1086.3381876700005,None,1086.3381876700005,None,1087.2230250810007,None,1087.2230250810007,None,1087.2230250810007,None,1087.2230250810007,None,,,,,,,,,,,,,,,,,,,,,,,,,,,,,,,,,,,,,,,,,,,,001,148,2020_Feb_20_1127,spring_faces,3.1.5,60.02037883915873,
condition files/Stage1_2.xlsx,,T2,B1,c,"['c', 'm']","['Clue', 'Monopoly']","[-0.15, 0.5]","[0.15, 0.5]",1,1,,,,,,,,,0,11,11,11,0,7,7,1,,,,,,,,,,,,,,,,,,,,,,,,,,,,,,,,,,,,,,,,,,,,,,,,,,,,,,,1089.1872688800013,None,1089.1872688800013,None,1089.1872688800013,None,c,1,2.4646211999988736,1090.7223481420006,None,1090.7223481420006,None,1090.7223481420006,None,1093.238600353001,None,1093.238600353001,None,1093.238600353001,None,1093.238600353001,None,,,,,,,,,,,,,,,,,,,,,,,,,,,,,,,,,,,,,,,,,,,,001,148,2020_Feb_20_1127,spring_faces,3.1.5,60.02037883915873,
,,,,,,,,,,,,,,,,,,,,,,,,,,,,,,,,,,,,,,,,,,,,,,,,,,,,,,,,,,,,,,,,,,,,,,,,,,,,,,,,,,,,,,,,,,,,,,,,,,,,,,,,,,,,,,,,1095.220932663,None,space,4.741848867999579,1100.2211922490005,None,,,,,,,,,,,,,,,,,,,,,,,,,,,,,,001,148,2020_Feb_20_1127,spring_faces,3.1.5,60.02037883915873,
condition files/Stage2_1.xlsx,,B4,T4,r,"['s', 'r']","['Stratego', 'Risk']","[-0.15, 0.5]","[0.15, 0.5]",1,1,,,,,,,,,,,,,,,,,0,0,0,0,0,0,0,5,,,,,,,,,,,,,,,,,,,,,,,,,,,,,,,,,,,,,,,,,,,,,,,1105.0215260880013,None,1105.0215260880013,None,1105.0215260880013,None,s,0,9.705105103999813,1106.5378777760016,None,1106.5378777760016,None,1106.5378777760016,None,1116.3210527280007,None,1116.3210527280007,None,1116.3210527280007,None,1116.3210527280007,None,,,,,,,,,,,,,,,1100.2211922490005,None,,,,,,,,,,,,,,,,,,,,,,,,,,,,001,148,2020_Feb_20_1127,spring_faces,3.1.5,60.02037883915873,
condition files/Stage2_1.xlsx,,T3,B3,s,"['s', 'r']","['Stratego', 'Risk']","[-0.15, 0.5]","[0.15, 0.5]",1,1,,,,,,,,,,,,,,,,,0,0,0,0,0,1,1,4,,,,,,,,,,,,,,,,,,,,,,,,,,,,,,,,,,,,,,,,,,,,,,,1118.271217515001,None,1118.271217515001,None,1118.271217515001,None,s,1,1.478239265999946,1119.8047128830003,None,1119.8047128830003,None,1119.8047128830003,None,1121.3393216120003,None,1121.3393216120003,None,1121.3393216120003,None,1121.3393216120003,None,,,,,,,,,,,,,,,,,,,,,,,,,,,,,,,,,,,,,,,,,,,,001,148,2020_Feb_20_1127,spring_faces,3.1.5,60.02037883915873,
condition files/Stage2_1.xlsx,,T5,B5,s,"['s', 'r']","['Stratego', 'Risk']","[-0.15, 0.5]","[0.15, 0.5]",1,1,,,,,,,,,,,,,,,,,0,0,0,0,0,2,2,0,,,,,,,,,,,,,,,,,,,,,,,,,,,,,,,,,,,,,,,,,,,,,,,1123.3044430280006,None,1123.3044430280006,None,1123.3044430280006,None,r,0,2.651839301999644,1124.8391301310003,None,1124.8391301310003,None,1124.8391301310003,None,1127.5549255960013,None,1127.5549255960013,None,1127.5549255960013,None,1127.5549255960013,None,,,,,,,,,,,,,,,,,,,,,,,,,,,,,,,,,,,,,,,,,,,,001,148,2020_Feb_20_1127,spring_faces,3.1.5,60.02037883915873,
condition files/Stage2_1.xlsx,,B2,T2,r,"['s', 'r']","['Stratego', 'Risk']","[-0.15, 0.5]","[0.15, 0.5]",1,1,,,,,,,,,,,,,,,,,0,0,0,0,0,3,3,3,,,,,,,,,,,,,,,,,,,,,,,,,,,,,,,,,,,,,,,,,,,,,,,1129.5210055450007,None,1129.5210055450007,None,1129.5210055450007,None,r,1,1.3166428299991821,1131.0543189660002,None,1131.0543189660002,None,1131.0543189660002,None,1132.422964065001,None,1132.422964065001,None,1132.422964065001,None,1132.422964065001,None,,,,,,,,,,,,,,,,,,,,,,,,,,,,,,,,,,,,,,,,,,,,001,148,2020_Feb_20_1127,spring_faces,3.1.5,60.02037883915873,
condition files/Stage2_1.xlsx,,T1,B1,s,"['s', 'r']","['Stratego', 'Risk']","[-0.15, 0.5]","[0.15, 0.5]",1,1,,,,,,,,,,,,,,,,,0,0,0,0,0,4,4,2,,,,,,,,,,,,,,,,,,,,,,,,,,,,,,,,,,,,,,,,,,,,,,,1134.3871935060015,None,1134.3871935060015,None,1134.3871935060015,None,s,1,1.0262026079999487,1135.920836090001,None,1135.920836090001,None,1135.920836090001,None,1137.0214561050016,None,1137.0214561050016,None,1137.0214561050016,None,1137.0214561050016,None,,,,,,,,,,,,,,,,,,,,,,,,,,,,,,,,,,,,,,,,,,,,001,148,2020_Feb_20_1127,spring_faces,3.1.5,60.02037883915873,
condition files/Stage2_1.xlsx,,B6,T6,r,"['s', 'r']","['Stratego', 'Risk']","[-0.15, 0.5]","[0.15, 0.5]",1,1,,,,,,,,,,,,,,,,,0,0,0,0,0,5,5,1,,,,,,,,,,,,,,,,,,,,,,,,,,,,,,,,,,,,,,,,,,,,,,,1138.971239722001,None,1138.971239722001,None,1138.971239722001,None,s,0,1.784262809998836,1140.5546027910004,None,1140.5546027910004,None,1140.5546027910004,None,1142.421427364001,None,1142.421427364001,None,1142.421427364001,None,1142.421427364001,None,,,,,,,,,,,,,,,,,,,,,,,,,,,,,,,,,,,,,,,,,,,,001,148,2020_Feb_20_1127,spring_faces,3.1.5,60.02037883915873,
condition files/Stage2_2.xlsx,,B3,T3,s,"['s', 'r']","['Stratego', 'Risk']","[-0.15, 0.5]","[0.15, 0.5]",1,1,,,,,,,,,,,,,,,,,0,1,1,1,0,0,0,4,,,,,,,,,,,,,,,,,,,,,,,,,,,,,,,,,,,,,,,,,,,,,,,1144.388237178,None,1144.388237178,None,1144.388237178,None,s,1,1.296514562000084,1145.9383789580006,None,1145.9383789580006,None,1145.9383789580006,None,1147.3048712770014,None,1147.3048712770014,None,1147.3048712770014,None,1147.3048712770014,None,,,,,,,,,,,,,,,,,,,,,,,,,,,,,,,,,,,,,,,,,,,,001,148,2020_Feb_20_1127,spring_faces,3.1.5,60.02037883915873,
condition files/Stage2_2.xlsx,,T2,B2,r,"['s', 'r']","['Stratego', 'Risk']","[-0.15, 0.5]","[0.15, 0.5]",1,1,,,,,,,,,,,,,,,,,0,1,1,1,0,1,1,3,,,,,,,,,,,,,,,,,,,,,,,,,,,,,,,,,,,,,,,,,,,,,,,1149.2538240580016,None,1149.2538240580016,None,1149.2538240580016,None,r,1,1.230544894000559,1150.8044622310008,None,1150.8044622310008,None,1150.8044622310008,None,1152.0906375710001,None,1152.0906375710001,None,1152.0906375710001,None,1152.0906375710001,None,,,,,,,,,,,,,,,,,,,,,,,,,,,,,,,,,,,,,,,,,,,,001,148,2020_Feb_20_1127,spring_faces,3.1.5,60.02037883915873,
condition files/Stage2_2.xlsx,,T6,B6,r,"['s', 'r']","['Stratego', 'Risk']","[-0.15, 0.5]","[0.15, 0.5]",1,1,,,,,,,,,,,,,,,,,0,1,1,1,0,2,2,1,,,,,,,,,,,,,,,,,,,,,,,,,,,,,,,,,,,,,,,,,,,,,,,1154.0541955030003,None,1154.0541955030003,None,1154.0541955030003,None,r,1,1.4858834290007508,1155.6050742980005,None,1155.6050742980005,None,1155.6050742980005,None,1157.1542175860013,None,1157.1542175860013,None,1157.1542175860013,None,1157.1542175860013,None,,,,,,,,,,,,,,,,,,,,,,,,,,,,,,,,,,,,,,,,,,,,001,148,2020_Feb_20_1127,spring_faces,3.1.5,60.02037883915873,
condition files/Stage2_2.xlsx,,B1,T1,s,"['s', 'r']","['Stratego', 'Risk']","[-0.15, 0.5]","[0.15, 0.5]",1,1,,,,,,,,,,,,,,,,,0,1,1,1,0,3,3,2,,,,,,,,,,,,,,,,,,,,,,,,,,,,,,,,,,,,,,,,,,,,,,,1159.1209537520008,None,1159.1209537520008,None,1159.1209537520008,None,r,0,2.548091842001668,1160.6549028750014,None,1160.6549028750014,None,1160.6549028750014,None,1163.2716003200003,None,1163.2716003200003,None,1163.2716003200003,None,1163.2716003200003,None,,,,,,,,,,,,,,,,,,,,,,,,,,,,,,,,,,,,,,,,,,,,001,148,2020_Feb_20_1127,spring_faces,3.1.5,60.02037883915873,
condition files/Stage2_2.xlsx,,B5,T5,s,"['s', 'r']","['Stratego', 'Risk']","[-0.15, 0.5]","[0.15, 0.5]",1,1,,,,,,,,,,,,,,,,,0,1,1,1,0,4,4,0,,,,,,,,,,,,,,,,,,,,,,,,,,,,,,,,,,,,,,,,,,,,,,,1165.221147794,None,1165.221147794,None,1165.221147794,None,s,1,1.6314446150008735,1166.771501299001,None,1166.771501299001,None,1166.771501299001,None,1168.45427604,None,1168.45427604,None,1168.45427604,None,1168.45427604,None,,,,,,,,,,,,,,,,,,,,,,,,,,,,,,,,,,,,,,,,,,,,001,148,2020_Feb_20_1127,spring_faces,3.1.5,60.02037883915873,
condition files/Stage2_2.xlsx,,T4,B4,r,"['s', 'r']","['Stratego', 'Risk']","[-0.15, 0.5]","[0.15, 0.5]",1,1,,,,,,,,,,,,,,,,,0,1,1,1,0,5,5,5,,,,,,,,,,,,,,,,,,,,,,,,,,,,,,,,,,,,,,,,,,,,,,,1170.4210909600006,None,1170.4210909600006,None,1170.4210909600006,None,r,1,1.82338659800007,1171.971633866,None,1171.971633866,None,1171.971633866,None,1173.855726271,None,1173.855726271,None,1173.855726271,None,1173.855726271,None,,,,,,,,,,,,,,,,,,,,,,,,,,,,,,,,,,,,,,,,,,,,001,148,2020_Feb_20_1127,spring_faces,3.1.5,60.02037883915873,
condition files/Stage2_1.xlsx,,B4,T4,r,"['s', 'r']","['Stratego', 'Risk']","[-0.15, 0.5]","[0.15, 0.5]",1,1,,,,,,,,,,,,,,,,,0,2,2,2,0,0,0,5,,,,,,,,,,,,,,,,,,,,,,,,,,,,,,,,,,,,,,,,,,,,,,,1175.8382541740011,None,1175.8382541740011,None,1175.8382541740011,None,r,1,0.8863097349985765,1177.3726628069999,None,1177.3726628069999,None,1177.3726628069999,None,1178.3210694640002,None,1178.3210694640002,None,1178.3210694640002,None,1178.3210694640002,None,,,,,,,,,,,,,,,,,,,,,,,,,,,,,,,,,,,,,,,,,,,,001,148,2020_Feb_20_1127,spring_faces,3.1.5,60.02037883915873,
condition files/Stage2_1.xlsx,,B6,T6,r,"['s', 'r']","['Stratego', 'Risk']","[-0.15, 0.5]","[0.15, 0.5]",1,1,,,,,,,,,,,,,,,,,0,2,2,2,0,1,1,1,,,,,,,,,,,,,,,,,,,,,,,,,,,,,,,,,,,,,,,,,,,,,,,1180.2878016160012,None,1180.2878016160012,None,1180.2878016160012,None,r,1,1.366116500001226,1181.8208448149999,None,1181.8208448149999,None,1181.8208448149999,None,1183.2384143930012,None,1183.2384143930012,None,1183.2384143930012,None,1183.2384143930012,None,,,,,,,,,,,,,,,,,,,,,,,,,,,,,,,,,,,,,,,,,,,,001,148,2020_Feb_20_1127,spring_faces,3.1.5,60.02037883915873,
condition files/Stage2_1.xlsx,,B2,T2,r,"['s', 'r']","['Stratego', 'Risk']","[-0.15, 0.5]","[0.15, 0.5]",1,1,,,,,,,,,,,,,,,,,0,2,2,2,0,2,2,3,,,,,,,,,,,,,,,,,,,,,,,,,,,,,,,,,,,,,,,,,,,,,,,1185.2044480420009,None,1185.2044480420009,None,1185.2044480420009,None,s,0,2.416048970999327,1186.7548966660015,None,1186.7548966660015,None,1186.7548966660015,None,1189.2212047270004,None,1189.2212047270004,None,1189.2212047270004,None,1189.2212047270004,None,,,,,,,,,,,,,,,,,,,,,,,,,,,,,,,,,,,,,,,,,,,,001,148,2020_Feb_20_1127,spring_faces,3.1.5,60.02037883915873,
condition files/Stage2_1.xlsx,,T3,B3,s,"['s', 'r']","['Stratego', 'Risk']","[-0.15, 0.5]","[0.15, 0.5]",1,1,,,,,,,,,,,,,,,,,0,2,2,2,0,3,3,4,,,,,,,,,,,,,,,,,,,,,,,,,,,,,,,,,,,,,,,,,,,,,,,1191.1874400550005,None,1191.1874400550005,None,1191.1874400550005,None,s,1,1.8099646560003748,1192.7210076850006,None,1192.7210076850006,None,1192.7210076850006,None,1194.604251517001,None,1194.604251517001,None,1194.604251517001,None,1194.604251517001,None,,,,,,,,,,,,,,,,,,,,,,,,,,,,,,,,,,,,,,,,,,,,001,148,2020_Feb_20_1127,spring_faces,3.1.5,60.02037883915873,
condition files/Stage2_1.xlsx,,T5,B5,s,"['s', 'r']","['Stratego', 'Risk']","[-0.15, 0.5]","[0.15, 0.5]",1,1,,,,,,,,,,,,,,,,,0,2,2,2,0,4,4,0,,,,,,,,,,,,,,,,,,,,,,,,,,,,,,,,,,,,,,,,,,,,,,,1196.5538965550004,None,1196.5538965550004,None,1196.5538965550004,None,s,1,1.0176121259992215,1198.089352465,None,1198.089352465,None,1198.089352465,None,1199.1712420080003,None,1199.1712420080003,None,1199.1712420080003,None,1199.1712420080003,None,,,,,,,,,,,,,,,,,,,,,,,,,,,,,,,,,,,,,,,,,,,,001,148,2020_Feb_20_1127,spring_faces,3.1.5,60.02037883915873,
condition files/Stage2_1.xlsx,,T1,B1,s,"['s', 'r']","['Stratego', 'Risk']","[-0.15, 0.5]","[0.15, 0.5]",1,1,,,,,,,,,,,,,,,,,0,2,2,2,0,5,5,2,,,,,,,,,,,,,,,,,,,,,,,,,,,,,,,,,,,,,,,,,,,,,,,1201.137414095001,None,1201.137414095001,None,1201.137414095001,None,s,1,2.803665256999011,1202.671307988001,None,1202.671307988001,None,1202.671307988001,None,1205.5378533460007,None,1205.5378533460007,None,1205.5378533460007,None,1205.5378533460007,None,,,,,,,,,,,,,,,,,,,,,,,,,,,,,,,,,,,,,,,,,,,,001,148,2020_Feb_20_1127,spring_faces,3.1.5,60.02037883915873,
condition files/Stage2_2.xlsx,,T2,B2,r,"['s', 'r']","['Stratego', 'Risk']","[-0.15, 0.5]","[0.15, 0.5]",1,1,,,,,,,,,,,,,,,,,0,3,3,3,0,0,0,3,,,,,,,,,,,,,,,,,,,,,,,,,,,,,,,,,,,,,,,,,,,,,,,1207.5213053690004,None,1207.5213053690004,None,1207.5213053690004,None,r,1,1.7953901710006903,1209.0555538790013,None,1209.0555538790013,None,1209.0555538790013,None,1210.9215001360008,None,1210.9215001360008,None,1210.9215001360008,None,1210.9215001360008,None,,,,,,,,,,,,,,,,,,,,,,,,,,,,,,,,,,,,,,,,,,,,001,148,2020_Feb_20_1127,spring_faces,3.1.5,60.02037883915873,
condition files/Stage2_2.xlsx,,B1,T1,s,"['s', 'r']","['Stratego', 'Risk']","[-0.15, 0.5]","[0.15, 0.5]",1,1,,,,,,,,,,,,,,,,,0,3,3,3,0,1,1,2,,,,,,,,,,,,,,,,,,,,,,,,,,,,,,,,,,,,,,,,,,,,,,,1212.8710643430004,None,1212.8710643430004,None,1212.8710643430004,None,s,1,1.3894532289996278,1214.405584469001,None,1214.405584469001,None,1214.405584469001,None,1215.8547300589998,None,1215.8547300589998,None,1215.8547300589998,None,1215.8547300589998,None,,,,,,,,,,,,,,,,,,,,,,,,,,,,,,,,,,,,,,,,,,,,001,148,2020_Feb_20_1127,spring_faces,3.1.5,60.02037883915873,
condition files/Stage2_2.xlsx,,B5,T5,s,"['s', 'r']","['Stratego', 'Risk']","[-0.15, 0.5]","[0.15, 0.5]",1,1,,,,,,,,,,,,,,,,,0,3,3,3,0,2,2,0,,,,,,,,,,,,,,,,,,,,,,,,,,,,,,,,,,,,,,,,,,,,,,,1217.821139081001,None,1217.821139081001,None,1217.821139081001,None,s,1,1.0646994359995006,1219.3542992970015,None,1219.3542992970015,None,1219.3542992970015,None,1220.471439799001,None,1220.471439799001,None,1220.471439799001,None,1220.471439799001,None,,,,,,,,,,,,,,,,,,,,,,,,,,,,,,,,,,,,,,,,,,,,001,148,2020_Feb_20_1127,spring_faces,3.1.5,60.02037883915873,
condition files/Stage2_2.xlsx,,B3,T3,s,"['s', 'r']","['Stratego', 'Risk']","[-0.15, 0.5]","[0.15, 0.5]",1,1,,,,,,,,,,,,,,,,,0,3,3,3,0,3,3,4,,,,,,,,,,,,,,,,,,,,,,,,,,,,,,,,,,,,,,,,,,,,,,,1222.4377812300008,None,1222.4377812300008,None,1222.4377812300008,None,s,1,2.047099130000788,1223.971864534,None,1223.971864534,None,1223.971864534,None,1226.0713206340006,None,1226.0713206340006,None,1226.0713206340006,None,1226.0713206340006,None,,,,,,,,,,,,,,,,,,,,,,,,,,,,,,,,,,,,,,,,,,,,001,148,2020_Feb_20_1127,spring_faces,3.1.5,60.02037883915873,
condition files/Stage2_2.xlsx,,T6,B6,r,"['s', 'r']","['Stratego', 'Risk']","[-0.15, 0.5]","[0.15, 0.5]",1,1,,,,,,,,,,,,,,,,,0,3,3,3,0,4,4,1,,,,,,,,,,,,,,,,,,,,,,,,,,,,,,,,,,,,,,,,,,,,,,,1228.0378002449997,None,1228.0378002449997,None,1228.0378002449997,None,r,1,1.0713251540000783,1229.5716527640016,None,1229.5716527640016,None,1229.5716527640016,None,1230.7213906720008,None,1230.7213906720008,None,1230.7213906720008,None,1230.7213906720008,None,,,,,,,,,,,,,,,,,,,,,,,,,,,,,,,,,,,,,,,,,,,,001,148,2020_Feb_20_1127,spring_faces,3.1.5,60.02037883915873,
condition files/Stage2_2.xlsx,,T4,B4,r,"['s', 'r']","['Stratego', 'Risk']","[-0.15, 0.5]","[0.15, 0.5]",1,1,,,,,,,,,,,,,,,,,0,3,3,3,0,5,5,5,,,,,,,,,,,,,,,,,,,,,,,,,,,,,,,,,,,,,,,,,,,,,,,1232.6705513739998,None,1232.6705513739998,None,1232.6705513739998,None,r,1,3.2537450780000654,1234.2212110640012,None,1234.2212110640012,None,1234.2212110640012,None,1237.5381284300001,None,1237.5381284300001,None,1237.5381284300001,None,1237.5381284300001,None,,,,,,,,,,,,,,,,,,,,,,,,,,,,,,,,,,,,,,,,,,,,001,148,2020_Feb_20_1127,spring_faces,3.1.5,60.02037883915873,
condition files/Stage2_1.xlsx,,T3,B3,s,"['s', 'r']","['Stratego', 'Risk']","[-0.15, 0.5]","[0.15, 0.5]",1,1,,,,,,,,,,,,,,,,,0,4,4,4,0,0,0,4,,,,,,,,,,,,,,,,,,,,,,,,,,,,,,,,,,,,,,,,,,,,,,,1239.521486918,None,1239.521486918,None,1239.521486918,None,s,1,0.9157894519994443,1241.0711763610016,None,1241.0711763610016,None,1241.0711763610016,None,1242.0546825810015,None,1242.0546825810015,None,1242.0546825810015,None,1242.0546825810015,None,,,,,,,,,,,,,,,,,,,,,,,,,,,,,,,,,,,,,,,,,,,,001,148,2020_Feb_20_1127,spring_faces,3.1.5,60.02037883915873,
condition files/Stage2_1.xlsx,,T1,B1,s,"['s', 'r']","['Stratego', 'Risk']","[-0.15, 0.5]","[0.15, 0.5]",1,1,,,,,,,,,,,,,,,,,0,4,4,4,0,1,1,2,,,,,,,,,,,,,,,,,,,,,,,,,,,,,,,,,,,,,,,,,,,,,,,1244.0046328610006,None,1244.0046328610006,None,1244.0046328610006,None,s,1,1.0882341889991949,1245.5387497010015,None,1245.5387497010015,None,1245.5387497010015,None,1246.6882261420014,None,1246.6882261420014,None,1246.6882261420014,None,1246.6882261420014,None,,,,,,,,,,,,,,,,,,,,,,,,,,,,,,,,,,,,,,,,,,,,001,148,2020_Feb_20_1127,spring_faces,3.1.5,60.02037883915873,
condition files/Stage2_1.xlsx,,B6,T6,r,"['s', 'r']","['Stratego', 'Risk']","[-0.15, 0.5]","[0.15, 0.5]",1,1,,,,,,,,,,,,,,,,,0,4,4,4,0,2,2,1,,,,,,,,,,,,,,,,,,,,,,,,,,,,,,,,,,,,,,,,,,,,,,,1248.6544878189998,None,1248.6544878189998,None,1248.6544878189998,None,r,1,0.8701781480012869,1250.1888040120011,None,1250.1888040120011,None,1250.1888040120011,None,1251.121400645001,None,1251.121400645001,None,1251.121400645001,None,1251.121400645001,None,,,,,,,,,,,,,,,,,,,,,,,,,,,,,,,,,,,,,,,,,,,,001,148,2020_Feb_20_1127,spring_faces,3.1.5,60.02037883915873,
condition files/Stage2_1.xlsx,,B4,T4,r,"['s', 'r']","['Stratego', 'Risk']","[-0.15, 0.5]","[0.15, 0.5]",1,1,,,,,,,,,,,,,,,,,0,4,4,4,0,3,3,5,,,,,,,,,,,,,,,,,,,,,,,,,,,,,,,,,,,,,,,,,,,,,,,1253.0876714990009,None,1253.0876714990009,None,1253.0876714990009,None,r,1,0.9658318599995255,1254.6211343530013,None,1254.6211343530013,None,1254.6211343530013,None,1255.638309246,None,1255.638309246,None,1255.638309246,None,1255.638309246,None,,,,,,,,,,,,,,,,,,,,,,,,,,,,,,,,,,,,,,,,,,,,001,148,2020_Feb_20_1127,spring_faces,3.1.5,60.02037883915873,
