condsFile,subStage,cue1,cue2,correct,responseKeys,responseNames,cue1Position,cue2Position,cue1Opacity,cue2Opacity,stageLoop0.thisRepN,stageLoop0.thisTrialN,stageLoop0.thisN,stageLoop0.thisIndex,blockLoop0.thisRepN,blockLoop0.thisTrialN,blockLoop0.thisN,blockLoop0.thisIndex,stage1Loop.thisRepN,stage1Loop.thisTrialN,stage1Loop.thisN,stage1Loop.thisIndex,blockLoop1.thisRepN,blockLoop1.thisTrialN,blockLoop1.thisN,blockLoop1.thisIndex,stage2Loop.thisRepN,stage2Loop.thisTrialN,stage2Loop.thisN,stage2Loop.thisIndex,blockLoop2.thisRepN,blockLoop2.thisTrialN,blockLoop2.thisN,blockLoop2.thisIndex,testLoop.thisRepN,testLoop.thisTrialN,testLoop.thisN,testLoop.thisIndex,blockLoopTest.thisRepN,blockLoopTest.thisTrialN,blockLoopTest.thisN,blockLoopTest.thisIndex,cuePics,id_instr_text.started,id_instr_text.stopped,space_to_continue_2.started,space_to_continue_2.stopped,end_instructions_resp_3.keys,end_instructions_resp_3.rt,end_instructions_resp_3.started,end_instructions_resp_3.stopped,id_input_instr.started,id_input_instr.stopped,id_input_rect.started,id_input_rect.stopped,id_input_resp.keys,id_input_resp.rt,id_input_resp.started,id_input_resp.stopped,sonaID,id_input_text.started,id_input_text.stopped,final_text.started,final_text.stopped,instructions.started,instructions.stopped,end_instructions_resp.keys,end_instructions_resp.rt,end_instructions_resp.started,end_instructions_resp.stopped,space_to_continue.started,space_to_continue.stopped,instructions_stage0.started,instructions_stage0.stopped,end_instructions_resp_stage0.keys,end_instructions_resp_stage0.rt,end_instructions_resp_stage0.started,end_instructions_resp_stage0.stopped,space_to_continue_stage0.started,space_to_continue_stage0.stopped,text.started,text.stopped,resp_text1.started,resp_text1.stopped,resp_text2.started,resp_text2.stopped,trial_resp.keys,trial_resp.corr,trial_resp.rt,trial_resp.started,trial_resp.stopped,cue1Image.started,cue1Image.stopped,cue2Image.started,cue2Image.stopped,cue1Image_fb.started,cue1Image_fb.stopped,cue2Image_fb.started,cue2Image_fb.stopped,fb_text_answer.started,fb_text_answer.stopped,feedback_image.started,feedback_image.stopped,instructions_stage1.started,instructions_stage1.stopped,end_instructions_resp_stage1.keys,end_instructions_resp_stage1.rt,end_instructions_resp_stage1.started,end_instructions_resp_stage1.stopped,space_to_continue_stage1.started,space_to_continue_stage1.stopped,instructions_2.started,instructions_2.stopped,end_instructions_resp_2.keys,end_instructions_resp_2.rt,end_instructions_resp_2.started,end_instructions_resp_2.stopped,press_space_to_continue_stage2.started,press_space_to_continue_stage2.stopped,instructions_testStage1.started,instructions_testStage1.stopped,end_instructions_resp_test1.keys,end_instructions_resp_test1.rt,end_instructions_resp_test1.started,end_instructions_resp_test1.stopped,press_space_to_continue_test1.started,press_space_to_continue_test1.stopped,cue1Image_testChoice.started,cue1Image_testChoice.stopped,cue2Image_testChoice.started,cue2Image_testChoice.stopped,test_resp.keys,test_resp.corr,test_resp.rt,test_resp.started,test_resp.stopped,cue1Image_testConf.started,cue1Image_testConf.stopped,cue2Image_testConf.started,cue2Image_testConf.stopped,conf_reminder.started,conf_reminder.stopped,conf_rating.response,conf_rating.rt,conf_rating.started,conf_rating.stopped,session,participant,date,expName,psychopyVersion,frameRate,
,,,,,,,,,,,,,,,,,,,,,,,,,,,,,,,,,,,,,,,,,,,"{'none': 'pictures/20M_AN_C.png', 'alpha': 'pictures/SHINEd_melon.png', 'beta': 'pictures/SHINEd_pear.png', 'theta': 'pictures/SHINEd_apple.png', 'phi': 'pictures/SHINEd_pepper.png', 'T1': 'pictures/36M_AN_C.png', 'T2': 'pictures/33M_AN_C.png', 'T3': 'pictures/20M_AN_C.png', 'T4': 'pictures/31M_AN_C.png', 'T5': 'pictures/38M_AN_C.png', 'T6': 'pictures/23M_AN_C.png', 'B1': 'pictures/26M_NE_C.png', 'B2': 'pictures/37M_NE_C.png', 'B3': 'pictures/34M_NE_C.png', 'B4': 'pictures/25M_NE_C.png', 'B5': 'pictures/32M_NE_C.png', 'B6': 'pictures/22M_NE_C.png'}",21.429789031000837,None,26.396351307999794,None,space,212.7931278289998,26.396351307999794,None,,,,,,,,,,,,,,,,,,,,,,,,,,,,,,,,,,,,,,,,,,,,,,,,,,,,,,,,,,,,,,,,,,,,,,,,,,,,,,,,,,,,,,,,,,,,,,,,001,149,2020_Feb_20_1154,spring_faces,3.2.3,60.00331926360273,
,,,,,,,,,,,,,,,,,,,,,,,,,,,,,,,,,,,,,,,,,,,,,,,,,,,,239.59632900299948,None,239.59632900299948,None,"['c', 'y', 'backspace', 'backspace', '0', '1', '2', '9', 'c', 'y', 'a', 'l', 'e']","[29.881174968999403, 30.60101194299932, 32.073088152999844, 32.28116046099967, 33.25707665600021, 33.513139565999154, 34.61702305499966, 34.77710759099864, 38.34511131999898, 38.68116925100003, 42.12108549899858, 42.31314760699934, 42.44098551499883]",239.59632900299948,None,,,,,,,,,,,,,,,,,,,,,,,,,,,,,,,,,,,,,,,,,,,,,,,,,,,,,,,,,,,,,,,,,,,,,,,,,,,,,,,,,,,,,,,,001,149,2020_Feb_20_1154,spring_faces,3.2.3,60.00331926360273,
,,,,,,,,,,,,,,,,,,,,,,,,,,,,,,,,,,,,,,,,,,,,,,,,,,,,,,,,,,,,0129cyale,239.59632900299948,None,239.59632900299948,None,287.09632766899995,None,space,2.6778095350000513,292.0796555670004,None,,,,,,,,,,,,,,,,,,,,,,,,,,,,,,,,,,,,,,,,,,,,,,,,,,,,,,,,,,,,,,,,,,,,,,,,,,,,,001,149,2020_Feb_20_1154,spring_faces,3.2.3,60.00331926360273,
,,,,,,,,,,,,,,,,,,,,,,,,,,,,,,,,,,,,,,,,,,,,,,,,,,,,,,,,,,,,,,,,,,,,,,,292.0796555670004,None,294.7797122659995,None,space,6.754410906998601,299.76300776599965,None,,,,,,,,,,,,,,,,,,,,,,,,,,,,,,,,,,,,,,,,,,,,,,,,,,,,,,,,,,,,,,,,,,,,,001,149,2020_Feb_20_1154,spring_faces,3.2.3,60.00331926360273,
condition files/Stage0a.xlsx,0a,alpha,none,h,"['h', 'g']","['Chess', 'Go']","[0, 0.5]","[0, 0]",1,0,0,0,0,0,0,0,0,0,,,,,,,,,,,,,,,,,,,,,,,,,,,,,,,,,,,,,,,,,,,,,,,,,,,,,,,,,,,,,299.76300776599965,None,306.5796596830005,None,306.5796596830005,None,306.5796596830005,None,h,1,2.562367381000513,308.16304579700045,None,308.16304579700045,None,308.16304579700045,None,310.79632518499966,None,310.79632518499966,None,310.79632518499966,None,310.79632518499966,None,,,,,,,,,,,,,,,,,,,,,,,,,,,,,,,,,,,,,,,,,,,,001,149,2020_Feb_20_1154,spring_faces,3.2.3,60.00331926360273,
condition files/Stage0a.xlsx,0a,beta,none,g,"['h', 'g']","['Chess', 'Go']","[0, 0.5]","[0, 0]",1,0,0,0,0,0,0,1,1,1,,,,,,,,,,,,,,,,,,,,,,,,,,,,,,,,,,,,,,,,,,,,,,,,,,,,,,,,,,,,,,,312.76303535199986,None,312.76303535199986,None,312.76303535199986,None,g,1,1.4691404639997927,314.29628207600035,None,314.29628207600035,None,314.29628207600035,None,315.8462762899999,None,315.8462762899999,None,315.8462762899999,None,315.8462762899999,None,,,,,,,,,,,,,,,,,,,,,,,,,,,,,,,,,,,,,,,,,,,,001,149,2020_Feb_20_1154,spring_faces,3.2.3,60.00331926360273,
condition files/Stage0a.xlsx,0a,beta,none,g,"['h', 'g']","['Chess', 'Go']","[0, 0.5]","[0, 0]",1,0,0,1,1,1,0,0,0,1,,,,,,,,,,,,,,,,,,,,,,,,,,,,,,,,,,,,,,,,,,,,,,,,,,,,,,,,,,,,,,,317.8296341639998,None,317.8296341639998,None,317.8296341639998,None,g,1,1.0584501860012097,319.3630174350001,None,319.3630174350001,None,319.3630174350001,None,320.47968494700035,None,320.47968494700035,None,320.47968494700035,None,320.47968494700035,None,,,,,,,,,,,,,,,,,,,,,,,,,,,,,,,,,,,,,,,,,,,,001,149,2020_Feb_20_1154,spring_faces,3.2.3,60.00331926360273,
condition files/Stage0a.xlsx,0a,alpha,none,h,"['h', 'g']","['Chess', 'Go']","[0, 0.5]","[0, 0]",1,0,0,1,1,1,0,1,1,0,,,,,,,,,,,,,,,,,,,,,,,,,,,,,,,,,,,,,,,,,,,,,,,,,,,,,,,,,,,,,,,322.46302451200063,None,322.46302451200063,None,322.46302451200063,None,h,1,1.01703707300112,323.9963387259995,None,323.9963387259995,None,323.9963387259995,None,325.0963099929995,None,325.0963099929995,None,325.0963099929995,None,325.0963099929995,None,,,,,,,,,,,,,,,,,,,,,,,,,,,,,,,,,,,,,,,,,,,,001,149,2020_Feb_20_1154,spring_faces,3.2.3,60.00331926360273,
condition files/Stage0a.xlsx,0a,beta,none,g,"['h', 'g']","['Chess', 'Go']","[0, 0.5]","[0, 0]",1,0,0,2,2,2,0,0,0,1,,,,,,,,,,,,,,,,,,,,,,,,,,,,,,,,,,,,,,,,,,,,,,,,,,,,,,,,,,,,,,,327.0796182140002,None,327.0796182140002,None,327.0796182140002,None,g,1,0.6884464630002185,328.61301953600014,None,328.61301953600014,None,328.61301953600014,None,329.3630124270003,None,329.3630124270003,None,329.3630124270003,None,329.3630124270003,None,,,,,,,,,,,,,,,,,,,,,,,,,,,,,,,,,,,,,,,,,,,,001,149,2020_Feb_20_1154,spring_faces,3.2.3,60.00331926360273,
condition files/Stage0a.xlsx,0a,alpha,none,h,"['h', 'g']","['Chess', 'Go']","[0, 0.5]","[0, 0]",1,0,0,2,2,2,0,1,1,0,,,,,,,,,,,,,,,,,,,,,,,,,,,,,,,,,,,,,,,,,,,,,,,,,,,,,,,,,,,,,,,331.3463811590009,None,331.3463811590009,None,331.3463811590009,None,h,1,0.661742148000485,332.8797017399993,None,332.8797017399993,None,332.8797017399993,None,333.6129960369999,None,333.6129960369999,None,333.6129960369999,None,333.6129960369999,None,,,,,,,,,,,,,,,,,,,,,,,,,,,,,,,,,,,,,,,,,,,,001,149,2020_Feb_20_1154,spring_faces,3.2.3,60.00331926360273,
condition files/Stage0a.xlsx,0a,alpha,none,h,"['h', 'g']","['Chess', 'Go']","[0, 0.5]","[0, 0]",1,0,0,3,3,3,0,0,0,0,,,,,,,,,,,,,,,,,,,,,,,,,,,,,,,,,,,,,,,,,,,,,,,,,,,,,,,,,,,,,,,335.59632701699957,None,335.59632701699957,None,335.59632701699957,None,h,1,1.7077857129988843,337.1296740220005,None,337.1296740220005,None,337.1296740220005,None,338.8963642489998,None,338.8963642489998,None,338.8963642489998,None,338.8963642489998,None,,,,,,,,,,,,,,,,,,,,,,,,,,,,,,,,,,,,,,,,,,,,001,149,2020_Feb_20_1154,spring_faces,3.2.3,60.00331926360273,
condition files/Stage0a.xlsx,0a,beta,none,g,"['h', 'g']","['Chess', 'Go']","[0, 0.5]","[0, 0]",1,0,0,3,3,3,0,1,1,1,,,,,,,,,,,,,,,,,,,,,,,,,,,,,,,,,,,,,,,,,,,,,,,,,,,,,,,,,,,,,,,340.87968079299935,None,340.87968079299935,None,340.87968079299935,None,g,1,0.6804552510002395,342.4130353689998,None,342.4130353689998,None,342.4130353689998,None,343.14636306899956,None,343.14636306899956,None,343.14636306899956,None,343.14636306899956,None,,,,,,,,,,,,,,,,,,,,,,,,,,,,,,,,,,,,,,,,,,,,001,149,2020_Feb_20_1154,spring_faces,3.2.3,60.00331926360273,
condition files/Stage0a.xlsx,0a,alpha,none,h,"['h', 'g']","['Chess', 'Go']","[0, 0.5]","[0, 0]",1,0,0,4,4,4,0,0,0,0,,,,,,,,,,,,,,,,,,,,,,,,,,,,,,,,,,,,,,,,,,,,,,,,,,,,,,,,,,,,,,,345.1463140470005,None,345.1463140470005,None,345.1463140470005,None,h,1,0.5737805909993767,346.67966503800017,None,346.67966503800017,None,346.67966503800017,None,347.3296629110009,None,347.3296629110009,None,347.3296629110009,None,347.3296629110009,None,,,,,,,,,,,,,,,,,,,,,,,,,,,,,,,,,,,,,,,,,,,,001,149,2020_Feb_20_1154,spring_faces,3.2.3,60.00331926360273,
condition files/Stage0a.xlsx,0a,beta,none,g,"['h', 'g']","['Chess', 'Go']","[0, 0.5]","[0, 0]",1,0,0,4,4,4,0,1,1,1,,,,,,,,,,,,,,,,,,,,,,,,,,,,,,,,,,,,,,,,,,,,,,,,,,,,,,,,,,,,,,,349.2963585430007,None,349.2963585430007,None,349.2963585430007,None,g,1,0.4877605540004879,350.8296675389993,None,350.8296675389993,None,350.8296675389993,None,351.37969681100003,None,351.37969681100003,None,351.37969681100003,None,351.37969681100003,None,,,,,,,,,,,,,,,,,,,,,,,,,,,,,,,,,,,,,,,,,,,,001,149,2020_Feb_20_1154,spring_faces,3.2.3,60.00331926360273,
condition files/Stage0a.xlsx,0a,alpha,none,h,"['h', 'g']","['Chess', 'Go']","[0, 0.5]","[0, 0]",1,0,0,5,5,5,0,0,0,0,,,,,,,,,,,,,,,,,,,,,,,,,,,,,,,,,,,,,,,,,,,,,,,,,,,,,,,,,,,,,,,353.37965874399924,None,353.37965874399924,None,353.37965874399924,None,h,1,0.8524092770003335,354.91299787800017,None,354.91299787800017,None,354.91299787800017,None,355.8463503519997,None,355.8463503519997,None,355.8463503519997,None,355.8463503519997,None,,,,,,,,,,,,,,,,,,,,,,,,,,,,,,,,,,,,,,,,,,,,001,149,2020_Feb_20_1154,spring_faces,3.2.3,60.00331926360273,
condition files/Stage0a.xlsx,0a,beta,none,g,"['h', 'g']","['Chess', 'Go']","[0, 0.5]","[0, 0]",1,0,0,5,5,5,0,1,1,1,,,,,,,,,,,,,,,,,,,,,,,,,,,,,,,,,,,,,,,,,,,,,,,,,,,,,,,,,,,,,,,357.81298481500016,None,357.81298481500016,None,357.81298481500016,None,g,1,0.6590874949997669,359.34635858799993,None,359.34635858799993,None,359.34635858799993,None,360.0630192820008,None,360.0630192820008,None,360.0630192820008,None,360.0630192820008,None,,,,,,,,,,,,,,,,,,,,,,,,,,,,,,,,,,,,,,,,,,,,001,149,2020_Feb_20_1154,spring_faces,3.2.3,60.00331926360273,
condition files/Stage0b_1.xlsx,0b,none,beta,g,"['h', 'g']","['Chess', 'Go']","[-0.15, 0.5]","[0.15, 0.5]",0,1,0,6,6,6,0,0,0,1,,,,,,,,,,,,,,,,,,,,,,,,,,,,,,,,,,,,,,,,,,,,,,,,,,,,,,,,,,,,,,,362.0630156999996,None,362.0630156999996,None,362.0630156999996,None,g,1,0.7615865460011264,363.59589487499943,None,363.59589487499943,None,363.59589487499943,None,364.4295413960008,None,364.4295413960008,None,364.4295413960008,None,364.4295413960008,None,,,,,,,,,,,,,,,,,,,,,,,,,,,,,,,,,,,,,,,,,,,,001,149,2020_Feb_20_1154,spring_faces,3.2.3,60.00331926360273,
condition files/Stage0b_1.xlsx,0b,alpha,none,h,"['h', 'g']","['Chess', 'Go']","[-0.15, 0.5]","[0.15, 0.5]",1,0,0,6,6,6,0,1,1,0,,,,,,,,,,,,,,,,,,,,,,,,,,,,,,,,,,,,,,,,,,,,,,,,,,,,,,,,,,,,,,,366.39633640600005,None,366.39633640600005,None,366.39633640600005,None,h,1,0.5560839159988973,367.92936757999996,None,367.92936757999996,None,367.92936757999996,None,368.563013166,None,368.563013166,None,368.563013166,None,368.563013166,None,,,,,,,,,,,,,,,,,,,,,,,,,,,,,,,,,,,,,,,,,,,,001,149,2020_Feb_20_1154,spring_faces,3.2.3,60.00331926360273,
condition files/Stage0b_2.xlsx,0b,none,alpha,h,"['h', 'g']","['Chess', 'Go']","[-0.15, 0.5]","[0.15, 0.5]",0,1,0,7,7,7,0,0,0,0,,,,,,,,,,,,,,,,,,,,,,,,,,,,,,,,,,,,,,,,,,,,,,,,,,,,,,,,,,,,,,,370.5463512789993,None,370.5463512789993,None,370.5463512789993,None,h,1,0.6937498169991159,372.07971477799947,None,372.07971477799947,None,372.07971477799947,None,372.82966431100067,None,372.82966431100067,None,372.82966431100067,None,372.82966431100067,None,,,,,,,,,,,,,,,,,,,,,,,,,,,,,,,,,,,,,,,,,,,,001,149,2020_Feb_20_1154,spring_faces,3.2.3,60.00331926360273,
condition files/Stage0b_2.xlsx,0b,beta,none,g,"['h', 'g']","['Chess', 'Go']","[-0.15, 0.5]","[0.15, 0.5]",1,0,0,7,7,7,0,1,1,1,,,,,,,,,,,,,,,,,,,,,,,,,,,,,,,,,,,,,,,,,,,,,,,,,,,,,,,,,,,,,,,374.81302429899915,None,374.81302429899915,None,374.81302429899915,None,g,1,0.6033785500003432,376.3460651919995,None,376.3460651919995,None,376.3460651919995,None,377.0296897650005,None,377.0296897650005,None,377.0296897650005,None,377.0296897650005,None,,,,,,,,,,,,,,,,,,,,,,,,,,,,,,,,,,,,,,,,,,,,001,149,2020_Feb_20_1154,spring_faces,3.2.3,60.00331926360273,
condition files/Stage0b_1.xlsx,0b,none,beta,g,"['h', 'g']","['Chess', 'Go']","[-0.15, 0.5]","[0.15, 0.5]",0,1,0,8,8,8,0,0,0,1,,,,,,,,,,,,,,,,,,,,,,,,,,,,,,,,,,,,,,,,,,,,,,,,,,,,,,,,,,,,,,,379.01302220099933,None,379.01302220099933,None,379.01302220099933,None,g,1,0.851014669999131,380.54635681199943,None,380.54635681199943,None,380.54635681199943,None,381.46294895699975,None,381.46294895699975,None,381.46294895699975,None,381.46294895699975,None,,,,,,,,,,,,,,,,,,,,,,,,,,,,,,,,,,,,,,,,,,,,001,149,2020_Feb_20_1154,spring_faces,3.2.3,60.00331926360273,
condition files/Stage0b_1.xlsx,0b,alpha,none,h,"['h', 'g']","['Chess', 'Go']","[-0.15, 0.5]","[0.15, 0.5]",1,0,0,8,8,8,0,1,1,0,,,,,,,,,,,,,,,,,,,,,,,,,,,,,,,,,,,,,,,,,,,,,,,,,,,,,,,,,,,,,,,383.44636601899947,None,383.44636601899947,None,383.44636601899947,None,h,1,0.5620489430002635,384.9794282290004,None,384.9794282290004,None,384.9794282290004,None,385.61300942699927,None,385.61300942699927,None,385.61300942699927,None,385.61300942699927,None,,,,,,,,,,,,,,,,,,,,,,,,,,,,,,,,,,,,,,,,,,,,001,149,2020_Feb_20_1154,spring_faces,3.2.3,60.00331926360273,
condition files/Stage0b_2.xlsx,0b,beta,none,g,"['h', 'g']","['Chess', 'Go']","[-0.15, 0.5]","[0.15, 0.5]",1,0,0,9,9,9,0,0,0,1,,,,,,,,,,,,,,,,,,,,,,,,,,,,,,,,,,,,,,,,,,,,,,,,,,,,,,,,,,,,,,,387.5963310650004,None,387.5963310650004,None,387.5963310650004,None,g,1,0.6196946069994738,389.1296654050002,None,389.1296654050002,None,389.1296654050002,None,389.8130342910008,None,389.8130342910008,None,389.8130342910008,None,389.8130342910008,None,,,,,,,,,,,,,,,,,,,,,,,,,,,,,,,,,,,,,,,,,,,,001,149,2020_Feb_20_1154,spring_faces,3.2.3,60.00331926360273,
condition files/Stage0b_2.xlsx,0b,none,alpha,h,"['h', 'g']","['Chess', 'Go']","[-0.15, 0.5]","[0.15, 0.5]",0,1,0,9,9,9,0,1,1,0,,,,,,,,,,,,,,,,,,,,,,,,,,,,,,,,,,,,,,,,,,,,,,,,,,,,,,,,,,,,,,,391.79635568100093,None,391.79635568100093,None,391.79635568100093,None,h,1,0.7078273780007294,393.3296328680008,None,393.3296328680008,None,393.3296328680008,None,394.1129985949992,None,394.1129985949992,None,394.1129985949992,None,394.1129985949992,None,,,,,,,,,,,,,,,,,,,,,,,,,,,,,,,,,,,,,,,,,,,,001,149,2020_Feb_20_1154,spring_faces,3.2.3,60.00331926360273,
condition files/Stage0b_1.xlsx,0b,alpha,none,h,"['h', 'g']","['Chess', 'Go']","[-0.15, 0.5]","[0.15, 0.5]",1,0,0,10,10,10,0,0,0,0,,,,,,,,,,,,,,,,,,,,,,,,,,,,,,,,,,,,,,,,,,,,,,,,,,,,,,,,,,,,,,,396.0963443239998,None,396.0963443239998,None,396.0963443239998,None,h,1,0.6481013789998542,397.62943903499945,None,397.62943903499945,None,397.62943903499945,None,398.3293548790007,None,398.3293548790007,None,398.3293548790007,None,398.3293548790007,None,,,,,,,,,,,,,,,,,,,,,,,,,,,,,,,,,,,,,,,,,,,,001,149,2020_Feb_20_1154,spring_faces,3.2.3,60.00331926360273,
condition files/Stage0b_1.xlsx,0b,none,beta,g,"['h', 'g']","['Chess', 'Go']","[-0.15, 0.5]","[0.15, 0.5]",0,1,0,10,10,10,0,1,1,1,,,,,,,,,,,,,,,,,,,,,,,,,,,,,,,,,,,,,,,,,,,,,,,,,,,,,,,,,,,,,,,400.31294640799933,None,400.31294640799933,None,400.31294640799933,None,g,1,0.4151578609998978,401.84635795100075,None,401.84635795100075,None,401.84635795100075,None,402.32968309900025,None,402.32968309900025,None,402.32968309900025,None,402.32968309900025,None,,,,,,,,,,,,,,,,,,,,,,,,,,,,,,,,,,,,,,,,,,,,001,149,2020_Feb_20_1154,spring_faces,3.2.3,60.00331926360273,
condition files/Stage0b_2.xlsx,0b,beta,none,g,"['h', 'g']","['Chess', 'Go']","[-0.15, 0.5]","[0.15, 0.5]",1,0,0,11,11,11,0,0,0,1,,,,,,,,,,,,,,,,,,,,,,,,,,,,,,,,,,,,,,,,,,,,,,,,,,,,,,,,,,,,,,,404.31296794599984,None,404.31296794599984,None,404.31296794599984,None,g,1,0.6233790860005683,405.84607685099945,None,405.84607685099945,None,405.84607685099945,None,406.5463336470002,None,406.5463336470002,None,406.5463336470002,None,406.5463336470002,None,,,,,,,,,,,,,,,,,,,,,,,,,,,,,,,,,,,,,,,,,,,,001,149,2020_Feb_20_1154,spring_faces,3.2.3,60.00331926360273,
condition files/Stage0b_2.xlsx,0b,none,alpha,h,"['h', 'g']","['Chess', 'Go']","[-0.15, 0.5]","[0.15, 0.5]",0,1,0,11,11,11,0,1,1,0,,,,,,,,,,,,,,,,,,,,,,,,,,,,,,,,,,,,,,,,,,,,,,,,,,,,,,,,,,,,,,,408.5130159300006,None,408.5130159300006,None,408.5130159300006,None,h,1,0.5670266519991856,410.0463287670009,None,410.0463287670009,None,410.0463287670009,None,410.696272829,None,410.696272829,None,410.696272829,None,410.696272829,None,,,,,,,,,,,,,,,,,,,,,,,,,,,,,,,,,,,,,,,,,,,,001,149,2020_Feb_20_1154,spring_faces,3.2.3,60.00331926360273,
condition files/Stage0c_1.xlsx,0c,phi,beta,g,"['h', 'g']","['Chess', 'Go']","[-0.15, 0.5]","[0.15, 0.5]",1,1,0,12,12,12,0,0,0,3,,,,,,,,,,,,,,,,,,,,,,,,,,,,,,,,,,,,,,,,,,,,,,,,,,,,,,,,,,,,,,,412.679599006,None,412.679599006,None,412.679599006,None,g,1,3.3285956799991254,414.21289240199985,None,414.21289240199985,None,414.21289240199985,None,417.5962817189993,None,417.5962817189993,None,417.5962817189993,None,417.5962817189993,None,,,,,,,,,,,,,,,,,,,,,,,,,,,,,,,,,,,,,,,,,,,,001,149,2020_Feb_20_1154,spring_faces,3.2.3,60.00331926360273,
condition files/Stage0c_1.xlsx,0c,theta,alpha,h,"['h', 'g']","['Chess', 'Go']","[-0.15, 0.5]","[0.15, 0.5]",1,1,0,12,12,12,0,1,1,0,,,,,,,,,,,,,,,,,,,,,,,,,,,,,,,,,,,,,,,,,,,,,,,,,,,,,,,,,,,,,,,419.57959638099965,None,419.57959638099965,None,419.57959638099965,None,h,1,0.9403532199994515,421.11300572599976,None,421.11300572599976,None,421.11300572599976,None,422.11302751199946,None,422.11302751199946,None,422.11302751199946,None,422.11302751199946,None,,,,,,,,,,,,,,,,,,,,,,,,,,,,,,,,,,,,,,,,,,,,001,149,2020_Feb_20_1154,spring_faces,3.2.3,60.00331926360273,
condition files/Stage0c_1.xlsx,0c,beta,theta,g,"['h', 'g']","['Chess', 'Go']","[-0.15, 0.5]","[0.15, 0.5]",1,1,0,12,12,12,0,2,2,2,,,,,,,,,,,,,,,,,,,,,,,,,,,,,,,,,,,,,,,,,,,,,,,,,,,,,,,,,,,,,,,424.0963733290009,None,424.0963733290009,None,424.0963733290009,None,g,1,1.9117470740002318,425.6297022889994,None,425.6297022889994,None,425.6297022889994,None,427.6130225529996,None,427.6130225529996,None,427.6130225529996,None,427.6130225529996,None,,,,,,,,,,,,,,,,,,,,,,,,,,,,,,,,,,,,,,,,,,,,001,149,2020_Feb_20_1154,spring_faces,3.2.3,60.00331926360273,
condition files/Stage0c_1.xlsx,0c,alpha,phi,h,"['h', 'g']","['Chess', 'Go']","[-0.15, 0.5]","[0.15, 0.5]",1,1,0,12,12,12,0,3,3,1,,,,,,,,,,,,,,,,,,,,,,,,,,,,,,,,,,,,,,,,,,,,,,,,,,,,,,,,,,,,,,,429.57969770899945,None,429.57969770899945,None,429.57969770899945,None,h,1,2.1413062609990448,431.09617013500065,None,431.09617013500065,None,431.09617013500065,None,433.2963507050008,None,433.2963507050008,None,433.2963507050008,None,433.2963507050008,None,,,,,,,,,,,,,,,,,,,,,,,,,,,,,,,,,,,,,,,,,,,,001,149,2020_Feb_20_1154,spring_faces,3.2.3,60.00331926360273,
condition files/Stage0c_2.xlsx,0c,alpha,theta,h,"['h', 'g']","['Chess', 'Go']","[-0.15, 0.5]","[0.15, 0.5]",1,1,0,13,13,13,0,0,0,0,,,,,,,,,,,,,,,,,,,,,,,,,,,,,,,,,,,,,,,,,,,,,,,,,,,,,,,,,,,,,,,435.29633041499983,None,435.29633041499983,None,435.29633041499983,None,h,1,4.311799371000234,436.8296696289999,None,436.8296696289999,None,436.8296696289999,None,441.19633197999974,None,441.19633197999974,None,441.19633197999974,None,441.19633197999974,None,,,,,,,,,,,,,,,,,,,,,,,,,,,,,,,,,,,,,,,,,,,,001,149,2020_Feb_20_1154,spring_faces,3.2.3,60.00331926360273,
condition files/Stage0c_2.xlsx,0c,theta,beta,g,"['h', 'g']","['Chess', 'Go']","[-0.15, 0.5]","[0.15, 0.5]",1,1,0,13,13,13,0,1,1,2,,,,,,,,,,,,,,,,,,,,,,,,,,,,,,,,,,,,,,,,,,,,,,,,,,,,,,,,,,,,,,,443.1797309779995,None,443.1797309779995,None,443.1797309779995,None,g,1,2.156478042999879,444.71296628799973,None,444.71296628799973,None,444.71296628799973,None,446.92968471899985,None,446.92968471899985,None,446.92968471899985,None,446.92968471899985,None,,,,,,,,,,,,,,,,,,,,,,,,,,,,,,,,,,,,,,,,,,,,001,149,2020_Feb_20_1154,spring_faces,3.2.3,60.00331926360273,
condition files/Stage0c_2.xlsx,0c,phi,alpha,h,"['h', 'g']","['Chess', 'Go']","[-0.15, 0.5]","[0.15, 0.5]",1,1,0,13,13,13,0,2,2,1,,,,,,,,,,,,,,,,,,,,,,,,,,,,,,,,,,,,,,,,,,,,,,,,,,,,,,,,,,,,,,,448.91305274499973,None,448.91305274499973,None,448.91305274499973,None,h,1,1.0480901629998698,450.42947996399926,None,450.42947996399926,None,450.42947996399926,None,451.52969810799914,None,451.52969810799914,None,451.52969810799914,None,451.52969810799914,None,,,,,,,,,,,,,,,,,,,,,,,,,,,,,,,,,,,,,,,,,,,,001,149,2020_Feb_20_1154,spring_faces,3.2.3,60.00331926360273,
condition files/Stage0c_2.xlsx,0c,beta,phi,g,"['h', 'g']","['Chess', 'Go']","[-0.15, 0.5]","[0.15, 0.5]",1,1,0,13,13,13,0,3,3,3,,,,,,,,,,,,,,,,,,,,,,,,,,,,,,,,,,,,,,,,,,,,,,,,,,,,,,,,,,,,,,,453.51293553600044,None,453.51293553600044,None,453.51293553600044,None,g,1,1.4071109069991508,455.0462845910006,None,455.0462845910006,None,455.0462845910006,None,456.51300437700047,None,456.51300437700047,None,456.51300437700047,None,456.51300437700047,None,,,,,,,,,,,,,,,,,,,,,,,,,,,,,,,,,,,,,,,,,,,,001,149,2020_Feb_20_1154,spring_faces,3.2.3,60.00331926360273,
condition files/Stage0c_1.xlsx,0c,phi,beta,g,"['h', 'g']","['Chess', 'Go']","[-0.15, 0.5]","[0.15, 0.5]",1,1,0,14,14,14,0,0,0,3,,,,,,,,,,,,,,,,,,,,,,,,,,,,,,,,,,,,,,,,,,,,,,,,,,,,,,,,,,,,,,,458.5130340699998,None,458.5130340699998,None,458.5130340699998,None,g,1,2.871057403001032,460.04637405299945,None,460.04637405299945,None,460.04637405299945,None,462.97970813100073,None,462.97970813100073,None,462.97970813100073,None,462.97970813100073,None,,,,,,,,,,,,,,,,,,,,,,,,,,,,,,,,,,,,,,,,,,,,001,149,2020_Feb_20_1154,spring_faces,3.2.3,60.00331926360273,
condition files/Stage0c_1.xlsx,0c,beta,theta,g,"['h', 'g']","['Chess', 'Go']","[-0.15, 0.5]","[0.15, 0.5]",1,1,0,14,14,14,0,1,1,2,,,,,,,,,,,,,,,,,,,,,,,,,,,,,,,,,,,,,,,,,,,,,,,,,,,,,,,,,,,,,,,464.96300948300086,None,464.96300948300086,None,464.96300948300086,None,g,1,1.3663086519991339,466.4792388349997,None,466.4792388349997,None,466.4792388349997,None,467.8963721660002,None,467.8963721660002,None,467.8963721660002,None,467.8963721660002,None,,,,,,,,,,,,,,,,,,,,,,,,,,,,,,,,,,,,,,,,,,,,001,149,2020_Feb_20_1154,spring_faces,3.2.3,60.00331926360273,
condition files/Stage0c_1.xlsx,0c,theta,alpha,h,"['h', 'g']","['Chess', 'Go']","[-0.15, 0.5]","[0.15, 0.5]",1,1,0,14,14,14,0,2,2,0,,,,,,,,,,,,,,,,,,,,,,,,,,,,,,,,,,,,,,,,,,,,,,,,,,,,,,,,,,,,,,,469.87970488800056,None,469.87970488800056,None,469.87970488800056,None,h,1,1.0403512840002804,471.4130069990006,None,471.4130069990006,None,471.4130069990006,None,472.51302441699954,None,472.51302441699954,None,472.51302441699954,None,472.51302441699954,None,,,,,,,,,,,,,,,,,,,,,,,,,,,,,,,,,,,,,,,,,,,,001,149,2020_Feb_20_1154,spring_faces,3.2.3,60.00331926360273,
condition files/Stage0c_1.xlsx,0c,alpha,phi,h,"['h', 'g']","['Chess', 'Go']","[-0.15, 0.5]","[0.15, 0.5]",1,1,0,14,14,14,0,3,3,1,,,,,,,,,,,,,,,,,,,,,,,,,,,,,,,,,,,,,,,,,,,,,,,,,,,,,,,,,,,,,,,474.49638037300065,None,474.49638037300065,None,474.49638037300065,None,h,1,5.191757954000423,476.0296841269992,None,476.0296841269992,None,476.0296841269992,None,481.2796736069995,None,481.2796736069995,None,481.2796736069995,None,481.2796736069995,None,,,,,,,,,,,,,,,,,,,,,,,,,,,,,,,,,,,,,,,,,,,,001,149,2020_Feb_20_1154,spring_faces,3.2.3,60.00331926360273,
condition files/Stage0c_2.xlsx,0c,beta,phi,g,"['h', 'g']","['Chess', 'Go']","[-0.15, 0.5]","[0.15, 0.5]",1,1,0,15,15,15,0,0,0,3,,,,,,,,,,,,,,,,,,,,,,,,,,,,,,,,,,,,,,,,,,,,,,,,,,,,,,,,,,,,,,,483.2796889309993,None,483.2796889309993,None,483.2796889309993,None,g,1,2.488456954000867,484.8130112830004,None,484.8130112830004,None,484.8130112830004,None,487.3630054389996,None,487.3630054389996,None,487.3630054389996,None,487.3630054389996,None,,,,,,,,,,,,,,,,,,,,,,,,,,,,,,,,,,,,,,,,,,,,001,149,2020_Feb_20_1154,spring_faces,3.2.3,60.00331926360273,
condition files/Stage0c_2.xlsx,0c,theta,beta,g,"['h', 'g']","['Chess', 'Go']","[-0.15, 0.5]","[0.15, 0.5]",1,1,0,15,15,15,0,1,1,2,,,,,,,,,,,,,,,,,,,,,,,,,,,,,,,,,,,,,,,,,,,,,,,,,,,,,,,,,,,,,,,489.34638581000036,None,489.34638581000036,None,489.34638581000036,None,g,1,0.9184786919995531,490.862870469,None,490.862870469,None,490.862870469,None,491.84628589299973,None,491.84628589299973,None,491.84628589299973,None,491.84628589299973,None,,,,,,,,,,,,,,,,,,,,,,,,,,,,,,,,,,,,,,,,,,,,001,149,2020_Feb_20_1154,spring_faces,3.2.3,60.00331926360273,
condition files/Stage0c_2.xlsx,0c,alpha,theta,h,"['h', 'g']","['Chess', 'Go']","[-0.15, 0.5]","[0.15, 0.5]",1,1,0,15,15,15,0,2,2,0,,,,,,,,,,,,,,,,,,,,,,,,,,,,,,,,,,,,,,,,,,,,,,,,,,,,,,,,,,,,,,,493.8295895779993,None,493.8295895779993,None,493.8295895779993,None,g,0,1.7791000480010553,495.3462950440007,None,495.3462950440007,None,495.3462950440007,None,497.17971362000026,None,497.17971362000026,None,497.17971362000026,None,497.17971362000026,None,,,,,,,,,,,,,,,,,,,,,,,,,,,,,,,,,,,,,,,,,,,,001,149,2020_Feb_20_1154,spring_faces,3.2.3,60.00331926360273,
condition files/Stage0c_2.xlsx,0c,phi,alpha,h,"['h', 'g']","['Chess', 'Go']","[-0.15, 0.5]","[0.15, 0.5]",1,1,0,15,15,15,0,3,3,1,,,,,,,,,,,,,,,,,,,,,,,,,,,,,,,,,,,,,,,,,,,,,,,,,,,,,,,,,,,,,,,499.16301384799954,None,499.16301384799954,None,499.16301384799954,None,h,1,1.5660256149985798,500.67953159600074,None,500.67953159600074,None,500.67953159600074,None,502.29635940499975,None,502.29635940499975,None,502.29635940499975,None,502.29635940499975,None,,,,,,,,,,,,,,,,,,,,,,,,,,,,,,,,,,,,,,,,,,,,001,149,2020_Feb_20_1154,spring_faces,3.2.3,60.00331926360273,
condition files/Stage0c_1.xlsx,0c,phi,beta,g,"['h', 'g']","['Chess', 'Go']","[-0.15, 0.5]","[0.15, 0.5]",1,1,0,16,16,16,0,0,0,3,,,,,,,,,,,,,,,,,,,,,,,,,,,,,,,,,,,,,,,,,,,,,,,,,,,,,,,,,,,,,,,504.2962742180007,None,504.2962742180007,None,504.2962742180007,None,g,1,1.0077291320012591,505.8297297520003,None,505.8297297520003,None,505.8297297520003,None,506.89635445599924,None,506.89635445599924,None,506.89635445599924,None,506.89635445599924,None,,,,,,,,,,,,,,,,,,,,,,,,,,,,,,,,,,,,,,,,,,,,001,149,2020_Feb_20_1154,spring_faces,3.2.3,60.00331926360273,
condition files/Stage0c_1.xlsx,0c,alpha,phi,h,"['h', 'g']","['Chess', 'Go']","[-0.15, 0.5]","[0.15, 0.5]",1,1,0,16,16,16,0,1,1,1,,,,,,,,,,,,,,,,,,,,,,,,,,,,,,,,,,,,,,,,,,,,,,,,,,,,,,,,,,,,,,,508.8963573889996,None,508.8963573889996,None,508.8963573889996,None,h,1,1.03256202600096,510.4129776459995,None,510.4129776459995,None,510.4129776459995,None,511.4962937799992,None,511.4962937799992,None,511.4962937799992,None,511.4962937799992,None,,,,,,,,,,,,,,,,,,,,,,,,,,,,,,,,,,,,,,,,,,,,001,149,2020_Feb_20_1154,spring_faces,3.2.3,60.00331926360273,
condition files/Stage0c_1.xlsx,0c,beta,theta,g,"['h', 'g']","['Chess', 'Go']","[-0.15, 0.5]","[0.15, 0.5]",1,1,0,16,16,16,0,2,2,2,,,,,,,,,,,,,,,,,,,,,,,,,,,,,,,,,,,,,,,,,,,,,,,,,,,,,,,,,,,,,,,513.4797193750001,None,513.4797193750001,None,513.4797193750001,None,g,1,2.8174290220013063,514.9959539650008,None,514.9959539650008,None,514.9959539650008,None,517.8796116949998,None,517.8796116949998,None,517.8796116949998,None,517.8796116949998,None,,,,,,,,,,,,,,,,,,,,,,,,,,,,,,,,,,,,,,,,,,,,001,149,2020_Feb_20_1154,spring_faces,3.2.3,60.00331926360273,
condition files/Stage0c_1.xlsx,0c,theta,alpha,h,"['h', 'g']","['Chess', 'Go']","[-0.15, 0.5]","[0.15, 0.5]",1,1,0,16,16,16,0,3,3,0,,,,,,,,,,,,,,,,,,,,,,,,,,,,,,,,,,,,,,,,,,,,,,,,,,,,,,,,,,,,,,,519.8630300580007,None,519.8630300580007,None,519.8630300580007,None,h,1,1.0422290610003984,521.3792421849994,None,521.3792421849994,None,521.3792421849994,None,522.4797217539999,None,522.4797217539999,None,522.4797217539999,None,522.4797217539999,None,,,,,,,,,,,,,,,,,,,,,,,,,,,,,,,,,,,,,,,,,,,,001,149,2020_Feb_20_1154,spring_faces,3.2.3,60.00331926360273,
condition files/Stage0c_2.xlsx,0c,beta,phi,g,"['h', 'g']","['Chess', 'Go']","[-0.15, 0.5]","[0.15, 0.5]",1,1,0,17,17,17,0,0,0,3,,,,,,,,,,,,,,,,,,,,,,,,,,,,,,,,,,,,,,,,,,,,,,,,,,,,,,,,,,,,,,,524.4796661069995,None,524.4796661069995,None,524.4796661069995,None,g,1,1.160442611999315,526.0130209430008,None,526.0130209430008,None,526.0130209430008,None,527.22969113,None,527.22969113,None,527.22969113,None,527.22969113,None,,,,,,,,,,,,,,,,,,,,,,,,,,,,,,,,,,,,,,,,,,,,001,149,2020_Feb_20_1154,spring_faces,3.2.3,60.00331926360273,
condition files/Stage0c_2.xlsx,0c,alpha,theta,h,"['h', 'g']","['Chess', 'Go']","[-0.15, 0.5]","[0.15, 0.5]",1,1,0,17,17,17,0,1,1,0,,,,,,,,,,,,,,,,,,,,,,,,,,,,,,,,,,,,,,,,,,,,,,,,,,,,,,,,,,,,,,,529.213004964,None,529.213004964,None,529.213004964,None,h,1,0.7639257279988669,530.7295620109999,None,530.7295620109999,None,530.7295620109999,None,531.5463735569992,None,531.5463735569992,None,531.5463735569992,None,531.5463735569992,None,,,,,,,,,,,,,,,,,,,,,,,,,,,,,,,,,,,,,,,,,,,,001,149,2020_Feb_20_1154,spring_faces,3.2.3,60.00331926360273,
condition files/Stage0c_2.xlsx,0c,phi,alpha,h,"['h', 'g']","['Chess', 'Go']","[-0.15, 0.5]","[0.15, 0.5]",1,1,0,17,17,17,0,2,2,1,,,,,,,,,,,,,,,,,,,,,,,,,,,,,,,,,,,,,,,,,,,,,,,,,,,,,,,,,,,,,,,533.5296653969999,None,533.5296653969999,None,533.5296653969999,None,h,1,0.97556873800022,535.0459156180004,None,535.0459156180004,None,535.0459156180004,None,536.0796663639994,None,536.0796663639994,None,536.0796663639994,None,536.0796663639994,None,,,,,,,,,,,,,,,,,,,,,,,,,,,,,,,,,,,,,,,,,,,,001,149,2020_Feb_20_1154,spring_faces,3.2.3,60.00331926360273,
condition files/Stage0c_2.xlsx,0c,theta,beta,g,"['h', 'g']","['Chess', 'Go']","[-0.15, 0.5]","[0.15, 0.5]",1,1,0,17,17,17,0,3,3,2,,,,,,,,,,,,,,,,,,,,,,,,,,,,,,,,,,,,,,,,,,,,,,,,,,,,,,,,,,,,,,,538.0796842679993,None,538.0796842679993,None,538.0796842679993,None,g,1,0.9051804680002533,539.5962913900003,None,539.5962913900003,None,539.5962913900003,None,540.5630221409992,None,540.5630221409992,None,540.5630221409992,None,540.5630221409992,None,,,,,,,,,,,,,,,,,,,,,,,,,,,,,,,,,,,,,,,,,,,,001,149,2020_Feb_20_1154,spring_faces,3.2.3,60.00331926360273,
,,,,,,,,,,,,,,,,,,,,,,,,,,,,,,,,,,,,,,,,,,,,,,,,,,,,,,,,,,,,,,,,,,,,,,,,,,,,,,,,,,,,,,,,,,,,,,,,,,,,,,,,542.5463306450001,None,space,0.6356867360009346,547.5296910039997,None,,,,,,,,,,,,,,,,,,,,,,,,,,,,,,,,,,,,,,001,149,2020_Feb_20_1154,spring_faces,3.2.3,60.00331926360273,
condition files/Stage1_1.xlsx,,B1,T2,c,"['c', 'm']","['Clue', 'Monopoly']","[-0.15, 0.5]","[0.15, 0.5]",1,1,,,,,,,,,0,0,0,0,0,0,0,1,,,,,,,,,,,,,,,,,,,,,,,,,,,,,,,,,,,,,,,,,,,,,,,,,,,,,,,548.2296810320004,None,548.2296810320004,None,548.2296810320004,None,m,0,1.1259608879990992,550.07951899,None,550.07951899,None,550.07951899,None,551.2797202729998,None,551.2797202729998,None,551.2797202729998,None,551.2797202729998,None,,,,,,,547.5296910039997,None,,,,,,,,,,,,,,,,,,,,,,,,,,,,,,,,,,,,001,149,2020_Feb_20_1154,spring_faces,3.2.3,60.00331926360273,
condition files/Stage1_1.xlsx,,T3,B4,c,"['c', 'm']","['Clue', 'Monopoly']","[-0.15, 0.5]","[0.15, 0.5]",1,1,,,,,,,,,0,0,0,0,0,1,1,5,,,,,,,,,,,,,,,,,,,,,,,,,,,,,,,,,,,,,,,,,,,,,,,,,,,,,,,553.2463133719993,None,553.2463133719993,None,553.2463133719993,None,m,0,2.215811019999819,554.8297115219993,None,554.8297115219993,None,554.8297115219993,None,557.1129570630001,None,557.1129570630001,None,557.1129570630001,None,557.1129570630001,None,,,,,,,,,,,,,,,,,,,,,,,,,,,,,,,,,,,,,,,,,,,,001,149,2020_Feb_20_1154,spring_faces,3.2.3,60.00331926360273,
condition files/Stage1_1.xlsx,,T2,B2,m,"['c', 'm']","['Clue', 'Monopoly']","[-0.15, 0.5]","[0.15, 0.5]",1,1,,,,,,,,,0,0,0,0,0,2,2,3,,,,,,,,,,,,,,,,,,,,,,,,,,,,,,,,,,,,,,,,,,,,,,,,,,,,,,,559.0796194649993,None,559.0796194649993,None,559.0796194649993,None,c,0,0.8003058770009375,560.6130367450005,None,560.6130367450005,None,560.6130367450005,None,561.4962980309992,None,561.4962980309992,None,561.4962980309992,None,561.4962980309992,None,,,,,,,,,,,,,,,,,,,,,,,,,,,,,,,,,,,,,,,,,,,,001,149,2020_Feb_20_1154,spring_faces,3.2.3,60.00331926360273,
condition files/Stage1_1.xlsx,,T4,B3,m,"['c', 'm']","['Clue', 'Monopoly']","[-0.15, 0.5]","[0.15, 0.5]",1,1,,,,,,,,,0,0,0,0,0,3,3,6,,,,,,,,,,,,,,,,,,,,,,,,,,,,,,,,,,,,,,,,,,,,,,,,,,,,,,,563.4629614749992,None,563.4629614749992,None,563.4629614749992,None,m,1,2.497134557001118,564.9963579739997,None,564.9963579739997,None,564.9963579739997,None,567.5463224850009,None,567.5463224850009,None,567.5463224850009,None,567.5463224850009,None,,,,,,,,,,,,,,,,,,,,,,,,,,,,,,,,,,,,,,,,,,,,001,149,2020_Feb_20_1154,spring_faces,3.2.3,60.00331926360273,
condition files/Stage1_1.xlsx,,B2,T1,m,"['c', 'm']","['Clue', 'Monopoly']","[-0.15, 0.5]","[0.15, 0.5]",1,1,,,,,,,,,0,0,0,0,0,4,4,2,,,,,,,,,,,,,,,,,,,,,,,,,,,,,,,,,,,,,,,,,,,,,,,,,,,,,,,569.5297022750001,None,569.5297022750001,None,569.5297022750001,None,c,0,2.0430967359989154,571.1463445179998,None,571.1463445179998,None,571.1463445179998,None,573.246122863,None,573.246122863,None,573.246122863,None,573.246122863,None,,,,,,,,,,,,,,,,,,,,,,,,,,,,,,,,,,,,,,,,,,,,001,149,2020_Feb_20_1154,spring_faces,3.2.3,60.00331926360273,
condition files/Stage1_1.xlsx,,B4,T4,m,"['c', 'm']","['Clue', 'Monopoly']","[-0.15, 0.5]","[0.15, 0.5]",1,1,,,,,,,,,0,0,0,0,0,5,5,7,,,,,,,,,,,,,,,,,,,,,,,,,,,,,,,,,,,,,,,,,,,,,,,,,,,,,,,575.2297008429996,None,575.2297008429996,None,575.2297008429996,None,c,0,1.9623632290004025,576.7629943200009,None,576.7629943200009,None,576.7629943200009,None,578.7796860510007,None,578.7796860510007,None,578.7796860510007,None,578.7796860510007,None,,,,,,,,,,,,,,,,,,,,,,,,,,,,,,,,,,,,,,,,,,,,001,149,2020_Feb_20_1154,spring_faces,3.2.3,60.00331926360273,
condition files/Stage1_1.xlsx,,B3,T3,c,"['c', 'm']","['Clue', 'Monopoly']","[-0.15, 0.5]","[0.15, 0.5]",1,1,,,,,,,,,0,0,0,0,0,6,6,4,,,,,,,,,,,,,,,,,,,,,,,,,,,,,,,,,,,,,,,,,,,,,,,,,,,,,,,580.7630049359996,None,580.7630049359996,None,580.7630049359996,None,m,0,1.7890809189993888,582.2963418119998,None,582.2963418119998,None,582.2963418119998,None,584.162953731,None,584.162953731,None,584.162953731,None,584.162953731,None,,,,,,,,,,,,,,,,,,,,,,,,,,,,,,,,,,,,,,,,,,,,001,149,2020_Feb_20_1154,spring_faces,3.2.3,60.00331926360273,
condition files/Stage1_1.xlsx,,T1,B1,c,"['c', 'm']","['Clue', 'Monopoly']","[-0.15, 0.5]","[0.15, 0.5]",1,1,,,,,,,,,0,0,0,0,0,7,7,0,,,,,,,,,,,,,,,,,,,,,,,,,,,,,,,,,,,,,,,,,,,,,,,,,,,,,,,586.1297140070001,None,586.1297140070001,None,586.1297140070001,None,c,1,1.8784257079987583,587.6630244389999,None,587.6630244389999,None,587.6630244389999,None,589.5963842860001,None,589.5963842860001,None,589.5963842860001,None,589.5963842860001,None,,,,,,,,,,,,,,,,,,,,,,,,,,,,,,,,,,,,,,,,,,,,001,149,2020_Feb_20_1154,spring_faces,3.2.3,60.00331926360273,
condition files/Stage1_2.xlsx,,B2,T2,m,"['c', 'm']","['Clue', 'Monopoly']","[-0.15, 0.5]","[0.15, 0.5]",1,1,,,,,,,,,0,1,1,1,0,0,0,3,,,,,,,,,,,,,,,,,,,,,,,,,,,,,,,,,,,,,,,,,,,,,,,,,,,,,,,591.5963480829996,None,591.5963480829996,None,591.5963480829996,None,c,0,1.707781981998778,593.1296740939997,None,593.1296740939997,None,593.1296740939997,None,594.9130183790003,None,594.9130183790003,None,594.9130183790003,None,594.9130183790003,None,,,,,,,,,,,,,,,,,,,,,,,,,,,,,,,,,,,,,,,,,,,,001,149,2020_Feb_20_1154,spring_faces,3.2.3,60.00331926360273,
condition files/Stage1_2.xlsx,,B3,T4,m,"['c', 'm']","['Clue', 'Monopoly']","[-0.15, 0.5]","[0.15, 0.5]",1,1,,,,,,,,,0,1,1,1,0,1,1,6,,,,,,,,,,,,,,,,,,,,,,,,,,,,,,,,,,,,,,,,,,,,,,,,,,,,,,,596.8796807790004,None,596.8796807790004,None,596.8796807790004,None,m,1,1.9764499030006846,598.4130270080004,None,598.4130270080004,None,598.4130270080004,None,600.4463022359996,None,600.4463022359996,None,600.4463022359996,None,600.4463022359996,None,,,,,,,,,,,,,,,,,,,,,,,,,,,,,,,,,,,,,,,,,,,,001,149,2020_Feb_20_1154,spring_faces,3.2.3,60.00331926360273,
condition files/Stage1_2.xlsx,,T3,B3,c,"['c', 'm']","['Clue', 'Monopoly']","[-0.15, 0.5]","[0.15, 0.5]",1,1,,,,,,,,,0,1,1,1,0,2,2,4,,,,,,,,,,,,,,,,,,,,,,,,,,,,,,,,,,,,,,,,,,,,,,,,,,,,,,,602.4297274630007,None,602.4297274630007,None,602.4297274630007,None,c,1,1.9144767699999647,603.963027799,None,603.963027799,None,603.963027799,None,605.9463731070009,None,605.9463731070009,None,605.9463731070009,None,605.9463731070009,None,,,,,,,,,,,,,,,,,,,,,,,,,,,,,,,,,,,,,,,,,,,,001,149,2020_Feb_20_1154,spring_faces,3.2.3,60.00331926360273,
condition files/Stage1_2.xlsx,,B4,T3,c,"['c', 'm']","['Clue', 'Monopoly']","[-0.15, 0.5]","[0.15, 0.5]",1,1,,,,,,,,,0,1,1,1,0,3,3,5,,,,,,,,,,,,,,,,,,,,,,,,,,,,,,,,,,,,,,,,,,,,,,,,,,,,,,,607.912935929,None,607.912935929,None,607.912935929,None,m,0,2.3350795869992,609.4463110430006,None,609.4463110430006,None,609.4463110430006,None,611.8629628529998,None,611.8629628529998,None,611.8629628529998,None,611.8629628529998,None,,,,,,,,,,,,,,,,,,,,,,,,,,,,,,,,,,,,,,,,,,,,001,149,2020_Feb_20_1154,spring_faces,3.2.3,60.00331926360273,
condition files/Stage1_2.xlsx,,T2,B1,c,"['c', 'm']","['Clue', 'Monopoly']","[-0.15, 0.5]","[0.15, 0.5]",1,1,,,,,,,,,0,1,1,1,0,4,4,1,,,,,,,,,,,,,,,,,,,,,,,,,,,,,,,,,,,,,,,,,,,,,,,,,,,,,,,613.8296892479993,None,613.8296892479993,None,613.8296892479993,None,m,0,2.0670597390017065,615.3623484229993,None,615.3623484229993,None,615.3623484229993,None,617.4962889720009,None,617.4962889720009,None,617.4962889720009,None,617.4962889720009,None,,,,,,,,,,,,,,,,,,,,,,,,,,,,,,,,,,,,,,,,,,,,001,149,2020_Feb_20_1154,spring_faces,3.2.3,60.00331926360273,
condition files/Stage1_2.xlsx,,T4,B4,m,"['c', 'm']","['Clue', 'Monopoly']","[-0.15, 0.5]","[0.15, 0.5]",1,1,,,,,,,,,0,1,1,1,0,5,5,7,,,,,,,,,,,,,,,,,,,,,,,,,,,,,,,,,,,,,,,,,,,,,,,,,,,,,,,619.4630386299996,None,619.4630386299996,None,619.4630386299996,None,m,1,1.185036023000066,620.9963217799996,None,620.9963217799996,None,620.9963217799996,None,622.2627957540008,None,622.2627957540008,None,622.2627957540008,None,622.2627957540008,None,,,,,,,,,,,,,,,,,,,,,,,,,,,,,,,,,,,,,,,,,,,,001,149,2020_Feb_20_1154,spring_faces,3.2.3,60.00331926360273,
condition files/Stage1_2.xlsx,,B1,T1,c,"['c', 'm']","['Clue', 'Monopoly']","[-0.15, 0.5]","[0.15, 0.5]",1,1,,,,,,,,,0,1,1,1,0,6,6,0,,,,,,,,,,,,,,,,,,,,,,,,,,,,,,,,,,,,,,,,,,,,,,,,,,,,,,,624.2290784609995,None,624.2290784609995,None,624.2290784609995,None,c,1,0.9463470660011808,625.7630298139993,None,625.7630298139993,None,625.7630298139993,None,626.7789464399993,None,626.7789464399993,None,626.7789464399993,None,626.7789464399993,None,,,,,,,,,,,,,,,,,,,,,,,,,,,,,,,,,,,,,,,,,,,,001,149,2020_Feb_20_1154,spring_faces,3.2.3,60.00331926360273,
condition files/Stage1_2.xlsx,,T1,B2,m,"['c', 'm']","['Clue', 'Monopoly']","[-0.15, 0.5]","[0.15, 0.5]",1,1,,,,,,,,,0,1,1,1,0,7,7,2,,,,,,,,,,,,,,,,,,,,,,,,,,,,,,,,,,,,,,,,,,,,,,,,,,,,,,,628.7456927980002,None,628.7456927980002,None,628.7456927980002,None,m,1,2.638289270000314,630.279091892,None,630.279091892,None,630.279091892,None,632.9957590800004,None,632.9957590800004,None,632.9957590800004,None,632.9957590800004,None,,,,,,,,,,,,,,,,,,,,,,,,,,,,,,,,,,,,,,,,,,,,001,149,2020_Feb_20_1154,spring_faces,3.2.3,60.00331926360273,
condition files/Stage1_1.xlsx,,B3,T3,c,"['c', 'm']","['Clue', 'Monopoly']","[-0.15, 0.5]","[0.15, 0.5]",1,1,,,,,,,,,0,2,2,2,0,0,0,4,,,,,,,,,,,,,,,,,,,,,,,,,,,,,,,,,,,,,,,,,,,,,,,,,,,,,,,634.9789779210005,None,634.9789779210005,None,634.9789779210005,None,c,1,1.9250202700004593,636.5123646930006,None,636.5123646930006,None,636.5123646930006,None,638.5123215839994,None,638.5123215839994,None,638.5123215839994,None,638.5123215839994,None,,,,,,,,,,,,,,,,,,,,,,,,,,,,,,,,,,,,,,,,,,,,001,149,2020_Feb_20_1154,spring_faces,3.2.3,60.00331926360273,
condition files/Stage1_1.xlsx,,B1,T2,c,"['c', 'm']","['Clue', 'Monopoly']","[-0.15, 0.5]","[0.15, 0.5]",1,1,,,,,,,,,0,2,2,2,0,1,1,1,,,,,,,,,,,,,,,,,,,,,,,,,,,,,,,,,,,,,,,,,,,,,,,,,,,,,,,640.4790060569994,None,640.4790060569994,None,640.4790060569994,None,m,0,3.145200405000651,642.0121942780006,None,642.0121942780006,None,642.0121942780006,None,645.2122069279994,None,645.2122069279994,None,645.2122069279994,None,645.2122069279994,None,,,,,,,,,,,,,,,,,,,,,,,,,,,,,,,,,,,,,,,,,,,,001,149,2020_Feb_20_1154,spring_faces,3.2.3,60.00331926360273,
condition files/Stage1_1.xlsx,,T3,B4,c,"['c', 'm']","['Clue', 'Monopoly']","[-0.15, 0.5]","[0.15, 0.5]",1,1,,,,,,,,,0,2,2,2,0,2,2,5,,,,,,,,,,,,,,,,,,,,,,,,,,,,,,,,,,,,,,,,,,,,,,,,,,,,,,,647.1955640029992,None,647.1955640029992,None,647.1955640029992,None,c,1,2.444397627001308,648.7289754510002,None,648.7289754510002,None,648.7289754510002,None,651.2288921250001,None,651.2288921250001,None,651.2288921250001,None,651.2288921250001,None,,,,,,,,,,,,,,,,,,,,,,,,,,,,,,,,,,,,,,,,,,,,001,149,2020_Feb_20_1154,spring_faces,3.2.3,60.00331926360273,
condition files/Stage1_1.xlsx,,T1,B1,c,"['c', 'm']","['Clue', 'Monopoly']","[-0.15, 0.5]","[0.15, 0.5]",1,1,,,,,,,,,0,2,2,2,0,3,3,0,,,,,,,,,,,,,,,,,,,,,,,,,,,,,,,,,,,,,,,,,,,,,,,,,,,,,,,653.2122983200006,None,653.2122983200006,None,653.2122983200006,None,m,0,1.8197840259999793,654.7456326760002,None,654.7456326760002,None,654.7456326760002,None,656.6289561159992,None,656.6289561159992,None,656.6289561159992,None,656.6289561159992,None,,,,,,,,,,,,,,,,,,,,,,,,,,,,,,,,,,,,,,,,,,,,001,149,2020_Feb_20_1154,spring_faces,3.2.3,60.00331926360273,
condition files/Stage1_1.xlsx,,B2,T1,m,"['c', 'm']","['Clue', 'Monopoly']","[-0.15, 0.5]","[0.15, 0.5]",1,1,,,,,,,,,0,2,2,2,0,4,4,2,,,,,,,,,,,,,,,,,,,,,,,,,,,,,,,,,,,,,,,,,,,,,,,,,,,,,,,658.6122302620006,None,658.6122302620006,None,658.6122302620006,None,m,1,1.827813108000555,660.1455870400005,None,660.1455870400005,None,660.1455870400005,None,662.0457723849995,None,662.0457723849995,None,662.0457723849995,None,662.0457723849995,None,,,,,,,,,,,,,,,,,,,,,,,,,,,,,,,,,,,,,,,,,,,,001,149,2020_Feb_20_1154,spring_faces,3.2.3,60.00331926360273,
condition files/Stage1_1.xlsx,,T2,B2,m,"['c', 'm']","['Clue', 'Monopoly']","[-0.15, 0.5]","[0.15, 0.5]",1,1,,,,,,,,,0,2,2,2,0,5,5,3,,,,,,,,,,,,,,,,,,,,,,,,,,,,,,,,,,,,,,,,,,,,,,,,,,,,,,,664.0122005739995,None,664.0122005739995,None,664.0122005739995,None,c,0,3.7717416180003056,665.5457149480008,None,665.5457149480008,None,665.5457149480008,None,669.396360408,None,669.396360408,None,669.396360408,None,669.396360408,None,,,,,,,,,,,,,,,,,,,,,,,,,,,,,,,,,,,,,,,,,,,,001,149,2020_Feb_20_1154,spring_faces,3.2.3,60.00331926360273,
condition files/Stage1_1.xlsx,,T4,B3,m,"['c', 'm']","['Clue', 'Monopoly']","[-0.15, 0.5]","[0.15, 0.5]",1,1,,,,,,,,,0,2,2,2,0,6,6,6,,,,,,,,,,,,,,,,,,,,,,,,,,,,,,,,,,,,,,,,,,,,,,,,,,,,,,,671.3630551280003,None,671.3630551280003,None,671.3630551280003,None,m,1,1.4450849889999517,672.8963614540007,None,672.8963614540007,None,672.8963614540007,None,674.3962795719999,None,674.3962795719999,None,674.3962795719999,None,674.3962795719999,None,,,,,,,,,,,,,,,,,,,,,,,,,,,,,,,,,,,,,,,,,,,,001,149,2020_Feb_20_1154,spring_faces,3.2.3,60.00331926360273,
condition files/Stage1_1.xlsx,,B4,T4,m,"['c', 'm']","['Clue', 'Monopoly']","[-0.15, 0.5]","[0.15, 0.5]",1,1,,,,,,,,,0,2,2,2,0,7,7,7,,,,,,,,,,,,,,,,,,,,,,,,,,,,,,,,,,,,,,,,,,,,,,,,,,,,,,,676.37968215,None,676.37968215,None,676.37968215,None,c,0,1.0844411939997372,677.9129469649997,None,677.9129469649997,None,677.9129469649997,None,679.079487465,None,679.079487465,None,679.079487465,None,679.079487465,None,,,,,,,,,,,,,,,,,,,,,,,,,,,,,,,,,,,,,,,,,,,,001,149,2020_Feb_20_1154,spring_faces,3.2.3,60.00331926360273,
condition files/Stage1_2.xlsx,,B3,T4,m,"['c', 'm']","['Clue', 'Monopoly']","[-0.15, 0.5]","[0.15, 0.5]",1,1,,,,,,,,,0,3,3,3,0,0,0,6,,,,,,,,,,,,,,,,,,,,,,,,,,,,,,,,,,,,,,,,,,,,,,,,,,,,,,,681.0630291550005,None,681.0630291550005,None,681.0630291550005,None,c,0,2.2411177220001264,682.5963591679993,None,682.5963591679993,None,682.5963591679993,None,684.8963644670002,None,684.8963644670002,None,684.8963644670002,None,684.8963644670002,None,,,,,,,,,,,,,,,,,,,,,,,,,,,,,,,,,,,,,,,,,,,,001,149,2020_Feb_20_1154,spring_faces,3.2.3,60.00331926360273,
condition files/Stage1_2.xlsx,,T1,B2,m,"['c', 'm']","['Clue', 'Monopoly']","[-0.15, 0.5]","[0.15, 0.5]",1,1,,,,,,,,,0,3,3,3,0,1,1,2,,,,,,,,,,,,,,,,,,,,,,,,,,,,,,,,,,,,,,,,,,,,,,,,,,,,,,,686.8796808459992,None,686.8796808459992,None,686.8796808459992,None,m,1,1.2084167189987056,688.4130253290004,None,688.4130253290004,None,688.4130253290004,None,689.6796882939998,None,689.6796882939998,None,689.6796882939998,None,689.6796882939998,None,,,,,,,,,,,,,,,,,,,,,,,,,,,,,,,,,,,,,,,,,,,,001,149,2020_Feb_20_1154,spring_faces,3.2.3,60.00331926360273,
condition files/Stage1_2.xlsx,,T2,B1,c,"['c', 'm']","['Clue', 'Monopoly']","[-0.15, 0.5]","[0.15, 0.5]",1,1,,,,,,,,,0,3,3,3,0,2,2,1,,,,,,,,,,,,,,,,,,,,,,,,,,,,,,,,,,,,,,,,,,,,,,,,,,,,,,,691.6630313109999,None,691.6630313109999,None,691.6630313109999,None,c,1,2.2331306919986673,693.1963704909995,None,693.1963704909995,None,693.1963704909995,None,695.496275816,None,695.496275816,None,695.496275816,None,695.496275816,None,,,,,,,,,,,,,,,,,,,,,,,,,,,,,,,,,,,,,,,,,,,,001,149,2020_Feb_20_1154,spring_faces,3.2.3,60.00331926360273,
condition files/Stage1_2.xlsx,,T4,B4,m,"['c', 'm']","['Clue', 'Monopoly']","[-0.15, 0.5]","[0.15, 0.5]",1,1,,,,,,,,,0,3,3,3,0,3,3,7,,,,,,,,,,,,,,,,,,,,,,,,,,,,,,,,,,,,,,,,,,,,,,,,,,,,,,,697.4629370069997,None,697.4629370069997,None,697.4629370069997,None,m,1,1.9691941210003279,698.9962386980005,None,698.9962386980005,None,698.9962386980005,None,701.0463456190009,None,701.0463456190009,None,701.0463456190009,None,701.0463456190009,None,,,,,,,,,,,,,,,,,,,,,,,,,,,,,,,,,,,,,,,,,,,,001,149,2020_Feb_20_1154,spring_faces,3.2.3,60.00331926360273,
condition files/Stage1_2.xlsx,,B2,T2,m,"['c', 'm']","['Clue', 'Monopoly']","[-0.15, 0.5]","[0.15, 0.5]",1,1,,,,,,,,,0,3,3,3,0,4,4,3,,,,,,,,,,,,,,,,,,,,,,,,,,,,,,,,,,,,,,,,,,,,,,,,,,,,,,,703.0130021959994,None,703.0130021959994,None,703.0130021959994,None,c,0,2.147153939000418,704.5463408680007,None,704.5463408680007,None,704.5463408680007,None,706.7463161729993,None,706.7463161729993,None,706.7463161729993,None,706.7463161729993,None,,,,,,,,,,,,,,,,,,,,,,,,,,,,,,,,,,,,,,,,,,,,001,149,2020_Feb_20_1154,spring_faces,3.2.3,60.00331926360273,
condition files/Stage1_2.xlsx,,T3,B3,c,"['c', 'm']","['Clue', 'Monopoly']","[-0.15, 0.5]","[0.15, 0.5]",1,1,,,,,,,,,0,3,3,3,0,5,5,4,,,,,,,,,,,,,,,,,,,,,,,,,,,,,,,,,,,,,,,,,,,,,,,,,,,,,,,708.7297417059999,None,708.7297417059999,None,708.7297417059999,None,c,1,1.58259344399994,710.2629754959999,None,710.2629754959999,None,710.2629754959999,None,711.9130309160009,None,711.9130309160009,None,711.9130309160009,None,711.9130309160009,None,,,,,,,,,,,,,,,,,,,,,,,,,,,,,,,,,,,,,,,,,,,,001,149,2020_Feb_20_1154,spring_faces,3.2.3,60.00331926360273,
condition files/Stage1_2.xlsx,,B4,T3,c,"['c', 'm']","['Clue', 'Monopoly']","[-0.15, 0.5]","[0.15, 0.5]",1,1,,,,,,,,,0,3,3,3,0,6,6,5,,,,,,,,,,,,,,,,,,,,,,,,,,,,,,,,,,,,,,,,,,,,,,,,,,,,,,,713.8796178720004,None,713.8796178720004,None,713.8796178720004,None,c,1,1.5363812270006747,715.4130369960003,None,715.4130369960003,None,715.4130369960003,None,717.0130270070003,None,717.0130270070003,None,717.0130270070003,None,717.0130270070003,None,,,,,,,,,,,,,,,,,,,,,,,,,,,,,,,,,,,,,,,,,,,,001,149,2020_Feb_20_1154,spring_faces,3.2.3,60.00331926360273,
condition files/Stage1_2.xlsx,,B1,T1,c,"['c', 'm']","['Clue', 'Monopoly']","[-0.15, 0.5]","[0.15, 0.5]",1,1,,,,,,,,,0,3,3,3,0,7,7,0,,,,,,,,,,,,,,,,,,,,,,,,,,,,,,,,,,,,,,,,,,,,,,,,,,,,,,,718.9963337810004,None,718.9963337810004,None,718.9963337810004,None,m,0,2.323790734000795,720.5296854619992,None,720.5296854619992,None,720.5296854619992,None,722.9297000089991,None,722.9297000089991,None,722.9297000089991,None,722.9297000089991,None,,,,,,,,,,,,,,,,,,,,,,,,,,,,,,,,,,,,,,,,,,,,001,149,2020_Feb_20_1154,spring_faces,3.2.3,60.00331926360273,
condition files/Stage1_1.xlsx,,T2,B2,m,"['c', 'm']","['Clue', 'Monopoly']","[-0.15, 0.5]","[0.15, 0.5]",1,1,,,,,,,,,0,4,4,4,0,0,0,3,,,,,,,,,,,,,,,,,,,,,,,,,,,,,,,,,,,,,,,,,,,,,,,,,,,,,,,724.9130242730007,None,724.9130242730007,None,724.9130242730007,None,m,1,1.527096330999484,726.4463798910001,None,726.4463798910001,None,726.4463798910001,None,728.0463497590008,None,728.0463497590008,None,728.0463497590008,None,728.0463497590008,None,,,,,,,,,,,,,,,,,,,,,,,,,,,,,,,,,,,,,,,,,,,,001,149,2020_Feb_20_1154,spring_faces,3.2.3,60.00331926360273,
condition files/Stage1_1.xlsx,,B1,T2,c,"['c', 'm']","['Clue', 'Monopoly']","[-0.15, 0.5]","[0.15, 0.5]",1,1,,,,,,,,,0,4,4,4,0,1,1,1,,,,,,,,,,,,,,,,,,,,,,,,,,,,,,,,,,,,,,,,,,,,,,,,,,,,,,,730.0130372860003,None,730.0130372860003,None,730.0130372860003,None,c,1,1.3390841679993173,731.5463313880009,None,731.5463313880009,None,731.5463313880009,None,732.9625713500009,None,732.9625713500009,None,732.9625713500009,None,732.9625713500009,None,,,,,,,,,,,,,,,,,,,,,,,,,,,,,,,,,,,,,,,,,,,,001,149,2020_Feb_20_1154,spring_faces,3.2.3,60.00331926360273,
condition files/Stage1_1.xlsx,,B3,T3,c,"['c', 'm']","['Clue', 'Monopoly']","[-0.15, 0.5]","[0.15, 0.5]",1,1,,,,,,,,,0,4,4,4,0,2,2,4,,,,,,,,,,,,,,,,,,,,,,,,,,,,,,,,,,,,,,,,,,,,,,,,,,,,,,,734.9296623490009,None,734.9296623490009,None,734.9296623490009,None,c,1,1.5264314729993202,736.4630188560004,None,736.4630188560004,None,736.4630188560004,None,738.0630383940006,None,738.0630383940006,None,738.0630383940006,None,738.0630383940006,None,,,,,,,,,,,,,,,,,,,,,,,,,,,,,,,,,,,,,,,,,,,,001,149,2020_Feb_20_1154,spring_faces,3.2.3,60.00331926360273,
condition files/Stage1_1.xlsx,,T1,B1,c,"['c', 'm']","['Clue', 'Monopoly']","[-0.15, 0.5]","[0.15, 0.5]",1,1,,,,,,,,,0,4,4,4,0,3,3,0,,,,,,,,,,,,,,,,,,,,,,,,,,,,,,,,,,,,,,,,,,,,,,,,,,,,,,,740.0297439009992,None,740.0297439009992,None,740.0297439009992,None,m,0,3.898509530999945,741.5630256589993,None,741.5630256589993,None,741.5630256589993,None,745.5296673609992,None,745.5296673609992,None,745.5296673609992,None,745.5296673609992,None,,,,,,,,,,,,,,,,,,,,,,,,,,,,,,,,,,,,,,,,,,,,001,149,2020_Feb_20_1154,spring_faces,3.2.3,60.00331926360273,
condition files/Stage1_1.xlsx,,T4,B3,m,"['c', 'm']","['Clue', 'Monopoly']","[-0.15, 0.5]","[0.15, 0.5]",1,1,,,,,,,,,0,4,4,4,0,4,4,6,,,,,,,,,,,,,,,,,,,,,,,,,,,,,,,,,,,,,,,,,,,,,,,,,,,,,,,747.4962597680005,None,747.4962597680005,None,747.4962597680005,None,m,1,1.0876492530005635,749.0297530589996,None,749.0297530589996,None,749.0297530589996,None,750.1963648359997,None,750.1963648359997,None,750.1963648359997,None,750.1963648359997,None,,,,,,,,,,,,,,,,,,,,,,,,,,,,,,,,,,,,,,,,,,,,001,149,2020_Feb_20_1154,spring_faces,3.2.3,60.00331926360273,
condition files/Stage1_1.xlsx,,T3,B4,c,"['c', 'm']","['Clue', 'Monopoly']","[-0.15, 0.5]","[0.15, 0.5]",1,1,,,,,,,,,0,4,4,4,0,5,5,5,,,,,,,,,,,,,,,,,,,,,,,,,,,,,,,,,,,,,,,,,,,,,,,,,,,,,,,752.1630364020002,None,752.1630364020002,None,752.1630364020002,None,c,1,1.5730400070005999,753.6963871520002,None,753.6963871520002,None,753.6963871520002,None,755.3463665920008,None,755.3463665920008,None,755.3463665920008,None,755.3463665920008,None,,,,,,,,,,,,,,,,,,,,,,,,,,,,,,,,,,,,,,,,,,,,001,149,2020_Feb_20_1154,spring_faces,3.2.3,60.00331926360273,
condition files/Stage1_1.xlsx,,B4,T4,m,"['c', 'm']","['Clue', 'Monopoly']","[-0.15, 0.5]","[0.15, 0.5]",1,1,,,,,,,,,0,4,4,4,0,6,6,7,,,,,,,,,,,,,,,,,,,,,,,,,,,,,,,,,,,,,,,,,,,,,,,,,,,,,,,757.3128895310001,None,757.3128895310001,None,757.3128895310001,None,m,1,4.2790515670003515,758.8463565700004,None,758.8463565700004,None,758.8463565700004,None,763.1963690310004,None,763.1963690310004,None,763.1963690310004,None,763.1963690310004,None,,,,,,,,,,,,,,,,,,,,,,,,,,,,,,,,,,,,,,,,,,,,001,149,2020_Feb_20_1154,spring_faces,3.2.3,60.00331926360273,
condition files/Stage1_1.xlsx,,B2,T1,m,"['c', 'm']","['Clue', 'Monopoly']","[-0.15, 0.5]","[0.15, 0.5]",1,1,,,,,,,,,0,4,4,4,0,7,7,2,,,,,,,,,,,,,,,,,,,,,,,,,,,,,,,,,,,,,,,,,,,,,,,,,,,,,,,765.163068152,None,765.163068152,None,765.163068152,None,m,1,3.309199594999882,766.6962908149999,None,766.6962908149999,None,766.6962908149999,None,770.063055863,None,770.063055863,None,770.063055863,None,770.063055863,None,,,,,,,,,,,,,,,,,,,,,,,,,,,,,,,,,,,,,,,,,,,,001,149,2020_Feb_20_1154,spring_faces,3.2.3,60.00331926360273,
condition files/Stage1_2.xlsx,,T2,B1,c,"['c', 'm']","['Clue', 'Monopoly']","[-0.15, 0.5]","[0.15, 0.5]",1,1,,,,,,,,,0,5,5,5,0,0,0,1,,,,,,,,,,,,,,,,,,,,,,,,,,,,,,,,,,,,,,,,,,,,,,,,,,,,,,,772.0629965209991,None,772.0629965209991,None,772.0629965209991,None,c,1,2.0730386880004517,773.5963429250005,None,773.5963429250005,None,773.5963429250005,None,775.7463431849992,None,775.7463431849992,None,775.7463431849992,None,775.7463431849992,None,,,,,,,,,,,,,,,,,,,,,,,,,,,,,,,,,,,,,,,,,,,,001,149,2020_Feb_20_1154,spring_faces,3.2.3,60.00331926360273,
condition files/Stage1_2.xlsx,,B2,T2,m,"['c', 'm']","['Clue', 'Monopoly']","[-0.15, 0.5]","[0.15, 0.5]",1,1,,,,,,,,,0,5,5,5,0,1,1,3,,,,,,,,,,,,,,,,,,,,,,,,,,,,,,,,,,,,,,,,,,,,,,,,,,,,,,,777.7130047930004,None,777.7130047930004,None,777.7130047930004,None,m,1,5.415183664001233,779.2463398780001,None,779.2463398780001,None,779.2463398780001,None,784.7296805050009,None,784.7296805050009,None,784.7296805050009,None,784.7296805050009,None,,,,,,,,,,,,,,,,,,,,,,,,,,,,,,,,,,,,,,,,,,,,001,149,2020_Feb_20_1154,spring_faces,3.2.3,60.00331926360273,
condition files/Stage1_2.xlsx,,T3,B3,c,"['c', 'm']","['Clue', 'Monopoly']","[-0.15, 0.5]","[0.15, 0.5]",1,1,,,,,,,,,0,5,5,5,0,2,2,4,,,,,,,,,,,,,,,,,,,,,,,,,,,,,,,,,,,,,,,,,,,,,,,,,,,,,,,786.6962872479999,None,786.6962872479999,None,786.6962872479999,None,c,1,0.8158028870002454,788.2297352210007,None,788.2297352210007,None,788.2297352210007,None,789.112946317,None,789.112946317,None,789.112946317,None,789.112946317,None,,,,,,,,,,,,,,,,,,,,,,,,,,,,,,,,,,,,,,,,,,,,001,149,2020_Feb_20_1154,spring_faces,3.2.3,60.00331926360273,
condition files/Stage1_2.xlsx,,B4,T3,c,"['c', 'm']","['Clue', 'Monopoly']","[-0.15, 0.5]","[0.15, 0.5]",1,1,,,,,,,,,0,5,5,5,0,3,3,5,,,,,,,,,,,,,,,,,,,,,,,,,,,,,,,,,,,,,,,,,,,,,,,,,,,,,,,791.0796185189993,None,791.0796185189993,None,791.0796185189993,None,c,1,1.3444527599986031,792.6130049530002,None,792.6130049530002,None,792.6130049530002,None,794.0127728940006,None,794.0127728940006,None,794.0127728940006,None,794.0127728940006,None,,,,,,,,,,,,,,,,,,,,,,,,,,,,,,,,,,,,,,,,,,,,001,149,2020_Feb_20_1154,spring_faces,3.2.3,60.00331926360273,
condition files/Stage1_2.xlsx,,B3,T4,m,"['c', 'm']","['Clue', 'Monopoly']","[-0.15, 0.5]","[0.15, 0.5]",1,1,,,,,,,,,0,5,5,5,0,4,4,6,,,,,,,,,,,,,,,,,,,,,,,,,,,,,,,,,,,,,,,,,,,,,,,,,,,,,,,795.9963893860004,None,795.9963893860004,None,795.9963893860004,None,c,0,1.8998341870010336,797.5296788369997,None,797.5296788369997,None,797.5296788369997,None,799.4963176649999,None,799.4963176649999,None,799.4963176649999,None,799.4963176649999,None,,,,,,,,,,,,,,,,,,,,,,,,,,,,,,,,,,,,,,,,,,,,001,149,2020_Feb_20_1154,spring_faces,3.2.3,60.00331926360273,
condition files/Stage1_2.xlsx,,T4,B4,m,"['c', 'm']","['Clue', 'Monopoly']","[-0.15, 0.5]","[0.15, 0.5]",1,1,,,,,,,,,0,5,5,5,0,5,5,7,,,,,,,,,,,,,,,,,,,,,,,,,,,,,,,,,,,,,,,,,,,,,,,,,,,,,,,801.4630662990003,None,801.4630662990003,None,801.4630662990003,None,c,0,2.0811017750002065,802.9963985710001,None,802.9963985710001,None,802.9963985710001,None,805.1297024190008,None,805.1297024190008,None,805.1297024190008,None,805.1297024190008,None,,,,,,,,,,,,,,,,,,,,,,,,,,,,,,,,,,,,,,,,,,,,001,149,2020_Feb_20_1154,spring_faces,3.2.3,60.00331926360273,
condition files/Stage1_2.xlsx,,T1,B2,m,"['c', 'm']","['Clue', 'Monopoly']","[-0.15, 0.5]","[0.15, 0.5]",1,1,,,,,,,,,0,5,5,5,0,6,6,2,,,,,,,,,,,,,,,,,,,,,,,,,,,,,,,,,,,,,,,,,,,,,,,,,,,,,,,807.1129326860009,None,807.1129326860009,None,807.1129326860009,None,c,0,2.2551791459991364,808.6462902429994,None,808.6462902429994,None,808.6462902429994,None,810.963039102,None,810.963039102,None,810.963039102,None,810.963039102,None,,,,,,,,,,,,,,,,,,,,,,,,,,,,,,,,,,,,,,,,,,,,001,149,2020_Feb_20_1154,spring_faces,3.2.3,60.00331926360273,
condition files/Stage1_2.xlsx,,B1,T1,c,"['c', 'm']","['Clue', 'Monopoly']","[-0.15, 0.5]","[0.15, 0.5]",1,1,,,,,,,,,0,5,5,5,0,7,7,0,,,,,,,,,,,,,,,,,,,,,,,,,,,,,,,,,,,,,,,,,,,,,,,,,,,,,,,812.9463365520005,None,812.9463365520005,None,812.9463365520005,None,c,1,1.5897297610008536,814.4796719980004,None,814.4796719980004,None,814.4796719980004,None,816.146358422,None,816.146358422,None,816.146358422,None,816.146358422,None,,,,,,,,,,,,,,,,,,,,,,,,,,,,,,,,,,,,,,,,,,,,001,149,2020_Feb_20_1154,spring_faces,3.2.3,60.00331926360273,
condition files/Stage1_1.xlsx,,B4,T4,m,"['c', 'm']","['Clue', 'Monopoly']","[-0.15, 0.5]","[0.15, 0.5]",1,1,,,,,,,,,0,6,6,6,0,0,0,7,,,,,,,,,,,,,,,,,,,,,,,,,,,,,,,,,,,,,,,,,,,,,,,,,,,,,,,818.1296959259998,None,818.1296959259998,None,818.1296959259998,None,m,1,0.8864127040014864,819.6630241889998,None,819.6630241889998,None,819.6630241889998,None,820.6297508419993,None,820.6297508419993,None,820.6297508419993,None,820.6297508419993,None,,,,,,,,,,,,,,,,,,,,,,,,,,,,,,,,,,,,,,,,,,,,001,149,2020_Feb_20_1154,spring_faces,3.2.3,60.00331926360273,
condition files/Stage1_1.xlsx,,T1,B1,c,"['c', 'm']","['Clue', 'Monopoly']","[-0.15, 0.5]","[0.15, 0.5]",1,1,,,,,,,,,0,6,6,6,0,1,1,0,,,,,,,,,,,,,,,,,,,,,,,,,,,,,,,,,,,,,,,,,,,,,,,,,,,,,,,822.5963729600007,None,822.5963729600007,None,822.5963729600007,None,c,1,2.915856192999854,824.1296701560004,None,824.1296701560004,None,824.1296701560004,None,827.1129560869995,None,827.1129560869995,None,827.1129560869995,None,827.1129560869995,None,,,,,,,,,,,,,,,,,,,,,,,,,,,,,,,,,,,,,,,,,,,,001,149,2020_Feb_20_1154,spring_faces,3.2.3,60.00331926360273,
condition files/Stage1_1.xlsx,,B1,T2,c,"['c', 'm']","['Clue', 'Monopoly']","[-0.15, 0.5]","[0.15, 0.5]",1,1,,,,,,,,,0,6,6,6,0,2,2,1,,,,,,,,,,,,,,,,,,,,,,,,,,,,,,,,,,,,,,,,,,,,,,,,,,,,,,,829.0795899620007,None,829.0795899620007,None,829.0795899620007,None,c,1,1.1364295950006635,830.6129995280007,None,830.6129995280007,None,830.6129995280007,None,831.8128554579998,None,831.8128554579998,None,831.8128554579998,None,831.8128554579998,None,,,,,,,,,,,,,,,,,,,,,,,,,,,,,,,,,,,,,,,,,,,,001,149,2020_Feb_20_1154,spring_faces,3.2.3,60.00331926360273,
condition files/Stage1_1.xlsx,,T4,B3,m,"['c', 'm']","['Clue', 'Monopoly']","[-0.15, 0.5]","[0.15, 0.5]",1,1,,,,,,,,,0,6,6,6,0,3,3,6,,,,,,,,,,,,,,,,,,,,,,,,,,,,,,,,,,,,,,,,,,,,,,,,,,,,,,,833.7963915599994,None,833.7963915599994,None,833.7963915599994,None,m,1,0.8516536189999897,835.3297032850005,None,835.3297032850005,None,835.3297032850005,None,836.2630253059997,None,836.2630253059997,None,836.2630253059997,None,836.2630253059997,None,,,,,,,,,,,,,,,,,,,,,,,,,,,,,,,,,,,,,,,,,,,,001,149,2020_Feb_20_1154,spring_faces,3.2.3,60.00331926360273,
condition files/Stage1_1.xlsx,,T2,B2,m,"['c', 'm']","['Clue', 'Monopoly']","[-0.15, 0.5]","[0.15, 0.5]",1,1,,,,,,,,,0,6,6,6,0,4,4,3,,,,,,,,,,,,,,,,,,,,,,,,,,,,,,,,,,,,,,,,,,,,,,,,,,,,,,,838.2296472689995,None,838.2296472689995,None,838.2296472689995,None,m,1,2.098506365000503,839.7630048810006,None,839.7630048810006,None,839.7630048810006,None,841.9129696199998,None,841.9129696199998,None,841.9129696199998,None,841.9129696199998,None,,,,,,,,,,,,,,,,,,,,,,,,,,,,,,,,,,,,,,,,,,,,001,149,2020_Feb_20_1154,spring_faces,3.2.3,60.00331926360273,
condition files/Stage1_1.xlsx,,T3,B4,c,"['c', 'm']","['Clue', 'Monopoly']","[-0.15, 0.5]","[0.15, 0.5]",1,1,,,,,,,,,0,6,6,6,0,5,5,5,,,,,,,,,,,,,,,,,,,,,,,,,,,,,,,,,,,,,,,,,,,,,,,,,,,,,,,843.8962753010001,None,843.8962753010001,None,843.8962753010001,None,c,1,1.2478128140010085,845.4296561940009,None,845.4296561940009,None,845.4296561940009,None,846.746329263,None,846.746329263,None,846.746329263,None,846.746329263,None,,,,,,,,,,,,,,,,,,,,,,,,,,,,,,,,,,,,,,,,,,,,001,149,2020_Feb_20_1154,spring_faces,3.2.3,60.00331926360273,
condition files/Stage1_1.xlsx,,B3,T3,c,"['c', 'm']","['Clue', 'Monopoly']","[-0.15, 0.5]","[0.15, 0.5]",1,1,,,,,,,,,0,6,6,6,0,6,6,4,,,,,,,,,,,,,,,,,,,,,,,,,,,,,,,,,,,,,,,,,,,,,,,,,,,,,,,848.7129361509997,None,848.7129361509997,None,848.7129361509997,None,c,1,0.831268418000036,850.2462922400009,None,850.2462922400009,None,850.2462922400009,None,851.129716288,None,851.129716288,None,851.129716288,None,851.129716288,None,,,,,,,,,,,,,,,,,,,,,,,,,,,,,,,,,,,,,,,,,,,,001,149,2020_Feb_20_1154,spring_faces,3.2.3,60.00331926360273,
condition files/Stage1_1.xlsx,,B2,T1,m,"['c', 'm']","['Clue', 'Monopoly']","[-0.15, 0.5]","[0.15, 0.5]",1,1,,,,,,,,,0,6,6,6,0,7,7,2,,,,,,,,,,,,,,,,,,,,,,,,,,,,,,,,,,,,,,,,,,,,,,,,,,,,,,,853.1130379860006,None,853.1130379860006,None,853.1130379860006,None,m,1,3.5832409839986212,854.6462970859993,None,854.6462970859993,None,854.6462970859993,None,858.2962820060002,None,858.2962820060002,None,858.2962820060002,None,858.2962820060002,None,,,,,,,,,,,,,,,,,,,,,,,,,,,,,,,,,,,,,,,,,,,,001,149,2020_Feb_20_1154,spring_faces,3.2.3,60.00331926360273,
condition files/Stage1_2.xlsx,,T1,B2,m,"['c', 'm']","['Clue', 'Monopoly']","[-0.15, 0.5]","[0.15, 0.5]",1,1,,,,,,,,,0,7,7,7,0,0,0,2,,,,,,,,,,,,,,,,,,,,,,,,,,,,,,,,,,,,,,,,,,,,,,,,,,,,,,,860.2796644539994,None,860.2796644539994,None,860.2796644539994,None,m,1,1.088441279000108,861.813005553,None,861.813005553,None,861.813005553,None,862.9795791239994,None,862.9795791239994,None,862.9795791239994,None,862.9795791239994,None,,,,,,,,,,,,,,,,,,,,,,,,,,,,,,,,,,,,,,,,,,,,001,149,2020_Feb_20_1154,spring_faces,3.2.3,60.00331926360273,
condition files/Stage1_2.xlsx,,B2,T2,m,"['c', 'm']","['Clue', 'Monopoly']","[-0.15, 0.5]","[0.15, 0.5]",1,1,,,,,,,,,0,7,7,7,0,1,1,3,,,,,,,,,,,,,,,,,,,,,,,,,,,,,,,,,,,,,,,,,,,,,,,,,,,,,,,864.9464007170009,None,864.9464007170009,None,864.9464007170009,None,c,0,0.9180393070000719,866.4797205409996,None,866.4797205409996,None,866.4797205409996,None,867.4629526919998,None,867.4629526919998,None,867.4629526919998,None,867.4629526919998,None,,,,,,,,,,,,,,,,,,,,,,,,,,,,,,,,,,,,,,,,,,,,001,149,2020_Feb_20_1154,spring_faces,3.2.3,60.00331926360273,
condition files/Stage1_2.xlsx,,B1,T1,c,"['c', 'm']","['Clue', 'Monopoly']","[-0.15, 0.5]","[0.15, 0.5]",1,1,,,,,,,,,0,7,7,7,0,2,2,0,,,,,,,,,,,,,,,,,,,,,,,,,,,,,,,,,,,,,,,,,,,,,,,,,,,,,,,869.4462906629997,None,869.4462906629997,None,869.4462906629997,None,c,1,0.7856966499984992,870.9797049959998,None,870.9797049959998,None,870.9797049959998,None,871.8463431389991,None,871.8463431389991,None,871.8463431389991,None,871.8463431389991,None,,,,,,,,,,,,,,,,,,,,,,,,,,,,,,,,,,,,,,,,,,,,001,149,2020_Feb_20_1154,spring_faces,3.2.3,60.00331926360273,
condition files/Stage1_2.xlsx,,T2,B1,c,"['c', 'm']","['Clue', 'Monopoly']","[-0.15, 0.5]","[0.15, 0.5]",1,1,,,,,,,,,0,7,7,7,0,3,3,1,,,,,,,,,,,,,,,,,,,,,,,,,,,,,,,,,,,,,,,,,,,,,,,,,,,,,,,873.8130333690006,None,873.8130333690006,None,873.8130333690006,None,m,0,1.5550915309995617,875.3463461600004,None,875.3463461600004,None,875.3463461600004,None,876.979698305,None,876.979698305,None,876.979698305,None,876.979698305,None,,,,,,,,,,,,,,,,,,,,,,,,,,,,,,,,,,,,,,,,,,,,001,149,2020_Feb_20_1154,spring_faces,3.2.3,60.00331926360273,
condition files/Stage1_2.xlsx,,T3,B3,c,"['c', 'm']","['Clue', 'Monopoly']","[-0.15, 0.5]","[0.15, 0.5]",1,1,,,,,,,,,0,7,7,7,0,4,4,4,,,,,,,,,,,,,,,,,,,,,,,,,,,,,,,,,,,,,,,,,,,,,,,,,,,,,,,878.9463633880005,None,878.9463633880005,None,878.9463633880005,None,c,1,1.621696289999818,880.4797315039996,None,880.4797315039996,None,880.4797315039996,None,882.1796763849998,None,882.1796763849998,None,882.1796763849998,None,882.1796763849998,None,,,,,,,,,,,,,,,,,,,,,,,,,,,,,,,,,,,,,,,,,,,,001,149,2020_Feb_20_1154,spring_faces,3.2.3,60.00331926360273,
condition files/Stage1_2.xlsx,,B4,T3,c,"['c', 'm']","['Clue', 'Monopoly']","[-0.15, 0.5]","[0.15, 0.5]",1,1,,,,,,,,,0,7,7,7,0,5,5,5,,,,,,,,,,,,,,,,,,,,,,,,,,,,,,,,,,,,,,,,,,,,,,,,,,,,,,,884.1463589070008,None,884.1463589070008,None,884.1463589070008,None,c,1,1.093780882001738,885.6796770809997,None,885.6796770809997,None,885.6796770809997,None,886.8295725299995,None,886.8295725299995,None,886.8295725299995,None,886.8295725299995,None,,,,,,,,,,,,,,,,,,,,,,,,,,,,,,,,,,,,,,,,,,,,001,149,2020_Feb_20_1154,spring_faces,3.2.3,60.00331926360273,
condition files/Stage1_2.xlsx,,B3,T4,m,"['c', 'm']","['Clue', 'Monopoly']","[-0.15, 0.5]","[0.15, 0.5]",1,1,,,,,,,,,0,7,7,7,0,6,6,6,,,,,,,,,,,,,,,,,,,,,,,,,,,,,,,,,,,,,,,,,,,,,,,,,,,,,,,888.8130241479994,None,888.8130241479994,None,888.8130241479994,None,m,1,0.7950527570010308,890.346403685,None,890.346403685,None,890.346403685,None,891.2130321759996,None,891.2130321759996,None,891.2130321759996,None,891.2130321759996,None,,,,,,,,,,,,,,,,,,,,,,,,,,,,,,,,,,,,,,,,,,,,001,149,2020_Feb_20_1154,spring_faces,3.2.3,60.00331926360273,
condition files/Stage1_2.xlsx,,T4,B4,m,"['c', 'm']","['Clue', 'Monopoly']","[-0.15, 0.5]","[0.15, 0.5]",1,1,,,,,,,,,0,7,7,7,0,7,7,7,,,,,,,,,,,,,,,,,,,,,,,,,,,,,,,,,,,,,,,,,,,,,,,,,,,,,,,893.1796927390005,None,893.1796927390005,None,893.1796927390005,None,m,1,2.1245077090006816,894.7129782009997,None,894.7129782009997,None,894.7129782009997,None,896.9130093250005,None,896.9130093250005,None,896.9130093250005,None,896.9130093250005,None,,,,,,,,,,,,,,,,,,,,,,,,,,,,,,,,,,,,,,,,,,,,001,149,2020_Feb_20_1154,spring_faces,3.2.3,60.00331926360273,
condition files/Stage1_1.xlsx,,T3,B4,c,"['c', 'm']","['Clue', 'Monopoly']","[-0.15, 0.5]","[0.15, 0.5]",1,1,,,,,,,,,0,8,8,8,0,0,0,5,,,,,,,,,,,,,,,,,,,,,,,,,,,,,,,,,,,,,,,,,,,,,,,,,,,,,,,898.8963546970008,None,898.8963546970008,None,898.8963546970008,None,c,1,1.3837270670010184,900.4296761009991,None,900.4296761009991,None,900.4296761009991,None,901.8963630950002,None,901.8963630950002,None,901.8963630950002,None,901.8963630950002,None,,,,,,,,,,,,,,,,,,,,,,,,,,,,,,,,,,,,,,,,,,,,001,149,2020_Feb_20_1154,spring_faces,3.2.3,60.00331926360273,
condition files/Stage1_1.xlsx,,T1,B1,c,"['c', 'm']","['Clue', 'Monopoly']","[-0.15, 0.5]","[0.15, 0.5]",1,1,,,,,,,,,0,8,8,8,0,1,1,0,,,,,,,,,,,,,,,,,,,,,,,,,,,,,,,,,,,,,,,,,,,,,,,,,,,,,,,903.8629660740007,None,903.8629660740007,None,903.8629660740007,None,m,0,5.009084866000194,905.3963687390005,None,905.3963687390005,None,905.3963687390005,None,910.4630399260004,None,910.4630399260004,None,910.4630399260004,None,910.4630399260004,None,,,,,,,,,,,,,,,,,,,,,,,,,,,,,,,,,,,,,,,,,,,,001,149,2020_Feb_20_1154,spring_faces,3.2.3,60.00331926360273,
condition files/Stage1_1.xlsx,,B1,T2,c,"['c', 'm']","['Clue', 'Monopoly']","[-0.15, 0.5]","[0.15, 0.5]",1,1,,,,,,,,,0,8,8,8,0,2,2,1,,,,,,,,,,,,,,,,,,,,,,,,,,,,,,,,,,,,,,,,,,,,,,,,,,,,,,,912.4463774070009,None,912.4463774070009,None,912.4463774070009,None,c,1,0.8737651930005086,913.9796840809995,None,913.9796840809995,None,913.9796840809995,None,914.913004475,None,914.913004475,None,914.913004475,None,914.913004475,None,,,,,,,,,,,,,,,,,,,,,,,,,,,,,,,,,,,,,,,,,,,,001,149,2020_Feb_20_1154,spring_faces,3.2.3,60.00331926360273,
condition files/Stage1_1.xlsx,,T4,B3,m,"['c', 'm']","['Clue', 'Monopoly']","[-0.15, 0.5]","[0.15, 0.5]",1,1,,,,,,,,,0,8,8,8,0,3,3,6,,,,,,,,,,,,,,,,,,,,,,,,,,,,,,,,,,,,,,,,,,,,,,,,,,,,,,,916.8963986409999,None,916.8963986409999,None,916.8963986409999,None,m,1,1.2237453629986703,918.4297031099995,None,918.4297031099995,None,918.4297031099995,None,919.7296704849996,None,919.7296704849996,None,919.7296704849996,None,919.7296704849996,None,,,,,,,,,,,,,,,,,,,,,,,,,,,,,,,,,,,,,,,,,,,,001,149,2020_Feb_20_1154,spring_faces,3.2.3,60.00331926360273,
condition files/Stage1_1.xlsx,,B4,T4,m,"['c', 'm']","['Clue', 'Monopoly']","[-0.15, 0.5]","[0.15, 0.5]",1,1,,,,,,,,,0,8,8,8,0,4,4,7,,,,,,,,,,,,,,,,,,,,,,,,,,,,,,,,,,,,,,,,,,,,,,,,,,,,,,,921.6963735410009,None,921.6963735410009,None,921.6963735410009,None,m,1,0.7757122009988962,923.2297422560005,None,923.2297422560005,None,923.2297422560005,None,924.0629785559995,None,924.0629785559995,None,924.0629785559995,None,924.0629785559995,None,,,,,,,,,,,,,,,,,,,,,,,,,,,,,,,,,,,,,,,,,,,,001,149,2020_Feb_20_1154,spring_faces,3.2.3,60.00331926360273,
condition files/Stage1_1.xlsx,,T2,B2,m,"['c', 'm']","['Clue', 'Monopoly']","[-0.15, 0.5]","[0.15, 0.5]",1,1,,,,,,,,,0,8,8,8,0,5,5,3,,,,,,,,,,,,,,,,,,,,,,,,,,,,,,,,,,,,,,,,,,,,,,,,,,,,,,,926.0463562589994,None,926.0463562589994,None,926.0463562589994,None,m,1,0.8257429280001816,927.5797012290004,None,927.5797012290004,None,927.5797012290004,None,928.4630432110007,None,928.4630432110007,None,928.4630432110007,None,928.4630432110007,None,,,,,,,,,,,,,,,,,,,,,,,,,,,,,,,,,,,,,,,,,,,,001,149,2020_Feb_20_1154,spring_faces,3.2.3,60.00331926360273,
condition files/Stage1_1.xlsx,,B3,T3,c,"['c', 'm']","['Clue', 'Monopoly']","[-0.15, 0.5]","[0.15, 0.5]",1,1,,,,,,,,,0,8,8,8,0,6,6,4,,,,,,,,,,,,,,,,,,,,,,,,,,,,,,,,,,,,,,,,,,,,,,,,,,,,,,,930.4463988429998,None,930.4463988429998,None,930.4463988429998,None,c,1,1.17775317899941,931.9797041540005,None,931.9797041540005,None,931.9797041540005,None,933.2297188760003,None,933.2297188760003,None,933.2297188760003,None,933.2297188760003,None,,,,,,,,,,,,,,,,,,,,,,,,,,,,,,,,,,,,,,,,,,,,001,149,2020_Feb_20_1154,spring_faces,3.2.3,60.00331926360273,
condition files/Stage1_1.xlsx,,B2,T1,m,"['c', 'm']","['Clue', 'Monopoly']","[-0.15, 0.5]","[0.15, 0.5]",1,1,,,,,,,,,0,8,8,8,0,7,7,2,,,,,,,,,,,,,,,,,,,,,,,,,,,,,,,,,,,,,,,,,,,,,,,,,,,,,,,935.1963611699994,None,935.1963611699994,None,935.1963611699994,None,m,1,1.1478121460004331,936.7297061169993,None,936.7297061169993,None,936.7297061169993,None,937.9463730740008,None,937.9463730740008,None,937.9463730740008,None,937.9463730740008,None,,,,,,,,,,,,,,,,,,,,,,,,,,,,,,,,,,,,,,,,,,,,001,149,2020_Feb_20_1154,spring_faces,3.2.3,60.00331926360273,
condition files/Stage1_2.xlsx,,T2,B1,c,"['c', 'm']","['Clue', 'Monopoly']","[-0.15, 0.5]","[0.15, 0.5]",1,1,,,,,,,,,0,9,9,9,0,0,0,1,,,,,,,,,,,,,,,,,,,,,,,,,,,,,,,,,,,,,,,,,,,,,,,,,,,,,,,939.9297018819998,None,939.9297018819998,None,939.9297018819998,None,c,1,1.8384196560000419,941.4630332249999,None,941.4630332249999,None,941.4630332249999,None,943.3797074869999,None,943.3797074869999,None,943.3797074869999,None,943.3797074869999,None,,,,,,,,,,,,,,,,,,,,,,,,,,,,,,,,,,,,,,,,,,,,001,149,2020_Feb_20_1154,spring_faces,3.2.3,60.00331926360273,
condition files/Stage1_2.xlsx,,B2,T2,m,"['c', 'm']","['Clue', 'Monopoly']","[-0.15, 0.5]","[0.15, 0.5]",1,1,,,,,,,,,0,9,9,9,0,1,1,3,,,,,,,,,,,,,,,,,,,,,,,,,,,,,,,,,,,,,,,,,,,,,,,,,,,,,,,945.3463691550005,None,945.3463691550005,None,945.3463691550005,None,m,1,1.3176624549996632,946.8796996199999,None,946.8796996199999,None,946.8796996199999,None,948.2796764190007,None,948.2796764190007,None,948.2796764190007,None,948.2796764190007,None,,,,,,,,,,,,,,,,,,,,,,,,,,,,,,,,,,,,,,,,,,,,001,149,2020_Feb_20_1154,spring_faces,3.2.3,60.00331926360273,
condition files/Stage1_2.xlsx,,T3,B3,c,"['c', 'm']","['Clue', 'Monopoly']","[-0.15, 0.5]","[0.15, 0.5]",1,1,,,,,,,,,0,9,9,9,0,2,2,4,,,,,,,,,,,,,,,,,,,,,,,,,,,,,,,,,,,,,,,,,,,,,,,,,,,,,,,950.2463419960004,None,950.2463419960004,None,950.2463419960004,None,c,1,0.7857261360004486,951.7796754640003,None,951.7796754640003,None,951.7796754640003,None,952.6463208330006,None,952.6463208330006,None,952.6463208330006,None,952.6463208330006,None,,,,,,,,,,,,,,,,,,,,,,,,,,,,,,,,,,,,,,,,,,,,001,149,2020_Feb_20_1154,spring_faces,3.2.3,60.00331926360273,
condition files/Stage1_2.xlsx,,B4,T3,c,"['c', 'm']","['Clue', 'Monopoly']","[-0.15, 0.5]","[0.15, 0.5]",1,1,,,,,,,,,0,9,9,9,0,3,3,5,,,,,,,,,,,,,,,,,,,,,,,,,,,,,,,,,,,,,,,,,,,,,,,,,,,,,,,954.6130620120002,None,954.6130620120002,None,954.6130620120002,None,c,1,0.7711723890006397,956.1462937100005,None,956.1462937100005,None,956.1462937100005,None,956.9963686619994,None,956.9963686619994,None,956.9963686619994,None,956.9963686619994,None,,,,,,,,,,,,,,,,,,,,,,,,,,,,,,,,,,,,,,,,,,,,001,149,2020_Feb_20_1154,spring_faces,3.2.3,60.00331926360273,
condition files/Stage1_2.xlsx,,B1,T1,c,"['c', 'm']","['Clue', 'Monopoly']","[-0.15, 0.5]","[0.15, 0.5]",1,1,,,,,,,,,0,9,9,9,0,4,4,0,,,,,,,,,,,,,,,,,,,,,,,,,,,,,,,,,,,,,,,,,,,,,,,,,,,,,,,958.9630765509992,None,958.9630765509992,None,958.9630765509992,None,c,1,2.021044974999313,960.4963867269998,None,960.4963867269998,None,960.4963867269998,None,962.5963541479996,None,962.5963541479996,None,962.5963541479996,None,962.5963541479996,None,,,,,,,,,,,,,,,,,,,,,,,,,,,,,,,,,,,,,,,,,,,,001,149,2020_Feb_20_1154,spring_faces,3.2.3,60.00331926360273,
condition files/Stage1_2.xlsx,,T1,B2,m,"['c', 'm']","['Clue', 'Monopoly']","[-0.15, 0.5]","[0.15, 0.5]",1,1,,,,,,,,,0,9,9,9,0,5,5,2,,,,,,,,,,,,,,,,,,,,,,,,,,,,,,,,,,,,,,,,,,,,,,,,,,,,,,,964.5630398070007,None,964.5630398070007,None,964.5630398070007,None,m,1,1.525111177999861,966.096351315,None,966.096351315,None,966.096351315,None,967.6963701509994,None,967.6963701509994,None,967.6963701509994,None,967.6963701509994,None,,,,,,,,,,,,,,,,,,,,,,,,,,,,,,,,,,,,,,,,,,,,001,149,2020_Feb_20_1154,spring_faces,3.2.3,60.00331926360273,
condition files/Stage1_2.xlsx,,B3,T4,m,"['c', 'm']","['Clue', 'Monopoly']","[-0.15, 0.5]","[0.15, 0.5]",1,1,,,,,,,,,0,9,9,9,0,6,6,6,,,,,,,,,,,,,,,,,,,,,,,,,,,,,,,,,,,,,,,,,,,,,,,,,,,,,,,969.6630685500004,None,969.6630685500004,None,969.6630685500004,None,m,1,1.3370578429985471,971.1963741140007,None,971.1963741140007,None,971.1963741140007,None,972.5963601620006,None,972.5963601620006,None,972.5963601620006,None,972.5963601620006,None,,,,,,,,,,,,,,,,,,,,,,,,,,,,,,,,,,,,,,,,,,,,001,149,2020_Feb_20_1154,spring_faces,3.2.3,60.00331926360273,
condition files/Stage1_2.xlsx,,T4,B4,m,"['c', 'm']","['Clue', 'Monopoly']","[-0.15, 0.5]","[0.15, 0.5]",1,1,,,,,,,,,0,9,9,9,0,7,7,7,,,,,,,,,,,,,,,,,,,,,,,,,,,,,,,,,,,,,,,,,,,,,,,,,,,,,,,974.5797086469993,None,974.5797086469993,None,974.5797086469993,None,m,1,0.7884075279998797,976.1130188650004,None,976.1130188650004,None,976.1130188650004,None,976.9797015660006,None,976.9797015660006,None,976.9797015660006,None,976.9797015660006,None,,,,,,,,,,,,,,,,,,,,,,,,,,,,,,,,,,,,,,,,,,,,001,149,2020_Feb_20_1154,spring_faces,3.2.3,60.00331926360273,
condition files/Stage1_1.xlsx,,B1,T2,c,"['c', 'm']","['Clue', 'Monopoly']","[-0.15, 0.5]","[0.15, 0.5]",1,1,,,,,,,,,0,10,10,10,0,0,0,1,,,,,,,,,,,,,,,,,,,,,,,,,,,,,,,,,,,,,,,,,,,,,,,,,,,,,,,978.9630322449993,None,978.9630322449993,None,978.9630322449993,None,c,1,1.1890835239992157,980.4963675670006,None,980.4963675670006,None,980.4963675670006,None,981.7630217120004,None,981.7630217120004,None,981.7630217120004,None,981.7630217120004,None,,,,,,,,,,,,,,,,,,,,,,,,,,,,,,,,,,,,,,,,,,,,001,149,2020_Feb_20_1154,spring_faces,3.2.3,60.00331926360273,
condition files/Stage1_1.xlsx,,B4,T4,m,"['c', 'm']","['Clue', 'Monopoly']","[-0.15, 0.5]","[0.15, 0.5]",1,1,,,,,,,,,0,10,10,10,0,1,1,7,,,,,,,,,,,,,,,,,,,,,,,,,,,,,,,,,,,,,,,,,,,,,,,,,,,,,,,983.7296952600009,None,983.7296952600009,None,983.7296952600009,None,m,1,1.1104349350007396,985.2630270850004,None,985.2630270850004,None,985.2630270850004,None,986.4463434259997,None,986.4463434259997,None,986.4463434259997,None,986.4463434259997,None,,,,,,,,,,,,,,,,,,,,,,,,,,,,,,,,,,,,,,,,,,,,001,149,2020_Feb_20_1154,spring_faces,3.2.3,60.00331926360273,
condition files/Stage1_1.xlsx,,B3,T3,c,"['c', 'm']","['Clue', 'Monopoly']","[-0.15, 0.5]","[0.15, 0.5]",1,1,,,,,,,,,0,10,10,10,0,2,2,4,,,,,,,,,,,,,,,,,,,,,,,,,,,,,,,,,,,,,,,,,,,,,,,,,,,,,,,988.413020766,None,988.413020766,None,988.413020766,None,c,1,0.63503136700092,989.9463356180004,None,989.9463356180004,None,989.9463356180004,None,990.6630133310009,None,990.6630133310009,None,990.6630133310009,None,990.6630133310009,None,,,,,,,,,,,,,,,,,,,,,,,,,,,,,,,,,,,,,,,,,,,,001,149,2020_Feb_20_1154,spring_faces,3.2.3,60.00331926360273,
condition files/Stage1_1.xlsx,,B2,T1,m,"['c', 'm']","['Clue', 'Monopoly']","[-0.15, 0.5]","[0.15, 0.5]",1,1,,,,,,,,,0,10,10,10,0,3,3,2,,,,,,,,,,,,,,,,,,,,,,,,,,,,,,,,,,,,,,,,,,,,,,,,,,,,,,,992.6296833180004,None,992.6296833180004,None,992.6296833180004,None,m,1,2.0985163090008427,994.1630123590003,None,994.1630123590003,None,994.1630123590003,None,996.3297077890002,None,996.3297077890002,None,996.3297077890002,None,996.3297077890002,None,,,,,,,,,,,,,,,,,,,,,,,,,,,,,,,,,,,,,,,,,,,,001,149,2020_Feb_20_1154,spring_faces,3.2.3,60.00331926360273,
condition files/Stage1_1.xlsx,,T1,B1,c,"['c', 'm']","['Clue', 'Monopoly']","[-0.15, 0.5]","[0.15, 0.5]",1,1,,,,,,,,,0,10,10,10,0,4,4,0,,,,,,,,,,,,,,,,,,,,,,,,,,,,,,,,,,,,,,,,,,,,,,,,,,,,,,,998.2962955269995,None,998.2962955269995,None,998.2962955269995,None,c,1,1.055819324001277,999.8296446170007,None,999.8296446170007,None,999.8296446170007,None,1000.9630205209996,None,1000.9630205209996,None,1000.9630205209996,None,1000.9630205209996,None,,,,,,,,,,,,,,,,,,,,,,,,,,,,,,,,,,,,,,,,,,,,001,149,2020_Feb_20_1154,spring_faces,3.2.3,60.00331926360273,
condition files/Stage1_1.xlsx,,T2,B2,m,"['c', 'm']","['Clue', 'Monopoly']","[-0.15, 0.5]","[0.15, 0.5]",1,1,,,,,,,,,0,10,10,10,0,5,5,3,,,,,,,,,,,,,,,,,,,,,,,,,,,,,,,,,,,,,,,,,,,,,,,,,,,,,,,1002.9297112580007,None,1002.9297112580007,None,1002.9297112580007,None,m,1,1.1584374590001971,1004.4630289340002,None,1004.4630289340002,None,1004.4630289340002,None,1005.6963689299992,None,1005.6963689299992,None,1005.6963689299992,None,1005.6963689299992,None,,,,,,,,,,,,,,,,,,,,,,,,,,,,,,,,,,,,,,,,,,,,001,149,2020_Feb_20_1154,spring_faces,3.2.3,60.00331926360273,
condition files/Stage1_1.xlsx,,T4,B3,m,"['c', 'm']","['Clue', 'Monopoly']","[-0.15, 0.5]","[0.15, 0.5]",1,1,,,,,,,,,0,10,10,10,0,6,6,6,,,,,,,,,,,,,,,,,,,,,,,,,,,,,,,,,,,,,,,,,,,,,,,,,,,,,,,1007.6630309789998,None,1007.6630309789998,None,1007.6630309789998,None,m,1,0.6652339060001395,1009.1963060769995,None,1009.1963060769995,None,1009.1963060769995,None,1009.9130088969996,None,1009.9130088969996,None,1009.9130088969996,None,1009.9130088969996,None,,,,,,,,,,,,,,,,,,,,,,,,,,,,,,,,,,,,,,,,,,,,001,149,2020_Feb_20_1154,spring_faces,3.2.3,60.00331926360273,
condition files/Stage1_1.xlsx,,T3,B4,c,"['c', 'm']","['Clue', 'Monopoly']","[-0.15, 0.5]","[0.15, 0.5]",1,1,,,,,,,,,0,10,10,10,0,7,7,5,,,,,,,,,,,,,,,,,,,,,,,,,,,,,,,,,,,,,,,,,,,,,,,,,,,,,,,1011.8963977509993,None,1011.8963977509993,None,1011.8963977509993,None,c,1,0.5597616909999488,1013.4296637759999,None,1013.4296637759999,None,1013.4296637759999,None,1014.0630256570003,None,1014.0630256570003,None,1014.0630256570003,None,1014.0630256570003,None,,,,,,,,,,,,,,,,,,,,,,,,,,,,,,,,,,,,,,,,,,,,001,149,2020_Feb_20_1154,spring_faces,3.2.3,60.00331926360273,
condition files/Stage1_2.xlsx,,B1,T1,c,"['c', 'm']","['Clue', 'Monopoly']","[-0.15, 0.5]","[0.15, 0.5]",1,1,,,,,,,,,0,11,11,11,0,0,0,0,,,,,,,,,,,,,,,,,,,,,,,,,,,,,,,,,,,,,,,,,,,,,,,,,,,,,,,1016.0463499010002,None,1016.0463499010002,None,1016.0463499010002,None,c,1,0.9218083790001401,1017.5796662730008,None,1017.5796662730008,None,1017.5796662730008,None,1018.5796989009996,None,1018.5796989009996,None,1018.5796989009996,None,1018.5796989009996,None,,,,,,,,,,,,,,,,,,,,,,,,,,,,,,,,,,,,,,,,,,,,001,149,2020_Feb_20_1154,spring_faces,3.2.3,60.00331926360273,
condition files/Stage1_2.xlsx,,B2,T2,m,"['c', 'm']","['Clue', 'Monopoly']","[-0.15, 0.5]","[0.15, 0.5]",1,1,,,,,,,,,0,11,11,11,0,1,1,3,,,,,,,,,,,,,,,,,,,,,,,,,,,,,,,,,,,,,,,,,,,,,,,,,,,,,,,1020.5463933030005,None,1020.5463933030005,None,1020.5463933030005,None,m,1,0.7896271049994539,1022.0797195979994,None,1022.0797195979994,None,1022.0797195979994,None,1022.9463616400008,None,1022.9463616400008,None,1022.9463616400008,None,1022.9463616400008,None,,,,,,,,,,,,,,,,,,,,,,,,,,,,,,,,,,,,,,,,,,,,001,149,2020_Feb_20_1154,spring_faces,3.2.3,60.00331926360273,
condition files/Stage1_2.xlsx,,T4,B4,m,"['c', 'm']","['Clue', 'Monopoly']","[-0.15, 0.5]","[0.15, 0.5]",1,1,,,,,,,,,0,11,11,11,0,2,2,7,,,,,,,,,,,,,,,,,,,,,,,,,,,,,,,,,,,,,,,,,,,,,,,,,,,,,,,1024.9129981909991,None,1024.9129981909991,None,1024.9129981909991,None,m,1,0.6311785179987055,1026.4463550920009,None,1026.4463550920009,None,1026.4463550920009,None,1027.1296823730008,None,1027.1296823730008,None,1027.1296823730008,None,1027.1296823730008,None,,,,,,,,,,,,,,,,,,,,,,,,,,,,,,,,,,,,,,,,,,,,001,149,2020_Feb_20_1154,spring_faces,3.2.3,60.00331926360273,
condition files/Stage1_2.xlsx,,B3,T4,m,"['c', 'm']","['Clue', 'Monopoly']","[-0.15, 0.5]","[0.15, 0.5]",1,1,,,,,,,,,0,11,11,11,0,3,3,6,,,,,,,,,,,,,,,,,,,,,,,,,,,,,,,,,,,,,,,,,,,,,,,,,,,,,,,1029.112926711001,None,1029.112926711001,None,1029.112926711001,None,m,1,0.9111876759998268,1030.6462978269992,None,1030.6462978269992,None,1030.6462978269992,None,1031.6129772669992,None,1031.6129772669992,None,1031.6129772669992,None,1031.6129772669992,None,,,,,,,,,,,,,,,,,,,,,,,,,,,,,,,,,,,,,,,,,,,,001,149,2020_Feb_20_1154,spring_faces,3.2.3,60.00331926360273,
condition files/Stage1_2.xlsx,,T2,B1,c,"['c', 'm']","['Clue', 'Monopoly']","[-0.15, 0.5]","[0.15, 0.5]",1,1,,,,,,,,,0,11,11,11,0,4,4,1,,,,,,,,,,,,,,,,,,,,,,,,,,,,,,,,,,,,,,,,,,,,,,,,,,,,,,,1033.5963660609996,None,1033.5963660609996,None,1033.5963660609996,None,c,1,0.8277572710012464,1035.1297051420006,None,1035.1297051420006,None,1035.1297051420006,None,1036.0296884149993,None,1036.0296884149993,None,1036.0296884149993,None,1036.0296884149993,None,,,,,,,,,,,,,,,,,,,,,,,,,,,,,,,,,,,,,,,,,,,,001,149,2020_Feb_20_1154,spring_faces,3.2.3,60.00331926360273,
condition files/Stage1_2.xlsx,,T1,B2,m,"['c', 'm']","['Clue', 'Monopoly']","[-0.15, 0.5]","[0.15, 0.5]",1,1,,,,,,,,,0,11,11,11,0,5,5,2,,,,,,,,,,,,,,,,,,,,,,,,,,,,,,,,,,,,,,,,,,,,,,,,,,,,,,,1037.9963487999994,None,1037.9963487999994,None,1037.9963487999994,None,m,1,0.6998280320003687,1039.5296848899998,None,1039.5296848899998,None,1039.5296848899998,None,1040.2963208670008,None,1040.2963208670008,None,1040.2963208670008,None,1040.2963208670008,None,,,,,,,,,,,,,,,,,,,,,,,,,,,,,,,,,,,,,,,,,,,,001,149,2020_Feb_20_1154,spring_faces,3.2.3,60.00331926360273,
condition files/Stage1_2.xlsx,,B4,T3,c,"['c', 'm']","['Clue', 'Monopoly']","[-0.15, 0.5]","[0.15, 0.5]",1,1,,,,,,,,,0,11,11,11,0,6,6,5,,,,,,,,,,,,,,,,,,,,,,,,,,,,,,,,,,,,,,,,,,,,,,,,,,,,,,,1042.2630073479995,None,1042.2630073479995,None,1042.2630073479995,None,c,1,0.625072499999078,1043.7963849019998,None,1043.7963849019998,None,1043.7963849019998,None,1044.4963467819998,None,1044.4963467819998,None,1044.4963467819998,None,1044.4963467819998,None,,,,,,,,,,,,,,,,,,,,,,,,,,,,,,,,,,,,,,,,,,,,001,149,2020_Feb_20_1154,spring_faces,3.2.3,60.00331926360273,
condition files/Stage1_2.xlsx,,T3,B3,c,"['c', 'm']","['Clue', 'Monopoly']","[-0.15, 0.5]","[0.15, 0.5]",1,1,,,,,,,,,0,11,11,11,0,7,7,4,,,,,,,,,,,,,,,,,,,,,,,,,,,,,,,,,,,,,,,,,,,,,,,,,,,,,,,1046.4630516430007,None,1046.4630516430007,None,1046.4630516430007,None,c,1,1.033078664999266,1047.9963696739997,None,1047.9963696739997,None,1047.9963696739997,None,1049.0796023889998,None,1049.0796023889998,None,1049.0796023889998,None,1049.0796023889998,None,,,,,,,,,,,,,,,,,,,,,,,,,,,,,,,,,,,,,,,,,,,,001,149,2020_Feb_20_1154,spring_faces,3.2.3,60.00331926360273,
,,,,,,,,,,,,,,,,,,,,,,,,,,,,,,,,,,,,,,,,,,,,,,,,,,,,,,,,,,,,,,,,,,,,,,,,,,,,,,,,,,,,,,,,,,,,,,,,,,,,,,,,,,,,,,,,1051.062953089,None,space,3.3350124660009897,1056.0463813290007,None,,,,,,,,,,,,,,,,,,,,,,,,,,,,,,001,149,2020_Feb_20_1154,spring_faces,3.2.3,60.00331926360273,
condition files/Stage2_1.xlsx,,B6,T6,r,"['s', 'r']","['Stratego', 'Risk']","[-0.15, 0.5]","[0.15, 0.5]",1,1,,,,,,,,,,,,,,,,,0,0,0,0,0,0,0,1,,,,,,,,,,,,,,,,,,,,,,,,,,,,,,,,,,,,,,,,,,,,,,,1059.4463087639997,None,1059.4463087639997,None,1059.4463087639997,None,s,0,2.1498501959995338,1061.2796821749998,None,1061.2796821749998,None,1061.2796821749998,None,1063.496299126,None,1063.496299126,None,1063.496299126,None,1063.496299126,None,,,,,,,,,,,,,,,1056.0463813290007,None,,,,,,,,,,,,,,,,,,,,,,,,,,,,001,149,2020_Feb_20_1154,spring_faces,3.2.3,60.00331926360273,
condition files/Stage2_1.xlsx,,T3,B3,s,"['s', 'r']","['Stratego', 'Risk']","[-0.15, 0.5]","[0.15, 0.5]",1,1,,,,,,,,,,,,,,,,,0,0,0,0,0,1,1,4,,,,,,,,,,,,,,,,,,,,,,,,,,,,,,,,,,,,,,,,,,,,,,,1065.4629416700009,None,1065.4629416700009,None,1065.4629416700009,None,s,1,2.3850103269996907,1066.9963563439997,None,1066.9963563439997,None,1066.9963563439997,None,1069.4630390349994,None,1069.4630390349994,None,1069.4630390349994,None,1069.4630390349994,None,,,,,,,,,,,,,,,,,,,,,,,,,,,,,,,,,,,,,,,,,,,,001,149,2020_Feb_20_1154,spring_faces,3.2.3,60.00331926360273,
condition files/Stage2_1.xlsx,,B4,T4,r,"['s', 'r']","['Stratego', 'Risk']","[-0.15, 0.5]","[0.15, 0.5]",1,1,,,,,,,,,,,,,,,,,0,0,0,0,0,2,2,5,,,,,,,,,,,,,,,,,,,,,,,,,,,,,,,,,,,,,,,,,,,,,,,1071.42977359,None,1071.42977359,None,1071.42977359,None,r,1,0.9144951320013206,1072.9630417560002,None,1072.9630417560002,None,1072.9630417560002,None,1073.9463577339993,None,1073.9463577339993,None,1073.9463577339993,None,1073.9463577339993,None,,,,,,,,,,,,,,,,,,,,,,,,,,,,,,,,,,,,,,,,,,,,001,149,2020_Feb_20_1154,spring_faces,3.2.3,60.00331926360273,
condition files/Stage2_1.xlsx,,T1,B1,s,"['s', 'r']","['Stratego', 'Risk']","[-0.15, 0.5]","[0.15, 0.5]",1,1,,,,,,,,,,,,,,,,,0,0,0,0,0,3,3,2,,,,,,,,,,,,,,,,,,,,,,,,,,,,,,,,,,,,,,,,,,,,,,,1075.9129856670006,None,1075.9129856670006,None,1075.9129856670006,None,s,1,1.390499795001233,1077.4629805139994,None,1077.4629805139994,None,1077.4629805139994,None,1078.9296803199995,None,1078.9296803199995,None,1078.9296803199995,None,1078.9296803199995,None,,,,,,,,,,,,,,,,,,,,,,,,,,,,,,,,,,,,,,,,,,,,001,149,2020_Feb_20_1154,spring_faces,3.2.3,60.00331926360273,
condition files/Stage2_1.xlsx,,T5,B5,s,"['s', 'r']","['Stratego', 'Risk']","[-0.15, 0.5]","[0.15, 0.5]",1,1,,,,,,,,,,,,,,,,,0,0,0,0,0,4,4,0,,,,,,,,,,,,,,,,,,,,,,,,,,,,,,,,,,,,,,,,,,,,,,,1080.8963810200003,None,1080.8963810200003,None,1080.8963810200003,None,r,0,2.229794759001379,1082.479703518,None,1082.479703518,None,1082.479703518,None,1084.7630315869992,None,1084.7630315869992,None,1084.7630315869992,None,1084.7630315869992,None,,,,,,,,,,,,,,,,,,,,,,,,,,,,,,,,,,,,,,,,,,,,001,149,2020_Feb_20_1154,spring_faces,3.2.3,60.00331926360273,
condition files/Stage2_1.xlsx,,B2,T2,r,"['s', 'r']","['Stratego', 'Risk']","[-0.15, 0.5]","[0.15, 0.5]",1,1,,,,,,,,,,,,,,,,,0,0,0,0,0,5,5,3,,,,,,,,,,,,,,,,,,,,,,,,,,,,,,,,,,,,,,,,,,,,,,,1086.7463856089998,None,1086.7463856089998,None,1086.7463856089998,None,r,1,1.3417783089989825,1088.279683285,None,1088.279683285,None,1088.279683285,None,1089.6963521969992,None,1089.6963521969992,None,1089.6963521969992,None,1089.6963521969992,None,,,,,,,,,,,,,,,,,,,,,,,,,,,,,,,,,,,,,,,,,,,,001,149,2020_Feb_20_1154,spring_faces,3.2.3,60.00331926360273,
condition files/Stage2_2.xlsx,,T6,B6,r,"['s', 'r']","['Stratego', 'Risk']","[-0.15, 0.5]","[0.15, 0.5]",1,1,,,,,,,,,,,,,,,,,0,1,1,1,0,0,0,1,,,,,,,,,,,,,,,,,,,,,,,,,,,,,,,,,,,,,,,,,,,,,,,1091.6797360130004,None,1091.6797360130004,None,1091.6797360130004,None,r,1,2.5523534399999335,1093.2130812739997,None,1093.2130812739997,None,1093.2130812739997,None,1095.8463130979999,None,1095.8463130979999,None,1095.8463130979999,None,1095.8463130979999,None,,,,,,,,,,,,,,,,,,,,,,,,,,,,,,,,,,,,,,,,,,,,001,149,2020_Feb_20_1154,spring_faces,3.2.3,60.00331926360273,
condition files/Stage2_2.xlsx,,B3,T3,s,"['s', 'r']","['Stratego', 'Risk']","[-0.15, 0.5]","[0.15, 0.5]",1,1,,,,,,,,,,,,,,,,,0,1,1,1,0,1,1,4,,,,,,,,,,,,,,,,,,,,,,,,,,,,,,,,,,,,,,,,,,,,,,,1097.8130812470008,None,1097.8130812470008,None,1097.8130812470008,None,s,1,1.203056865999315,1099.3463752480002,None,1099.3463752480002,None,1099.3463752480002,None,1100.6297600300004,None,1100.6297600300004,None,1100.6297600300004,None,1100.6297600300004,None,,,,,,,,,,,,,,,,,,,,,,,,,,,,,,,,,,,,,,,,,,,,001,149,2020_Feb_20_1154,spring_faces,3.2.3,60.00331926360273,
condition files/Stage2_2.xlsx,,T2,B2,r,"['s', 'r']","['Stratego', 'Risk']","[-0.15, 0.5]","[0.15, 0.5]",1,1,,,,,,,,,,,,,,,,,0,1,1,1,0,2,2,3,,,,,,,,,,,,,,,,,,,,,,,,,,,,,,,,,,,,,,,,,,,,,,,1102.5963779859994,None,1102.5963779859994,None,1102.5963779859994,None,r,1,0.9637875179996627,1104.1297258260001,None,1104.1297258260001,None,1104.1297258260001,None,1105.1630129469995,None,1105.1630129469995,None,1105.1630129469995,None,1105.1630129469995,None,,,,,,,,,,,,,,,,,,,,,,,,,,,,,,,,,,,,,,,,,,,,001,149,2020_Feb_20_1154,spring_faces,3.2.3,60.00331926360273,
condition files/Stage2_2.xlsx,,B5,T5,s,"['s', 'r']","['Stratego', 'Risk']","[-0.15, 0.5]","[0.15, 0.5]",1,1,,,,,,,,,,,,,,,,,0,1,1,1,0,3,3,0,,,,,,,,,,,,,,,,,,,,,,,,,,,,,,,,,,,,,,,,,,,,,,,1107.1297186089996,None,1107.1297186089996,None,1107.1297186089996,None,s,1,3.070506657999431,1108.6629663570002,None,1108.6629663570002,None,1108.6629663570002,None,1111.8130203609999,None,1111.8130203609999,None,1111.8130203609999,None,1111.8130203609999,None,,,,,,,,,,,,,,,,,,,,,,,,,,,,,,,,,,,,,,,,,,,,001,149,2020_Feb_20_1154,spring_faces,3.2.3,60.00331926360273,
condition files/Stage2_2.xlsx,,B1,T1,s,"['s', 'r']","['Stratego', 'Risk']","[-0.15, 0.5]","[0.15, 0.5]",1,1,,,,,,,,,,,,,,,,,0,1,1,1,0,4,4,2,,,,,,,,,,,,,,,,,,,,,,,,,,,,,,,,,,,,,,,,,,,,,,,1113.7796788849992,None,1113.7796788849992,None,1113.7796788849992,None,s,1,1.4925160260008852,1115.313015834001,None,1115.313015834001,None,1115.313015834001,None,1116.862915455,None,1116.862915455,None,1116.862915455,None,1116.862915455,None,,,,,,,,,,,,,,,,,,,,,,,,,,,,,,,,,,,,,,,,,,,,001,149,2020_Feb_20_1154,spring_faces,3.2.3,60.00331926360273,
condition files/Stage2_2.xlsx,,T4,B4,r,"['s', 'r']","['Stratego', 'Risk']","[-0.15, 0.5]","[0.15, 0.5]",1,1,,,,,,,,,,,,,,,,,0,1,1,1,0,5,5,5,,,,,,,,,,,,,,,,,,,,,,,,,,,,,,,,,,,,,,,,,,,,,,,1118.8462917830002,None,1118.8462917830002,None,1118.8462917830002,None,r,1,4.441763774000719,1120.3797000350005,None,1120.3797000350005,None,1120.3797000350005,None,1124.8963481169994,None,1124.8963481169994,None,1124.8963481169994,None,1124.8963481169994,None,,,,,,,,,,,,,,,,,,,,,,,,,,,,,,,,,,,,,,,,,,,,001,149,2020_Feb_20_1154,spring_faces,3.2.3,60.00331926360273,
condition files/Stage2_1.xlsx,,T1,B1,s,"['s', 'r']","['Stratego', 'Risk']","[-0.15, 0.5]","[0.15, 0.5]",1,1,,,,,,,,,,,,,,,,,0,2,2,2,0,0,0,2,,,,,,,,,,,,,,,,,,,,,,,,,,,,,,,,,,,,,,,,,,,,,,,1126.8796806530008,None,1126.8796806530008,None,1126.8796806530008,None,s,1,3.5604789150002034,1128.4130097550005,None,1128.4130097550005,None,1128.4130097550005,None,1132.0463655679996,None,1132.0463655679996,None,1132.0463655679996,None,1132.0463655679996,None,,,,,,,,,,,,,,,,,,,,,,,,,,,,,,,,,,,,,,,,,,,,001,149,2020_Feb_20_1154,spring_faces,3.2.3,60.00331926360273,
condition files/Stage2_1.xlsx,,B2,T2,r,"['s', 'r']","['Stratego', 'Risk']","[-0.15, 0.5]","[0.15, 0.5]",1,1,,,,,,,,,,,,,,,,,0,2,2,2,0,1,1,3,,,,,,,,,,,,,,,,,,,,,,,,,,,,,,,,,,,,,,,,,,,,,,,1134.0130664490007,None,1134.0130664490007,None,1134.0130664490007,None,r,1,1.899170521999622,1135.5463524890001,None,1135.5463524890001,None,1135.5463524890001,None,1137.5130204319994,None,1137.5130204319994,None,1137.5130204319994,None,1137.5130204319994,None,,,,,,,,,,,,,,,,,,,,,,,,,,,,,,,,,,,,,,,,,,,,001,149,2020_Feb_20_1154,spring_faces,3.2.3,60.00331926360273,
condition files/Stage2_1.xlsx,,B6,T6,r,"['s', 'r']","['Stratego', 'Risk']","[-0.15, 0.5]","[0.15, 0.5]",1,1,,,,,,,,,,,,,,,,,0,2,2,2,0,2,2,1,,,,,,,,,,,,,,,,,,,,,,,,,,,,,,,,,,,,,,,,,,,,,,,1139.4796001800005,None,1139.4796001800005,None,1139.4796001800005,None,r,1,2.3843525020001834,1141.0130174290007,None,1141.0130174290007,None,1141.0130174290007,None,1143.4629673319996,None,1143.4629673319996,None,1143.4629673319996,None,1143.4629673319996,None,,,,,,,,,,,,,,,,,,,,,,,,,,,,,,,,,,,,,,,,,,,,001,149,2020_Feb_20_1154,spring_faces,3.2.3,60.00331926360273,
condition files/Stage2_1.xlsx,,B4,T4,r,"['s', 'r']","['Stratego', 'Risk']","[-0.15, 0.5]","[0.15, 0.5]",1,1,,,,,,,,,,,,,,,,,0,2,2,2,0,3,3,5,,,,,,,,,,,,,,,,,,,,,,,,,,,,,,,,,,,,,,,,,,,,,,,1145.4462892419997,None,1145.4462892419997,None,1145.4462892419997,None,r,1,1.3779463109985954,1146.9795508780007,None,1146.9795508780007,None,1146.9795508780007,None,1148.412571793,None,1148.412571793,None,1148.412571793,None,1148.412571793,None,,,,,,,,,,,,,,,,,,,,,,,,,,,,,,,,,,,,,,,,,,,,001,149,2020_Feb_20_1154,spring_faces,3.2.3,60.00331926360273,
condition files/Stage2_1.xlsx,,T5,B5,s,"['s', 'r']","['Stratego', 'Risk']","[-0.15, 0.5]","[0.15, 0.5]",1,1,,,,,,,,,,,,,,,,,0,2,2,2,0,4,4,0,,,,,,,,,,,,,,,,,,,,,,,,,,,,,,,,,,,,,,,,,,,,,,,1150.3963795250002,None,1150.3963795250002,None,1150.3963795250002,None,s,1,1.131829102001575,1151.9297125020003,None,1151.9297125020003,None,1151.9297125020003,None,1153.1296801000008,None,1153.1296801000008,None,1153.1296801000008,None,1153.1296801000008,None,,,,,,,,,,,,,,,,,,,,,,,,,,,,,,,,,,,,,,,,,,,,001,149,2020_Feb_20_1154,spring_faces,3.2.3,60.00331926360273,
condition files/Stage2_1.xlsx,,T3,B3,s,"['s', 'r']","['Stratego', 'Risk']","[-0.15, 0.5]","[0.15, 0.5]",1,1,,,,,,,,,,,,,,,,,0,2,2,2,0,5,5,4,,,,,,,,,,,,,,,,,,,,,,,,,,,,,,,,,,,,,,,,,,,,,,,1155.0963269799995,None,1155.0963269799995,None,1155.0963269799995,None,s,1,1.167668865999076,1156.629666977,None,1156.629666977,None,1156.629666977,None,1157.8629420519992,None,1157.8629420519992,None,1157.8629420519992,None,1157.8629420519992,None,,,,,,,,,,,,,,,,,,,,,,,,,,,,,,,,,,,,,,,,,,,,001,149,2020_Feb_20_1154,spring_faces,3.2.3,60.00331926360273,
condition files/Stage2_2.xlsx,,T2,B2,r,"['s', 'r']","['Stratego', 'Risk']","[-0.15, 0.5]","[0.15, 0.5]",1,1,,,,,,,,,,,,,,,,,0,3,3,3,0,0,0,3,,,,,,,,,,,,,,,,,,,,,,,,,,,,,,,,,,,,,,,,,,,,,,,1159.8630529429993,None,1159.8630529429993,None,1159.8630529429993,None,r,1,0.8811963579992153,1161.3963777379995,None,1161.3963777379995,None,1161.3963777379995,None,1162.3463605069992,None,1162.3463605069992,None,1162.3463605069992,None,1162.3463605069992,None,,,,,,,,,,,,,,,,,,,,,,,,,,,,,,,,,,,,,,,,,,,,001,149,2020_Feb_20_1154,spring_faces,3.2.3,60.00331926360273,
condition files/Stage2_2.xlsx,,B5,T5,s,"['s', 'r']","['Stratego', 'Risk']","[-0.15, 0.5]","[0.15, 0.5]",1,1,,,,,,,,,,,,,,,,,0,3,3,3,0,1,1,0,,,,,,,,,,,,,,,,,,,,,,,,,,,,,,,,,,,,,,,,,,,,,,,1164.3129552030005,None,1164.3129552030005,None,1164.3129552030005,None,s,1,0.6551439680006297,1165.8463212509996,None,1165.8463212509996,None,1165.8463212509996,None,1166.57968481,None,1166.57968481,None,1166.57968481,None,1166.57968481,None,,,,,,,,,,,,,,,,,,,,,,,,,,,,,,,,,,,,,,,,,,,,001,149,2020_Feb_20_1154,spring_faces,3.2.3,60.00331926360273,
condition files/Stage2_2.xlsx,,T4,B4,r,"['s', 'r']","['Stratego', 'Risk']","[-0.15, 0.5]","[0.15, 0.5]",1,1,,,,,,,,,,,,,,,,,0,3,3,3,0,2,2,5,,,,,,,,,,,,,,,,,,,,,,,,,,,,,,,,,,,,,,,,,,,,,,,1168.5463808629993,None,1168.5463808629993,None,1168.5463808629993,None,r,1,1.0298154980009713,1170.079683844,None,1170.079683844,None,1170.079683844,None,1171.1797160730002,None,1171.1797160730002,None,1171.1797160730002,None,1171.1797160730002,None,,,,,,,,,,,,,,,,,,,,,,,,,,,,,,,,,,,,,,,,,,,,001,149,2020_Feb_20_1154,spring_faces,3.2.3,60.00331926360273,
condition files/Stage2_2.xlsx,,T6,B6,r,"['s', 'r']","['Stratego', 'Risk']","[-0.15, 0.5]","[0.15, 0.5]",1,1,,,,,,,,,,,,,,,,,0,3,3,3,0,3,3,1,,,,,,,,,,,,,,,,,,,,,,,,,,,,,,,,,,,,,,,,,,,,,,,1173.1463905370001,None,1173.1463905370001,None,1173.1463905370001,None,r,1,1.501731309999741,1174.679656933,None,1174.679656933,None,1174.679656933,None,1176.2629873360002,None,1176.2629873360002,None,1176.2629873360002,None,1176.2629873360002,None,,,,,,,,,,,,,,,,,,,,,,,,,,,,,,,,,,,,,,,,,,,,001,149,2020_Feb_20_1154,spring_faces,3.2.3,60.00331926360273,
condition files/Stage2_2.xlsx,,B1,T1,s,"['s', 'r']","['Stratego', 'Risk']","[-0.15, 0.5]","[0.15, 0.5]",1,1,,,,,,,,,,,,,,,,,0,3,3,3,0,4,4,2,,,,,,,,,,,,,,,,,,,,,,,,,,,,,,,,,,,,,,,,,,,,,,,1178.2296027520006,None,1178.2296027520006,None,1178.2296027520006,None,s,1,0.6903815650002798,1179.7630572639991,None,1179.7630572639991,None,1179.7630572639991,None,1180.5296998579997,None,1180.5296998579997,None,1180.5296998579997,None,1180.5296998579997,None,,,,,,,,,,,,,,,,,,,,,,,,,,,,,,,,,,,,,,,,,,,,001,149,2020_Feb_20_1154,spring_faces,3.2.3,60.00331926360273,
condition files/Stage2_2.xlsx,,B3,T3,s,"['s', 'r']","['Stratego', 'Risk']","[-0.15, 0.5]","[0.15, 0.5]",1,1,,,,,,,,,,,,,,,,,0,3,3,3,0,5,5,4,,,,,,,,,,,,,,,,,,,,,,,,,,,,,,,,,,,,,,,,,,,,,,,1182.4963839810007,None,1182.4963839810007,None,1182.4963839810007,None,s,1,0.7437752090008871,1184.0296923250007,None,1184.0296923250007,None,1184.0296923250007,None,1184.829697395,None,1184.829697395,None,1184.829697395,None,1184.829697395,None,,,,,,,,,,,,,,,,,,,,,,,,,,,,,,,,,,,,,,,,,,,,001,149,2020_Feb_20_1154,spring_faces,3.2.3,60.00331926360273,
condition files/Stage2_1.xlsx,,T5,B5,s,"['s', 'r']","['Stratego', 'Risk']","[-0.15, 0.5]","[0.15, 0.5]",1,1,,,,,,,,,,,,,,,,,0,4,4,4,0,0,0,0,,,,,,,,,,,,,,,,,,,,,,,,,,,,,,,,,,,,,,,,,,,,,,,1186.8297037419998,None,1186.8297037419998,None,1186.8297037419998,None,s,1,0.6985168309984147,1188.3630403000006,None,1188.3630403000006,None,1188.3630403000006,None,1189.1296872940002,None,1189.1296872940002,None,1189.1296872940002,None,1189.1296872940002,None,,,,,,,,,,,,,,,,,,,,,,,,,,,,,,,,,,,,,,,,,,,,001,149,2020_Feb_20_1154,spring_faces,3.2.3,60.00331926360273,
condition files/Stage2_1.xlsx,,B2,T2,r,"['s', 'r']","['Stratego', 'Risk']","[-0.15, 0.5]","[0.15, 0.5]",1,1,,,,,,,,,,,,,,,,,0,4,4,4,0,1,1,3,,,,,,,,,,,,,,,,,,,,,,,,,,,,,,,,,,,,,,,,,,,,,,,1191.0962753919994,None,1191.0962753919994,None,1191.0962753919994,None,r,1,1.263821561999066,1192.6296610919999,None,1192.6296610919999,None,1192.6296610919999,None,1193.9630380069993,None,1193.9630380069993,None,1193.9630380069993,None,1193.9630380069993,None,,,,,,,,,,,,,,,,,,,,,,,,,,,,,,,,,,,,,,,,,,,,001,149,2020_Feb_20_1154,spring_faces,3.2.3,60.00331926360273,
condition files/Stage2_1.xlsx,,T3,B3,s,"['s', 'r']","['Stratego', 'Risk']","[-0.15, 0.5]","[0.15, 0.5]",1,1,,,,,,,,,,,,,,,,,0,4,4,4,0,2,2,4,,,,,,,,,,,,,,,,,,,,,,,,,,,,,,,,,,,,,,,,,,,,,,,1195.9297407649992,None,1195.9297407649992,None,1195.9297407649992,None,s,1,1.0704791930002102,1197.4629901009994,None,1197.4629901009994,None,1197.4629901009994,None,1198.6130570540008,None,1198.6130570540008,None,1198.6130570540008,None,1198.6130570540008,None,,,,,,,,,,,,,,,,,,,,,,,,,,,,,,,,,,,,,,,,,,,,001,149,2020_Feb_20_1154,spring_faces,3.2.3,60.00331926360273,
condition files/Stage2_1.xlsx,,T1,B1,s,"['s', 'r']","['Stratego', 'Risk']","[-0.15, 0.5]","[0.15, 0.5]",1,1,,,,,,,,,,,,,,,,,0,4,4,4,0,3,3,2,,,,,,,,,,,,,,,,,,,,,,,,,,,,,,,,,,,,,,,,,,,,,,,1200.5797094480004,None,1200.5797094480004,None,1200.5797094480004,None,s,1,1.8604269719999138,1202.1130371920008,None,1202.1130371920008,None,1202.1130371920008,None,1204.0295663190009,None,1204.0295663190009,None,1204.0295663190009,None,1204.0295663190009,None,,,,,,,,,,,,,,,,,,,,,,,,,,,,,,,,,,,,,,,,,,,,001,149,2020_Feb_20_1154,spring_faces,3.2.3,60.00331926360273,
