condsFile,subStage,cue1,cue2,correct,responseKeys,responseNames,cue1Position,cue2Position,cue1Opacity,cue2Opacity,stageLoop0.thisRepN,stageLoop0.thisTrialN,stageLoop0.thisN,stageLoop0.thisIndex,blockLoop0.thisRepN,blockLoop0.thisTrialN,blockLoop0.thisN,blockLoop0.thisIndex,stage1Loop.thisRepN,stage1Loop.thisTrialN,stage1Loop.thisN,stage1Loop.thisIndex,blockLoop1.thisRepN,blockLoop1.thisTrialN,blockLoop1.thisN,blockLoop1.thisIndex,stage2Loop.thisRepN,stage2Loop.thisTrialN,stage2Loop.thisN,stage2Loop.thisIndex,blockLoop2.thisRepN,blockLoop2.thisTrialN,blockLoop2.thisN,blockLoop2.thisIndex,testLoop.thisRepN,testLoop.thisTrialN,testLoop.thisN,testLoop.thisIndex,blockLoopTest.thisRepN,blockLoopTest.thisTrialN,blockLoopTest.thisN,blockLoopTest.thisIndex,cuePics,id_instr_text.started,id_instr_text.stopped,space_to_continue_2.started,space_to_continue_2.stopped,end_instructions_resp_3.keys,end_instructions_resp_3.rt,end_instructions_resp_3.started,end_instructions_resp_3.stopped,id_input_instr.started,id_input_instr.stopped,id_input_rect.started,id_input_rect.stopped,id_input_resp.keys,id_input_resp.rt,id_input_resp.started,id_input_resp.stopped,sonaID,id_input_text.started,id_input_text.stopped,final_text.started,final_text.stopped,instructions.started,instructions.stopped,end_instructions_resp.keys,end_instructions_resp.rt,end_instructions_resp.started,end_instructions_resp.stopped,space_to_continue.started,space_to_continue.stopped,instructions_stage0.started,instructions_stage0.stopped,end_instructions_resp_stage0.keys,end_instructions_resp_stage0.rt,end_instructions_resp_stage0.started,end_instructions_resp_stage0.stopped,space_to_continue_stage0.started,space_to_continue_stage0.stopped,text.started,text.stopped,resp_text1.started,resp_text1.stopped,resp_text2.started,resp_text2.stopped,trial_resp.keys,trial_resp.corr,trial_resp.rt,trial_resp.started,trial_resp.stopped,cue1Image.started,cue1Image.stopped,cue2Image.started,cue2Image.stopped,cue1Image_fb.started,cue1Image_fb.stopped,cue2Image_fb.started,cue2Image_fb.stopped,fb_text_answer.started,fb_text_answer.stopped,feedback_image.started,feedback_image.stopped,instructions_stage1.started,instructions_stage1.stopped,end_instructions_resp_stage1.keys,end_instructions_resp_stage1.rt,end_instructions_resp_stage1.started,end_instructions_resp_stage1.stopped,space_to_continue_stage1.started,space_to_continue_stage1.stopped,instructions_2.started,instructions_2.stopped,end_instructions_resp_2.keys,end_instructions_resp_2.rt,end_instructions_resp_2.started,end_instructions_resp_2.stopped,press_space_to_continue_stage2.started,press_space_to_continue_stage2.stopped,instructions_testStage1.started,instructions_testStage1.stopped,end_instructions_resp_test1.keys,end_instructions_resp_test1.rt,end_instructions_resp_test1.started,end_instructions_resp_test1.stopped,press_space_to_continue_test1.started,press_space_to_continue_test1.stopped,cue1Image_testChoice.started,cue1Image_testChoice.stopped,cue2Image_testChoice.started,cue2Image_testChoice.stopped,test_resp.keys,test_resp.corr,test_resp.rt,test_resp.started,test_resp.stopped,cue1Image_testConf.started,cue1Image_testConf.stopped,cue2Image_testConf.started,cue2Image_testConf.stopped,conf_reminder.started,conf_reminder.stopped,conf_rating.response,conf_rating.rt,conf_rating.started,conf_rating.stopped,session,participant,date,expName,psychopyVersion,frameRate,
,,,,,,,,,,,,,,,,,,,,,,,,,,,,,,,,,,,,,,,,,,,"{'none': 'pictures/20M_AN_C.png', 'alpha': 'pictures/SHINEd_melon.png', 'beta': 'pictures/SHINEd_apple.png', 'theta': 'pictures/SHINEd_pepper.png', 'phi': 'pictures/SHINEd_pear.png', 'T1': 'pictures/25M_AN_C.png', 'T2': 'pictures/32M_AN_C.png', 'T3': 'pictures/33M_AN_C.png', 'T4': 'pictures/26M_AN_C.png', 'T5': 'pictures/37M_AN_C.png', 'T6': 'pictures/36M_AN_C.png', 'B1': 'pictures/34M_NE_C.png', 'B2': 'pictures/31M_NE_C.png', 'B3': 'pictures/22M_NE_C.png', 'B4': 'pictures/38M_NE_C.png', 'B5': 'pictures/20M_NE_C.png', 'B6': 'pictures/23M_NE_C.png'}",21.52792210899861,None,26.528478737000114,None,space,257.65304149499934,26.528478737000114,None,,,,,,,,,,,,,,,,,,,,,,,,,,,,,,,,,,,,,,,,,,,,,,,,,,,,,,,,,,,,,,,,,,,,,,,,,,,,,,,,,,,,,,,,,,,,,,,,001,150,2020_Feb_20_1154,spring_faces,3.1.5,60.04125795113356,
,,,,,,,,,,,,,,,,,,,,,,,,,,,,,,,,,,,,,,,,,,,,,,,,,,,,284.57840610899984,None,284.57840610899984,None,"['h', 'j', 'backspace', 'backspace', '0', '1', '2', '6', 'k', 'r', 'c', 'h', 'e', '0', '1', '2', '6', 'k', 'r', 'c', 'h', 'e', 'y', 'backspace', '0', '1', '2', '6', 'k', 'r', 'c', 'h', 'y']","[35.52311802099939, 35.53905033499905, 36.579077970998696, 36.86707659899912, 38.755110557998705, 39.02715342099873, 44.85107966999931, 45.39509134099899, 51.87517232999926, 52.163102777998574, 57.05916817300022, 57.779110546000084, 58.803101542998775, 71.81107674099985, 72.17911660899881, 73.66707911699996, 74.09910668399971, 78.73911653100004, 79.23505609600033, 81.9231312489992, 82.16310946699923, 83.2670633029993, 86.46716178600036, 89.84315421899919, 91.84315232900008, 92.09909894199882, 92.80310620799901, 93.07517039199956, 94.0350662639994, 94.32310859599966, 97.36310767899886, 97.45919110899922, 97.5711119560001]",284.57840610899984,None,,,,,,,,,,,,,,,,,,,,,,,,,,,,,,,,,,,,,,,,,,,,,,,,,,,,,,,,,,,,,,,,,,,,,,,,,,,,,,,,,,,,,,,,001,150,2020_Feb_20_1154,spring_faces,3.1.5,60.04125795113356,
,,,,,,,,,,,,,,,,,,,,,,,,,,,,,,,,,,,,,,,,,,,,,,,,,,,,,,,,,,,,0126krchy,284.57840610899984,None,284.57840610899984,None,387.22809651100033,None,space,2.273203946999274,392.2284038079997,None,,,,,,,,,,,,,,,,,,,,,,,,,,,,,,,,,,,,,,,,,,,,,,,,,,,,,,,,,,,,,,,,,,,,,,,,,,,,,001,150,2020_Feb_20_1154,spring_faces,3.1.5,60.04125795113356,
,,,,,,,,,,,,,,,,,,,,,,,,,,,,,,,,,,,,,,,,,,,,,,,,,,,,,,,,,,,,,,,,,,,,,,,392.2284038079997,None,394.5454580629994,None,space,3.852446561000761,399.545090181,None,,,,,,,,,,,,,,,,,,,,,,,,,,,,,,,,,,,,,,,,,,,,,,,,,,,,,,,,,,,,,,,,,,,,,001,150,2020_Feb_20_1154,spring_faces,3.1.5,60.04125795113356,
condition files/Stage0a.xlsx,0a,alpha,none,h,"['h', 'g']","['Chess', 'Go']","[0, 0.5]","[0, 0]",1,0,0,0,0,0,0,0,0,0,,,,,,,,,,,,,,,,,,,,,,,,,,,,,,,,,,,,,,,,,,,,,,,,,,,,,,,,,,,,,399.545090181,None,403.46205541699965,None,403.46205541699965,None,403.46205541699965,None,h,1,4.993077658999027,405.02846540099927,None,405.02846540099927,None,405.02846540099927,None,410.0952355930003,None,410.0952355930003,None,410.0952355930003,None,410.0952355930003,None,,,,,,,,,,,,,,,,,,,,,,,,,,,,,,,,,,,,,,,,,,,,001,150,2020_Feb_20_1154,spring_faces,3.1.5,60.04125795113356,
condition files/Stage0a.xlsx,0a,beta,none,g,"['h', 'g']","['Chess', 'Go']","[0, 0.5]","[0, 0]",1,0,0,0,0,0,0,1,1,1,,,,,,,,,,,,,,,,,,,,,,,,,,,,,,,,,,,,,,,,,,,,,,,,,,,,,,,,,,,,,,,412.0446579929994,None,412.0446579929994,None,412.0446579929994,None,g,1,2.0901619719988958,413.57943513200007,None,413.57943513200007,None,413.57943513200007,None,415.7282036589986,None,415.7282036589986,None,415.7282036589986,None,415.7282036589986,None,,,,,,,,,,,,,,,,,,,,,,,,,,,,,,,,,,,,,,,,,,,,001,150,2020_Feb_20_1154,spring_faces,3.1.5,60.04125795113356,
condition files/Stage0a.xlsx,0a,beta,none,g,"['h', 'g']","['Chess', 'Go']","[0, 0.5]","[0, 0]",1,0,0,1,1,1,0,0,0,1,,,,,,,,,,,,,,,,,,,,,,,,,,,,,,,,,,,,,,,,,,,,,,,,,,,,,,,,,,,,,,,417.7122154709996,None,417.7122154709996,None,417.7122154709996,None,g,1,0.9532361479996325,419.2282911879993,None,419.2282911879993,None,419.2282911879993,None,420.24533245099883,None,420.24533245099883,None,420.24533245099883,None,420.24533245099883,None,,,,,,,,,,,,,,,,,,,,,,,,,,,,,,,,,,,,,,,,,,,,001,150,2020_Feb_20_1154,spring_faces,3.1.5,60.04125795113356,
condition files/Stage0a.xlsx,0a,alpha,none,h,"['h', 'g']","['Chess', 'Go']","[0, 0.5]","[0, 0]",1,0,0,1,1,1,0,1,1,0,,,,,,,,,,,,,,,,,,,,,,,,,,,,,,,,,,,,,,,,,,,,,,,,,,,,,,,,,,,,,,,422.2116301879996,None,422.2116301879996,None,422.2116301879996,None,h,1,0.5646588720010186,423.7448534539999,None,423.7448534539999,None,423.7448534539999,None,424.36338895799963,None,424.36338895799963,None,424.36338895799963,None,424.36338895799963,None,,,,,,,,,,,,,,,,,,,,,,,,,,,,,,,,,,,,,,,,,,,,001,150,2020_Feb_20_1154,spring_faces,3.1.5,60.04125795113356,
condition files/Stage0a.xlsx,0a,alpha,none,h,"['h', 'g']","['Chess', 'Go']","[0, 0.5]","[0, 0]",1,0,0,2,2,2,0,0,0,0,,,,,,,,,,,,,,,,,,,,,,,,,,,,,,,,,,,,,,,,,,,,,,,,,,,,,,,,,,,,,,,426.34535931499886,None,426.34535931499886,None,426.34535931499886,None,h,1,0.766860216999703,427.8786360569993,None,427.8786360569993,None,427.8786360569993,None,428.7119576570003,None,428.7119576570003,None,428.7119576570003,None,428.7119576570003,None,,,,,,,,,,,,,,,,,,,,,,,,,,,,,,,,,,,,,,,,,,,,001,150,2020_Feb_20_1154,spring_faces,3.1.5,60.04125795113356,
condition files/Stage0a.xlsx,0a,beta,none,g,"['h', 'g']","['Chess', 'Go']","[0, 0.5]","[0, 0]",1,0,0,2,2,2,0,1,1,1,,,,,,,,,,,,,,,,,,,,,,,,,,,,,,,,,,,,,,,,,,,,,,,,,,,,,,,,,,,,,,,430.67866334099926,None,430.67866334099926,None,430.67866334099926,None,g,1,0.7696042239986127,432.2119215799994,None,432.2119215799994,None,432.2119215799994,None,433.0455628159998,None,433.0455628159998,None,433.0455628159998,None,433.0455628159998,None,,,,,,,,,,,,,,,,,,,,,,,,,,,,,,,,,,,,,,,,,,,,001,150,2020_Feb_20_1154,spring_faces,3.1.5,60.04125795113356,
condition files/Stage0a.xlsx,0a,beta,none,g,"['h', 'g']","['Chess', 'Go']","[0, 0.5]","[0, 0]",1,0,0,3,3,3,0,0,0,1,,,,,,,,,,,,,,,,,,,,,,,,,,,,,,,,,,,,,,,,,,,,,,,,,,,,,,,,,,,,,,,435.02833984099925,None,435.02833984099925,None,435.02833984099925,None,g,1,0.8837008020000212,436.56179623999924,None,436.56179623999924,None,436.56179623999924,None,437.51186336299907,None,437.51186336299907,None,437.51186336299907,None,437.51186336299907,None,,,,,,,,,,,,,,,,,,,,,,,,,,,,,,,,,,,,,,,,,,,,001,150,2020_Feb_20_1154,spring_faces,3.1.5,60.04125795113356,
condition files/Stage0a.xlsx,0a,alpha,none,h,"['h', 'g']","['Chess', 'Go']","[0, 0.5]","[0, 0]",1,0,0,3,3,3,0,1,1,0,,,,,,,,,,,,,,,,,,,,,,,,,,,,,,,,,,,,,,,,,,,,,,,,,,,,,,,,,,,,,,,439.4783922839997,None,439.4783922839997,None,439.4783922839997,None,h,1,0.8974666579997574,441.01208746299926,None,441.01208746299926,None,441.01208746299926,None,441.9613867079988,None,441.9613867079988,None,441.9613867079988,None,441.9613867079988,None,,,,,,,,,,,,,,,,,,,,,,,,,,,,,,,,,,,,,,,,,,,,001,150,2020_Feb_20_1154,spring_faces,3.1.5,60.04125795113356,
condition files/Stage0a.xlsx,0a,alpha,none,h,"['h', 'g']","['Chess', 'Go']","[0, 0.5]","[0, 0]",1,0,0,4,4,4,0,0,0,0,,,,,,,,,,,,,,,,,,,,,,,,,,,,,,,,,,,,,,,,,,,,,,,,,,,,,,,,,,,,,,,443.94534464699973,None,443.94534464699973,None,443.94534464699973,None,h,1,0.7832102610009315,445.47830736499964,None,445.47830736499964,None,445.47830736499964,None,446.3122641230002,None,446.3122641230002,None,446.3122641230002,None,446.3122641230002,None,,,,,,,,,,,,,,,,,,,,,,,,,,,,,,,,,,,,,,,,,,,,001,150,2020_Feb_20_1154,spring_faces,3.1.5,60.04125795113356,
condition files/Stage0a.xlsx,0a,beta,none,g,"['h', 'g']","['Chess', 'Go']","[0, 0.5]","[0, 0]",1,0,0,4,4,4,0,1,1,1,,,,,,,,,,,,,,,,,,,,,,,,,,,,,,,,,,,,,,,,,,,,,,,,,,,,,,,,,,,,,,,448.2787611099993,None,448.2787611099993,None,448.2787611099993,None,g,1,0.6572470420014724,449.81233033699937,None,449.81233033699937,None,449.81233033699937,None,450.52793650199965,None,450.52793650199965,None,450.52793650199965,None,450.52793650199965,None,,,,,,,,,,,,,,,,,,,,,,,,,,,,,,,,,,,,,,,,,,,,001,150,2020_Feb_20_1154,spring_faces,3.1.5,60.04125795113356,
condition files/Stage0a.xlsx,0a,beta,none,g,"['h', 'g']","['Chess', 'Go']","[0, 0.5]","[0, 0]",1,0,0,5,5,5,0,0,0,1,,,,,,,,,,,,,,,,,,,,,,,,,,,,,,,,,,,,,,,,,,,,,,,,,,,,,,,,,,,,,,,452.511817265,None,452.511817265,None,452.511817265,None,g,1,0.6804132719989866,454.04507395200017,None,454.04507395200017,None,454.04507395200017,None,454.7789316059989,None,454.7789316059989,None,454.7789316059989,None,454.7789316059989,None,,,,,,,,,,,,,,,,,,,,,,,,,,,,,,,,,,,,,,,,,,,,001,150,2020_Feb_20_1154,spring_faces,3.1.5,60.04125795113356,
condition files/Stage0a.xlsx,0a,alpha,none,h,"['h', 'g']","['Chess', 'Go']","[0, 0.5]","[0, 0]",1,0,0,5,5,5,0,1,1,0,,,,,,,,,,,,,,,,,,,,,,,,,,,,,,,,,,,,,,,,,,,,,,,,,,,,,,,,,,,,,,,456.74424033499963,None,456.74424033499963,None,456.74424033499963,None,h,1,0.7193537399998604,458.27816230999997,None,458.27816230999997,None,458.27816230999997,None,459.0621302359996,None,459.0621302359996,None,459.0621302359996,None,459.0621302359996,None,,,,,,,,,,,,,,,,,,,,,,,,,,,,,,,,,,,,,,,,,,,,001,150,2020_Feb_20_1154,spring_faces,3.1.5,60.04125795113356,
condition files/Stage0b_1.xlsx,0b,none,beta,g,"['h', 'g']","['Chess', 'Go']","[-0.15, 0.5]","[0.15, 0.5]",0,1,0,6,6,6,0,0,0,1,,,,,,,,,,,,,,,,,,,,,,,,,,,,,,,,,,,,,,,,,,,,,,,,,,,,,,,,,,,,,,,461.044751206,None,461.044751206,None,461.044751206,None,g,1,0.8339666070005478,462.59552984699985,None,462.59552984699985,None,462.59552984699985,None,463.50084468099885,None,463.50084468099885,None,463.50084468099885,None,463.50084468099885,None,,,,,,,,,,,,,,,,,,,,,,,,,,,,,,,,,,,,,,,,,,,,001,150,2020_Feb_20_1154,spring_faces,3.1.5,60.04125795113356,
condition files/Stage0b_1.xlsx,0b,alpha,none,h,"['h', 'g']","['Chess', 'Go']","[-0.15, 0.5]","[0.15, 0.5]",1,0,0,6,6,6,0,1,1,0,,,,,,,,,,,,,,,,,,,,,,,,,,,,,,,,,,,,,,,,,,,,,,,,,,,,,,,,,,,,,,,465.46082053699865,None,465.46082053699865,None,465.46082053699865,None,h,1,0.6734389970006305,467.0121330660004,None,467.0121330660004,None,467.0121330660004,None,467.7463587379989,None,467.7463587379989,None,467.7463587379989,None,467.7463587379989,None,,,,,,,,,,,,,,,,,,,,,,,,,,,,,,,,,,,,,,,,,,,,001,150,2020_Feb_20_1154,spring_faces,3.1.5,60.04125795113356,
condition files/Stage0b_2.xlsx,0b,none,alpha,h,"['h', 'g']","['Chess', 'Go']","[-0.15, 0.5]","[0.15, 0.5]",0,1,0,7,7,7,0,0,0,0,,,,,,,,,,,,,,,,,,,,,,,,,,,,,,,,,,,,,,,,,,,,,,,,,,,,,,,,,,,,,,,469.72819217100005,None,469.72819217100005,None,469.72819217100005,None,h,1,0.8356801480003924,471.265856815,None,471.265856815,None,471.265856815,None,472.1648093219992,None,472.1648093219992,None,472.1648093219992,None,472.1648093219992,None,,,,,,,,,,,,,,,,,,,,,,,,,,,,,,,,,,,,,,,,,,,,001,150,2020_Feb_20_1154,spring_faces,3.1.5,60.04125795113356,
condition files/Stage0b_2.xlsx,0b,beta,none,g,"['h', 'g']","['Chess', 'Go']","[-0.15, 0.5]","[0.15, 0.5]",1,0,0,7,7,7,0,1,1,1,,,,,,,,,,,,,,,,,,,,,,,,,,,,,,,,,,,,,,,,,,,,,,,,,,,,,,,,,,,,,,,474.1283158360002,None,474.1283158360002,None,474.1283158360002,None,g,1,0.7271526439999434,475.66237215900037,None,475.66237215900037,None,475.66237215900037,None,476.44706898599907,None,476.44706898599907,None,476.44706898599907,None,476.44706898599907,None,,,,,,,,,,,,,,,,,,,,,,,,,,,,,,,,,,,,,,,,,,,,001,150,2020_Feb_20_1154,spring_faces,3.1.5,60.04125795113356,
condition files/Stage0b_1.xlsx,0b,none,beta,g,"['h', 'g']","['Chess', 'Go']","[-0.15, 0.5]","[0.15, 0.5]",0,1,0,8,8,8,0,0,0,1,,,,,,,,,,,,,,,,,,,,,,,,,,,,,,,,,,,,,,,,,,,,,,,,,,,,,,,,,,,,,,,478.4279300830003,None,478.4279300830003,None,478.4279300830003,None,g,1,1.3398624020010175,479.96161998999924,None,479.96161998999924,None,479.96161998999924,None,481.3620417059992,None,481.3620417059992,None,481.3620417059992,None,481.3620417059992,None,,,,,,,,,,,,,,,,,,,,,,,,,,,,,,,,,,,,,,,,,,,,001,150,2020_Feb_20_1154,spring_faces,3.1.5,60.04125795113356,
condition files/Stage0b_1.xlsx,0b,alpha,none,h,"['h', 'g']","['Chess', 'Go']","[-0.15, 0.5]","[0.15, 0.5]",1,0,0,8,8,8,0,1,1,0,,,,,,,,,,,,,,,,,,,,,,,,,,,,,,,,,,,,,,,,,,,,,,,,,,,,,,,,,,,,,,,483.32808073999877,None,483.32808073999877,None,483.32808073999877,None,h,1,0.6596285390005505,484.86585632599963,None,484.86585632599963,None,484.86585632599963,None,485.5840584939997,None,485.5840584939997,None,485.5840584939997,None,485.5840584939997,None,,,,,,,,,,,,,,,,,,,,,,,,,,,,,,,,,,,,,,,,,,,,001,150,2020_Feb_20_1154,spring_faces,3.1.5,60.04125795113356,
condition files/Stage0b_2.xlsx,0b,none,alpha,h,"['h', 'g']","['Chess', 'Go']","[-0.15, 0.5]","[0.15, 0.5]",0,1,0,9,9,9,0,0,0,0,,,,,,,,,,,,,,,,,,,,,,,,,,,,,,,,,,,,,,,,,,,,,,,,,,,,,,,,,,,,,,,487.5621490979993,None,487.5621490979993,None,487.5621490979993,None,h,1,1.0360062889994879,489.09754175499984,None,489.09754175499984,None,489.09754175499984,None,490.194703055,None,490.194703055,None,490.194703055,None,490.194703055,None,,,,,,,,,,,,,,,,,,,,,,,,,,,,,,,,,,,,,,,,,,,,001,150,2020_Feb_20_1154,spring_faces,3.1.5,60.04125795113356,
condition files/Stage0b_2.xlsx,0b,beta,none,g,"['h', 'g']","['Chess', 'Go']","[-0.15, 0.5]","[0.15, 0.5]",1,0,0,9,9,9,0,1,1,1,,,,,,,,,,,,,,,,,,,,,,,,,,,,,,,,,,,,,,,,,,,,,,,,,,,,,,,,,,,,,,,492.1618809979991,None,492.1618809979991,None,492.1618809979991,None,g,1,0.579623318000813,493.6979015879988,None,493.6979015879988,None,493.6979015879988,None,494.3317310069997,None,494.3317310069997,None,494.3317310069997,None,494.3317310069997,None,,,,,,,,,,,,,,,,,,,,,,,,,,,,,,,,,,,,,,,,,,,,001,150,2020_Feb_20_1154,spring_faces,3.1.5,60.04125795113356,
condition files/Stage0b_1.xlsx,0b,none,beta,g,"['h', 'g']","['Chess', 'Go']","[-0.15, 0.5]","[0.15, 0.5]",0,1,0,10,10,10,0,0,0,1,,,,,,,,,,,,,,,,,,,,,,,,,,,,,,,,,,,,,,,,,,,,,,,,,,,,,,,,,,,,,,,496.3121604689986,None,496.3121604689986,None,496.3121604689986,None,g,1,1.0699760930001503,497.84757048699976,None,497.84757048699976,None,497.84757048699976,None,498.9815217919986,None,498.9815217919986,None,498.9815217919986,None,498.9815217919986,None,,,,,,,,,,,,,,,,,,,,,,,,,,,,,,,,,,,,,,,,,,,,001,150,2020_Feb_20_1154,spring_faces,3.1.5,60.04125795113356,
condition files/Stage0b_1.xlsx,0b,alpha,none,h,"['h', 'g']","['Chess', 'Go']","[-0.15, 0.5]","[0.15, 0.5]",1,0,0,10,10,10,0,1,1,0,,,,,,,,,,,,,,,,,,,,,,,,,,,,,,,,,,,,,,,,,,,,,,,,,,,,,,,,,,,,,,,500.9450548189998,None,500.9450548189998,None,500.9450548189998,None,h,1,0.7064274080003088,502.4830946989987,None,502.4830946989987,None,502.4830946989987,None,503.2470130339989,None,503.2470130339989,None,503.2470130339989,None,503.2470130339989,None,,,,,,,,,,,,,,,,,,,,,,,,,,,,,,,,,,,,,,,,,,,,001,150,2020_Feb_20_1154,spring_faces,3.1.5,60.04125795113356,
condition files/Stage0b_2.xlsx,0b,none,alpha,h,"['h', 'g']","['Chess', 'Go']","[-0.15, 0.5]","[0.15, 0.5]",0,1,0,11,11,11,0,0,0,0,,,,,,,,,,,,,,,,,,,,,,,,,,,,,,,,,,,,,,,,,,,,,,,,,,,,,,,,,,,,,,,505.2280108449995,None,505.2280108449995,None,505.2280108449995,None,h,1,0.6343697400006931,506.7631610839999,None,506.7631610839999,None,506.7631610839999,None,507.4616088069997,None,507.4616088069997,None,507.4616088069997,None,507.4616088069997,None,,,,,,,,,,,,,,,,,,,,,,,,,,,,,,,,,,,,,,,,,,,,001,150,2020_Feb_20_1154,spring_faces,3.1.5,60.04125795113356,
condition files/Stage0b_2.xlsx,0b,beta,none,g,"['h', 'g']","['Chess', 'Go']","[-0.15, 0.5]","[0.15, 0.5]",1,0,0,11,11,11,0,1,1,1,,,,,,,,,,,,,,,,,,,,,,,,,,,,,,,,,,,,,,,,,,,,,,,,,,,,,,,,,,,,,,,509.42827534000025,None,509.42827534000025,None,509.42827534000025,None,g,1,0.7686646090005524,510.9648798269991,None,510.9648798269991,None,510.9648798269991,None,511.79904165599874,None,511.79904165599874,None,511.79904165599874,None,511.79904165599874,None,,,,,,,,,,,,,,,,,,,,,,,,,,,,,,,,,,,,,,,,,,,,001,150,2020_Feb_20_1154,spring_faces,3.1.5,60.04125795113356,
condition files/Stage0c_1.xlsx,0c,phi,beta,g,"['h', 'g']","['Chess', 'Go']","[-0.15, 0.5]","[0.15, 0.5]",1,1,0,12,12,12,0,0,0,3,,,,,,,,,,,,,,,,,,,,,,,,,,,,,,,,,,,,,,,,,,,,,,,,,,,,,,,,,,,,,,,513.7787074179996,None,513.7787074179996,None,513.7787074179996,None,h,0,2.901105004000783,515.3124170020001,None,515.3124170020001,None,515.3124170020001,None,518.2785736839996,None,518.2785736839996,None,518.2785736839996,None,518.2785736839996,None,,,,,,,,,,,,,,,,,,,,,,,,,,,,,,,,,,,,,,,,,,,,001,150,2020_Feb_20_1154,spring_faces,3.1.5,60.04125795113356,
condition files/Stage0c_1.xlsx,0c,beta,theta,g,"['h', 'g']","['Chess', 'Go']","[-0.15, 0.5]","[0.15, 0.5]",1,1,0,12,12,12,0,1,1,2,,,,,,,,,,,,,,,,,,,,,,,,,,,,,,,,,,,,,,,,,,,,,,,,,,,,,,,,,,,,,,,520.2451178880001,None,520.2451178880001,None,520.2451178880001,None,h,0,1.170995259000847,521.7785248319997,None,521.7785248319997,None,521.7785248319997,None,523.0116204599999,None,523.0116204599999,None,523.0116204599999,None,523.0116204599999,None,,,,,,,,,,,,,,,,,,,,,,,,,,,,,,,,,,,,,,,,,,,,001,150,2020_Feb_20_1154,spring_faces,3.1.5,60.04125795113356,
condition files/Stage0c_1.xlsx,0c,alpha,phi,h,"['h', 'g']","['Chess', 'Go']","[-0.15, 0.5]","[0.15, 0.5]",1,1,0,12,12,12,0,2,2,1,,,,,,,,,,,,,,,,,,,,,,,,,,,,,,,,,,,,,,,,,,,,,,,,,,,,,,,,,,,,,,,524.9785773069998,None,524.9785773069998,None,524.9785773069998,None,h,1,1.061528713998996,526.5119841529995,None,526.5119841529995,None,526.5119841529995,None,527.6275202069992,None,527.6275202069992,None,527.6275202069992,None,527.6275202069992,None,,,,,,,,,,,,,,,,,,,,,,,,,,,,,,,,,,,,,,,,,,,,001,150,2020_Feb_20_1154,spring_faces,3.1.5,60.04125795113356,
condition files/Stage0c_1.xlsx,0c,theta,alpha,h,"['h', 'g']","['Chess', 'Go']","[-0.15, 0.5]","[0.15, 0.5]",1,1,0,12,12,12,0,3,3,0,,,,,,,,,,,,,,,,,,,,,,,,,,,,,,,,,,,,,,,,,,,,,,,,,,,,,,,,,,,,,,,529.5947803649997,None,529.5947803649997,None,529.5947803649997,None,h,1,1.8207762029996957,531.128754755,None,531.128754755,None,531.128754755,None,533.012041426,None,533.012041426,None,533.012041426,None,533.012041426,None,,,,,,,,,,,,,,,,,,,,,,,,,,,,,,,,,,,,,,,,,,,,001,150,2020_Feb_20_1154,spring_faces,3.1.5,60.04125795113356,
condition files/Stage0c_2.xlsx,0c,theta,beta,g,"['h', 'g']","['Chess', 'Go']","[-0.15, 0.5]","[0.15, 0.5]",1,1,0,13,13,13,0,0,0,2,,,,,,,,,,,,,,,,,,,,,,,,,,,,,,,,,,,,,,,,,,,,,,,,,,,,,,,,,,,,,,,534.995669898999,None,534.995669898999,None,534.995669898999,None,g,1,0.564992016999895,536.5285302769989,None,536.5285302769989,None,536.5285302769989,None,537.1450241740004,None,537.1450241740004,None,537.1450241740004,None,537.1450241740004,None,,,,,,,,,,,,,,,,,,,,,,,,,,,,,,,,,,,,,,,,,,,,001,150,2020_Feb_20_1154,spring_faces,3.1.5,60.04125795113356,
condition files/Stage0c_2.xlsx,0c,beta,phi,g,"['h', 'g']","['Chess', 'Go']","[-0.15, 0.5]","[0.15, 0.5]",1,1,0,13,13,13,0,1,1,3,,,,,,,,,,,,,,,,,,,,,,,,,,,,,,,,,,,,,,,,,,,,,,,,,,,,,,,,,,,,,,,539.1111363299988,None,539.1111363299988,None,539.1111363299988,None,g,1,1.2161813239999901,540.6453320009987,None,540.6453320009987,None,540.6453320009987,None,541.8969106929999,None,541.8969106929999,None,541.8969106929999,None,541.8969106929999,None,,,,,,,,,,,,,,,,,,,,,,,,,,,,,,,,,,,,,,,,,,,,001,150,2020_Feb_20_1154,spring_faces,3.1.5,60.04125795113356,
condition files/Stage0c_2.xlsx,0c,alpha,theta,h,"['h', 'g']","['Chess', 'Go']","[-0.15, 0.5]","[0.15, 0.5]",1,1,0,13,13,13,0,2,2,0,,,,,,,,,,,,,,,,,,,,,,,,,,,,,,,,,,,,,,,,,,,,,,,,,,,,,,,,,,,,,,,543.877607548,None,543.877607548,None,543.877607548,None,h,1,0.9620411739997508,545.4114702329989,None,545.4114702329989,None,545.4114702329989,None,546.4285582920002,None,546.4285582920002,None,546.4285582920002,None,546.4285582920002,None,,,,,,,,,,,,,,,,,,,,,,,,,,,,,,,,,,,,,,,,,,,,001,150,2020_Feb_20_1154,spring_faces,3.1.5,60.04125795113356,
condition files/Stage0c_2.xlsx,0c,phi,alpha,h,"['h', 'g']","['Chess', 'Go']","[-0.15, 0.5]","[0.15, 0.5]",1,1,0,13,13,13,0,3,3,1,,,,,,,,,,,,,,,,,,,,,,,,,,,,,,,,,,,,,,,,,,,,,,,,,,,,,,,,,,,,,,,548.3953917349991,None,548.3953917349991,None,548.3953917349991,None,h,1,1.9011039869983506,549.9283703389992,None,549.9283703389992,None,549.9283703389992,None,551.8947789679987,None,551.8947789679987,None,551.8947789679987,None,551.8947789679987,None,,,,,,,,,,,,,,,,,,,,,,,,,,,,,,,,,,,,,,,,,,,,001,150,2020_Feb_20_1154,spring_faces,3.1.5,60.04125795113356,
condition files/Stage0c_1.xlsx,0c,theta,alpha,h,"['h', 'g']","['Chess', 'Go']","[-0.15, 0.5]","[0.15, 0.5]",1,1,0,14,14,14,0,0,0,0,,,,,,,,,,,,,,,,,,,,,,,,,,,,,,,,,,,,,,,,,,,,,,,,,,,,,,,,,,,,,,,553.8786742789998,None,553.8786742789998,None,553.8786742789998,None,h,1,1.1540110549995006,555.4115466659987,None,555.4115466659987,None,555.4115466659987,None,556.613113723999,None,556.613113723999,None,556.613113723999,None,556.613113723999,None,,,,,,,,,,,,,,,,,,,,,,,,,,,,,,,,,,,,,,,,,,,,001,150,2020_Feb_20_1154,spring_faces,3.1.5,60.04125795113356,
condition files/Stage0c_1.xlsx,0c,beta,theta,g,"['h', 'g']","['Chess', 'Go']","[-0.15, 0.5]","[0.15, 0.5]",1,1,0,14,14,14,0,1,1,2,,,,,,,,,,,,,,,,,,,,,,,,,,,,,,,,,,,,,,,,,,,,,,,,,,,,,,,,,,,,,,,558.5949680529993,None,558.5949680529993,None,558.5949680529993,None,g,1,1.0929983139994874,560.1284709409993,None,560.1284709409993,None,560.1284709409993,None,561.2786538559994,None,561.2786538559994,None,561.2786538559994,None,561.2786538559994,None,,,,,,,,,,,,,,,,,,,,,,,,,,,,,,,,,,,,,,,,,,,,001,150,2020_Feb_20_1154,spring_faces,3.1.5,60.04125795113356,
condition files/Stage0c_1.xlsx,0c,phi,beta,g,"['h', 'g']","['Chess', 'Go']","[-0.15, 0.5]","[0.15, 0.5]",1,1,0,14,14,14,0,2,2,3,,,,,,,,,,,,,,,,,,,,,,,,,,,,,,,,,,,,,,,,,,,,,,,,,,,,,,,,,,,,,,,563.244502689,None,563.244502689,None,563.244502689,None,g,1,1.5795137420009269,564.7779785259991,None,564.7779785259991,None,564.7779785259991,None,566.396784524999,None,566.396784524999,None,566.396784524999,None,566.396784524999,None,,,,,,,,,,,,,,,,,,,,,,,,,,,,,,,,,,,,,,,,,,,,001,150,2020_Feb_20_1154,spring_faces,3.1.5,60.04125795113356,
condition files/Stage0c_1.xlsx,0c,alpha,phi,h,"['h', 'g']","['Chess', 'Go']","[-0.15, 0.5]","[0.15, 0.5]",1,1,0,14,14,14,0,3,3,1,,,,,,,,,,,,,,,,,,,,,,,,,,,,,,,,,,,,,,,,,,,,,,,,,,,,,,,,,,,,,,,568.3783230009994,None,568.3783230009994,None,568.3783230009994,None,h,1,0.8299155400000018,569.9115766220002,None,569.9115766220002,None,569.9115766220002,None,570.7949501069997,None,570.7949501069997,None,570.7949501069997,None,570.7949501069997,None,,,,,,,,,,,,,,,,,,,,,,,,,,,,,,,,,,,,,,,,,,,,001,150,2020_Feb_20_1154,spring_faces,3.1.5,60.04125795113356,
condition files/Stage0c_2.xlsx,0c,phi,alpha,h,"['h', 'g']","['Chess', 'Go']","[-0.15, 0.5]","[0.15, 0.5]",1,1,0,15,15,15,0,0,0,1,,,,,,,,,,,,,,,,,,,,,,,,,,,,,,,,,,,,,,,,,,,,,,,,,,,,,,,,,,,,,,,572.778107185999,None,572.778107185999,None,572.778107185999,None,h,1,1.0702010080003674,574.3113247099991,None,574.3113247099991,None,574.3113247099991,None,575.4295829379989,None,575.4295829379989,None,575.4295829379989,None,575.4295829379989,None,,,,,,,,,,,,,,,,,,,,,,,,,,,,,,,,,,,,,,,,,,,,001,150,2020_Feb_20_1154,spring_faces,3.1.5,60.04125795113356,
condition files/Stage0c_2.xlsx,0c,beta,phi,g,"['h', 'g']","['Chess', 'Go']","[-0.15, 0.5]","[0.15, 0.5]",1,1,0,15,15,15,0,1,1,3,,,,,,,,,,,,,,,,,,,,,,,,,,,,,,,,,,,,,,,,,,,,,,,,,,,,,,,,,,,,,,,577.4111475729987,None,577.4111475729987,None,577.4111475729987,None,g,1,2.1967253560014797,578.9448067510002,None,578.9448067510002,None,578.9448067510002,None,581.1951343159999,None,581.1951343159999,None,581.1951343159999,None,581.1951343159999,None,,,,,,,,,,,,,,,,,,,,,,,,,,,,,,,,,,,,,,,,,,,,001,150,2020_Feb_20_1154,spring_faces,3.1.5,60.04125795113356,
condition files/Stage0c_2.xlsx,0c,alpha,theta,h,"['h', 'g']","['Chess', 'Go']","[-0.15, 0.5]","[0.15, 0.5]",1,1,0,15,15,15,0,2,2,0,,,,,,,,,,,,,,,,,,,,,,,,,,,,,,,,,,,,,,,,,,,,,,,,,,,,,,,,,,,,,,,583.1616648549989,None,583.1616648549989,None,583.1616648549989,None,h,1,0.9905629990007583,584.6949233260002,None,584.6949233260002,None,584.6949233260002,None,585.7447877839986,None,585.7447877839986,None,585.7447877839986,None,585.7447877839986,None,,,,,,,,,,,,,,,,,,,,,,,,,,,,,,,,,,,,,,,,,,,,001,150,2020_Feb_20_1154,spring_faces,3.1.5,60.04125795113356,
condition files/Stage0c_2.xlsx,0c,theta,beta,g,"['h', 'g']","['Chess', 'Go']","[-0.15, 0.5]","[0.15, 0.5]",1,1,0,15,15,15,0,3,3,2,,,,,,,,,,,,,,,,,,,,,,,,,,,,,,,,,,,,,,,,,,,,,,,,,,,,,,,,,,,,,,,587.7116330529989,None,587.7116330529989,None,587.7116330529989,None,g,1,1.000605520001045,589.2448791959996,None,589.2448791959996,None,589.2448791959996,None,590.311678696,None,590.311678696,None,590.311678696,None,590.311678696,None,,,,,,,,,,,,,,,,,,,,,,,,,,,,,,,,,,,,,,,,,,,,001,150,2020_Feb_20_1154,spring_faces,3.1.5,60.04125795113356,
condition files/Stage0c_1.xlsx,0c,phi,beta,g,"['h', 'g']","['Chess', 'Go']","[-0.15, 0.5]","[0.15, 0.5]",1,1,0,16,16,16,0,0,0,3,,,,,,,,,,,,,,,,,,,,,,,,,,,,,,,,,,,,,,,,,,,,,,,,,,,,,,,,,,,,,,,592.2945386069987,None,592.2945386069987,None,592.2945386069987,None,g,1,0.7853756770000473,593.8281295739998,None,593.8281295739998,None,593.8281295739998,None,594.6635022539995,None,594.6635022539995,None,594.6635022539995,None,594.6635022539995,None,,,,,,,,,,,,,,,,,,,,,,,,,,,,,,,,,,,,,,,,,,,,001,150,2020_Feb_20_1154,spring_faces,3.1.5,60.04125795113356,
condition files/Stage0c_1.xlsx,0c,theta,alpha,h,"['h', 'g']","['Chess', 'Go']","[-0.15, 0.5]","[0.15, 0.5]",1,1,0,16,16,16,0,1,1,0,,,,,,,,,,,,,,,,,,,,,,,,,,,,,,,,,,,,,,,,,,,,,,,,,,,,,,,,,,,,,,,596.6446670819987,None,596.6446670819987,None,596.6446670819987,None,g,0,1.4917895880007563,598.17769443,None,598.17769443,None,598.17769443,None,599.7284377300002,None,599.7284377300002,None,599.7284377300002,None,599.7284377300002,None,,,,,,,,,,,,,,,,,,,,,,,,,,,,,,,,,,,,,,,,,,,,001,150,2020_Feb_20_1154,spring_faces,3.1.5,60.04125795113356,
condition files/Stage0c_1.xlsx,0c,beta,theta,g,"['h', 'g']","['Chess', 'Go']","[-0.15, 0.5]","[0.15, 0.5]",1,1,0,16,16,16,0,2,2,2,,,,,,,,,,,,,,,,,,,,,,,,,,,,,,,,,,,,,,,,,,,,,,,,,,,,,,,,,,,,,,,601.6943398650001,None,601.6943398650001,None,601.6943398650001,None,g,1,1.2891858990005858,603.2283408669991,None,603.2283408669991,None,603.2283408669991,None,604.5785661720001,None,604.5785661720001,None,604.5785661720001,None,604.5785661720001,None,,,,,,,,,,,,,,,,,,,,,,,,,,,,,,,,,,,,,,,,,,,,001,150,2020_Feb_20_1154,spring_faces,3.1.5,60.04125795113356,
condition files/Stage0c_1.xlsx,0c,alpha,phi,h,"['h', 'g']","['Chess', 'Go']","[-0.15, 0.5]","[0.15, 0.5]",1,1,0,16,16,16,0,3,3,1,,,,,,,,,,,,,,,,,,,,,,,,,,,,,,,,,,,,,,,,,,,,,,,,,,,,,,,,,,,,,,,606.5447636579993,None,606.5447636579993,None,606.5447636579993,None,h,1,1.1752896300004068,608.0781974059992,None,608.0781974059992,None,608.0781974059992,None,609.3114901489989,None,609.3114901489989,None,609.3114901489989,None,609.3114901489989,None,,,,,,,,,,,,,,,,,,,,,,,,,,,,,,,,,,,,,,,,,,,,001,150,2020_Feb_20_1154,spring_faces,3.1.5,60.04125795113356,
condition files/Stage0c_2.xlsx,0c,phi,alpha,h,"['h', 'g']","['Chess', 'Go']","[-0.15, 0.5]","[0.15, 0.5]",1,1,0,17,17,17,0,0,0,1,,,,,,,,,,,,,,,,,,,,,,,,,,,,,,,,,,,,,,,,,,,,,,,,,,,,,,,,,,,,,,,611.2944894359989,None,611.2944894359989,None,611.2944894359989,None,h,1,1.1932825730000332,612.8282400989992,None,612.8282400989992,None,612.8282400989992,None,614.0627020760003,None,614.0627020760003,None,614.0627020760003,None,614.0627020760003,None,,,,,,,,,,,,,,,,,,,,,,,,,,,,,,,,,,,,,,,,,,,,001,150,2020_Feb_20_1154,spring_faces,3.1.5,60.04125795113356,
condition files/Stage0c_2.xlsx,0c,theta,beta,g,"['h', 'g']","['Chess', 'Go']","[-0.15, 0.5]","[0.15, 0.5]",1,1,0,17,17,17,0,1,1,2,,,,,,,,,,,,,,,,,,,,,,,,,,,,,,,,,,,,,,,,,,,,,,,,,,,,,,,,,,,,,,,616.0450523969994,None,616.0450523969994,None,616.0450523969994,None,g,1,1.914983520999158,617.578538927999,None,617.578538927999,None,617.578538927999,None,619.5452015219998,None,619.5452015219998,None,619.5452015219998,None,619.5452015219998,None,,,,,,,,,,,,,,,,,,,,,,,,,,,,,,,,,,,,,,,,,,,,001,150,2020_Feb_20_1154,spring_faces,3.1.5,60.04125795113356,
condition files/Stage0c_2.xlsx,0c,alpha,theta,h,"['h', 'g']","['Chess', 'Go']","[-0.15, 0.5]","[0.15, 0.5]",1,1,0,17,17,17,0,2,2,0,,,,,,,,,,,,,,,,,,,,,,,,,,,,,,,,,,,,,,,,,,,,,,,,,,,,,,,,,,,,,,,621.5118300419999,None,621.5118300419999,None,621.5118300419999,None,h,1,0.9121743030009384,623.0453160519992,None,623.0453160519992,None,623.0453160519992,None,624.0119150869996,None,624.0119150869996,None,624.0119150869996,None,624.0119150869996,None,,,,,,,,,,,,,,,,,,,,,,,,,,,,,,,,,,,,,,,,,,,,001,150,2020_Feb_20_1154,spring_faces,3.1.5,60.04125795113356,
condition files/Stage0c_2.xlsx,0c,beta,phi,g,"['h', 'g']","['Chess', 'Go']","[-0.15, 0.5]","[0.15, 0.5]",1,1,0,17,17,17,0,3,3,3,,,,,,,,,,,,,,,,,,,,,,,,,,,,,,,,,,,,,,,,,,,,,,,,,,,,,,,,,,,,,,,625.978001432999,None,625.978001432999,None,625.978001432999,None,g,1,0.9256146520001494,627.5119720659986,None,627.5119720659986,None,627.5119720659986,None,628.4955060969987,None,628.4955060969987,None,628.4955060969987,None,628.4955060969987,None,,,,,,,,,,,,,,,,,,,,,,,,,,,,,,,,,,,,,,,,,,,,001,150,2020_Feb_20_1154,spring_faces,3.1.5,60.04125795113356,
,,,,,,,,,,,,,,,,,,,,,,,,,,,,,,,,,,,,,,,,,,,,,,,,,,,,,,,,,,,,,,,,,,,,,,,,,,,,,,,,,,,,,,,,,,,,,,,,,,,,,,,,630.4782948909997,None,space,4.447158032999141,635.4783682790003,None,,,,,,,,,,,,,,,,,,,,,,,,,,,,,,,,,,,,,,001,150,2020_Feb_20_1154,spring_faces,3.1.5,60.04125795113356,
condition files/Stage1_1.xlsx,,B2,T1,m,"['c', 'm']","['Clue', 'Monopoly']","[-0.15, 0.5]","[0.15, 0.5]",1,1,,,,,,,,,0,0,0,0,0,0,0,2,,,,,,,,,,,,,,,,,,,,,,,,,,,,,,,,,,,,,,,,,,,,,,,,,,,,,,,639.9783419300002,None,639.9783419300002,None,639.9783419300002,None,c,0,2.2544057380000595,641.5111279239991,None,641.5111279239991,None,641.5111279239991,None,643.844452632,None,643.844452632,None,643.844452632,None,643.844452632,None,,,,,,,635.4783682790003,None,,,,,,,,,,,,,,,,,,,,,,,,,,,,,,,,,,,,001,150,2020_Feb_20_1154,spring_faces,3.1.5,60.04125795113356,
condition files/Stage1_1.xlsx,,T1,B1,c,"['c', 'm']","['Clue', 'Monopoly']","[-0.15, 0.5]","[0.15, 0.5]",1,1,,,,,,,,,0,0,0,0,0,1,1,0,,,,,,,,,,,,,,,,,,,,,,,,,,,,,,,,,,,,,,,,,,,,,,,,,,,,,,,645.7950434089998,None,645.7950434089998,None,645.7950434089998,None,m,0,1.765194108000287,647.328330761,None,647.328330761,None,647.328330761,None,649.1620926689993,None,649.1620926689993,None,649.1620926689993,None,649.1620926689993,None,,,,,,,,,,,,,,,,,,,,,,,,,,,,,,,,,,,,,,,,,,,,001,150,2020_Feb_20_1154,spring_faces,3.1.5,60.04125795113356,
condition files/Stage1_1.xlsx,,B1,T2,c,"['c', 'm']","['Clue', 'Monopoly']","[-0.15, 0.5]","[0.15, 0.5]",1,1,,,,,,,,,0,0,0,0,0,2,2,1,,,,,,,,,,,,,,,,,,,,,,,,,,,,,,,,,,,,,,,,,,,,,,,,,,,,,,,651.1110357919988,None,651.1110357919988,None,651.1110357919988,None,m,0,1.2476294759999291,652.6619323220002,None,652.6619323220002,None,652.6619323220002,None,653.9619837259997,None,653.9619837259997,None,653.9619837259997,None,653.9619837259997,None,,,,,,,,,,,,,,,,,,,,,,,,,,,,,,,,,,,,,,,,,,,,001,150,2020_Feb_20_1154,spring_faces,3.1.5,60.04125795113356,
condition files/Stage1_1.xlsx,,B3,T3,c,"['c', 'm']","['Clue', 'Monopoly']","[-0.15, 0.5]","[0.15, 0.5]",1,1,,,,,,,,,0,0,0,0,0,3,3,4,,,,,,,,,,,,,,,,,,,,,,,,,,,,,,,,,,,,,,,,,,,,,,,,,,,,,,,655.9283138079991,None,655.9283138079991,None,655.9283138079991,None,m,0,1.5040284490005433,657.4615102649987,None,657.4615102649987,None,657.4615102649987,None,659.0288716670002,None,659.0288716670002,None,659.0288716670002,None,659.0288716670002,None,,,,,,,,,,,,,,,,,,,,,,,,,,,,,,,,,,,,,,,,,,,,001,150,2020_Feb_20_1154,spring_faces,3.1.5,60.04125795113356,
condition files/Stage1_1.xlsx,,B4,T4,m,"['c', 'm']","['Clue', 'Monopoly']","[-0.15, 0.5]","[0.15, 0.5]",1,1,,,,,,,,,0,0,0,0,0,4,4,7,,,,,,,,,,,,,,,,,,,,,,,,,,,,,,,,,,,,,,,,,,,,,,,,,,,,,,,660.9946884639994,None,660.9946884639994,None,660.9946884639994,None,c,0,1.140089344999069,662.5454975089997,None,662.5454975089997,None,662.5454975089997,None,663.7447492849988,None,663.7447492849988,None,663.7447492849988,None,663.7447492849988,None,,,,,,,,,,,,,,,,,,,,,,,,,,,,,,,,,,,,,,,,,,,,001,150,2020_Feb_20_1154,spring_faces,3.1.5,60.04125795113356,
condition files/Stage1_1.xlsx,,T4,B3,m,"['c', 'm']","['Clue', 'Monopoly']","[-0.15, 0.5]","[0.15, 0.5]",1,1,,,,,,,,,0,0,0,0,0,5,5,6,,,,,,,,,,,,,,,,,,,,,,,,,,,,,,,,,,,,,,,,,,,,,,,,,,,,,,,665.7112528639991,None,665.7112528639991,None,665.7112528639991,None,m,1,0.8389711990002979,667.2466394530002,None,667.2466394530002,None,667.2466394530002,None,668.145283586,None,668.145283586,None,668.145283586,None,668.145283586,None,,,,,,,,,,,,,,,,,,,,,,,,,,,,,,,,,,,,,,,,,,,,001,150,2020_Feb_20_1154,spring_faces,3.1.5,60.04125795113356,
condition files/Stage1_1.xlsx,,T3,B4,c,"['c', 'm']","['Clue', 'Monopoly']","[-0.15, 0.5]","[0.15, 0.5]",1,1,,,,,,,,,0,0,0,0,0,6,6,5,,,,,,,,,,,,,,,,,,,,,,,,,,,,,,,,,,,,,,,,,,,,,,,,,,,,,,,670.111723009999,None,670.111723009999,None,670.111723009999,None,m,0,1.0970802339998045,671.6445593749995,None,671.6445593749995,None,671.6445593749995,None,672.7944034499997,None,672.7944034499997,None,672.7944034499997,None,672.7944034499997,None,,,,,,,,,,,,,,,,,,,,,,,,,,,,,,,,,,,,,,,,,,,,001,150,2020_Feb_20_1154,spring_faces,3.1.5,60.04125795113356,
condition files/Stage1_1.xlsx,,T2,B2,m,"['c', 'm']","['Clue', 'Monopoly']","[-0.15, 0.5]","[0.15, 0.5]",1,1,,,,,,,,,0,0,0,0,0,7,7,3,,,,,,,,,,,,,,,,,,,,,,,,,,,,,,,,,,,,,,,,,,,,,,,,,,,,,,,674.7616935459992,None,674.7616935459992,None,674.7616935459992,None,c,0,1.9192417790000036,676.294295751999,None,676.294295751999,None,676.294295751999,None,678.2954797359998,None,678.2954797359998,None,678.2954797359998,None,678.2954797359998,None,,,,,,,,,,,,,,,,,,,,,,,,,,,,,,,,,,,,,,,,,,,,001,150,2020_Feb_20_1154,spring_faces,3.1.5,60.04125795113356,
condition files/Stage1_2.xlsx,,T4,B4,m,"['c', 'm']","['Clue', 'Monopoly']","[-0.15, 0.5]","[0.15, 0.5]",1,1,,,,,,,,,0,1,1,1,0,0,0,7,,,,,,,,,,,,,,,,,,,,,,,,,,,,,,,,,,,,,,,,,,,,,,,,,,,,,,,680.2620918039993,None,680.2620918039993,None,680.2620918039993,None,m,1,1.425636170000871,681.8119717150003,None,681.8119717150003,None,681.8119717150003,None,683.2951450279998,None,683.2951450279998,None,683.2951450279998,None,683.2951450279998,None,,,,,,,,,,,,,,,,,,,,,,,,,,,,,,,,,,,,,,,,,,,,001,150,2020_Feb_20_1154,spring_faces,3.1.5,60.04125795113356,
condition files/Stage1_2.xlsx,,B4,T3,c,"['c', 'm']","['Clue', 'Monopoly']","[-0.15, 0.5]","[0.15, 0.5]",1,1,,,,,,,,,0,1,1,1,0,1,1,5,,,,,,,,,,,,,,,,,,,,,,,,,,,,,,,,,,,,,,,,,,,,,,,,,,,,,,,685.2616299509991,None,685.2616299509991,None,685.2616299509991,None,c,1,1.0666834950006887,686.794847956,None,686.794847956,None,686.794847956,None,687.9114834299999,None,687.9114834299999,None,687.9114834299999,None,687.9114834299999,None,,,,,,,,,,,,,,,,,,,,,,,,,,,,,,,,,,,,,,,,,,,,001,150,2020_Feb_20_1154,spring_faces,3.1.5,60.04125795113356,
condition files/Stage1_2.xlsx,,B1,T1,c,"['c', 'm']","['Clue', 'Monopoly']","[-0.15, 0.5]","[0.15, 0.5]",1,1,,,,,,,,,0,1,1,1,0,2,2,0,,,,,,,,,,,,,,,,,,,,,,,,,,,,,,,,,,,,,,,,,,,,,,,,,,,,,,,689.878029509,None,689.878029509,None,689.878029509,None,c,1,1.903573799001606,691.4139638979996,None,691.4139638979996,None,691.4139638979996,None,693.3783580179988,None,693.3783580179988,None,693.3783580179988,None,693.3783580179988,None,,,,,,,,,,,,,,,,,,,,,,,,,,,,,,,,,,,,,,,,,,,,001,150,2020_Feb_20_1154,spring_faces,3.1.5,60.04125795113356,
condition files/Stage1_2.xlsx,,T3,B3,c,"['c', 'm']","['Clue', 'Monopoly']","[-0.15, 0.5]","[0.15, 0.5]",1,1,,,,,,,,,0,1,1,1,0,3,3,4,,,,,,,,,,,,,,,,,,,,,,,,,,,,,,,,,,,,,,,,,,,,,,,,,,,,,,,695.3449896109996,None,695.3449896109996,None,695.3449896109996,None,m,0,0.775168014000883,696.8784448909992,None,696.8784448909992,None,696.8784448909992,None,697.7118263249995,None,697.7118263249995,None,697.7118263249995,None,697.7118263249995,None,,,,,,,,,,,,,,,,,,,,,,,,,,,,,,,,,,,,,,,,,,,,001,150,2020_Feb_20_1154,spring_faces,3.1.5,60.04125795113356,
condition files/Stage1_2.xlsx,,B2,T2,m,"['c', 'm']","['Clue', 'Monopoly']","[-0.15, 0.5]","[0.15, 0.5]",1,1,,,,,,,,,0,1,1,1,0,4,4,3,,,,,,,,,,,,,,,,,,,,,,,,,,,,,,,,,,,,,,,,,,,,,,,,,,,,,,,699.677833927999,None,699.677833927999,None,699.677833927999,None,c,0,1.2729286440007854,701.2286633639997,None,701.2286633639997,None,701.2286633639997,None,702.5632104830001,None,702.5632104830001,None,702.5632104830001,None,702.5632104830001,None,,,,,,,,,,,,,,,,,,,,,,,,,,,,,,,,,,,,,,,,,,,,001,150,2020_Feb_20_1154,spring_faces,3.1.5,60.04125795113356,
condition files/Stage1_2.xlsx,,T2,B1,c,"['c', 'm']","['Clue', 'Monopoly']","[-0.15, 0.5]","[0.15, 0.5]",1,1,,,,,,,,,0,1,1,1,0,5,5,1,,,,,,,,,,,,,,,,,,,,,,,,,,,,,,,,,,,,,,,,,,,,,,,,,,,,,,,704.5282751260002,None,704.5282751260002,None,704.5282751260002,None,m,0,1.527150732001246,706.0623609349987,None,706.0623609349987,None,706.0623609349987,None,707.6620178339999,None,707.6620178339999,None,707.6620178339999,None,707.6620178339999,None,,,,,,,,,,,,,,,,,,,,,,,,,,,,,,,,,,,,,,,,,,,,001,150,2020_Feb_20_1154,spring_faces,3.1.5,60.04125795113356,
condition files/Stage1_2.xlsx,,B3,T4,m,"['c', 'm']","['Clue', 'Monopoly']","[-0.15, 0.5]","[0.15, 0.5]",1,1,,,,,,,,,0,1,1,1,0,6,6,6,,,,,,,,,,,,,,,,,,,,,,,,,,,,,,,,,,,,,,,,,,,,,,,,,,,,,,,709.6118745349995,None,709.6118745349995,None,709.6118745349995,None,m,1,3.4841174890007096,711.1453780230004,None,711.1453780230004,None,711.1453780230004,None,714.6969799139988,None,714.6969799139988,None,714.6969799139988,None,714.6969799139988,None,,,,,,,,,,,,,,,,,,,,,,,,,,,,,,,,,,,,,,,,,,,,001,150,2020_Feb_20_1154,spring_faces,3.1.5,60.04125795113356,
condition files/Stage1_2.xlsx,,T1,B2,m,"['c', 'm']","['Clue', 'Monopoly']","[-0.15, 0.5]","[0.15, 0.5]",1,1,,,,,,,,,0,1,1,1,0,7,7,2,,,,,,,,,,,,,,,,,,,,,,,,,,,,,,,,,,,,,,,,,,,,,,,,,,,,,,,716.6615182719997,None,716.6615182719997,None,716.6615182719997,None,c,0,3.0096336799997516,718.2119332309994,None,718.2119332309994,None,718.2119332309994,None,721.2784265419996,None,721.2784265419996,None,721.2784265419996,None,721.2784265419996,None,,,,,,,,,,,,,,,,,,,,,,,,,,,,,,,,,,,,,,,,,,,,001,150,2020_Feb_20_1154,spring_faces,3.1.5,60.04125795113356,
condition files/Stage1_1.xlsx,,B3,T3,c,"['c', 'm']","['Clue', 'Monopoly']","[-0.15, 0.5]","[0.15, 0.5]",1,1,,,,,,,,,0,2,2,2,0,0,0,4,,,,,,,,,,,,,,,,,,,,,,,,,,,,,,,,,,,,,,,,,,,,,,,,,,,,,,,723.2614545769993,None,723.2614545769993,None,723.2614545769993,None,m,0,1.1290895940001064,724.7964318349987,None,724.7964318349987,None,724.7964318349987,None,725.9796022289993,None,725.9796022289993,None,725.9796022289993,None,725.9796022289993,None,,,,,,,,,,,,,,,,,,,,,,,,,,,,,,,,,,,,,,,,,,,,001,150,2020_Feb_20_1154,spring_faces,3.1.5,60.04125795113356,
condition files/Stage1_1.xlsx,,B4,T4,m,"['c', 'm']","['Clue', 'Monopoly']","[-0.15, 0.5]","[0.15, 0.5]",1,1,,,,,,,,,0,2,2,2,0,1,1,7,,,,,,,,,,,,,,,,,,,,,,,,,,,,,,,,,,,,,,,,,,,,,,,,,,,,,,,727.9448610540003,None,727.9448610540003,None,727.9448610540003,None,m,1,1.358711396000217,729.4788910770003,None,729.4788910770003,None,729.4788910770003,None,730.8948217409998,None,730.8948217409998,None,730.8948217409998,None,730.8948217409998,None,,,,,,,,,,,,,,,,,,,,,,,,,,,,,,,,,,,,,,,,,,,,001,150,2020_Feb_20_1154,spring_faces,3.1.5,60.04125795113356,
condition files/Stage1_1.xlsx,,T3,B4,c,"['c', 'm']","['Clue', 'Monopoly']","[-0.15, 0.5]","[0.15, 0.5]",1,1,,,,,,,,,0,2,2,2,0,2,2,5,,,,,,,,,,,,,,,,,,,,,,,,,,,,,,,,,,,,,,,,,,,,,,,,,,,,,,,732.8616211669996,None,732.8616211669996,None,732.8616211669996,None,c,1,0.07501326000055997,734.3945907509988,None,734.3945907509988,None,734.3945907509988,None,734.5282304989996,None,734.5282304989996,None,734.5282304989996,None,734.5282304989996,None,,,,,,,,,,,,,,,,,,,,,,,,,,,,,,,,,,,,,,,,,,,,001,150,2020_Feb_20_1154,spring_faces,3.1.5,60.04125795113356,
condition files/Stage1_1.xlsx,,B2,T1,m,"['c', 'm']","['Clue', 'Monopoly']","[-0.15, 0.5]","[0.15, 0.5]",1,1,,,,,,,,,0,2,2,2,0,3,3,2,,,,,,,,,,,,,,,,,,,,,,,,,,,,,,,,,,,,,,,,,,,,,,,,,,,,,,,736.4945898759997,None,736.4945898759997,None,736.4945898759997,None,c,0,1.5919942580003408,738.0456100029987,None,738.0456100029987,None,738.0456100029987,None,739.6965819929992,None,739.6965819929992,None,739.6965819929992,None,739.6965819929992,None,,,,,,,,,,,,,,,,,,,,,,,,,,,,,,,,,,,,,,,,,,,,001,150,2020_Feb_20_1154,spring_faces,3.1.5,60.04125795113356,
condition files/Stage1_1.xlsx,,T1,B1,c,"['c', 'm']","['Clue', 'Monopoly']","[-0.15, 0.5]","[0.15, 0.5]",1,1,,,,,,,,,0,2,2,2,0,4,4,0,,,,,,,,,,,,,,,,,,,,,,,,,,,,,,,,,,,,,,,,,,,,,,,,,,,,,,,741.6614989499994,None,741.6614989499994,None,741.6614989499994,None,m,0,1.3219202929994935,743.1956540729989,None,743.1956540729989,None,743.1956540729989,None,744.5946938090001,None,744.5946938090001,None,744.5946938090001,None,744.5946938090001,None,,,,,,,,,,,,,,,,,,,,,,,,,,,,,,,,,,,,,,,,,,,,001,150,2020_Feb_20_1154,spring_faces,3.1.5,60.04125795113356,
condition files/Stage1_1.xlsx,,T2,B2,m,"['c', 'm']","['Clue', 'Monopoly']","[-0.15, 0.5]","[0.15, 0.5]",1,1,,,,,,,,,0,2,2,2,0,5,5,3,,,,,,,,,,,,,,,,,,,,,,,,,,,,,,,,,,,,,,,,,,,,,,,,,,,,,,,746.5451538449997,None,746.5451538449997,None,746.5451538449997,None,c,0,1.847220304000075,748.0783207509994,None,748.0783207509994,None,748.0783207509994,None,749.9799662909991,None,749.9799662909991,None,749.9799662909991,None,749.9799662909991,None,,,,,,,,,,,,,,,,,,,,,,,,,,,,,,,,,,,,,,,,,,,,001,150,2020_Feb_20_1154,spring_faces,3.1.5,60.04125795113356,
condition files/Stage1_1.xlsx,,B1,T2,c,"['c', 'm']","['Clue', 'Monopoly']","[-0.15, 0.5]","[0.15, 0.5]",1,1,,,,,,,,,0,2,2,2,0,6,6,1,,,,,,,,,,,,,,,,,,,,,,,,,,,,,,,,,,,,,,,,,,,,,,,,,,,,,,,751.9448905879999,None,751.9448905879999,None,751.9448905879999,None,m,0,0.8784358030006842,753.4791092759988,None,753.4791092759988,None,753.4791092759988,None,754.4128088910002,None,754.4128088910002,None,754.4128088910002,None,754.4128088910002,None,,,,,,,,,,,,,,,,,,,,,,,,,,,,,,,,,,,,,,,,,,,,001,150,2020_Feb_20_1154,spring_faces,3.1.5,60.04125795113356,
condition files/Stage1_1.xlsx,,T4,B3,m,"['c', 'm']","['Clue', 'Monopoly']","[-0.15, 0.5]","[0.15, 0.5]",1,1,,,,,,,,,0,2,2,2,0,7,7,6,,,,,,,,,,,,,,,,,,,,,,,,,,,,,,,,,,,,,,,,,,,,,,,,,,,,,,,756.378429802,None,756.378429802,None,756.378429802,None,c,0,1.4048280429997249,757.9287047939997,None,757.9287047939997,None,757.9287047939997,None,759.3954485539998,None,759.3954485539998,None,759.3954485539998,None,759.3954485539998,None,,,,,,,,,,,,,,,,,,,,,,,,,,,,,,,,,,,,,,,,,,,,001,150,2020_Feb_20_1154,spring_faces,3.1.5,60.04125795113356,
condition files/Stage1_2.xlsx,,B2,T2,m,"['c', 'm']","['Clue', 'Monopoly']","[-0.15, 0.5]","[0.15, 0.5]",1,1,,,,,,,,,0,3,3,3,0,0,0,3,,,,,,,,,,,,,,,,,,,,,,,,,,,,,,,,,,,,,,,,,,,,,,,,,,,,,,,761.3785706139988,None,761.3785706139988,None,761.3785706139988,None,m,1,0.7256538800011185,762.9279447699992,None,762.9279447699992,None,762.9279447699992,None,763.7120847389997,None,763.7120847389997,None,763.7120847389997,None,763.7120847389997,None,,,,,,,,,,,,,,,,,,,,,,,,,,,,,,,,,,,,,,,,,,,,001,150,2020_Feb_20_1154,spring_faces,3.1.5,60.04125795113356,
condition files/Stage1_2.xlsx,,T2,B1,c,"['c', 'm']","['Clue', 'Monopoly']","[-0.15, 0.5]","[0.15, 0.5]",1,1,,,,,,,,,0,3,3,3,0,1,1,1,,,,,,,,,,,,,,,,,,,,,,,,,,,,,,,,,,,,,,,,,,,,,,,,,,,,,,,765.6776491159999,None,765.6776491159999,None,765.6776491159999,None,m,0,0.5848399839997,767.2127003679998,None,767.2127003679998,None,767.2127003679998,None,767.8626117399999,None,767.8626117399999,None,767.8626117399999,None,767.8626117399999,None,,,,,,,,,,,,,,,,,,,,,,,,,,,,,,,,,,,,,,,,,,,,001,150,2020_Feb_20_1154,spring_faces,3.1.5,60.04125795113356,
condition files/Stage1_2.xlsx,,T3,B3,c,"['c', 'm']","['Clue', 'Monopoly']","[-0.15, 0.5]","[0.15, 0.5]",1,1,,,,,,,,,0,3,3,3,0,2,2,4,,,,,,,,,,,,,,,,,,,,,,,,,,,,,,,,,,,,,,,,,,,,,,,,,,,,,,,769.8284354619991,None,769.8284354619991,None,769.8284354619991,None,c,1,0.6738242219998938,771.3637726239995,None,771.3637726239995,None,771.3637726239995,None,772.0952362110002,None,772.0952362110002,None,772.0952362110002,None,772.0952362110002,None,,,,,,,,,,,,,,,,,,,,,,,,,,,,,,,,,,,,,,,,,,,,001,150,2020_Feb_20_1154,spring_faces,3.1.5,60.04125795113356,
condition files/Stage1_2.xlsx,,T1,B2,m,"['c', 'm']","['Clue', 'Monopoly']","[-0.15, 0.5]","[0.15, 0.5]",1,1,,,,,,,,,0,3,3,3,0,3,3,2,,,,,,,,,,,,,,,,,,,,,,,,,,,,,,,,,,,,,,,,,,,,,,,,,,,,,,,774.0616617169999,None,774.0616617169999,None,774.0616617169999,None,m,1,1.2563013590006449,775.5973008539986,None,775.5973008539986,None,775.5973008539986,None,776.9282236660001,None,776.9282236660001,None,776.9282236660001,None,776.9282236660001,None,,,,,,,,,,,,,,,,,,,,,,,,,,,,,,,,,,,,,,,,,,,,001,150,2020_Feb_20_1154,spring_faces,3.1.5,60.04125795113356,
condition files/Stage1_2.xlsx,,B1,T1,c,"['c', 'm']","['Clue', 'Monopoly']","[-0.15, 0.5]","[0.15, 0.5]",1,1,,,,,,,,,0,3,3,3,0,4,4,0,,,,,,,,,,,,,,,,,,,,,,,,,,,,,,,,,,,,,,,,,,,,,,,,,,,,,,,778.8783195509986,None,778.8783195509986,None,778.8783195509986,None,m,0,0.8416230920011003,780.4279750449987,None,780.4279750449987,None,780.4279750449987,None,781.3455846870002,None,781.3455846870002,None,781.3455846870002,None,781.3455846870002,None,,,,,,,,,,,,,,,,,,,,,,,,,,,,,,,,,,,,,,,,,,,,001,150,2020_Feb_20_1154,spring_faces,3.1.5,60.04125795113356,
condition files/Stage1_2.xlsx,,T4,B4,m,"['c', 'm']","['Clue', 'Monopoly']","[-0.15, 0.5]","[0.15, 0.5]",1,1,,,,,,,,,0,3,3,3,0,5,5,7,,,,,,,,,,,,,,,,,,,,,,,,,,,,,,,,,,,,,,,,,,,,,,,,,,,,,,,783.2945527539996,None,783.2945527539996,None,783.2945527539996,None,c,0,1.544811588999437,784.8446966479987,None,784.8446966479987,None,784.8446966479987,None,786.4617077000003,None,786.4617077000003,None,786.4617077000003,None,786.4617077000003,None,,,,,,,,,,,,,,,,,,,,,,,,,,,,,,,,,,,,,,,,,,,,001,150,2020_Feb_20_1154,spring_faces,3.1.5,60.04125795113356,
condition files/Stage1_2.xlsx,,B3,T4,m,"['c', 'm']","['Clue', 'Monopoly']","[-0.15, 0.5]","[0.15, 0.5]",1,1,,,,,,,,,0,3,3,3,0,6,6,6,,,,,,,,,,,,,,,,,,,,,,,,,,,,,,,,,,,,,,,,,,,,,,,,,,,,,,,788.4116499390002,None,788.4116499390002,None,788.4116499390002,None,m,1,1.0526043680001749,789.9449317959989,None,789.9449317959989,None,789.9449317959989,None,791.0620467099998,None,791.0620467099998,None,791.0620467099998,None,791.0620467099998,None,,,,,,,,,,,,,,,,,,,,,,,,,,,,,,,,,,,,,,,,,,,,001,150,2020_Feb_20_1154,spring_faces,3.1.5,60.04125795113356,
condition files/Stage1_2.xlsx,,B4,T3,c,"['c', 'm']","['Clue', 'Monopoly']","[-0.15, 0.5]","[0.15, 0.5]",1,1,,,,,,,,,0,3,3,3,0,7,7,5,,,,,,,,,,,,,,,,,,,,,,,,,,,,,,,,,,,,,,,,,,,,,,,,,,,,,,,793.0284915680004,None,793.0284915680004,None,793.0284915680004,None,m,0,1.1717854010003066,794.5617571579987,None,794.5617571579987,None,794.5617571579987,None,795.7954370499992,None,795.7954370499992,None,795.7954370499992,None,795.7954370499992,None,,,,,,,,,,,,,,,,,,,,,,,,,,,,,,,,,,,,,,,,,,,,001,150,2020_Feb_20_1154,spring_faces,3.1.5,60.04125795113356,
condition files/Stage1_1.xlsx,,B2,T1,m,"['c', 'm']","['Clue', 'Monopoly']","[-0.15, 0.5]","[0.15, 0.5]",1,1,,,,,,,,,0,4,4,4,0,0,0,2,,,,,,,,,,,,,,,,,,,,,,,,,,,,,,,,,,,,,,,,,,,,,,,,,,,,,,,797.7780663739995,None,797.7780663739995,None,797.7780663739995,None,c,0,1.7495956780003326,799.3119531899993,None,799.3119531899993,None,799.3119531899993,None,801.1289001940004,None,801.1289001940004,None,801.1289001940004,None,801.1289001940004,None,,,,,,,,,,,,,,,,,,,,,,,,,,,,,,,,,,,,,,,,,,,,001,150,2020_Feb_20_1154,spring_faces,3.1.5,60.04125795113356,
condition files/Stage1_1.xlsx,,T3,B4,c,"['c', 'm']","['Clue', 'Monopoly']","[-0.15, 0.5]","[0.15, 0.5]",1,1,,,,,,,,,0,4,4,4,0,1,1,5,,,,,,,,,,,,,,,,,,,,,,,,,,,,,,,,,,,,,,,,,,,,,,,,,,,,,,,803.0779251120002,None,803.0779251120002,None,803.0779251120002,None,c,1,0.7377163410001231,804.611833777999,None,804.611833777999,None,804.611833777999,None,805.4119035719996,None,805.4119035719996,None,805.4119035719996,None,805.4119035719996,None,,,,,,,,,,,,,,,,,,,,,,,,,,,,,,,,,,,,,,,,,,,,001,150,2020_Feb_20_1154,spring_faces,3.1.5,60.04125795113356,
condition files/Stage1_1.xlsx,,T2,B2,m,"['c', 'm']","['Clue', 'Monopoly']","[-0.15, 0.5]","[0.15, 0.5]",1,1,,,,,,,,,0,4,4,4,0,2,2,3,,,,,,,,,,,,,,,,,,,,,,,,,,,,,,,,,,,,,,,,,,,,,,,,,,,,,,,807.3786517979988,None,807.3786517979988,None,807.3786517979988,None,m,1,1.1895249070003047,808.9120853579989,None,808.9120853579989,None,808.9120853579989,None,810.1639000839987,None,810.1639000839987,None,810.1639000839987,None,810.1639000839987,None,,,,,,,,,,,,,,,,,,,,,,,,,,,,,,,,,,,,,,,,,,,,001,150,2020_Feb_20_1154,spring_faces,3.1.5,60.04125795113356,
condition files/Stage1_1.xlsx,,B3,T3,c,"['c', 'm']","['Clue', 'Monopoly']","[-0.15, 0.5]","[0.15, 0.5]",1,1,,,,,,,,,0,4,4,4,0,3,3,4,,,,,,,,,,,,,,,,,,,,,,,,,,,,,,,,,,,,,,,,,,,,,,,,,,,,,,,812.1277976799993,None,812.1277976799993,None,812.1277976799993,None,m,0,0.9980762760005746,813.663462561999,None,813.663462561999,None,813.663462561999,None,814.7126340309987,None,814.7126340309987,None,814.7126340309987,None,814.7126340309987,None,,,,,,,,,,,,,,,,,,,,,,,,,,,,,,,,,,,,,,,,,,,,001,150,2020_Feb_20_1154,spring_faces,3.1.5,60.04125795113356,
condition files/Stage1_1.xlsx,,B1,T2,c,"['c', 'm']","['Clue', 'Monopoly']","[-0.15, 0.5]","[0.15, 0.5]",1,1,,,,,,,,,0,4,4,4,0,4,4,1,,,,,,,,,,,,,,,,,,,,,,,,,,,,,,,,,,,,,,,,,,,,,,,,,,,,,,,816.6782595029999,None,816.6782595029999,None,816.6782595029999,None,c,1,1.0893943030005175,818.2281241469991,None,818.2281241469991,None,818.2281241469991,None,819.3786589379997,None,819.3786589379997,None,819.3786589379997,None,819.3786589379997,None,,,,,,,,,,,,,,,,,,,,,,,,,,,,,,,,,,,,,,,,,,,,001,150,2020_Feb_20_1154,spring_faces,3.1.5,60.04125795113356,
condition files/Stage1_1.xlsx,,T4,B3,m,"['c', 'm']","['Clue', 'Monopoly']","[-0.15, 0.5]","[0.15, 0.5]",1,1,,,,,,,,,0,4,4,4,0,5,5,6,,,,,,,,,,,,,,,,,,,,,,,,,,,,,,,,,,,,,,,,,,,,,,,,,,,,,,,821.3451259289996,None,821.3451259289996,None,821.3451259289996,None,c,0,1.5110762620006426,822.8784198590001,None,822.8784198590001,None,822.8784198590001,None,824.4453951799987,None,824.4453951799987,None,824.4453951799987,None,824.4453951799987,None,,,,,,,,,,,,,,,,,,,,,,,,,,,,,,,,,,,,,,,,,,,,001,150,2020_Feb_20_1154,spring_faces,3.1.5,60.04125795113356,
condition files/Stage1_1.xlsx,,B4,T4,m,"['c', 'm']","['Clue', 'Monopoly']","[-0.15, 0.5]","[0.15, 0.5]",1,1,,,,,,,,,0,4,4,4,0,6,6,7,,,,,,,,,,,,,,,,,,,,,,,,,,,,,,,,,,,,,,,,,,,,,,,,,,,,,,,826.411589809999,None,826.411589809999,None,826.411589809999,None,c,0,1.339437609000015,827.962121057999,None,827.962121057999,None,827.962121057999,None,829.361661031,None,829.361661031,None,829.361661031,None,829.361661031,None,,,,,,,,,,,,,,,,,,,,,,,,,,,,,,,,,,,,,,,,,,,,001,150,2020_Feb_20_1154,spring_faces,3.1.5,60.04125795113356,
condition files/Stage1_1.xlsx,,T1,B1,c,"['c', 'm']","['Clue', 'Monopoly']","[-0.15, 0.5]","[0.15, 0.5]",1,1,,,,,,,,,0,4,4,4,0,7,7,0,,,,,,,,,,,,,,,,,,,,,,,,,,,,,,,,,,,,,,,,,,,,,,,,,,,,,,,831.328490599999,None,831.328490599999,None,831.328490599999,None,m,0,1.0635025820010924,832.8780173180003,None,832.8780173180003,None,832.8780173180003,None,833.9967432289995,None,833.9967432289995,None,833.9967432289995,None,833.9967432289995,None,,,,,,,,,,,,,,,,,,,,,,,,,,,,,,,,,,,,,,,,,,,,001,150,2020_Feb_20_1154,spring_faces,3.1.5,60.04125795113356,
condition files/Stage1_2.xlsx,,B2,T2,m,"['c', 'm']","['Clue', 'Monopoly']","[-0.15, 0.5]","[0.15, 0.5]",1,1,,,,,,,,,0,5,5,5,0,0,0,3,,,,,,,,,,,,,,,,,,,,,,,,,,,,,,,,,,,,,,,,,,,,,,,,,,,,,,,835.9786729110001,None,835.9786729110001,None,835.9786729110001,None,c,0,1.6300167110002803,837.5115259799986,None,837.5115259799986,None,837.5115259799986,None,839.2118128450002,None,839.2118128450002,None,839.2118128450002,None,839.2118128450002,None,,,,,,,,,,,,,,,,,,,,,,,,,,,,,,,,,,,,,,,,,,,,001,150,2020_Feb_20_1154,spring_faces,3.1.5,60.04125795113356,
condition files/Stage1_2.xlsx,,B1,T1,c,"['c', 'm']","['Clue', 'Monopoly']","[-0.15, 0.5]","[0.15, 0.5]",1,1,,,,,,,,,0,5,5,5,0,1,1,0,,,,,,,,,,,,,,,,,,,,,,,,,,,,,,,,,,,,,,,,,,,,,,,,,,,,,,,841.1610354329987,None,841.1610354329987,None,841.1610354329987,None,m,0,1.1965128209994873,842.6970235289991,None,842.6970235289991,None,842.6970235289991,None,843.9472966489993,None,843.9472966489993,None,843.9472966489993,None,843.9472966489993,None,,,,,,,,,,,,,,,,,,,,,,,,,,,,,,,,,,,,,,,,,,,,001,150,2020_Feb_20_1154,spring_faces,3.1.5,60.04125795113356,
condition files/Stage1_2.xlsx,,T4,B4,m,"['c', 'm']","['Clue', 'Monopoly']","[-0.15, 0.5]","[0.15, 0.5]",1,1,,,,,,,,,0,5,5,5,0,2,2,7,,,,,,,,,,,,,,,,,,,,,,,,,,,,,,,,,,,,,,,,,,,,,,,,,,,,,,,845.9111165939994,None,845.9111165939994,None,845.9111165939994,None,c,0,1.1990734269984387,847.462446780999,None,847.462446780999,None,847.462446780999,None,848.7285758059988,None,848.7285758059988,None,848.7285758059988,None,848.7285758059988,None,,,,,,,,,,,,,,,,,,,,,,,,,,,,,,,,,,,,,,,,,,,,001,150,2020_Feb_20_1154,spring_faces,3.1.5,60.04125795113356,
condition files/Stage1_2.xlsx,,T3,B3,c,"['c', 'm']","['Clue', 'Monopoly']","[-0.15, 0.5]","[0.15, 0.5]",1,1,,,,,,,,,0,5,5,5,0,3,3,4,,,,,,,,,,,,,,,,,,,,,,,,,,,,,,,,,,,,,,,,,,,,,,,,,,,,,,,850.6784785580003,None,850.6784785580003,None,850.6784785580003,None,m,0,0.850053083999228,852.2114844039988,None,852.2114844039988,None,852.2114844039988,None,853.1138104909987,None,853.1138104909987,None,853.1138104909987,None,853.1138104909987,None,,,,,,,,,,,,,,,,,,,,,,,,,,,,,,,,,,,,,,,,,,,,001,150,2020_Feb_20_1154,spring_faces,3.1.5,60.04125795113356,
condition files/Stage1_2.xlsx,,B4,T3,c,"['c', 'm']","['Clue', 'Monopoly']","[-0.15, 0.5]","[0.15, 0.5]",1,1,,,,,,,,,0,5,5,5,0,4,4,5,,,,,,,,,,,,,,,,,,,,,,,,,,,,,,,,,,,,,,,,,,,,,,,,,,,,,,,855.0782354139992,None,855.0782354139992,None,855.0782354139992,None,m,0,1.5060297500003799,856.6115041079993,None,856.6115041079993,None,856.6115041079993,None,858.1784658099987,None,858.1784658099987,None,858.1784658099987,None,858.1784658099987,None,,,,,,,,,,,,,,,,,,,,,,,,,,,,,,,,,,,,,,,,,,,,001,150,2020_Feb_20_1154,spring_faces,3.1.5,60.04125795113356,
condition files/Stage1_2.xlsx,,T2,B1,c,"['c', 'm']","['Clue', 'Monopoly']","[-0.15, 0.5]","[0.15, 0.5]",1,1,,,,,,,,,0,5,5,5,0,5,5,1,,,,,,,,,,,,,,,,,,,,,,,,,,,,,,,,,,,,,,,,,,,,,,,,,,,,,,,860.1444324000004,None,860.1444324000004,None,860.1444324000004,None,c,1,1.4309558130007645,861.6785842729987,None,861.6785842729987,None,861.6785842729987,None,863.1622259790001,None,863.1622259790001,None,863.1622259790001,None,863.1622259790001,None,,,,,,,,,,,,,,,,,,,,,,,,,,,,,,,,,,,,,,,,,,,,001,150,2020_Feb_20_1154,spring_faces,3.1.5,60.04125795113356,
condition files/Stage1_2.xlsx,,T1,B2,m,"['c', 'm']","['Clue', 'Monopoly']","[-0.15, 0.5]","[0.15, 0.5]",1,1,,,,,,,,,0,5,5,5,0,6,6,2,,,,,,,,,,,,,,,,,,,,,,,,,,,,,,,,,,,,,,,,,,,,,,,,,,,,,,,865.1284410249991,None,865.1284410249991,None,865.1284410249991,None,m,1,1.87195894999968,866.6615838500002,None,866.6615838500002,None,866.6615838500002,None,868.5978377089996,None,868.5978377089996,None,868.5978377089996,None,868.5978377089996,None,,,,,,,,,,,,,,,,,,,,,,,,,,,,,,,,,,,,,,,,,,,,001,150,2020_Feb_20_1154,spring_faces,3.1.5,60.04125795113356,
condition files/Stage1_2.xlsx,,B3,T4,m,"['c', 'm']","['Clue', 'Monopoly']","[-0.15, 0.5]","[0.15, 0.5]",1,1,,,,,,,,,0,5,5,5,0,7,7,6,,,,,,,,,,,,,,,,,,,,,,,,,,,,,,,,,,,,,,,,,,,,,,,,,,,,,,,870.5613617010004,None,870.5613617010004,None,870.5613617010004,None,m,1,0.806714529000601,872.0948897489998,None,872.0948897489998,None,872.0948897489998,None,872.9616180310004,None,872.9616180310004,None,872.9616180310004,None,872.9616180310004,None,,,,,,,,,,,,,,,,,,,,,,,,,,,,,,,,,,,,,,,,,,,,001,150,2020_Feb_20_1154,spring_faces,3.1.5,60.04125795113356,
condition files/Stage1_1.xlsx,,B4,T4,m,"['c', 'm']","['Clue', 'Monopoly']","[-0.15, 0.5]","[0.15, 0.5]",1,1,,,,,,,,,0,6,6,6,0,0,0,7,,,,,,,,,,,,,,,,,,,,,,,,,,,,,,,,,,,,,,,,,,,,,,,,,,,,,,,874.9453435609994,None,874.9453435609994,None,874.9453435609994,None,m,1,2.0856502059996274,876.4799010869992,None,876.4799010869992,None,876.4799010869992,None,878.6289308089999,None,878.6289308089999,None,878.6289308089999,None,878.6289308089999,None,,,,,,,,,,,,,,,,,,,,,,,,,,,,,,,,,,,,,,,,,,,,001,150,2020_Feb_20_1154,spring_faces,3.1.5,60.04125795113356,
condition files/Stage1_1.xlsx,,T2,B2,m,"['c', 'm']","['Clue', 'Monopoly']","[-0.15, 0.5]","[0.15, 0.5]",1,1,,,,,,,,,0,6,6,6,0,1,1,3,,,,,,,,,,,,,,,,,,,,,,,,,,,,,,,,,,,,,,,,,,,,,,,,,,,,,,,880.5947218820002,None,880.5947218820002,None,880.5947218820002,None,c,0,1.315337872998498,882.1301652999991,None,882.1301652999991,None,882.1301652999991,None,883.4951100149992,None,883.4951100149992,None,883.4951100149992,None,883.4951100149992,None,,,,,,,,,,,,,,,,,,,,,,,,,,,,,,,,,,,,,,,,,,,,001,150,2020_Feb_20_1154,spring_faces,3.1.5,60.04125795113356,
condition files/Stage1_1.xlsx,,T4,B3,m,"['c', 'm']","['Clue', 'Monopoly']","[-0.15, 0.5]","[0.15, 0.5]",1,1,,,,,,,,,0,6,6,6,0,2,2,6,,,,,,,,,,,,,,,,,,,,,,,,,,,,,,,,,,,,,,,,,,,,,,,,,,,,,,,885.461628428,None,885.461628428,None,885.461628428,None,m,1,1.5226948559993616,886.9949013179994,None,886.9949013179994,None,886.9949013179994,None,888.5788130170004,None,888.5788130170004,None,888.5788130170004,None,888.5788130170004,None,,,,,,,,,,,,,,,,,,,,,,,,,,,,,,,,,,,,,,,,,,,,001,150,2020_Feb_20_1154,spring_faces,3.1.5,60.04125795113356,
condition files/Stage1_1.xlsx,,T3,B4,c,"['c', 'm']","['Clue', 'Monopoly']","[-0.15, 0.5]","[0.15, 0.5]",1,1,,,,,,,,,0,6,6,6,0,3,3,5,,,,,,,,,,,,,,,,,,,,,,,,,,,,,,,,,,,,,,,,,,,,,,,,,,,,,,,890.54494075,None,890.54494075,None,890.54494075,None,c,1,1.2071155890007503,892.0784884929999,None,892.0784884929999,None,892.0784884929999,None,893.3476516319988,None,893.3476516319988,None,893.3476516319988,None,893.3476516319988,None,,,,,,,,,,,,,,,,,,,,,,,,,,,,,,,,,,,,,,,,,,,,001,150,2020_Feb_20_1154,spring_faces,3.1.5,60.04125795113356,
condition files/Stage1_1.xlsx,,B2,T1,m,"['c', 'm']","['Clue', 'Monopoly']","[-0.15, 0.5]","[0.15, 0.5]",1,1,,,,,,,,,0,6,6,6,0,4,4,2,,,,,,,,,,,,,,,,,,,,,,,,,,,,,,,,,,,,,,,,,,,,,,,,,,,,,,,895.3116939889987,None,895.3116939889987,None,895.3116939889987,None,m,1,1.1768128469993826,896.8447689859986,None,896.8447689859986,None,896.8447689859986,None,898.0788248839999,None,898.0788248839999,None,898.0788248839999,None,898.0788248839999,None,,,,,,,,,,,,,,,,,,,,,,,,,,,,,,,,,,,,,,,,,,,,001,150,2020_Feb_20_1154,spring_faces,3.1.5,60.04125795113356,
condition files/Stage1_1.xlsx,,B3,T3,c,"['c', 'm']","['Clue', 'Monopoly']","[-0.15, 0.5]","[0.15, 0.5]",1,1,,,,,,,,,0,6,6,6,0,5,5,4,,,,,,,,,,,,,,,,,,,,,,,,,,,,,,,,,,,,,,,,,,,,,,,,,,,,,,,900.0445742270003,None,900.0445742270003,None,900.0445742270003,None,c,1,2.4096044060006534,901.5798817739997,None,901.5798817739997,None,901.5798817739997,None,904.0449706580002,None,904.0449706580002,None,904.0449706580002,None,904.0449706580002,None,,,,,,,,,,,,,,,,,,,,,,,,,,,,,,,,,,,,,,,,,,,,001,150,2020_Feb_20_1154,spring_faces,3.1.5,60.04125795113356,
condition files/Stage1_1.xlsx,,T1,B1,c,"['c', 'm']","['Clue', 'Monopoly']","[-0.15, 0.5]","[0.15, 0.5]",1,1,,,,,,,,,0,6,6,6,0,6,6,0,,,,,,,,,,,,,,,,,,,,,,,,,,,,,,,,,,,,,,,,,,,,,,,,,,,,,,,906.0116480549987,None,906.0116480549987,None,906.0116480549987,None,m,0,0.7169022029993357,907.544636265,None,907.544636265,None,907.544636265,None,908.3119848449987,None,908.3119848449987,None,908.3119848449987,None,908.3119848449987,None,,,,,,,,,,,,,,,,,,,,,,,,,,,,,,,,,,,,,,,,,,,,001,150,2020_Feb_20_1154,spring_faces,3.1.5,60.04125795113356,
condition files/Stage1_1.xlsx,,B1,T2,c,"['c', 'm']","['Clue', 'Monopoly']","[-0.15, 0.5]","[0.15, 0.5]",1,1,,,,,,,,,0,6,6,6,0,7,7,1,,,,,,,,,,,,,,,,,,,,,,,,,,,,,,,,,,,,,,,,,,,,,,,,,,,,,,,910.2780715919998,None,910.2780715919998,None,910.2780715919998,None,c,1,0.6728593849984463,911.8127504080003,None,911.8127504080003,None,911.8127504080003,None,912.5456948359988,None,912.5456948359988,None,912.5456948359988,None,912.5456948359988,None,,,,,,,,,,,,,,,,,,,,,,,,,,,,,,,,,,,,,,,,,,,,001,150,2020_Feb_20_1154,spring_faces,3.1.5,60.04125795113356,
condition files/Stage1_2.xlsx,,B1,T1,c,"['c', 'm']","['Clue', 'Monopoly']","[-0.15, 0.5]","[0.15, 0.5]",1,1,,,,,,,,,0,7,7,7,0,0,0,0,,,,,,,,,,,,,,,,,,,,,,,,,,,,,,,,,,,,,,,,,,,,,,,,,,,,,,,914.5280957670002,None,914.5280957670002,None,914.5280957670002,None,m,0,1.0149016159994062,916.0786187729991,None,916.0786187729991,None,916.0786187729991,None,917.1452654029999,None,917.1452654029999,None,917.1452654029999,None,917.1452654029999,None,,,,,,,,,,,,,,,,,,,,,,,,,,,,,,,,,,,,,,,,,,,,001,150,2020_Feb_20_1154,spring_faces,3.1.5,60.04125795113356,
condition files/Stage1_2.xlsx,,T2,B1,c,"['c', 'm']","['Clue', 'Monopoly']","[-0.15, 0.5]","[0.15, 0.5]",1,1,,,,,,,,,0,7,7,7,0,1,1,1,,,,,,,,,,,,,,,,,,,,,,,,,,,,,,,,,,,,,,,,,,,,,,,,,,,,,,,919.1116126119996,None,919.1116126119996,None,919.1116126119996,None,c,1,2.592730942000344,920.6448861669996,None,920.6448861669996,None,920.6448861669996,None,923.2953132549992,None,923.2953132549992,None,923.2953132549992,None,923.2953132549992,None,,,,,,,,,,,,,,,,,,,,,,,,,,,,,,,,,,,,,,,,,,,,001,150,2020_Feb_20_1154,spring_faces,3.1.5,60.04125795113356,
condition files/Stage1_2.xlsx,,T1,B2,m,"['c', 'm']","['Clue', 'Monopoly']","[-0.15, 0.5]","[0.15, 0.5]",1,1,,,,,,,,,0,7,7,7,0,2,2,2,,,,,,,,,,,,,,,,,,,,,,,,,,,,,,,,,,,,,,,,,,,,,,,,,,,,,,,925.2617454680003,None,925.2617454680003,None,925.2617454680003,None,m,1,1.3386738449989934,926.794873031,None,926.794873031,None,926.794873031,None,928.2115265369994,None,928.2115265369994,None,928.2115265369994,None,928.2115265369994,None,,,,,,,,,,,,,,,,,,,,,,,,,,,,,,,,,,,,,,,,,,,,001,150,2020_Feb_20_1154,spring_faces,3.1.5,60.04125795113356,
condition files/Stage1_2.xlsx,,B2,T2,m,"['c', 'm']","['Clue', 'Monopoly']","[-0.15, 0.5]","[0.15, 0.5]",1,1,,,,,,,,,0,7,7,7,0,3,3,3,,,,,,,,,,,,,,,,,,,,,,,,,,,,,,,,,,,,,,,,,,,,,,,,,,,,,,,930.1616382310003,None,930.1616382310003,None,930.1616382310003,None,c,0,1.350256380999781,931.6952415479991,None,931.6952415479991,None,931.6952415479991,None,933.112138167,None,933.112138167,None,933.112138167,None,933.112138167,None,,,,,,,,,,,,,,,,,,,,,,,,,,,,,,,,,,,,,,,,,,,,001,150,2020_Feb_20_1154,spring_faces,3.1.5,60.04125795113356,
condition files/Stage1_2.xlsx,,B4,T3,c,"['c', 'm']","['Clue', 'Monopoly']","[-0.15, 0.5]","[0.15, 0.5]",1,1,,,,,,,,,0,7,7,7,0,4,4,5,,,,,,,,,,,,,,,,,,,,,,,,,,,,,,,,,,,,,,,,,,,,,,,,,,,,,,,935.0785125959992,None,935.0785125959992,None,935.0785125959992,None,c,1,3.969619346999025,936.6119265090001,None,936.6119265090001,None,936.6119265090001,None,940.6462544839997,None,940.6462544839997,None,940.6462544839997,None,940.6462544839997,None,,,,,,,,,,,,,,,,,,,,,,,,,,,,,,,,,,,,,,,,,,,,001,150,2020_Feb_20_1154,spring_faces,3.1.5,60.04125795113356,
condition files/Stage1_2.xlsx,,T4,B4,m,"['c', 'm']","['Clue', 'Monopoly']","[-0.15, 0.5]","[0.15, 0.5]",1,1,,,,,,,,,0,7,7,7,0,5,5,7,,,,,,,,,,,,,,,,,,,,,,,,,,,,,,,,,,,,,,,,,,,,,,,,,,,,,,,942.6116430069997,None,942.6116430069997,None,942.6116430069997,None,m,1,1.1079283290000603,944.1456933440004,None,944.1456933440004,None,944.1456933440004,None,945.3126463919998,None,945.3126463919998,None,945.3126463919998,None,945.3126463919998,None,,,,,,,,,,,,,,,,,,,,,,,,,,,,,,,,,,,,,,,,,,,,001,150,2020_Feb_20_1154,spring_faces,3.1.5,60.04125795113356,
condition files/Stage1_2.xlsx,,B3,T4,m,"['c', 'm']","['Clue', 'Monopoly']","[-0.15, 0.5]","[0.15, 0.5]",1,1,,,,,,,,,0,7,7,7,0,6,6,6,,,,,,,,,,,,,,,,,,,,,,,,,,,,,,,,,,,,,,,,,,,,,,,,,,,,,,,947.2781420020001,None,947.2781420020001,None,947.2781420020001,None,m,1,1.3372633519993542,948.8122880849987,None,948.8122880849987,None,948.8122880849987,None,950.2119584249995,None,950.2119584249995,None,950.2119584249995,None,950.2119584249995,None,,,,,,,,,,,,,,,,,,,,,,,,,,,,,,,,,,,,,,,,,,,,001,150,2020_Feb_20_1154,spring_faces,3.1.5,60.04125795113356,
condition files/Stage1_2.xlsx,,T3,B3,c,"['c', 'm']","['Clue', 'Monopoly']","[-0.15, 0.5]","[0.15, 0.5]",1,1,,,,,,,,,0,7,7,7,0,7,7,4,,,,,,,,,,,,,,,,,,,,,,,,,,,,,,,,,,,,,,,,,,,,,,,,,,,,,,,952.1784164689998,None,952.1784164689998,None,952.1784164689998,None,c,1,2.6297253310003725,953.7117950569991,None,953.7117950569991,None,953.7117950569991,None,956.397089008,None,956.397089008,None,956.397089008,None,956.397089008,None,,,,,,,,,,,,,,,,,,,,,,,,,,,,,,,,,,,,,,,,,,,,001,150,2020_Feb_20_1154,spring_faces,3.1.5,60.04125795113356,
condition files/Stage1_1.xlsx,,T2,B2,m,"['c', 'm']","['Clue', 'Monopoly']","[-0.15, 0.5]","[0.15, 0.5]",1,1,,,,,,,,,0,8,8,8,0,0,0,3,,,,,,,,,,,,,,,,,,,,,,,,,,,,,,,,,,,,,,,,,,,,,,,,,,,,,,,958.3791163419992,None,958.3791163419992,None,958.3791163419992,None,m,1,1.7249732319996838,959.9126314929999,None,959.9126314929999,None,959.9126314929999,None,961.7120892829989,None,961.7120892829989,None,961.7120892829989,None,961.7120892829989,None,,,,,,,,,,,,,,,,,,,,,,,,,,,,,,,,,,,,,,,,,,,,001,150,2020_Feb_20_1154,spring_faces,3.1.5,60.04125795113356,
condition files/Stage1_1.xlsx,,B2,T1,m,"['c', 'm']","['Clue', 'Monopoly']","[-0.15, 0.5]","[0.15, 0.5]",1,1,,,,,,,,,0,8,8,8,0,1,1,2,,,,,,,,,,,,,,,,,,,,,,,,,,,,,,,,,,,,,,,,,,,,,,,,,,,,,,,963.6616376989987,None,963.6616376989987,None,963.6616376989987,None,c,0,4.154052065998258,965.1954997199991,None,965.1954997199991,None,965.1954997199991,None,969.411522507,None,969.411522507,None,969.411522507,None,969.411522507,None,,,,,,,,,,,,,,,,,,,,,,,,,,,,,,,,,,,,,,,,,,,,001,150,2020_Feb_20_1154,spring_faces,3.1.5,60.04125795113356,
condition files/Stage1_1.xlsx,,T3,B4,c,"['c', 'm']","['Clue', 'Monopoly']","[-0.15, 0.5]","[0.15, 0.5]",1,1,,,,,,,,,0,8,8,8,0,2,2,5,,,,,,,,,,,,,,,,,,,,,,,,,,,,,,,,,,,,,,,,,,,,,,,,,,,,,,,971.3784477879999,None,971.3784477879999,None,971.3784477879999,None,m,0,1.669652225999016,972.9118925209987,None,972.9118925209987,None,972.9118925209987,None,974.662219795,None,974.662219795,None,974.662219795,None,974.662219795,None,,,,,,,,,,,,,,,,,,,,,,,,,,,,,,,,,,,,,,,,,,,,001,150,2020_Feb_20_1154,spring_faces,3.1.5,60.04125795113356,
condition files/Stage1_1.xlsx,,T1,B1,c,"['c', 'm']","['Clue', 'Monopoly']","[-0.15, 0.5]","[0.15, 0.5]",1,1,,,,,,,,,0,8,8,8,0,3,3,0,,,,,,,,,,,,,,,,,,,,,,,,,,,,,,,,,,,,,,,,,,,,,,,,,,,,,,,976.6116126549987,None,976.6116126549987,None,976.6116126549987,None,m,0,2.995426466999561,978.1461066720003,None,978.1461066720003,None,978.1461066720003,None,981.1951877329993,None,981.1951877329993,None,981.1951877329993,None,981.1951877329993,None,,,,,,,,,,,,,,,,,,,,,,,,,,,,,,,,,,,,,,,,,,,,001,150,2020_Feb_20_1154,spring_faces,3.1.5,60.04125795113356,
condition files/Stage1_1.xlsx,,B3,T3,c,"['c', 'm']","['Clue', 'Monopoly']","[-0.15, 0.5]","[0.15, 0.5]",1,1,,,,,,,,,0,8,8,8,0,4,4,4,,,,,,,,,,,,,,,,,,,,,,,,,,,,,,,,,,,,,,,,,,,,,,,,,,,,,,,983.1618258879989,None,983.1618258879989,None,983.1618258879989,None,m,0,1.8072160970004916,984.6944022219996,None,984.6944022219996,None,984.6944022219996,None,986.5622790910002,None,986.5622790910002,None,986.5622790910002,None,986.5622790910002,None,,,,,,,,,,,,,,,,,,,,,,,,,,,,,,,,,,,,,,,,,,,,001,150,2020_Feb_20_1154,spring_faces,3.1.5,60.04125795113356,
condition files/Stage1_1.xlsx,,B1,T2,c,"['c', 'm']","['Clue', 'Monopoly']","[-0.15, 0.5]","[0.15, 0.5]",1,1,,,,,,,,,0,8,8,8,0,5,5,1,,,,,,,,,,,,,,,,,,,,,,,,,,,,,,,,,,,,,,,,,,,,,,,,,,,,,,,988.5285415359995,None,988.5285415359995,None,988.5285415359995,None,c,1,1.3828788549999445,990.0625887049991,None,990.0625887049991,None,990.0625887049991,None,991.5123582119995,None,991.5123582119995,None,991.5123582119995,None,991.5123582119995,None,,,,,,,,,,,,,,,,,,,,,,,,,,,,,,,,,,,,,,,,,,,,001,150,2020_Feb_20_1154,spring_faces,3.1.5,60.04125795113356,
condition files/Stage1_1.xlsx,,T4,B3,m,"['c', 'm']","['Clue', 'Monopoly']","[-0.15, 0.5]","[0.15, 0.5]",1,1,,,,,,,,,0,8,8,8,0,6,6,6,,,,,,,,,,,,,,,,,,,,,,,,,,,,,,,,,,,,,,,,,,,,,,,,,,,,,,,993.4781423889999,None,993.4781423889999,None,993.4781423889999,None,c,0,1.0252817590007908,995.0123411589993,None,995.0123411589993,None,995.0123411589993,None,996.0970636029997,None,996.0970636029997,None,996.0970636029997,None,996.0970636029997,None,,,,,,,,,,,,,,,,,,,,,,,,,,,,,,,,,,,,,,,,,,,,001,150,2020_Feb_20_1154,spring_faces,3.1.5,60.04125795113356,
condition files/Stage1_1.xlsx,,B4,T4,m,"['c', 'm']","['Clue', 'Monopoly']","[-0.15, 0.5]","[0.15, 0.5]",1,1,,,,,,,,,0,8,8,8,0,7,7,7,,,,,,,,,,,,,,,,,,,,,,,,,,,,,,,,,,,,,,,,,,,,,,,,,,,,,,,998.0613912299996,None,998.0613912299996,None,998.0613912299996,None,m,1,0.8428449149996595,999.5947910289997,None,999.5947910289997,None,999.5947910289997,None,1000.4953902609996,None,1000.4953902609996,None,1000.4953902609996,None,1000.4953902609996,None,,,,,,,,,,,,,,,,,,,,,,,,,,,,,,,,,,,,,,,,,,,,001,150,2020_Feb_20_1154,spring_faces,3.1.5,60.04125795113356,
condition files/Stage1_2.xlsx,,B2,T2,m,"['c', 'm']","['Clue', 'Monopoly']","[-0.15, 0.5]","[0.15, 0.5]",1,1,,,,,,,,,0,9,9,9,0,0,0,3,,,,,,,,,,,,,,,,,,,,,,,,,,,,,,,,,,,,,,,,,,,,,,,,,,,,,,,1002.478702933,None,1002.478702933,None,1002.478702933,None,c,0,1.7527092580003227,1004.0128445390001,None,1004.0128445390001,None,1004.0128445390001,None,1005.8287095119995,None,1005.8287095119995,None,1005.8287095119995,None,1005.8287095119995,None,,,,,,,,,,,,,,,,,,,,,,,,,,,,,,,,,,,,,,,,,,,,001,150,2020_Feb_20_1154,spring_faces,3.1.5,60.04125795113356,
condition files/Stage1_2.xlsx,,T4,B4,m,"['c', 'm']","['Clue', 'Monopoly']","[-0.15, 0.5]","[0.15, 0.5]",1,1,,,,,,,,,0,9,9,9,0,1,1,7,,,,,,,,,,,,,,,,,,,,,,,,,,,,,,,,,,,,,,,,,,,,,,,,,,,,,,,1007.7949557009997,None,1007.7949557009997,None,1007.7949557009997,None,m,1,0.7088927229997353,1009.3287218409987,None,1009.3287218409987,None,1009.3287218409987,None,1010.0951444929997,None,1010.0951444929997,None,1010.0951444929997,None,1010.0951444929997,None,,,,,,,,,,,,,,,,,,,,,,,,,,,,,,,,,,,,,,,,,,,,001,150,2020_Feb_20_1154,spring_faces,3.1.5,60.04125795113356,
condition files/Stage1_2.xlsx,,T1,B2,m,"['c', 'm']","['Clue', 'Monopoly']","[-0.15, 0.5]","[0.15, 0.5]",1,1,,,,,,,,,0,9,9,9,0,2,2,2,,,,,,,,,,,,,,,,,,,,,,,,,,,,,,,,,,,,,,,,,,,,,,,,,,,,,,,1012.0616753409995,None,1012.0616753409995,None,1012.0616753409995,None,c,0,1.208210140999654,1013.5974107780003,None,1013.5974107780003,None,1013.5974107780003,None,1014.8616201339992,None,1014.8616201339992,None,1014.8616201339992,None,1014.8616201339992,None,,,,,,,,,,,,,,,,,,,,,,,,,,,,,,,,,,,,,,,,,,,,001,150,2020_Feb_20_1154,spring_faces,3.1.5,60.04125795113356,
condition files/Stage1_2.xlsx,,T2,B1,c,"['c', 'm']","['Clue', 'Monopoly']","[-0.15, 0.5]","[0.15, 0.5]",1,1,,,,,,,,,0,9,9,9,0,3,3,1,,,,,,,,,,,,,,,,,,,,,,,,,,,,,,,,,,,,,,,,,,,,,,,,,,,,,,,1016.8286579879987,None,1016.8286579879987,None,1016.8286579879987,None,m,0,0.7629302349996578,1018.3626071620001,None,1018.3626071620001,None,1018.3626071620001,None,1019.1791146220003,None,1019.1791146220003,None,1019.1791146220003,None,1019.1791146220003,None,,,,,,,,,,,,,,,,,,,,,,,,,,,,,,,,,,,,,,,,,,,,001,150,2020_Feb_20_1154,spring_faces,3.1.5,60.04125795113356,
condition files/Stage1_2.xlsx,,B3,T4,m,"['c', 'm']","['Clue', 'Monopoly']","[-0.15, 0.5]","[0.15, 0.5]",1,1,,,,,,,,,0,9,9,9,0,4,4,6,,,,,,,,,,,,,,,,,,,,,,,,,,,,,,,,,,,,,,,,,,,,,,,,,,,,,,,1021.1447645529988,None,1021.1447645529988,None,1021.1447645529988,None,m,1,1.1510238999999274,1022.6784739569994,None,1022.6784739569994,None,1022.6784739569994,None,1023.9120337339991,None,1023.9120337339991,None,1023.9120337339991,None,1023.9120337339991,None,,,,,,,,,,,,,,,,,,,,,,,,,,,,,,,,,,,,,,,,,,,,001,150,2020_Feb_20_1154,spring_faces,3.1.5,60.04125795113356,
condition files/Stage1_2.xlsx,,B4,T3,c,"['c', 'm']","['Clue', 'Monopoly']","[-0.15, 0.5]","[0.15, 0.5]",1,1,,,,,,,,,0,9,9,9,0,5,5,5,,,,,,,,,,,,,,,,,,,,,,,,,,,,,,,,,,,,,,,,,,,,,,,,,,,,,,,1025.8618190839989,None,1025.8618190839989,None,1025.8618190839989,None,c,1,0.9629339919993072,1027.3945883519991,None,1027.3945883519991,None,1027.3945883519991,None,1028.4134682519998,None,1028.4134682519998,None,1028.4134682519998,None,1028.4134682519998,None,,,,,,,,,,,,,,,,,,,,,,,,,,,,,,,,,,,,,,,,,,,,001,150,2020_Feb_20_1154,spring_faces,3.1.5,60.04125795113356,
condition files/Stage1_2.xlsx,,B1,T1,c,"['c', 'm']","['Clue', 'Monopoly']","[-0.15, 0.5]","[0.15, 0.5]",1,1,,,,,,,,,0,9,9,9,0,6,6,0,,,,,,,,,,,,,,,,,,,,,,,,,,,,,,,,,,,,,,,,,,,,,,,,,,,,,,,1030.3783662329988,None,1030.3783662329988,None,1030.3783662329988,None,c,1,0.8926726789995882,1031.9129530230002,None,1031.9129530230002,None,1031.9129530230002,None,1032.8618080750002,None,1032.8618080750002,None,1032.8618080750002,None,1032.8618080750002,None,,,,,,,,,,,,,,,,,,,,,,,,,,,,,,,,,,,,,,,,,,,,001,150,2020_Feb_20_1154,spring_faces,3.1.5,60.04125795113356,
condition files/Stage1_2.xlsx,,T3,B3,c,"['c', 'm']","['Clue', 'Monopoly']","[-0.15, 0.5]","[0.15, 0.5]",1,1,,,,,,,,,0,9,9,9,0,7,7,4,,,,,,,,,,,,,,,,,,,,,,,,,,,,,,,,,,,,,,,,,,,,,,,,,,,,,,,1034.8281284690001,None,1034.8281284690001,None,1034.8281284690001,None,c,1,1.8499560719992587,1036.3635397639991,None,1036.3635397639991,None,1036.3635397639991,None,1038.2786867260002,None,1038.2786867260002,None,1038.2786867260002,None,1038.2786867260002,None,,,,,,,,,,,,,,,,,,,,,,,,,,,,,,,,,,,,,,,,,,,,001,150,2020_Feb_20_1154,spring_faces,3.1.5,60.04125795113356,
condition files/Stage1_1.xlsx,,B3,T3,c,"['c', 'm']","['Clue', 'Monopoly']","[-0.15, 0.5]","[0.15, 0.5]",1,1,,,,,,,,,0,10,10,10,0,0,0,4,,,,,,,,,,,,,,,,,,,,,,,,,,,,,,,,,,,,,,,,,,,,,,,,,,,,,,,1040.262082711999,None,1040.262082711999,None,1040.262082711999,None,c,1,1.9864038189989515,1041.7951516899993,None,1041.7951516899993,None,1041.7951516899993,None,1043.8455266869987,None,1043.8455266869987,None,1043.8455266869987,None,1043.8455266869987,None,,,,,,,,,,,,,,,,,,,,,,,,,,,,,,,,,,,,,,,,,,,,001,150,2020_Feb_20_1154,spring_faces,3.1.5,60.04125795113356,
condition files/Stage1_1.xlsx,,T2,B2,m,"['c', 'm']","['Clue', 'Monopoly']","[-0.15, 0.5]","[0.15, 0.5]",1,1,,,,,,,,,0,10,10,10,0,1,1,3,,,,,,,,,,,,,,,,,,,,,,,,,,,,,,,,,,,,,,,,,,,,,,,,,,,,,,,1045.811695336999,None,1045.811695336999,None,1045.811695336999,None,m,1,1.843469613999332,1047.346068560999,None,1047.346068560999,None,1047.346068560999,None,1049.261917681999,None,1049.261917681999,None,1049.261917681999,None,1049.261917681999,None,,,,,,,,,,,,,,,,,,,,,,,,,,,,,,,,,,,,,,,,,,,,001,150,2020_Feb_20_1154,spring_faces,3.1.5,60.04125795113356,
condition files/Stage1_1.xlsx,,T1,B1,c,"['c', 'm']","['Clue', 'Monopoly']","[-0.15, 0.5]","[0.15, 0.5]",1,1,,,,,,,,,0,10,10,10,0,2,2,0,,,,,,,,,,,,,,,,,,,,,,,,,,,,,,,,,,,,,,,,,,,,,,,,,,,,,,,1051.2114377569997,None,1051.2114377569997,None,1051.2114377569997,None,c,1,1.5959142749998136,1052.7456334519993,None,1052.7456334519993,None,1052.7456334519993,None,1054.412043725999,None,1054.412043725999,None,1054.412043725999,None,1054.412043725999,None,,,,,,,,,,,,,,,,,,,,,,,,,,,,,,,,,,,,,,,,,,,,001,150,2020_Feb_20_1154,spring_faces,3.1.5,60.04125795113356,
condition files/Stage1_1.xlsx,,T4,B3,m,"['c', 'm']","['Clue', 'Monopoly']","[-0.15, 0.5]","[0.15, 0.5]",1,1,,,,,,,,,0,10,10,10,0,3,3,6,,,,,,,,,,,,,,,,,,,,,,,,,,,,,,,,,,,,,,,,,,,,,,,,,,,,,,,1056.3617705509987,None,1056.3617705509987,None,1056.3617705509987,None,m,1,1.0693895949989383,1057.8961505059997,None,1057.8961505059997,None,1057.8961505059997,None,1059.0299014479988,None,1059.0299014479988,None,1059.0299014479988,None,1059.0299014479988,None,,,,,,,,,,,,,,,,,,,,,,,,,,,,,,,,,,,,,,,,,,,,001,150,2020_Feb_20_1154,spring_faces,3.1.5,60.04125795113356,
condition files/Stage1_1.xlsx,,B2,T1,m,"['c', 'm']","['Clue', 'Monopoly']","[-0.15, 0.5]","[0.15, 0.5]",1,1,,,,,,,,,0,10,10,10,0,4,4,2,,,,,,,,,,,,,,,,,,,,,,,,,,,,,,,,,,,,,,,,,,,,,,,,,,,,,,,1060.9948826559994,None,1060.9948826559994,None,1060.9948826559994,None,c,0,0.9333127530007914,1062.5282362479993,None,1062.5282362479993,None,1062.5282362479993,None,1063.512048393999,None,1063.512048393999,None,1063.512048393999,None,1063.512048393999,None,,,,,,,,,,,,,,,,,,,,,,,,,,,,,,,,,,,,,,,,,,,,001,150,2020_Feb_20_1154,spring_faces,3.1.5,60.04125795113356,
condition files/Stage1_1.xlsx,,T3,B4,c,"['c', 'm']","['Clue', 'Monopoly']","[-0.15, 0.5]","[0.15, 0.5]",1,1,,,,,,,,,0,10,10,10,0,5,5,5,,,,,,,,,,,,,,,,,,,,,,,,,,,,,,,,,,,,,,,,,,,,,,,,,,,,,,,1065.4783171639992,None,1065.4783171639992,None,1065.4783171639992,None,c,1,1.1364603149995673,1067.0130789429986,None,1067.0130789429986,None,1067.0130789429986,None,1068.2128348419992,None,1068.2128348419992,None,1068.2128348419992,None,1068.2128348419992,None,,,,,,,,,,,,,,,,,,,,,,,,,,,,,,,,,,,,,,,,,,,,001,150,2020_Feb_20_1154,spring_faces,3.1.5,60.04125795113356,
condition files/Stage1_1.xlsx,,B1,T2,c,"['c', 'm']","['Clue', 'Monopoly']","[-0.15, 0.5]","[0.15, 0.5]",1,1,,,,,,,,,0,10,10,10,0,6,6,1,,,,,,,,,,,,,,,,,,,,,,,,,,,,,,,,,,,,,,,,,,,,,,,,,,,,,,,1070.1782848120001,None,1070.1782848120001,None,1070.1782848120001,None,c,1,3.2050966050010175,1071.7125001519998,None,1071.7125001519998,None,1071.7125001519998,None,1074.9787254980001,None,1074.9787254980001,None,1074.9787254980001,None,1074.9787254980001,None,,,,,,,,,,,,,,,,,,,,,,,,,,,,,,,,,,,,,,,,,,,,001,150,2020_Feb_20_1154,spring_faces,3.1.5,60.04125795113356,
condition files/Stage1_1.xlsx,,B4,T4,m,"['c', 'm']","['Clue', 'Monopoly']","[-0.15, 0.5]","[0.15, 0.5]",1,1,,,,,,,,,0,10,10,10,0,7,7,7,,,,,,,,,,,,,,,,,,,,,,,,,,,,,,,,,,,,,,,,,,,,,,,,,,,,,,,1076.9449740950004,None,1076.9449740950004,None,1076.9449740950004,None,m,1,0.8864222920001339,1078.4951054829999,None,1078.4951054829999,None,1078.4951054829999,None,1079.4449934410004,None,1079.4449934410004,None,1079.4449934410004,None,1079.4449934410004,None,,,,,,,,,,,,,,,,,,,,,,,,,,,,,,,,,,,,,,,,,,,,001,150,2020_Feb_20_1154,spring_faces,3.1.5,60.04125795113356,
condition files/Stage1_2.xlsx,,T3,B3,c,"['c', 'm']","['Clue', 'Monopoly']","[-0.15, 0.5]","[0.15, 0.5]",1,1,,,,,,,,,0,11,11,11,0,0,0,4,,,,,,,,,,,,,,,,,,,,,,,,,,,,,,,,,,,,,,,,,,,,,,,,,,,,,,,1081.4285542549987,None,1081.4285542549987,None,1081.4285542549987,None,c,1,0.6760748990000138,1082.9615583649993,None,1082.9615583649993,None,1082.9615583649993,None,1083.694701680999,None,1083.694701680999,None,1083.694701680999,None,1083.694701680999,None,,,,,,,,,,,,,,,,,,,,,,,,,,,,,,,,,,,,,,,,,,,,001,150,2020_Feb_20_1154,spring_faces,3.1.5,60.04125795113356,
condition files/Stage1_2.xlsx,,B3,T4,m,"['c', 'm']","['Clue', 'Monopoly']","[-0.15, 0.5]","[0.15, 0.5]",1,1,,,,,,,,,0,11,11,11,0,1,1,6,,,,,,,,,,,,,,,,,,,,,,,,,,,,,,,,,,,,,,,,,,,,,,,,,,,,,,,1085.6617229160001,None,1085.6617229160001,None,1085.6617229160001,None,m,1,0.8262517929997557,1087.1953314169987,None,1087.1953314169987,None,1087.1953314169987,None,1088.0794954169996,None,1088.0794954169996,None,1088.0794954169996,None,1088.0794954169996,None,,,,,,,,,,,,,,,,,,,,,,,,,,,,,,,,,,,,,,,,,,,,001,150,2020_Feb_20_1154,spring_faces,3.1.5,60.04125795113356,
condition files/Stage1_2.xlsx,,B2,T2,m,"['c', 'm']","['Clue', 'Monopoly']","[-0.15, 0.5]","[0.15, 0.5]",1,1,,,,,,,,,0,11,11,11,0,2,2,3,,,,,,,,,,,,,,,,,,,,,,,,,,,,,,,,,,,,,,,,,,,,,,,,,,,,,,,1090.0446581409997,None,1090.0446581409997,None,1090.0446581409997,None,c,0,1.0834550149993447,1091.5780929840002,None,1091.5780929840002,None,1091.5780929840002,None,1092.711645063,None,1092.711645063,None,1092.711645063,None,1092.711645063,None,,,,,,,,,,,,,,,,,,,,,,,,,,,,,,,,,,,,,,,,,,,,001,150,2020_Feb_20_1154,spring_faces,3.1.5,60.04125795113356,
condition files/Stage1_2.xlsx,,T4,B4,m,"['c', 'm']","['Clue', 'Monopoly']","[-0.15, 0.5]","[0.15, 0.5]",1,1,,,,,,,,,0,11,11,11,0,3,3,7,,,,,,,,,,,,,,,,,,,,,,,,,,,,,,,,,,,,,,,,,,,,,,,,,,,,,,,1094.6782713310004,None,1094.6782713310004,None,1094.6782713310004,None,m,1,1.7607359300000098,1096.228791104999,None,1096.228791104999,None,1096.228791104999,None,1098.044800063999,None,1098.044800063999,None,1098.044800063999,None,1098.044800063999,None,,,,,,,,,,,,,,,,,,,,,,,,,,,,,,,,,,,,,,,,,,,,001,150,2020_Feb_20_1154,spring_faces,3.1.5,60.04125795113356,
condition files/Stage1_2.xlsx,,T2,B1,c,"['c', 'm']","['Clue', 'Monopoly']","[-0.15, 0.5]","[0.15, 0.5]",1,1,,,,,,,,,0,11,11,11,0,4,4,1,,,,,,,,,,,,,,,,,,,,,,,,,,,,,,,,,,,,,,,,,,,,,,,,,,,,,,,1100.01174421,None,1100.01174421,None,1100.01174421,None,c,1,1.610764951999954,1101.5467499789993,None,1101.5467499789993,None,1101.5467499789993,None,1103.2117853309992,None,1103.2117853309992,None,1103.2117853309992,None,1103.2117853309992,None,,,,,,,,,,,,,,,,,,,,,,,,,,,,,,,,,,,,,,,,,,,,001,150,2020_Feb_20_1154,spring_faces,3.1.5,60.04125795113356,
condition files/Stage1_2.xlsx,,T1,B2,m,"['c', 'm']","['Clue', 'Monopoly']","[-0.15, 0.5]","[0.15, 0.5]",1,1,,,,,,,,,0,11,11,11,0,5,5,2,,,,,,,,,,,,,,,,,,,,,,,,,,,,,,,,,,,,,,,,,,,,,,,,,,,,,,,1105.178036289999,None,1105.178036289999,None,1105.178036289999,None,m,1,0.8286389910008438,1106.712903956999,None,1106.712903956999,None,1106.712903956999,None,1107.5979046020002,None,1107.5979046020002,None,1107.5979046020002,None,1107.5979046020002,None,,,,,,,,,,,,,,,,,,,,,,,,,,,,,,,,,,,,,,,,,,,,001,150,2020_Feb_20_1154,spring_faces,3.1.5,60.04125795113356,
condition files/Stage1_2.xlsx,,B4,T3,c,"['c', 'm']","['Clue', 'Monopoly']","[-0.15, 0.5]","[0.15, 0.5]",1,1,,,,,,,,,0,11,11,11,0,6,6,5,,,,,,,,,,,,,,,,,,,,,,,,,,,,,,,,,,,,,,,,,,,,,,,,,,,,,,,1109.5616984139997,None,1109.5616984139997,None,1109.5616984139997,None,c,1,1.2454453779992036,1111.0961003039993,None,1111.0961003039993,None,1111.0961003039993,None,1112.3952288069995,None,1112.3952288069995,None,1112.3952288069995,None,1112.3952288069995,None,,,,,,,,,,,,,,,,,,,,,,,,,,,,,,,,,,,,,,,,,,,,001,150,2020_Feb_20_1154,spring_faces,3.1.5,60.04125795113356,
condition files/Stage1_2.xlsx,,B1,T1,c,"['c', 'm']","['Clue', 'Monopoly']","[-0.15, 0.5]","[0.15, 0.5]",1,1,,,,,,,,,0,11,11,11,0,7,7,0,,,,,,,,,,,,,,,,,,,,,,,,,,,,,,,,,,,,,,,,,,,,,,,,,,,,,,,1114.361254956999,None,1114.361254956999,None,1114.361254956999,None,c,1,2.6525653720000264,1115.8969853159997,None,1115.8969853159997,None,1115.8969853159997,None,1118.611363660999,None,1118.611363660999,None,1118.611363660999,None,1118.611363660999,None,,,,,,,,,,,,,,,,,,,,,,,,,,,,,,,,,,,,,,,,,,,,001,150,2020_Feb_20_1154,spring_faces,3.1.5,60.04125795113356,
,,,,,,,,,,,,,,,,,,,,,,,,,,,,,,,,,,,,,,,,,,,,,,,,,,,,,,,,,,,,,,,,,,,,,,,,,,,,,,,,,,,,,,,,,,,,,,,,,,,,,,,,,,,,,,,,1120.5954053839996,None,space,4.490545974998895,1125.5950622229993,None,,,,,,,,,,,,,,,,,,,,,,,,,,,,,,001,150,2020_Feb_20_1154,spring_faces,3.1.5,60.04125795113356,
condition files/Stage2_1.xlsx,,T3,B3,s,"['s', 'r']","['Stratego', 'Risk']","[-0.15, 0.5]","[0.15, 0.5]",1,1,,,,,,,,,,,,,,,,,0,0,0,0,0,0,0,4,,,,,,,,,,,,,,,,,,,,,,,,,,,,,,,,,,,,,,,,,,,,,,,1130.1454335990002,None,1130.1454335990002,None,1130.1454335990002,None,s,1,0.82274434700048,1131.6468674429998,None,1131.6468674429998,None,1131.6468674429998,None,1132.5445549340002,None,1132.5445549340002,None,1132.5445549340002,None,1132.5445549340002,None,,,,,,,,,,,,,,,1125.5950622229993,None,,,,,,,,,,,,,,,,,,,,,,,,,,,,001,150,2020_Feb_20_1154,spring_faces,3.1.5,60.04125795113356,
condition files/Stage2_1.xlsx,,B4,T4,r,"['s', 'r']","['Stratego', 'Risk']","[-0.15, 0.5]","[0.15, 0.5]",1,1,,,,,,,,,,,,,,,,,0,0,0,0,0,1,1,5,,,,,,,,,,,,,,,,,,,,,,,,,,,,,,,,,,,,,,,,,,,,,,,1134.4942930059988,None,1134.4942930059988,None,1134.4942930059988,None,r,1,0.7764173720006511,1136.029078783,None,1136.029078783,None,1136.029078783,None,1136.8640673999998,None,1136.8640673999998,None,1136.8640673999998,None,1136.8640673999998,None,,,,,,,,,,,,,,,,,,,,,,,,,,,,,,,,,,,,,,,,,,,,001,150,2020_Feb_20_1154,spring_faces,3.1.5,60.04125795113356,
condition files/Stage2_1.xlsx,,B2,T2,r,"['s', 'r']","['Stratego', 'Risk']","[-0.15, 0.5]","[0.15, 0.5]",1,1,,,,,,,,,,,,,,,,,0,0,0,0,0,2,2,3,,,,,,,,,,,,,,,,,,,,,,,,,,,,,,,,,,,,,,,,,,,,,,,1138.8284554099992,None,1138.8284554099992,None,1138.8284554099992,None,r,1,1.3548549299994193,1140.3786828819993,None,1140.3786828819993,None,1140.3786828819993,None,1141.7954428909998,None,1141.7954428909998,None,1141.7954428909998,None,1141.7954428909998,None,,,,,,,,,,,,,,,,,,,,,,,,,,,,,,,,,,,,,,,,,,,,001,150,2020_Feb_20_1154,spring_faces,3.1.5,60.04125795113356,
condition files/Stage2_1.xlsx,,B6,T6,r,"['s', 'r']","['Stratego', 'Risk']","[-0.15, 0.5]","[0.15, 0.5]",1,1,,,,,,,,,,,,,,,,,0,0,0,0,0,3,3,1,,,,,,,,,,,,,,,,,,,,,,,,,,,,,,,,,,,,,,,,,,,,,,,1143.761829744999,None,1143.761829744999,None,1143.761829744999,None,s,0,1.1415836150008545,1145.3120142959997,None,1145.3120142959997,None,1145.3120142959997,None,1146.5115543479988,None,1146.5115543479988,None,1146.5115543479988,None,1146.5115543479988,None,,,,,,,,,,,,,,,,,,,,,,,,,,,,,,,,,,,,,,,,,,,,001,150,2020_Feb_20_1154,spring_faces,3.1.5,60.04125795113356,
condition files/Stage2_1.xlsx,,T5,B5,s,"['s', 'r']","['Stratego', 'Risk']","[-0.15, 0.5]","[0.15, 0.5]",1,1,,,,,,,,,,,,,,,,,0,0,0,0,0,4,4,0,,,,,,,,,,,,,,,,,,,,,,,,,,,,,,,,,,,,,,,,,,,,,,,1148.4779804379996,None,1148.4779804379996,None,1148.4779804379996,None,r,0,0.6966076039989275,1150.012928192,None,1150.012928192,None,1150.012928192,None,1150.7782117979987,None,1150.7782117979987,None,1150.7782117979987,None,1150.7782117979987,None,,,,,,,,,,,,,,,,,,,,,,,,,,,,,,,,,,,,,,,,,,,,001,150,2020_Feb_20_1154,spring_faces,3.1.5,60.04125795113356,
condition files/Stage2_1.xlsx,,T1,B1,s,"['s', 'r']","['Stratego', 'Risk']","[-0.15, 0.5]","[0.15, 0.5]",1,1,,,,,,,,,,,,,,,,,0,0,0,0,0,5,5,2,,,,,,,,,,,,,,,,,,,,,,,,,,,,,,,,,,,,,,,,,,,,,,,1152.7282194349991,None,1152.7282194349991,None,1152.7282194349991,None,r,0,1.4394223889994464,1154.262203406999,None,1154.262203406999,None,1154.262203406999,None,1155.762136301999,None,1155.762136301999,None,1155.762136301999,None,1155.762136301999,None,,,,,,,,,,,,,,,,,,,,,,,,,,,,,,,,,,,,,,,,,,,,001,150,2020_Feb_20_1154,spring_faces,3.1.5,60.04125795113356,
condition files/Stage2_2.xlsx,,T4,B4,r,"['s', 'r']","['Stratego', 'Risk']","[-0.15, 0.5]","[0.15, 0.5]",1,1,,,,,,,,,,,,,,,,,0,1,1,1,0,0,0,5,,,,,,,,,,,,,,,,,,,,,,,,,,,,,,,,,,,,,,,,,,,,,,,1157.745353881999,None,1157.745353881999,None,1157.745353881999,None,s,0,1.287511638000069,1159.2780437599995,None,1159.2780437599995,None,1159.2780437599995,None,1160.6280663839989,None,1160.6280663839989,None,1160.6280663839989,None,1160.6280663839989,None,,,,,,,,,,,,,,,,,,,,,,,,,,,,,,,,,,,,,,,,,,,,001,150,2020_Feb_20_1154,spring_faces,3.1.5,60.04125795113356,
condition files/Stage2_2.xlsx,,T6,B6,r,"['s', 'r']","['Stratego', 'Risk']","[-0.15, 0.5]","[0.15, 0.5]",1,1,,,,,,,,,,,,,,,,,0,1,1,1,0,1,1,1,,,,,,,,,,,,,,,,,,,,,,,,,,,,,,,,,,,,,,,,,,,,,,,1162.5950001839992,None,1162.5950001839992,None,1162.5950001839992,None,s,0,1.7319886320001388,1164.1295557989997,None,1164.1295557989997,None,1164.1295557989997,None,1165.9118391809989,None,1165.9118391809989,None,1165.9118391809989,None,1165.9118391809989,None,,,,,,,,,,,,,,,,,,,,,,,,,,,,,,,,,,,,,,,,,,,,001,150,2020_Feb_20_1154,spring_faces,3.1.5,60.04125795113356,
condition files/Stage2_2.xlsx,,T2,B2,r,"['s', 'r']","['Stratego', 'Risk']","[-0.15, 0.5]","[0.15, 0.5]",1,1,,,,,,,,,,,,,,,,,0,1,1,1,0,2,2,3,,,,,,,,,,,,,,,,,,,,,,,,,,,,,,,,,,,,,,,,,,,,,,,1167.8780337869994,None,1167.8780337869994,None,1167.8780337869994,None,r,1,0.5130348999991838,1169.412503738,None,1169.412503738,None,1169.412503738,None,1169.9782642129994,None,1169.9782642129994,None,1169.9782642129994,None,1169.9782642129994,None,,,,,,,,,,,,,,,,,,,,,,,,,,,,,,,,,,,,,,,,,,,,001,150,2020_Feb_20_1154,spring_faces,3.1.5,60.04125795113356,
condition files/Stage2_2.xlsx,,B5,T5,s,"['s', 'r']","['Stratego', 'Risk']","[-0.15, 0.5]","[0.15, 0.5]",1,1,,,,,,,,,,,,,,,,,0,1,1,1,0,3,3,0,,,,,,,,,,,,,,,,,,,,,,,,,,,,,,,,,,,,,,,,,,,,,,,1171.9447868299994,None,1171.9447868299994,None,1171.9447868299994,None,s,1,1.2141777859997092,1173.4953245519991,None,1173.4953245519991,None,1173.4953245519991,None,1174.7788013359987,None,1174.7788013359987,None,1174.7788013359987,None,1174.7788013359987,None,,,,,,,,,,,,,,,,,,,,,,,,,,,,,,,,,,,,,,,,,,,,001,150,2020_Feb_20_1154,spring_faces,3.1.5,60.04125795113356,
condition files/Stage2_2.xlsx,,B1,T1,s,"['s', 'r']","['Stratego', 'Risk']","[-0.15, 0.5]","[0.15, 0.5]",1,1,,,,,,,,,,,,,,,,,0,1,1,1,0,4,4,2,,,,,,,,,,,,,,,,,,,,,,,,,,,,,,,,,,,,,,,,,,,,,,,1176.7283893219992,None,1176.7283893219992,None,1176.7283893219992,None,s,1,2.159921217998999,1178.261674116,None,1178.261674116,None,1178.261674116,None,1180.478684075999,None,1180.478684075999,None,1180.478684075999,None,1180.478684075999,None,,,,,,,,,,,,,,,,,,,,,,,,,,,,,,,,,,,,,,,,,,,,001,150,2020_Feb_20_1154,spring_faces,3.1.5,60.04125795113356,
condition files/Stage2_2.xlsx,,B3,T3,s,"['s', 'r']","['Stratego', 'Risk']","[-0.15, 0.5]","[0.15, 0.5]",1,1,,,,,,,,,,,,,,,,,0,1,1,1,0,5,5,4,,,,,,,,,,,,,,,,,,,,,,,,,,,,,,,,,,,,,,,,,,,,,,,1182.4447930400001,None,1182.4447930400001,None,1182.4447930400001,None,r,0,0.8743872680006461,1183.9792198209998,None,1183.9792198209998,None,1183.9792198209998,None,1184.9119270479987,None,1184.9119270479987,None,1184.9119270479987,None,1184.9119270479987,None,,,,,,,,,,,,,,,,,,,,,,,,,,,,,,,,,,,,,,,,,,,,001,150,2020_Feb_20_1154,spring_faces,3.1.5,60.04125795113356,
condition files/Stage2_1.xlsx,,B2,T2,r,"['s', 'r']","['Stratego', 'Risk']","[-0.15, 0.5]","[0.15, 0.5]",1,1,,,,,,,,,,,,,,,,,0,2,2,2,0,0,0,3,,,,,,,,,,,,,,,,,,,,,,,,,,,,,,,,,,,,,,,,,,,,,,,1186.8950365839992,None,1186.8950365839992,None,1186.8950365839992,None,s,0,1.864895314000023,1188.428656012,None,1188.428656012,None,1188.428656012,None,1190.3448337070004,None,1190.3448337070004,None,1190.3448337070004,None,1190.3448337070004,None,,,,,,,,,,,,,,,,,,,,,,,,,,,,,,,,,,,,,,,,,,,,001,150,2020_Feb_20_1154,spring_faces,3.1.5,60.04125795113356,
condition files/Stage2_1.xlsx,,T1,B1,s,"['s', 'r']","['Stratego', 'Risk']","[-0.15, 0.5]","[0.15, 0.5]",1,1,,,,,,,,,,,,,,,,,0,2,2,2,0,1,1,2,,,,,,,,,,,,,,,,,,,,,,,,,,,,,,,,,,,,,,,,,,,,,,,1192.3116068210002,None,1192.3116068210002,None,1192.3116068210002,None,r,0,0.5261750120007491,1193.847326866,None,1193.847326866,None,1193.847326866,None,1194.4310962829986,None,1194.4310962829986,None,1194.4310962829986,None,1194.4310962829986,None,,,,,,,,,,,,,,,,,,,,,,,,,,,,,,,,,,,,,,,,,,,,001,150,2020_Feb_20_1154,spring_faces,3.1.5,60.04125795113356,
condition files/Stage2_1.xlsx,,B4,T4,r,"['s', 'r']","['Stratego', 'Risk']","[-0.15, 0.5]","[0.15, 0.5]",1,1,,,,,,,,,,,,,,,,,0,2,2,2,0,2,2,5,,,,,,,,,,,,,,,,,,,,,,,,,,,,,,,,,,,,,,,,,,,,,,,1196.395360638,None,1196.395360638,None,1196.395360638,None,r,1,2.5572887739999715,1197.9283127849994,None,1197.9283127849994,None,1197.9283127849994,None,1200.5614059250001,None,1200.5614059250001,None,1200.5614059250001,None,1200.5614059250001,None,,,,,,,,,,,,,,,,,,,,,,,,,,,,,,,,,,,,,,,,,,,,001,150,2020_Feb_20_1154,spring_faces,3.1.5,60.04125795113356,
condition files/Stage2_1.xlsx,,B6,T6,r,"['s', 'r']","['Stratego', 'Risk']","[-0.15, 0.5]","[0.15, 0.5]",1,1,,,,,,,,,,,,,,,,,0,2,2,2,0,3,3,1,,,,,,,,,,,,,,,,,,,,,,,,,,,,,,,,,,,,,,,,,,,,,,,1202.5117831169991,None,1202.5117831169991,None,1202.5117831169991,None,s,0,0.6003228259996831,1204.0451856299987,None,1204.0451856299987,None,1204.0451856299987,None,1204.7122288190003,None,1204.7122288190003,None,1204.7122288190003,None,1204.7122288190003,None,,,,,,,,,,,,,,,,,,,,,,,,,,,,,,,,,,,,,,,,,,,,001,150,2020_Feb_20_1154,spring_faces,3.1.5,60.04125795113356,
condition files/Stage2_1.xlsx,,T5,B5,s,"['s', 'r']","['Stratego', 'Risk']","[-0.15, 0.5]","[0.15, 0.5]",1,1,,,,,,,,,,,,,,,,,0,2,2,2,0,4,4,0,,,,,,,,,,,,,,,,,,,,,,,,,,,,,,,,,,,,,,,,,,,,,,,1206.6784908669997,None,1206.6784908669997,None,1206.6784908669997,None,r,0,2.977394899000501,1208.2121514219998,None,1208.2121514219998,None,1208.2121514219998,None,1211.2467409740002,None,1211.2467409740002,None,1211.2467409740002,None,1211.2467409740002,None,,,,,,,,,,,,,,,,,,,,,,,,,,,,,,,,,,,,,,,,,,,,001,150,2020_Feb_20_1154,spring_faces,3.1.5,60.04125795113356,
condition files/Stage2_1.xlsx,,T3,B3,s,"['s', 'r']","['Stratego', 'Risk']","[-0.15, 0.5]","[0.15, 0.5]",1,1,,,,,,,,,,,,,,,,,0,2,2,2,0,5,5,4,,,,,,,,,,,,,,,,,,,,,,,,,,,,,,,,,,,,,,,,,,,,,,,1213.211735457,None,1213.211735457,None,1213.211735457,None,s,1,1.756716313000652,1214.744891876,None,1214.744891876,None,1214.744891876,None,1216.5615946879989,None,1216.5615946879989,None,1216.5615946879989,None,1216.5615946879989,None,,,,,,,,,,,,,,,,,,,,,,,,,,,,,,,,,,,,,,,,,,,,001,150,2020_Feb_20_1154,spring_faces,3.1.5,60.04125795113356,
condition files/Stage2_2.xlsx,,T2,B2,r,"['s', 'r']","['Stratego', 'Risk']","[-0.15, 0.5]","[0.15, 0.5]",1,1,,,,,,,,,,,,,,,,,0,3,3,3,0,0,0,3,,,,,,,,,,,,,,,,,,,,,,,,,,,,,,,,,,,,,,,,,,,,,,,1218.5450111520004,None,1218.5450111520004,None,1218.5450111520004,None,r,1,0.5986227539997344,1220.0789208759998,None,1220.0789208759998,None,1220.0789208759998,None,1220.7453439539986,None,1220.7453439539986,None,1220.7453439539986,None,1220.7453439539986,None,,,,,,,,,,,,,,,,,,,,,,,,,,,,,,,,,,,,,,,,,,,,001,150,2020_Feb_20_1154,spring_faces,3.1.5,60.04125795113356,
condition files/Stage2_2.xlsx,,T6,B6,r,"['s', 'r']","['Stratego', 'Risk']","[-0.15, 0.5]","[0.15, 0.5]",1,1,,,,,,,,,,,,,,,,,0,3,3,3,0,1,1,1,,,,,,,,,,,,,,,,,,,,,,,,,,,,,,,,,,,,,,,,,,,,,,,1222.6951209589988,None,1222.6951209589988,None,1222.6951209589988,None,r,1,0.48113580500103126,1224.22840937,None,1224.22840937,None,1224.22840937,None,1224.7620372399997,None,1224.7620372399997,None,1224.7620372399997,None,1224.7620372399997,None,,,,,,,,,,,,,,,,,,,,,,,,,,,,,,,,,,,,,,,,,,,,001,150,2020_Feb_20_1154,spring_faces,3.1.5,60.04125795113356,
condition files/Stage2_2.xlsx,,B5,T5,s,"['s', 'r']","['Stratego', 'Risk']","[-0.15, 0.5]","[0.15, 0.5]",1,1,,,,,,,,,,,,,,,,,0,3,3,3,0,2,2,0,,,,,,,,,,,,,,,,,,,,,,,,,,,,,,,,,,,,,,,,,,,,,,,1226.7284731789987,None,1226.7284731789987,None,1226.7284731789987,None,s,1,0.8298739539986855,1228.2636702809996,None,1228.2636702809996,None,1228.2636702809996,None,1229.161896092999,None,1229.161896092999,None,1229.161896092999,None,1229.161896092999,None,,,,,,,,,,,,,,,,,,,,,,,,,,,,,,,,,,,,,,,,,,,,001,150,2020_Feb_20_1154,spring_faces,3.1.5,60.04125795113356,
condition files/Stage2_2.xlsx,,B3,T3,s,"['s', 'r']","['Stratego', 'Risk']","[-0.15, 0.5]","[0.15, 0.5]",1,1,,,,,,,,,,,,,,,,,0,3,3,3,0,3,3,4,,,,,,,,,,,,,,,,,,,,,,,,,,,,,,,,,,,,,,,,,,,,,,,1231.1115674720004,None,1231.1115674720004,None,1231.1115674720004,None,r,0,0.6566668070008745,1232.644879374,None,1232.644879374,None,1232.644879374,None,1233.3619887679997,None,1233.3619887679997,None,1233.3619887679997,None,1233.3619887679997,None,,,,,,,,,,,,,,,,,,,,,,,,,,,,,,,,,,,,,,,,,,,,001,150,2020_Feb_20_1154,spring_faces,3.1.5,60.04125795113356,
condition files/Stage2_2.xlsx,,B1,T1,s,"['s', 'r']","['Stratego', 'Risk']","[-0.15, 0.5]","[0.15, 0.5]",1,1,,,,,,,,,,,,,,,,,0,3,3,3,0,4,4,2,,,,,,,,,,,,,,,,,,,,,,,,,,,,,,,,,,,,,,,,,,,,,,,1235.3283772129998,None,1235.3283772129998,None,1235.3283772129998,None,s,1,0.6311773990000802,1236.8623498469988,None,1236.8623498469988,None,1236.8623498469988,None,1237.5455633239999,None,1237.5455633239999,None,1237.5455633239999,None,1237.5455633239999,None,,,,,,,,,,,,,,,,,,,,,,,,,,,,,,,,,,,,,,,,,,,,001,150,2020_Feb_20_1154,spring_faces,3.1.5,60.04125795113356,
condition files/Stage2_2.xlsx,,T4,B4,r,"['s', 'r']","['Stratego', 'Risk']","[-0.15, 0.5]","[0.15, 0.5]",1,1,,,,,,,,,,,,,,,,,0,3,3,3,0,5,5,5,,,,,,,,,,,,,,,,,,,,,,,,,,,,,,,,,,,,,,,,,,,,,,,1239.511726016999,None,1239.511726016999,None,1239.511726016999,None,s,0,1.0879215149998345,1241.045644083999,None,1241.045644083999,None,1241.045644083999,None,1242.1948345599994,None,1242.1948345599994,None,1242.1948345599994,None,1242.1948345599994,None,,,,,,,,,,,,,,,,,,,,,,,,,,,,,,,,,,,,,,,,,,,,001,150,2020_Feb_20_1154,spring_faces,3.1.5,60.04125795113356,
condition files/Stage2_1.xlsx,,B6,T6,r,"['s', 'r']","['Stratego', 'Risk']","[-0.15, 0.5]","[0.15, 0.5]",1,1,,,,,,,,,,,,,,,,,0,4,4,4,0,0,0,1,,,,,,,,,,,,,,,,,,,,,,,,,,,,,,,,,,,,,,,,,,,,,,,1244.1781334749994,None,1244.1781334749994,None,1244.1781334749994,None,r,1,1.3002319639999769,1245.7132719109995,None,1245.7132719109995,None,1245.7132719109995,None,1247.0786962949987,None,1247.0786962949987,None,1247.0786962949987,None,1247.0786962949987,None,,,,,,,,,,,,,,,,,,,,,,,,,,,,,,,,,,,,,,,,,,,,001,150,2020_Feb_20_1154,spring_faces,3.1.5,60.04125795113356,
condition files/Stage2_1.xlsx,,T1,B1,s,"['s', 'r']","['Stratego', 'Risk']","[-0.15, 0.5]","[0.15, 0.5]",1,1,,,,,,,,,,,,,,,,,0,4,4,4,0,1,1,2,,,,,,,,,,,,,,,,,,,,,,,,,,,,,,,,,,,,,,,,,,,,,,,1249.0449953989992,None,1249.0449953989992,None,1249.0449953989992,None,s,1,1.1872921610010962,1250.5782541139997,None,1250.5782541139997,None,1250.5782541139997,None,1251.8448927059999,None,1251.8448927059999,None,1251.8448927059999,None,1251.8448927059999,None,,,,,,,,,,,,,,,,,,,,,,,,,,,,,,,,,,,,,,,,,,,,001,150,2020_Feb_20_1154,spring_faces,3.1.5,60.04125795113356,
condition files/Stage2_1.xlsx,,T3,B3,s,"['s', 'r']","['Stratego', 'Risk']","[-0.15, 0.5]","[0.15, 0.5]",1,1,,,,,,,,,,,,,,,,,0,4,4,4,0,2,2,4,,,,,,,,,,,,,,,,,,,,,,,,,,,,,,,,,,,,,,,,,,,,,,,1253.7951803220003,None,1253.7951803220003,None,1253.7951803220003,None,s,1,0.9492494040005113,1255.328293781,None,1255.328293781,None,1255.328293781,None,1256.3286982829995,None,1256.3286982829995,None,1256.3286982829995,None,1256.3286982829995,None,,,,,,,,,,,,,,,,,,,,,,,,,,,,,,,,,,,,,,,,,,,,001,150,2020_Feb_20_1154,spring_faces,3.1.5,60.04125795113356,
