condsFile,subStage,cue1,cue2,correct,responseKeys,responseNames,cue1Position,cue2Position,cue1Opacity,cue2Opacity,stageLoop0.thisRepN,stageLoop0.thisTrialN,stageLoop0.thisN,stageLoop0.thisIndex,blockLoop0.thisRepN,blockLoop0.thisTrialN,blockLoop0.thisN,blockLoop0.thisIndex,stage1Loop.thisRepN,stage1Loop.thisTrialN,stage1Loop.thisN,stage1Loop.thisIndex,blockLoop1.thisRepN,blockLoop1.thisTrialN,blockLoop1.thisN,blockLoop1.thisIndex,stage2Loop.thisRepN,stage2Loop.thisTrialN,stage2Loop.thisN,stage2Loop.thisIndex,blockLoop2.thisRepN,blockLoop2.thisTrialN,blockLoop2.thisN,blockLoop2.thisIndex,testLoop.thisRepN,testLoop.thisTrialN,testLoop.thisN,testLoop.thisIndex,blockLoopTest.thisRepN,blockLoopTest.thisTrialN,blockLoopTest.thisN,blockLoopTest.thisIndex,cuePics,id_instr_text.started,id_instr_text.stopped,space_to_continue_2.started,space_to_continue_2.stopped,end_instructions_resp_3.keys,end_instructions_resp_3.rt,end_instructions_resp_3.started,end_instructions_resp_3.stopped,id_input_instr.started,id_input_instr.stopped,id_input_rect.started,id_input_rect.stopped,id_input_resp.keys,id_input_resp.rt,id_input_resp.started,id_input_resp.stopped,sonaID,id_input_text.started,id_input_text.stopped,final_text.started,final_text.stopped,instructions.started,instructions.stopped,end_instructions_resp.keys,end_instructions_resp.rt,end_instructions_resp.started,end_instructions_resp.stopped,space_to_continue.started,space_to_continue.stopped,instructions_stage0.started,instructions_stage0.stopped,end_instructions_resp_stage0.keys,end_instructions_resp_stage0.rt,end_instructions_resp_stage0.started,end_instructions_resp_stage0.stopped,space_to_continue_stage0.started,space_to_continue_stage0.stopped,text.started,text.stopped,resp_text1.started,resp_text1.stopped,resp_text2.started,resp_text2.stopped,trial_resp.keys,trial_resp.corr,trial_resp.rt,trial_resp.started,trial_resp.stopped,cue1Image.started,cue1Image.stopped,cue2Image.started,cue2Image.stopped,cue1Image_fb.started,cue1Image_fb.stopped,cue2Image_fb.started,cue2Image_fb.stopped,fb_text_answer.started,fb_text_answer.stopped,feedback_image.started,feedback_image.stopped,instructions_stage1.started,instructions_stage1.stopped,end_instructions_resp_stage1.keys,end_instructions_resp_stage1.rt,end_instructions_resp_stage1.started,end_instructions_resp_stage1.stopped,space_to_continue_stage1.started,space_to_continue_stage1.stopped,instructions_2.started,instructions_2.stopped,end_instructions_resp_2.keys,end_instructions_resp_2.rt,end_instructions_resp_2.started,end_instructions_resp_2.stopped,press_space_to_continue_stage2.started,press_space_to_continue_stage2.stopped,instructions_testStage1.started,instructions_testStage1.stopped,end_instructions_resp_test1.keys,end_instructions_resp_test1.rt,end_instructions_resp_test1.started,end_instructions_resp_test1.stopped,press_space_to_continue_test1.started,press_space_to_continue_test1.stopped,cue1Image_testChoice.started,cue1Image_testChoice.stopped,cue2Image_testChoice.started,cue2Image_testChoice.stopped,test_resp.keys,test_resp.corr,test_resp.rt,test_resp.started,test_resp.stopped,cue1Image_testConf.started,cue1Image_testConf.stopped,cue2Image_testConf.started,cue2Image_testConf.stopped,conf_reminder.started,conf_reminder.stopped,conf_rating.response,conf_rating.rt,conf_rating.started,conf_rating.stopped,session,participant,date,expName,psychopyVersion,frameRate,
,,,,,,,,,,,,,,,,,,,,,,,,,,,,,,,,,,,,,,,,,,,"{'none': 'pictures/20M_AN_C.png', 'alpha': 'pictures/SHINEd_melon.png', 'beta': 'pictures/SHINEd_pear.png', 'theta': 'pictures/SHINEd_apple.png', 'phi': 'pictures/SHINEd_pepper.png', 'T1': 'pictures/36M_AN_C.png', 'T2': 'pictures/37M_AN_C.png', 'T3': 'pictures/20M_AN_C.png', 'T4': 'pictures/33M_AN_C.png', 'T5': 'pictures/25M_AN_C.png', 'T6': 'pictures/38M_AN_C.png', 'B1': 'pictures/32M_NE_C.png', 'B2': 'pictures/23M_NE_C.png', 'B3': 'pictures/22M_NE_C.png', 'B4': 'pictures/26M_NE_C.png', 'B5': 'pictures/34M_NE_C.png', 'B6': 'pictures/31M_NE_C.png'}",47.141629771000225,None,52.12456161099908,None,space,14.46674836800048,52.12456161099908,None,,,,,,,,,,,,,,,,,,,,,,,,,,,,,,,,,,,,,,,,,,,,,,,,,,,,,,,,,,,,,,,,,,,,,,,,,,,,,,,,,,,,,,,,,,,,,,,,001,15,2020_Jan_28_1418,spring_faces,3.1.5,60.06880954173199,
,,,,,,,,,,,,,,,,,,,,,,,,,,,,,,,,,,,,,,,,,,,,,,,,,,,,66.97479391500019,None,66.97479391500019,None,"['0', '3', '2', '9', 'd', 'o', 'h', 'e', 'r']","[14.320571782000115, 14.688575012000001, 20.208606547999807, 20.752497509000023, 24.320565735000855, 24.5926243670001, 30.432584300999224, 30.59262178300014, 30.800512673000412]",66.97479391500019,None,,,,,,,,,,,,,,,,,,,,,,,,,,,,,,,,,,,,,,,,,,,,,,,,,,,,,,,,,,,,,,,,,,,,,,,,,,,,,,,,,,,,,,,,001,15,2020_Jan_28_1418,spring_faces,3.1.5,60.06880954173199,
,,,,,,,,,,,,,,,,,,,,,,,,,,,,,,,,,,,,,,,,,,,,,,,,,,,,,,,,,,,,0329doher,66.97479391500019,None,66.97479391500019,None,102.85755245499968,None,space,3.4854736540000886,107.85786340999948,None,,,,,,,,,,,,,,,,,,,,,,,,,,,,,,,,,,,,,,,,,,,,,,,,,,,,,,,,,,,,,,,,,,,,,,,,,,,,,001,15,2020_Jan_28_1418,spring_faces,3.1.5,60.06880954173199,
,,,,,,,,,,,,,,,,,,,,,,,,,,,,,,,,,,,,,,,,,,,,,,,,,,,,,,,,,,,,,,,,,,,,,,,107.85786340999948,None,111.39105841499986,None,space,9.352089682999576,116.39126327299891,None,,,,,,,,,,,,,,,,,,,,,,,,,,,,,,,,,,,,,,,,,,,,,,,,,,,,,,,,,,,,,,,,,,,,,001,15,2020_Jan_28_1418,spring_faces,3.1.5,60.06880954173199,
condition files/Stage0a.xlsx,0a,alpha,none,h,"['h', 'g']","['Chess', 'Go']","[0, 0.5]","[0, 0]",1,0,0,0,0,0,0,0,0,0,,,,,,,,,,,,,,,,,,,,,,,,,,,,,,,,,,,,,,,,,,,,,,,,,,,,,,,,,,,,,116.39126327299891,None,125.80766020099873,None,125.80766020099873,None,125.80766020099873,None,h,1,2.5603675929996825,127.39105879399904,None,127.39105879399904,None,127.39105879399904,None,130.02423632799946,None,130.02423632799946,None,130.02423632799946,None,130.02423632799946,None,,,,,,,,,,,,,,,,,,,,,,,,,,,,,,,,,,,,,,,,,,,,001,15,2020_Jan_28_1418,spring_faces,3.1.5,60.06880954173199,
condition files/Stage0a.xlsx,0a,beta,none,g,"['h', 'g']","['Chess', 'Go']","[0, 0.5]","[0, 0]",1,0,0,0,0,0,0,1,1,1,,,,,,,,,,,,,,,,,,,,,,,,,,,,,,,,,,,,,,,,,,,,,,,,,,,,,,,,,,,,,,,131.97451493100016,None,131.97451493100016,None,131.97451493100016,None,g,1,1.352808556999662,133.5105686529987,None,133.5105686529987,None,133.5105686529987,None,134.9247715849997,None,134.9247715849997,None,134.9247715849997,None,134.9247715849997,None,,,,,,,,,,,,,,,,,,,,,,,,,,,,,,,,,,,,,,,,,,,,001,15,2020_Jan_28_1418,spring_faces,3.1.5,60.06880954173199,
condition files/Stage0a.xlsx,0a,beta,none,g,"['h', 'g']","['Chess', 'Go']","[0, 0.5]","[0, 0]",1,0,0,1,1,1,0,0,0,1,,,,,,,,,,,,,,,,,,,,,,,,,,,,,,,,,,,,,,,,,,,,,,,,,,,,,,,,,,,,,,,136.90769946299952,None,136.90769946299952,None,136.90769946299952,None,g,1,0.9665413160000753,138.44081194599858,None,138.44081194599858,None,138.44081194599858,None,139.4583786509993,None,139.4583786509993,None,139.4583786509993,None,139.4583786509993,None,,,,,,,,,,,,,,,,,,,,,,,,,,,,,,,,,,,,,,,,,,,,001,15,2020_Jan_28_1418,spring_faces,3.1.5,60.06880954173199,
condition files/Stage0a.xlsx,0a,alpha,none,h,"['h', 'g']","['Chess', 'Go']","[0, 0.5]","[0, 0]",1,0,0,1,1,1,0,1,1,0,,,,,,,,,,,,,,,,,,,,,,,,,,,,,,,,,,,,,,,,,,,,,,,,,,,,,,,,,,,,,,,141.4236959439986,None,141.4236959439986,None,141.4236959439986,None,h,1,0.6731634209991171,142.95816432799984,None,142.95816432799984,None,142.95816432799984,None,143.69076385900007,None,143.69076385900007,None,143.69076385900007,None,143.69076385900007,None,,,,,,,,,,,,,,,,,,,,,,,,,,,,,,,,,,,,,,,,,,,,001,15,2020_Jan_28_1418,spring_faces,3.1.5,60.06880954173199,
condition files/Stage0a.xlsx,0a,alpha,none,h,"['h', 'g']","['Chess', 'Go']","[0, 0.5]","[0, 0]",1,0,0,2,2,2,0,0,0,0,,,,,,,,,,,,,,,,,,,,,,,,,,,,,,,,,,,,,,,,,,,,,,,,,,,,,,,,,,,,,,,145.67502407699976,None,145.67502407699976,None,145.67502407699976,None,h,1,0.6632041289994959,147.20810542599975,None,147.20810542599975,None,147.20810542599975,None,147.92495516999952,None,147.92495516999952,None,147.92495516999952,None,147.92495516999952,None,,,,,,,,,,,,,,,,,,,,,,,,,,,,,,,,,,,,,,,,,,,,001,15,2020_Jan_28_1418,spring_faces,3.1.5,60.06880954173199,
condition files/Stage0a.xlsx,0a,beta,none,g,"['h', 'g']","['Chess', 'Go']","[0, 0.5]","[0, 0]",1,0,0,2,2,2,0,1,1,1,,,,,,,,,,,,,,,,,,,,,,,,,,,,,,,,,,,,,,,,,,,,,,,,,,,,,,,,,,,,,,,149.8904521509994,None,149.8904521509994,None,149.8904521509994,None,g,1,0.8141721020001569,151.42516047800018,None,151.42516047800018,None,151.42516047800018,None,152.2913540869995,None,152.2913540869995,None,152.2913540869995,None,152.2913540869995,None,,,,,,,,,,,,,,,,,,,,,,,,,,,,,,,,,,,,,,,,,,,,001,15,2020_Jan_28_1418,spring_faces,3.1.5,60.06880954173199,
condition files/Stage0a.xlsx,0a,beta,none,g,"['h', 'g']","['Chess', 'Go']","[0, 0.5]","[0, 0]",1,0,0,3,3,3,0,0,0,1,,,,,,,,,,,,,,,,,,,,,,,,,,,,,,,,,,,,,,,,,,,,,,,,,,,,,,,,,,,,,,,154.27420094300032,None,154.27420094300032,None,154.27420094300032,None,g,1,0.7829825960016024,155.80836464200002,None,155.80836464200002,None,155.80836464200002,None,156.6415502130003,None,156.6415502130003,None,156.6415502130003,None,156.6415502130003,None,,,,,,,,,,,,,,,,,,,,,,,,,,,,,,,,,,,,,,,,,,,,001,15,2020_Jan_28_1418,spring_faces,3.1.5,60.06880954173199,
condition files/Stage0a.xlsx,0a,alpha,none,h,"['h', 'g']","['Chess', 'Go']","[0, 0.5]","[0, 0]",1,0,0,3,3,3,0,1,1,0,,,,,,,,,,,,,,,,,,,,,,,,,,,,,,,,,,,,,,,,,,,,,,,,,,,,,,,,,,,,,,,158.60775956900034,None,158.60775956900034,None,158.60775956900034,None,h,1,0.5777657609996822,160.14155867800037,None,160.14155867800037,None,160.14155867800037,None,160.77441531399927,None,160.77441531399927,None,160.77441531399927,None,160.77441531399927,None,,,,,,,,,,,,,,,,,,,,,,,,,,,,,,,,,,,,,,,,,,,,001,15,2020_Jan_28_1418,spring_faces,3.1.5,60.06880954173199,
condition files/Stage0a.xlsx,0a,alpha,none,h,"['h', 'g']","['Chess', 'Go']","[0, 0.5]","[0, 0]",1,0,0,4,4,4,0,0,0,0,,,,,,,,,,,,,,,,,,,,,,,,,,,,,,,,,,,,,,,,,,,,,,,,,,,,,,,,,,,,,,,162.7581949639989,None,162.7581949639989,None,162.7581949639989,None,g,0,0.5384762840003532,164.29287094400024,None,164.29287094400024,None,164.29287094400024,None,164.8913442409994,None,164.8913442409994,None,164.8913442409994,None,164.8913442409994,None,,,,,,,,,,,,,,,,,,,,,,,,,,,,,,,,,,,,,,,,,,,,001,15,2020_Jan_28_1418,spring_faces,3.1.5,60.06880954173199,
condition files/Stage0a.xlsx,0a,beta,none,g,"['h', 'g']","['Chess', 'Go']","[0, 0.5]","[0, 0]",1,0,0,4,4,4,0,1,1,1,,,,,,,,,,,,,,,,,,,,,,,,,,,,,,,,,,,,,,,,,,,,,,,,,,,,,,,,,,,,,,,166.85789903899968,None,166.85789903899968,None,166.85789903899968,None,g,1,1.0156551549989672,168.39166329999898,None,168.39166329999898,None,168.39166329999898,None,169.45782845400026,None,169.45782845400026,None,169.45782845400026,None,169.45782845400026,None,,,,,,,,,,,,,,,,,,,,,,,,,,,,,,,,,,,,,,,,,,,,001,15,2020_Jan_28_1418,spring_faces,3.1.5,60.06880954173199,
condition files/Stage0a.xlsx,0a,beta,none,g,"['h', 'g']","['Chess', 'Go']","[0, 0.5]","[0, 0]",1,0,0,5,5,5,0,0,0,1,,,,,,,,,,,,,,,,,,,,,,,,,,,,,,,,,,,,,,,,,,,,,,,,,,,,,,,,,,,,,,,171.4416285520001,None,171.4416285520001,None,171.4416285520001,None,g,1,0.76820574300109,172.9751389840003,None,172.9751389840003,None,172.9751389840003,None,173.8080951819993,None,173.8080951819993,None,173.8080951819993,None,173.8080951819993,None,,,,,,,,,,,,,,,,,,,,,,,,,,,,,,,,,,,,,,,,,,,,001,15,2020_Jan_28_1418,spring_faces,3.1.5,60.06880954173199,
condition files/Stage0a.xlsx,0a,alpha,none,h,"['h', 'g']","['Chess', 'Go']","[0, 0.5]","[0, 0]",1,0,0,5,5,5,0,1,1,0,,,,,,,,,,,,,,,,,,,,,,,,,,,,,,,,,,,,,,,,,,,,,,,,,,,,,,,,,,,,,,,175.77447130600012,None,175.77447130600012,None,175.77447130600012,None,h,1,0.5636940260010306,177.30776223999965,None,177.30776223999965,None,177.30776223999965,None,177.92459245600003,None,177.92459245600003,None,177.92459245600003,None,177.92459245600003,None,,,,,,,,,,,,,,,,,,,,,,,,,,,,,,,,,,,,,,,,,,,,001,15,2020_Jan_28_1418,spring_faces,3.1.5,60.06880954173199,
condition files/Stage0b_1.xlsx,0b,alpha,none,h,"['h', 'g']","['Chess', 'Go']","[-0.15, 0.5]","[0.15, 0.5]",1,0,0,6,6,6,0,0,0,0,,,,,,,,,,,,,,,,,,,,,,,,,,,,,,,,,,,,,,,,,,,,,,,,,,,,,,,,,,,,,,,179.90818638699966,None,179.90818638699966,None,179.90818638699966,None,h,1,1.1506175120011903,181.44071624800017,None,181.44071624800017,None,181.44071624800017,None,182.64150796099966,None,182.64150796099966,None,182.64150796099966,None,182.64150796099966,None,,,,,,,,,,,,,,,,,,,,,,,,,,,,,,,,,,,,,,,,,,,,001,15,2020_Jan_28_1418,spring_faces,3.1.5,60.06880954173199,
condition files/Stage0b_1.xlsx,0b,none,beta,g,"['h', 'g']","['Chess', 'Go']","[-0.15, 0.5]","[0.15, 0.5]",0,1,0,6,6,6,0,1,1,1,,,,,,,,,,,,,,,,,,,,,,,,,,,,,,,,,,,,,,,,,,,,,,,,,,,,,,,,,,,,,,,184.6071191409992,None,184.6071191409992,None,184.6071191409992,None,g,1,0.6092923230007727,186.1581146899989,None,186.1581146899989,None,186.1581146899989,None,186.82849460800026,None,186.82849460800026,None,186.82849460800026,None,186.82849460800026,None,,,,,,,,,,,,,,,,,,,,,,,,,,,,,,,,,,,,,,,,,,,,001,15,2020_Jan_28_1418,spring_faces,3.1.5,60.06880954173199,
condition files/Stage0b_2.xlsx,0b,beta,none,g,"['h', 'g']","['Chess', 'Go']","[-0.15, 0.5]","[0.15, 0.5]",1,0,0,7,7,7,0,0,0,1,,,,,,,,,,,,,,,,,,,,,,,,,,,,,,,,,,,,,,,,,,,,,,,,,,,,,,,,,,,,,,,188.80779510899993,None,188.80779510899993,None,188.80779510899993,None,g,1,0.8251020779989631,190.3583096679995,None,190.3583096679995,None,190.3583096679995,None,191.24114679299964,None,191.24114679299964,None,191.24114679299964,None,191.24114679299964,None,,,,,,,,,,,,,,,,,,,,,,,,,,,,,,,,,,,,,,,,,,,,001,15,2020_Jan_28_1418,spring_faces,3.1.5,60.06880954173199,
condition files/Stage0b_2.xlsx,0b,none,alpha,h,"['h', 'g']","['Chess', 'Go']","[-0.15, 0.5]","[0.15, 0.5]",0,1,0,7,7,7,0,1,1,0,,,,,,,,,,,,,,,,,,,,,,,,,,,,,,,,,,,,,,,,,,,,,,,,,,,,,,,,,,,,,,,193.20767940099904,None,193.20767940099904,None,193.20767940099904,None,h,1,0.5694806459996471,194.74188879699977,None,194.74188879699977,None,194.74188879699977,None,195.37704112199935,None,195.37704112199935,None,195.37704112199935,None,195.37704112199935,None,,,,,,,,,,,,,,,,,,,,,,,,,,,,,,,,,,,,,,,,,,,,001,15,2020_Jan_28_1418,spring_faces,3.1.5,60.06880954173199,
condition files/Stage0b_1.xlsx,0b,none,beta,g,"['h', 'g']","['Chess', 'Go']","[-0.15, 0.5]","[0.15, 0.5]",0,1,0,8,8,8,0,0,0,1,,,,,,,,,,,,,,,,,,,,,,,,,,,,,,,,,,,,,,,,,,,,,,,,,,,,,,,,,,,,,,,197.35821686399868,None,197.35821686399868,None,197.35821686399868,None,g,1,0.707962235001105,198.8914340020001,None,198.8914340020001,None,198.8914340020001,None,199.65772520999963,None,199.65772520999963,None,199.65772520999963,None,199.65772520999963,None,,,,,,,,,,,,,,,,,,,,,,,,,,,,,,,,,,,,,,,,,,,,001,15,2020_Jan_28_1418,spring_faces,3.1.5,60.06880954173199,
condition files/Stage0b_1.xlsx,0b,alpha,none,h,"['h', 'g']","['Chess', 'Go']","[-0.15, 0.5]","[0.15, 0.5]",1,0,0,8,8,8,0,1,1,0,,,,,,,,,,,,,,,,,,,,,,,,,,,,,,,,,,,,,,,,,,,,,,,,,,,,,,,,,,,,,,,201.62464620599894,None,201.62464620599894,None,201.62464620599894,None,h,1,0.5685644340010185,203.17477327699999,None,203.17477327699999,None,203.17477327699999,None,203.81378509800015,None,203.81378509800015,None,203.81378509800015,None,203.81378509800015,None,,,,,,,,,,,,,,,,,,,,,,,,,,,,,,,,,,,,,,,,,,,,001,15,2020_Jan_28_1418,spring_faces,3.1.5,60.06880954173199,
condition files/Stage0b_2.xlsx,0b,none,alpha,h,"['h', 'g']","['Chess', 'Go']","[-0.15, 0.5]","[0.15, 0.5]",0,1,0,9,9,9,0,0,0,0,,,,,,,,,,,,,,,,,,,,,,,,,,,,,,,,,,,,,,,,,,,,,,,,,,,,,,,,,,,,,,,205.79109375499866,None,205.79109375499866,None,205.79109375499866,None,h,1,0.718312231998425,207.3290319129992,None,207.3290319129992,None,207.3290319129992,None,208.10773727599917,None,208.10773727599917,None,208.10773727599917,None,208.10773727599917,None,,,,,,,,,,,,,,,,,,,,,,,,,,,,,,,,,,,,,,,,,,,,001,15,2020_Jan_28_1418,spring_faces,3.1.5,60.06880954173199,
condition files/Stage0b_2.xlsx,0b,beta,none,g,"['h', 'g']","['Chess', 'Go']","[-0.15, 0.5]","[0.15, 0.5]",1,0,0,9,9,9,0,1,1,1,,,,,,,,,,,,,,,,,,,,,,,,,,,,,,,,,,,,,,,,,,,,,,,,,,,,,,,,,,,,,,,210.0745059389992,None,210.0745059389992,None,210.0745059389992,None,g,1,0.7268726420006715,211.60849146999863,None,211.60849146999863,None,211.60849146999863,None,212.39379279399873,None,212.39379279399873,None,212.39379279399873,None,212.39379279399873,None,,,,,,,,,,,,,,,,,,,,,,,,,,,,,,,,,,,,,,,,,,,,001,15,2020_Jan_28_1418,spring_faces,3.1.5,60.06880954173199,
condition files/Stage0b_1.xlsx,0b,none,beta,g,"['h', 'g']","['Chess', 'Go']","[-0.15, 0.5]","[0.15, 0.5]",0,1,0,10,10,10,0,0,0,1,,,,,,,,,,,,,,,,,,,,,,,,,,,,,,,,,,,,,,,,,,,,,,,,,,,,,,,,,,,,,,,214.37488289999965,None,214.37488289999965,None,214.37488289999965,None,g,1,1.3193473600003927,215.91200710999874,None,215.91200710999874,None,215.91200710999874,None,217.2912181699994,None,217.2912181699994,None,217.2912181699994,None,217.2912181699994,None,,,,,,,,,,,,,,,,,,,,,,,,,,,,,,,,,,,,,,,,,,,,001,15,2020_Jan_28_1418,spring_faces,3.1.5,60.06880954173199,
condition files/Stage0b_1.xlsx,0b,alpha,none,h,"['h', 'g']","['Chess', 'Go']","[-0.15, 0.5]","[0.15, 0.5]",1,0,0,10,10,10,0,1,1,0,,,,,,,,,,,,,,,,,,,,,,,,,,,,,,,,,,,,,,,,,,,,,,,,,,,,,,,,,,,,,,,219.25780984199992,None,219.25780984199992,None,219.25780984199992,None,h,1,0.7070690359996661,220.79627946999972,None,220.79627946999972,None,220.79627946999972,None,221.5586076969994,None,221.5586076969994,None,221.5586076969994,None,221.5586076969994,None,,,,,,,,,,,,,,,,,,,,,,,,,,,,,,,,,,,,,,,,,,,,001,15,2020_Jan_28_1418,spring_faces,3.1.5,60.06880954173199,
condition files/Stage0b_2.xlsx,0b,none,alpha,h,"['h', 'g']","['Chess', 'Go']","[-0.15, 0.5]","[0.15, 0.5]",0,1,0,11,11,11,0,0,0,0,,,,,,,,,,,,,,,,,,,,,,,,,,,,,,,,,,,,,,,,,,,,,,,,,,,,,,,,,,,,,,,223.54148150400033,None,223.54148150400033,None,223.54148150400033,None,h,1,0.6188624870010244,225.07649805300025,None,225.07649805300025,None,225.07649805300025,None,225.75802818299962,None,225.75802818299962,None,225.75802818299962,None,225.75802818299962,None,,,,,,,,,,,,,,,,,,,,,,,,,,,,,,,,,,,,,,,,,,,,001,15,2020_Jan_28_1418,spring_faces,3.1.5,60.06880954173199,
condition files/Stage0b_2.xlsx,0b,beta,none,g,"['h', 'g']","['Chess', 'Go']","[-0.15, 0.5]","[0.15, 0.5]",1,0,0,11,11,11,0,1,1,1,,,,,,,,,,,,,,,,,,,,,,,,,,,,,,,,,,,,,,,,,,,,,,,,,,,,,,,,,,,,,,,227.7245002969994,None,227.7245002969994,None,227.7245002969994,None,g,1,0.5795700980015681,229.25979963699865,None,229.25979963699865,None,229.25979963699865,None,229.89217932499923,None,229.89217932499923,None,229.89217932499923,None,229.89217932499923,None,,,,,,,,,,,,,,,,,,,,,,,,,,,,,,,,,,,,,,,,,,,,001,15,2020_Jan_28_1418,spring_faces,3.1.5,60.06880954173199,
condition files/Stage0c_1.xlsx,0c,phi,beta,g,"['h', 'g']","['Chess', 'Go']","[-0.15, 0.5]","[0.15, 0.5]",1,1,0,12,12,12,0,0,0,3,,,,,,,,,,,,,,,,,,,,,,,,,,,,,,,,,,,,,,,,,,,,,,,,,,,,,,,,,,,,,,,231.87497772200004,None,231.87497772200004,None,231.87497772200004,None,g,1,1.7913565689996176,233.40805557199928,None,233.40805557199928,None,233.40805557199928,None,235.25784098300028,None,235.25784098300028,None,235.25784098300028,None,235.25784098300028,None,,,,,,,,,,,,,,,,,,,,,,,,,,,,,,,,,,,,,,,,,,,,001,15,2020_Jan_28_1418,spring_faces,3.1.5,60.06880954173199,
condition files/Stage0c_1.xlsx,0c,beta,theta,g,"['h', 'g']","['Chess', 'Go']","[-0.15, 0.5]","[0.15, 0.5]",1,1,0,12,12,12,0,1,1,2,,,,,,,,,,,,,,,,,,,,,,,,,,,,,,,,,,,,,,,,,,,,,,,,,,,,,,,,,,,,,,,237.22442974600017,None,237.22442974600017,None,237.22442974600017,None,g,1,1.3852518339990638,238.75808207199952,None,238.75808207199952,None,238.75808207199952,None,240.20776528999886,None,240.20776528999886,None,240.20776528999886,None,240.20776528999886,None,,,,,,,,,,,,,,,,,,,,,,,,,,,,,,,,,,,,,,,,,,,,001,15,2020_Jan_28_1418,spring_faces,3.1.5,60.06880954173199,
condition files/Stage0c_1.xlsx,0c,theta,alpha,h,"['h', 'g']","['Chess', 'Go']","[-0.15, 0.5]","[0.15, 0.5]",1,1,0,12,12,12,0,2,2,0,,,,,,,,,,,,,,,,,,,,,,,,,,,,,,,,,,,,,,,,,,,,,,,,,,,,,,,,,,,,,,,242.1745978910003,None,242.1745978910003,None,242.1745978910003,None,h,1,0.7236863430007361,243.70766179899874,None,243.70766179899874,None,243.70766179899874,None,244.4907644039995,None,244.4907644039995,None,244.4907644039995,None,244.4907644039995,None,,,,,,,,,,,,,,,,,,,,,,,,,,,,,,,,,,,,,,,,,,,,001,15,2020_Jan_28_1418,spring_faces,3.1.5,60.06880954173199,
condition files/Stage0c_1.xlsx,0c,alpha,phi,h,"['h', 'g']","['Chess', 'Go']","[-0.15, 0.5]","[0.15, 0.5]",1,1,0,12,12,12,0,3,3,1,,,,,,,,,,,,,,,,,,,,,,,,,,,,,,,,,,,,,,,,,,,,,,,,,,,,,,,,,,,,,,,246.45743403399865,None,246.45743403399865,None,246.45743403399865,None,h,1,1.7523652430008951,247.99096993199964,None,247.99096993199964,None,247.99096993199964,None,249.80750210400038,None,249.80750210400038,None,249.80750210400038,None,249.80750210400038,None,,,,,,,,,,,,,,,,,,,,,,,,,,,,,,,,,,,,,,,,,,,,001,15,2020_Jan_28_1418,spring_faces,3.1.5,60.06880954173199,
condition files/Stage0c_2.xlsx,0c,theta,beta,g,"['h', 'g']","['Chess', 'Go']","[-0.15, 0.5]","[0.15, 0.5]",1,1,0,13,13,13,0,0,0,2,,,,,,,,,,,,,,,,,,,,,,,,,,,,,,,,,,,,,,,,,,,,,,,,,,,,,,,,,,,,,,,251.7914848069995,None,251.7914848069995,None,251.7914848069995,None,g,1,0.9948755650002568,253.32441505199859,None,253.32441505199859,None,253.32441505199859,None,254.37440985899957,None,254.37440985899957,None,254.37440985899957,None,254.37440985899957,None,,,,,,,,,,,,,,,,,,,,,,,,,,,,,,,,,,,,,,,,,,,,001,15,2020_Jan_28_1418,spring_faces,3.1.5,60.06880954173199,
condition files/Stage0c_2.xlsx,0c,alpha,theta,h,"['h', 'g']","['Chess', 'Go']","[-0.15, 0.5]","[0.15, 0.5]",1,1,0,13,13,13,0,1,1,0,,,,,,,,,,,,,,,,,,,,,,,,,,,,,,,,,,,,,,,,,,,,,,,,,,,,,,,,,,,,,,,256.34111067899903,None,256.34111067899903,None,256.34111067899903,None,h,1,1.2603073969985417,257.87497388599877,None,257.87497388599877,None,257.87497388599877,None,259.1905860379993,None,259.1905860379993,None,259.1905860379993,None,259.1905860379993,None,,,,,,,,,,,,,,,,,,,,,,,,,,,,,,,,,,,,,,,,,,,,001,15,2020_Jan_28_1418,spring_faces,3.1.5,60.06880954173199,
condition files/Stage0c_2.xlsx,0c,beta,phi,g,"['h', 'g']","['Chess', 'Go']","[-0.15, 0.5]","[0.15, 0.5]",1,1,0,13,13,13,0,2,2,3,,,,,,,,,,,,,,,,,,,,,,,,,,,,,,,,,,,,,,,,,,,,,,,,,,,,,,,,,,,,,,,261.15749263,None,261.15749263,None,261.15749263,None,g,1,0.8598878479988343,262.69139319900023,None,262.69139319900023,None,262.69139319900023,None,263.6081915630002,None,263.6081915630002,None,263.6081915630002,None,263.6081915630002,None,,,,,,,,,,,,,,,,,,,,,,,,,,,,,,,,,,,,,,,,,,,,001,15,2020_Jan_28_1418,spring_faces,3.1.5,60.06880954173199,
condition files/Stage0c_2.xlsx,0c,phi,alpha,h,"['h', 'g']","['Chess', 'Go']","[-0.15, 0.5]","[0.15, 0.5]",1,1,0,13,13,13,0,3,3,1,,,,,,,,,,,,,,,,,,,,,,,,,,,,,,,,,,,,,,,,,,,,,,,,,,,,,,,,,,,,,,,265.5737765929989,None,265.5737765929989,None,265.5737765929989,None,h,1,0.7636457410008006,267.1078269560003,None,267.1078269560003,None,267.1078269560003,None,267.9245870199993,None,267.9245870199993,None,267.9245870199993,None,267.9245870199993,None,,,,,,,,,,,,,,,,,,,,,,,,,,,,,,,,,,,,,,,,,,,,001,15,2020_Jan_28_1418,spring_faces,3.1.5,60.06880954173199,
condition files/Stage0c_1.xlsx,0c,phi,beta,g,"['h', 'g']","['Chess', 'Go']","[-0.15, 0.5]","[0.15, 0.5]",1,1,0,14,14,14,0,0,0,3,,,,,,,,,,,,,,,,,,,,,,,,,,,,,,,,,,,,,,,,,,,,,,,,,,,,,,,,,,,,,,,269.90812784899936,None,269.90812784899936,None,269.90812784899936,None,g,1,1.1499167540005146,271.441486411999,None,271.441486411999,None,271.441486411999,None,272.64165156499985,None,272.64165156499985,None,272.64165156499985,None,272.64165156499985,None,,,,,,,,,,,,,,,,,,,,,,,,,,,,,,,,,,,,,,,,,,,,001,15,2020_Jan_28_1418,spring_faces,3.1.5,60.06880954173199,
condition files/Stage0c_1.xlsx,0c,alpha,phi,h,"['h', 'g']","['Chess', 'Go']","[-0.15, 0.5]","[0.15, 0.5]",1,1,0,14,14,14,0,1,1,1,,,,,,,,,,,,,,,,,,,,,,,,,,,,,,,,,,,,,,,,,,,,,,,,,,,,,,,,,,,,,,,274.60706124399985,None,274.60706124399985,None,274.60706124399985,None,h,1,0.9617588419987442,276.14158201399914,None,276.14158201399914,None,276.14158201399914,None,277.1574734570004,None,277.1574734570004,None,277.1574734570004,None,277.1574734570004,None,,,,,,,,,,,,,,,,,,,,,,,,,,,,,,,,,,,,,,,,,,,,001,15,2020_Jan_28_1418,spring_faces,3.1.5,60.06880954173199,
condition files/Stage0c_1.xlsx,0c,beta,theta,g,"['h', 'g']","['Chess', 'Go']","[-0.15, 0.5]","[0.15, 0.5]",1,1,0,14,14,14,0,2,2,2,,,,,,,,,,,,,,,,,,,,,,,,,,,,,,,,,,,,,,,,,,,,,,,,,,,,,,,,,,,,,,,279.1247399690001,None,279.1247399690001,None,279.1247399690001,None,g,1,1.085219866999978,280.6581237929986,None,280.6581237929986,None,280.6581237929986,None,281.8079221979988,None,281.8079221979988,None,281.8079221979988,None,281.8079221979988,None,,,,,,,,,,,,,,,,,,,,,,,,,,,,,,,,,,,,,,,,,,,,001,15,2020_Jan_28_1418,spring_faces,3.1.5,60.06880954173199,
condition files/Stage0c_1.xlsx,0c,theta,alpha,h,"['h', 'g']","['Chess', 'Go']","[-0.15, 0.5]","[0.15, 0.5]",1,1,0,14,14,14,0,3,3,0,,,,,,,,,,,,,,,,,,,,,,,,,,,,,,,,,,,,,,,,,,,,,,,,,,,,,,,,,,,,,,,283.7744983119992,None,283.7744983119992,None,283.7744983119992,None,h,1,0.5632186319999164,285.3082629569999,None,285.3082629569999,None,285.3082629569999,None,285.9249972990001,None,285.9249972990001,None,285.9249972990001,None,285.9249972990001,None,,,,,,,,,,,,,,,,,,,,,,,,,,,,,,,,,,,,,,,,,,,,001,15,2020_Jan_28_1418,spring_faces,3.1.5,60.06880954173199,
condition files/Stage0c_2.xlsx,0c,alpha,theta,h,"['h', 'g']","['Chess', 'Go']","[-0.15, 0.5]","[0.15, 0.5]",1,1,0,15,15,15,0,0,0,0,,,,,,,,,,,,,,,,,,,,,,,,,,,,,,,,,,,,,,,,,,,,,,,,,,,,,,,,,,,,,,,287.9082809779993,None,287.9082809779993,None,287.9082809779993,None,h,1,0.9583396930011077,289.441057258,None,289.441057258,None,289.441057258,None,290.4440319489986,None,290.4440319489986,None,290.4440319489986,None,290.4440319489986,None,,,,,,,,,,,,,,,,,,,,,,,,,,,,,,,,,,,,,,,,,,,,001,15,2020_Jan_28_1418,spring_faces,3.1.5,60.06880954173199,
condition files/Stage0c_2.xlsx,0c,theta,beta,g,"['h', 'g']","['Chess', 'Go']","[-0.15, 0.5]","[0.15, 0.5]",1,1,0,15,15,15,0,1,1,2,,,,,,,,,,,,,,,,,,,,,,,,,,,,,,,,,,,,,,,,,,,,,,,,,,,,,,,,,,,,,,,292.42445450099876,None,292.42445450099876,None,292.42445450099876,None,g,1,1.001623195999855,293.95766680999986,None,293.95766680999986,None,293.95766680999986,None,295.02451135499905,None,295.02451135499905,None,295.02451135499905,None,295.02451135499905,None,,,,,,,,,,,,,,,,,,,,,,,,,,,,,,,,,,,,,,,,,,,,001,15,2020_Jan_28_1418,spring_faces,3.1.5,60.06880954173199,
condition files/Stage0c_2.xlsx,0c,phi,alpha,h,"['h', 'g']","['Chess', 'Go']","[-0.15, 0.5]","[0.15, 0.5]",1,1,0,15,15,15,0,2,2,1,,,,,,,,,,,,,,,,,,,,,,,,,,,,,,,,,,,,,,,,,,,,,,,,,,,,,,,,,,,,,,,296.9912816169999,None,296.9912816169999,None,296.9912816169999,None,h,1,0.6911932520015398,298.52420440399874,None,298.52420440399874,None,298.52420440399874,None,299.2740817209997,None,299.2740817209997,None,299.2740817209997,None,299.2740817209997,None,,,,,,,,,,,,,,,,,,,,,,,,,,,,,,,,,,,,,,,,,,,,001,15,2020_Jan_28_1418,spring_faces,3.1.5,60.06880954173199,
condition files/Stage0c_2.xlsx,0c,beta,phi,g,"['h', 'g']","['Chess', 'Go']","[-0.15, 0.5]","[0.15, 0.5]",1,1,0,15,15,15,0,3,3,3,,,,,,,,,,,,,,,,,,,,,,,,,,,,,,,,,,,,,,,,,,,,,,,,,,,,,,,,,,,,,,,301.2406819279986,None,301.2406819279986,None,301.2406819279986,None,g,1,0.7764872160005325,302.77490714799933,None,302.77490714799933,None,302.77490714799933,None,303.6082498979995,None,303.6082498979995,None,303.6082498979995,None,303.6082498979995,None,,,,,,,,,,,,,,,,,,,,,,,,,,,,,,,,,,,,,,,,,,,,001,15,2020_Jan_28_1418,spring_faces,3.1.5,60.06880954173199,
condition files/Stage0c_1.xlsx,0c,beta,theta,g,"['h', 'g']","['Chess', 'Go']","[-0.15, 0.5]","[0.15, 0.5]",1,1,0,16,16,16,0,0,0,2,,,,,,,,,,,,,,,,,,,,,,,,,,,,,,,,,,,,,,,,,,,,,,,,,,,,,,,,,,,,,,,305.59144236799875,None,305.59144236799875,None,305.59144236799875,None,g,1,0.714961518000564,307.1243911849997,None,307.1243911849997,None,307.1243911849997,None,307.8765618130001,None,307.8765618130001,None,307.8765618130001,None,307.8765618130001,None,,,,,,,,,,,,,,,,,,,,,,,,,,,,,,,,,,,,,,,,,,,,001,15,2020_Jan_28_1418,spring_faces,3.1.5,60.06880954173199,
condition files/Stage0c_1.xlsx,0c,alpha,phi,h,"['h', 'g']","['Chess', 'Go']","[-0.15, 0.5]","[0.15, 0.5]",1,1,0,16,16,16,0,1,1,1,,,,,,,,,,,,,,,,,,,,,,,,,,,,,,,,,,,,,,,,,,,,,,,,,,,,,,,,,,,,,,,309.85791658499875,None,309.85791658499875,None,309.85791658499875,None,h,1,0.8804262659996311,311.39101920400026,None,311.39101920400026,None,311.39101920400026,None,312.3242016889999,None,312.3242016889999,None,312.3242016889999,None,312.3242016889999,None,,,,,,,,,,,,,,,,,,,,,,,,,,,,,,,,,,,,,,,,,,,,001,15,2020_Jan_28_1418,spring_faces,3.1.5,60.06880954173199,
condition files/Stage0c_1.xlsx,0c,theta,alpha,h,"['h', 'g']","['Chess', 'Go']","[-0.15, 0.5]","[0.15, 0.5]",1,1,0,16,16,16,0,2,2,0,,,,,,,,,,,,,,,,,,,,,,,,,,,,,,,,,,,,,,,,,,,,,,,,,,,,,,,,,,,,,,,314.2907208309989,None,314.2907208309989,None,314.2907208309989,None,h,1,0.8146246359992801,315.82471626000006,None,315.82471626000006,None,315.82471626000006,None,316.6764953789989,None,316.6764953789989,None,316.6764953789989,None,316.6764953789989,None,,,,,,,,,,,,,,,,,,,,,,,,,,,,,,,,,,,,,,,,,,,,001,15,2020_Jan_28_1418,spring_faces,3.1.5,60.06880954173199,
condition files/Stage0c_1.xlsx,0c,phi,beta,g,"['h', 'g']","['Chess', 'Go']","[-0.15, 0.5]","[0.15, 0.5]",1,1,0,16,16,16,0,3,3,3,,,,,,,,,,,,,,,,,,,,,,,,,,,,,,,,,,,,,,,,,,,,,,,,,,,,,,,,,,,,,,,318.6577969819991,None,318.6577969819991,None,318.6577969819991,None,g,1,0.7676230309989478,320.1916873859991,None,320.1916873859991,None,320.1916873859991,None,321.0244466749991,None,321.0244466749991,None,321.0244466749991,None,321.0244466749991,None,,,,,,,,,,,,,,,,,,,,,,,,,,,,,,,,,,,,,,,,,,,,001,15,2020_Jan_28_1418,spring_faces,3.1.5,60.06880954173199,
condition files/Stage0c_2.xlsx,0c,phi,alpha,h,"['h', 'g']","['Chess', 'Go']","[-0.15, 0.5]","[0.15, 0.5]",1,1,0,17,17,17,0,0,0,1,,,,,,,,,,,,,,,,,,,,,,,,,,,,,,,,,,,,,,,,,,,,,,,,,,,,,,,,,,,,,,,323.00786064899876,None,323.00786064899876,None,323.00786064899876,None,h,1,0.6099627860003238,324.5414535159998,None,324.5414535159998,None,324.5414535159998,None,325.2077458139993,None,325.2077458139993,None,325.2077458139993,None,325.2077458139993,None,,,,,,,,,,,,,,,,,,,,,,,,,,,,,,,,,,,,,,,,,,,,001,15,2020_Jan_28_1418,spring_faces,3.1.5,60.06880954173199,
condition files/Stage0c_2.xlsx,0c,theta,beta,g,"['h', 'g']","['Chess', 'Go']","[-0.15, 0.5]","[0.15, 0.5]",1,1,0,17,17,17,0,1,1,2,,,,,,,,,,,,,,,,,,,,,,,,,,,,,,,,,,,,,,,,,,,,,,,,,,,,,,,,,,,,,,,327.1744041009988,None,327.1744041009988,None,327.1744041009988,None,g,1,0.8117966999998316,328.70752905299923,None,328.70752905299923,None,328.70752905299923,None,329.574920826999,None,329.574920826999,None,329.574920826999,None,329.574920826999,None,,,,,,,,,,,,,,,,,,,,,,,,,,,,,,,,,,,,,,,,,,,,001,15,2020_Jan_28_1418,spring_faces,3.1.5,60.06880954173199,
condition files/Stage0c_2.xlsx,0c,beta,phi,g,"['h', 'g']","['Chess', 'Go']","[-0.15, 0.5]","[0.15, 0.5]",1,1,0,17,17,17,0,2,2,3,,,,,,,,,,,,,,,,,,,,,,,,,,,,,,,,,,,,,,,,,,,,,,,,,,,,,,,,,,,,,,,331.54080462599995,None,331.54080462599995,None,331.54080462599995,None,g,1,1.0367106040012004,333.0746102430003,None,333.0746102430003,None,333.0746102430003,None,334.1588587789993,None,334.1588587789993,None,334.1588587789993,None,334.1588587789993,None,,,,,,,,,,,,,,,,,,,,,,,,,,,,,,,,,,,,,,,,,,,,001,15,2020_Jan_28_1418,spring_faces,3.1.5,60.06880954173199,
condition files/Stage0c_2.xlsx,0c,alpha,theta,h,"['h', 'g']","['Chess', 'Go']","[-0.15, 0.5]","[0.15, 0.5]",1,1,0,17,17,17,0,3,3,0,,,,,,,,,,,,,,,,,,,,,,,,,,,,,,,,,,,,,,,,,,,,,,,,,,,,,,,,,,,,,,,336.1408994550002,None,336.1408994550002,None,336.1408994550002,None,h,1,0.5965852799999993,337.67486508299953,None,337.67486508299953,None,337.67486508299953,None,338.32449029300005,None,338.32449029300005,None,338.32449029300005,None,338.32449029300005,None,,,,,,,,,,,,,,,,,,,,,,,,,,,,,,,,,,,,,,,,,,,,001,15,2020_Jan_28_1418,spring_faces,3.1.5,60.06880954173199,
,,,,,,,,,,,,,,,,,,,,,,,,,,,,,,,,,,,,,,,,,,,,,,,,,,,,,,,,,,,,,,,,,,,,,,,,,,,,,,,,,,,,,,,,,,,,,,,,,,,,,,,,340.3081049449993,None,space,4.739625185000477,345.30780601699917,None,,,,,,,,,,,,,,,,,,,,,,,,,,,,,,,,,,,,,,001,15,2020_Jan_28_1418,spring_faces,3.1.5,60.06880954173199,
condition files/Stage1_1.xlsx,,B2,T1,m,"['c', 'm']","['Clue', 'Monopoly']","[-0.15, 0.5]","[0.15, 0.5]",1,1,,,,,,,,,0,0,0,0,0,0,0,2,,,,,,,,,,,,,,,,,,,,,,,,,,,,,,,,,,,,,,,,,,,,,,,,,,,,,,,350.1082467670003,None,350.1082467670003,None,350.1082467670003,None,m,1,1.1268912569994427,351.6245290199986,None,351.6245290199986,None,351.6245290199986,None,352.8247158869999,None,352.8247158869999,None,352.8247158869999,None,352.8247158869999,None,,,,,,,345.30780601699917,None,,,,,,,,,,,,,,,,,,,,,,,,,,,,,,,,,,,,001,15,2020_Jan_28_1418,spring_faces,3.1.5,60.06880954173199,
condition files/Stage1_1.xlsx,,T1,B1,c,"['c', 'm']","['Clue', 'Monopoly']","[-0.15, 0.5]","[0.15, 0.5]",1,1,,,,,,,,,0,0,0,0,0,1,1,0,,,,,,,,,,,,,,,,,,,,,,,,,,,,,,,,,,,,,,,,,,,,,,,,,,,,,,,354.7745214309998,None,354.7745214309998,None,354.7745214309998,None,m,0,0.9232041369996296,356.3082196229989,None,356.3082196229989,None,356.3082196229989,None,357.3081066979994,None,357.3081066979994,None,357.3081066979994,None,357.3081066979994,None,,,,,,,,,,,,,,,,,,,,,,,,,,,,,,,,,,,,,,,,,,,,001,15,2020_Jan_28_1418,spring_faces,3.1.5,60.06880954173199,
condition files/Stage1_1.xlsx,,B3,T3,c,"['c', 'm']","['Clue', 'Monopoly']","[-0.15, 0.5]","[0.15, 0.5]",1,1,,,,,,,,,0,0,0,0,0,2,2,4,,,,,,,,,,,,,,,,,,,,,,,,,,,,,,,,,,,,,,,,,,,,,,,,,,,,,,,359.25752446499973,None,359.25752446499973,None,359.25752446499973,None,m,0,1.2231712129996595,360.808223217,None,360.808223217,None,360.808223217,None,362.0907776209988,None,362.0907776209988,None,362.0907776209988,None,362.0907776209988,None,,,,,,,,,,,,,,,,,,,,,,,,,,,,,,,,,,,,,,,,,,,,001,15,2020_Jan_28_1418,spring_faces,3.1.5,60.06880954173199,
condition files/Stage1_1.xlsx,,T2,B2,m,"['c', 'm']","['Clue', 'Monopoly']","[-0.15, 0.5]","[0.15, 0.5]",1,1,,,,,,,,,0,0,0,0,0,3,3,3,,,,,,,,,,,,,,,,,,,,,,,,,,,,,,,,,,,,,,,,,,,,,,,,,,,,,,,364.0574074399992,None,364.0574074399992,None,364.0574074399992,None,c,0,1.879596902999765,365.6077289449986,None,365.6077289449986,None,365.6077289449986,None,367.55755759099884,None,367.55755759099884,None,367.55755759099884,None,367.55755759099884,None,,,,,,,,,,,,,,,,,,,,,,,,,,,,,,,,,,,,,,,,,,,,001,15,2020_Jan_28_1418,spring_faces,3.1.5,60.06880954173199,
condition files/Stage1_1.xlsx,,T4,B3,m,"['c', 'm']","['Clue', 'Monopoly']","[-0.15, 0.5]","[0.15, 0.5]",1,1,,,,,,,,,0,0,0,0,0,4,4,6,,,,,,,,,,,,,,,,,,,,,,,,,,,,,,,,,,,,,,,,,,,,,,,,,,,,,,,369.50743073299964,None,369.50743073299964,None,369.50743073299964,None,m,1,2.491365998001129,371.10804670299876,None,371.10804670299876,None,371.10804670299876,None,373.65746603200023,None,373.65746603200023,None,373.65746603200023,None,373.65746603200023,None,,,,,,,,,,,,,,,,,,,,,,,,,,,,,,,,,,,,,,,,,,,,001,15,2020_Jan_28_1418,spring_faces,3.1.5,60.06880954173199,
condition files/Stage1_1.xlsx,,T3,B4,c,"['c', 'm']","['Clue', 'Monopoly']","[-0.15, 0.5]","[0.15, 0.5]",1,1,,,,,,,,,0,0,0,0,0,5,5,5,,,,,,,,,,,,,,,,,,,,,,,,,,,,,,,,,,,,,,,,,,,,,,,,,,,,,,,375.62440117799997,None,375.62440117799997,None,375.62440117799997,None,c,1,1.0793106470009661,377.1600475039995,None,377.1600475039995,None,377.1600475039995,None,378.30753696099964,None,378.30753696099964,None,378.30753696099964,None,378.30753696099964,None,,,,,,,,,,,,,,,,,,,,,,,,,,,,,,,,,,,,,,,,,,,,001,15,2020_Jan_28_1418,spring_faces,3.1.5,60.06880954173199,
condition files/Stage1_1.xlsx,,B1,T2,c,"['c', 'm']","['Clue', 'Monopoly']","[-0.15, 0.5]","[0.15, 0.5]",1,1,,,,,,,,,0,0,0,0,0,6,6,1,,,,,,,,,,,,,,,,,,,,,,,,,,,,,,,,,,,,,,,,,,,,,,,,,,,,,,,380.25751639899863,None,380.25751639899863,None,380.25751639899863,None,m,0,0.9912702249985159,381.79213938799876,None,381.79213938799876,None,381.79213938799876,None,382.84175477899953,None,382.84175477899953,None,382.84175477899953,None,382.84175477899953,None,,,,,,,,,,,,,,,,,,,,,,,,,,,,,,,,,,,,,,,,,,,,001,15,2020_Jan_28_1418,spring_faces,3.1.5,60.06880954173199,
condition files/Stage1_1.xlsx,,B4,T4,m,"['c', 'm']","['Clue', 'Monopoly']","[-0.15, 0.5]","[0.15, 0.5]",1,1,,,,,,,,,0,0,0,0,0,7,7,7,,,,,,,,,,,,,,,,,,,,,,,,,,,,,,,,,,,,,,,,,,,,,,,,,,,,,,,384.8080440679987,None,384.8080440679987,None,384.8080440679987,None,m,1,2.0107196860008116,386.3406844639994,None,386.3406844639994,None,386.3406844639994,None,388.4084546719987,None,388.4084546719987,None,388.4084546719987,None,388.4084546719987,None,,,,,,,,,,,,,,,,,,,,,,,,,,,,,,,,,,,,,,,,,,,,001,15,2020_Jan_28_1418,spring_faces,3.1.5,60.06880954173199,
condition files/Stage1_2.xlsx,,T1,B2,m,"['c', 'm']","['Clue', 'Monopoly']","[-0.15, 0.5]","[0.15, 0.5]",1,1,,,,,,,,,0,1,1,1,0,0,0,2,,,,,,,,,,,,,,,,,,,,,,,,,,,,,,,,,,,,,,,,,,,,,,,,,,,,,,,390.39099157999954,None,390.39099157999954,None,390.39099157999954,None,c,0,1.1140828729985515,391.94127097099954,None,391.94127097099954,None,391.94127097099954,None,393.1077617179999,None,393.1077617179999,None,393.1077617179999,None,393.1077617179999,None,,,,,,,,,,,,,,,,,,,,,,,,,,,,,,,,,,,,,,,,,,,,001,15,2020_Jan_28_1418,spring_faces,3.1.5,60.06880954173199,
condition files/Stage1_2.xlsx,,T3,B3,c,"['c', 'm']","['Clue', 'Monopoly']","[-0.15, 0.5]","[0.15, 0.5]",1,1,,,,,,,,,0,1,1,1,0,1,1,4,,,,,,,,,,,,,,,,,,,,,,,,,,,,,,,,,,,,,,,,,,,,,,,,,,,,,,,395.0744644079987,None,395.0744644079987,None,395.0744644079987,None,c,1,1.8385710639995523,396.6247794359988,None,396.6247794359988,None,396.6247794359988,None,398.52598468199903,None,398.52598468199903,None,398.52598468199903,None,398.52598468199903,None,,,,,,,,,,,,,,,,,,,,,,,,,,,,,,,,,,,,,,,,,,,,001,15,2020_Jan_28_1418,spring_faces,3.1.5,60.06880954173199,
condition files/Stage1_2.xlsx,,B3,T4,m,"['c', 'm']","['Clue', 'Monopoly']","[-0.15, 0.5]","[0.15, 0.5]",1,1,,,,,,,,,0,1,1,1,0,2,2,6,,,,,,,,,,,,,,,,,,,,,,,,,,,,,,,,,,,,,,,,,,,,,,,,,,,,,,,400.4912350129998,None,400.4912350129998,None,400.4912350129998,None,m,1,0.9495857090005302,402.0257255609995,None,402.0257255609995,None,402.0257255609995,None,403.0576782829994,None,403.0576782829994,None,403.0576782829994,None,403.0576782829994,None,,,,,,,,,,,,,,,,,,,,,,,,,,,,,,,,,,,,,,,,,,,,001,15,2020_Jan_28_1418,spring_faces,3.1.5,60.06880954173199,
condition files/Stage1_2.xlsx,,B1,T1,c,"['c', 'm']","['Clue', 'Monopoly']","[-0.15, 0.5]","[0.15, 0.5]",1,1,,,,,,,,,0,1,1,1,0,3,3,0,,,,,,,,,,,,,,,,,,,,,,,,,,,,,,,,,,,,,,,,,,,,,,,,,,,,,,,405.0078895609986,None,405.0078895609986,None,405.0078895609986,None,m,0,1.969117892000213,406.55821593699875,None,406.55821593699875,None,406.55821593699875,None,408.5920067529987,None,408.5920067529987,None,408.5920067529987,None,408.5920067529987,None,,,,,,,,,,,,,,,,,,,,,,,,,,,,,,,,,,,,,,,,,,,,001,15,2020_Jan_28_1418,spring_faces,3.1.5,60.06880954173199,
condition files/Stage1_2.xlsx,,T2,B1,c,"['c', 'm']","['Clue', 'Monopoly']","[-0.15, 0.5]","[0.15, 0.5]",1,1,,,,,,,,,0,1,1,1,0,4,4,1,,,,,,,,,,,,,,,,,,,,,,,,,,,,,,,,,,,,,,,,,,,,,,,,,,,,,,,410.55763242099965,None,410.55763242099965,None,410.55763242099965,None,m,0,3.9070725129986386,412.0923531169992,None,412.0923531169992,None,412.0923531169992,None,416.05772952499865,None,416.05772952499865,None,416.05772952499865,None,416.05772952499865,None,,,,,,,,,,,,,,,,,,,,,,,,,,,,,,,,,,,,,,,,,,,,001,15,2020_Jan_28_1418,spring_faces,3.1.5,60.06880954173199,
condition files/Stage1_2.xlsx,,T4,B4,m,"['c', 'm']","['Clue', 'Monopoly']","[-0.15, 0.5]","[0.15, 0.5]",1,1,,,,,,,,,0,1,1,1,0,5,5,7,,,,,,,,,,,,,,,,,,,,,,,,,,,,,,,,,,,,,,,,,,,,,,,,,,,,,,,418.0240990309994,None,418.0240990309994,None,418.0240990309994,None,m,1,1.1761480149998533,419.5592322369994,None,419.5592322369994,None,419.5592322369994,None,420.80812530599906,None,420.80812530599906,None,420.80812530599906,None,420.80812530599906,None,,,,,,,,,,,,,,,,,,,,,,,,,,,,,,,,,,,,,,,,,,,,001,15,2020_Jan_28_1418,spring_faces,3.1.5,60.06880954173199,
condition files/Stage1_2.xlsx,,B2,T2,m,"['c', 'm']","['Clue', 'Monopoly']","[-0.15, 0.5]","[0.15, 0.5]",1,1,,,,,,,,,0,1,1,1,0,6,6,3,,,,,,,,,,,,,,,,,,,,,,,,,,,,,,,,,,,,,,,,,,,,,,,,,,,,,,,422.758022480999,None,422.758022480999,None,422.758022480999,None,c,0,1.2112640239993198,424.3080406079989,None,424.3080406079989,None,424.3080406079989,None,425.57456828499926,None,425.57456828499926,None,425.57456828499926,None,425.57456828499926,None,,,,,,,,,,,,,,,,,,,,,,,,,,,,,,,,,,,,,,,,,,,,001,15,2020_Jan_28_1418,spring_faces,3.1.5,60.06880954173199,
condition files/Stage1_2.xlsx,,B4,T3,c,"['c', 'm']","['Clue', 'Monopoly']","[-0.15, 0.5]","[0.15, 0.5]",1,1,,,,,,,,,0,1,1,1,0,7,7,5,,,,,,,,,,,,,,,,,,,,,,,,,,,,,,,,,,,,,,,,,,,,,,,,,,,,,,,427.5413586960003,None,427.5413586960003,None,427.5413586960003,None,c,1,1.084334941000634,429.0749764379998,None,429.0749764379998,None,429.0749764379998,None,430.2250121139987,None,430.2250121139987,None,430.2250121139987,None,430.2250121139987,None,,,,,,,,,,,,,,,,,,,,,,,,,,,,,,,,,,,,,,,,,,,,001,15,2020_Jan_28_1418,spring_faces,3.1.5,60.06880954173199,
condition files/Stage1_1.xlsx,,T3,B4,c,"['c', 'm']","['Clue', 'Monopoly']","[-0.15, 0.5]","[0.15, 0.5]",1,1,,,,,,,,,0,2,2,2,0,0,0,5,,,,,,,,,,,,,,,,,,,,,,,,,,,,,,,,,,,,,,,,,,,,,,,,,,,,,,,432.2083539029991,None,432.2083539029991,None,432.2083539029991,None,c,1,1.7614322939989506,433.757890380999,None,433.757890380999,None,433.757890380999,None,435.57467190900024,None,435.57467190900024,None,435.57467190900024,None,435.57467190900024,None,,,,,,,,,,,,,,,,,,,,,,,,,,,,,,,,,,,,,,,,,,,,001,15,2020_Jan_28_1418,spring_faces,3.1.5,60.06880954173199,
condition files/Stage1_1.xlsx,,B3,T3,c,"['c', 'm']","['Clue', 'Monopoly']","[-0.15, 0.5]","[0.15, 0.5]",1,1,,,,,,,,,0,2,2,2,0,1,1,4,,,,,,,,,,,,,,,,,,,,,,,,,,,,,,,,,,,,,,,,,,,,,,,,,,,,,,,437.5411846799998,None,437.5411846799998,None,437.5411846799998,None,c,1,0.956847880001078,439.0745720319992,None,439.0745720319992,None,439.0745720319992,None,440.0915740649998,None,440.0915740649998,None,440.0915740649998,None,440.0915740649998,None,,,,,,,,,,,,,,,,,,,,,,,,,,,,,,,,,,,,,,,,,,,,001,15,2020_Jan_28_1418,spring_faces,3.1.5,60.06880954173199,
condition files/Stage1_1.xlsx,,T2,B2,m,"['c', 'm']","['Clue', 'Monopoly']","[-0.15, 0.5]","[0.15, 0.5]",1,1,,,,,,,,,0,2,2,2,0,2,2,3,,,,,,,,,,,,,,,,,,,,,,,,,,,,,,,,,,,,,,,,,,,,,,,,,,,,,,,442.0580018009987,None,442.0580018009987,None,442.0580018009987,None,m,1,2.359302935999949,443.6081243079989,None,443.6081243079989,None,443.6081243079989,None,446.0263407499988,None,446.0263407499988,None,446.0263407499988,None,446.0263407499988,None,,,,,,,,,,,,,,,,,,,,,,,,,,,,,,,,,,,,,,,,,,,,001,15,2020_Jan_28_1418,spring_faces,3.1.5,60.06880954173199,
condition files/Stage1_1.xlsx,,T1,B1,c,"['c', 'm']","['Clue', 'Monopoly']","[-0.15, 0.5]","[0.15, 0.5]",1,1,,,,,,,,,0,2,2,2,0,3,3,0,,,,,,,,,,,,,,,,,,,,,,,,,,,,,,,,,,,,,,,,,,,,,,,,,,,,,,,447.9916885849998,None,447.9916885849998,None,447.9916885849998,None,m,0,1.9607024860015372,449.52667878399916,None,449.52667878399916,None,449.52667878399916,None,451.5431424339986,None,451.5431424339986,None,451.5431424339986,None,451.5431424339986,None,,,,,,,,,,,,,,,,,,,,,,,,,,,,,,,,,,,,,,,,,,,,001,15,2020_Jan_28_1418,spring_faces,3.1.5,60.06880954173199,
condition files/Stage1_1.xlsx,,B4,T4,m,"['c', 'm']","['Clue', 'Monopoly']","[-0.15, 0.5]","[0.15, 0.5]",1,1,,,,,,,,,0,2,2,2,0,4,4,7,,,,,,,,,,,,,,,,,,,,,,,,,,,,,,,,,,,,,,,,,,,,,,,,,,,,,,,453.508086292999,None,453.508086292999,None,453.508086292999,None,m,1,1.4214902929998061,455.05788137499985,None,455.05788137499985,None,455.05788137499985,None,456.5412010789987,None,456.5412010789987,None,456.5412010789987,None,456.5412010789987,None,,,,,,,,,,,,,,,,,,,,,,,,,,,,,,,,,,,,,,,,,,,,001,15,2020_Jan_28_1418,spring_faces,3.1.5,60.06880954173199,
condition files/Stage1_1.xlsx,,T4,B3,m,"['c', 'm']","['Clue', 'Monopoly']","[-0.15, 0.5]","[0.15, 0.5]",1,1,,,,,,,,,0,2,2,2,0,5,5,6,,,,,,,,,,,,,,,,,,,,,,,,,,,,,,,,,,,,,,,,,,,,,,,,,,,,,,,458.5079176580002,None,458.5079176580002,None,458.5079176580002,None,m,1,1.2222179420004977,460.04115692099913,None,460.04115692099913,None,460.04115692099913,None,461.32417504600016,None,461.32417504600016,None,461.32417504600016,None,461.32417504600016,None,,,,,,,,,,,,,,,,,,,,,,,,,,,,,,,,,,,,,,,,,,,,001,15,2020_Jan_28_1418,spring_faces,3.1.5,60.06880954173199,
condition files/Stage1_1.xlsx,,B1,T2,c,"['c', 'm']","['Clue', 'Monopoly']","[-0.15, 0.5]","[0.15, 0.5]",1,1,,,,,,,,,0,2,2,2,0,6,6,1,,,,,,,,,,,,,,,,,,,,,,,,,,,,,,,,,,,,,,,,,,,,,,,,,,,,,,,463.291131775999,None,463.291131775999,None,463.291131775999,None,c,1,1.7184747080009402,464.84079976999965,None,464.84079976999965,None,464.84079976999965,None,466.62605404900023,None,466.62605404900023,None,466.62605404900023,None,466.62605404900023,None,,,,,,,,,,,,,,,,,,,,,,,,,,,,,,,,,,,,,,,,,,,,001,15,2020_Jan_28_1418,spring_faces,3.1.5,60.06880954173199,
condition files/Stage1_1.xlsx,,B2,T1,m,"['c', 'm']","['Clue', 'Monopoly']","[-0.15, 0.5]","[0.15, 0.5]",1,1,,,,,,,,,0,2,2,2,0,7,7,2,,,,,,,,,,,,,,,,,,,,,,,,,,,,,,,,,,,,,,,,,,,,,,,,,,,,,,,468.59126916700006,None,468.59126916700006,None,468.59126916700006,None,m,1,2.786407405999853,470.14093153199974,None,470.14093153199974,None,470.14093153199974,None,472.99266251100016,None,472.99266251100016,None,472.99266251100016,None,472.99266251100016,None,,,,,,,,,,,,,,,,,,,,,,,,,,,,,,,,,,,,,,,,,,,,001,15,2020_Jan_28_1418,spring_faces,3.1.5,60.06880954173199,
condition files/Stage1_2.xlsx,,T2,B1,c,"['c', 'm']","['Clue', 'Monopoly']","[-0.15, 0.5]","[0.15, 0.5]",1,1,,,,,,,,,0,3,3,3,0,0,0,1,,,,,,,,,,,,,,,,,,,,,,,,,,,,,,,,,,,,,,,,,,,,,,,,,,,,,,,474.9749924249991,None,474.9749924249991,None,474.9749924249991,None,c,1,3.8748449030008487,476.50859159799984,None,476.50859159799984,None,476.50859159799984,None,480.4574152360001,None,480.4574152360001,None,480.4574152360001,None,480.4574152360001,None,,,,,,,,,,,,,,,,,,,,,,,,,,,,,,,,,,,,,,,,,,,,001,15,2020_Jan_28_1418,spring_faces,3.1.5,60.06880954173199,
condition files/Stage1_2.xlsx,,T3,B3,c,"['c', 'm']","['Clue', 'Monopoly']","[-0.15, 0.5]","[0.15, 0.5]",1,1,,,,,,,,,0,3,3,3,0,1,1,4,,,,,,,,,,,,,,,,,,,,,,,,,,,,,,,,,,,,,,,,,,,,,,,,,,,,,,,482.4075197389993,None,482.4075197389993,None,482.4075197389993,None,c,1,1.4327633249995415,483.9425665919989,None,483.9425665919989,None,483.9425665919989,None,485.44173934100036,None,485.44173934100036,None,485.44173934100036,None,485.44173934100036,None,,,,,,,,,,,,,,,,,,,,,,,,,,,,,,,,,,,,,,,,,,,,001,15,2020_Jan_28_1418,spring_faces,3.1.5,60.06880954173199,
condition files/Stage1_2.xlsx,,B2,T2,m,"['c', 'm']","['Clue', 'Monopoly']","[-0.15, 0.5]","[0.15, 0.5]",1,1,,,,,,,,,0,3,3,3,0,2,2,3,,,,,,,,,,,,,,,,,,,,,,,,,,,,,,,,,,,,,,,,,,,,,,,,,,,,,,,487.40764381699955,None,487.40764381699955,None,487.40764381699955,None,c,0,2.257433331998982,488.9419937879993,None,488.9419937879993,None,488.9419937879993,None,491.27409863199864,None,491.27409863199864,None,491.27409863199864,None,491.27409863199864,None,,,,,,,,,,,,,,,,,,,,,,,,,,,,,,,,,,,,,,,,,,,,001,15,2020_Jan_28_1418,spring_faces,3.1.5,60.06880954173199,
condition files/Stage1_2.xlsx,,B1,T1,c,"['c', 'm']","['Clue', 'Monopoly']","[-0.15, 0.5]","[0.15, 0.5]",1,1,,,,,,,,,0,3,3,3,0,3,3,0,,,,,,,,,,,,,,,,,,,,,,,,,,,,,,,,,,,,,,,,,,,,,,,,,,,,,,,493.224604432,None,493.224604432,None,493.224604432,None,c,1,1.7528889699988213,494.7584862149997,None,494.7584862149997,None,494.7584862149997,None,496.5914216639994,None,496.5914216639994,None,496.5914216639994,None,496.5914216639994,None,,,,,,,,,,,,,,,,,,,,,,,,,,,,,,,,,,,,,,,,,,,,001,15,2020_Jan_28_1418,spring_faces,3.1.5,60.06880954173199,
condition files/Stage1_2.xlsx,,B3,T4,m,"['c', 'm']","['Clue', 'Monopoly']","[-0.15, 0.5]","[0.15, 0.5]",1,1,,,,,,,,,0,3,3,3,0,4,4,6,,,,,,,,,,,,,,,,,,,,,,,,,,,,,,,,,,,,,,,,,,,,,,,,,,,,,,,498.54105558099945,None,498.54105558099945,None,498.54105558099945,None,m,1,1.1886450670008344,500.07473003199993,None,500.07473003199993,None,500.07473003199993,None,501.3241954109999,None,501.3241954109999,None,501.3241954109999,None,501.3241954109999,None,,,,,,,,,,,,,,,,,,,,,,,,,,,,,,,,,,,,,,,,,,,,001,15,2020_Jan_28_1418,spring_faces,3.1.5,60.06880954173199,
condition files/Stage1_2.xlsx,,T4,B4,m,"['c', 'm']","['Clue', 'Monopoly']","[-0.15, 0.5]","[0.15, 0.5]",1,1,,,,,,,,,0,3,3,3,0,5,5,7,,,,,,,,,,,,,,,,,,,,,,,,,,,,,,,,,,,,,,,,,,,,,,,,,,,,,,,503.29083197699947,None,503.29083197699947,None,503.29083197699947,None,m,1,0.7738573319984425,504.8255567870001,None,504.8255567870001,None,504.8255567870001,None,505.6583023229996,None,505.6583023229996,None,505.6583023229996,None,505.6583023229996,None,,,,,,,,,,,,,,,,,,,,,,,,,,,,,,,,,,,,,,,,,,,,001,15,2020_Jan_28_1418,spring_faces,3.1.5,60.06880954173199,
condition files/Stage1_2.xlsx,,B4,T3,c,"['c', 'm']","['Clue', 'Monopoly']","[-0.15, 0.5]","[0.15, 0.5]",1,1,,,,,,,,,0,3,3,3,0,6,6,5,,,,,,,,,,,,,,,,,,,,,,,,,,,,,,,,,,,,,,,,,,,,,,,,,,,,,,,507.62470402100007,None,507.62470402100007,None,507.62470402100007,None,c,1,1.1615323459991487,509.15780164399985,None,509.15780164399985,None,509.15780164399985,None,510.3913550649995,None,510.3913550649995,None,510.3913550649995,None,510.3913550649995,None,,,,,,,,,,,,,,,,,,,,,,,,,,,,,,,,,,,,,,,,,,,,001,15,2020_Jan_28_1418,spring_faces,3.1.5,60.06880954173199,
condition files/Stage1_2.xlsx,,T1,B2,m,"['c', 'm']","['Clue', 'Monopoly']","[-0.15, 0.5]","[0.15, 0.5]",1,1,,,,,,,,,0,3,3,3,0,7,7,2,,,,,,,,,,,,,,,,,,,,,,,,,,,,,,,,,,,,,,,,,,,,,,,,,,,,,,,512.3407432450003,None,512.3407432450003,None,512.3407432450003,None,m,1,1.4511601220001467,513.8762147929992,None,513.8762147929992,None,513.8762147929992,None,515.3936441469996,None,515.3936441469996,None,515.3936441469996,None,515.3936441469996,None,,,,,,,,,,,,,,,,,,,,,,,,,,,,,,,,,,,,,,,,,,,,001,15,2020_Jan_28_1418,spring_faces,3.1.5,60.06880954173199,
condition files/Stage1_1.xlsx,,T4,B3,m,"['c', 'm']","['Clue', 'Monopoly']","[-0.15, 0.5]","[0.15, 0.5]",1,1,,,,,,,,,0,4,4,4,0,0,0,6,,,,,,,,,,,,,,,,,,,,,,,,,,,,,,,,,,,,,,,,,,,,,,,,,,,,,,,517.3749755419994,None,517.3749755419994,None,517.3749755419994,None,m,1,1.0754211519997625,518.9079893439994,None,518.9079893439994,None,518.9079893439994,None,520.0414721879988,None,520.0414721879988,None,520.0414721879988,None,520.0414721879988,None,,,,,,,,,,,,,,,,,,,,,,,,,,,,,,,,,,,,,,,,,,,,001,15,2020_Jan_28_1418,spring_faces,3.1.5,60.06880954173199,
condition files/Stage1_1.xlsx,,B3,T3,c,"['c', 'm']","['Clue', 'Monopoly']","[-0.15, 0.5]","[0.15, 0.5]",1,1,,,,,,,,,0,4,4,4,0,1,1,4,,,,,,,,,,,,,,,,,,,,,,,,,,,,,,,,,,,,,,,,,,,,,,,,,,,,,,,522.0075088419999,None,522.0075088419999,None,522.0075088419999,None,c,1,0.9536086060015805,523.5417415230004,None,523.5417415230004,None,523.5417415230004,None,524.5577698109992,None,524.5577698109992,None,524.5577698109992,None,524.5577698109992,None,,,,,,,,,,,,,,,,,,,,,,,,,,,,,,,,,,,,,,,,,,,,001,15,2020_Jan_28_1418,spring_faces,3.1.5,60.06880954173199,
condition files/Stage1_1.xlsx,,B2,T1,m,"['c', 'm']","['Clue', 'Monopoly']","[-0.15, 0.5]","[0.15, 0.5]",1,1,,,,,,,,,0,4,4,4,0,2,2,2,,,,,,,,,,,,,,,,,,,,,,,,,,,,,,,,,,,,,,,,,,,,,,,,,,,,,,,526.5245221259993,None,526.5245221259993,None,526.5245221259993,None,m,1,1.4928980429995136,528.0584868899987,None,528.0584868899987,None,528.0584868899987,None,529.6086462849998,None,529.6086462849998,None,529.6086462849998,None,529.6086462849998,None,,,,,,,,,,,,,,,,,,,,,,,,,,,,,,,,,,,,,,,,,,,,001,15,2020_Jan_28_1418,spring_faces,3.1.5,60.06880954173199,
condition files/Stage1_1.xlsx,,T1,B1,c,"['c', 'm']","['Clue', 'Monopoly']","[-0.15, 0.5]","[0.15, 0.5]",1,1,,,,,,,,,0,4,4,4,0,3,3,0,,,,,,,,,,,,,,,,,,,,,,,,,,,,,,,,,,,,,,,,,,,,,,,,,,,,,,,531.5741279329995,None,531.5741279329995,None,531.5741279329995,None,c,1,2.02624847900006,533.109085516,None,533.109085516,None,533.109085516,None,535.1936715899992,None,535.1936715899992,None,535.1936715899992,None,535.1936715899992,None,,,,,,,,,,,,,,,,,,,,,,,,,,,,,,,,,,,,,,,,,,,,001,15,2020_Jan_28_1418,spring_faces,3.1.5,60.06880954173199,
condition files/Stage1_1.xlsx,,B4,T4,m,"['c', 'm']","['Clue', 'Monopoly']","[-0.15, 0.5]","[0.15, 0.5]",1,1,,,,,,,,,0,4,4,4,0,4,4,7,,,,,,,,,,,,,,,,,,,,,,,,,,,,,,,,,,,,,,,,,,,,,,,,,,,,,,,537.1574595269994,None,537.1574595269994,None,537.1574595269994,None,m,1,0.7160802770013106,538.691308685,None,538.691308685,None,538.691308685,None,539.4608502840001,None,539.4608502840001,None,539.4608502840001,None,539.4608502840001,None,,,,,,,,,,,,,,,,,,,,,,,,,,,,,,,,,,,,,,,,,,,,001,15,2020_Jan_28_1418,spring_faces,3.1.5,60.06880954173199,
condition files/Stage1_1.xlsx,,T2,B2,m,"['c', 'm']","['Clue', 'Monopoly']","[-0.15, 0.5]","[0.15, 0.5]",1,1,,,,,,,,,0,4,4,4,0,5,5,3,,,,,,,,,,,,,,,,,,,,,,,,,,,,,,,,,,,,,,,,,,,,,,,,,,,,,,,541.4239904639999,None,541.4239904639999,None,541.4239904639999,None,c,0,1.7271511839990126,542.9602182609997,None,542.9602182609997,None,542.9602182609997,None,544.7413638679991,None,544.7413638679991,None,544.7413638679991,None,544.7413638679991,None,,,,,,,,,,,,,,,,,,,,,,,,,,,,,,,,,,,,,,,,,,,,001,15,2020_Jan_28_1418,spring_faces,3.1.5,60.06880954173199,
condition files/Stage1_1.xlsx,,B1,T2,c,"['c', 'm']","['Clue', 'Monopoly']","[-0.15, 0.5]","[0.15, 0.5]",1,1,,,,,,,,,0,4,4,4,0,6,6,1,,,,,,,,,,,,,,,,,,,,,,,,,,,,,,,,,,,,,,,,,,,,,,,,,,,,,,,546.708043314,None,546.708043314,None,546.708043314,None,c,1,1.6456384640005126,548.241687877,None,548.241687877,None,548.241687877,None,549.9574666569988,None,549.9574666569988,None,549.9574666569988,None,549.9574666569988,None,,,,,,,,,,,,,,,,,,,,,,,,,,,,,,,,,,,,,,,,,,,,001,15,2020_Jan_28_1418,spring_faces,3.1.5,60.06880954173199,
condition files/Stage1_1.xlsx,,T3,B4,c,"['c', 'm']","['Clue', 'Monopoly']","[-0.15, 0.5]","[0.15, 0.5]",1,1,,,,,,,,,0,4,4,4,0,7,7,5,,,,,,,,,,,,,,,,,,,,,,,,,,,,,,,,,,,,,,,,,,,,,,,,,,,,,,,551.9246833899997,None,551.9246833899997,None,551.9246833899997,None,m,0,0.9259216430000379,553.4415242790001,None,553.4415242790001,None,553.4415242790001,None,554.4247604539996,None,554.4247604539996,None,554.4247604539996,None,554.4247604539996,None,,,,,,,,,,,,,,,,,,,,,,,,,,,,,,,,,,,,,,,,,,,,001,15,2020_Jan_28_1418,spring_faces,3.1.5,60.06880954173199,
condition files/Stage1_2.xlsx,,B4,T3,c,"['c', 'm']","['Clue', 'Monopoly']","[-0.15, 0.5]","[0.15, 0.5]",1,1,,,,,,,,,0,5,5,5,0,0,0,5,,,,,,,,,,,,,,,,,,,,,,,,,,,,,,,,,,,,,,,,,,,,,,,,,,,,,,,556.4076375019995,None,556.4076375019995,None,556.4076375019995,None,c,1,0.9697756589994242,557.957605566,None,557.957605566,None,557.957605566,None,558.9914725369999,None,558.9914725369999,None,558.9914725369999,None,558.9914725369999,None,,,,,,,,,,,,,,,,,,,,,,,,,,,,,,,,,,,,,,,,,,,,001,15,2020_Jan_28_1418,spring_faces,3.1.5,60.06880954173199,
condition files/Stage1_2.xlsx,,B1,T1,c,"['c', 'm']","['Clue', 'Monopoly']","[-0.15, 0.5]","[0.15, 0.5]",1,1,,,,,,,,,0,5,5,5,0,1,1,0,,,,,,,,,,,,,,,,,,,,,,,,,,,,,,,,,,,,,,,,,,,,,,,,,,,,,,,560.9579536029996,None,560.9579536029996,None,560.9579536029996,None,m,0,1.3316293190000579,562.4917211789998,None,562.4917211789998,None,562.4917211789998,None,563.874751632,None,563.874751632,None,563.874751632,None,563.874751632,None,,,,,,,,,,,,,,,,,,,,,,,,,,,,,,,,,,,,,,,,,,,,001,15,2020_Jan_28_1418,spring_faces,3.1.5,60.06880954173199,
condition files/Stage1_2.xlsx,,T2,B1,c,"['c', 'm']","['Clue', 'Monopoly']","[-0.15, 0.5]","[0.15, 0.5]",1,1,,,,,,,,,0,5,5,5,0,2,2,1,,,,,,,,,,,,,,,,,,,,,,,,,,,,,,,,,,,,,,,,,,,,,,,,,,,,,,,565.8413273669994,None,565.8413273669994,None,565.8413273669994,None,c,1,1.9200028959985502,567.3753716369993,None,567.3753716369993,None,567.3753716369993,None,569.3574545539996,None,569.3574545539996,None,569.3574545539996,None,569.3574545539996,None,,,,,,,,,,,,,,,,,,,,,,,,,,,,,,,,,,,,,,,,,,,,001,15,2020_Jan_28_1418,spring_faces,3.1.5,60.06880954173199,
condition files/Stage1_2.xlsx,,B2,T2,m,"['c', 'm']","['Clue', 'Monopoly']","[-0.15, 0.5]","[0.15, 0.5]",1,1,,,,,,,,,0,5,5,5,0,3,3,3,,,,,,,,,,,,,,,,,,,,,,,,,,,,,,,,,,,,,,,,,,,,,,,,,,,,,,,571.3239176949992,None,571.3239176949992,None,571.3239176949992,None,m,1,1.669259451000471,572.8581116909991,None,572.8581116909991,None,572.8581116909991,None,574.6080798629991,None,574.6080798629991,None,574.6080798629991,None,574.6080798629991,None,,,,,,,,,,,,,,,,,,,,,,,,,,,,,,,,,,,,,,,,,,,,001,15,2020_Jan_28_1418,spring_faces,3.1.5,60.06880954173199,
condition files/Stage1_2.xlsx,,T4,B4,m,"['c', 'm']","['Clue', 'Monopoly']","[-0.15, 0.5]","[0.15, 0.5]",1,1,,,,,,,,,0,5,5,5,0,4,4,7,,,,,,,,,,,,,,,,,,,,,,,,,,,,,,,,,,,,,,,,,,,,,,,,,,,,,,,576.557974383999,None,576.557974383999,None,576.557974383999,None,m,1,1.0743161579994194,578.0931408859997,None,578.0931408859997,None,578.0931408859997,None,579.2249472929998,None,579.2249472929998,None,579.2249472929998,None,579.2249472929998,None,,,,,,,,,,,,,,,,,,,,,,,,,,,,,,,,,,,,,,,,,,,,001,15,2020_Jan_28_1418,spring_faces,3.1.5,60.06880954173199,
condition files/Stage1_2.xlsx,,T1,B2,m,"['c', 'm']","['Clue', 'Monopoly']","[-0.15, 0.5]","[0.15, 0.5]",1,1,,,,,,,,,0,5,5,5,0,5,5,2,,,,,,,,,,,,,,,,,,,,,,,,,,,,,,,,,,,,,,,,,,,,,,,,,,,,,,,581.1911512409988,None,581.1911512409988,None,581.1911512409988,None,m,1,4.314815065999937,582.7245466469994,None,582.7245466469994,None,582.7245466469994,None,587.0914671369992,None,587.0914671369992,None,587.0914671369992,None,587.0914671369992,None,,,,,,,,,,,,,,,,,,,,,,,,,,,,,,,,,,,,,,,,,,,,001,15,2020_Jan_28_1418,spring_faces,3.1.5,60.06880954173199,
condition files/Stage1_2.xlsx,,B3,T4,m,"['c', 'm']","['Clue', 'Monopoly']","[-0.15, 0.5]","[0.15, 0.5]",1,1,,,,,,,,,0,5,5,5,0,6,6,6,,,,,,,,,,,,,,,,,,,,,,,,,,,,,,,,,,,,,,,,,,,,,,,,,,,,,,,589.0577636790003,None,589.0577636790003,None,589.0577636790003,None,m,1,0.752132559000529,590.5912115880001,None,590.5912115880001,None,590.5912115880001,None,591.4077944419987,None,591.4077944419987,None,591.4077944419987,None,591.4077944419987,None,,,,,,,,,,,,,,,,,,,,,,,,,,,,,,,,,,,,,,,,,,,,001,15,2020_Jan_28_1418,spring_faces,3.1.5,60.06880954173199,
condition files/Stage1_2.xlsx,,T3,B3,c,"['c', 'm']","['Clue', 'Monopoly']","[-0.15, 0.5]","[0.15, 0.5]",1,1,,,,,,,,,0,5,5,5,0,7,7,4,,,,,,,,,,,,,,,,,,,,,,,,,,,,,,,,,,,,,,,,,,,,,,,,,,,,,,,593.3746900899987,None,593.3746900899987,None,593.3746900899987,None,c,1,1.1867825869994704,594.9245821629993,None,594.9245821629993,None,594.9245821629993,None,596.1743186999993,None,596.1743186999993,None,596.1743186999993,None,596.1743186999993,None,,,,,,,,,,,,,,,,,,,,,,,,,,,,,,,,,,,,,,,,,,,,001,15,2020_Jan_28_1418,spring_faces,3.1.5,60.06880954173199,
condition files/Stage1_1.xlsx,,T1,B1,c,"['c', 'm']","['Clue', 'Monopoly']","[-0.15, 0.5]","[0.15, 0.5]",1,1,,,,,,,,,0,6,6,6,0,0,0,0,,,,,,,,,,,,,,,,,,,,,,,,,,,,,,,,,,,,,,,,,,,,,,,,,,,,,,,598.158260921,None,598.158260921,None,598.158260921,None,c,1,4.593952355999136,599.6933832719988,None,599.6933832719988,None,599.6933832719988,None,604.3408042359988,None,604.3408042359988,None,604.3408042359988,None,604.3408042359988,None,,,,,,,,,,,,,,,,,,,,,,,,,,,,,,,,,,,,,,,,,,,,001,15,2020_Jan_28_1418,spring_faces,3.1.5,60.06880954173199,
condition files/Stage1_1.xlsx,,T3,B4,c,"['c', 'm']","['Clue', 'Monopoly']","[-0.15, 0.5]","[0.15, 0.5]",1,1,,,,,,,,,0,6,6,6,0,1,1,5,,,,,,,,,,,,,,,,,,,,,,,,,,,,,,,,,,,,,,,,,,,,,,,,,,,,,,,606.3078453919989,None,606.3078453919989,None,606.3078453919989,None,c,1,1.0371619449997524,607.8421952619992,None,607.8421952619992,None,607.8421952619992,None,608.9414381979987,None,608.9414381979987,None,608.9414381979987,None,608.9414381979987,None,,,,,,,,,,,,,,,,,,,,,,,,,,,,,,,,,,,,,,,,,,,,001,15,2020_Jan_28_1418,spring_faces,3.1.5,60.06880954173199,
condition files/Stage1_1.xlsx,,B2,T1,m,"['c', 'm']","['Clue', 'Monopoly']","[-0.15, 0.5]","[0.15, 0.5]",1,1,,,,,,,,,0,6,6,6,0,2,2,2,,,,,,,,,,,,,,,,,,,,,,,,,,,,,,,,,,,,,,,,,,,,,,,,,,,,,,,610.9074514049989,None,610.9074514049989,None,610.9074514049989,None,m,1,1.4304776179997134,612.4410026969999,None,612.4410026969999,None,612.4410026969999,None,613.9408367449996,None,613.9408367449996,None,613.9408367449996,None,613.9408367449996,None,,,,,,,,,,,,,,,,,,,,,,,,,,,,,,,,,,,,,,,,,,,,001,15,2020_Jan_28_1418,spring_faces,3.1.5,60.06880954173199,
condition files/Stage1_1.xlsx,,T2,B2,m,"['c', 'm']","['Clue', 'Monopoly']","[-0.15, 0.5]","[0.15, 0.5]",1,1,,,,,,,,,0,6,6,6,0,3,3,3,,,,,,,,,,,,,,,,,,,,,,,,,,,,,,,,,,,,,,,,,,,,,,,,,,,,,,,615.8911709900003,None,615.8911709900003,None,615.8911709900003,None,m,1,3.9006800090010074,617.4266888379989,None,617.4266888379989,None,617.4266888379989,None,621.3913214200002,None,621.3913214200002,None,621.3913214200002,None,621.3913214200002,None,,,,,,,,,,,,,,,,,,,,,,,,,,,,,,,,,,,,,,,,,,,,001,15,2020_Jan_28_1418,spring_faces,3.1.5,60.06880954173199,
condition files/Stage1_1.xlsx,,B1,T2,c,"['c', 'm']","['Clue', 'Monopoly']","[-0.15, 0.5]","[0.15, 0.5]",1,1,,,,,,,,,0,6,6,6,0,4,4,1,,,,,,,,,,,,,,,,,,,,,,,,,,,,,,,,,,,,,,,,,,,,,,,,,,,,,,,623.3578162529993,None,623.3578162529993,None,623.3578162529993,None,c,1,1.45871863299908,624.8927032920001,None,624.8927032920001,None,624.8927032920001,None,626.4249823809987,None,626.4249823809987,None,626.4249823809987,None,626.4249823809987,None,,,,,,,,,,,,,,,,,,,,,,,,,,,,,,,,,,,,,,,,,,,,001,15,2020_Jan_28_1418,spring_faces,3.1.5,60.06880954173199,
condition files/Stage1_1.xlsx,,B3,T3,c,"['c', 'm']","['Clue', 'Monopoly']","[-0.15, 0.5]","[0.15, 0.5]",1,1,,,,,,,,,0,6,6,6,0,5,5,4,,,,,,,,,,,,,,,,,,,,,,,,,,,,,,,,,,,,,,,,,,,,,,,,,,,,,,,628.3746137420003,None,628.3746137420003,None,628.3746137420003,None,c,1,1.6587442959989858,629.9087057479992,None,629.9087057479992,None,629.9087057479992,None,631.624391555999,None,631.624391555999,None,631.624391555999,None,631.624391555999,None,,,,,,,,,,,,,,,,,,,,,,,,,,,,,,,,,,,,,,,,,,,,001,15,2020_Jan_28_1418,spring_faces,3.1.5,60.06880954173199,
condition files/Stage1_1.xlsx,,B4,T4,m,"['c', 'm']","['Clue', 'Monopoly']","[-0.15, 0.5]","[0.15, 0.5]",1,1,,,,,,,,,0,6,6,6,0,6,6,7,,,,,,,,,,,,,,,,,,,,,,,,,,,,,,,,,,,,,,,,,,,,,,,,,,,,,,,633.5909603170003,None,633.5909603170003,None,633.5909603170003,None,m,1,0.7788449590007076,635.1245128649989,None,635.1245128649989,None,635.1245128649989,None,635.9741809329989,None,635.9741809329989,None,635.9741809329989,None,635.9741809329989,None,,,,,,,,,,,,,,,,,,,,,,,,,,,,,,,,,,,,,,,,,,,,001,15,2020_Jan_28_1418,spring_faces,3.1.5,60.06880954173199,
condition files/Stage1_1.xlsx,,T4,B3,m,"['c', 'm']","['Clue', 'Monopoly']","[-0.15, 0.5]","[0.15, 0.5]",1,1,,,,,,,,,0,6,6,6,0,7,7,6,,,,,,,,,,,,,,,,,,,,,,,,,,,,,,,,,,,,,,,,,,,,,,,,,,,,,,,637.9246888609996,None,637.9246888609996,None,637.9246888609996,None,m,1,0.6534672910001973,639.4578948729995,None,639.4578948729995,None,639.4578948729995,None,640.174123064,None,640.174123064,None,640.174123064,None,640.174123064,None,,,,,,,,,,,,,,,,,,,,,,,,,,,,,,,,,,,,,,,,,,,,001,15,2020_Jan_28_1418,spring_faces,3.1.5,60.06880954173199,
condition files/Stage1_2.xlsx,,T4,B4,m,"['c', 'm']","['Clue', 'Monopoly']","[-0.15, 0.5]","[0.15, 0.5]",1,1,,,,,,,,,0,7,7,7,0,0,0,7,,,,,,,,,,,,,,,,,,,,,,,,,,,,,,,,,,,,,,,,,,,,,,,,,,,,,,,642.1585395410002,None,642.1585395410002,None,642.1585395410002,None,m,1,0.7230550230015069,643.6923624069987,None,643.6923624069987,None,643.6923624069987,None,644.4746312749994,None,644.4746312749994,None,644.4746312749994,None,644.4746312749994,None,,,,,,,,,,,,,,,,,,,,,,,,,,,,,,,,,,,,,,,,,,,,001,15,2020_Jan_28_1418,spring_faces,3.1.5,60.06880954173199,
condition files/Stage1_2.xlsx,,B2,T2,m,"['c', 'm']","['Clue', 'Monopoly']","[-0.15, 0.5]","[0.15, 0.5]",1,1,,,,,,,,,0,7,7,7,0,1,1,3,,,,,,,,,,,,,,,,,,,,,,,,,,,,,,,,,,,,,,,,,,,,,,,,,,,,,,,646.4412654139996,None,646.4412654139996,None,646.4412654139996,None,m,1,1.6088860500003648,647.9745387619987,None,647.9745387619987,None,647.9745387619987,None,649.6409056379998,None,649.6409056379998,None,649.6409056379998,None,649.6409056379998,None,,,,,,,,,,,,,,,,,,,,,,,,,,,,,,,,,,,,,,,,,,,,001,15,2020_Jan_28_1418,spring_faces,3.1.5,60.06880954173199,
condition files/Stage1_2.xlsx,,B4,T3,c,"['c', 'm']","['Clue', 'Monopoly']","[-0.15, 0.5]","[0.15, 0.5]",1,1,,,,,,,,,0,7,7,7,0,2,2,5,,,,,,,,,,,,,,,,,,,,,,,,,,,,,,,,,,,,,,,,,,,,,,,,,,,,,,,651.6080003070001,None,651.6080003070001,None,651.6080003070001,None,c,1,0.7447929560003104,653.1425407819988,None,653.1425407819988,None,653.1425407819988,None,653.9577044319994,None,653.9577044319994,None,653.9577044319994,None,653.9577044319994,None,,,,,,,,,,,,,,,,,,,,,,,,,,,,,,,,,,,,,,,,,,,,001,15,2020_Jan_28_1418,spring_faces,3.1.5,60.06880954173199,
condition files/Stage1_2.xlsx,,B1,T1,c,"['c', 'm']","['Clue', 'Monopoly']","[-0.15, 0.5]","[0.15, 0.5]",1,1,,,,,,,,,0,7,7,7,0,3,3,0,,,,,,,,,,,,,,,,,,,,,,,,,,,,,,,,,,,,,,,,,,,,,,,,,,,,,,,655.9074956519999,None,655.9074956519999,None,655.9074956519999,None,c,1,2.781818032000956,657.4415508949987,None,657.4415508949987,None,657.4415508949987,None,660.2745339979992,None,660.2745339979992,None,660.2745339979992,None,660.2745339979992,None,,,,,,,,,,,,,,,,,,,,,,,,,,,,,,,,,,,,,,,,,,,,001,15,2020_Jan_28_1418,spring_faces,3.1.5,60.06880954173199,
condition files/Stage1_2.xlsx,,B3,T4,m,"['c', 'm']","['Clue', 'Monopoly']","[-0.15, 0.5]","[0.15, 0.5]",1,1,,,,,,,,,0,7,7,7,0,4,4,6,,,,,,,,,,,,,,,,,,,,,,,,,,,,,,,,,,,,,,,,,,,,,,,,,,,,,,,662.2413442519992,None,662.2413442519992,None,662.2413442519992,None,m,1,0.769041608000407,663.774322846999,None,663.774322846999,None,663.774322846999,None,664.6075829889996,None,664.6075829889996,None,664.6075829889996,None,664.6075829889996,None,,,,,,,,,,,,,,,,,,,,,,,,,,,,,,,,,,,,,,,,,,,,001,15,2020_Jan_28_1418,spring_faces,3.1.5,60.06880954173199,
condition files/Stage1_2.xlsx,,T3,B3,c,"['c', 'm']","['Clue', 'Monopoly']","[-0.15, 0.5]","[0.15, 0.5]",1,1,,,,,,,,,0,7,7,7,0,5,5,4,,,,,,,,,,,,,,,,,,,,,,,,,,,,,,,,,,,,,,,,,,,,,,,,,,,,,,,666.5741276079989,None,666.5741276079989,None,666.5741276079989,None,c,1,1.1062896050007112,668.1091421359997,None,668.1091421359997,None,668.1091421359997,None,669.2775109459999,None,669.2775109459999,None,669.2775109459999,None,669.2775109459999,None,,,,,,,,,,,,,,,,,,,,,,,,,,,,,,,,,,,,,,,,,,,,001,15,2020_Jan_28_1418,spring_faces,3.1.5,60.06880954173199,
condition files/Stage1_2.xlsx,,T1,B2,m,"['c', 'm']","['Clue', 'Monopoly']","[-0.15, 0.5]","[0.15, 0.5]",1,1,,,,,,,,,0,7,7,7,0,6,6,2,,,,,,,,,,,,,,,,,,,,,,,,,,,,,,,,,,,,,,,,,,,,,,,,,,,,,,,671.2407854630001,None,671.2407854630001,None,671.2407854630001,None,m,1,2.4090476170003967,672.7743822779994,None,672.7743822779994,None,672.7743822779994,None,675.2417256499994,None,675.2417256499994,None,675.2417256499994,None,675.2417256499994,None,,,,,,,,,,,,,,,,,,,,,,,,,,,,,,,,,,,,,,,,,,,,001,15,2020_Jan_28_1418,spring_faces,3.1.5,60.06880954173199,
condition files/Stage1_2.xlsx,,T2,B1,c,"['c', 'm']","['Clue', 'Monopoly']","[-0.15, 0.5]","[0.15, 0.5]",1,1,,,,,,,,,0,7,7,7,0,7,7,1,,,,,,,,,,,,,,,,,,,,,,,,,,,,,,,,,,,,,,,,,,,,,,,,,,,,,,,677.208085921,None,677.208085921,None,677.208085921,None,c,1,2.234229081999729,678.741103802,None,678.741103802,None,678.741103802,None,681.0406982169989,None,681.0406982169989,None,681.0406982169989,None,681.0406982169989,None,,,,,,,,,,,,,,,,,,,,,,,,,,,,,,,,,,,,,,,,,,,,001,15,2020_Jan_28_1418,spring_faces,3.1.5,60.06880954173199,
condition files/Stage1_1.xlsx,,T3,B4,c,"['c', 'm']","['Clue', 'Monopoly']","[-0.15, 0.5]","[0.15, 0.5]",1,1,,,,,,,,,0,8,8,8,0,0,0,5,,,,,,,,,,,,,,,,,,,,,,,,,,,,,,,,,,,,,,,,,,,,,,,,,,,,,,,683.0242662479995,None,683.0242662479995,None,683.0242662479995,None,c,1,1.1194899549991533,684.559891773999,None,684.559891773999,None,684.559891773999,None,685.7433842069986,None,685.7433842069986,None,685.7433842069986,None,685.7433842069986,None,,,,,,,,,,,,,,,,,,,,,,,,,,,,,,,,,,,,,,,,,,,,001,15,2020_Jan_28_1418,spring_faces,3.1.5,60.06880954173199,
condition files/Stage1_1.xlsx,,B4,T4,m,"['c', 'm']","['Clue', 'Monopoly']","[-0.15, 0.5]","[0.15, 0.5]",1,1,,,,,,,,,0,8,8,8,0,1,1,7,,,,,,,,,,,,,,,,,,,,,,,,,,,,,,,,,,,,,,,,,,,,,,,,,,,,,,,687.7077752929999,None,687.7077752929999,None,687.7077752929999,None,m,1,1.109343785999954,689.2420921979992,None,689.2420921979992,None,689.2420921979992,None,690.4100740369995,None,690.4100740369995,None,690.4100740369995,None,690.4100740369995,None,,,,,,,,,,,,,,,,,,,,,,,,,,,,,,,,,,,,,,,,,,,,001,15,2020_Jan_28_1418,spring_faces,3.1.5,60.06880954173199,
condition files/Stage1_1.xlsx,,B3,T3,c,"['c', 'm']","['Clue', 'Monopoly']","[-0.15, 0.5]","[0.15, 0.5]",1,1,,,,,,,,,0,8,8,8,0,2,2,4,,,,,,,,,,,,,,,,,,,,,,,,,,,,,,,,,,,,,,,,,,,,,,,,,,,,,,,692.3739147559991,None,692.3739147559991,None,692.3739147559991,None,c,1,1.2442125089983165,693.9072155249996,None,693.9072155249996,None,693.9072155249996,None,695.2099103820001,None,695.2099103820001,None,695.2099103820001,None,695.2099103820001,None,,,,,,,,,,,,,,,,,,,,,,,,,,,,,,,,,,,,,,,,,,,,001,15,2020_Jan_28_1418,spring_faces,3.1.5,60.06880954173199,
condition files/Stage1_1.xlsx,,T4,B3,m,"['c', 'm']","['Clue', 'Monopoly']","[-0.15, 0.5]","[0.15, 0.5]",1,1,,,,,,,,,0,8,8,8,0,3,3,6,,,,,,,,,,,,,,,,,,,,,,,,,,,,,,,,,,,,,,,,,,,,,,,,,,,,,,,697.1740833299991,None,697.1740833299991,None,697.1740833299991,None,m,1,0.8268004820001806,698.708588522999,None,698.708588522999,None,698.708588522999,None,699.594057712,None,699.594057712,None,699.594057712,None,699.594057712,None,,,,,,,,,,,,,,,,,,,,,,,,,,,,,,,,,,,,,,,,,,,,001,15,2020_Jan_28_1418,spring_faces,3.1.5,60.06880954173199,
condition files/Stage1_1.xlsx,,T1,B1,c,"['c', 'm']","['Clue', 'Monopoly']","[-0.15, 0.5]","[0.15, 0.5]",1,1,,,,,,,,,0,8,8,8,0,4,4,0,,,,,,,,,,,,,,,,,,,,,,,,,,,,,,,,,,,,,,,,,,,,,,,,,,,,,,,701.5577742379992,None,701.5577742379992,None,701.5577742379992,None,c,1,2.505752160999691,703.0936796959995,None,703.0936796959995,None,703.0936796959995,None,705.6581854119995,None,705.6581854119995,None,705.6581854119995,None,705.6581854119995,None,,,,,,,,,,,,,,,,,,,,,,,,,,,,,,,,,,,,,,,,,,,,001,15,2020_Jan_28_1418,spring_faces,3.1.5,60.06880954173199,
condition files/Stage1_1.xlsx,,B2,T1,m,"['c', 'm']","['Clue', 'Monopoly']","[-0.15, 0.5]","[0.15, 0.5]",1,1,,,,,,,,,0,8,8,8,0,5,5,2,,,,,,,,,,,,,,,,,,,,,,,,,,,,,,,,,,,,,,,,,,,,,,,,,,,,,,,707.6244675059988,None,707.6244675059988,None,707.6244675059988,None,m,1,1.9284601969993673,709.1749285409987,None,709.1749285409987,None,709.1749285409987,None,711.1598025509993,None,711.1598025509993,None,711.1598025509993,None,711.1598025509993,None,,,,,,,,,,,,,,,,,,,,,,,,,,,,,,,,,,,,,,,,,,,,001,15,2020_Jan_28_1418,spring_faces,3.1.5,60.06880954173199,
condition files/Stage1_1.xlsx,,B1,T2,c,"['c', 'm']","['Clue', 'Monopoly']","[-0.15, 0.5]","[0.15, 0.5]",1,1,,,,,,,,,0,8,8,8,0,6,6,1,,,,,,,,,,,,,,,,,,,,,,,,,,,,,,,,,,,,,,,,,,,,,,,,,,,,,,,713.1247013399989,None,713.1247013399989,None,713.1247013399989,None,c,1,2.876909164000608,714.6744824219986,None,714.6744824219986,None,714.6744824219986,None,717.6244138820002,None,717.6244138820002,None,717.6244138820002,None,717.6244138820002,None,,,,,,,,,,,,,,,,,,,,,,,,,,,,,,,,,,,,,,,,,,,,001,15,2020_Jan_28_1418,spring_faces,3.1.5,60.06880954173199,
condition files/Stage1_1.xlsx,,T2,B2,m,"['c', 'm']","['Clue', 'Monopoly']","[-0.15, 0.5]","[0.15, 0.5]",1,1,,,,,,,,,0,8,8,8,0,7,7,3,,,,,,,,,,,,,,,,,,,,,,,,,,,,,,,,,,,,,,,,,,,,,,,,,,,,,,,719.5745181929997,None,719.5745181929997,None,719.5745181929997,None,m,1,2.7306546769996203,721.1246852280001,None,721.1246852280001,None,721.1246852280001,None,723.9250529469991,None,723.9250529469991,None,723.9250529469991,None,723.9250529469991,None,,,,,,,,,,,,,,,,,,,,,,,,,,,,,,,,,,,,,,,,,,,,001,15,2020_Jan_28_1418,spring_faces,3.1.5,60.06880954173199,
condition files/Stage1_2.xlsx,,T1,B2,m,"['c', 'm']","['Clue', 'Monopoly']","[-0.15, 0.5]","[0.15, 0.5]",1,1,,,,,,,,,0,9,9,9,0,0,0,2,,,,,,,,,,,,,,,,,,,,,,,,,,,,,,,,,,,,,,,,,,,,,,,,,,,,,,,725.8908845299993,None,725.8908845299993,None,725.8908845299993,None,m,1,0.6057219520007493,727.441697070999,None,727.441697070999,None,727.441697070999,None,728.1084555219986,None,728.1084555219986,None,728.1084555219986,None,728.1084555219986,None,,,,,,,,,,,,,,,,,,,,,,,,,,,,,,,,,,,,,,,,,,,,001,15,2020_Jan_28_1418,spring_faces,3.1.5,60.06880954173199,
condition files/Stage1_2.xlsx,,B2,T2,m,"['c', 'm']","['Clue', 'Monopoly']","[-0.15, 0.5]","[0.15, 0.5]",1,1,,,,,,,,,0,9,9,9,0,1,1,3,,,,,,,,,,,,,,,,,,,,,,,,,,,,,,,,,,,,,,,,,,,,,,,,,,,,,,,730.0744378159998,None,730.0744378159998,None,730.0744378159998,None,m,1,1.8931096679989423,731.610216187999,None,731.610216187999,None,731.610216187999,None,733.5580316979995,None,733.5580316979995,None,733.5580316979995,None,733.5580316979995,None,,,,,,,,,,,,,,,,,,,,,,,,,,,,,,,,,,,,,,,,,,,,001,15,2020_Jan_28_1418,spring_faces,3.1.5,60.06880954173199,
condition files/Stage1_2.xlsx,,B3,T4,m,"['c', 'm']","['Clue', 'Monopoly']","[-0.15, 0.5]","[0.15, 0.5]",1,1,,,,,,,,,0,9,9,9,0,2,2,6,,,,,,,,,,,,,,,,,,,,,,,,,,,,,,,,,,,,,,,,,,,,,,,,,,,,,,,735.5246628240002,None,735.5246628240002,None,735.5246628240002,None,m,1,1.7092343650001567,737.0582093350004,None,737.0582093350004,None,737.0582093350004,None,738.8249949049987,None,738.8249949049987,None,738.8249949049987,None,738.8249949049987,None,,,,,,,,,,,,,,,,,,,,,,,,,,,,,,,,,,,,,,,,,,,,001,15,2020_Jan_28_1418,spring_faces,3.1.5,60.06880954173199,
condition files/Stage1_2.xlsx,,T2,B1,c,"['c', 'm']","['Clue', 'Monopoly']","[-0.15, 0.5]","[0.15, 0.5]",1,1,,,,,,,,,0,9,9,9,0,3,3,1,,,,,,,,,,,,,,,,,,,,,,,,,,,,,,,,,,,,,,,,,,,,,,,,,,,,,,,740.7908175709999,None,740.7908175709999,None,740.7908175709999,None,c,1,1.385793069999636,742.3255807739988,None,742.3255807739988,None,742.3255807739988,None,743.791247191999,None,743.791247191999,None,743.791247191999,None,743.791247191999,None,,,,,,,,,,,,,,,,,,,,,,,,,,,,,,,,,,,,,,,,,,,,001,15,2020_Jan_28_1418,spring_faces,3.1.5,60.06880954173199,
condition files/Stage1_2.xlsx,,B4,T3,c,"['c', 'm']","['Clue', 'Monopoly']","[-0.15, 0.5]","[0.15, 0.5]",1,1,,,,,,,,,0,9,9,9,0,4,4,5,,,,,,,,,,,,,,,,,,,,,,,,,,,,,,,,,,,,,,,,,,,,,,,,,,,,,,,745.7412163049994,None,745.7412163049994,None,745.7412163049994,None,c,1,1.109077946999605,747.2743595430002,None,747.2743595430002,None,747.2743595430002,None,748.4416988159992,None,748.4416988159992,None,748.4416988159992,None,748.4416988159992,None,,,,,,,,,,,,,,,,,,,,,,,,,,,,,,,,,,,,,,,,,,,,001,15,2020_Jan_28_1418,spring_faces,3.1.5,60.06880954173199,
condition files/Stage1_2.xlsx,,B1,T1,c,"['c', 'm']","['Clue', 'Monopoly']","[-0.15, 0.5]","[0.15, 0.5]",1,1,,,,,,,,,0,9,9,9,0,5,5,0,,,,,,,,,,,,,,,,,,,,,,,,,,,,,,,,,,,,,,,,,,,,,,,,,,,,,,,750.4079128920002,None,750.4079128920002,None,750.4079128920002,None,c,1,1.7382797859991115,751.9410820329995,None,751.9410820329995,None,751.9410820329995,None,753.7410442069995,None,753.7410442069995,None,753.7410442069995,None,753.7410442069995,None,,,,,,,,,,,,,,,,,,,,,,,,,,,,,,,,,,,,,,,,,,,,001,15,2020_Jan_28_1418,spring_faces,3.1.5,60.06880954173199,
condition files/Stage1_2.xlsx,,T3,B3,c,"['c', 'm']","['Clue', 'Monopoly']","[-0.15, 0.5]","[0.15, 0.5]",1,1,,,,,,,,,0,9,9,9,0,6,6,4,,,,,,,,,,,,,,,,,,,,,,,,,,,,,,,,,,,,,,,,,,,,,,,,,,,,,,,755.7078314689988,None,755.7078314689988,None,755.7078314689988,None,c,1,2.6140882490017248,757.2412757139991,None,757.2412757139991,None,757.2412757139991,None,759.9079662929998,None,759.9079662929998,None,759.9079662929998,None,759.9079662929998,None,,,,,,,,,,,,,,,,,,,,,,,,,,,,,,,,,,,,,,,,,,,,001,15,2020_Jan_28_1418,spring_faces,3.1.5,60.06880954173199,
condition files/Stage1_2.xlsx,,T4,B4,m,"['c', 'm']","['Clue', 'Monopoly']","[-0.15, 0.5]","[0.15, 0.5]",1,1,,,,,,,,,0,9,9,9,0,7,7,7,,,,,,,,,,,,,,,,,,,,,,,,,,,,,,,,,,,,,,,,,,,,,,,,,,,,,,,761.8747502770002,None,761.8747502770002,None,761.8747502770002,None,m,1,0.671587274000558,763.4078041979992,None,763.4078041979992,None,763.4078041979992,None,764.1577159640001,None,764.1577159640001,None,764.1577159640001,None,764.1577159640001,None,,,,,,,,,,,,,,,,,,,,,,,,,,,,,,,,,,,,,,,,,,,,001,15,2020_Jan_28_1418,spring_faces,3.1.5,60.06880954173199,
condition files/Stage1_1.xlsx,,T1,B1,c,"['c', 'm']","['Clue', 'Monopoly']","[-0.15, 0.5]","[0.15, 0.5]",1,1,,,,,,,,,0,10,10,10,0,0,0,0,,,,,,,,,,,,,,,,,,,,,,,,,,,,,,,,,,,,,,,,,,,,,,,,,,,,,,,766.124789174999,None,766.124789174999,None,766.124789174999,None,c,1,1.3972844630006875,767.6580842299991,None,767.6580842299991,None,767.6580842299991,None,769.1093654169999,None,769.1093654169999,None,769.1093654169999,None,769.1093654169999,None,,,,,,,,,,,,,,,,,,,,,,,,,,,,,,,,,,,,,,,,,,,,001,15,2020_Jan_28_1418,spring_faces,3.1.5,60.06880954173199,
condition files/Stage1_1.xlsx,,B4,T4,m,"['c', 'm']","['Clue', 'Monopoly']","[-0.15, 0.5]","[0.15, 0.5]",1,1,,,,,,,,,0,10,10,10,0,1,1,7,,,,,,,,,,,,,,,,,,,,,,,,,,,,,,,,,,,,,,,,,,,,,,,,,,,,,,,771.0744595849992,None,771.0744595849992,None,771.0744595849992,None,m,1,1.1332150620000903,772.6101117340004,None,772.6101117340004,None,772.6101117340004,None,773.8081019919991,None,773.8081019919991,None,773.8081019919991,None,773.8081019919991,None,,,,,,,,,,,,,,,,,,,,,,,,,,,,,,,,,,,,,,,,,,,,001,15,2020_Jan_28_1418,spring_faces,3.1.5,60.06880954173199,
condition files/Stage1_1.xlsx,,B3,T3,c,"['c', 'm']","['Clue', 'Monopoly']","[-0.15, 0.5]","[0.15, 0.5]",1,1,,,,,,,,,0,10,10,10,0,2,2,4,,,,,,,,,,,,,,,,,,,,,,,,,,,,,,,,,,,,,,,,,,,,,,,,,,,,,,,775.7741054090002,None,775.7741054090002,None,775.7741054090002,None,c,1,1.0756697019987769,777.3077577739987,None,777.3077577739987,None,777.3077577739987,None,778.4434467230003,None,778.4434467230003,None,778.4434467230003,None,778.4434467230003,None,,,,,,,,,,,,,,,,,,,,,,,,,,,,,,,,,,,,,,,,,,,,001,15,2020_Jan_28_1418,spring_faces,3.1.5,60.06880954173199,
condition files/Stage1_1.xlsx,,B1,T2,c,"['c', 'm']","['Clue', 'Monopoly']","[-0.15, 0.5]","[0.15, 0.5]",1,1,,,,,,,,,0,10,10,10,0,3,3,1,,,,,,,,,,,,,,,,,,,,,,,,,,,,,,,,,,,,,,,,,,,,,,,,,,,,,,,780.4074255209998,None,780.4074255209998,None,780.4074255209998,None,c,1,1.6577171529988846,781.9576762500001,None,781.9576762500001,None,781.9576762500001,None,783.6750743989996,None,783.6750743989996,None,783.6750743989996,None,783.6750743989996,None,,,,,,,,,,,,,,,,,,,,,,,,,,,,,,,,,,,,,,,,,,,,001,15,2020_Jan_28_1418,spring_faces,3.1.5,60.06880954173199,
condition files/Stage1_1.xlsx,,B2,T1,m,"['c', 'm']","['Clue', 'Monopoly']","[-0.15, 0.5]","[0.15, 0.5]",1,1,,,,,,,,,0,10,10,10,0,4,4,2,,,,,,,,,,,,,,,,,,,,,,,,,,,,,,,,,,,,,,,,,,,,,,,,,,,,,,,785.6405457189994,None,785.6405457189994,None,785.6405457189994,None,m,1,2.3755160239998077,787.175912581999,None,787.175912581999,None,787.175912581999,None,789.6079611799996,None,789.6079611799996,None,789.6079611799996,None,789.6079611799996,None,,,,,,,,,,,,,,,,,,,,,,,,,,,,,,,,,,,,,,,,,,,,001,15,2020_Jan_28_1418,spring_faces,3.1.5,60.06880954173199,
condition files/Stage1_1.xlsx,,T4,B3,m,"['c', 'm']","['Clue', 'Monopoly']","[-0.15, 0.5]","[0.15, 0.5]",1,1,,,,,,,,,0,10,10,10,0,5,5,6,,,,,,,,,,,,,,,,,,,,,,,,,,,,,,,,,,,,,,,,,,,,,,,,,,,,,,,791.5745119909989,None,791.5745119909989,None,791.5745119909989,None,m,1,0.9077393419993314,793.1076937959988,None,793.1076937959988,None,793.1076937959988,None,794.074822605,None,794.074822605,None,794.074822605,None,794.074822605,None,,,,,,,,,,,,,,,,,,,,,,,,,,,,,,,,,,,,,,,,,,,,001,15,2020_Jan_28_1418,spring_faces,3.1.5,60.06880954173199,
condition files/Stage1_1.xlsx,,T3,B4,c,"['c', 'm']","['Clue', 'Monopoly']","[-0.15, 0.5]","[0.15, 0.5]",1,1,,,,,,,,,0,10,10,10,0,6,6,5,,,,,,,,,,,,,,,,,,,,,,,,,,,,,,,,,,,,,,,,,,,,,,,,,,,,,,,796.0412044559998,None,796.0412044559998,None,796.0412044559998,None,c,1,0.5524509000006219,797.574915842999,None,797.574915842999,None,797.574915842999,None,798.1930666979988,None,798.1930666979988,None,798.1930666979988,None,798.1930666979988,None,,,,,,,,,,,,,,,,,,,,,,,,,,,,,,,,,,,,,,,,,,,,001,15,2020_Jan_28_1418,spring_faces,3.1.5,60.06880954173199,
condition files/Stage1_1.xlsx,,T2,B2,m,"['c', 'm']","['Clue', 'Monopoly']","[-0.15, 0.5]","[0.15, 0.5]",1,1,,,,,,,,,0,10,10,10,0,7,7,3,,,,,,,,,,,,,,,,,,,,,,,,,,,,,,,,,,,,,,,,,,,,,,,,,,,,,,,800.1574668220001,None,800.1574668220001,None,800.1574668220001,None,m,1,6.035692261999429,801.6916754359991,None,801.6916754359991,None,801.6916754359991,None,807.7915005939994,None,807.7915005939994,None,807.7915005939994,None,807.7915005939994,None,,,,,,,,,,,,,,,,,,,,,,,,,,,,,,,,,,,,,,,,,,,,001,15,2020_Jan_28_1418,spring_faces,3.1.5,60.06880954173199,
condition files/Stage1_2.xlsx,,B3,T4,m,"['c', 'm']","['Clue', 'Monopoly']","[-0.15, 0.5]","[0.15, 0.5]",1,1,,,,,,,,,0,11,11,11,0,0,0,6,,,,,,,,,,,,,,,,,,,,,,,,,,,,,,,,,,,,,,,,,,,,,,,,,,,,,,,809.774967080999,None,809.774967080999,None,809.774967080999,None,m,1,0.8837483440001961,811.3076357139998,None,811.3076357139998,None,811.3076357139998,None,812.2413729559994,None,812.2413729559994,None,812.2413729559994,None,812.2413729559994,None,,,,,,,,,,,,,,,,,,,,,,,,,,,,,,,,,,,,,,,,,,,,001,15,2020_Jan_28_1418,spring_faces,3.1.5,60.06880954173199,
condition files/Stage1_2.xlsx,,B4,T3,c,"['c', 'm']","['Clue', 'Monopoly']","[-0.15, 0.5]","[0.15, 0.5]",1,1,,,,,,,,,0,11,11,11,0,1,1,5,,,,,,,,,,,,,,,,,,,,,,,,,,,,,,,,,,,,,,,,,,,,,,,,,,,,,,,814.2080193900001,None,814.2080193900001,None,814.2080193900001,None,c,1,0.8024063649991149,815.7409623619988,None,815.7409623619988,None,815.7409623619988,None,816.6077131319998,None,816.6077131319998,None,816.6077131319998,None,816.6077131319998,None,,,,,,,,,,,,,,,,,,,,,,,,,,,,,,,,,,,,,,,,,,,,001,15,2020_Jan_28_1418,spring_faces,3.1.5,60.06880954173199,
condition files/Stage1_2.xlsx,,B1,T1,c,"['c', 'm']","['Clue', 'Monopoly']","[-0.15, 0.5]","[0.15, 0.5]",1,1,,,,,,,,,0,11,11,11,0,2,2,0,,,,,,,,,,,,,,,,,,,,,,,,,,,,,,,,,,,,,,,,,,,,,,,,,,,,,,,818.5747244229988,None,818.5747244229988,None,818.5747244229988,None,c,1,1.139990730000136,820.1074280049997,None,820.1074280049997,None,820.1074280049997,None,821.307767065,None,821.307767065,None,821.307767065,None,821.307767065,None,,,,,,,,,,,,,,,,,,,,,,,,,,,,,,,,,,,,,,,,,,,,001,15,2020_Jan_28_1418,spring_faces,3.1.5,60.06880954173199,
condition files/Stage1_2.xlsx,,T3,B3,c,"['c', 'm']","['Clue', 'Monopoly']","[-0.15, 0.5]","[0.15, 0.5]",1,1,,,,,,,,,0,11,11,11,0,3,3,4,,,,,,,,,,,,,,,,,,,,,,,,,,,,,,,,,,,,,,,,,,,,,,,,,,,,,,,823.2746262979999,None,823.2746262979999,None,823.2746262979999,None,c,1,1.39840029899824,824.8249551259996,None,824.8249551259996,None,824.8249551259996,None,826.2745316210003,None,826.2745316210003,None,826.2745316210003,None,826.2745316210003,None,,,,,,,,,,,,,,,,,,,,,,,,,,,,,,,,,,,,,,,,,,,,001,15,2020_Jan_28_1418,spring_faces,3.1.5,60.06880954173199,
condition files/Stage1_2.xlsx,,T4,B4,m,"['c', 'm']","['Clue', 'Monopoly']","[-0.15, 0.5]","[0.15, 0.5]",1,1,,,,,,,,,0,11,11,11,0,4,4,7,,,,,,,,,,,,,,,,,,,,,,,,,,,,,,,,,,,,,,,,,,,,,,,,,,,,,,,828.2407041049992,None,828.2407041049992,None,828.2407041049992,None,m,1,0.8151107229987247,829.7762130629999,None,829.7762130629999,None,829.7762130629999,None,830.6440035859996,None,830.6440035859996,None,830.6440035859996,None,830.6440035859996,None,,,,,,,,,,,,,,,,,,,,,,,,,,,,,,,,,,,,,,,,,,,,001,15,2020_Jan_28_1418,spring_faces,3.1.5,60.06880954173199,
condition files/Stage1_2.xlsx,,T2,B1,c,"['c', 'm']","['Clue', 'Monopoly']","[-0.15, 0.5]","[0.15, 0.5]",1,1,,,,,,,,,0,11,11,11,0,5,5,1,,,,,,,,,,,,,,,,,,,,,,,,,,,,,,,,,,,,,,,,,,,,,,,,,,,,,,,832.6084249479991,None,832.6084249479991,None,832.6084249479991,None,c,1,1.185202290000234,834.158146718999,None,834.158146718999,None,834.158146718999,None,835.4096691470004,None,835.4096691470004,None,835.4096691470004,None,835.4096691470004,None,,,,,,,,,,,,,,,,,,,,,,,,,,,,,,,,,,,,,,,,,,,,001,15,2020_Jan_28_1418,spring_faces,3.1.5,60.06880954173199,
condition files/Stage1_2.xlsx,,B2,T2,m,"['c', 'm']","['Clue', 'Monopoly']","[-0.15, 0.5]","[0.15, 0.5]",1,1,,,,,,,,,0,11,11,11,0,6,6,3,,,,,,,,,,,,,,,,,,,,,,,,,,,,,,,,,,,,,,,,,,,,,,,,,,,,,,,837.3745339999987,None,837.3745339999987,None,837.3745339999987,None,m,1,1.4266411459993833,838.9087254839997,None,838.9087254839997,None,838.9087254839997,None,840.4082717579986,None,840.4082717579986,None,840.4082717579986,None,840.4082717579986,None,,,,,,,,,,,,,,,,,,,,,,,,,,,,,,,,,,,,,,,,,,,,001,15,2020_Jan_28_1418,spring_faces,3.1.5,60.06880954173199,
condition files/Stage1_2.xlsx,,T1,B2,m,"['c', 'm']","['Clue', 'Monopoly']","[-0.15, 0.5]","[0.15, 0.5]",1,1,,,,,,,,,0,11,11,11,0,7,7,2,,,,,,,,,,,,,,,,,,,,,,,,,,,,,,,,,,,,,,,,,,,,,,,,,,,,,,,842.3572385409989,None,842.3572385409989,None,842.3572385409989,None,m,1,1.4518417199997202,843.9074379119993,None,843.9074379119993,None,843.9074379119993,None,845.4247273099991,None,845.4247273099991,None,845.4247273099991,None,845.4247273099991,None,,,,,,,,,,,,,,,,,,,,,,,,,,,,,,,,,,,,,,,,,,,,001,15,2020_Jan_28_1418,spring_faces,3.1.5,60.06880954173199,
,,,,,,,,,,,,,,,,,,,,,,,,,,,,,,,,,,,,,,,,,,,,,,,,,,,,,,,,,,,,,,,,,,,,,,,,,,,,,,,,,,,,,,,,,,,,,,,,,,,,,,,,,,,,,,,,847.4080232679989,None,space,12.823397363999902,852.4080293049992,None,,,,,,,,,,,,,,,,,,,,,,,,,,,,,,001,15,2020_Jan_28_1418,spring_faces,3.1.5,60.06880954173199,
condition files/Stage2_1.xlsx,,T3,B3,s,"['s', 'r']","['Stratego', 'Risk']","[-0.15, 0.5]","[0.15, 0.5]",1,1,,,,,,,,,,,,,,,,,0,0,0,0,0,0,0,4,,,,,,,,,,,,,,,,,,,,,,,,,,,,,,,,,,,,,,,,,,,,,,,865.2915731719986,None,865.2915731719986,None,865.2915731719986,None,s,1,1.2385838360005437,866.8247960579993,None,866.8247960579993,None,866.8247960579993,None,868.124796181999,None,868.124796181999,None,868.124796181999,None,868.124796181999,None,,,,,,,,,,,,,,,852.4080293049992,None,,,,,,,,,,,,,,,,,,,,,,,,,,,,001,15,2020_Jan_28_1418,spring_faces,3.1.5,60.06880954173199,
condition files/Stage2_1.xlsx,,T1,B1,s,"['s', 'r']","['Stratego', 'Risk']","[-0.15, 0.5]","[0.15, 0.5]",1,1,,,,,,,,,,,,,,,,,0,0,0,0,0,1,1,2,,,,,,,,,,,,,,,,,,,,,,,,,,,,,,,,,,,,,,,,,,,,,,,870.0911947690001,None,870.0911947690001,None,870.0911947690001,None,s,1,1.1580941539996275,871.625350328999,None,871.625350328999,None,871.625350328999,None,872.8415958709993,None,872.8415958709993,None,872.8415958709993,None,872.8415958709993,None,,,,,,,,,,,,,,,,,,,,,,,,,,,,,,,,,,,,,,,,,,,,001,15,2020_Jan_28_1418,spring_faces,3.1.5,60.06880954173199,
condition files/Stage2_1.xlsx,,B6,T6,r,"['s', 'r']","['Stratego', 'Risk']","[-0.15, 0.5]","[0.15, 0.5]",1,1,,,,,,,,,,,,,,,,,0,0,0,0,0,2,2,1,,,,,,,,,,,,,,,,,,,,,,,,,,,,,,,,,,,,,,,,,,,,,,,874.8072514630003,None,874.8072514630003,None,874.8072514630003,None,r,1,1.9762322080005106,876.3430589319996,None,876.3430589319996,None,876.3430589319996,None,878.3754152509991,None,878.3754152509991,None,878.3754152509991,None,878.3754152509991,None,,,,,,,,,,,,,,,,,,,,,,,,,,,,,,,,,,,,,,,,,,,,001,15,2020_Jan_28_1418,spring_faces,3.1.5,60.06880954173199,
condition files/Stage2_1.xlsx,,B4,T4,r,"['s', 'r']","['Stratego', 'Risk']","[-0.15, 0.5]","[0.15, 0.5]",1,1,,,,,,,,,,,,,,,,,0,0,0,0,0,3,3,5,,,,,,,,,,,,,,,,,,,,,,,,,,,,,,,,,,,,,,,,,,,,,,,880.3407789399989,None,880.3407789399989,None,880.3407789399989,None,r,1,1.4365679300008196,881.8907973179994,None,881.8907973179994,None,881.8907973179994,None,883.3912427979994,None,883.3912427979994,None,883.3912427979994,None,883.3912427979994,None,,,,,,,,,,,,,,,,,,,,,,,,,,,,,,,,,,,,,,,,,,,,001,15,2020_Jan_28_1418,spring_faces,3.1.5,60.06880954173199,
condition files/Stage2_1.xlsx,,B2,T2,r,"['s', 'r']","['Stratego', 'Risk']","[-0.15, 0.5]","[0.15, 0.5]",1,1,,,,,,,,,,,,,,,,,0,0,0,0,0,4,4,3,,,,,,,,,,,,,,,,,,,,,,,,,,,,,,,,,,,,,,,,,,,,,,,885.3579314259987,None,885.3579314259987,None,885.3579314259987,None,s,0,1.2346196190010232,886.8927587649996,None,886.8927587649996,None,886.8927587649996,None,888.1910974740003,None,888.1910974740003,None,888.1910974740003,None,888.1910974740003,None,,,,,,,,,,,,,,,,,,,,,,,,,,,,,,,,,,,,,,,,,,,,001,15,2020_Jan_28_1418,spring_faces,3.1.5,60.06880954173199,
condition files/Stage2_1.xlsx,,T5,B5,s,"['s', 'r']","['Stratego', 'Risk']","[-0.15, 0.5]","[0.15, 0.5]",1,1,,,,,,,,,,,,,,,,,0,0,0,0,0,5,5,0,,,,,,,,,,,,,,,,,,,,,,,,,,,,,,,,,,,,,,,,,,,,,,,890.1580310640002,None,890.1580310640002,None,890.1580310640002,None,s,1,2.2099069020005118,891.7575199069997,None,891.7575199069997,None,891.7575199069997,None,894.0259283380001,None,894.0259283380001,None,894.0259283380001,None,894.0259283380001,None,,,,,,,,,,,,,,,,,,,,,,,,,,,,,,,,,,,,,,,,,,,,001,15,2020_Jan_28_1418,spring_faces,3.1.5,60.06880954173199,
condition files/Stage2_2.xlsx,,B3,T3,s,"['s', 'r']","['Stratego', 'Risk']","[-0.15, 0.5]","[0.15, 0.5]",1,1,,,,,,,,,,,,,,,,,0,1,1,1,0,0,0,4,,,,,,,,,,,,,,,,,,,,,,,,,,,,,,,,,,,,,,,,,,,,,,,896.0075577869993,None,896.0075577869993,None,896.0075577869993,None,s,1,1.064319508999688,897.5430527739991,None,897.5430527739991,None,897.5430527739991,None,898.6579247150003,None,898.6579247150003,None,898.6579247150003,None,898.6579247150003,None,,,,,,,,,,,,,,,,,,,,,,,,,,,,,,,,,,,,,,,,,,,,001,15,2020_Jan_28_1418,spring_faces,3.1.5,60.06880954173199,
condition files/Stage2_2.xlsx,,B5,T5,s,"['s', 'r']","['Stratego', 'Risk']","[-0.15, 0.5]","[0.15, 0.5]",1,1,,,,,,,,,,,,,,,,,0,1,1,1,0,1,1,0,,,,,,,,,,,,,,,,,,,,,,,,,,,,,,,,,,,,,,,,,,,,,,,900.6244656250001,None,900.6244656250001,None,900.6244656250001,None,r,0,1.7924973970002611,902.1749321019997,None,902.1749321019997,None,902.1749321019997,None,904.025027402,None,904.025027402,None,904.025027402,None,904.025027402,None,,,,,,,,,,,,,,,,,,,,,,,,,,,,,,,,,,,,,,,,,,,,001,15,2020_Jan_28_1418,spring_faces,3.1.5,60.06880954173199,
condition files/Stage2_2.xlsx,,B1,T1,s,"['s', 'r']","['Stratego', 'Risk']","[-0.15, 0.5]","[0.15, 0.5]",1,1,,,,,,,,,,,,,,,,,0,1,1,1,0,2,2,2,,,,,,,,,,,,,,,,,,,,,,,,,,,,,,,,,,,,,,,,,,,,,,,905.991238061999,None,905.991238061999,None,905.991238061999,None,s,1,1.9949263469989091,907.5243687410002,None,907.5243687410002,None,907.5243687410002,None,909.5749473420001,None,909.5749473420001,None,909.5749473420001,None,909.5749473420001,None,,,,,,,,,,,,,,,,,,,,,,,,,,,,,,,,,,,,,,,,,,,,001,15,2020_Jan_28_1418,spring_faces,3.1.5,60.06880954173199,
condition files/Stage2_2.xlsx,,T6,B6,r,"['s', 'r']","['Stratego', 'Risk']","[-0.15, 0.5]","[0.15, 0.5]",1,1,,,,,,,,,,,,,,,,,0,1,1,1,0,3,3,1,,,,,,,,,,,,,,,,,,,,,,,,,,,,,,,,,,,,,,,,,,,,,,,911.5410346329991,None,911.5410346329991,None,911.5410346329991,None,s,0,2.3333654959988053,913.0740134609987,None,913.0740134609987,None,913.0740134609987,None,915.4744524179987,None,915.4744524179987,None,915.4744524179987,None,915.4744524179987,None,,,,,,,,,,,,,,,,,,,,,,,,,,,,,,,,,,,,,,,,,,,,001,15,2020_Jan_28_1418,spring_faces,3.1.5,60.06880954173199,
condition files/Stage2_2.xlsx,,T4,B4,r,"['s', 'r']","['Stratego', 'Risk']","[-0.15, 0.5]","[0.15, 0.5]",1,1,,,,,,,,,,,,,,,,,0,1,1,1,0,4,4,5,,,,,,,,,,,,,,,,,,,,,,,,,,,,,,,,,,,,,,,,,,,,,,,917.4241082699991,None,917.4241082699991,None,917.4241082699991,None,r,1,0.8177266830007284,918.9576138329994,None,918.9576138329994,None,918.9576138329994,None,919.8414006429994,None,919.8414006429994,None,919.8414006429994,None,919.8414006429994,None,,,,,,,,,,,,,,,,,,,,,,,,,,,,,,,,,,,,,,,,,,,,001,15,2020_Jan_28_1418,spring_faces,3.1.5,60.06880954173199,
condition files/Stage2_2.xlsx,,T2,B2,r,"['s', 'r']","['Stratego', 'Risk']","[-0.15, 0.5]","[0.15, 0.5]",1,1,,,,,,,,,,,,,,,,,0,1,1,1,0,5,5,3,,,,,,,,,,,,,,,,,,,,,,,,,,,,,,,,,,,,,,,,,,,,,,,921.8078491959986,None,921.8078491959986,None,921.8078491959986,None,r,1,1.7118386700003612,923.3435180010001,None,923.3435180010001,None,923.3435180010001,None,925.1083879329999,None,925.1083879329999,None,925.1083879329999,None,925.1083879329999,None,,,,,,,,,,,,,,,,,,,,,,,,,,,,,,,,,,,,,,,,,,,,001,15,2020_Jan_28_1418,spring_faces,3.1.5,60.06880954173199,
condition files/Stage2_1.xlsx,,B2,T2,r,"['s', 'r']","['Stratego', 'Risk']","[-0.15, 0.5]","[0.15, 0.5]",1,1,,,,,,,,,,,,,,,,,0,2,2,2,0,0,0,3,,,,,,,,,,,,,,,,,,,,,,,,,,,,,,,,,,,,,,,,,,,,,,,927.0910071130002,None,927.0910071130002,None,927.0910071130002,None,r,1,1.2139558870003384,928.6414084999997,None,928.6414084999997,None,928.6414084999997,None,929.9083411230004,None,929.9083411230004,None,929.9083411230004,None,929.9083411230004,None,,,,,,,,,,,,,,,,,,,,,,,,,,,,,,,,,,,,,,,,,,,,001,15,2020_Jan_28_1418,spring_faces,3.1.5,60.06880954173199,
condition files/Stage2_1.xlsx,,T3,B3,s,"['s', 'r']","['Stratego', 'Risk']","[-0.15, 0.5]","[0.15, 0.5]",1,1,,,,,,,,,,,,,,,,,0,2,2,2,0,1,1,4,,,,,,,,,,,,,,,,,,,,,,,,,,,,,,,,,,,,,,,,,,,,,,,931.8745132089989,None,931.8745132089989,None,931.8745132089989,None,s,1,1.118736006999825,933.4245822470002,None,933.4245822470002,None,933.4245822470002,None,934.607627456,None,934.607627456,None,934.607627456,None,934.607627456,None,,,,,,,,,,,,,,,,,,,,,,,,,,,,,,,,,,,,,,,,,,,,001,15,2020_Jan_28_1418,spring_faces,3.1.5,60.06880954173199,
condition files/Stage2_1.xlsx,,B4,T4,r,"['s', 'r']","['Stratego', 'Risk']","[-0.15, 0.5]","[0.15, 0.5]",1,1,,,,,,,,,,,,,,,,,0,2,2,2,0,2,2,5,,,,,,,,,,,,,,,,,,,,,,,,,,,,,,,,,,,,,,,,,,,,,,,936.5743721689996,None,936.5743721689996,None,936.5743721689996,None,r,1,0.5944580919986038,938.1248545339986,None,938.1248545339986,None,938.1248545339986,None,938.7763462919993,None,938.7763462919993,None,938.7763462919993,None,938.7763462919993,None,,,,,,,,,,,,,,,,,,,,,,,,,,,,,,,,,,,,,,,,,,,,001,15,2020_Jan_28_1418,spring_faces,3.1.5,60.06880954173199,
condition files/Stage2_1.xlsx,,T1,B1,s,"['s', 'r']","['Stratego', 'Risk']","[-0.15, 0.5]","[0.15, 0.5]",1,1,,,,,,,,,,,,,,,,,0,2,2,2,0,3,3,2,,,,,,,,,,,,,,,,,,,,,,,,,,,,,,,,,,,,,,,,,,,,,,,940.7408478079997,None,940.7408478079997,None,940.7408478079997,None,s,1,2.444227097001203,942.2751267249987,None,942.2751267249987,None,942.2751267249987,None,944.7911099449993,None,944.7911099449993,None,944.7911099449993,None,944.7911099449993,None,,,,,,,,,,,,,,,,,,,,,,,,,,,,,,,,,,,,,,,,,,,,001,15,2020_Jan_28_1418,spring_faces,3.1.5,60.06880954173199,
condition files/Stage2_1.xlsx,,T5,B5,s,"['s', 'r']","['Stratego', 'Risk']","[-0.15, 0.5]","[0.15, 0.5]",1,1,,,,,,,,,,,,,,,,,0,2,2,2,0,4,4,0,,,,,,,,,,,,,,,,,,,,,,,,,,,,,,,,,,,,,,,,,,,,,,,946.7407100909986,None,946.7407100909986,None,946.7407100909986,None,r,0,2.5564494190002733,948.2909640340004,None,948.2909640340004,None,948.2909640340004,None,950.9074584709997,None,950.9074584709997,None,950.9074584709997,None,950.9074584709997,None,,,,,,,,,,,,,,,,,,,,,,,,,,,,,,,,,,,,,,,,,,,,001,15,2020_Jan_28_1418,spring_faces,3.1.5,60.06880954173199,
condition files/Stage2_1.xlsx,,B6,T6,r,"['s', 'r']","['Stratego', 'Risk']","[-0.15, 0.5]","[0.15, 0.5]",1,1,,,,,,,,,,,,,,,,,0,2,2,2,0,5,5,1,,,,,,,,,,,,,,,,,,,,,,,,,,,,,,,,,,,,,,,,,,,,,,,952.8742392509994,None,952.8742392509994,None,952.8742392509994,None,r,1,2.0702774920009688,954.4091145909988,None,954.4091145909988,None,954.4091145909988,None,956.5410272560002,None,956.5410272560002,None,956.5410272560002,None,956.5410272560002,None,,,,,,,,,,,,,,,,,,,,,,,,,,,,,,,,,,,,,,,,,,,,001,15,2020_Jan_28_1418,spring_faces,3.1.5,60.06880954173199,
condition files/Stage2_2.xlsx,,B5,T5,s,"['s', 'r']","['Stratego', 'Risk']","[-0.15, 0.5]","[0.15, 0.5]",1,1,,,,,,,,,,,,,,,,,0,3,3,3,0,0,0,0,,,,,,,,,,,,,,,,,,,,,,,,,,,,,,,,,,,,,,,,,,,,,,,958.5248485229986,None,958.5248485229986,None,958.5248485229986,None,s,1,1.508011952999368,960.0594542139988,None,960.0594542139988,None,960.0594542139988,None,961.6416522279997,None,961.6416522279997,None,961.6416522279997,None,961.6416522279997,None,,,,,,,,,,,,,,,,,,,,,,,,,,,,,,,,,,,,,,,,,,,,001,15,2020_Jan_28_1418,spring_faces,3.1.5,60.06880954173199,
condition files/Stage2_2.xlsx,,B1,T1,s,"['s', 'r']","['Stratego', 'Risk']","[-0.15, 0.5]","[0.15, 0.5]",1,1,,,,,,,,,,,,,,,,,0,3,3,3,0,1,1,2,,,,,,,,,,,,,,,,,,,,,,,,,,,,,,,,,,,,,,,,,,,,,,,963.5904104919991,None,963.5904104919991,None,963.5904104919991,None,s,1,1.4664826869993703,965.1408810679986,None,965.1408810679986,None,965.1408810679986,None,966.6578417689998,None,966.6578417689998,None,966.6578417689998,None,966.6578417689998,None,,,,,,,,,,,,,,,,,,,,,,,,,,,,,,,,,,,,,,,,,,,,001,15,2020_Jan_28_1418,spring_faces,3.1.5,60.06880954173199,
condition files/Stage2_2.xlsx,,T2,B2,r,"['s', 'r']","['Stratego', 'Risk']","[-0.15, 0.5]","[0.15, 0.5]",1,1,,,,,,,,,,,,,,,,,0,3,3,3,0,2,2,3,,,,,,,,,,,,,,,,,,,,,,,,,,,,,,,,,,,,,,,,,,,,,,,968.6244543159992,None,968.6244543159992,None,968.6244543159992,None,r,1,2.880597896000836,970.1747471319995,None,970.1747471319995,None,970.1747471319995,None,973.1248476019991,None,973.1248476019991,None,973.1248476019991,None,973.1248476019991,None,,,,,,,,,,,,,,,,,,,,,,,,,,,,,,,,,,,,,,,,,,,,001,15,2020_Jan_28_1418,spring_faces,3.1.5,60.06880954173199,
condition files/Stage2_2.xlsx,,B3,T3,s,"['s', 'r']","['Stratego', 'Risk']","[-0.15, 0.5]","[0.15, 0.5]",1,1,,,,,,,,,,,,,,,,,0,3,3,3,0,3,3,4,,,,,,,,,,,,,,,,,,,,,,,,,,,,,,,,,,,,,,,,,,,,,,,975.0746408249997,None,975.0746408249997,None,975.0746408249997,None,s,1,1.2946904889995494,976.6086625839998,None,976.6086625839998,None,976.6086625839998,None,977.9588765989993,None,977.9588765989993,None,977.9588765989993,None,977.9588765989993,None,,,,,,,,,,,,,,,,,,,,,,,,,,,,,,,,,,,,,,,,,,,,001,15,2020_Jan_28_1418,spring_faces,3.1.5,60.06880954173199,
condition files/Stage2_2.xlsx,,T6,B6,r,"['s', 'r']","['Stratego', 'Risk']","[-0.15, 0.5]","[0.15, 0.5]",1,1,,,,,,,,,,,,,,,,,0,3,3,3,0,4,4,1,,,,,,,,,,,,,,,,,,,,,,,,,,,,,,,,,,,,,,,,,,,,,,,979.9246842379998,None,979.9246842379998,None,979.9246842379998,None,r,1,1.8844750139996904,981.4748252619993,None,981.4748252619993,None,981.4748252619993,None,983.4255864799998,None,983.4255864799998,None,983.4255864799998,None,983.4255864799998,None,,,,,,,,,,,,,,,,,,,,,,,,,,,,,,,,,,,,,,,,,,,,001,15,2020_Jan_28_1418,spring_faces,3.1.5,60.06880954173199,
condition files/Stage2_2.xlsx,,T4,B4,r,"['s', 'r']","['Stratego', 'Risk']","[-0.15, 0.5]","[0.15, 0.5]",1,1,,,,,,,,,,,,,,,,,0,3,3,3,0,5,5,5,,,,,,,,,,,,,,,,,,,,,,,,,,,,,,,,,,,,,,,,,,,,,,,985.3906710279989,None,985.3906710279989,None,985.3906710279989,None,r,1,1.6343331809985102,986.9249950459998,None,986.9249950459998,None,986.9249950459998,None,988.6247390279987,None,988.6247390279987,None,988.6247390279987,None,988.6247390279987,None,,,,,,,,,,,,,,,,,,,,,,,,,,,,,,,,,,,,,,,,,,,,001,15,2020_Jan_28_1418,spring_faces,3.1.5,60.06880954173199,
condition files/Stage2_1.xlsx,,T5,B5,s,"['s', 'r']","['Stratego', 'Risk']","[-0.15, 0.5]","[0.15, 0.5]",1,1,,,,,,,,,,,,,,,,,0,4,4,4,0,0,0,0,,,,,,,,,,,,,,,,,,,,,,,,,,,,,,,,,,,,,,,,,,,,,,,990.607806955999,None,990.607806955999,None,990.607806955999,None,s,1,3.344867198000429,992.1424763089999,None,992.1424763089999,None,992.1424763089999,None,995.5581993439991,None,995.5581993439991,None,995.5581993439991,None,995.5581993439991,None,,,,,,,,,,,,,,,,,,,,,,,,,,,,,,,,,,,,,,,,,,,,001,15,2020_Jan_28_1418,spring_faces,3.1.5,60.06880954173199,
condition files/Stage2_1.xlsx,,B6,T6,r,"['s', 'r']","['Stratego', 'Risk']","[-0.15, 0.5]","[0.15, 0.5]",1,1,,,,,,,,,,,,,,,,,0,4,4,4,0,1,1,1,,,,,,,,,,,,,,,,,,,,,,,,,,,,,,,,,,,,,,,,,,,,,,,997.5078629759992,None,997.5078629759992,None,997.5078629759992,None,r,1,1.9172487590003584,999.0580754160001,None,999.0580754160001,None,999.0580754160001,None,1001.0410279009993,None,1001.0410279009993,None,1001.0410279009993,None,1001.0410279009993,None,,,,,,,,,,,,,,,,,,,,,,,,,,,,,,,,,,,,,,,,,,,,001,15,2020_Jan_28_1418,spring_faces,3.1.5,60.06880954173199,
condition files/Stage2_1.xlsx,,T3,B3,s,"['s', 'r']","['Stratego', 'Risk']","[-0.15, 0.5]","[0.15, 0.5]",1,1,,,,,,,,,,,,,,,,,0,4,4,4,0,2,2,4,,,,,,,,,,,,,,,,,,,,,,,,,,,,,,,,,,,,,,,,,,,,,,,1003.0079058939991,None,1003.0079058939991,None,1003.0079058939991,None,s,1,2.9778003369992803,1004.5415648479993,None,1004.5415648479993,None,1004.5415648479993,None,1007.5915095049986,None,1007.5915095049986,None,1007.5915095049986,None,1007.5915095049986,None,,,,,,,,,,,,,,,,,,,,,,,,,,,,,,,,,,,,,,,,,,,,001,15,2020_Jan_28_1418,spring_faces,3.1.5,60.06880954173199,
condition files/Stage2_1.xlsx,,B2,T2,r,"['s', 'r']","['Stratego', 'Risk']","[-0.15, 0.5]","[0.15, 0.5]",1,1,,,,,,,,,,,,,,,,,0,4,4,4,0,3,3,3,,,,,,,,,,,,,,,,,,,,,,,,,,,,,,,,,,,,,,,,,,,,,,,1009.5408789149988,None,1009.5408789149988,None,1009.5408789149988,None,r,1,2.076071122999565,1011.0913786479996,None,1011.0913786479996,None,1011.0913786479996,None,1013.2410164129997,None,1013.2410164129997,None,1013.2410164129997,None,1013.2410164129997,None,,,,,,,,,,,,,,,,,,,,,,,,,,,,,,,,,,,,,,,,,,,,001,15,2020_Jan_28_1418,spring_faces,3.1.5,60.06880954173199,
