condsFile,subStage,cue1,cue2,correct,responseKeys,responseNames,cue1Position,cue2Position,cue1Opacity,cue2Opacity,stageLoop0.thisRepN,stageLoop0.thisTrialN,stageLoop0.thisN,stageLoop0.thisIndex,blockLoop0.thisRepN,blockLoop0.thisTrialN,blockLoop0.thisN,blockLoop0.thisIndex,stage1Loop.thisRepN,stage1Loop.thisTrialN,stage1Loop.thisN,stage1Loop.thisIndex,blockLoop1.thisRepN,blockLoop1.thisTrialN,blockLoop1.thisN,blockLoop1.thisIndex,stage2Loop.thisRepN,stage2Loop.thisTrialN,stage2Loop.thisN,stage2Loop.thisIndex,blockLoop2.thisRepN,blockLoop2.thisTrialN,blockLoop2.thisN,blockLoop2.thisIndex,testLoop.thisRepN,testLoop.thisTrialN,testLoop.thisN,testLoop.thisIndex,blockLoopTest.thisRepN,blockLoopTest.thisTrialN,blockLoopTest.thisN,blockLoopTest.thisIndex,cuePics,id_instr_text.started,id_instr_text.stopped,space_to_continue_2.started,space_to_continue_2.stopped,end_instructions_resp_3.keys,end_instructions_resp_3.rt,end_instructions_resp_3.started,end_instructions_resp_3.stopped,id_input_instr.started,id_input_instr.stopped,id_input_rect.started,id_input_rect.stopped,id_input_resp.keys,id_input_resp.rt,id_input_resp.started,id_input_resp.stopped,sonaID,id_input_text.started,id_input_text.stopped,final_text.started,final_text.stopped,instructions.started,instructions.stopped,end_instructions_resp.keys,end_instructions_resp.rt,end_instructions_resp.started,end_instructions_resp.stopped,space_to_continue.started,space_to_continue.stopped,instructions_stage0.started,instructions_stage0.stopped,end_instructions_resp_stage0.keys,end_instructions_resp_stage0.rt,end_instructions_resp_stage0.started,end_instructions_resp_stage0.stopped,space_to_continue_stage0.started,space_to_continue_stage0.stopped,text.started,text.stopped,resp_text1.started,resp_text1.stopped,resp_text2.started,resp_text2.stopped,trial_resp.keys,trial_resp.corr,trial_resp.rt,trial_resp.started,trial_resp.stopped,cue1Image.started,cue1Image.stopped,cue2Image.started,cue2Image.stopped,cue1Image_fb.started,cue1Image_fb.stopped,cue2Image_fb.started,cue2Image_fb.stopped,fb_text_answer.started,fb_text_answer.stopped,feedback_image.started,feedback_image.stopped,instructions_stage1.started,instructions_stage1.stopped,end_instructions_resp_stage1.keys,end_instructions_resp_stage1.rt,end_instructions_resp_stage1.started,end_instructions_resp_stage1.stopped,space_to_continue_stage1.started,space_to_continue_stage1.stopped,instructions_2.started,instructions_2.stopped,end_instructions_resp_2.keys,end_instructions_resp_2.rt,end_instructions_resp_2.started,end_instructions_resp_2.stopped,press_space_to_continue_stage2.started,press_space_to_continue_stage2.stopped,instructions_testStage1.started,instructions_testStage1.stopped,end_instructions_resp_test1.keys,end_instructions_resp_test1.rt,end_instructions_resp_test1.started,end_instructions_resp_test1.stopped,press_space_to_continue_test1.started,press_space_to_continue_test1.stopped,cue1Image_testChoice.started,cue1Image_testChoice.stopped,cue2Image_testChoice.started,cue2Image_testChoice.stopped,test_resp.keys,test_resp.corr,test_resp.rt,test_resp.started,test_resp.stopped,cue1Image_testConf.started,cue1Image_testConf.stopped,cue2Image_testConf.started,cue2Image_testConf.stopped,conf_reminder.started,conf_reminder.stopped,conf_rating.response,conf_rating.rt,conf_rating.started,conf_rating.stopped,session,participant,date,expName,psychopyVersion,frameRate,
,,,,,,,,,,,,,,,,,,,,,,,,,,,,,,,,,,,,,,,,,,,"{'none': 'pictures/20M_AN_C.png', 'alpha': 'pictures/SHINEd_pear.png', 'beta': 'pictures/SHINEd_melon.png', 'theta': 'pictures/SHINEd_apple.png', 'phi': 'pictures/SHINEd_pepper.png', 'T1': 'pictures/36M_AN_C.png', 'T2': 'pictures/20M_AN_C.png', 'T3': 'pictures/22M_AN_C.png', 'T4': 'pictures/25M_AN_C.png', 'T5': 'pictures/37M_AN_C.png', 'T6': 'pictures/23M_AN_C.png', 'B1': 'pictures/26M_NE_C.png', 'B2': 'pictures/33M_NE_C.png', 'B3': 'pictures/34M_NE_C.png', 'B4': 'pictures/38M_NE_C.png', 'B5': 'pictures/32M_NE_C.png', 'B6': 'pictures/31M_NE_C.png'}",2238.5259003519996,None,2243.509255012,None,space,14.139809161999892,2243.509255012,None,,,,,,,,,,,,,,,,,,,,,,,,,,,,,,,,,,,,,,,,,,,,,,,,,,,,,,,,,,,,,,,,,,,,,,,,,,,,,,,,,,,,,,,,,,,,,,,,001,161,2020_Feb_25_0930,spring_faces,3.1.5,60.31410051562133,
,,,,,,,,,,,,,,,,,,,,,,,,,,,,,,,,,,,,,,,,,,,,,,,,,,,,2258.175873219,None,2258.175873219,None,"['0', '5', '2', '1', 'm', 'i', 'l', 'e', 'g']","[11.873179772000185, 12.19321440800013, 18.545085992000168, 18.70516877199998, 25.82523368000011, 26.225238959000308, 31.98515136900005, 32.16113512200036, 32.70517430400014]",2258.175873219,None,,,,,,,,,,,,,,,,,,,,,,,,,,,,,,,,,,,,,,,,,,,,,,,,,,,,,,,,,,,,,,,,,,,,,,,,,,,,,,,,,,,,,,,,001,161,2020_Feb_25_0930,spring_faces,3.1.5,60.31410051562133,
,,,,,,,,,,,,,,,,,,,,,,,,,,,,,,,,,,,,,,,,,,,,,,,,,,,,,,,,,,,,0521mileg,2258.175873219,None,2258.175873219,None,2295.9592844219997,None,space,3.4101365819997227,2300.9589840999997,None,,,,,,,,,,,,,,,,,,,,,,,,,,,,,,,,,,,,,,,,,,,,,,,,,,,,,,,,,,,,,,,,,,,,,,,,,,,,,001,161,2020_Feb_25_0930,spring_faces,3.1.5,60.31410051562133,
,,,,,,,,,,,,,,,,,,,,,,,,,,,,,,,,,,,,,,,,,,,,,,,,,,,,,,,,,,,,,,,,,,,,,,,2300.9589840999997,None,2304.4089659990004,None,space,6.080767186999765,2309.3922984869996,None,,,,,,,,,,,,,,,,,,,,,,,,,,,,,,,,,,,,,,,,,,,,,,,,,,,,,,,,,,,,,,,,,,,,,001,161,2020_Feb_25_0930,spring_faces,3.1.5,60.31410051562133,
condition files/Stage0a.xlsx,0a,alpha,none,h,"['h', 'g']","['Chess', 'Go']","[0, 0.5]","[0, 0]",1,0,0,0,0,0,0,0,0,0,,,,,,,,,,,,,,,,,,,,,,,,,,,,,,,,,,,,,,,,,,,,,,,,,,,,,,,,,,,,,2309.3922984869996,None,2315.642307436,None,2315.642307436,None,2315.642307436,None,g,0,2.312053418999767,2317.208979369,None,2317.208979369,None,2317.208979369,None,2319.5925647719996,None,2319.5925647719996,None,2319.5925647719996,None,2319.5925647719996,None,,,,,,,,,,,,,,,,,,,,,,,,,,,,,,,,,,,,,,,,,,,,001,161,2020_Feb_25_0930,spring_faces,3.1.5,60.31410051562133,
condition files/Stage0a.xlsx,0a,beta,none,g,"['h', 'g']","['Chess', 'Go']","[0, 0.5]","[0, 0]",1,0,0,0,0,0,0,1,1,1,,,,,,,,,,,,,,,,,,,,,,,,,,,,,,,,,,,,,,,,,,,,,,,,,,,,,,,,,,,,,,,2321.541989945,None,2321.541989945,None,2321.541989945,None,h,0,0.861290408000059,2323.0757437760003,None,2323.0757437760003,None,2323.0757437760003,None,2323.9924239909997,None,2323.9924239909997,None,2323.9924239909997,None,2323.9924239909997,None,,,,,,,,,,,,,,,,,,,,,,,,,,,,,,,,,,,,,,,,,,,,001,161,2020_Feb_25_0930,spring_faces,3.1.5,60.31410051562133,
condition files/Stage0a.xlsx,0a,alpha,none,h,"['h', 'g']","['Chess', 'Go']","[0, 0.5]","[0, 0]",1,0,0,1,1,1,0,0,0,0,,,,,,,,,,,,,,,,,,,,,,,,,,,,,,,,,,,,,,,,,,,,,,,,,,,,,,,,,,,,,,,2325.9751830269997,None,2325.9751830269997,None,2325.9751830269997,None,h,1,1.4356609970000136,2327.5093927280004,None,2327.5093927280004,None,2327.5093927280004,None,2329.061054592,None,2329.061054592,None,2329.061054592,None,2329.061054592,None,,,,,,,,,,,,,,,,,,,,,,,,,,,,,,,,,,,,,,,,,,,,001,161,2020_Feb_25_0930,spring_faces,3.1.5,60.31410051562133,
condition files/Stage0a.xlsx,0a,beta,none,g,"['h', 'g']","['Chess', 'Go']","[0, 0.5]","[0, 0]",1,0,0,1,1,1,0,1,1,1,,,,,,,,,,,,,,,,,,,,,,,,,,,,,,,,,,,,,,,,,,,,,,,,,,,,,,,,,,,,,,,2330.975603627,None,2330.975603627,None,2330.975603627,None,g,1,0.96389658399994,2332.5091403730003,None,2332.5091403730003,None,2332.5091403730003,None,2333.5257736020003,None,2333.5257736020003,None,2333.5257736020003,None,2333.5257736020003,None,,,,,,,,,,,,,,,,,,,,,,,,,,,,,,,,,,,,,,,,,,,,001,161,2020_Feb_25_0930,spring_faces,3.1.5,60.31410051562133,
condition files/Stage0a.xlsx,0a,alpha,none,h,"['h', 'g']","['Chess', 'Go']","[0, 0.5]","[0, 0]",1,0,0,2,2,2,0,0,0,0,,,,,,,,,,,,,,,,,,,,,,,,,,,,,,,,,,,,,,,,,,,,,,,,,,,,,,,,,,,,,,,2335.509004245,None,2335.509004245,None,2335.509004245,None,h,1,0.6864998860000924,2337.0425622479997,None,2337.0425622479997,None,2337.0425622479997,None,2337.792205197,None,2337.792205197,None,2337.792205197,None,2337.792205197,None,,,,,,,,,,,,,,,,,,,,,,,,,,,,,,,,,,,,,,,,,,,,001,161,2020_Feb_25_0930,spring_faces,3.1.5,60.31410051562133,
condition files/Stage0a.xlsx,0a,beta,none,g,"['h', 'g']","['Chess', 'Go']","[0, 0.5]","[0, 0]",1,0,0,2,2,2,0,1,1,1,,,,,,,,,,,,,,,,,,,,,,,,,,,,,,,,,,,,,,,,,,,,,,,,,,,,,,,,,,,,,,,2339.759122925,None,2339.759122925,None,2339.759122925,None,g,1,1.6525897010001245,2341.2924558799996,None,2341.2924558799996,None,2341.2924558799996,None,2343.0088459340004,None,2343.0088459340004,None,2343.0088459340004,None,2343.0088459340004,None,,,,,,,,,,,,,,,,,,,,,,,,,,,,,,,,,,,,,,,,,,,,001,161,2020_Feb_25_0930,spring_faces,3.1.5,60.31410051562133,
condition files/Stage0a.xlsx,0a,beta,none,g,"['h', 'g']","['Chess', 'Go']","[0, 0.5]","[0, 0]",1,0,0,3,3,3,0,0,0,1,,,,,,,,,,,,,,,,,,,,,,,,,,,,,,,,,,,,,,,,,,,,,,,,,,,,,,,,,,,,,,,2344.9920269269996,None,2344.9920269269996,None,2344.9920269269996,None,g,1,1.0119105029998536,2346.525138827,None,2346.525138827,None,2346.525138827,None,2347.591856561,None,2347.591856561,None,2347.591856561,None,2347.591856561,None,,,,,,,,,,,,,,,,,,,,,,,,,,,,,,,,,,,,,,,,,,,,001,161,2020_Feb_25_0930,spring_faces,3.1.5,60.31410051562133,
condition files/Stage0a.xlsx,0a,alpha,none,h,"['h', 'g']","['Chess', 'Go']","[0, 0.5]","[0, 0]",1,0,0,3,3,3,0,1,1,0,,,,,,,,,,,,,,,,,,,,,,,,,,,,,,,,,,,,,,,,,,,,,,,,,,,,,,,,,,,,,,,2349.558828634,None,2349.558828634,None,2349.558828634,None,h,1,1.0524686799999472,2351.092574921,None,2351.092574921,None,2351.092574921,None,2352.208974041,None,2352.208974041,None,2352.208974041,None,2352.208974041,None,,,,,,,,,,,,,,,,,,,,,,,,,,,,,,,,,,,,,,,,,,,,001,161,2020_Feb_25_0930,spring_faces,3.1.5,60.31410051562133,
condition files/Stage0a.xlsx,0a,beta,none,g,"['h', 'g']","['Chess', 'Go']","[0, 0.5]","[0, 0]",1,0,0,4,4,4,0,0,0,1,,,,,,,,,,,,,,,,,,,,,,,,,,,,,,,,,,,,,,,,,,,,,,,,,,,,,,,,,,,,,,,2354.1925129720003,None,2354.1925129720003,None,2354.1925129720003,None,g,1,0.691839254000115,2355.725279151,None,2355.725279151,None,2355.725279151,None,2356.475281565,None,2356.475281565,None,2356.475281565,None,2356.475281565,None,,,,,,,,,,,,,,,,,,,,,,,,,,,,,,,,,,,,,,,,,,,,001,161,2020_Feb_25_0930,spring_faces,3.1.5,60.31410051562133,
condition files/Stage0a.xlsx,0a,alpha,none,h,"['h', 'g']","['Chess', 'Go']","[0, 0.5]","[0, 0]",1,0,0,4,4,4,0,1,1,0,,,,,,,,,,,,,,,,,,,,,,,,,,,,,,,,,,,,,,,,,,,,,,,,,,,,,,,,,,,,,,,2358.442230918,None,2358.442230918,None,2358.442230918,None,h,1,1.0328402139998616,2359.976182865,None,2359.976182865,None,2359.976182865,None,2361.058949143,None,2361.058949143,None,2361.058949143,None,2361.058949143,None,,,,,,,,,,,,,,,,,,,,,,,,,,,,,,,,,,,,,,,,,,,,001,161,2020_Feb_25_0930,spring_faces,3.1.5,60.31410051562133,
condition files/Stage0a.xlsx,0a,beta,none,g,"['h', 'g']","['Chess', 'Go']","[0, 0.5]","[0, 0]",1,0,0,5,5,5,0,0,0,1,,,,,,,,,,,,,,,,,,,,,,,,,,,,,,,,,,,,,,,,,,,,,,,,,,,,,,,,,,,,,,,2363.042356545,None,2363.042356545,None,2363.042356545,None,g,1,0.5451538399997844,2364.57591287,None,2364.57591287,None,2364.57591287,None,2365.174910668,None,2365.174910668,None,2365.174910668,None,2365.174910668,None,,,,,,,,,,,,,,,,,,,,,,,,,,,,,,,,,,,,,,,,,,,,001,161,2020_Feb_25_0930,spring_faces,3.1.5,60.31410051562133,
condition files/Stage0a.xlsx,0a,alpha,none,h,"['h', 'g']","['Chess', 'Go']","[0, 0.5]","[0, 0]",1,0,0,5,5,5,0,1,1,0,,,,,,,,,,,,,,,,,,,,,,,,,,,,,,,,,,,,,,,,,,,,,,,,,,,,,,,,,,,,,,,2367.1420537390004,None,2367.1420537390004,None,2367.1420537390004,None,h,1,0.6056049900003018,2368.6754437170002,None,2368.6754437170002,None,2368.6754437170002,None,2369.342129195,None,2369.342129195,None,2369.342129195,None,2369.342129195,None,,,,,,,,,,,,,,,,,,,,,,,,,,,,,,,,,,,,,,,,,,,,001,161,2020_Feb_25_0930,spring_faces,3.1.5,60.31410051562133,
condition files/Stage0b_1.xlsx,0b,alpha,none,h,"['h', 'g']","['Chess', 'Go']","[-0.15, 0.5]","[0.15, 0.5]",1,0,0,6,6,6,0,0,0,0,,,,,,,,,,,,,,,,,,,,,,,,,,,,,,,,,,,,,,,,,,,,,,,,,,,,,,,,,,,,,,,2371.342672148,None,2371.342672148,None,2371.342672148,None,h,1,0.8379090079997695,2372.859164073,None,2372.859164073,None,2372.859164073,None,2373.7591191559995,None,2373.7591191559995,None,2373.7591191559995,None,2373.7591191559995,None,,,,,,,,,,,,,,,,,,,,,,,,,,,,,,,,,,,,,,,,,,,,001,161,2020_Feb_25_0930,spring_faces,3.1.5,60.31410051562133,
condition files/Stage0b_1.xlsx,0b,none,beta,g,"['h', 'g']","['Chess', 'Go']","[-0.15, 0.5]","[0.15, 0.5]",0,1,0,6,6,6,0,1,1,1,,,,,,,,,,,,,,,,,,,,,,,,,,,,,,,,,,,,,,,,,,,,,,,,,,,,,,,,,,,,,,,2375.7256134709996,None,2375.7256134709996,None,2375.7256134709996,None,g,1,0.5929043779997301,2377.2641300369996,None,2377.2641300369996,None,2377.2641300369996,None,2377.925850801,None,2377.925850801,None,2377.925850801,None,2377.925850801,None,,,,,,,,,,,,,,,,,,,,,,,,,,,,,,,,,,,,,,,,,,,,001,161,2020_Feb_25_0930,spring_faces,3.1.5,60.31410051562133,
condition files/Stage0b_2.xlsx,0b,beta,none,g,"['h', 'g']","['Chess', 'Go']","[-0.15, 0.5]","[0.15, 0.5]",1,0,0,7,7,7,0,0,0,1,,,,,,,,,,,,,,,,,,,,,,,,,,,,,,,,,,,,,,,,,,,,,,,,,,,,,,,,,,,,,,,2379.942501202,None,2379.942501202,None,2379.942501202,None,g,1,1.7910448389998237,2381.442081948,None,2381.442081948,None,2381.442081948,None,2383.2926174619997,None,2383.2926174619997,None,2383.2926174619997,None,2383.2926174619997,None,,,,,,,,,,,,,,,,,,,,,,,,,,,,,,,,,,,,,,,,,,,,001,161,2020_Feb_25_0930,spring_faces,3.1.5,60.31410051562133,
condition files/Stage0b_2.xlsx,0b,none,alpha,h,"['h', 'g']","['Chess', 'Go']","[-0.15, 0.5]","[0.15, 0.5]",0,1,0,7,7,7,0,1,1,0,,,,,,,,,,,,,,,,,,,,,,,,,,,,,,,,,,,,,,,,,,,,,,,,,,,,,,,,,,,,,,,2385.2586629260004,None,2385.2586629260004,None,2385.2586629260004,None,g,0,0.7424273649999122,2386.7946162890003,None,2386.7946162890003,None,2386.7946162890003,None,2387.60851604,None,2387.60851604,None,2387.60851604,None,2387.60851604,None,,,,,,,,,,,,,,,,,,,,,,,,,,,,,,,,,,,,,,,,,,,,001,161,2020_Feb_25_0930,spring_faces,3.1.5,60.31410051562133,
condition files/Stage0b_1.xlsx,0b,none,beta,g,"['h', 'g']","['Chess', 'Go']","[-0.15, 0.5]","[0.15, 0.5]",0,1,0,8,8,8,0,0,0,1,,,,,,,,,,,,,,,,,,,,,,,,,,,,,,,,,,,,,,,,,,,,,,,,,,,,,,,,,,,,,,,2389.5759195930004,None,2389.5759195930004,None,2389.5759195930004,None,g,1,0.8761256790003245,2391.1090103999995,None,2391.1090103999995,None,2391.1090103999995,None,2392.0420433070003,None,2392.0420433070003,None,2392.0420433070003,None,2392.0420433070003,None,,,,,,,,,,,,,,,,,,,,,,,,,,,,,,,,,,,,,,,,,,,,001,161,2020_Feb_25_0930,spring_faces,3.1.5,60.31410051562133,
condition files/Stage0b_1.xlsx,0b,alpha,none,h,"['h', 'g']","['Chess', 'Go']","[-0.15, 0.5]","[0.15, 0.5]",1,0,0,8,8,8,0,1,1,0,,,,,,,,,,,,,,,,,,,,,,,,,,,,,,,,,,,,,,,,,,,,,,,,,,,,,,,,,,,,,,,2394.008974554,None,2394.008974554,None,2394.008974554,None,h,1,0.7102895590001026,2395.546739394,None,2395.546739394,None,2395.546739394,None,2396.314195406,None,2396.314195406,None,2396.314195406,None,2396.314195406,None,,,,,,,,,,,,,,,,,,,,,,,,,,,,,,,,,,,,,,,,,,,,001,161,2020_Feb_25_0930,spring_faces,3.1.5,60.31410051562133,
condition files/Stage0b_2.xlsx,0b,none,alpha,h,"['h', 'g']","['Chess', 'Go']","[-0.15, 0.5]","[0.15, 0.5]",0,1,0,9,9,9,0,0,0,0,,,,,,,,,,,,,,,,,,,,,,,,,,,,,,,,,,,,,,,,,,,,,,,,,,,,,,,,,,,,,,,2398.2919393800003,None,2398.2919393800003,None,2398.2919393800003,None,h,1,0.6384450079999624,2399.842614206,None,2399.842614206,None,2399.842614206,None,2400.5423709280003,None,2400.5423709280003,None,2400.5423709280003,None,2400.5423709280003,None,,,,,,,,,,,,,,,,,,,,,,,,,,,,,,,,,,,,,,,,,,,,001,161,2020_Feb_25_0930,spring_faces,3.1.5,60.31410051562133,
condition files/Stage0b_2.xlsx,0b,beta,none,g,"['h', 'g']","['Chess', 'Go']","[-0.15, 0.5]","[0.15, 0.5]",1,0,0,9,9,9,0,1,1,1,,,,,,,,,,,,,,,,,,,,,,,,,,,,,,,,,,,,,,,,,,,,,,,,,,,,,,,,,,,,,,,2402.508992012,None,2402.508992012,None,2402.508992012,None,g,1,0.5988216300002023,2404.042227549,None,2404.042227549,None,2404.042227549,None,2404.6935073329996,None,2404.6935073329996,None,2404.6935073329996,None,2404.6935073329996,None,,,,,,,,,,,,,,,,,,,,,,,,,,,,,,,,,,,,,,,,,,,,001,161,2020_Feb_25_0930,spring_faces,3.1.5,60.31410051562133,
condition files/Stage0b_1.xlsx,0b,none,beta,g,"['h', 'g']","['Chess', 'Go']","[-0.15, 0.5]","[0.15, 0.5]",0,1,0,10,10,10,0,0,0,1,,,,,,,,,,,,,,,,,,,,,,,,,,,,,,,,,,,,,,,,,,,,,,,,,,,,,,,,,,,,,,,2406.675751732,None,2406.675751732,None,2406.675751732,None,h,0,0.7986341640003047,2408.2104247449997,None,2408.2104247449997,None,2408.2104247449997,None,2409.059560275,None,2409.059560275,None,2409.059560275,None,2409.059560275,None,,,,,,,,,,,,,,,,,,,,,,,,,,,,,,,,,,,,,,,,,,,,001,161,2020_Feb_25_0930,spring_faces,3.1.5,60.31410051562133,
condition files/Stage0b_1.xlsx,0b,alpha,none,h,"['h', 'g']","['Chess', 'Go']","[-0.15, 0.5]","[0.15, 0.5]",1,0,0,10,10,10,0,1,1,0,,,,,,,,,,,,,,,,,,,,,,,,,,,,,,,,,,,,,,,,,,,,,,,,,,,,,,,,,,,,,,,2411.0256393480004,None,2411.0256393480004,None,2411.0256393480004,None,g,0,0.721680847999778,2412.5593807650002,None,2412.5593807650002,None,2412.5593807650002,None,2413.3468357519996,None,2413.3468357519996,None,2413.3468357519996,None,2413.3468357519996,None,,,,,,,,,,,,,,,,,,,,,,,,,,,,,,,,,,,,,,,,,,,,001,161,2020_Feb_25_0930,spring_faces,3.1.5,60.31410051562133,
condition files/Stage0b_2.xlsx,0b,none,alpha,h,"['h', 'g']","['Chess', 'Go']","[-0.15, 0.5]","[0.15, 0.5]",0,1,0,11,11,11,0,0,0,0,,,,,,,,,,,,,,,,,,,,,,,,,,,,,,,,,,,,,,,,,,,,,,,,,,,,,,,,,,,,,,,2415.3261602800003,None,2415.3261602800003,None,2415.3261602800003,None,h,1,0.5012060700000802,2416.8598533410004,None,2416.8598533410004,None,2416.8598533410004,None,2417.425789307,None,2417.425789307,None,2417.425789307,None,2417.425789307,None,,,,,,,,,,,,,,,,,,,,,,,,,,,,,,,,,,,,,,,,,,,,001,161,2020_Feb_25_0930,spring_faces,3.1.5,60.31410051562133,
condition files/Stage0b_2.xlsx,0b,beta,none,g,"['h', 'g']","['Chess', 'Go']","[-0.15, 0.5]","[0.15, 0.5]",1,0,0,11,11,11,0,1,1,1,,,,,,,,,,,,,,,,,,,,,,,,,,,,,,,,,,,,,,,,,,,,,,,,,,,,,,,,,,,,,,,2419.392278972,None,2419.392278972,None,2419.392278972,None,g,1,0.5785495240002092,2420.942510064,None,2420.942510064,None,2420.942510064,None,2421.5770950160004,None,2421.5770950160004,None,2421.5770950160004,None,2421.5770950160004,None,,,,,,,,,,,,,,,,,,,,,,,,,,,,,,,,,,,,,,,,,,,,001,161,2020_Feb_25_0930,spring_faces,3.1.5,60.31410051562133,
condition files/Stage0c_1.xlsx,0c,beta,theta,g,"['h', 'g']","['Chess', 'Go']","[-0.15, 0.5]","[0.15, 0.5]",1,1,0,12,12,12,0,0,0,2,,,,,,,,,,,,,,,,,,,,,,,,,,,,,,,,,,,,,,,,,,,,,,,,,,,,,,,,,,,,,,,2423.5588729680003,None,2423.5588729680003,None,2423.5588729680003,None,g,1,2.1023724019996735,2425.1307383639996,None,2425.1307383639996,None,2425.1307383639996,None,2427.292313455,None,2427.292313455,None,2427.292313455,None,2427.292313455,None,,,,,,,,,,,,,,,,,,,,,,,,,,,,,,,,,,,,,,,,,,,,001,161,2020_Feb_25_0930,spring_faces,3.1.5,60.31410051562133,
condition files/Stage0c_1.xlsx,0c,alpha,phi,h,"['h', 'g']","['Chess', 'Go']","[-0.15, 0.5]","[0.15, 0.5]",1,1,0,12,12,12,0,1,1,1,,,,,,,,,,,,,,,,,,,,,,,,,,,,,,,,,,,,,,,,,,,,,,,,,,,,,,,,,,,,,,,2429.258460586,None,2429.258460586,None,2429.258460586,None,h,1,1.142792864999592,2430.842343237,None,2430.842343237,None,2430.842343237,None,2432.042476273,None,2432.042476273,None,2432.042476273,None,2432.042476273,None,,,,,,,,,,,,,,,,,,,,,,,,,,,,,,,,,,,,,,,,,,,,001,161,2020_Feb_25_0930,spring_faces,3.1.5,60.31410051562133,
condition files/Stage0c_1.xlsx,0c,theta,alpha,h,"['h', 'g']","['Chess', 'Go']","[-0.15, 0.5]","[0.15, 0.5]",1,1,0,12,12,12,0,2,2,0,,,,,,,,,,,,,,,,,,,,,,,,,,,,,,,,,,,,,,,,,,,,,,,,,,,,,,,,,,,,,,,2434.008520239,None,2434.008520239,None,2434.008520239,None,h,1,2.4269361459996617,2435.542105556,None,2435.542105556,None,2435.542105556,None,2438.025836209,None,2438.025836209,None,2438.025836209,None,2438.025836209,None,,,,,,,,,,,,,,,,,,,,,,,,,,,,,,,,,,,,,,,,,,,,001,161,2020_Feb_25_0930,spring_faces,3.1.5,60.31410051562133,
condition files/Stage0c_1.xlsx,0c,phi,beta,g,"['h', 'g']","['Chess', 'Go']","[-0.15, 0.5]","[0.15, 0.5]",1,1,0,12,12,12,0,3,3,3,,,,,,,,,,,,,,,,,,,,,,,,,,,,,,,,,,,,,,,,,,,,,,,,,,,,,,,,,,,,,,,2439.99216211,None,2439.99216211,None,2439.99216211,None,h,0,0.9714689029997317,2441.5255768220004,None,2441.5255768220004,None,2441.5255768220004,None,2442.558615463,None,2442.558615463,None,2442.558615463,None,2442.558615463,None,,,,,,,,,,,,,,,,,,,,,,,,,,,,,,,,,,,,,,,,,,,,001,161,2020_Feb_25_0930,spring_faces,3.1.5,60.31410051562133,
condition files/Stage0c_2.xlsx,0c,phi,alpha,h,"['h', 'g']","['Chess', 'Go']","[-0.15, 0.5]","[0.15, 0.5]",1,1,0,13,13,13,0,0,0,1,,,,,,,,,,,,,,,,,,,,,,,,,,,,,,,,,,,,,,,,,,,,,,,,,,,,,,,,,,,,,,,2444.5426516509997,None,2444.5426516509997,None,2444.5426516509997,None,h,1,1.5106857639998452,2446.0583420270004,None,2446.0583420270004,None,2446.0583420270004,None,2447.625176933,None,2447.625176933,None,2447.625176933,None,2447.625176933,None,,,,,,,,,,,,,,,,,,,,,,,,,,,,,,,,,,,,,,,,,,,,001,161,2020_Feb_25_0930,spring_faces,3.1.5,60.31410051562133,
condition files/Stage0c_2.xlsx,0c,alpha,theta,h,"['h', 'g']","['Chess', 'Go']","[-0.15, 0.5]","[0.15, 0.5]",1,1,0,13,13,13,0,1,1,0,,,,,,,,,,,,,,,,,,,,,,,,,,,,,,,,,,,,,,,,,,,,,,,,,,,,,,,,,,,,,,,2449.591932495,None,2449.591932495,None,2449.591932495,None,h,1,1.4198879800001123,2451.1251550549996,None,2451.1251550549996,None,2451.1251550549996,None,2452.594183313,None,2452.594183313,None,2452.594183313,None,2452.594183313,None,,,,,,,,,,,,,,,,,,,,,,,,,,,,,,,,,,,,,,,,,,,,001,161,2020_Feb_25_0930,spring_faces,3.1.5,60.31410051562133,
condition files/Stage0c_2.xlsx,0c,beta,phi,g,"['h', 'g']","['Chess', 'Go']","[-0.15, 0.5]","[0.15, 0.5]",1,1,0,13,13,13,0,2,2,3,,,,,,,,,,,,,,,,,,,,,,,,,,,,,,,,,,,,,,,,,,,,,,,,,,,,,,,,,,,,,,,2454.57550781,None,2454.57550781,None,2454.57550781,None,g,1,1.7159100760000001,2456.109128182,None,2456.109128182,None,2456.109128182,None,2457.8757215940004,None,2457.8757215940004,None,2457.8757215940004,None,2457.8757215940004,None,,,,,,,,,,,,,,,,,,,,,,,,,,,,,,,,,,,,,,,,,,,,001,161,2020_Feb_25_0930,spring_faces,3.1.5,60.31410051562133,
condition files/Stage0c_2.xlsx,0c,theta,beta,g,"['h', 'g']","['Chess', 'Go']","[-0.15, 0.5]","[0.15, 0.5]",1,1,0,13,13,13,0,3,3,2,,,,,,,,,,,,,,,,,,,,,,,,,,,,,,,,,,,,,,,,,,,,,,,,,,,,,,,,,,,,,,,2459.842032642,None,2459.842032642,None,2459.842032642,None,g,1,2.4010653330001333,2461.375928419,None,2461.375928419,None,2461.375928419,None,2463.826749099,None,2463.826749099,None,2463.826749099,None,2463.826749099,None,,,,,,,,,,,,,,,,,,,,,,,,,,,,,,,,,,,,,,,,,,,,001,161,2020_Feb_25_0930,spring_faces,3.1.5,60.31410051562133,
condition files/Stage0c_1.xlsx,0c,theta,alpha,h,"['h', 'g']","['Chess', 'Go']","[-0.15, 0.5]","[0.15, 0.5]",1,1,0,14,14,14,0,0,0,0,,,,,,,,,,,,,,,,,,,,,,,,,,,,,,,,,,,,,,,,,,,,,,,,,,,,,,,,,,,,,,,2465.825721872,None,2465.825721872,None,2465.825721872,None,h,1,0.642342009999993,2467.3587816339996,None,2467.3587816339996,None,2467.3587816339996,None,2468.059100067,None,2468.059100067,None,2468.059100067,None,2468.059100067,None,,,,,,,,,,,,,,,,,,,,,,,,,,,,,,,,,,,,,,,,,,,,001,161,2020_Feb_25_0930,spring_faces,3.1.5,60.31410051562133,
condition files/Stage0c_1.xlsx,0c,alpha,phi,h,"['h', 'g']","['Chess', 'Go']","[-0.15, 0.5]","[0.15, 0.5]",1,1,0,14,14,14,0,1,1,1,,,,,,,,,,,,,,,,,,,,,,,,,,,,,,,,,,,,,,,,,,,,,,,,,,,,,,,,,,,,,,,2470.0254439829996,None,2470.0254439829996,None,2470.0254439829996,None,h,1,0.938396166000075,2471.558646966,None,2471.558646966,None,2471.558646966,None,2472.5433192479995,None,2472.5433192479995,None,2472.5433192479995,None,2472.5433192479995,None,,,,,,,,,,,,,,,,,,,,,,,,,,,,,,,,,,,,,,,,,,,,001,161,2020_Feb_25_0930,spring_faces,3.1.5,60.31410051562133,
condition files/Stage0c_1.xlsx,0c,phi,beta,g,"['h', 'g']","['Chess', 'Go']","[-0.15, 0.5]","[0.15, 0.5]",1,1,0,14,14,14,0,2,2,3,,,,,,,,,,,,,,,,,,,,,,,,,,,,,,,,,,,,,,,,,,,,,,,,,,,,,,,,,,,,,,,2474.5256604059996,None,2474.5256604059996,None,2474.5256604059996,None,g,1,1.0139241350002521,2476.0591104229998,None,2476.0591104229998,None,2476.0591104229998,None,2477.125410994,None,2477.125410994,None,2477.125410994,None,2477.125410994,None,,,,,,,,,,,,,,,,,,,,,,,,,,,,,,,,,,,,,,,,,,,,001,161,2020_Feb_25_0930,spring_faces,3.1.5,60.31410051562133,
condition files/Stage0c_1.xlsx,0c,beta,theta,g,"['h', 'g']","['Chess', 'Go']","[-0.15, 0.5]","[0.15, 0.5]",1,1,0,14,14,14,0,3,3,2,,,,,,,,,,,,,,,,,,,,,,,,,,,,,,,,,,,,,,,,,,,,,,,,,,,,,,,,,,,,,,,2479.09234587,None,2479.09234587,None,2479.09234587,None,g,1,2.4954075209998337,2480.625620723,None,2480.625620723,None,2480.625620723,None,2483.1593350989997,None,2483.1593350989997,None,2483.1593350989997,None,2483.1593350989997,None,,,,,,,,,,,,,,,,,,,,,,,,,,,,,,,,,,,,,,,,,,,,001,161,2020_Feb_25_0930,spring_faces,3.1.5,60.31410051562133,
condition files/Stage0c_2.xlsx,0c,beta,phi,g,"['h', 'g']","['Chess', 'Go']","[-0.15, 0.5]","[0.15, 0.5]",1,1,0,15,15,15,0,0,0,3,,,,,,,,,,,,,,,,,,,,,,,,,,,,,,,,,,,,,,,,,,,,,,,,,,,,,,,,,,,,,,,2485.158498551,None,2485.158498551,None,2485.158498551,None,g,1,0.6683464719999392,2486.692705548,None,2486.692705548,None,2486.692705548,None,2487.4083703019996,None,2487.4083703019996,None,2487.4083703019996,None,2487.4083703019996,None,,,,,,,,,,,,,,,,,,,,,,,,,,,,,,,,,,,,,,,,,,,,001,161,2020_Feb_25_0930,spring_faces,3.1.5,60.31410051562133,
condition files/Stage0c_2.xlsx,0c,theta,beta,g,"['h', 'g']","['Chess', 'Go']","[-0.15, 0.5]","[0.15, 0.5]",1,1,0,15,15,15,0,1,1,2,,,,,,,,,,,,,,,,,,,,,,,,,,,,,,,,,,,,,,,,,,,,,,,,,,,,,,,,,,,,,,,2489.392250594,None,2489.392250594,None,2489.392250594,None,g,1,2.083085622999988,2490.925954777,None,2490.925954777,None,2490.925954777,None,2493.0433326639995,None,2493.0433326639995,None,2493.0433326639995,None,2493.0433326639995,None,,,,,,,,,,,,,,,,,,,,,,,,,,,,,,,,,,,,,,,,,,,,001,161,2020_Feb_25_0930,spring_faces,3.1.5,60.31410051562133,
condition files/Stage0c_2.xlsx,0c,alpha,theta,h,"['h', 'g']","['Chess', 'Go']","[-0.15, 0.5]","[0.15, 0.5]",1,1,0,15,15,15,0,2,2,0,,,,,,,,,,,,,,,,,,,,,,,,,,,,,,,,,,,,,,,,,,,,,,,,,,,,,,,,,,,,,,,2495.026763291,None,2495.026763291,None,2495.026763291,None,h,1,0.8821428849996664,2496.558895712,None,2496.558895712,None,2496.558895712,None,2497.4926876829995,None,2497.4926876829995,None,2497.4926876829995,None,2497.4926876829995,None,,,,,,,,,,,,,,,,,,,,,,,,,,,,,,,,,,,,,,,,,,,,001,161,2020_Feb_25_0930,spring_faces,3.1.5,60.31410051562133,
condition files/Stage0c_2.xlsx,0c,phi,alpha,h,"['h', 'g']","['Chess', 'Go']","[-0.15, 0.5]","[0.15, 0.5]",1,1,0,15,15,15,0,3,3,1,,,,,,,,,,,,,,,,,,,,,,,,,,,,,,,,,,,,,,,,,,,,,,,,,,,,,,,,,,,,,,,2499.459025622,None,2499.459025622,None,2499.459025622,None,h,1,1.1362447629999224,2500.992808303,None,2500.992808303,None,2500.992808303,None,2502.1771593149997,None,2502.1771593149997,None,2502.1771593149997,None,2502.1771593149997,None,,,,,,,,,,,,,,,,,,,,,,,,,,,,,,,,,,,,,,,,,,,,001,161,2020_Feb_25_0930,spring_faces,3.1.5,60.31410051562133,
condition files/Stage0c_1.xlsx,0c,alpha,phi,h,"['h', 'g']","['Chess', 'Go']","[-0.15, 0.5]","[0.15, 0.5]",1,1,0,16,16,16,0,0,0,1,,,,,,,,,,,,,,,,,,,,,,,,,,,,,,,,,,,,,,,,,,,,,,,,,,,,,,,,,,,,,,,2504.1755648770004,None,2504.1755648770004,None,2504.1755648770004,None,h,1,0.7398200409998026,2505.709220171,None,2505.709220171,None,2505.709220171,None,2506.4936383960003,None,2506.4936383960003,None,2506.4936383960003,None,2506.4936383960003,None,,,,,,,,,,,,,,,,,,,,,,,,,,,,,,,,,,,,,,,,,,,,001,161,2020_Feb_25_0930,spring_faces,3.1.5,60.31410051562133,
condition files/Stage0c_1.xlsx,0c,beta,theta,g,"['h', 'g']","['Chess', 'Go']","[-0.15, 0.5]","[0.15, 0.5]",1,1,0,16,16,16,0,1,1,2,,,,,,,,,,,,,,,,,,,,,,,,,,,,,,,,,,,,,,,,,,,,,,,,,,,,,,,,,,,,,,,2508.475624981,None,2508.475624981,None,2508.475624981,None,g,1,1.2239652530001877,2510.0091405539997,None,2510.0091405539997,None,2510.0091405539997,None,2511.291958246,None,2511.291958246,None,2511.291958246,None,2511.291958246,None,,,,,,,,,,,,,,,,,,,,,,,,,,,,,,,,,,,,,,,,,,,,001,161,2020_Feb_25_0930,spring_faces,3.1.5,60.31410051562133,
condition files/Stage0c_1.xlsx,0c,phi,beta,g,"['h', 'g']","['Chess', 'Go']","[-0.15, 0.5]","[0.15, 0.5]",1,1,0,16,16,16,0,2,2,3,,,,,,,,,,,,,,,,,,,,,,,,,,,,,,,,,,,,,,,,,,,,,,,,,,,,,,,,,,,,,,,2513.258912036,None,2513.258912036,None,2513.258912036,None,g,1,1.640487070999825,2514.7926201190003,None,2514.7926201190003,None,2514.7926201190003,None,2516.4767032239997,None,2516.4767032239997,None,2516.4767032239997,None,2516.4767032239997,None,,,,,,,,,,,,,,,,,,,,,,,,,,,,,,,,,,,,,,,,,,,,001,161,2020_Feb_25_0930,spring_faces,3.1.5,60.31410051562133,
condition files/Stage0c_1.xlsx,0c,theta,alpha,h,"['h', 'g']","['Chess', 'Go']","[-0.15, 0.5]","[0.15, 0.5]",1,1,0,16,16,16,0,3,3,0,,,,,,,,,,,,,,,,,,,,,,,,,,,,,,,,,,,,,,,,,,,,,,,,,,,,,,,,,,,,,,,2518.4590109600003,None,2518.4590109600003,None,2518.4590109600003,None,h,1,0.8248331720001261,2519.992281488,None,2519.992281488,None,2519.992281488,None,2520.87583609,None,2520.87583609,None,2520.87583609,None,2520.87583609,None,,,,,,,,,,,,,,,,,,,,,,,,,,,,,,,,,,,,,,,,,,,,001,161,2020_Feb_25_0930,spring_faces,3.1.5,60.31410051562133,
condition files/Stage0c_2.xlsx,0c,phi,alpha,h,"['h', 'g']","['Chess', 'Go']","[-0.15, 0.5]","[0.15, 0.5]",1,1,0,17,17,17,0,0,0,1,,,,,,,,,,,,,,,,,,,,,,,,,,,,,,,,,,,,,,,,,,,,,,,,,,,,,,,,,,,,,,,2522.858929027,None,2522.858929027,None,2522.858929027,None,h,1,0.8889033959999324,2524.3921441330003,None,2524.3921441330003,None,2524.3921441330003,None,2525.326685414,None,2525.326685414,None,2525.326685414,None,2525.326685414,None,,,,,,,,,,,,,,,,,,,,,,,,,,,,,,,,,,,,,,,,,,,,001,161,2020_Feb_25_0930,spring_faces,3.1.5,60.31410051562133,
condition files/Stage0c_2.xlsx,0c,beta,phi,g,"['h', 'g']","['Chess', 'Go']","[-0.15, 0.5]","[0.15, 0.5]",1,1,0,17,17,17,0,1,1,3,,,,,,,,,,,,,,,,,,,,,,,,,,,,,,,,,,,,,,,,,,,,,,,,,,,,,,,,,,,,,,,2527.3090174440003,None,2527.3090174440003,None,2527.3090174440003,None,g,1,0.9503846290003821,2528.8426199059995,None,2528.8426199059995,None,2528.8426199059995,None,2529.859096723,None,2529.859096723,None,2529.859096723,None,2529.859096723,None,,,,,,,,,,,,,,,,,,,,,,,,,,,,,,,,,,,,,,,,,,,,001,161,2020_Feb_25_0930,spring_faces,3.1.5,60.31410051562133,
condition files/Stage0c_2.xlsx,0c,alpha,theta,h,"['h', 'g']","['Chess', 'Go']","[-0.15, 0.5]","[0.15, 0.5]",1,1,0,17,17,17,0,2,2,0,,,,,,,,,,,,,,,,,,,,,,,,,,,,,,,,,,,,,,,,,,,,,,,,,,,,,,,,,,,,,,,2531.8260004149997,None,2531.8260004149997,None,2531.8260004149997,None,h,1,0.8818759939999836,2533.3591644,None,2533.3591644,None,2533.3591644,None,2534.292638348,None,2534.292638348,None,2534.292638348,None,2534.292638348,None,,,,,,,,,,,,,,,,,,,,,,,,,,,,,,,,,,,,,,,,,,,,001,161,2020_Feb_25_0930,spring_faces,3.1.5,60.31410051562133,
condition files/Stage0c_2.xlsx,0c,theta,beta,g,"['h', 'g']","['Chess', 'Go']","[-0.15, 0.5]","[0.15, 0.5]",1,1,0,17,17,17,0,3,3,2,,,,,,,,,,,,,,,,,,,,,,,,,,,,,,,,,,,,,,,,,,,,,,,,,,,,,,,,,,,,,,,2536.2588596220003,None,2536.2588596220003,None,2536.2588596220003,None,g,1,2.6722476760000973,2537.79280378,None,2537.79280378,None,2537.79280378,None,2540.5256650680003,None,2540.5256650680003,None,2540.5256650680003,None,2540.5256650680003,None,,,,,,,,,,,,,,,,,,,,,,,,,,,,,,,,,,,,,,,,,,,,001,161,2020_Feb_25_0930,spring_faces,3.1.5,60.31410051562133,
,,,,,,,,,,,,,,,,,,,,,,,,,,,,,,,,,,,,,,,,,,,,,,,,,,,,,,,,,,,,,,,,,,,,,,,,,,,,,,,,,,,,,,,,,,,,,,,,,,,,,,,,2542.509179314,None,space,5.036094533000323,2547.5089699500004,None,,,,,,,,,,,,,,,,,,,,,,,,,,,,,,,,,,,,,,001,161,2020_Feb_25_0930,spring_faces,3.1.5,60.31410051562133,
condition files/Stage1_1.xlsx,,T1,B1,c,"['c', 'm']","['Clue', 'Monopoly']","[-0.15, 0.5]","[0.15, 0.5]",1,1,,,,,,,,,0,0,0,0,0,0,0,0,,,,,,,,,,,,,,,,,,,,,,,,,,,,,,,,,,,,,,,,,,,,,,,,,,,,,,,2552.658617995,None,2552.658617995,None,2552.658617995,None,c,1,1.4412893510002505,2554.1758348800004,None,2554.1758348800004,None,2554.1758348800004,None,2555.692413541,None,2555.692413541,None,2555.692413541,None,2555.692413541,None,,,,,,,2547.5089699500004,None,,,,,,,,,,,,,,,,,,,,,,,,,,,,,,,,,,,,001,161,2020_Feb_25_0930,spring_faces,3.1.5,60.31410051562133,
condition files/Stage1_1.xlsx,,T3,B4,c,"['c', 'm']","['Clue', 'Monopoly']","[-0.15, 0.5]","[0.15, 0.5]",1,1,,,,,,,,,0,0,0,0,0,1,1,5,,,,,,,,,,,,,,,,,,,,,,,,,,,,,,,,,,,,,,,,,,,,,,,,,,,,,,,2557.6422336980004,None,2557.6422336980004,None,2557.6422336980004,None,c,1,1.3504850790000091,2559.2425064669997,None,2559.2425064669997,None,2559.2425064669997,None,2560.659099153,None,2560.659099153,None,2560.659099153,None,2560.659099153,None,,,,,,,,,,,,,,,,,,,,,,,,,,,,,,,,,,,,,,,,,,,,001,161,2020_Feb_25_0930,spring_faces,3.1.5,60.31410051562133,
condition files/Stage1_1.xlsx,,T4,B3,m,"['c', 'm']","['Clue', 'Monopoly']","[-0.15, 0.5]","[0.15, 0.5]",1,1,,,,,,,,,0,0,0,0,0,2,2,6,,,,,,,,,,,,,,,,,,,,,,,,,,,,,,,,,,,,,,,,,,,,,,,,,,,,,,,2562.6256016609996,None,2562.6256016609996,None,2562.6256016609996,None,c,0,1.1193953140000303,2564.209671222,None,2564.209671222,None,2564.209671222,None,2565.4092096940003,None,2565.4092096940003,None,2565.4092096940003,None,2565.4092096940003,None,,,,,,,,,,,,,,,,,,,,,,,,,,,,,,,,,,,,,,,,,,,,001,161,2020_Feb_25_0930,spring_faces,3.1.5,60.31410051562133,
condition files/Stage1_1.xlsx,,B1,T2,c,"['c', 'm']","['Clue', 'Monopoly']","[-0.15, 0.5]","[0.15, 0.5]",1,1,,,,,,,,,0,0,0,0,0,3,3,1,,,,,,,,,,,,,,,,,,,,,,,,,,,,,,,,,,,,,,,,,,,,,,,,,,,,,,,2567.3589491370003,None,2567.3589491370003,None,2567.3589491370003,None,c,1,1.1726392350001333,2568.8924715800003,None,2568.8924715800003,None,2568.8924715800003,None,2570.142558894,None,2570.142558894,None,2570.142558894,None,2570.142558894,None,,,,,,,,,,,,,,,,,,,,,,,,,,,,,,,,,,,,,,,,,,,,001,161,2020_Feb_25_0930,spring_faces,3.1.5,60.31410051562133,
condition files/Stage1_1.xlsx,,T2,B2,m,"['c', 'm']","['Clue', 'Monopoly']","[-0.15, 0.5]","[0.15, 0.5]",1,1,,,,,,,,,0,0,0,0,0,4,4,3,,,,,,,,,,,,,,,,,,,,,,,,,,,,,,,,,,,,,,,,,,,,,,,,,,,,,,,2572.0922777079995,None,2572.0922777079995,None,2572.0922777079995,None,m,1,1.1577065559999937,2573.675424614,None,2573.675424614,None,2573.675424614,None,2574.8951884850003,None,2574.8951884850003,None,2574.8951884850003,None,2574.8951884850003,None,,,,,,,,,,,,,,,,,,,,,,,,,,,,,,,,,,,,,,,,,,,,001,161,2020_Feb_25_0930,spring_faces,3.1.5,60.31410051562133,
condition files/Stage1_1.xlsx,,B4,T4,m,"['c', 'm']","['Clue', 'Monopoly']","[-0.15, 0.5]","[0.15, 0.5]",1,1,,,,,,,,,0,0,0,0,0,5,5,7,,,,,,,,,,,,,,,,,,,,,,,,,,,,,,,,,,,,,,,,,,,,,,,,,,,,,,,2576.8589391859996,None,2576.8589391859996,None,2576.8589391859996,None,c,0,0.9208005479999883,2578.392280326,None,2578.392280326,None,2578.392280326,None,2579.375750194,None,2579.375750194,None,2579.375750194,None,2579.375750194,None,,,,,,,,,,,,,,,,,,,,,,,,,,,,,,,,,,,,,,,,,,,,001,161,2020_Feb_25_0930,spring_faces,3.1.5,60.31410051562133,
condition files/Stage1_1.xlsx,,B2,T1,m,"['c', 'm']","['Clue', 'Monopoly']","[-0.15, 0.5]","[0.15, 0.5]",1,1,,,,,,,,,0,0,0,0,0,6,6,2,,,,,,,,,,,,,,,,,,,,,,,,,,,,,,,,,,,,,,,,,,,,,,,,,,,,,,,2581.3422574630004,None,2581.3422574630004,None,2581.3422574630004,None,m,1,1.8118669420000515,2582.8771626810003,None,2582.8771626810003,None,2582.8771626810003,None,2584.74189328,None,2584.74189328,None,2584.74189328,None,2584.74189328,None,,,,,,,,,,,,,,,,,,,,,,,,,,,,,,,,,,,,,,,,,,,,001,161,2020_Feb_25_0930,spring_faces,3.1.5,60.31410051562133,
condition files/Stage1_1.xlsx,,B3,T3,c,"['c', 'm']","['Clue', 'Monopoly']","[-0.15, 0.5]","[0.15, 0.5]",1,1,,,,,,,,,0,0,0,0,0,7,7,4,,,,,,,,,,,,,,,,,,,,,,,,,,,,,,,,,,,,,,,,,,,,,,,,,,,,,,,2586.708989502,None,2586.708989502,None,2586.708989502,None,c,1,0.9909329179999986,2588.2421950770004,None,2588.2421950770004,None,2588.2421950770004,None,2589.2927619069997,None,2589.2927619069997,None,2589.2927619069997,None,2589.2927619069997,None,,,,,,,,,,,,,,,,,,,,,,,,,,,,,,,,,,,,,,,,,,,,001,161,2020_Feb_25_0930,spring_faces,3.1.5,60.31410051562133,
condition files/Stage1_2.xlsx,,B3,T4,m,"['c', 'm']","['Clue', 'Monopoly']","[-0.15, 0.5]","[0.15, 0.5]",1,1,,,,,,,,,0,1,1,1,0,0,0,6,,,,,,,,,,,,,,,,,,,,,,,,,,,,,,,,,,,,,,,,,,,,,,,,,,,,,,,2591.2755007369997,None,2591.2755007369997,None,2591.2755007369997,None,m,1,1.4000207809999665,2592.8090600140004,None,2592.8090600140004,None,2592.8090600140004,None,2594.259868776,None,2594.259868776,None,2594.259868776,None,2594.259868776,None,,,,,,,,,,,,,,,,,,,,,,,,,,,,,,,,,,,,,,,,,,,,001,161,2020_Feb_25_0930,spring_faces,3.1.5,60.31410051562133,
condition files/Stage1_2.xlsx,,B1,T1,c,"['c', 'm']","['Clue', 'Monopoly']","[-0.15, 0.5]","[0.15, 0.5]",1,1,,,,,,,,,0,1,1,1,0,1,1,0,,,,,,,,,,,,,,,,,,,,,,,,,,,,,,,,,,,,,,,,,,,,,,,,,,,,,,,2596.225602943,None,2596.225602943,None,2596.225602943,None,c,1,1.0099526710000646,2597.759092282,None,2597.759092282,None,2597.759092282,None,2598.8419983559997,None,2598.8419983559997,None,2598.8419983559997,None,2598.8419983559997,None,,,,,,,,,,,,,,,,,,,,,,,,,,,,,,,,,,,,,,,,,,,,001,161,2020_Feb_25_0930,spring_faces,3.1.5,60.31410051562133,
condition files/Stage1_2.xlsx,,T4,B4,m,"['c', 'm']","['Clue', 'Monopoly']","[-0.15, 0.5]","[0.15, 0.5]",1,1,,,,,,,,,0,1,1,1,0,2,2,7,,,,,,,,,,,,,,,,,,,,,,,,,,,,,,,,,,,,,,,,,,,,,,,,,,,,,,,2600.792568996,None,2600.792568996,None,2600.792568996,None,m,1,1.1130666710000696,2602.327990603,None,2602.327990603,None,2602.327990603,None,2603.494693249,None,2603.494693249,None,2603.494693249,None,2603.494693249,None,,,,,,,,,,,,,,,,,,,,,,,,,,,,,,,,,,,,,,,,,,,,001,161,2020_Feb_25_0930,spring_faces,3.1.5,60.31410051562133,
condition files/Stage1_2.xlsx,,T3,B3,c,"['c', 'm']","['Clue', 'Monopoly']","[-0.15, 0.5]","[0.15, 0.5]",1,1,,,,,,,,,0,1,1,1,0,3,3,4,,,,,,,,,,,,,,,,,,,,,,,,,,,,,,,,,,,,,,,,,,,,,,,,,,,,,,,2605.459042386,None,2605.459042386,None,2605.459042386,None,m,0,2.0147247899999456,2606.994347375,None,2606.994347375,None,2606.994347375,None,2609.059164565,None,2609.059164565,None,2609.059164565,None,2609.059164565,None,,,,,,,,,,,,,,,,,,,,,,,,,,,,,,,,,,,,,,,,,,,,001,161,2020_Feb_25_0930,spring_faces,3.1.5,60.31410051562133,
condition files/Stage1_2.xlsx,,T1,B2,m,"['c', 'm']","['Clue', 'Monopoly']","[-0.15, 0.5]","[0.15, 0.5]",1,1,,,,,,,,,0,1,1,1,0,4,4,2,,,,,,,,,,,,,,,,,,,,,,,,,,,,,,,,,,,,,,,,,,,,,,,,,,,,,,,2611.025092062,None,2611.025092062,None,2611.025092062,None,c,0,0.9463327630001004,2612.558712039,None,2612.558712039,None,2612.558712039,None,2613.5591222800003,None,2613.5591222800003,None,2613.5591222800003,None,2613.5591222800003,None,,,,,,,,,,,,,,,,,,,,,,,,,,,,,,,,,,,,,,,,,,,,001,161,2020_Feb_25_0930,spring_faces,3.1.5,60.31410051562133,
condition files/Stage1_2.xlsx,,B4,T3,c,"['c', 'm']","['Clue', 'Monopoly']","[-0.15, 0.5]","[0.15, 0.5]",1,1,,,,,,,,,0,1,1,1,0,5,5,5,,,,,,,,,,,,,,,,,,,,,,,,,,,,,,,,,,,,,,,,,,,,,,,,,,,,,,,2615.525322888,None,2615.525322888,None,2615.525322888,None,m,0,1.1023633840000002,2617.058701653,None,2617.058701653,None,2617.058701653,None,2618.2278877219997,None,2618.2278877219997,None,2618.2278877219997,None,2618.2278877219997,None,,,,,,,,,,,,,,,,,,,,,,,,,,,,,,,,,,,,,,,,,,,,001,161,2020_Feb_25_0930,spring_faces,3.1.5,60.31410051562133,
condition files/Stage1_2.xlsx,,B2,T2,m,"['c', 'm']","['Clue', 'Monopoly']","[-0.15, 0.5]","[0.15, 0.5]",1,1,,,,,,,,,0,1,1,1,0,6,6,3,,,,,,,,,,,,,,,,,,,,,,,,,,,,,,,,,,,,,,,,,,,,,,,,,,,,,,,2620.1920887409997,None,2620.1920887409997,None,2620.1920887409997,None,c,0,1.1071387930001038,2621.741948838,None,2621.741948838,None,2621.741948838,None,2622.9108009580004,None,2622.9108009580004,None,2622.9108009580004,None,2622.9108009580004,None,,,,,,,,,,,,,,,,,,,,,,,,,,,,,,,,,,,,,,,,,,,,001,161,2020_Feb_25_0930,spring_faces,3.1.5,60.31410051562133,
condition files/Stage1_2.xlsx,,T2,B1,c,"['c', 'm']","['Clue', 'Monopoly']","[-0.15, 0.5]","[0.15, 0.5]",1,1,,,,,,,,,0,1,1,1,0,7,7,1,,,,,,,,,,,,,,,,,,,,,,,,,,,,,,,,,,,,,,,,,,,,,,,,,,,,,,,2624.8757307939995,None,2624.8757307939995,None,2624.8757307939995,None,c,1,1.5438054639998882,2626.4093413459996,None,2626.4093413459996,None,2626.4093413459996,None,2628.0110824740004,None,2628.0110824740004,None,2628.0110824740004,None,2628.0110824740004,None,,,,,,,,,,,,,,,,,,,,,,,,,,,,,,,,,,,,,,,,,,,,001,161,2020_Feb_25_0930,spring_faces,3.1.5,60.31410051562133,
condition files/Stage1_1.xlsx,,T3,B4,c,"['c', 'm']","['Clue', 'Monopoly']","[-0.15, 0.5]","[0.15, 0.5]",1,1,,,,,,,,,0,2,2,2,0,0,0,5,,,,,,,,,,,,,,,,,,,,,,,,,,,,,,,,,,,,,,,,,,,,,,,,,,,,,,,2629.9924649659997,None,2629.9924649659997,None,2629.9924649659997,None,c,1,3.2738731049998933,2631.527269442,None,2631.527269442,None,2631.527269442,None,2634.859245261,None,2634.859245261,None,2634.859245261,None,2634.859245261,None,,,,,,,,,,,,,,,,,,,,,,,,,,,,,,,,,,,,,,,,,,,,001,161,2020_Feb_25_0930,spring_faces,3.1.5,60.31410051562133,
condition files/Stage1_1.xlsx,,T1,B1,c,"['c', 'm']","['Clue', 'Monopoly']","[-0.15, 0.5]","[0.15, 0.5]",1,1,,,,,,,,,0,2,2,2,0,1,1,0,,,,,,,,,,,,,,,,,,,,,,,,,,,,,,,,,,,,,,,,,,,,,,,,,,,,,,,2636.825651346,None,2636.825651346,None,2636.825651346,None,c,1,0.9996675399997912,2638.36138959,None,2638.36138959,None,2638.36138959,None,2639.4253142850002,None,2639.4253142850002,None,2639.4253142850002,None,2639.4253142850002,None,,,,,,,,,,,,,,,,,,,,,,,,,,,,,,,,,,,,,,,,,,,,001,161,2020_Feb_25_0930,spring_faces,3.1.5,60.31410051562133,
condition files/Stage1_1.xlsx,,B3,T3,c,"['c', 'm']","['Clue', 'Monopoly']","[-0.15, 0.5]","[0.15, 0.5]",1,1,,,,,,,,,0,2,2,2,0,2,2,4,,,,,,,,,,,,,,,,,,,,,,,,,,,,,,,,,,,,,,,,,,,,,,,,,,,,,,,2641.392299968,None,2641.392299968,None,2641.392299968,None,m,0,0.7848462239999208,2642.9282207549995,None,2642.9282207549995,None,2642.9282207549995,None,2643.7759939690004,None,2643.7759939690004,None,2643.7759939690004,None,2643.7759939690004,None,,,,,,,,,,,,,,,,,,,,,,,,,,,,,,,,,,,,,,,,,,,,001,161,2020_Feb_25_0930,spring_faces,3.1.5,60.31410051562133,
condition files/Stage1_1.xlsx,,B1,T2,c,"['c', 'm']","['Clue', 'Monopoly']","[-0.15, 0.5]","[0.15, 0.5]",1,1,,,,,,,,,0,2,2,2,0,3,3,1,,,,,,,,,,,,,,,,,,,,,,,,,,,,,,,,,,,,,,,,,,,,,,,,,,,,,,,2645.742056538,None,2645.742056538,None,2645.742056538,None,c,1,0.5973273659997176,2647.275718619,None,2647.275718619,None,2647.275718619,None,2647.9259570779996,None,2647.9259570779996,None,2647.9259570779996,None,2647.9259570779996,None,,,,,,,,,,,,,,,,,,,,,,,,,,,,,,,,,,,,,,,,,,,,001,161,2020_Feb_25_0930,spring_faces,3.1.5,60.31410051562133,
condition files/Stage1_1.xlsx,,B2,T1,m,"['c', 'm']","['Clue', 'Monopoly']","[-0.15, 0.5]","[0.15, 0.5]",1,1,,,,,,,,,0,2,2,2,0,4,4,2,,,,,,,,,,,,,,,,,,,,,,,,,,,,,,,,,,,,,,,,,,,,,,,,,,,,,,,2649.892094019,None,2649.892094019,None,2649.892094019,None,c,0,0.9426928470002167,2651.426371138,None,2651.426371138,None,2651.426371138,None,2652.4420286570003,None,2652.4420286570003,None,2652.4420286570003,None,2652.4420286570003,None,,,,,,,,,,,,,,,,,,,,,,,,,,,,,,,,,,,,,,,,,,,,001,161,2020_Feb_25_0930,spring_faces,3.1.5,60.31410051562133,
condition files/Stage1_1.xlsx,,B4,T4,m,"['c', 'm']","['Clue', 'Monopoly']","[-0.15, 0.5]","[0.15, 0.5]",1,1,,,,,,,,,0,2,2,2,0,5,5,7,,,,,,,,,,,,,,,,,,,,,,,,,,,,,,,,,,,,,,,,,,,,,,,,,,,,,,,2654.392323106,None,2654.392323106,None,2654.392323106,None,m,1,0.7627423060002911,2655.9262571420004,None,2655.9262571420004,None,2655.9262571420004,None,2656.7426612809995,None,2656.7426612809995,None,2656.7426612809995,None,2656.7426612809995,None,,,,,,,,,,,,,,,,,,,,,,,,,,,,,,,,,,,,,,,,,,,,001,161,2020_Feb_25_0930,spring_faces,3.1.5,60.31410051562133,
condition files/Stage1_1.xlsx,,T4,B3,m,"['c', 'm']","['Clue', 'Monopoly']","[-0.15, 0.5]","[0.15, 0.5]",1,1,,,,,,,,,0,2,2,2,0,6,6,6,,,,,,,,,,,,,,,,,,,,,,,,,,,,,,,,,,,,,,,,,,,,,,,,,,,,,,,2658.7090150550002,None,2658.7090150550002,None,2658.7090150550002,None,c,0,0.9904227520000859,2660.242719064,None,2660.242719064,None,2660.242719064,None,2661.292314622,None,2661.292314622,None,2661.292314622,None,2661.292314622,None,,,,,,,,,,,,,,,,,,,,,,,,,,,,,,,,,,,,,,,,,,,,001,161,2020_Feb_25_0930,spring_faces,3.1.5,60.31410051562133,
condition files/Stage1_1.xlsx,,T2,B2,m,"['c', 'm']","['Clue', 'Monopoly']","[-0.15, 0.5]","[0.15, 0.5]",1,1,,,,,,,,,0,2,2,2,0,7,7,3,,,,,,,,,,,,,,,,,,,,,,,,,,,,,,,,,,,,,,,,,,,,,,,,,,,,,,,2663.258956666,None,2663.258956666,None,2663.258956666,None,c,0,2.4730554360003225,2664.7919306559997,None,2664.7919306559997,None,2664.7919306559997,None,2667.325521068,None,2667.325521068,None,2667.325521068,None,2667.325521068,None,,,,,,,,,,,,,,,,,,,,,,,,,,,,,,,,,,,,,,,,,,,,001,161,2020_Feb_25_0930,spring_faces,3.1.5,60.31410051562133,
condition files/Stage1_2.xlsx,,T3,B3,c,"['c', 'm']","['Clue', 'Monopoly']","[-0.15, 0.5]","[0.15, 0.5]",1,1,,,,,,,,,0,3,3,3,0,0,0,4,,,,,,,,,,,,,,,,,,,,,,,,,,,,,,,,,,,,,,,,,,,,,,,,,,,,,,,2669.309547776,None,2669.309547776,None,2669.309547776,None,c,1,1.0939236320000418,2670.8431168630004,None,2670.8431168630004,None,2670.8431168630004,None,2671.9920367289997,None,2671.9920367289997,None,2671.9920367289997,None,2671.9920367289997,None,,,,,,,,,,,,,,,,,,,,,,,,,,,,,,,,,,,,,,,,,,,,001,161,2020_Feb_25_0930,spring_faces,3.1.5,60.31410051562133,
condition files/Stage1_2.xlsx,,T1,B2,m,"['c', 'm']","['Clue', 'Monopoly']","[-0.15, 0.5]","[0.15, 0.5]",1,1,,,,,,,,,0,3,3,3,0,1,1,2,,,,,,,,,,,,,,,,,,,,,,,,,,,,,,,,,,,,,,,,,,,,,,,,,,,,,,,2673.958927529,None,2673.958927529,None,2673.958927529,None,m,1,0.7325837530001991,2675.4924686100003,None,2675.4924686100003,None,2675.4924686100003,None,2676.276568108,None,2676.276568108,None,2676.276568108,None,2676.276568108,None,,,,,,,,,,,,,,,,,,,,,,,,,,,,,,,,,,,,,,,,,,,,001,161,2020_Feb_25_0930,spring_faces,3.1.5,60.31410051562133,
condition files/Stage1_2.xlsx,,T4,B4,m,"['c', 'm']","['Clue', 'Monopoly']","[-0.15, 0.5]","[0.15, 0.5]",1,1,,,,,,,,,0,3,3,3,0,2,2,7,,,,,,,,,,,,,,,,,,,,,,,,,,,,,,,,,,,,,,,,,,,,,,,,,,,,,,,2678.2418606969995,None,2678.2418606969995,None,2678.2418606969995,None,c,0,0.7381107840001278,2679.7749597760003,None,2679.7749597760003,None,2679.7749597760003,None,2680.575248336,None,2680.575248336,None,2680.575248336,None,2680.575248336,None,,,,,,,,,,,,,,,,,,,,,,,,,,,,,,,,,,,,,,,,,,,,001,161,2020_Feb_25_0930,spring_faces,3.1.5,60.31410051562133,
condition files/Stage1_2.xlsx,,B2,T2,m,"['c', 'm']","['Clue', 'Monopoly']","[-0.15, 0.5]","[0.15, 0.5]",1,1,,,,,,,,,0,3,3,3,0,3,3,3,,,,,,,,,,,,,,,,,,,,,,,,,,,,,,,,,,,,,,,,,,,,,,,,,,,,,,,2682.542416223,None,2682.542416223,None,2682.542416223,None,m,1,0.8990680309998424,2684.0779497510002,None,2684.0779497510002,None,2684.0779497510002,None,2685.0425890320003,None,2685.0425890320003,None,2685.0425890320003,None,2685.0425890320003,None,,,,,,,,,,,,,,,,,,,,,,,,,,,,,,,,,,,,,,,,,,,,001,161,2020_Feb_25_0930,spring_faces,3.1.5,60.31410051562133,
condition files/Stage1_2.xlsx,,T2,B1,c,"['c', 'm']","['Clue', 'Monopoly']","[-0.15, 0.5]","[0.15, 0.5]",1,1,,,,,,,,,0,3,3,3,0,4,4,1,,,,,,,,,,,,,,,,,,,,,,,,,,,,,,,,,,,,,,,,,,,,,,,,,,,,,,,2687.0089959139996,None,2687.0089959139996,None,2687.0089959139996,None,c,1,0.8501673010000559,2688.5428476179995,None,2688.5428476179995,None,2688.5428476179995,None,2689.4593522200003,None,2689.4593522200003,None,2689.4593522200003,None,2689.4593522200003,None,,,,,,,,,,,,,,,,,,,,,,,,,,,,,,,,,,,,,,,,,,,,001,161,2020_Feb_25_0930,spring_faces,3.1.5,60.31410051562133,
condition files/Stage1_2.xlsx,,B4,T3,c,"['c', 'm']","['Clue', 'Monopoly']","[-0.15, 0.5]","[0.15, 0.5]",1,1,,,,,,,,,0,3,3,3,0,5,5,5,,,,,,,,,,,,,,,,,,,,,,,,,,,,,,,,,,,,,,,,,,,,,,,,,,,,,,,2691.4255925489997,None,2691.4255925489997,None,2691.4255925489997,None,m,0,0.6419350469996061,2692.9592000700004,None,2692.9592000700004,None,2692.9592000700004,None,2693.658571731,None,2693.658571731,None,2693.658571731,None,2693.658571731,None,,,,,,,,,,,,,,,,,,,,,,,,,,,,,,,,,,,,,,,,,,,,001,161,2020_Feb_25_0930,spring_faces,3.1.5,60.31410051562133,
condition files/Stage1_2.xlsx,,B3,T4,m,"['c', 'm']","['Clue', 'Monopoly']","[-0.15, 0.5]","[0.15, 0.5]",1,1,,,,,,,,,0,3,3,3,0,6,6,6,,,,,,,,,,,,,,,,,,,,,,,,,,,,,,,,,,,,,,,,,,,,,,,,,,,,,,,2695.6258051020004,None,2695.6258051020004,None,2695.6258051020004,None,c,0,0.7279875179997362,2697.161213302,None,2697.161213302,None,2697.161213302,None,2697.9450628590002,None,2697.9450628590002,None,2697.9450628590002,None,2697.9450628590002,None,,,,,,,,,,,,,,,,,,,,,,,,,,,,,,,,,,,,,,,,,,,,001,161,2020_Feb_25_0930,spring_faces,3.1.5,60.31410051562133,
condition files/Stage1_2.xlsx,,B1,T1,c,"['c', 'm']","['Clue', 'Monopoly']","[-0.15, 0.5]","[0.15, 0.5]",1,1,,,,,,,,,0,3,3,3,0,7,7,0,,,,,,,,,,,,,,,,,,,,,,,,,,,,,,,,,,,,,,,,,,,,,,,,,,,,,,,2699.909097969,None,2699.909097969,None,2699.909097969,None,c,1,0.4615209250000589,2701.4435473949998,None,2701.4435473949998,None,2701.4435473949998,None,2701.9589027720003,None,2701.9589027720003,None,2701.9589027720003,None,2701.9589027720003,None,,,,,,,,,,,,,,,,,,,,,,,,,,,,,,,,,,,,,,,,,,,,001,161,2020_Feb_25_0930,spring_faces,3.1.5,60.31410051562133,
condition files/Stage1_1.xlsx,,B1,T2,c,"['c', 'm']","['Clue', 'Monopoly']","[-0.15, 0.5]","[0.15, 0.5]",1,1,,,,,,,,,0,4,4,4,0,0,0,1,,,,,,,,,,,,,,,,,,,,,,,,,,,,,,,,,,,,,,,,,,,,,,,,,,,,,,,2703.9418553530004,None,2703.9418553530004,None,2703.9418553530004,None,c,1,1.0843801959999837,2705.492649998,None,2705.492649998,None,2705.492649998,None,2706.642498526,None,2706.642498526,None,2706.642498526,None,2706.642498526,None,,,,,,,,,,,,,,,,,,,,,,,,,,,,,,,,,,,,,,,,,,,,001,161,2020_Feb_25_0930,spring_faces,3.1.5,60.31410051562133,
condition files/Stage1_1.xlsx,,T3,B4,c,"['c', 'm']","['Clue', 'Monopoly']","[-0.15, 0.5]","[0.15, 0.5]",1,1,,,,,,,,,0,4,4,4,0,1,1,5,,,,,,,,,,,,,,,,,,,,,,,,,,,,,,,,,,,,,,,,,,,,,,,,,,,,,,,2708.608909185,None,2708.608909185,None,2708.608909185,None,m,0,0.6893437859998812,2710.1437728399997,None,2710.1437728399997,None,2710.1437728399997,None,2710.892435244,None,2710.892435244,None,2710.892435244,None,2710.892435244,None,,,,,,,,,,,,,,,,,,,,,,,,,,,,,,,,,,,,,,,,,,,,001,161,2020_Feb_25_0930,spring_faces,3.1.5,60.31410051562133,
condition files/Stage1_1.xlsx,,T2,B2,m,"['c', 'm']","['Clue', 'Monopoly']","[-0.15, 0.5]","[0.15, 0.5]",1,1,,,,,,,,,0,4,4,4,0,2,2,3,,,,,,,,,,,,,,,,,,,,,,,,,,,,,,,,,,,,,,,,,,,,,,,,,,,,,,,2712.858368761,None,2712.858368761,None,2712.858368761,None,c,0,0.6325192399999651,2714.39254103,None,2714.39254103,None,2714.39254103,None,2715.076473846,None,2715.076473846,None,2715.076473846,None,2715.076473846,None,,,,,,,,,,,,,,,,,,,,,,,,,,,,,,,,,,,,,,,,,,,,001,161,2020_Feb_25_0930,spring_faces,3.1.5,60.31410051562133,
condition files/Stage1_1.xlsx,,B4,T4,m,"['c', 'm']","['Clue', 'Monopoly']","[-0.15, 0.5]","[0.15, 0.5]",1,1,,,,,,,,,0,4,4,4,0,3,3,7,,,,,,,,,,,,,,,,,,,,,,,,,,,,,,,,,,,,,,,,,,,,,,,,,,,,,,,2717.0417440459996,None,2717.0417440459996,None,2717.0417440459996,None,c,0,0.3057246080002187,2718.5753479779996,None,2718.5753479779996,None,2718.5753479779996,None,2718.9422947189996,None,2718.9422947189996,None,2718.9422947189996,None,2718.9422947189996,None,,,,,,,,,,,,,,,,,,,,,,,,,,,,,,,,,,,,,,,,,,,,001,161,2020_Feb_25_0930,spring_faces,3.1.5,60.31410051562133,
condition files/Stage1_1.xlsx,,B2,T1,m,"['c', 'm']","['Clue', 'Monopoly']","[-0.15, 0.5]","[0.15, 0.5]",1,1,,,,,,,,,0,4,4,4,0,4,4,2,,,,,,,,,,,,,,,,,,,,,,,,,,,,,,,,,,,,,,,,,,,,,,,,,,,,,,,2720.9089736200003,None,2720.9089736200003,None,2720.9089736200003,None,c,0,0.5018179859998781,2722.459200921,None,2722.459200921,None,2722.459200921,None,2723.025860641,None,2723.025860641,None,2723.025860641,None,2723.025860641,None,,,,,,,,,,,,,,,,,,,,,,,,,,,,,,,,,,,,,,,,,,,,001,161,2020_Feb_25_0930,spring_faces,3.1.5,60.31410051562133,
condition files/Stage1_1.xlsx,,B3,T3,c,"['c', 'm']","['Clue', 'Monopoly']","[-0.15, 0.5]","[0.15, 0.5]",1,1,,,,,,,,,0,4,4,4,0,5,5,4,,,,,,,,,,,,,,,,,,,,,,,,,,,,,,,,,,,,,,,,,,,,,,,,,,,,,,,2724.99215801,None,2724.99215801,None,2724.99215801,None,c,1,0.40215361699983987,2726.5269139069997,None,2726.5269139069997,None,2726.5269139069997,None,2726.9926924069996,None,2726.9926924069996,None,2726.9926924069996,None,2726.9926924069996,None,,,,,,,,,,,,,,,,,,,,,,,,,,,,,,,,,,,,,,,,,,,,001,161,2020_Feb_25_0930,spring_faces,3.1.5,60.31410051562133,
condition files/Stage1_1.xlsx,,T4,B3,m,"['c', 'm']","['Clue', 'Monopoly']","[-0.15, 0.5]","[0.15, 0.5]",1,1,,,,,,,,,0,4,4,4,0,6,6,6,,,,,,,,,,,,,,,,,,,,,,,,,,,,,,,,,,,,,,,,,,,,,,,,,,,,,,,2728.958974688,None,2728.958974688,None,2728.958974688,None,c,0,1.4439438809999956,2730.5091863959997,None,2730.5091863959997,None,2730.5091863959997,None,2732.009448965,None,2732.009448965,None,2732.009448965,None,2732.009448965,None,,,,,,,,,,,,,,,,,,,,,,,,,,,,,,,,,,,,,,,,,,,,001,161,2020_Feb_25_0930,spring_faces,3.1.5,60.31410051562133,
condition files/Stage1_1.xlsx,,T1,B1,c,"['c', 'm']","['Clue', 'Monopoly']","[-0.15, 0.5]","[0.15, 0.5]",1,1,,,,,,,,,0,4,4,4,0,7,7,0,,,,,,,,,,,,,,,,,,,,,,,,,,,,,,,,,,,,,,,,,,,,,,,,,,,,,,,2733.976088818,None,2733.976088818,None,2733.976088818,None,m,0,0.21930730400026732,2735.5257424949996,None,2735.5257424949996,None,2735.5257424949996,None,2735.8103268329996,None,2735.8103268329996,None,2735.8103268329996,None,2735.8103268329996,None,,,,,,,,,,,,,,,,,,,,,,,,,,,,,,,,,,,,,,,,,,,,001,161,2020_Feb_25_0930,spring_faces,3.1.5,60.31410051562133,
condition files/Stage1_2.xlsx,,T3,B3,c,"['c', 'm']","['Clue', 'Monopoly']","[-0.15, 0.5]","[0.15, 0.5]",1,1,,,,,,,,,0,5,5,5,0,0,0,4,,,,,,,,,,,,,,,,,,,,,,,,,,,,,,,,,,,,,,,,,,,,,,,,,,,,,,,2737.7925581500003,None,2737.7925581500003,None,2737.7925581500003,None,c,1,3.600927676000083,2739.3281386500003,None,2739.3281386500003,None,2739.3281386500003,None,2742.992564129,None,2742.992564129,None,2742.992564129,None,2742.992564129,None,,,,,,,,,,,,,,,,,,,,,,,,,,,,,,,,,,,,,,,,,,,,001,161,2020_Feb_25_0930,spring_faces,3.1.5,60.31410051562133,
condition files/Stage1_2.xlsx,,T2,B1,c,"['c', 'm']","['Clue', 'Monopoly']","[-0.15, 0.5]","[0.15, 0.5]",1,1,,,,,,,,,0,5,5,5,0,1,1,1,,,,,,,,,,,,,,,,,,,,,,,,,,,,,,,,,,,,,,,,,,,,,,,,,,,,,,,2744.9589649540003,None,2744.9589649540003,None,2744.9589649540003,None,c,1,1.397497686999941,2746.491537223,None,2746.491537223,None,2746.491537223,None,2747.9424949390004,None,2747.9424949390004,None,2747.9424949390004,None,2747.9424949390004,None,,,,,,,,,,,,,,,,,,,,,,,,,,,,,,,,,,,,,,,,,,,,001,161,2020_Feb_25_0930,spring_faces,3.1.5,60.31410051562133,
condition files/Stage1_2.xlsx,,B3,T4,m,"['c', 'm']","['Clue', 'Monopoly']","[-0.15, 0.5]","[0.15, 0.5]",1,1,,,,,,,,,0,5,5,5,0,2,2,6,,,,,,,,,,,,,,,,,,,,,,,,,,,,,,,,,,,,,,,,,,,,,,,,,,,,,,,2749.908228423,None,2749.908228423,None,2749.908228423,None,m,1,1.2785547159996895,2751.4425030840002,None,2751.4425030840002,None,2751.4425030840002,None,2752.7787235819997,None,2752.7787235819997,None,2752.7787235819997,None,2752.7787235819997,None,,,,,,,,,,,,,,,,,,,,,,,,,,,,,,,,,,,,,,,,,,,,001,161,2020_Feb_25_0930,spring_faces,3.1.5,60.31410051562133,
condition files/Stage1_2.xlsx,,B2,T2,m,"['c', 'm']","['Clue', 'Monopoly']","[-0.15, 0.5]","[0.15, 0.5]",1,1,,,,,,,,,0,5,5,5,0,3,3,3,,,,,,,,,,,,,,,,,,,,,,,,,,,,,,,,,,,,,,,,,,,,,,,,,,,,,,,2754.7424145739997,None,2754.7424145739997,None,2754.7424145739997,None,c,0,0.9894561979999708,2756.275628906,None,2756.275628906,None,2756.275628906,None,2757.3259004789998,None,2757.3259004789998,None,2757.3259004789998,None,2757.3259004789998,None,,,,,,,,,,,,,,,,,,,,,,,,,,,,,,,,,,,,,,,,,,,,001,161,2020_Feb_25_0930,spring_faces,3.1.5,60.31410051562133,
condition files/Stage1_2.xlsx,,T1,B2,m,"['c', 'm']","['Clue', 'Monopoly']","[-0.15, 0.5]","[0.15, 0.5]",1,1,,,,,,,,,0,5,5,5,0,4,4,2,,,,,,,,,,,,,,,,,,,,,,,,,,,,,,,,,,,,,,,,,,,,,,,,,,,,,,,2759.292432268,None,2759.292432268,None,2759.292432268,None,c,0,1.143232327000078,2760.825903346,None,2760.825903346,None,2760.825903346,None,2762.0256274169997,None,2762.0256274169997,None,2762.0256274169997,None,2762.0256274169997,None,,,,,,,,,,,,,,,,,,,,,,,,,,,,,,,,,,,,,,,,,,,,001,161,2020_Feb_25_0930,spring_faces,3.1.5,60.31410051562133,
condition files/Stage1_2.xlsx,,T4,B4,m,"['c', 'm']","['Clue', 'Monopoly']","[-0.15, 0.5]","[0.15, 0.5]",1,1,,,,,,,,,0,5,5,5,0,5,5,7,,,,,,,,,,,,,,,,,,,,,,,,,,,,,,,,,,,,,,,,,,,,,,,,,,,,,,,2763.991940197,None,2763.991940197,None,2763.991940197,None,m,1,2.123109672999817,2765.526028415,None,2765.526028415,None,2765.526028415,None,2767.7092050210003,None,2767.7092050210003,None,2767.7092050210003,None,2767.7092050210003,None,,,,,,,,,,,,,,,,,,,,,,,,,,,,,,,,,,,,,,,,,,,,001,161,2020_Feb_25_0930,spring_faces,3.1.5,60.31410051562133,
condition files/Stage1_2.xlsx,,B1,T1,c,"['c', 'm']","['Clue', 'Monopoly']","[-0.15, 0.5]","[0.15, 0.5]",1,1,,,,,,,,,0,5,5,5,0,6,6,0,,,,,,,,,,,,,,,,,,,,,,,,,,,,,,,,,,,,,,,,,,,,,,,,,,,,,,,2769.6756733250004,None,2769.6756733250004,None,2769.6756733250004,None,c,1,0.9040621149997605,2771.2090129199996,None,2771.2090129199996,None,2771.2090129199996,None,2772.1925254099997,None,2772.1925254099997,None,2772.1925254099997,None,2772.1925254099997,None,,,,,,,,,,,,,,,,,,,,,,,,,,,,,,,,,,,,,,,,,,,,001,161,2020_Feb_25_0930,spring_faces,3.1.5,60.31410051562133,
condition files/Stage1_2.xlsx,,B4,T3,c,"['c', 'm']","['Clue', 'Monopoly']","[-0.15, 0.5]","[0.15, 0.5]",1,1,,,,,,,,,0,5,5,5,0,7,7,5,,,,,,,,,,,,,,,,,,,,,,,,,,,,,,,,,,,,,,,,,,,,,,,,,,,,,,,2774.1424474160003,None,2774.1424474160003,None,2774.1424474160003,None,c,1,1.9240687980000075,2775.677071082,None,2775.677071082,None,2775.677071082,None,2777.659496382,None,2777.659496382,None,2777.659496382,None,2777.659496382,None,,,,,,,,,,,,,,,,,,,,,,,,,,,,,,,,,,,,,,,,,,,,001,161,2020_Feb_25_0930,spring_faces,3.1.5,60.31410051562133,
condition files/Stage1_1.xlsx,,T1,B1,c,"['c', 'm']","['Clue', 'Monopoly']","[-0.15, 0.5]","[0.15, 0.5]",1,1,,,,,,,,,0,6,6,6,0,0,0,0,,,,,,,,,,,,,,,,,,,,,,,,,,,,,,,,,,,,,,,,,,,,,,,,,,,,,,,2779.642290316,None,2779.642290316,None,2779.642290316,None,c,1,2.21734376600034,2781.1756781329996,None,2781.1756781329996,None,2781.1756781329996,None,2783.4591728570003,None,2783.4591728570003,None,2783.4591728570003,None,2783.4591728570003,None,,,,,,,,,,,,,,,,,,,,,,,,,,,,,,,,,,,,,,,,,,,,001,161,2020_Feb_25_0930,spring_faces,3.1.5,60.31410051562133,
condition files/Stage1_1.xlsx,,B1,T2,c,"['c', 'm']","['Clue', 'Monopoly']","[-0.15, 0.5]","[0.15, 0.5]",1,1,,,,,,,,,0,6,6,6,0,1,1,1,,,,,,,,,,,,,,,,,,,,,,,,,,,,,,,,,,,,,,,,,,,,,,,,,,,,,,,2785.4254879890004,None,2785.4254879890004,None,2785.4254879890004,None,c,1,1.4902352700000847,2786.958897965,None,2786.958897965,None,2786.958897965,None,2788.508746267,None,2788.508746267,None,2788.508746267,None,2788.508746267,None,,,,,,,,,,,,,,,,,,,,,,,,,,,,,,,,,,,,,,,,,,,,001,161,2020_Feb_25_0930,spring_faces,3.1.5,60.31410051562133,
condition files/Stage1_1.xlsx,,T4,B3,m,"['c', 'm']","['Clue', 'Monopoly']","[-0.15, 0.5]","[0.15, 0.5]",1,1,,,,,,,,,0,6,6,6,0,2,2,6,,,,,,,,,,,,,,,,,,,,,,,,,,,,,,,,,,,,,,,,,,,,,,,,,,,,,,,2790.475695655,None,2790.475695655,None,2790.475695655,None,m,1,0.7917484009999498,2792.009371551,None,2792.009371551,None,2792.009371551,None,2792.860253346,None,2792.860253346,None,2792.860253346,None,2792.860253346,None,,,,,,,,,,,,,,,,,,,,,,,,,,,,,,,,,,,,,,,,,,,,001,161,2020_Feb_25_0930,spring_faces,3.1.5,60.31410051562133,
condition files/Stage1_1.xlsx,,B3,T3,c,"['c', 'm']","['Clue', 'Monopoly']","[-0.15, 0.5]","[0.15, 0.5]",1,1,,,,,,,,,0,6,6,6,0,3,3,4,,,,,,,,,,,,,,,,,,,,,,,,,,,,,,,,,,,,,,,,,,,,,,,,,,,,,,,2794.8257335139997,None,2794.8257335139997,None,2794.8257335139997,None,c,1,1.0182746430000407,2796.35876051,None,2796.35876051,None,2796.35876051,None,2797.44488413,None,2797.44488413,None,2797.44488413,None,2797.44488413,None,,,,,,,,,,,,,,,,,,,,,,,,,,,,,,,,,,,,,,,,,,,,001,161,2020_Feb_25_0930,spring_faces,3.1.5,60.31410051562133,
condition files/Stage1_1.xlsx,,T2,B2,m,"['c', 'm']","['Clue', 'Monopoly']","[-0.15, 0.5]","[0.15, 0.5]",1,1,,,,,,,,,0,6,6,6,0,4,4,3,,,,,,,,,,,,,,,,,,,,,,,,,,,,,,,,,,,,,,,,,,,,,,,,,,,,,,,2799.40894035,None,2799.40894035,None,2799.40894035,None,c,0,0.8670968690003065,2800.9419233400004,None,2800.9419233400004,None,2800.9419233400004,None,2801.875374516,None,2801.875374516,None,2801.875374516,None,2801.875374516,None,,,,,,,,,,,,,,,,,,,,,,,,,,,,,,,,,,,,,,,,,,,,001,161,2020_Feb_25_0930,spring_faces,3.1.5,60.31410051562133,
condition files/Stage1_1.xlsx,,T3,B4,c,"['c', 'm']","['Clue', 'Monopoly']","[-0.15, 0.5]","[0.15, 0.5]",1,1,,,,,,,,,0,6,6,6,0,5,5,5,,,,,,,,,,,,,,,,,,,,,,,,,,,,,,,,,,,,,,,,,,,,,,,,,,,,,,,2803.8258482210003,None,2803.8258482210003,None,2803.8258482210003,None,m,0,0.6105623980001837,2805.3585289860002,None,2805.3585289860002,None,2805.3585289860002,None,2806.026719032,None,2806.026719032,None,2806.026719032,None,2806.026719032,None,,,,,,,,,,,,,,,,,,,,,,,,,,,,,,,,,,,,,,,,,,,,001,161,2020_Feb_25_0930,spring_faces,3.1.5,60.31410051562133,
condition files/Stage1_1.xlsx,,B4,T4,m,"['c', 'm']","['Clue', 'Monopoly']","[-0.15, 0.5]","[0.15, 0.5]",1,1,,,,,,,,,0,6,6,6,0,6,6,7,,,,,,,,,,,,,,,,,,,,,,,,,,,,,,,,,,,,,,,,,,,,,,,,,,,,,,,2807.9919216239996,None,2807.9919216239996,None,2807.9919216239996,None,m,1,1.0673266419998981,2809.5257131299995,None,2809.5257131299995,None,2809.5257131299995,None,2810.6586394799997,None,2810.6586394799997,None,2810.6586394799997,None,2810.6586394799997,None,,,,,,,,,,,,,,,,,,,,,,,,,,,,,,,,,,,,,,,,,,,,001,161,2020_Feb_25_0930,spring_faces,3.1.5,60.31410051562133,
condition files/Stage1_1.xlsx,,B2,T1,m,"['c', 'm']","['Clue', 'Monopoly']","[-0.15, 0.5]","[0.15, 0.5]",1,1,,,,,,,,,0,6,6,6,0,7,7,2,,,,,,,,,,,,,,,,,,,,,,,,,,,,,,,,,,,,,,,,,,,,,,,,,,,,,,,2812.625773508,None,2812.625773508,None,2812.625773508,None,c,0,0.9923556240000835,2814.160795199,None,2814.160795199,None,2814.160795199,None,2815.208692634,None,2815.208692634,None,2815.208692634,None,2815.208692634,None,,,,,,,,,,,,,,,,,,,,,,,,,,,,,,,,,,,,,,,,,,,,001,161,2020_Feb_25_0930,spring_faces,3.1.5,60.31410051562133,
condition files/Stage1_2.xlsx,,T3,B3,c,"['c', 'm']","['Clue', 'Monopoly']","[-0.15, 0.5]","[0.15, 0.5]",1,1,,,,,,,,,0,7,7,7,0,0,0,4,,,,,,,,,,,,,,,,,,,,,,,,,,,,,,,,,,,,,,,,,,,,,,,,,,,,,,,2817.192552495,None,2817.192552495,None,2817.192552495,None,c,1,0.9875668649997351,2818.7255020579996,None,2818.7255020579996,None,2818.7255020579996,None,2819.77591244,None,2819.77591244,None,2819.77591244,None,2819.77591244,None,,,,,,,,,,,,,,,,,,,,,,,,,,,,,,,,,,,,,,,,,,,,001,161,2020_Feb_25_0930,spring_faces,3.1.5,60.31410051562133,
condition files/Stage1_2.xlsx,,B2,T2,m,"['c', 'm']","['Clue', 'Monopoly']","[-0.15, 0.5]","[0.15, 0.5]",1,1,,,,,,,,,0,7,7,7,0,1,1,3,,,,,,,,,,,,,,,,,,,,,,,,,,,,,,,,,,,,,,,,,,,,,,,,,,,,,,,2821.742266857,None,2821.742266857,None,2821.742266857,None,m,1,1.3976844349999737,2823.2753779100003,None,2823.2753779100003,None,2823.2753779100003,None,2824.726061917,None,2824.726061917,None,2824.726061917,None,2824.726061917,None,,,,,,,,,,,,,,,,,,,,,,,,,,,,,,,,,,,,,,,,,,,,001,161,2020_Feb_25_0930,spring_faces,3.1.5,60.31410051562133,
condition files/Stage1_2.xlsx,,B1,T1,c,"['c', 'm']","['Clue', 'Monopoly']","[-0.15, 0.5]","[0.15, 0.5]",1,1,,,,,,,,,0,7,7,7,0,2,2,0,,,,,,,,,,,,,,,,,,,,,,,,,,,,,,,,,,,,,,,,,,,,,,,,,,,,,,,2826.6916906119995,None,2826.6916906119995,None,2826.6916906119995,None,c,1,0.8950346239998908,2828.2260244890003,None,2828.2260244890003,None,2828.2260244890003,None,2829.1923263910003,None,2829.1923263910003,None,2829.1923263910003,None,2829.1923263910003,None,,,,,,,,,,,,,,,,,,,,,,,,,,,,,,,,,,,,,,,,,,,,001,161,2020_Feb_25_0930,spring_faces,3.1.5,60.31410051562133,
condition files/Stage1_2.xlsx,,B3,T4,m,"['c', 'm']","['Clue', 'Monopoly']","[-0.15, 0.5]","[0.15, 0.5]",1,1,,,,,,,,,0,7,7,7,0,3,3,6,,,,,,,,,,,,,,,,,,,,,,,,,,,,,,,,,,,,,,,,,,,,,,,,,,,,,,,2831.1417136379996,None,2831.1417136379996,None,2831.1417136379996,None,c,0,0.7806232790003378,2832.6924189150004,None,2832.6924189150004,None,2832.6924189150004,None,2833.527305081,None,2833.527305081,None,2833.527305081,None,2833.527305081,None,,,,,,,,,,,,,,,,,,,,,,,,,,,,,,,,,,,,,,,,,,,,001,161,2020_Feb_25_0930,spring_faces,3.1.5,60.31410051562133,
condition files/Stage1_2.xlsx,,B4,T3,c,"['c', 'm']","['Clue', 'Monopoly']","[-0.15, 0.5]","[0.15, 0.5]",1,1,,,,,,,,,0,7,7,7,0,4,4,5,,,,,,,,,,,,,,,,,,,,,,,,,,,,,,,,,,,,,,,,,,,,,,,,,,,,,,,2835.492436044,None,2835.492436044,None,2835.492436044,None,m,0,0.9916649080000752,2837.025463268,None,2837.025463268,None,2837.025463268,None,2838.0750545749997,None,2838.0750545749997,None,2838.0750545749997,None,2838.0750545749997,None,,,,,,,,,,,,,,,,,,,,,,,,,,,,,,,,,,,,,,,,,,,,001,161,2020_Feb_25_0930,spring_faces,3.1.5,60.31410051562133,
condition files/Stage1_2.xlsx,,T1,B2,m,"['c', 'm']","['Clue', 'Monopoly']","[-0.15, 0.5]","[0.15, 0.5]",1,1,,,,,,,,,0,7,7,7,0,5,5,2,,,,,,,,,,,,,,,,,,,,,,,,,,,,,,,,,,,,,,,,,,,,,,,,,,,,,,,2840.042322479,None,2840.042322479,None,2840.042322479,None,c,0,1.01591078499996,2841.5771163239997,None,2841.5771163239997,None,2841.5771163239997,None,2842.658985278,None,2842.658985278,None,2842.658985278,None,2842.658985278,None,,,,,,,,,,,,,,,,,,,,,,,,,,,,,,,,,,,,,,,,,,,,001,161,2020_Feb_25_0930,spring_faces,3.1.5,60.31410051562133,
condition files/Stage1_2.xlsx,,T2,B1,c,"['c', 'm']","['Clue', 'Monopoly']","[-0.15, 0.5]","[0.15, 0.5]",1,1,,,,,,,,,0,7,7,7,0,6,6,1,,,,,,,,,,,,,,,,,,,,,,,,,,,,,,,,,,,,,,,,,,,,,,,,,,,,,,,2844.625637471,None,2844.625637471,None,2844.625637471,None,c,1,0.7378859880000164,2846.1751683169996,None,2846.1751683169996,None,2846.1751683169996,None,2846.9769043220003,None,2846.9769043220003,None,2846.9769043220003,None,2846.9769043220003,None,,,,,,,,,,,,,,,,,,,,,,,,,,,,,,,,,,,,,,,,,,,,001,161,2020_Feb_25_0930,spring_faces,3.1.5,60.31410051562133,
condition files/Stage1_2.xlsx,,T4,B4,m,"['c', 'm']","['Clue', 'Monopoly']","[-0.15, 0.5]","[0.15, 0.5]",1,1,,,,,,,,,0,7,7,7,0,7,7,7,,,,,,,,,,,,,,,,,,,,,,,,,,,,,,,,,,,,,,,,,,,,,,,,,,,,,,,2848.942386021,None,2848.942386021,None,2848.942386021,None,m,1,1.138855053000043,2850.4782616889997,None,2850.4782616889997,None,2850.4782616889997,None,2851.6769113889995,None,2851.6769113889995,None,2851.6769113889995,None,2851.6769113889995,None,,,,,,,,,,,,,,,,,,,,,,,,,,,,,,,,,,,,,,,,,,,,001,161,2020_Feb_25_0930,spring_faces,3.1.5,60.31410051562133,
condition files/Stage1_1.xlsx,,B4,T4,m,"['c', 'm']","['Clue', 'Monopoly']","[-0.15, 0.5]","[0.15, 0.5]",1,1,,,,,,,,,0,8,8,8,0,0,0,7,,,,,,,,,,,,,,,,,,,,,,,,,,,,,,,,,,,,,,,,,,,,,,,,,,,,,,,2853.65899351,None,2853.65899351,None,2853.65899351,None,c,0,2.0237438049998673,2855.209385981,None,2855.209385981,None,2855.209385981,None,2857.293691799,None,2857.293691799,None,2857.293691799,None,2857.293691799,None,,,,,,,,,,,,,,,,,,,,,,,,,,,,,,,,,,,,,,,,,,,,001,161,2020_Feb_25_0930,spring_faces,3.1.5,60.31410051562133,
condition files/Stage1_1.xlsx,,T2,B2,m,"['c', 'm']","['Clue', 'Monopoly']","[-0.15, 0.5]","[0.15, 0.5]",1,1,,,,,,,,,0,8,8,8,0,1,1,3,,,,,,,,,,,,,,,,,,,,,,,,,,,,,,,,,,,,,,,,,,,,,,,,,,,,,,,2859.258926175,None,2859.258926175,None,2859.258926175,None,c,0,0.760593143999813,2860.792553679,None,2860.792553679,None,2860.792553679,None,2861.6094585829997,None,2861.6094585829997,None,2861.6094585829997,None,2861.6094585829997,None,,,,,,,,,,,,,,,,,,,,,,,,,,,,,,,,,,,,,,,,,,,,001,161,2020_Feb_25_0930,spring_faces,3.1.5,60.31410051562133,
condition files/Stage1_1.xlsx,,T3,B4,c,"['c', 'm']","['Clue', 'Monopoly']","[-0.15, 0.5]","[0.15, 0.5]",1,1,,,,,,,,,0,8,8,8,0,2,2,5,,,,,,,,,,,,,,,,,,,,,,,,,,,,,,,,,,,,,,,,,,,,,,,,,,,,,,,2863.5756602330002,None,2863.5756602330002,None,2863.5756602330002,None,m,0,0.7803060169999299,2865.108778553,None,2865.108778553,None,2865.108778553,None,2865.9417279560002,None,2865.9417279560002,None,2865.9417279560002,None,2865.9417279560002,None,,,,,,,,,,,,,,,,,,,,,,,,,,,,,,,,,,,,,,,,,,,,001,161,2020_Feb_25_0930,spring_faces,3.1.5,60.31410051562133,
condition files/Stage1_1.xlsx,,T4,B3,m,"['c', 'm']","['Clue', 'Monopoly']","[-0.15, 0.5]","[0.15, 0.5]",1,1,,,,,,,,,0,8,8,8,0,3,3,6,,,,,,,,,,,,,,,,,,,,,,,,,,,,,,,,,,,,,,,,,,,,,,,,,,,,,,,2867.9089662529996,None,2867.9089662529996,None,2867.9089662529996,None,m,1,0.7189572659999612,2869.442107619,None,2869.442107619,None,2869.442107619,None,2870.242320986,None,2870.242320986,None,2870.242320986,None,2870.242320986,None,,,,,,,,,,,,,,,,,,,,,,,,,,,,,,,,,,,,,,,,,,,,001,161,2020_Feb_25_0930,spring_faces,3.1.5,60.31410051562133,
condition files/Stage1_1.xlsx,,T1,B1,c,"['c', 'm']","['Clue', 'Monopoly']","[-0.15, 0.5]","[0.15, 0.5]",1,1,,,,,,,,,0,8,8,8,0,4,4,0,,,,,,,,,,,,,,,,,,,,,,,,,,,,,,,,,,,,,,,,,,,,,,,,,,,,,,,2872.1922519190002,None,2872.1922519190002,None,2872.1922519190002,None,m,0,0.9313355070003126,2873.7257274989997,None,2873.7257274989997,None,2873.7257274989997,None,2874.709982695,None,2874.709982695,None,2874.709982695,None,2874.709982695,None,,,,,,,,,,,,,,,,,,,,,,,,,,,,,,,,,,,,,,,,,,,,001,161,2020_Feb_25_0930,spring_faces,3.1.5,60.31410051562133,
condition files/Stage1_1.xlsx,,B1,T2,c,"['c', 'm']","['Clue', 'Monopoly']","[-0.15, 0.5]","[0.15, 0.5]",1,1,,,,,,,,,0,8,8,8,0,5,5,1,,,,,,,,,,,,,,,,,,,,,,,,,,,,,,,,,,,,,,,,,,,,,,,,,,,,,,,2876.675758063,None,2876.675758063,None,2876.675758063,None,c,1,1.27923138999995,2878.209977626,None,2878.209977626,None,2878.209977626,None,2879.5421661889995,None,2879.5421661889995,None,2879.5421661889995,None,2879.5421661889995,None,,,,,,,,,,,,,,,,,,,,,,,,,,,,,,,,,,,,,,,,,,,,001,161,2020_Feb_25_0930,spring_faces,3.1.5,60.31410051562133,
condition files/Stage1_1.xlsx,,B3,T3,c,"['c', 'm']","['Clue', 'Monopoly']","[-0.15, 0.5]","[0.15, 0.5]",1,1,,,,,,,,,0,8,8,8,0,6,6,4,,,,,,,,,,,,,,,,,,,,,,,,,,,,,,,,,,,,,,,,,,,,,,,,,,,,,,,2881.508983207,None,2881.508983207,None,2881.508983207,None,c,1,0.7006914600001437,2883.044376389,None,2883.044376389,None,2883.044376389,None,2883.8086896160003,None,2883.8086896160003,None,2883.8086896160003,None,2883.8086896160003,None,,,,,,,,,,,,,,,,,,,,,,,,,,,,,,,,,,,,,,,,,,,,001,161,2020_Feb_25_0930,spring_faces,3.1.5,60.31410051562133,
condition files/Stage1_1.xlsx,,B2,T1,m,"['c', 'm']","['Clue', 'Monopoly']","[-0.15, 0.5]","[0.15, 0.5]",1,1,,,,,,,,,0,8,8,8,0,7,7,2,,,,,,,,,,,,,,,,,,,,,,,,,,,,,,,,,,,,,,,,,,,,,,,,,,,,,,,2885.7758649400002,None,2885.7758649400002,None,2885.7758649400002,None,m,1,1.4755577209998592,2887.3095955930003,None,2887.3095955930003,None,2887.3095955930003,None,2888.8431889539997,None,2888.8431889539997,None,2888.8431889539997,None,2888.8431889539997,None,,,,,,,,,,,,,,,,,,,,,,,,,,,,,,,,,,,,,,,,,,,,001,161,2020_Feb_25_0930,spring_faces,3.1.5,60.31410051562133,
condition files/Stage1_2.xlsx,,B4,T3,c,"['c', 'm']","['Clue', 'Monopoly']","[-0.15, 0.5]","[0.15, 0.5]",1,1,,,,,,,,,0,9,9,9,0,0,0,5,,,,,,,,,,,,,,,,,,,,,,,,,,,,,,,,,,,,,,,,,,,,,,,,,,,,,,,2890.8258335009996,None,2890.8258335009996,None,2890.8258335009996,None,m,0,0.7130979359999401,2892.359975311,None,2892.359975311,None,2892.359975311,None,2893.125480234,None,2893.125480234,None,2893.125480234,None,2893.125480234,None,,,,,,,,,,,,,,,,,,,,,,,,,,,,,,,,,,,,,,,,,,,,001,161,2020_Feb_25_0930,spring_faces,3.1.5,60.31410051562133,
condition files/Stage1_2.xlsx,,B3,T4,m,"['c', 'm']","['Clue', 'Monopoly']","[-0.15, 0.5]","[0.15, 0.5]",1,1,,,,,,,,,0,9,9,9,0,1,1,6,,,,,,,,,,,,,,,,,,,,,,,,,,,,,,,,,,,,,,,,,,,,,,,,,,,,,,,2895.0922918349997,None,2895.0922918349997,None,2895.0922918349997,None,m,1,0.5583451409997906,2896.6427752010004,None,2896.6427752010004,None,2896.6427752010004,None,2897.2612564949995,None,2897.2612564949995,None,2897.2612564949995,None,2897.2612564949995,None,,,,,,,,,,,,,,,,,,,,,,,,,,,,,,,,,,,,,,,,,,,,001,161,2020_Feb_25_0930,spring_faces,3.1.5,60.31410051562133,
condition files/Stage1_2.xlsx,,B2,T2,m,"['c', 'm']","['Clue', 'Monopoly']","[-0.15, 0.5]","[0.15, 0.5]",1,1,,,,,,,,,0,9,9,9,0,2,2,3,,,,,,,,,,,,,,,,,,,,,,,,,,,,,,,,,,,,,,,,,,,,,,,,,,,,,,,2899.225606813,None,2899.225606813,None,2899.225606813,None,m,1,0.551508745999854,2900.761569448,None,2900.761569448,None,2900.761569448,None,2901.375150131,None,2901.375150131,None,2901.375150131,None,2901.375150131,None,,,,,,,,,,,,,,,,,,,,,,,,,,,,,,,,,,,,,,,,,,,,001,161,2020_Feb_25_0930,spring_faces,3.1.5,60.31410051562133,
condition files/Stage1_2.xlsx,,T4,B4,m,"['c', 'm']","['Clue', 'Monopoly']","[-0.15, 0.5]","[0.15, 0.5]",1,1,,,,,,,,,0,9,9,9,0,3,3,7,,,,,,,,,,,,,,,,,,,,,,,,,,,,,,,,,,,,,,,,,,,,,,,,,,,,,,,2903.3422024439997,None,2903.3422024439997,None,2903.3422024439997,None,c,0,0.6296354510000128,2904.875458034,None,2904.875458034,None,2904.875458034,None,2905.5587974669997,None,2905.5587974669997,None,2905.5587974669997,None,2905.5587974669997,None,,,,,,,,,,,,,,,,,,,,,,,,,,,,,,,,,,,,,,,,,,,,001,161,2020_Feb_25_0930,spring_faces,3.1.5,60.31410051562133,
condition files/Stage1_2.xlsx,,T2,B1,c,"['c', 'm']","['Clue', 'Monopoly']","[-0.15, 0.5]","[0.15, 0.5]",1,1,,,,,,,,,0,9,9,9,0,4,4,1,,,,,,,,,,,,,,,,,,,,,,,,,,,,,,,,,,,,,,,,,,,,,,,,,,,,,,,2907.5257666219995,None,2907.5257666219995,None,2907.5257666219995,None,m,0,0.5558323679997557,2909.0612973489997,None,2909.0612973489997,None,2909.0612973489997,None,2909.675806102,None,2909.675806102,None,2909.675806102,None,2909.675806102,None,,,,,,,,,,,,,,,,,,,,,,,,,,,,,,,,,,,,,,,,,,,,001,161,2020_Feb_25_0930,spring_faces,3.1.5,60.31410051562133,
condition files/Stage1_2.xlsx,,T3,B3,c,"['c', 'm']","['Clue', 'Monopoly']","[-0.15, 0.5]","[0.15, 0.5]",1,1,,,,,,,,,0,9,9,9,0,5,5,4,,,,,,,,,,,,,,,,,,,,,,,,,,,,,,,,,,,,,,,,,,,,,,,,,,,,,,,2911.642312143,None,2911.642312143,None,2911.642312143,None,c,1,0.3454878729999109,2913.175559409,None,2913.175559409,None,2913.175559409,None,2913.5751971600002,None,2913.5751971600002,None,2913.5751971600002,None,2913.5751971600002,None,,,,,,,,,,,,,,,,,,,,,,,,,,,,,,,,,,,,,,,,,,,,001,161,2020_Feb_25_0930,spring_faces,3.1.5,60.31410051562133,
condition files/Stage1_2.xlsx,,T1,B2,m,"['c', 'm']","['Clue', 'Monopoly']","[-0.15, 0.5]","[0.15, 0.5]",1,1,,,,,,,,,0,9,9,9,0,6,6,2,,,,,,,,,,,,,,,,,,,,,,,,,,,,,,,,,,,,,,,,,,,,,,,,,,,,,,,2915.5423778880004,None,2915.5423778880004,None,2915.5423778880004,None,c,0,0.36510592300010103,2917.0759556410003,None,2917.0759556410003,None,2917.0759556410003,None,2917.4916741810002,None,2917.4916741810002,None,2917.4916741810002,None,2917.4916741810002,None,,,,,,,,,,,,,,,,,,,,,,,,,,,,,,,,,,,,,,,,,,,,001,161,2020_Feb_25_0930,spring_faces,3.1.5,60.31410051562133,
condition files/Stage1_2.xlsx,,B1,T1,c,"['c', 'm']","['Clue', 'Monopoly']","[-0.15, 0.5]","[0.15, 0.5]",1,1,,,,,,,,,0,9,9,9,0,7,7,0,,,,,,,,,,,,,,,,,,,,,,,,,,,,,,,,,,,,,,,,,,,,,,,,,,,,,,,2919.458968969,None,2919.458968969,None,2919.458968969,None,c,1,0.9273587959996803,2920.9936534030003,None,2920.9936534030003,None,2920.9936534030003,None,2921.9760135730003,None,2921.9760135730003,None,2921.9760135730003,None,2921.9760135730003,None,,,,,,,,,,,,,,,,,,,,,,,,,,,,,,,,,,,,,,,,,,,,001,161,2020_Feb_25_0930,spring_faces,3.1.5,60.31410051562133,
condition files/Stage1_1.xlsx,,T2,B2,m,"['c', 'm']","['Clue', 'Monopoly']","[-0.15, 0.5]","[0.15, 0.5]",1,1,,,,,,,,,0,10,10,10,0,0,0,3,,,,,,,,,,,,,,,,,,,,,,,,,,,,,,,,,,,,,,,,,,,,,,,,,,,,,,,2923.9591096470003,None,2923.9591096470003,None,2923.9591096470003,None,m,1,0.39683163800009424,2925.4924298670003,None,2925.4924298670003,None,2925.4924298670003,None,2925.9432354930004,None,2925.9432354930004,None,2925.9432354930004,None,2925.9432354930004,None,,,,,,,,,,,,,,,,,,,,,,,,,,,,,,,,,,,,,,,,,,,,001,161,2020_Feb_25_0930,spring_faces,3.1.5,60.31410051562133,
condition files/Stage1_1.xlsx,,B3,T3,c,"['c', 'm']","['Clue', 'Monopoly']","[-0.15, 0.5]","[0.15, 0.5]",1,1,,,,,,,,,0,10,10,10,0,1,1,4,,,,,,,,,,,,,,,,,,,,,,,,,,,,,,,,,,,,,,,,,,,,,,,,,,,,,,,2927.9089955870004,None,2927.9089955870004,None,2927.9089955870004,None,c,1,0.49477867299992795,2929.4422371729997,None,2929.4422371729997,None,2929.4422371729997,None,2929.99301534,None,2929.99301534,None,2929.99301534,None,2929.99301534,None,,,,,,,,,,,,,,,,,,,,,,,,,,,,,,,,,,,,,,,,,,,,001,161,2020_Feb_25_0930,spring_faces,3.1.5,60.31410051562133,
condition files/Stage1_1.xlsx,,T4,B3,m,"['c', 'm']","['Clue', 'Monopoly']","[-0.15, 0.5]","[0.15, 0.5]",1,1,,,,,,,,,0,10,10,10,0,2,2,6,,,,,,,,,,,,,,,,,,,,,,,,,,,,,,,,,,,,,,,,,,,,,,,,,,,,,,,2931.9588950280004,None,2931.9588950280004,None,2931.9588950280004,None,m,1,0.8927332180001031,2933.4924242650004,None,2933.4924242650004,None,2933.4924242650004,None,2934.4443611750003,None,2934.4443611750003,None,2934.4443611750003,None,2934.4443611750003,None,,,,,,,,,,,,,,,,,,,,,,,,,,,,,,,,,,,,,,,,,,,,001,161,2020_Feb_25_0930,spring_faces,3.1.5,60.31410051562133,
condition files/Stage1_1.xlsx,,T1,B1,c,"['c', 'm']","['Clue', 'Monopoly']","[-0.15, 0.5]","[0.15, 0.5]",1,1,,,,,,,,,0,10,10,10,0,3,3,0,,,,,,,,,,,,,,,,,,,,,,,,,,,,,,,,,,,,,,,,,,,,,,,,,,,,,,,2936.4091905269997,None,2936.4091905269997,None,2936.4091905269997,None,m,0,0.9689455729999281,2937.9441222739997,None,2937.9441222739997,None,2937.9441222739997,None,2938.992555713,None,2938.992555713,None,2938.992555713,None,2938.992555713,None,,,,,,,,,,,,,,,,,,,,,,,,,,,,,,,,,,,,,,,,,,,,001,161,2020_Feb_25_0930,spring_faces,3.1.5,60.31410051562133,
condition files/Stage1_1.xlsx,,B1,T2,c,"['c', 'm']","['Clue', 'Monopoly']","[-0.15, 0.5]","[0.15, 0.5]",1,1,,,,,,,,,0,10,10,10,0,4,4,1,,,,,,,,,,,,,,,,,,,,,,,,,,,,,,,,,,,,,,,,,,,,,,,,,,,,,,,2940.9423981399996,None,2940.9423981399996,None,2940.9423981399996,None,c,1,1.1899563100000705,2942.475159928,None,2942.475159928,None,2942.475159928,None,2943.725212718,None,2943.725212718,None,2943.725212718,None,2943.725212718,None,,,,,,,,,,,,,,,,,,,,,,,,,,,,,,,,,,,,,,,,,,,,001,161,2020_Feb_25_0930,spring_faces,3.1.5,60.31410051562133,
condition files/Stage1_1.xlsx,,B4,T4,m,"['c', 'm']","['Clue', 'Monopoly']","[-0.15, 0.5]","[0.15, 0.5]",1,1,,,,,,,,,0,10,10,10,0,5,5,7,,,,,,,,,,,,,,,,,,,,,,,,,,,,,,,,,,,,,,,,,,,,,,,,,,,,,,,2945.692075219,None,2945.692075219,None,2945.692075219,None,c,0,1.35112223599981,2947.241890698,None,2947.241890698,None,2947.241890698,None,2948.662020164,None,2948.662020164,None,2948.662020164,None,2948.662020164,None,,,,,,,,,,,,,,,,,,,,,,,,,,,,,,,,,,,,,,,,,,,,001,161,2020_Feb_25_0930,spring_faces,3.1.5,60.31410051562133,
condition files/Stage1_1.xlsx,,T3,B4,c,"['c', 'm']","['Clue', 'Monopoly']","[-0.15, 0.5]","[0.15, 0.5]",1,1,,,,,,,,,0,10,10,10,0,6,6,5,,,,,,,,,,,,,,,,,,,,,,,,,,,,,,,,,,,,,,,,,,,,,,,,,,,,,,,2950.625769702,None,2950.625769702,None,2950.625769702,None,m,0,1.8089182319999964,2952.1602145610004,None,2952.1602145610004,None,2952.1602145610004,None,2954.0252220889997,None,2954.0252220889997,None,2954.0252220889997,None,2954.0252220889997,None,,,,,,,,,,,,,,,,,,,,,,,,,,,,,,,,,,,,,,,,,,,,001,161,2020_Feb_25_0930,spring_faces,3.1.5,60.31410051562133,
condition files/Stage1_1.xlsx,,B2,T1,m,"['c', 'm']","['Clue', 'Monopoly']","[-0.15, 0.5]","[0.15, 0.5]",1,1,,,,,,,,,0,10,10,10,0,7,7,2,,,,,,,,,,,,,,,,,,,,,,,,,,,,,,,,,,,,,,,,,,,,,,,,,,,,,,,2955.9923220520004,None,2955.9923220520004,None,2955.9923220520004,None,m,1,1.2742431470001065,2957.526893729,None,2957.526893729,None,2957.526893729,None,2958.858611763,None,2958.858611763,None,2958.858611763,None,2958.858611763,None,,,,,,,,,,,,,,,,,,,,,,,,,,,,,,,,,,,,,,,,,,,,001,161,2020_Feb_25_0930,spring_faces,3.1.5,60.31410051562133,
condition files/Stage1_2.xlsx,,B2,T2,m,"['c', 'm']","['Clue', 'Monopoly']","[-0.15, 0.5]","[0.15, 0.5]",1,1,,,,,,,,,0,11,11,11,0,0,0,3,,,,,,,,,,,,,,,,,,,,,,,,,,,,,,,,,,,,,,,,,,,,,,,,,,,,,,,2960.8424470339996,None,2960.8424470339996,None,2960.8424470339996,None,m,1,1.0149662040003022,2962.37807128,None,2962.37807128,None,2962.37807128,None,2963.458719958,None,2963.458719958,None,2963.458719958,None,2963.458719958,None,,,,,,,,,,,,,,,,,,,,,,,,,,,,,,,,,,,,,,,,,,,,001,161,2020_Feb_25_0930,spring_faces,3.1.5,60.31410051562133,
condition files/Stage1_2.xlsx,,T4,B4,m,"['c', 'm']","['Clue', 'Monopoly']","[-0.15, 0.5]","[0.15, 0.5]",1,1,,,,,,,,,0,11,11,11,0,1,1,7,,,,,,,,,,,,,,,,,,,,,,,,,,,,,,,,,,,,,,,,,,,,,,,,,,,,,,,2965.4255054200003,None,2965.4255054200003,None,2965.4255054200003,None,c,0,0.6417757119997987,2966.959370668,None,2966.959370668,None,2966.959370668,None,2967.6596880360003,None,2967.6596880360003,None,2967.6596880360003,None,2967.6596880360003,None,,,,,,,,,,,,,,,,,,,,,,,,,,,,,,,,,,,,,,,,,,,,001,161,2020_Feb_25_0930,spring_faces,3.1.5,60.31410051562133,
condition files/Stage1_2.xlsx,,B1,T1,c,"['c', 'm']","['Clue', 'Monopoly']","[-0.15, 0.5]","[0.15, 0.5]",1,1,,,,,,,,,0,11,11,11,0,2,2,0,,,,,,,,,,,,,,,,,,,,,,,,,,,,,,,,,,,,,,,,,,,,,,,,,,,,,,,2969.625689063,None,2969.625689063,None,2969.625689063,None,c,1,2.151733363000403,2971.1613422560004,None,2971.1613422560004,None,2971.1613422560004,None,2973.3922605750004,None,2973.3922605750004,None,2973.3922605750004,None,2973.3922605750004,None,,,,,,,,,,,,,,,,,,,,,,,,,,,,,,,,,,,,,,,,,,,,001,161,2020_Feb_25_0930,spring_faces,3.1.5,60.31410051562133,
condition files/Stage1_2.xlsx,,T1,B2,m,"['c', 'm']","['Clue', 'Monopoly']","[-0.15, 0.5]","[0.15, 0.5]",1,1,,,,,,,,,0,11,11,11,0,3,3,2,,,,,,,,,,,,,,,,,,,,,,,,,,,,,,,,,,,,,,,,,,,,,,,,,,,,,,,2975.342058868,None,2975.342058868,None,2975.342058868,None,m,1,1.0139501519997793,2976.875300463,None,2976.875300463,None,2976.875300463,None,2977.945278127,None,2977.945278127,None,2977.945278127,None,2977.945278127,None,,,,,,,,,,,,,,,,,,,,,,,,,,,,,,,,,,,,,,,,,,,,001,161,2020_Feb_25_0930,spring_faces,3.1.5,60.31410051562133,
condition files/Stage1_2.xlsx,,T3,B3,c,"['c', 'm']","['Clue', 'Monopoly']","[-0.15, 0.5]","[0.15, 0.5]",1,1,,,,,,,,,0,11,11,11,0,4,4,4,,,,,,,,,,,,,,,,,,,,,,,,,,,,,,,,,,,,,,,,,,,,,,,,,,,,,,,2979.9091154710004,None,2979.9091154710004,None,2979.9091154710004,None,m,0,0.9906175599999187,2981.442510135,None,2981.442510135,None,2981.442510135,None,2982.4922001779996,None,2982.4922001779996,None,2982.4922001779996,None,2982.4922001779996,None,,,,,,,,,,,,,,,,,,,,,,,,,,,,,,,,,,,,,,,,,,,,001,161,2020_Feb_25_0930,spring_faces,3.1.5,60.31410051562133,
condition files/Stage1_2.xlsx,,B4,T3,c,"['c', 'm']","['Clue', 'Monopoly']","[-0.15, 0.5]","[0.15, 0.5]",1,1,,,,,,,,,0,11,11,11,0,5,5,5,,,,,,,,,,,,,,,,,,,,,,,,,,,,,,,,,,,,,,,,,,,,,,,,,,,,,,,2984.4591192790003,None,2984.4591192790003,None,2984.4591192790003,None,c,1,1.8315389150002375,2985.99352858,None,2985.99352858,None,2985.99352858,None,2987.875479866,None,2987.875479866,None,2987.875479866,None,2987.875479866,None,,,,,,,,,,,,,,,,,,,,,,,,,,,,,,,,,,,,,,,,,,,,001,161,2020_Feb_25_0930,spring_faces,3.1.5,60.31410051562133,
condition files/Stage1_2.xlsx,,T2,B1,c,"['c', 'm']","['Clue', 'Monopoly']","[-0.15, 0.5]","[0.15, 0.5]",1,1,,,,,,,,,0,11,11,11,0,6,6,1,,,,,,,,,,,,,,,,,,,,,,,,,,,,,,,,,,,,,,,,,,,,,,,,,,,,,,,2989.8423160049997,None,2989.8423160049997,None,2989.8423160049997,None,m,0,1.2485471790000702,2991.3765070870004,None,2991.3765070870004,None,2991.3765070870004,None,2992.675831206,None,2992.675831206,None,2992.675831206,None,2992.675831206,None,,,,,,,,,,,,,,,,,,,,,,,,,,,,,,,,,,,,,,,,,,,,001,161,2020_Feb_25_0930,spring_faces,3.1.5,60.31410051562133,
condition files/Stage1_2.xlsx,,B3,T4,m,"['c', 'm']","['Clue', 'Monopoly']","[-0.15, 0.5]","[0.15, 0.5]",1,1,,,,,,,,,0,11,11,11,0,7,7,6,,,,,,,,,,,,,,,,,,,,,,,,,,,,,,,,,,,,,,,,,,,,,,,,,,,,,,,2994.642016729,None,2994.642016729,None,2994.642016729,None,m,1,0.48061485400012316,2996.192473178,None,2996.192473178,None,2996.192473178,None,2996.728224644,None,2996.728224644,None,2996.728224644,None,2996.728224644,None,,,,,,,,,,,,,,,,,,,,,,,,,,,,,,,,,,,,,,,,,,,,001,161,2020_Feb_25_0930,spring_faces,3.1.5,60.31410051562133,
,,,,,,,,,,,,,,,,,,,,,,,,,,,,,,,,,,,,,,,,,,,,,,,,,,,,,,,,,,,,,,,,,,,,,,,,,,,,,,,,,,,,,,,,,,,,,,,,,,,,,,,,,,,,,,,,2998.709179527,None,space,9.908044937999875,3003.709111917,None,,,,,,,,,,,,,,,,,,,,,,,,,,,,,,001,161,2020_Feb_25_0930,spring_faces,3.1.5,60.31410051562133,
condition files/Stage2_1.xlsx,,B4,T4,r,"['s', 'r']","['Stratego', 'Risk']","[-0.15, 0.5]","[0.15, 0.5]",1,1,,,,,,,,,,,,,,,,,0,0,0,0,0,0,0,5,,,,,,,,,,,,,,,,,,,,,,,,,,,,,,,,,,,,,,,,,,,,,,,3013.7259451829996,None,3013.7259451829996,None,3013.7259451829996,None,s,0,1.3517484960002548,3015.1933261599997,None,3015.1933261599997,None,3015.1933261599997,None,3016.609494442,None,3016.609494442,None,3016.609494442,None,3016.609494442,None,,,,,,,,,,,,,,,3003.709111917,None,,,,,,,,,,,,,,,,,,,,,,,,,,,,001,161,2020_Feb_25_0930,spring_faces,3.1.5,60.31410051562133,
condition files/Stage2_1.xlsx,,T1,B1,s,"['s', 'r']","['Stratego', 'Risk']","[-0.15, 0.5]","[0.15, 0.5]",1,1,,,,,,,,,,,,,,,,,0,0,0,0,0,1,1,2,,,,,,,,,,,,,,,,,,,,,,,,,,,,,,,,,,,,,,,,,,,,,,,3018.57561066,None,3018.57561066,None,3018.57561066,None,s,1,1.2206502619997082,3020.108421682,None,3020.108421682,None,3020.108421682,None,3021.3943706789996,None,3021.3943706789996,None,3021.3943706789996,None,3021.3943706789996,None,,,,,,,,,,,,,,,,,,,,,,,,,,,,,,,,,,,,,,,,,,,,001,161,2020_Feb_25_0930,spring_faces,3.1.5,60.31410051562133,
condition files/Stage2_1.xlsx,,T5,B5,s,"['s', 'r']","['Stratego', 'Risk']","[-0.15, 0.5]","[0.15, 0.5]",1,1,,,,,,,,,,,,,,,,,0,0,0,0,0,2,2,0,,,,,,,,,,,,,,,,,,,,,,,,,,,,,,,,,,,,,,,,,,,,,,,3023.35872045,None,3023.35872045,None,3023.35872045,None,r,0,1.1063208319997102,3024.9588265390003,None,3024.9588265390003,None,3024.9588265390003,None,3026.1258251589998,None,3026.1258251589998,None,3026.1258251589998,None,3026.1258251589998,None,,,,,,,,,,,,,,,,,,,,,,,,,,,,,,,,,,,,,,,,,,,,001,161,2020_Feb_25_0930,spring_faces,3.1.5,60.31410051562133,
condition files/Stage2_1.xlsx,,B6,T6,r,"['s', 'r']","['Stratego', 'Risk']","[-0.15, 0.5]","[0.15, 0.5]",1,1,,,,,,,,,,,,,,,,,0,0,0,0,0,3,3,1,,,,,,,,,,,,,,,,,,,,,,,,,,,,,,,,,,,,,,,,,,,,,,,3028.0922783099995,None,3028.0922783099995,None,3028.0922783099995,None,r,1,1.3505071160002444,3029.6424953570004,None,3029.6424953570004,None,3029.6424953570004,None,3031.075799309,None,3031.075799309,None,3031.075799309,None,3031.075799309,None,,,,,,,,,,,,,,,,,,,,,,,,,,,,,,,,,,,,,,,,,,,,001,161,2020_Feb_25_0930,spring_faces,3.1.5,60.31410051562133,
condition files/Stage2_1.xlsx,,T3,B3,s,"['s', 'r']","['Stratego', 'Risk']","[-0.15, 0.5]","[0.15, 0.5]",1,1,,,,,,,,,,,,,,,,,0,0,0,0,0,4,4,4,,,,,,,,,,,,,,,,,,,,,,,,,,,,,,,,,,,,,,,,,,,,,,,3033.0259180370003,None,3033.0259180370003,None,3033.0259180370003,None,s,1,0.738616439999987,3034.5584449830003,None,3034.5584449830003,None,3034.5584449830003,None,3035.360470349,None,3035.360470349,None,3035.360470349,None,3035.360470349,None,,,,,,,,,,,,,,,,,,,,,,,,,,,,,,,,,,,,,,,,,,,,001,161,2020_Feb_25_0930,spring_faces,3.1.5,60.31410051562133,
condition files/Stage2_1.xlsx,,B2,T2,r,"['s', 'r']","['Stratego', 'Risk']","[-0.15, 0.5]","[0.15, 0.5]",1,1,,,,,,,,,,,,,,,,,0,0,0,0,0,5,5,3,,,,,,,,,,,,,,,,,,,,,,,,,,,,,,,,,,,,,,,,,,,,,,,3037.3255287700003,None,3037.3255287700003,None,3037.3255287700003,None,s,0,0.918378377999943,3038.8586363389995,None,3038.8586363389995,None,3038.8586363389995,None,3039.8436410799995,None,3039.8436410799995,None,3039.8436410799995,None,3039.8436410799995,None,,,,,,,,,,,,,,,,,,,,,,,,,,,,,,,,,,,,,,,,,,,,001,161,2020_Feb_25_0930,spring_faces,3.1.5,60.31410051562133,
condition files/Stage2_2.xlsx,,B3,T3,s,"['s', 'r']","['Stratego', 'Risk']","[-0.15, 0.5]","[0.15, 0.5]",1,1,,,,,,,,,,,,,,,,,0,1,1,1,0,0,0,4,,,,,,,,,,,,,,,,,,,,,,,,,,,,,,,,,,,,,,,,,,,,,,,3041.859143881,None,3041.859143881,None,3041.859143881,None,r,0,0.6259400009998899,3043.3592210650004,None,3043.3592210650004,None,3043.3592210650004,None,3044.0426638970002,None,3044.0426638970002,None,3044.0426638970002,None,3044.0426638970002,None,,,,,,,,,,,,,,,,,,,,,,,,,,,,,,,,,,,,,,,,,,,,001,161,2020_Feb_25_0930,spring_faces,3.1.5,60.31410051562133,
condition files/Stage2_2.xlsx,,T6,B6,r,"['s', 'r']","['Stratego', 'Risk']","[-0.15, 0.5]","[0.15, 0.5]",1,1,,,,,,,,,,,,,,,,,0,1,1,1,0,1,1,1,,,,,,,,,,,,,,,,,,,,,,,,,,,,,,,,,,,,,,,,,,,,,,,3046.008878705,None,3046.008878705,None,3046.008878705,None,r,1,0.8267959840000003,3047.5422888479998,None,3047.5422888479998,None,3047.5422888479998,None,3048.4426594449997,None,3048.4426594449997,None,3048.4426594449997,None,3048.4426594449997,None,,,,,,,,,,,,,,,,,,,,,,,,,,,,,,,,,,,,,,,,,,,,001,161,2020_Feb_25_0930,spring_faces,3.1.5,60.31410051562133,
condition files/Stage2_2.xlsx,,B5,T5,s,"['s', 'r']","['Stratego', 'Risk']","[-0.15, 0.5]","[0.15, 0.5]",1,1,,,,,,,,,,,,,,,,,0,1,1,1,0,2,2,0,,,,,,,,,,,,,,,,,,,,,,,,,,,,,,,,,,,,,,,,,,,,,,,3050.392270051,None,3050.392270051,None,3050.392270051,None,s,1,0.8746062539999002,3051.9425240909995,None,3051.9425240909995,None,3051.9425240909995,None,3052.877031274,None,3052.877031274,None,3052.877031274,None,3052.877031274,None,,,,,,,,,,,,,,,,,,,,,,,,,,,,,,,,,,,,,,,,,,,,001,161,2020_Feb_25_0930,spring_faces,3.1.5,60.31410051562133,
condition files/Stage2_2.xlsx,,T2,B2,r,"['s', 'r']","['Stratego', 'Risk']","[-0.15, 0.5]","[0.15, 0.5]",1,1,,,,,,,,,,,,,,,,,0,1,1,1,0,3,3,3,,,,,,,,,,,,,,,,,,,,,,,,,,,,,,,,,,,,,,,,,,,,,,,3054.842354763,None,3054.842354763,None,3054.842354763,None,r,1,0.9533566000000064,3056.3757133689996,None,3056.3757133689996,None,3056.3757133689996,None,3057.3945171269997,None,3057.3945171269997,None,3057.3945171269997,None,3057.3945171269997,None,,,,,,,,,,,,,,,,,,,,,,,,,,,,,,,,,,,,,,,,,,,,001,161,2020_Feb_25_0930,spring_faces,3.1.5,60.31410051562133,
condition files/Stage2_2.xlsx,,B1,T1,s,"['s', 'r']","['Stratego', 'Risk']","[-0.15, 0.5]","[0.15, 0.5]",1,1,,,,,,,,,,,,,,,,,0,1,1,1,0,4,4,2,,,,,,,,,,,,,,,,,,,,,,,,,,,,,,,,,,,,,,,,,,,,,,,3059.359167984,None,3059.359167984,None,3059.359167984,None,s,1,1.442726139000115,3060.894325645,None,3060.894325645,None,3060.894325645,None,3062.394019024,None,3062.394019024,None,3062.394019024,None,3062.394019024,None,,,,,,,,,,,,,,,,,,,,,,,,,,,,,,,,,,,,,,,,,,,,001,161,2020_Feb_25_0930,spring_faces,3.1.5,60.31410051562133,
condition files/Stage2_2.xlsx,,T4,B4,r,"['s', 'r']","['Stratego', 'Risk']","[-0.15, 0.5]","[0.15, 0.5]",1,1,,,,,,,,,,,,,,,,,0,1,1,1,0,5,5,5,,,,,,,,,,,,,,,,,,,,,,,,,,,,,,,,,,,,,,,,,,,,,,,3064.3589931489996,None,3064.3589931489996,None,3064.3589931489996,None,r,1,0.6341483599999265,3065.894926422,None,3065.894926422,None,3065.894926422,None,3066.5948398210003,None,3066.5948398210003,None,3066.5948398210003,None,3066.5948398210003,None,,,,,,,,,,,,,,,,,,,,,,,,,,,,,,,,,,,,,,,,,,,,001,161,2020_Feb_25_0930,spring_faces,3.1.5,60.31410051562133,
condition files/Stage2_1.xlsx,,B4,T4,r,"['s', 'r']","['Stratego', 'Risk']","[-0.15, 0.5]","[0.15, 0.5]",1,1,,,,,,,,,,,,,,,,,0,2,2,2,0,0,0,5,,,,,,,,,,,,,,,,,,,,,,,,,,,,,,,,,,,,,,,,,,,,,,,3068.5760480239996,None,3068.5760480239996,None,3068.5760480239996,None,s,0,1.3311817760004487,3070.1258776469995,None,3070.1258776469995,None,3070.1258776469995,None,3071.5089731279995,None,3071.5089731279995,None,3071.5089731279995,None,3071.5089731279995,None,,,,,,,,,,,,,,,,,,,,,,,,,,,,,,,,,,,,,,,,,,,,001,161,2020_Feb_25_0930,spring_faces,3.1.5,60.31410051562133,
condition files/Stage2_1.xlsx,,B2,T2,r,"['s', 'r']","['Stratego', 'Risk']","[-0.15, 0.5]","[0.15, 0.5]",1,1,,,,,,,,,,,,,,,,,0,2,2,2,0,1,1,3,,,,,,,,,,,,,,,,,,,,,,,,,,,,,,,,,,,,,,,,,,,,,,,3073.475805813,None,3073.475805813,None,3073.475805813,None,s,0,0.6721937870006514,3075.0088934289997,None,3075.0088934289997,None,3075.0088934289997,None,3075.742425599,None,3075.742425599,None,3075.742425599,None,3075.742425599,None,,,,,,,,,,,,,,,,,,,,,,,,,,,,,,,,,,,,,,,,,,,,001,161,2020_Feb_25_0930,spring_faces,3.1.5,60.31410051562133,
condition files/Stage2_1.xlsx,,T5,B5,s,"['s', 'r']","['Stratego', 'Risk']","[-0.15, 0.5]","[0.15, 0.5]",1,1,,,,,,,,,,,,,,,,,0,2,2,2,0,2,2,0,,,,,,,,,,,,,,,,,,,,,,,,,,,,,,,,,,,,,,,,,,,,,,,3077.7085533439995,None,3077.7085533439995,None,3077.7085533439995,None,s,1,0.821563237999726,3079.243478126,None,3079.243478126,None,3079.243478126,None,3080.1427890649993,None,3080.1427890649993,None,3080.1427890649993,None,3080.1427890649993,None,,,,,,,,,,,,,,,,,,,,,,,,,,,,,,,,,,,,,,,,,,,,001,161,2020_Feb_25_0930,spring_faces,3.1.5,60.31410051562133,
condition files/Stage2_1.xlsx,,B6,T6,r,"['s', 'r']","['Stratego', 'Risk']","[-0.15, 0.5]","[0.15, 0.5]",1,1,,,,,,,,,,,,,,,,,0,2,2,2,0,3,3,1,,,,,,,,,,,,,,,,,,,,,,,,,,,,,,,,,,,,,,,,,,,,,,,3082.0922701599993,None,3082.0922701599993,None,3082.0922701599993,None,r,1,0.726677030999781,3083.6423977159993,None,3083.6423977159993,None,3083.6423977159993,None,3084.4423459749996,None,3084.4423459749996,None,3084.4423459749996,None,3084.4423459749996,None,,,,,,,,,,,,,,,,,,,,,,,,,,,,,,,,,,,,,,,,,,,,001,161,2020_Feb_25_0930,spring_faces,3.1.5,60.31410051562133,
condition files/Stage2_1.xlsx,,T3,B3,s,"['s', 'r']","['Stratego', 'Risk']","[-0.15, 0.5]","[0.15, 0.5]",1,1,,,,,,,,,,,,,,,,,0,2,2,2,0,4,4,4,,,,,,,,,,,,,,,,,,,,,,,,,,,,,,,,,,,,,,,,,,,,,,,3086.392300839,None,3086.392300839,None,3086.392300839,None,r,0,0.8895580819998941,3087.9275924059993,None,3087.9275924059993,None,3087.9275924059993,None,3088.8761819149995,None,3088.8761819149995,None,3088.8761819149995,None,3088.8761819149995,None,,,,,,,,,,,,,,,,,,,,,,,,,,,,,,,,,,,,,,,,,,,,001,161,2020_Feb_25_0930,spring_faces,3.1.5,60.31410051562133,
condition files/Stage2_1.xlsx,,T1,B1,s,"['s', 'r']","['Stratego', 'Risk']","[-0.15, 0.5]","[0.15, 0.5]",1,1,,,,,,,,,,,,,,,,,0,2,2,2,0,5,5,2,,,,,,,,,,,,,,,,,,,,,,,,,,,,,,,,,,,,,,,,,,,,,,,3090.8423157609996,None,3090.8423157609996,None,3090.8423157609996,None,s,1,0.6333462190004866,3092.375730549,None,3092.375730549,None,3092.375730549,None,3093.059301735,None,3093.059301735,None,3093.059301735,None,3093.059301735,None,,,,,,,,,,,,,,,,,,,,,,,,,,,,,,,,,,,,,,,,,,,,001,161,2020_Feb_25_0930,spring_faces,3.1.5,60.31410051562133,
condition files/Stage2_2.xlsx,,B1,T1,s,"['s', 'r']","['Stratego', 'Risk']","[-0.15, 0.5]","[0.15, 0.5]",1,1,,,,,,,,,,,,,,,,,0,3,3,3,0,0,0,2,,,,,,,,,,,,,,,,,,,,,,,,,,,,,,,,,,,,,,,,,,,,,,,3095.042552039,None,3095.042552039,None,3095.042552039,None,r,0,0.7368084780000572,3096.5762767099995,None,3096.5762767099995,None,3096.5762767099995,None,3097.3751893109993,None,3097.3751893109993,None,3097.3751893109993,None,3097.3751893109993,None,,,,,,,,,,,,,,,,,,,,,,,,,,,,,,,,,,,,,,,,,,,,001,161,2020_Feb_25_0930,spring_faces,3.1.5,60.31410051562133,
condition files/Stage2_2.xlsx,,T4,B4,r,"['s', 'r']","['Stratego', 'Risk']","[-0.15, 0.5]","[0.15, 0.5]",1,1,,,,,,,,,,,,,,,,,0,3,3,3,0,1,1,5,,,,,,,,,,,,,,,,,,,,,,,,,,,,,,,,,,,,,,,,,,,,,,,3099.3423330629994,None,3099.3423330629994,None,3099.3423330629994,None,s,0,1.2533410610003557,3100.875734939,None,3100.875734939,None,3100.875734939,None,3102.2089642599994,None,3102.2089642599994,None,3102.2089642599994,None,3102.2089642599994,None,,,,,,,,,,,,,,,,,,,,,,,,,,,,,,,,,,,,,,,,,,,,001,161,2020_Feb_25_0930,spring_faces,3.1.5,60.31410051562133,
condition files/Stage2_2.xlsx,,B5,T5,s,"['s', 'r']","['Stratego', 'Risk']","[-0.15, 0.5]","[0.15, 0.5]",1,1,,,,,,,,,,,,,,,,,0,3,3,3,0,2,2,0,,,,,,,,,,,,,,,,,,,,,,,,,,,,,,,,,,,,,,,,,,,,,,,3104.1587199199994,None,3104.1587199199994,None,3104.1587199199994,None,r,0,1.5243082939996384,3105.692843312,None,3105.692843312,None,3105.692843312,None,3107.277418263,None,3107.277418263,None,3107.277418263,None,3107.277418263,None,,,,,,,,,,,,,,,,,,,,,,,,,,,,,,,,,,,,,,,,,,,,001,161,2020_Feb_25_0930,spring_faces,3.1.5,60.31410051562133,
condition files/Stage2_2.xlsx,,T6,B6,r,"['s', 'r']","['Stratego', 'Risk']","[-0.15, 0.5]","[0.15, 0.5]",1,1,,,,,,,,,,,,,,,,,0,3,3,3,0,3,3,1,,,,,,,,,,,,,,,,,,,,,,,,,,,,,,,,,,,,,,,,,,,,,,,3109.2422769979994,None,3109.2422769979994,None,3109.2422769979994,None,s,0,0.4712209070003155,3110.777920865,None,3110.777920865,None,3110.777920865,None,3111.311315209,None,3111.311315209,None,3111.311315209,None,3111.311315209,None,,,,,,,,,,,,,,,,,,,,,,,,,,,,,,,,,,,,,,,,,,,,001,161,2020_Feb_25_0930,spring_faces,3.1.5,60.31410051562133,
condition files/Stage2_2.xlsx,,T2,B2,r,"['s', 'r']","['Stratego', 'Risk']","[-0.15, 0.5]","[0.15, 0.5]",1,1,,,,,,,,,,,,,,,,,0,3,3,3,0,4,4,3,,,,,,,,,,,,,,,,,,,,,,,,,,,,,,,,,,,,,,,,,,,,,,,3113.2756635719998,None,3113.2756635719998,None,3113.2756635719998,None,r,1,0.6622640390005472,3114.8108058609996,None,3114.8108058609996,None,3114.8108058609996,None,3115.5254034869995,None,3115.5254034869995,None,3115.5254034869995,None,3115.5254034869995,None,,,,,,,,,,,,,,,,,,,,,,,,,,,,,,,,,,,,,,,,,,,,001,161,2020_Feb_25_0930,spring_faces,3.1.5,60.31410051562133,
condition files/Stage2_2.xlsx,,B3,T3,s,"['s', 'r']","['Stratego', 'Risk']","[-0.15, 0.5]","[0.15, 0.5]",1,1,,,,,,,,,,,,,,,,,0,3,3,3,0,5,5,4,,,,,,,,,,,,,,,,,,,,,,,,,,,,,,,,,,,,,,,,,,,,,,,3117.4924450359995,None,3117.4924450359995,None,3117.4924450359995,None,s,1,0.6237708940006996,3119.0253603419997,None,3119.0253603419997,None,3119.0253603419997,None,3119.7094344079997,None,3119.7094344079997,None,3119.7094344079997,None,3119.7094344079997,None,,,,,,,,,,,,,,,,,,,,,,,,,,,,,,,,,,,,,,,,,,,,001,161,2020_Feb_25_0930,spring_faces,3.1.5,60.31410051562133,
condition files/Stage2_1.xlsx,,T1,B1,s,"['s', 'r']","['Stratego', 'Risk']","[-0.15, 0.5]","[0.15, 0.5]",1,1,,,,,,,,,,,,,,,,,0,4,4,4,0,0,0,2,,,,,,,,,,,,,,,,,,,,,,,,,,,,,,,,,,,,,,,,,,,,,,,3121.6924967269997,None,3121.6924967269997,None,3121.6924967269997,None,r,0,0.4719335449999562,3123.2251517329996,None,3123.2251517329996,None,3123.2251517329996,None,3123.75928441,None,3123.75928441,None,3123.75928441,None,3123.75928441,None,,,,,,,,,,,,,,,,,,,,,,,,,,,,,,,,,,,,,,,,,,,,001,161,2020_Feb_25_0930,spring_faces,3.1.5,60.31410051562133,
condition files/Stage2_1.xlsx,,B4,T4,r,"['s', 'r']","['Stratego', 'Risk']","[-0.15, 0.5]","[0.15, 0.5]",1,1,,,,,,,,,,,,,,,,,0,4,4,4,0,1,1,5,,,,,,,,,,,,,,,,,,,,,,,,,,,,,,,,,,,,,,,,,,,,,,,3125.725578546,None,3125.725578546,None,3125.725578546,None,s,0,0.853595215000496,3127.2594845409994,None,3127.2594845409994,None,3127.2594845409994,None,3128.192875142,None,3128.192875142,None,3128.192875142,None,3128.192875142,None,,,,,,,,,,,,,,,,,,,,,,,,,,,,,,,,,,,,,,,,,,,,001,161,2020_Feb_25_0930,spring_faces,3.1.5,60.31410051562133,
condition files/Stage2_1.xlsx,,T3,B3,s,"['s', 'r']","['Stratego', 'Risk']","[-0.15, 0.5]","[0.15, 0.5]",1,1,,,,,,,,,,,,,,,,,0,4,4,4,0,2,2,4,,,,,,,,,,,,,,,,,,,,,,,,,,,,,,,,,,,,,,,,,,,,,,,3130.142127905,None,3130.142127905,None,3130.142127905,None,r,0,1.5571319529999528,3131.6760238939996,None,3131.6760238939996,None,3131.6760238939996,None,3133.2944756589995,None,3133.2944756589995,None,3133.2944756589995,None,3133.2944756589995,None,,,,,,,,,,,,,,,,,,,,,,,,,,,,,,,,,,,,,,,,,,,,001,161,2020_Feb_25_0930,spring_faces,3.1.5,60.31410051562133,
condition files/Stage2_1.xlsx,,B6,T6,r,"['s', 'r']","['Stratego', 'Risk']","[-0.15, 0.5]","[0.15, 0.5]",1,1,,,,,,,,,,,,,,,,,0,4,4,4,0,3,3,1,,,,,,,,,,,,,,,,,,,,,,,,,,,,,,,,,,,,,,,,,,,,,,,3135.259277555,None,3135.259277555,None,3135.259277555,None,s,0,1.177315491000627,3136.79181927,None,3136.79181927,None,3136.79181927,None,3138.025992359,None,3138.025992359,None,3138.025992359,None,3138.025992359,None,,,,,,,,,,,,,,,,,,,,,,,,,,,,,,,,,,,,,,,,,,,,001,161,2020_Feb_25_0930,spring_faces,3.1.5,60.31410051562133,
condition files/Stage2_1.xlsx,,B2,T2,r,"['s', 'r']","['Stratego', 'Risk']","[-0.15, 0.5]","[0.15, 0.5]",1,1,,,,,,,,,,,,,,,,,0,4,4,4,0,4,4,3,,,,,,,,,,,,,,,,,,,,,,,,,,,,,,,,,,,,,,,,,,,,,,,3139.9921729039997,None,3139.9921729039997,None,3139.9921729039997,None,s,0,0.5074704429998746,3141.525674804,None,3141.525674804,None,3141.525674804,None,3142.092356301,None,3142.092356301,None,3142.092356301,None,3142.092356301,None,,,,,,,,,,,,,,,,,,,,,,,,,,,,,,,,,,,,,,,,,,,,001,161,2020_Feb_25_0930,spring_faces,3.1.5,60.31410051562133,
condition files/Stage2_1.xlsx,,T5,B5,s,"['s', 'r']","['Stratego', 'Risk']","[-0.15, 0.5]","[0.15, 0.5]",1,1,,,,,,,,,,,,,,,,,0,4,4,4,0,5,5,0,,,,,,,,,,,,,,,,,,,,,,,,,,,,,,,,,,,,,,,,,,,,,,,3144.058916618,None,3144.058916618,None,3144.058916618,None,r,0,0.45594612900003995,3145.609180755,None,3145.609180755,None,3145.609180755,None,3146.14195415,None,3146.14195415,None,3146.14195415,None,3146.14195415,None,,,,,,,,,,,,,,,,,,,,,,,,,,,,,,,,,,,,,,,,,,,,001,161,2020_Feb_25_0930,spring_faces,3.1.5,60.31410051562133,
condition files/Stage2_2.xlsx,,B3,T3,s,"['s', 'r']","['Stratego', 'Risk']","[-0.15, 0.5]","[0.15, 0.5]",1,1,,,,,,,,,,,,,,,,,0,5,5,5,0,0,0,4,,,,,,,,,,,,,,,,,,,,,,,,,,,,,,,,,,,,,,,,,,,,,,,3148.1086100049997,None,3148.1086100049997,None,3148.1086100049997,None,s,1,0.5984868349996759,3149.6425722449994,None,3149.6425722449994,None,3149.6425722449994,None,3150.2926601069994,None,3150.2926601069994,None,3150.2926601069994,None,3150.2926601069994,None,,,,,,,,,,,,,,,,,,,,,,,,,,,,,,,,,,,,,,,,,,,,001,161,2020_Feb_25_0930,spring_faces,3.1.5,60.31410051562133,
