condsFile,subStage,cue1,cue2,correct,responseKeys,responseNames,cue1Position,cue2Position,cue1Opacity,cue2Opacity,stageLoop0.thisRepN,stageLoop0.thisTrialN,stageLoop0.thisN,stageLoop0.thisIndex,blockLoop0.thisRepN,blockLoop0.thisTrialN,blockLoop0.thisN,blockLoop0.thisIndex,stage1Loop.thisRepN,stage1Loop.thisTrialN,stage1Loop.thisN,stage1Loop.thisIndex,blockLoop1.thisRepN,blockLoop1.thisTrialN,blockLoop1.thisN,blockLoop1.thisIndex,stage2Loop.thisRepN,stage2Loop.thisTrialN,stage2Loop.thisN,stage2Loop.thisIndex,blockLoop2.thisRepN,blockLoop2.thisTrialN,blockLoop2.thisN,blockLoop2.thisIndex,testLoop.thisRepN,testLoop.thisTrialN,testLoop.thisN,testLoop.thisIndex,blockLoopTest.thisRepN,blockLoopTest.thisTrialN,blockLoopTest.thisN,blockLoopTest.thisIndex,cuePics,id_instr_text.started,id_instr_text.stopped,space_to_continue_2.started,space_to_continue_2.stopped,end_instructions_resp_3.keys,end_instructions_resp_3.rt,end_instructions_resp_3.started,end_instructions_resp_3.stopped,id_input_instr.started,id_input_instr.stopped,id_input_rect.started,id_input_rect.stopped,id_input_resp.keys,id_input_resp.rt,id_input_resp.started,id_input_resp.stopped,sonaID,id_input_text.started,id_input_text.stopped,final_text.started,final_text.stopped,instructions.started,instructions.stopped,end_instructions_resp.keys,end_instructions_resp.rt,end_instructions_resp.started,end_instructions_resp.stopped,space_to_continue.started,space_to_continue.stopped,instructions_stage0.started,instructions_stage0.stopped,end_instructions_resp_stage0.keys,end_instructions_resp_stage0.rt,end_instructions_resp_stage0.started,end_instructions_resp_stage0.stopped,space_to_continue_stage0.started,space_to_continue_stage0.stopped,text.started,text.stopped,resp_text1.started,resp_text1.stopped,resp_text2.started,resp_text2.stopped,trial_resp.keys,trial_resp.corr,trial_resp.rt,trial_resp.started,trial_resp.stopped,cue1Image.started,cue1Image.stopped,cue2Image.started,cue2Image.stopped,cue1Image_fb.started,cue1Image_fb.stopped,cue2Image_fb.started,cue2Image_fb.stopped,fb_text_answer.started,fb_text_answer.stopped,feedback_image.started,feedback_image.stopped,instructions_stage1.started,instructions_stage1.stopped,end_instructions_resp_stage1.keys,end_instructions_resp_stage1.rt,end_instructions_resp_stage1.started,end_instructions_resp_stage1.stopped,space_to_continue_stage1.started,space_to_continue_stage1.stopped,instructions_2.started,instructions_2.stopped,end_instructions_resp_2.keys,end_instructions_resp_2.rt,end_instructions_resp_2.started,end_instructions_resp_2.stopped,press_space_to_continue_stage2.started,press_space_to_continue_stage2.stopped,instructions_testStage1.started,instructions_testStage1.stopped,end_instructions_resp_test1.keys,end_instructions_resp_test1.rt,end_instructions_resp_test1.started,end_instructions_resp_test1.stopped,press_space_to_continue_test1.started,press_space_to_continue_test1.stopped,cue1Image_testChoice.started,cue1Image_testChoice.stopped,cue2Image_testChoice.started,cue2Image_testChoice.stopped,test_resp.keys,test_resp.corr,test_resp.rt,test_resp.started,test_resp.stopped,cue1Image_testConf.started,cue1Image_testConf.stopped,cue2Image_testConf.started,cue2Image_testConf.stopped,conf_reminder.started,conf_reminder.stopped,conf_rating.response,conf_rating.rt,conf_rating.started,conf_rating.stopped,session,participant,date,expName,psychopyVersion,frameRate,
,,,,,,,,,,,,,,,,,,,,,,,,,,,,,,,,,,,,,,,,,,,"{'none': 'pictures/20M_AN_C.png', 'alpha': 'pictures/SHINEd_pear.png', 'beta': 'pictures/SHINEd_melon.png', 'theta': 'pictures/SHINEd_pepper.png', 'phi': 'pictures/SHINEd_apple.png', 'T1': 'pictures/22M_AN_C.png', 'T2': 'pictures/37M_AN_C.png', 'T3': 'pictures/20M_AN_C.png', 'T4': 'pictures/36M_AN_C.png', 'T5': 'pictures/38M_AN_C.png', 'T6': 'pictures/23M_AN_C.png', 'B1': 'pictures/31M_NE_C.png', 'B2': 'pictures/33M_NE_C.png', 'B3': 'pictures/32M_NE_C.png', 'B4': 'pictures/26M_NE_C.png', 'B5': 'pictures/25M_NE_C.png', 'B6': 'pictures/34M_NE_C.png'}",20.319095631999517,None,25.3029148429996,None,space,6.647435322999627,25.3029148429996,None,,,,,,,,,,,,,,,,,,,,,,,,,,,,,,,,,,,,,,,,,,,,,,,,,,,,,,,,,,,,,,,,,,,,,,,,,,,,,,,,,,,,,,,,,,,,,,,,001,162,2020_Feb_25_0958,spring_faces,3.1.5,59.9541730683781,
,,,,,,,,,,,,,,,,,,,,,,,,,,,,,,,,,,,,,,,,,,,,,,,,,,,,32.3359173609997,None,32.3359173609997,None,"['0', '2', '1', '5', 'i', 'r', 'a', 'r', 'a']","[10.910426829000244, 11.6144089670006, 18.814408465999804, 19.51836186000037, 40.99040514599983, 41.34247222800059, 44.926468778000526, 45.27840710500004, 45.93438464100018]",32.3359173609997,None,,,,,,,,,,,,,,,,,,,,,,,,,,,,,,,,,,,,,,,,,,,,,,,,,,,,,,,,,,,,,,,,,,,,,,,,,,,,,,,,,,,,,,,,001,162,2020_Feb_25_0958,spring_faces,3.1.5,59.9541730683781,
,,,,,,,,,,,,,,,,,,,,,,,,,,,,,,,,,,,,,,,,,,,,,,,,,,,,,,,,,,,,0215irara,32.3359173609997,None,32.3359173609997,None,83.35310663999917,None,space,3.2931575559996418,88.35323553499984,None,,,,,,,,,,,,,,,,,,,,,,,,,,,,,,,,,,,,,,,,,,,,,,,,,,,,,,,,,,,,,,,,,,,,,,,,,,,,,001,162,2020_Feb_25_0958,spring_faces,3.1.5,59.9541730683781,
,,,,,,,,,,,,,,,,,,,,,,,,,,,,,,,,,,,,,,,,,,,,,,,,,,,,,,,,,,,,,,,,,,,,,,,88.35323553499984,None,91.68611177499952,None,space,9.440174839000065,96.6862539599997,None,,,,,,,,,,,,,,,,,,,,,,,,,,,,,,,,,,,,,,,,,,,,,,,,,,,,,,,,,,,,,,,,,,,,,001,162,2020_Feb_25_0958,spring_faces,3.1.5,59.9541730683781,
condition files/Stage0a.xlsx,0a,beta,none,g,"['h', 'g']","['Chess', 'Go']","[0, 0.5]","[0, 0]",1,0,0,0,0,0,0,0,0,1,,,,,,,,,,,,,,,,,,,,,,,,,,,,,,,,,,,,,,,,,,,,,,,,,,,,,,,,,,,,,96.6862539599997,None,106.1862512509997,None,106.1862512509997,None,106.1862512509997,None,h,0,4.5325683999999455,107.76976748799916,None,107.76976748799916,None,107.76976748799916,None,112.36966614199991,None,112.36966614199991,None,112.36966614199991,None,112.36966614199991,None,,,,,,,,,,,,,,,,,,,,,,,,,,,,,,,,,,,,,,,,,,,,001,162,2020_Feb_25_0958,spring_faces,3.1.5,59.9541730683781,
condition files/Stage0a.xlsx,0a,alpha,none,h,"['h', 'g']","['Chess', 'Go']","[0, 0.5]","[0, 0]",1,0,0,0,0,0,0,1,1,0,,,,,,,,,,,,,,,,,,,,,,,,,,,,,,,,,,,,,,,,,,,,,,,,,,,,,,,,,,,,,,,114.31955101999938,None,114.31955101999938,None,114.31955101999938,None,h,1,2.2560265940001045,115.85438193199934,None,115.85438193199934,None,115.85438193199934,None,118.16933032999987,None,118.16933032999987,None,118.16933032999987,None,118.16933032999987,None,,,,,,,,,,,,,,,,,,,,,,,,,,,,,,,,,,,,,,,,,,,,001,162,2020_Feb_25_0958,spring_faces,3.1.5,59.9541730683781,
condition files/Stage0a.xlsx,0a,beta,none,g,"['h', 'g']","['Chess', 'Go']","[0, 0.5]","[0, 0]",1,0,0,1,1,1,0,0,0,1,,,,,,,,,,,,,,,,,,,,,,,,,,,,,,,,,,,,,,,,,,,,,,,,,,,,,,,,,,,,,,,120.15313129999959,None,120.15313129999959,None,120.15313129999959,None,g,1,1.4002784780004731,121.68605893599943,None,121.68605893599943,None,121.68605893599943,None,123.13661898099963,None,123.13661898099963,None,123.13661898099963,None,123.13661898099963,None,,,,,,,,,,,,,,,,,,,,,,,,,,,,,,,,,,,,,,,,,,,,001,162,2020_Feb_25_0958,spring_faces,3.1.5,59.9541730683781,
condition files/Stage0a.xlsx,0a,alpha,none,h,"['h', 'g']","['Chess', 'Go']","[0, 0.5]","[0, 0]",1,0,0,1,1,1,0,1,1,0,,,,,,,,,,,,,,,,,,,,,,,,,,,,,,,,,,,,,,,,,,,,,,,,,,,,,,,,,,,,,,,125.10288156499973,None,125.10288156499973,None,125.10288156499973,None,h,1,1.1536707899995235,126.63665470499927,None,126.63665470499927,None,126.63665470499927,None,127.85314503599966,None,127.85314503599966,None,127.85314503599966,None,127.85314503599966,None,,,,,,,,,,,,,,,,,,,,,,,,,,,,,,,,,,,,,,,,,,,,001,162,2020_Feb_25_0958,spring_faces,3.1.5,59.9541730683781,
condition files/Stage0a.xlsx,0a,beta,none,g,"['h', 'g']","['Chess', 'Go']","[0, 0.5]","[0, 0]",1,0,0,2,2,2,0,0,0,1,,,,,,,,,,,,,,,,,,,,,,,,,,,,,,,,,,,,,,,,,,,,,,,,,,,,,,,,,,,,,,,129.83625101399957,None,129.83625101399957,None,129.83625101399957,None,g,1,0.7564996849996533,131.36991806199967,None,131.36991806199967,None,131.36991806199967,None,132.18594215199937,None,132.18594215199937,None,132.18594215199937,None,132.18594215199937,None,,,,,,,,,,,,,,,,,,,,,,,,,,,,,,,,,,,,,,,,,,,,001,162,2020_Feb_25_0958,spring_faces,3.1.5,59.9541730683781,
condition files/Stage0a.xlsx,0a,alpha,none,h,"['h', 'g']","['Chess', 'Go']","[0, 0.5]","[0, 0]",1,0,0,2,2,2,0,1,1,0,,,,,,,,,,,,,,,,,,,,,,,,,,,,,,,,,,,,,,,,,,,,,,,,,,,,,,,,,,,,,,,134.15259010299997,None,134.15259010299997,None,134.15259010299997,None,h,1,1.2081775099995866,135.68621872599942,None,135.68621872599942,None,135.68621872599942,None,136.9532407959996,None,136.9532407959996,None,136.9532407959996,None,136.9532407959996,None,,,,,,,,,,,,,,,,,,,,,,,,,,,,,,,,,,,,,,,,,,,,001,162,2020_Feb_25_0958,spring_faces,3.1.5,59.9541730683781,
condition files/Stage0a.xlsx,0a,beta,none,g,"['h', 'g']","['Chess', 'Go']","[0, 0.5]","[0, 0]",1,0,0,3,3,3,0,0,0,1,,,,,,,,,,,,,,,,,,,,,,,,,,,,,,,,,,,,,,,,,,,,,,,,,,,,,,,,,,,,,,,138.93635653399997,None,138.93635653399997,None,138.93635653399997,None,g,1,0.7608620970004267,140.46956956299982,None,140.46956956299982,None,140.46956956299982,None,141.28633801599972,None,141.28633801599972,None,141.28633801599972,None,141.28633801599972,None,,,,,,,,,,,,,,,,,,,,,,,,,,,,,,,,,,,,,,,,,,,,001,162,2020_Feb_25_0958,spring_faces,3.1.5,59.9541730683781,
condition files/Stage0a.xlsx,0a,alpha,none,h,"['h', 'g']","['Chess', 'Go']","[0, 0.5]","[0, 0]",1,0,0,3,3,3,0,1,1,0,,,,,,,,,,,,,,,,,,,,,,,,,,,,,,,,,,,,,,,,,,,,,,,,,,,,,,,,,,,,,,,143.25285651099966,None,143.25285651099966,None,143.25285651099966,None,h,1,1.2923265009994793,144.78607818399996,None,144.78607818399996,None,144.78607818399996,None,146.13685534499928,None,146.13685534499928,None,146.13685534499928,None,146.13685534499928,None,,,,,,,,,,,,,,,,,,,,,,,,,,,,,,,,,,,,,,,,,,,,001,162,2020_Feb_25_0958,spring_faces,3.1.5,59.9541730683781,
condition files/Stage0a.xlsx,0a,beta,none,g,"['h', 'g']","['Chess', 'Go']","[0, 0.5]","[0, 0]",1,0,0,4,4,4,0,0,0,1,,,,,,,,,,,,,,,,,,,,,,,,,,,,,,,,,,,,,,,,,,,,,,,,,,,,,,,,,,,,,,,148.11956892199942,None,148.11956892199942,None,148.11956892199942,None,g,1,0.7133296960000735,149.65317625199987,None,149.65317625199987,None,149.65317625199987,None,150.41981318499984,None,150.41981318499984,None,150.41981318499984,None,150.41981318499984,None,,,,,,,,,,,,,,,,,,,,,,,,,,,,,,,,,,,,,,,,,,,,001,162,2020_Feb_25_0958,spring_faces,3.1.5,59.9541730683781,
condition files/Stage0a.xlsx,0a,alpha,none,h,"['h', 'g']","['Chess', 'Go']","[0, 0.5]","[0, 0]",1,0,0,4,4,4,0,1,1,0,,,,,,,,,,,,,,,,,,,,,,,,,,,,,,,,,,,,,,,,,,,,,,,,,,,,,,,,,,,,,,,152.3860718269998,None,152.3860718269998,None,152.3860718269998,None,h,1,0.6705166680003458,153.9198210349996,None,153.9198210349996,None,153.9198210349996,None,154.6526389869996,None,154.6526389869996,None,154.6526389869996,None,154.6526389869996,None,,,,,,,,,,,,,,,,,,,,,,,,,,,,,,,,,,,,,,,,,,,,001,162,2020_Feb_25_0958,spring_faces,3.1.5,59.9541730683781,
condition files/Stage0a.xlsx,0a,alpha,none,h,"['h', 'g']","['Chess', 'Go']","[0, 0.5]","[0, 0]",1,0,0,5,5,5,0,0,0,0,,,,,,,,,,,,,,,,,,,,,,,,,,,,,,,,,,,,,,,,,,,,,,,,,,,,,,,,,,,,,,,156.63598629699936,None,156.63598629699936,None,156.63598629699936,None,g,0,0.7409743859998343,158.16943794599956,None,158.16943794599956,None,158.16943794599956,None,158.96989696399942,None,158.96989696399942,None,158.96989696399942,None,158.96989696399942,None,,,,,,,,,,,,,,,,,,,,,,,,,,,,,,,,,,,,,,,,,,,,001,162,2020_Feb_25_0958,spring_faces,3.1.5,59.9541730683781,
condition files/Stage0a.xlsx,0a,beta,none,g,"['h', 'g']","['Chess', 'Go']","[0, 0.5]","[0, 0]",1,0,0,5,5,5,0,1,1,1,,,,,,,,,,,,,,,,,,,,,,,,,,,,,,,,,,,,,,,,,,,,,,,,,,,,,,,,,,,,,,,160.93597602299997,None,160.93597602299997,None,160.93597602299997,None,g,1,1.4491562889998022,162.46917357099937,None,162.46917357099937,None,162.46917357099937,None,163.97020341799998,None,163.97020341799998,None,163.97020341799998,None,163.97020341799998,None,,,,,,,,,,,,,,,,,,,,,,,,,,,,,,,,,,,,,,,,,,,,001,162,2020_Feb_25_0958,spring_faces,3.1.5,59.9541730683781,
condition files/Stage0b_1.xlsx,0b,none,beta,g,"['h', 'g']","['Chess', 'Go']","[-0.15, 0.5]","[0.15, 0.5]",0,1,0,6,6,6,0,0,0,1,,,,,,,,,,,,,,,,,,,,,,,,,,,,,,,,,,,,,,,,,,,,,,,,,,,,,,,,,,,,,,,165.95293677899917,None,165.95293677899917,None,165.95293677899917,None,g,1,1.6473239659999308,167.50301422399934,None,167.50301422399934,None,167.50301422399934,None,169.20372845399925,None,169.20372845399925,None,169.20372845399925,None,169.20372845399925,None,,,,,,,,,,,,,,,,,,,,,,,,,,,,,,,,,,,,,,,,,,,,001,162,2020_Feb_25_0958,spring_faces,3.1.5,59.9541730683781,
condition files/Stage0b_1.xlsx,0b,alpha,none,h,"['h', 'g']","['Chess', 'Go']","[-0.15, 0.5]","[0.15, 0.5]",1,0,0,6,6,6,0,1,1,0,,,,,,,,,,,,,,,,,,,,,,,,,,,,,,,,,,,,,,,,,,,,,,,,,,,,,,,,,,,,,,,171.16960917599954,None,171.16960917599954,None,171.16960917599954,None,h,1,0.6038268969996352,172.7065623869994,None,172.7065623869994,None,172.7065623869994,None,173.37120792599944,None,173.37120792599944,None,173.37120792599944,None,173.37120792599944,None,,,,,,,,,,,,,,,,,,,,,,,,,,,,,,,,,,,,,,,,,,,,001,162,2020_Feb_25_0958,spring_faces,3.1.5,59.9541730683781,
condition files/Stage0b_2.xlsx,0b,beta,none,g,"['h', 'g']","['Chess', 'Go']","[-0.15, 0.5]","[0.15, 0.5]",1,0,0,7,7,7,0,0,0,1,,,,,,,,,,,,,,,,,,,,,,,,,,,,,,,,,,,,,,,,,,,,,,,,,,,,,,,,,,,,,,,175.3529358449996,None,175.3529358449996,None,175.3529358449996,None,g,1,0.5680718170006003,176.88623350299986,None,176.88623350299986,None,176.88623350299986,None,177.51934409799924,None,177.51934409799924,None,177.51934409799924,None,177.51934409799924,None,,,,,,,,,,,,,,,,,,,,,,,,,,,,,,,,,,,,,,,,,,,,001,162,2020_Feb_25_0958,spring_faces,3.1.5,59.9541730683781,
condition files/Stage0b_2.xlsx,0b,none,alpha,h,"['h', 'g']","['Chess', 'Go']","[-0.15, 0.5]","[0.15, 0.5]",0,1,0,7,7,7,0,1,1,0,,,,,,,,,,,,,,,,,,,,,,,,,,,,,,,,,,,,,,,,,,,,,,,,,,,,,,,,,,,,,,,179.48600515099952,None,179.48600515099952,None,179.48600515099952,None,h,1,0.6537374979998276,181.02466515199922,None,181.02466515199922,None,181.02466515199922,None,181.75298214699978,None,181.75298214699978,None,181.75298214699978,None,181.75298214699978,None,,,,,,,,,,,,,,,,,,,,,,,,,,,,,,,,,,,,,,,,,,,,001,162,2020_Feb_25_0958,spring_faces,3.1.5,59.9541730683781,
condition files/Stage0b_1.xlsx,0b,alpha,none,h,"['h', 'g']","['Chess', 'Go']","[-0.15, 0.5]","[0.15, 0.5]",1,0,0,8,8,8,0,0,0,0,,,,,,,,,,,,,,,,,,,,,,,,,,,,,,,,,,,,,,,,,,,,,,,,,,,,,,,,,,,,,,,183.72026869399997,None,183.72026869399997,None,183.72026869399997,None,h,1,0.9998708809998789,185.25447440699918,None,185.25447440699918,None,185.25447440699918,None,186.31957643899932,None,186.31957643899932,None,186.31957643899932,None,186.31957643899932,None,,,,,,,,,,,,,,,,,,,,,,,,,,,,,,,,,,,,,,,,,,,,001,162,2020_Feb_25_0958,spring_faces,3.1.5,59.9541730683781,
condition files/Stage0b_1.xlsx,0b,none,beta,g,"['h', 'g']","['Chess', 'Go']","[-0.15, 0.5]","[0.15, 0.5]",0,1,0,8,8,8,0,1,1,1,,,,,,,,,,,,,,,,,,,,,,,,,,,,,,,,,,,,,,,,,,,,,,,,,,,,,,,,,,,,,,,188.28615070899923,None,188.28615070899923,None,188.28615070899923,None,g,1,0.6243362130007881,189.82203056199978,None,189.82203056199978,None,189.82203056199978,None,190.5083483999997,None,190.5083483999997,None,190.5083483999997,None,190.5083483999997,None,,,,,,,,,,,,,,,,,,,,,,,,,,,,,,,,,,,,,,,,,,,,001,162,2020_Feb_25_0958,spring_faces,3.1.5,59.9541730683781,
condition files/Stage0b_2.xlsx,0b,beta,none,g,"['h', 'g']","['Chess', 'Go']","[-0.15, 0.5]","[0.15, 0.5]",1,0,0,9,9,9,0,0,0,1,,,,,,,,,,,,,,,,,,,,,,,,,,,,,,,,,,,,,,,,,,,,,,,,,,,,,,,,,,,,,,,192.4860226309993,None,192.4860226309993,None,192.4860226309993,None,g,1,0.8223862199993164,194.02396433299964,None,194.02396433299964,None,194.02396433299964,None,194.90278534999925,None,194.90278534999925,None,194.90278534999925,None,194.90278534999925,None,,,,,,,,,,,,,,,,,,,,,,,,,,,,,,,,,,,,,,,,,,,,001,162,2020_Feb_25_0958,spring_faces,3.1.5,59.9541730683781,
condition files/Stage0b_2.xlsx,0b,none,alpha,h,"['h', 'g']","['Chess', 'Go']","[-0.15, 0.5]","[0.15, 0.5]",0,1,0,9,9,9,0,1,1,0,,,,,,,,,,,,,,,,,,,,,,,,,,,,,,,,,,,,,,,,,,,,,,,,,,,,,,,,,,,,,,,196.86929760899966,None,196.86929760899966,None,196.86929760899966,None,h,1,0.6141415110005255,198.40819474,None,198.40819474,None,198.40819474,None,199.08845279199977,None,199.08845279199977,None,199.08845279199977,None,199.08845279199977,None,,,,,,,,,,,,,,,,,,,,,,,,,,,,,,,,,,,,,,,,,,,,001,162,2020_Feb_25_0958,spring_faces,3.1.5,59.9541730683781,
condition files/Stage0b_1.xlsx,0b,none,beta,g,"['h', 'g']","['Chess', 'Go']","[-0.15, 0.5]","[0.15, 0.5]",0,1,0,10,10,10,0,0,0,1,,,,,,,,,,,,,,,,,,,,,,,,,,,,,,,,,,,,,,,,,,,,,,,,,,,,,,,,,,,,,,,201.0695885519999,None,201.0695885519999,None,201.0695885519999,None,g,1,0.5782592609994026,202.6041142569993,None,202.6041142569993,None,202.6041142569993,None,203.23592155699953,None,203.23592155699953,None,203.23592155699953,None,203.23592155699953,None,,,,,,,,,,,,,,,,,,,,,,,,,,,,,,,,,,,,,,,,,,,,001,162,2020_Feb_25_0958,spring_faces,3.1.5,59.9541730683781,
condition files/Stage0b_1.xlsx,0b,alpha,none,h,"['h', 'g']","['Chess', 'Go']","[-0.15, 0.5]","[0.15, 0.5]",1,0,0,10,10,10,0,1,1,0,,,,,,,,,,,,,,,,,,,,,,,,,,,,,,,,,,,,,,,,,,,,,,,,,,,,,,,,,,,,,,,205.20274184499976,None,205.20274184499976,None,205.20274184499976,None,h,1,0.7462557409999135,206.7400934089992,None,206.7400934089992,None,206.7400934089992,None,207.54149515899917,None,207.54149515899917,None,207.54149515899917,None,207.54149515899917,None,,,,,,,,,,,,,,,,,,,,,,,,,,,,,,,,,,,,,,,,,,,,001,162,2020_Feb_25_0958,spring_faces,3.1.5,59.9541730683781,
condition files/Stage0b_2.xlsx,0b,beta,none,g,"['h', 'g']","['Chess', 'Go']","[-0.15, 0.5]","[0.15, 0.5]",1,0,0,11,11,11,0,0,0,1,,,,,,,,,,,,,,,,,,,,,,,,,,,,,,,,,,,,,,,,,,,,,,,,,,,,,,,,,,,,,,,209.51985764399979,None,209.51985764399979,None,209.51985764399979,None,g,1,0.5773493220003729,211.05307358199934,None,211.05307358199934,None,211.05307358199934,None,211.6861175189997,None,211.6861175189997,None,211.6861175189997,None,211.6861175189997,None,,,,,,,,,,,,,,,,,,,,,,,,,,,,,,,,,,,,,,,,,,,,001,162,2020_Feb_25_0958,spring_faces,3.1.5,59.9541730683781,
condition files/Stage0b_2.xlsx,0b,none,alpha,h,"['h', 'g']","['Chess', 'Go']","[-0.15, 0.5]","[0.15, 0.5]",0,1,0,11,11,11,0,1,1,0,,,,,,,,,,,,,,,,,,,,,,,,,,,,,,,,,,,,,,,,,,,,,,,,,,,,,,,,,,,,,,,213.6521755549993,None,213.6521755549993,None,213.6521755549993,None,h,1,0.7791453590007222,215.20315500799916,None,215.20315500799916,None,215.20315500799916,None,216.0524251709994,None,216.0524251709994,None,216.0524251709994,None,216.0524251709994,None,,,,,,,,,,,,,,,,,,,,,,,,,,,,,,,,,,,,,,,,,,,,001,162,2020_Feb_25_0958,spring_faces,3.1.5,59.9541730683781,
condition files/Stage0c_1.xlsx,0c,alpha,phi,h,"['h', 'g']","['Chess', 'Go']","[-0.15, 0.5]","[0.15, 0.5]",1,1,0,12,12,12,0,0,0,1,,,,,,,,,,,,,,,,,,,,,,,,,,,,,,,,,,,,,,,,,,,,,,,,,,,,,,,,,,,,,,,218.02011977599977,None,218.02011977599977,None,218.02011977599977,None,h,1,2.1253317910004625,219.55308328299998,None,219.55308328299998,None,219.55308328299998,None,221.73650526499932,None,221.73650526499932,None,221.73650526499932,None,221.73650526499932,None,,,,,,,,,,,,,,,,,,,,,,,,,,,,,,,,,,,,,,,,,,,,001,162,2020_Feb_25_0958,spring_faces,3.1.5,59.9541730683781,
condition files/Stage0c_1.xlsx,0c,phi,beta,g,"['h', 'g']","['Chess', 'Go']","[-0.15, 0.5]","[0.15, 0.5]",1,1,0,12,12,12,0,1,1,3,,,,,,,,,,,,,,,,,,,,,,,,,,,,,,,,,,,,,,,,,,,,,,,,,,,,,,,,,,,,,,,223.7028847699994,None,223.7028847699994,None,223.7028847699994,None,g,1,0.9537150169999222,225.23662852799953,None,225.23662852799953,None,225.23662852799953,None,226.25286878899988,None,226.25286878899988,None,226.25286878899988,None,226.25286878899988,None,,,,,,,,,,,,,,,,,,,,,,,,,,,,,,,,,,,,,,,,,,,,001,162,2020_Feb_25_0958,spring_faces,3.1.5,59.9541730683781,
condition files/Stage0c_1.xlsx,0c,beta,theta,g,"['h', 'g']","['Chess', 'Go']","[-0.15, 0.5]","[0.15, 0.5]",1,1,0,12,12,12,0,2,2,2,,,,,,,,,,,,,,,,,,,,,,,,,,,,,,,,,,,,,,,,,,,,,,,,,,,,,,,,,,,,,,,228.21958590199938,None,228.21958590199938,None,228.21958590199938,None,g,1,1.9410976709996248,229.75330431899965,None,229.75330431899965,None,229.75330431899965,None,231.75325053899996,None,231.75325053899996,None,231.75325053899996,None,231.75325053899996,None,,,,,,,,,,,,,,,,,,,,,,,,,,,,,,,,,,,,,,,,,,,,001,162,2020_Feb_25_0958,spring_faces,3.1.5,59.9541730683781,
condition files/Stage0c_1.xlsx,0c,theta,alpha,h,"['h', 'g']","['Chess', 'Go']","[-0.15, 0.5]","[0.15, 0.5]",1,1,0,12,12,12,0,3,3,0,,,,,,,,,,,,,,,,,,,,,,,,,,,,,,,,,,,,,,,,,,,,,,,,,,,,,,,,,,,,,,,233.71969851999984,None,233.71969851999984,None,233.71969851999984,None,h,1,1.017911339999955,235.25239983399933,None,235.25239983399933,None,235.25239983399933,None,236.33578824599954,None,236.33578824599954,None,236.33578824599954,None,236.33578824599954,None,,,,,,,,,,,,,,,,,,,,,,,,,,,,,,,,,,,,,,,,,,,,001,162,2020_Feb_25_0958,spring_faces,3.1.5,59.9541730683781,
condition files/Stage0c_2.xlsx,0c,alpha,theta,h,"['h', 'g']","['Chess', 'Go']","[-0.15, 0.5]","[0.15, 0.5]",1,1,0,13,13,13,0,0,0,0,,,,,,,,,,,,,,,,,,,,,,,,,,,,,,,,,,,,,,,,,,,,,,,,,,,,,,,,,,,,,,,238.31943429499916,None,238.31943429499916,None,238.31943429499916,None,h,1,1.0092619589995593,239.85316625499945,None,239.85316625499945,None,239.85316625499945,None,240.9039379269998,None,240.9039379269998,None,240.9039379269998,None,240.9039379269998,None,,,,,,,,,,,,,,,,,,,,,,,,,,,,,,,,,,,,,,,,,,,,001,162,2020_Feb_25_0958,spring_faces,3.1.5,59.9541730683781,
condition files/Stage0c_2.xlsx,0c,phi,alpha,h,"['h', 'g']","['Chess', 'Go']","[-0.15, 0.5]","[0.15, 0.5]",1,1,0,13,13,13,0,1,1,1,,,,,,,,,,,,,,,,,,,,,,,,,,,,,,,,,,,,,,,,,,,,,,,,,,,,,,,,,,,,,,,242.88620040899968,None,242.88620040899968,None,242.88620040899968,None,h,1,0.9224751809997542,244.41987545699976,None,244.41987545699976,None,244.41987545699976,None,245.38661701399997,None,245.38661701399997,None,245.38661701399997,None,245.38661701399997,None,,,,,,,,,,,,,,,,,,,,,,,,,,,,,,,,,,,,,,,,,,,,001,162,2020_Feb_25_0958,spring_faces,3.1.5,59.9541730683781,
condition files/Stage0c_2.xlsx,0c,beta,phi,g,"['h', 'g']","['Chess', 'Go']","[-0.15, 0.5]","[0.15, 0.5]",1,1,0,13,13,13,0,2,2,3,,,,,,,,,,,,,,,,,,,,,,,,,,,,,,,,,,,,,,,,,,,,,,,,,,,,,,,,,,,,,,,247.3696001239996,None,247.3696001239996,None,247.3696001239996,None,g,1,1.159728102000372,248.9026597709999,None,248.9026597709999,None,248.9026597709999,None,250.1193115799997,None,250.1193115799997,None,250.1193115799997,None,250.1193115799997,None,,,,,,,,,,,,,,,,,,,,,,,,,,,,,,,,,,,,,,,,,,,,001,162,2020_Feb_25_0958,spring_faces,3.1.5,59.9541730683781,
condition files/Stage0c_2.xlsx,0c,theta,beta,g,"['h', 'g']","['Chess', 'Go']","[-0.15, 0.5]","[0.15, 0.5]",1,1,0,13,13,13,0,3,3,2,,,,,,,,,,,,,,,,,,,,,,,,,,,,,,,,,,,,,,,,,,,,,,,,,,,,,,,,,,,,,,,252.08628657399913,None,252.08628657399913,None,252.08628657399913,None,g,1,0.9704060100002607,253.61988072499935,None,253.61988072499935,None,253.61988072499935,None,254.63608313299937,None,254.63608313299937,None,254.63608313299937,None,254.63608313299937,None,,,,,,,,,,,,,,,,,,,,,,,,,,,,,,,,,,,,,,,,,,,,001,162,2020_Feb_25_0958,spring_faces,3.1.5,59.9541730683781,
condition files/Stage0c_1.xlsx,0c,beta,theta,g,"['h', 'g']","['Chess', 'Go']","[-0.15, 0.5]","[0.15, 0.5]",1,1,0,14,14,14,0,0,0,2,,,,,,,,,,,,,,,,,,,,,,,,,,,,,,,,,,,,,,,,,,,,,,,,,,,,,,,,,,,,,,,256.6361608919997,None,256.6361608919997,None,256.6361608919997,None,g,1,1.0928994770001736,258.16950926699974,None,258.16950926699974,None,258.16950926699974,None,259.30390029299997,None,259.30390029299997,None,259.30390029299997,None,259.30390029299997,None,,,,,,,,,,,,,,,,,,,,,,,,,,,,,,,,,,,,,,,,,,,,001,162,2020_Feb_25_0958,spring_faces,3.1.5,59.9541730683781,
condition files/Stage0c_1.xlsx,0c,theta,alpha,h,"['h', 'g']","['Chess', 'Go']","[-0.15, 0.5]","[0.15, 0.5]",1,1,0,14,14,14,0,1,1,0,,,,,,,,,,,,,,,,,,,,,,,,,,,,,,,,,,,,,,,,,,,,,,,,,,,,,,,,,,,,,,,261.2862003679993,None,261.2862003679993,None,261.2862003679993,None,h,1,0.7305145720001747,262.8198155379996,None,262.8198155379996,None,262.8198155379996,None,263.60303303099954,None,263.60303303099954,None,263.60303303099954,None,263.60303303099954,None,,,,,,,,,,,,,,,,,,,,,,,,,,,,,,,,,,,,,,,,,,,,001,162,2020_Feb_25_0958,spring_faces,3.1.5,59.9541730683781,
condition files/Stage0c_1.xlsx,0c,alpha,phi,h,"['h', 'g']","['Chess', 'Go']","[-0.15, 0.5]","[0.15, 0.5]",1,1,0,14,14,14,0,2,2,1,,,,,,,,,,,,,,,,,,,,,,,,,,,,,,,,,,,,,,,,,,,,,,,,,,,,,,,,,,,,,,,265.56974669599913,None,265.56974669599913,None,265.56974669599913,None,h,1,1.0394542459998775,267.1029004619995,None,267.1029004619995,None,267.1029004619995,None,268.1861743239997,None,268.1861743239997,None,268.1861743239997,None,268.1861743239997,None,,,,,,,,,,,,,,,,,,,,,,,,,,,,,,,,,,,,,,,,,,,,001,162,2020_Feb_25_0958,spring_faces,3.1.5,59.9541730683781,
condition files/Stage0c_1.xlsx,0c,phi,beta,g,"['h', 'g']","['Chess', 'Go']","[-0.15, 0.5]","[0.15, 0.5]",1,1,0,14,14,14,0,3,3,3,,,,,,,,,,,,,,,,,,,,,,,,,,,,,,,,,,,,,,,,,,,,,,,,,,,,,,,,,,,,,,,270.1692777059998,None,270.1692777059998,None,270.1692777059998,None,g,1,0.935439115999543,271.7028962689992,None,271.7028962689992,None,271.7028962689992,None,272.6899747159996,None,272.6899747159996,None,272.6899747159996,None,272.6899747159996,None,,,,,,,,,,,,,,,,,,,,,,,,,,,,,,,,,,,,,,,,,,,,001,162,2020_Feb_25_0958,spring_faces,3.1.5,59.9541730683781,
condition files/Stage0c_2.xlsx,0c,alpha,theta,h,"['h', 'g']","['Chess', 'Go']","[-0.15, 0.5]","[0.15, 0.5]",1,1,0,15,15,15,0,0,0,0,,,,,,,,,,,,,,,,,,,,,,,,,,,,,,,,,,,,,,,,,,,,,,,,,,,,,,,,,,,,,,,274.6863532259995,None,274.6863532259995,None,274.6863532259995,None,h,1,0.9304632920002405,276.219878893,None,276.219878893,None,276.219878893,None,277.2028618819995,None,277.2028618819995,None,277.2028618819995,None,277.2028618819995,None,,,,,,,,,,,,,,,,,,,,,,,,,,,,,,,,,,,,,,,,,,,,001,162,2020_Feb_25_0958,spring_faces,3.1.5,59.9541730683781,
condition files/Stage0c_2.xlsx,0c,beta,phi,g,"['h', 'g']","['Chess', 'Go']","[-0.15, 0.5]","[0.15, 0.5]",1,1,0,15,15,15,0,1,1,3,,,,,,,,,,,,,,,,,,,,,,,,,,,,,,,,,,,,,,,,,,,,,,,,,,,,,,,,,,,,,,,279.1695523499993,None,279.1695523499993,None,279.1695523499993,None,g,1,1.0549557799995455,280.7033856549997,None,280.7033856549997,None,280.7033856549997,None,281.8197769599992,None,281.8197769599992,None,281.8197769599992,None,281.8197769599992,None,,,,,,,,,,,,,,,,,,,,,,,,,,,,,,,,,,,,,,,,,,,,001,162,2020_Feb_25_0958,spring_faces,3.1.5,59.9541730683781,
condition files/Stage0c_2.xlsx,0c,theta,beta,g,"['h', 'g']","['Chess', 'Go']","[-0.15, 0.5]","[0.15, 0.5]",1,1,0,15,15,15,0,2,2,2,,,,,,,,,,,,,,,,,,,,,,,,,,,,,,,,,,,,,,,,,,,,,,,,,,,,,,,,,,,,,,,283.78614705399923,None,283.78614705399923,None,283.78614705399923,None,g,1,1.0787562449995676,285.3195440339996,None,285.3195440339996,None,285.3195440339996,None,286.43739941999956,None,286.43739941999956,None,286.43739941999956,None,286.43739941999956,None,,,,,,,,,,,,,,,,,,,,,,,,,,,,,,,,,,,,,,,,,,,,001,162,2020_Feb_25_0958,spring_faces,3.1.5,59.9541730683781,
condition files/Stage0c_2.xlsx,0c,phi,alpha,h,"['h', 'g']","['Chess', 'Go']","[-0.15, 0.5]","[0.15, 0.5]",1,1,0,15,15,15,0,3,3,1,,,,,,,,,,,,,,,,,,,,,,,,,,,,,,,,,,,,,,,,,,,,,,,,,,,,,,,,,,,,,,,288.4213073689998,None,288.4213073689998,None,288.4213073689998,None,h,1,0.8772120840003481,289.95320012999946,None,289.95320012999946,None,289.95320012999946,None,290.8861489759993,None,290.8861489759993,None,290.8861489759993,None,290.8861489759993,None,,,,,,,,,,,,,,,,,,,,,,,,,,,,,,,,,,,,,,,,,,,,001,162,2020_Feb_25_0958,spring_faces,3.1.5,59.9541730683781,
condition files/Stage0c_1.xlsx,0c,beta,theta,g,"['h', 'g']","['Chess', 'Go']","[-0.15, 0.5]","[0.15, 0.5]",1,1,0,16,16,16,0,0,0,2,,,,,,,,,,,,,,,,,,,,,,,,,,,,,,,,,,,,,,,,,,,,,,,,,,,,,,,,,,,,,,,292.86976990199946,None,292.86976990199946,None,292.86976990199946,None,g,1,0.987483052999778,294.4028731419994,None,294.4028731419994,None,294.4028731419994,None,295.453174579,None,295.453174579,None,295.453174579,None,295.453174579,None,,,,,,,,,,,,,,,,,,,,,,,,,,,,,,,,,,,,,,,,,,,,001,162,2020_Feb_25_0958,spring_faces,3.1.5,59.9541730683781,
condition files/Stage0c_1.xlsx,0c,phi,beta,g,"['h', 'g']","['Chess', 'Go']","[-0.15, 0.5]","[0.15, 0.5]",1,1,0,16,16,16,0,1,1,3,,,,,,,,,,,,,,,,,,,,,,,,,,,,,,,,,,,,,,,,,,,,,,,,,,,,,,,,,,,,,,,297.41954675099987,None,297.41954675099987,None,297.41954675099987,None,g,1,0.917691313999967,298.9526181559995,None,298.9526181559995,None,298.9526181559995,None,299.9197130549992,None,299.9197130549992,None,299.9197130549992,None,299.9197130549992,None,,,,,,,,,,,,,,,,,,,,,,,,,,,,,,,,,,,,,,,,,,,,001,162,2020_Feb_25_0958,spring_faces,3.1.5,59.9541730683781,
condition files/Stage0c_1.xlsx,0c,alpha,phi,h,"['h', 'g']","['Chess', 'Go']","[-0.15, 0.5]","[0.15, 0.5]",1,1,0,16,16,16,0,2,2,1,,,,,,,,,,,,,,,,,,,,,,,,,,,,,,,,,,,,,,,,,,,,,,,,,,,,,,,,,,,,,,,301.9027253389995,None,301.9027253389995,None,301.9027253389995,None,h,1,0.8017319419996056,303.4366006129994,None,303.4366006129994,None,303.4366006129994,None,304.30295536799986,None,304.30295536799986,None,304.30295536799986,None,304.30295536799986,None,,,,,,,,,,,,,,,,,,,,,,,,,,,,,,,,,,,,,,,,,,,,001,162,2020_Feb_25_0958,spring_faces,3.1.5,59.9541730683781,
condition files/Stage0c_1.xlsx,0c,theta,alpha,h,"['h', 'g']","['Chess', 'Go']","[-0.15, 0.5]","[0.15, 0.5]",1,1,0,16,16,16,0,3,3,0,,,,,,,,,,,,,,,,,,,,,,,,,,,,,,,,,,,,,,,,,,,,,,,,,,,,,,,,,,,,,,,306.26965175499936,None,306.26965175499936,None,306.26965175499936,None,h,1,0.9471351379997941,307.80319330399925,None,307.80319330399925,None,307.80319330399925,None,308.78660583999954,None,308.78660583999954,None,308.78660583999954,None,308.78660583999954,None,,,,,,,,,,,,,,,,,,,,,,,,,,,,,,,,,,,,,,,,,,,,001,162,2020_Feb_25_0958,spring_faces,3.1.5,59.9541730683781,
condition files/Stage0c_2.xlsx,0c,theta,beta,g,"['h', 'g']","['Chess', 'Go']","[-0.15, 0.5]","[0.15, 0.5]",1,1,0,17,17,17,0,0,0,2,,,,,,,,,,,,,,,,,,,,,,,,,,,,,,,,,,,,,,,,,,,,,,,,,,,,,,,,,,,,,,,310.7864441749998,None,310.7864441749998,None,310.7864441749998,None,g,1,0.8940891400006876,312.32024371899934,None,312.32024371899934,None,312.32024371899934,None,313.2698485459996,None,313.2698485459996,None,313.2698485459996,None,313.2698485459996,None,,,,,,,,,,,,,,,,,,,,,,,,,,,,,,,,,,,,,,,,,,,,001,162,2020_Feb_25_0958,spring_faces,3.1.5,59.9541730683781,
condition files/Stage0c_2.xlsx,0c,beta,phi,g,"['h', 'g']","['Chess', 'Go']","[-0.15, 0.5]","[0.15, 0.5]",1,1,0,17,17,17,0,1,1,3,,,,,,,,,,,,,,,,,,,,,,,,,,,,,,,,,,,,,,,,,,,,,,,,,,,,,,,,,,,,,,,315.23610841999925,None,315.23610841999925,None,315.23610841999925,None,g,1,0.796522850000656,316.76982436399976,None,316.76982436399976,None,316.76982436399976,None,317.6042357849992,None,317.6042357849992,None,317.6042357849992,None,317.6042357849992,None,,,,,,,,,,,,,,,,,,,,,,,,,,,,,,,,,,,,,,,,,,,,001,162,2020_Feb_25_0958,spring_faces,3.1.5,59.9541730683781,
condition files/Stage0c_2.xlsx,0c,alpha,theta,h,"['h', 'g']","['Chess', 'Go']","[-0.15, 0.5]","[0.15, 0.5]",1,1,0,17,17,17,0,2,2,0,,,,,,,,,,,,,,,,,,,,,,,,,,,,,,,,,,,,,,,,,,,,,,,,,,,,,,,,,,,,,,,319.5863928909994,None,319.5863928909994,None,319.5863928909994,None,h,1,1.6784194149995528,321.119886169,None,321.119886169,None,321.119886169,None,322.8527743599998,None,322.8527743599998,None,322.8527743599998,None,322.8527743599998,None,,,,,,,,,,,,,,,,,,,,,,,,,,,,,,,,,,,,,,,,,,,,001,162,2020_Feb_25_0958,spring_faces,3.1.5,59.9541730683781,
condition files/Stage0c_2.xlsx,0c,phi,alpha,h,"['h', 'g']","['Chess', 'Go']","[-0.15, 0.5]","[0.15, 0.5]",1,1,0,17,17,17,0,3,3,1,,,,,,,,,,,,,,,,,,,,,,,,,,,,,,,,,,,,,,,,,,,,,,,,,,,,,,,,,,,,,,,324.81978706599966,None,324.81978706599966,None,324.81978706599966,None,h,1,1.7253789579999648,326.35302571399916,None,326.35302571399916,None,326.35302571399916,None,328.1211690149994,None,328.1211690149994,None,328.1211690149994,None,328.1211690149994,None,,,,,,,,,,,,,,,,,,,,,,,,,,,,,,,,,,,,,,,,,,,,001,162,2020_Feb_25_0958,spring_faces,3.1.5,59.9541730683781,
,,,,,,,,,,,,,,,,,,,,,,,,,,,,,,,,,,,,,,,,,,,,,,,,,,,,,,,,,,,,,,,,,,,,,,,,,,,,,,,,,,,,,,,,,,,,,,,,,,,,,,,,330.11986611299926,None,space,5.614688794999893,335.1196582849998,None,,,,,,,,,,,,,,,,,,,,,,,,,,,,,,,,,,,,,,001,162,2020_Feb_25_0958,spring_faces,3.1.5,59.9541730683781,
condition files/Stage1_1.xlsx,,T3,B4,c,"['c', 'm']","['Clue', 'Monopoly']","[-0.15, 0.5]","[0.15, 0.5]",1,1,,,,,,,,,0,0,0,0,0,0,0,5,,,,,,,,,,,,,,,,,,,,,,,,,,,,,,,,,,,,,,,,,,,,,,,,,,,,,,,340.7864644319998,None,340.7864644319998,None,340.7864644319998,None,c,1,1.5342420369997853,342.3200839809997,None,342.3200839809997,None,342.3200839809997,None,343.9358297969993,None,343.9358297969993,None,343.9358297969993,None,343.9358297969993,None,,,,,,,335.1196582849998,None,,,,,,,,,,,,,,,,,,,,,,,,,,,,,,,,,,,,001,162,2020_Feb_25_0958,spring_faces,3.1.5,59.9541730683781,
condition files/Stage1_1.xlsx,,T2,B2,m,"['c', 'm']","['Clue', 'Monopoly']","[-0.15, 0.5]","[0.15, 0.5]",1,1,,,,,,,,,0,0,0,0,0,1,1,3,,,,,,,,,,,,,,,,,,,,,,,,,,,,,,,,,,,,,,,,,,,,,,,,,,,,,,,345.88620770599937,None,345.88620770599937,None,345.88620770599937,None,m,1,1.1388338799997655,347.4195353209998,None,347.4195353209998,None,347.4195353209998,None,348.6366033609993,None,348.6366033609993,None,348.6366033609993,None,348.6366033609993,None,,,,,,,,,,,,,,,,,,,,,,,,,,,,,,,,,,,,,,,,,,,,001,162,2020_Feb_25_0958,spring_faces,3.1.5,59.9541730683781,
condition files/Stage1_1.xlsx,,T4,B3,m,"['c', 'm']","['Clue', 'Monopoly']","[-0.15, 0.5]","[0.15, 0.5]",1,1,,,,,,,,,0,0,0,0,0,2,2,6,,,,,,,,,,,,,,,,,,,,,,,,,,,,,,,,,,,,,,,,,,,,,,,,,,,,,,,350.5862385579994,None,350.5862385579994,None,350.5862385579994,None,c,0,1.5242283530005807,352.1221946179994,None,352.1221946179994,None,352.1221946179994,None,353.7029032239998,None,353.7029032239998,None,353.7029032239998,None,353.7029032239998,None,,,,,,,,,,,,,,,,,,,,,,,,,,,,,,,,,,,,,,,,,,,,001,162,2020_Feb_25_0958,spring_faces,3.1.5,59.9541730683781,
condition files/Stage1_1.xlsx,,B3,T3,c,"['c', 'm']","['Clue', 'Monopoly']","[-0.15, 0.5]","[0.15, 0.5]",1,1,,,,,,,,,0,0,0,0,0,3,3,4,,,,,,,,,,,,,,,,,,,,,,,,,,,,,,,,,,,,,,,,,,,,,,,,,,,,,,,355.66960113499954,None,355.66960113499954,None,355.66960113499954,None,m,0,1.4672197650006638,357.20309443299993,None,357.20309443299993,None,357.20309443299993,None,358.7364971629995,None,358.7364971629995,None,358.7364971629995,None,358.7364971629995,None,,,,,,,,,,,,,,,,,,,,,,,,,,,,,,,,,,,,,,,,,,,,001,162,2020_Feb_25_0958,spring_faces,3.1.5,59.9541730683781,
condition files/Stage1_1.xlsx,,B4,T4,m,"['c', 'm']","['Clue', 'Monopoly']","[-0.15, 0.5]","[0.15, 0.5]",1,1,,,,,,,,,0,0,0,0,0,4,4,7,,,,,,,,,,,,,,,,,,,,,,,,,,,,,,,,,,,,,,,,,,,,,,,,,,,,,,,360.7029218819998,None,360.7029218819998,None,360.7029218819998,None,m,1,1.9703003650001847,362.2360537359991,None,362.2360537359991,None,362.2360537359991,None,364.27169554399916,None,364.27169554399916,None,364.27169554399916,None,364.27169554399916,None,,,,,,,,,,,,,,,,,,,,,,,,,,,,,,,,,,,,,,,,,,,,001,162,2020_Feb_25_0958,spring_faces,3.1.5,59.9541730683781,
condition files/Stage1_1.xlsx,,T1,B1,c,"['c', 'm']","['Clue', 'Monopoly']","[-0.15, 0.5]","[0.15, 0.5]",1,1,,,,,,,,,0,0,0,0,0,5,5,0,,,,,,,,,,,,,,,,,,,,,,,,,,,,,,,,,,,,,,,,,,,,,,,,,,,,,,,366.23622466099914,None,366.23622466099914,None,366.23622466099914,None,m,0,1.156047209999997,367.78635825499987,None,367.78635825499987,None,367.78635825499987,None,369.00326861899975,None,369.00326861899975,None,369.00326861899975,None,369.00326861899975,None,,,,,,,,,,,,,,,,,,,,,,,,,,,,,,,,,,,,,,,,,,,,001,162,2020_Feb_25_0958,spring_faces,3.1.5,59.9541730683781,
condition files/Stage1_1.xlsx,,B2,T1,m,"['c', 'm']","['Clue', 'Monopoly']","[-0.15, 0.5]","[0.15, 0.5]",1,1,,,,,,,,,0,0,0,0,0,6,6,2,,,,,,,,,,,,,,,,,,,,,,,,,,,,,,,,,,,,,,,,,,,,,,,,,,,,,,,370.96961390199976,None,370.96961390199976,None,370.96961390199976,None,m,1,1.5890399059999254,372.5053816689997,None,372.5053816689997,None,372.5053816689997,None,374.16930521999984,None,374.16930521999984,None,374.16930521999984,None,374.16930521999984,None,,,,,,,,,,,,,,,,,,,,,,,,,,,,,,,,,,,,,,,,,,,,001,162,2020_Feb_25_0958,spring_faces,3.1.5,59.9541730683781,
condition files/Stage1_1.xlsx,,B1,T2,c,"['c', 'm']","['Clue', 'Monopoly']","[-0.15, 0.5]","[0.15, 0.5]",1,1,,,,,,,,,0,0,0,0,0,7,7,1,,,,,,,,,,,,,,,,,,,,,,,,,,,,,,,,,,,,,,,,,,,,,,,,,,,,,,,376.1197220219992,None,376.1197220219992,None,376.1197220219992,None,c,1,1.9596876709993012,377.65467219999937,None,377.65467219999937,None,377.65467219999937,None,379.6705018089997,None,379.6705018089997,None,379.6705018089997,None,379.6705018089997,None,,,,,,,,,,,,,,,,,,,,,,,,,,,,,,,,,,,,,,,,,,,,001,162,2020_Feb_25_0958,spring_faces,3.1.5,59.9541730683781,
condition files/Stage1_2.xlsx,,B4,T3,c,"['c', 'm']","['Clue', 'Monopoly']","[-0.15, 0.5]","[0.15, 0.5]",1,1,,,,,,,,,0,1,1,1,0,0,0,5,,,,,,,,,,,,,,,,,,,,,,,,,,,,,,,,,,,,,,,,,,,,,,,,,,,,,,,381.6525603399996,None,381.6525603399996,None,381.6525603399996,None,m,0,2.5077833529994678,383.20263474999956,None,383.20263474999956,None,383.20263474999956,None,385.7692470339998,None,385.7692470339998,None,385.7692470339998,None,385.7692470339998,None,,,,,,,,,,,,,,,,,,,,,,,,,,,,,,,,,,,,,,,,,,,,001,162,2020_Feb_25_0958,spring_faces,3.1.5,59.9541730683781,
condition files/Stage1_2.xlsx,,T2,B1,c,"['c', 'm']","['Clue', 'Monopoly']","[-0.15, 0.5]","[0.15, 0.5]",1,1,,,,,,,,,0,1,1,1,0,1,1,1,,,,,,,,,,,,,,,,,,,,,,,,,,,,,,,,,,,,,,,,,,,,,,,,,,,,,,,387.73621221099984,None,387.73621221099984,None,387.73621221099984,None,c,1,1.5919098739996116,389.2705302339991,None,389.2705302339991,None,389.2705302339991,None,390.92017724999914,None,390.92017724999914,None,390.92017724999914,None,390.92017724999914,None,,,,,,,,,,,,,,,,,,,,,,,,,,,,,,,,,,,,,,,,,,,,001,162,2020_Feb_25_0958,spring_faces,3.1.5,59.9541730683781,
condition files/Stage1_2.xlsx,,T4,B4,m,"['c', 'm']","['Clue', 'Monopoly']","[-0.15, 0.5]","[0.15, 0.5]",1,1,,,,,,,,,0,1,1,1,0,2,2,7,,,,,,,,,,,,,,,,,,,,,,,,,,,,,,,,,,,,,,,,,,,,,,,,,,,,,,,392.886179266,None,392.886179266,None,392.886179266,None,m,1,1.850513858999875,394.4197878469995,None,394.4197878469995,None,394.4197878469995,None,396.3390521699994,None,396.3390521699994,None,396.3390521699994,None,396.3390521699994,None,,,,,,,,,,,,,,,,,,,,,,,,,,,,,,,,,,,,,,,,,,,,001,162,2020_Feb_25_0958,spring_faces,3.1.5,59.9541730683781,
condition files/Stage1_2.xlsx,,B2,T2,m,"['c', 'm']","['Clue', 'Monopoly']","[-0.15, 0.5]","[0.15, 0.5]",1,1,,,,,,,,,0,1,1,1,0,3,3,3,,,,,,,,,,,,,,,,,,,,,,,,,,,,,,,,,,,,,,,,,,,,,,,,,,,,,,,398.30237329099964,None,398.30237329099964,None,398.30237329099964,None,c,0,2.3211157819996515,399.8532288949991,None,399.8532288949991,None,399.8532288949991,None,402.23644576599963,None,402.23644576599963,None,402.23644576599963,None,402.23644576599963,None,,,,,,,,,,,,,,,,,,,,,,,,,,,,,,,,,,,,,,,,,,,,001,162,2020_Feb_25_0958,spring_faces,3.1.5,59.9541730683781,
condition files/Stage1_2.xlsx,,B3,T4,m,"['c', 'm']","['Clue', 'Monopoly']","[-0.15, 0.5]","[0.15, 0.5]",1,1,,,,,,,,,0,1,1,1,0,4,4,6,,,,,,,,,,,,,,,,,,,,,,,,,,,,,,,,,,,,,,,,,,,,,,,,,,,,,,,404.2029046109992,None,404.2029046109992,None,404.2029046109992,None,c,0,1.575001735999649,405.7354254359998,None,405.7354254359998,None,405.7354254359998,None,407.3695605849998,None,407.3695605849998,None,407.3695605849998,None,407.3695605849998,None,,,,,,,,,,,,,,,,,,,,,,,,,,,,,,,,,,,,,,,,,,,,001,162,2020_Feb_25_0958,spring_faces,3.1.5,59.9541730683781,
condition files/Stage1_2.xlsx,,B1,T1,c,"['c', 'm']","['Clue', 'Monopoly']","[-0.15, 0.5]","[0.15, 0.5]",1,1,,,,,,,,,0,1,1,1,0,5,5,0,,,,,,,,,,,,,,,,,,,,,,,,,,,,,,,,,,,,,,,,,,,,,,,,,,,,,,,409.33625756499987,None,409.33625756499987,None,409.33625756499987,None,m,0,1.1268812700000126,410.87146057799964,None,410.87146057799964,None,410.87146057799964,None,412.06958940999994,None,412.06958940999994,None,412.06958940999994,None,412.06958940999994,None,,,,,,,,,,,,,,,,,,,,,,,,,,,,,,,,,,,,,,,,,,,,001,162,2020_Feb_25_0958,spring_faces,3.1.5,59.9541730683781,
condition files/Stage1_2.xlsx,,T3,B3,c,"['c', 'm']","['Clue', 'Monopoly']","[-0.15, 0.5]","[0.15, 0.5]",1,1,,,,,,,,,0,1,1,1,0,6,6,4,,,,,,,,,,,,,,,,,,,,,,,,,,,,,,,,,,,,,,,,,,,,,,,,,,,,,,,414.01982340299946,None,414.01982340299946,None,414.01982340299946,None,c,1,1.533132716000182,415.55321267699946,None,415.55321267699946,None,415.55321267699946,None,417.1366108059992,None,417.1366108059992,None,417.1366108059992,None,417.1366108059992,None,,,,,,,,,,,,,,,,,,,,,,,,,,,,,,,,,,,,,,,,,,,,001,162,2020_Feb_25_0958,spring_faces,3.1.5,59.9541730683781,
condition files/Stage1_2.xlsx,,T1,B2,m,"['c', 'm']","['Clue', 'Monopoly']","[-0.15, 0.5]","[0.15, 0.5]",1,1,,,,,,,,,0,1,1,1,0,7,7,2,,,,,,,,,,,,,,,,,,,,,,,,,,,,,,,,,,,,,,,,,,,,,,,,,,,,,,,419.10333157899913,None,419.10333157899913,None,419.10333157899913,None,m,1,2.3214663449998625,420.63689205899936,None,420.63689205899936,None,420.63689205899936,None,423.03618187699976,None,423.03618187699976,None,423.03618187699976,None,423.03618187699976,None,,,,,,,,,,,,,,,,,,,,,,,,,,,,,,,,,,,,,,,,,,,,001,162,2020_Feb_25_0958,spring_faces,3.1.5,59.9541730683781,
condition files/Stage1_1.xlsx,,T2,B2,m,"['c', 'm']","['Clue', 'Monopoly']","[-0.15, 0.5]","[0.15, 0.5]",1,1,,,,,,,,,0,2,2,2,0,0,0,3,,,,,,,,,,,,,,,,,,,,,,,,,,,,,,,,,,,,,,,,,,,,,,,,,,,,,,,425.0031502899992,None,425.0031502899992,None,425.0031502899992,None,m,1,4.262294878999455,426.53600805899987,None,426.53600805899987,None,426.53600805899987,None,430.8528274799992,None,430.8528274799992,None,430.8528274799992,None,430.8528274799992,None,,,,,,,,,,,,,,,,,,,,,,,,,,,,,,,,,,,,,,,,,,,,001,162,2020_Feb_25_0958,spring_faces,3.1.5,59.9541730683781,
condition files/Stage1_1.xlsx,,T4,B3,m,"['c', 'm']","['Clue', 'Monopoly']","[-0.15, 0.5]","[0.15, 0.5]",1,1,,,,,,,,,0,2,2,2,0,1,1,6,,,,,,,,,,,,,,,,,,,,,,,,,,,,,,,,,,,,,,,,,,,,,,,,,,,,,,,432.819561669,None,432.819561669,None,432.819561669,None,c,0,2.3655820389994915,434.3527730249998,None,434.3527730249998,None,434.3527730249998,None,436.76972913899954,None,436.76972913899954,None,436.76972913899954,None,436.76972913899954,None,,,,,,,,,,,,,,,,,,,,,,,,,,,,,,,,,,,,,,,,,,,,001,162,2020_Feb_25_0958,spring_faces,3.1.5,59.9541730683781,
condition files/Stage1_1.xlsx,,B4,T4,m,"['c', 'm']","['Clue', 'Monopoly']","[-0.15, 0.5]","[0.15, 0.5]",1,1,,,,,,,,,0,2,2,2,0,2,2,7,,,,,,,,,,,,,,,,,,,,,,,,,,,,,,,,,,,,,,,,,,,,,,,,,,,,,,,438.7364119779995,None,438.7364119779995,None,438.7364119779995,None,m,1,2.126275756000723,440.2720814239992,None,440.2720814239992,None,440.2720814239992,None,442.4530999459994,None,442.4530999459994,None,442.4530999459994,None,442.4530999459994,None,,,,,,,,,,,,,,,,,,,,,,,,,,,,,,,,,,,,,,,,,,,,001,162,2020_Feb_25_0958,spring_faces,3.1.5,59.9541730683781,
condition files/Stage1_1.xlsx,,B2,T1,m,"['c', 'm']","['Clue', 'Monopoly']","[-0.15, 0.5]","[0.15, 0.5]",1,1,,,,,,,,,0,2,2,2,0,3,3,2,,,,,,,,,,,,,,,,,,,,,,,,,,,,,,,,,,,,,,,,,,,,,,,,,,,,,,,444.4195851939994,None,444.4195851939994,None,444.4195851939994,None,m,1,1.6589740320005149,445.9553386389998,None,445.9553386389998,None,445.9553386389998,None,447.6699560899997,None,447.6699560899997,None,447.6699560899997,None,447.6699560899997,None,,,,,,,,,,,,,,,,,,,,,,,,,,,,,,,,,,,,,,,,,,,,001,162,2020_Feb_25_0958,spring_faces,3.1.5,59.9541730683781,
condition files/Stage1_1.xlsx,,T3,B4,c,"['c', 'm']","['Clue', 'Monopoly']","[-0.15, 0.5]","[0.15, 0.5]",1,1,,,,,,,,,0,2,2,2,0,4,4,5,,,,,,,,,,,,,,,,,,,,,,,,,,,,,,,,,,,,,,,,,,,,,,,,,,,,,,,449.6362504479994,None,449.6362504479994,None,449.6362504479994,None,c,1,0.6830691720006143,451.17124963599963,None,451.17124963599963,None,451.17124963599963,None,451.92038580199915,None,451.92038580199915,None,451.92038580199915,None,451.92038580199915,None,,,,,,,,,,,,,,,,,,,,,,,,,,,,,,,,,,,,,,,,,,,,001,162,2020_Feb_25_0958,spring_faces,3.1.5,59.9541730683781,
condition files/Stage1_1.xlsx,,T1,B1,c,"['c', 'm']","['Clue', 'Monopoly']","[-0.15, 0.5]","[0.15, 0.5]",1,1,,,,,,,,,0,2,2,2,0,5,5,0,,,,,,,,,,,,,,,,,,,,,,,,,,,,,,,,,,,,,,,,,,,,,,,,,,,,,,,453.8856924519996,None,453.8856924519996,None,453.8856924519996,None,c,1,2.8024332679997315,455.4199196089994,None,455.4199196089994,None,455.4199196089994,None,458.28645884899925,None,458.28645884899925,None,458.28645884899925,None,458.28645884899925,None,,,,,,,,,,,,,,,,,,,,,,,,,,,,,,,,,,,,,,,,,,,,001,162,2020_Feb_25_0958,spring_faces,3.1.5,59.9541730683781,
condition files/Stage1_1.xlsx,,B1,T2,c,"['c', 'm']","['Clue', 'Monopoly']","[-0.15, 0.5]","[0.15, 0.5]",1,1,,,,,,,,,0,2,2,2,0,6,6,1,,,,,,,,,,,,,,,,,,,,,,,,,,,,,,,,,,,,,,,,,,,,,,,,,,,,,,,460.2529273909995,None,460.2529273909995,None,460.2529273909995,None,c,1,1.921631690999675,461.7887979799998,None,461.7887979799998,None,461.7887979799998,None,463.7694211419994,None,463.7694211419994,None,463.7694211419994,None,463.7694211419994,None,,,,,,,,,,,,,,,,,,,,,,,,,,,,,,,,,,,,,,,,,,,,001,162,2020_Feb_25_0958,spring_faces,3.1.5,59.9541730683781,
condition files/Stage1_1.xlsx,,B3,T3,c,"['c', 'm']","['Clue', 'Monopoly']","[-0.15, 0.5]","[0.15, 0.5]",1,1,,,,,,,,,0,2,2,2,0,7,7,4,,,,,,,,,,,,,,,,,,,,,,,,,,,,,,,,,,,,,,,,,,,,,,,,,,,,,,,465.73566947199924,None,465.73566947199924,None,465.73566947199924,None,c,1,2.4083507800005464,467.2700835099995,None,467.2700835099995,None,467.2700835099995,None,469.736244015,None,469.736244015,None,469.736244015,None,469.736244015,None,,,,,,,,,,,,,,,,,,,,,,,,,,,,,,,,,,,,,,,,,,,,001,162,2020_Feb_25_0958,spring_faces,3.1.5,59.9541730683781,
condition files/Stage1_2.xlsx,,B2,T2,m,"['c', 'm']","['Clue', 'Monopoly']","[-0.15, 0.5]","[0.15, 0.5]",1,1,,,,,,,,,0,3,3,3,0,0,0,3,,,,,,,,,,,,,,,,,,,,,,,,,,,,,,,,,,,,,,,,,,,,,,,,,,,,,,,471.7195790279993,None,471.7195790279993,None,471.7195790279993,None,m,1,1.3692246840000735,473.25314712899944,None,473.25314712899944,None,473.25314712899944,None,474.68904729299993,None,474.68904729299993,None,474.68904729299993,None,474.68904729299993,None,,,,,,,,,,,,,,,,,,,,,,,,,,,,,,,,,,,,,,,,,,,,001,162,2020_Feb_25_0958,spring_faces,3.1.5,59.9541730683781,
condition files/Stage1_2.xlsx,,T2,B1,c,"['c', 'm']","['Clue', 'Monopoly']","[-0.15, 0.5]","[0.15, 0.5]",1,1,,,,,,,,,0,3,3,3,0,1,1,1,,,,,,,,,,,,,,,,,,,,,,,,,,,,,,,,,,,,,,,,,,,,,,,,,,,,,,,476.6528894739995,None,476.6528894739995,None,476.6528894739995,None,m,0,4.356717177999599,478.18570776399974,None,478.18570776399974,None,478.18570776399974,None,482.6056318539995,None,482.6056318539995,None,482.6056318539995,None,482.6056318539995,None,,,,,,,,,,,,,,,,,,,,,,,,,,,,,,,,,,,,,,,,,,,,001,162,2020_Feb_25_0958,spring_faces,3.1.5,59.9541730683781,
condition files/Stage1_2.xlsx,,B4,T3,c,"['c', 'm']","['Clue', 'Monopoly']","[-0.15, 0.5]","[0.15, 0.5]",1,1,,,,,,,,,0,3,3,3,0,2,2,5,,,,,,,,,,,,,,,,,,,,,,,,,,,,,,,,,,,,,,,,,,,,,,,,,,,,,,,484.5697587049999,None,484.5697587049999,None,484.5697587049999,None,c,1,1.5098236710000492,486.10451273299986,None,486.10451273299986,None,486.10451273299986,None,487.6694820089997,None,487.6694820089997,None,487.6694820089997,None,487.6694820089997,None,,,,,,,,,,,,,,,,,,,,,,,,,,,,,,,,,,,,,,,,,,,,001,162,2020_Feb_25_0958,spring_faces,3.1.5,59.9541730683781,
condition files/Stage1_2.xlsx,,B3,T4,m,"['c', 'm']","['Clue', 'Monopoly']","[-0.15, 0.5]","[0.15, 0.5]",1,1,,,,,,,,,0,3,3,3,0,3,3,6,,,,,,,,,,,,,,,,,,,,,,,,,,,,,,,,,,,,,,,,,,,,,,,,,,,,,,,489.6362617149998,None,489.6362617149998,None,489.6362617149998,None,m,1,2.2365923289999046,491.16974210699937,None,491.16974210699937,None,491.16974210699937,None,493.4708445309998,None,493.4708445309998,None,493.4708445309998,None,493.4708445309998,None,,,,,,,,,,,,,,,,,,,,,,,,,,,,,,,,,,,,,,,,,,,,001,162,2020_Feb_25_0958,spring_faces,3.1.5,59.9541730683781,
condition files/Stage1_2.xlsx,,T1,B2,m,"['c', 'm']","['Clue', 'Monopoly']","[-0.15, 0.5]","[0.15, 0.5]",1,1,,,,,,,,,0,3,3,3,0,4,4,2,,,,,,,,,,,,,,,,,,,,,,,,,,,,,,,,,,,,,,,,,,,,,,,,,,,,,,,495.4360581029996,None,495.4360581029996,None,495.4360581029996,None,m,1,1.2530002359999344,496.96938085299917,None,496.96938085299917,None,496.96938085299917,None,498.28570203599975,None,498.28570203599975,None,498.28570203599975,None,498.28570203599975,None,,,,,,,,,,,,,,,,,,,,,,,,,,,,,,,,,,,,,,,,,,,,001,162,2020_Feb_25_0958,spring_faces,3.1.5,59.9541730683781,
condition files/Stage1_2.xlsx,,B1,T1,c,"['c', 'm']","['Clue', 'Monopoly']","[-0.15, 0.5]","[0.15, 0.5]",1,1,,,,,,,,,0,3,3,3,0,5,5,0,,,,,,,,,,,,,,,,,,,,,,,,,,,,,,,,,,,,,,,,,,,,,,,,,,,,,,,500.2529176039998,None,500.2529176039998,None,500.2529176039998,None,c,1,3.347504620000109,501.78685047899944,None,501.78685047899944,None,501.78685047899944,None,505.1878782039994,None,505.1878782039994,None,505.1878782039994,None,505.1878782039994,None,,,,,,,,,,,,,,,,,,,,,,,,,,,,,,,,,,,,,,,,,,,,001,162,2020_Feb_25_0958,spring_faces,3.1.5,59.9541730683781,
condition files/Stage1_2.xlsx,,T4,B4,m,"['c', 'm']","['Clue', 'Monopoly']","[-0.15, 0.5]","[0.15, 0.5]",1,1,,,,,,,,,0,3,3,3,0,6,6,7,,,,,,,,,,,,,,,,,,,,,,,,,,,,,,,,,,,,,,,,,,,,,,,,,,,,,,,507.15292617699924,None,507.15292617699924,None,507.15292617699924,None,m,1,2.5599633780002478,508.6863805539997,None,508.6863805539997,None,508.6863805539997,None,511.3037789329992,None,511.3037789329992,None,511.3037789329992,None,511.3037789329992,None,,,,,,,,,,,,,,,,,,,,,,,,,,,,,,,,,,,,,,,,,,,,001,162,2020_Feb_25_0958,spring_faces,3.1.5,59.9541730683781,
condition files/Stage1_2.xlsx,,T3,B3,c,"['c', 'm']","['Clue', 'Monopoly']","[-0.15, 0.5]","[0.15, 0.5]",1,1,,,,,,,,,0,3,3,3,0,7,7,4,,,,,,,,,,,,,,,,,,,,,,,,,,,,,,,,,,,,,,,,,,,,,,,,,,,,,,,513.2697359439999,None,513.2697359439999,None,513.2697359439999,None,c,1,1.3859276439998212,514.804428124,None,514.804428124,None,514.804428124,None,516.2537534249996,None,516.2537534249996,None,516.2537534249996,None,516.2537534249996,None,,,,,,,,,,,,,,,,,,,,,,,,,,,,,,,,,,,,,,,,,,,,001,162,2020_Feb_25_0958,spring_faces,3.1.5,59.9541730683781,
condition files/Stage1_1.xlsx,,B3,T3,c,"['c', 'm']","['Clue', 'Monopoly']","[-0.15, 0.5]","[0.15, 0.5]",1,1,,,,,,,,,0,4,4,4,0,0,0,4,,,,,,,,,,,,,,,,,,,,,,,,,,,,,,,,,,,,,,,,,,,,,,,,,,,,,,,518.2363784259996,None,518.2363784259996,None,518.2363784259996,None,c,1,0.8847309290003977,519.7696089209994,None,519.7696089209994,None,519.7696089209994,None,520.7197975379995,None,520.7197975379995,None,520.7197975379995,None,520.7197975379995,None,,,,,,,,,,,,,,,,,,,,,,,,,,,,,,,,,,,,,,,,,,,,001,162,2020_Feb_25_0958,spring_faces,3.1.5,59.9541730683781,
condition files/Stage1_1.xlsx,,T4,B3,m,"['c', 'm']","['Clue', 'Monopoly']","[-0.15, 0.5]","[0.15, 0.5]",1,1,,,,,,,,,0,4,4,4,0,1,1,6,,,,,,,,,,,,,,,,,,,,,,,,,,,,,,,,,,,,,,,,,,,,,,,,,,,,,,,522.6862730759995,None,522.6862730759995,None,522.6862730759995,None,c,0,4.2723716390000845,524.222040531,None,524.222040531,None,524.222040531,None,528.5535338909995,None,528.5535338909995,None,528.5535338909995,None,528.5535338909995,None,,,,,,,,,,,,,,,,,,,,,,,,,,,,,,,,,,,,,,,,,,,,001,162,2020_Feb_25_0958,spring_faces,3.1.5,59.9541730683781,
condition files/Stage1_1.xlsx,,B2,T1,m,"['c', 'm']","['Clue', 'Monopoly']","[-0.15, 0.5]","[0.15, 0.5]",1,1,,,,,,,,,0,4,4,4,0,2,2,2,,,,,,,,,,,,,,,,,,,,,,,,,,,,,,,,,,,,,,,,,,,,,,,,,,,,,,,530.5191731509994,None,530.5191731509994,None,530.5191731509994,None,m,1,1.7206926660001045,532.0536653569998,None,532.0536653569998,None,532.0536653569998,None,533.8359975199992,None,533.8359975199992,None,533.8359975199992,None,533.8359975199992,None,,,,,,,,,,,,,,,,,,,,,,,,,,,,,,,,,,,,,,,,,,,,001,162,2020_Feb_25_0958,spring_faces,3.1.5,59.9541730683781,
condition files/Stage1_1.xlsx,,B1,T2,c,"['c', 'm']","['Clue', 'Monopoly']","[-0.15, 0.5]","[0.15, 0.5]",1,1,,,,,,,,,0,4,4,4,0,3,3,1,,,,,,,,,,,,,,,,,,,,,,,,,,,,,,,,,,,,,,,,,,,,,,,,,,,,,,,535.8027062379997,None,535.8027062379997,None,535.8027062379997,None,c,1,1.6059607630004393,537.3364734489996,None,537.3364734489996,None,537.3364734489996,None,539.0197874539999,None,539.0197874539999,None,539.0197874539999,None,539.0197874539999,None,,,,,,,,,,,,,,,,,,,,,,,,,,,,,,,,,,,,,,,,,,,,001,162,2020_Feb_25_0958,spring_faces,3.1.5,59.9541730683781,
condition files/Stage1_1.xlsx,,B4,T4,m,"['c', 'm']","['Clue', 'Monopoly']","[-0.15, 0.5]","[0.15, 0.5]",1,1,,,,,,,,,0,4,4,4,0,4,4,7,,,,,,,,,,,,,,,,,,,,,,,,,,,,,,,,,,,,,,,,,,,,,,,,,,,,,,,540.9695960079998,None,540.9695960079998,None,540.9695960079998,None,m,1,1.0151102050003828,542.519236135,None,542.519236135,None,542.519236135,None,543.6026149139998,None,543.6026149139998,None,543.6026149139998,None,543.6026149139998,None,,,,,,,,,,,,,,,,,,,,,,,,,,,,,,,,,,,,,,,,,,,,001,162,2020_Feb_25_0958,spring_faces,3.1.5,59.9541730683781,
condition files/Stage1_1.xlsx,,T2,B2,m,"['c', 'm']","['Clue', 'Monopoly']","[-0.15, 0.5]","[0.15, 0.5]",1,1,,,,,,,,,0,4,4,4,0,5,5,3,,,,,,,,,,,,,,,,,,,,,,,,,,,,,,,,,,,,,,,,,,,,,,,,,,,,,,,545.5534304349994,None,545.5534304349994,None,545.5534304349994,None,m,1,1.343460323000727,547.1029030659993,None,547.1029030659993,None,547.1029030659993,None,548.5028455989996,None,548.5028455989996,None,548.5028455989996,None,548.5028455989996,None,,,,,,,,,,,,,,,,,,,,,,,,,,,,,,,,,,,,,,,,,,,,001,162,2020_Feb_25_0958,spring_faces,3.1.5,59.9541730683781,
condition files/Stage1_1.xlsx,,T1,B1,c,"['c', 'm']","['Clue', 'Monopoly']","[-0.15, 0.5]","[0.15, 0.5]",1,1,,,,,,,,,0,4,4,4,0,6,6,0,,,,,,,,,,,,,,,,,,,,,,,,,,,,,,,,,,,,,,,,,,,,,,,,,,,,,,,550.4693791699992,None,550.4693791699992,None,550.4693791699992,None,c,1,1.2249774299998535,552.0054617939995,None,552.0054617939995,None,552.0054617939995,None,553.3031322529996,None,553.3031322529996,None,553.3031322529996,None,553.3031322529996,None,,,,,,,,,,,,,,,,,,,,,,,,,,,,,,,,,,,,,,,,,,,,001,162,2020_Feb_25_0958,spring_faces,3.1.5,59.9541730683781,
condition files/Stage1_1.xlsx,,T3,B4,c,"['c', 'm']","['Clue', 'Monopoly']","[-0.15, 0.5]","[0.15, 0.5]",1,1,,,,,,,,,0,4,4,4,0,7,7,5,,,,,,,,,,,,,,,,,,,,,,,,,,,,,,,,,,,,,,,,,,,,,,,,,,,,,,,555.25286177,None,555.25286177,None,555.25286177,None,c,1,1.38541059399995,556.7889399139995,None,556.7889399139995,None,556.7889399139995,None,558.2370503659995,None,558.2370503659995,None,558.2370503659995,None,558.2370503659995,None,,,,,,,,,,,,,,,,,,,,,,,,,,,,,,,,,,,,,,,,,,,,001,162,2020_Feb_25_0958,spring_faces,3.1.5,59.9541730683781,
condition files/Stage1_2.xlsx,,T4,B4,m,"['c', 'm']","['Clue', 'Monopoly']","[-0.15, 0.5]","[0.15, 0.5]",1,1,,,,,,,,,0,5,5,5,0,0,0,7,,,,,,,,,,,,,,,,,,,,,,,,,,,,,,,,,,,,,,,,,,,,,,,,,,,,,,,560.2195793049996,None,560.2195793049996,None,560.2195793049996,None,c,0,1.4774129070001436,561.7530024669995,None,561.7530024669995,None,561.7530024669995,None,563.3030588449992,None,563.3030588449992,None,563.3030588449992,None,563.3030588449992,None,,,,,,,,,,,,,,,,,,,,,,,,,,,,,,,,,,,,,,,,,,,,001,162,2020_Feb_25_0958,spring_faces,3.1.5,59.9541730683781,
condition files/Stage1_2.xlsx,,B1,T1,c,"['c', 'm']","['Clue', 'Monopoly']","[-0.15, 0.5]","[0.15, 0.5]",1,1,,,,,,,,,0,5,5,5,0,1,1,0,,,,,,,,,,,,,,,,,,,,,,,,,,,,,,,,,,,,,,,,,,,,,,,,,,,,,,,565.2521809189993,None,565.2521809189993,None,565.2521809189993,None,c,1,0.9870349209995766,566.7873229529996,None,566.7873229529996,None,566.7873229529996,None,567.8524245429999,None,567.8524245429999,None,567.8524245429999,None,567.8524245429999,None,,,,,,,,,,,,,,,,,,,,,,,,,,,,,,,,,,,,,,,,,,,,001,162,2020_Feb_25_0958,spring_faces,3.1.5,59.9541730683781,
condition files/Stage1_2.xlsx,,B4,T3,c,"['c', 'm']","['Clue', 'Monopoly']","[-0.15, 0.5]","[0.15, 0.5]",1,1,,,,,,,,,0,5,5,5,0,2,2,5,,,,,,,,,,,,,,,,,,,,,,,,,,,,,,,,,,,,,,,,,,,,,,,,,,,,,,,569.8030291589994,None,569.8030291589994,None,569.8030291589994,None,c,1,1.1892106380000769,571.3372146649999,None,571.3372146649999,None,571.3372146649999,None,572.5863382489997,None,572.5863382489997,None,572.5863382489997,None,572.5863382489997,None,,,,,,,,,,,,,,,,,,,,,,,,,,,,,,,,,,,,,,,,,,,,001,162,2020_Feb_25_0958,spring_faces,3.1.5,59.9541730683781,
condition files/Stage1_2.xlsx,,B2,T2,m,"['c', 'm']","['Clue', 'Monopoly']","[-0.15, 0.5]","[0.15, 0.5]",1,1,,,,,,,,,0,5,5,5,0,3,3,3,,,,,,,,,,,,,,,,,,,,,,,,,,,,,,,,,,,,,,,,,,,,,,,,,,,,,,,574.5530192299993,None,574.5530192299993,None,574.5530192299993,None,m,1,1.5420651750000616,576.0883826159998,None,576.0883826159998,None,576.0883826159998,None,577.7028145319991,None,577.7028145319991,None,577.7028145319991,None,577.7028145319991,None,,,,,,,,,,,,,,,,,,,,,,,,,,,,,,,,,,,,,,,,,,,,001,162,2020_Feb_25_0958,spring_faces,3.1.5,59.9541730683781,
condition files/Stage1_2.xlsx,,T2,B1,c,"['c', 'm']","['Clue', 'Monopoly']","[-0.15, 0.5]","[0.15, 0.5]",1,1,,,,,,,,,0,5,5,5,0,4,4,1,,,,,,,,,,,,,,,,,,,,,,,,,,,,,,,,,,,,,,,,,,,,,,,,,,,,,,,579.6528634499991,None,579.6528634499991,None,579.6528634499991,None,c,1,2.411352576000354,581.2029506579993,None,581.2029506579993,None,581.2029506579993,None,583.6700904899999,None,583.6700904899999,None,583.6700904899999,None,583.6700904899999,None,,,,,,,,,,,,,,,,,,,,,,,,,,,,,,,,,,,,,,,,,,,,001,162,2020_Feb_25_0958,spring_faces,3.1.5,59.9541730683781,
condition files/Stage1_2.xlsx,,T3,B3,c,"['c', 'm']","['Clue', 'Monopoly']","[-0.15, 0.5]","[0.15, 0.5]",1,1,,,,,,,,,0,5,5,5,0,5,5,4,,,,,,,,,,,,,,,,,,,,,,,,,,,,,,,,,,,,,,,,,,,,,,,,,,,,,,,585.6363854909996,None,585.6363854909996,None,585.6363854909996,None,c,1,1.0521273269996527,587.1702410889993,None,587.1702410889993,None,587.1702410889993,None,588.2864369899999,None,588.2864369899999,None,588.2864369899999,None,588.2864369899999,None,,,,,,,,,,,,,,,,,,,,,,,,,,,,,,,,,,,,,,,,,,,,001,162,2020_Feb_25_0958,spring_faces,3.1.5,59.9541730683781,
condition files/Stage1_2.xlsx,,B3,T4,m,"['c', 'm']","['Clue', 'Monopoly']","[-0.15, 0.5]","[0.15, 0.5]",1,1,,,,,,,,,0,5,5,5,0,6,6,6,,,,,,,,,,,,,,,,,,,,,,,,,,,,,,,,,,,,,,,,,,,,,,,,,,,,,,,590.2530564519993,None,590.2530564519993,None,590.2530564519993,None,m,1,1.6682986709993202,591.7860090619997,None,591.7860090619997,None,591.7860090619997,None,593.5359368009995,None,593.5359368009995,None,593.5359368009995,None,593.5359368009995,None,,,,,,,,,,,,,,,,,,,,,,,,,,,,,,,,,,,,,,,,,,,,001,162,2020_Feb_25_0958,spring_faces,3.1.5,59.9541730683781,
condition files/Stage1_2.xlsx,,T1,B2,m,"['c', 'm']","['Clue', 'Monopoly']","[-0.15, 0.5]","[0.15, 0.5]",1,1,,,,,,,,,0,5,5,5,0,7,7,2,,,,,,,,,,,,,,,,,,,,,,,,,,,,,,,,,,,,,,,,,,,,,,,,,,,,,,,595.4864214639992,None,595.4864214639992,None,595.4864214639992,None,m,1,1.265878280000834,597.0204822639998,None,597.0204822639998,None,597.0204822639998,None,598.336544328,None,598.336544328,None,598.336544328,None,598.336544328,None,,,,,,,,,,,,,,,,,,,,,,,,,,,,,,,,,,,,,,,,,,,,001,162,2020_Feb_25_0958,spring_faces,3.1.5,59.9541730683781,
condition files/Stage1_1.xlsx,,B3,T3,c,"['c', 'm']","['Clue', 'Monopoly']","[-0.15, 0.5]","[0.15, 0.5]",1,1,,,,,,,,,0,6,6,6,0,0,0,4,,,,,,,,,,,,,,,,,,,,,,,,,,,,,,,,,,,,,,,,,,,,,,,,,,,,,,,600.3200951989993,None,600.3200951989993,None,600.3200951989993,None,c,1,0.9610731909997412,601.8532877969992,None,601.8532877969992,None,601.8532877969992,None,602.8858764839997,None,602.8858764839997,None,602.8858764839997,None,602.8858764839997,None,,,,,,,,,,,,,,,,,,,,,,,,,,,,,,,,,,,,,,,,,,,,001,162,2020_Feb_25_0958,spring_faces,3.1.5,59.9541730683781,
condition files/Stage1_1.xlsx,,T4,B3,m,"['c', 'm']","['Clue', 'Monopoly']","[-0.15, 0.5]","[0.15, 0.5]",1,1,,,,,,,,,0,6,6,6,0,1,1,6,,,,,,,,,,,,,,,,,,,,,,,,,,,,,,,,,,,,,,,,,,,,,,,,,,,,,,,604.8362776819995,None,604.8362776819995,None,604.8362776819995,None,m,1,2.8608310739991794,606.3696141579994,None,606.3696141579994,None,606.3696141579994,None,609.2879951239993,None,609.2879951239993,None,609.2879951239993,None,609.2879951239993,None,,,,,,,,,,,,,,,,,,,,,,,,,,,,,,,,,,,,,,,,,,,,001,162,2020_Feb_25_0958,spring_faces,3.1.5,59.9541730683781,
condition files/Stage1_1.xlsx,,B2,T1,m,"['c', 'm']","['Clue', 'Monopoly']","[-0.15, 0.5]","[0.15, 0.5]",1,1,,,,,,,,,0,6,6,6,0,2,2,2,,,,,,,,,,,,,,,,,,,,,,,,,,,,,,,,,,,,,,,,,,,,,,,,,,,,,,,611.2529737429995,None,611.2529737429995,None,611.2529737429995,None,m,1,1.0525985920003222,612.7857386849992,None,612.7857386849992,None,612.7857386849992,None,613.9029261189999,None,613.9029261189999,None,613.9029261189999,None,613.9029261189999,None,,,,,,,,,,,,,,,,,,,,,,,,,,,,,,,,,,,,,,,,,,,,001,162,2020_Feb_25_0958,spring_faces,3.1.5,59.9541730683781,
condition files/Stage1_1.xlsx,,T2,B2,m,"['c', 'm']","['Clue', 'Monopoly']","[-0.15, 0.5]","[0.15, 0.5]",1,1,,,,,,,,,0,6,6,6,0,3,3,3,,,,,,,,,,,,,,,,,,,,,,,,,,,,,,,,,,,,,,,,,,,,,,,,,,,,,,,615.8695884039998,None,615.8695884039998,None,615.8695884039998,None,m,1,1.2503148559999318,617.4039816539998,None,617.4039816539998,None,617.4039816539998,None,618.719941112,None,618.719941112,None,618.719941112,None,618.719941112,None,,,,,,,,,,,,,,,,,,,,,,,,,,,,,,,,,,,,,,,,,,,,001,162,2020_Feb_25_0958,spring_faces,3.1.5,59.9541730683781,
condition files/Stage1_1.xlsx,,B4,T4,m,"['c', 'm']","['Clue', 'Monopoly']","[-0.15, 0.5]","[0.15, 0.5]",1,1,,,,,,,,,0,6,6,6,0,4,4,7,,,,,,,,,,,,,,,,,,,,,,,,,,,,,,,,,,,,,,,,,,,,,,,,,,,,,,,620.6862266149992,None,620.6862266149992,None,620.6862266149992,None,m,1,2.9456218889999946,622.2367200899998,None,622.2367200899998,None,622.2367200899998,None,625.2360137759997,None,625.2360137759997,None,625.2360137759997,None,625.2360137759997,None,,,,,,,,,,,,,,,,,,,,,,,,,,,,,,,,,,,,,,,,,,,,001,162,2020_Feb_25_0958,spring_faces,3.1.5,59.9541730683781,
condition files/Stage1_1.xlsx,,B1,T2,c,"['c', 'm']","['Clue', 'Monopoly']","[-0.15, 0.5]","[0.15, 0.5]",1,1,,,,,,,,,0,6,6,6,0,5,5,1,,,,,,,,,,,,,,,,,,,,,,,,,,,,,,,,,,,,,,,,,,,,,,,,,,,,,,,627.2030690329993,None,627.2030690329993,None,627.2030690329993,None,c,1,1.053327607999563,628.7370379479999,None,628.7370379479999,None,628.7370379479999,None,629.8559909649994,None,629.8559909649994,None,629.8559909649994,None,629.8559909649994,None,,,,,,,,,,,,,,,,,,,,,,,,,,,,,,,,,,,,,,,,,,,,001,162,2020_Feb_25_0958,spring_faces,3.1.5,59.9541730683781,
condition files/Stage1_1.xlsx,,T3,B4,c,"['c', 'm']","['Clue', 'Monopoly']","[-0.15, 0.5]","[0.15, 0.5]",1,1,,,,,,,,,0,6,6,6,0,6,6,5,,,,,,,,,,,,,,,,,,,,,,,,,,,,,,,,,,,,,,,,,,,,,,,,,,,,,,,631.8195971309997,None,631.8195971309997,None,631.8195971309997,None,c,1,1.0932168689996615,633.3531453989999,None,633.3531453989999,None,633.3531453989999,None,634.5032769649997,None,634.5032769649997,None,634.5032769649997,None,634.5032769649997,None,,,,,,,,,,,,,,,,,,,,,,,,,,,,,,,,,,,,,,,,,,,,001,162,2020_Feb_25_0958,spring_faces,3.1.5,59.9541730683781,
condition files/Stage1_1.xlsx,,T1,B1,c,"['c', 'm']","['Clue', 'Monopoly']","[-0.15, 0.5]","[0.15, 0.5]",1,1,,,,,,,,,0,6,6,6,0,7,7,0,,,,,,,,,,,,,,,,,,,,,,,,,,,,,,,,,,,,,,,,,,,,,,,,,,,,,,,636.4698059509992,None,636.4698059509992,None,636.4698059509992,None,c,1,1.2420344769998337,638.0043307329997,None,638.0043307329997,None,638.0043307329997,None,639.3028619339993,None,639.3028619339993,None,639.3028619339993,None,639.3028619339993,None,,,,,,,,,,,,,,,,,,,,,,,,,,,,,,,,,,,,,,,,,,,,001,162,2020_Feb_25_0958,spring_faces,3.1.5,59.9541730683781,
condition files/Stage1_2.xlsx,,T3,B3,c,"['c', 'm']","['Clue', 'Monopoly']","[-0.15, 0.5]","[0.15, 0.5]",1,1,,,,,,,,,0,7,7,7,0,0,0,4,,,,,,,,,,,,,,,,,,,,,,,,,,,,,,,,,,,,,,,,,,,,,,,,,,,,,,,641.2862772659992,None,641.2862772659992,None,641.2862772659992,None,c,1,0.9532871890005481,642.8210866769996,None,642.8210866769996,None,642.8210866769996,None,643.8360905729996,None,643.8360905729996,None,643.8360905729996,None,643.8360905729996,None,,,,,,,,,,,,,,,,,,,,,,,,,,,,,,,,,,,,,,,,,,,,001,162,2020_Feb_25_0958,spring_faces,3.1.5,59.9541730683781,
condition files/Stage1_2.xlsx,,B1,T1,c,"['c', 'm']","['Clue', 'Monopoly']","[-0.15, 0.5]","[0.15, 0.5]",1,1,,,,,,,,,0,7,7,7,0,1,1,0,,,,,,,,,,,,,,,,,,,,,,,,,,,,,,,,,,,,,,,,,,,,,,,,,,,,,,,645.8031134969997,None,645.8031134969997,None,645.8031134969997,None,c,1,0.9179350299991711,647.3364035789991,None,647.3364035789991,None,647.3364035789991,None,648.3198124089995,None,648.3198124089995,None,648.3198124089995,None,648.3198124089995,None,,,,,,,,,,,,,,,,,,,,,,,,,,,,,,,,,,,,,,,,,,,,001,162,2020_Feb_25_0958,spring_faces,3.1.5,59.9541730683781,
condition files/Stage1_2.xlsx,,T2,B1,c,"['c', 'm']","['Clue', 'Monopoly']","[-0.15, 0.5]","[0.15, 0.5]",1,1,,,,,,,,,0,7,7,7,0,2,2,1,,,,,,,,,,,,,,,,,,,,,,,,,,,,,,,,,,,,,,,,,,,,,,,,,,,,,,,650.2856956579999,None,650.2856956579999,None,650.2856956579999,None,c,1,1.1871212329997434,651.8192296009993,None,651.8192296009993,None,651.8192296009993,None,653.0699128709994,None,653.0699128709994,None,653.0699128709994,None,653.0699128709994,None,,,,,,,,,,,,,,,,,,,,,,,,,,,,,,,,,,,,,,,,,,,,001,162,2020_Feb_25_0958,spring_faces,3.1.5,59.9541730683781,
condition files/Stage1_2.xlsx,,T4,B4,m,"['c', 'm']","['Clue', 'Monopoly']","[-0.15, 0.5]","[0.15, 0.5]",1,1,,,,,,,,,0,7,7,7,0,3,3,7,,,,,,,,,,,,,,,,,,,,,,,,,,,,,,,,,,,,,,,,,,,,,,,,,,,,,,,655.0363260959994,None,655.0363260959994,None,655.0363260959994,None,m,1,1.4442728000003626,656.5700631,None,656.5700631,None,656.5700631,None,658.0868734209998,None,658.0868734209998,None,658.0868734209998,None,658.0868734209998,None,,,,,,,,,,,,,,,,,,,,,,,,,,,,,,,,,,,,,,,,,,,,001,162,2020_Feb_25_0958,spring_faces,3.1.5,59.9541730683781,
condition files/Stage1_2.xlsx,,B4,T3,c,"['c', 'm']","['Clue', 'Monopoly']","[-0.15, 0.5]","[0.15, 0.5]",1,1,,,,,,,,,0,7,7,7,0,4,4,5,,,,,,,,,,,,,,,,,,,,,,,,,,,,,,,,,,,,,,,,,,,,,,,,,,,,,,,660.0364124559992,None,660.0364124559992,None,660.0364124559992,None,c,1,1.1482125379998251,661.5701486419994,None,661.5701486419994,None,661.5701486419994,None,662.7715070369995,None,662.7715070369995,None,662.7715070369995,None,662.7715070369995,None,,,,,,,,,,,,,,,,,,,,,,,,,,,,,,,,,,,,,,,,,,,,001,162,2020_Feb_25_0958,spring_faces,3.1.5,59.9541730683781,
condition files/Stage1_2.xlsx,,T1,B2,m,"['c', 'm']","['Clue', 'Monopoly']","[-0.15, 0.5]","[0.15, 0.5]",1,1,,,,,,,,,0,7,7,7,0,5,5,2,,,,,,,,,,,,,,,,,,,,,,,,,,,,,,,,,,,,,,,,,,,,,,,,,,,,,,,664.7363481509992,None,664.7363481509992,None,664.7363481509992,None,m,1,1.1842790589998913,666.2700336279995,None,666.2700336279995,None,666.2700336279995,None,667.5366835529994,None,667.5366835529994,None,667.5366835529994,None,667.5366835529994,None,,,,,,,,,,,,,,,,,,,,,,,,,,,,,,,,,,,,,,,,,,,,001,162,2020_Feb_25_0958,spring_faces,3.1.5,59.9541730683781,
condition files/Stage1_2.xlsx,,B2,T2,m,"['c', 'm']","['Clue', 'Monopoly']","[-0.15, 0.5]","[0.15, 0.5]",1,1,,,,,,,,,0,7,7,7,0,6,6,3,,,,,,,,,,,,,,,,,,,,,,,,,,,,,,,,,,,,,,,,,,,,,,,,,,,,,,,669.4859236109996,None,669.4859236109996,None,669.4859236109996,None,m,1,0.8324710529996082,671.0218155099992,None,671.0218155099992,None,671.0218155099992,None,671.9201046779999,None,671.9201046779999,None,671.9201046779999,None,671.9201046779999,None,,,,,,,,,,,,,,,,,,,,,,,,,,,,,,,,,,,,,,,,,,,,001,162,2020_Feb_25_0958,spring_faces,3.1.5,59.9541730683781,
condition files/Stage1_2.xlsx,,B3,T4,m,"['c', 'm']","['Clue', 'Monopoly']","[-0.15, 0.5]","[0.15, 0.5]",1,1,,,,,,,,,0,7,7,7,0,7,7,6,,,,,,,,,,,,,,,,,,,,,,,,,,,,,,,,,,,,,,,,,,,,,,,,,,,,,,,673.8864322809995,None,673.8864322809995,None,673.8864322809995,None,m,1,1.6826070220004112,675.4197463909995,None,675.4197463909995,None,675.4197463909995,None,677.1530758949993,None,677.1530758949993,None,677.1530758949993,None,677.1530758949993,None,,,,,,,,,,,,,,,,,,,,,,,,,,,,,,,,,,,,,,,,,,,,001,162,2020_Feb_25_0958,spring_faces,3.1.5,59.9541730683781,
condition files/Stage1_1.xlsx,,B3,T3,c,"['c', 'm']","['Clue', 'Monopoly']","[-0.15, 0.5]","[0.15, 0.5]",1,1,,,,,,,,,0,8,8,8,0,0,0,4,,,,,,,,,,,,,,,,,,,,,,,,,,,,,,,,,,,,,,,,,,,,,,,,,,,,,,,679.1360754059997,None,679.1360754059997,None,679.1360754059997,None,c,1,0.7037532009999268,680.6866116699994,None,680.6866116699994,None,680.6866116699994,None,681.4692512889997,None,681.4692512889997,None,681.4692512889997,None,681.4692512889997,None,,,,,,,,,,,,,,,,,,,,,,,,,,,,,,,,,,,,,,,,,,,,001,162,2020_Feb_25_0958,spring_faces,3.1.5,59.9541730683781,
condition files/Stage1_1.xlsx,,B1,T2,c,"['c', 'm']","['Clue', 'Monopoly']","[-0.15, 0.5]","[0.15, 0.5]",1,1,,,,,,,,,0,8,8,8,0,1,1,1,,,,,,,,,,,,,,,,,,,,,,,,,,,,,,,,,,,,,,,,,,,,,,,,,,,,,,,683.4195738399994,None,683.4195738399994,None,683.4195738399994,None,c,1,2.005216406000727,684.9531633589995,None,684.9531633589995,None,684.9531633589995,None,687.0193804099999,None,687.0193804099999,None,687.0193804099999,None,687.0193804099999,None,,,,,,,,,,,,,,,,,,,,,,,,,,,,,,,,,,,,,,,,,,,,001,162,2020_Feb_25_0958,spring_faces,3.1.5,59.9541730683781,
condition files/Stage1_1.xlsx,,T3,B4,c,"['c', 'm']","['Clue', 'Monopoly']","[-0.15, 0.5]","[0.15, 0.5]",1,1,,,,,,,,,0,8,8,8,0,2,2,5,,,,,,,,,,,,,,,,,,,,,,,,,,,,,,,,,,,,,,,,,,,,,,,,,,,,,,,688.9862596859994,None,688.9862596859994,None,688.9862596859994,None,c,1,0.6607575449997967,690.5215747129996,None,690.5215747129996,None,690.5215747129996,None,691.2364210359992,None,691.2364210359992,None,691.2364210359992,None,691.2364210359992,None,,,,,,,,,,,,,,,,,,,,,,,,,,,,,,,,,,,,,,,,,,,,001,162,2020_Feb_25_0958,spring_faces,3.1.5,59.9541730683781,
condition files/Stage1_1.xlsx,,T4,B3,m,"['c', 'm']","['Clue', 'Monopoly']","[-0.15, 0.5]","[0.15, 0.5]",1,1,,,,,,,,,0,8,8,8,0,3,3,6,,,,,,,,,,,,,,,,,,,,,,,,,,,,,,,,,,,,,,,,,,,,,,,,,,,,,,,693.2029307849998,None,693.2029307849998,None,693.2029307849998,None,m,1,1.517198009999447,694.7531208009996,None,694.7531208009996,None,694.7531208009996,None,696.3377671649996,None,696.3377671649996,None,696.3377671649996,None,696.3377671649996,None,,,,,,,,,,,,,,,,,,,,,,,,,,,,,,,,,,,,,,,,,,,,001,162,2020_Feb_25_0958,spring_faces,3.1.5,59.9541730683781,
condition files/Stage1_1.xlsx,,B2,T1,m,"['c', 'm']","['Clue', 'Monopoly']","[-0.15, 0.5]","[0.15, 0.5]",1,1,,,,,,,,,0,8,8,8,0,4,4,2,,,,,,,,,,,,,,,,,,,,,,,,,,,,,,,,,,,,,,,,,,,,,,,,,,,,,,,698.3030833199991,None,698.3030833199991,None,698.3030833199991,None,m,1,1.2498527520001517,699.836527894,None,699.836527894,None,699.836527894,None,701.1360409869994,None,701.1360409869994,None,701.1360409869994,None,701.1360409869994,None,,,,,,,,,,,,,,,,,,,,,,,,,,,,,,,,,,,,,,,,,,,,001,162,2020_Feb_25_0958,spring_faces,3.1.5,59.9541730683781,
condition files/Stage1_1.xlsx,,T2,B2,m,"['c', 'm']","['Clue', 'Monopoly']","[-0.15, 0.5]","[0.15, 0.5]",1,1,,,,,,,,,0,8,8,8,0,5,5,3,,,,,,,,,,,,,,,,,,,,,,,,,,,,,,,,,,,,,,,,,,,,,,,,,,,,,,,703.1024184629996,None,703.1024184629996,None,703.1024184629996,None,m,1,0.8001147470004071,704.6382316399995,None,704.6382316399995,None,704.6382316399995,None,705.503485147,None,705.503485147,None,705.503485147,None,705.503485147,None,,,,,,,,,,,,,,,,,,,,,,,,,,,,,,,,,,,,,,,,,,,,001,162,2020_Feb_25_0958,spring_faces,3.1.5,59.9541730683781,
condition files/Stage1_1.xlsx,,B4,T4,m,"['c', 'm']","['Clue', 'Monopoly']","[-0.15, 0.5]","[0.15, 0.5]",1,1,,,,,,,,,0,8,8,8,0,6,6,7,,,,,,,,,,,,,,,,,,,,,,,,,,,,,,,,,,,,,,,,,,,,,,,,,,,,,,,707.4696036739997,None,707.4696036739997,None,707.4696036739997,None,m,1,1.009321294000074,709.0050102429996,None,709.0050102429996,None,709.0050102429996,None,710.0695470679993,None,710.0695470679993,None,710.0695470679993,None,710.0695470679993,None,,,,,,,,,,,,,,,,,,,,,,,,,,,,,,,,,,,,,,,,,,,,001,162,2020_Feb_25_0958,spring_faces,3.1.5,59.9541730683781,
condition files/Stage1_1.xlsx,,T1,B1,c,"['c', 'm']","['Clue', 'Monopoly']","[-0.15, 0.5]","[0.15, 0.5]",1,1,,,,,,,,,0,8,8,8,0,7,7,0,,,,,,,,,,,,,,,,,,,,,,,,,,,,,,,,,,,,,,,,,,,,,,,,,,,,,,,712.0362676389996,None,712.0362676389996,None,712.0362676389996,None,c,1,0.8928936809998049,713.5695345739996,None,713.5695345739996,None,713.5695345739996,None,714.522062991,None,714.522062991,None,714.522062991,None,714.522062991,None,,,,,,,,,,,,,,,,,,,,,,,,,,,,,,,,,,,,,,,,,,,,001,162,2020_Feb_25_0958,spring_faces,3.1.5,59.9541730683781,
condition files/Stage1_2.xlsx,,B4,T3,c,"['c', 'm']","['Clue', 'Monopoly']","[-0.15, 0.5]","[0.15, 0.5]",1,1,,,,,,,,,0,9,9,9,0,0,0,5,,,,,,,,,,,,,,,,,,,,,,,,,,,,,,,,,,,,,,,,,,,,,,,,,,,,,,,716.5028026799991,None,716.5028026799991,None,716.5028026799991,None,c,1,0.7276842470000702,718.0388797589994,None,718.0388797589994,None,718.0388797589994,None,718.8193135969996,None,718.8193135969996,None,718.8193135969996,None,718.8193135969996,None,,,,,,,,,,,,,,,,,,,,,,,,,,,,,,,,,,,,,,,,,,,,001,162,2020_Feb_25_0958,spring_faces,3.1.5,59.9541730683781,
condition files/Stage1_2.xlsx,,B1,T1,c,"['c', 'm']","['Clue', 'Monopoly']","[-0.15, 0.5]","[0.15, 0.5]",1,1,,,,,,,,,0,9,9,9,0,1,1,0,,,,,,,,,,,,,,,,,,,,,,,,,,,,,,,,,,,,,,,,,,,,,,,,,,,,,,,720.7862229359998,None,720.7862229359998,None,720.7862229359998,None,c,1,0.9114333900006386,722.3190073449996,None,722.3190073449996,None,722.3190073449996,None,723.2862029849994,None,723.2862029849994,None,723.2862029849994,None,723.2862029849994,None,,,,,,,,,,,,,,,,,,,,,,,,,,,,,,,,,,,,,,,,,,,,001,162,2020_Feb_25_0958,spring_faces,3.1.5,59.9541730683781,
condition files/Stage1_2.xlsx,,B3,T4,m,"['c', 'm']","['Clue', 'Monopoly']","[-0.15, 0.5]","[0.15, 0.5]",1,1,,,,,,,,,0,9,9,9,0,2,2,6,,,,,,,,,,,,,,,,,,,,,,,,,,,,,,,,,,,,,,,,,,,,,,,,,,,,,,,725.2528664019992,None,725.2528664019992,None,725.2528664019992,None,m,1,0.8123261639993871,726.786033849,None,726.786033849,None,726.786033849,None,727.6696162899998,None,727.6696162899998,None,727.6696162899998,None,727.6696162899998,None,,,,,,,,,,,,,,,,,,,,,,,,,,,,,,,,,,,,,,,,,,,,001,162,2020_Feb_25_0958,spring_faces,3.1.5,59.9541730683781,
condition files/Stage1_2.xlsx,,T3,B3,c,"['c', 'm']","['Clue', 'Monopoly']","[-0.15, 0.5]","[0.15, 0.5]",1,1,,,,,,,,,0,9,9,9,0,3,3,4,,,,,,,,,,,,,,,,,,,,,,,,,,,,,,,,,,,,,,,,,,,,,,,,,,,,,,,729.6195983969992,None,729.6195983969992,None,729.6195983969992,None,c,1,0.6525639120000051,731.1697812549992,None,731.1697812549992,None,731.1697812549992,None,731.9033794119996,None,731.9033794119996,None,731.9033794119996,None,731.9033794119996,None,,,,,,,,,,,,,,,,,,,,,,,,,,,,,,,,,,,,,,,,,,,,001,162,2020_Feb_25_0958,spring_faces,3.1.5,59.9541730683781,
condition files/Stage1_2.xlsx,,T1,B2,m,"['c', 'm']","['Clue', 'Monopoly']","[-0.15, 0.5]","[0.15, 0.5]",1,1,,,,,,,,,0,9,9,9,0,4,4,2,,,,,,,,,,,,,,,,,,,,,,,,,,,,,,,,,,,,,,,,,,,,,,,,,,,,,,,733.8529650789997,None,733.8529650789997,None,733.8529650789997,None,m,1,1.059180653999647,735.3872361859994,None,735.3872361859994,None,735.3872361859994,None,736.5035135919998,None,736.5035135919998,None,736.5035135919998,None,736.5035135919998,None,,,,,,,,,,,,,,,,,,,,,,,,,,,,,,,,,,,,,,,,,,,,001,162,2020_Feb_25_0958,spring_faces,3.1.5,59.9541730683781,
condition files/Stage1_2.xlsx,,T2,B1,c,"['c', 'm']","['Clue', 'Monopoly']","[-0.15, 0.5]","[0.15, 0.5]",1,1,,,,,,,,,0,9,9,9,0,5,5,1,,,,,,,,,,,,,,,,,,,,,,,,,,,,,,,,,,,,,,,,,,,,,,,,,,,,,,,738.4695640379996,None,738.4695640379996,None,738.4695640379996,None,c,1,0.7944529380001768,740.0038937209993,None,740.0038937209993,None,740.0038937209993,None,740.8696182559997,None,740.8696182559997,None,740.8696182559997,None,740.8696182559997,None,,,,,,,,,,,,,,,,,,,,,,,,,,,,,,,,,,,,,,,,,,,,001,162,2020_Feb_25_0958,spring_faces,3.1.5,59.9541730683781,
condition files/Stage1_2.xlsx,,T4,B4,m,"['c', 'm']","['Clue', 'Monopoly']","[-0.15, 0.5]","[0.15, 0.5]",1,1,,,,,,,,,0,9,9,9,0,6,6,7,,,,,,,,,,,,,,,,,,,,,,,,,,,,,,,,,,,,,,,,,,,,,,,,,,,,,,,742.8194693759997,None,742.8194693759997,None,742.8194693759997,None,m,1,0.6215297600001577,744.3528350369997,None,744.3528350369997,None,744.3528350369997,None,745.0531174739999,None,745.0531174739999,None,745.0531174739999,None,745.0531174739999,None,,,,,,,,,,,,,,,,,,,,,,,,,,,,,,,,,,,,,,,,,,,,001,162,2020_Feb_25_0958,spring_faces,3.1.5,59.9541730683781,
condition files/Stage1_2.xlsx,,B2,T2,m,"['c', 'm']","['Clue', 'Monopoly']","[-0.15, 0.5]","[0.15, 0.5]",1,1,,,,,,,,,0,9,9,9,0,7,7,3,,,,,,,,,,,,,,,,,,,,,,,,,,,,,,,,,,,,,,,,,,,,,,,,,,,,,,,747.0030930489993,None,747.0030930489993,None,747.0030930489993,None,m,1,0.7101318049999463,748.5362929779994,None,748.5362929779994,None,748.5362929779994,None,749.3030515309993,None,749.3030515309993,None,749.3030515309993,None,749.3030515309993,None,,,,,,,,,,,,,,,,,,,,,,,,,,,,,,,,,,,,,,,,,,,,001,162,2020_Feb_25_0958,spring_faces,3.1.5,59.9541730683781,
condition files/Stage1_1.xlsx,,T3,B4,c,"['c', 'm']","['Clue', 'Monopoly']","[-0.15, 0.5]","[0.15, 0.5]",1,1,,,,,,,,,0,10,10,10,0,0,0,5,,,,,,,,,,,,,,,,,,,,,,,,,,,,,,,,,,,,,,,,,,,,,,,,,,,,,,,751.2867302779996,None,751.2867302779996,None,751.2867302779996,None,c,1,0.8260611919995426,752.8363558109995,None,752.8363558109995,None,752.8363558109995,None,753.7364786039998,None,753.7364786039998,None,753.7364786039998,None,753.7364786039998,None,,,,,,,,,,,,,,,,,,,,,,,,,,,,,,,,,,,,,,,,,,,,001,162,2020_Feb_25_0958,spring_faces,3.1.5,59.9541730683781,
condition files/Stage1_1.xlsx,,B2,T1,m,"['c', 'm']","['Clue', 'Monopoly']","[-0.15, 0.5]","[0.15, 0.5]",1,1,,,,,,,,,0,10,10,10,0,1,1,2,,,,,,,,,,,,,,,,,,,,,,,,,,,,,,,,,,,,,,,,,,,,,,,,,,,,,,,755.6859480989997,None,755.6859480989997,None,755.6859480989997,None,m,1,1.6420756620000247,757.2203974979993,None,757.2203974979993,None,757.2203974979993,None,758.9210964079994,None,758.9210964079994,None,758.9210964079994,None,758.9210964079994,None,,,,,,,,,,,,,,,,,,,,,,,,,,,,,,,,,,,,,,,,,,,,001,162,2020_Feb_25_0958,spring_faces,3.1.5,59.9541730683781,
condition files/Stage1_1.xlsx,,T2,B2,m,"['c', 'm']","['Clue', 'Monopoly']","[-0.15, 0.5]","[0.15, 0.5]",1,1,,,,,,,,,0,10,10,10,0,2,2,3,,,,,,,,,,,,,,,,,,,,,,,,,,,,,,,,,,,,,,,,,,,,,,,,,,,,,,,760.8863066939994,None,760.8863066939994,None,760.8863066939994,None,m,1,1.0017431920005038,762.4365465219998,None,762.4365465219998,None,762.4365465219998,None,763.5031637299999,None,763.5031637299999,None,763.5031637299999,None,763.5031637299999,None,,,,,,,,,,,,,,,,,,,,,,,,,,,,,,,,,,,,,,,,,,,,001,162,2020_Feb_25_0958,spring_faces,3.1.5,59.9541730683781,
condition files/Stage1_1.xlsx,,T4,B3,m,"['c', 'm']","['Clue', 'Monopoly']","[-0.15, 0.5]","[0.15, 0.5]",1,1,,,,,,,,,0,10,10,10,0,3,3,6,,,,,,,,,,,,,,,,,,,,,,,,,,,,,,,,,,,,,,,,,,,,,,,,,,,,,,,765.4690997299995,None,765.4690997299995,None,765.4690997299995,None,m,1,0.802882187999785,767.0194710639998,None,767.0194710639998,None,767.0194710639998,None,767.8861495309993,None,767.8861495309993,None,767.8861495309993,None,767.8861495309993,None,,,,,,,,,,,,,,,,,,,,,,,,,,,,,,,,,,,,,,,,,,,,001,162,2020_Feb_25_0958,spring_faces,3.1.5,59.9541730683781,
condition files/Stage1_1.xlsx,,B3,T3,c,"['c', 'm']","['Clue', 'Monopoly']","[-0.15, 0.5]","[0.15, 0.5]",1,1,,,,,,,,,0,10,10,10,0,4,4,4,,,,,,,,,,,,,,,,,,,,,,,,,,,,,,,,,,,,,,,,,,,,,,,,,,,,,,,769.852838887,None,769.852838887,None,769.852838887,None,c,1,0.8036637310005972,771.386717419,None,771.386717419,None,771.386717419,None,772.2695571429995,None,772.2695571429995,None,772.2695571429995,None,772.2695571429995,None,,,,,,,,,,,,,,,,,,,,,,,,,,,,,,,,,,,,,,,,,,,,001,162,2020_Feb_25_0958,spring_faces,3.1.5,59.9541730683781,
condition files/Stage1_1.xlsx,,B4,T4,m,"['c', 'm']","['Clue', 'Monopoly']","[-0.15, 0.5]","[0.15, 0.5]",1,1,,,,,,,,,0,10,10,10,0,5,5,7,,,,,,,,,,,,,,,,,,,,,,,,,,,,,,,,,,,,,,,,,,,,,,,,,,,,,,,774.2196694619997,None,774.2196694619997,None,774.2196694619997,None,m,1,0.7092772759997388,775.7691475839993,None,775.7691475839993,None,775.7691475839993,None,776.5375568199997,None,776.5375568199997,None,776.5375568199997,None,776.5375568199997,None,,,,,,,,,,,,,,,,,,,,,,,,,,,,,,,,,,,,,,,,,,,,001,162,2020_Feb_25_0958,spring_faces,3.1.5,59.9541730683781,
condition files/Stage1_1.xlsx,,B1,T2,c,"['c', 'm']","['Clue', 'Monopoly']","[-0.15, 0.5]","[0.15, 0.5]",1,1,,,,,,,,,0,10,10,10,0,6,6,1,,,,,,,,,,,,,,,,,,,,,,,,,,,,,,,,,,,,,,,,,,,,,,,,,,,,,,,778.5030472399994,None,778.5030472399994,None,778.5030472399994,None,c,1,1.2091679619998104,780.0532434749994,None,780.0532434749994,None,780.0532434749994,None,781.3226172319992,None,781.3226172319992,None,781.3226172319992,None,781.3226172319992,None,,,,,,,,,,,,,,,,,,,,,,,,,,,,,,,,,,,,,,,,,,,,001,162,2020_Feb_25_0958,spring_faces,3.1.5,59.9541730683781,
condition files/Stage1_1.xlsx,,T1,B1,c,"['c', 'm']","['Clue', 'Monopoly']","[-0.15, 0.5]","[0.15, 0.5]",1,1,,,,,,,,,0,10,10,10,0,7,7,0,,,,,,,,,,,,,,,,,,,,,,,,,,,,,,,,,,,,,,,,,,,,,,,,,,,,,,,783.2857901649995,None,783.2857901649995,None,783.2857901649995,None,c,1,0.731269212999905,784.8190962889994,None,784.8190962889994,None,784.8190962889994,None,785.6029660579998,None,785.6029660579998,None,785.6029660579998,None,785.6029660579998,None,,,,,,,,,,,,,,,,,,,,,,,,,,,,,,,,,,,,,,,,,,,,001,162,2020_Feb_25_0958,spring_faces,3.1.5,59.9541730683781,
condition files/Stage1_2.xlsx,,T1,B2,m,"['c', 'm']","['Clue', 'Monopoly']","[-0.15, 0.5]","[0.15, 0.5]",1,1,,,,,,,,,0,11,11,11,0,0,0,2,,,,,,,,,,,,,,,,,,,,,,,,,,,,,,,,,,,,,,,,,,,,,,,,,,,,,,,787.5864310759998,None,787.5864310759998,None,787.5864310759998,None,m,1,1.2128140989998428,789.1215554909995,None,789.1215554909995,None,789.1215554909995,None,790.3888522309999,None,790.3888522309999,None,790.3888522309999,None,790.3888522309999,None,,,,,,,,,,,,,,,,,,,,,,,,,,,,,,,,,,,,,,,,,,,,001,162,2020_Feb_25_0958,spring_faces,3.1.5,59.9541730683781,
condition files/Stage1_2.xlsx,,B2,T2,m,"['c', 'm']","['Clue', 'Monopoly']","[-0.15, 0.5]","[0.15, 0.5]",1,1,,,,,,,,,0,11,11,11,0,1,1,3,,,,,,,,,,,,,,,,,,,,,,,,,,,,,,,,,,,,,,,,,,,,,,,,,,,,,,,792.3529982189993,None,792.3529982189993,None,792.3529982189993,None,m,1,0.9285113630003252,793.8858326639993,None,793.8858326639993,None,793.8858326639993,None,794.869350766,None,794.869350766,None,794.869350766,None,794.869350766,None,,,,,,,,,,,,,,,,,,,,,,,,,,,,,,,,,,,,,,,,,,,,001,162,2020_Feb_25_0958,spring_faces,3.1.5,59.9541730683781,
condition files/Stage1_2.xlsx,,T3,B3,c,"['c', 'm']","['Clue', 'Monopoly']","[-0.15, 0.5]","[0.15, 0.5]",1,1,,,,,,,,,0,11,11,11,0,2,2,4,,,,,,,,,,,,,,,,,,,,,,,,,,,,,,,,,,,,,,,,,,,,,,,,,,,,,,,796.8366741739992,None,796.8366741739992,None,796.8366741739992,None,c,1,0.7642456610001318,798.3701041479999,None,798.3701041479999,None,798.3701041479999,None,799.188661792,None,799.188661792,None,799.188661792,None,799.188661792,None,,,,,,,,,,,,,,,,,,,,,,,,,,,,,,,,,,,,,,,,,,,,001,162,2020_Feb_25_0958,spring_faces,3.1.5,59.9541730683781,
condition files/Stage1_2.xlsx,,B4,T3,c,"['c', 'm']","['Clue', 'Monopoly']","[-0.15, 0.5]","[0.15, 0.5]",1,1,,,,,,,,,0,11,11,11,0,3,3,5,,,,,,,,,,,,,,,,,,,,,,,,,,,,,,,,,,,,,,,,,,,,,,,,,,,,,,,801.1529973719998,None,801.1529973719998,None,801.1529973719998,None,c,1,0.7998086170000533,802.7025223719993,None,802.7025223719993,None,802.7025223719993,None,803.5530629779996,None,803.5530629779996,None,803.5530629779996,None,803.5530629779996,None,,,,,,,,,,,,,,,,,,,,,,,,,,,,,,,,,,,,,,,,,,,,001,162,2020_Feb_25_0958,spring_faces,3.1.5,59.9541730683781,
condition files/Stage1_2.xlsx,,T2,B1,c,"['c', 'm']","['Clue', 'Monopoly']","[-0.15, 0.5]","[0.15, 0.5]",1,1,,,,,,,,,0,11,11,11,0,4,4,1,,,,,,,,,,,,,,,,,,,,,,,,,,,,,,,,,,,,,,,,,,,,,,,,,,,,,,,805.5195899309992,None,805.5195899309992,None,805.5195899309992,None,c,1,0.769267860000582,807.0531024319998,None,807.0531024319998,None,807.0531024319998,None,807.8860365839992,None,807.8860365839992,None,807.8860365839992,None,807.8860365839992,None,,,,,,,,,,,,,,,,,,,,,,,,,,,,,,,,,,,,,,,,,,,,001,162,2020_Feb_25_0958,spring_faces,3.1.5,59.9541730683781,
condition files/Stage1_2.xlsx,,B3,T4,m,"['c', 'm']","['Clue', 'Monopoly']","[-0.15, 0.5]","[0.15, 0.5]",1,1,,,,,,,,,0,11,11,11,0,5,5,6,,,,,,,,,,,,,,,,,,,,,,,,,,,,,,,,,,,,,,,,,,,,,,,,,,,,,,,809.8522954939999,None,809.8522954939999,None,809.8522954939999,None,m,1,0.9322115259992643,811.3861324219997,None,811.3861324219997,None,811.3861324219997,None,812.3701784699997,None,812.3701784699997,None,812.3701784699997,None,812.3701784699997,None,,,,,,,,,,,,,,,,,,,,,,,,,,,,,,,,,,,,,,,,,,,,001,162,2020_Feb_25_0958,spring_faces,3.1.5,59.9541730683781,
condition files/Stage1_2.xlsx,,T4,B4,m,"['c', 'm']","['Clue', 'Monopoly']","[-0.15, 0.5]","[0.15, 0.5]",1,1,,,,,,,,,0,11,11,11,0,6,6,7,,,,,,,,,,,,,,,,,,,,,,,,,,,,,,,,,,,,,,,,,,,,,,,,,,,,,,,814.3358827079992,None,814.3358827079992,None,814.3358827079992,None,m,1,1.168884283000807,815.869441115,None,815.869441115,None,815.869441115,None,817.1035391839996,None,817.1035391839996,None,817.1035391839996,None,817.1035391839996,None,,,,,,,,,,,,,,,,,,,,,,,,,,,,,,,,,,,,,,,,,,,,001,162,2020_Feb_25_0958,spring_faces,3.1.5,59.9541730683781,
condition files/Stage1_2.xlsx,,B1,T1,c,"['c', 'm']","['Clue', 'Monopoly']","[-0.15, 0.5]","[0.15, 0.5]",1,1,,,,,,,,,0,11,11,11,0,7,7,0,,,,,,,,,,,,,,,,,,,,,,,,,,,,,,,,,,,,,,,,,,,,,,,,,,,,,,,819.0697354439999,None,819.0697354439999,None,819.0697354439999,None,c,1,1.1554705369999283,820.6029170499996,None,820.6029170499996,None,820.6029170499996,None,821.8224219519998,None,821.8224219519998,None,821.8224219519998,None,821.8224219519998,None,,,,,,,,,,,,,,,,,,,,,,,,,,,,,,,,,,,,,,,,,,,,001,162,2020_Feb_25_0958,spring_faces,3.1.5,59.9541730683781,
,,,,,,,,,,,,,,,,,,,,,,,,,,,,,,,,,,,,,,,,,,,,,,,,,,,,,,,,,,,,,,,,,,,,,,,,,,,,,,,,,,,,,,,,,,,,,,,,,,,,,,,,,,,,,,,,823.8029474339992,None,space,12.987204375000147,828.8031653629996,None,,,,,,,,,,,,,,,,,,,,,,,,,,,,,,001,162,2020_Feb_25_0958,spring_faces,3.1.5,59.9541730683781,
condition files/Stage2_1.xlsx,,T1,B1,s,"['s', 'r']","['Stratego', 'Risk']","[-0.15, 0.5]","[0.15, 0.5]",1,1,,,,,,,,,,,,,,,,,0,0,0,0,0,0,0,2,,,,,,,,,,,,,,,,,,,,,,,,,,,,,,,,,,,,,,,,,,,,,,,841.8528324389999,None,841.8528324389999,None,841.8528324389999,None,s,1,1.6042036059998281,843.3541833639993,None,843.3541833639993,None,843.3541833639993,None,845.0194608659995,None,845.0194608659995,None,845.0194608659995,None,845.0194608659995,None,,,,,,,,,,,,,,,828.8031653629996,None,,,,,,,,,,,,,,,,,,,,,,,,,,,,001,162,2020_Feb_25_0958,spring_faces,3.1.5,59.9541730683781,
condition files/Stage2_1.xlsx,,B4,T4,r,"['s', 'r']","['Stratego', 'Risk']","[-0.15, 0.5]","[0.15, 0.5]",1,1,,,,,,,,,,,,,,,,,0,0,0,0,0,1,1,5,,,,,,,,,,,,,,,,,,,,,,,,,,,,,,,,,,,,,,,,,,,,,,,846.9862886319997,None,846.9862886319997,None,846.9862886319997,None,r,1,0.9989539850002984,848.519389565,None,848.519389565,None,848.519389565,None,849.5867879729994,None,849.5867879729994,None,849.5867879729994,None,849.5867879729994,None,,,,,,,,,,,,,,,,,,,,,,,,,,,,,,,,,,,,,,,,,,,,001,162,2020_Feb_25_0958,spring_faces,3.1.5,59.9541730683781,
condition files/Stage2_1.xlsx,,T5,B5,s,"['s', 'r']","['Stratego', 'Risk']","[-0.15, 0.5]","[0.15, 0.5]",1,1,,,,,,,,,,,,,,,,,0,0,0,0,0,2,2,0,,,,,,,,,,,,,,,,,,,,,,,,,,,,,,,,,,,,,,,,,,,,,,,851.5362928569994,None,851.5362928569994,None,851.5362928569994,None,s,1,2.1098477710002044,853.1206036909998,None,853.1206036909998,None,853.1206036909998,None,855.3026063999996,None,855.3026063999996,None,855.3026063999996,None,855.3026063999996,None,,,,,,,,,,,,,,,,,,,,,,,,,,,,,,,,,,,,,,,,,,,,001,162,2020_Feb_25_0958,spring_faces,3.1.5,59.9541730683781,
condition files/Stage2_1.xlsx,,B2,T2,r,"['s', 'r']","['Stratego', 'Risk']","[-0.15, 0.5]","[0.15, 0.5]",1,1,,,,,,,,,,,,,,,,,0,0,0,0,0,3,3,3,,,,,,,,,,,,,,,,,,,,,,,,,,,,,,,,,,,,,,,,,,,,,,,857.2529342539992,None,857.2529342539992,None,857.2529342539992,None,r,1,1.1958900629997515,858.7864813409997,None,858.7864813409997,None,858.7864813409997,None,860.0374492169994,None,860.0374492169994,None,860.0374492169994,None,860.0374492169994,None,,,,,,,,,,,,,,,,,,,,,,,,,,,,,,,,,,,,,,,,,,,,001,162,2020_Feb_25_0958,spring_faces,3.1.5,59.9541730683781,
condition files/Stage2_1.xlsx,,T3,B3,s,"['s', 'r']","['Stratego', 'Risk']","[-0.15, 0.5]","[0.15, 0.5]",1,1,,,,,,,,,,,,,,,,,0,0,0,0,0,4,4,4,,,,,,,,,,,,,,,,,,,,,,,,,,,,,,,,,,,,,,,,,,,,,,,862.0029843489992,None,862.0029843489992,None,862.0029843489992,None,s,1,1.6296516719994543,863.5367279129996,None,863.5367279129996,None,863.5367279129996,None,865.2213112069994,None,865.2213112069994,None,865.2213112069994,None,865.2213112069994,None,,,,,,,,,,,,,,,,,,,,,,,,,,,,,,,,,,,,,,,,,,,,001,162,2020_Feb_25_0958,spring_faces,3.1.5,59.9541730683781,
condition files/Stage2_1.xlsx,,B6,T6,r,"['s', 'r']","['Stratego', 'Risk']","[-0.15, 0.5]","[0.15, 0.5]",1,1,,,,,,,,,,,,,,,,,0,0,0,0,0,5,5,1,,,,,,,,,,,,,,,,,,,,,,,,,,,,,,,,,,,,,,,,,,,,,,,867.1863010749994,None,867.1863010749994,None,867.1863010749994,None,r,1,1.3248158860005788,868.7216167429997,None,868.7216167429997,None,868.7216167429997,None,870.1042708019995,None,870.1042708019995,None,870.1042708019995,None,870.1042708019995,None,,,,,,,,,,,,,,,,,,,,,,,,,,,,,,,,,,,,,,,,,,,,001,162,2020_Feb_25_0958,spring_faces,3.1.5,59.9541730683781,
condition files/Stage2_2.xlsx,,B1,T1,s,"['s', 'r']","['Stratego', 'Risk']","[-0.15, 0.5]","[0.15, 0.5]",1,1,,,,,,,,,,,,,,,,,0,1,1,1,0,0,0,2,,,,,,,,,,,,,,,,,,,,,,,,,,,,,,,,,,,,,,,,,,,,,,,872.0867499039996,None,872.0867499039996,None,872.0867499039996,None,s,1,1.0324785960001464,873.6218729109996,None,873.6218729109996,None,873.6218729109996,None,874.7360980099993,None,874.7360980099993,None,874.7360980099993,None,874.7360980099993,None,,,,,,,,,,,,,,,,,,,,,,,,,,,,,,,,,,,,,,,,,,,,001,162,2020_Feb_25_0958,spring_faces,3.1.5,59.9541730683781,
condition files/Stage2_2.xlsx,,B3,T3,s,"['s', 'r']","['Stratego', 'Risk']","[-0.15, 0.5]","[0.15, 0.5]",1,1,,,,,,,,,,,,,,,,,0,1,1,1,0,1,1,4,,,,,,,,,,,,,,,,,,,,,,,,,,,,,,,,,,,,,,,,,,,,,,,876.686112249,None,876.686112249,None,876.686112249,None,s,1,1.249973119999595,878.2203322449996,None,878.2203322449996,None,878.2203322449996,None,879.5367494789998,None,879.5367494789998,None,879.5367494789998,None,879.5367494789998,None,,,,,,,,,,,,,,,,,,,,,,,,,,,,,,,,,,,,,,,,,,,,001,162,2020_Feb_25_0958,spring_faces,3.1.5,59.9541730683781,
condition files/Stage2_2.xlsx,,B5,T5,s,"['s', 'r']","['Stratego', 'Risk']","[-0.15, 0.5]","[0.15, 0.5]",1,1,,,,,,,,,,,,,,,,,0,1,1,1,0,2,2,0,,,,,,,,,,,,,,,,,,,,,,,,,,,,,,,,,,,,,,,,,,,,,,,881.502458985,None,881.502458985,None,881.502458985,None,r,0,2.0662981060004313,883.0360678979996,None,883.0360678979996,None,883.0360678979996,None,885.1525248649996,None,885.1525248649996,None,885.1525248649996,None,885.1525248649996,None,,,,,,,,,,,,,,,,,,,,,,,,,,,,,,,,,,,,,,,,,,,,001,162,2020_Feb_25_0958,spring_faces,3.1.5,59.9541730683781,
condition files/Stage2_2.xlsx,,T2,B2,r,"['s', 'r']","['Stratego', 'Risk']","[-0.15, 0.5]","[0.15, 0.5]",1,1,,,,,,,,,,,,,,,,,0,1,1,1,0,3,3,3,,,,,,,,,,,,,,,,,,,,,,,,,,,,,,,,,,,,,,,,,,,,,,,887.1194891189998,None,887.1194891189998,None,887.1194891189998,None,s,0,0.9766216729994994,888.6538196539996,None,888.6538196539996,None,888.6538196539996,None,889.6864939809993,None,889.6864939809993,None,889.6864939809993,None,889.6864939809993,None,,,,,,,,,,,,,,,,,,,,,,,,,,,,,,,,,,,,,,,,,,,,001,162,2020_Feb_25_0958,spring_faces,3.1.5,59.9541730683781,
condition files/Stage2_2.xlsx,,T6,B6,r,"['s', 'r']","['Stratego', 'Risk']","[-0.15, 0.5]","[0.15, 0.5]",1,1,,,,,,,,,,,,,,,,,0,1,1,1,0,4,4,1,,,,,,,,,,,,,,,,,,,,,,,,,,,,,,,,,,,,,,,,,,,,,,,891.6528999379998,None,891.6528999379998,None,891.6528999379998,None,s,0,1.3219372819994533,893.1884970179999,None,893.1884970179999,None,893.1884970179999,None,894.5692767999999,None,894.5692767999999,None,894.5692767999999,None,894.5692767999999,None,,,,,,,,,,,,,,,,,,,,,,,,,,,,,,,,,,,,,,,,,,,,001,162,2020_Feb_25_0958,spring_faces,3.1.5,59.9541730683781,
condition files/Stage2_2.xlsx,,T4,B4,r,"['s', 'r']","['Stratego', 'Risk']","[-0.15, 0.5]","[0.15, 0.5]",1,1,,,,,,,,,,,,,,,,,0,1,1,1,0,5,5,5,,,,,,,,,,,,,,,,,,,,,,,,,,,,,,,,,,,,,,,,,,,,,,,896.5362776279999,None,896.5362776279999,None,896.5362776279999,None,s,0,1.110263476,898.0721077179996,None,898.0721077179996,None,898.0721077179996,None,899.2363548059993,None,899.2363548059993,None,899.2363548059993,None,899.2363548059993,None,,,,,,,,,,,,,,,,,,,,,,,,,,,,,,,,,,,,,,,,,,,,001,162,2020_Feb_25_0958,spring_faces,3.1.5,59.9541730683781,
condition files/Stage2_1.xlsx,,B2,T2,r,"['s', 'r']","['Stratego', 'Risk']","[-0.15, 0.5]","[0.15, 0.5]",1,1,,,,,,,,,,,,,,,,,0,2,2,2,0,0,0,3,,,,,,,,,,,,,,,,,,,,,,,,,,,,,,,,,,,,,,,,,,,,,,,901.2201356429996,None,901.2201356429996,None,901.2201356429996,None,r,1,0.8610438910000084,902.7693870469993,None,902.7693870469993,None,902.7693870469993,None,903.6866928479994,None,903.6866928479994,None,903.6866928479994,None,903.6866928479994,None,,,,,,,,,,,,,,,,,,,,,,,,,,,,,,,,,,,,,,,,,,,,001,162,2020_Feb_25_0958,spring_faces,3.1.5,59.9541730683781,
condition files/Stage2_1.xlsx,,B6,T6,r,"['s', 'r']","['Stratego', 'Risk']","[-0.15, 0.5]","[0.15, 0.5]",1,1,,,,,,,,,,,,,,,,,0,2,2,2,0,1,1,1,,,,,,,,,,,,,,,,,,,,,,,,,,,,,,,,,,,,,,,,,,,,,,,905.6528908619994,None,905.6528908619994,None,905.6528908619994,None,s,0,0.8121508510002968,907.1861621919998,None,907.1861621919998,None,907.1861621919998,None,908.0522371339994,None,908.0522371339994,None,908.0522371339994,None,908.0522371339994,None,,,,,,,,,,,,,,,,,,,,,,,,,,,,,,,,,,,,,,,,,,,,001,162,2020_Feb_25_0958,spring_faces,3.1.5,59.9541730683781,
condition files/Stage2_1.xlsx,,T1,B1,s,"['s', 'r']","['Stratego', 'Risk']","[-0.15, 0.5]","[0.15, 0.5]",1,1,,,,,,,,,,,,,,,,,0,2,2,2,0,2,2,2,,,,,,,,,,,,,,,,,,,,,,,,,,,,,,,,,,,,,,,,,,,,,,,910.0196739439998,None,910.0196739439998,None,910.0196739439998,None,s,1,1.1811190800008262,911.5532484329997,None,911.5532484329997,None,911.5532484329997,None,912.7873680109997,None,912.7873680109997,None,912.7873680109997,None,912.7873680109997,None,,,,,,,,,,,,,,,,,,,,,,,,,,,,,,,,,,,,,,,,,,,,001,162,2020_Feb_25_0958,spring_faces,3.1.5,59.9541730683781,
condition files/Stage2_1.xlsx,,T5,B5,s,"['s', 'r']","['Stratego', 'Risk']","[-0.15, 0.5]","[0.15, 0.5]",1,1,,,,,,,,,,,,,,,,,0,2,2,2,0,3,3,0,,,,,,,,,,,,,,,,,,,,,,,,,,,,,,,,,,,,,,,,,,,,,,,914.7531210349998,None,914.7531210349998,None,914.7531210349998,None,s,1,0.8642597440002646,916.2861092449994,None,916.2861092449994,None,916.2861092449994,None,917.2025221199992,None,917.2025221199992,None,917.2025221199992,None,917.2025221199992,None,,,,,,,,,,,,,,,,,,,,,,,,,,,,,,,,,,,,,,,,,,,,001,162,2020_Feb_25_0958,spring_faces,3.1.5,59.9541730683781,
condition files/Stage2_1.xlsx,,B4,T4,r,"['s', 'r']","['Stratego', 'Risk']","[-0.15, 0.5]","[0.15, 0.5]",1,1,,,,,,,,,,,,,,,,,0,2,2,2,0,4,4,5,,,,,,,,,,,,,,,,,,,,,,,,,,,,,,,,,,,,,,,,,,,,,,,919.1690087099996,None,919.1690087099996,None,919.1690087099996,None,r,1,0.975539463000132,920.7028702629996,None,920.7028702629996,None,920.7028702629996,None,921.7528940509992,None,921.7528940509992,None,921.7528940509992,None,921.7528940509992,None,,,,,,,,,,,,,,,,,,,,,,,,,,,,,,,,,,,,,,,,,,,,001,162,2020_Feb_25_0958,spring_faces,3.1.5,59.9541730683781,
condition files/Stage2_1.xlsx,,T3,B3,s,"['s', 'r']","['Stratego', 'Risk']","[-0.15, 0.5]","[0.15, 0.5]",1,1,,,,,,,,,,,,,,,,,0,2,2,2,0,5,5,4,,,,,,,,,,,,,,,,,,,,,,,,,,,,,,,,,,,,,,,,,,,,,,,923.7029558519998,None,923.7029558519998,None,923.7029558519998,None,s,1,1.0011944540001423,925.2371647439995,None,925.2371647439995,None,925.2371647439995,None,926.3025512089998,None,926.3025512089998,None,926.3025512089998,None,926.3025512089998,None,,,,,,,,,,,,,,,,,,,,,,,,,,,,,,,,,,,,,,,,,,,,001,162,2020_Feb_25_0958,spring_faces,3.1.5,59.9541730683781,
condition files/Stage2_2.xlsx,,B1,T1,s,"['s', 'r']","['Stratego', 'Risk']","[-0.15, 0.5]","[0.15, 0.5]",1,1,,,,,,,,,,,,,,,,,0,3,3,3,0,0,0,2,,,,,,,,,,,,,,,,,,,,,,,,,,,,,,,,,,,,,,,,,,,,,,,928.2862364869998,None,928.2862364869998,None,928.2862364869998,None,s,1,0.9138025490001382,929.8365549599994,None,929.8365549599994,None,929.8365549599994,None,930.8026405249993,None,930.8026405249993,None,930.8026405249993,None,930.8026405249993,None,,,,,,,,,,,,,,,,,,,,,,,,,,,,,,,,,,,,,,,,,,,,001,162,2020_Feb_25_0958,spring_faces,3.1.5,59.9541730683781,
condition files/Stage2_2.xlsx,,T4,B4,r,"['s', 'r']","['Stratego', 'Risk']","[-0.15, 0.5]","[0.15, 0.5]",1,1,,,,,,,,,,,,,,,,,0,3,3,3,0,1,1,5,,,,,,,,,,,,,,,,,,,,,,,,,,,,,,,,,,,,,,,,,,,,,,,932.7695820059998,None,932.7695820059998,None,932.7695820059998,None,r,1,0.8150617319997764,934.3192864359999,None,934.3192864359999,None,934.3192864359999,None,935.1864824059994,None,935.1864824059994,None,935.1864824059994,None,935.1864824059994,None,,,,,,,,,,,,,,,,,,,,,,,,,,,,,,,,,,,,,,,,,,,,001,162,2020_Feb_25_0958,spring_faces,3.1.5,59.9541730683781,
condition files/Stage2_2.xlsx,,T6,B6,r,"['s', 'r']","['Stratego', 'Risk']","[-0.15, 0.5]","[0.15, 0.5]",1,1,,,,,,,,,,,,,,,,,0,3,3,3,0,2,2,1,,,,,,,,,,,,,,,,,,,,,,,,,,,,,,,,,,,,,,,,,,,,,,,937.1530433119997,None,937.1530433119997,None,937.1530433119997,None,s,0,2.560328247000143,938.6860861859996,None,938.6860861859996,None,938.6860861859996,None,941.3034382999995,None,941.3034382999995,None,941.3034382999995,None,941.3034382999995,None,,,,,,,,,,,,,,,,,,,,,,,,,,,,,,,,,,,,,,,,,,,,001,162,2020_Feb_25_0958,spring_faces,3.1.5,59.9541730683781,
condition files/Stage2_2.xlsx,,T2,B2,r,"['s', 'r']","['Stratego', 'Risk']","[-0.15, 0.5]","[0.15, 0.5]",1,1,,,,,,,,,,,,,,,,,0,3,3,3,0,3,3,3,,,,,,,,,,,,,,,,,,,,,,,,,,,,,,,,,,,,,,,,,,,,,,,943.2691752579994,None,943.2691752579994,None,943.2691752579994,None,r,1,0.7311777719996826,944.8031872199999,None,944.8031872199999,None,944.8031872199999,None,945.5859858679996,None,945.5859858679996,None,945.5859858679996,None,945.5859858679996,None,,,,,,,,,,,,,,,,,,,,,,,,,,,,,,,,,,,,,,,,,,,,001,162,2020_Feb_25_0958,spring_faces,3.1.5,59.9541730683781,
condition files/Stage2_2.xlsx,,B3,T3,s,"['s', 'r']","['Stratego', 'Risk']","[-0.15, 0.5]","[0.15, 0.5]",1,1,,,,,,,,,,,,,,,,,0,3,3,3,0,4,4,4,,,,,,,,,,,,,,,,,,,,,,,,,,,,,,,,,,,,,,,,,,,,,,,947.552993712,None,947.552993712,None,947.552993712,None,s,1,0.639964179999879,949.0864598019998,None,949.0864598019998,None,949.0864598019998,None,949.788170023,None,949.788170023,None,949.788170023,None,949.788170023,None,,,,,,,,,,,,,,,,,,,,,,,,,,,,,,,,,,,,,,,,,,,,001,162,2020_Feb_25_0958,spring_faces,3.1.5,59.9541730683781,
condition files/Stage2_2.xlsx,,B5,T5,s,"['s', 'r']","['Stratego', 'Risk']","[-0.15, 0.5]","[0.15, 0.5]",1,1,,,,,,,,,,,,,,,,,0,3,3,3,0,5,5,0,,,,,,,,,,,,,,,,,,,,,,,,,,,,,,,,,,,,,,,,,,,,,,,951.7529229819993,None,951.7529229819993,None,951.7529229819993,None,r,0,2.2959880929993233,953.2863826179992,None,953.2863826179992,None,953.2863826179992,None,955.63670473,None,955.63670473,None,955.63670473,None,955.63670473,None,,,,,,,,,,,,,,,,,,,,,,,,,,,,,,,,,,,,,,,,,,,,001,162,2020_Feb_25_0958,spring_faces,3.1.5,59.9541730683781,
condition files/Stage2_1.xlsx,,T3,B3,s,"['s', 'r']","['Stratego', 'Risk']","[-0.15, 0.5]","[0.15, 0.5]",1,1,,,,,,,,,,,,,,,,,0,4,4,4,0,0,0,4,,,,,,,,,,,,,,,,,,,,,,,,,,,,,,,,,,,,,,,,,,,,,,,957.6195842839998,None,957.6195842839998,None,957.6195842839998,None,s,1,0.8924235630001931,959.1700040019996,None,959.1700040019996,None,959.1700040019996,None,960.1192176689992,None,960.1192176689992,None,960.1192176689992,None,960.1192176689992,None,,,,,,,,,,,,,,,,,,,,,,,,,,,,,,,,,,,,,,,,,,,,001,162,2020_Feb_25_0958,spring_faces,3.1.5,59.9541730683781,
condition files/Stage2_1.xlsx,,B6,T6,r,"['s', 'r']","['Stratego', 'Risk']","[-0.15, 0.5]","[0.15, 0.5]",1,1,,,,,,,,,,,,,,,,,0,4,4,4,0,1,1,1,,,,,,,,,,,,,,,,,,,,,,,,,,,,,,,,,,,,,,,,,,,,,,,962.0862537589992,None,962.0862537589992,None,962.0862537589992,None,r,1,2.0885954999994283,963.6218468859997,None,963.6218468859997,None,963.6218468859997,None,965.7695257389996,None,965.7695257389996,None,965.7695257389996,None,965.7695257389996,None,,,,,,,,,,,,,,,,,,,,,,,,,,,,,,,,,,,,,,,,,,,,001,162,2020_Feb_25_0958,spring_faces,3.1.5,59.9541730683781,
condition files/Stage2_1.xlsx,,T5,B5,s,"['s', 'r']","['Stratego', 'Risk']","[-0.15, 0.5]","[0.15, 0.5]",1,1,,,,,,,,,,,,,,,,,0,4,4,4,0,2,2,0,,,,,,,,,,,,,,,,,,,,,,,,,,,,,,,,,,,,,,,,,,,,,,,967.736479315,None,967.736479315,None,967.736479315,None,s,1,1.656523542999821,969.2699142439997,None,969.2699142439997,None,969.2699142439997,None,970.9872135819996,None,970.9872135819996,None,970.9872135819996,None,970.9872135819996,None,,,,,,,,,,,,,,,,,,,,,,,,,,,,,,,,,,,,,,,,,,,,001,162,2020_Feb_25_0958,spring_faces,3.1.5,59.9541730683781,
condition files/Stage2_1.xlsx,,B4,T4,r,"['s', 'r']","['Stratego', 'Risk']","[-0.15, 0.5]","[0.15, 0.5]",1,1,,,,,,,,,,,,,,,,,0,4,4,4,0,3,3,5,,,,,,,,,,,,,,,,,,,,,,,,,,,,,,,,,,,,,,,,,,,,,,,972.9528993629992,None,972.9528993629992,None,972.9528993629992,None,r,1,0.7265421330002937,974.4878034629992,None,974.4878034629992,None,974.4878034629992,None,975.2862492539998,None,975.2862492539998,None,975.2862492539998,None,975.2862492539998,None,,,,,,,,,,,,,,,,,,,,,,,,,,,,,,,,,,,,,,,,,,,,001,162,2020_Feb_25_0958,spring_faces,3.1.5,59.9541730683781,
