condsFile,subStage,cue1,cue2,correct,responseKeys,responseNames,cue1Position,cue2Position,cue1Opacity,cue2Opacity,stageLoop0.thisRepN,stageLoop0.thisTrialN,stageLoop0.thisN,stageLoop0.thisIndex,blockLoop0.thisRepN,blockLoop0.thisTrialN,blockLoop0.thisN,blockLoop0.thisIndex,stage1Loop.thisRepN,stage1Loop.thisTrialN,stage1Loop.thisN,stage1Loop.thisIndex,blockLoop1.thisRepN,blockLoop1.thisTrialN,blockLoop1.thisN,blockLoop1.thisIndex,stage2Loop.thisRepN,stage2Loop.thisTrialN,stage2Loop.thisN,stage2Loop.thisIndex,blockLoop2.thisRepN,blockLoop2.thisTrialN,blockLoop2.thisN,blockLoop2.thisIndex,testLoop.thisRepN,testLoop.thisTrialN,testLoop.thisN,testLoop.thisIndex,blockLoopTest.thisRepN,blockLoopTest.thisTrialN,blockLoopTest.thisN,blockLoopTest.thisIndex,cuePics,id_instr_text.started,id_instr_text.stopped,space_to_continue_2.started,space_to_continue_2.stopped,end_instructions_resp_3.keys,end_instructions_resp_3.rt,end_instructions_resp_3.started,end_instructions_resp_3.stopped,id_input_instr.started,id_input_instr.stopped,id_input_rect.started,id_input_rect.stopped,id_input_resp.keys,id_input_resp.rt,id_input_resp.started,id_input_resp.stopped,sonaID,id_input_text.started,id_input_text.stopped,final_text.started,final_text.stopped,instructions.started,instructions.stopped,end_instructions_resp.keys,end_instructions_resp.rt,end_instructions_resp.started,end_instructions_resp.stopped,space_to_continue.started,space_to_continue.stopped,instructions_stage0.started,instructions_stage0.stopped,end_instructions_resp_stage0.keys,end_instructions_resp_stage0.rt,end_instructions_resp_stage0.started,end_instructions_resp_stage0.stopped,space_to_continue_stage0.started,space_to_continue_stage0.stopped,text.started,text.stopped,resp_text1.started,resp_text1.stopped,resp_text2.started,resp_text2.stopped,trial_resp.keys,trial_resp.corr,trial_resp.rt,trial_resp.started,trial_resp.stopped,cue1Image.started,cue1Image.stopped,cue2Image.started,cue2Image.stopped,cue1Image_fb.started,cue1Image_fb.stopped,cue2Image_fb.started,cue2Image_fb.stopped,fb_text_answer.started,fb_text_answer.stopped,feedback_image.started,feedback_image.stopped,instructions_stage1.started,instructions_stage1.stopped,end_instructions_resp_stage1.keys,end_instructions_resp_stage1.rt,end_instructions_resp_stage1.started,end_instructions_resp_stage1.stopped,space_to_continue_stage1.started,space_to_continue_stage1.stopped,instructions_2.started,instructions_2.stopped,end_instructions_resp_2.keys,end_instructions_resp_2.rt,end_instructions_resp_2.started,end_instructions_resp_2.stopped,press_space_to_continue_stage2.started,press_space_to_continue_stage2.stopped,instructions_testStage1.started,instructions_testStage1.stopped,end_instructions_resp_test1.keys,end_instructions_resp_test1.rt,end_instructions_resp_test1.started,end_instructions_resp_test1.stopped,press_space_to_continue_test1.started,press_space_to_continue_test1.stopped,cue1Image_testChoice.started,cue1Image_testChoice.stopped,cue2Image_testChoice.started,cue2Image_testChoice.stopped,test_resp.keys,test_resp.corr,test_resp.rt,test_resp.started,test_resp.stopped,cue1Image_testConf.started,cue1Image_testConf.stopped,cue2Image_testConf.started,cue2Image_testConf.stopped,conf_reminder.started,conf_reminder.stopped,conf_rating.response,conf_rating.rt,conf_rating.started,conf_rating.stopped,session,participant,date,expName,psychopyVersion,frameRate,
,,,,,,,,,,,,,,,,,,,,,,,,,,,,,,,,,,,,,,,,,,,"{'none': 'pictures/20M_AN_C.png', 'alpha': 'pictures/SHINEd_apple.png', 'beta': 'pictures/SHINEd_pear.png', 'theta': 'pictures/SHINEd_pepper.png', 'phi': 'pictures/SHINEd_melon.png', 'T1': 'pictures/34M_AN_C.png', 'T2': 'pictures/26M_AN_C.png', 'T3': 'pictures/33M_AN_C.png', 'T4': 'pictures/32M_AN_C.png', 'T5': 'pictures/31M_AN_C.png', 'T6': 'pictures/37M_AN_C.png', 'B1': 'pictures/38M_NE_C.png', 'B2': 'pictures/36M_NE_C.png', 'B3': 'pictures/22M_NE_C.png', 'B4': 'pictures/25M_NE_C.png', 'B5': 'pictures/23M_NE_C.png', 'B6': 'pictures/20M_NE_C.png'}",120.38178733300083,None,125.36458611600028,None,space,41.74946339500093,125.36458611600028,None,,,,,,,,,,,,,,,,,,,,,,,,,,,,,,,,,,,,,,,,,,,,,,,,,,,,,,,,,,,,,,,,,,,,,,,,,,,,,,,,,,,,,,,,,,,,,,,,001,168,2020_Feb_25_1353,spring_faces,3.1.5,60.079811704503896,
,,,,,,,,,,,,,,,,,,,,,,,,,,,,,,,,,,,,,,,,,,,,,,,,,,,,167.49800418700033,None,167.49800418700033,None,"['0', '3', '1', '7', 'c', 'r', 'h', 'o', 'r', '0', '3', '1', '7', 'm', 'a', 'h', 'o', 'r', '0', '3', '1', '7', 'c', 'backspace', 'm', 'backspace', 'm', 'a', 'h', 'o', 'r']","[83.13602960799835, 83.7441147569989, 90.24002787099744, 90.367980488998, 91.6800343979994, 92.01603418499872, 93.79210789399804, 94.27204178099782, 94.73606042100073, 120.24004939500082, 120.38398476899965, 121.26402778400006, 121.760031247999, 123.02410420600063, 123.23203044799811, 124.56003413099825, 125.36006562599869, 125.53604013199947, 148.92802704600035, 149.08804350900027, 151.36009834399738, 151.48804000199743, 159.9359896249989, 162.57612196400078, 163.4400462099984, 164.25604152099913, 165.44004266499905, 165.8080983159998, 168.47998355099844, 168.5760998629994, 169.00809821099756]",167.49800418700033,None,,,,,,,,,,,,,,,,,,,,,,,,,,,,,,,,,,,,,,,,,,,,,,,,,,,,,,,,,,,,,,,,,,,,,,,,,,,,,,,,,,,,,,,,001,168,2020_Feb_25_1353,spring_faces,3.1.5,60.079811704503896,
,,,,,,,,,,,,,,,,,,,,,,,,,,,,,,,,,,,,,,,,,,,,,,,,,,,,,,,,,,,,0317mahor,167.49800418700033,None,167.49800418700033,None,341.58168531699994,None,space,17.364802290001535,346.5812593769988,None,,,,,,,,,,,,,,,,,,,,,,,,,,,,,,,,,,,,,,,,,,,,,,,,,,,,,,,,,,,,,,,,,,,,,,,,,,,,,001,168,2020_Feb_25_1353,spring_faces,3.1.5,60.079811704503896,
,,,,,,,,,,,,,,,,,,,,,,,,,,,,,,,,,,,,,,,,,,,,,,,,,,,,,,,,,,,,,,,,,,,,,,,346.5812593769988,None,363.9817137149985,None,space,9.124706014001276,368.9814248260009,None,,,,,,,,,,,,,,,,,,,,,,,,,,,,,,,,,,,,,,,,,,,,,,,,,,,,,,,,,,,,,,,,,,,,,001,168,2020_Feb_25_1353,spring_faces,3.1.5,60.079811704503896,
condition files/Stage0a.xlsx,0a,alpha,none,h,"['h', 'g']","['Chess', 'Go']","[0, 0.5]","[0, 0]",1,0,0,0,0,0,0,0,0,0,,,,,,,,,,,,,,,,,,,,,,,,,,,,,,,,,,,,,,,,,,,,,,,,,,,,,,,,,,,,,368.9814248260009,None,378.164323858,None,378.164323858,None,378.164323858,None,h,1,2.2622364460003155,379.7478654580009,None,379.7478654580009,None,379.7478654580009,None,382.0813885889984,None,382.0813885889984,None,382.0813885889984,None,382.0813885889984,None,,,,,,,,,,,,,,,,,,,,,,,,,,,,,,,,,,,,,,,,,,,,001,168,2020_Feb_25_1353,spring_faces,3.1.5,60.079811704503896,
condition files/Stage0a.xlsx,0a,beta,none,g,"['h', 'g']","['Chess', 'Go']","[0, 0.5]","[0, 0]",1,0,0,0,0,0,0,1,1,1,,,,,,,,,,,,,,,,,,,,,,,,,,,,,,,,,,,,,,,,,,,,,,,,,,,,,,,,,,,,,,,384.03125223299867,None,384.03125223299867,None,384.03125223299867,None,g,1,1.5805228039971553,385.5655305229993,None,385.5655305229993,None,385.5655305229993,None,387.1985019950007,None,387.1985019950007,None,387.1985019950007,None,387.1985019950007,None,,,,,,,,,,,,,,,,,,,,,,,,,,,,,,,,,,,,,,,,,,,,001,168,2020_Feb_25_1353,spring_faces,3.1.5,60.079811704503896,
condition files/Stage0a.xlsx,0a,beta,none,g,"['h', 'g']","['Chess', 'Go']","[0, 0.5]","[0, 0]",1,0,0,1,1,1,0,0,0,1,,,,,,,,,,,,,,,,,,,,,,,,,,,,,,,,,,,,,,,,,,,,,,,,,,,,,,,,,,,,,,,389.18149553499825,None,389.18149553499825,None,389.18149553499825,None,g,1,0.8954263509986049,390.7146046070011,None,390.7146046070011,None,390.7146046070011,None,391.6649526779984,None,391.6649526779984,None,391.6649526779984,None,391.6649526779984,None,,,,,,,,,,,,,,,,,,,,,,,,,,,,,,,,,,,,,,,,,,,,001,168,2020_Feb_25_1353,spring_faces,3.1.5,60.079811704503896,
condition files/Stage0a.xlsx,0a,alpha,none,h,"['h', 'g']","['Chess', 'Go']","[0, 0.5]","[0, 0]",1,0,0,1,1,1,0,1,1,0,,,,,,,,,,,,,,,,,,,,,,,,,,,,,,,,,,,,,,,,,,,,,,,,,,,,,,,,,,,,,,,393.6311846690005,None,393.6311846690005,None,393.6311846690005,None,h,1,0.7491921219989308,395.1648417670003,None,395.1648417670003,None,395.1648417670003,None,395.9646373579999,None,395.9646373579999,None,395.9646373579999,None,395.9646373579999,None,,,,,,,,,,,,,,,,,,,,,,,,,,,,,,,,,,,,,,,,,,,,001,168,2020_Feb_25_1353,spring_faces,3.1.5,60.079811704503896,
condition files/Stage0a.xlsx,0a,alpha,none,h,"['h', 'g']","['Chess', 'Go']","[0, 0.5]","[0, 0]",1,0,0,2,2,2,0,0,0,0,,,,,,,,,,,,,,,,,,,,,,,,,,,,,,,,,,,,,,,,,,,,,,,,,,,,,,,,,,,,,,,397.947962784001,None,397.947962784001,None,397.947962784001,None,h,1,0.7202301739998802,399.48182292899946,None,399.48182292899946,None,399.48182292899946,None,400.2650543899981,None,400.2650543899981,None,400.2650543899981,None,400.2650543899981,None,,,,,,,,,,,,,,,,,,,,,,,,,,,,,,,,,,,,,,,,,,,,001,168,2020_Feb_25_1353,spring_faces,3.1.5,60.079811704503896,
condition files/Stage0a.xlsx,0a,beta,none,g,"['h', 'g']","['Chess', 'Go']","[0, 0.5]","[0, 0]",1,0,0,2,2,2,0,1,1,1,,,,,,,,,,,,,,,,,,,,,,,,,,,,,,,,,,,,,,,,,,,,,,,,,,,,,,,,,,,,,,,402.2313138629979,None,402.2313138629979,None,402.2313138629979,None,g,1,0.7579269120033132,403.764178813999,None,403.764178813999,None,403.764178813999,None,404.58125104899955,None,404.58125104899955,None,404.58125104899955,None,404.58125104899955,None,,,,,,,,,,,,,,,,,,,,,,,,,,,,,,,,,,,,,,,,,,,,001,168,2020_Feb_25_1353,spring_faces,3.1.5,60.079811704503896,
condition files/Stage0a.xlsx,0a,beta,none,g,"['h', 'g']","['Chess', 'Go']","[0, 0.5]","[0, 0]",1,0,0,3,3,3,0,0,0,1,,,,,,,,,,,,,,,,,,,,,,,,,,,,,,,,,,,,,,,,,,,,,,,,,,,,,,,,,,,,,,,406.5644717690011,None,406.5644717690011,None,406.5644717690011,None,g,1,1.1594506930014177,408.09862338200037,None,408.09862338200037,None,408.09862338200037,None,409.3151611159992,None,409.3151611159992,None,409.3151611159992,None,409.3151611159992,None,,,,,,,,,,,,,,,,,,,,,,,,,,,,,,,,,,,,,,,,,,,,001,168,2020_Feb_25_1353,spring_faces,3.1.5,60.079811704503896,
condition files/Stage0a.xlsx,0a,alpha,none,h,"['h', 'g']","['Chess', 'Go']","[0, 0.5]","[0, 0]",1,0,0,3,3,3,0,1,1,0,,,,,,,,,,,,,,,,,,,,,,,,,,,,,,,,,,,,,,,,,,,,,,,,,,,,,,,,,,,,,,,411.2812107280006,None,411.2812107280006,None,411.2812107280006,None,h,1,0.6350394190012594,412.81499979399814,None,412.81499979399814,None,412.81499979399814,None,413.5143383149989,None,413.5143383149989,None,413.5143383149989,None,413.5143383149989,None,,,,,,,,,,,,,,,,,,,,,,,,,,,,,,,,,,,,,,,,,,,,001,168,2020_Feb_25_1353,spring_faces,3.1.5,60.079811704503896,
condition files/Stage0a.xlsx,0a,alpha,none,h,"['h', 'g']","['Chess', 'Go']","[0, 0.5]","[0, 0]",1,0,0,4,4,4,0,0,0,0,,,,,,,,,,,,,,,,,,,,,,,,,,,,,,,,,,,,,,,,,,,,,,,,,,,,,,,,,,,,,,,415.49816109400126,None,415.49816109400126,None,415.49816109400126,None,h,1,0.7694101889974263,417.0326426379979,None,417.0326426379979,None,417.0326426379979,None,417.86511542099834,None,417.86511542099834,None,417.86511542099834,None,417.86511542099834,None,,,,,,,,,,,,,,,,,,,,,,,,,,,,,,,,,,,,,,,,,,,,001,168,2020_Feb_25_1353,spring_faces,3.1.5,60.079811704503896,
condition files/Stage0a.xlsx,0a,beta,none,g,"['h', 'g']","['Chess', 'Go']","[0, 0.5]","[0, 0]",1,0,0,4,4,4,0,1,1,1,,,,,,,,,,,,,,,,,,,,,,,,,,,,,,,,,,,,,,,,,,,,,,,,,,,,,,,,,,,,,,,419.83129250899947,None,419.83129250899947,None,419.83129250899947,None,g,1,0.7408381220011506,421.3652609460005,None,421.3652609460005,None,421.3652609460005,None,422.16464164699937,None,422.16464164699937,None,422.16464164699937,None,422.16464164699937,None,,,,,,,,,,,,,,,,,,,,,,,,,,,,,,,,,,,,,,,,,,,,001,168,2020_Feb_25_1353,spring_faces,3.1.5,60.079811704503896,
condition files/Stage0a.xlsx,0a,alpha,none,h,"['h', 'g']","['Chess', 'Go']","[0, 0.5]","[0, 0]",1,0,0,5,5,5,0,0,0,0,,,,,,,,,,,,,,,,,,,,,,,,,,,,,,,,,,,,,,,,,,,,,,,,,,,,,,,,,,,,,,,424.1474766539977,None,424.1474766539977,None,424.1474766539977,None,h,1,0.56865982599993,425.6813846349978,None,425.6813846349978,None,425.6813846349978,None,426.31482663899806,None,426.31482663899806,None,426.31482663899806,None,426.31482663899806,None,,,,,,,,,,,,,,,,,,,,,,,,,,,,,,,,,,,,,,,,,,,,001,168,2020_Feb_25_1353,spring_faces,3.1.5,60.079811704503896,
condition files/Stage0a.xlsx,0a,beta,none,g,"['h', 'g']","['Chess', 'Go']","[0, 0.5]","[0, 0]",1,0,0,5,5,5,0,1,1,1,,,,,,,,,,,,,,,,,,,,,,,,,,,,,,,,,,,,,,,,,,,,,,,,,,,,,,,,,,,,,,,428.281226056999,None,428.281226056999,None,428.281226056999,None,h,0,0.9316449180005293,429.81438888699995,None,429.81438888699995,None,429.81438888699995,None,430.79783935700107,None,430.79783935700107,None,430.79783935700107,None,430.79783935700107,None,,,,,,,,,,,,,,,,,,,,,,,,,,,,,,,,,,,,,,,,,,,,001,168,2020_Feb_25_1353,spring_faces,3.1.5,60.079811704503896,
condition files/Stage0b_1.xlsx,0b,alpha,none,h,"['h', 'g']","['Chess', 'Go']","[-0.15, 0.5]","[0.15, 0.5]",1,0,0,6,6,6,0,0,0,0,,,,,,,,,,,,,,,,,,,,,,,,,,,,,,,,,,,,,,,,,,,,,,,,,,,,,,,,,,,,,,,432.7807730229979,None,432.7807730229979,None,432.7807730229979,None,h,1,2.0472489500025404,434.31478056099877,None,434.31478056099877,None,434.31478056099877,None,436.4143235189986,None,436.4143235189986,None,436.4143235189986,None,436.4143235189986,None,,,,,,,,,,,,,,,,,,,,,,,,,,,,,,,,,,,,,,,,,,,,001,168,2020_Feb_25_1353,spring_faces,3.1.5,60.079811704503896,
condition files/Stage0b_1.xlsx,0b,none,beta,g,"['h', 'g']","['Chess', 'Go']","[-0.15, 0.5]","[0.15, 0.5]",0,1,0,6,6,6,0,1,1,1,,,,,,,,,,,,,,,,,,,,,,,,,,,,,,,,,,,,,,,,,,,,,,,,,,,,,,,,,,,,,,,438.38118305199896,None,438.38118305199896,None,438.38118305199896,None,g,1,0.6346812869996938,439.91938419099824,None,439.91938419099824,None,439.91938419099824,None,440.6177611290004,None,440.6177611290004,None,440.6177611290004,None,440.6177611290004,None,,,,,,,,,,,,,,,,,,,,,,,,,,,,,,,,,,,,,,,,,,,,001,168,2020_Feb_25_1353,spring_faces,3.1.5,60.079811704503896,
condition files/Stage0b_2.xlsx,0b,none,alpha,h,"['h', 'g']","['Chess', 'Go']","[-0.15, 0.5]","[0.15, 0.5]",0,1,0,7,7,7,0,0,0,0,,,,,,,,,,,,,,,,,,,,,,,,,,,,,,,,,,,,,,,,,,,,,,,,,,,,,,,,,,,,,,,442.5981957639997,None,442.5981957639997,None,442.5981957639997,None,h,1,1.9582122970023192,444.13192156399964,None,444.13192156399964,None,444.13192156399964,None,446.14805847000025,None,446.14805847000025,None,446.14805847000025,None,446.14805847000025,None,,,,,,,,,,,,,,,,,,,,,,,,,,,,,,,,,,,,,,,,,,,,001,168,2020_Feb_25_1353,spring_faces,3.1.5,60.079811704503896,
condition files/Stage0b_2.xlsx,0b,beta,none,g,"['h', 'g']","['Chess', 'Go']","[-0.15, 0.5]","[0.15, 0.5]",1,0,0,7,7,7,0,1,1,1,,,,,,,,,,,,,,,,,,,,,,,,,,,,,,,,,,,,,,,,,,,,,,,,,,,,,,,,,,,,,,,448.1145649959981,None,448.1145649959981,None,448.1145649959981,None,g,1,0.6971865790001175,449.66483843400056,None,449.66483843400056,None,449.66483843400056,None,450.41976166400127,None,450.41976166400127,None,450.41976166400127,None,450.41976166400127,None,,,,,,,,,,,,,,,,,,,,,,,,,,,,,,,,,,,,,,,,,,,,001,168,2020_Feb_25_1353,spring_faces,3.1.5,60.079811704503896,
condition files/Stage0b_1.xlsx,0b,alpha,none,h,"['h', 'g']","['Chess', 'Go']","[-0.15, 0.5]","[0.15, 0.5]",1,0,0,8,8,8,0,0,0,0,,,,,,,,,,,,,,,,,,,,,,,,,,,,,,,,,,,,,,,,,,,,,,,,,,,,,,,,,,,,,,,452.39752375199896,None,452.39752375199896,None,452.39752375199896,None,h,1,0.6545535279983596,453.9314942050005,None,453.9314942050005,None,453.9314942050005,None,454.6476179739984,None,454.6476179739984,None,454.6476179739984,None,454.6476179739984,None,,,,,,,,,,,,,,,,,,,,,,,,,,,,,,,,,,,,,,,,,,,,001,168,2020_Feb_25_1353,spring_faces,3.1.5,60.079811704503896,
condition files/Stage0b_1.xlsx,0b,none,beta,g,"['h', 'g']","['Chess', 'Go']","[-0.15, 0.5]","[0.15, 0.5]",0,1,0,8,8,8,0,1,1,1,,,,,,,,,,,,,,,,,,,,,,,,,,,,,,,,,,,,,,,,,,,,,,,,,,,,,,,,,,,,,,,456.6146527509991,None,456.6146527509991,None,456.6146527509991,None,g,1,0.6889670489981654,458.1531375880004,None,458.1531375880004,None,458.1531375880004,None,458.91496061499856,None,458.91496061499856,None,458.91496061499856,None,458.91496061499856,None,,,,,,,,,,,,,,,,,,,,,,,,,,,,,,,,,,,,,,,,,,,,001,168,2020_Feb_25_1353,spring_faces,3.1.5,60.079811704503896,
condition files/Stage0b_2.xlsx,0b,none,alpha,h,"['h', 'g']","['Chess', 'Go']","[-0.15, 0.5]","[0.15, 0.5]",0,1,0,9,9,9,0,0,0,0,,,,,,,,,,,,,,,,,,,,,,,,,,,,,,,,,,,,,,,,,,,,,,,,,,,,,,,,,,,,,,,460.8811712149982,None,460.8811712149982,None,460.8811712149982,None,h,1,1.723174848000781,462.4149237979982,None,462.4149237979982,None,462.4149237979982,None,464.1975764960007,None,464.1975764960007,None,464.1975764960007,None,464.1975764960007,None,,,,,,,,,,,,,,,,,,,,,,,,,,,,,,,,,,,,,,,,,,,,001,168,2020_Feb_25_1353,spring_faces,3.1.5,60.079811704503896,
condition files/Stage0b_2.xlsx,0b,beta,none,g,"['h', 'g']","['Chess', 'Go']","[-0.15, 0.5]","[0.15, 0.5]",1,0,0,9,9,9,0,1,1,1,,,,,,,,,,,,,,,,,,,,,,,,,,,,,,,,,,,,,,,,,,,,,,,,,,,,,,,,,,,,,,,466.164398582001,None,466.164398582001,None,466.164398582001,None,g,1,0.5511359770025592,467.7148712019989,None,467.7148712019989,None,467.7148712019989,None,468.3359560709978,None,468.3359560709978,None,468.3359560709978,None,468.3359560709978,None,,,,,,,,,,,,,,,,,,,,,,,,,,,,,,,,,,,,,,,,,,,,001,168,2020_Feb_25_1353,spring_faces,3.1.5,60.079811704503896,
condition files/Stage0b_1.xlsx,0b,alpha,none,h,"['h', 'g']","['Chess', 'Go']","[-0.15, 0.5]","[0.15, 0.5]",1,0,0,10,10,10,0,0,0,0,,,,,,,,,,,,,,,,,,,,,,,,,,,,,,,,,,,,,,,,,,,,,,,,,,,,,,,,,,,,,,,470.3147203139997,None,470.3147203139997,None,470.3147203139997,None,h,1,0.7376384359995427,471.8484179949992,None,471.8484179949992,None,471.8484179949992,None,472.6483368959998,None,472.6483368959998,None,472.6483368959998,None,472.6483368959998,None,,,,,,,,,,,,,,,,,,,,,,,,,,,,,,,,,,,,,,,,,,,,001,168,2020_Feb_25_1353,spring_faces,3.1.5,60.079811704503896,
condition files/Stage0b_1.xlsx,0b,none,beta,g,"['h', 'g']","['Chess', 'Go']","[-0.15, 0.5]","[0.15, 0.5]",0,1,0,10,10,10,0,1,1,1,,,,,,,,,,,,,,,,,,,,,,,,,,,,,,,,,,,,,,,,,,,,,,,,,,,,,,,,,,,,,,,474.6146036600003,None,474.6146036600003,None,474.6146036600003,None,g,1,0.6574920050006767,476.1525326769988,None,476.1525326769988,None,476.1525326769988,None,476.8814257160011,None,476.8814257160011,None,476.8814257160011,None,476.8814257160011,None,,,,,,,,,,,,,,,,,,,,,,,,,,,,,,,,,,,,,,,,,,,,001,168,2020_Feb_25_1353,spring_faces,3.1.5,60.079811704503896,
condition files/Stage0b_2.xlsx,0b,none,alpha,h,"['h', 'g']","['Chess', 'Go']","[-0.15, 0.5]","[0.15, 0.5]",0,1,0,11,11,11,0,0,0,0,,,,,,,,,,,,,,,,,,,,,,,,,,,,,,,,,,,,,,,,,,,,,,,,,,,,,,,,,,,,,,,478.84812670799874,None,478.84812670799874,None,478.84812670799874,None,h,1,0.6367400800008909,480.381317233001,None,480.381317233001,None,480.381317233001,None,481.08319573100016,None,481.08319573100016,None,481.08319573100016,None,481.08319573100016,None,,,,,,,,,,,,,,,,,,,,,,,,,,,,,,,,,,,,,,,,,,,,001,168,2020_Feb_25_1353,spring_faces,3.1.5,60.079811704503896,
condition files/Stage0b_2.xlsx,0b,beta,none,g,"['h', 'g']","['Chess', 'Go']","[-0.15, 0.5]","[0.15, 0.5]",1,0,0,11,11,11,0,1,1,1,,,,,,,,,,,,,,,,,,,,,,,,,,,,,,,,,,,,,,,,,,,,,,,,,,,,,,,,,,,,,,,483.0477881679981,None,483.0477881679981,None,483.0477881679981,None,g,1,0.5164306169972406,484.59760551399813,None,484.59760551399813,None,484.59760551399813,None,485.16900633099795,None,485.16900633099795,None,485.16900633099795,None,485.16900633099795,None,,,,,,,,,,,,,,,,,,,,,,,,,,,,,,,,,,,,,,,,,,,,001,168,2020_Feb_25_1353,spring_faces,3.1.5,60.079811704503896,
condition files/Stage0c_1.xlsx,0c,phi,beta,g,"['h', 'g']","['Chess', 'Go']","[-0.15, 0.5]","[0.15, 0.5]",1,1,0,12,12,12,0,0,0,3,,,,,,,,,,,,,,,,,,,,,,,,,,,,,,,,,,,,,,,,,,,,,,,,,,,,,,,,,,,,,,,487.1484930580009,None,487.1484930580009,None,487.1484930580009,None,g,1,3.5531895070016617,488.6808608129977,None,488.6808608129977,None,488.6808608129977,None,492.28733606699825,None,492.28733606699825,None,492.28733606699825,None,492.28733606699825,None,,,,,,,,,,,,,,,,,,,,,,,,,,,,,,,,,,,,,,,,,,,,001,168,2020_Feb_25_1353,spring_faces,3.1.5,60.079811704503896,
condition files/Stage0c_1.xlsx,0c,beta,theta,g,"['h', 'g']","['Chess', 'Go']","[-0.15, 0.5]","[0.15, 0.5]",1,1,0,12,12,12,0,1,1,2,,,,,,,,,,,,,,,,,,,,,,,,,,,,,,,,,,,,,,,,,,,,,,,,,,,,,,,,,,,,,,,494.26443447699785,None,494.26443447699785,None,494.26443447699785,None,g,1,1.6521283380025125,495.79792495699803,None,495.79792495699803,None,495.79792495699803,None,497.5008027269978,None,497.5008027269978,None,497.5008027269978,None,497.5008027269978,None,,,,,,,,,,,,,,,,,,,,,,,,,,,,,,,,,,,,,,,,,,,,001,168,2020_Feb_25_1353,spring_faces,3.1.5,60.079811704503896,
condition files/Stage0c_1.xlsx,0c,theta,alpha,h,"['h', 'g']","['Chess', 'Go']","[-0.15, 0.5]","[0.15, 0.5]",1,1,0,12,12,12,0,2,2,0,,,,,,,,,,,,,,,,,,,,,,,,,,,,,,,,,,,,,,,,,,,,,,,,,,,,,,,,,,,,,,,499.4813529790008,None,499.4813529790008,None,499.4813529790008,None,h,1,0.8189819319995877,501.0150631559991,None,501.0150631559991,None,501.0150631559991,None,501.89815141899817,None,501.89815141899817,None,501.89815141899817,None,501.89815141899817,None,,,,,,,,,,,,,,,,,,,,,,,,,,,,,,,,,,,,,,,,,,,,001,168,2020_Feb_25_1353,spring_faces,3.1.5,60.079811704503896,
condition files/Stage0c_1.xlsx,0c,alpha,phi,h,"['h', 'g']","['Chess', 'Go']","[-0.15, 0.5]","[0.15, 0.5]",1,1,0,12,12,12,0,3,3,1,,,,,,,,,,,,,,,,,,,,,,,,,,,,,,,,,,,,,,,,,,,,,,,,,,,,,,,,,,,,,,,503.8644402639984,None,503.8644402639984,None,503.8644402639984,None,h,1,0.8844209689996205,505.39759138500085,None,505.39759138500085,None,505.39759138500085,None,506.33165098500103,None,506.33165098500103,None,506.33165098500103,None,506.33165098500103,None,,,,,,,,,,,,,,,,,,,,,,,,,,,,,,,,,,,,,,,,,,,,001,168,2020_Feb_25_1353,spring_faces,3.1.5,60.079811704503896,
condition files/Stage0c_2.xlsx,0c,theta,beta,g,"['h', 'g']","['Chess', 'Go']","[-0.15, 0.5]","[0.15, 0.5]",1,1,0,13,13,13,0,0,0,2,,,,,,,,,,,,,,,,,,,,,,,,,,,,,,,,,,,,,,,,,,,,,,,,,,,,,,,,,,,,,,,508.3315791189998,None,508.3315791189998,None,508.3315791189998,None,g,1,0.9610109029999876,509.8650315369996,None,509.8650315369996,None,509.8650315369996,None,510.8816227749994,None,510.8816227749994,None,510.8816227749994,None,510.8816227749994,None,,,,,,,,,,,,,,,,,,,,,,,,,,,,,,,,,,,,,,,,,,,,001,168,2020_Feb_25_1353,spring_faces,3.1.5,60.079811704503896,
condition files/Stage0c_2.xlsx,0c,alpha,theta,h,"['h', 'g']","['Chess', 'Go']","[-0.15, 0.5]","[0.15, 0.5]",1,1,0,13,13,13,0,1,1,0,,,,,,,,,,,,,,,,,,,,,,,,,,,,,,,,,,,,,,,,,,,,,,,,,,,,,,,,,,,,,,,512.8480676149993,None,512.8480676149993,None,512.8480676149993,None,h,1,0.7810113269988506,514.3810249099988,None,514.3810249099988,None,514.3810249099988,None,515.2147406629992,None,515.2147406629992,None,515.2147406629992,None,515.2147406629992,None,,,,,,,,,,,,,,,,,,,,,,,,,,,,,,,,,,,,,,,,,,,,001,168,2020_Feb_25_1353,spring_faces,3.1.5,60.079811704503896,
condition files/Stage0c_2.xlsx,0c,beta,phi,g,"['h', 'g']","['Chess', 'Go']","[-0.15, 0.5]","[0.15, 0.5]",1,1,0,13,13,13,0,2,2,3,,,,,,,,,,,,,,,,,,,,,,,,,,,,,,,,,,,,,,,,,,,,,,,,,,,,,,,,,,,,,,,517.1812962980002,None,517.1812962980002,None,517.1812962980002,None,g,1,1.2950671010003134,518.7149487989991,None,518.7149487989991,None,518.7149487989991,None,520.0643493479984,None,520.0643493479984,None,520.0643493479984,None,520.0643493479984,None,,,,,,,,,,,,,,,,,,,,,,,,,,,,,,,,,,,,,,,,,,,,001,168,2020_Feb_25_1353,spring_faces,3.1.5,60.079811704503896,
condition files/Stage0c_2.xlsx,0c,phi,alpha,h,"['h', 'g']","['Chess', 'Go']","[-0.15, 0.5]","[0.15, 0.5]",1,1,0,13,13,13,0,3,3,1,,,,,,,,,,,,,,,,,,,,,,,,,,,,,,,,,,,,,,,,,,,,,,,,,,,,,,,,,,,,,,,522.031291356001,None,522.031291356001,None,522.031291356001,None,h,1,0.6210207350013661,523.5650281269991,None,523.5650281269991,None,523.5650281269991,None,524.2484383139999,None,524.2484383139999,None,524.2484383139999,None,524.2484383139999,None,,,,,,,,,,,,,,,,,,,,,,,,,,,,,,,,,,,,,,,,,,,,001,168,2020_Feb_25_1353,spring_faces,3.1.5,60.079811704503896,
condition files/Stage0c_1.xlsx,0c,theta,alpha,h,"['h', 'g']","['Chess', 'Go']","[-0.15, 0.5]","[0.15, 0.5]",1,1,0,14,14,14,0,0,0,0,,,,,,,,,,,,,,,,,,,,,,,,,,,,,,,,,,,,,,,,,,,,,,,,,,,,,,,,,,,,,,,526.2315940330009,None,526.2315940330009,None,526.2315940330009,None,h,1,0.9171501919990988,527.7648801930009,None,527.7648801930009,None,527.7648801930009,None,528.7313699229999,None,528.7313699229999,None,528.7313699229999,None,528.7313699229999,None,,,,,,,,,,,,,,,,,,,,,,,,,,,,,,,,,,,,,,,,,,,,001,168,2020_Feb_25_1353,spring_faces,3.1.5,60.079811704503896,
condition files/Stage0c_1.xlsx,0c,beta,theta,g,"['h', 'g']","['Chess', 'Go']","[-0.15, 0.5]","[0.15, 0.5]",1,1,0,14,14,14,0,1,1,2,,,,,,,,,,,,,,,,,,,,,,,,,,,,,,,,,,,,,,,,,,,,,,,,,,,,,,,,,,,,,,,530.7146672179988,None,530.7146672179988,None,530.7146672179988,None,g,1,0.8662518780001847,532.2477860159997,None,532.2477860159997,None,532.2477860159997,None,533.1649465009978,None,533.1649465009978,None,533.1649465009978,None,533.1649465009978,None,,,,,,,,,,,,,,,,,,,,,,,,,,,,,,,,,,,,,,,,,,,,001,168,2020_Feb_25_1353,spring_faces,3.1.5,60.079811704503896,
condition files/Stage0c_1.xlsx,0c,alpha,phi,h,"['h', 'g']","['Chess', 'Go']","[-0.15, 0.5]","[0.15, 0.5]",1,1,0,14,14,14,0,2,2,1,,,,,,,,,,,,,,,,,,,,,,,,,,,,,,,,,,,,,,,,,,,,,,,,,,,,,,,,,,,,,,,535.1311750759996,None,535.1311750759996,None,535.1311750759996,None,h,1,1.4737361840016092,536.6643587920007,None,536.6643587920007,None,536.6643587920007,None,538.1980994789992,None,538.1980994789992,None,538.1980994789992,None,538.1980994789992,None,,,,,,,,,,,,,,,,,,,,,,,,,,,,,,,,,,,,,,,,,,,,001,168,2020_Feb_25_1353,spring_faces,3.1.5,60.079811704503896,
condition files/Stage0c_1.xlsx,0c,phi,beta,g,"['h', 'g']","['Chess', 'Go']","[-0.15, 0.5]","[0.15, 0.5]",1,1,0,14,14,14,0,3,3,3,,,,,,,,,,,,,,,,,,,,,,,,,,,,,,,,,,,,,,,,,,,,,,,,,,,,,,,,,,,,,,,540.164068817001,None,540.164068817001,None,540.164068817001,None,g,1,1.0639511749977828,541.6980763579995,None,541.6980763579995,None,541.6980763579995,None,542.8148291329999,None,542.8148291329999,None,542.8148291329999,None,542.8148291329999,None,,,,,,,,,,,,,,,,,,,,,,,,,,,,,,,,,,,,,,,,,,,,001,168,2020_Feb_25_1353,spring_faces,3.1.5,60.079811704503896,
condition files/Stage0c_2.xlsx,0c,alpha,theta,h,"['h', 'g']","['Chess', 'Go']","[-0.15, 0.5]","[0.15, 0.5]",1,1,0,15,15,15,0,0,0,0,,,,,,,,,,,,,,,,,,,,,,,,,,,,,,,,,,,,,,,,,,,,,,,,,,,,,,,,,,,,,,,544.797685092999,None,544.797685092999,None,544.797685092999,None,h,1,0.7504829850004171,546.3315346649979,None,546.3315346649979,None,546.3315346649979,None,547.1474944740003,None,547.1474944740003,None,547.1474944740003,None,547.1474944740003,None,,,,,,,,,,,,,,,,,,,,,,,,,,,,,,,,,,,,,,,,,,,,001,168,2020_Feb_25_1353,spring_faces,3.1.5,60.079811704503896,
condition files/Stage0c_2.xlsx,0c,beta,phi,g,"['h', 'g']","['Chess', 'Go']","[-0.15, 0.5]","[0.15, 0.5]",1,1,0,15,15,15,0,1,1,3,,,,,,,,,,,,,,,,,,,,,,,,,,,,,,,,,,,,,,,,,,,,,,,,,,,,,,,,,,,,,,,549.1159470909988,None,549.1159470909988,None,549.1159470909988,None,g,1,0.9617760730034206,550.6482483219988,None,550.6482483219988,None,550.6482483219988,None,551.664179686999,None,551.664179686999,None,551.664179686999,None,551.664179686999,None,,,,,,,,,,,,,,,,,,,,,,,,,,,,,,,,,,,,,,,,,,,,001,168,2020_Feb_25_1353,spring_faces,3.1.5,60.079811704503896,
condition files/Stage0c_2.xlsx,0c,phi,alpha,h,"['h', 'g']","['Chess', 'Go']","[-0.15, 0.5]","[0.15, 0.5]",1,1,0,15,15,15,0,2,2,1,,,,,,,,,,,,,,,,,,,,,,,,,,,,,,,,,,,,,,,,,,,,,,,,,,,,,,,,,,,,,,,553.6312952289991,None,553.6312952289991,None,553.6312952289991,None,h,1,0.65321982399837,555.164826586999,None,555.164826586999,None,555.164826586999,None,555.8807711849986,None,555.8807711849986,None,555.8807711849986,None,555.8807711849986,None,,,,,,,,,,,,,,,,,,,,,,,,,,,,,,,,,,,,,,,,,,,,001,168,2020_Feb_25_1353,spring_faces,3.1.5,60.079811704503896,
condition files/Stage0c_2.xlsx,0c,theta,beta,g,"['h', 'g']","['Chess', 'Go']","[-0.15, 0.5]","[0.15, 0.5]",1,1,0,15,15,15,0,3,3,2,,,,,,,,,,,,,,,,,,,,,,,,,,,,,,,,,,,,,,,,,,,,,,,,,,,,,,,,,,,,,,,557.8479908230001,None,557.8479908230001,None,557.8479908230001,None,g,1,0.9640428890015755,559.3819952550002,None,559.3819952550002,None,559.3819952550002,None,560.3982027089987,None,560.3982027089987,None,560.3982027089987,None,560.3982027089987,None,,,,,,,,,,,,,,,,,,,,,,,,,,,,,,,,,,,,,,,,,,,,001,168,2020_Feb_25_1353,spring_faces,3.1.5,60.079811704503896,
condition files/Stage0c_1.xlsx,0c,beta,theta,g,"['h', 'g']","['Chess', 'Go']","[-0.15, 0.5]","[0.15, 0.5]",1,1,0,16,16,16,0,0,0,2,,,,,,,,,,,,,,,,,,,,,,,,,,,,,,,,,,,,,,,,,,,,,,,,,,,,,,,,,,,,,,,562.3812834809978,None,562.3812834809978,None,562.3812834809978,None,g,1,1.0869590849979431,563.9151037209995,None,563.9151037209995,None,563.9151037209995,None,565.0473821790001,None,565.0473821790001,None,565.0473821790001,None,565.0473821790001,None,,,,,,,,,,,,,,,,,,,,,,,,,,,,,,,,,,,,,,,,,,,,001,168,2020_Feb_25_1353,spring_faces,3.1.5,60.079811704503896,
condition files/Stage0c_1.xlsx,0c,phi,beta,g,"['h', 'g']","['Chess', 'Go']","[-0.15, 0.5]","[0.15, 0.5]",1,1,0,16,16,16,0,1,1,3,,,,,,,,,,,,,,,,,,,,,,,,,,,,,,,,,,,,,,,,,,,,,,,,,,,,,,,,,,,,,,,567.0310567359993,None,567.0310567359993,None,567.0310567359993,None,g,1,0.9652760999997554,568.564761728001,None,568.564761728001,None,568.564761728001,None,569.5664914759982,None,569.5664914759982,None,569.5664914759982,None,569.5664914759982,None,,,,,,,,,,,,,,,,,,,,,,,,,,,,,,,,,,,,,,,,,,,,001,168,2020_Feb_25_1353,spring_faces,3.1.5,60.079811704503896,
condition files/Stage0c_1.xlsx,0c,theta,alpha,h,"['h', 'g']","['Chess', 'Go']","[-0.15, 0.5]","[0.15, 0.5]",1,1,0,16,16,16,0,2,2,0,,,,,,,,,,,,,,,,,,,,,,,,,,,,,,,,,,,,,,,,,,,,,,,,,,,,,,,,,,,,,,,571.5479540259985,None,571.5479540259985,None,571.5479540259985,None,h,1,0.7047258919992601,573.0813184159997,None,573.0813184159997,None,573.0813184159997,None,573.8481376540003,None,573.8481376540003,None,573.8481376540003,None,573.8481376540003,None,,,,,,,,,,,,,,,,,,,,,,,,,,,,,,,,,,,,,,,,,,,,001,168,2020_Feb_25_1353,spring_faces,3.1.5,60.079811704503896,
condition files/Stage0c_1.xlsx,0c,alpha,phi,h,"['h', 'g']","['Chess', 'Go']","[-0.15, 0.5]","[0.15, 0.5]",1,1,0,16,16,16,0,3,3,1,,,,,,,,,,,,,,,,,,,,,,,,,,,,,,,,,,,,,,,,,,,,,,,,,,,,,,,,,,,,,,,575.814760289999,None,575.814760289999,None,575.814760289999,None,g,0,2.422224208999978,577.3478272049979,None,577.3478272049979,None,577.3478272049979,None,579.8308042450008,None,579.8308042450008,None,579.8308042450008,None,579.8308042450008,None,,,,,,,,,,,,,,,,,,,,,,,,,,,,,,,,,,,,,,,,,,,,001,168,2020_Feb_25_1353,spring_faces,3.1.5,60.079811704503896,
condition files/Stage0c_2.xlsx,0c,phi,alpha,h,"['h', 'g']","['Chess', 'Go']","[-0.15, 0.5]","[0.15, 0.5]",1,1,0,17,17,17,0,0,0,1,,,,,,,,,,,,,,,,,,,,,,,,,,,,,,,,,,,,,,,,,,,,,,,,,,,,,,,,,,,,,,,581.8145323290009,None,581.8145323290009,None,581.8145323290009,None,h,1,1.1909333799994783,583.3311734970011,None,583.3311734970011,None,583.3311734970011,None,584.5662895679998,None,584.5662895679998,None,584.5662895679998,None,584.5662895679998,None,,,,,,,,,,,,,,,,,,,,,,,,,,,,,,,,,,,,,,,,,,,,001,168,2020_Feb_25_1353,spring_faces,3.1.5,60.079811704503896,
condition files/Stage0c_2.xlsx,0c,beta,phi,g,"['h', 'g']","['Chess', 'Go']","[-0.15, 0.5]","[0.15, 0.5]",1,1,0,17,17,17,0,1,1,3,,,,,,,,,,,,,,,,,,,,,,,,,,,,,,,,,,,,,,,,,,,,,,,,,,,,,,,,,,,,,,,586.5478951590012,None,586.5478951590012,None,586.5478951590012,None,g,1,1.5603717699996196,588.0817484910003,None,588.0817484910003,None,588.0817484910003,None,589.6982580980002,None,589.6982580980002,None,589.6982580980002,None,589.6982580980002,None,,,,,,,,,,,,,,,,,,,,,,,,,,,,,,,,,,,,,,,,,,,,001,168,2020_Feb_25_1353,spring_faces,3.1.5,60.079811704503896,
condition files/Stage0c_2.xlsx,0c,alpha,theta,h,"['h', 'g']","['Chess', 'Go']","[-0.15, 0.5]","[0.15, 0.5]",1,1,0,17,17,17,0,2,2,0,,,,,,,,,,,,,,,,,,,,,,,,,,,,,,,,,,,,,,,,,,,,,,,,,,,,,,,,,,,,,,,591.6646462239987,None,591.6646462239987,None,591.6646462239987,None,h,1,0.8919358019993524,593.198177252998,None,593.198177252998,None,593.198177252998,None,594.1481145039979,None,594.1481145039979,None,594.1481145039979,None,594.1481145039979,None,,,,,,,,,,,,,,,,,,,,,,,,,,,,,,,,,,,,,,,,,,,,001,168,2020_Feb_25_1353,spring_faces,3.1.5,60.079811704503896,
condition files/Stage0c_2.xlsx,0c,theta,beta,g,"['h', 'g']","['Chess', 'Go']","[-0.15, 0.5]","[0.15, 0.5]",1,1,0,17,17,17,0,3,3,2,,,,,,,,,,,,,,,,,,,,,,,,,,,,,,,,,,,,,,,,,,,,,,,,,,,,,,,,,,,,,,,596.1146376270008,None,596.1146376270008,None,596.1146376270008,None,g,1,1.0178869839983236,597.6481163380013,None,597.6481163380013,None,597.6481163380013,None,598.7315520909979,None,598.7315520909979,None,598.7315520909979,None,598.7315520909979,None,,,,,,,,,,,,,,,,,,,,,,,,,,,,,,,,,,,,,,,,,,,,001,168,2020_Feb_25_1353,spring_faces,3.1.5,60.079811704503896,
,,,,,,,,,,,,,,,,,,,,,,,,,,,,,,,,,,,,,,,,,,,,,,,,,,,,,,,,,,,,,,,,,,,,,,,,,,,,,,,,,,,,,,,,,,,,,,,,,,,,,,,,600.7141660730013,None,space,4.919357104998198,605.7146957000004,None,,,,,,,,,,,,,,,,,,,,,,,,,,,,,,,,,,,,,,001,168,2020_Feb_25_1353,spring_faces,3.1.5,60.079811704503896,
condition files/Stage1_1.xlsx,,T2,B2,m,"['c', 'm']","['Clue', 'Monopoly']","[-0.15, 0.5]","[0.15, 0.5]",1,1,,,,,,,,,0,0,0,0,0,0,0,3,,,,,,,,,,,,,,,,,,,,,,,,,,,,,,,,,,,,,,,,,,,,,,,,,,,,,,,610.6981256709987,None,610.6981256709987,None,610.6981256709987,None,m,1,2.575924977001705,612.2981882099994,None,612.2981882099994,None,612.2981882099994,None,614.9646053469987,None,614.9646053469987,None,614.9646053469987,None,614.9646053469987,None,,,,,,,605.7146957000004,None,,,,,,,,,,,,,,,,,,,,,,,,,,,,,,,,,,,,001,168,2020_Feb_25_1353,spring_faces,3.1.5,60.079811704503896,
condition files/Stage1_1.xlsx,,T1,B1,c,"['c', 'm']","['Clue', 'Monopoly']","[-0.15, 0.5]","[0.15, 0.5]",1,1,,,,,,,,,0,0,0,0,0,1,1,0,,,,,,,,,,,,,,,,,,,,,,,,,,,,,,,,,,,,,,,,,,,,,,,,,,,,,,,616.8978685170005,None,616.8978685170005,None,616.8978685170005,None,m,0,1.8978486429987242,618.4481865929993,None,618.4481865929993,None,618.4481865929993,None,620.4147035610004,None,620.4147035610004,None,620.4147035610004,None,620.4147035610004,None,,,,,,,,,,,,,,,,,,,,,,,,,,,,,,,,,,,,,,,,,,,,001,168,2020_Feb_25_1353,spring_faces,3.1.5,60.079811704503896,
condition files/Stage1_1.xlsx,,B4,T4,m,"['c', 'm']","['Clue', 'Monopoly']","[-0.15, 0.5]","[0.15, 0.5]",1,1,,,,,,,,,0,0,0,0,0,2,2,7,,,,,,,,,,,,,,,,,,,,,,,,,,,,,,,,,,,,,,,,,,,,,,,,,,,,,,,622.3647345739992,None,622.3647345739992,None,622.3647345739992,None,c,0,0.9747027599987632,623.8994399939984,None,623.8994399939984,None,623.8994399939984,None,624.9322101170001,None,624.9322101170001,None,624.9322101170001,None,624.9322101170001,None,,,,,,,,,,,,,,,,,,,,,,,,,,,,,,,,,,,,,,,,,,,,001,168,2020_Feb_25_1353,spring_faces,3.1.5,60.079811704503896,
condition files/Stage1_1.xlsx,,B3,T3,c,"['c', 'm']","['Clue', 'Monopoly']","[-0.15, 0.5]","[0.15, 0.5]",1,1,,,,,,,,,0,0,0,0,0,3,3,4,,,,,,,,,,,,,,,,,,,,,,,,,,,,,,,,,,,,,,,,,,,,,,,,,,,,,,,626.8979870229996,None,626.8979870229996,None,626.8979870229996,None,c,1,1.0675464470004954,628.4305200630006,None,628.4305200630006,None,628.4305200630006,None,629.5491976179983,None,629.5491976179983,None,629.5491976179983,None,629.5491976179983,None,,,,,,,,,,,,,,,,,,,,,,,,,,,,,,,,,,,,,,,,,,,,001,168,2020_Feb_25_1353,spring_faces,3.1.5,60.079811704503896,
condition files/Stage1_1.xlsx,,T4,B3,m,"['c', 'm']","['Clue', 'Monopoly']","[-0.15, 0.5]","[0.15, 0.5]",1,1,,,,,,,,,0,0,0,0,0,4,4,6,,,,,,,,,,,,,,,,,,,,,,,,,,,,,,,,,,,,,,,,,,,,,,,,,,,,,,,631.5146626009991,None,631.5146626009991,None,631.5146626009991,None,m,1,1.0399701669994101,633.0501587430008,None,633.0501587430008,None,633.0501587430008,None,634.1645654159984,None,634.1645654159984,None,634.1645654159984,None,634.1645654159984,None,,,,,,,,,,,,,,,,,,,,,,,,,,,,,,,,,,,,,,,,,,,,001,168,2020_Feb_25_1353,spring_faces,3.1.5,60.079811704503896,
condition files/Stage1_1.xlsx,,B1,T2,c,"['c', 'm']","['Clue', 'Monopoly']","[-0.15, 0.5]","[0.15, 0.5]",1,1,,,,,,,,,0,0,0,0,0,5,5,1,,,,,,,,,,,,,,,,,,,,,,,,,,,,,,,,,,,,,,,,,,,,,,,,,,,,,,,636.1142033729993,None,636.1142033729993,None,636.1142033729993,None,c,1,1.3699272209996707,637.6641169779978,None,637.6641169779978,None,637.6641169779978,None,639.1005466479983,None,639.1005466479983,None,639.1005466479983,None,639.1005466479983,None,,,,,,,,,,,,,,,,,,,,,,,,,,,,,,,,,,,,,,,,,,,,001,168,2020_Feb_25_1353,spring_faces,3.1.5,60.079811704503896,
condition files/Stage1_1.xlsx,,B2,T1,m,"['c', 'm']","['Clue', 'Monopoly']","[-0.15, 0.5]","[0.15, 0.5]",1,1,,,,,,,,,0,0,0,0,0,6,6,2,,,,,,,,,,,,,,,,,,,,,,,,,,,,,,,,,,,,,,,,,,,,,,,,,,,,,,,641.0645823339983,None,641.0645823339983,None,641.0645823339983,None,c,0,1.2503710849996423,642.5996461180002,None,642.5996461180002,None,642.5996461180002,None,643.9312576140001,None,643.9312576140001,None,643.9312576140001,None,643.9312576140001,None,,,,,,,,,,,,,,,,,,,,,,,,,,,,,,,,,,,,,,,,,,,,001,168,2020_Feb_25_1353,spring_faces,3.1.5,60.079811704503896,
condition files/Stage1_1.xlsx,,T3,B4,c,"['c', 'm']","['Clue', 'Monopoly']","[-0.15, 0.5]","[0.15, 0.5]",1,1,,,,,,,,,0,0,0,0,0,7,7,5,,,,,,,,,,,,,,,,,,,,,,,,,,,,,,,,,,,,,,,,,,,,,,,,,,,,,,,645.881275331998,None,645.881275331998,None,645.881275331998,None,c,1,1.9699447029997827,647.4161302619978,None,647.4161302619978,None,647.4161302619978,None,649.4647892530011,None,649.4647892530011,None,649.4647892530011,None,649.4647892530011,None,,,,,,,,,,,,,,,,,,,,,,,,,,,,,,,,,,,,,,,,,,,,001,168,2020_Feb_25_1353,spring_faces,3.1.5,60.079811704503896,
condition files/Stage1_2.xlsx,,B3,T4,m,"['c', 'm']","['Clue', 'Monopoly']","[-0.15, 0.5]","[0.15, 0.5]",1,1,,,,,,,,,0,1,1,1,0,0,0,6,,,,,,,,,,,,,,,,,,,,,,,,,,,,,,,,,,,,,,,,,,,,,,,,,,,,,,,651.4312568770001,None,651.4312568770001,None,651.4312568770001,None,m,1,1.5249794449991896,652.9651546509995,None,652.9651546509995,None,652.9651546509995,None,654.549993487999,None,654.549993487999,None,654.549993487999,None,654.549993487999,None,,,,,,,,,,,,,,,,,,,,,,,,,,,,,,,,,,,,,,,,,,,,001,168,2020_Feb_25_1353,spring_faces,3.1.5,60.079811704503896,
condition files/Stage1_2.xlsx,,B4,T3,c,"['c', 'm']","['Clue', 'Monopoly']","[-0.15, 0.5]","[0.15, 0.5]",1,1,,,,,,,,,0,1,1,1,0,1,1,5,,,,,,,,,,,,,,,,,,,,,,,,,,,,,,,,,,,,,,,,,,,,,,,,,,,,,,,656.5145285309991,None,656.5145285309991,None,656.5145285309991,None,m,0,1.0342631630010146,658.0477533099984,None,658.0477533099984,None,658.0477533099984,None,659.1473402759984,None,659.1473402759984,None,659.1473402759984,None,659.1473402759984,None,,,,,,,,,,,,,,,,,,,,,,,,,,,,,,,,,,,,,,,,,,,,001,168,2020_Feb_25_1353,spring_faces,3.1.5,60.079811704503896,
condition files/Stage1_2.xlsx,,T3,B3,c,"['c', 'm']","['Clue', 'Monopoly']","[-0.15, 0.5]","[0.15, 0.5]",1,1,,,,,,,,,0,1,1,1,0,2,2,4,,,,,,,,,,,,,,,,,,,,,,,,,,,,,,,,,,,,,,,,,,,,,,,,,,,,,,,661.1144950939997,None,661.1144950939997,None,661.1144950939997,None,m,0,1.8418382060008298,662.6482986230003,None,662.6482986230003,None,662.6482986230003,None,664.5482769490009,None,664.5482769490009,None,664.5482769490009,None,664.5482769490009,None,,,,,,,,,,,,,,,,,,,,,,,,,,,,,,,,,,,,,,,,,,,,001,168,2020_Feb_25_1353,spring_faces,3.1.5,60.079811704503896,
condition files/Stage1_2.xlsx,,T4,B4,m,"['c', 'm']","['Clue', 'Monopoly']","[-0.15, 0.5]","[0.15, 0.5]",1,1,,,,,,,,,0,1,1,1,0,3,3,7,,,,,,,,,,,,,,,,,,,,,,,,,,,,,,,,,,,,,,,,,,,,,,,,,,,,,,,666.5147505960012,None,666.5147505960012,None,666.5147505960012,None,m,1,1.0817927540010714,668.0642492389998,None,668.0642492389998,None,668.0642492389998,None,669.2151045940009,None,669.2151045940009,None,669.2151045940009,None,669.2151045940009,None,,,,,,,,,,,,,,,,,,,,,,,,,,,,,,,,,,,,,,,,,,,,001,168,2020_Feb_25_1353,spring_faces,3.1.5,60.079811704503896,
condition files/Stage1_2.xlsx,,T2,B1,c,"['c', 'm']","['Clue', 'Monopoly']","[-0.15, 0.5]","[0.15, 0.5]",1,1,,,,,,,,,0,1,1,1,0,4,4,1,,,,,,,,,,,,,,,,,,,,,,,,,,,,,,,,,,,,,,,,,,,,,,,,,,,,,,,671.1647406000011,None,671.1647406000011,None,671.1647406000011,None,c,1,1.4237165890008328,672.7143965169998,None,672.7143965169998,None,672.7143965169998,None,674.1988903359997,None,674.1988903359997,None,674.1988903359997,None,674.1988903359997,None,,,,,,,,,,,,,,,,,,,,,,,,,,,,,,,,,,,,,,,,,,,,001,168,2020_Feb_25_1353,spring_faces,3.1.5,60.079811704503896,
condition files/Stage1_2.xlsx,,B2,T2,m,"['c', 'm']","['Clue', 'Monopoly']","[-0.15, 0.5]","[0.15, 0.5]",1,1,,,,,,,,,0,1,1,1,0,5,5,3,,,,,,,,,,,,,,,,,,,,,,,,,,,,,,,,,,,,,,,,,,,,,,,,,,,,,,,676.1644579540007,None,676.1644579540007,None,676.1644579540007,None,m,1,1.3999248410000291,677.6981406009982,None,677.6981406009982,None,677.6981406009982,None,679.164362612999,None,679.164362612999,None,679.164362612999,None,679.164362612999,None,,,,,,,,,,,,,,,,,,,,,,,,,,,,,,,,,,,,,,,,,,,,001,168,2020_Feb_25_1353,spring_faces,3.1.5,60.079811704503896,
condition files/Stage1_2.xlsx,,T1,B2,m,"['c', 'm']","['Clue', 'Monopoly']","[-0.15, 0.5]","[0.15, 0.5]",1,1,,,,,,,,,0,1,1,1,0,6,6,2,,,,,,,,,,,,,,,,,,,,,,,,,,,,,,,,,,,,,,,,,,,,,,,,,,,,,,,681.1147349519997,None,681.1147349519997,None,681.1147349519997,None,c,0,0.40171515600013663,682.6482933689986,None,682.6482933689986,None,682.6482933689986,None,683.1147899149983,None,683.1147899149983,None,683.1147899149983,None,683.1147899149983,None,,,,,,,,,,,,,,,,,,,,,,,,,,,,,,,,,,,,,,,,,,,,001,168,2020_Feb_25_1353,spring_faces,3.1.5,60.079811704503896,
condition files/Stage1_2.xlsx,,B1,T1,c,"['c', 'm']","['Clue', 'Monopoly']","[-0.15, 0.5]","[0.15, 0.5]",1,1,,,,,,,,,0,1,1,1,0,7,7,0,,,,,,,,,,,,,,,,,,,,,,,,,,,,,,,,,,,,,,,,,,,,,,,,,,,,,,,685.0814923379985,None,685.0814923379985,None,685.0814923379985,None,c,1,3.1392122700017353,686.6149237770005,None,686.6149237770005,None,686.6149237770005,None,689.8317165010012,None,689.8317165010012,None,689.8317165010012,None,689.8317165010012,None,,,,,,,,,,,,,,,,,,,,,,,,,,,,,,,,,,,,,,,,,,,,001,168,2020_Feb_25_1353,spring_faces,3.1.5,60.079811704503896,
condition files/Stage1_1.xlsx,,B2,T1,m,"['c', 'm']","['Clue', 'Monopoly']","[-0.15, 0.5]","[0.15, 0.5]",1,1,,,,,,,,,0,2,2,2,0,0,0,2,,,,,,,,,,,,,,,,,,,,,,,,,,,,,,,,,,,,,,,,,,,,,,,,,,,,,,,691.7983121340003,None,691.7983121340003,None,691.7983121340003,None,c,0,3.046399091999774,693.3318862650012,None,693.3318862650012,None,693.3318862650012,None,696.448384577001,None,696.448384577001,None,696.448384577001,None,696.448384577001,None,,,,,,,,,,,,,,,,,,,,,,,,,,,,,,,,,,,,,,,,,,,,001,168,2020_Feb_25_1353,spring_faces,3.1.5,60.079811704503896,
condition files/Stage1_1.xlsx,,T2,B2,m,"['c', 'm']","['Clue', 'Monopoly']","[-0.15, 0.5]","[0.15, 0.5]",1,1,,,,,,,,,0,2,2,2,0,1,1,3,,,,,,,,,,,,,,,,,,,,,,,,,,,,,,,,,,,,,,,,,,,,,,,,,,,,,,,698.3979209850004,None,698.3979209850004,None,698.3979209850004,None,m,1,3.133977475001302,699.9480216669981,None,699.9480216669981,None,699.9480216669981,None,703.147260583999,None,703.147260583999,None,703.147260583999,None,703.147260583999,None,,,,,,,,,,,,,,,,,,,,,,,,,,,,,,,,,,,,,,,,,,,,001,168,2020_Feb_25_1353,spring_faces,3.1.5,60.079811704503896,
condition files/Stage1_1.xlsx,,T4,B3,m,"['c', 'm']","['Clue', 'Monopoly']","[-0.15, 0.5]","[0.15, 0.5]",1,1,,,,,,,,,0,2,2,2,0,2,2,6,,,,,,,,,,,,,,,,,,,,,,,,,,,,,,,,,,,,,,,,,,,,,,,,,,,,,,,705.114623049998,None,705.114623049998,None,705.114623049998,None,c,0,1.3762451019974833,706.6498079689991,None,706.6498079689991,None,706.6498079689991,None,708.0816314820004,None,708.0816314820004,None,708.0816314820004,None,708.0816314820004,None,,,,,,,,,,,,,,,,,,,,,,,,,,,,,,,,,,,,,,,,,,,,001,168,2020_Feb_25_1353,spring_faces,3.1.5,60.079811704503896,
condition files/Stage1_1.xlsx,,T1,B1,c,"['c', 'm']","['Clue', 'Monopoly']","[-0.15, 0.5]","[0.15, 0.5]",1,1,,,,,,,,,0,2,2,2,0,3,3,0,,,,,,,,,,,,,,,,,,,,,,,,,,,,,,,,,,,,,,,,,,,,,,,,,,,,,,,710.0479189340003,None,710.0479189340003,None,710.0479189340003,None,c,1,2.3325965279982483,711.5814389449988,None,711.5814389449988,None,711.5814389449988,None,713.9814862390012,None,713.9814862390012,None,713.9814862390012,None,713.9814862390012,None,,,,,,,,,,,,,,,,,,,,,,,,,,,,,,,,,,,,,,,,,,,,001,168,2020_Feb_25_1353,spring_faces,3.1.5,60.079811704503896,
condition files/Stage1_1.xlsx,,B4,T4,m,"['c', 'm']","['Clue', 'Monopoly']","[-0.15, 0.5]","[0.15, 0.5]",1,1,,,,,,,,,0,2,2,2,0,4,4,7,,,,,,,,,,,,,,,,,,,,,,,,,,,,,,,,,,,,,,,,,,,,,,,,,,,,,,,715.9314712449996,None,715.9314712449996,None,715.9314712449996,None,m,1,1.8411056910008483,717.4650275200001,None,717.4650275200001,None,717.4650275200001,None,719.3818620929997,None,719.3818620929997,None,719.3818620929997,None,719.3818620929997,None,,,,,,,,,,,,,,,,,,,,,,,,,,,,,,,,,,,,,,,,,,,,001,168,2020_Feb_25_1353,spring_faces,3.1.5,60.079811704503896,
condition files/Stage1_1.xlsx,,T3,B4,c,"['c', 'm']","['Clue', 'Monopoly']","[-0.15, 0.5]","[0.15, 0.5]",1,1,,,,,,,,,0,2,2,2,0,5,5,5,,,,,,,,,,,,,,,,,,,,,,,,,,,,,,,,,,,,,,,,,,,,,,,,,,,,,,,721.3311708680012,None,721.3311708680012,None,721.3311708680012,None,c,1,0.9363141110006836,722.8817353470004,None,722.8817353470004,None,722.8817353470004,None,723.881930173,None,723.881930173,None,723.881930173,None,723.881930173,None,,,,,,,,,,,,,,,,,,,,,,,,,,,,,,,,,,,,,,,,,,,,001,168,2020_Feb_25_1353,spring_faces,3.1.5,60.079811704503896,
condition files/Stage1_1.xlsx,,B3,T3,c,"['c', 'm']","['Clue', 'Monopoly']","[-0.15, 0.5]","[0.15, 0.5]",1,1,,,,,,,,,0,2,2,2,0,6,6,4,,,,,,,,,,,,,,,,,,,,,,,,,,,,,,,,,,,,,,,,,,,,,,,,,,,,,,,725.8479875579978,None,725.8479875579978,None,725.8479875579978,None,m,0,1.1400771260014153,727.3820551569988,None,727.3820551569988,None,727.3820551569988,None,728.5812321449994,None,728.5812321449994,None,728.5812321449994,None,728.5812321449994,None,,,,,,,,,,,,,,,,,,,,,,,,,,,,,,,,,,,,,,,,,,,,001,168,2020_Feb_25_1353,spring_faces,3.1.5,60.079811704503896,
condition files/Stage1_1.xlsx,,B1,T2,c,"['c', 'm']","['Clue', 'Monopoly']","[-0.15, 0.5]","[0.15, 0.5]",1,1,,,,,,,,,0,2,2,2,0,7,7,1,,,,,,,,,,,,,,,,,,,,,,,,,,,,,,,,,,,,,,,,,,,,,,,,,,,,,,,730.5474173149996,None,730.5474173149996,None,730.5474173149996,None,c,1,0.5206197900006373,732.0814372589994,None,732.0814372589994,None,732.0814372589994,None,732.6643692789985,None,732.6643692789985,None,732.6643692789985,None,732.6643692789985,None,,,,,,,,,,,,,,,,,,,,,,,,,,,,,,,,,,,,,,,,,,,,001,168,2020_Feb_25_1353,spring_faces,3.1.5,60.079811704503896,
condition files/Stage1_2.xlsx,,T2,B1,c,"['c', 'm']","['Clue', 'Monopoly']","[-0.15, 0.5]","[0.15, 0.5]",1,1,,,,,,,,,0,3,3,3,0,0,0,1,,,,,,,,,,,,,,,,,,,,,,,,,,,,,,,,,,,,,,,,,,,,,,,,,,,,,,,734.6481230019999,None,734.6481230019999,None,734.6481230019999,None,c,1,0.29253818500001216,736.1975931720008,None,736.1975931720008,None,736.1975931720008,None,736.5478967140007,None,736.5478967140007,None,736.5478967140007,None,736.5478967140007,None,,,,,,,,,,,,,,,,,,,,,,,,,,,,,,,,,,,,,,,,,,,,001,168,2020_Feb_25_1353,spring_faces,3.1.5,60.079811704503896,
condition files/Stage1_2.xlsx,,T1,B2,m,"['c', 'm']","['Clue', 'Monopoly']","[-0.15, 0.5]","[0.15, 0.5]",1,1,,,,,,,,,0,3,3,3,0,1,1,2,,,,,,,,,,,,,,,,,,,,,,,,,,,,,,,,,,,,,,,,,,,,,,,,,,,,,,,738.5145670460006,None,738.5145670460006,None,738.5145670460006,None,m,1,0.9698780760008958,740.0481898159996,None,740.0481898159996,None,740.0481898159996,None,741.0983802509982,None,741.0983802509982,None,741.0983802509982,None,741.0983802509982,None,,,,,,,,,,,,,,,,,,,,,,,,,,,,,,,,,,,,,,,,,,,,001,168,2020_Feb_25_1353,spring_faces,3.1.5,60.079811704503896,
condition files/Stage1_2.xlsx,,B2,T2,m,"['c', 'm']","['Clue', 'Monopoly']","[-0.15, 0.5]","[0.15, 0.5]",1,1,,,,,,,,,0,3,3,3,0,2,2,3,,,,,,,,,,,,,,,,,,,,,,,,,,,,,,,,,,,,,,,,,,,,,,,,,,,,,,,743.0479487459997,None,743.0479487459997,None,743.0479487459997,None,c,0,1.5878649619990028,744.5981874979989,None,744.5981874979989,None,744.5981874979989,None,746.2475413600005,None,746.2475413600005,None,746.2475413600005,None,746.2475413600005,None,,,,,,,,,,,,,,,,,,,,,,,,,,,,,,,,,,,,,,,,,,,,001,168,2020_Feb_25_1353,spring_faces,3.1.5,60.079811704503896,
condition files/Stage1_2.xlsx,,B1,T1,c,"['c', 'm']","['Clue', 'Monopoly']","[-0.15, 0.5]","[0.15, 0.5]",1,1,,,,,,,,,0,3,3,3,0,3,3,0,,,,,,,,,,,,,,,,,,,,,,,,,,,,,,,,,,,,,,,,,,,,,,,,,,,,,,,748.2146334620011,None,748.2146334620011,None,748.2146334620011,None,m,0,0.27867783900001086,749.7473796150007,None,749.7473796150007,None,749.7473796150007,None,750.083234048001,None,750.083234048001,None,750.083234048001,None,750.083234048001,None,,,,,,,,,,,,,,,,,,,,,,,,,,,,,,,,,,,,,,,,,,,,001,168,2020_Feb_25_1353,spring_faces,3.1.5,60.079811704503896,
condition files/Stage1_2.xlsx,,B4,T3,c,"['c', 'm']","['Clue', 'Monopoly']","[-0.15, 0.5]","[0.15, 0.5]",1,1,,,,,,,,,0,3,3,3,0,4,4,5,,,,,,,,,,,,,,,,,,,,,,,,,,,,,,,,,,,,,,,,,,,,,,,,,,,,,,,752.0479775700005,None,752.0479775700005,None,752.0479775700005,None,m,0,0.4763954720001493,753.5817345409996,None,753.5817345409996,None,753.5817345409996,None,754.1149158080007,None,754.1149158080007,None,754.1149158080007,None,754.1149158080007,None,,,,,,,,,,,,,,,,,,,,,,,,,,,,,,,,,,,,,,,,,,,,001,168,2020_Feb_25_1353,spring_faces,3.1.5,60.079811704503896,
condition files/Stage1_2.xlsx,,B3,T4,m,"['c', 'm']","['Clue', 'Monopoly']","[-0.15, 0.5]","[0.15, 0.5]",1,1,,,,,,,,,0,3,3,3,0,5,5,6,,,,,,,,,,,,,,,,,,,,,,,,,,,,,,,,,,,,,,,,,,,,,,,,,,,,,,,756.0811375589983,None,756.0811375589983,None,756.0811375589983,None,m,1,0.4757152860001952,757.6144125600003,None,757.6144125600003,None,757.6144125600003,None,758.1500768849983,None,758.1500768849983,None,758.1500768849983,None,758.1500768849983,None,,,,,,,,,,,,,,,,,,,,,,,,,,,,,,,,,,,,,,,,,,,,001,168,2020_Feb_25_1353,spring_faces,3.1.5,60.079811704503896,
condition files/Stage1_2.xlsx,,T3,B3,c,"['c', 'm']","['Clue', 'Monopoly']","[-0.15, 0.5]","[0.15, 0.5]",1,1,,,,,,,,,0,3,3,3,0,6,6,4,,,,,,,,,,,,,,,,,,,,,,,,,,,,,,,,,,,,,,,,,,,,,,,,,,,,,,,760.1146303599999,None,760.1146303599999,None,760.1146303599999,None,c,1,0.9699464969999099,761.6481177419992,None,761.6481177419992,None,761.6481177419992,None,762.6812073330002,None,762.6812073330002,None,762.6812073330002,None,762.6812073330002,None,,,,,,,,,,,,,,,,,,,,,,,,,,,,,,,,,,,,,,,,,,,,001,168,2020_Feb_25_1353,spring_faces,3.1.5,60.079811704503896,
condition files/Stage1_2.xlsx,,T4,B4,m,"['c', 'm']","['Clue', 'Monopoly']","[-0.15, 0.5]","[0.15, 0.5]",1,1,,,,,,,,,0,3,3,3,0,7,7,7,,,,,,,,,,,,,,,,,,,,,,,,,,,,,,,,,,,,,,,,,,,,,,,,,,,,,,,764.6480186080007,None,764.6480186080007,None,764.6480186080007,None,m,1,1.0930806520009355,766.1810434319996,None,766.1810434319996,None,766.1810434319996,None,767.3475407059996,None,767.3475407059996,None,767.3475407059996,None,767.3475407059996,None,,,,,,,,,,,,,,,,,,,,,,,,,,,,,,,,,,,,,,,,,,,,001,168,2020_Feb_25_1353,spring_faces,3.1.5,60.079811704503896,
condition files/Stage1_1.xlsx,,T2,B2,m,"['c', 'm']","['Clue', 'Monopoly']","[-0.15, 0.5]","[0.15, 0.5]",1,1,,,,,,,,,0,4,4,4,0,0,0,3,,,,,,,,,,,,,,,,,,,,,,,,,,,,,,,,,,,,,,,,,,,,,,,,,,,,,,,769.3150028070013,None,769.3150028070013,None,769.3150028070013,None,m,1,0.6168225670007814,770.8492311619993,None,770.8492311619993,None,770.8492311619993,None,771.5315218670003,None,771.5315218670003,None,771.5315218670003,None,771.5315218670003,None,,,,,,,,,,,,,,,,,,,,,,,,,,,,,,,,,,,,,,,,,,,,001,168,2020_Feb_25_1353,spring_faces,3.1.5,60.079811704503896,
condition files/Stage1_1.xlsx,,B3,T3,c,"['c', 'm']","['Clue', 'Monopoly']","[-0.15, 0.5]","[0.15, 0.5]",1,1,,,,,,,,,0,4,4,4,0,1,1,4,,,,,,,,,,,,,,,,,,,,,,,,,,,,,,,,,,,,,,,,,,,,,,,,,,,,,,,773.4977822830006,None,773.4977822830006,None,773.4977822830006,None,c,1,0.7544395139993867,775.0316376080009,None,775.0316376080009,None,775.0316376080009,None,775.847931499,None,775.847931499,None,775.847931499,None,775.847931499,None,,,,,,,,,,,,,,,,,,,,,,,,,,,,,,,,,,,,,,,,,,,,001,168,2020_Feb_25_1353,spring_faces,3.1.5,60.079811704503896,
condition files/Stage1_1.xlsx,,B1,T2,c,"['c', 'm']","['Clue', 'Monopoly']","[-0.15, 0.5]","[0.15, 0.5]",1,1,,,,,,,,,0,4,4,4,0,2,2,1,,,,,,,,,,,,,,,,,,,,,,,,,,,,,,,,,,,,,,,,,,,,,,,,,,,,,,,777.8148792669999,None,777.8148792669999,None,777.8148792669999,None,c,1,0.5815347339994332,779.3485239929978,None,779.3485239929978,None,779.3485239929978,None,779.9809663119995,None,779.9809663119995,None,779.9809663119995,None,779.9809663119995,None,,,,,,,,,,,,,,,,,,,,,,,,,,,,,,,,,,,,,,,,,,,,001,168,2020_Feb_25_1353,spring_faces,3.1.5,60.079811704503896,
condition files/Stage1_1.xlsx,,T1,B1,c,"['c', 'm']","['Clue', 'Monopoly']","[-0.15, 0.5]","[0.15, 0.5]",1,1,,,,,,,,,0,4,4,4,0,3,3,0,,,,,,,,,,,,,,,,,,,,,,,,,,,,,,,,,,,,,,,,,,,,,,,,,,,,,,,781.948162198998,None,781.948162198998,None,781.948162198998,None,m,0,0.4964817460022459,783.4816389609987,None,783.4816389609987,None,783.4816389609987,None,784.030969651998,None,784.030969651998,None,784.030969651998,None,784.030969651998,None,,,,,,,,,,,,,,,,,,,,,,,,,,,,,,,,,,,,,,,,,,,,001,168,2020_Feb_25_1353,spring_faces,3.1.5,60.079811704503896,
condition files/Stage1_1.xlsx,,B4,T4,m,"['c', 'm']","['Clue', 'Monopoly']","[-0.15, 0.5]","[0.15, 0.5]",1,1,,,,,,,,,0,4,4,4,0,4,4,7,,,,,,,,,,,,,,,,,,,,,,,,,,,,,,,,,,,,,,,,,,,,,,,,,,,,,,,785.9979470440012,None,785.9979470440012,None,785.9979470440012,None,c,0,0.3990315129994997,787.5310286669992,None,787.5310286669992,None,787.5310286669992,None,787.9984135049999,None,787.9984135049999,None,787.9984135049999,None,787.9984135049999,None,,,,,,,,,,,,,,,,,,,,,,,,,,,,,,,,,,,,,,,,,,,,001,168,2020_Feb_25_1353,spring_faces,3.1.5,60.079811704503896,
condition files/Stage1_1.xlsx,,T4,B3,m,"['c', 'm']","['Clue', 'Monopoly']","[-0.15, 0.5]","[0.15, 0.5]",1,1,,,,,,,,,0,4,4,4,0,5,5,6,,,,,,,,,,,,,,,,,,,,,,,,,,,,,,,,,,,,,,,,,,,,,,,,,,,,,,,789.9479522580004,None,789.9479522580004,None,789.9479522580004,None,c,0,0.3682228600009694,791.4818291660013,None,791.4818291660013,None,791.4818291660013,None,791.9147606070001,None,791.9147606070001,None,791.9147606070001,None,791.9147606070001,None,,,,,,,,,,,,,,,,,,,,,,,,,,,,,,,,,,,,,,,,,,,,001,168,2020_Feb_25_1353,spring_faces,3.1.5,60.079811704503896,
condition files/Stage1_1.xlsx,,T3,B4,c,"['c', 'm']","['Clue', 'Monopoly']","[-0.15, 0.5]","[0.15, 0.5]",1,1,,,,,,,,,0,4,4,4,0,6,6,5,,,,,,,,,,,,,,,,,,,,,,,,,,,,,,,,,,,,,,,,,,,,,,,,,,,,,,,793.8811962910004,None,793.8811962910004,None,793.8811962910004,None,c,1,0.2912092769984156,795.4309108359994,None,795.4309108359994,None,795.4309108359994,None,795.7984061159987,None,795.7984061159987,None,795.7984061159987,None,795.7984061159987,None,,,,,,,,,,,,,,,,,,,,,,,,,,,,,,,,,,,,,,,,,,,,001,168,2020_Feb_25_1353,spring_faces,3.1.5,60.079811704503896,
condition files/Stage1_1.xlsx,,B2,T1,m,"['c', 'm']","['Clue', 'Monopoly']","[-0.15, 0.5]","[0.15, 0.5]",1,1,,,,,,,,,0,4,4,4,0,7,7,2,,,,,,,,,,,,,,,,,,,,,,,,,,,,,,,,,,,,,,,,,,,,,,,,,,,,,,,797.7473315930001,None,797.7473315930001,None,797.7473315930001,None,c,0,0.4885528720005823,799.2815080619985,None,799.2815080619985,None,799.2815080619985,None,799.8484657640001,None,799.8484657640001,None,799.8484657640001,None,799.8484657640001,None,,,,,,,,,,,,,,,,,,,,,,,,,,,,,,,,,,,,,,,,,,,,001,168,2020_Feb_25_1353,spring_faces,3.1.5,60.079811704503896,
condition files/Stage1_2.xlsx,,B4,T3,c,"['c', 'm']","['Clue', 'Monopoly']","[-0.15, 0.5]","[0.15, 0.5]",1,1,,,,,,,,,0,5,5,5,0,0,0,5,,,,,,,,,,,,,,,,,,,,,,,,,,,,,,,,,,,,,,,,,,,,,,,,,,,,,,,801.8151179380002,None,801.8151179380002,None,801.8151179380002,None,c,1,0.3426248530013254,803.3475128919999,None,803.3475128919999,None,803.3475128919999,None,803.7485608690004,None,803.7485608690004,None,803.7485608690004,None,803.7485608690004,None,,,,,,,,,,,,,,,,,,,,,,,,,,,,,,,,,,,,,,,,,,,,001,168,2020_Feb_25_1353,spring_faces,3.1.5,60.079811704503896,
condition files/Stage1_2.xlsx,,T2,B1,c,"['c', 'm']","['Clue', 'Monopoly']","[-0.15, 0.5]","[0.15, 0.5]",1,1,,,,,,,,,0,5,5,5,0,1,1,1,,,,,,,,,,,,,,,,,,,,,,,,,,,,,,,,,,,,,,,,,,,,,,,,,,,,,,,805.7144836980005,None,805.7144836980005,None,805.7144836980005,None,m,0,1.338468436999392,807.2476022749979,None,807.2476022749979,None,807.2476022749979,None,808.6483112589995,None,808.6483112589995,None,808.6483112589995,None,808.6483112589995,None,,,,,,,,,,,,,,,,,,,,,,,,,,,,,,,,,,,,,,,,,,,,001,168,2020_Feb_25_1353,spring_faces,3.1.5,60.079811704503896,
condition files/Stage1_2.xlsx,,B2,T2,m,"['c', 'm']","['Clue', 'Monopoly']","[-0.15, 0.5]","[0.15, 0.5]",1,1,,,,,,,,,0,5,5,5,0,2,2,3,,,,,,,,,,,,,,,,,,,,,,,,,,,,,,,,,,,,,,,,,,,,,,,,,,,,,,,810.6145927449979,None,810.6145927449979,None,810.6145927449979,None,m,1,0.30865977600115,812.1493966589987,None,812.1493966589987,None,812.1493966589987,None,812.5316880739992,None,812.5316880739992,None,812.5316880739992,None,812.5316880739992,None,,,,,,,,,,,,,,,,,,,,,,,,,,,,,,,,,,,,,,,,,,,,001,168,2020_Feb_25_1353,spring_faces,3.1.5,60.079811704503896,
condition files/Stage1_2.xlsx,,T1,B2,m,"['c', 'm']","['Clue', 'Monopoly']","[-0.15, 0.5]","[0.15, 0.5]",1,1,,,,,,,,,0,5,5,5,0,3,3,2,,,,,,,,,,,,,,,,,,,,,,,,,,,,,,,,,,,,,,,,,,,,,,,,,,,,,,,814.4808348099978,None,814.4808348099978,None,814.4808348099978,None,m,1,0.48983673899783753,816.0162788899979,None,816.0162788899979,None,816.0162788899979,None,816.5648728329979,None,816.5648728329979,None,816.5648728329979,None,816.5648728329979,None,,,,,,,,,,,,,,,,,,,,,,,,,,,,,,,,,,,,,,,,,,,,001,168,2020_Feb_25_1353,spring_faces,3.1.5,60.079811704503896,
condition files/Stage1_2.xlsx,,B3,T4,m,"['c', 'm']","['Clue', 'Monopoly']","[-0.15, 0.5]","[0.15, 0.5]",1,1,,,,,,,,,0,5,5,5,0,4,4,6,,,,,,,,,,,,,,,,,,,,,,,,,,,,,,,,,,,,,,,,,,,,,,,,,,,,,,,818.5312939059986,None,818.5312939059986,None,818.5312939059986,None,c,0,1.1432488790014759,820.0667609019984,None,820.0667609019984,None,820.0667609019984,None,821.2648158439988,None,821.2648158439988,None,821.2648158439988,None,821.2648158439988,None,,,,,,,,,,,,,,,,,,,,,,,,,,,,,,,,,,,,,,,,,,,,001,168,2020_Feb_25_1353,spring_faces,3.1.5,60.079811704503896,
condition files/Stage1_2.xlsx,,B1,T1,c,"['c', 'm']","['Clue', 'Monopoly']","[-0.15, 0.5]","[0.15, 0.5]",1,1,,,,,,,,,0,5,5,5,0,5,5,0,,,,,,,,,,,,,,,,,,,,,,,,,,,,,,,,,,,,,,,,,,,,,,,,,,,,,,,823.2313455449985,None,823.2313455449985,None,823.2313455449985,None,c,1,0.7800071499987098,824.7660492309988,None,824.7660492309988,None,824.7660492309988,None,825.6006935369987,None,825.6006935369987,None,825.6006935369987,None,825.6006935369987,None,,,,,,,,,,,,,,,,,,,,,,,,,,,,,,,,,,,,,,,,,,,,001,168,2020_Feb_25_1353,spring_faces,3.1.5,60.079811704503896,
condition files/Stage1_2.xlsx,,T3,B3,c,"['c', 'm']","['Clue', 'Monopoly']","[-0.15, 0.5]","[0.15, 0.5]",1,1,,,,,,,,,0,5,5,5,0,6,6,4,,,,,,,,,,,,,,,,,,,,,,,,,,,,,,,,,,,,,,,,,,,,,,,,,,,,,,,827.5640894450007,None,827.5640894450007,None,827.5640894450007,None,m,0,1.1366388749993348,829.0974067759998,None,829.0974067759998,None,829.0974067759998,None,830.2980567900013,None,830.2980567900013,None,830.2980567900013,None,830.2980567900013,None,,,,,,,,,,,,,,,,,,,,,,,,,,,,,,,,,,,,,,,,,,,,001,168,2020_Feb_25_1353,spring_faces,3.1.5,60.079811704503896,
condition files/Stage1_2.xlsx,,T4,B4,m,"['c', 'm']","['Clue', 'Monopoly']","[-0.15, 0.5]","[0.15, 0.5]",1,1,,,,,,,,,0,5,5,5,0,7,7,7,,,,,,,,,,,,,,,,,,,,,,,,,,,,,,,,,,,,,,,,,,,,,,,,,,,,,,,832.2643272259993,None,832.2643272259993,None,832.2643272259993,None,m,1,1.7155104779994872,833.7985470040003,None,833.7985470040003,None,833.7985470040003,None,835.5815117429993,None,835.5815117429993,None,835.5815117429993,None,835.5815117429993,None,,,,,,,,,,,,,,,,,,,,,,,,,,,,,,,,,,,,,,,,,,,,001,168,2020_Feb_25_1353,spring_faces,3.1.5,60.079811704503896,
condition files/Stage1_1.xlsx,,T3,B4,c,"['c', 'm']","['Clue', 'Monopoly']","[-0.15, 0.5]","[0.15, 0.5]",1,1,,,,,,,,,0,6,6,6,0,0,0,5,,,,,,,,,,,,,,,,,,,,,,,,,,,,,,,,,,,,,,,,,,,,,,,,,,,,,,,837.5481119529977,None,837.5481119529977,None,837.5481119529977,None,c,1,1.1676404409990937,839.082431021001,None,839.082431021001,None,839.082431021001,None,840.3315192310001,None,840.3315192310001,None,840.3315192310001,None,840.3315192310001,None,,,,,,,,,,,,,,,,,,,,,,,,,,,,,,,,,,,,,,,,,,,,001,168,2020_Feb_25_1353,spring_faces,3.1.5,60.079811704503896,
condition files/Stage1_1.xlsx,,B3,T3,c,"['c', 'm']","['Clue', 'Monopoly']","[-0.15, 0.5]","[0.15, 0.5]",1,1,,,,,,,,,0,6,6,6,0,1,1,4,,,,,,,,,,,,,,,,,,,,,,,,,,,,,,,,,,,,,,,,,,,,,,,,,,,,,,,842.2810136999979,None,842.2810136999979,None,842.2810136999979,None,c,1,1.0274995910003781,843.8146130729983,None,843.8146130729983,None,843.8146130729983,None,844.8983647069981,None,844.8983647069981,None,844.8983647069981,None,844.8983647069981,None,,,,,,,,,,,,,,,,,,,,,,,,,,,,,,,,,,,,,,,,,,,,001,168,2020_Feb_25_1353,spring_faces,3.1.5,60.079811704503896,
condition files/Stage1_1.xlsx,,B2,T1,m,"['c', 'm']","['Clue', 'Monopoly']","[-0.15, 0.5]","[0.15, 0.5]",1,1,,,,,,,,,0,6,6,6,0,2,2,2,,,,,,,,,,,,,,,,,,,,,,,,,,,,,,,,,,,,,,,,,,,,,,,,,,,,,,,846.8645544370011,None,846.8645544370011,None,846.8645544370011,None,c,0,1.7243173159986327,848.3978149860013,None,848.3978149860013,None,848.3978149860013,None,850.1842191399992,None,850.1842191399992,None,850.1842191399992,None,850.1842191399992,None,,,,,,,,,,,,,,,,,,,,,,,,,,,,,,,,,,,,,,,,,,,,001,168,2020_Feb_25_1353,spring_faces,3.1.5,60.079811704503896,
condition files/Stage1_1.xlsx,,B1,T2,c,"['c', 'm']","['Clue', 'Monopoly']","[-0.15, 0.5]","[0.15, 0.5]",1,1,,,,,,,,,0,6,6,6,0,3,3,1,,,,,,,,,,,,,,,,,,,,,,,,,,,,,,,,,,,,,,,,,,,,,,,,,,,,,,,852.148117187,None,852.148117187,None,852.148117187,None,c,1,1.2084232259985583,853.6977073509988,None,853.6977073509988,None,853.6977073509988,None,854.9655343749982,None,854.9655343749982,None,854.9655343749982,None,854.9655343749982,None,,,,,,,,,,,,,,,,,,,,,,,,,,,,,,,,,,,,,,,,,,,,001,168,2020_Feb_25_1353,spring_faces,3.1.5,60.079811704503896,
condition files/Stage1_1.xlsx,,T2,B2,m,"['c', 'm']","['Clue', 'Monopoly']","[-0.15, 0.5]","[0.15, 0.5]",1,1,,,,,,,,,0,6,6,6,0,4,4,3,,,,,,,,,,,,,,,,,,,,,,,,,,,,,,,,,,,,,,,,,,,,,,,,,,,,,,,856.9311295389998,None,856.9311295389998,None,856.9311295389998,None,m,1,1.6563956240024709,858.4657399419993,None,858.4657399419993,None,858.4657399419993,None,860.1980591920001,None,860.1980591920001,None,860.1980591920001,None,860.1980591920001,None,,,,,,,,,,,,,,,,,,,,,,,,,,,,,,,,,,,,,,,,,,,,001,168,2020_Feb_25_1353,spring_faces,3.1.5,60.079811704503896,
condition files/Stage1_1.xlsx,,B4,T4,m,"['c', 'm']","['Clue', 'Monopoly']","[-0.15, 0.5]","[0.15, 0.5]",1,1,,,,,,,,,0,6,6,6,0,5,5,7,,,,,,,,,,,,,,,,,,,,,,,,,,,,,,,,,,,,,,,,,,,,,,,,,,,,,,,862.1479320559993,None,862.1479320559993,None,862.1479320559993,None,m,1,0.9522322900011204,863.6818330149981,None,863.6818330149981,None,863.6818330149981,None,864.6981718829993,None,864.6981718829993,None,864.6981718829993,None,864.6981718829993,None,,,,,,,,,,,,,,,,,,,,,,,,,,,,,,,,,,,,,,,,,,,,001,168,2020_Feb_25_1353,spring_faces,3.1.5,60.079811704503896,
condition files/Stage1_1.xlsx,,T4,B3,m,"['c', 'm']","['Clue', 'Monopoly']","[-0.15, 0.5]","[0.15, 0.5]",1,1,,,,,,,,,0,6,6,6,0,6,6,6,,,,,,,,,,,,,,,,,,,,,,,,,,,,,,,,,,,,,,,,,,,,,,,,,,,,,,,866.6647753149991,None,866.6647753149991,None,866.6647753149991,None,c,0,0.788459105999209,868.1975982000004,None,868.1975982000004,None,868.1975982000004,None,869.0482888080005,None,869.0482888080005,None,869.0482888080005,None,869.0482888080005,None,,,,,,,,,,,,,,,,,,,,,,,,,,,,,,,,,,,,,,,,,,,,001,168,2020_Feb_25_1353,spring_faces,3.1.5,60.079811704503896,
condition files/Stage1_1.xlsx,,T1,B1,c,"['c', 'm']","['Clue', 'Monopoly']","[-0.15, 0.5]","[0.15, 0.5]",1,1,,,,,,,,,0,6,6,6,0,7,7,0,,,,,,,,,,,,,,,,,,,,,,,,,,,,,,,,,,,,,,,,,,,,,,,,,,,,,,,871.0147509210001,None,871.0147509210001,None,871.0147509210001,None,m,0,0.3093506000004709,872.5487724310005,None,872.5487724310005,None,872.5487724310005,None,872.9150322290006,None,872.9150322290006,None,872.9150322290006,None,872.9150322290006,None,,,,,,,,,,,,,,,,,,,,,,,,,,,,,,,,,,,,,,,,,,,,001,168,2020_Feb_25_1353,spring_faces,3.1.5,60.079811704503896,
condition files/Stage1_2.xlsx,,T4,B4,m,"['c', 'm']","['Clue', 'Monopoly']","[-0.15, 0.5]","[0.15, 0.5]",1,1,,,,,,,,,0,7,7,7,0,0,0,7,,,,,,,,,,,,,,,,,,,,,,,,,,,,,,,,,,,,,,,,,,,,,,,,,,,,,,,874.8975002970001,None,874.8975002970001,None,874.8975002970001,None,c,0,0.39424172999861185,876.4478948930009,None,876.4478948930009,None,876.4478948930009,None,876.9147975619999,None,876.9147975619999,None,876.9147975619999,None,876.9147975619999,None,,,,,,,,,,,,,,,,,,,,,,,,,,,,,,,,,,,,,,,,,,,,001,168,2020_Feb_25_1353,spring_faces,3.1.5,60.079811704503896,
condition files/Stage1_2.xlsx,,T2,B1,c,"['c', 'm']","['Clue', 'Monopoly']","[-0.15, 0.5]","[0.15, 0.5]",1,1,,,,,,,,,0,7,7,7,0,1,1,1,,,,,,,,,,,,,,,,,,,,,,,,,,,,,,,,,,,,,,,,,,,,,,,,,,,,,,,878.8643342379983,None,878.8643342379983,None,878.8643342379983,None,c,1,0.378941761002352,880.4151192629979,None,880.4151192629979,None,880.4151192629979,None,880.8497919350011,None,880.8497919350011,None,880.8497919350011,None,880.8497919350011,None,,,,,,,,,,,,,,,,,,,,,,,,,,,,,,,,,,,,,,,,,,,,001,168,2020_Feb_25_1353,spring_faces,3.1.5,60.079811704503896,
condition files/Stage1_2.xlsx,,B4,T3,c,"['c', 'm']","['Clue', 'Monopoly']","[-0.15, 0.5]","[0.15, 0.5]",1,1,,,,,,,,,0,7,7,7,0,2,2,5,,,,,,,,,,,,,,,,,,,,,,,,,,,,,,,,,,,,,,,,,,,,,,,,,,,,,,,882.8146595719991,None,882.8146595719991,None,882.8146595719991,None,m,0,0.5101568779973604,884.3479165989993,None,884.3479165989993,None,884.3479165989993,None,884.9146601860011,None,884.9146601860011,None,884.9146601860011,None,884.9146601860011,None,,,,,,,,,,,,,,,,,,,,,,,,,,,,,,,,,,,,,,,,,,,,001,168,2020_Feb_25_1353,spring_faces,3.1.5,60.079811704503896,
condition files/Stage1_2.xlsx,,B3,T4,m,"['c', 'm']","['Clue', 'Monopoly']","[-0.15, 0.5]","[0.15, 0.5]",1,1,,,,,,,,,0,7,7,7,0,3,3,6,,,,,,,,,,,,,,,,,,,,,,,,,,,,,,,,,,,,,,,,,,,,,,,,,,,,,,,886.8813442899991,None,886.8813442899991,None,886.8813442899991,None,m,1,0.4412925129981886,888.4168371019987,None,888.4168371019987,None,888.4168371019987,None,888.9150856359993,None,888.9150856359993,None,888.9150856359993,None,888.9150856359993,None,,,,,,,,,,,,,,,,,,,,,,,,,,,,,,,,,,,,,,,,,,,,001,168,2020_Feb_25_1353,spring_faces,3.1.5,60.079811704503896,
condition files/Stage1_2.xlsx,,T3,B3,c,"['c', 'm']","['Clue', 'Monopoly']","[-0.15, 0.5]","[0.15, 0.5]",1,1,,,,,,,,,0,7,7,7,0,4,4,4,,,,,,,,,,,,,,,,,,,,,,,,,,,,,,,,,,,,,,,,,,,,,,,,,,,,,,,890.881158152999,None,890.881158152999,None,890.881158152999,None,m,0,0.49006425100014894,892.4160708290001,None,892.4160708290001,None,892.4160708290001,None,892.964028675,None,892.964028675,None,892.964028675,None,892.964028675,None,,,,,,,,,,,,,,,,,,,,,,,,,,,,,,,,,,,,,,,,,,,,001,168,2020_Feb_25_1353,spring_faces,3.1.5,60.079811704503896,
condition files/Stage1_2.xlsx,,T1,B2,m,"['c', 'm']","['Clue', 'Monopoly']","[-0.15, 0.5]","[0.15, 0.5]",1,1,,,,,,,,,0,7,7,7,0,5,5,2,,,,,,,,,,,,,,,,,,,,,,,,,,,,,,,,,,,,,,,,,,,,,,,,,,,,,,,894.9313774340008,None,894.9313774340008,None,894.9313774340008,None,c,0,0.2803983289995813,896.4656599679984,None,896.4656599679984,None,896.4656599679984,None,896.7987840780006,None,896.7987840780006,None,896.7987840780006,None,896.7987840780006,None,,,,,,,,,,,,,,,,,,,,,,,,,,,,,,,,,,,,,,,,,,,,001,168,2020_Feb_25_1353,spring_faces,3.1.5,60.079811704503896,
condition files/Stage1_2.xlsx,,B2,T2,m,"['c', 'm']","['Clue', 'Monopoly']","[-0.15, 0.5]","[0.15, 0.5]",1,1,,,,,,,,,0,7,7,7,0,6,6,3,,,,,,,,,,,,,,,,,,,,,,,,,,,,,,,,,,,,,,,,,,,,,,,,,,,,,,,898.7648770699998,None,898.7648770699998,None,898.7648770699998,None,c,0,0.35042917899772874,900.2996383749996,None,900.2996383749996,None,900.2996383749996,None,900.7154156739998,None,900.7154156739998,None,900.7154156739998,None,900.7154156739998,None,,,,,,,,,,,,,,,,,,,,,,,,,,,,,,,,,,,,,,,,,,,,001,168,2020_Feb_25_1353,spring_faces,3.1.5,60.079811704503896,
condition files/Stage1_2.xlsx,,B1,T1,c,"['c', 'm']","['Clue', 'Monopoly']","[-0.15, 0.5]","[0.15, 0.5]",1,1,,,,,,,,,0,7,7,7,0,7,7,0,,,,,,,,,,,,,,,,,,,,,,,,,,,,,,,,,,,,,,,,,,,,,,,,,,,,,,,902.6817300929979,None,902.6817300929979,None,902.6817300929979,None,c,1,0.35290130200155545,904.2171645359995,None,904.2171645359995,None,904.2171645359995,None,904.648317889998,None,904.648317889998,None,904.648317889998,None,904.648317889998,None,,,,,,,,,,,,,,,,,,,,,,,,,,,,,,,,,,,,,,,,,,,,001,168,2020_Feb_25_1353,spring_faces,3.1.5,60.079811704503896,
condition files/Stage1_1.xlsx,,T4,B3,m,"['c', 'm']","['Clue', 'Monopoly']","[-0.15, 0.5]","[0.15, 0.5]",1,1,,,,,,,,,0,8,8,8,0,0,0,6,,,,,,,,,,,,,,,,,,,,,,,,,,,,,,,,,,,,,,,,,,,,,,,,,,,,,,,906.614808287999,None,906.614808287999,None,906.614808287999,None,c,0,0.5967039549977926,908.1493676610007,None,908.1493676610007,None,908.1493676610007,None,908.8148974219985,None,908.8148974219985,None,908.8148974219985,None,908.8148974219985,None,,,,,,,,,,,,,,,,,,,,,,,,,,,,,,,,,,,,,,,,,,,,001,168,2020_Feb_25_1353,spring_faces,3.1.5,60.079811704503896,
condition files/Stage1_1.xlsx,,B1,T2,c,"['c', 'm']","['Clue', 'Monopoly']","[-0.15, 0.5]","[0.15, 0.5]",1,1,,,,,,,,,0,8,8,8,0,1,1,1,,,,,,,,,,,,,,,,,,,,,,,,,,,,,,,,,,,,,,,,,,,,,,,,,,,,,,,910.7646365090004,None,910.7646365090004,None,910.7646365090004,None,m,0,0.3177574459987227,912.300305468998,None,912.300305468998,None,912.300305468998,None,912.6982191210009,None,912.6982191210009,None,912.6982191210009,None,912.6982191210009,None,,,,,,,,,,,,,,,,,,,,,,,,,,,,,,,,,,,,,,,,,,,,001,168,2020_Feb_25_1353,spring_faces,3.1.5,60.079811704503896,
condition files/Stage1_1.xlsx,,B4,T4,m,"['c', 'm']","['Clue', 'Monopoly']","[-0.15, 0.5]","[0.15, 0.5]",1,1,,,,,,,,,0,8,8,8,0,2,2,7,,,,,,,,,,,,,,,,,,,,,,,,,,,,,,,,,,,,,,,,,,,,,,,,,,,,,,,914.6477910430003,None,914.6477910430003,None,914.6477910430003,None,m,1,0.2746910679998109,916.1834032580009,None,916.1834032580009,None,916.1834032580009,None,916.531608977999,None,916.531608977999,None,916.531608977999,None,916.531608977999,None,,,,,,,,,,,,,,,,,,,,,,,,,,,,,,,,,,,,,,,,,,,,001,168,2020_Feb_25_1353,spring_faces,3.1.5,60.079811704503896,
condition files/Stage1_1.xlsx,,B3,T3,c,"['c', 'm']","['Clue', 'Monopoly']","[-0.15, 0.5]","[0.15, 0.5]",1,1,,,,,,,,,0,8,8,8,0,3,3,4,,,,,,,,,,,,,,,,,,,,,,,,,,,,,,,,,,,,,,,,,,,,,,,,,,,,,,,918.4813621009998,None,918.4813621009998,None,918.4813621009998,None,c,1,0.3473326489984174,920.014732227999,None,920.014732227999,None,920.014732227999,None,920.4148052460005,None,920.4148052460005,None,920.4148052460005,None,920.4148052460005,None,,,,,,,,,,,,,,,,,,,,,,,,,,,,,,,,,,,,,,,,,,,,001,168,2020_Feb_25_1353,spring_faces,3.1.5,60.079811704503896,
condition files/Stage1_1.xlsx,,T2,B2,m,"['c', 'm']","['Clue', 'Monopoly']","[-0.15, 0.5]","[0.15, 0.5]",1,1,,,,,,,,,0,8,8,8,0,4,4,3,,,,,,,,,,,,,,,,,,,,,,,,,,,,,,,,,,,,,,,,,,,,,,,,,,,,,,,922.3812893200011,None,922.3812893200011,None,922.3812893200011,None,c,0,0.3022266900006798,923.915804289998,None,923.915804289998,None,923.915804289998,None,924.283074480998,None,924.283074480998,None,924.283074480998,None,924.283074480998,None,,,,,,,,,,,,,,,,,,,,,,,,,,,,,,,,,,,,,,,,,,,,001,168,2020_Feb_25_1353,spring_faces,3.1.5,60.079811704503896,
condition files/Stage1_1.xlsx,,B2,T1,m,"['c', 'm']","['Clue', 'Monopoly']","[-0.15, 0.5]","[0.15, 0.5]",1,1,,,,,,,,,0,8,8,8,0,5,5,2,,,,,,,,,,,,,,,,,,,,,,,,,,,,,,,,,,,,,,,,,,,,,,,,,,,,,,,926.2478228830005,None,926.2478228830005,None,926.2478228830005,None,m,1,0.37185216899888474,927.7822682810001,None,927.7822682810001,None,927.7822682810001,None,928.2148680589999,None,928.2148680589999,None,928.2148680589999,None,928.2148680589999,None,,,,,,,,,,,,,,,,,,,,,,,,,,,,,,,,,,,,,,,,,,,,001,168,2020_Feb_25_1353,spring_faces,3.1.5,60.079811704503896,
condition files/Stage1_1.xlsx,,T3,B4,c,"['c', 'm']","['Clue', 'Monopoly']","[-0.15, 0.5]","[0.15, 0.5]",1,1,,,,,,,,,0,8,8,8,0,6,6,5,,,,,,,,,,,,,,,,,,,,,,,,,,,,,,,,,,,,,,,,,,,,,,,,,,,,,,,930.181024608999,None,930.181024608999,None,930.181024608999,None,m,0,0.2949048820009921,931.7310954599998,None,931.7310954599998,None,931.7310954599998,None,932.0829107040008,None,932.0829107040008,None,932.0829107040008,None,932.0829107040008,None,,,,,,,,,,,,,,,,,,,,,,,,,,,,,,,,,,,,,,,,,,,,001,168,2020_Feb_25_1353,spring_faces,3.1.5,60.079811704503896,
condition files/Stage1_1.xlsx,,T1,B1,c,"['c', 'm']","['Clue', 'Monopoly']","[-0.15, 0.5]","[0.15, 0.5]",1,1,,,,,,,,,0,8,8,8,0,7,7,0,,,,,,,,,,,,,,,,,,,,,,,,,,,,,,,,,,,,,,,,,,,,,,,,,,,,,,,934.047965804999,None,934.047965804999,None,934.047965804999,None,m,0,0.31612996900003054,935.5818699379997,None,935.5818699379997,None,935.5818699379997,None,935.9482200710008,None,935.9482200710008,None,935.9482200710008,None,935.9482200710008,None,,,,,,,,,,,,,,,,,,,,,,,,,,,,,,,,,,,,,,,,,,,,001,168,2020_Feb_25_1353,spring_faces,3.1.5,60.079811704503896,
condition files/Stage1_2.xlsx,,T4,B4,m,"['c', 'm']","['Clue', 'Monopoly']","[-0.15, 0.5]","[0.15, 0.5]",1,1,,,,,,,,,0,9,9,9,0,0,0,7,,,,,,,,,,,,,,,,,,,,,,,,,,,,,,,,,,,,,,,,,,,,,,,,,,,,,,,937.9316470369995,None,937.9316470369995,None,937.9316470369995,None,m,1,0.4324777309993806,939.4655870479983,None,939.4655870479983,None,939.4655870479983,None,939.9645052899978,None,939.9645052899978,None,939.9645052899978,None,939.9645052899978,None,,,,,,,,,,,,,,,,,,,,,,,,,,,,,,,,,,,,,,,,,,,,001,168,2020_Feb_25_1353,spring_faces,3.1.5,60.079811704503896,
condition files/Stage1_2.xlsx,,T1,B2,m,"['c', 'm']","['Clue', 'Monopoly']","[-0.15, 0.5]","[0.15, 0.5]",1,1,,,,,,,,,0,9,9,9,0,1,1,2,,,,,,,,,,,,,,,,,,,,,,,,,,,,,,,,,,,,,,,,,,,,,,,,,,,,,,,941.9141478069978,None,941.9141478069978,None,941.9141478069978,None,m,1,1.2809300369990524,943.4491364069982,None,943.4491364069982,None,943.4491364069982,None,944.7813052540005,None,944.7813052540005,None,944.7813052540005,None,944.7813052540005,None,,,,,,,,,,,,,,,,,,,,,,,,,,,,,,,,,,,,,,,,,,,,001,168,2020_Feb_25_1353,spring_faces,3.1.5,60.079811704503896,
condition files/Stage1_2.xlsx,,T3,B3,c,"['c', 'm']","['Clue', 'Monopoly']","[-0.15, 0.5]","[0.15, 0.5]",1,1,,,,,,,,,0,9,9,9,0,2,2,4,,,,,,,,,,,,,,,,,,,,,,,,,,,,,,,,,,,,,,,,,,,,,,,,,,,,,,,946.7480649789977,None,946.7480649789977,None,946.7480649789977,None,c,1,1.3429669930010277,948.2830809810002,None,948.2830809810002,None,948.2830809810002,None,949.6831441909999,None,949.6831441909999,None,949.6831441909999,None,949.6831441909999,None,,,,,,,,,,,,,,,,,,,,,,,,,,,,,,,,,,,,,,,,,,,,001,168,2020_Feb_25_1353,spring_faces,3.1.5,60.079811704503896,
condition files/Stage1_2.xlsx,,B4,T3,c,"['c', 'm']","['Clue', 'Monopoly']","[-0.15, 0.5]","[0.15, 0.5]",1,1,,,,,,,,,0,9,9,9,0,3,3,5,,,,,,,,,,,,,,,,,,,,,,,,,,,,,,,,,,,,,,,,,,,,,,,,,,,,,,,951.6480288210005,None,951.6480288210005,None,951.6480288210005,None,c,1,0.41068387199993595,953.1833494290004,None,953.1833494290004,None,953.1833494290004,None,953.6475995849978,None,953.6475995849978,None,953.6475995849978,None,953.6475995849978,None,,,,,,,,,,,,,,,,,,,,,,,,,,,,,,,,,,,,,,,,,,,,001,168,2020_Feb_25_1353,spring_faces,3.1.5,60.079811704503896,
condition files/Stage1_2.xlsx,,B2,T2,m,"['c', 'm']","['Clue', 'Monopoly']","[-0.15, 0.5]","[0.15, 0.5]",1,1,,,,,,,,,0,9,9,9,0,4,4,3,,,,,,,,,,,,,,,,,,,,,,,,,,,,,,,,,,,,,,,,,,,,,,,,,,,,,,,955.6147824580003,None,955.6147824580003,None,955.6147824580003,None,m,1,0.2542749679996632,957.1477979759984,None,957.1477979759984,None,957.1477979759984,None,957.4671988349983,None,957.4671988349983,None,957.4671988349983,None,957.4671988349983,None,,,,,,,,,,,,,,,,,,,,,,,,,,,,,,,,,,,,,,,,,,,,001,168,2020_Feb_25_1353,spring_faces,3.1.5,60.079811704503896,
condition files/Stage1_2.xlsx,,B1,T1,c,"['c', 'm']","['Clue', 'Monopoly']","[-0.15, 0.5]","[0.15, 0.5]",1,1,,,,,,,,,0,9,9,9,0,5,5,0,,,,,,,,,,,,,,,,,,,,,,,,,,,,,,,,,,,,,,,,,,,,,,,,,,,,,,,959.4313543319986,None,959.4313543319986,None,959.4313543319986,None,m,0,0.5009086660029425,960.9651071980006,None,960.9651071980006,None,960.9651071980006,None,961.5330677679995,None,961.5330677679995,None,961.5330677679995,None,961.5330677679995,None,,,,,,,,,,,,,,,,,,,,,,,,,,,,,,,,,,,,,,,,,,,,001,168,2020_Feb_25_1353,spring_faces,3.1.5,60.079811704503896,
condition files/Stage1_2.xlsx,,T2,B1,c,"['c', 'm']","['Clue', 'Monopoly']","[-0.15, 0.5]","[0.15, 0.5]",1,1,,,,,,,,,0,9,9,9,0,6,6,1,,,,,,,,,,,,,,,,,,,,,,,,,,,,,,,,,,,,,,,,,,,,,,,,,,,,,,,963.4974861279989,None,963.4974861279989,None,963.4974861279989,None,c,1,0.3869786760005809,965.0310957439979,None,965.0310957439979,None,965.0310957439979,None,965.4814777219981,None,965.4814777219981,None,965.4814777219981,None,965.4814777219981,None,,,,,,,,,,,,,,,,,,,,,,,,,,,,,,,,,,,,,,,,,,,,001,168,2020_Feb_25_1353,spring_faces,3.1.5,60.079811704503896,
condition files/Stage1_2.xlsx,,B3,T4,m,"['c', 'm']","['Clue', 'Monopoly']","[-0.15, 0.5]","[0.15, 0.5]",1,1,,,,,,,,,0,9,9,9,0,7,7,6,,,,,,,,,,,,,,,,,,,,,,,,,,,,,,,,,,,,,,,,,,,,,,,,,,,,,,,967.4478080839981,None,967.4478080839981,None,967.4478080839981,None,c,0,0.3231443570002739,968.9829892569978,None,968.9829892569978,None,968.9829892569978,None,969.3643461520005,None,969.3643461520005,None,969.3643461520005,None,969.3643461520005,None,,,,,,,,,,,,,,,,,,,,,,,,,,,,,,,,,,,,,,,,,,,,001,168,2020_Feb_25_1353,spring_faces,3.1.5,60.079811704503896,
condition files/Stage1_1.xlsx,,B2,T1,m,"['c', 'm']","['Clue', 'Monopoly']","[-0.15, 0.5]","[0.15, 0.5]",1,1,,,,,,,,,0,10,10,10,0,0,0,2,,,,,,,,,,,,,,,,,,,,,,,,,,,,,,,,,,,,,,,,,,,,,,,,,,,,,,,971.3475719720009,None,971.3475719720009,None,971.3475719720009,None,m,1,0.37649774700184935,972.8976565730009,None,972.8976565730009,None,972.8976565730009,None,973.3312960939984,None,973.3312960939984,None,973.3312960939984,None,973.3312960939984,None,,,,,,,,,,,,,,,,,,,,,,,,,,,,,,,,,,,,,,,,,,,,001,168,2020_Feb_25_1353,spring_faces,3.1.5,60.079811704503896,
condition files/Stage1_1.xlsx,,T4,B3,m,"['c', 'm']","['Clue', 'Monopoly']","[-0.15, 0.5]","[0.15, 0.5]",1,1,,,,,,,,,0,10,10,10,0,1,1,6,,,,,,,,,,,,,,,,,,,,,,,,,,,,,,,,,,,,,,,,,,,,,,,,,,,,,,,975.2976709659997,None,975.2976709659997,None,975.2976709659997,None,c,0,0.2166760689979128,976.8333848559996,None,976.8333848559996,None,976.8333848559996,None,977.1148552960003,None,977.1148552960003,None,977.1148552960003,None,977.1148552960003,None,,,,,,,,,,,,,,,,,,,,,,,,,,,,,,,,,,,,,,,,,,,,001,168,2020_Feb_25_1353,spring_faces,3.1.5,60.079811704503896,
condition files/Stage1_1.xlsx,,T1,B1,c,"['c', 'm']","['Clue', 'Monopoly']","[-0.15, 0.5]","[0.15, 0.5]",1,1,,,,,,,,,0,10,10,10,0,2,2,0,,,,,,,,,,,,,,,,,,,,,,,,,,,,,,,,,,,,,,,,,,,,,,,,,,,,,,,979.0812504189998,None,979.0812504189998,None,979.0812504189998,None,c,1,0.019947456999943824,None,None,None,None,None,None,980.6500007200011,None,980.6500007200011,None,980.6500007200011,None,980.6500007200011,None,,,,,,,,,,,,,,,,,,,,,,,,,,,,,,,,,,,,,,,,,,,,001,168,2020_Feb_25_1353,spring_faces,3.1.5,60.079811704503896,
condition files/Stage1_1.xlsx,,T2,B2,m,"['c', 'm']","['Clue', 'Monopoly']","[-0.15, 0.5]","[0.15, 0.5]",1,1,,,,,,,,,0,10,10,10,0,3,3,3,,,,,,,,,,,,,,,,,,,,,,,,,,,,,,,,,,,,,,,,,,,,,,,,,,,,,,,982.6144831630008,None,982.6144831630008,None,982.6144831630008,None,m,1,0.19708521400025347,984.1489730860012,None,984.1489730860012,None,984.1489730860012,None,984.4142583819994,None,984.4142583819994,None,984.4142583819994,None,984.4142583819994,None,,,,,,,,,,,,,,,,,,,,,,,,,,,,,,,,,,,,,,,,,,,,001,168,2020_Feb_25_1353,spring_faces,3.1.5,60.079811704503896,
condition files/Stage1_1.xlsx,,T3,B4,c,"['c', 'm']","['Clue', 'Monopoly']","[-0.15, 0.5]","[0.15, 0.5]",1,1,,,,,,,,,0,10,10,10,0,4,4,5,,,,,,,,,,,,,,,,,,,,,,,,,,,,,,,,,,,,,,,,,,,,,,,,,,,,,,,986.3646827379998,None,986.3646827379998,None,986.3646827379998,None,m,0,0.28819646700139856,987.8978695180012,None,987.8978695180012,None,987.8978695180012,None,988.2508913630008,None,988.2508913630008,None,988.2508913630008,None,988.2508913630008,None,,,,,,,,,,,,,,,,,,,,,,,,,,,,,,,,,,,,,,,,,,,,001,168,2020_Feb_25_1353,spring_faces,3.1.5,60.079811704503896,
condition files/Stage1_1.xlsx,,B1,T2,c,"['c', 'm']","['Clue', 'Monopoly']","[-0.15, 0.5]","[0.15, 0.5]",1,1,,,,,,,,,0,10,10,10,0,5,5,1,,,,,,,,,,,,,,,,,,,,,,,,,,,,,,,,,,,,,,,,,,,,,,,,,,,,,,,990.2146009450007,None,990.2146009450007,None,990.2146009450007,None,c,1,0.35796783700061496,991.7641586069985,None,991.7641586069985,None,991.7641586069985,None,992.1815020920003,None,992.1815020920003,None,992.1815020920003,None,992.1815020920003,None,,,,,,,,,,,,,,,,,,,,,,,,,,,,,,,,,,,,,,,,,,,,001,168,2020_Feb_25_1353,spring_faces,3.1.5,60.079811704503896,
condition files/Stage1_1.xlsx,,B4,T4,m,"['c', 'm']","['Clue', 'Monopoly']","[-0.15, 0.5]","[0.15, 0.5]",1,1,,,,,,,,,0,10,10,10,0,6,6,7,,,,,,,,,,,,,,,,,,,,,,,,,,,,,,,,,,,,,,,,,,,,,,,,,,,,,,,994.1481152640008,None,994.1481152640008,None,994.1481152640008,None,c,0,0.4721671730003436,995.6978782279984,None,995.6978782279984,None,995.6978782279984,None,996.2480346609991,None,996.2480346609991,None,996.2480346609991,None,996.2480346609991,None,,,,,,,,,,,,,,,,,,,,,,,,,,,,,,,,,,,,,,,,,,,,001,168,2020_Feb_25_1353,spring_faces,3.1.5,60.079811704503896,
condition files/Stage1_1.xlsx,,B3,T3,c,"['c', 'm']","['Clue', 'Monopoly']","[-0.15, 0.5]","[0.15, 0.5]",1,1,,,,,,,,,0,10,10,10,0,7,7,4,,,,,,,,,,,,,,,,,,,,,,,,,,,,,,,,,,,,,,,,,,,,,,,,,,,,,,,998.1979523289992,None,998.1979523289992,None,998.1979523289992,None,c,1,0.37514711800031364,999.7309880100001,None,999.7309880100001,None,999.7309880100001,None,1000.1653987030004,None,1000.1653987030004,None,1000.1653987030004,None,1000.1653987030004,None,,,,,,,,,,,,,,,,,,,,,,,,,,,,,,,,,,,,,,,,,,,,001,168,2020_Feb_25_1353,spring_faces,3.1.5,60.079811704503896,
condition files/Stage1_2.xlsx,,B2,T2,m,"['c', 'm']","['Clue', 'Monopoly']","[-0.15, 0.5]","[0.15, 0.5]",1,1,,,,,,,,,0,11,11,11,0,0,0,3,,,,,,,,,,,,,,,,,,,,,,,,,,,,,,,,,,,,,,,,,,,,,,,,,,,,,,,1002.1486069790008,None,1002.1486069790008,None,1002.1486069790008,None,m,1,0.08760910799901467,1003.6984576920004,None,1003.6984576920004,None,1003.6984576920004,None,1003.8651355059992,None,1003.8651355059992,None,1003.8651355059992,None,1003.8651355059992,None,,,,,,,,,,,,,,,,,,,,,,,,,,,,,,,,,,,,,,,,,,,,001,168,2020_Feb_25_1353,spring_faces,3.1.5,60.079811704503896,
condition files/Stage1_2.xlsx,,T1,B2,m,"['c', 'm']","['Clue', 'Monopoly']","[-0.15, 0.5]","[0.15, 0.5]",1,1,,,,,,,,,0,11,11,11,0,1,1,2,,,,,,,,,,,,,,,,,,,,,,,,,,,,,,,,,,,,,,,,,,,,,,,,,,,,,,,1005.8145612929984,None,1005.8145612929984,None,1005.8145612929984,None,c,0,0.46957354699770804,1007.3484992869999,None,1007.3484992869999,None,1007.3484992869999,None,1007.8813120429986,None,1007.8813120429986,None,1007.8813120429986,None,1007.8813120429986,None,,,,,,,,,,,,,,,,,,,,,,,,,,,,,,,,,,,,,,,,,,,,001,168,2020_Feb_25_1353,spring_faces,3.1.5,60.079811704503896,
condition files/Stage1_2.xlsx,,B3,T4,m,"['c', 'm']","['Clue', 'Monopoly']","[-0.15, 0.5]","[0.15, 0.5]",1,1,,,,,,,,,0,11,11,11,0,2,2,6,,,,,,,,,,,,,,,,,,,,,,,,,,,,,,,,,,,,,,,,,,,,,,,,,,,,,,,1009.8480400379995,None,1009.8480400379995,None,1009.8480400379995,None,m,1,0.01848639800300589,1011.3835477079992,None,1011.3835477079992,None,1011.3835477079992,None,1011.4645049739993,None,1011.4645049739993,None,1011.4645049739993,None,1011.4645049739993,None,,,,,,,,,,,,,,,,,,,,,,,,,,,,,,,,,,,,,,,,,,,,001,168,2020_Feb_25_1353,spring_faces,3.1.5,60.079811704503896,
condition files/Stage1_2.xlsx,,B4,T3,c,"['c', 'm']","['Clue', 'Monopoly']","[-0.15, 0.5]","[0.15, 0.5]",1,1,,,,,,,,,0,11,11,11,0,3,3,5,,,,,,,,,,,,,,,,,,,,,,,,,,,,,,,,,,,,,,,,,,,,,,,,,,,,,,,1013.4315132049996,None,1013.4315132049996,None,1013.4315132049996,None,c,1,0.32524940500297816,1014.980879595998,None,1014.980879595998,None,1014.980879595998,None,1015.3670899889985,None,1015.3670899889985,None,1015.3670899889985,None,1015.3670899889985,None,,,,,,,,,,,,,,,,,,,,,,,,,,,,,,,,,,,,,,,,,,,,001,168,2020_Feb_25_1353,spring_faces,3.1.5,60.079811704503896,
condition files/Stage1_2.xlsx,,T2,B1,c,"['c', 'm']","['Clue', 'Monopoly']","[-0.15, 0.5]","[0.15, 0.5]",1,1,,,,,,,,,0,11,11,11,0,4,4,1,,,,,,,,,,,,,,,,,,,,,,,,,,,,,,,,,,,,,,,,,,,,,,,,,,,,,,,1017.3310200519991,None,1017.3310200519991,None,1017.3310200519991,None,c,1,0.3290730210028414,1018.8649562659994,None,1018.8649562659994,None,1018.8649562659994,None,1019.2477348879984,None,1019.2477348879984,None,1019.2477348879984,None,1019.2477348879984,None,,,,,,,,,,,,,,,,,,,,,,,,,,,,,,,,,,,,,,,,,,,,001,168,2020_Feb_25_1353,spring_faces,3.1.5,60.079811704503896,
condition files/Stage1_2.xlsx,,T4,B4,m,"['c', 'm']","['Clue', 'Monopoly']","[-0.15, 0.5]","[0.15, 0.5]",1,1,,,,,,,,,0,11,11,11,0,5,5,7,,,,,,,,,,,,,,,,,,,,,,,,,,,,,,,,,,,,,,,,,,,,,,,,,,,,,,,1021.2146450769978,None,1021.2146450769978,None,1021.2146450769978,None,m,1,0.6212763969997468,1022.7488042529985,None,1022.7488042529985,None,1022.7488042529985,None,1023.432020485001,None,1023.432020485001,None,1023.432020485001,None,1023.432020485001,None,,,,,,,,,,,,,,,,,,,,,,,,,,,,,,,,,,,,,,,,,,,,001,168,2020_Feb_25_1353,spring_faces,3.1.5,60.079811704503896,
condition files/Stage1_2.xlsx,,B1,T1,c,"['c', 'm']","['Clue', 'Monopoly']","[-0.15, 0.5]","[0.15, 0.5]",1,1,,,,,,,,,0,11,11,11,0,6,6,0,,,,,,,,,,,,,,,,,,,,,,,,,,,,,,,,,,,,,,,,,,,,,,,,,,,,,,,1025.397836199998,None,1025.397836199998,None,1025.397836199998,None,m,0,0.310602306999499,1026.9315362509988,None,1026.9315362509988,None,1026.9315362509988,None,1027.2983200679992,None,1027.2983200679992,None,1027.2983200679992,None,1027.2983200679992,None,,,,,,,,,,,,,,,,,,,,,,,,,,,,,,,,,,,,,,,,,,,,001,168,2020_Feb_25_1353,spring_faces,3.1.5,60.079811704503896,
condition files/Stage1_2.xlsx,,T3,B3,c,"['c', 'm']","['Clue', 'Monopoly']","[-0.15, 0.5]","[0.15, 0.5]",1,1,,,,,,,,,0,11,11,11,0,7,7,4,,,,,,,,,,,,,,,,,,,,,,,,,,,,,,,,,,,,,,,,,,,,,,,,,,,,,,,1029.2646780639989,None,1029.2646780639989,None,1029.2646780639989,None,c,1,0.44186598799933563,1030.800284429999,None,1030.800284429999,None,1030.800284429999,None,1031.2981483769981,None,1031.2981483769981,None,1031.2981483769981,None,1031.2981483769981,None,,,,,,,,,,,,,,,,,,,,,,,,,,,,,,,,,,,,,,,,,,,,001,168,2020_Feb_25_1353,spring_faces,3.1.5,60.079811704503896,
,,,,,,,,,,,,,,,,,,,,,,,,,,,,,,,,,,,,,,,,,,,,,,,,,,,,,,,,,,,,,,,,,,,,,,,,,,,,,,,,,,,,,,,,,,,,,,,,,,,,,,,,,,,,,,,,1033.2813935490012,None,space,9.328686106000532,1038.2814246979979,None,,,,,,,,,,,,,,,,,,,,,,,,,,,,,,001,168,2020_Feb_25_1353,spring_faces,3.1.5,60.079811704503896,
condition files/Stage2_1.xlsx,,B4,T4,r,"['s', 'r']","['Stratego', 'Risk']","[-0.15, 0.5]","[0.15, 0.5]",1,1,,,,,,,,,,,,,,,,,0,0,0,0,0,0,0,5,,,,,,,,,,,,,,,,,,,,,,,,,,,,,,,,,,,,,,,,,,,,,,,1047.6648575219988,None,1047.6648575219988,None,1047.6648575219988,None,r,1,0.8598452599981101,1049.1823133750004,None,1049.1823133750004,None,1049.1823133750004,None,1050.1002246709977,None,1050.1002246709977,None,1050.1002246709977,None,1050.1002246709977,None,,,,,,,,,,,,,,,1038.2814246979979,None,,,,,,,,,,,,,,,,,,,,,,,,,,,,001,168,2020_Feb_25_1353,spring_faces,3.1.5,60.079811704503896,
condition files/Stage2_1.xlsx,,T5,B5,s,"['s', 'r']","['Stratego', 'Risk']","[-0.15, 0.5]","[0.15, 0.5]",1,1,,,,,,,,,,,,,,,,,0,0,0,0,0,1,1,0,,,,,,,,,,,,,,,,,,,,,,,,,,,,,,,,,,,,,,,,,,,,,,,1052.0645301879995,None,1052.0645301879995,None,1052.0645301879995,None,s,1,0.6995893610001076,1053.598472998001,None,1053.598472998001,None,1053.598472998001,None,1054.3646129339977,None,1054.3646129339977,None,1054.3646129339977,None,1054.3646129339977,None,,,,,,,,,,,,,,,,,,,,,,,,,,,,,,,,,,,,,,,,,,,,001,168,2020_Feb_25_1353,spring_faces,3.1.5,60.079811704503896,
condition files/Stage2_1.xlsx,,T3,B3,s,"['s', 'r']","['Stratego', 'Risk']","[-0.15, 0.5]","[0.15, 0.5]",1,1,,,,,,,,,,,,,,,,,0,0,0,0,0,2,2,4,,,,,,,,,,,,,,,,,,,,,,,,,,,,,,,,,,,,,,,,,,,,,,,1056.3146792810003,None,1056.3146792810003,None,1056.3146792810003,None,r,0,1.0580860560003202,1057.848055104998,None,1057.848055104998,None,1057.848055104998,None,1058.9643647550001,None,1058.9643647550001,None,1058.9643647550001,None,1058.9643647550001,None,,,,,,,,,,,,,,,,,,,,,,,,,,,,,,,,,,,,,,,,,,,,001,168,2020_Feb_25_1353,spring_faces,3.1.5,60.079811704503896,
condition files/Stage2_1.xlsx,,B6,T6,r,"['s', 'r']","['Stratego', 'Risk']","[-0.15, 0.5]","[0.15, 0.5]",1,1,,,,,,,,,,,,,,,,,0,0,0,0,0,3,3,1,,,,,,,,,,,,,,,,,,,,,,,,,,,,,,,,,,,,,,,,,,,,,,,1060.930964332998,None,1060.930964332998,None,1060.930964332998,None,r,1,0.9846817709985771,1062.4813313449995,None,1062.4813313449995,None,1062.4813313449995,None,1063.5475996569985,None,1063.5475996569985,None,1063.5475996569985,None,1063.5475996569985,None,,,,,,,,,,,,,,,,,,,,,,,,,,,,,,,,,,,,,,,,,,,,001,168,2020_Feb_25_1353,spring_faces,3.1.5,60.079811704503896,
condition files/Stage2_1.xlsx,,T1,B1,s,"['s', 'r']","['Stratego', 'Risk']","[-0.15, 0.5]","[0.15, 0.5]",1,1,,,,,,,,,,,,,,,,,0,0,0,0,0,4,4,2,,,,,,,,,,,,,,,,,,,,,,,,,,,,,,,,,,,,,,,,,,,,,,,1065.4981339879996,None,1065.4981339879996,None,1065.4981339879996,None,s,1,1.1868600089983374,1067.0311967400012,None,1067.0311967400012,None,1067.0311967400012,None,1068.2810630409986,None,1068.2810630409986,None,1068.2810630409986,None,1068.2810630409986,None,,,,,,,,,,,,,,,,,,,,,,,,,,,,,,,,,,,,,,,,,,,,001,168,2020_Feb_25_1353,spring_faces,3.1.5,60.079811704503896,
condition files/Stage2_1.xlsx,,B2,T2,r,"['s', 'r']","['Stratego', 'Risk']","[-0.15, 0.5]","[0.15, 0.5]",1,1,,,,,,,,,,,,,,,,,0,0,0,0,0,5,5,3,,,,,,,,,,,,,,,,,,,,,,,,,,,,,,,,,,,,,,,,,,,,,,,1070.247976363,None,1070.247976363,None,1070.247976363,None,s,0,0.7245402990010916,1071.7815919269997,None,1071.7815919269997,None,1071.7815919269997,None,1072.564971148,None,1072.564971148,None,1072.564971148,None,1072.564971148,None,,,,,,,,,,,,,,,,,,,,,,,,,,,,,,,,,,,,,,,,,,,,001,168,2020_Feb_25_1353,spring_faces,3.1.5,60.079811704503896,
condition files/Stage2_2.xlsx,,T2,B2,r,"['s', 'r']","['Stratego', 'Risk']","[-0.15, 0.5]","[0.15, 0.5]",1,1,,,,,,,,,,,,,,,,,0,1,1,1,0,0,0,3,,,,,,,,,,,,,,,,,,,,,,,,,,,,,,,,,,,,,,,,,,,,,,,1074.5482582900004,None,1074.5482582900004,None,1074.5482582900004,None,s,0,1.014048951001314,1076.08402346,None,1076.08402346,None,1076.08402346,None,1077.148041635999,None,1077.148041635999,None,1077.148041635999,None,1077.148041635999,None,,,,,,,,,,,,,,,,,,,,,,,,,,,,,,,,,,,,,,,,,,,,001,168,2020_Feb_25_1353,spring_faces,3.1.5,60.079811704503896,
condition files/Stage2_2.xlsx,,T6,B6,r,"['s', 'r']","['Stratego', 'Risk']","[-0.15, 0.5]","[0.15, 0.5]",1,1,,,,,,,,,,,,,,,,,0,1,1,1,0,1,1,1,,,,,,,,,,,,,,,,,,,,,,,,,,,,,,,,,,,,,,,,,,,,,,,1079.114665355999,None,1079.114665355999,None,1079.114665355999,None,s,0,0.8805321380023088,1080.6495336519984,None,1080.6495336519984,None,1080.6495336519984,None,1081.5812886589993,None,1081.5812886589993,None,1081.5812886589993,None,1081.5812886589993,None,,,,,,,,,,,,,,,,,,,,,,,,,,,,,,,,,,,,,,,,,,,,001,168,2020_Feb_25_1353,spring_faces,3.1.5,60.079811704503896,
condition files/Stage2_2.xlsx,,B3,T3,s,"['s', 'r']","['Stratego', 'Risk']","[-0.15, 0.5]","[0.15, 0.5]",1,1,,,,,,,,,,,,,,,,,0,1,1,1,0,2,2,4,,,,,,,,,,,,,,,,,,,,,,,,,,,,,,,,,,,,,,,,,,,,,,,1083.5479778890003,None,1083.5479778890003,None,1083.5479778890003,None,s,1,1.0245392379983969,1085.0816084969993,None,1085.0816084969993,None,1085.0816084969993,None,1086.1652738089979,None,1086.1652738089979,None,1086.1652738089979,None,1086.1652738089979,None,,,,,,,,,,,,,,,,,,,,,,,,,,,,,,,,,,,,,,,,,,,,001,168,2020_Feb_25_1353,spring_faces,3.1.5,60.079811704503896,
condition files/Stage2_2.xlsx,,T4,B4,r,"['s', 'r']","['Stratego', 'Risk']","[-0.15, 0.5]","[0.15, 0.5]",1,1,,,,,,,,,,,,,,,,,0,1,1,1,0,3,3,5,,,,,,,,,,,,,,,,,,,,,,,,,,,,,,,,,,,,,,,,,,,,,,,1088.1313352819998,None,1088.1313352819998,None,1088.1313352819998,None,r,1,0.8088312740001129,1089.6652992829986,None,1089.6652992829986,None,1089.6652992829986,None,1090.5343149129985,None,1090.5343149129985,None,1090.5343149129985,None,1090.5343149129985,None,,,,,,,,,,,,,,,,,,,,,,,,,,,,,,,,,,,,,,,,,,,,001,168,2020_Feb_25_1353,spring_faces,3.1.5,60.079811704503896,
condition files/Stage2_2.xlsx,,B5,T5,s,"['s', 'r']","['Stratego', 'Risk']","[-0.15, 0.5]","[0.15, 0.5]",1,1,,,,,,,,,,,,,,,,,0,1,1,1,0,4,4,0,,,,,,,,,,,,,,,,,,,,,,,,,,,,,,,,,,,,,,,,,,,,,,,1092.4977276879981,None,1092.4977276879981,None,1092.4977276879981,None,s,1,1.2750621619998128,1094.031084416998,None,1094.031084416998,None,1094.031084416998,None,1095.364609436001,None,1095.364609436001,None,1095.364609436001,None,1095.364609436001,None,,,,,,,,,,,,,,,,,,,,,,,,,,,,,,,,,,,,,,,,,,,,001,168,2020_Feb_25_1353,spring_faces,3.1.5,60.079811704503896,
condition files/Stage2_2.xlsx,,B1,T1,s,"['s', 'r']","['Stratego', 'Risk']","[-0.15, 0.5]","[0.15, 0.5]",1,1,,,,,,,,,,,,,,,,,0,1,1,1,0,5,5,2,,,,,,,,,,,,,,,,,,,,,,,,,,,,,,,,,,,,,,,,,,,,,,,1097.3313548990009,None,1097.3313548990009,None,1097.3313548990009,None,r,0,0.9219219000005978,1098.8641315799978,None,1098.8641315799978,None,1098.8641315799978,None,1099.8482207109992,None,1099.8482207109992,None,1099.8482207109992,None,1099.8482207109992,None,,,,,,,,,,,,,,,,,,,,,,,,,,,,,,,,,,,,,,,,,,,,001,168,2020_Feb_25_1353,spring_faces,3.1.5,60.079811704503896,
condition files/Stage2_1.xlsx,,T3,B3,s,"['s', 'r']","['Stratego', 'Risk']","[-0.15, 0.5]","[0.15, 0.5]",1,1,,,,,,,,,,,,,,,,,0,2,2,2,0,0,0,4,,,,,,,,,,,,,,,,,,,,,,,,,,,,,,,,,,,,,,,,,,,,,,,1101.8312211659977,None,1101.8312211659977,None,1101.8312211659977,None,r,0,1.9094696799984376,1103.364674206001,None,1103.364674206001,None,1103.364674206001,None,1105.331550750001,None,1105.331550750001,None,1105.331550750001,None,1105.331550750001,None,,,,,,,,,,,,,,,,,,,,,,,,,,,,,,,,,,,,,,,,,,,,001,168,2020_Feb_25_1353,spring_faces,3.1.5,60.079811704503896,
condition files/Stage2_1.xlsx,,B2,T2,r,"['s', 'r']","['Stratego', 'Risk']","[-0.15, 0.5]","[0.15, 0.5]",1,1,,,,,,,,,,,,,,,,,0,2,2,2,0,1,1,3,,,,,,,,,,,,,,,,,,,,,,,,,,,,,,,,,,,,,,,,,,,,,,,1107.2976430890012,None,1107.2976430890012,None,1107.2976430890012,None,r,1,1.4177746389977983,1108.848251823998,None,1108.848251823998,None,1108.848251823998,None,1110.3479708679988,None,1110.3479708679988,None,1110.3479708679988,None,1110.3479708679988,None,,,,,,,,,,,,,,,,,,,,,,,,,,,,,,,,,,,,,,,,,,,,001,168,2020_Feb_25_1353,spring_faces,3.1.5,60.079811704503896,
condition files/Stage2_1.xlsx,,B6,T6,r,"['s', 'r']","['Stratego', 'Risk']","[-0.15, 0.5]","[0.15, 0.5]",1,1,,,,,,,,,,,,,,,,,0,2,2,2,0,2,2,1,,,,,,,,,,,,,,,,,,,,,,,,,,,,,,,,,,,,,,,,,,,,,,,1112.298160178998,None,1112.298160178998,None,1112.298160178998,None,s,0,1.2487592519973987,1113.8332759609984,None,1113.8332759609984,None,1113.8332759609984,None,1115.1482208220004,None,1115.1482208220004,None,1115.1482208220004,None,1115.1482208220004,None,,,,,,,,,,,,,,,,,,,,,,,,,,,,,,,,,,,,,,,,,,,,001,168,2020_Feb_25_1353,spring_faces,3.1.5,60.079811704503896,
condition files/Stage2_1.xlsx,,B4,T4,r,"['s', 'r']","['Stratego', 'Risk']","[-0.15, 0.5]","[0.15, 0.5]",1,1,,,,,,,,,,,,,,,,,0,2,2,2,0,3,3,5,,,,,,,,,,,,,,,,,,,,,,,,,,,,,,,,,,,,,,,,,,,,,,,1117.114576437998,None,1117.114576437998,None,1117.114576437998,None,s,0,1.5361399030007306,1118.6499368510013,None,1118.6499368510013,None,1118.6499368510013,None,1120.2480262860008,None,1120.2480262860008,None,1120.2480262860008,None,1120.2480262860008,None,,,,,,,,,,,,,,,,,,,,,,,,,,,,,,,,,,,,,,,,,,,,001,168,2020_Feb_25_1353,spring_faces,3.1.5,60.079811704503896,
condition files/Stage2_1.xlsx,,T5,B5,s,"['s', 'r']","['Stratego', 'Risk']","[-0.15, 0.5]","[0.15, 0.5]",1,1,,,,,,,,,,,,,,,,,0,2,2,2,0,4,4,0,,,,,,,,,,,,,,,,,,,,,,,,,,,,,,,,,,,,,,,,,,,,,,,1122.2145298610012,None,1122.2145298610012,None,1122.2145298610012,None,s,1,1.4780539919993316,1123.7480087039985,None,1123.7480087039985,None,1123.7480087039985,None,1125.2978699749983,None,1125.2978699749983,None,1125.2978699749983,None,1125.2978699749983,None,,,,,,,,,,,,,,,,,,,,,,,,,,,,,,,,,,,,,,,,,,,,001,168,2020_Feb_25_1353,spring_faces,3.1.5,60.079811704503896,
condition files/Stage2_1.xlsx,,T1,B1,s,"['s', 'r']","['Stratego', 'Risk']","[-0.15, 0.5]","[0.15, 0.5]",1,1,,,,,,,,,,,,,,,,,0,2,2,2,0,5,5,2,,,,,,,,,,,,,,,,,,,,,,,,,,,,,,,,,,,,,,,,,,,,,,,1127.2480274139998,None,1127.2480274139998,None,1127.2480274139998,None,r,0,0.9559833080020326,1128.7821586690006,None,1128.7821586690006,None,1128.7821586690006,None,1129.7983798319983,None,1129.7983798319983,None,1129.7983798319983,None,1129.7983798319983,None,,,,,,,,,,,,,,,,,,,,,,,,,,,,,,,,,,,,,,,,,,,,001,168,2020_Feb_25_1353,spring_faces,3.1.5,60.079811704503896,
condition files/Stage2_2.xlsx,,B5,T5,s,"['s', 'r']","['Stratego', 'Risk']","[-0.15, 0.5]","[0.15, 0.5]",1,1,,,,,,,,,,,,,,,,,0,3,3,3,0,0,0,0,,,,,,,,,,,,,,,,,,,,,,,,,,,,,,,,,,,,,,,,,,,,,,,1131.780937126001,None,1131.780937126001,None,1131.780937126001,None,s,1,0.9828598690000945,1133.3312039880002,None,1133.3312039880002,None,1133.3312039880002,None,1134.365081947999,None,1134.365081947999,None,1134.365081947999,None,1134.365081947999,None,,,,,,,,,,,,,,,,,,,,,,,,,,,,,,,,,,,,,,,,,,,,001,168,2020_Feb_25_1353,spring_faces,3.1.5,60.079811704503896,
condition files/Stage2_2.xlsx,,T4,B4,r,"['s', 'r']","['Stratego', 'Risk']","[-0.15, 0.5]","[0.15, 0.5]",1,1,,,,,,,,,,,,,,,,,0,3,3,3,0,1,1,5,,,,,,,,,,,,,,,,,,,,,,,,,,,,,,,,,,,,,,,,,,,,,,,1136.3311542970005,None,1136.3311542970005,None,1136.3311542970005,None,r,1,1.2328869599987229,1137.8651331010005,None,1137.8651331010005,None,1137.8651331010005,None,1139.151089264,None,1139.151089264,None,1139.151089264,None,1139.151089264,None,,,,,,,,,,,,,,,,,,,,,,,,,,,,,,,,,,,,,,,,,,,,001,168,2020_Feb_25_1353,spring_faces,3.1.5,60.079811704503896,
condition files/Stage2_2.xlsx,,B1,T1,s,"['s', 'r']","['Stratego', 'Risk']","[-0.15, 0.5]","[0.15, 0.5]",1,1,,,,,,,,,,,,,,,,,0,3,3,3,0,2,2,2,,,,,,,,,,,,,,,,,,,,,,,,,,,,,,,,,,,,,,,,,,,,,,,1141.1140590629984,None,1141.1140590629984,None,1141.1140590629984,None,r,0,1.0080373119999422,1142.6500571319993,None,1142.6500571319993,None,1142.6500571319993,None,1143.717462075998,None,1143.717462075998,None,1143.717462075998,None,1143.717462075998,None,,,,,,,,,,,,,,,,,,,,,,,,,,,,,,,,,,,,,,,,,,,,001,168,2020_Feb_25_1353,spring_faces,3.1.5,60.079811704503896,
condition files/Stage2_2.xlsx,,T2,B2,r,"['s', 'r']","['Stratego', 'Risk']","[-0.15, 0.5]","[0.15, 0.5]",1,1,,,,,,,,,,,,,,,,,0,3,3,3,0,3,3,3,,,,,,,,,,,,,,,,,,,,,,,,,,,,,,,,,,,,,,,,,,,,,,,1145.6811744949991,None,1145.6811744949991,None,1145.6811744949991,None,r,1,1.2582869519974338,1147.21587154,None,1147.21587154,None,1147.21587154,None,1148.5340044309996,None,1148.5340044309996,None,1148.5340044309996,None,1148.5340044309996,None,,,,,,,,,,,,,,,,,,,,,,,,,,,,,,,,,,,,,,,,,,,,001,168,2020_Feb_25_1353,spring_faces,3.1.5,60.079811704503896,
condition files/Stage2_2.xlsx,,B3,T3,s,"['s', 'r']","['Stratego', 'Risk']","[-0.15, 0.5]","[0.15, 0.5]",1,1,,,,,,,,,,,,,,,,,0,3,3,3,0,4,4,4,,,,,,,,,,,,,,,,,,,,,,,,,,,,,,,,,,,,,,,,,,,,,,,1150.497352104001,None,1150.497352104001,None,1150.497352104001,None,r,0,2.1867270990005636,1152.0313439989986,None,1152.0313439989986,None,1152.0313439989986,None,1154.2817719019986,None,1154.2817719019986,None,1154.2817719019986,None,1154.2817719019986,None,,,,,,,,,,,,,,,,,,,,,,,,,,,,,,,,,,,,,,,,,,,,001,168,2020_Feb_25_1353,spring_faces,3.1.5,60.079811704503896,
condition files/Stage2_2.xlsx,,T6,B6,r,"['s', 'r']","['Stratego', 'Risk']","[-0.15, 0.5]","[0.15, 0.5]",1,1,,,,,,,,,,,,,,,,,0,3,3,3,0,5,5,1,,,,,,,,,,,,,,,,,,,,,,,,,,,,,,,,,,,,,,,,,,,,,,,1156.2481873670004,None,1156.2481873670004,None,1156.2481873670004,None,r,1,1.475887173000956,1157.798251117998,None,1157.798251117998,None,1157.798251117998,None,1159.333968854,None,1159.333968854,None,1159.333968854,None,1159.333968854,None,,,,,,,,,,,,,,,,,,,,,,,,,,,,,,,,,,,,,,,,,,,,001,168,2020_Feb_25_1353,spring_faces,3.1.5,60.079811704503896,
condition files/Stage2_1.xlsx,,T5,B5,s,"['s', 'r']","['Stratego', 'Risk']","[-0.15, 0.5]","[0.15, 0.5]",1,1,,,,,,,,,,,,,,,,,0,4,4,4,0,0,0,0,,,,,,,,,,,,,,,,,,,,,,,,,,,,,,,,,,,,,,,,,,,,,,,1161.3148547689998,None,1161.3148547689998,None,1161.3148547689998,None,s,1,0.9212519219981914,1162.8648207459992,None,1162.8648207459992,None,1162.8648207459992,None,1163.8496042549996,None,1163.8496042549996,None,1163.8496042549996,None,1163.8496042549996,None,,,,,,,,,,,,,,,,,,,,,,,,,,,,,,,,,,,,,,,,,,,,001,168,2020_Feb_25_1353,spring_faces,3.1.5,60.079811704503896,
condition files/Stage2_1.xlsx,,T3,B3,s,"['s', 'r']","['Stratego', 'Risk']","[-0.15, 0.5]","[0.15, 0.5]",1,1,,,,,,,,,,,,,,,,,0,4,4,4,0,1,1,4,,,,,,,,,,,,,,,,,,,,,,,,,,,,,,,,,,,,,,,,,,,,,,,1165.8145983739996,None,1165.8145983739996,None,1165.8145983739996,None,s,1,2.9338067099997716,1167.3482160239982,None,1167.3482160239982,None,1167.3482160239982,None,1170.3482432130004,None,1170.3482432130004,None,1170.3482432130004,None,1170.3482432130004,None,,,,,,,,,,,,,,,,,,,,,,,,,,,,,,,,,,,,,,,,,,,,001,168,2020_Feb_25_1353,spring_faces,3.1.5,60.079811704503896,
