condsFile,subStage,cue1,cue2,correct,responseKeys,responseNames,cue1Position,cue2Position,cue1Opacity,cue2Opacity,stageLoop0.thisRepN,stageLoop0.thisTrialN,stageLoop0.thisN,stageLoop0.thisIndex,blockLoop0.thisRepN,blockLoop0.thisTrialN,blockLoop0.thisN,blockLoop0.thisIndex,stage1Loop.thisRepN,stage1Loop.thisTrialN,stage1Loop.thisN,stage1Loop.thisIndex,blockLoop1.thisRepN,blockLoop1.thisTrialN,blockLoop1.thisN,blockLoop1.thisIndex,stage2Loop.thisRepN,stage2Loop.thisTrialN,stage2Loop.thisN,stage2Loop.thisIndex,blockLoop2.thisRepN,blockLoop2.thisTrialN,blockLoop2.thisN,blockLoop2.thisIndex,testLoop.thisRepN,testLoop.thisTrialN,testLoop.thisN,testLoop.thisIndex,blockLoopTest.thisRepN,blockLoopTest.thisTrialN,blockLoopTest.thisN,blockLoopTest.thisIndex,cuePics,id_instr_text.started,id_instr_text.stopped,space_to_continue_2.started,space_to_continue_2.stopped,end_instructions_resp_3.keys,end_instructions_resp_3.rt,end_instructions_resp_3.started,end_instructions_resp_3.stopped,id_input_instr.started,id_input_instr.stopped,id_input_rect.started,id_input_rect.stopped,id_input_resp.keys,id_input_resp.rt,id_input_resp.started,id_input_resp.stopped,sonaID,id_input_text.started,id_input_text.stopped,final_text.started,final_text.stopped,instructions.started,instructions.stopped,end_instructions_resp.keys,end_instructions_resp.rt,end_instructions_resp.started,end_instructions_resp.stopped,space_to_continue.started,space_to_continue.stopped,instructions_stage0.started,instructions_stage0.stopped,end_instructions_resp_stage0.keys,end_instructions_resp_stage0.rt,end_instructions_resp_stage0.started,end_instructions_resp_stage0.stopped,space_to_continue_stage0.started,space_to_continue_stage0.stopped,text.started,text.stopped,resp_text1.started,resp_text1.stopped,resp_text2.started,resp_text2.stopped,trial_resp.keys,trial_resp.corr,trial_resp.rt,trial_resp.started,trial_resp.stopped,cue1Image.started,cue1Image.stopped,cue2Image.started,cue2Image.stopped,cue1Image_fb.started,cue1Image_fb.stopped,cue2Image_fb.started,cue2Image_fb.stopped,fb_text_answer.started,fb_text_answer.stopped,feedback_image.started,feedback_image.stopped,instructions_stage1.started,instructions_stage1.stopped,end_instructions_resp_stage1.keys,end_instructions_resp_stage1.rt,end_instructions_resp_stage1.started,end_instructions_resp_stage1.stopped,space_to_continue_stage1.started,space_to_continue_stage1.stopped,instructions_2.started,instructions_2.stopped,end_instructions_resp_2.keys,end_instructions_resp_2.rt,end_instructions_resp_2.started,end_instructions_resp_2.stopped,press_space_to_continue_stage2.started,press_space_to_continue_stage2.stopped,instructions_testStage1.started,instructions_testStage1.stopped,end_instructions_resp_test1.keys,end_instructions_resp_test1.rt,end_instructions_resp_test1.started,end_instructions_resp_test1.stopped,press_space_to_continue_test1.started,press_space_to_continue_test1.stopped,cue1Image_testChoice.started,cue1Image_testChoice.stopped,cue2Image_testChoice.started,cue2Image_testChoice.stopped,test_resp.keys,test_resp.corr,test_resp.rt,test_resp.started,test_resp.stopped,cue1Image_testConf.started,cue1Image_testConf.stopped,cue2Image_testConf.started,cue2Image_testConf.stopped,conf_reminder.started,conf_reminder.stopped,conf_rating.response,conf_rating.rt,conf_rating.started,conf_rating.stopped,session,participant,date,expName,psychopyVersion,frameRate,
,,,,,,,,,,,,,,,,,,,,,,,,,,,,,,,,,,,,,,,,,,,"{'none': 'pictures/20M_AN_C.png', 'alpha': 'pictures/SHINEd_melon.png', 'beta': 'pictures/SHINEd_pepper.png', 'theta': 'pictures/SHINEd_pear.png', 'phi': 'pictures/SHINEd_apple.png', 'T1': 'pictures/22M_AN_C.png', 'T2': 'pictures/23M_AN_C.png', 'T3': 'pictures/33M_AN_C.png', 'T4': 'pictures/20M_AN_C.png', 'T5': 'pictures/37M_AN_C.png', 'T6': 'pictures/31M_AN_C.png', 'B1': 'pictures/38M_NE_C.png', 'B2': 'pictures/26M_NE_C.png', 'B3': 'pictures/34M_NE_C.png', 'B4': 'pictures/32M_NE_C.png', 'B5': 'pictures/36M_NE_C.png', 'B6': 'pictures/25M_NE_C.png'}",8.377121614001226,None,13.377949429999717,None,space,0.42726175500138197,13.377949429999717,None,,,,,,,,,,,,,,,,,,,,,,,,,,,,,,,,,,,,,,,,,,,,,,,,,,,,,,,,,,,,,,,,,,,,,,,,,,,,,,,,,,,,,,,,,,,,,,,,001,171,2020_Feb_25_1529,spring_faces,3.1.5,60.0005470848234,
,,,,,,,,,,,,,,,,,,,,,,,,,,,,,,,,,,,,,,,,,,,,,,,,,,,,14.177520756002195,None,14.177520756002195,None,"['m', 'a', 'b', 'u', 'r', 'y', 'backspace', 'backspace', 'backspace', 'backspace', 'backspace', 'backspace', 'backspace', '0', '4', '1', '0', 'm', 'a', 'backspace', 'backspace', 'l', 'e', 'g', 'r', 'a']","[21.291661766001198, 21.723625587001152, 22.81159186199875, 23.099601964000612, 23.387596640000993, 23.579606193001382, 29.995561566000106, 30.171619500000816, 30.36362805400131, 30.491674222001166, 30.651553274001344, 30.795526142999734, 30.97162075199958, 32.12365420900096, 33.0835927190019, 33.49958964100006, 33.67567687200062, 35.643614922999404, 36.571626585999184, 49.019604126999184, 49.32359203500164, 49.99562150299971, 50.31560992999948, 56.7638137899994, 57.179607436999504, 57.61157600200022]",14.177520756002195,None,,,,,,,,,,,,,,,,,,,,,,,,,,,,,,,,,,,,,,,,,,,,,,,,,,,,,,,,,,,,,,,,,,,,,,,,,,,,,,,,,,,,,,,,001,171,2020_Feb_25_1529,spring_faces,3.1.5,60.0005470848234,
,,,,,,,,,,,,,,,,,,,,,,,,,,,,,,,,,,,,,,,,,,,,,,,,,,,,,,,,,,,,0410legra,14.177520756002195,None,14.177520756002195,None,76.86123573900113,None,space,0.9839574859979621,81.86112651200165,None,,,,,,,,,,,,,,,,,,,,,,,,,,,,,,,,,,,,,,,,,,,,,,,,,,,,,,,,,,,,,,,,,,,,,,,,,,,,,001,171,2020_Feb_25_1529,spring_faces,3.1.5,60.0005470848234,
,,,,,,,,,,,,,,,,,,,,,,,,,,,,,,,,,,,,,,,,,,,,,,,,,,,,,,,,,,,,,,,,,,,,,,,81.86112651200165,None,82.8948203330001,None,space,5.638616999000078,87.89452362200245,None,,,,,,,,,,,,,,,,,,,,,,,,,,,,,,,,,,,,,,,,,,,,,,,,,,,,,,,,,,,,,,,,,,,,,001,171,2020_Feb_25_1529,spring_faces,3.1.5,60.0005470848234,
condition files/Stage0a.xlsx,0a,beta,none,g,"['h', 'g']","['Chess', 'Go']","[0, 0.5]","[0, 0]",1,0,0,0,0,0,0,0,0,1,,,,,,,,,,,,,,,,,,,,,,,,,,,,,,,,,,,,,,,,,,,,,,,,,,,,,,,,,,,,,87.89452362200245,None,93.59475956400274,None,93.59475956400274,None,93.59475956400274,None,g,1,1.987697623000713,95.16142969500288,None,95.16142969500288,None,95.16142969500288,None,97.22801563900066,None,97.22801563900066,None,97.22801563900066,None,97.22801563900066,None,,,,,,,,,,,,,,,,,,,,,,,,,,,,,,,,,,,,,,,,,,,,001,171,2020_Feb_25_1529,spring_faces,3.1.5,60.0005470848234,
condition files/Stage0a.xlsx,0a,alpha,none,h,"['h', 'g']","['Chess', 'Go']","[0, 0.5]","[0, 0]",1,0,0,0,0,0,0,1,1,0,,,,,,,,,,,,,,,,,,,,,,,,,,,,,,,,,,,,,,,,,,,,,,,,,,,,,,,,,,,,,,,99.1782544130001,None,99.1782544130001,None,99.1782544130001,None,g,0,1.0920104059987352,100.71319956700245,None,100.71319956700245,None,100.71319956700245,None,101.86113315600232,None,101.86113315600232,None,101.86113315600232,None,101.86113315600232,None,,,,,,,,,,,,,,,,,,,,,,,,,,,,,,,,,,,,,,,,,,,,001,171,2020_Feb_25_1529,spring_faces,3.1.5,60.0005470848234,
condition files/Stage0a.xlsx,0a,alpha,none,h,"['h', 'g']","['Chess', 'Go']","[0, 0.5]","[0, 0]",1,0,0,1,1,1,0,0,0,0,,,,,,,,,,,,,,,,,,,,,,,,,,,,,,,,,,,,,,,,,,,,,,,,,,,,,,,,,,,,,,,103.84458566800095,None,103.84458566800095,None,103.84458566800095,None,h,1,1.4995582890005608,105.37756325800001,None,105.37756325800001,None,105.37756325800001,None,106.92825038200317,None,106.92825038200317,None,106.92825038200317,None,106.92825038200317,None,,,,,,,,,,,,,,,,,,,,,,,,,,,,,,,,,,,,,,,,,,,,001,171,2020_Feb_25_1529,spring_faces,3.1.5,60.0005470848234,
condition files/Stage0a.xlsx,0a,beta,none,g,"['h', 'g']","['Chess', 'Go']","[0, 0.5]","[0, 0]",1,0,0,1,1,1,0,1,1,1,,,,,,,,,,,,,,,,,,,,,,,,,,,,,,,,,,,,,,,,,,,,,,,,,,,,,,,,,,,,,,,108.89428852499987,None,108.89428852499987,None,108.89428852499987,None,g,1,0.6580469860018638,110.4271340330015,None,110.4271340330015,None,110.4271340330015,None,111.14474786800201,None,111.14474786800201,None,111.14474786800201,None,111.14474786800201,None,,,,,,,,,,,,,,,,,,,,,,,,,,,,,,,,,,,,,,,,,,,,001,171,2020_Feb_25_1529,spring_faces,3.1.5,60.0005470848234,
condition files/Stage0a.xlsx,0a,beta,none,g,"['h', 'g']","['Chess', 'Go']","[0, 0.5]","[0, 0]",1,0,0,2,2,2,0,0,0,1,,,,,,,,,,,,,,,,,,,,,,,,,,,,,,,,,,,,,,,,,,,,,,,,,,,,,,,,,,,,,,,113.12822674000199,None,113.12822674000199,None,113.12822674000199,None,h,0,0.7760087529968587,114.66121251400182,None,114.66121251400182,None,114.66121251400182,None,115.49413656400066,None,115.49413656400066,None,115.49413656400066,None,115.49413656400066,None,,,,,,,,,,,,,,,,,,,,,,,,,,,,,,,,,,,,,,,,,,,,001,171,2020_Feb_25_1529,spring_faces,3.1.5,60.0005470848234,
condition files/Stage0a.xlsx,0a,alpha,none,h,"['h', 'g']","['Chess', 'Go']","[0, 0.5]","[0, 0]",1,0,0,2,2,2,0,1,1,0,,,,,,,,,,,,,,,,,,,,,,,,,,,,,,,,,,,,,,,,,,,,,,,,,,,,,,,,,,,,,,,117.4603967050025,None,117.4603967050025,None,117.4603967050025,None,h,1,0.8101085509988479,118.99508986100045,None,118.99508986100045,None,118.99508986100045,None,119.86120642700189,None,119.86120642700189,None,119.86120642700189,None,119.86120642700189,None,,,,,,,,,,,,,,,,,,,,,,,,,,,,,,,,,,,,,,,,,,,,001,171,2020_Feb_25_1529,spring_faces,3.1.5,60.0005470848234,
condition files/Stage0a.xlsx,0a,alpha,none,h,"['h', 'g']","['Chess', 'Go']","[0, 0.5]","[0, 0]",1,0,0,3,3,3,0,0,0,0,,,,,,,,,,,,,,,,,,,,,,,,,,,,,,,,,,,,,,,,,,,,,,,,,,,,,,,,,,,,,,,121.84474522300297,None,121.84474522300297,None,121.84474522300297,None,h,1,0.8589795619991492,123.37822582800072,None,123.37822582800072,None,123.37822582800072,None,124.29472397200152,None,124.29472397200152,None,124.29472397200152,None,124.29472397200152,None,,,,,,,,,,,,,,,,,,,,,,,,,,,,,,,,,,,,,,,,,,,,001,171,2020_Feb_25_1529,spring_faces,3.1.5,60.0005470848234,
condition files/Stage0a.xlsx,0a,beta,none,g,"['h', 'g']","['Chess', 'Go']","[0, 0.5]","[0, 0]",1,0,0,3,3,3,0,1,1,1,,,,,,,,,,,,,,,,,,,,,,,,,,,,,,,,,,,,,,,,,,,,,,,,,,,,,,,,,,,,,,,126.26046191500063,None,126.26046191500063,None,126.26046191500063,None,g,1,0.442909666999185,127.79429348800113,None,127.79429348800113,None,127.79429348800113,None,128.29477196300286,None,128.29477196300286,None,128.29477196300286,None,128.29477196300286,None,,,,,,,,,,,,,,,,,,,,,,,,,,,,,,,,,,,,,,,,,,,,001,171,2020_Feb_25_1529,spring_faces,3.1.5,60.0005470848234,
condition files/Stage0a.xlsx,0a,beta,none,g,"['h', 'g']","['Chess', 'Go']","[0, 0.5]","[0, 0]",1,0,0,4,4,4,0,0,0,1,,,,,,,,,,,,,,,,,,,,,,,,,,,,,,,,,,,,,,,,,,,,,,,,,,,,,,,,,,,,,,,130.2778281710016,None,130.2778281710016,None,130.2778281710016,None,g,1,0.585785716000828,131.81135854800232,None,131.81135854800232,None,131.81135854800232,None,132.46126036400165,None,132.46126036400165,None,132.46126036400165,None,132.46126036400165,None,,,,,,,,,,,,,,,,,,,,,,,,,,,,,,,,,,,,,,,,,,,,001,171,2020_Feb_25_1529,spring_faces,3.1.5,60.0005470848234,
condition files/Stage0a.xlsx,0a,alpha,none,h,"['h', 'g']","['Chess', 'Go']","[0, 0.5]","[0, 0]",1,0,0,4,4,4,0,1,1,0,,,,,,,,,,,,,,,,,,,,,,,,,,,,,,,,,,,,,,,,,,,,,,,,,,,,,,,,,,,,,,,134.42793276000157,None,134.42793276000157,None,134.42793276000157,None,h,1,0.6444660750021285,135.9607166800015,None,135.9607166800015,None,135.9607166800015,None,136.66131890600082,None,136.66131890600082,None,136.66131890600082,None,136.66131890600082,None,,,,,,,,,,,,,,,,,,,,,,,,,,,,,,,,,,,,,,,,,,,,001,171,2020_Feb_25_1529,spring_faces,3.1.5,60.0005470848234,
condition files/Stage0a.xlsx,0a,alpha,none,h,"['h', 'g']","['Chess', 'Go']","[0, 0.5]","[0, 0]",1,0,0,5,5,5,0,0,0,0,,,,,,,,,,,,,,,,,,,,,,,,,,,,,,,,,,,,,,,,,,,,,,,,,,,,,,,,,,,,,,,138.6447630750008,None,138.6447630750008,None,138.6447630750008,None,h,1,0.5873942649996025,140.1777433180032,None,140.1777433180032,None,140.1777433180032,None,140.8277151250004,None,140.8277151250004,None,140.8277151250004,None,140.8277151250004,None,,,,,,,,,,,,,,,,,,,,,,,,,,,,,,,,,,,,,,,,,,,,001,171,2020_Feb_25_1529,spring_faces,3.1.5,60.0005470848234,
condition files/Stage0a.xlsx,0a,beta,none,g,"['h', 'g']","['Chess', 'Go']","[0, 0.5]","[0, 0]",1,0,0,5,5,5,0,1,1,1,,,,,,,,,,,,,,,,,,,,,,,,,,,,,,,,,,,,,,,,,,,,,,,,,,,,,,,,,,,,,,,142.79363486700095,None,142.79363486700095,None,142.79363486700095,None,g,1,0.38966015899859485,144.32748566200098,None,144.32748566200098,None,144.32748566200098,None,144.77798042500217,None,144.77798042500217,None,144.77798042500217,None,144.77798042500217,None,,,,,,,,,,,,,,,,,,,,,,,,,,,,,,,,,,,,,,,,,,,,001,171,2020_Feb_25_1529,spring_faces,3.1.5,60.0005470848234,
condition files/Stage0b_1.xlsx,0b,none,beta,g,"['h', 'g']","['Chess', 'Go']","[-0.15, 0.5]","[0.15, 0.5]",0,1,0,6,6,6,0,0,0,1,,,,,,,,,,,,,,,,,,,,,,,,,,,,,,,,,,,,,,,,,,,,,,,,,,,,,,,,,,,,,,,146.76126979800028,None,146.76126979800028,None,146.76126979800028,None,g,1,0.6936402220017044,148.31156604200078,None,148.31156604200078,None,148.31156604200078,None,149.061345995,None,149.061345995,None,149.061345995,None,149.061345995,None,,,,,,,,,,,,,,,,,,,,,,,,,,,,,,,,,,,,,,,,,,,,001,171,2020_Feb_25_1529,spring_faces,3.1.5,60.0005470848234,
condition files/Stage0b_1.xlsx,0b,alpha,none,h,"['h', 'g']","['Chess', 'Go']","[-0.15, 0.5]","[0.15, 0.5]",1,0,0,6,6,6,0,1,1,0,,,,,,,,,,,,,,,,,,,,,,,,,,,,,,,,,,,,,,,,,,,,,,,,,,,,,,,,,,,,,,,151.02754646500034,None,151.02754646500034,None,151.02754646500034,None,h,1,0.5682163999990735,152.56491385100162,None,152.56491385100162,None,152.56491385100162,None,153.1955479290009,None,153.1955479290009,None,153.1955479290009,None,153.1955479290009,None,,,,,,,,,,,,,,,,,,,,,,,,,,,,,,,,,,,,,,,,,,,,001,171,2020_Feb_25_1529,spring_faces,3.1.5,60.0005470848234,
condition files/Stage0b_2.xlsx,0b,none,alpha,h,"['h', 'g']","['Chess', 'Go']","[-0.15, 0.5]","[0.15, 0.5]",0,1,0,7,7,7,0,0,0,0,,,,,,,,,,,,,,,,,,,,,,,,,,,,,,,,,,,,,,,,,,,,,,,,,,,,,,,,,,,,,,,155.17784281400236,None,155.17784281400236,None,155.17784281400236,None,h,1,0.6600480549968779,156.71303962800084,None,156.71303962800084,None,156.71303962800084,None,157.42839042200285,None,157.42839042200285,None,157.42839042200285,None,157.42839042200285,None,,,,,,,,,,,,,,,,,,,,,,,,,,,,,,,,,,,,,,,,,,,,001,171,2020_Feb_25_1529,spring_faces,3.1.5,60.0005470848234,
condition files/Stage0b_2.xlsx,0b,beta,none,g,"['h', 'g']","['Chess', 'Go']","[-0.15, 0.5]","[0.15, 0.5]",1,0,0,7,7,7,0,1,1,1,,,,,,,,,,,,,,,,,,,,,,,,,,,,,,,,,,,,,,,,,,,,,,,,,,,,,,,,,,,,,,,159.39433653000015,None,159.39433653000015,None,159.39433653000015,None,g,1,0.8760020680019807,160.92919926300237,None,160.92919926300237,None,160.92919926300237,None,161.86100483700284,None,161.86100483700284,None,161.86100483700284,None,161.86100483700284,None,,,,,,,,,,,,,,,,,,,,,,,,,,,,,,,,,,,,,,,,,,,,001,171,2020_Feb_25_1529,spring_faces,3.1.5,60.0005470848234,
condition files/Stage0b_1.xlsx,0b,alpha,none,h,"['h', 'g']","['Chess', 'Go']","[-0.15, 0.5]","[0.15, 0.5]",1,0,0,8,8,8,0,0,0,0,,,,,,,,,,,,,,,,,,,,,,,,,,,,,,,,,,,,,,,,,,,,,,,,,,,,,,,,,,,,,,,163.84475887200097,None,163.84475887200097,None,163.84475887200097,None,h,1,0.42741719499827013,165.37779274700006,None,165.37779274700006,None,165.37779274700006,None,165.86138019999999,None,165.86138019999999,None,165.86138019999999,None,165.86138019999999,None,,,,,,,,,,,,,,,,,,,,,,,,,,,,,,,,,,,,,,,,,,,,001,171,2020_Feb_25_1529,spring_faces,3.1.5,60.0005470848234,
condition files/Stage0b_1.xlsx,0b,none,beta,g,"['h', 'g']","['Chess', 'Go']","[-0.15, 0.5]","[0.15, 0.5]",0,1,0,8,8,8,0,1,1,1,,,,,,,,,,,,,,,,,,,,,,,,,,,,,,,,,,,,,,,,,,,,,,,,,,,,,,,,,,,,,,,167.8274770320022,None,167.8274770320022,None,167.8274770320022,None,g,1,0.9208010189977358,169.36439894200157,None,169.36439894200157,None,169.36439894200157,None,170.34948709200035,None,170.34948709200035,None,170.34948709200035,None,170.34948709200035,None,,,,,,,,,,,,,,,,,,,,,,,,,,,,,,,,,,,,,,,,,,,,001,171,2020_Feb_25_1529,spring_faces,3.1.5,60.0005470848234,
condition files/Stage0b_2.xlsx,0b,none,alpha,h,"['h', 'g']","['Chess', 'Go']","[-0.15, 0.5]","[0.15, 0.5]",0,1,0,9,9,9,0,0,0,0,,,,,,,,,,,,,,,,,,,,,,,,,,,,,,,,,,,,,,,,,,,,,,,,,,,,,,,,,,,,,,,172.32807279100234,None,172.32807279100234,None,172.32807279100234,None,h,1,0.728213507001783,173.8608841690002,None,173.8608841690002,None,173.8608841690002,None,174.6443160680028,None,174.6443160680028,None,174.6443160680028,None,174.6443160680028,None,,,,,,,,,,,,,,,,,,,,,,,,,,,,,,,,,,,,,,,,,,,,001,171,2020_Feb_25_1529,spring_faces,3.1.5,60.0005470848234,
condition files/Stage0b_2.xlsx,0b,beta,none,g,"['h', 'g']","['Chess', 'Go']","[-0.15, 0.5]","[0.15, 0.5]",1,0,0,9,9,9,0,1,1,1,,,,,,,,,,,,,,,,,,,,,,,,,,,,,,,,,,,,,,,,,,,,,,,,,,,,,,,,,,,,,,,176.6108800880029,None,176.6108800880029,None,176.6108800880029,None,g,1,1.0798316019972845,178.14920428000187,None,178.14920428000187,None,178.14920428000187,None,179.29668101500283,None,179.29668101500283,None,179.29668101500283,None,179.29668101500283,None,,,,,,,,,,,,,,,,,,,,,,,,,,,,,,,,,,,,,,,,,,,,001,171,2020_Feb_25_1529,spring_faces,3.1.5,60.0005470848234,
condition files/Stage0b_1.xlsx,0b,alpha,none,h,"['h', 'g']","['Chess', 'Go']","[-0.15, 0.5]","[0.15, 0.5]",1,0,0,10,10,10,0,0,0,0,,,,,,,,,,,,,,,,,,,,,,,,,,,,,,,,,,,,,,,,,,,,,,,,,,,,,,,,,,,,,,,181.27781533300004,None,181.27781533300004,None,181.27781533300004,None,h,1,0.5616144499981601,182.81152005900003,None,182.81152005900003,None,182.81152005900003,None,183.4282842419998,None,183.4282842419998,None,183.4282842419998,None,183.4282842419998,None,,,,,,,,,,,,,,,,,,,,,,,,,,,,,,,,,,,,,,,,,,,,001,171,2020_Feb_25_1529,spring_faces,3.1.5,60.0005470848234,
condition files/Stage0b_1.xlsx,0b,none,beta,g,"['h', 'g']","['Chess', 'Go']","[-0.15, 0.5]","[0.15, 0.5]",0,1,0,10,10,10,0,1,1,1,,,,,,,,,,,,,,,,,,,,,,,,,,,,,,,,,,,,,,,,,,,,,,,,,,,,,,,,,,,,,,,185.39443755800312,None,185.39443755800312,None,185.39443755800312,None,g,1,0.841382694998174,186.93177146500238,None,186.93177146500238,None,186.93177146500238,None,187.83222027800002,None,187.83222027800002,None,187.83222027800002,None,187.83222027800002,None,,,,,,,,,,,,,,,,,,,,,,,,,,,,,,,,,,,,,,,,,,,,001,171,2020_Feb_25_1529,spring_faces,3.1.5,60.0005470848234,
condition files/Stage0b_2.xlsx,0b,none,alpha,h,"['h', 'g']","['Chess', 'Go']","[-0.15, 0.5]","[0.15, 0.5]",0,1,0,11,11,11,0,0,0,0,,,,,,,,,,,,,,,,,,,,,,,,,,,,,,,,,,,,,,,,,,,,,,,,,,,,,,,,,,,,,,,189.81095082800312,None,189.81095082800312,None,189.81095082800312,None,h,1,0.6531836650028708,191.34394207100195,None,191.34394207100195,None,191.34394207100195,None,192.06110332900062,None,192.06110332900062,None,192.06110332900062,None,192.06110332900062,None,,,,,,,,,,,,,,,,,,,,,,,,,,,,,,,,,,,,,,,,,,,,001,171,2020_Feb_25_1529,spring_faces,3.1.5,60.0005470848234,
condition files/Stage0b_2.xlsx,0b,beta,none,g,"['h', 'g']","['Chess', 'Go']","[-0.15, 0.5]","[0.15, 0.5]",1,0,0,11,11,11,0,1,1,1,,,,,,,,,,,,,,,,,,,,,,,,,,,,,,,,,,,,,,,,,,,,,,,,,,,,,,,,,,,,,,,194.02782210400255,None,194.02782210400255,None,194.02782210400255,None,g,1,0.6591632220006431,195.5780136800022,None,195.5780136800022,None,195.5780136800022,None,196.29798313100036,None,196.29798313100036,None,196.29798313100036,None,196.29798313100036,None,,,,,,,,,,,,,,,,,,,,,,,,,,,,,,,,,,,,,,,,,,,,001,171,2020_Feb_25_1529,spring_faces,3.1.5,60.0005470848234,
condition files/Stage0c_1.xlsx,0c,beta,theta,g,"['h', 'g']","['Chess', 'Go']","[-0.15, 0.5]","[0.15, 0.5]",1,1,0,12,12,12,0,0,0,2,,,,,,,,,,,,,,,,,,,,,,,,,,,,,,,,,,,,,,,,,,,,,,,,,,,,,,,,,,,,,,,198.27723775900085,None,198.27723775900085,None,198.27723775900085,None,g,1,1.4825572709996777,199.8105751050025,None,199.8105751050025,None,199.8105751050025,None,201.34435517100064,None,201.34435517100064,None,201.34435517100064,None,201.34435517100064,None,,,,,,,,,,,,,,,,,,,,,,,,,,,,,,,,,,,,,,,,,,,,001,171,2020_Feb_25_1529,spring_faces,3.1.5,60.0005470848234,
condition files/Stage0c_1.xlsx,0c,theta,alpha,h,"['h', 'g']","['Chess', 'Go']","[-0.15, 0.5]","[0.15, 0.5]",1,1,0,12,12,12,0,1,1,0,,,,,,,,,,,,,,,,,,,,,,,,,,,,,,,,,,,,,,,,,,,,,,,,,,,,,,,,,,,,,,,203.3110137950025,None,203.3110137950025,None,203.3110137950025,None,h,1,0.9766463530031615,204.8444781670005,None,204.8444781670005,None,204.8444781670005,None,205.87743631100238,None,205.87743631100238,None,205.87743631100238,None,205.87743631100238,None,,,,,,,,,,,,,,,,,,,,,,,,,,,,,,,,,,,,,,,,,,,,001,171,2020_Feb_25_1529,spring_faces,3.1.5,60.0005470848234,
condition files/Stage0c_1.xlsx,0c,phi,beta,g,"['h', 'g']","['Chess', 'Go']","[-0.15, 0.5]","[0.15, 0.5]",1,1,0,12,12,12,0,2,2,3,,,,,,,,,,,,,,,,,,,,,,,,,,,,,,,,,,,,,,,,,,,,,,,,,,,,,,,,,,,,,,,207.84472971900323,None,207.84472971900323,None,207.84472971900323,None,g,1,0.8757261669998115,209.37747691700133,None,209.37747691700133,None,209.37747691700133,None,210.3110004250011,None,210.3110004250011,None,210.3110004250011,None,210.3110004250011,None,,,,,,,,,,,,,,,,,,,,,,,,,,,,,,,,,,,,,,,,,,,,001,171,2020_Feb_25_1529,spring_faces,3.1.5,60.0005470848234,
condition files/Stage0c_1.xlsx,0c,alpha,phi,h,"['h', 'g']","['Chess', 'Go']","[-0.15, 0.5]","[0.15, 0.5]",1,1,0,12,12,12,0,3,3,1,,,,,,,,,,,,,,,,,,,,,,,,,,,,,,,,,,,,,,,,,,,,,,,,,,,,,,,,,,,,,,,212.27715007200095,None,212.27715007200095,None,212.27715007200095,None,h,1,0.8743929629999911,213.81077786400056,None,213.81077786400056,None,213.81077786400056,None,214.7444389850025,None,214.7444389850025,None,214.7444389850025,None,214.7444389850025,None,,,,,,,,,,,,,,,,,,,,,,,,,,,,,,,,,,,,,,,,,,,,001,171,2020_Feb_25_1529,spring_faces,3.1.5,60.0005470848234,
condition files/Stage0c_2.xlsx,0c,beta,phi,g,"['h', 'g']","['Chess', 'Go']","[-0.15, 0.5]","[0.15, 0.5]",1,1,0,13,13,13,0,0,0,3,,,,,,,,,,,,,,,,,,,,,,,,,,,,,,,,,,,,,,,,,,,,,,,,,,,,,,,,,,,,,,,216.72787170100128,None,216.72787170100128,None,216.72787170100128,None,g,1,0.7283457210032793,218.26077211800293,None,218.26077211800293,None,218.26077211800293,None,219.0446091010017,None,219.0446091010017,None,219.0446091010017,None,219.0446091010017,None,,,,,,,,,,,,,,,,,,,,,,,,,,,,,,,,,,,,,,,,,,,,001,171,2020_Feb_25_1529,spring_faces,3.1.5,60.0005470848234,
condition files/Stage0c_2.xlsx,0c,phi,alpha,h,"['h', 'g']","['Chess', 'Go']","[-0.15, 0.5]","[0.15, 0.5]",1,1,0,13,13,13,0,1,1,1,,,,,,,,,,,,,,,,,,,,,,,,,,,,,,,,,,,,,,,,,,,,,,,,,,,,,,,,,,,,,,,221.01102759500282,None,221.01102759500282,None,221.01102759500282,None,h,1,0.4605154960008804,222.54467552000278,None,222.54467552000278,None,222.54467552000278,None,223.06080658800056,None,223.06080658800056,None,223.06080658800056,None,223.06080658800056,None,,,,,,,,,,,,,,,,,,,,,,,,,,,,,,,,,,,,,,,,,,,,001,171,2020_Feb_25_1529,spring_faces,3.1.5,60.0005470848234,
condition files/Stage0c_2.xlsx,0c,theta,beta,g,"['h', 'g']","['Chess', 'Go']","[-0.15, 0.5]","[0.15, 0.5]",1,1,0,13,13,13,0,2,2,2,,,,,,,,,,,,,,,,,,,,,,,,,,,,,,,,,,,,,,,,,,,,,,,,,,,,,,,,,,,,,,,225.0272401120019,None,225.0272401120019,None,225.0272401120019,None,g,1,0.8438548260019161,226.56132544100183,None,226.56132544100183,None,226.56132544100183,None,227.46104374400238,None,227.46104374400238,None,227.46104374400238,None,227.46104374400238,None,,,,,,,,,,,,,,,,,,,,,,,,,,,,,,,,,,,,,,,,,,,,001,171,2020_Feb_25_1529,spring_faces,3.1.5,60.0005470848234,
condition files/Stage0c_2.xlsx,0c,alpha,theta,h,"['h', 'g']","['Chess', 'Go']","[-0.15, 0.5]","[0.15, 0.5]",1,1,0,13,13,13,0,3,3,0,,,,,,,,,,,,,,,,,,,,,,,,,,,,,,,,,,,,,,,,,,,,,,,,,,,,,,,,,,,,,,,229.42688445100066,None,229.42688445100066,None,229.42688445100066,None,h,1,0.8918943379976554,230.96128250400216,None,230.96128250400216,None,230.96128250400216,None,231.9113182350011,None,231.9113182350011,None,231.9113182350011,None,231.9113182350011,None,,,,,,,,,,,,,,,,,,,,,,,,,,,,,,,,,,,,,,,,,,,,001,171,2020_Feb_25_1529,spring_faces,3.1.5,60.0005470848234,
condition files/Stage0c_1.xlsx,0c,alpha,phi,h,"['h', 'g']","['Chess', 'Go']","[-0.15, 0.5]","[0.15, 0.5]",1,1,0,14,14,14,0,0,0,1,,,,,,,,,,,,,,,,,,,,,,,,,,,,,,,,,,,,,,,,,,,,,,,,,,,,,,,,,,,,,,,233.8944692710029,None,233.8944692710029,None,233.8944692710029,None,h,1,1.7369944439997198,235.42814339600227,None,235.42814339600227,None,235.42814339600227,None,237.21249234100105,None,237.21249234100105,None,237.21249234100105,None,237.21249234100105,None,,,,,,,,,,,,,,,,,,,,,,,,,,,,,,,,,,,,,,,,,,,,001,171,2020_Feb_25_1529,spring_faces,3.1.5,60.0005470848234,
condition files/Stage0c_1.xlsx,0c,theta,alpha,h,"['h', 'g']","['Chess', 'Go']","[-0.15, 0.5]","[0.15, 0.5]",1,1,0,14,14,14,0,1,1,0,,,,,,,,,,,,,,,,,,,,,,,,,,,,,,,,,,,,,,,,,,,,,,,,,,,,,,,,,,,,,,,239.1944616030014,None,239.1944616030014,None,239.1944616030014,None,h,1,0.9967779219987278,240.72834558199975,None,240.72834558199975,None,240.72834558199975,None,241.7624527959997,None,241.7624527959997,None,241.7624527959997,None,241.7624527959997,None,,,,,,,,,,,,,,,,,,,,,,,,,,,,,,,,,,,,,,,,,,,,001,171,2020_Feb_25_1529,spring_faces,3.1.5,60.0005470848234,
condition files/Stage0c_1.xlsx,0c,beta,theta,g,"['h', 'g']","['Chess', 'Go']","[-0.15, 0.5]","[0.15, 0.5]",1,1,0,14,14,14,0,2,2,2,,,,,,,,,,,,,,,,,,,,,,,,,,,,,,,,,,,,,,,,,,,,,,,,,,,,,,,,,,,,,,,243.74438532600107,None,243.74438532600107,None,243.74438532600107,None,h,0,0.6551861789994291,245.27794330100005,None,245.27794330100005,None,245.27794330100005,None,245.99463497000033,None,245.99463497000033,None,245.99463497000033,None,245.99463497000033,None,,,,,,,,,,,,,,,,,,,,,,,,,,,,,,,,,,,,,,,,,,,,001,171,2020_Feb_25_1529,spring_faces,3.1.5,60.0005470848234,
condition files/Stage0c_1.xlsx,0c,phi,beta,g,"['h', 'g']","['Chess', 'Go']","[-0.15, 0.5]","[0.15, 0.5]",1,1,0,14,14,14,0,3,3,3,,,,,,,,,,,,,,,,,,,,,,,,,,,,,,,,,,,,,,,,,,,,,,,,,,,,,,,,,,,,,,,247.96105158000137,None,247.96105158000137,None,247.96105158000137,None,g,1,1.4626949910016265,249.49438570100028,None,249.49438570100028,None,249.49438570100028,None,251.01140231200043,None,251.01140231200043,None,251.01140231200043,None,251.01140231200043,None,,,,,,,,,,,,,,,,,,,,,,,,,,,,,,,,,,,,,,,,,,,,001,171,2020_Feb_25_1529,spring_faces,3.1.5,60.0005470848234,
condition files/Stage0c_2.xlsx,0c,alpha,theta,h,"['h', 'g']","['Chess', 'Go']","[-0.15, 0.5]","[0.15, 0.5]",1,1,0,15,15,15,0,0,0,0,,,,,,,,,,,,,,,,,,,,,,,,,,,,,,,,,,,,,,,,,,,,,,,,,,,,,,,,,,,,,,,252.99462910500006,None,252.99462910500006,None,252.99462910500006,None,h,1,1.005865970000741,254.52726946199982,None,254.52726946199982,None,254.52726946199982,None,255.59455513600187,None,255.59455513600187,None,255.59455513600187,None,255.59455513600187,None,,,,,,,,,,,,,,,,,,,,,,,,,,,,,,,,,,,,,,,,,,,,001,171,2020_Feb_25_1529,spring_faces,3.1.5,60.0005470848234,
condition files/Stage0c_2.xlsx,0c,beta,phi,g,"['h', 'g']","['Chess', 'Go']","[-0.15, 0.5]","[0.15, 0.5]",1,1,0,15,15,15,0,1,1,3,,,,,,,,,,,,,,,,,,,,,,,,,,,,,,,,,,,,,,,,,,,,,,,,,,,,,,,,,,,,,,,257.5610334530029,None,257.5610334530029,None,257.5610334530029,None,g,1,1.590427697999985,259.0947367370027,None,259.0947367370027,None,259.0947367370027,None,260.74419245399986,None,260.74419245399986,None,260.74419245399986,None,260.74419245399986,None,,,,,,,,,,,,,,,,,,,,,,,,,,,,,,,,,,,,,,,,,,,,001,171,2020_Feb_25_1529,spring_faces,3.1.5,60.0005470848234,
condition files/Stage0c_2.xlsx,0c,phi,alpha,h,"['h', 'g']","['Chess', 'Go']","[-0.15, 0.5]","[0.15, 0.5]",1,1,0,15,15,15,0,2,2,1,,,,,,,,,,,,,,,,,,,,,,,,,,,,,,,,,,,,,,,,,,,,,,,,,,,,,,,,,,,,,,,262.7108169790008,None,262.7108169790008,None,262.7108169790008,None,h,1,1.9762957510029082,264.2448223320025,None,264.2448223320025,None,264.2448223320025,None,266.27803936500277,None,266.27803936500277,None,266.27803936500277,None,266.27803936500277,None,,,,,,,,,,,,,,,,,,,,,,,,,,,,,,,,,,,,,,,,,,,,001,171,2020_Feb_25_1529,spring_faces,3.1.5,60.0005470848234,
condition files/Stage0c_2.xlsx,0c,theta,beta,g,"['h', 'g']","['Chess', 'Go']","[-0.15, 0.5]","[0.15, 0.5]",1,1,0,15,15,15,0,3,3,2,,,,,,,,,,,,,,,,,,,,,,,,,,,,,,,,,,,,,,,,,,,,,,,,,,,,,,,,,,,,,,,268.2440725810011,None,268.2440725810011,None,268.2440725810011,None,g,1,0.7957373379977071,269.77734473700184,None,269.77734473700184,None,269.77734473700184,None,270.62724292799976,None,270.62724292799976,None,270.62724292799976,None,270.62724292799976,None,,,,,,,,,,,,,,,,,,,,,,,,,,,,,,,,,,,,,,,,,,,,001,171,2020_Feb_25_1529,spring_faces,3.1.5,60.0005470848234,
condition files/Stage0c_1.xlsx,0c,phi,beta,g,"['h', 'g']","['Chess', 'Go']","[-0.15, 0.5]","[0.15, 0.5]",1,1,0,16,16,16,0,0,0,3,,,,,,,,,,,,,,,,,,,,,,,,,,,,,,,,,,,,,,,,,,,,,,,,,,,,,,,,,,,,,,,272.61101877500187,None,272.61101877500187,None,272.61101877500187,None,g,1,0.6847796590009239,274.14432907300215,None,274.14432907300215,None,274.14432907300215,None,274.87996073100294,None,274.87996073100294,None,274.87996073100294,None,274.87996073100294,None,,,,,,,,,,,,,,,,,,,,,,,,,,,,,,,,,,,,,,,,,,,,001,171,2020_Feb_25_1529,spring_faces,3.1.5,60.0005470848234,
condition files/Stage0c_1.xlsx,0c,beta,theta,g,"['h', 'g']","['Chess', 'Go']","[-0.15, 0.5]","[0.15, 0.5]",1,1,0,16,16,16,0,1,1,2,,,,,,,,,,,,,,,,,,,,,,,,,,,,,,,,,,,,,,,,,,,,,,,,,,,,,,,,,,,,,,,276.86106592800206,None,276.86106592800206,None,276.86106592800206,None,g,1,0.8504725790007797,278.39462940200247,None,278.39462940200247,None,278.39462940200247,None,279.2939061060024,None,279.2939061060024,None,279.2939061060024,None,279.2939061060024,None,,,,,,,,,,,,,,,,,,,,,,,,,,,,,,,,,,,,,,,,,,,,001,171,2020_Feb_25_1529,spring_faces,3.1.5,60.0005470848234,
condition files/Stage0c_1.xlsx,0c,alpha,phi,h,"['h', 'g']","['Chess', 'Go']","[-0.15, 0.5]","[0.15, 0.5]",1,1,0,16,16,16,0,2,2,1,,,,,,,,,,,,,,,,,,,,,,,,,,,,,,,,,,,,,,,,,,,,,,,,,,,,,,,,,,,,,,,281.2780443410011,None,281.2780443410011,None,281.2780443410011,None,h,1,0.6897174820005603,282.8114104970009,None,282.8114104970009,None,282.8114104970009,None,283.5604891570001,None,283.5604891570001,None,283.5604891570001,None,283.5604891570001,None,,,,,,,,,,,,,,,,,,,,,,,,,,,,,,,,,,,,,,,,,,,,001,171,2020_Feb_25_1529,spring_faces,3.1.5,60.0005470848234,
condition files/Stage0c_1.xlsx,0c,theta,alpha,h,"['h', 'g']","['Chess', 'Go']","[-0.15, 0.5]","[0.15, 0.5]",1,1,0,16,16,16,0,3,3,0,,,,,,,,,,,,,,,,,,,,,,,,,,,,,,,,,,,,,,,,,,,,,,,,,,,,,,,,,,,,,,,285.5277622240028,None,285.5277622240028,None,285.5277622240028,None,h,1,1.3035101929999655,287.0616285160031,None,287.0616285160031,None,287.0616285160031,None,288.41322746100195,None,288.41322746100195,None,288.41322746100195,None,288.41322746100195,None,,,,,,,,,,,,,,,,,,,,,,,,,,,,,,,,,,,,,,,,,,,,001,171,2020_Feb_25_1529,spring_faces,3.1.5,60.0005470848234,
condition files/Stage0c_2.xlsx,0c,alpha,theta,h,"['h', 'g']","['Chess', 'Go']","[-0.15, 0.5]","[0.15, 0.5]",1,1,0,17,17,17,0,0,0,0,,,,,,,,,,,,,,,,,,,,,,,,,,,,,,,,,,,,,,,,,,,,,,,,,,,,,,,,,,,,,,,290.4110020700027,None,290.4110020700027,None,290.4110020700027,None,h,1,0.5802141719977953,291.944915125001,None,291.944915125001,None,291.944915125001,None,292.5630247959998,None,292.5630247959998,None,292.5630247959998,None,292.5630247959998,None,,,,,,,,,,,,,,,,,,,,,,,,,,,,,,,,,,,,,,,,,,,,001,171,2020_Feb_25_1529,spring_faces,3.1.5,60.0005470848234,
condition files/Stage0c_2.xlsx,0c,beta,phi,g,"['h', 'g']","['Chess', 'Go']","[-0.15, 0.5]","[0.15, 0.5]",1,1,0,17,17,17,0,1,1,3,,,,,,,,,,,,,,,,,,,,,,,,,,,,,,,,,,,,,,,,,,,,,,,,,,,,,,,,,,,,,,,294.5444224849998,None,294.5444224849998,None,294.5444224849998,None,g,1,1.3911759620023076,296.078009912002,None,296.078009912002,None,296.078009912002,None,297.5283117850013,None,297.5283117850013,None,297.5283117850013,None,297.5283117850013,None,,,,,,,,,,,,,,,,,,,,,,,,,,,,,,,,,,,,,,,,,,,,001,171,2020_Feb_25_1529,spring_faces,3.1.5,60.0005470848234,
condition files/Stage0c_2.xlsx,0c,phi,alpha,h,"['h', 'g']","['Chess', 'Go']","[-0.15, 0.5]","[0.15, 0.5]",1,1,0,17,17,17,0,2,2,1,,,,,,,,,,,,,,,,,,,,,,,,,,,,,,,,,,,,,,,,,,,,,,,,,,,,,,,,,,,,,,,299.49376112699974,None,299.49376112699974,None,299.49376112699974,None,h,1,0.6333023749975837,301.02781702799984,None,301.02781702799984,None,301.02781702799984,None,301.71165107600245,None,301.71165107600245,None,301.71165107600245,None,301.71165107600245,None,,,,,,,,,,,,,,,,,,,,,,,,,,,,,,,,,,,,,,,,,,,,001,171,2020_Feb_25_1529,spring_faces,3.1.5,60.0005470848234,
condition files/Stage0c_2.xlsx,0c,theta,beta,g,"['h', 'g']","['Chess', 'Go']","[-0.15, 0.5]","[0.15, 0.5]",1,1,0,17,17,17,0,3,3,2,,,,,,,,,,,,,,,,,,,,,,,,,,,,,,,,,,,,,,,,,,,,,,,,,,,,,,,,,,,,,,,303.6777791000022,None,303.6777791000022,None,303.6777791000022,None,g,1,1.1218540070003655,305.2112735570008,None,305.2112735570008,None,305.2112735570008,None,306.39436422700237,None,306.39436422700237,None,306.39436422700237,None,306.39436422700237,None,,,,,,,,,,,,,,,,,,,,,,,,,,,,,,,,,,,,,,,,,,,,001,171,2020_Feb_25_1529,spring_faces,3.1.5,60.0005470848234,
,,,,,,,,,,,,,,,,,,,,,,,,,,,,,,,,,,,,,,,,,,,,,,,,,,,,,,,,,,,,,,,,,,,,,,,,,,,,,,,,,,,,,,,,,,,,,,,,,,,,,,,,308.3779476350028,None,space,1.5952856080002675,313.3778081260025,None,,,,,,,,,,,,,,,,,,,,,,,,,,,,,,,,,,,,,,001,171,2020_Feb_25_1529,spring_faces,3.1.5,60.0005470848234,
condition files/Stage1_1.xlsx,,B3,T3,c,"['c', 'm']","['Clue', 'Monopoly']","[-0.15, 0.5]","[0.15, 0.5]",1,1,,,,,,,,,0,0,0,0,0,0,0,4,,,,,,,,,,,,,,,,,,,,,,,,,,,,,,,,,,,,,,,,,,,,,,,,,,,,,,,315.02736901200115,None,315.02736901200115,None,315.02736901200115,None,c,1,0.9407036250013334,316.5445018540013,None,316.5445018540013,None,316.5445018540013,None,317.5612059430023,None,317.5612059430023,None,317.5612059430023,None,317.5612059430023,None,,,,,,,313.3778081260025,None,,,,,,,,,,,,,,,,,,,,,,,,,,,,,,,,,,,,001,171,2020_Feb_25_1529,spring_faces,3.1.5,60.0005470848234,
condition files/Stage1_1.xlsx,,B4,T4,m,"['c', 'm']","['Clue', 'Monopoly']","[-0.15, 0.5]","[0.15, 0.5]",1,1,,,,,,,,,0,0,0,0,0,1,1,7,,,,,,,,,,,,,,,,,,,,,,,,,,,,,,,,,,,,,,,,,,,,,,,,,,,,,,,319.5110695680014,None,319.5110695680014,None,319.5110695680014,None,m,1,1.0483034149983723,321.0448319800016,None,321.0448319800016,None,321.0448319800016,None,322.16120577400216,None,322.16120577400216,None,322.16120577400216,None,322.16120577400216,None,,,,,,,,,,,,,,,,,,,,,,,,,,,,,,,,,,,,,,,,,,,,001,171,2020_Feb_25_1529,spring_faces,3.1.5,60.0005470848234,
condition files/Stage1_1.xlsx,,B1,T2,c,"['c', 'm']","['Clue', 'Monopoly']","[-0.15, 0.5]","[0.15, 0.5]",1,1,,,,,,,,,0,0,0,0,0,2,2,1,,,,,,,,,,,,,,,,,,,,,,,,,,,,,,,,,,,,,,,,,,,,,,,,,,,,,,,324.11117930300315,None,324.11117930300315,None,324.11117930300315,None,c,1,1.1208004350010015,325.6443457109999,None,325.6443457109999,None,325.6443457109999,None,326.8284588080023,None,326.8284588080023,None,326.8284588080023,None,326.8284588080023,None,,,,,,,,,,,,,,,,,,,,,,,,,,,,,,,,,,,,,,,,,,,,001,171,2020_Feb_25_1529,spring_faces,3.1.5,60.0005470848234,
condition files/Stage1_1.xlsx,,T4,B3,m,"['c', 'm']","['Clue', 'Monopoly']","[-0.15, 0.5]","[0.15, 0.5]",1,1,,,,,,,,,0,0,0,0,0,3,3,6,,,,,,,,,,,,,,,,,,,,,,,,,,,,,,,,,,,,,,,,,,,,,,,,,,,,,,,328.794190255001,None,328.794190255001,None,328.794190255001,None,m,1,0.45075941200047964,330.33038159100033,None,330.33038159100033,None,330.33038159100033,None,330.84525113100244,None,330.84525113100244,None,330.84525113100244,None,330.84525113100244,None,,,,,,,,,,,,,,,,,,,,,,,,,,,,,,,,,,,,,,,,,,,,001,171,2020_Feb_25_1529,spring_faces,3.1.5,60.0005470848234,
condition files/Stage1_1.xlsx,,T1,B1,c,"['c', 'm']","['Clue', 'Monopoly']","[-0.15, 0.5]","[0.15, 0.5]",1,1,,,,,,,,,0,0,0,0,0,4,4,0,,,,,,,,,,,,,,,,,,,,,,,,,,,,,,,,,,,,,,,,,,,,,,,,,,,,,,,332.8105403059999,None,332.8105403059999,None,332.8105403059999,None,c,1,1.141027154000767,334.34417826900244,None,334.34417826900244,None,334.34417826900244,None,335.5604833079997,None,335.5604833079997,None,335.5604833079997,None,335.5604833079997,None,,,,,,,,,,,,,,,,,,,,,,,,,,,,,,,,,,,,,,,,,,,,001,171,2020_Feb_25_1529,spring_faces,3.1.5,60.0005470848234,
condition files/Stage1_1.xlsx,,T2,B2,m,"['c', 'm']","['Clue', 'Monopoly']","[-0.15, 0.5]","[0.15, 0.5]",1,1,,,,,,,,,0,0,0,0,0,5,5,3,,,,,,,,,,,,,,,,,,,,,,,,,,,,,,,,,,,,,,,,,,,,,,,,,,,,,,,337.5103995460013,None,337.5103995460013,None,337.5103995460013,None,m,1,1.1437568760011345,339.04531644200324,None,339.04531644200324,None,339.04531644200324,None,340.2447183280019,None,340.2447183280019,None,340.2447183280019,None,340.2447183280019,None,,,,,,,,,,,,,,,,,,,,,,,,,,,,,,,,,,,,,,,,,,,,001,171,2020_Feb_25_1529,spring_faces,3.1.5,60.0005470848234,
condition files/Stage1_1.xlsx,,T3,B4,c,"['c', 'm']","['Clue', 'Monopoly']","[-0.15, 0.5]","[0.15, 0.5]",1,1,,,,,,,,,0,0,0,0,0,6,6,5,,,,,,,,,,,,,,,,,,,,,,,,,,,,,,,,,,,,,,,,,,,,,,,,,,,,,,,342.2105401000008,None,342.2105401000008,None,342.2105401000008,None,c,1,0.9887072029996489,343.7444438970015,None,343.7444438970015,None,343.7444438970015,None,344.7948512960029,None,344.7948512960029,None,344.7948512960029,None,344.7948512960029,None,,,,,,,,,,,,,,,,,,,,,,,,,,,,,,,,,,,,,,,,,,,,001,171,2020_Feb_25_1529,spring_faces,3.1.5,60.0005470848234,
condition files/Stage1_1.xlsx,,B2,T1,m,"['c', 'm']","['Clue', 'Monopoly']","[-0.15, 0.5]","[0.15, 0.5]",1,1,,,,,,,,,0,0,0,0,0,7,7,2,,,,,,,,,,,,,,,,,,,,,,,,,,,,,,,,,,,,,,,,,,,,,,,,,,,,,,,346.76104901000144,None,346.76104901000144,None,346.76104901000144,None,c,0,1.4145340120012406,348.29460065100284,None,348.29460065100284,None,348.29460065100284,None,349.7781373610014,None,349.7781373610014,None,349.7781373610014,None,349.7781373610014,None,,,,,,,,,,,,,,,,,,,,,,,,,,,,,,,,,,,,,,,,,,,,001,171,2020_Feb_25_1529,spring_faces,3.1.5,60.0005470848234,
condition files/Stage1_2.xlsx,,T2,B1,c,"['c', 'm']","['Clue', 'Monopoly']","[-0.15, 0.5]","[0.15, 0.5]",1,1,,,,,,,,,0,1,1,1,0,0,0,1,,,,,,,,,,,,,,,,,,,,,,,,,,,,,,,,,,,,,,,,,,,,,,,,,,,,,,,351.7444646190015,None,351.7444646190015,None,351.7444646190015,None,c,1,1.2629701879995991,353.2941601050006,None,353.2941601050006,None,353.2941601050006,None,354.6279199160017,None,354.6279199160017,None,354.6279199160017,None,354.6279199160017,None,,,,,,,,,,,,,,,,,,,,,,,,,,,,,,,,,,,,,,,,,,,,001,171,2020_Feb_25_1529,spring_faces,3.1.5,60.0005470848234,
condition files/Stage1_2.xlsx,,B1,T1,c,"['c', 'm']","['Clue', 'Monopoly']","[-0.15, 0.5]","[0.15, 0.5]",1,1,,,,,,,,,0,1,1,1,0,1,1,0,,,,,,,,,,,,,,,,,,,,,,,,,,,,,,,,,,,,,,,,,,,,,,,,,,,,,,,356.57774100000097,None,356.57774100000097,None,356.57774100000097,None,c,1,0.8450832329981495,358.11205842300114,None,358.11205842300114,None,358.11205842300114,None,359.0112957260026,None,359.0112957260026,None,359.0112957260026,None,359.0112957260026,None,,,,,,,,,,,,,,,,,,,,,,,,,,,,,,,,,,,,,,,,,,,,001,171,2020_Feb_25_1529,spring_faces,3.1.5,60.0005470848234,
condition files/Stage1_2.xlsx,,T1,B2,m,"['c', 'm']","['Clue', 'Monopoly']","[-0.15, 0.5]","[0.15, 0.5]",1,1,,,,,,,,,0,1,1,1,0,2,2,2,,,,,,,,,,,,,,,,,,,,,,,,,,,,,,,,,,,,,,,,,,,,,,,,,,,,,,,360.97756546000164,None,360.97756546000164,None,360.97756546000164,None,m,1,1.1484127039984742,362.5126614630026,None,362.5126614630026,None,362.5126614630026,None,363.7303731460015,None,363.7303731460015,None,363.7303731460015,None,363.7303731460015,None,,,,,,,,,,,,,,,,,,,,,,,,,,,,,,,,,,,,,,,,,,,,001,171,2020_Feb_25_1529,spring_faces,3.1.5,60.0005470848234,
condition files/Stage1_2.xlsx,,B2,T2,m,"['c', 'm']","['Clue', 'Monopoly']","[-0.15, 0.5]","[0.15, 0.5]",1,1,,,,,,,,,0,1,1,1,0,3,3,3,,,,,,,,,,,,,,,,,,,,,,,,,,,,,,,,,,,,,,,,,,,,,,,,,,,,,,,365.6939132059997,None,365.6939132059997,None,365.6939132059997,None,m,1,0.9434305930008122,367.2297107780032,None,367.2297107780032,None,367.2297107780032,None,368.2279107100003,None,368.2279107100003,None,368.2279107100003,None,368.2279107100003,None,,,,,,,,,,,,,,,,,,,,,,,,,,,,,,,,,,,,,,,,,,,,001,171,2020_Feb_25_1529,spring_faces,3.1.5,60.0005470848234,
condition files/Stage1_2.xlsx,,B4,T3,c,"['c', 'm']","['Clue', 'Monopoly']","[-0.15, 0.5]","[0.15, 0.5]",1,1,,,,,,,,,0,1,1,1,0,4,4,5,,,,,,,,,,,,,,,,,,,,,,,,,,,,,,,,,,,,,,,,,,,,,,,,,,,,,,,370.1944109080032,None,370.1944109080032,None,370.1944109080032,None,c,1,1.4200742280008853,371.72907411900087,None,371.72907411900087,None,371.72907411900087,None,373.2138384150021,None,373.2138384150021,None,373.2138384150021,None,373.2138384150021,None,,,,,,,,,,,,,,,,,,,,,,,,,,,,,,,,,,,,,,,,,,,,001,171,2020_Feb_25_1529,spring_faces,3.1.5,60.0005470848234,
condition files/Stage1_2.xlsx,,T3,B3,c,"['c', 'm']","['Clue', 'Monopoly']","[-0.15, 0.5]","[0.15, 0.5]",1,1,,,,,,,,,0,1,1,1,0,5,5,4,,,,,,,,,,,,,,,,,,,,,,,,,,,,,,,,,,,,,,,,,,,,,,,,,,,,,,,375.1777555710032,None,375.1777555710032,None,375.1777555710032,None,c,1,1.846444350998354,376.7106689030006,None,376.7106689030006,None,376.7106689030006,None,378.61084755000047,None,378.61084755000047,None,378.61084755000047,None,378.61084755000047,None,,,,,,,,,,,,,,,,,,,,,,,,,,,,,,,,,,,,,,,,,,,,001,171,2020_Feb_25_1529,spring_faces,3.1.5,60.0005470848234,
condition files/Stage1_2.xlsx,,T4,B4,m,"['c', 'm']","['Clue', 'Monopoly']","[-0.15, 0.5]","[0.15, 0.5]",1,1,,,,,,,,,0,1,1,1,0,6,6,7,,,,,,,,,,,,,,,,,,,,,,,,,,,,,,,,,,,,,,,,,,,,,,,,,,,,,,,380.57721055,None,380.57721055,None,380.57721055,None,m,1,0.9098669400009385,382.1273027930001,None,382.1273027930001,None,382.1273027930001,None,383.0943454380031,None,383.0943454380031,None,383.0943454380031,None,383.0943454380031,None,,,,,,,,,,,,,,,,,,,,,,,,,,,,,,,,,,,,,,,,,,,,001,171,2020_Feb_25_1529,spring_faces,3.1.5,60.0005470848234,
condition files/Stage1_2.xlsx,,B3,T4,m,"['c', 'm']","['Clue', 'Monopoly']","[-0.15, 0.5]","[0.15, 0.5]",1,1,,,,,,,,,0,1,1,1,0,7,7,6,,,,,,,,,,,,,,,,,,,,,,,,,,,,,,,,,,,,,,,,,,,,,,,,,,,,,,,385.06110566200005,None,385.06110566200005,None,385.06110566200005,None,m,1,0.7944581739975547,386.5946173770026,None,386.5946173770026,None,386.5946173770026,None,387.44486819600206,None,387.44486819600206,None,387.44486819600206,None,387.44486819600206,None,,,,,,,,,,,,,,,,,,,,,,,,,,,,,,,,,,,,,,,,,,,,001,171,2020_Feb_25_1529,spring_faces,3.1.5,60.0005470848234,
condition files/Stage1_1.xlsx,,T1,B1,c,"['c', 'm']","['Clue', 'Monopoly']","[-0.15, 0.5]","[0.15, 0.5]",1,1,,,,,,,,,0,2,2,2,0,0,0,0,,,,,,,,,,,,,,,,,,,,,,,,,,,,,,,,,,,,,,,,,,,,,,,,,,,,,,,389.4272998460001,None,389.4272998460001,None,389.4272998460001,None,c,1,0.8116924420028226,390.9614660520019,None,390.9614660520019,None,390.9614660520019,None,391.8445370070003,None,391.8445370070003,None,391.8445370070003,None,391.8445370070003,None,,,,,,,,,,,,,,,,,,,,,,,,,,,,,,,,,,,,,,,,,,,,001,171,2020_Feb_25_1529,spring_faces,3.1.5,60.0005470848234,
condition files/Stage1_1.xlsx,,T2,B2,m,"['c', 'm']","['Clue', 'Monopoly']","[-0.15, 0.5]","[0.15, 0.5]",1,1,,,,,,,,,0,2,2,2,0,1,1,3,,,,,,,,,,,,,,,,,,,,,,,,,,,,,,,,,,,,,,,,,,,,,,,,,,,,,,,393.7943901760009,None,393.7943901760009,None,393.7943901760009,None,m,1,1.2434593500001938,395.32962213200153,None,395.32962213200153,None,395.32962213200153,None,396.6286068980007,None,396.6286068980007,None,396.6286068980007,None,396.6286068980007,None,,,,,,,,,,,,,,,,,,,,,,,,,,,,,,,,,,,,,,,,,,,,001,171,2020_Feb_25_1529,spring_faces,3.1.5,60.0005470848234,
condition files/Stage1_1.xlsx,,B4,T4,m,"['c', 'm']","['Clue', 'Monopoly']","[-0.15, 0.5]","[0.15, 0.5]",1,1,,,,,,,,,0,2,2,2,0,2,2,7,,,,,,,,,,,,,,,,,,,,,,,,,,,,,,,,,,,,,,,,,,,,,,,,,,,,,,,398.5944912340019,None,398.5944912340019,None,398.5944912340019,None,m,1,0.8924306299995806,400.128739900003,None,400.128739900003,None,400.128739900003,None,401.07749458800026,None,401.07749458800026,None,401.07749458800026,None,401.07749458800026,None,,,,,,,,,,,,,,,,,,,,,,,,,,,,,,,,,,,,,,,,,,,,001,171,2020_Feb_25_1529,spring_faces,3.1.5,60.0005470848234,
condition files/Stage1_1.xlsx,,B1,T2,c,"['c', 'm']","['Clue', 'Monopoly']","[-0.15, 0.5]","[0.15, 0.5]",1,1,,,,,,,,,0,2,2,2,0,3,3,1,,,,,,,,,,,,,,,,,,,,,,,,,,,,,,,,,,,,,,,,,,,,,,,,,,,,,,,403.0443714630019,None,403.0443714630019,None,403.0443714630019,None,c,1,0.6513767569995252,404.57776698900125,None,404.57776698900125,None,404.57776698900125,None,405.31130681700233,None,405.31130681700233,None,405.31130681700233,None,405.31130681700233,None,,,,,,,,,,,,,,,,,,,,,,,,,,,,,,,,,,,,,,,,,,,,001,171,2020_Feb_25_1529,spring_faces,3.1.5,60.0005470848234,
condition files/Stage1_1.xlsx,,B2,T1,m,"['c', 'm']","['Clue', 'Monopoly']","[-0.15, 0.5]","[0.15, 0.5]",1,1,,,,,,,,,0,2,2,2,0,4,4,2,,,,,,,,,,,,,,,,,,,,,,,,,,,,,,,,,,,,,,,,,,,,,,,,,,,,,,,407.26052335400163,None,407.26052335400163,None,407.26052335400163,None,m,1,1.0891736269986723,408.79603428700284,None,408.79603428700284,None,408.79603428700284,None,409.9447102890008,None,409.9447102890008,None,409.9447102890008,None,409.9447102890008,None,,,,,,,,,,,,,,,,,,,,,,,,,,,,,,,,,,,,,,,,,,,,001,171,2020_Feb_25_1529,spring_faces,3.1.5,60.0005470848234,
condition files/Stage1_1.xlsx,,T3,B4,c,"['c', 'm']","['Clue', 'Monopoly']","[-0.15, 0.5]","[0.15, 0.5]",1,1,,,,,,,,,0,2,2,2,0,5,5,5,,,,,,,,,,,,,,,,,,,,,,,,,,,,,,,,,,,,,,,,,,,,,,,,,,,,,,,411.91052449900235,None,411.91052449900235,None,411.91052449900235,None,c,1,0.998903531999531,413.44619236900326,None,413.44619236900326,None,413.44619236900326,None,414.5112516440022,None,414.5112516440022,None,414.5112516440022,None,414.5112516440022,None,,,,,,,,,,,,,,,,,,,,,,,,,,,,,,,,,,,,,,,,,,,,001,171,2020_Feb_25_1529,spring_faces,3.1.5,60.0005470848234,
condition files/Stage1_1.xlsx,,B3,T3,c,"['c', 'm']","['Clue', 'Monopoly']","[-0.15, 0.5]","[0.15, 0.5]",1,1,,,,,,,,,0,2,2,2,0,6,6,4,,,,,,,,,,,,,,,,,,,,,,,,,,,,,,,,,,,,,,,,,,,,,,,,,,,,,,,416.47724308500256,None,416.47724308500256,None,416.47724308500256,None,c,1,0.7514144130000204,418.0137339490029,None,418.0137339490029,None,418.0137339490029,None,418.8279435680015,None,418.8279435680015,None,418.8279435680015,None,418.8279435680015,None,,,,,,,,,,,,,,,,,,,,,,,,,,,,,,,,,,,,,,,,,,,,001,171,2020_Feb_25_1529,spring_faces,3.1.5,60.0005470848234,
condition files/Stage1_1.xlsx,,T4,B3,m,"['c', 'm']","['Clue', 'Monopoly']","[-0.15, 0.5]","[0.15, 0.5]",1,1,,,,,,,,,0,2,2,2,0,7,7,6,,,,,,,,,,,,,,,,,,,,,,,,,,,,,,,,,,,,,,,,,,,,,,,,,,,,,,,420.79439176600135,None,420.79439176600135,None,420.79439176600135,None,m,1,0.693073334001383,422.34410974300044,None,422.34410974300044,None,422.34410974300044,None,423.0965203250016,None,423.0965203250016,None,423.0965203250016,None,423.0965203250016,None,,,,,,,,,,,,,,,,,,,,,,,,,,,,,,,,,,,,,,,,,,,,001,171,2020_Feb_25_1529,spring_faces,3.1.5,60.0005470848234,
condition files/Stage1_2.xlsx,,B2,T2,m,"['c', 'm']","['Clue', 'Monopoly']","[-0.15, 0.5]","[0.15, 0.5]",1,1,,,,,,,,,0,3,3,3,0,0,0,3,,,,,,,,,,,,,,,,,,,,,,,,,,,,,,,,,,,,,,,,,,,,,,,,,,,,,,,425.0782532580015,None,425.0782532580015,None,425.0782532580015,None,m,1,0.9051506989999325,426.6279512930014,None,426.6279512930014,None,426.6279512930014,None,427.5952900070006,None,427.5952900070006,None,427.5952900070006,None,427.5952900070006,None,,,,,,,,,,,,,,,,,,,,,,,,,,,,,,,,,,,,,,,,,,,,001,171,2020_Feb_25_1529,spring_faces,3.1.5,60.0005470848234,
condition files/Stage1_2.xlsx,,T4,B4,m,"['c', 'm']","['Clue', 'Monopoly']","[-0.15, 0.5]","[0.15, 0.5]",1,1,,,,,,,,,0,3,3,3,0,1,1,7,,,,,,,,,,,,,,,,,,,,,,,,,,,,,,,,,,,,,,,,,,,,,,,,,,,,,,,429.5611280030025,None,429.5611280030025,None,429.5611280030025,None,m,1,0.9165151179986424,431.0965673490027,None,431.0965673490027,None,431.0965673490027,None,432.0774896260009,None,432.0774896260009,None,432.0774896260009,None,432.0774896260009,None,,,,,,,,,,,,,,,,,,,,,,,,,,,,,,,,,,,,,,,,,,,,001,171,2020_Feb_25_1529,spring_faces,3.1.5,60.0005470848234,
condition files/Stage1_2.xlsx,,B3,T4,m,"['c', 'm']","['Clue', 'Monopoly']","[-0.15, 0.5]","[0.15, 0.5]",1,1,,,,,,,,,0,3,3,3,0,2,2,6,,,,,,,,,,,,,,,,,,,,,,,,,,,,,,,,,,,,,,,,,,,,,,,,,,,,,,,434.0445124650032,None,434.0445124650032,None,434.0445124650032,None,m,1,1.0906286299978092,435.59456886500266,None,435.59456886500266,None,435.59456886500266,None,436.74442632700084,None,436.74442632700084,None,436.74442632700084,None,436.74442632700084,None,,,,,,,,,,,,,,,,,,,,,,,,,,,,,,,,,,,,,,,,,,,,001,171,2020_Feb_25_1529,spring_faces,3.1.5,60.0005470848234,
condition files/Stage1_2.xlsx,,B1,T1,c,"['c', 'm']","['Clue', 'Monopoly']","[-0.15, 0.5]","[0.15, 0.5]",1,1,,,,,,,,,0,3,3,3,0,3,3,0,,,,,,,,,,,,,,,,,,,,,,,,,,,,,,,,,,,,,,,,,,,,,,,,,,,,,,,438.7103713329998,None,438.7103713329998,None,438.7103713329998,None,c,1,0.5208329619999859,440.24431943700256,None,440.24431943700256,None,440.24431943700256,None,440.82871063100174,None,440.82871063100174,None,440.82871063100174,None,440.82871063100174,None,,,,,,,,,,,,,,,,,,,,,,,,,,,,,,,,,,,,,,,,,,,,001,171,2020_Feb_25_1529,spring_faces,3.1.5,60.0005470848234,
condition files/Stage1_2.xlsx,,T2,B1,c,"['c', 'm']","['Clue', 'Monopoly']","[-0.15, 0.5]","[0.15, 0.5]",1,1,,,,,,,,,0,3,3,3,0,4,4,1,,,,,,,,,,,,,,,,,,,,,,,,,,,,,,,,,,,,,,,,,,,,,,,,,,,,,,,442.7942337580025,None,442.7942337580025,None,442.7942337580025,None,c,1,1.0616527429992857,444.3274723860013,None,444.3274723860013,None,444.3274723860013,None,445.44441174700114,None,445.44441174700114,None,445.44441174700114,None,445.44441174700114,None,,,,,,,,,,,,,,,,,,,,,,,,,,,,,,,,,,,,,,,,,,,,001,171,2020_Feb_25_1529,spring_faces,3.1.5,60.0005470848234,
condition files/Stage1_2.xlsx,,T1,B2,m,"['c', 'm']","['Clue', 'Monopoly']","[-0.15, 0.5]","[0.15, 0.5]",1,1,,,,,,,,,0,3,3,3,0,5,5,2,,,,,,,,,,,,,,,,,,,,,,,,,,,,,,,,,,,,,,,,,,,,,,,,,,,,,,,447.4104775380001,None,447.4104775380001,None,447.4104775380001,None,m,1,0.7164451759999793,448.94467672500105,None,448.94467672500105,None,448.94467672500105,None,449.7128492450029,None,449.7128492450029,None,449.7128492450029,None,449.7128492450029,None,,,,,,,,,,,,,,,,,,,,,,,,,,,,,,,,,,,,,,,,,,,,001,171,2020_Feb_25_1529,spring_faces,3.1.5,60.0005470848234,
condition files/Stage1_2.xlsx,,B4,T3,c,"['c', 'm']","['Clue', 'Monopoly']","[-0.15, 0.5]","[0.15, 0.5]",1,1,,,,,,,,,0,3,3,3,0,6,6,5,,,,,,,,,,,,,,,,,,,,,,,,,,,,,,,,,,,,,,,,,,,,,,,,,,,,,,,451.6778674720008,None,451.6778674720008,None,451.6778674720008,None,c,1,1.411016597001435,453.21012286900077,None,453.21012286900077,None,453.21012286900077,None,454.6946044690012,None,454.6946044690012,None,454.6946044690012,None,454.6946044690012,None,,,,,,,,,,,,,,,,,,,,,,,,,,,,,,,,,,,,,,,,,,,,001,171,2020_Feb_25_1529,spring_faces,3.1.5,60.0005470848234,
condition files/Stage1_2.xlsx,,T3,B3,c,"['c', 'm']","['Clue', 'Monopoly']","[-0.15, 0.5]","[0.15, 0.5]",1,1,,,,,,,,,0,3,3,3,0,7,7,4,,,,,,,,,,,,,,,,,,,,,,,,,,,,,,,,,,,,,,,,,,,,,,,,,,,,,,,456.6437776439998,None,456.6437776439998,None,456.6437776439998,None,c,1,0.7624742810003227,458.19464327600144,None,458.19464327600144,None,458.19464327600144,None,459.010961502001,None,459.010961502001,None,459.010961502001,None,459.010961502001,None,,,,,,,,,,,,,,,,,,,,,,,,,,,,,,,,,,,,,,,,,,,,001,171,2020_Feb_25_1529,spring_faces,3.1.5,60.0005470848234,
condition files/Stage1_1.xlsx,,B3,T3,c,"['c', 'm']","['Clue', 'Monopoly']","[-0.15, 0.5]","[0.15, 0.5]",1,1,,,,,,,,,0,4,4,4,0,0,0,4,,,,,,,,,,,,,,,,,,,,,,,,,,,,,,,,,,,,,,,,,,,,,,,,,,,,,,,460.9948206350018,None,460.9948206350018,None,460.9948206350018,None,c,1,0.6840423160028877,462.52906588500264,None,462.52906588500264,None,462.52906588500264,None,463.27784880400213,None,463.27784880400213,None,463.27784880400213,None,463.27784880400213,None,,,,,,,,,,,,,,,,,,,,,,,,,,,,,,,,,,,,,,,,,,,,001,171,2020_Feb_25_1529,spring_faces,3.1.5,60.0005470848234,
condition files/Stage1_1.xlsx,,B1,T2,c,"['c', 'm']","['Clue', 'Monopoly']","[-0.15, 0.5]","[0.15, 0.5]",1,1,,,,,,,,,0,4,4,4,0,1,1,1,,,,,,,,,,,,,,,,,,,,,,,,,,,,,,,,,,,,,,,,,,,,,,,,,,,,,,,465.2445670570014,None,465.2445670570014,None,465.2445670570014,None,m,0,0.6264373470003193,466.7787635170025,None,466.7787635170025,None,466.7787635170025,None,467.46134923200225,None,467.46134923200225,None,467.46134923200225,None,467.46134923200225,None,,,,,,,,,,,,,,,,,,,,,,,,,,,,,,,,,,,,,,,,,,,,001,171,2020_Feb_25_1529,spring_faces,3.1.5,60.0005470848234,
condition files/Stage1_1.xlsx,,T1,B1,c,"['c', 'm']","['Clue', 'Monopoly']","[-0.15, 0.5]","[0.15, 0.5]",1,1,,,,,,,,,0,4,4,4,0,2,2,0,,,,,,,,,,,,,,,,,,,,,,,,,,,,,,,,,,,,,,,,,,,,,,,,,,,,,,,469.426986616003,None,469.426986616003,None,469.426986616003,None,c,1,0.4425006189994747,470.9627142110003,None,470.9627142110003,None,470.9627142110003,None,471.461391183002,None,471.461391183002,None,471.461391183002,None,471.461391183002,None,,,,,,,,,,,,,,,,,,,,,,,,,,,,,,,,,,,,,,,,,,,,001,171,2020_Feb_25_1529,spring_faces,3.1.5,60.0005470848234,
condition files/Stage1_1.xlsx,,B2,T1,m,"['c', 'm']","['Clue', 'Monopoly']","[-0.15, 0.5]","[0.15, 0.5]",1,1,,,,,,,,,0,4,4,4,0,3,3,2,,,,,,,,,,,,,,,,,,,,,,,,,,,,,,,,,,,,,,,,,,,,,,,,,,,,,,,473.42779810200227,None,473.42779810200227,None,473.42779810200227,None,c,0,2.042672945997765,474.9624416180013,None,474.9624416180013,None,474.9624416180013,None,477.0633675800018,None,477.0633675800018,None,477.0633675800018,None,477.0633675800018,None,,,,,,,,,,,,,,,,,,,,,,,,,,,,,,,,,,,,,,,,,,,,001,171,2020_Feb_25_1529,spring_faces,3.1.5,60.0005470848234,
condition files/Stage1_1.xlsx,,T4,B3,m,"['c', 'm']","['Clue', 'Monopoly']","[-0.15, 0.5]","[0.15, 0.5]",1,1,,,,,,,,,0,4,4,4,0,4,4,6,,,,,,,,,,,,,,,,,,,,,,,,,,,,,,,,,,,,,,,,,,,,,,,,,,,,,,,479.02786369500245,None,479.02786369500245,None,479.02786369500245,None,m,1,0.9551841349966708,480.57796596700064,None,480.57796596700064,None,480.57796596700064,None,481.5946513400013,None,481.5946513400013,None,481.5946513400013,None,481.5946513400013,None,,,,,,,,,,,,,,,,,,,,,,,,,,,,,,,,,,,,,,,,,,,,001,171,2020_Feb_25_1529,spring_faces,3.1.5,60.0005470848234,
condition files/Stage1_1.xlsx,,T3,B4,c,"['c', 'm']","['Clue', 'Monopoly']","[-0.15, 0.5]","[0.15, 0.5]",1,1,,,,,,,,,0,4,4,4,0,5,5,5,,,,,,,,,,,,,,,,,,,,,,,,,,,,,,,,,,,,,,,,,,,,,,,,,,,,,,,483.5611555280011,None,483.5611555280011,None,483.5611555280011,None,c,1,1.0769605149980634,485.0961205720014,None,485.0961205720014,None,485.0961205720014,None,486.2278373210029,None,486.2278373210029,None,486.2278373210029,None,486.2278373210029,None,,,,,,,,,,,,,,,,,,,,,,,,,,,,,,,,,,,,,,,,,,,,001,171,2020_Feb_25_1529,spring_faces,3.1.5,60.0005470848234,
condition files/Stage1_1.xlsx,,T2,B2,m,"['c', 'm']","['Clue', 'Monopoly']","[-0.15, 0.5]","[0.15, 0.5]",1,1,,,,,,,,,0,4,4,4,0,6,6,3,,,,,,,,,,,,,,,,,,,,,,,,,,,,,,,,,,,,,,,,,,,,,,,,,,,,,,,488.1944526110019,None,488.1944526110019,None,488.1944526110019,None,c,0,1.4043801139996503,489.7287771800002,None,489.7287771800002,None,489.7287771800002,None,491.2106532910002,None,491.2106532910002,None,491.2106532910002,None,491.2106532910002,None,,,,,,,,,,,,,,,,,,,,,,,,,,,,,,,,,,,,,,,,,,,,001,171,2020_Feb_25_1529,spring_faces,3.1.5,60.0005470848234,
condition files/Stage1_1.xlsx,,B4,T4,m,"['c', 'm']","['Clue', 'Monopoly']","[-0.15, 0.5]","[0.15, 0.5]",1,1,,,,,,,,,0,4,4,4,0,7,7,7,,,,,,,,,,,,,,,,,,,,,,,,,,,,,,,,,,,,,,,,,,,,,,,,,,,,,,,493.1604963750033,None,493.1604963750033,None,493.1604963750033,None,m,1,0.9330015359992103,494.69609509400107,None,494.69609509400107,None,494.69609509400107,None,495.6946952489998,None,495.6946952489998,None,495.6946952489998,None,495.6946952489998,None,,,,,,,,,,,,,,,,,,,,,,,,,,,,,,,,,,,,,,,,,,,,001,171,2020_Feb_25_1529,spring_faces,3.1.5,60.0005470848234,
condition files/Stage1_2.xlsx,,T4,B4,m,"['c', 'm']","['Clue', 'Monopoly']","[-0.15, 0.5]","[0.15, 0.5]",1,1,,,,,,,,,0,5,5,5,0,0,0,7,,,,,,,,,,,,,,,,,,,,,,,,,,,,,,,,,,,,,,,,,,,,,,,,,,,,,,,497.67836775400065,None,497.67836775400065,None,497.67836775400065,None,m,1,1.2803271230004611,499.2128160499997,None,499.2128160499997,None,499.2128160499997,None,500.5442405870017,None,500.5442405870017,None,500.5442405870017,None,500.5442405870017,None,,,,,,,,,,,,,,,,,,,,,,,,,,,,,,,,,,,,,,,,,,,,001,171,2020_Feb_25_1529,spring_faces,3.1.5,60.0005470848234,
condition files/Stage1_2.xlsx,,T1,B2,m,"['c', 'm']","['Clue', 'Monopoly']","[-0.15, 0.5]","[0.15, 0.5]",1,1,,,,,,,,,0,5,5,5,0,1,1,2,,,,,,,,,,,,,,,,,,,,,,,,,,,,,,,,,,,,,,,,,,,,,,,,,,,,,,,502.51024467500247,None,502.51024467500247,None,502.51024467500247,None,m,1,0.9608190360013396,504.04436855899985,None,504.04436855899985,None,504.04436855899985,None,505.061308225002,None,505.061308225002,None,505.061308225002,None,505.061308225002,None,,,,,,,,,,,,,,,,,,,,,,,,,,,,,,,,,,,,,,,,,,,,001,171,2020_Feb_25_1529,spring_faces,3.1.5,60.0005470848234,
condition files/Stage1_2.xlsx,,B4,T3,c,"['c', 'm']","['Clue', 'Monopoly']","[-0.15, 0.5]","[0.15, 0.5]",1,1,,,,,,,,,0,5,5,5,0,2,2,5,,,,,,,,,,,,,,,,,,,,,,,,,,,,,,,,,,,,,,,,,,,,,,,,,,,,,,,507.0279147660003,None,507.0279147660003,None,507.0279147660003,None,c,1,0.9712001840016455,508.56196406600066,None,508.56196406600066,None,508.56196406600066,None,509.59454595400166,None,509.59454595400166,None,509.59454595400166,None,509.59454595400166,None,,,,,,,,,,,,,,,,,,,,,,,,,,,,,,,,,,,,,,,,,,,,001,171,2020_Feb_25_1529,spring_faces,3.1.5,60.0005470848234,
condition files/Stage1_2.xlsx,,T2,B1,c,"['c', 'm']","['Clue', 'Monopoly']","[-0.15, 0.5]","[0.15, 0.5]",1,1,,,,,,,,,0,5,5,5,0,3,3,1,,,,,,,,,,,,,,,,,,,,,,,,,,,,,,,,,,,,,,,,,,,,,,,,,,,,,,,511.5609186490001,None,511.5609186490001,None,511.5609186490001,None,c,1,0.8708660250013054,513.0942800340017,None,513.0942800340017,None,513.0942800340017,None,514.0273588360033,None,514.0273588360033,None,514.0273588360033,None,514.0273588360033,None,,,,,,,,,,,,,,,,,,,,,,,,,,,,,,,,,,,,,,,,,,,,001,171,2020_Feb_25_1529,spring_faces,3.1.5,60.0005470848234,
condition files/Stage1_2.xlsx,,B3,T4,m,"['c', 'm']","['Clue', 'Monopoly']","[-0.15, 0.5]","[0.15, 0.5]",1,1,,,,,,,,,0,5,5,5,0,4,4,6,,,,,,,,,,,,,,,,,,,,,,,,,,,,,,,,,,,,,,,,,,,,,,,,,,,,,,,515.9942171840012,None,515.9942171840012,None,515.9942171840012,None,m,1,0.6605546259997936,517.5285855130023,None,517.5285855130023,None,517.5285855130023,None,518.260894684001,None,518.260894684001,None,518.260894684001,None,518.260894684001,None,,,,,,,,,,,,,,,,,,,,,,,,,,,,,,,,,,,,,,,,,,,,001,171,2020_Feb_25_1529,spring_faces,3.1.5,60.0005470848234,
condition files/Stage1_2.xlsx,,B2,T2,m,"['c', 'm']","['Clue', 'Monopoly']","[-0.15, 0.5]","[0.15, 0.5]",1,1,,,,,,,,,0,5,5,5,0,5,5,3,,,,,,,,,,,,,,,,,,,,,,,,,,,,,,,,,,,,,,,,,,,,,,,,,,,,,,,520.2106436150025,None,520.2106436150025,None,520.2106436150025,None,m,1,0.5871001039995463,521.7460314030031,None,521.7460314030031,None,521.7460314030031,None,522.3943241590023,None,522.3943241590023,None,522.3943241590023,None,522.3943241590023,None,,,,,,,,,,,,,,,,,,,,,,,,,,,,,,,,,,,,,,,,,,,,001,171,2020_Feb_25_1529,spring_faces,3.1.5,60.0005470848234,
condition files/Stage1_2.xlsx,,T3,B3,c,"['c', 'm']","['Clue', 'Monopoly']","[-0.15, 0.5]","[0.15, 0.5]",1,1,,,,,,,,,0,5,5,5,0,6,6,4,,,,,,,,,,,,,,,,,,,,,,,,,,,,,,,,,,,,,,,,,,,,,,,,,,,,,,,524.3610105670014,None,524.3610105670014,None,524.3610105670014,None,c,1,0.6938753889990039,525.8952565530017,None,525.8952565530017,None,525.8952565530017,None,526.6452427360018,None,526.6452427360018,None,526.6452427360018,None,526.6452427360018,None,,,,,,,,,,,,,,,,,,,,,,,,,,,,,,,,,,,,,,,,,,,,001,171,2020_Feb_25_1529,spring_faces,3.1.5,60.0005470848234,
condition files/Stage1_2.xlsx,,B1,T1,c,"['c', 'm']","['Clue', 'Monopoly']","[-0.15, 0.5]","[0.15, 0.5]",1,1,,,,,,,,,0,5,5,5,0,7,7,0,,,,,,,,,,,,,,,,,,,,,,,,,,,,,,,,,,,,,,,,,,,,,,,,,,,,,,,528.611242207,None,528.611242207,None,528.611242207,None,c,1,0.8613674840016756,530.1438503000027,None,530.1438503000027,None,530.1438503000027,None,531.0612825200005,None,531.0612825200005,None,531.0612825200005,None,531.0612825200005,None,,,,,,,,,,,,,,,,,,,,,,,,,,,,,,,,,,,,,,,,,,,,001,171,2020_Feb_25_1529,spring_faces,3.1.5,60.0005470848234,
condition files/Stage1_1.xlsx,,T4,B3,m,"['c', 'm']","['Clue', 'Monopoly']","[-0.15, 0.5]","[0.15, 0.5]",1,1,,,,,,,,,0,6,6,6,0,0,0,6,,,,,,,,,,,,,,,,,,,,,,,,,,,,,,,,,,,,,,,,,,,,,,,,,,,,,,,533.0445821400026,None,533.0445821400026,None,533.0445821400026,None,m,1,0.6675942450019647,534.5775450200017,None,534.5775450200017,None,534.5775450200017,None,535.3109469310002,None,535.3109469310002,None,535.3109469310002,None,535.3109469310002,None,,,,,,,,,,,,,,,,,,,,,,,,,,,,,,,,,,,,,,,,,,,,001,171,2020_Feb_25_1529,spring_faces,3.1.5,60.0005470848234,
condition files/Stage1_1.xlsx,,T1,B1,c,"['c', 'm']","['Clue', 'Monopoly']","[-0.15, 0.5]","[0.15, 0.5]",1,1,,,,,,,,,0,6,6,6,0,1,1,0,,,,,,,,,,,,,,,,,,,,,,,,,,,,,,,,,,,,,,,,,,,,,,,,,,,,,,,537.2777986710025,None,537.2777986710025,None,537.2777986710025,None,c,1,0.7699431080000068,538.8111934340013,None,538.8111934340013,None,538.8111934340013,None,539.6470553350009,None,539.6470553350009,None,539.6470553350009,None,539.6470553350009,None,,,,,,,,,,,,,,,,,,,,,,,,,,,,,,,,,,,,,,,,,,,,001,171,2020_Feb_25_1529,spring_faces,3.1.5,60.0005470848234,
condition files/Stage1_1.xlsx,,T2,B2,m,"['c', 'm']","['Clue', 'Monopoly']","[-0.15, 0.5]","[0.15, 0.5]",1,1,,,,,,,,,0,6,6,6,0,2,2,3,,,,,,,,,,,,,,,,,,,,,,,,,,,,,,,,,,,,,,,,,,,,,,,,,,,,,,,541.611150435001,None,541.611150435001,None,541.611150435001,None,m,1,1.6519963249993452,543.1451480550022,None,543.1451480550022,None,543.1451480550022,None,544.8773579790031,None,544.8773579790031,None,544.8773579790031,None,544.8773579790031,None,,,,,,,,,,,,,,,,,,,,,,,,,,,,,,,,,,,,,,,,,,,,001,171,2020_Feb_25_1529,spring_faces,3.1.5,60.0005470848234,
condition files/Stage1_1.xlsx,,B2,T1,m,"['c', 'm']","['Clue', 'Monopoly']","[-0.15, 0.5]","[0.15, 0.5]",1,1,,,,,,,,,0,6,6,6,0,3,3,2,,,,,,,,,,,,,,,,,,,,,,,,,,,,,,,,,,,,,,,,,,,,,,,,,,,,,,,546.8279180740028,None,546.8279180740028,None,546.8279180740028,None,m,1,0.834848406000674,548.378228851001,None,548.378228851001,None,548.378228851001,None,549.2780161440023,None,549.2780161440023,None,549.2780161440023,None,549.2780161440023,None,,,,,,,,,,,,,,,,,,,,,,,,,,,,,,,,,,,,,,,,,,,,001,171,2020_Feb_25_1529,spring_faces,3.1.5,60.0005470848234,
condition files/Stage1_1.xlsx,,B3,T3,c,"['c', 'm']","['Clue', 'Monopoly']","[-0.15, 0.5]","[0.15, 0.5]",1,1,,,,,,,,,0,6,6,6,0,4,4,4,,,,,,,,,,,,,,,,,,,,,,,,,,,,,,,,,,,,,,,,,,,,,,,,,,,,,,,551.2443573010023,None,551.2443573010023,None,551.2443573010023,None,c,1,0.8999679189982999,552.7771631640026,None,552.7771631640026,None,552.7771631640026,None,553.7288615700018,None,553.7288615700018,None,553.7288615700018,None,553.7288615700018,None,,,,,,,,,,,,,,,,,,,,,,,,,,,,,,,,,,,,,,,,,,,,001,171,2020_Feb_25_1529,spring_faces,3.1.5,60.0005470848234,
condition files/Stage1_1.xlsx,,T3,B4,c,"['c', 'm']","['Clue', 'Monopoly']","[-0.15, 0.5]","[0.15, 0.5]",1,1,,,,,,,,,0,6,6,6,0,5,5,5,,,,,,,,,,,,,,,,,,,,,,,,,,,,,,,,,,,,,,,,,,,,,,,,,,,,,,,555.6943110280008,None,555.6943110280008,None,555.6943110280008,None,c,1,0.8320241750006971,557.2290662380001,None,557.2290662380001,None,557.2290662380001,None,558.1273156900024,None,558.1273156900024,None,558.1273156900024,None,558.1273156900024,None,,,,,,,,,,,,,,,,,,,,,,,,,,,,,,,,,,,,,,,,,,,,001,171,2020_Feb_25_1529,spring_faces,3.1.5,60.0005470848234,
condition files/Stage1_1.xlsx,,B1,T2,c,"['c', 'm']","['Clue', 'Monopoly']","[-0.15, 0.5]","[0.15, 0.5]",1,1,,,,,,,,,0,6,6,6,0,6,6,1,,,,,,,,,,,,,,,,,,,,,,,,,,,,,,,,,,,,,,,,,,,,,,,,,,,,,,,560.0943520660003,None,560.0943520660003,None,560.0943520660003,None,c,1,0.7669485709993751,561.6301965780003,None,561.6301965780003,None,561.6301965780003,None,562.4615289460016,None,562.4615289460016,None,562.4615289460016,None,562.4615289460016,None,,,,,,,,,,,,,,,,,,,,,,,,,,,,,,,,,,,,,,,,,,,,001,171,2020_Feb_25_1529,spring_faces,3.1.5,60.0005470848234,
condition files/Stage1_1.xlsx,,B4,T4,m,"['c', 'm']","['Clue', 'Monopoly']","[-0.15, 0.5]","[0.15, 0.5]",1,1,,,,,,,,,0,6,6,6,0,7,7,7,,,,,,,,,,,,,,,,,,,,,,,,,,,,,,,,,,,,,,,,,,,,,,,,,,,,,,,564.4279432840012,None,564.4279432840012,None,564.4279432840012,None,m,1,0.6591486180004722,565.9620582660027,None,565.9620582660027,None,565.9620582660027,None,566.694650458001,None,566.694650458001,None,566.694650458001,None,566.694650458001,None,,,,,,,,,,,,,,,,,,,,,,,,,,,,,,,,,,,,,,,,,,,,001,171,2020_Feb_25_1529,spring_faces,3.1.5,60.0005470848234,
condition files/Stage1_2.xlsx,,T1,B2,m,"['c', 'm']","['Clue', 'Monopoly']","[-0.15, 0.5]","[0.15, 0.5]",1,1,,,,,,,,,0,7,7,7,0,0,0,2,,,,,,,,,,,,,,,,,,,,,,,,,,,,,,,,,,,,,,,,,,,,,,,,,,,,,,,568.6615671370018,None,568.6615671370018,None,568.6615671370018,None,m,1,0.7461951119985315,570.2109400530026,None,570.2109400530026,None,570.2109400530026,None,571.0114906020026,None,571.0114906020026,None,571.0114906020026,None,571.0114906020026,None,,,,,,,,,,,,,,,,,,,,,,,,,,,,,,,,,,,,,,,,,,,,001,171,2020_Feb_25_1529,spring_faces,3.1.5,60.0005470848234,
condition files/Stage1_2.xlsx,,B1,T1,c,"['c', 'm']","['Clue', 'Monopoly']","[-0.15, 0.5]","[0.15, 0.5]",1,1,,,,,,,,,0,7,7,7,0,1,1,0,,,,,,,,,,,,,,,,,,,,,,,,,,,,,,,,,,,,,,,,,,,,,,,,,,,,,,,572.9777106660003,None,572.9777106660003,None,572.9777106660003,None,c,1,1.020814531002543,574.512330804002,None,574.512330804002,None,574.512330804002,None,575.5941381770026,None,575.5941381770026,None,575.5941381770026,None,575.5941381770026,None,,,,,,,,,,,,,,,,,,,,,,,,,,,,,,,,,,,,,,,,,,,,001,171,2020_Feb_25_1529,spring_faces,3.1.5,60.0005470848234,
condition files/Stage1_2.xlsx,,B2,T2,m,"['c', 'm']","['Clue', 'Monopoly']","[-0.15, 0.5]","[0.15, 0.5]",1,1,,,,,,,,,0,7,7,7,0,2,2,3,,,,,,,,,,,,,,,,,,,,,,,,,,,,,,,,,,,,,,,,,,,,,,,,,,,,,,,577.5610731990018,None,577.5610731990018,None,577.5610731990018,None,m,1,0.805985316997976,579.1112120760008,None,579.1112120760008,None,579.1112120760008,None,579.9946899440001,None,579.9946899440001,None,579.9946899440001,None,579.9946899440001,None,,,,,,,,,,,,,,,,,,,,,,,,,,,,,,,,,,,,,,,,,,,,001,171,2020_Feb_25_1529,spring_faces,3.1.5,60.0005470848234,
condition files/Stage1_2.xlsx,,T2,B1,c,"['c', 'm']","['Clue', 'Monopoly']","[-0.15, 0.5]","[0.15, 0.5]",1,1,,,,,,,,,0,7,7,7,0,3,3,1,,,,,,,,,,,,,,,,,,,,,,,,,,,,,,,,,,,,,,,,,,,,,,,,,,,,,,,581.9438313669998,None,581.9438313669998,None,581.9438313669998,None,c,1,0.7913383970007999,583.4778831980002,None,583.4778831980002,None,583.4778831980002,None,584.3273898140033,None,584.3273898140033,None,584.3273898140033,None,584.3273898140033,None,,,,,,,,,,,,,,,,,,,,,,,,,,,,,,,,,,,,,,,,,,,,001,171,2020_Feb_25_1529,spring_faces,3.1.5,60.0005470848234,
condition files/Stage1_2.xlsx,,B4,T3,c,"['c', 'm']","['Clue', 'Monopoly']","[-0.15, 0.5]","[0.15, 0.5]",1,1,,,,,,,,,0,7,7,7,0,4,4,5,,,,,,,,,,,,,,,,,,,,,,,,,,,,,,,,,,,,,,,,,,,,,,,,,,,,,,,586.2943823850001,None,586.2943823850001,None,586.2943823850001,None,c,1,0.9045501999971748,587.8445755730027,None,587.8445755730027,None,587.8445755730027,None,588.8115643240017,None,588.8115643240017,None,588.8115643240017,None,588.8115643240017,None,,,,,,,,,,,,,,,,,,,,,,,,,,,,,,,,,,,,,,,,,,,,001,171,2020_Feb_25_1529,spring_faces,3.1.5,60.0005470848234,
condition files/Stage1_2.xlsx,,T4,B4,m,"['c', 'm']","['Clue', 'Monopoly']","[-0.15, 0.5]","[0.15, 0.5]",1,1,,,,,,,,,0,7,7,7,0,5,5,7,,,,,,,,,,,,,,,,,,,,,,,,,,,,,,,,,,,,,,,,,,,,,,,,,,,,,,,590.7777908730022,None,590.7777908730022,None,590.7777908730022,None,m,1,0.6121596669981955,592.3129804320015,None,592.3129804320015,None,592.3129804320015,None,592.9940829600018,None,592.9940829600018,None,592.9940829600018,None,592.9940829600018,None,,,,,,,,,,,,,,,,,,,,,,,,,,,,,,,,,,,,,,,,,,,,001,171,2020_Feb_25_1529,spring_faces,3.1.5,60.0005470848234,
condition files/Stage1_2.xlsx,,B3,T4,m,"['c', 'm']","['Clue', 'Monopoly']","[-0.15, 0.5]","[0.15, 0.5]",1,1,,,,,,,,,0,7,7,7,0,6,6,6,,,,,,,,,,,,,,,,,,,,,,,,,,,,,,,,,,,,,,,,,,,,,,,,,,,,,,,594.9438708100024,None,594.9438708100024,None,594.9438708100024,None,m,1,1.6638948019972304,596.4772281870028,None,596.4772281870028,None,596.4772281870028,None,598.1945585640024,None,598.1945585640024,None,598.1945585640024,None,598.1945585640024,None,,,,,,,,,,,,,,,,,,,,,,,,,,,,,,,,,,,,,,,,,,,,001,171,2020_Feb_25_1529,spring_faces,3.1.5,60.0005470848234,
condition files/Stage1_2.xlsx,,T3,B3,c,"['c', 'm']","['Clue', 'Monopoly']","[-0.15, 0.5]","[0.15, 0.5]",1,1,,,,,,,,,0,7,7,7,0,7,7,4,,,,,,,,,,,,,,,,,,,,,,,,,,,,,,,,,,,,,,,,,,,,,,,,,,,,,,,600.1608572020014,None,600.1608572020014,None,600.1608572020014,None,c,1,0.9103472469978442,601.6948678430017,None,601.6948678430017,None,601.6948678430017,None,602.6609410140009,None,602.6609410140009,None,602.6609410140009,None,602.6609410140009,None,,,,,,,,,,,,,,,,,,,,,,,,,,,,,,,,,,,,,,,,,,,,001,171,2020_Feb_25_1529,spring_faces,3.1.5,60.0005470848234,
condition files/Stage1_1.xlsx,,B2,T1,m,"['c', 'm']","['Clue', 'Monopoly']","[-0.15, 0.5]","[0.15, 0.5]",1,1,,,,,,,,,0,8,8,8,0,0,0,2,,,,,,,,,,,,,,,,,,,,,,,,,,,,,,,,,,,,,,,,,,,,,,,,,,,,,,,604.644527536002,None,604.644527536002,None,604.644527536002,None,m,1,1.609372668001015,606.1797448570032,None,606.1797448570032,None,606.1797448570032,None,607.8462509910023,None,607.8462509910023,None,607.8462509910023,None,607.8462509910023,None,,,,,,,,,,,,,,,,,,,,,,,,,,,,,,,,,,,,,,,,,,,,001,171,2020_Feb_25_1529,spring_faces,3.1.5,60.0005470848234,
condition files/Stage1_1.xlsx,,T3,B4,c,"['c', 'm']","['Clue', 'Monopoly']","[-0.15, 0.5]","[0.15, 0.5]",1,1,,,,,,,,,0,8,8,8,0,1,1,5,,,,,,,,,,,,,,,,,,,,,,,,,,,,,,,,,,,,,,,,,,,,,,,,,,,,,,,609.811065662001,None,609.811065662001,None,609.811065662001,None,c,1,0.8601506170016364,611.3609687860007,None,611.3609687860007,None,611.3609687860007,None,612.2940851010026,None,612.2940851010026,None,612.2940851010026,None,612.2940851010026,None,,,,,,,,,,,,,,,,,,,,,,,,,,,,,,,,,,,,,,,,,,,,001,171,2020_Feb_25_1529,spring_faces,3.1.5,60.0005470848234,
condition files/Stage1_1.xlsx,,B3,T3,c,"['c', 'm']","['Clue', 'Monopoly']","[-0.15, 0.5]","[0.15, 0.5]",1,1,,,,,,,,,0,8,8,8,0,2,2,4,,,,,,,,,,,,,,,,,,,,,,,,,,,,,,,,,,,,,,,,,,,,,,,,,,,,,,,614.2439544100016,None,614.2439544100016,None,614.2439544100016,None,c,1,0.6512939829990501,615.7778014110008,None,615.7778014110008,None,615.7778014110008,None,616.4946075330008,None,616.4946075330008,None,616.4946075330008,None,616.4946075330008,None,,,,,,,,,,,,,,,,,,,,,,,,,,,,,,,,,,,,,,,,,,,,001,171,2020_Feb_25_1529,spring_faces,3.1.5,60.0005470848234,
condition files/Stage1_1.xlsx,,B4,T4,m,"['c', 'm']","['Clue', 'Monopoly']","[-0.15, 0.5]","[0.15, 0.5]",1,1,,,,,,,,,0,8,8,8,0,3,3,7,,,,,,,,,,,,,,,,,,,,,,,,,,,,,,,,,,,,,,,,,,,,,,,,,,,,,,,618.4604837469997,None,618.4604837469997,None,618.4604837469997,None,m,1,1.2498466680008278,620.0112802710028,None,620.0112802710028,None,620.0112802710028,None,621.3138719160015,None,621.3138719160015,None,621.3138719160015,None,621.3138719160015,None,,,,,,,,,,,,,,,,,,,,,,,,,,,,,,,,,,,,,,,,,,,,001,171,2020_Feb_25_1529,spring_faces,3.1.5,60.0005470848234,
condition files/Stage1_1.xlsx,,B1,T2,c,"['c', 'm']","['Clue', 'Monopoly']","[-0.15, 0.5]","[0.15, 0.5]",1,1,,,,,,,,,0,8,8,8,0,4,4,1,,,,,,,,,,,,,,,,,,,,,,,,,,,,,,,,,,,,,,,,,,,,,,,,,,,,,,,623.2771819139998,None,623.2771819139998,None,623.2771819139998,None,c,1,0.8169261600014579,624.8281580330004,None,624.8281580330004,None,624.8281580330004,None,625.711309090002,None,625.711309090002,None,625.711309090002,None,625.711309090002,None,,,,,,,,,,,,,,,,,,,,,,,,,,,,,,,,,,,,,,,,,,,,001,171,2020_Feb_25_1529,spring_faces,3.1.5,60.0005470848234,
condition files/Stage1_1.xlsx,,T4,B3,m,"['c', 'm']","['Clue', 'Monopoly']","[-0.15, 0.5]","[0.15, 0.5]",1,1,,,,,,,,,0,8,8,8,0,5,5,6,,,,,,,,,,,,,,,,,,,,,,,,,,,,,,,,,,,,,,,,,,,,,,,,,,,,,,,627.6775371170006,None,627.6775371170006,None,627.6775371170006,None,m,1,0.6410209669993492,629.2121756930028,None,629.2121756930028,None,629.2121756930028,None,629.9136069510023,None,629.9136069510023,None,629.9136069510023,None,629.9136069510023,None,,,,,,,,,,,,,,,,,,,,,,,,,,,,,,,,,,,,,,,,,,,,001,171,2020_Feb_25_1529,spring_faces,3.1.5,60.0005470848234,
condition files/Stage1_1.xlsx,,T1,B1,c,"['c', 'm']","['Clue', 'Monopoly']","[-0.15, 0.5]","[0.15, 0.5]",1,1,,,,,,,,,0,8,8,8,0,6,6,0,,,,,,,,,,,,,,,,,,,,,,,,,,,,,,,,,,,,,,,,,,,,,,,,,,,,,,,631.8779499880002,None,631.8779499880002,None,631.8779499880002,None,c,1,0.7773011089993815,633.4279014550011,None,633.4279014550011,None,633.4279014550011,None,634.2782808660013,None,634.2782808660013,None,634.2782808660013,None,634.2782808660013,None,,,,,,,,,,,,,,,,,,,,,,,,,,,,,,,,,,,,,,,,,,,,001,171,2020_Feb_25_1529,spring_faces,3.1.5,60.0005470848234,
condition files/Stage1_1.xlsx,,T2,B2,m,"['c', 'm']","['Clue', 'Monopoly']","[-0.15, 0.5]","[0.15, 0.5]",1,1,,,,,,,,,0,8,8,8,0,7,7,3,,,,,,,,,,,,,,,,,,,,,,,,,,,,,,,,,,,,,,,,,,,,,,,,,,,,,,,636.2278580240018,None,636.2278580240018,None,636.2278580240018,None,m,1,0.666841875998216,637.7782412200031,None,637.7782412200031,None,637.7782412200031,None,638.511719797003,None,638.511719797003,None,638.511719797003,None,638.511719797003,None,,,,,,,,,,,,,,,,,,,,,,,,,,,,,,,,,,,,,,,,,,,,001,171,2020_Feb_25_1529,spring_faces,3.1.5,60.0005470848234,
condition files/Stage1_2.xlsx,,T3,B3,c,"['c', 'm']","['Clue', 'Monopoly']","[-0.15, 0.5]","[0.15, 0.5]",1,1,,,,,,,,,0,9,9,9,0,0,0,4,,,,,,,,,,,,,,,,,,,,,,,,,,,,,,,,,,,,,,,,,,,,,,,,,,,,,,,640.4940878120033,None,640.4940878120033,None,640.4940878120033,None,c,1,0.5769365439991816,642.0442551440028,None,642.0442551440028,None,642.0442551440028,None,642.680458132003,None,642.680458132003,None,642.680458132003,None,642.680458132003,None,,,,,,,,,,,,,,,,,,,,,,,,,,,,,,,,,,,,,,,,,,,,001,171,2020_Feb_25_1529,spring_faces,3.1.5,60.0005470848234,
condition files/Stage1_2.xlsx,,T4,B4,m,"['c', 'm']","['Clue', 'Monopoly']","[-0.15, 0.5]","[0.15, 0.5]",1,1,,,,,,,,,0,9,9,9,0,1,1,7,,,,,,,,,,,,,,,,,,,,,,,,,,,,,,,,,,,,,,,,,,,,,,,,,,,,,,,644.6440514180031,None,644.6440514180031,None,644.6440514180031,None,m,1,0.7613379860013083,646.1797168180019,None,646.1797168180019,None,646.1797168180019,None,646.9972477980009,None,646.9972477980009,None,646.9972477980009,None,646.9972477980009,None,,,,,,,,,,,,,,,,,,,,,,,,,,,,,,,,,,,,,,,,,,,,001,171,2020_Feb_25_1529,spring_faces,3.1.5,60.0005470848234,
condition files/Stage1_2.xlsx,,B4,T3,c,"['c', 'm']","['Clue', 'Monopoly']","[-0.15, 0.5]","[0.15, 0.5]",1,1,,,,,,,,,0,9,9,9,0,2,2,5,,,,,,,,,,,,,,,,,,,,,,,,,,,,,,,,,,,,,,,,,,,,,,,,,,,,,,,648.9611096790031,None,648.9611096790031,None,648.9611096790031,None,c,1,0.8461100229978911,650.4952424920011,None,650.4952424920011,None,650.4952424920011,None,651.4106930280032,None,651.4106930280032,None,651.4106930280032,None,651.4106930280032,None,,,,,,,,,,,,,,,,,,,,,,,,,,,,,,,,,,,,,,,,,,,,001,171,2020_Feb_25_1529,spring_faces,3.1.5,60.0005470848234,
condition files/Stage1_2.xlsx,,T1,B2,m,"['c', 'm']","['Clue', 'Monopoly']","[-0.15, 0.5]","[0.15, 0.5]",1,1,,,,,,,,,0,9,9,9,0,3,3,2,,,,,,,,,,,,,,,,,,,,,,,,,,,,,,,,,,,,,,,,,,,,,,,,,,,,,,,653.3604904700005,None,653.3604904700005,None,653.3604904700005,None,m,1,0.6687885610008379,654.8963669350014,None,654.8963669350014,None,654.8963669350014,None,655.6443170950006,None,655.6443170950006,None,655.6443170950006,None,655.6443170950006,None,,,,,,,,,,,,,,,,,,,,,,,,,,,,,,,,,,,,,,,,,,,,001,171,2020_Feb_25_1529,spring_faces,3.1.5,60.0005470848234,
condition files/Stage1_2.xlsx,,T2,B1,c,"['c', 'm']","['Clue', 'Monopoly']","[-0.15, 0.5]","[0.15, 0.5]",1,1,,,,,,,,,0,9,9,9,0,4,4,1,,,,,,,,,,,,,,,,,,,,,,,,,,,,,,,,,,,,,,,,,,,,,,,,,,,,,,,657.5939207020019,None,657.5939207020019,None,657.5939207020019,None,c,1,0.852882162998867,659.1282608300025,None,659.1282608300025,None,659.1282608300025,None,660.0471596210009,None,660.0471596210009,None,660.0471596210009,None,660.0471596210009,None,,,,,,,,,,,,,,,,,,,,,,,,,,,,,,,,,,,,,,,,,,,,001,171,2020_Feb_25_1529,spring_faces,3.1.5,60.0005470848234,
condition files/Stage1_2.xlsx,,B2,T2,m,"['c', 'm']","['Clue', 'Monopoly']","[-0.15, 0.5]","[0.15, 0.5]",1,1,,,,,,,,,0,9,9,9,0,5,5,3,,,,,,,,,,,,,,,,,,,,,,,,,,,,,,,,,,,,,,,,,,,,,,,,,,,,,,,662.0110238280031,None,662.0110238280031,None,662.0110238280031,None,m,1,0.9803344149986515,663.5448023710014,None,663.5448023710014,None,663.5448023710014,None,664.5947870300006,None,664.5947870300006,None,664.5947870300006,None,664.5947870300006,None,,,,,,,,,,,,,,,,,,,,,,,,,,,,,,,,,,,,,,,,,,,,001,171,2020_Feb_25_1529,spring_faces,3.1.5,60.0005470848234,
condition files/Stage1_2.xlsx,,B1,T1,c,"['c', 'm']","['Clue', 'Monopoly']","[-0.15, 0.5]","[0.15, 0.5]",1,1,,,,,,,,,0,9,9,9,0,6,6,0,,,,,,,,,,,,,,,,,,,,,,,,,,,,,,,,,,,,,,,,,,,,,,,,,,,,,,,666.5439015690026,None,666.5439015690026,None,666.5439015690026,None,c,1,0.7022460809967015,668.0948810670016,None,668.0948810670016,None,668.0948810670016,None,668.8616198700001,None,668.8616198700001,None,668.8616198700001,None,668.8616198700001,None,,,,,,,,,,,,,,,,,,,,,,,,,,,,,,,,,,,,,,,,,,,,001,171,2020_Feb_25_1529,spring_faces,3.1.5,60.0005470848234,
condition files/Stage1_2.xlsx,,B3,T4,m,"['c', 'm']","['Clue', 'Monopoly']","[-0.15, 0.5]","[0.15, 0.5]",1,1,,,,,,,,,0,9,9,9,0,7,7,6,,,,,,,,,,,,,,,,,,,,,,,,,,,,,,,,,,,,,,,,,,,,,,,,,,,,,,,670.8278197550026,None,670.8278197550026,None,670.8278197550026,None,m,1,0.8505939609967754,672.362549012003,None,672.362549012003,None,672.362549012003,None,673.2944152060008,None,673.2944152060008,None,673.2944152060008,None,673.2944152060008,None,,,,,,,,,,,,,,,,,,,,,,,,,,,,,,,,,,,,,,,,,,,,001,171,2020_Feb_25_1529,spring_faces,3.1.5,60.0005470848234,
condition files/Stage1_1.xlsx,,B3,T3,c,"['c', 'm']","['Clue', 'Monopoly']","[-0.15, 0.5]","[0.15, 0.5]",1,1,,,,,,,,,0,10,10,10,0,0,0,4,,,,,,,,,,,,,,,,,,,,,,,,,,,,,,,,,,,,,,,,,,,,,,,,,,,,,,,675.2614191760003,None,675.2614191760003,None,675.2614191760003,None,c,1,0.9140619620011421,676.7950830980008,None,676.7950830980008,None,676.7950830980008,None,677.7636812590026,None,677.7636812590026,None,677.7636812590026,None,677.7636812590026,None,,,,,,,,,,,,,,,,,,,,,,,,,,,,,,,,,,,,,,,,,,,,001,171,2020_Feb_25_1529,spring_faces,3.1.5,60.0005470848234,
condition files/Stage1_1.xlsx,,B1,T2,c,"['c', 'm']","['Clue', 'Monopoly']","[-0.15, 0.5]","[0.15, 0.5]",1,1,,,,,,,,,0,10,10,10,0,1,1,1,,,,,,,,,,,,,,,,,,,,,,,,,,,,,,,,,,,,,,,,,,,,,,,,,,,,,,,679.7274569250003,None,679.7274569250003,None,679.7274569250003,None,c,1,0.7041871550027281,681.2609600680007,None,681.2609600680007,None,681.2609600680007,None,682.0281613900006,None,682.0281613900006,None,682.0281613900006,None,682.0281613900006,None,,,,,,,,,,,,,,,,,,,,,,,,,,,,,,,,,,,,,,,,,,,,001,171,2020_Feb_25_1529,spring_faces,3.1.5,60.0005470848234,
condition files/Stage1_1.xlsx,,B4,T4,m,"['c', 'm']","['Clue', 'Monopoly']","[-0.15, 0.5]","[0.15, 0.5]",1,1,,,,,,,,,0,10,10,10,0,2,2,7,,,,,,,,,,,,,,,,,,,,,,,,,,,,,,,,,,,,,,,,,,,,,,,,,,,,,,,683.9943773510022,None,683.9943773510022,None,683.9943773510022,None,m,1,0.5635301890033588,685.5296167090019,None,685.5296167090019,None,685.5296167090019,None,686.1612958930018,None,686.1612958930018,None,686.1612958930018,None,686.1612958930018,None,,,,,,,,,,,,,,,,,,,,,,,,,,,,,,,,,,,,,,,,,,,,001,171,2020_Feb_25_1529,spring_faces,3.1.5,60.0005470848234,
condition files/Stage1_1.xlsx,,T1,B1,c,"['c', 'm']","['Clue', 'Monopoly']","[-0.15, 0.5]","[0.15, 0.5]",1,1,,,,,,,,,0,10,10,10,0,3,3,0,,,,,,,,,,,,,,,,,,,,,,,,,,,,,,,,,,,,,,,,,,,,,,,,,,,,,,,688.1112743150006,None,688.1112743150006,None,688.1112743150006,None,c,1,0.48059696899872506,689.6606519039997,None,689.6606519039997,None,689.6606519039997,None,690.2113609790031,None,690.2113609790031,None,690.2113609790031,None,690.2113609790031,None,,,,,,,,,,,,,,,,,,,,,,,,,,,,,,,,,,,,,,,,,,,,001,171,2020_Feb_25_1529,spring_faces,3.1.5,60.0005470848234,
condition files/Stage1_1.xlsx,,B2,T1,m,"['c', 'm']","['Clue', 'Monopoly']","[-0.15, 0.5]","[0.15, 0.5]",1,1,,,,,,,,,0,10,10,10,0,4,4,2,,,,,,,,,,,,,,,,,,,,,,,,,,,,,,,,,,,,,,,,,,,,,,,,,,,,,,,692.1609334940003,None,692.1609334940003,None,692.1609334940003,None,m,1,0.8924649189975753,693.6966195090026,None,693.6966195090026,None,693.6966195090026,None,694.6611164010028,None,694.6611164010028,None,694.6611164010028,None,694.6611164010028,None,,,,,,,,,,,,,,,,,,,,,,,,,,,,,,,,,,,,,,,,,,,,001,171,2020_Feb_25_1529,spring_faces,3.1.5,60.0005470848234,
condition files/Stage1_1.xlsx,,T2,B2,m,"['c', 'm']","['Clue', 'Monopoly']","[-0.15, 0.5]","[0.15, 0.5]",1,1,,,,,,,,,0,10,10,10,0,5,5,3,,,,,,,,,,,,,,,,,,,,,,,,,,,,,,,,,,,,,,,,,,,,,,,,,,,,,,,696.6107625170007,None,696.6107625170007,None,696.6107625170007,None,m,1,0.7800216100004036,698.1611185399997,None,698.1611185399997,None,698.1611185399997,None,698.994990444,None,698.994990444,None,698.994990444,None,698.994990444,None,,,,,,,,,,,,,,,,,,,,,,,,,,,,,,,,,,,,,,,,,,,,001,171,2020_Feb_25_1529,spring_faces,3.1.5,60.0005470848234,
condition files/Stage1_1.xlsx,,T4,B3,m,"['c', 'm']","['Clue', 'Monopoly']","[-0.15, 0.5]","[0.15, 0.5]",1,1,,,,,,,,,0,10,10,10,0,6,6,6,,,,,,,,,,,,,,,,,,,,,,,,,,,,,,,,,,,,,,,,,,,,,,,,,,,,,,,700.9610792700005,None,700.9610792700005,None,700.9610792700005,None,m,1,0.958567978002975,702.4945506300028,None,702.4945506300028,None,702.4945506300028,None,703.5274173940015,None,703.5274173940015,None,703.5274173940015,None,703.5274173940015,None,,,,,,,,,,,,,,,,,,,,,,,,,,,,,,,,,,,,,,,,,,,,001,171,2020_Feb_25_1529,spring_faces,3.1.5,60.0005470848234,
condition files/Stage1_1.xlsx,,T3,B4,c,"['c', 'm']","['Clue', 'Monopoly']","[-0.15, 0.5]","[0.15, 0.5]",1,1,,,,,,,,,0,10,10,10,0,7,7,5,,,,,,,,,,,,,,,,,,,,,,,,,,,,,,,,,,,,,,,,,,,,,,,,,,,,,,,705.4783484030013,None,705.4783484030013,None,705.4783484030013,None,c,1,0.9217808509965835,707.0273532259998,None,707.0273532259998,None,707.0273532259998,None,708.0277986480032,None,708.0277986480032,None,708.0277986480032,None,708.0277986480032,None,,,,,,,,,,,,,,,,,,,,,,,,,,,,,,,,,,,,,,,,,,,,001,171,2020_Feb_25_1529,spring_faces,3.1.5,60.0005470848234,
condition files/Stage1_2.xlsx,,T4,B4,m,"['c', 'm']","['Clue', 'Monopoly']","[-0.15, 0.5]","[0.15, 0.5]",1,1,,,,,,,,,0,11,11,11,0,0,0,7,,,,,,,,,,,,,,,,,,,,,,,,,,,,,,,,,,,,,,,,,,,,,,,,,,,,,,,709.9938615550018,None,709.9938615550018,None,709.9938615550018,None,m,1,0.8994899490026,711.5296103010005,None,711.5296103010005,None,711.5296103010005,None,712.4968227900026,None,712.4968227900026,None,712.4968227900026,None,712.4968227900026,None,,,,,,,,,,,,,,,,,,,,,,,,,,,,,,,,,,,,,,,,,,,,001,171,2020_Feb_25_1529,spring_faces,3.1.5,60.0005470848234,
condition files/Stage1_2.xlsx,,T3,B3,c,"['c', 'm']","['Clue', 'Monopoly']","[-0.15, 0.5]","[0.15, 0.5]",1,1,,,,,,,,,0,11,11,11,0,1,1,4,,,,,,,,,,,,,,,,,,,,,,,,,,,,,,,,,,,,,,,,,,,,,,,,,,,,,,,714.4610528200028,None,714.4610528200028,None,714.4610528200028,None,c,1,0.7697421660013788,715.9954162380018,None,715.9954162380018,None,715.9954162380018,None,716.8298153140022,None,716.8298153140022,None,716.8298153140022,None,716.8298153140022,None,,,,,,,,,,,,,,,,,,,,,,,,,,,,,,,,,,,,,,,,,,,,001,171,2020_Feb_25_1529,spring_faces,3.1.5,60.0005470848234,
condition files/Stage1_2.xlsx,,B1,T1,c,"['c', 'm']","['Clue', 'Monopoly']","[-0.15, 0.5]","[0.15, 0.5]",1,1,,,,,,,,,0,11,11,11,0,2,2,0,,,,,,,,,,,,,,,,,,,,,,,,,,,,,,,,,,,,,,,,,,,,,,,,,,,,,,,718.7945318100028,None,718.7945318100028,None,718.7945318100028,None,c,1,0.8349817500020436,720.3301441149997,None,720.3301441149997,None,720.3301441149997,None,721.2278342669997,None,721.2278342669997,None,721.2278342669997,None,721.2278342669997,None,,,,,,,,,,,,,,,,,,,,,,,,,,,,,,,,,,,,,,,,,,,,001,171,2020_Feb_25_1529,spring_faces,3.1.5,60.0005470848234,
condition files/Stage1_2.xlsx,,B4,T3,c,"['c', 'm']","['Clue', 'Monopoly']","[-0.15, 0.5]","[0.15, 0.5]",1,1,,,,,,,,,0,11,11,11,0,3,3,5,,,,,,,,,,,,,,,,,,,,,,,,,,,,,,,,,,,,,,,,,,,,,,,,,,,,,,,723.1943731930005,None,723.1943731930005,None,723.1943731930005,None,c,1,0.6928025380002509,724.7283865610007,None,724.7283865610007,None,724.7283865610007,None,725.4779820190015,None,725.4779820190015,None,725.4779820190015,None,725.4779820190015,None,,,,,,,,,,,,,,,,,,,,,,,,,,,,,,,,,,,,,,,,,,,,001,171,2020_Feb_25_1529,spring_faces,3.1.5,60.0005470848234,
condition files/Stage1_2.xlsx,,T2,B1,c,"['c', 'm']","['Clue', 'Monopoly']","[-0.15, 0.5]","[0.15, 0.5]",1,1,,,,,,,,,0,11,11,11,0,4,4,1,,,,,,,,,,,,,,,,,,,,,,,,,,,,,,,,,,,,,,,,,,,,,,,,,,,,,,,727.4439354560018,None,727.4439354560018,None,727.4439354560018,None,c,1,1.6423987060006766,728.9948328620012,None,728.9948328620012,None,728.9948328620012,None,730.694181144001,None,730.694181144001,None,730.694181144001,None,730.694181144001,None,,,,,,,,,,,,,,,,,,,,,,,,,,,,,,,,,,,,,,,,,,,,001,171,2020_Feb_25_1529,spring_faces,3.1.5,60.0005470848234,
condition files/Stage1_2.xlsx,,T1,B2,m,"['c', 'm']","['Clue', 'Monopoly']","[-0.15, 0.5]","[0.15, 0.5]",1,1,,,,,,,,,0,11,11,11,0,5,5,2,,,,,,,,,,,,,,,,,,,,,,,,,,,,,,,,,,,,,,,,,,,,,,,,,,,,,,,732.6612463070014,None,732.6612463070014,None,732.6612463070014,None,m,1,0.8414585220016306,734.1957482489997,None,734.1957482489997,None,734.1957482489997,None,735.1108315730016,None,735.1108315730016,None,735.1108315730016,None,735.1108315730016,None,,,,,,,,,,,,,,,,,,,,,,,,,,,,,,,,,,,,,,,,,,,,001,171,2020_Feb_25_1529,spring_faces,3.1.5,60.0005470848234,
condition files/Stage1_2.xlsx,,B3,T4,m,"['c', 'm']","['Clue', 'Monopoly']","[-0.15, 0.5]","[0.15, 0.5]",1,1,,,,,,,,,0,11,11,11,0,6,6,6,,,,,,,,,,,,,,,,,,,,,,,,,,,,,,,,,,,,,,,,,,,,,,,,,,,,,,,737.0612768790015,None,737.0612768790015,None,737.0612768790015,None,m,1,0.618765914998221,738.5943241870009,None,738.5943241870009,None,738.5943241870009,None,739.2780592320014,None,739.2780592320014,None,739.2780592320014,None,739.2780592320014,None,,,,,,,,,,,,,,,,,,,,,,,,,,,,,,,,,,,,,,,,,,,,001,171,2020_Feb_25_1529,spring_faces,3.1.5,60.0005470848234,
condition files/Stage1_2.xlsx,,B2,T2,m,"['c', 'm']","['Clue', 'Monopoly']","[-0.15, 0.5]","[0.15, 0.5]",1,1,,,,,,,,,0,11,11,11,0,7,7,3,,,,,,,,,,,,,,,,,,,,,,,,,,,,,,,,,,,,,,,,,,,,,,,,,,,,,,,741.2438180380013,None,741.2438180380013,None,741.2438180380013,None,m,1,1.378585269998439,742.778565165001,None,742.778565165001,None,742.778565165001,None,744.2113009560017,None,744.2113009560017,None,744.2113009560017,None,744.2113009560017,None,,,,,,,,,,,,,,,,,,,,,,,,,,,,,,,,,,,,,,,,,,,,001,171,2020_Feb_25_1529,spring_faces,3.1.5,60.0005470848234,
,,,,,,,,,,,,,,,,,,,,,,,,,,,,,,,,,,,,,,,,,,,,,,,,,,,,,,,,,,,,,,,,,,,,,,,,,,,,,,,,,,,,,,,,,,,,,,,,,,,,,,,,,,,,,,,,746.1948171340009,None,space,5.650400676000572,751.194703676003,None,,,,,,,,,,,,,,,,,,,,,,,,,,,,,,001,171,2020_Feb_25_1529,spring_faces,3.1.5,60.0005470848234,
condition files/Stage2_1.xlsx,,B2,T2,r,"['s', 'r']","['Stratego', 'Risk']","[-0.15, 0.5]","[0.15, 0.5]",1,1,,,,,,,,,,,,,,,,,0,0,0,0,0,0,0,3,,,,,,,,,,,,,,,,,,,,,,,,,,,,,,,,,,,,,,,,,,,,,,,756.9113773950012,None,756.9113773950012,None,756.9113773950012,None,s,0,0.705562197999825,758.4275977940015,None,758.4275977940015,None,758.4275977940015,None,759.1942066360025,None,759.1942066360025,None,759.1942066360025,None,759.1942066360025,None,,,,,,,,,,,,,,,751.194703676003,None,,,,,,,,,,,,,,,,,,,,,,,,,,,,001,171,2020_Feb_25_1529,spring_faces,3.1.5,60.0005470848234,
condition files/Stage2_1.xlsx,,T5,B5,s,"['s', 'r']","['Stratego', 'Risk']","[-0.15, 0.5]","[0.15, 0.5]",1,1,,,,,,,,,,,,,,,,,0,0,0,0,0,1,1,0,,,,,,,,,,,,,,,,,,,,,,,,,,,,,,,,,,,,,,,,,,,,,,,761.1607136240018,None,761.1607136240018,None,761.1607136240018,None,s,1,0.6144999399984954,762.7105966400013,None,762.7105966400013,None,762.7105966400013,None,763.3795841640022,None,763.3795841640022,None,763.3795841640022,None,763.3795841640022,None,,,,,,,,,,,,,,,,,,,,,,,,,,,,,,,,,,,,,,,,,,,,001,171,2020_Feb_25_1529,spring_faces,3.1.5,60.0005470848234,
condition files/Stage2_1.xlsx,,B6,T6,r,"['s', 'r']","['Stratego', 'Risk']","[-0.15, 0.5]","[0.15, 0.5]",1,1,,,,,,,,,,,,,,,,,0,0,0,0,0,2,2,1,,,,,,,,,,,,,,,,,,,,,,,,,,,,,,,,,,,,,,,,,,,,,,,765.3438530640015,None,765.3438530640015,None,765.3438530640015,None,r,1,1.535366152998904,766.8777901290014,None,766.8777901290014,None,766.8777901290014,None,768.478998499002,None,768.478998499002,None,768.478998499002,None,768.478998499002,None,,,,,,,,,,,,,,,,,,,,,,,,,,,,,,,,,,,,,,,,,,,,001,171,2020_Feb_25_1529,spring_faces,3.1.5,60.0005470848234,
condition files/Stage2_1.xlsx,,B4,T4,r,"['s', 'r']","['Stratego', 'Risk']","[-0.15, 0.5]","[0.15, 0.5]",1,1,,,,,,,,,,,,,,,,,0,0,0,0,0,3,3,5,,,,,,,,,,,,,,,,,,,,,,,,,,,,,,,,,,,,,,,,,,,,,,,770.4445706530023,None,770.4445706530023,None,770.4445706530023,None,s,0,0.6105135479992896,771.9946939809997,None,771.9946939809997,None,771.9946939809997,None,772.6615201269997,None,772.6615201269997,None,772.6615201269997,None,772.6615201269997,None,,,,,,,,,,,,,,,,,,,,,,,,,,,,,,,,,,,,,,,,,,,,001,171,2020_Feb_25_1529,spring_faces,3.1.5,60.0005470848234,
condition files/Stage2_1.xlsx,,T3,B3,s,"['s', 'r']","['Stratego', 'Risk']","[-0.15, 0.5]","[0.15, 0.5]",1,1,,,,,,,,,,,,,,,,,0,0,0,0,0,4,4,4,,,,,,,,,,,,,,,,,,,,,,,,,,,,,,,,,,,,,,,,,,,,,,,774.6276171120007,None,774.6276171120007,None,774.6276171120007,None,s,1,1.259238506998372,776.1618888210032,None,776.1618888210032,None,776.1618888210032,None,777.4791412539998,None,777.4791412539998,None,777.4791412539998,None,777.4791412539998,None,,,,,,,,,,,,,,,,,,,,,,,,,,,,,,,,,,,,,,,,,,,,001,171,2020_Feb_25_1529,spring_faces,3.1.5,60.0005470848234,
condition files/Stage2_1.xlsx,,T1,B1,s,"['s', 'r']","['Stratego', 'Risk']","[-0.15, 0.5]","[0.15, 0.5]",1,1,,,,,,,,,,,,,,,,,0,0,0,0,0,5,5,2,,,,,,,,,,,,,,,,,,,,,,,,,,,,,,,,,,,,,,,,,,,,,,,779.444387951,None,779.444387951,None,779.444387951,None,r,0,1.0023853970014898,780.9947415000024,None,780.9947415000024,None,780.9947415000024,None,782.0610963260006,None,782.0610963260006,None,782.0610963260006,None,782.0610963260006,None,,,,,,,,,,,,,,,,,,,,,,,,,,,,,,,,,,,,,,,,,,,,001,171,2020_Feb_25_1529,spring_faces,3.1.5,60.0005470848234,
condition files/Stage2_2.xlsx,,T2,B2,r,"['s', 'r']","['Stratego', 'Risk']","[-0.15, 0.5]","[0.15, 0.5]",1,1,,,,,,,,,,,,,,,,,0,1,1,1,0,0,0,3,,,,,,,,,,,,,,,,,,,,,,,,,,,,,,,,,,,,,,,,,,,,,,,784.0442798940021,None,784.0442798940021,None,784.0442798940021,None,s,0,0.9776458140004252,785.5794742150028,None,785.5794742150028,None,785.5794742150028,None,786.6273715690004,None,786.6273715690004,None,786.6273715690004,None,786.6273715690004,None,,,,,,,,,,,,,,,,,,,,,,,,,,,,,,,,,,,,,,,,,,,,001,171,2020_Feb_25_1529,spring_faces,3.1.5,60.0005470848234,
condition files/Stage2_2.xlsx,,B1,T1,s,"['s', 'r']","['Stratego', 'Risk']","[-0.15, 0.5]","[0.15, 0.5]",1,1,,,,,,,,,,,,,,,,,0,1,1,1,0,1,1,2,,,,,,,,,,,,,,,,,,,,,,,,,,,,,,,,,,,,,,,,,,,,,,,788.5777211700006,None,788.5777211700006,None,788.5777211700006,None,s,1,0.8453511340012483,790.1117573560005,None,790.1117573560005,None,790.1117573560005,None,791.0138968419997,None,791.0138968419997,None,791.0138968419997,None,791.0138968419997,None,,,,,,,,,,,,,,,,,,,,,,,,,,,,,,,,,,,,,,,,,,,,001,171,2020_Feb_25_1529,spring_faces,3.1.5,60.0005470848234,
condition files/Stage2_2.xlsx,,T4,B4,r,"['s', 'r']","['Stratego', 'Risk']","[-0.15, 0.5]","[0.15, 0.5]",1,1,,,,,,,,,,,,,,,,,0,1,1,1,0,2,2,5,,,,,,,,,,,,,,,,,,,,,,,,,,,,,,,,,,,,,,,,,,,,,,,792.9779358230007,None,792.9779358230007,None,792.9779358230007,None,r,1,1.7252883080000174,794.5279165970023,None,794.5279165970023,None,794.5279165970023,None,796.3130378250025,None,796.3130378250025,None,796.3130378250025,None,796.3130378250025,None,,,,,,,,,,,,,,,,,,,,,,,,,,,,,,,,,,,,,,,,,,,,001,171,2020_Feb_25_1529,spring_faces,3.1.5,60.0005470848234,
condition files/Stage2_2.xlsx,,B3,T3,s,"['s', 'r']","['Stratego', 'Risk']","[-0.15, 0.5]","[0.15, 0.5]",1,1,,,,,,,,,,,,,,,,,0,1,1,1,0,3,3,4,,,,,,,,,,,,,,,,,,,,,,,,,,,,,,,,,,,,,,,,,,,,,,,798.2776195120023,None,798.2776195120023,None,798.2776195120023,None,s,1,0.9859467179994681,799.8111981180009,None,799.8111981180009,None,799.8111981180009,None,800.8773718750017,None,800.8773718750017,None,800.8773718750017,None,800.8773718750017,None,,,,,,,,,,,,,,,,,,,,,,,,,,,,,,,,,,,,,,,,,,,,001,171,2020_Feb_25_1529,spring_faces,3.1.5,60.0005470848234,
condition files/Stage2_2.xlsx,,T6,B6,r,"['s', 'r']","['Stratego', 'Risk']","[-0.15, 0.5]","[0.15, 0.5]",1,1,,,,,,,,,,,,,,,,,0,1,1,1,0,4,4,1,,,,,,,,,,,,,,,,,,,,,,,,,,,,,,,,,,,,,,,,,,,,,,,802.8277185140032,None,802.8277185140032,None,802.8277185140032,None,r,1,1.0577763999972376,804.3634266590016,None,804.3634266590016,None,804.3634266590016,None,805.4796653250014,None,805.4796653250014,None,805.4796653250014,None,805.4796653250014,None,,,,,,,,,,,,,,,,,,,,,,,,,,,,,,,,,,,,,,,,,,,,001,171,2020_Feb_25_1529,spring_faces,3.1.5,60.0005470848234,
condition files/Stage2_2.xlsx,,B5,T5,s,"['s', 'r']","['Stratego', 'Risk']","[-0.15, 0.5]","[0.15, 0.5]",1,1,,,,,,,,,,,,,,,,,0,1,1,1,0,5,5,0,,,,,,,,,,,,,,,,,,,,,,,,,,,,,,,,,,,,,,,,,,,,,,,807.444313146003,None,807.444313146003,None,807.444313146003,None,s,1,1.1144601619998866,808.9946667540025,None,808.9946667540025,None,808.9946667540025,None,810.1782486610027,None,810.1782486610027,None,810.1782486610027,None,810.1782486610027,None,,,,,,,,,,,,,,,,,,,,,,,,,,,,,,,,,,,,,,,,,,,,001,171,2020_Feb_25_1529,spring_faces,3.1.5,60.0005470848234,
condition files/Stage2_1.xlsx,,B6,T6,r,"['s', 'r']","['Stratego', 'Risk']","[-0.15, 0.5]","[0.15, 0.5]",1,1,,,,,,,,,,,,,,,,,0,2,2,2,0,0,0,1,,,,,,,,,,,,,,,,,,,,,,,,,,,,,,,,,,,,,,,,,,,,,,,812.1443389450033,None,812.1443389450033,None,812.1443389450033,None,r,1,1.1823252829999547,813.6948114860024,None,813.6948114860024,None,813.6948114860024,None,814.9446670600009,None,814.9446670600009,None,814.9446670600009,None,814.9446670600009,None,,,,,,,,,,,,,,,,,,,,,,,,,,,,,,,,,,,,,,,,,,,,001,171,2020_Feb_25_1529,spring_faces,3.1.5,60.0005470848234,
condition files/Stage2_1.xlsx,,B2,T2,r,"['s', 'r']","['Stratego', 'Risk']","[-0.15, 0.5]","[0.15, 0.5]",1,1,,,,,,,,,,,,,,,,,0,2,2,2,0,1,1,3,,,,,,,,,,,,,,,,,,,,,,,,,,,,,,,,,,,,,,,,,,,,,,,816.8937392710031,None,816.8937392710031,None,816.8937392710031,None,s,0,1.4885259469992889,818.4286332810007,None,818.4286332810007,None,818.4286332810007,None,819.9778341440033,None,819.9778341440033,None,819.9778341440033,None,819.9778341440033,None,,,,,,,,,,,,,,,,,,,,,,,,,,,,,,,,,,,,,,,,,,,,001,171,2020_Feb_25_1529,spring_faces,3.1.5,60.0005470848234,
condition files/Stage2_1.xlsx,,B4,T4,r,"['s', 'r']","['Stratego', 'Risk']","[-0.15, 0.5]","[0.15, 0.5]",1,1,,,,,,,,,,,,,,,,,0,2,2,2,0,2,2,5,,,,,,,,,,,,,,,,,,,,,,,,,,,,,,,,,,,,,,,,,,,,,,,821.944253261001,None,821.944253261001,None,821.944253261001,None,s,0,0.8066289519993006,823.4945756300003,None,823.4945756300003,None,823.4945756300003,None,824.3606040390005,None,824.3606040390005,None,824.3606040390005,None,824.3606040390005,None,,,,,,,,,,,,,,,,,,,,,,,,,,,,,,,,,,,,,,,,,,,,001,171,2020_Feb_25_1529,spring_faces,3.1.5,60.0005470848234,
condition files/Stage2_1.xlsx,,T3,B3,s,"['s', 'r']","['Stratego', 'Risk']","[-0.15, 0.5]","[0.15, 0.5]",1,1,,,,,,,,,,,,,,,,,0,2,2,2,0,3,3,4,,,,,,,,,,,,,,,,,,,,,,,,,,,,,,,,,,,,,,,,,,,,,,,826.327717938002,None,826.327717938002,None,826.327717938002,None,s,1,0.791213856999093,827.8779897640015,None,827.8779897640015,None,827.8779897640015,None,828.729032934003,None,828.729032934003,None,828.729032934003,None,828.729032934003,None,,,,,,,,,,,,,,,,,,,,,,,,,,,,,,,,,,,,,,,,,,,,001,171,2020_Feb_25_1529,spring_faces,3.1.5,60.0005470848234,
condition files/Stage2_1.xlsx,,T5,B5,s,"['s', 'r']","['Stratego', 'Risk']","[-0.15, 0.5]","[0.15, 0.5]",1,1,,,,,,,,,,,,,,,,,0,2,2,2,0,4,4,0,,,,,,,,,,,,,,,,,,,,,,,,,,,,,,,,,,,,,,,,,,,,,,,830.6937323359998,None,830.6937323359998,None,830.6937323359998,None,s,1,1.5917963499996404,832.2294040490015,None,832.2294040490015,None,832.2294040490015,None,833.8783097920023,None,833.8783097920023,None,833.8783097920023,None,833.8783097920023,None,,,,,,,,,,,,,,,,,,,,,,,,,,,,,,,,,,,,,,,,,,,,001,171,2020_Feb_25_1529,spring_faces,3.1.5,60.0005470848234,
condition files/Stage2_1.xlsx,,T1,B1,s,"['s', 'r']","['Stratego', 'Risk']","[-0.15, 0.5]","[0.15, 0.5]",1,1,,,,,,,,,,,,,,,,,0,2,2,2,0,5,5,2,,,,,,,,,,,,,,,,,,,,,,,,,,,,,,,,,,,,,,,,,,,,,,,835.8436929460004,None,835.8436929460004,None,835.8436929460004,None,r,0,0.603073433998361,837.3780624910032,None,837.3780624910032,None,837.3780624910032,None,838.0441803880021,None,838.0441803880021,None,838.0441803880021,None,838.0441803880021,None,,,,,,,,,,,,,,,,,,,,,,,,,,,,,,,,,,,,,,,,,,,,001,171,2020_Feb_25_1529,spring_faces,3.1.5,60.0005470848234,
condition files/Stage2_2.xlsx,,T6,B6,r,"['s', 'r']","['Stratego', 'Risk']","[-0.15, 0.5]","[0.15, 0.5]",1,1,,,,,,,,,,,,,,,,,0,3,3,3,0,0,0,1,,,,,,,,,,,,,,,,,,,,,,,,,,,,,,,,,,,,,,,,,,,,,,,840.0280283640022,None,840.0280283640022,None,840.0280283640022,None,r,1,1.5562520280000172,841.5609459590014,None,841.5609459590014,None,841.5609459590014,None,843.1948309290019,None,843.1948309290019,None,843.1948309290019,None,843.1948309290019,None,,,,,,,,,,,,,,,,,,,,,,,,,,,,,,,,,,,,,,,,,,,,001,171,2020_Feb_25_1529,spring_faces,3.1.5,60.0005470848234,
condition files/Stage2_2.xlsx,,T2,B2,r,"['s', 'r']","['Stratego', 'Risk']","[-0.15, 0.5]","[0.15, 0.5]",1,1,,,,,,,,,,,,,,,,,0,3,3,3,0,1,1,3,,,,,,,,,,,,,,,,,,,,,,,,,,,,,,,,,,,,,,,,,,,,,,,845.144245366002,None,845.144245366002,None,845.144245366002,None,r,1,1.2388972740009194,846.6783361790003,None,846.6783361790003,None,846.6783361790003,None,847.9780645820028,None,847.9780645820028,None,847.9780645820028,None,847.9780645820028,None,,,,,,,,,,,,,,,,,,,,,,,,,,,,,,,,,,,,,,,,,,,,001,171,2020_Feb_25_1529,spring_faces,3.1.5,60.0005470848234,
condition files/Stage2_2.xlsx,,B3,T3,s,"['s', 'r']","['Stratego', 'Risk']","[-0.15, 0.5]","[0.15, 0.5]",1,1,,,,,,,,,,,,,,,,,0,3,3,3,0,2,2,4,,,,,,,,,,,,,,,,,,,,,,,,,,,,,,,,,,,,,,,,,,,,,,,849.9446034770008,None,849.9446034770008,None,849.9446034770008,None,s,1,0.8706956759997411,851.4784549890028,None,851.4784549890028,None,851.4784549890028,None,852.4274739190005,None,852.4274739190005,None,852.4274739190005,None,852.4274739190005,None,,,,,,,,,,,,,,,,,,,,,,,,,,,,,,,,,,,,,,,,,,,,001,171,2020_Feb_25_1529,spring_faces,3.1.5,60.0005470848234,
condition files/Stage2_2.xlsx,,B5,T5,s,"['s', 'r']","['Stratego', 'Risk']","[-0.15, 0.5]","[0.15, 0.5]",1,1,,,,,,,,,,,,,,,,,0,3,3,3,0,3,3,0,,,,,,,,,,,,,,,,,,,,,,,,,,,,,,,,,,,,,,,,,,,,,,,854.3772723550028,None,854.3772723550028,None,854.3772723550028,None,r,0,1.125232802998653,855.9279618560031,None,855.9279618560031,None,855.9279618560031,None,857.1106438820025,None,857.1106438820025,None,857.1106438820025,None,857.1106438820025,None,,,,,,,,,,,,,,,,,,,,,,,,,,,,,,,,,,,,,,,,,,,,001,171,2020_Feb_25_1529,spring_faces,3.1.5,60.0005470848234,
condition files/Stage2_2.xlsx,,T4,B4,r,"['s', 'r']","['Stratego', 'Risk']","[-0.15, 0.5]","[0.15, 0.5]",1,1,,,,,,,,,,,,,,,,,0,3,3,3,0,4,4,5,,,,,,,,,,,,,,,,,,,,,,,,,,,,,,,,,,,,,,,,,,,,,,,859.0772107210032,None,859.0772107210032,None,859.0772107210032,None,r,1,1.0801540899992688,860.6129951760013,None,860.6129951760013,None,860.6129951760013,None,861.7612555310006,None,861.7612555310006,None,861.7612555310006,None,861.7612555310006,None,,,,,,,,,,,,,,,,,,,,,,,,,,,,,,,,,,,,,,,,,,,,001,171,2020_Feb_25_1529,spring_faces,3.1.5,60.0005470848234,
condition files/Stage2_2.xlsx,,B1,T1,s,"['s', 'r']","['Stratego', 'Risk']","[-0.15, 0.5]","[0.15, 0.5]",1,1,,,,,,,,,,,,,,,,,0,3,3,3,0,5,5,2,,,,,,,,,,,,,,,,,,,,,,,,,,,,,,,,,,,,,,,,,,,,,,,863.7112006240022,None,863.7112006240022,None,863.7112006240022,None,r,0,1.055889767001645,865.2613083450015,None,865.2613083450015,None,865.2613083450015,None,866.3784082810016,None,866.3784082810016,None,866.3784082810016,None,866.3784082810016,None,,,,,,,,,,,,,,,,,,,,,,,,,,,,,,,,,,,,,,,,,,,,001,171,2020_Feb_25_1529,spring_faces,3.1.5,60.0005470848234,
condition files/Stage2_1.xlsx,,B2,T2,r,"['s', 'r']","['Stratego', 'Risk']","[-0.15, 0.5]","[0.15, 0.5]",1,1,,,,,,,,,,,,,,,,,0,4,4,4,0,0,0,3,,,,,,,,,,,,,,,,,,,,,,,,,,,,,,,,,,,,,,,,,,,,,,,868.3614019310007,None,868.3614019310007,None,868.3614019310007,None,r,1,0.7094687610006076,869.8956966600017,None,869.8956966600017,None,869.8956966600017,None,870.6779742960025,None,870.6779742960025,None,870.6779742960025,None,870.6779742960025,None,,,,,,,,,,,,,,,,,,,,,,,,,,,,,,,,,,,,,,,,,,,,001,171,2020_Feb_25_1529,spring_faces,3.1.5,60.0005470848234,
condition files/Stage2_1.xlsx,,B4,T4,r,"['s', 'r']","['Stratego', 'Risk']","[-0.15, 0.5]","[0.15, 0.5]",1,1,,,,,,,,,,,,,,,,,0,4,4,4,0,1,1,5,,,,,,,,,,,,,,,,,,,,,,,,,,,,,,,,,,,,,,,,,,,,,,,872.6276508430019,None,872.6276508430019,None,872.6276508430019,None,r,1,0.922989882001275,874.1781894930027,None,874.1781894930027,None,874.1781894930027,None,875.1611147200019,None,875.1611147200019,None,875.1611147200019,None,875.1611147200019,None,,,,,,,,,,,,,,,,,,,,,,,,,,,,,,,,,,,,,,,,,,,,001,171,2020_Feb_25_1529,spring_faces,3.1.5,60.0005470848234,
condition files/Stage2_1.xlsx,,B6,T6,r,"['s', 'r']","['Stratego', 'Risk']","[-0.15, 0.5]","[0.15, 0.5]",1,1,,,,,,,,,,,,,,,,,0,4,4,4,0,2,2,1,,,,,,,,,,,,,,,,,,,,,,,,,,,,,,,,,,,,,,,,,,,,,,,877.1277801530014,None,877.1277801530014,None,877.1277801530014,None,r,1,0.9183178099992801,878.6628445960014,None,878.6628445960014,None,878.6628445960014,None,879.6443889399998,None,879.6443889399998,None,879.6443889399998,None,879.6443889399998,None,,,,,,,,,,,,,,,,,,,,,,,,,,,,,,,,,,,,,,,,,,,,001,171,2020_Feb_25_1529,spring_faces,3.1.5,60.0005470848234,
