condsFile,subStage,cue1,cue2,correct,responseKeys,responseNames,cue1Position,cue2Position,cue1Opacity,cue2Opacity,stageLoop0.thisRepN,stageLoop0.thisTrialN,stageLoop0.thisN,stageLoop0.thisIndex,blockLoop0.thisRepN,blockLoop0.thisTrialN,blockLoop0.thisN,blockLoop0.thisIndex,stage1Loop.thisRepN,stage1Loop.thisTrialN,stage1Loop.thisN,stage1Loop.thisIndex,blockLoop1.thisRepN,blockLoop1.thisTrialN,blockLoop1.thisN,blockLoop1.thisIndex,stage2Loop.thisRepN,stage2Loop.thisTrialN,stage2Loop.thisN,stage2Loop.thisIndex,blockLoop2.thisRepN,blockLoop2.thisTrialN,blockLoop2.thisN,blockLoop2.thisIndex,testLoop.thisRepN,testLoop.thisTrialN,testLoop.thisN,testLoop.thisIndex,blockLoopTest.thisRepN,blockLoopTest.thisTrialN,blockLoopTest.thisN,blockLoopTest.thisIndex,cuePics,id_instr_text.started,id_instr_text.stopped,space_to_continue_2.started,space_to_continue_2.stopped,end_instructions_resp_3.keys,end_instructions_resp_3.rt,end_instructions_resp_3.started,end_instructions_resp_3.stopped,id_input_instr.started,id_input_instr.stopped,id_input_rect.started,id_input_rect.stopped,id_input_resp.keys,id_input_resp.rt,id_input_resp.started,id_input_resp.stopped,sonaID,id_input_text.started,id_input_text.stopped,final_text.started,final_text.stopped,instructions.started,instructions.stopped,end_instructions_resp.keys,end_instructions_resp.rt,end_instructions_resp.started,end_instructions_resp.stopped,space_to_continue.started,space_to_continue.stopped,instructions_stage0.started,instructions_stage0.stopped,end_instructions_resp_stage0.keys,end_instructions_resp_stage0.rt,end_instructions_resp_stage0.started,end_instructions_resp_stage0.stopped,space_to_continue_stage0.started,space_to_continue_stage0.stopped,text.started,text.stopped,resp_text1.started,resp_text1.stopped,resp_text2.started,resp_text2.stopped,trial_resp.keys,trial_resp.corr,trial_resp.rt,trial_resp.started,trial_resp.stopped,cue1Image.started,cue1Image.stopped,cue2Image.started,cue2Image.stopped,cue1Image_fb.started,cue1Image_fb.stopped,cue2Image_fb.started,cue2Image_fb.stopped,fb_text_answer.started,fb_text_answer.stopped,feedback_image.started,feedback_image.stopped,instructions_stage1.started,instructions_stage1.stopped,end_instructions_resp_stage1.keys,end_instructions_resp_stage1.rt,end_instructions_resp_stage1.started,end_instructions_resp_stage1.stopped,space_to_continue_stage1.started,space_to_continue_stage1.stopped,instructions_2.started,instructions_2.stopped,end_instructions_resp_2.keys,end_instructions_resp_2.rt,end_instructions_resp_2.started,end_instructions_resp_2.stopped,press_space_to_continue_stage2.started,press_space_to_continue_stage2.stopped,instructions_testStage1.started,instructions_testStage1.stopped,end_instructions_resp_test1.keys,end_instructions_resp_test1.rt,end_instructions_resp_test1.started,end_instructions_resp_test1.stopped,press_space_to_continue_test1.started,press_space_to_continue_test1.stopped,cue1Image_testChoice.started,cue1Image_testChoice.stopped,cue2Image_testChoice.started,cue2Image_testChoice.stopped,test_resp.keys,test_resp.corr,test_resp.rt,test_resp.started,test_resp.stopped,cue1Image_testConf.started,cue1Image_testConf.stopped,cue2Image_testConf.started,cue2Image_testConf.stopped,conf_reminder.started,conf_reminder.stopped,conf_rating.response,conf_rating.rt,conf_rating.started,conf_rating.stopped,session,participant,date,expName,psychopyVersion,frameRate,
,,,,,,,,,,,,,,,,,,,,,,,,,,,,,,,,,,,,,,,,,,,"{'none': 'pictures/20M_AN_C.png', 'alpha': 'pictures/SHINEd_pepper.png', 'beta': 'pictures/SHINEd_melon.png', 'theta': 'pictures/SHINEd_pear.png', 'phi': 'pictures/SHINEd_apple.png', 'T1': 'pictures/25M_AN_C.png', 'T2': 'pictures/22M_AN_C.png', 'T3': 'pictures/38M_AN_C.png', 'T4': 'pictures/33M_AN_C.png', 'T5': 'pictures/20M_AN_C.png', 'T6': 'pictures/32M_AN_C.png', 'B1': 'pictures/36M_NE_C.png', 'B2': 'pictures/23M_NE_C.png', 'B3': 'pictures/34M_NE_C.png', 'B4': 'pictures/26M_NE_C.png', 'B5': 'pictures/31M_NE_C.png', 'B6': 'pictures/37M_NE_C.png'}",20.227033672999823,None,25.19386962899989,None,space,324.41861162299983,25.19386962899989,None,,,,,,,,,,,,,,,,,,,,,,,,,,,,,,,,,,,,,,,,,,,,,,,,,,,,,,,,,,,,,,,,,,,,,,,,,,,,,,,,,,,,,,,,,,,,,,,,001,174,2020_Feb_27_0927,spring_faces,3.2.3,60.004448369774714,
,,,,,,,,,,,,,,,,,,,,,,,,,,,,,,,,,,,,,,,,,,,,,,,,,,,,350.426306758,None,350.426306758,None,"['a', 's', 'd', 'backspace', 'backspace', 'backspace', '0', '7', '2', '7', 'p', 'i', 'g', 'u', 'a', '0', '7', '2', '7', 'p', 'i', 'g', 'u', 'a', '0', '6', 'backspace', '7', '2', '7', 'p', 'i', 'g', 'u', 'a']","[34.658270906000325, 34.770181183000204, 34.93042658600007, 36.33835913300027, 36.498322288000054, 36.65827111600038, 38.306281517000116, 38.40219858300043, 74.14629693200004, 74.30627671900038, 128.11433141100042, 128.33832458200004, 143.7943009290002, 143.89025093100008, 144.09843120600044, 165.47427799700017, 165.6182042280002, 166.3862079700002, 166.70627937300014, 170.3062879070003, 170.45031921500004, 177.66640621100032, 177.778304424, 177.95421474700015, 228.29026337700043, 228.43423420000045, 229.23419850900018, 229.57019132700043, 230.51433995900015, 230.83419428800016, 235.6182061090003, 236.06642377800017, 237.29836604900038, 237.39430281400018, 237.58617046100017]",350.426306758,None,,,,,,,,,,,,,,,,,,,,,,,,,,,,,,,,,,,,,,,,,,,,,,,,,,,,,,,,,,,,,,,,,,,,,,,,,,,,,,,,,,,,,,,,001,174,2020_Feb_27_0927,spring_faces,3.2.3,60.004448369774714,
,,,,,,,,,,,,,,,,,,,,,,,,,,,,,,,,,,,,,,,,,,,,,,,,,,,,,,,,,,,,0727pigua,350.426306758,None,350.426306758,None,593.0772301459997,None,space,4.623979194000185,598.0605273639999,None,,,,,,,,,,,,,,,,,,,,,,,,,,,,,,,,,,,,,,,,,,,,,,,,,,,,,,,,,,,,,,,,,,,,,,,,,,,,,001,174,2020_Feb_27_0927,spring_faces,3.2.3,60.004448369774714,
,,,,,,,,,,,,,,,,,,,,,,,,,,,,,,,,,,,,,,,,,,,,,,,,,,,,,,,,,,,,,,,,,,,,,,,598.0605273639999,None,602.7105306209996,None,space,17.566809019000175,607.6937373789997,None,,,,,,,,,,,,,,,,,,,,,,,,,,,,,,,,,,,,,,,,,,,,,,,,,,,,,,,,,,,,,,,,,,,,,001,174,2020_Feb_27_0927,spring_faces,3.2.3,60.004448369774714,
condition files/Stage0a.xlsx,0a,alpha,none,h,"['h', 'g']","['Chess', 'Go']","[0, 0.5]","[0, 0]",1,0,0,0,0,0,0,0,0,0,,,,,,,,,,,,,,,,,,,,,,,,,,,,,,,,,,,,,,,,,,,,,,,,,,,,,,,,,,,,,607.6937373789997,None,625.6438622469996,None,625.6438622469996,None,625.6438622469996,None,h,1,0.4749516990000302,627.0096945099999,None,627.0096945099999,None,627.0096945099999,None,627.5938822879998,None,627.5938822879998,None,627.5938822879998,None,627.5938822879998,None,,,,,,,,,,,,,,,,,,,,,,,,,,,,,,,,,,,,,,,,,,,,001,174,2020_Feb_27_0927,spring_faces,3.2.3,60.004448369774714,
condition files/Stage0a.xlsx,0a,beta,none,g,"['h', 'g']","['Chess', 'Go']","[0, 0.5]","[0, 0]",1,0,0,0,0,0,0,1,1,1,,,,,,,,,,,,,,,,,,,,,,,,,,,,,,,,,,,,,,,,,,,,,,,,,,,,,,,,,,,,,,,629.5271989359999,None,629.5271989359999,None,629.5271989359999,None,g,1,4.502053556000192,631.1105128139998,None,631.1105128139998,None,631.1105128139998,None,635.693795272,None,635.693795272,None,635.693795272,None,635.693795272,None,,,,,,,,,,,,,,,,,,,,,,,,,,,,,,,,,,,,,,,,,,,,001,174,2020_Feb_27_0927,spring_faces,3.2.3,60.004448369774714,
condition files/Stage0a.xlsx,0a,alpha,none,h,"['h', 'g']","['Chess', 'Go']","[0, 0.5]","[0, 0]",1,0,0,1,1,1,0,0,0,0,,,,,,,,,,,,,,,,,,,,,,,,,,,,,,,,,,,,,,,,,,,,,,,,,,,,,,,,,,,,,,,637.6770799289998,None,637.6770799289998,None,637.6770799289998,None,h,1,2.049984986000254,639.2105006799998,None,639.2105006799998,None,639.2105006799998,None,641.3271492939998,None,641.3271492939998,None,641.3271492939998,None,641.3271492939998,None,,,,,,,,,,,,,,,,,,,,,,,,,,,,,,,,,,,,,,,,,,,,001,174,2020_Feb_27_0927,spring_faces,3.2.3,60.004448369774714,
condition files/Stage0a.xlsx,0a,beta,none,g,"['h', 'g']","['Chess', 'Go']","[0, 0.5]","[0, 0]",1,0,0,1,1,1,0,1,1,1,,,,,,,,,,,,,,,,,,,,,,,,,,,,,,,,,,,,,,,,,,,,,,,,,,,,,,,,,,,,,,,643.2938510479999,None,643.2938510479999,None,643.2938510479999,None,g,1,0.8974704970000857,644.8271712319997,None,644.8271712319997,None,644.8271712319997,None,645.7771070079998,None,645.7771070079998,None,645.7771070079998,None,645.7771070079998,None,,,,,,,,,,,,,,,,,,,,,,,,,,,,,,,,,,,,,,,,,,,,001,174,2020_Feb_27_0927,spring_faces,3.2.3,60.004448369774714,
condition files/Stage0a.xlsx,0a,beta,none,g,"['h', 'g']","['Chess', 'Go']","[0, 0.5]","[0, 0]",1,0,0,2,2,2,0,0,0,1,,,,,,,,,,,,,,,,,,,,,,,,,,,,,,,,,,,,,,,,,,,,,,,,,,,,,,,,,,,,,,,647.7771324619998,None,647.7771324619998,None,647.7771324619998,None,h,0,1.2781240379999872,649.3104669919999,None,649.3104669919999,None,649.3104669919999,None,650.9605193039997,None,650.9605193039997,None,650.9605193039997,None,650.9605193039997,None,,,,,,,,,,,,,,,,,,,,,,,,,,,,,,,,,,,,,,,,,,,,001,174,2020_Feb_27_0927,spring_faces,3.2.3,60.004448369774714,
condition files/Stage0a.xlsx,0a,alpha,none,h,"['h', 'g']","['Chess', 'Go']","[0, 0.5]","[0, 0]",1,0,0,2,2,2,0,1,1,0,,,,,,,,,,,,,,,,,,,,,,,,,,,,,,,,,,,,,,,,,,,,,,,,,,,,,,,,,,,,,,,652.6271831499998,None,652.6271831499998,None,652.6271831499998,None,g,0,1.6762087209999663,654.1603895809999,None,654.1603895809999,None,654.1603895809999,None,655.9105103789998,None,655.9105103789998,None,655.9105103789998,None,655.9105103789998,None,,,,,,,,,,,,,,,,,,,,,,,,,,,,,,,,,,,,,,,,,,,,001,174,2020_Feb_27_0927,spring_faces,3.2.3,60.004448369774714,
condition files/Stage0a.xlsx,0a,alpha,none,h,"['h', 'g']","['Chess', 'Go']","[0, 0.5]","[0, 0]",1,0,0,3,3,3,0,0,0,0,,,,,,,,,,,,,,,,,,,,,,,,,,,,,,,,,,,,,,,,,,,,,,,,,,,,,,,,,,,,,,,657.893774315,None,657.893774315,None,657.893774315,None,h,1,0.921414067999649,659.4271675999998,None,659.4271675999998,None,659.4271675999998,None,660.4105446099998,None,660.4105446099998,None,660.4105446099998,None,660.4105446099998,None,,,,,,,,,,,,,,,,,,,,,,,,,,,,,,,,,,,,,,,,,,,,001,174,2020_Feb_27_0927,spring_faces,3.2.3,60.004448369774714,
condition files/Stage0a.xlsx,0a,beta,none,g,"['h', 'g']","['Chess', 'Go']","[0, 0.5]","[0, 0]",1,0,0,3,3,3,0,1,1,1,,,,,,,,,,,,,,,,,,,,,,,,,,,,,,,,,,,,,,,,,,,,,,,,,,,,,,,,,,,,,,,662.3938055669996,None,662.3938055669996,None,662.3938055669996,None,h,0,1.0454258889999437,663.9271440429998,None,663.9271440429998,None,663.9271440429998,None,665.02712191,None,665.02712191,None,665.02712191,None,665.02712191,None,,,,,,,,,,,,,,,,,,,,,,,,,,,,,,,,,,,,,,,,,,,,001,174,2020_Feb_27_0927,spring_faces,3.2.3,60.004448369774714,
condition files/Stage0a.xlsx,0a,alpha,none,h,"['h', 'g']","['Chess', 'Go']","[0, 0.5]","[0, 0]",1,0,0,4,4,4,0,0,0,0,,,,,,,,,,,,,,,,,,,,,,,,,,,,,,,,,,,,,,,,,,,,,,,,,,,,,,,,,,,,,,,667.027205504,None,667.027205504,None,667.027205504,None,h,1,1.3240313790001892,668.5605400709997,None,668.5605400709997,None,668.5605400709997,None,669.943862912,None,669.943862912,None,669.943862912,None,669.943862912,None,,,,,,,,,,,,,,,,,,,,,,,,,,,,,,,,,,,,,,,,,,,,001,174,2020_Feb_27_0927,spring_faces,3.2.3,60.004448369774714,
condition files/Stage0a.xlsx,0a,beta,none,g,"['h', 'g']","['Chess', 'Go']","[0, 0.5]","[0, 0]",1,0,0,4,4,4,0,1,1,1,,,,,,,,,,,,,,,,,,,,,,,,,,,,,,,,,,,,,,,,,,,,,,,,,,,,,,,,,,,,,,,671.9272158239996,None,671.9272158239996,None,671.9272158239996,None,g,1,0.24811402599971188,673.4605586389998,None,673.4605586389998,None,673.4605586389998,None,673.7603747099997,None,673.7603747099997,None,673.7603747099997,None,673.7603747099997,None,,,,,,,,,,,,,,,,,,,,,,,,,,,,,,,,,,,,,,,,,,,,001,174,2020_Feb_27_0927,spring_faces,3.2.3,60.004448369774714,
condition files/Stage0a.xlsx,0a,beta,none,g,"['h', 'g']","['Chess', 'Go']","[0, 0.5]","[0, 0]",1,0,0,5,5,5,0,0,0,1,,,,,,,,,,,,,,,,,,,,,,,,,,,,,,,,,,,,,,,,,,,,,,,,,,,,,,,,,,,,,,,675.7603467179997,None,675.7603467179997,None,675.7603467179997,None,g,1,0.5427253469997595,677.2938655229996,None,677.2938655229996,None,677.2938655229996,None,677.8938512109999,None,677.8938512109999,None,677.8938512109999,None,677.8938512109999,None,,,,,,,,,,,,,,,,,,,,,,,,,,,,,,,,,,,,,,,,,,,,001,174,2020_Feb_27_0927,spring_faces,3.2.3,60.004448369774714,
condition files/Stage0a.xlsx,0a,alpha,none,h,"['h', 'g']","['Chess', 'Go']","[0, 0.5]","[0, 0]",1,0,0,5,5,5,0,1,1,0,,,,,,,,,,,,,,,,,,,,,,,,,,,,,,,,,,,,,,,,,,,,,,,,,,,,,,,,,,,,,,,679.8772237099997,None,679.8772237099997,None,679.8772237099997,None,h,1,0.5859784029998991,681.4105511889998,None,681.4105511889998,None,681.4105511889998,None,682.0605908089997,None,682.0605908089997,None,682.0605908089997,None,682.0605908089997,None,,,,,,,,,,,,,,,,,,,,,,,,,,,,,,,,,,,,,,,,,,,,001,174,2020_Feb_27_0927,spring_faces,3.2.3,60.004448369774714,
condition files/Stage0b_1.xlsx,0b,none,beta,g,"['h', 'g']","['Chess', 'Go']","[-0.15, 0.5]","[0.15, 0.5]",0,1,0,6,6,6,0,0,0,1,,,,,,,,,,,,,,,,,,,,,,,,,,,,,,,,,,,,,,,,,,,,,,,,,,,,,,,,,,,,,,,684.3605388419996,None,684.3605388419996,None,684.3605388419996,None,g,1,1.0422780700000658,685.6103472219997,None,685.6103472219997,None,685.6103472219997,None,686.7272265209999,None,686.7272265209999,None,686.7272265209999,None,686.7272265209999,None,,,,,,,,,,,,,,,,,,,,,,,,,,,,,,,,,,,,,,,,,,,,001,174,2020_Feb_27_0927,spring_faces,3.2.3,60.004448369774714,
condition files/Stage0b_1.xlsx,0b,alpha,none,h,"['h', 'g']","['Chess', 'Go']","[-0.15, 0.5]","[0.15, 0.5]",1,0,0,6,6,6,0,1,1,0,,,,,,,,,,,,,,,,,,,,,,,,,,,,,,,,,,,,,,,,,,,,,,,,,,,,,,,,,,,,,,,688.6937614879998,None,688.6937614879998,None,688.6937614879998,None,h,1,0.633488042999943,690.2270551309998,None,690.2270551309998,None,690.2270551309998,None,690.9270926029999,None,690.9270926029999,None,690.9270926029999,None,690.9270926029999,None,,,,,,,,,,,,,,,,,,,,,,,,,,,,,,,,,,,,,,,,,,,,001,174,2020_Feb_27_0927,spring_faces,3.2.3,60.004448369774714,
condition files/Stage0b_2.xlsx,0b,beta,none,g,"['h', 'g']","['Chess', 'Go']","[-0.15, 0.5]","[0.15, 0.5]",1,0,0,7,7,7,0,0,0,1,,,,,,,,,,,,,,,,,,,,,,,,,,,,,,,,,,,,,,,,,,,,,,,,,,,,,,,,,,,,,,,692.9770782639998,None,692.9770782639998,None,692.9770782639998,None,g,1,0.6886888639996869,694.4438790149998,None,694.4438790149998,None,694.4438790149998,None,695.193878568,None,695.193878568,None,695.193878568,None,695.193878568,None,,,,,,,,,,,,,,,,,,,,,,,,,,,,,,,,,,,,,,,,,,,,001,174,2020_Feb_27_0927,spring_faces,3.2.3,60.004448369774714,
condition files/Stage0b_2.xlsx,0b,none,alpha,h,"['h', 'g']","['Chess', 'Go']","[-0.15, 0.5]","[0.15, 0.5]",0,1,0,7,7,7,0,1,1,0,,,,,,,,,,,,,,,,,,,,,,,,,,,,,,,,,,,,,,,,,,,,,,,,,,,,,,,,,,,,,,,697.1772030119996,None,697.1772030119996,None,697.1772030119996,None,h,1,0.8700605050003105,698.7105005679996,None,698.7105005679996,None,698.7105005679996,None,699.6605708299999,None,699.6605708299999,None,699.6605708299999,None,699.6605708299999,None,,,,,,,,,,,,,,,,,,,,,,,,,,,,,,,,,,,,,,,,,,,,001,174,2020_Feb_27_0927,spring_faces,3.2.3,60.004448369774714,
condition files/Stage0b_1.xlsx,0b,alpha,none,h,"['h', 'g']","['Chess', 'Go']","[-0.15, 0.5]","[0.15, 0.5]",1,0,0,8,8,8,0,0,0,0,,,,,,,,,,,,,,,,,,,,,,,,,,,,,,,,,,,,,,,,,,,,,,,,,,,,,,,,,,,,,,,701.6438510999997,None,701.6438510999997,None,701.6438510999997,None,h,1,1.0114943389999098,703.1771000809999,None,703.1771000809999,None,703.1771000809999,None,704.2434170189999,None,704.2434170189999,None,704.2434170189999,None,704.2434170189999,None,,,,,,,,,,,,,,,,,,,,,,,,,,,,,,,,,,,,,,,,,,,,001,174,2020_Feb_27_0927,spring_faces,3.2.3,60.004448369774714,
condition files/Stage0b_1.xlsx,0b,none,beta,g,"['h', 'g']","['Chess', 'Go']","[-0.15, 0.5]","[0.15, 0.5]",0,1,0,8,8,8,0,1,1,1,,,,,,,,,,,,,,,,,,,,,,,,,,,,,,,,,,,,,,,,,,,,,,,,,,,,,,,,,,,,,,,706.2271468429999,None,706.2271468429999,None,706.2271468429999,None,g,1,0.5399103880004077,707.7605433069998,None,707.7605433069998,None,707.7605433069998,None,708.3772206859999,None,708.3772206859999,None,708.3772206859999,None,708.3772206859999,None,,,,,,,,,,,,,,,,,,,,,,,,,,,,,,,,,,,,,,,,,,,,001,174,2020_Feb_27_0927,spring_faces,3.2.3,60.004448369774714,
condition files/Stage0b_2.xlsx,0b,beta,none,g,"['h', 'g']","['Chess', 'Go']","[-0.15, 0.5]","[0.15, 0.5]",1,0,0,9,9,9,0,0,0,1,,,,,,,,,,,,,,,,,,,,,,,,,,,,,,,,,,,,,,,,,,,,,,,,,,,,,,,,,,,,,,,710.3605501479997,None,710.3605501479997,None,710.3605501479997,None,g,1,0.66306682000004,711.893633532,None,711.893633532,None,711.893633532,None,712.6101715689997,None,712.6101715689997,None,712.6101715689997,None,712.6101715689997,None,,,,,,,,,,,,,,,,,,,,,,,,,,,,,,,,,,,,,,,,,,,,001,174,2020_Feb_27_0927,spring_faces,3.2.3,60.004448369774714,
condition files/Stage0b_2.xlsx,0b,none,alpha,h,"['h', 'g']","['Chess', 'Go']","[-0.15, 0.5]","[0.15, 0.5]",0,1,0,9,9,9,0,1,1,0,,,,,,,,,,,,,,,,,,,,,,,,,,,,,,,,,,,,,,,,,,,,,,,,,,,,,,,,,,,,,,,714.593885283,None,714.593885283,None,714.593885283,None,h,1,1.325530727000114,716.1270630399999,None,716.1270630399999,None,716.1270630399999,None,717.5271852159999,None,717.5271852159999,None,717.5271852159999,None,717.5271852159999,None,,,,,,,,,,,,,,,,,,,,,,,,,,,,,,,,,,,,,,,,,,,,001,174,2020_Feb_27_0927,spring_faces,3.2.3,60.004448369774714,
condition files/Stage0b_1.xlsx,0b,none,beta,g,"['h', 'g']","['Chess', 'Go']","[-0.15, 0.5]","[0.15, 0.5]",0,1,0,10,10,10,0,0,0,1,,,,,,,,,,,,,,,,,,,,,,,,,,,,,,,,,,,,,,,,,,,,,,,,,,,,,,,,,,,,,,,719.5104989329998,None,719.5104989329998,None,719.5104989329998,None,g,1,0.6487823130000834,721.0438715129999,None,721.0438715129999,None,721.0438715129999,None,721.7604344499996,None,721.7604344499996,None,721.7604344499996,None,721.7604344499996,None,,,,,,,,,,,,,,,,,,,,,,,,,,,,,,,,,,,,,,,,,,,,001,174,2020_Feb_27_0927,spring_faces,3.2.3,60.004448369774714,
condition files/Stage0b_1.xlsx,0b,alpha,none,h,"['h', 'g']","['Chess', 'Go']","[-0.15, 0.5]","[0.15, 0.5]",1,0,0,10,10,10,0,1,1,0,,,,,,,,,,,,,,,,,,,,,,,,,,,,,,,,,,,,,,,,,,,,,,,,,,,,,,,,,,,,,,,723.7271276459996,None,723.7271276459996,None,723.7271276459996,None,h,1,1.7922509289996924,725.2602664619999,None,725.2602664619999,None,725.2602664619999,None,727.1272145809999,None,727.1272145809999,None,727.1272145809999,None,727.1272145809999,None,,,,,,,,,,,,,,,,,,,,,,,,,,,,,,,,,,,,,,,,,,,,001,174,2020_Feb_27_0927,spring_faces,3.2.3,60.004448369774714,
condition files/Stage0b_2.xlsx,0b,none,alpha,h,"['h', 'g']","['Chess', 'Go']","[-0.15, 0.5]","[0.15, 0.5]",0,1,0,11,11,11,0,0,0,0,,,,,,,,,,,,,,,,,,,,,,,,,,,,,,,,,,,,,,,,,,,,,,,,,,,,,,,,,,,,,,,729.1105490909999,None,729.1105490909999,None,729.1105490909999,None,h,1,2.744732899000155,730.64385812,None,730.64385812,None,730.64385812,None,733.4438615549998,None,733.4438615549998,None,733.4438615549998,None,733.4438615549998,None,,,,,,,,,,,,,,,,,,,,,,,,,,,,,,,,,,,,,,,,,,,,001,174,2020_Feb_27_0927,spring_faces,3.2.3,60.004448369774714,
condition files/Stage0b_2.xlsx,0b,beta,none,g,"['h', 'g']","['Chess', 'Go']","[-0.15, 0.5]","[0.15, 0.5]",1,0,0,11,11,11,0,1,1,1,,,,,,,,,,,,,,,,,,,,,,,,,,,,,,,,,,,,,,,,,,,,,,,,,,,,,,,,,,,,,,,735.4271764309997,None,735.4271764309997,None,735.4271764309997,None,g,1,1.5323261499997898,736.9603436389998,None,736.9603436389998,None,736.9603436389998,None,738.5604285069999,None,738.5604285069999,None,738.5604285069999,None,738.5604285069999,None,,,,,,,,,,,,,,,,,,,,,,,,,,,,,,,,,,,,,,,,,,,,001,174,2020_Feb_27_0927,spring_faces,3.2.3,60.004448369774714,
condition files/Stage0c_1.xlsx,0c,phi,beta,g,"['h', 'g']","['Chess', 'Go']","[-0.15, 0.5]","[0.15, 0.5]",1,1,0,12,12,12,0,0,0,3,,,,,,,,,,,,,,,,,,,,,,,,,,,,,,,,,,,,,,,,,,,,,,,,,,,,,,,,,,,,,,,740.8605694009998,None,740.8605694009998,None,740.8605694009998,None,h,0,11.502383183999882,742.1101544029998,None,742.1101544029998,None,742.1101544029998,None,753.677107777,None,753.677107777,None,753.677107777,None,753.677107777,None,,,,,,,,,,,,,,,,,,,,,,,,,,,,,,,,,,,,,,,,,,,,001,174,2020_Feb_27_0927,spring_faces,3.2.3,60.004448369774714,
condition files/Stage0c_1.xlsx,0c,alpha,phi,h,"['h', 'g']","['Chess', 'Go']","[-0.15, 0.5]","[0.15, 0.5]",1,1,0,12,12,12,0,1,1,1,,,,,,,,,,,,,,,,,,,,,,,,,,,,,,,,,,,,,,,,,,,,,,,,,,,,,,,,,,,,,,,755.6606021559996,None,755.6606021559996,None,755.6606021559996,None,h,1,3.635296326000116,757.1772224309998,None,757.1772224309998,None,757.1772224309998,None,760.877146588,None,760.877146588,None,760.877146588,None,760.877146588,None,,,,,,,,,,,,,,,,,,,,,,,,,,,,,,,,,,,,,,,,,,,,001,174,2020_Feb_27_0927,spring_faces,3.2.3,60.004448369774714,
condition files/Stage0c_1.xlsx,0c,theta,alpha,h,"['h', 'g']","['Chess', 'Go']","[-0.15, 0.5]","[0.15, 0.5]",1,1,0,12,12,12,0,2,2,0,,,,,,,,,,,,,,,,,,,,,,,,,,,,,,,,,,,,,,,,,,,,,,,,,,,,,,,,,,,,,,,762.8605745549999,None,762.8605745549999,None,762.8605745549999,None,h,1,1.3827643859999625,764.6938133679996,None,764.6938133679996,None,764.6938133679996,None,766.1271371069997,None,766.1271371069997,None,766.1271371069997,None,766.1271371069997,None,,,,,,,,,,,,,,,,,,,,,,,,,,,,,,,,,,,,,,,,,,,,001,174,2020_Feb_27_0927,spring_faces,3.2.3,60.004448369774714,
condition files/Stage0c_1.xlsx,0c,beta,theta,g,"['h', 'g']","['Chess', 'Go']","[-0.15, 0.5]","[0.15, 0.5]",1,1,0,12,12,12,0,3,3,2,,,,,,,,,,,,,,,,,,,,,,,,,,,,,,,,,,,,,,,,,,,,,,,,,,,,,,,,,,,,,,,768.1104392479997,None,768.1104392479997,None,768.1104392479997,None,g,1,0.8006132830000752,769.6438691049998,None,769.6438691049998,None,769.6438691049998,None,770.5271742409996,None,770.5271742409996,None,770.5271742409996,None,770.5271742409996,None,,,,,,,,,,,,,,,,,,,,,,,,,,,,,,,,,,,,,,,,,,,,001,174,2020_Feb_27_0927,spring_faces,3.2.3,60.004448369774714,
condition files/Stage0c_2.xlsx,0c,beta,phi,g,"['h', 'g']","['Chess', 'Go']","[-0.15, 0.5]","[0.15, 0.5]",1,1,0,13,13,13,0,0,0,3,,,,,,,,,,,,,,,,,,,,,,,,,,,,,,,,,,,,,,,,,,,,,,,,,,,,,,,,,,,,,,,772.5438879479998,None,772.5438879479998,None,772.5438879479998,None,g,1,0.8327724900000248,774.0438879389999,None,774.0438879389999,None,774.0438879389999,None,774.9271227709996,None,774.9271227709996,None,774.9271227709996,None,774.9271227709996,None,,,,,,,,,,,,,,,,,,,,,,,,,,,,,,,,,,,,,,,,,,,,001,174,2020_Feb_27_0927,spring_faces,3.2.3,60.004448369774714,
condition files/Stage0c_2.xlsx,0c,alpha,theta,h,"['h', 'g']","['Chess', 'Go']","[-0.15, 0.5]","[0.15, 0.5]",1,1,0,13,13,13,0,1,1,0,,,,,,,,,,,,,,,,,,,,,,,,,,,,,,,,,,,,,,,,,,,,,,,,,,,,,,,,,,,,,,,776.9104551729997,None,776.9104551729997,None,776.9104551729997,None,h,1,1.1532849590003025,778.4271920589999,None,778.4271920589999,None,778.4271920589999,None,779.6438531429999,None,779.6438531429999,None,779.6438531429999,None,779.6438531429999,None,,,,,,,,,,,,,,,,,,,,,,,,,,,,,,,,,,,,,,,,,,,,001,174,2020_Feb_27_0927,spring_faces,3.2.3,60.004448369774714,
condition files/Stage0c_2.xlsx,0c,theta,beta,g,"['h', 'g']","['Chess', 'Go']","[-0.15, 0.5]","[0.15, 0.5]",1,1,0,13,13,13,0,2,2,2,,,,,,,,,,,,,,,,,,,,,,,,,,,,,,,,,,,,,,,,,,,,,,,,,,,,,,,,,,,,,,,781.6272005889996,None,781.6272005889996,None,781.6272005889996,None,g,1,1.6040117649999956,783.1605515729998,None,783.1605515729998,None,783.1605515729998,None,784.8272401259997,None,784.8272401259997,None,784.8272401259997,None,784.8272401259997,None,,,,,,,,,,,,,,,,,,,,,,,,,,,,,,,,,,,,,,,,,,,,001,174,2020_Feb_27_0927,spring_faces,3.2.3,60.004448369774714,
condition files/Stage0c_2.xlsx,0c,phi,alpha,h,"['h', 'g']","['Chess', 'Go']","[-0.15, 0.5]","[0.15, 0.5]",1,1,0,13,13,13,0,3,3,1,,,,,,,,,,,,,,,,,,,,,,,,,,,,,,,,,,,,,,,,,,,,,,,,,,,,,,,,,,,,,,,786.8105178209998,None,786.8105178209998,None,786.8105178209998,None,h,1,1.2056112599998414,788.3269757989997,None,788.3269757989997,None,788.3269757989997,None,789.5938594919999,None,789.5938594919999,None,789.5938594919999,None,789.5938594919999,None,,,,,,,,,,,,,,,,,,,,,,,,,,,,,,,,,,,,,,,,,,,,001,174,2020_Feb_27_0927,spring_faces,3.2.3,60.004448369774714,
condition files/Stage0c_1.xlsx,0c,alpha,phi,h,"['h', 'g']","['Chess', 'Go']","[-0.15, 0.5]","[0.15, 0.5]",1,1,0,14,14,14,0,0,0,1,,,,,,,,,,,,,,,,,,,,,,,,,,,,,,,,,,,,,,,,,,,,,,,,,,,,,,,,,,,,,,,791.5938672789998,None,791.5938672789998,None,791.5938672789998,None,h,1,1.6213717549999274,793.1272115049997,None,793.1272115049997,None,793.1272115049997,None,794.8105207179997,None,794.8105207179997,None,794.8105207179997,None,794.8105207179997,None,,,,,,,,,,,,,,,,,,,,,,,,,,,,,,,,,,,,,,,,,,,,001,174,2020_Feb_27_0927,spring_faces,3.2.3,60.004448369774714,
condition files/Stage0c_1.xlsx,0c,beta,theta,g,"['h', 'g']","['Chess', 'Go']","[-0.15, 0.5]","[0.15, 0.5]",1,1,0,14,14,14,0,1,1,2,,,,,,,,,,,,,,,,,,,,,,,,,,,,,,,,,,,,,,,,,,,,,,,,,,,,,,,,,,,,,,,796.7938858549996,None,796.7938858549996,None,796.7938858549996,None,g,1,1.0621005070001956,798.310374359,None,798.310374359,None,798.310374359,None,799.427191281,None,799.427191281,None,799.427191281,None,799.427191281,None,,,,,,,,,,,,,,,,,,,,,,,,,,,,,,,,,,,,,,,,,,,,001,174,2020_Feb_27_0927,spring_faces,3.2.3,60.004448369774714,
condition files/Stage0c_1.xlsx,0c,theta,alpha,h,"['h', 'g']","['Chess', 'Go']","[-0.15, 0.5]","[0.15, 0.5]",1,1,0,14,14,14,0,2,2,0,,,,,,,,,,,,,,,,,,,,,,,,,,,,,,,,,,,,,,,,,,,,,,,,,,,,,,,,,,,,,,,801.4104727139998,None,801.4104727139998,None,801.4104727139998,None,h,1,1.1017526079999698,802.9267514509997,None,802.9267514509997,None,802.9267514509997,None,804.093832179,None,804.093832179,None,804.093832179,None,804.093832179,None,,,,,,,,,,,,,,,,,,,,,,,,,,,,,,,,,,,,,,,,,,,,001,174,2020_Feb_27_0927,spring_faces,3.2.3,60.004448369774714,
condition files/Stage0c_1.xlsx,0c,phi,beta,g,"['h', 'g']","['Chess', 'Go']","[-0.15, 0.5]","[0.15, 0.5]",1,1,0,14,14,14,0,3,3,3,,,,,,,,,,,,,,,,,,,,,,,,,,,,,,,,,,,,,,,,,,,,,,,,,,,,,,,,,,,,,,,806.0937932499996,None,806.0937932499996,None,806.0937932499996,None,g,1,1.3133956510000644,807.6271860309998,None,807.6271860309998,None,807.6271860309998,None,808.993847495,None,808.993847495,None,808.993847495,None,808.993847495,None,,,,,,,,,,,,,,,,,,,,,,,,,,,,,,,,,,,,,,,,,,,,001,174,2020_Feb_27_0927,spring_faces,3.2.3,60.004448369774714,
condition files/Stage0c_2.xlsx,0c,phi,alpha,h,"['h', 'g']","['Chess', 'Go']","[-0.15, 0.5]","[0.15, 0.5]",1,1,0,15,15,15,0,0,0,1,,,,,,,,,,,,,,,,,,,,,,,,,,,,,,,,,,,,,,,,,,,,,,,,,,,,,,,,,,,,,,,810.993840699,None,810.993840699,None,810.993840699,None,h,1,0.7496840009998778,812.5270440189997,None,812.5270440189997,None,812.5270440189997,None,813.3272151409997,None,813.3272151409997,None,813.3272151409997,None,813.3272151409997,None,,,,,,,,,,,,,,,,,,,,,,,,,,,,,,,,,,,,,,,,,,,,001,174,2020_Feb_27_0927,spring_faces,3.2.3,60.004448369774714,
condition files/Stage0c_2.xlsx,0c,beta,phi,g,"['h', 'g']","['Chess', 'Go']","[-0.15, 0.5]","[0.15, 0.5]",1,1,0,15,15,15,0,1,1,3,,,,,,,,,,,,,,,,,,,,,,,,,,,,,,,,,,,,,,,,,,,,,,,,,,,,,,,,,,,,,,,815.3104424879998,None,815.3104424879998,None,815.3104424879998,None,g,1,0.8328021809998063,816.8438790799996,None,816.8438790799996,None,816.8438790799996,None,817.7272217679997,None,817.7272217679997,None,817.7272217679997,None,817.7272217679997,None,,,,,,,,,,,,,,,,,,,,,,,,,,,,,,,,,,,,,,,,,,,,001,174,2020_Feb_27_0927,spring_faces,3.2.3,60.004448369774714,
condition files/Stage0c_2.xlsx,0c,theta,beta,g,"['h', 'g']","['Chess', 'Go']","[-0.15, 0.5]","[0.15, 0.5]",1,1,0,15,15,15,0,2,2,2,,,,,,,,,,,,,,,,,,,,,,,,,,,,,,,,,,,,,,,,,,,,,,,,,,,,,,,,,,,,,,,819.710533127,None,819.710533127,None,819.710533127,None,g,1,1.4255097049999677,821.2270734479998,None,821.2270734479998,None,821.2270734479998,None,822.7104059689996,None,822.7104059689996,None,822.7104059689996,None,822.7104059689996,None,,,,,,,,,,,,,,,,,,,,,,,,,,,,,,,,,,,,,,,,,,,,001,174,2020_Feb_27_0927,spring_faces,3.2.3,60.004448369774714,
condition files/Stage0c_2.xlsx,0c,alpha,theta,h,"['h', 'g']","['Chess', 'Go']","[-0.15, 0.5]","[0.15, 0.5]",1,1,0,15,15,15,0,3,3,0,,,,,,,,,,,,,,,,,,,,,,,,,,,,,,,,,,,,,,,,,,,,,,,,,,,,,,,,,,,,,,,824.6938502789999,None,824.6938502789999,None,824.6938502789999,None,h,1,1.689376071999959,826.2271859549996,None,826.2271859549996,None,826.2271859549996,None,827.9772063249998,None,827.9772063249998,None,827.9772063249998,None,827.9772063249998,None,,,,,,,,,,,,,,,,,,,,,,,,,,,,,,,,,,,,,,,,,,,,001,174,2020_Feb_27_0927,spring_faces,3.2.3,60.004448369774714,
condition files/Stage0c_1.xlsx,0c,alpha,phi,h,"['h', 'g']","['Chess', 'Go']","[-0.15, 0.5]","[0.15, 0.5]",1,1,0,16,16,16,0,0,0,1,,,,,,,,,,,,,,,,,,,,,,,,,,,,,,,,,,,,,,,,,,,,,,,,,,,,,,,,,,,,,,,829.9770945529999,None,829.9770945529999,None,829.9770945529999,None,h,1,1.1260646440000528,831.5105251559999,None,831.5105251559999,None,831.5105251559999,None,832.6938256489998,None,832.6938256489998,None,832.6938256489998,None,832.6938256489998,None,,,,,,,,,,,,,,,,,,,,,,,,,,,,,,,,,,,,,,,,,,,,001,174,2020_Feb_27_0927,spring_faces,3.2.3,60.004448369774714,
condition files/Stage0c_1.xlsx,0c,beta,theta,g,"['h', 'g']","['Chess', 'Go']","[-0.15, 0.5]","[0.15, 0.5]",1,1,0,16,16,16,0,1,1,2,,,,,,,,,,,,,,,,,,,,,,,,,,,,,,,,,,,,,,,,,,,,,,,,,,,,,,,,,,,,,,,834.6771863169997,None,834.6771863169997,None,834.6771863169997,None,g,1,1.610039487999984,836.2104514059997,None,836.2104514059997,None,836.2104514059997,None,837.8771758229996,None,837.8771758229996,None,837.8771758229996,None,837.8771758229996,None,,,,,,,,,,,,,,,,,,,,,,,,,,,,,,,,,,,,,,,,,,,,001,174,2020_Feb_27_0927,spring_faces,3.2.3,60.004448369774714,
condition files/Stage0c_1.xlsx,0c,phi,beta,g,"['h', 'g']","['Chess', 'Go']","[-0.15, 0.5]","[0.15, 0.5]",1,1,0,16,16,16,0,2,2,3,,,,,,,,,,,,,,,,,,,,,,,,,,,,,,,,,,,,,,,,,,,,,,,,,,,,,,,,,,,,,,,839.8605642999996,None,839.8605642999996,None,839.8605642999996,None,g,1,0.9234514640002089,841.3771340519997,None,841.3771340519997,None,841.3771340519997,None,842.3604545219996,None,842.3604545219996,None,842.3604545219996,None,842.3604545219996,None,,,,,,,,,,,,,,,,,,,,,,,,,,,,,,,,,,,,,,,,,,,,001,174,2020_Feb_27_0927,spring_faces,3.2.3,60.004448369774714,
condition files/Stage0c_1.xlsx,0c,theta,alpha,h,"['h', 'g']","['Chess', 'Go']","[-0.15, 0.5]","[0.15, 0.5]",1,1,0,16,16,16,0,3,3,0,,,,,,,,,,,,,,,,,,,,,,,,,,,,,,,,,,,,,,,,,,,,,,,,,,,,,,,,,,,,,,,844.34386894,None,844.34386894,None,844.34386894,None,h,1,0.8393544269997619,845.877200811,None,845.877200811,None,845.877200811,None,846.7938782239999,None,846.7938782239999,None,846.7938782239999,None,846.7938782239999,None,,,,,,,,,,,,,,,,,,,,,,,,,,,,,,,,,,,,,,,,,,,,001,174,2020_Feb_27_0927,spring_faces,3.2.3,60.004448369774714,
condition files/Stage0c_2.xlsx,0c,theta,beta,g,"['h', 'g']","['Chess', 'Go']","[-0.15, 0.5]","[0.15, 0.5]",1,1,0,17,17,17,0,0,0,2,,,,,,,,,,,,,,,,,,,,,,,,,,,,,,,,,,,,,,,,,,,,,,,,,,,,,,,,,,,,,,,848.7772040549999,None,848.7772040549999,None,848.7772040549999,None,g,1,0.9981264570001258,850.310548982,None,850.310548982,None,850.310548982,None,851.3604797359999,None,851.3604797359999,None,851.3604797359999,None,851.3604797359999,None,,,,,,,,,,,,,,,,,,,,,,,,,,,,,,,,,,,,,,,,,,,,001,174,2020_Feb_27_0927,spring_faces,3.2.3,60.004448369774714,
condition files/Stage0c_2.xlsx,0c,phi,alpha,h,"['h', 'g']","['Chess', 'Go']","[-0.15, 0.5]","[0.15, 0.5]",1,1,0,17,17,17,0,1,1,1,,,,,,,,,,,,,,,,,,,,,,,,,,,,,,,,,,,,,,,,,,,,,,,,,,,,,,,,,,,,,,,853.3437818349998,None,853.3437818349998,None,853.3437818349998,None,h,1,0.8803153450003265,854.8603355679998,None,854.8603355679998,None,854.8603355679998,None,855.7939058409997,None,855.7939058409997,None,855.7939058409997,None,855.7939058409997,None,,,,,,,,,,,,,,,,,,,,,,,,,,,,,,,,,,,,,,,,,,,,001,174,2020_Feb_27_0927,spring_faces,3.2.3,60.004448369774714,
condition files/Stage0c_2.xlsx,0c,alpha,theta,h,"['h', 'g']","['Chess', 'Go']","[-0.15, 0.5]","[0.15, 0.5]",1,1,0,17,17,17,0,2,2,0,,,,,,,,,,,,,,,,,,,,,,,,,,,,,,,,,,,,,,,,,,,,,,,,,,,,,,,,,,,,,,,857.777198842,None,857.777198842,None,857.777198842,None,h,1,1.3269358439997632,859.2936676899999,None,859.2936676899999,None,859.2936676899999,None,860.677218244,None,860.677218244,None,860.677218244,None,860.677218244,None,,,,,,,,,,,,,,,,,,,,,,,,,,,,,,,,,,,,,,,,,,,,001,174,2020_Feb_27_0927,spring_faces,3.2.3,60.004448369774714,
condition files/Stage0c_2.xlsx,0c,beta,phi,g,"['h', 'g']","['Chess', 'Go']","[-0.15, 0.5]","[0.15, 0.5]",1,1,0,17,17,17,0,3,3,3,,,,,,,,,,,,,,,,,,,,,,,,,,,,,,,,,,,,,,,,,,,,,,,,,,,,,,,,,,,,,,,862.660536293,None,862.660536293,None,862.660536293,None,g,1,0.6666852350003865,864.1938307429996,None,864.1938307429996,None,864.1938307429996,None,864.9105831259999,None,864.9105831259999,None,864.9105831259999,None,864.9105831259999,None,,,,,,,,,,,,,,,,,,,,,,,,,,,,,,,,,,,,,,,,,,,,001,174,2020_Feb_27_0927,spring_faces,3.2.3,60.004448369774714,
,,,,,,,,,,,,,,,,,,,,,,,,,,,,,,,,,,,,,,,,,,,,,,,,,,,,,,,,,,,,,,,,,,,,,,,,,,,,,,,,,,,,,,,,,,,,,,,,,,,,,,,,866.8938065999996,None,space,6.695383562000188,871.87721431,None,,,,,,,,,,,,,,,,,,,,,,,,,,,,,,,,,,,,,,001,174,2020_Feb_27_0927,spring_faces,3.2.3,60.004448369774714,
condition files/Stage1_1.xlsx,,B3,T3,c,"['c', 'm']","['Clue', 'Monopoly']","[-0.15, 0.5]","[0.15, 0.5]",1,1,,,,,,,,,0,0,0,0,0,0,0,4,,,,,,,,,,,,,,,,,,,,,,,,,,,,,,,,,,,,,,,,,,,,,,,,,,,,,,,878.6937380989998,None,878.6937380989998,None,878.6937380989998,None,c,1,5.146302892999756,880.2103937499996,None,880.2103937499996,None,880.2103937499996,None,885.4272055309998,None,885.4272055309998,None,885.4272055309998,None,885.4272055309998,None,,,,,,,871.87721431,None,,,,,,,,,,,,,,,,,,,,,,,,,,,,,,,,,,,,001,174,2020_Feb_27_0927,spring_faces,3.2.3,60.004448369774714,
condition files/Stage1_1.xlsx,,T1,B1,c,"['c', 'm']","['Clue', 'Monopoly']","[-0.15, 0.5]","[0.15, 0.5]",1,1,,,,,,,,,0,0,0,0,0,1,1,0,,,,,,,,,,,,,,,,,,,,,,,,,,,,,,,,,,,,,,,,,,,,,,,,,,,,,,,887.3938633779994,None,887.3938633779994,None,887.3938633779994,None,m,0,0.7846009940003569,889.2438890119997,None,889.2438890119997,None,889.2438890119997,None,890.1104443729996,None,890.1104443729996,None,890.1104443729996,None,890.1104443729996,None,,,,,,,,,,,,,,,,,,,,,,,,,,,,,,,,,,,,,,,,,,,,001,174,2020_Feb_27_0927,spring_faces,3.2.3,60.004448369774714,
condition files/Stage1_1.xlsx,,T4,B3,m,"['c', 'm']","['Clue', 'Monopoly']","[-0.15, 0.5]","[0.15, 0.5]",1,1,,,,,,,,,0,0,0,0,0,2,2,6,,,,,,,,,,,,,,,,,,,,,,,,,,,,,,,,,,,,,,,,,,,,,,,,,,,,,,,892.0771423359997,None,892.0771423359997,None,892.0771423359997,None,c,0,0.8320582580008704,893.6605641459996,None,893.6605641459996,None,893.6605641459996,None,894.5604827120001,None,894.5604827120001,None,894.5604827120001,None,894.5604827120001,None,,,,,,,,,,,,,,,,,,,,,,,,,,,,,,,,,,,,,,,,,,,,001,174,2020_Feb_27_0927,spring_faces,3.2.3,60.004448369774714,
condition files/Stage1_1.xlsx,,T2,B2,m,"['c', 'm']","['Clue', 'Monopoly']","[-0.15, 0.5]","[0.15, 0.5]",1,1,,,,,,,,,0,0,0,0,0,3,3,3,,,,,,,,,,,,,,,,,,,,,,,,,,,,,,,,,,,,,,,,,,,,,,,,,,,,,,,896.5271343869995,None,896.5271343869995,None,896.5271343869995,None,c,0,2.5740413670000635,898.1105387749999,None,898.1105387749999,None,898.1105387749999,None,900.743780665,None,900.743780665,None,900.743780665,None,900.743780665,None,,,,,,,,,,,,,,,,,,,,,,,,,,,,,,,,,,,,,,,,,,,,001,174,2020_Feb_27_0927,spring_faces,3.2.3,60.004448369774714,
condition files/Stage1_1.xlsx,,B1,T2,c,"['c', 'm']","['Clue', 'Monopoly']","[-0.15, 0.5]","[0.15, 0.5]",1,1,,,,,,,,,0,0,0,0,0,4,4,1,,,,,,,,,,,,,,,,,,,,,,,,,,,,,,,,,,,,,,,,,,,,,,,,,,,,,,,902.7272183720002,None,902.7272183720002,None,902.7272183720002,None,c,1,1.0480965159995321,904.2605753459998,None,904.2605753459998,None,904.2605753459998,None,905.3771410939994,None,905.3771410939994,None,905.3771410939994,None,905.3771410939994,None,,,,,,,,,,,,,,,,,,,,,,,,,,,,,,,,,,,,,,,,,,,,001,174,2020_Feb_27_0927,spring_faces,3.2.3,60.004448369774714,
condition files/Stage1_1.xlsx,,T3,B4,c,"['c', 'm']","['Clue', 'Monopoly']","[-0.15, 0.5]","[0.15, 0.5]",1,1,,,,,,,,,0,0,0,0,0,5,5,5,,,,,,,,,,,,,,,,,,,,,,,,,,,,,,,,,,,,,,,,,,,,,,,,,,,,,,,907.3436816879998,None,907.3436816879998,None,907.3436816879998,None,m,0,1.5021743879997302,908.9103638309994,None,908.9103638309994,None,908.9103638309994,None,910.4937945019997,None,910.4937945019997,None,910.4937945019997,None,910.4937945019997,None,,,,,,,,,,,,,,,,,,,,,,,,,,,,,,,,,,,,,,,,,,,,001,174,2020_Feb_27_0927,spring_faces,3.2.3,60.004448369774714,
condition files/Stage1_1.xlsx,,B2,T1,m,"['c', 'm']","['Clue', 'Monopoly']","[-0.15, 0.5]","[0.15, 0.5]",1,1,,,,,,,,,0,0,0,0,0,6,6,2,,,,,,,,,,,,,,,,,,,,,,,,,,,,,,,,,,,,,,,,,,,,,,,,,,,,,,,912.4605425939994,None,912.4605425939994,None,912.4605425939994,None,c,0,1.6507897130004494,913.9936877229998,None,913.9936877229998,None,913.9936877229998,None,915.7272124340002,None,915.7272124340002,None,915.7272124340002,None,915.7272124340002,None,,,,,,,,,,,,,,,,,,,,,,,,,,,,,,,,,,,,,,,,,,,,001,174,2020_Feb_27_0927,spring_faces,3.2.3,60.004448369774714,
condition files/Stage1_1.xlsx,,B4,T4,m,"['c', 'm']","['Clue', 'Monopoly']","[-0.15, 0.5]","[0.15, 0.5]",1,1,,,,,,,,,0,0,0,0,0,7,7,7,,,,,,,,,,,,,,,,,,,,,,,,,,,,,,,,,,,,,,,,,,,,,,,,,,,,,,,917.6938308049998,None,917.6938308049998,None,917.6938308049998,None,c,0,2.0654460499999914,919.2272245660001,None,919.2272245660001,None,919.2272245660001,None,921.3437789559998,None,921.3437789559998,None,921.3437789559998,None,921.3437789559998,None,,,,,,,,,,,,,,,,,,,,,,,,,,,,,,,,,,,,,,,,,,,,001,174,2020_Feb_27_0927,spring_faces,3.2.3,60.004448369774714,
condition files/Stage1_2.xlsx,,T3,B3,c,"['c', 'm']","['Clue', 'Monopoly']","[-0.15, 0.5]","[0.15, 0.5]",1,1,,,,,,,,,0,1,1,1,0,0,0,4,,,,,,,,,,,,,,,,,,,,,,,,,,,,,,,,,,,,,,,,,,,,,,,,,,,,,,,923.6605401929996,None,923.6605401929996,None,923.6605401929996,None,m,0,1.4875375559995518,924.8770693229994,None,924.8770693229994,None,924.8770693229994,None,926.4438821449999,None,926.4438821449999,None,926.4438821449999,None,926.4438821449999,None,,,,,,,,,,,,,,,,,,,,,,,,,,,,,,,,,,,,,,,,,,,,001,174,2020_Feb_27_0927,spring_faces,3.2.3,60.004448369774714,
condition files/Stage1_2.xlsx,,B2,T2,m,"['c', 'm']","['Clue', 'Monopoly']","[-0.15, 0.5]","[0.15, 0.5]",1,1,,,,,,,,,0,1,1,1,0,1,1,3,,,,,,,,,,,,,,,,,,,,,,,,,,,,,,,,,,,,,,,,,,,,,,,,,,,,,,,928.4105441209999,None,928.4105441209999,None,928.4105441209999,None,m,1,0.516610552000202,929.9438877890002,None,929.9438877890002,None,929.9438877890002,None,930.5271571749995,None,930.5271571749995,None,930.5271571749995,None,930.5271571749995,None,,,,,,,,,,,,,,,,,,,,,,,,,,,,,,,,,,,,,,,,,,,,001,174,2020_Feb_27_0927,spring_faces,3.2.3,60.004448369774714,
condition files/Stage1_2.xlsx,,T1,B2,m,"['c', 'm']","['Clue', 'Monopoly']","[-0.15, 0.5]","[0.15, 0.5]",1,1,,,,,,,,,0,1,1,1,0,2,2,2,,,,,,,,,,,,,,,,,,,,,,,,,,,,,,,,,,,,,,,,,,,,,,,,,,,,,,,932.4938100639997,None,932.4938100639997,None,932.4938100639997,None,m,1,1.6332653320005193,934.0272144629994,None,934.0272144629994,None,934.0272144629994,None,935.7271243109994,None,935.7271243109994,None,935.7271243109994,None,935.7271243109994,None,,,,,,,,,,,,,,,,,,,,,,,,,,,,,,,,,,,,,,,,,,,,001,174,2020_Feb_27_0927,spring_faces,3.2.3,60.004448369774714,
condition files/Stage1_2.xlsx,,B3,T4,m,"['c', 'm']","['Clue', 'Monopoly']","[-0.15, 0.5]","[0.15, 0.5]",1,1,,,,,,,,,0,1,1,1,0,3,3,6,,,,,,,,,,,,,,,,,,,,,,,,,,,,,,,,,,,,,,,,,,,,,,,,,,,,,,,937.6937624349998,None,937.6937624349998,None,937.6937624349998,None,m,1,0.9134565110007316,939.2271791319995,None,939.2271791319995,None,939.2271791319995,None,940.2105105559999,None,940.2105105559999,None,940.2105105559999,None,940.2105105559999,None,,,,,,,,,,,,,,,,,,,,,,,,,,,,,,,,,,,,,,,,,,,,001,174,2020_Feb_27_0927,spring_faces,3.2.3,60.004448369774714,
condition files/Stage1_2.xlsx,,B1,T1,c,"['c', 'm']","['Clue', 'Monopoly']","[-0.15, 0.5]","[0.15, 0.5]",1,1,,,,,,,,,0,1,1,1,0,4,4,0,,,,,,,,,,,,,,,,,,,,,,,,,,,,,,,,,,,,,,,,,,,,,,,,,,,,,,,942.1771955959998,None,942.1771955959998,None,942.1771955959998,None,m,0,0.382157781999922,943.7104569549997,None,943.7104569549997,None,943.7104569549997,None,944.1605401249994,None,944.1605401249994,None,944.1605401249994,None,944.1605401249994,None,,,,,,,,,,,,,,,,,,,,,,,,,,,,,,,,,,,,,,,,,,,,001,174,2020_Feb_27_0927,spring_faces,3.2.3,60.004448369774714,
condition files/Stage1_2.xlsx,,T2,B1,c,"['c', 'm']","['Clue', 'Monopoly']","[-0.15, 0.5]","[0.15, 0.5]",1,1,,,,,,,,,0,1,1,1,0,5,5,1,,,,,,,,,,,,,,,,,,,,,,,,,,,,,,,,,,,,,,,,,,,,,,,,,,,,,,,946.1271440790001,None,946.1271440790001,None,946.1271440790001,None,m,0,3.152036192000196,947.6604817120001,None,947.6604817120001,None,947.6604817120001,None,950.8771705619997,None,950.8771705619997,None,950.8771705619997,None,950.8771705619997,None,,,,,,,,,,,,,,,,,,,,,,,,,,,,,,,,,,,,,,,,,,,,001,174,2020_Feb_27_0927,spring_faces,3.2.3,60.004448369774714,
condition files/Stage1_2.xlsx,,T4,B4,m,"['c', 'm']","['Clue', 'Monopoly']","[-0.15, 0.5]","[0.15, 0.5]",1,1,,,,,,,,,0,1,1,1,0,6,6,7,,,,,,,,,,,,,,,,,,,,,,,,,,,,,,,,,,,,,,,,,,,,,,,,,,,,,,,952.8605580869994,None,952.8605580869994,None,952.8605580869994,None,c,0,3.634633403999942,954.3938555039999,None,954.3938555039999,None,954.3938555039999,None,958.1104175369996,None,958.1104175369996,None,958.1104175369996,None,958.1104175369996,None,,,,,,,,,,,,,,,,,,,,,,,,,,,,,,,,,,,,,,,,,,,,001,174,2020_Feb_27_0927,spring_faces,3.2.3,60.004448369774714,
condition files/Stage1_2.xlsx,,B4,T3,c,"['c', 'm']","['Clue', 'Monopoly']","[-0.15, 0.5]","[0.15, 0.5]",1,1,,,,,,,,,0,1,1,1,0,7,7,5,,,,,,,,,,,,,,,,,,,,,,,,,,,,,,,,,,,,,,,,,,,,,,,,,,,,,,,960.0771025519994,None,960.0771025519994,None,960.0771025519994,None,c,1,1.6981224440005462,961.6105389459995,None,961.6105389459995,None,961.6105389459995,None,963.3771890269995,None,963.3771890269995,None,963.3771890269995,None,963.3771890269995,None,,,,,,,,,,,,,,,,,,,,,,,,,,,,,,,,,,,,,,,,,,,,001,174,2020_Feb_27_0927,spring_faces,3.2.3,60.004448369774714,
condition files/Stage1_1.xlsx,,B2,T1,m,"['c', 'm']","['Clue', 'Monopoly']","[-0.15, 0.5]","[0.15, 0.5]",1,1,,,,,,,,,0,2,2,2,0,0,0,2,,,,,,,,,,,,,,,,,,,,,,,,,,,,,,,,,,,,,,,,,,,,,,,,,,,,,,,965.3604430829996,None,965.3604430829996,None,965.3604430829996,None,m,1,6.542778188999364,966.8938329409998,None,966.8938329409998,None,966.8938329409998,None,973.510534904,None,973.510534904,None,973.510534904,None,973.510534904,None,,,,,,,,,,,,,,,,,,,,,,,,,,,,,,,,,,,,,,,,,,,,001,174,2020_Feb_27_0927,spring_faces,3.2.3,60.004448369774714,
condition files/Stage1_1.xlsx,,T2,B2,m,"['c', 'm']","['Clue', 'Monopoly']","[-0.15, 0.5]","[0.15, 0.5]",1,1,,,,,,,,,0,2,2,2,0,1,1,3,,,,,,,,,,,,,,,,,,,,,,,,,,,,,,,,,,,,,,,,,,,,,,,,,,,,,,,975.4771813860002,None,975.4771813860002,None,975.4771813860002,None,m,1,2.730204214000878,977.0104598779994,None,977.0104598779994,None,977.0104598779994,None,979.7937237319998,None,979.7937237319998,None,979.7937237319998,None,979.7937237319998,None,,,,,,,,,,,,,,,,,,,,,,,,,,,,,,,,,,,,,,,,,,,,001,174,2020_Feb_27_0927,spring_faces,3.2.3,60.004448369774714,
condition files/Stage1_1.xlsx,,T1,B1,c,"['c', 'm']","['Clue', 'Monopoly']","[-0.15, 0.5]","[0.15, 0.5]",1,1,,,,,,,,,0,2,2,2,0,2,2,0,,,,,,,,,,,,,,,,,,,,,,,,,,,,,,,,,,,,,,,,,,,,,,,,,,,,,,,981.777168737,None,981.777168737,None,981.777168737,None,m,0,1.1983118680000189,983.3103574649999,None,983.3103574649999,None,983.3103574649999,None,984.5771596179998,None,984.5771596179998,None,984.5771596179998,None,984.5771596179998,None,,,,,,,,,,,,,,,,,,,,,,,,,,,,,,,,,,,,,,,,,,,,001,174,2020_Feb_27_0927,spring_faces,3.2.3,60.004448369774714,
condition files/Stage1_1.xlsx,,B4,T4,m,"['c', 'm']","['Clue', 'Monopoly']","[-0.15, 0.5]","[0.15, 0.5]",1,1,,,,,,,,,0,2,2,2,0,3,3,7,,,,,,,,,,,,,,,,,,,,,,,,,,,,,,,,,,,,,,,,,,,,,,,,,,,,,,,986.5438869529994,None,986.5438869529994,None,986.5438869529994,None,c,0,1.3594547259999672,988.0771553279997,None,988.0771553279997,None,988.0771553279997,None,989.5105191130001,None,989.5105191130001,None,989.5105191130001,None,989.5105191130001,None,,,,,,,,,,,,,,,,,,,,,,,,,,,,,,,,,,,,,,,,,,,,001,174,2020_Feb_27_0927,spring_faces,3.2.3,60.004448369774714,
condition files/Stage1_1.xlsx,,T3,B4,c,"['c', 'm']","['Clue', 'Monopoly']","[-0.15, 0.5]","[0.15, 0.5]",1,1,,,,,,,,,0,2,2,2,0,4,4,5,,,,,,,,,,,,,,,,,,,,,,,,,,,,,,,,,,,,,,,,,,,,,,,,,,,,,,,991.4772180759996,None,991.4772180759996,None,991.4772180759996,None,m,0,0.8100724320001973,993.0105041459997,None,993.0105041459997,None,993.0105041459997,None,993.8938824969996,None,993.8938824969996,None,993.8938824969996,None,993.8938824969996,None,,,,,,,,,,,,,,,,,,,,,,,,,,,,,,,,,,,,,,,,,,,,001,174,2020_Feb_27_0927,spring_faces,3.2.3,60.004448369774714,
condition files/Stage1_1.xlsx,,B1,T2,c,"['c', 'm']","['Clue', 'Monopoly']","[-0.15, 0.5]","[0.15, 0.5]",1,1,,,,,,,,,0,2,2,2,0,5,5,1,,,,,,,,,,,,,,,,,,,,,,,,,,,,,,,,,,,,,,,,,,,,,,,,,,,,,,,995.8605393459998,None,995.8605393459998,None,995.8605393459998,None,c,1,2.506716484000208,997.3938693240002,None,997.3938693240002,None,997.3938693240002,None,999.9605185149999,None,999.9605185149999,None,999.9605185149999,None,999.9605185149999,None,,,,,,,,,,,,,,,,,,,,,,,,,,,,,,,,,,,,,,,,,,,,001,174,2020_Feb_27_0927,spring_faces,3.2.3,60.004448369774714,
condition files/Stage1_1.xlsx,,B3,T3,c,"['c', 'm']","['Clue', 'Monopoly']","[-0.15, 0.5]","[0.15, 0.5]",1,1,,,,,,,,,0,2,2,2,0,6,6,4,,,,,,,,,,,,,,,,,,,,,,,,,,,,,,,,,,,,,,,,,,,,,,,,,,,,,,,1001.943900617,None,1001.943900617,None,1001.943900617,None,m,0,0.26342573599958996,1003.4772184959998,None,1003.4772184959998,None,1003.4772184959998,None,1003.7938660750001,None,1003.7938660750001,None,1003.7938660750001,None,1003.7938660750001,None,,,,,,,,,,,,,,,,,,,,,,,,,,,,,,,,,,,,,,,,,,,,001,174,2020_Feb_27_0927,spring_faces,3.2.3,60.004448369774714,
condition files/Stage1_1.xlsx,,T4,B3,m,"['c', 'm']","['Clue', 'Monopoly']","[-0.15, 0.5]","[0.15, 0.5]",1,1,,,,,,,,,0,2,2,2,0,7,7,6,,,,,,,,,,,,,,,,,,,,,,,,,,,,,,,,,,,,,,,,,,,,,,,,,,,,,,,1005.7772288129995,None,1005.7772288129995,None,1005.7772288129995,None,c,0,6.830100594000214,1007.3105411849997,None,1007.3105411849997,None,1007.3105411849997,None,1014.2105293139998,None,1014.2105293139998,None,1014.2105293139998,None,1014.2105293139998,None,,,,,,,,,,,,,,,,,,,,,,,,,,,,,,,,,,,,,,,,,,,,001,174,2020_Feb_27_0927,spring_faces,3.2.3,60.004448369774714,
condition files/Stage1_2.xlsx,,B2,T2,m,"['c', 'm']","['Clue', 'Monopoly']","[-0.15, 0.5]","[0.15, 0.5]",1,1,,,,,,,,,0,3,3,3,0,0,0,3,,,,,,,,,,,,,,,,,,,,,,,,,,,,,,,,,,,,,,,,,,,,,,,,,,,,,,,1016.193715635,None,1016.193715635,None,1016.193715635,None,m,1,1.9494843339998624,1017.7271134039997,None,1017.7271134039997,None,1017.7271134039997,None,1019.7437839709996,None,1019.7437839709996,None,1019.7437839709996,None,1019.7437839709996,None,,,,,,,,,,,,,,,,,,,,,,,,,,,,,,,,,,,,,,,,,,,,001,174,2020_Feb_27_0927,spring_faces,3.2.3,60.004448369774714,
condition files/Stage1_2.xlsx,,T2,B1,c,"['c', 'm']","['Clue', 'Monopoly']","[-0.15, 0.5]","[0.15, 0.5]",1,1,,,,,,,,,0,3,3,3,0,1,1,1,,,,,,,,,,,,,,,,,,,,,,,,,,,,,,,,,,,,,,,,,,,,,,,,,,,,,,,1021.710466905,None,1021.710466905,None,1021.710466905,None,c,1,1.2006478180001068,1023.243848699,None,1023.243848699,None,1023.243848699,None,1024.5272219679996,None,1024.5272219679996,None,1024.5272219679996,None,1024.5272219679996,None,,,,,,,,,,,,,,,,,,,,,,,,,,,,,,,,,,,,,,,,,,,,001,174,2020_Feb_27_0927,spring_faces,3.2.3,60.004448369774714,
condition files/Stage1_2.xlsx,,B3,T4,m,"['c', 'm']","['Clue', 'Monopoly']","[-0.15, 0.5]","[0.15, 0.5]",1,1,,,,,,,,,0,3,3,3,0,2,2,6,,,,,,,,,,,,,,,,,,,,,,,,,,,,,,,,,,,,,,,,,,,,,,,,,,,,,,,1026.4937853749993,None,1026.4937853749993,None,1026.4937853749993,None,m,1,2.4173093549998157,1028.0271807349995,None,1028.0271807349995,None,1028.0271807349995,None,1030.5272079739993,None,1030.5272079739993,None,1030.5272079739993,None,1030.5272079739993,None,,,,,,,,,,,,,,,,,,,,,,,,,,,,,,,,,,,,,,,,,,,,001,174,2020_Feb_27_0927,spring_faces,3.2.3,60.004448369774714,
condition files/Stage1_2.xlsx,,T1,B2,m,"['c', 'm']","['Clue', 'Monopoly']","[-0.15, 0.5]","[0.15, 0.5]",1,1,,,,,,,,,0,3,3,3,0,3,3,2,,,,,,,,,,,,,,,,,,,,,,,,,,,,,,,,,,,,,,,,,,,,,,,,,,,,,,,1032.493817037,None,1032.493817037,None,1032.493817037,None,c,0,2.993410834000315,1034.027182581,None,1034.027182581,None,1034.027182581,None,1037.0767509359998,None,1037.0767509359998,None,1037.0767509359998,None,1037.0767509359998,None,,,,,,,,,,,,,,,,,,,,,,,,,,,,,,,,,,,,,,,,,,,,001,174,2020_Feb_27_0927,spring_faces,3.2.3,60.004448369774714,
condition files/Stage1_2.xlsx,,B1,T1,c,"['c', 'm']","['Clue', 'Monopoly']","[-0.15, 0.5]","[0.15, 0.5]",1,1,,,,,,,,,0,3,3,3,0,4,4,0,,,,,,,,,,,,,,,,,,,,,,,,,,,,,,,,,,,,,,,,,,,,,,,,,,,,,,,1039.060553115,None,1039.060553115,None,1039.060553115,None,m,0,1.8186925629997859,1040.5938358709996,None,1040.5938358709996,None,1040.5938358709996,None,1042.4938401129998,None,1042.4938401129998,None,1042.4938401129998,None,1042.4938401129998,None,,,,,,,,,,,,,,,,,,,,,,,,,,,,,,,,,,,,,,,,,,,,001,174,2020_Feb_27_0927,spring_faces,3.2.3,60.004448369774714,
condition files/Stage1_2.xlsx,,B4,T3,c,"['c', 'm']","['Clue', 'Monopoly']","[-0.15, 0.5]","[0.15, 0.5]",1,1,,,,,,,,,0,3,3,3,0,5,5,5,,,,,,,,,,,,,,,,,,,,,,,,,,,,,,,,,,,,,,,,,,,,,,,,,,,,,,,1044.4606022129997,None,1044.4606022129997,None,1044.4606022129997,None,c,1,0.8507798520004144,1045.9937312380002,None,1045.9937312380002,None,1045.9937312380002,None,1046.910491651,None,1046.910491651,None,1046.910491651,None,1046.910491651,None,,,,,,,,,,,,,,,,,,,,,,,,,,,,,,,,,,,,,,,,,,,,001,174,2020_Feb_27_0927,spring_faces,3.2.3,60.004448369774714,
condition files/Stage1_2.xlsx,,T3,B3,c,"['c', 'm']","['Clue', 'Monopoly']","[-0.15, 0.5]","[0.15, 0.5]",1,1,,,,,,,,,0,3,3,3,0,6,6,4,,,,,,,,,,,,,,,,,,,,,,,,,,,,,,,,,,,,,,,,,,,,,,,,,,,,,,,1048.893743178,None,1048.893743178,None,1048.893743178,None,c,1,39.26535092100039,1050.4272183999997,None,1050.4272183999997,None,1050.4272183999997,None,1089.760497494,None,1089.760497494,None,1089.760497494,None,1089.760497494,None,,,,,,,,,,,,,,,,,,,,,,,,,,,,,,,,,,,,,,,,,,,,001,174,2020_Feb_27_0927,spring_faces,3.2.3,60.004448369774714,
condition files/Stage1_2.xlsx,,T4,B4,m,"['c', 'm']","['Clue', 'Monopoly']","[-0.15, 0.5]","[0.15, 0.5]",1,1,,,,,,,,,0,3,3,3,0,7,7,7,,,,,,,,,,,,,,,,,,,,,,,,,,,,,,,,,,,,,,,,,,,,,,,,,,,,,,,1091.7270298649996,None,1091.7270298649996,None,1091.7270298649996,None,c,0,9.216148184000303,1093.2605429199998,None,1093.2605429199998,None,1093.2605429199998,None,1102.5438079929995,None,1102.5438079929995,None,1102.5438079929995,None,1102.5438079929995,None,,,,,,,,,,,,,,,,,,,,,,,,,,,,,,,,,,,,,,,,,,,,001,174,2020_Feb_27_0927,spring_faces,3.2.3,60.004448369774714,
condition files/Stage1_1.xlsx,,T1,B1,c,"['c', 'm']","['Clue', 'Monopoly']","[-0.15, 0.5]","[0.15, 0.5]",1,1,,,,,,,,,0,4,4,4,0,0,0,0,,,,,,,,,,,,,,,,,,,,,,,,,,,,,,,,,,,,,,,,,,,,,,,,,,,,,,,1104.5271521479995,None,1104.5271521479995,None,1104.5271521479995,None,m,0,9.199970788000428,1106.0605620149995,None,1106.0605620149995,None,1106.0605620149995,None,1115.3271408859996,None,1115.3271408859996,None,1115.3271408859996,None,1115.3271408859996,None,,,,,,,,,,,,,,,,,,,,,,,,,,,,,,,,,,,,,,,,,,,,001,174,2020_Feb_27_0927,spring_faces,3.2.3,60.004448369774714,
condition files/Stage1_1.xlsx,,B3,T3,c,"['c', 'm']","['Clue', 'Monopoly']","[-0.15, 0.5]","[0.15, 0.5]",1,1,,,,,,,,,0,4,4,4,0,1,1,4,,,,,,,,,,,,,,,,,,,,,,,,,,,,,,,,,,,,,,,,,,,,,,,,,,,,,,,1117.2937785709996,None,1117.2937785709996,None,1117.2937785709996,None,c,1,2.9134346540004117,1118.8271988319998,None,1118.8271988319998,None,1118.8271988319998,None,1121.8104492759999,None,1121.8104492759999,None,1121.8104492759999,None,1121.8104492759999,None,,,,,,,,,,,,,,,,,,,,,,,,,,,,,,,,,,,,,,,,,,,,001,174,2020_Feb_27_0927,spring_faces,3.2.3,60.004448369774714,
condition files/Stage1_1.xlsx,,B1,T2,c,"['c', 'm']","['Clue', 'Monopoly']","[-0.15, 0.5]","[0.15, 0.5]",1,1,,,,,,,,,0,4,4,4,0,2,2,1,,,,,,,,,,,,,,,,,,,,,,,,,,,,,,,,,,,,,,,,,,,,,,,,,,,,,,,1123.7770516409996,None,1123.7770516409996,None,1123.7770516409996,None,m,0,2.4301213879998613,1125.3105064400002,None,1125.3105064400002,None,1125.3105064400002,None,1127.8105428679996,None,1127.8105428679996,None,1127.8105428679996,None,1127.8105428679996,None,,,,,,,,,,,,,,,,,,,,,,,,,,,,,,,,,,,,,,,,,,,,001,174,2020_Feb_27_0927,spring_faces,3.2.3,60.004448369774714,
condition files/Stage1_1.xlsx,,T2,B2,m,"['c', 'm']","['Clue', 'Monopoly']","[-0.15, 0.5]","[0.15, 0.5]",1,1,,,,,,,,,0,4,4,4,0,3,3,3,,,,,,,,,,,,,,,,,,,,,,,,,,,,,,,,,,,,,,,,,,,,,,,,,,,,,,,1129.777102595,None,1129.777102595,None,1129.777102595,None,c,0,0.4302419830000872,1131.3103994839998,None,1131.3103994839998,None,1131.3103994839998,None,1131.810494854,None,1131.810494854,None,1131.810494854,None,1131.810494854,None,,,,,,,,,,,,,,,,,,,,,,,,,,,,,,,,,,,,,,,,,,,,001,174,2020_Feb_27_0927,spring_faces,3.2.3,60.004448369774714,
condition files/Stage1_1.xlsx,,B4,T4,m,"['c', 'm']","['Clue', 'Monopoly']","[-0.15, 0.5]","[0.15, 0.5]",1,1,,,,,,,,,0,4,4,4,0,4,4,7,,,,,,,,,,,,,,,,,,,,,,,,,,,,,,,,,,,,,,,,,,,,,,,,,,,,,,,1133.7772335109998,None,1133.7772335109998,None,1133.7772335109998,None,m,1,1.4060804339997048,1135.3105099489999,None,1135.3105099489999,None,1135.3105099489999,None,1136.7772173529997,None,1136.7772173529997,None,1136.7772173529997,None,1136.7772173529997,None,,,,,,,,,,,,,,,,,,,,,,,,,,,,,,,,,,,,,,,,,,,,001,174,2020_Feb_27_0927,spring_faces,3.2.3,60.004448369774714,
condition files/Stage1_1.xlsx,,T4,B3,m,"['c', 'm']","['Clue', 'Monopoly']","[-0.15, 0.5]","[0.15, 0.5]",1,1,,,,,,,,,0,4,4,4,0,5,5,6,,,,,,,,,,,,,,,,,,,,,,,,,,,,,,,,,,,,,,,,,,,,,,,,,,,,,,,1138.7605279160002,None,1138.7605279160002,None,1138.7605279160002,None,c,0,1.9588708969995423,1140.293742417,None,1140.293742417,None,1140.293742417,None,1142.3104725029993,None,1142.3104725029993,None,1142.3104725029993,None,1142.3104725029993,None,,,,,,,,,,,,,,,,,,,,,,,,,,,,,,,,,,,,,,,,,,,,001,174,2020_Feb_27_0927,spring_faces,3.2.3,60.004448369774714,
condition files/Stage1_1.xlsx,,T3,B4,c,"['c', 'm']","['Clue', 'Monopoly']","[-0.15, 0.5]","[0.15, 0.5]",1,1,,,,,,,,,0,4,4,4,0,6,6,5,,,,,,,,,,,,,,,,,,,,,,,,,,,,,,,,,,,,,,,,,,,,,,,,,,,,,,,1144.293866462,None,1144.293866462,None,1144.293866462,None,m,0,1.9773978789999092,1145.8272068760002,None,1145.8272068760002,None,1145.8272068760002,None,1147.8771841369994,None,1147.8771841369994,None,1147.8771841369994,None,1147.8771841369994,None,,,,,,,,,,,,,,,,,,,,,,,,,,,,,,,,,,,,,,,,,,,,001,174,2020_Feb_27_0927,spring_faces,3.2.3,60.004448369774714,
condition files/Stage1_1.xlsx,,B2,T1,m,"['c', 'm']","['Clue', 'Monopoly']","[-0.15, 0.5]","[0.15, 0.5]",1,1,,,,,,,,,0,4,4,4,0,7,7,2,,,,,,,,,,,,,,,,,,,,,,,,,,,,,,,,,,,,,,,,,,,,,,,,,,,,,,,1149.843851577,None,1149.843851577,None,1149.843851577,None,m,1,1.531489332000092,1151.377182009,None,1151.377182009,None,1151.377182009,None,1152.9771563109994,None,1152.9771563109994,None,1152.9771563109994,None,1152.9771563109994,None,,,,,,,,,,,,,,,,,,,,,,,,,,,,,,,,,,,,,,,,,,,,001,174,2020_Feb_27_0927,spring_faces,3.2.3,60.004448369774714,
condition files/Stage1_2.xlsx,,T3,B3,c,"['c', 'm']","['Clue', 'Monopoly']","[-0.15, 0.5]","[0.15, 0.5]",1,1,,,,,,,,,0,5,5,5,0,0,0,4,,,,,,,,,,,,,,,,,,,,,,,,,,,,,,,,,,,,,,,,,,,,,,,,,,,,,,,1154.9604050579997,None,1154.9604050579997,None,1154.9604050579997,None,c,1,3.4867393439999432,1156.4938510529996,None,1156.4938510529996,None,1156.4938510529996,None,1160.060387727,None,1160.060387727,None,1160.060387727,None,1160.060387727,None,,,,,,,,,,,,,,,,,,,,,,,,,,,,,,,,,,,,,,,,,,,,001,174,2020_Feb_27_0927,spring_faces,3.2.3,60.004448369774714,
condition files/Stage1_2.xlsx,,T2,B1,c,"['c', 'm']","['Clue', 'Monopoly']","[-0.15, 0.5]","[0.15, 0.5]",1,1,,,,,,,,,0,5,5,5,0,1,1,1,,,,,,,,,,,,,,,,,,,,,,,,,,,,,,,,,,,,,,,,,,,,,,,,,,,,,,,1162.0271865809996,None,1162.0271865809996,None,1162.0271865809996,None,c,1,8.500047079999604,1163.5604778769998,None,1163.5604778769998,None,1163.5604778769998,None,1172.110483201,None,1172.110483201,None,1172.110483201,None,1172.110483201,None,,,,,,,,,,,,,,,,,,,,,,,,,,,,,,,,,,,,,,,,,,,,001,174,2020_Feb_27_0927,spring_faces,3.2.3,60.004448369774714,
condition files/Stage1_2.xlsx,,B2,T2,m,"['c', 'm']","['Clue', 'Monopoly']","[-0.15, 0.5]","[0.15, 0.5]",1,1,,,,,,,,,0,5,5,5,0,2,2,3,,,,,,,,,,,,,,,,,,,,,,,,,,,,,,,,,,,,,,,,,,,,,,,,,,,,,,,1174.0938096859995,None,1174.0938096859995,None,1174.0938096859995,None,m,1,3.809372775999691,1175.6272071070002,None,1175.6272071070002,None,1175.6272071070002,None,1179.5105160529997,None,1179.5105160529997,None,1179.5105160529997,None,1179.5105160529997,None,,,,,,,,,,,,,,,,,,,,,,,,,,,,,,,,,,,,,,,,,,,,001,174,2020_Feb_27_0927,spring_faces,3.2.3,60.004448369774714,
condition files/Stage1_2.xlsx,,B3,T4,m,"['c', 'm']","['Clue', 'Monopoly']","[-0.15, 0.5]","[0.15, 0.5]",1,1,,,,,,,,,0,5,5,5,0,3,3,6,,,,,,,,,,,,,,,,,,,,,,,,,,,,,,,,,,,,,,,,,,,,,,,,,,,,,,,1181.4772141879998,None,1181.4772141879998,None,1181.4772141879998,None,m,1,2.666163303999383,1183.0105105609996,None,1183.0105105609996,None,1183.0105105609996,None,1185.7438098729995,None,1185.7438098729995,None,1185.7438098729995,None,1185.7438098729995,None,,,,,,,,,,,,,,,,,,,,,,,,,,,,,,,,,,,,,,,,,,,,001,174,2020_Feb_27_0927,spring_faces,3.2.3,60.004448369774714,
condition files/Stage1_2.xlsx,,B1,T1,c,"['c', 'm']","['Clue', 'Monopoly']","[-0.15, 0.5]","[0.15, 0.5]",1,1,,,,,,,,,0,5,5,5,0,4,4,0,,,,,,,,,,,,,,,,,,,,,,,,,,,,,,,,,,,,,,,,,,,,,,,,,,,,,,,1187.7104619609995,None,1187.7104619609995,None,1187.7104619609995,None,c,1,9.93675370999972,1189.243818286,None,1189.243818286,None,1189.243818286,None,1199.2602535709998,None,1199.2602535709998,None,1199.2602535709998,None,1199.2602535709998,None,,,,,,,,,,,,,,,,,,,,,,,,,,,,,,,,,,,,,,,,,,,,001,174,2020_Feb_27_0927,spring_faces,3.2.3,60.004448369774714,
condition files/Stage1_2.xlsx,,T4,B4,m,"['c', 'm']","['Clue', 'Monopoly']","[-0.15, 0.5]","[0.15, 0.5]",1,1,,,,,,,,,0,5,5,5,0,5,5,7,,,,,,,,,,,,,,,,,,,,,,,,,,,,,,,,,,,,,,,,,,,,,,,,,,,,,,,1201.2272343379996,None,1201.2272343379996,None,1201.2272343379996,None,c,0,7.667946452999786,1202.760549995,None,1202.760549995,None,1202.760549995,None,1210.5105464449994,None,1210.5105464449994,None,1210.5105464449994,None,1210.5105464449994,None,,,,,,,,,,,,,,,,,,,,,,,,,,,,,,,,,,,,,,,,,,,,001,174,2020_Feb_27_0927,spring_faces,3.2.3,60.004448369774714,
condition files/Stage1_2.xlsx,,T1,B2,m,"['c', 'm']","['Clue', 'Monopoly']","[-0.15, 0.5]","[0.15, 0.5]",1,1,,,,,,,,,0,5,5,5,0,6,6,2,,,,,,,,,,,,,,,,,,,,,,,,,,,,,,,,,,,,,,,,,,,,,,,,,,,,,,,1212.4766712369997,None,1212.4766712369997,None,1212.4766712369997,None,m,1,1.649939734000327,1214.0105570069995,None,1214.0105570069995,None,1214.0105570069995,None,1215.7271826639994,None,1215.7271826639994,None,1215.7271826639994,None,1215.7271826639994,None,,,,,,,,,,,,,,,,,,,,,,,,,,,,,,,,,,,,,,,,,,,,001,174,2020_Feb_27_0927,spring_faces,3.2.3,60.004448369774714,
condition files/Stage1_2.xlsx,,B4,T3,c,"['c', 'm']","['Clue', 'Monopoly']","[-0.15, 0.5]","[0.15, 0.5]",1,1,,,,,,,,,0,5,5,5,0,7,7,5,,,,,,,,,,,,,,,,,,,,,,,,,,,,,,,,,,,,,,,,,,,,,,,,,,,,,,,1217.6938181339997,None,1217.6938181339997,None,1217.6938181339997,None,c,1,1.3294053900008294,1219.2272281179999,None,1219.2272281179999,None,1219.2272281179999,None,1220.6271936379994,None,1220.6271936379994,None,1220.6271936379994,None,1220.6271936379994,None,,,,,,,,,,,,,,,,,,,,,,,,,,,,,,,,,,,,,,,,,,,,001,174,2020_Feb_27_0927,spring_faces,3.2.3,60.004448369774714,
condition files/Stage1_1.xlsx,,B1,T2,c,"['c', 'm']","['Clue', 'Monopoly']","[-0.15, 0.5]","[0.15, 0.5]",1,1,,,,,,,,,0,6,6,6,0,0,0,1,,,,,,,,,,,,,,,,,,,,,,,,,,,,,,,,,,,,,,,,,,,,,,,,,,,,,,,1222.6105116089998,None,1222.6105116089998,None,1222.6105116089998,None,c,1,1.3887979860000996,1224.1438037349994,None,1224.1438037349994,None,1224.1438037349994,None,1225.5938737239999,None,1225.5938737239999,None,1225.5938737239999,None,1225.5938737239999,None,,,,,,,,,,,,,,,,,,,,,,,,,,,,,,,,,,,,,,,,,,,,001,174,2020_Feb_27_0927,spring_faces,3.2.3,60.004448369774714,
condition files/Stage1_1.xlsx,,B4,T4,m,"['c', 'm']","['Clue', 'Monopoly']","[-0.15, 0.5]","[0.15, 0.5]",1,1,,,,,,,,,0,6,6,6,0,1,1,7,,,,,,,,,,,,,,,,,,,,,,,,,,,,,,,,,,,,,,,,,,,,,,,,,,,,,,,1227.5772025559995,None,1227.5772025559995,None,1227.5772025559995,None,m,1,0.9019855719998304,1229.1105463999997,None,1229.1105463999997,None,1229.1105463999997,None,1230.0938109579997,None,1230.0938109579997,None,1230.0938109579997,None,1230.0938109579997,None,,,,,,,,,,,,,,,,,,,,,,,,,,,,,,,,,,,,,,,,,,,,001,174,2020_Feb_27_0927,spring_faces,3.2.3,60.004448369774714,
condition files/Stage1_1.xlsx,,T1,B1,c,"['c', 'm']","['Clue', 'Monopoly']","[-0.15, 0.5]","[0.15, 0.5]",1,1,,,,,,,,,0,6,6,6,0,2,2,0,,,,,,,,,,,,,,,,,,,,,,,,,,,,,,,,,,,,,,,,,,,,,,,,,,,,,,,1232.0605289599994,None,1232.0605289599994,None,1232.0605289599994,None,m,0,1.298146512999665,1233.6105348039996,None,1233.6105348039996,None,1233.6105348039996,None,1234.977174909,None,1234.977174909,None,1234.977174909,None,1234.977174909,None,,,,,,,,,,,,,,,,,,,,,,,,,,,,,,,,,,,,,,,,,,,,001,174,2020_Feb_27_0927,spring_faces,3.2.3,60.004448369774714,
condition files/Stage1_1.xlsx,,T2,B2,m,"['c', 'm']","['Clue', 'Monopoly']","[-0.15, 0.5]","[0.15, 0.5]",1,1,,,,,,,,,0,6,6,6,0,3,3,3,,,,,,,,,,,,,,,,,,,,,,,,,,,,,,,,,,,,,,,,,,,,,,,,,,,,,,,1236.9439067939998,None,1236.9439067939998,None,1236.9439067939998,None,m,1,1.5195767149998574,1238.4770130909997,None,1238.4770130909997,None,1238.4770130909997,None,1240.0769633139994,None,1240.0769633139994,None,1240.0769633139994,None,1240.0769633139994,None,,,,,,,,,,,,,,,,,,,,,,,,,,,,,,,,,,,,,,,,,,,,001,174,2020_Feb_27_0927,spring_faces,3.2.3,60.004448369774714,
condition files/Stage1_1.xlsx,,B3,T3,c,"['c', 'm']","['Clue', 'Monopoly']","[-0.15, 0.5]","[0.15, 0.5]",1,1,,,,,,,,,0,6,6,6,0,4,4,4,,,,,,,,,,,,,,,,,,,,,,,,,,,,,,,,,,,,,,,,,,,,,,,,,,,,,,,1242.043880613,None,1242.043880613,None,1242.043880613,None,c,1,5.651358068999798,1243.5771553139998,None,1243.5771553139998,None,1243.5771553139998,None,1249.3104815319998,None,1249.3104815319998,None,1249.3104815319998,None,1249.3104815319998,None,,,,,,,,,,,,,,,,,,,,,,,,,,,,,,,,,,,,,,,,,,,,001,174,2020_Feb_27_0927,spring_faces,3.2.3,60.004448369774714,
condition files/Stage1_1.xlsx,,B2,T1,m,"['c', 'm']","['Clue', 'Monopoly']","[-0.15, 0.5]","[0.15, 0.5]",1,1,,,,,,,,,0,6,6,6,0,5,5,2,,,,,,,,,,,,,,,,,,,,,,,,,,,,,,,,,,,,,,,,,,,,,,,,,,,,,,,1251.277165608,None,1251.277165608,None,1251.277165608,None,c,0,1.0580492700000832,1252.810548209,None,1252.810548209,None,1252.810548209,None,1253.9438564039997,None,1253.9438564039997,None,1253.9438564039997,None,1253.9438564039997,None,,,,,,,,,,,,,,,,,,,,,,,,,,,,,,,,,,,,,,,,,,,,001,174,2020_Feb_27_0927,spring_faces,3.2.3,60.004448369774714,
condition files/Stage1_1.xlsx,,T4,B3,m,"['c', 'm']","['Clue', 'Monopoly']","[-0.15, 0.5]","[0.15, 0.5]",1,1,,,,,,,,,0,6,6,6,0,6,6,6,,,,,,,,,,,,,,,,,,,,,,,,,,,,,,,,,,,,,,,,,,,,,,,,,,,,,,,1255.910545233,None,1255.910545233,None,1255.910545233,None,m,1,13.560746135000045,1257.443868932,None,1257.443868932,None,1257.443868932,None,1271.0604260179994,None,1271.0604260179994,None,1271.0604260179994,None,1271.0604260179994,None,,,,,,,,,,,,,,,,,,,,,,,,,,,,,,,,,,,,,,,,,,,,001,174,2020_Feb_27_0927,spring_faces,3.2.3,60.004448369774714,
condition files/Stage1_1.xlsx,,T3,B4,c,"['c', 'm']","['Clue', 'Monopoly']","[-0.15, 0.5]","[0.15, 0.5]",1,1,,,,,,,,,0,6,6,6,0,7,7,5,,,,,,,,,,,,,,,,,,,,,,,,,,,,,,,,,,,,,,,,,,,,,,,,,,,,,,,1273.0438922950002,None,1273.0438922950002,None,1273.0438922950002,None,c,1,1.1954592210004193,1274.577133376,None,1274.577133376,None,1274.577133376,None,1275.8438674919994,None,1275.8438674919994,None,1275.8438674919994,None,1275.8438674919994,None,,,,,,,,,,,,,,,,,,,,,,,,,,,,,,,,,,,,,,,,,,,,001,174,2020_Feb_27_0927,spring_faces,3.2.3,60.004448369774714,
condition files/Stage1_2.xlsx,,B1,T1,c,"['c', 'm']","['Clue', 'Monopoly']","[-0.15, 0.5]","[0.15, 0.5]",1,1,,,,,,,,,0,7,7,7,0,0,0,0,,,,,,,,,,,,,,,,,,,,,,,,,,,,,,,,,,,,,,,,,,,,,,,,,,,,,,,1277.8272174879999,None,1277.8272174879999,None,1277.8272174879999,None,m,0,2.459418865999396,1279.3771731969996,None,1279.3771731969996,None,1279.3771731969996,None,1281.9105289719996,None,1281.9105289719996,None,1281.9105289719996,None,1281.9105289719996,None,,,,,,,,,,,,,,,,,,,,,,,,,,,,,,,,,,,,,,,,,,,,001,174,2020_Feb_27_0927,spring_faces,3.2.3,60.004448369774714,
condition files/Stage1_2.xlsx,,T4,B4,m,"['c', 'm']","['Clue', 'Monopoly']","[-0.15, 0.5]","[0.15, 0.5]",1,1,,,,,,,,,0,7,7,7,0,1,1,7,,,,,,,,,,,,,,,,,,,,,,,,,,,,,,,,,,,,,,,,,,,,,,,,,,,,,,,1283.8772204709999,None,1283.8772204709999,None,1283.8772204709999,None,c,0,3.89812201299992,1285.4105358639995,None,1285.4105358639995,None,1285.4105358639995,None,1289.3771967469997,None,1289.3771967469997,None,1289.3771967469997,None,1289.3771967469997,None,,,,,,,,,,,,,,,,,,,,,,,,,,,,,,,,,,,,,,,,,,,,001,174,2020_Feb_27_0927,spring_faces,3.2.3,60.004448369774714,
condition files/Stage1_2.xlsx,,B3,T4,m,"['c', 'm']","['Clue', 'Monopoly']","[-0.15, 0.5]","[0.15, 0.5]",1,1,,,,,,,,,0,7,7,7,0,2,2,6,,,,,,,,,,,,,,,,,,,,,,,,,,,,,,,,,,,,,,,,,,,,,,,,,,,,,,,1291.343829299,None,1291.343829299,None,1291.343829299,None,c,0,1.4394424499996603,1292.877198347,None,1292.877198347,None,1292.877198347,None,1294.376948744,None,1294.376948744,None,1294.376948744,None,1294.376948744,None,,,,,,,,,,,,,,,,,,,,,,,,,,,,,,,,,,,,,,,,,,,,001,174,2020_Feb_27_0927,spring_faces,3.2.3,60.004448369774714,
condition files/Stage1_2.xlsx,,T3,B3,c,"['c', 'm']","['Clue', 'Monopoly']","[-0.15, 0.5]","[0.15, 0.5]",1,1,,,,,,,,,0,7,7,7,0,3,3,4,,,,,,,,,,,,,,,,,,,,,,,,,,,,,,,,,,,,,,,,,,,,,,,,,,,,,,,1296.360550729,None,1296.360550729,None,1296.360550729,None,c,1,0.6628051509997022,1297.8938683350002,None,1297.8938683350002,None,1297.8938683350002,None,1298.6272373269999,None,1298.6272373269999,None,1298.6272373269999,None,1298.6272373269999,None,,,,,,,,,,,,,,,,,,,,,,,,,,,,,,,,,,,,,,,,,,,,001,174,2020_Feb_27_0927,spring_faces,3.2.3,60.004448369774714,
condition files/Stage1_2.xlsx,,T2,B1,c,"['c', 'm']","['Clue', 'Monopoly']","[-0.15, 0.5]","[0.15, 0.5]",1,1,,,,,,,,,0,7,7,7,0,4,4,1,,,,,,,,,,,,,,,,,,,,,,,,,,,,,,,,,,,,,,,,,,,,,,,,,,,,,,,1300.5938739130002,None,1300.5938739130002,None,1300.5938739130002,None,m,0,3.5496362589992714,1302.12706442,None,1302.12706442,None,1302.12706442,None,1305.743729458,None,1305.743729458,None,1305.743729458,None,1305.743729458,None,,,,,,,,,,,,,,,,,,,,,,,,,,,,,,,,,,,,,,,,,,,,001,174,2020_Feb_27_0927,spring_faces,3.2.3,60.004448369774714,
condition files/Stage1_2.xlsx,,B2,T2,m,"['c', 'm']","['Clue', 'Monopoly']","[-0.15, 0.5]","[0.15, 0.5]",1,1,,,,,,,,,0,7,7,7,0,5,5,3,,,,,,,,,,,,,,,,,,,,,,,,,,,,,,,,,,,,,,,,,,,,,,,,,,,,,,,1307.7104836980002,None,1307.7104836980002,None,1307.7104836980002,None,c,0,0.5927440069999648,1309.2438549559997,None,1309.2438549559997,None,1309.2438549559997,None,1309.9105346679994,None,1309.9105346679994,None,1309.9105346679994,None,1309.9105346679994,None,,,,,,,,,,,,,,,,,,,,,,,,,,,,,,,,,,,,,,,,,,,,001,174,2020_Feb_27_0927,spring_faces,3.2.3,60.004448369774714,
condition files/Stage1_2.xlsx,,B4,T3,c,"['c', 'm']","['Clue', 'Monopoly']","[-0.15, 0.5]","[0.15, 0.5]",1,1,,,,,,,,,0,7,7,7,0,6,6,5,,,,,,,,,,,,,,,,,,,,,,,,,,,,,,,,,,,,,,,,,,,,,,,,,,,,,,,1311.877198144,None,1311.877198144,None,1311.877198144,None,m,0,0.6499526539992075,1313.4105430039995,None,1313.4105430039995,None,1313.4105430039995,None,1314.1271354599999,None,1314.1271354599999,None,1314.1271354599999,None,1314.1271354599999,None,,,,,,,,,,,,,,,,,,,,,,,,,,,,,,,,,,,,,,,,,,,,001,174,2020_Feb_27_0927,spring_faces,3.2.3,60.004448369774714,
condition files/Stage1_2.xlsx,,T1,B2,m,"['c', 'm']","['Clue', 'Monopoly']","[-0.15, 0.5]","[0.15, 0.5]",1,1,,,,,,,,,0,7,7,7,0,7,7,2,,,,,,,,,,,,,,,,,,,,,,,,,,,,,,,,,,,,,,,,,,,,,,,,,,,,,,,1316.0938811459996,None,1316.0938811459996,None,1316.0938811459996,None,c,0,1.5213976079994609,1317.6271848559995,None,1317.6271848559995,None,1317.6271848559995,None,1319.227221042,None,1319.227221042,None,1319.227221042,None,1319.227221042,None,,,,,,,,,,,,,,,,,,,,,,,,,,,,,,,,,,,,,,,,,,,,001,174,2020_Feb_27_0927,spring_faces,3.2.3,60.004448369774714,
condition files/Stage1_1.xlsx,,T3,B4,c,"['c', 'm']","['Clue', 'Monopoly']","[-0.15, 0.5]","[0.15, 0.5]",1,1,,,,,,,,,0,8,8,8,0,0,0,5,,,,,,,,,,,,,,,,,,,,,,,,,,,,,,,,,,,,,,,,,,,,,,,,,,,,,,,1321.2105913569999,None,1321.2105913569999,None,1321.2105913569999,None,m,0,1.8127808149993143,1322.743921578,None,1322.743921578,None,1322.743921578,None,1324.627220893,None,1324.627220893,None,1324.627220893,None,1324.627220893,None,,,,,,,,,,,,,,,,,,,,,,,,,,,,,,,,,,,,,,,,,,,,001,174,2020_Feb_27_0927,spring_faces,3.2.3,60.004448369774714,
condition files/Stage1_1.xlsx,,B2,T1,m,"['c', 'm']","['Clue', 'Monopoly']","[-0.15, 0.5]","[0.15, 0.5]",1,1,,,,,,,,,0,8,8,8,0,1,1,2,,,,,,,,,,,,,,,,,,,,,,,,,,,,,,,,,,,,,,,,,,,,,,,,,,,,,,,1326.5938692099994,None,1326.5938692099994,None,1326.5938692099994,None,c,0,0.7815196700003071,1328.1271675759995,None,1328.1271675759995,None,1328.1271675759995,None,1328.9771893840002,None,1328.9771893840002,None,1328.9771893840002,None,1328.9771893840002,None,,,,,,,,,,,,,,,,,,,,,,,,,,,,,,,,,,,,,,,,,,,,001,174,2020_Feb_27_0927,spring_faces,3.2.3,60.004448369774714,
condition files/Stage1_1.xlsx,,B4,T4,m,"['c', 'm']","['Clue', 'Monopoly']","[-0.15, 0.5]","[0.15, 0.5]",1,1,,,,,,,,,0,8,8,8,0,2,2,7,,,,,,,,,,,,,,,,,,,,,,,,,,,,,,,,,,,,,,,,,,,,,,,,,,,,,,,1330.9438971159993,None,1330.9438971159993,None,1330.9438971159993,None,m,1,0.5274559669996961,1332.477141793,None,1332.477141793,None,1332.477141793,None,1333.0772215020002,None,1333.0772215020002,None,1333.0772215020002,None,1333.0772215020002,None,,,,,,,,,,,,,,,,,,,,,,,,,,,,,,,,,,,,,,,,,,,,001,174,2020_Feb_27_0927,spring_faces,3.2.3,60.004448369774714,
condition files/Stage1_1.xlsx,,T1,B1,c,"['c', 'm']","['Clue', 'Monopoly']","[-0.15, 0.5]","[0.15, 0.5]",1,1,,,,,,,,,0,8,8,8,0,3,3,0,,,,,,,,,,,,,,,,,,,,,,,,,,,,,,,,,,,,,,,,,,,,,,,,,,,,,,,1335.0438789589994,None,1335.0438789589994,None,1335.0438789589994,None,m,0,2.427460326999608,1336.5771729989997,None,1336.5771729989997,None,1336.5771729989997,None,1339.0772256719997,None,1339.0772256719997,None,1339.0772256719997,None,1339.0772256719997,None,,,,,,,,,,,,,,,,,,,,,,,,,,,,,,,,,,,,,,,,,,,,001,174,2020_Feb_27_0927,spring_faces,3.2.3,60.004448369774714,
condition files/Stage1_1.xlsx,,T4,B3,m,"['c', 'm']","['Clue', 'Monopoly']","[-0.15, 0.5]","[0.15, 0.5]",1,1,,,,,,,,,0,8,8,8,0,4,4,6,,,,,,,,,,,,,,,,,,,,,,,,,,,,,,,,,,,,,,,,,,,,,,,,,,,,,,,1341.0438892019997,None,1341.0438892019997,None,1341.0438892019997,None,m,1,3.323428530000456,1342.5770838969997,None,1342.5770838969997,None,1342.5770838969997,None,1345.976777036,None,1345.976777036,None,1345.976777036,None,1345.976777036,None,,,,,,,,,,,,,,,,,,,,,,,,,,,,,,,,,,,,,,,,,,,,001,174,2020_Feb_27_0927,spring_faces,3.2.3,60.004448369774714,
condition files/Stage1_1.xlsx,,B1,T2,c,"['c', 'm']","['Clue', 'Monopoly']","[-0.15, 0.5]","[0.15, 0.5]",1,1,,,,,,,,,0,8,8,8,0,5,5,1,,,,,,,,,,,,,,,,,,,,,,,,,,,,,,,,,,,,,,,,,,,,,,,,,,,,,,,1347.9605345969999,None,1347.9605345969999,None,1347.9605345969999,None,m,0,2.1828516140003558,1349.4938494189996,None,1349.4938494189996,None,1349.4938494189996,None,1351.7437609550002,None,1351.7437609550002,None,1351.7437609550002,None,1351.7437609550002,None,,,,,,,,,,,,,,,,,,,,,,,,,,,,,,,,,,,,,,,,,,,,001,174,2020_Feb_27_0927,spring_faces,3.2.3,60.004448369774714,
condition files/Stage1_1.xlsx,,B3,T3,c,"['c', 'm']","['Clue', 'Monopoly']","[-0.15, 0.5]","[0.15, 0.5]",1,1,,,,,,,,,0,8,8,8,0,6,6,4,,,,,,,,,,,,,,,,,,,,,,,,,,,,,,,,,,,,,,,,,,,,,,,,,,,,,,,1353.7104525199998,None,1353.7104525199998,None,1353.7104525199998,None,c,1,2.160714151999855,1355.243875093,None,1355.243875093,None,1355.243875093,None,1357.4605487140002,None,1357.4605487140002,None,1357.4605487140002,None,1357.4605487140002,None,,,,,,,,,,,,,,,,,,,,,,,,,,,,,,,,,,,,,,,,,,,,001,174,2020_Feb_27_0927,spring_faces,3.2.3,60.004448369774714,
condition files/Stage1_1.xlsx,,T2,B2,m,"['c', 'm']","['Clue', 'Monopoly']","[-0.15, 0.5]","[0.15, 0.5]",1,1,,,,,,,,,0,8,8,8,0,7,7,3,,,,,,,,,,,,,,,,,,,,,,,,,,,,,,,,,,,,,,,,,,,,,,,,,,,,,,,1359.4438778279996,None,1359.4438778279996,None,1359.4438778279996,None,m,1,1.1954694100004417,1360.9771325739998,None,1360.9771325739998,None,1360.9771325739998,None,1362.2439099159997,None,1362.2439099159997,None,1362.2439099159997,None,1362.2439099159997,None,,,,,,,,,,,,,,,,,,,,,,,,,,,,,,,,,,,,,,,,,,,,001,174,2020_Feb_27_0927,spring_faces,3.2.3,60.004448369774714,
condition files/Stage1_2.xlsx,,T2,B1,c,"['c', 'm']","['Clue', 'Monopoly']","[-0.15, 0.5]","[0.15, 0.5]",1,1,,,,,,,,,0,9,9,9,0,0,0,1,,,,,,,,,,,,,,,,,,,,,,,,,,,,,,,,,,,,,,,,,,,,,,,,,,,,,,,1364.227220493,None,1364.227220493,None,1364.227220493,None,m,0,0.7801523250000173,1365.7605180699998,None,1365.7605180699998,None,1365.7605180699998,None,1366.6105454429994,None,1366.6105454429994,None,1366.6105454429994,None,1366.6105454429994,None,,,,,,,,,,,,,,,,,,,,,,,,,,,,,,,,,,,,,,,,,,,,001,174,2020_Feb_27_0927,spring_faces,3.2.3,60.004448369774714,
condition files/Stage1_2.xlsx,,T3,B3,c,"['c', 'm']","['Clue', 'Monopoly']","[-0.15, 0.5]","[0.15, 0.5]",1,1,,,,,,,,,0,9,9,9,0,1,1,4,,,,,,,,,,,,,,,,,,,,,,,,,,,,,,,,,,,,,,,,,,,,,,,,,,,,,,,1368.5772331579997,None,1368.5772331579997,None,1368.5772331579997,None,c,1,2.174150816999827,1370.1104597549997,None,1370.1104597549997,None,1370.1104597549997,None,1372.343878137,None,1372.343878137,None,1372.343878137,None,1372.343878137,None,,,,,,,,,,,,,,,,,,,,,,,,,,,,,,,,,,,,,,,,,,,,001,174,2020_Feb_27_0927,spring_faces,3.2.3,60.004448369774714,
condition files/Stage1_2.xlsx,,T1,B2,m,"['c', 'm']","['Clue', 'Monopoly']","[-0.15, 0.5]","[0.15, 0.5]",1,1,,,,,,,,,0,9,9,9,0,2,2,2,,,,,,,,,,,,,,,,,,,,,,,,,,,,,,,,,,,,,,,,,,,,,,,,,,,,,,,1374.3270743889993,None,1374.3270743889993,None,1374.3270743889993,None,c,0,2.1200309960004233,1375.8605413339997,None,1375.8605413339997,None,1375.8605413339997,None,1378.0605478060002,None,1378.0605478060002,None,1378.0605478060002,None,1378.0605478060002,None,,,,,,,,,,,,,,,,,,,,,,,,,,,,,,,,,,,,,,,,,,,,001,174,2020_Feb_27_0927,spring_faces,3.2.3,60.004448369774714,
condition files/Stage1_2.xlsx,,B2,T2,m,"['c', 'm']","['Clue', 'Monopoly']","[-0.15, 0.5]","[0.15, 0.5]",1,1,,,,,,,,,0,9,9,9,0,3,3,3,,,,,,,,,,,,,,,,,,,,,,,,,,,,,,,,,,,,,,,,,,,,,,,,,,,,,,,1380.0272479649998,None,1380.0272479649998,None,1380.0272479649998,None,m,1,1.396137765000276,1381.5605512279994,None,1381.5605512279994,None,1381.5605512279994,None,1383.0105059209995,None,1383.0105059209995,None,1383.0105059209995,None,1383.0105059209995,None,,,,,,,,,,,,,,,,,,,,,,,,,,,,,,,,,,,,,,,,,,,,001,174,2020_Feb_27_0927,spring_faces,3.2.3,60.004448369774714,
condition files/Stage1_2.xlsx,,B3,T4,m,"['c', 'm']","['Clue', 'Monopoly']","[-0.15, 0.5]","[0.15, 0.5]",1,1,,,,,,,,,0,9,9,9,0,4,4,6,,,,,,,,,,,,,,,,,,,,,,,,,,,,,,,,,,,,,,,,,,,,,,,,,,,,,,,1384.993891476,None,1384.993891476,None,1384.993891476,None,m,1,1.6134280260002924,1386.5272188719996,None,1386.5272188719996,None,1386.5272188719996,None,1388.1938776129996,None,1388.1938776129996,None,1388.1938776129996,None,1388.1938776129996,None,,,,,,,,,,,,,,,,,,,,,,,,,,,,,,,,,,,,,,,,,,,,001,174,2020_Feb_27_0927,spring_faces,3.2.3,60.004448369774714,
condition files/Stage1_2.xlsx,,B1,T1,c,"['c', 'm']","['Clue', 'Monopoly']","[-0.15, 0.5]","[0.15, 0.5]",1,1,,,,,,,,,0,9,9,9,0,5,5,0,,,,,,,,,,,,,,,,,,,,,,,,,,,,,,,,,,,,,,,,,,,,,,,,,,,,,,,1390.1771607239994,None,1390.1771607239994,None,1390.1771607239994,None,m,0,2.2380314319998433,1391.710544215,None,1391.710544215,None,1391.710544215,None,1394.0272017450002,None,1394.0272017450002,None,1394.0272017450002,None,1394.0272017450002,None,,,,,,,,,,,,,,,,,,,,,,,,,,,,,,,,,,,,,,,,,,,,001,174,2020_Feb_27_0927,spring_faces,3.2.3,60.004448369774714,
condition files/Stage1_2.xlsx,,T4,B4,m,"['c', 'm']","['Clue', 'Monopoly']","[-0.15, 0.5]","[0.15, 0.5]",1,1,,,,,,,,,0,9,9,9,0,6,6,7,,,,,,,,,,,,,,,,,,,,,,,,,,,,,,,,,,,,,,,,,,,,,,,,,,,,,,,1395.9938574329994,None,1395.9938574329994,None,1395.9938574329994,None,c,0,2.565475554999466,1397.5272025179997,None,1397.5272025179997,None,1397.5272025179997,None,1400.1602135119997,None,1400.1602135119997,None,1400.1602135119997,None,1400.1602135119997,None,,,,,,,,,,,,,,,,,,,,,,,,,,,,,,,,,,,,,,,,,,,,001,174,2020_Feb_27_0927,spring_faces,3.2.3,60.004448369774714,
condition files/Stage1_2.xlsx,,B4,T3,c,"['c', 'm']","['Clue', 'Monopoly']","[-0.15, 0.5]","[0.15, 0.5]",1,1,,,,,,,,,0,9,9,9,0,7,7,5,,,,,,,,,,,,,,,,,,,,,,,,,,,,,,,,,,,,,,,,,,,,,,,,,,,,,,,1402.1271479889997,None,1402.1271479889997,None,1402.1271479889997,None,m,0,13.167880232999778,1403.6605637939997,None,1403.6605637939997,None,1403.6605637939997,None,1416.9104897969996,None,1416.9104897969996,None,1416.9104897969996,None,1416.9104897969996,None,,,,,,,,,,,,,,,,,,,,,,,,,,,,,,,,,,,,,,,,,,,,001,174,2020_Feb_27_0927,spring_faces,3.2.3,60.004448369774714,
condition files/Stage1_1.xlsx,,T1,B1,c,"['c', 'm']","['Clue', 'Monopoly']","[-0.15, 0.5]","[0.15, 0.5]",1,1,,,,,,,,,0,10,10,10,0,0,0,0,,,,,,,,,,,,,,,,,,,,,,,,,,,,,,,,,,,,,,,,,,,,,,,,,,,,,,,1418.8938304159997,None,1418.8938304159997,None,1418.8938304159997,None,c,1,2.0974558179996166,1420.4272165199995,None,1420.4272165199995,None,1420.4272165199995,None,1422.5771195049997,None,1422.5771195049997,None,1422.5771195049997,None,1422.5771195049997,None,,,,,,,,,,,,,,,,,,,,,,,,,,,,,,,,,,,,,,,,,,,,001,174,2020_Feb_27_0927,spring_faces,3.2.3,60.004448369774714,
condition files/Stage1_1.xlsx,,B3,T3,c,"['c', 'm']","['Clue', 'Monopoly']","[-0.15, 0.5]","[0.15, 0.5]",1,1,,,,,,,,,0,10,10,10,0,1,1,4,,,,,,,,,,,,,,,,,,,,,,,,,,,,,,,,,,,,,,,,,,,,,,,,,,,,,,,1424.5604342679994,None,1424.5604342679994,None,1424.5604342679994,None,c,1,2.1266853010001796,1426.0939237899997,None,1426.0939237899997,None,1426.0939237899997,None,1428.277199705,None,1428.277199705,None,1428.277199705,None,1428.277199705,None,,,,,,,,,,,,,,,,,,,,,,,,,,,,,,,,,,,,,,,,,,,,001,174,2020_Feb_27_0927,spring_faces,3.2.3,60.004448369774714,
condition files/Stage1_1.xlsx,,T3,B4,c,"['c', 'm']","['Clue', 'Monopoly']","[-0.15, 0.5]","[0.15, 0.5]",1,1,,,,,,,,,0,10,10,10,0,2,2,5,,,,,,,,,,,,,,,,,,,,,,,,,,,,,,,,,,,,,,,,,,,,,,,,,,,,,,,1430.260426724,None,1430.260426724,None,1430.260426724,None,c,1,1.546728861999327,1431.7938978759998,None,1431.7938978759998,None,1431.7938978759998,None,1433.4105448670002,None,1433.4105448670002,None,1433.4105448670002,None,1433.4105448670002,None,,,,,,,,,,,,,,,,,,,,,,,,,,,,,,,,,,,,,,,,,,,,001,174,2020_Feb_27_0927,spring_faces,3.2.3,60.004448369774714,
condition files/Stage1_1.xlsx,,B2,T1,m,"['c', 'm']","['Clue', 'Monopoly']","[-0.15, 0.5]","[0.15, 0.5]",1,1,,,,,,,,,0,10,10,10,0,3,3,2,,,,,,,,,,,,,,,,,,,,,,,,,,,,,,,,,,,,,,,,,,,,,,,,,,,,,,,1435.3772393879995,None,1435.3772393879995,None,1435.3772393879995,None,c,0,1.8381012720001308,1436.9105012489995,None,1436.9105012489995,None,1436.9105012489995,None,1438.8271534629998,None,1438.8271534629998,None,1438.8271534629998,None,1438.8271534629998,None,,,,,,,,,,,,,,,,,,,,,,,,,,,,,,,,,,,,,,,,,,,,001,174,2020_Feb_27_0927,spring_faces,3.2.3,60.004448369774714,
condition files/Stage1_1.xlsx,,B4,T4,m,"['c', 'm']","['Clue', 'Monopoly']","[-0.15, 0.5]","[0.15, 0.5]",1,1,,,,,,,,,0,10,10,10,0,4,4,7,,,,,,,,,,,,,,,,,,,,,,,,,,,,,,,,,,,,,,,,,,,,,,,,,,,,,,,1440.7938813529995,None,1440.7938813529995,None,1440.7938813529995,None,m,1,4.229475230999924,1442.3272137669996,None,1442.3272137669996,None,1442.3272137669996,None,1446.6105586669996,None,1446.6105586669996,None,1446.6105586669996,None,1446.6105586669996,None,,,,,,,,,,,,,,,,,,,,,,,,,,,,,,,,,,,,,,,,,,,,001,174,2020_Feb_27_0927,spring_faces,3.2.3,60.004448369774714,
condition files/Stage1_1.xlsx,,T2,B2,m,"['c', 'm']","['Clue', 'Monopoly']","[-0.15, 0.5]","[0.15, 0.5]",1,1,,,,,,,,,0,10,10,10,0,5,5,3,,,,,,,,,,,,,,,,,,,,,,,,,,,,,,,,,,,,,,,,,,,,,,,,,,,,,,,1448.5938893349999,None,1448.5938893349999,None,1448.5938893349999,None,c,0,3.4535090730005322,1450.1270841379996,None,1450.1270841379996,None,1450.1270841379996,None,1453.6606016539995,None,1453.6606016539995,None,1453.6606016539995,None,1453.6606016539995,None,,,,,,,,,,,,,,,,,,,,,,,,,,,,,,,,,,,,,,,,,,,,001,174,2020_Feb_27_0927,spring_faces,3.2.3,60.004448369774714,
condition files/Stage1_1.xlsx,,T4,B3,m,"['c', 'm']","['Clue', 'Monopoly']","[-0.15, 0.5]","[0.15, 0.5]",1,1,,,,,,,,,0,10,10,10,0,6,6,6,,,,,,,,,,,,,,,,,,,,,,,,,,,,,,,,,,,,,,,,,,,,,,,,,,,,,,,1455.627209934,None,1455.627209934,None,1455.627209934,None,c,0,1.0920430090000082,1457.1605739109996,None,1457.1605739109996,None,1457.1605739109996,None,1458.310538628,None,1458.310538628,None,1458.310538628,None,1458.310538628,None,,,,,,,,,,,,,,,,,,,,,,,,,,,,,,,,,,,,,,,,,,,,001,174,2020_Feb_27_0927,spring_faces,3.2.3,60.004448369774714,
condition files/Stage1_1.xlsx,,B1,T2,c,"['c', 'm']","['Clue', 'Monopoly']","[-0.15, 0.5]","[0.15, 0.5]",1,1,,,,,,,,,0,10,10,10,0,7,7,1,,,,,,,,,,,,,,,,,,,,,,,,,,,,,,,,,,,,,,,,,,,,,,,,,,,,,,,1460.293910928,None,1460.293910928,None,1460.293910928,None,c,1,16.937324757999704,1461.8272307410002,None,1461.8272307410002,None,1461.8272307410002,None,1478.8438640239997,None,1478.8438640239997,None,1478.8438640239997,None,1478.8438640239997,None,,,,,,,,,,,,,,,,,,,,,,,,,,,,,,,,,,,,,,,,,,,,001,174,2020_Feb_27_0927,spring_faces,3.2.3,60.004448369774714,
condition files/Stage1_2.xlsx,,T3,B3,c,"['c', 'm']","['Clue', 'Monopoly']","[-0.15, 0.5]","[0.15, 0.5]",1,1,,,,,,,,,0,11,11,11,0,0,0,4,,,,,,,,,,,,,,,,,,,,,,,,,,,,,,,,,,,,,,,,,,,,,,,,,,,,,,,1480.8272213469995,None,1480.8272213469995,None,1480.8272213469995,None,c,1,2.0679688190002707,1482.3605473909997,None,1482.3605473909997,None,1482.3605473909997,None,1484.4937705999996,None,1484.4937705999996,None,1484.4937705999996,None,1484.4937705999996,None,,,,,,,,,,,,,,,,,,,,,,,,,,,,,,,,,,,,,,,,,,,,001,174,2020_Feb_27_0927,spring_faces,3.2.3,60.004448369774714,
condition files/Stage1_2.xlsx,,T2,B1,c,"['c', 'm']","['Clue', 'Monopoly']","[-0.15, 0.5]","[0.15, 0.5]",1,1,,,,,,,,,0,11,11,11,0,1,1,1,,,,,,,,,,,,,,,,,,,,,,,,,,,,,,,,,,,,,,,,,,,,,,,,,,,,,,,1486.4771969869994,None,1486.4771969869994,None,1486.4771969869994,None,m,0,1.3300981269994736,1488.0105525489994,None,1488.0105525489994,None,1488.0105525489994,None,1489.410561538,None,1489.410561538,None,1489.410561538,None,1489.410561538,None,,,,,,,,,,,,,,,,,,,,,,,,,,,,,,,,,,,,,,,,,,,,001,174,2020_Feb_27_0927,spring_faces,3.2.3,60.004448369774714,
condition files/Stage1_2.xlsx,,B3,T4,m,"['c', 'm']","['Clue', 'Monopoly']","[-0.15, 0.5]","[0.15, 0.5]",1,1,,,,,,,,,0,11,11,11,0,2,2,6,,,,,,,,,,,,,,,,,,,,,,,,,,,,,,,,,,,,,,,,,,,,,,,,,,,,,,,1491.3771621709998,None,1491.3771621709998,None,1491.3771621709998,None,c,0,1.2461877080004342,1492.9105241419998,None,1492.9105241419998,None,1492.9105241419998,None,1494.227206735,None,1494.227206735,None,1494.227206735,None,1494.227206735,None,,,,,,,,,,,,,,,,,,,,,,,,,,,,,,,,,,,,,,,,,,,,001,174,2020_Feb_27_0927,spring_faces,3.2.3,60.004448369774714,
condition files/Stage1_2.xlsx,,B2,T2,m,"['c', 'm']","['Clue', 'Monopoly']","[-0.15, 0.5]","[0.15, 0.5]",1,1,,,,,,,,,0,11,11,11,0,3,3,3,,,,,,,,,,,,,,,,,,,,,,,,,,,,,,,,,,,,,,,,,,,,,,,,,,,,,,,1496.1938852520002,None,1496.1938852520002,None,1496.1938852520002,None,m,1,2.3333418259999235,1497.7271628180001,None,1497.7271628180001,None,1497.7271628180001,None,1500.127197931,None,1500.127197931,None,1500.127197931,None,1500.127197931,None,,,,,,,,,,,,,,,,,,,,,,,,,,,,,,,,,,,,,,,,,,,,001,174,2020_Feb_27_0927,spring_faces,3.2.3,60.004448369774714,
condition files/Stage1_2.xlsx,,T1,B2,m,"['c', 'm']","['Clue', 'Monopoly']","[-0.15, 0.5]","[0.15, 0.5]",1,1,,,,,,,,,0,11,11,11,0,4,4,2,,,,,,,,,,,,,,,,,,,,,,,,,,,,,,,,,,,,,,,,,,,,,,,,,,,,,,,1502.093886868,None,1502.093886868,None,1502.093886868,None,c,0,1.6814829069999178,1503.6272082250002,None,1503.6272082250002,None,1503.6272082250002,None,1505.3771782729996,None,1505.3771782729996,None,1505.3771782729996,None,1505.3771782729996,None,,,,,,,,,,,,,,,,,,,,,,,,,,,,,,,,,,,,,,,,,,,,001,174,2020_Feb_27_0927,spring_faces,3.2.3,60.004448369774714,
condition files/Stage1_2.xlsx,,B1,T1,c,"['c', 'm']","['Clue', 'Monopoly']","[-0.15, 0.5]","[0.15, 0.5]",1,1,,,,,,,,,0,11,11,11,0,5,5,0,,,,,,,,,,,,,,,,,,,,,,,,,,,,,,,,,,,,,,,,,,,,,,,,,,,,,,,1507.3437909689997,None,1507.3437909689997,None,1507.3437909689997,None,c,1,2.9916013569991264,1508.8770153379996,None,1508.8770153379996,None,1508.8770153379996,None,1511.9438886989997,None,1511.9438886989997,None,1511.9438886989997,None,1511.9438886989997,None,,,,,,,,,,,,,,,,,,,,,,,,,,,,,,,,,,,,,,,,,,,,001,174,2020_Feb_27_0927,spring_faces,3.2.3,60.004448369774714,
condition files/Stage1_2.xlsx,,T4,B4,m,"['c', 'm']","['Clue', 'Monopoly']","[-0.15, 0.5]","[0.15, 0.5]",1,1,,,,,,,,,0,11,11,11,0,6,6,7,,,,,,,,,,,,,,,,,,,,,,,,,,,,,,,,,,,,,,,,,,,,,,,,,,,,,,,1513.9105531330001,None,1513.9105531330001,None,1513.9105531330001,None,m,1,3.096748770000886,1515.4438892469993,None,1515.4438892469993,None,1515.4438892469993,None,1518.6105377629997,None,1518.6105377629997,None,1518.6105377629997,None,1518.6105377629997,None,,,,,,,,,,,,,,,,,,,,,,,,,,,,,,,,,,,,,,,,,,,,001,174,2020_Feb_27_0927,spring_faces,3.2.3,60.004448369774714,
condition files/Stage1_2.xlsx,,B4,T3,c,"['c', 'm']","['Clue', 'Monopoly']","[-0.15, 0.5]","[0.15, 0.5]",1,1,,,,,,,,,0,11,11,11,0,7,7,5,,,,,,,,,,,,,,,,,,,,,,,,,,,,,,,,,,,,,,,,,,,,,,,,,,,,,,,1520.577192669,None,1520.577192669,None,1520.577192669,None,c,1,2.414152985000328,1522.110527808,None,1522.110527808,None,1522.110527808,None,1524.5937755599994,None,1524.5937755599994,None,1524.5937755599994,None,1524.5937755599994,None,,,,,,,,,,,,,,,,,,,,,,,,,,,,,,,,,,,,,,,,,,,,001,174,2020_Feb_27_0927,spring_faces,3.2.3,60.004448369774714,
,,,,,,,,,,,,,,,,,,,,,,,,,,,,,,,,,,,,,,,,,,,,,,,,,,,,,,,,,,,,,,,,,,,,,,,,,,,,,,,,,,,,,,,,,,,,,,,,,,,,,,,,,,,,,,,,1526.5604833699995,None,space,6.884590790000402,1531.5438886289999,None,,,,,,,,,,,,,,,,,,,,,,,,,,,,,,001,174,2020_Feb_27_0927,spring_faces,3.2.3,60.004448369774714,
condition files/Stage2_1.xlsx,,B4,T4,r,"['s', 'r']","['Stratego', 'Risk']","[-0.15, 0.5]","[0.15, 0.5]",1,1,,,,,,,,,,,,,,,,,0,0,0,0,0,0,0,5,,,,,,,,,,,,,,,,,,,,,,,,,,,,,,,,,,,,,,,,,,,,,,,1538.5270927830002,None,1538.5270927830002,None,1538.5270927830002,None,s,0,4.32204677899972,1540.0105452960001,None,1540.0105452960001,None,1540.0105452960001,None,1544.4105246630002,None,1544.4105246630002,None,1544.4105246630002,None,1544.4105246630002,None,,,,,,,,,,,,,,,1531.5438886289999,None,,,,,,,,,,,,,,,,,,,,,,,,,,,,001,174,2020_Feb_27_0927,spring_faces,3.2.3,60.004448369774714,
condition files/Stage2_1.xlsx,,T3,B3,s,"['s', 'r']","['Stratego', 'Risk']","[-0.15, 0.5]","[0.15, 0.5]",1,1,,,,,,,,,,,,,,,,,0,0,0,0,0,1,1,4,,,,,,,,,,,,,,,,,,,,,,,,,,,,,,,,,,,,,,,,,,,,,,,1546.3772049670001,None,1546.3772049670001,None,1546.3772049670001,None,s,1,5.97405143800006,1547.9105337449996,None,1547.9105337449996,None,1547.9105337449996,None,1553.9605376489994,None,1553.9605376489994,None,1553.9605376489994,None,1553.9605376489994,None,,,,,,,,,,,,,,,,,,,,,,,,,,,,,,,,,,,,,,,,,,,,001,174,2020_Feb_27_0927,spring_faces,3.2.3,60.004448369774714,
condition files/Stage2_1.xlsx,,B6,T6,r,"['s', 'r']","['Stratego', 'Risk']","[-0.15, 0.5]","[0.15, 0.5]",1,1,,,,,,,,,,,,,,,,,0,0,0,0,0,2,2,1,,,,,,,,,,,,,,,,,,,,,,,,,,,,,,,,,,,,,,,,,,,,,,,1555.927245425,None,1555.927245425,None,1555.927245425,None,r,1,4.2034008230002655,1557.7771640059996,None,1557.7771640059996,None,1557.7771640059996,None,1562.0605327540002,None,1562.0605327540002,None,1562.0605327540002,None,1562.0605327540002,None,,,,,,,,,,,,,,,,,,,,,,,,,,,,,,,,,,,,,,,,,,,,001,174,2020_Feb_27_0927,spring_faces,3.2.3,60.004448369774714,
condition files/Stage2_1.xlsx,,B2,T2,r,"['s', 'r']","['Stratego', 'Risk']","[-0.15, 0.5]","[0.15, 0.5]",1,1,,,,,,,,,,,,,,,,,0,0,0,0,0,3,3,3,,,,,,,,,,,,,,,,,,,,,,,,,,,,,,,,,,,,,,,,,,,,,,,1564.027193294,None,1564.027193294,None,1564.027193294,None,s,0,1.8280995799996163,1565.5605333829994,None,1565.5605333829994,None,1565.5605333829994,None,1567.4605628739996,None,1567.4605628739996,None,1567.4605628739996,None,1567.4605628739996,None,,,,,,,,,,,,,,,,,,,,,,,,,,,,,,,,,,,,,,,,,,,,001,174,2020_Feb_27_0927,spring_faces,3.2.3,60.004448369774714,
condition files/Stage2_1.xlsx,,T1,B1,s,"['s', 'r']","['Stratego', 'Risk']","[-0.15, 0.5]","[0.15, 0.5]",1,1,,,,,,,,,,,,,,,,,0,0,0,0,0,4,4,2,,,,,,,,,,,,,,,,,,,,,,,,,,,,,,,,,,,,,,,,,,,,,,,1569.427224398,None,1569.427224398,None,1569.427224398,None,s,1,1.8520290859996749,1570.9605397589999,None,1570.9605397589999,None,1570.9605397589999,None,1572.8938177489995,None,1572.8938177489995,None,1572.8938177489995,None,1572.8938177489995,None,,,,,,,,,,,,,,,,,,,,,,,,,,,,,,,,,,,,,,,,,,,,001,174,2020_Feb_27_0927,spring_faces,3.2.3,60.004448369774714,
condition files/Stage2_1.xlsx,,T5,B5,s,"['s', 'r']","['Stratego', 'Risk']","[-0.15, 0.5]","[0.15, 0.5]",1,1,,,,,,,,,,,,,,,,,0,0,0,0,0,5,5,0,,,,,,,,,,,,,,,,,,,,,,,,,,,,,,,,,,,,,,,,,,,,,,,1574.8605511669998,None,1574.8605511669998,None,1574.8605511669998,None,r,0,2.3421168909999324,1576.7105038329996,None,1576.7105038329996,None,1576.7105038329996,None,1579.1105370230002,None,1579.1105370230002,None,1579.1105370230002,None,1579.1105370230002,None,,,,,,,,,,,,,,,,,,,,,,,,,,,,,,,,,,,,,,,,,,,,001,174,2020_Feb_27_0927,spring_faces,3.2.3,60.004448369774714,
condition files/Stage2_2.xlsx,,T6,B6,r,"['s', 'r']","['Stratego', 'Risk']","[-0.15, 0.5]","[0.15, 0.5]",1,1,,,,,,,,,,,,,,,,,0,1,1,1,0,0,0,1,,,,,,,,,,,,,,,,,,,,,,,,,,,,,,,,,,,,,,,,,,,,,,,1581.1439129079995,None,1581.1439129079995,None,1581.1439129079995,None,s,0,0.9367345570008183,1582.64385602,None,1582.64385602,None,1582.64385602,None,1583.660534829,None,1583.660534829,None,1583.660534829,None,1583.660534829,None,,,,,,,,,,,,,,,,,,,,,,,,,,,,,,,,,,,,,,,,,,,,001,174,2020_Feb_27_0927,spring_faces,3.2.3,60.004448369774714,
condition files/Stage2_2.xlsx,,T4,B4,r,"['s', 'r']","['Stratego', 'Risk']","[-0.15, 0.5]","[0.15, 0.5]",1,1,,,,,,,,,,,,,,,,,0,1,1,1,0,1,1,5,,,,,,,,,,,,,,,,,,,,,,,,,,,,,,,,,,,,,,,,,,,,,,,1585.6272243899998,None,1585.6272243899998,None,1585.6272243899998,None,s,0,1.8120690169998852,1587.1605367939997,None,1587.1605367939997,None,1587.1605367939997,None,1589.0271955029998,None,1589.0271955029998,None,1589.0271955029998,None,1589.0271955029998,None,,,,,,,,,,,,,,,,,,,,,,,,,,,,,,,,,,,,,,,,,,,,001,174,2020_Feb_27_0927,spring_faces,3.2.3,60.004448369774714,
condition files/Stage2_2.xlsx,,B1,T1,s,"['s', 'r']","['Stratego', 'Risk']","[-0.15, 0.5]","[0.15, 0.5]",1,1,,,,,,,,,,,,,,,,,0,1,1,1,0,2,2,2,,,,,,,,,,,,,,,,,,,,,,,,,,,,,,,,,,,,,,,,,,,,,,,1591.0105892449997,None,1591.0105892449997,None,1591.0105892449997,None,r,0,2.5887316979997195,1592.5438608439995,None,1592.5438608439995,None,1592.5438608439995,None,1595.210543832,None,1595.210543832,None,1595.210543832,None,1595.210543832,None,,,,,,,,,,,,,,,,,,,,,,,,,,,,,,,,,,,,,,,,,,,,001,174,2020_Feb_27_0927,spring_faces,3.2.3,60.004448369774714,
condition files/Stage2_2.xlsx,,T2,B2,r,"['s', 'r']","['Stratego', 'Risk']","[-0.15, 0.5]","[0.15, 0.5]",1,1,,,,,,,,,,,,,,,,,0,1,1,1,0,3,3,3,,,,,,,,,,,,,,,,,,,,,,,,,,,,,,,,,,,,,,,,,,,,,,,1597.1772106489993,None,1597.1772106489993,None,1597.1772106489993,None,s,0,0.9179592359996605,1598.7105456369995,None,1598.7105456369995,None,1598.7105456369995,None,1599.710514375,None,1599.710514375,None,1599.710514375,None,1599.710514375,None,,,,,,,,,,,,,,,,,,,,,,,,,,,,,,,,,,,,,,,,,,,,001,174,2020_Feb_27_0927,spring_faces,3.2.3,60.004448369774714,
condition files/Stage2_2.xlsx,,B5,T5,s,"['s', 'r']","['Stratego', 'Risk']","[-0.15, 0.5]","[0.15, 0.5]",1,1,,,,,,,,,,,,,,,,,0,1,1,1,0,4,4,0,,,,,,,,,,,,,,,,,,,,,,,,,,,,,,,,,,,,,,,,,,,,,,,1601.6771175649997,None,1601.6771175649997,None,1601.6771175649997,None,s,1,1.6019701659997736,1603.2105637649997,None,1603.2105637649997,None,1603.2105637649997,None,1604.8937597170002,None,1604.8937597170002,None,1604.8937597170002,None,1604.8937597170002,None,,,,,,,,,,,,,,,,,,,,,,,,,,,,,,,,,,,,,,,,,,,,001,174,2020_Feb_27_0927,spring_faces,3.2.3,60.004448369774714,
condition files/Stage2_2.xlsx,,B3,T3,s,"['s', 'r']","['Stratego', 'Risk']","[-0.15, 0.5]","[0.15, 0.5]",1,1,,,,,,,,,,,,,,,,,0,1,1,1,0,5,5,4,,,,,,,,,,,,,,,,,,,,,,,,,,,,,,,,,,,,,,,,,,,,,,,1606.8606229519996,None,1606.8606229519996,None,1606.8606229519996,None,s,1,2.1627953900006105,1608.3938993279994,None,1608.3938993279994,None,1608.3938993279994,None,1610.6105366870001,None,1610.6105366870001,None,1610.6105366870001,None,1610.6105366870001,None,,,,,,,,,,,,,,,,,,,,,,,,,,,,,,,,,,,,,,,,,,,,001,174,2020_Feb_27_0927,spring_faces,3.2.3,60.004448369774714,
condition files/Stage2_1.xlsx,,B2,T2,r,"['s', 'r']","['Stratego', 'Risk']","[-0.15, 0.5]","[0.15, 0.5]",1,1,,,,,,,,,,,,,,,,,0,2,2,2,0,0,0,3,,,,,,,,,,,,,,,,,,,,,,,,,,,,,,,,,,,,,,,,,,,,,,,1612.610557941,None,1612.610557941,None,1612.610557941,None,r,1,3.4847608310001306,1614.143770145,None,1614.143770145,None,1614.143770145,None,1617.7105627059996,None,1617.7105627059996,None,1617.7105627059996,None,1617.7105627059996,None,,,,,,,,,,,,,,,,,,,,,,,,,,,,,,,,,,,,,,,,,,,,001,174,2020_Feb_27_0927,spring_faces,3.2.3,60.004448369774714,
condition files/Stage2_1.xlsx,,B6,T6,r,"['s', 'r']","['Stratego', 'Risk']","[-0.15, 0.5]","[0.15, 0.5]",1,1,,,,,,,,,,,,,,,,,0,2,2,2,0,1,1,1,,,,,,,,,,,,,,,,,,,,,,,,,,,,,,,,,,,,,,,,,,,,,,,1619.6770510719994,None,1619.6770510719994,None,1619.6770510719994,None,r,1,1.1380174240002816,1621.2105623009998,None,1621.2105623009998,None,1621.2105623009998,None,1622.427206594,None,1622.427206594,None,1622.427206594,None,1622.427206594,None,,,,,,,,,,,,,,,,,,,,,,,,,,,,,,,,,,,,,,,,,,,,001,174,2020_Feb_27_0927,spring_faces,3.2.3,60.004448369774714,
condition files/Stage2_1.xlsx,,T3,B3,s,"['s', 'r']","['Stratego', 'Risk']","[-0.15, 0.5]","[0.15, 0.5]",1,1,,,,,,,,,,,,,,,,,0,2,2,2,0,2,2,4,,,,,,,,,,,,,,,,,,,,,,,,,,,,,,,,,,,,,,,,,,,,,,,1624.393872436,None,1624.393872436,None,1624.393872436,None,s,1,1.0454524189999574,1625.927207186,None,1625.927207186,None,1625.927207186,None,1627.0438664419994,None,1627.0438664419994,None,1627.0438664419994,None,1627.0438664419994,None,,,,,,,,,,,,,,,,,,,,,,,,,,,,,,,,,,,,,,,,,,,,001,174,2020_Feb_27_0927,spring_faces,3.2.3,60.004448369774714,
condition files/Stage2_1.xlsx,,B4,T4,r,"['s', 'r']","['Stratego', 'Risk']","[-0.15, 0.5]","[0.15, 0.5]",1,1,,,,,,,,,,,,,,,,,0,2,2,2,0,3,3,5,,,,,,,,,,,,,,,,,,,,,,,,,,,,,,,,,,,,,,,,,,,,,,,1629.0105393829995,None,1629.0105393829995,None,1629.0105393829995,None,r,1,4.284634823000488,1630.5438543179994,None,1630.5438543179994,None,1630.5438543179994,None,1634.9105633699996,None,1634.9105633699996,None,1634.9105633699996,None,1634.9105633699996,None,,,,,,,,,,,,,,,,,,,,,,,,,,,,,,,,,,,,,,,,,,,,001,174,2020_Feb_27_0927,spring_faces,3.2.3,60.004448369774714,
condition files/Stage2_1.xlsx,,T5,B5,s,"['s', 'r']","['Stratego', 'Risk']","[-0.15, 0.5]","[0.15, 0.5]",1,1,,,,,,,,,,,,,,,,,0,2,2,2,0,4,4,0,,,,,,,,,,,,,,,,,,,,,,,,,,,,,,,,,,,,,,,,,,,,,,,1636.8772348070001,None,1636.8772348070001,None,1636.8772348070001,None,r,0,6.178029506000712,1638.4105704090002,None,1638.4105704090002,None,1638.4105704090002,None,1644.66058699,None,1644.66058699,None,1644.66058699,None,1644.66058699,None,,,,,,,,,,,,,,,,,,,,,,,,,,,,,,,,,,,,,,,,,,,,001,174,2020_Feb_27_0927,spring_faces,3.2.3,60.004448369774714,
condition files/Stage2_1.xlsx,,T1,B1,s,"['s', 'r']","['Stratego', 'Risk']","[-0.15, 0.5]","[0.15, 0.5]",1,1,,,,,,,,,,,,,,,,,0,2,2,2,0,5,5,2,,,,,,,,,,,,,,,,,,,,,,,,,,,,,,,,,,,,,,,,,,,,,,,1646.6272175709996,None,1646.6272175709996,None,1646.6272175709996,None,s,1,1.4040476000000126,1648.1605301619998,None,1648.1605301619998,None,1648.1605301619998,None,1649.6272431459997,None,1649.6272431459997,None,1649.6272431459997,None,1649.6272431459997,None,,,,,,,,,,,,,,,,,,,,,,,,,,,,,,,,,,,,,,,,,,,,001,174,2020_Feb_27_0927,spring_faces,3.2.3,60.004448369774714,
condition files/Stage2_2.xlsx,,B1,T1,s,"['s', 'r']","['Stratego', 'Risk']","[-0.15, 0.5]","[0.15, 0.5]",1,1,,,,,,,,,,,,,,,,,0,3,3,3,0,0,0,2,,,,,,,,,,,,,,,,,,,,,,,,,,,,,,,,,,,,,,,,,,,,,,,1651.6271899139997,None,1651.6271899139997,None,1651.6271899139997,None,r,0,0.5160375289997319,1653.1605490899997,None,1653.1605490899997,None,1653.1605490899997,None,1653.7438765829997,None,1653.7438765829997,None,1653.7438765829997,None,1653.7438765829997,None,,,,,,,,,,,,,,,,,,,,,,,,,,,,,,,,,,,,,,,,,,,,001,174,2020_Feb_27_0927,spring_faces,3.2.3,60.004448369774714,
condition files/Stage2_2.xlsx,,B3,T3,s,"['s', 'r']","['Stratego', 'Risk']","[-0.15, 0.5]","[0.15, 0.5]",1,1,,,,,,,,,,,,,,,,,0,3,3,3,0,1,1,4,,,,,,,,,,,,,,,,,,,,,,,,,,,,,,,,,,,,,,,,,,,,,,,1655.7104999259996,None,1655.7104999259996,None,1655.7104999259996,None,s,1,0.22497840200048813,1657.2436470799998,None,1657.2436470799998,None,1657.2436470799998,None,1657.527103938,None,1657.527103938,None,1657.527103938,None,1657.527103938,None,,,,,,,,,,,,,,,,,,,,,,,,,,,,,,,,,,,,,,,,,,,,001,174,2020_Feb_27_0927,spring_faces,3.2.3,60.004448369774714,
condition files/Stage2_2.xlsx,,B5,T5,s,"['s', 'r']","['Stratego', 'Risk']","[-0.15, 0.5]","[0.15, 0.5]",1,1,,,,,,,,,,,,,,,,,0,3,3,3,0,2,2,0,,,,,,,,,,,,,,,,,,,,,,,,,,,,,,,,,,,,,,,,,,,,,,,1659.5105609400002,None,1659.5105609400002,None,1659.5105609400002,None,s,1,0.2967920609999055,1661.0438789449995,None,1661.0438789449995,None,1661.0438789449995,None,1661.3938960829996,None,1661.3938960829996,None,1661.3938960829996,None,1661.3938960829996,None,,,,,,,,,,,,,,,,,,,,,,,,,,,,,,,,,,,,,,,,,,,,001,174,2020_Feb_27_0927,spring_faces,3.2.3,60.004448369774714,
condition files/Stage2_2.xlsx,,T2,B2,r,"['s', 'r']","['Stratego', 'Risk']","[-0.15, 0.5]","[0.15, 0.5]",1,1,,,,,,,,,,,,,,,,,0,3,3,3,0,3,3,3,,,,,,,,,,,,,,,,,,,,,,,,,,,,,,,,,,,,,,,,,,,,,,,1663.3771539759996,None,1663.3771539759996,None,1663.3771539759996,None,r,1,0.8143426649994581,1664.9103657459996,None,1664.9103657459996,None,1664.9103657459996,None,1665.7938695369999,None,1665.7938695369999,None,1665.7938695369999,None,1665.7938695369999,None,,,,,,,,,,,,,,,,,,,,,,,,,,,,,,,,,,,,,,,,,,,,001,174,2020_Feb_27_0927,spring_faces,3.2.3,60.004448369774714,
condition files/Stage2_2.xlsx,,T4,B4,r,"['s', 'r']","['Stratego', 'Risk']","[-0.15, 0.5]","[0.15, 0.5]",1,1,,,,,,,,,,,,,,,,,0,3,3,3,0,4,4,5,,,,,,,,,,,,,,,,,,,,,,,,,,,,,,,,,,,,,,,,,,,,,,,1667.7604313569996,None,1667.7604313569996,None,1667.7604313569996,None,s,0,0.5107935220003128,1669.293815132,None,1669.293815132,None,1669.293815132,None,1669.8605234599995,None,1669.8605234599995,None,1669.8605234599995,None,1669.8605234599995,None,,,,,,,,,,,,,,,,,,,,,,,,,,,,,,,,,,,,,,,,,,,,001,174,2020_Feb_27_0927,spring_faces,3.2.3,60.004448369774714,
condition files/Stage2_2.xlsx,,T6,B6,r,"['s', 'r']","['Stratego', 'Risk']","[-0.15, 0.5]","[0.15, 0.5]",1,1,,,,,,,,,,,,,,,,,0,3,3,3,0,5,5,1,,,,,,,,,,,,,,,,,,,,,,,,,,,,,,,,,,,,,,,,,,,,,,,1671.843915,None,1671.843915,None,1671.843915,None,r,1,2.2832928660000107,1673.377219689,None,1673.377219689,None,1673.377219689,None,1675.7104911969996,None,1675.7104911969996,None,1675.7104911969996,None,1675.7104911969996,None,,,,,,,,,,,,,,,,,,,,,,,,,,,,,,,,,,,,,,,,,,,,001,174,2020_Feb_27_0927,spring_faces,3.2.3,60.004448369774714,
condition files/Stage2_1.xlsx,,T3,B3,s,"['s', 'r']","['Stratego', 'Risk']","[-0.15, 0.5]","[0.15, 0.5]",1,1,,,,,,,,,,,,,,,,,0,4,4,4,0,0,0,4,,,,,,,,,,,,,,,,,,,,,,,,,,,,,,,,,,,,,,,,,,,,,,,1677.7103806049995,None,1677.7103806049995,None,1677.7103806049995,None,r,0,0.5448411650004346,1679.2437802250001,None,1679.2437802250001,None,1679.2437802250001,None,1679.8604141359997,None,1679.8604141359997,None,1679.8604141359997,None,1679.8604141359997,None,,,,,,,,,,,,,,,,,,,,,,,,,,,,,,,,,,,,,,,,,,,,001,174,2020_Feb_27_0927,spring_faces,3.2.3,60.004448369774714,
condition files/Stage2_1.xlsx,,B6,T6,r,"['s', 'r']","['Stratego', 'Risk']","[-0.15, 0.5]","[0.15, 0.5]",1,1,,,,,,,,,,,,,,,,,0,4,4,4,0,1,1,1,,,,,,,,,,,,,,,,,,,,,,,,,,,,,,,,,,,,,,,,,,,,,,,1681.8272269599997,None,1681.8272269599997,None,1681.8272269599997,None,s,0,0.332439728999816,1683.3602630139999,None,1683.3602630139999,None,1683.3602630139999,None,1683.7604797099998,None,1683.7604797099998,None,1683.7604797099998,None,1683.7604797099998,None,,,,,,,,,,,,,,,,,,,,,,,,,,,,,,,,,,,,,,,,,,,,001,174,2020_Feb_27_0927,spring_faces,3.2.3,60.004448369774714,
condition files/Stage2_1.xlsx,,B2,T2,r,"['s', 'r']","['Stratego', 'Risk']","[-0.15, 0.5]","[0.15, 0.5]",1,1,,,,,,,,,,,,,,,,,0,4,4,4,0,2,2,3,,,,,,,,,,,,,,,,,,,,,,,,,,,,,,,,,,,,,,,,,,,,,,,1685.7271628449994,None,1685.7271628449994,None,1685.7271628449994,None,r,1,0.04873356500047521,1687.2600239409999,None,1687.2600239409999,None,1687.2600239409999,None,1687.377105344,None,1687.377105344,None,1687.377105344,None,1687.377105344,None,,,,,,,,,,,,,,,,,,,,,,,,,,,,,,,,,,,,,,,,,,,,001,174,2020_Feb_27_0927,spring_faces,3.2.3,60.004448369774714,
