condsFile,subStage,cue1,cue2,correct,responseKeys,responseNames,cue1Position,cue2Position,cue1Opacity,cue2Opacity,stageLoop0.thisRepN,stageLoop0.thisTrialN,stageLoop0.thisN,stageLoop0.thisIndex,blockLoop0.thisRepN,blockLoop0.thisTrialN,blockLoop0.thisN,blockLoop0.thisIndex,stage1Loop.thisRepN,stage1Loop.thisTrialN,stage1Loop.thisN,stage1Loop.thisIndex,blockLoop1.thisRepN,blockLoop1.thisTrialN,blockLoop1.thisN,blockLoop1.thisIndex,stage2Loop.thisRepN,stage2Loop.thisTrialN,stage2Loop.thisN,stage2Loop.thisIndex,blockLoop2.thisRepN,blockLoop2.thisTrialN,blockLoop2.thisN,blockLoop2.thisIndex,testLoop.thisRepN,testLoop.thisTrialN,testLoop.thisN,testLoop.thisIndex,blockLoopTest.thisRepN,blockLoopTest.thisTrialN,blockLoopTest.thisN,blockLoopTest.thisIndex,cuePics,id_instr_text.started,id_instr_text.stopped,space_to_continue_2.started,space_to_continue_2.stopped,end_instructions_resp_3.keys,end_instructions_resp_3.rt,end_instructions_resp_3.started,end_instructions_resp_3.stopped,id_input_instr.started,id_input_instr.stopped,id_input_rect.started,id_input_rect.stopped,id_input_resp.keys,id_input_resp.rt,id_input_resp.started,id_input_resp.stopped,sonaID,id_input_text.started,id_input_text.stopped,final_text.started,final_text.stopped,instructions.started,instructions.stopped,end_instructions_resp.keys,end_instructions_resp.rt,end_instructions_resp.started,end_instructions_resp.stopped,space_to_continue.started,space_to_continue.stopped,instructions_stage0.started,instructions_stage0.stopped,end_instructions_resp_stage0.keys,end_instructions_resp_stage0.rt,end_instructions_resp_stage0.started,end_instructions_resp_stage0.stopped,space_to_continue_stage0.started,space_to_continue_stage0.stopped,text.started,text.stopped,resp_text1.started,resp_text1.stopped,resp_text2.started,resp_text2.stopped,trial_resp.keys,trial_resp.corr,trial_resp.rt,trial_resp.started,trial_resp.stopped,cue1Image.started,cue1Image.stopped,cue2Image.started,cue2Image.stopped,cue1Image_fb.started,cue1Image_fb.stopped,cue2Image_fb.started,cue2Image_fb.stopped,fb_text_answer.started,fb_text_answer.stopped,feedback_image.started,feedback_image.stopped,instructions_stage1.started,instructions_stage1.stopped,end_instructions_resp_stage1.keys,end_instructions_resp_stage1.rt,end_instructions_resp_stage1.started,end_instructions_resp_stage1.stopped,space_to_continue_stage1.started,space_to_continue_stage1.stopped,instructions_2.started,instructions_2.stopped,end_instructions_resp_2.keys,end_instructions_resp_2.rt,end_instructions_resp_2.started,end_instructions_resp_2.stopped,press_space_to_continue_stage2.started,press_space_to_continue_stage2.stopped,instructions_testStage1.started,instructions_testStage1.stopped,end_instructions_resp_test1.keys,end_instructions_resp_test1.rt,end_instructions_resp_test1.started,end_instructions_resp_test1.stopped,press_space_to_continue_test1.started,press_space_to_continue_test1.stopped,cue1Image_testChoice.started,cue1Image_testChoice.stopped,cue2Image_testChoice.started,cue2Image_testChoice.stopped,test_resp.keys,test_resp.corr,test_resp.rt,test_resp.started,test_resp.stopped,cue1Image_testConf.started,cue1Image_testConf.stopped,cue2Image_testConf.started,cue2Image_testConf.stopped,conf_reminder.started,conf_reminder.stopped,conf_rating.response,conf_rating.rt,conf_rating.started,conf_rating.stopped,session,participant,date,expName,psychopyVersion,frameRate,
,,,,,,,,,,,,,,,,,,,,,,,,,,,,,,,,,,,,,,,,,,,"{'none': 'pictures/20M_AN_C.png', 'alpha': 'pictures/SHINEd_melon.png', 'beta': 'pictures/SHINEd_pepper.png', 'theta': 'pictures/SHINEd_apple.png', 'phi': 'pictures/SHINEd_pear.png', 'T1': 'pictures/20M_AN_C.png', 'T2': 'pictures/37M_AN_C.png', 'T3': 'pictures/26M_AN_C.png', 'T4': 'pictures/34M_AN_C.png', 'T5': 'pictures/36M_AN_C.png', 'T6': 'pictures/23M_AN_C.png', 'B1': 'pictures/38M_NE_C.png', 'B2': 'pictures/22M_NE_C.png', 'B3': 'pictures/31M_NE_C.png', 'B4': 'pictures/33M_NE_C.png', 'B5': 'pictures/32M_NE_C.png', 'B6': 'pictures/25M_NE_C.png'}",10.22226855200006,None,15.22258409799997,None,space,59.13450151500001,15.22258409799997,None,,,,,,,,,,,,,,,,,,,,,,,,,,,,,,,,,,,,,,,,,,,,,,,,,,,,,,,,,,,,,,,,,,,,,,,,,,,,,,,,,,,,,,,,,,,,,,,,001,175,2020_Feb_27_0951,spring_faces,3.1.5,60.01832803702495,
,,,,,,,,,,,,,,,,,,,,,,,,,,,,,,,,,,,,,,,,,,,,,,,,,,,,74.82306439500007,None,74.82306439500007,None,"['1', '0', '0', '6', 's', 'h', 'h', 'o', 'l']","[8.078038719000688, 8.990082552000786, 11.614065200000368, 12.254072798999914, 17.790076081000734, 18.926090576000206, 22.49406750200069, 22.79806413999995, 23.23003129300014]",74.82306439500007,None,,,,,,,,,,,,,,,,,,,,,,,,,,,,,,,,,,,,,,,,,,,,,,,,,,,,,,,,,,,,,,,,,,,,,,,,,,,,,,,,,,,,,,,,001,175,2020_Feb_27_0951,spring_faces,3.1.5,60.01832803702495,
,,,,,,,,,,,,,,,,,,,,,,,,,,,,,,,,,,,,,,,,,,,,,,,,,,,,,,,,,,,,1006shhol,74.82306439500007,None,74.82306439500007,None,103.12250913000025,None,space,3.434139033000065,108.12294942300014,None,,,,,,,,,,,,,,,,,,,,,,,,,,,,,,,,,,,,,,,,,,,,,,,,,,,,,,,,,,,,,,,,,,,,,,,,,,,,,001,175,2020_Feb_27_0951,spring_faces,3.1.5,60.01832803702495,
,,,,,,,,,,,,,,,,,,,,,,,,,,,,,,,,,,,,,,,,,,,,,,,,,,,,,,,,,,,,,,,,,,,,,,,108.12294942300014,None,111.60622573500041,None,space,1.0947996289996809,116.60634336500061,None,,,,,,,,,,,,,,,,,,,,,,,,,,,,,,,,,,,,,,,,,,,,,,,,,,,,,,,,,,,,,,,,,,,,,001,175,2020_Feb_27_0951,spring_faces,3.1.5,60.01832803702495,
condition files/Stage0a.xlsx,0a,alpha,none,h,"['h', 'g']","['Chess', 'Go']","[0, 0.5]","[0, 0]",1,0,0,0,0,0,0,0,0,0,,,,,,,,,,,,,,,,,,,,,,,,,,,,,,,,,,,,,,,,,,,,,,,,,,,,,,,,,,,,,116.60634336500061,None,117.79036906200054,None,117.79036906200054,None,117.79036906200054,None,g,0,1.6829109079999398,119.41025399800037,None,119.41025399800037,None,119.41025399800037,None,121.20645867500025,None,121.20645867500025,None,121.20645867500025,None,121.20645867500025,None,,,,,,,,,,,,,,,,,,,,,,,,,,,,,,,,,,,,,,,,,,,,001,175,2020_Feb_27_0951,spring_faces,3.1.5,60.01832803702495,
condition files/Stage0a.xlsx,0a,beta,none,g,"['h', 'g']","['Chess', 'Go']","[0, 0.5]","[0, 0]",1,0,0,0,0,0,0,1,1,1,,,,,,,,,,,,,,,,,,,,,,,,,,,,,,,,,,,,,,,,,,,,,,,,,,,,,,,,,,,,,,,123.12286267000036,None,123.12286267000036,None,123.12286267000036,None,g,1,1.6015595849994497,124.70757305100051,None,124.70757305100051,None,124.70757305100051,None,126.37322202199994,None,126.37322202199994,None,126.37322202199994,None,126.37322202199994,None,,,,,,,,,,,,,,,,,,,,,,,,,,,,,,,,,,,,,,,,,,,,001,175,2020_Feb_27_0951,spring_faces,3.1.5,60.01832803702495,
condition files/Stage0a.xlsx,0a,alpha,none,h,"['h', 'g']","['Chess', 'Go']","[0, 0.5]","[0, 0]",1,0,0,1,1,1,0,0,0,0,,,,,,,,,,,,,,,,,,,,,,,,,,,,,,,,,,,,,,,,,,,,,,,,,,,,,,,,,,,,,,,128.3566615890004,None,128.3566615890004,None,128.3566615890004,None,h,1,0.8999852239994652,129.87315389000014,None,129.87315389000014,None,129.87315389000014,None,130.82250444000056,None,130.82250444000056,None,130.82250444000056,None,130.82250444000056,None,,,,,,,,,,,,,,,,,,,,,,,,,,,,,,,,,,,,,,,,,,,,001,175,2020_Feb_27_0951,spring_faces,3.1.5,60.01832803702495,
condition files/Stage0a.xlsx,0a,beta,none,g,"['h', 'g']","['Chess', 'Go']","[0, 0.5]","[0, 0]",1,0,0,1,1,1,0,1,1,1,,,,,,,,,,,,,,,,,,,,,,,,,,,,,,,,,,,,,,,,,,,,,,,,,,,,,,,,,,,,,,,132.78927240400026,None,132.78927240400026,None,132.78927240400026,None,g,1,0.7698502860002918,134.32328656400023,None,134.32328656400023,None,134.32328656400023,None,135.15649760900033,None,135.15649760900033,None,135.15649760900033,None,135.15649760900033,None,,,,,,,,,,,,,,,,,,,,,,,,,,,,,,,,,,,,,,,,,,,,001,175,2020_Feb_27_0951,spring_faces,3.1.5,60.01832803702495,
condition files/Stage0a.xlsx,0a,beta,none,g,"['h', 'g']","['Chess', 'Go']","[0, 0.5]","[0, 0]",1,0,0,2,2,2,0,0,0,1,,,,,,,,,,,,,,,,,,,,,,,,,,,,,,,,,,,,,,,,,,,,,,,,,,,,,,,,,,,,,,,137.13972839300004,None,137.13972839300004,None,137.13972839300004,None,g,1,0.6921930219996284,138.67301159700037,None,138.67301159700037,None,138.67301159700037,None,139.42297177900036,None,139.42297177900036,None,139.42297177900036,None,139.42297177900036,None,,,,,,,,,,,,,,,,,,,,,,,,,,,,,,,,,,,,,,,,,,,,001,175,2020_Feb_27_0951,spring_faces,3.1.5,60.01832803702495,
condition files/Stage0a.xlsx,0a,alpha,none,h,"['h', 'g']","['Chess', 'Go']","[0, 0.5]","[0, 0]",1,0,0,2,2,2,0,1,1,0,,,,,,,,,,,,,,,,,,,,,,,,,,,,,,,,,,,,,,,,,,,,,,,,,,,,,,,,,,,,,,,141.38924996600053,None,141.38924996600053,None,141.38924996600053,None,h,1,0.778614388999813,142.9224668480001,None,142.9224668480001,None,142.9224668480001,None,143.75689211900044,None,143.75689211900044,None,143.75689211900044,None,143.75689211900044,None,,,,,,,,,,,,,,,,,,,,,,,,,,,,,,,,,,,,,,,,,,,,001,175,2020_Feb_27_0951,spring_faces,3.1.5,60.01832803702495,
condition files/Stage0a.xlsx,0a,alpha,none,h,"['h', 'g']","['Chess', 'Go']","[0, 0.5]","[0, 0]",1,0,0,3,3,3,0,0,0,0,,,,,,,,,,,,,,,,,,,,,,,,,,,,,,,,,,,,,,,,,,,,,,,,,,,,,,,,,,,,,,,145.77298444100052,None,145.77298444100052,None,145.77298444100052,None,h,1,0.7961745550001069,147.27292505600053,None,147.27292505600053,None,147.27292505600053,None,148.12292880099994,None,148.12292880099994,None,148.12292880099994,None,148.12292880099994,None,,,,,,,,,,,,,,,,,,,,,,,,,,,,,,,,,,,,,,,,,,,,001,175,2020_Feb_27_0951,spring_faces,3.1.5,60.01832803702495,
condition files/Stage0a.xlsx,0a,beta,none,g,"['h', 'g']","['Chess', 'Go']","[0, 0.5]","[0, 0]",1,0,0,3,3,3,0,1,1,1,,,,,,,,,,,,,,,,,,,,,,,,,,,,,,,,,,,,,,,,,,,,,,,,,,,,,,,,,,,,,,,150.0893277160003,None,150.0893277160003,None,150.0893277160003,None,g,1,0.622155211000063,151.6229916480006,None,151.6229916480006,None,151.6229916480006,None,152.30573920300048,None,152.30573920300048,None,152.30573920300048,None,152.30573920300048,None,,,,,,,,,,,,,,,,,,,,,,,,,,,,,,,,,,,,,,,,,,,,001,175,2020_Feb_27_0951,spring_faces,3.1.5,60.01832803702495,
condition files/Stage0a.xlsx,0a,beta,none,g,"['h', 'g']","['Chess', 'Go']","[0, 0.5]","[0, 0]",1,0,0,4,4,4,0,0,0,1,,,,,,,,,,,,,,,,,,,,,,,,,,,,,,,,,,,,,,,,,,,,,,,,,,,,,,,,,,,,,,,154.2898429249999,None,154.2898429249999,None,154.2898429249999,None,g,1,0.5020464929993977,155.8230948240007,None,155.8230948240007,None,155.8230948240007,None,156.3896817370005,None,156.3896817370005,None,156.3896817370005,None,156.3896817370005,None,,,,,,,,,,,,,,,,,,,,,,,,,,,,,,,,,,,,,,,,,,,,001,175,2020_Feb_27_0951,spring_faces,3.1.5,60.01832803702495,
condition files/Stage0a.xlsx,0a,alpha,none,h,"['h', 'g']","['Chess', 'Go']","[0, 0.5]","[0, 0]",1,0,0,4,4,4,0,1,1,0,,,,,,,,,,,,,,,,,,,,,,,,,,,,,,,,,,,,,,,,,,,,,,,,,,,,,,,,,,,,,,,158.35549082500074,None,158.35549082500074,None,158.35549082500074,None,h,1,0.5310598710002523,159.89006989000063,None,159.89006989000063,None,159.89006989000063,None,160.47287066700028,None,160.47287066700028,None,160.47287066700028,None,160.47287066700028,None,,,,,,,,,,,,,,,,,,,,,,,,,,,,,,,,,,,,,,,,,,,,001,175,2020_Feb_27_0951,spring_faces,3.1.5,60.01832803702495,
condition files/Stage0a.xlsx,0a,beta,none,g,"['h', 'g']","['Chess', 'Go']","[0, 0.5]","[0, 0]",1,0,0,5,5,5,0,0,0,1,,,,,,,,,,,,,,,,,,,,,,,,,,,,,,,,,,,,,,,,,,,,,,,,,,,,,,,,,,,,,,,162.45612070600055,None,162.45612070600055,None,162.45612070600055,None,g,1,0.5112889680003718,163.9898404610003,None,163.9898404610003,None,163.9898404610003,None,164.55627292000008,None,164.55627292000008,None,164.55627292000008,None,164.55627292000008,None,,,,,,,,,,,,,,,,,,,,,,,,,,,,,,,,,,,,,,,,,,,,001,175,2020_Feb_27_0951,spring_faces,3.1.5,60.01832803702495,
condition files/Stage0a.xlsx,0a,alpha,none,h,"['h', 'g']","['Chess', 'Go']","[0, 0.5]","[0, 0]",1,0,0,5,5,5,0,1,1,0,,,,,,,,,,,,,,,,,,,,,,,,,,,,,,,,,,,,,,,,,,,,,,,,,,,,,,,,,,,,,,,166.52290969500064,None,166.52290969500064,None,166.52290969500064,None,h,1,0.6366980800003148,168.05643656700067,None,168.05643656700067,None,168.05643656700067,None,168.75669981300052,None,168.75669981300052,None,168.75669981300052,None,168.75669981300052,None,,,,,,,,,,,,,,,,,,,,,,,,,,,,,,,,,,,,,,,,,,,,001,175,2020_Feb_27_0951,spring_faces,3.1.5,60.01832803702495,
condition files/Stage0b_1.xlsx,0b,none,beta,g,"['h', 'g']","['Chess', 'Go']","[-0.15, 0.5]","[0.15, 0.5]",0,1,0,6,6,6,0,0,0,1,,,,,,,,,,,,,,,,,,,,,,,,,,,,,,,,,,,,,,,,,,,,,,,,,,,,,,,,,,,,,,,170.7897722810003,None,170.7897722810003,None,170.7897722810003,None,g,1,0.6434295199996996,172.28977643500002,None,172.28977643500002,None,172.28977643500002,None,173.00587831100074,None,173.00587831100074,None,173.00587831100074,None,173.00587831100074,None,,,,,,,,,,,,,,,,,,,,,,,,,,,,,,,,,,,,,,,,,,,,001,175,2020_Feb_27_0951,spring_faces,3.1.5,60.01832803702495,
condition files/Stage0b_1.xlsx,0b,alpha,none,h,"['h', 'g']","['Chess', 'Go']","[-0.15, 0.5]","[0.15, 0.5]",1,0,0,6,6,6,0,1,1,0,,,,,,,,,,,,,,,,,,,,,,,,,,,,,,,,,,,,,,,,,,,,,,,,,,,,,,,,,,,,,,,174.95615189599994,None,174.95615189599994,None,174.95615189599994,None,h,1,0.6482963389998986,176.49280902900045,None,176.49280902900045,None,176.49280902900045,None,177.2086936020005,None,177.2086936020005,None,177.2086936020005,None,177.2086936020005,None,,,,,,,,,,,,,,,,,,,,,,,,,,,,,,,,,,,,,,,,,,,,001,175,2020_Feb_27_0951,spring_faces,3.1.5,60.01832803702495,
condition files/Stage0b_2.xlsx,0b,none,alpha,h,"['h', 'g']","['Chess', 'Go']","[-0.15, 0.5]","[0.15, 0.5]",0,1,0,7,7,7,0,0,0,0,,,,,,,,,,,,,,,,,,,,,,,,,,,,,,,,,,,,,,,,,,,,,,,,,,,,,,,,,,,,,,,179.23983040700023,None,179.23983040700023,None,179.23983040700023,None,h,1,0.8654163929995775,180.73972841000068,None,180.73972841000068,None,180.73972841000068,None,181.65650268900026,None,181.65650268900026,None,181.65650268900026,None,181.65650268900026,None,,,,,,,,,,,,,,,,,,,,,,,,,,,,,,,,,,,,,,,,,,,,001,175,2020_Feb_27_0951,spring_faces,3.1.5,60.01832803702495,
condition files/Stage0b_2.xlsx,0b,beta,none,g,"['h', 'g']","['Chess', 'Go']","[-0.15, 0.5]","[0.15, 0.5]",1,0,0,7,7,7,0,1,1,1,,,,,,,,,,,,,,,,,,,,,,,,,,,,,,,,,,,,,,,,,,,,,,,,,,,,,,,,,,,,,,,183.6227842570006,None,183.6227842570006,None,183.6227842570006,None,g,1,0.49667753799985803,185.15650931900018,None,185.15650931900018,None,185.15650931900018,None,185.70728967600007,None,185.70728967600007,None,185.70728967600007,None,185.70728967600007,None,,,,,,,,,,,,,,,,,,,,,,,,,,,,,,,,,,,,,,,,,,,,001,175,2020_Feb_27_0951,spring_faces,3.1.5,60.01832803702495,
condition files/Stage0b_1.xlsx,0b,none,beta,g,"['h', 'g']","['Chess', 'Go']","[-0.15, 0.5]","[0.15, 0.5]",0,1,0,8,8,8,0,0,0,1,,,,,,,,,,,,,,,,,,,,,,,,,,,,,,,,,,,,,,,,,,,,,,,,,,,,,,,,,,,,,,,187.68933315600043,None,187.68933315600043,None,187.68933315600043,None,g,1,0.5867583149993152,189.2264557770004,None,189.2264557770004,None,189.2264557770004,None,189.87279805300022,None,189.87279805300022,None,189.87279805300022,None,189.87279805300022,None,,,,,,,,,,,,,,,,,,,,,,,,,,,,,,,,,,,,,,,,,,,,001,175,2020_Feb_27_0951,spring_faces,3.1.5,60.01832803702495,
condition files/Stage0b_1.xlsx,0b,alpha,none,h,"['h', 'g']","['Chess', 'Go']","[-0.15, 0.5]","[0.15, 0.5]",1,0,0,8,8,8,0,1,1,0,,,,,,,,,,,,,,,,,,,,,,,,,,,,,,,,,,,,,,,,,,,,,,,,,,,,,,,,,,,,,,,191.83887336299995,None,191.83887336299995,None,191.83887336299995,None,h,1,0.6917496120004216,193.3773368709999,None,193.3773368709999,None,193.3773368709999,None,194.12435398200068,None,194.12435398200068,None,194.12435398200068,None,194.12435398200068,None,,,,,,,,,,,,,,,,,,,,,,,,,,,,,,,,,,,,,,,,,,,,001,175,2020_Feb_27_0951,spring_faces,3.1.5,60.01832803702495,
condition files/Stage0b_2.xlsx,0b,none,alpha,h,"['h', 'g']","['Chess', 'Go']","[-0.15, 0.5]","[0.15, 0.5]",0,1,0,9,9,9,0,0,0,0,,,,,,,,,,,,,,,,,,,,,,,,,,,,,,,,,,,,,,,,,,,,,,,,,,,,,,,,,,,,,,,196.10668516400074,None,196.10668516400074,None,196.10668516400074,None,h,1,0.6532291740004439,197.639938712,None,197.639938712,None,197.639938712,None,198.3559432990005,None,198.3559432990005,None,198.3559432990005,None,198.3559432990005,None,,,,,,,,,,,,,,,,,,,,,,,,,,,,,,,,,,,,,,,,,,,,001,175,2020_Feb_27_0951,spring_faces,3.1.5,60.01832803702495,
condition files/Stage0b_2.xlsx,0b,beta,none,g,"['h', 'g']","['Chess', 'Go']","[-0.15, 0.5]","[0.15, 0.5]",1,0,0,9,9,9,0,1,1,1,,,,,,,,,,,,,,,,,,,,,,,,,,,,,,,,,,,,,,,,,,,,,,,,,,,,,,,,,,,,,,,200.3232576090004,None,200.3232576090004,None,200.3232576090004,None,g,1,0.5759733849999975,201.86115383800006,None,201.86115383800006,None,201.86115383800006,None,202.49095835000026,None,202.49095835000026,None,202.49095835000026,None,202.49095835000026,None,,,,,,,,,,,,,,,,,,,,,,,,,,,,,,,,,,,,,,,,,,,,001,175,2020_Feb_27_0951,spring_faces,3.1.5,60.01832803702495,
condition files/Stage0b_1.xlsx,0b,none,beta,g,"['h', 'g']","['Chess', 'Go']","[-0.15, 0.5]","[0.15, 0.5]",0,1,0,10,10,10,0,0,0,1,,,,,,,,,,,,,,,,,,,,,,,,,,,,,,,,,,,,,,,,,,,,,,,,,,,,,,,,,,,,,,,204.47262444900025,None,204.47262444900025,None,204.47262444900025,None,g,1,0.8628442189992711,206.0063156010001,None,206.0063156010001,None,206.0063156010001,None,206.92304421400058,None,206.92304421400058,None,206.92304421400058,None,206.92304421400058,None,,,,,,,,,,,,,,,,,,,,,,,,,,,,,,,,,,,,,,,,,,,,001,175,2020_Feb_27_0951,spring_faces,3.1.5,60.01832803702495,
condition files/Stage0b_1.xlsx,0b,alpha,none,h,"['h', 'g']","['Chess', 'Go']","[-0.15, 0.5]","[0.15, 0.5]",1,0,0,10,10,10,0,1,1,0,,,,,,,,,,,,,,,,,,,,,,,,,,,,,,,,,,,,,,,,,,,,,,,,,,,,,,,,,,,,,,,208.88958955500038,None,208.88958955500038,None,208.88958955500038,None,h,1,0.4580161150006461,210.42712413000027,None,210.42712413000027,None,210.42712413000027,None,210.9412161959999,None,210.9412161959999,None,210.9412161959999,None,210.9412161959999,None,,,,,,,,,,,,,,,,,,,,,,,,,,,,,,,,,,,,,,,,,,,,001,175,2020_Feb_27_0951,spring_faces,3.1.5,60.01832803702495,
condition files/Stage0b_2.xlsx,0b,none,alpha,h,"['h', 'g']","['Chess', 'Go']","[-0.15, 0.5]","[0.15, 0.5]",0,1,0,11,11,11,0,0,0,0,,,,,,,,,,,,,,,,,,,,,,,,,,,,,,,,,,,,,,,,,,,,,,,,,,,,,,,,,,,,,,,212.923154823,None,212.923154823,None,212.923154823,None,h,1,1.0035865560003003,214.45757171400055,None,214.45757171400055,None,214.45757171400055,None,215.52311714400003,None,215.52311714400003,None,215.52311714400003,None,215.52311714400003,None,,,,,,,,,,,,,,,,,,,,,,,,,,,,,,,,,,,,,,,,,,,,001,175,2020_Feb_27_0951,spring_faces,3.1.5,60.01832803702495,
condition files/Stage0b_2.xlsx,0b,beta,none,g,"['h', 'g']","['Chess', 'Go']","[-0.15, 0.5]","[0.15, 0.5]",1,0,0,11,11,11,0,1,1,1,,,,,,,,,,,,,,,,,,,,,,,,,,,,,,,,,,,,,,,,,,,,,,,,,,,,,,,,,,,,,,,217.4893313500006,None,217.4893313500006,None,217.4893313500006,None,g,1,0.6107039359994815,219.02644378700006,None,219.02644378700006,None,219.02644378700006,None,219.695222028,None,219.695222028,None,219.695222028,None,219.695222028,None,,,,,,,,,,,,,,,,,,,,,,,,,,,,,,,,,,,,,,,,,,,,001,175,2020_Feb_27_0951,spring_faces,3.1.5,60.01832803702495,
condition files/Stage0c_1.xlsx,0c,alpha,phi,h,"['h', 'g']","['Chess', 'Go']","[-0.15, 0.5]","[0.15, 0.5]",1,1,0,12,12,12,0,0,0,1,,,,,,,,,,,,,,,,,,,,,,,,,,,,,,,,,,,,,,,,,,,,,,,,,,,,,,,,,,,,,,,221.72303162900062,None,221.72303162900062,None,221.72303162900062,None,h,1,3.769558381999559,223.21151427099994,None,223.21151427099994,None,223.21151427099994,None,227.0398799730001,None,227.0398799730001,None,227.0398799730001,None,227.0398799730001,None,,,,,,,,,,,,,,,,,,,,,,,,,,,,,,,,,,,,,,,,,,,,001,175,2020_Feb_27_0951,spring_faces,3.1.5,60.01832803702495,
condition files/Stage0c_1.xlsx,0c,phi,beta,g,"['h', 'g']","['Chess', 'Go']","[-0.15, 0.5]","[0.15, 0.5]",1,1,0,12,12,12,0,1,1,3,,,,,,,,,,,,,,,,,,,,,,,,,,,,,,,,,,,,,,,,,,,,,,,,,,,,,,,,,,,,,,,229.00620020899987,None,229.00620020899987,None,229.00620020899987,None,g,1,1.7373372780002683,230.5398097140005,None,230.5398097140005,None,230.5398097140005,None,232.3397689350004,None,232.3397689350004,None,232.3397689350004,None,232.3397689350004,None,,,,,,,,,,,,,,,,,,,,,,,,,,,,,,,,,,,,,,,,,,,,001,175,2020_Feb_27_0951,spring_faces,3.1.5,60.01832803702495,
condition files/Stage0c_1.xlsx,0c,beta,theta,g,"['h', 'g']","['Chess', 'Go']","[-0.15, 0.5]","[0.15, 0.5]",1,1,0,12,12,12,0,2,2,2,,,,,,,,,,,,,,,,,,,,,,,,,,,,,,,,,,,,,,,,,,,,,,,,,,,,,,,,,,,,,,,234.30582320800022,None,234.30582320800022,None,234.30582320800022,None,g,1,1.2839361129999816,235.87316645700048,None,235.87316645700048,None,235.87316645700048,None,237.20836196300024,None,237.20836196300024,None,237.20836196300024,None,237.20836196300024,None,,,,,,,,,,,,,,,,,,,,,,,,,,,,,,,,,,,,,,,,,,,,001,175,2020_Feb_27_0951,spring_faces,3.1.5,60.01832803702495,
condition files/Stage0c_1.xlsx,0c,theta,alpha,h,"['h', 'g']","['Chess', 'Go']","[-0.15, 0.5]","[0.15, 0.5]",1,1,0,12,12,12,0,3,3,0,,,,,,,,,,,,,,,,,,,,,,,,,,,,,,,,,,,,,,,,,,,,,,,,,,,,,,,,,,,,,,,239.18953909800075,None,239.18953909800075,None,239.18953909800075,None,h,1,1.2017375969999193,240.7233913630007,None,240.7233913630007,None,240.7233913630007,None,241.9898697590006,None,241.9898697590006,None,241.9898697590006,None,241.9898697590006,None,,,,,,,,,,,,,,,,,,,,,,,,,,,,,,,,,,,,,,,,,,,,001,175,2020_Feb_27_0951,spring_faces,3.1.5,60.01832803702495,
condition files/Stage0c_2.xlsx,0c,phi,alpha,h,"['h', 'g']","['Chess', 'Go']","[-0.15, 0.5]","[0.15, 0.5]",1,1,0,13,13,13,0,0,0,1,,,,,,,,,,,,,,,,,,,,,,,,,,,,,,,,,,,,,,,,,,,,,,,,,,,,,,,,,,,,,,,244.00621355900057,None,244.00621355900057,None,244.00621355900057,None,h,1,0.8347595129998808,245.50633297500008,None,245.50633297500008,None,245.50633297500008,None,246.39129593899997,None,246.39129593899997,None,246.39129593899997,None,246.39129593899997,None,,,,,,,,,,,,,,,,,,,,,,,,,,,,,,,,,,,,,,,,,,,,001,175,2020_Feb_27_0951,spring_faces,3.1.5,60.01832803702495,
condition files/Stage0c_2.xlsx,0c,beta,phi,g,"['h', 'g']","['Chess', 'Go']","[-0.15, 0.5]","[0.15, 0.5]",1,1,0,13,13,13,0,1,1,3,,,,,,,,,,,,,,,,,,,,,,,,,,,,,,,,,,,,,,,,,,,,,,,,,,,,,,,,,,,,,,,248.37219297000047,None,248.37219297000047,None,248.37219297000047,None,g,1,1.3311208559998704,249.9060128629999,None,249.9060128629999,None,249.9060128629999,None,251.28959287500038,None,251.28959287500038,None,251.28959287500038,None,251.28959287500038,None,,,,,,,,,,,,,,,,,,,,,,,,,,,,,,,,,,,,,,,,,,,,001,175,2020_Feb_27_0951,spring_faces,3.1.5,60.01832803702495,
condition files/Stage0c_2.xlsx,0c,alpha,theta,h,"['h', 'g']","['Chess', 'Go']","[-0.15, 0.5]","[0.15, 0.5]",1,1,0,13,13,13,0,2,2,0,,,,,,,,,,,,,,,,,,,,,,,,,,,,,,,,,,,,,,,,,,,,,,,,,,,,,,,,,,,,,,,253.25569098100004,None,253.25569098100004,None,253.25569098100004,None,h,1,0.6557593719999204,254.78939003100004,None,254.78939003100004,None,254.78939003100004,None,255.50649327800056,None,255.50649327800056,None,255.50649327800056,None,255.50649327800056,None,,,,,,,,,,,,,,,,,,,,,,,,,,,,,,,,,,,,,,,,,,,,001,175,2020_Feb_27_0951,spring_faces,3.1.5,60.01832803702495,
condition files/Stage0c_2.xlsx,0c,theta,beta,g,"['h', 'g']","['Chess', 'Go']","[-0.15, 0.5]","[0.15, 0.5]",1,1,0,13,13,13,0,3,3,2,,,,,,,,,,,,,,,,,,,,,,,,,,,,,,,,,,,,,,,,,,,,,,,,,,,,,,,,,,,,,,,257.47244301699993,None,257.47244301699993,None,257.47244301699993,None,g,1,0.8070680930004528,259.00605927500055,None,259.00605927500055,None,259.00605927500055,None,259.8731974450002,None,259.8731974450002,None,259.8731974450002,None,259.8731974450002,None,,,,,,,,,,,,,,,,,,,,,,,,,,,,,,,,,,,,,,,,,,,,001,175,2020_Feb_27_0951,spring_faces,3.1.5,60.01832803702495,
condition files/Stage0c_1.xlsx,0c,alpha,phi,h,"['h', 'g']","['Chess', 'Go']","[-0.15, 0.5]","[0.15, 0.5]",1,1,0,14,14,14,0,0,0,1,,,,,,,,,,,,,,,,,,,,,,,,,,,,,,,,,,,,,,,,,,,,,,,,,,,,,,,,,,,,,,,261.8563494680002,None,261.8563494680002,None,261.8563494680002,None,h,1,0.8555587319997358,263.38958983700013,None,263.38958983700013,None,263.38958983700013,None,264.30645420400015,None,264.30645420400015,None,264.30645420400015,None,264.30645420400015,None,,,,,,,,,,,,,,,,,,,,,,,,,,,,,,,,,,,,,,,,,,,,001,175,2020_Feb_27_0951,spring_faces,3.1.5,60.01832803702495,
condition files/Stage0c_1.xlsx,0c,phi,beta,g,"['h', 'g']","['Chess', 'Go']","[-0.15, 0.5]","[0.15, 0.5]",1,1,0,14,14,14,0,1,1,3,,,,,,,,,,,,,,,,,,,,,,,,,,,,,,,,,,,,,,,,,,,,,,,,,,,,,,,,,,,,,,,266.2728741440005,None,266.2728741440005,None,266.2728741440005,None,g,1,0.9510979140004565,267.8060059140007,None,267.8060059140007,None,267.8060059140007,None,268.8092345060004,None,268.8092345060004,None,268.8092345060004,None,268.8092345060004,None,,,,,,,,,,,,,,,,,,,,,,,,,,,,,,,,,,,,,,,,,,,,001,175,2020_Feb_27_0951,spring_faces,3.1.5,60.01832803702495,
condition files/Stage0c_1.xlsx,0c,beta,theta,g,"['h', 'g']","['Chess', 'Go']","[-0.15, 0.5]","[0.15, 0.5]",1,1,0,14,14,14,0,2,2,2,,,,,,,,,,,,,,,,,,,,,,,,,,,,,,,,,,,,,,,,,,,,,,,,,,,,,,,,,,,,,,,270.78918715500004,None,270.78918715500004,None,270.78918715500004,None,g,1,1.105935276999844,272.32319815400024,None,272.32319815400024,None,272.32319815400024,None,273.4734022800003,None,273.4734022800003,None,273.4734022800003,None,273.4734022800003,None,,,,,,,,,,,,,,,,,,,,,,,,,,,,,,,,,,,,,,,,,,,,001,175,2020_Feb_27_0951,spring_faces,3.1.5,60.01832803702495,
condition files/Stage0c_1.xlsx,0c,theta,alpha,h,"['h', 'g']","['Chess', 'Go']","[-0.15, 0.5]","[0.15, 0.5]",1,1,0,14,14,14,0,3,3,0,,,,,,,,,,,,,,,,,,,,,,,,,,,,,,,,,,,,,,,,,,,,,,,,,,,,,,,,,,,,,,,275.45618155400007,None,275.45618155400007,None,275.45618155400007,None,h,1,1.0153213760004292,276.9898110889999,None,276.9898110889999,None,276.9898110889999,None,278.0564390770005,None,278.0564390770005,None,278.0564390770005,None,278.0564390770005,None,,,,,,,,,,,,,,,,,,,,,,,,,,,,,,,,,,,,,,,,,,,,001,175,2020_Feb_27_0951,spring_faces,3.1.5,60.01832803702495,
condition files/Stage0c_2.xlsx,0c,phi,alpha,h,"['h', 'g']","['Chess', 'Go']","[-0.15, 0.5]","[0.15, 0.5]",1,1,0,15,15,15,0,0,0,1,,,,,,,,,,,,,,,,,,,,,,,,,,,,,,,,,,,,,,,,,,,,,,,,,,,,,,,,,,,,,,,280.03962146699996,None,280.03962146699996,None,280.03962146699996,None,h,1,1.008046841999203,281.5731619349999,None,281.5731619349999,None,281.5731619349999,None,282.62438051000026,None,282.62438051000026,None,282.62438051000026,None,282.62438051000026,None,,,,,,,,,,,,,,,,,,,,,,,,,,,,,,,,,,,,,,,,,,,,001,175,2020_Feb_27_0951,spring_faces,3.1.5,60.01832803702495,
condition files/Stage0c_2.xlsx,0c,beta,phi,g,"['h', 'g']","['Chess', 'Go']","[-0.15, 0.5]","[0.15, 0.5]",1,1,0,15,15,15,0,1,1,3,,,,,,,,,,,,,,,,,,,,,,,,,,,,,,,,,,,,,,,,,,,,,,,,,,,,,,,,,,,,,,,284.6061440680005,None,284.6061440680005,None,284.6061440680005,None,g,1,3.497733841999434,286.1394009730002,None,286.1394009730002,None,286.1394009730002,None,289.68962893700063,None,289.68962893700063,None,289.68962893700063,None,289.68962893700063,None,,,,,,,,,,,,,,,,,,,,,,,,,,,,,,,,,,,,,,,,,,,,001,175,2020_Feb_27_0951,spring_faces,3.1.5,60.01832803702495,
condition files/Stage0c_2.xlsx,0c,theta,beta,g,"['h', 'g']","['Chess', 'Go']","[-0.15, 0.5]","[0.15, 0.5]",1,1,0,15,15,15,0,2,2,2,,,,,,,,,,,,,,,,,,,,,,,,,,,,,,,,,,,,,,,,,,,,,,,,,,,,,,,,,,,,,,,291.65636694300065,None,291.65636694300065,None,291.65636694300065,None,g,1,1.1672249409994038,293.18987356900016,None,293.18987356900016,None,293.18987356900016,None,294.40654028800054,None,294.40654028800054,None,294.40654028800054,None,294.40654028800054,None,,,,,,,,,,,,,,,,,,,,,,,,,,,,,,,,,,,,,,,,,,,,001,175,2020_Feb_27_0951,spring_faces,3.1.5,60.01832803702495,
condition files/Stage0c_2.xlsx,0c,alpha,theta,h,"['h', 'g']","['Chess', 'Go']","[-0.15, 0.5]","[0.15, 0.5]",1,1,0,15,15,15,0,3,3,0,,,,,,,,,,,,,,,,,,,,,,,,,,,,,,,,,,,,,,,,,,,,,,,,,,,,,,,,,,,,,,,296.38966405300016,None,296.38966405300016,None,296.38966405300016,None,h,1,1.0902368100005333,297.92288885000016,None,297.92288885000016,None,297.92288885000016,None,299.07313006000004,None,299.07313006000004,None,299.07313006000004,None,299.07313006000004,None,,,,,,,,,,,,,,,,,,,,,,,,,,,,,,,,,,,,,,,,,,,,001,175,2020_Feb_27_0951,spring_faces,3.1.5,60.01832803702495,
condition files/Stage0c_1.xlsx,0c,phi,beta,g,"['h', 'g']","['Chess', 'Go']","[-0.15, 0.5]","[0.15, 0.5]",1,1,0,16,16,16,0,0,0,3,,,,,,,,,,,,,,,,,,,,,,,,,,,,,,,,,,,,,,,,,,,,,,,,,,,,,,,,,,,,,,,301.05660200500006,None,301.05660200500006,None,301.05660200500006,None,g,1,0.9680576150003617,302.5890555579999,None,302.5890555579999,None,302.5890555579999,None,303.6231198180003,None,303.6231198180003,None,303.6231198180003,None,303.6231198180003,None,,,,,,,,,,,,,,,,,,,,,,,,,,,,,,,,,,,,,,,,,,,,001,175,2020_Feb_27_0951,spring_faces,3.1.5,60.01832803702495,
condition files/Stage0c_1.xlsx,0c,alpha,phi,h,"['h', 'g']","['Chess', 'Go']","[-0.15, 0.5]","[0.15, 0.5]",1,1,0,16,16,16,0,1,1,1,,,,,,,,,,,,,,,,,,,,,,,,,,,,,,,,,,,,,,,,,,,,,,,,,,,,,,,,,,,,,,,305.58947670900034,None,305.58947670900034,None,305.58947670900034,None,h,1,0.7706595590007055,307.1224802200004,None,307.1224802200004,None,307.1224802200004,None,307.9557960830007,None,307.9557960830007,None,307.9557960830007,None,307.9557960830007,None,,,,,,,,,,,,,,,,,,,,,,,,,,,,,,,,,,,,,,,,,,,,001,175,2020_Feb_27_0951,spring_faces,3.1.5,60.01832803702495,
condition files/Stage0c_1.xlsx,0c,theta,alpha,h,"['h', 'g']","['Chess', 'Go']","[-0.15, 0.5]","[0.15, 0.5]",1,1,0,16,16,16,0,2,2,0,,,,,,,,,,,,,,,,,,,,,,,,,,,,,,,,,,,,,,,,,,,,,,,,,,,,,,,,,,,,,,,309.92304420100027,None,309.92304420100027,None,309.92304420100027,None,h,1,0.725226384999587,311.45596815800036,None,311.45596815800036,None,311.45596815800036,None,312.2239355310003,None,312.2239355310003,None,312.2239355310003,None,312.2239355310003,None,,,,,,,,,,,,,,,,,,,,,,,,,,,,,,,,,,,,,,,,,,,,001,175,2020_Feb_27_0951,spring_faces,3.1.5,60.01832803702495,
condition files/Stage0c_1.xlsx,0c,beta,theta,g,"['h', 'g']","['Chess', 'Go']","[-0.15, 0.5]","[0.15, 0.5]",1,1,0,16,16,16,0,3,3,2,,,,,,,,,,,,,,,,,,,,,,,,,,,,,,,,,,,,,,,,,,,,,,,,,,,,,,,,,,,,,,,314.2062830110008,None,314.2062830110008,None,314.2062830110008,None,g,1,0.6975156810003682,315.73962300200037,None,315.73962300200037,None,315.73962300200037,None,316.48978984400037,None,316.48978984400037,None,316.48978984400037,None,316.48978984400037,None,,,,,,,,,,,,,,,,,,,,,,,,,,,,,,,,,,,,,,,,,,,,001,175,2020_Feb_27_0951,spring_faces,3.1.5,60.01832803702495,
condition files/Stage0c_2.xlsx,0c,beta,phi,g,"['h', 'g']","['Chess', 'Go']","[-0.15, 0.5]","[0.15, 0.5]",1,1,0,17,17,17,0,0,0,3,,,,,,,,,,,,,,,,,,,,,,,,,,,,,,,,,,,,,,,,,,,,,,,,,,,,,,,,,,,,,,,318.47284399900036,None,318.47284399900036,None,318.47284399900036,None,g,1,1.6476026739992449,320.00581162100025,None,320.00581162100025,None,320.00581162100025,None,321.6910405530007,None,321.6910405530007,None,321.6910405530007,None,321.6910405530007,None,,,,,,,,,,,,,,,,,,,,,,,,,,,,,,,,,,,,,,,,,,,,001,175,2020_Feb_27_0951,spring_faces,3.1.5,60.01832803702495,
condition files/Stage0c_2.xlsx,0c,alpha,theta,h,"['h', 'g']","['Chess', 'Go']","[-0.15, 0.5]","[0.15, 0.5]",1,1,0,17,17,17,0,1,1,0,,,,,,,,,,,,,,,,,,,,,,,,,,,,,,,,,,,,,,,,,,,,,,,,,,,,,,,,,,,,,,,323.6728219350007,None,323.6728219350007,None,323.6728219350007,None,h,1,0.8789101369993659,325.20621849800045,None,325.20621849800045,None,325.20621849800045,None,326.1393153980007,None,326.1393153980007,None,326.1393153980007,None,326.1393153980007,None,,,,,,,,,,,,,,,,,,,,,,,,,,,,,,,,,,,,,,,,,,,,001,175,2020_Feb_27_0951,spring_faces,3.1.5,60.01832803702495,
condition files/Stage0c_2.xlsx,0c,theta,beta,g,"['h', 'g']","['Chess', 'Go']","[-0.15, 0.5]","[0.15, 0.5]",1,1,0,17,17,17,0,2,2,2,,,,,,,,,,,,,,,,,,,,,,,,,,,,,,,,,,,,,,,,,,,,,,,,,,,,,,,,,,,,,,,328.1056887530003,None,328.1056887530003,None,328.1056887530003,None,g,1,0.7970852099997501,329.6400510520007,None,329.6400510520007,None,329.6400510520007,None,330.4897361829999,None,330.4897361829999,None,330.4897361829999,None,330.4897361829999,None,,,,,,,,,,,,,,,,,,,,,,,,,,,,,,,,,,,,,,,,,,,,001,175,2020_Feb_27_0951,spring_faces,3.1.5,60.01832803702495,
condition files/Stage0c_2.xlsx,0c,phi,alpha,h,"['h', 'g']","['Chess', 'Go']","[-0.15, 0.5]","[0.15, 0.5]",1,1,0,17,17,17,0,3,3,1,,,,,,,,,,,,,,,,,,,,,,,,,,,,,,,,,,,,,,,,,,,,,,,,,,,,,,,,,,,,,,,332.4562100390003,None,332.4562100390003,None,332.4562100390003,None,h,1,0.8632870700002968,333.9898764039999,None,333.9898764039999,None,333.9898764039999,None,334.9062758560003,None,334.9062758560003,None,334.9062758560003,None,334.9062758560003,None,,,,,,,,,,,,,,,,,,,,,,,,,,,,,,,,,,,,,,,,,,,,001,175,2020_Feb_27_0951,spring_faces,3.1.5,60.01832803702495,
,,,,,,,,,,,,,,,,,,,,,,,,,,,,,,,,,,,,,,,,,,,,,,,,,,,,,,,,,,,,,,,,,,,,,,,,,,,,,,,,,,,,,,,,,,,,,,,,,,,,,,,,336.8896710660001,None,space,7.203579714000625,341.88957112700064,None,,,,,,,,,,,,,,,,,,,,,,,,,,,,,,,,,,,,,,001,175,2020_Feb_27_0951,spring_faces,3.1.5,60.01832803702495,
condition files/Stage1_1.xlsx,,B4,T4,m,"['c', 'm']","['Clue', 'Monopoly']","[-0.15, 0.5]","[0.15, 0.5]",1,1,,,,,,,,,0,0,0,0,0,0,0,7,,,,,,,,,,,,,,,,,,,,,,,,,,,,,,,,,,,,,,,,,,,,,,,,,,,,,,,349.2065579700002,None,349.2065579700002,None,349.2065579700002,None,c,0,3.842690999000297,350.7225093400002,None,350.7225093400002,None,350.7225093400002,None,354.63949744399997,None,354.63949744399997,None,354.63949744399997,None,354.63949744399997,None,,,,,,,341.88957112700064,None,,,,,,,,,,,,,,,,,,,,,,,,,,,,,,,,,,,,001,175,2020_Feb_27_0951,spring_faces,3.1.5,60.01832803702495,
condition files/Stage1_1.xlsx,,B2,T1,m,"['c', 'm']","['Clue', 'Monopoly']","[-0.15, 0.5]","[0.15, 0.5]",1,1,,,,,,,,,0,0,0,0,0,1,1,2,,,,,,,,,,,,,,,,,,,,,,,,,,,,,,,,,,,,,,,,,,,,,,,,,,,,,,,356.58984627800055,None,356.58984627800055,None,356.58984627800055,None,m,1,2.040825882999343,358.1563824320001,None,358.1563824320001,None,358.1563824320001,None,360.2563549680008,None,360.2563549680008,None,360.2563549680008,None,360.2563549680008,None,,,,,,,,,,,,,,,,,,,,,,,,,,,,,,,,,,,,,,,,,,,,001,175,2020_Feb_27_0951,spring_faces,3.1.5,60.01832803702495,
condition files/Stage1_1.xlsx,,T3,B4,c,"['c', 'm']","['Clue', 'Monopoly']","[-0.15, 0.5]","[0.15, 0.5]",1,1,,,,,,,,,0,0,0,0,0,2,2,5,,,,,,,,,,,,,,,,,,,,,,,,,,,,,,,,,,,,,,,,,,,,,,,,,,,,,,,362.22291021399997,None,362.22291021399997,None,362.22291021399997,None,c,1,1.0151839619993552,363.8059466100003,None,363.8059466100003,None,363.8059466100003,None,364.87288525500026,None,364.87288525500026,None,364.87288525500026,None,364.87288525500026,None,,,,,,,,,,,,,,,,,,,,,,,,,,,,,,,,,,,,,,,,,,,,001,175,2020_Feb_27_0951,spring_faces,3.1.5,60.01832803702495,
condition files/Stage1_1.xlsx,,T1,B1,c,"['c', 'm']","['Clue', 'Monopoly']","[-0.15, 0.5]","[0.15, 0.5]",1,1,,,,,,,,,0,0,0,0,0,3,3,0,,,,,,,,,,,,,,,,,,,,,,,,,,,,,,,,,,,,,,,,,,,,,,,,,,,,,,,366.83890355900076,None,366.83890355900076,None,366.83890355900076,None,c,1,0.5583005750004304,368.4228983769999,None,368.4228983769999,None,368.4228983769999,None,369.03923501900044,None,369.03923501900044,None,369.03923501900044,None,369.03923501900044,None,,,,,,,,,,,,,,,,,,,,,,,,,,,,,,,,,,,,,,,,,,,,001,175,2020_Feb_27_0951,spring_faces,3.1.5,60.01832803702495,
condition files/Stage1_1.xlsx,,B1,T2,c,"['c', 'm']","['Clue', 'Monopoly']","[-0.15, 0.5]","[0.15, 0.5]",1,1,,,,,,,,,0,0,0,0,0,4,4,1,,,,,,,,,,,,,,,,,,,,,,,,,,,,,,,,,,,,,,,,,,,,,,,,,,,,,,,371.0056081640005,None,371.0056081640005,None,371.0056081640005,None,m,0,0.5999597249992803,372.5730929520005,None,372.5730929520005,None,372.5730929520005,None,373.23983332600073,None,373.23983332600073,None,373.23983332600073,None,373.23983332600073,None,,,,,,,,,,,,,,,,,,,,,,,,,,,,,,,,,,,,,,,,,,,,001,175,2020_Feb_27_0951,spring_faces,3.1.5,60.01832803702495,
condition files/Stage1_1.xlsx,,B3,T3,c,"['c', 'm']","['Clue', 'Monopoly']","[-0.15, 0.5]","[0.15, 0.5]",1,1,,,,,,,,,0,0,0,0,0,5,5,4,,,,,,,,,,,,,,,,,,,,,,,,,,,,,,,,,,,,,,,,,,,,,,,,,,,,,,,375.2061822080004,None,375.2061822080004,None,375.2061822080004,None,m,0,1.42509053699996,376.7561115190001,None,376.7561115190001,None,376.7561115190001,None,378.23986911000065,None,378.23986911000065,None,378.23986911000065,None,378.23986911000065,None,,,,,,,,,,,,,,,,,,,,,,,,,,,,,,,,,,,,,,,,,,,,001,175,2020_Feb_27_0951,spring_faces,3.1.5,60.01832803702495,
condition files/Stage1_1.xlsx,,T2,B2,m,"['c', 'm']","['Clue', 'Monopoly']","[-0.15, 0.5]","[0.15, 0.5]",1,1,,,,,,,,,0,0,0,0,0,6,6,3,,,,,,,,,,,,,,,,,,,,,,,,,,,,,,,,,,,,,,,,,,,,,,,,,,,,,,,380.2061750789999,None,380.2061750789999,None,380.2061750789999,None,c,0,1.1751983989997825,381.7419902440006,None,381.7419902440006,None,381.7419902440006,None,382.9734518089999,None,382.9734518089999,None,382.9734518089999,None,382.9734518089999,None,,,,,,,,,,,,,,,,,,,,,,,,,,,,,,,,,,,,,,,,,,,,001,175,2020_Feb_27_0951,spring_faces,3.1.5,60.01832803702495,
condition files/Stage1_1.xlsx,,T4,B3,m,"['c', 'm']","['Clue', 'Monopoly']","[-0.15, 0.5]","[0.15, 0.5]",1,1,,,,,,,,,0,0,0,0,0,7,7,6,,,,,,,,,,,,,,,,,,,,,,,,,,,,,,,,,,,,,,,,,,,,,,,,,,,,,,,384.93954274800035,None,384.93954274800035,None,384.93954274800035,None,m,1,7.579025541000192,386.47405824900034,None,386.47405824900034,None,386.47405824900034,None,394.1062816370004,None,394.1062816370004,None,394.1062816370004,None,394.1062816370004,None,,,,,,,,,,,,,,,,,,,,,,,,,,,,,,,,,,,,,,,,,,,,001,175,2020_Feb_27_0951,spring_faces,3.1.5,60.01832803702495,
condition files/Stage1_2.xlsx,,T1,B2,m,"['c', 'm']","['Clue', 'Monopoly']","[-0.15, 0.5]","[0.15, 0.5]",1,1,,,,,,,,,0,1,1,1,0,0,0,2,,,,,,,,,,,,,,,,,,,,,,,,,,,,,,,,,,,,,,,,,,,,,,,,,,,,,,,396.12227832400004,None,396.12227832400004,None,396.12227832400004,None,c,0,4.382480876000045,397.62267771200004,None,397.62267771200004,None,397.62267771200004,None,402.0565592460007,None,402.0565592460007,None,402.0565592460007,None,402.0565592460007,None,,,,,,,,,,,,,,,,,,,,,,,,,,,,,,,,,,,,,,,,,,,,001,175,2020_Feb_27_0951,spring_faces,3.1.5,60.01832803702495,
condition files/Stage1_2.xlsx,,B4,T3,c,"['c', 'm']","['Clue', 'Monopoly']","[-0.15, 0.5]","[0.15, 0.5]",1,1,,,,,,,,,0,1,1,1,0,1,1,5,,,,,,,,,,,,,,,,,,,,,,,,,,,,,,,,,,,,,,,,,,,,,,,,,,,,,,,404.0220623920004,None,404.0220623920004,None,404.0220623920004,None,c,1,2.1922456029997193,405.5569288530005,None,405.5569288530005,None,405.5569288530005,None,407.80674840900065,None,407.80674840900065,None,407.80674840900065,None,407.80674840900065,None,,,,,,,,,,,,,,,,,,,,,,,,,,,,,,,,,,,,,,,,,,,,001,175,2020_Feb_27_0951,spring_faces,3.1.5,60.01832803702495,
condition files/Stage1_2.xlsx,,T4,B4,m,"['c', 'm']","['Clue', 'Monopoly']","[-0.15, 0.5]","[0.15, 0.5]",1,1,,,,,,,,,0,1,1,1,0,2,2,7,,,,,,,,,,,,,,,,,,,,,,,,,,,,,,,,,,,,,,,,,,,,,,,,,,,,,,,409.772904206,None,409.772904206,None,409.772904206,None,m,1,1.995141643000352,411.3059496450005,None,411.3059496450005,None,411.3059496450005,None,413.3575886870003,None,413.3575886870003,None,413.3575886870003,None,413.3575886870003,None,,,,,,,,,,,,,,,,,,,,,,,,,,,,,,,,,,,,,,,,,,,,001,175,2020_Feb_27_0951,spring_faces,3.1.5,60.01832803702495,
condition files/Stage1_2.xlsx,,T2,B1,c,"['c', 'm']","['Clue', 'Monopoly']","[-0.15, 0.5]","[0.15, 0.5]",1,1,,,,,,,,,0,1,1,1,0,3,3,1,,,,,,,,,,,,,,,,,,,,,,,,,,,,,,,,,,,,,,,,,,,,,,,,,,,,,,,415.3228925910007,None,415.3228925910007,None,415.3228925910007,None,m,0,4.859869267999784,416.87332095200054,None,416.87332095200054,None,416.87332095200054,None,421.7899393309999,None,421.7899393309999,None,421.7899393309999,None,421.7899393309999,None,,,,,,,,,,,,,,,,,,,,,,,,,,,,,,,,,,,,,,,,,,,,001,175,2020_Feb_27_0951,spring_faces,3.1.5,60.01832803702495,
condition files/Stage1_2.xlsx,,T3,B3,c,"['c', 'm']","['Clue', 'Monopoly']","[-0.15, 0.5]","[0.15, 0.5]",1,1,,,,,,,,,0,1,1,1,0,4,4,4,,,,,,,,,,,,,,,,,,,,,,,,,,,,,,,,,,,,,,,,,,,,,,,,,,,,,,,423.7556484890001,None,423.7556484890001,None,423.7556484890001,None,c,1,0.7780154089996358,425.2911399000004,None,425.2911399000004,None,425.2911399000004,None,426.1231043830003,None,426.1231043830003,None,426.1231043830003,None,426.1231043830003,None,,,,,,,,,,,,,,,,,,,,,,,,,,,,,,,,,,,,,,,,,,,,001,175,2020_Feb_27_0951,spring_faces,3.1.5,60.01832803702495,
condition files/Stage1_2.xlsx,,B2,T2,m,"['c', 'm']","['Clue', 'Monopoly']","[-0.15, 0.5]","[0.15, 0.5]",1,1,,,,,,,,,0,1,1,1,0,5,5,3,,,,,,,,,,,,,,,,,,,,,,,,,,,,,,,,,,,,,,,,,,,,,,,,,,,,,,,428.08981860400036,None,428.08981860400036,None,428.08981860400036,None,m,1,0.7172803619996557,429.63980844900016,None,429.63980844900016,None,429.63980844900016,None,430.4400213170002,None,430.4400213170002,None,430.4400213170002,None,430.4400213170002,None,,,,,,,,,,,,,,,,,,,,,,,,,,,,,,,,,,,,,,,,,,,,001,175,2020_Feb_27_0951,spring_faces,3.1.5,60.01832803702495,
condition files/Stage1_2.xlsx,,B1,T1,c,"['c', 'm']","['Clue', 'Monopoly']","[-0.15, 0.5]","[0.15, 0.5]",1,1,,,,,,,,,0,1,1,1,0,6,6,0,,,,,,,,,,,,,,,,,,,,,,,,,,,,,,,,,,,,,,,,,,,,,,,,,,,,,,,432.3895131250001,None,432.3895131250001,None,432.3895131250001,None,m,0,1.1213339610003459,433.9238338940004,None,433.9238338940004,None,433.9238338940004,None,435.10899358200004,None,435.10899358200004,None,435.10899358200004,None,435.10899358200004,None,,,,,,,,,,,,,,,,,,,,,,,,,,,,,,,,,,,,,,,,,,,,001,175,2020_Feb_27_0951,spring_faces,3.1.5,60.01832803702495,
condition files/Stage1_2.xlsx,,B3,T4,m,"['c', 'm']","['Clue', 'Monopoly']","[-0.15, 0.5]","[0.15, 0.5]",1,1,,,,,,,,,0,1,1,1,0,7,7,6,,,,,,,,,,,,,,,,,,,,,,,,,,,,,,,,,,,,,,,,,,,,,,,,,,,,,,,437.07283219800047,None,437.07283219800047,None,437.07283219800047,None,m,1,1.237211923000359,438.607941968,None,438.607941968,None,438.607941968,None,439.90794017700046,None,439.90794017700046,None,439.90794017700046,None,439.90794017700046,None,,,,,,,,,,,,,,,,,,,,,,,,,,,,,,,,,,,,,,,,,,,,001,175,2020_Feb_27_0951,spring_faces,3.1.5,60.01832803702495,
condition files/Stage1_1.xlsx,,T2,B2,m,"['c', 'm']","['Clue', 'Monopoly']","[-0.15, 0.5]","[0.15, 0.5]",1,1,,,,,,,,,0,2,2,2,0,0,0,3,,,,,,,,,,,,,,,,,,,,,,,,,,,,,,,,,,,,,,,,,,,,,,,,,,,,,,,441.8892719350006,None,441.8892719350006,None,441.8892719350006,None,c,0,0.8216114150000067,443.4395350929999,None,443.4395350929999,None,443.4395350929999,None,444.3230857140006,None,444.3230857140006,None,444.3230857140006,None,444.3230857140006,None,,,,,,,,,,,,,,,,,,,,,,,,,,,,,,,,,,,,,,,,,,,,001,175,2020_Feb_27_0951,spring_faces,3.1.5,60.01832803702495,
condition files/Stage1_1.xlsx,,B3,T3,c,"['c', 'm']","['Clue', 'Monopoly']","[-0.15, 0.5]","[0.15, 0.5]",1,1,,,,,,,,,0,2,2,2,0,1,1,4,,,,,,,,,,,,,,,,,,,,,,,,,,,,,,,,,,,,,,,,,,,,,,,,,,,,,,,446.2895396640006,None,446.2895396640006,None,446.2895396640006,None,c,1,2.6299056640000344,447.8232857160001,None,447.8232857160001,None,447.8232857160001,None,450.5080974600005,None,450.5080974600005,None,450.5080974600005,None,450.5080974600005,None,,,,,,,,,,,,,,,,,,,,,,,,,,,,,,,,,,,,,,,,,,,,001,175,2020_Feb_27_0951,spring_faces,3.1.5,60.01832803702495,
condition files/Stage1_1.xlsx,,T3,B4,c,"['c', 'm']","['Clue', 'Monopoly']","[-0.15, 0.5]","[0.15, 0.5]",1,1,,,,,,,,,0,2,2,2,0,2,2,5,,,,,,,,,,,,,,,,,,,,,,,,,,,,,,,,,,,,,,,,,,,,,,,,,,,,,,,452.4722790169999,None,452.4722790169999,None,452.4722790169999,None,m,0,0.9893435960002535,454.0078663960003,None,454.0078663960003,None,454.0078663960003,None,455.0565134770004,None,455.0565134770004,None,455.0565134770004,None,455.0565134770004,None,,,,,,,,,,,,,,,,,,,,,,,,,,,,,,,,,,,,,,,,,,,,001,175,2020_Feb_27_0951,spring_faces,3.1.5,60.01832803702495,
condition files/Stage1_1.xlsx,,T4,B3,m,"['c', 'm']","['Clue', 'Monopoly']","[-0.15, 0.5]","[0.15, 0.5]",1,1,,,,,,,,,0,2,2,2,0,3,3,6,,,,,,,,,,,,,,,,,,,,,,,,,,,,,,,,,,,,,,,,,,,,,,,,,,,,,,,457.02309353000055,None,457.02309353000055,None,457.02309353000055,None,c,0,3.0812291020001794,458.5559204649999,None,458.5559204649999,None,458.5559204649999,None,461.70649369200055,None,461.70649369200055,None,461.70649369200055,None,461.70649369200055,None,,,,,,,,,,,,,,,,,,,,,,,,,,,,,,,,,,,,,,,,,,,,001,175,2020_Feb_27_0951,spring_faces,3.1.5,60.01832803702495,
condition files/Stage1_1.xlsx,,T1,B1,c,"['c', 'm']","['Clue', 'Monopoly']","[-0.15, 0.5]","[0.15, 0.5]",1,1,,,,,,,,,0,2,2,2,0,4,4,0,,,,,,,,,,,,,,,,,,,,,,,,,,,,,,,,,,,,,,,,,,,,,,,,,,,,,,,463.6557245990007,None,463.6557245990007,None,463.6557245990007,None,c,1,0.9915975719995913,465.1896176910004,None,465.1896176910004,None,465.1896176910004,None,466.23929383199993,None,466.23929383199993,None,466.23929383199993,None,466.23929383199993,None,,,,,,,,,,,,,,,,,,,,,,,,,,,,,,,,,,,,,,,,,,,,001,175,2020_Feb_27_0951,spring_faces,3.1.5,60.01832803702495,
condition files/Stage1_1.xlsx,,B2,T1,m,"['c', 'm']","['Clue', 'Monopoly']","[-0.15, 0.5]","[0.15, 0.5]",1,1,,,,,,,,,0,2,2,2,0,5,5,2,,,,,,,,,,,,,,,,,,,,,,,,,,,,,,,,,,,,,,,,,,,,,,,,,,,,,,,468.20584184900054,None,468.20584184900054,None,468.20584184900054,None,m,1,0.6794638830006079,469.74169533200075,None,469.74169533200075,None,469.74169533200075,None,470.4749824600003,None,470.4749824600003,None,470.4749824600003,None,470.4749824600003,None,,,,,,,,,,,,,,,,,,,,,,,,,,,,,,,,,,,,,,,,,,,,001,175,2020_Feb_27_0951,spring_faces,3.1.5,60.01832803702495,
condition files/Stage1_1.xlsx,,B1,T2,c,"['c', 'm']","['Clue', 'Monopoly']","[-0.15, 0.5]","[0.15, 0.5]",1,1,,,,,,,,,0,2,2,2,0,6,6,1,,,,,,,,,,,,,,,,,,,,,,,,,,,,,,,,,,,,,,,,,,,,,,,,,,,,,,,472.4389788610006,None,472.4389788610006,None,472.4389788610006,None,c,1,1.2779367009998168,473.97526930000004,None,473.97526930000004,None,473.97526930000004,None,475.3085156880006,None,475.3085156880006,None,475.3085156880006,None,475.3085156880006,None,,,,,,,,,,,,,,,,,,,,,,,,,,,,,,,,,,,,,,,,,,,,001,175,2020_Feb_27_0951,spring_faces,3.1.5,60.01832803702495,
condition files/Stage1_1.xlsx,,B4,T4,m,"['c', 'm']","['Clue', 'Monopoly']","[-0.15, 0.5]","[0.15, 0.5]",1,1,,,,,,,,,0,2,2,2,0,7,7,7,,,,,,,,,,,,,,,,,,,,,,,,,,,,,,,,,,,,,,,,,,,,,,,,,,,,,,,477.2729766070006,None,477.2729766070006,None,477.2729766070006,None,m,1,1.1969702259993937,478.80818350700065,None,478.80818350700065,None,478.80818350700065,None,480.05694577400027,None,480.05694577400027,None,480.05694577400027,None,480.05694577400027,None,,,,,,,,,,,,,,,,,,,,,,,,,,,,,,,,,,,,,,,,,,,,001,175,2020_Feb_27_0951,spring_faces,3.1.5,60.01832803702495,
condition files/Stage1_2.xlsx,,T3,B3,c,"['c', 'm']","['Clue', 'Monopoly']","[-0.15, 0.5]","[0.15, 0.5]",1,1,,,,,,,,,0,3,3,3,0,0,0,4,,,,,,,,,,,,,,,,,,,,,,,,,,,,,,,,,,,,,,,,,,,,,,,,,,,,,,,482.0395610989999,None,482.0395610989999,None,482.0395610989999,None,m,0,1.7743497260007643,483.57484197600024,None,483.57484197600024,None,483.57484197600024,None,485.42317903500043,None,485.42317903500043,None,485.42317903500043,None,485.42317903500043,None,,,,,,,,,,,,,,,,,,,,,,,,,,,,,,,,,,,,,,,,,,,,001,175,2020_Feb_27_0951,spring_faces,3.1.5,60.01832803702495,
condition files/Stage1_2.xlsx,,T2,B1,c,"['c', 'm']","['Clue', 'Monopoly']","[-0.15, 0.5]","[0.15, 0.5]",1,1,,,,,,,,,0,3,3,3,0,1,1,1,,,,,,,,,,,,,,,,,,,,,,,,,,,,,,,,,,,,,,,,,,,,,,,,,,,,,,,487.3720197090006,None,487.3720197090006,None,487.3720197090006,None,c,1,2.472910917000263,488.90831241200067,None,488.90831241200067,None,488.90831241200067,None,491.43963281300057,None,491.43963281300057,None,491.43963281300057,None,491.43963281300057,None,,,,,,,,,,,,,,,,,,,,,,,,,,,,,,,,,,,,,,,,,,,,001,175,2020_Feb_27_0951,spring_faces,3.1.5,60.01832803702495,
condition files/Stage1_2.xlsx,,B3,T4,m,"['c', 'm']","['Clue', 'Monopoly']","[-0.15, 0.5]","[0.15, 0.5]",1,1,,,,,,,,,0,3,3,3,0,2,2,6,,,,,,,,,,,,,,,,,,,,,,,,,,,,,,,,,,,,,,,,,,,,,,,,,,,,,,,493.40559240400034,None,493.40559240400034,None,493.40559240400034,None,m,1,1.0805853720003142,494.95654119900064,None,494.95654119900064,None,494.95654119900064,None,496.0917785010006,None,496.0917785010006,None,496.0917785010006,None,496.0917785010006,None,,,,,,,,,,,,,,,,,,,,,,,,,,,,,,,,,,,,,,,,,,,,001,175,2020_Feb_27_0951,spring_faces,3.1.5,60.01832803702495,
condition files/Stage1_2.xlsx,,B4,T3,c,"['c', 'm']","['Clue', 'Monopoly']","[-0.15, 0.5]","[0.15, 0.5]",1,1,,,,,,,,,0,3,3,3,0,3,3,5,,,,,,,,,,,,,,,,,,,,,,,,,,,,,,,,,,,,,,,,,,,,,,,,,,,,,,,498.05556598300063,None,498.05556598300063,None,498.05556598300063,None,m,0,1.7106569200004742,499.59048854499997,None,499.59048854499997,None,499.59048854499997,None,501.3562541430001,None,501.3562541430001,None,501.3562541430001,None,501.3562541430001,None,,,,,,,,,,,,,,,,,,,,,,,,,,,,,,,,,,,,,,,,,,,,001,175,2020_Feb_27_0951,spring_faces,3.1.5,60.01832803702495,
condition files/Stage1_2.xlsx,,B2,T2,m,"['c', 'm']","['Clue', 'Monopoly']","[-0.15, 0.5]","[0.15, 0.5]",1,1,,,,,,,,,0,3,3,3,0,4,4,3,,,,,,,,,,,,,,,,,,,,,,,,,,,,,,,,,,,,,,,,,,,,,,,,,,,,,,,503.3222784509999,None,503.3222784509999,None,503.3222784509999,None,m,1,1.2438332399997307,504.85724639100044,None,504.85724639100044,None,504.85724639100044,None,506.1579759390006,None,506.1579759390006,None,506.1579759390006,None,506.1579759390006,None,,,,,,,,,,,,,,,,,,,,,,,,,,,,,,,,,,,,,,,,,,,,001,175,2020_Feb_27_0951,spring_faces,3.1.5,60.01832803702495,
condition files/Stage1_2.xlsx,,T1,B2,m,"['c', 'm']","['Clue', 'Monopoly']","[-0.15, 0.5]","[0.15, 0.5]",1,1,,,,,,,,,0,3,3,3,0,5,5,2,,,,,,,,,,,,,,,,,,,,,,,,,,,,,,,,,,,,,,,,,,,,,,,,,,,,,,,508.122317628,None,508.122317628,None,508.122317628,None,c,0,1.5802173090005454,509.65693681800076,None,509.65693681800076,None,509.65693681800076,None,511.28935053400073,None,511.28935053400073,None,511.28935053400073,None,511.28935053400073,None,,,,,,,,,,,,,,,,,,,,,,,,,,,,,,,,,,,,,,,,,,,,001,175,2020_Feb_27_0951,spring_faces,3.1.5,60.01832803702495,
condition files/Stage1_2.xlsx,,T4,B4,m,"['c', 'm']","['Clue', 'Monopoly']","[-0.15, 0.5]","[0.15, 0.5]",1,1,,,,,,,,,0,3,3,3,0,6,6,7,,,,,,,,,,,,,,,,,,,,,,,,,,,,,,,,,,,,,,,,,,,,,,,,,,,,,,,513.2557595880007,None,513.2557595880007,None,513.2557595880007,None,c,0,1.2465884520006512,514.7905669900001,None,514.7905669900001,None,514.7905669900001,None,516.0895064599999,None,516.0895064599999,None,516.0895064599999,None,516.0895064599999,None,,,,,,,,,,,,,,,,,,,,,,,,,,,,,,,,,,,,,,,,,,,,001,175,2020_Feb_27_0951,spring_faces,3.1.5,60.01832803702495,
condition files/Stage1_2.xlsx,,B1,T1,c,"['c', 'm']","['Clue', 'Monopoly']","[-0.15, 0.5]","[0.15, 0.5]",1,1,,,,,,,,,0,3,3,3,0,7,7,0,,,,,,,,,,,,,,,,,,,,,,,,,,,,,,,,,,,,,,,,,,,,,,,,,,,,,,,518.0557485640002,None,518.0557485640002,None,518.0557485640002,None,c,1,1.1518307690002985,519.5892958190007,None,519.5892958190007,None,519.5892958190007,None,520.8065416220006,None,520.8065416220006,None,520.8065416220006,None,520.8065416220006,None,,,,,,,,,,,,,,,,,,,,,,,,,,,,,,,,,,,,,,,,,,,,001,175,2020_Feb_27_0951,spring_faces,3.1.5,60.01832803702495,
condition files/Stage1_1.xlsx,,B3,T3,c,"['c', 'm']","['Clue', 'Monopoly']","[-0.15, 0.5]","[0.15, 0.5]",1,1,,,,,,,,,0,4,4,4,0,0,0,4,,,,,,,,,,,,,,,,,,,,,,,,,,,,,,,,,,,,,,,,,,,,,,,,,,,,,,,522.7893217650008,None,522.7893217650008,None,522.7893217650008,None,m,0,1.5045160529998611,524.3247080310002,None,524.3247080310002,None,524.3247080310002,None,525.8895485780004,None,525.8895485780004,None,525.8895485780004,None,525.8895485780004,None,,,,,,,,,,,,,,,,,,,,,,,,,,,,,,,,,,,,,,,,,,,,001,175,2020_Feb_27_0951,spring_faces,3.1.5,60.01832803702495,
condition files/Stage1_1.xlsx,,T1,B1,c,"['c', 'm']","['Clue', 'Monopoly']","[-0.15, 0.5]","[0.15, 0.5]",1,1,,,,,,,,,0,4,4,4,0,1,1,0,,,,,,,,,,,,,,,,,,,,,,,,,,,,,,,,,,,,,,,,,,,,,,,,,,,,,,,527.8562004380001,None,527.8562004380001,None,527.8562004380001,None,m,0,2.3437300309997227,529.3894899820007,None,529.3894899820007,None,529.3894899820007,None,531.7897372550005,None,531.7897372550005,None,531.7897372550005,None,531.7897372550005,None,,,,,,,,,,,,,,,,,,,,,,,,,,,,,,,,,,,,,,,,,,,,001,175,2020_Feb_27_0951,spring_faces,3.1.5,60.01832803702495,
condition files/Stage1_1.xlsx,,T4,B3,m,"['c', 'm']","['Clue', 'Monopoly']","[-0.15, 0.5]","[0.15, 0.5]",1,1,,,,,,,,,0,4,4,4,0,2,2,6,,,,,,,,,,,,,,,,,,,,,,,,,,,,,,,,,,,,,,,,,,,,,,,,,,,,,,,533.7562077090006,None,533.7562077090006,None,533.7562077090006,None,c,0,1.3239772550005,535.2892219400001,None,535.2892219400001,None,535.2892219400001,None,536.6742925140006,None,536.6742925140006,None,536.6742925140006,None,536.6742925140006,None,,,,,,,,,,,,,,,,,,,,,,,,,,,,,,,,,,,,,,,,,,,,001,175,2020_Feb_27_0951,spring_faces,3.1.5,60.01832803702495,
condition files/Stage1_1.xlsx,,B4,T4,m,"['c', 'm']","['Clue', 'Monopoly']","[-0.15, 0.5]","[0.15, 0.5]",1,1,,,,,,,,,0,4,4,4,0,3,3,7,,,,,,,,,,,,,,,,,,,,,,,,,,,,,,,,,,,,,,,,,,,,,,,,,,,,,,,538.6394966960006,None,538.6394966960006,None,538.6394966960006,None,m,1,1.320064113000626,540.1730796669999,None,540.1730796669999,None,540.1730796669999,None,541.5564529680005,None,541.5564529680005,None,541.5564529680005,None,541.5564529680005,None,,,,,,,,,,,,,,,,,,,,,,,,,,,,,,,,,,,,,,,,,,,,001,175,2020_Feb_27_0951,spring_faces,3.1.5,60.01832803702495,
condition files/Stage1_1.xlsx,,T2,B2,m,"['c', 'm']","['Clue', 'Monopoly']","[-0.15, 0.5]","[0.15, 0.5]",1,1,,,,,,,,,0,4,4,4,0,4,4,3,,,,,,,,,,,,,,,,,,,,,,,,,,,,,,,,,,,,,,,,,,,,,,,,,,,,,,,543.5230687040003,None,543.5230687040003,None,543.5230687040003,None,m,1,2.1804250570003205,545.056729289,None,545.056729289,None,545.056729289,None,547.2899871540003,None,547.2899871540003,None,547.2899871540003,None,547.2899871540003,None,,,,,,,,,,,,,,,,,,,,,,,,,,,,,,,,,,,,,,,,,,,,001,175,2020_Feb_27_0951,spring_faces,3.1.5,60.01832803702495,
condition files/Stage1_1.xlsx,,T3,B4,c,"['c', 'm']","['Clue', 'Monopoly']","[-0.15, 0.5]","[0.15, 0.5]",1,1,,,,,,,,,0,4,4,4,0,5,5,5,,,,,,,,,,,,,,,,,,,,,,,,,,,,,,,,,,,,,,,,,,,,,,,,,,,,,,,549.2562479090002,None,549.2562479090002,None,549.2562479090002,None,c,1,1.278978124000787,550.7901849790005,None,550.7901849790005,None,550.7901849790005,None,552.1254802030007,None,552.1254802030007,None,552.1254802030007,None,552.1254802030007,None,,,,,,,,,,,,,,,,,,,,,,,,,,,,,,,,,,,,,,,,,,,,001,175,2020_Feb_27_0951,spring_faces,3.1.5,60.01832803702495,
condition files/Stage1_1.xlsx,,B2,T1,m,"['c', 'm']","['Clue', 'Monopoly']","[-0.15, 0.5]","[0.15, 0.5]",1,1,,,,,,,,,0,4,4,4,0,6,6,2,,,,,,,,,,,,,,,,,,,,,,,,,,,,,,,,,,,,,,,,,,,,,,,,,,,,,,,554.0891542140007,None,554.0891542140007,None,554.0891542140007,None,m,1,2.718144073000076,555.6229829170006,None,555.6229829170006,None,555.6229829170006,None,558.4056281789999,None,558.4056281789999,None,558.4056281789999,None,558.4056281789999,None,,,,,,,,,,,,,,,,,,,,,,,,,,,,,,,,,,,,,,,,,,,,001,175,2020_Feb_27_0951,spring_faces,3.1.5,60.01832803702495,
condition files/Stage1_1.xlsx,,B1,T2,c,"['c', 'm']","['Clue', 'Monopoly']","[-0.15, 0.5]","[0.15, 0.5]",1,1,,,,,,,,,0,4,4,4,0,7,7,1,,,,,,,,,,,,,,,,,,,,,,,,,,,,,,,,,,,,,,,,,,,,,,,,,,,,,,,560.3730373790004,None,560.3730373790004,None,560.3730373790004,None,m,0,2.7383199539999623,561.9228313900003,None,561.9228313900003,None,561.9228313900003,None,564.7228931950003,None,564.7228931950003,None,564.7228931950003,None,564.7228931950003,None,,,,,,,,,,,,,,,,,,,,,,,,,,,,,,,,,,,,,,,,,,,,001,175,2020_Feb_27_0951,spring_faces,3.1.5,60.01832803702495,
condition files/Stage1_2.xlsx,,B4,T3,c,"['c', 'm']","['Clue', 'Monopoly']","[-0.15, 0.5]","[0.15, 0.5]",1,1,,,,,,,,,0,5,5,5,0,0,0,5,,,,,,,,,,,,,,,,,,,,,,,,,,,,,,,,,,,,,,,,,,,,,,,,,,,,,,,566.7062841480001,None,566.7062841480001,None,566.7062841480001,None,c,1,1.4940253989998382,568.2391737360003,None,568.2391737360003,None,568.2391737360003,None,569.7893803880006,None,569.7893803880006,None,569.7893803880006,None,569.7893803880006,None,,,,,,,,,,,,,,,,,,,,,,,,,,,,,,,,,,,,,,,,,,,,001,175,2020_Feb_27_0951,spring_faces,3.1.5,60.01832803702495,
condition files/Stage1_2.xlsx,,B3,T4,m,"['c', 'm']","['Clue', 'Monopoly']","[-0.15, 0.5]","[0.15, 0.5]",1,1,,,,,,,,,0,5,5,5,0,1,1,6,,,,,,,,,,,,,,,,,,,,,,,,,,,,,,,,,,,,,,,,,,,,,,,,,,,,,,,571.756092095,None,571.756092095,None,571.756092095,None,m,1,5.786376134999955,573.290789185,None,573.290789185,None,573.290789185,None,579.1404546880003,None,579.1404546880003,None,579.1404546880003,None,579.1404546880003,None,,,,,,,,,,,,,,,,,,,,,,,,,,,,,,,,,,,,,,,,,,,,001,175,2020_Feb_27_0951,spring_faces,3.1.5,60.01832803702495,
condition files/Stage1_2.xlsx,,B2,T2,m,"['c', 'm']","['Clue', 'Monopoly']","[-0.15, 0.5]","[0.15, 0.5]",1,1,,,,,,,,,0,5,5,5,0,2,2,3,,,,,,,,,,,,,,,,,,,,,,,,,,,,,,,,,,,,,,,,,,,,,,,,,,,,,,,581.1064258229999,None,581.1064258229999,None,581.1064258229999,None,m,1,2.5180657359996985,582.6390462220006,None,582.6390462220006,None,582.6390462220006,None,585.2228065500003,None,585.2228065500003,None,585.2228065500003,None,585.2228065500003,None,,,,,,,,,,,,,,,,,,,,,,,,,,,,,,,,,,,,,,,,,,,,001,175,2020_Feb_27_0951,spring_faces,3.1.5,60.01832803702495,
condition files/Stage1_2.xlsx,,T2,B1,c,"['c', 'm']","['Clue', 'Monopoly']","[-0.15, 0.5]","[0.15, 0.5]",1,1,,,,,,,,,0,5,5,5,0,3,3,1,,,,,,,,,,,,,,,,,,,,,,,,,,,,,,,,,,,,,,,,,,,,,,,,,,,,,,,587.1896664330006,None,587.1896664330006,None,587.1896664330006,None,m,0,3.5208111190004274,588.7243362110003,None,588.7243362110003,None,588.7243362110003,None,592.3066471430002,None,592.3066471430002,None,592.3066471430002,None,592.3066471430002,None,,,,,,,,,,,,,,,,,,,,,,,,,,,,,,,,,,,,,,,,,,,,001,175,2020_Feb_27_0951,spring_faces,3.1.5,60.01832803702495,
condition files/Stage1_2.xlsx,,T3,B3,c,"['c', 'm']","['Clue', 'Monopoly']","[-0.15, 0.5]","[0.15, 0.5]",1,1,,,,,,,,,0,5,5,5,0,4,4,4,,,,,,,,,,,,,,,,,,,,,,,,,,,,,,,,,,,,,,,,,,,,,,,,,,,,,,,594.2729692860003,None,594.2729692860003,None,594.2729692860003,None,c,1,1.013326053000128,595.807826317,None,595.807826317,None,595.807826317,None,596.8723707140007,None,596.8723707140007,None,596.8723707140007,None,596.8723707140007,None,,,,,,,,,,,,,,,,,,,,,,,,,,,,,,,,,,,,,,,,,,,,001,175,2020_Feb_27_0951,spring_faces,3.1.5,60.01832803702495,
condition files/Stage1_2.xlsx,,T4,B4,m,"['c', 'm']","['Clue', 'Monopoly']","[-0.15, 0.5]","[0.15, 0.5]",1,1,,,,,,,,,0,5,5,5,0,5,5,7,,,,,,,,,,,,,,,,,,,,,,,,,,,,,,,,,,,,,,,,,,,,,,,,,,,,,,,598.8389672310004,None,598.8389672310004,None,598.8389672310004,None,c,0,0.8160385870005484,600.3730941430003,None,600.3730941430003,None,600.3730941430003,None,601.2408576140006,None,601.2408576140006,None,601.2408576140006,None,601.2408576140006,None,,,,,,,,,,,,,,,,,,,,,,,,,,,,,,,,,,,,,,,,,,,,001,175,2020_Feb_27_0951,spring_faces,3.1.5,60.01832803702495,
condition files/Stage1_2.xlsx,,T1,B2,m,"['c', 'm']","['Clue', 'Monopoly']","[-0.15, 0.5]","[0.15, 0.5]",1,1,,,,,,,,,0,5,5,5,0,6,6,2,,,,,,,,,,,,,,,,,,,,,,,,,,,,,,,,,,,,,,,,,,,,,,,,,,,,,,,603.2056284970004,None,603.2056284970004,None,603.2056284970004,None,c,0,1.35941132500011,604.7417385190001,None,604.7417385190001,None,604.7417385190001,None,606.1564667390003,None,606.1564667390003,None,606.1564667390003,None,606.1564667390003,None,,,,,,,,,,,,,,,,,,,,,,,,,,,,,,,,,,,,,,,,,,,,001,175,2020_Feb_27_0951,spring_faces,3.1.5,60.01832803702495,
condition files/Stage1_2.xlsx,,B1,T1,c,"['c', 'm']","['Clue', 'Monopoly']","[-0.15, 0.5]","[0.15, 0.5]",1,1,,,,,,,,,0,5,5,5,0,7,7,0,,,,,,,,,,,,,,,,,,,,,,,,,,,,,,,,,,,,,,,,,,,,,,,,,,,,,,,608.1226189440004,None,608.1226189440004,None,608.1226189440004,None,c,1,0.6524659460001203,609.6566995200001,None,609.6566995200001,None,609.6566995200001,None,610.3730415890004,None,610.3730415890004,None,610.3730415890004,None,610.3730415890004,None,,,,,,,,,,,,,,,,,,,,,,,,,,,,,,,,,,,,,,,,,,,,001,175,2020_Feb_27_0951,spring_faces,3.1.5,60.01832803702495,
condition files/Stage1_1.xlsx,,T2,B2,m,"['c', 'm']","['Clue', 'Monopoly']","[-0.15, 0.5]","[0.15, 0.5]",1,1,,,,,,,,,0,6,6,6,0,0,0,3,,,,,,,,,,,,,,,,,,,,,,,,,,,,,,,,,,,,,,,,,,,,,,,,,,,,,,,612.3561731280006,None,612.3561731280006,None,612.3561731280006,None,m,1,0.6744596489998003,613.8907864780003,None,613.8907864780003,None,613.8907864780003,None,614.6247843840001,None,614.6247843840001,None,614.6247843840001,None,614.6247843840001,None,,,,,,,,,,,,,,,,,,,,,,,,,,,,,,,,,,,,,,,,,,,,001,175,2020_Feb_27_0951,spring_faces,3.1.5,60.01832803702495,
condition files/Stage1_1.xlsx,,T4,B3,m,"['c', 'm']","['Clue', 'Monopoly']","[-0.15, 0.5]","[0.15, 0.5]",1,1,,,,,,,,,0,6,6,6,0,1,1,6,,,,,,,,,,,,,,,,,,,,,,,,,,,,,,,,,,,,,,,,,,,,,,,,,,,,,,,616.5895742780003,None,616.5895742780003,None,616.5895742780003,None,m,1,2.922067476999473,618.1231192580008,None,618.1231192580008,None,618.1231192580008,None,621.1068031479999,None,621.1068031479999,None,621.1068031479999,None,621.1068031479999,None,,,,,,,,,,,,,,,,,,,,,,,,,,,,,,,,,,,,,,,,,,,,001,175,2020_Feb_27_0951,spring_faces,3.1.5,60.01832803702495,
condition files/Stage1_1.xlsx,,B2,T1,m,"['c', 'm']","['Clue', 'Monopoly']","[-0.15, 0.5]","[0.15, 0.5]",1,1,,,,,,,,,0,6,6,6,0,2,2,2,,,,,,,,,,,,,,,,,,,,,,,,,,,,,,,,,,,,,,,,,,,,,,,,,,,,,,,623.0728815380007,None,623.0728815380007,None,623.0728815380007,None,c,0,3.397900599999957,624.6072556620002,None,624.6072556620002,None,624.6072556620002,None,628.0564744160001,None,628.0564744160001,None,628.0564744160001,None,628.0564744160001,None,,,,,,,,,,,,,,,,,,,,,,,,,,,,,,,,,,,,,,,,,,,,001,175,2020_Feb_27_0951,spring_faces,3.1.5,60.01832803702495,
condition files/Stage1_1.xlsx,,T3,B4,c,"['c', 'm']","['Clue', 'Monopoly']","[-0.15, 0.5]","[0.15, 0.5]",1,1,,,,,,,,,0,6,6,6,0,3,3,5,,,,,,,,,,,,,,,,,,,,,,,,,,,,,,,,,,,,,,,,,,,,,,,,,,,,,,,630.0229664960007,None,630.0229664960007,None,630.0229664960007,None,m,0,2.8496408680002787,631.5555632190008,None,631.5555632190008,None,631.5555632190008,None,634.4730054810007,None,634.4730054810007,None,634.4730054810007,None,634.4730054810007,None,,,,,,,,,,,,,,,,,,,,,,,,,,,,,,,,,,,,,,,,,,,,001,175,2020_Feb_27_0951,spring_faces,3.1.5,60.01832803702495,
condition files/Stage1_1.xlsx,,B3,T3,c,"['c', 'm']","['Clue', 'Monopoly']","[-0.15, 0.5]","[0.15, 0.5]",1,1,,,,,,,,,0,6,6,6,0,4,4,4,,,,,,,,,,,,,,,,,,,,,,,,,,,,,,,,,,,,,,,,,,,,,,,,,,,,,,,636.4228841419999,None,636.4228841419999,None,636.4228841419999,None,c,1,2.5910270730000775,637.9581425330007,None,637.9581425330007,None,637.9581425330007,None,640.6061246170002,None,640.6061246170002,None,640.6061246170002,None,640.6061246170002,None,,,,,,,,,,,,,,,,,,,,,,,,,,,,,,,,,,,,,,,,,,,,001,175,2020_Feb_27_0951,spring_faces,3.1.5,60.01832803702495,
condition files/Stage1_1.xlsx,,B4,T4,m,"['c', 'm']","['Clue', 'Monopoly']","[-0.15, 0.5]","[0.15, 0.5]",1,1,,,,,,,,,0,6,6,6,0,5,5,7,,,,,,,,,,,,,,,,,,,,,,,,,,,,,,,,,,,,,,,,,,,,,,,,,,,,,,,642.5725439560001,None,642.5725439560001,None,642.5725439560001,None,c,0,1.2110231870001371,644.1060842500001,None,644.1060842500001,None,644.1060842500001,None,645.37451642,None,645.37451642,None,645.37451642,None,645.37451642,None,,,,,,,,,,,,,,,,,,,,,,,,,,,,,,,,,,,,,,,,,,,,001,175,2020_Feb_27_0951,spring_faces,3.1.5,60.01832803702495,
condition files/Stage1_1.xlsx,,B1,T2,c,"['c', 'm']","['Clue', 'Monopoly']","[-0.15, 0.5]","[0.15, 0.5]",1,1,,,,,,,,,0,6,6,6,0,6,6,1,,,,,,,,,,,,,,,,,,,,,,,,,,,,,,,,,,,,,,,,,,,,,,,,,,,,,,,647.3395428020003,None,647.3395428020003,None,647.3395428020003,None,m,0,2.9544866579999507,648.874735079,None,648.874735079,None,648.874735079,None,651.8905668750003,None,651.8905668750003,None,651.8905668750003,None,651.8905668750003,None,,,,,,,,,,,,,,,,,,,,,,,,,,,,,,,,,,,,,,,,,,,,001,175,2020_Feb_27_0951,spring_faces,3.1.5,60.01832803702495,
condition files/Stage1_1.xlsx,,T1,B1,c,"['c', 'm']","['Clue', 'Monopoly']","[-0.15, 0.5]","[0.15, 0.5]",1,1,,,,,,,,,0,6,6,6,0,7,7,0,,,,,,,,,,,,,,,,,,,,,,,,,,,,,,,,,,,,,,,,,,,,,,,,,,,,,,,653.8556448420004,None,653.8556448420004,None,653.8556448420004,None,m,0,7.413157050999871,655.392008715,None,655.392008715,None,655.392008715,None,662.8564336770005,None,662.8564336770005,None,662.8564336770005,None,662.8564336770005,None,,,,,,,,,,,,,,,,,,,,,,,,,,,,,,,,,,,,,,,,,,,,001,175,2020_Feb_27_0951,spring_faces,3.1.5,60.01832803702495,
condition files/Stage1_2.xlsx,,T3,B3,c,"['c', 'm']","['Clue', 'Monopoly']","[-0.15, 0.5]","[0.15, 0.5]",1,1,,,,,,,,,0,7,7,7,0,0,0,4,,,,,,,,,,,,,,,,,,,,,,,,,,,,,,,,,,,,,,,,,,,,,,,,,,,,,,,664.8396564499999,None,664.8396564499999,None,664.8396564499999,None,c,1,1.0874215490002825,666.3897371000003,None,666.3897371000003,None,666.3897371000003,None,667.5398406439999,None,667.5398406439999,None,667.5398406439999,None,667.5398406439999,None,,,,,,,,,,,,,,,,,,,,,,,,,,,,,,,,,,,,,,,,,,,,001,175,2020_Feb_27_0951,spring_faces,3.1.5,60.01832803702495,
condition files/Stage1_2.xlsx,,B2,T2,m,"['c', 'm']","['Clue', 'Monopoly']","[-0.15, 0.5]","[0.15, 0.5]",1,1,,,,,,,,,0,7,7,7,0,1,1,3,,,,,,,,,,,,,,,,,,,,,,,,,,,,,,,,,,,,,,,,,,,,,,,,,,,,,,,669.5061876690006,None,669.5061876690006,None,669.5061876690006,None,m,1,1.637704775000202,671.0394734440006,None,671.0394734440006,None,671.0394734440006,None,672.756294367,None,672.756294367,None,672.756294367,None,672.756294367,None,,,,,,,,,,,,,,,,,,,,,,,,,,,,,,,,,,,,,,,,,,,,001,175,2020_Feb_27_0951,spring_faces,3.1.5,60.01832803702495,
condition files/Stage1_2.xlsx,,B4,T3,c,"['c', 'm']","['Clue', 'Monopoly']","[-0.15, 0.5]","[0.15, 0.5]",1,1,,,,,,,,,0,7,7,7,0,2,2,5,,,,,,,,,,,,,,,,,,,,,,,,,,,,,,,,,,,,,,,,,,,,,,,,,,,,,,,674.7061495850003,None,674.7061495850003,None,674.7061495850003,None,c,1,3.621887037000306,676.2392777840005,None,676.2392777840005,None,676.2392777840005,None,679.925842531,None,679.925842531,None,679.925842531,None,679.925842531,None,,,,,,,,,,,,,,,,,,,,,,,,,,,,,,,,,,,,,,,,,,,,001,175,2020_Feb_27_0951,spring_faces,3.1.5,60.01832803702495,
condition files/Stage1_2.xlsx,,T2,B1,c,"['c', 'm']","['Clue', 'Monopoly']","[-0.15, 0.5]","[0.15, 0.5]",1,1,,,,,,,,,0,7,7,7,0,3,3,1,,,,,,,,,,,,,,,,,,,,,,,,,,,,,,,,,,,,,,,,,,,,,,,,,,,,,,,681.8895529199999,None,681.8895529199999,None,681.8895529199999,None,c,1,1.635893481000494,683.425277022,None,683.425277022,None,683.425277022,None,685.1229293200004,None,685.1229293200004,None,685.1229293200004,None,685.1229293200004,None,,,,,,,,,,,,,,,,,,,,,,,,,,,,,,,,,,,,,,,,,,,,001,175,2020_Feb_27_0951,spring_faces,3.1.5,60.01832803702495,
condition files/Stage1_2.xlsx,,B3,T4,m,"['c', 'm']","['Clue', 'Monopoly']","[-0.15, 0.5]","[0.15, 0.5]",1,1,,,,,,,,,0,7,7,7,0,4,4,6,,,,,,,,,,,,,,,,,,,,,,,,,,,,,,,,,,,,,,,,,,,,,,,,,,,,,,,687.089487059,None,687.089487059,None,687.089487059,None,m,1,2.2139643730006355,688.6231946830003,None,688.6231946830003,None,688.6231946830003,None,690.8906088680005,None,690.8906088680005,None,690.8906088680005,None,690.8906088680005,None,,,,,,,,,,,,,,,,,,,,,,,,,,,,,,,,,,,,,,,,,,,,001,175,2020_Feb_27_0951,spring_faces,3.1.5,60.01832803702495,
condition files/Stage1_2.xlsx,,B1,T1,c,"['c', 'm']","['Clue', 'Monopoly']","[-0.15, 0.5]","[0.15, 0.5]",1,1,,,,,,,,,0,7,7,7,0,5,5,0,,,,,,,,,,,,,,,,,,,,,,,,,,,,,,,,,,,,,,,,,,,,,,,,,,,,,,,692.856275616,None,692.856275616,None,692.856275616,None,c,1,0.9752651349999724,694.3899579640001,None,694.3899579640001,None,694.3899579640001,None,695.4247686360004,None,695.4247686360004,None,695.4247686360004,None,695.4247686360004,None,,,,,,,,,,,,,,,,,,,,,,,,,,,,,,,,,,,,,,,,,,,,001,175,2020_Feb_27_0951,spring_faces,3.1.5,60.01832803702495,
condition files/Stage1_2.xlsx,,T1,B2,m,"['c', 'm']","['Clue', 'Monopoly']","[-0.15, 0.5]","[0.15, 0.5]",1,1,,,,,,,,,0,7,7,7,0,6,6,2,,,,,,,,,,,,,,,,,,,,,,,,,,,,,,,,,,,,,,,,,,,,,,,,,,,,,,,697.3889157550002,None,697.3889157550002,None,697.3889157550002,None,m,1,0.920074612999997,698.9250834630002,None,698.9250834630002,None,698.9250834630002,None,699.9230319180006,None,699.9230319180006,None,699.9230319180006,None,699.9230319180006,None,,,,,,,,,,,,,,,,,,,,,,,,,,,,,,,,,,,,,,,,,,,,001,175,2020_Feb_27_0951,spring_faces,3.1.5,60.01832803702495,
condition files/Stage1_2.xlsx,,T4,B4,m,"['c', 'm']","['Clue', 'Monopoly']","[-0.15, 0.5]","[0.15, 0.5]",1,1,,,,,,,,,0,7,7,7,0,7,7,7,,,,,,,,,,,,,,,,,,,,,,,,,,,,,,,,,,,,,,,,,,,,,,,,,,,,,,,701.8728416820004,None,701.8728416820004,None,701.8728416820004,None,m,1,2.1019540340003005,703.4072092229999,None,703.4072092229999,None,703.4072092229999,None,705.5732469330005,None,705.5732469330005,None,705.5732469330005,None,705.5732469330005,None,,,,,,,,,,,,,,,,,,,,,,,,,,,,,,,,,,,,,,,,,,,,001,175,2020_Feb_27_0951,spring_faces,3.1.5,60.01832803702495,
condition files/Stage1_1.xlsx,,T2,B2,m,"['c', 'm']","['Clue', 'Monopoly']","[-0.15, 0.5]","[0.15, 0.5]",1,1,,,,,,,,,0,8,8,8,0,0,0,3,,,,,,,,,,,,,,,,,,,,,,,,,,,,,,,,,,,,,,,,,,,,,,,,,,,,,,,707.5563584020001,None,707.5563584020001,None,707.5563584020001,None,m,1,2.323772978999841,709.0894551260008,None,709.0894551260008,None,709.0894551260008,None,711.4728739940001,None,711.4728739940001,None,711.4728739940001,None,711.4728739940001,None,,,,,,,,,,,,,,,,,,,,,,,,,,,,,,,,,,,,,,,,,,,,001,175,2020_Feb_27_0951,spring_faces,3.1.5,60.01832803702495,
condition files/Stage1_1.xlsx,,T1,B1,c,"['c', 'm']","['Clue', 'Monopoly']","[-0.15, 0.5]","[0.15, 0.5]",1,1,,,,,,,,,0,8,8,8,0,1,1,0,,,,,,,,,,,,,,,,,,,,,,,,,,,,,,,,,,,,,,,,,,,,,,,,,,,,,,,713.4389306270004,None,713.4389306270004,None,713.4389306270004,None,c,1,4.9836142190006285,714.973491838,None,714.973491838,None,714.973491838,None,720.0238088140004,None,720.0238088140004,None,720.0238088140004,None,720.0238088140004,None,,,,,,,,,,,,,,,,,,,,,,,,,,,,,,,,,,,,,,,,,,,,001,175,2020_Feb_27_0951,spring_faces,3.1.5,60.01832803702495,
condition files/Stage1_1.xlsx,,B2,T1,m,"['c', 'm']","['Clue', 'Monopoly']","[-0.15, 0.5]","[0.15, 0.5]",1,1,,,,,,,,,0,8,8,8,0,2,2,2,,,,,,,,,,,,,,,,,,,,,,,,,,,,,,,,,,,,,,,,,,,,,,,,,,,,,,,721.9895767950002,None,721.9895767950002,None,721.9895767950002,None,m,1,4.034111148000193,723.5230247420004,None,723.5230247420004,None,723.5230247420004,None,727.6253307390007,None,727.6253307390007,None,727.6253307390007,None,727.6253307390007,None,,,,,,,,,,,,,,,,,,,,,,,,,,,,,,,,,,,,,,,,,,,,001,175,2020_Feb_27_0951,spring_faces,3.1.5,60.01832803702495,
condition files/Stage1_1.xlsx,,B3,T3,c,"['c', 'm']","['Clue', 'Monopoly']","[-0.15, 0.5]","[0.15, 0.5]",1,1,,,,,,,,,0,8,8,8,0,3,3,4,,,,,,,,,,,,,,,,,,,,,,,,,,,,,,,,,,,,,,,,,,,,,,,,,,,,,,,729.5899568120003,None,729.5899568120003,None,729.5899568120003,None,m,0,1.954479060000267,731.1226922420001,None,731.1226922420001,None,731.1226922420001,None,733.1406397810006,None,733.1406397810006,None,733.1406397810006,None,733.1406397810006,None,,,,,,,,,,,,,,,,,,,,,,,,,,,,,,,,,,,,,,,,,,,,001,175,2020_Feb_27_0951,spring_faces,3.1.5,60.01832803702495,
condition files/Stage1_1.xlsx,,T4,B3,m,"['c', 'm']","['Clue', 'Monopoly']","[-0.15, 0.5]","[0.15, 0.5]",1,1,,,,,,,,,0,8,8,8,0,4,4,6,,,,,,,,,,,,,,,,,,,,,,,,,,,,,,,,,,,,,,,,,,,,,,,,,,,,,,,735.1058148510001,None,735.1058148510001,None,735.1058148510001,None,c,0,2.020655624999563,736.6564940300004,None,736.6564940300004,None,736.6564940300004,None,738.7558708700008,None,738.7558708700008,None,738.7558708700008,None,738.7558708700008,None,,,,,,,,,,,,,,,,,,,,,,,,,,,,,,,,,,,,,,,,,,,,001,175,2020_Feb_27_0951,spring_faces,3.1.5,60.01832803702495,
condition files/Stage1_1.xlsx,,B4,T4,m,"['c', 'm']","['Clue', 'Monopoly']","[-0.15, 0.5]","[0.15, 0.5]",1,1,,,,,,,,,0,8,8,8,0,5,5,7,,,,,,,,,,,,,,,,,,,,,,,,,,,,,,,,,,,,,,,,,,,,,,,,,,,,,,,740.7061833110001,None,740.7061833110001,None,740.7061833110001,None,m,1,3.1738463680003406,742.2393757790005,None,742.2393757790005,None,742.2393757790005,None,745.473546837,None,745.473546837,None,745.473546837,None,745.473546837,None,,,,,,,,,,,,,,,,,,,,,,,,,,,,,,,,,,,,,,,,,,,,001,175,2020_Feb_27_0951,spring_faces,3.1.5,60.01832803702495,
condition files/Stage1_1.xlsx,,B1,T2,c,"['c', 'm']","['Clue', 'Monopoly']","[-0.15, 0.5]","[0.15, 0.5]",1,1,,,,,,,,,0,8,8,8,0,6,6,1,,,,,,,,,,,,,,,,,,,,,,,,,,,,,,,,,,,,,,,,,,,,,,,,,,,,,,,747.4389361740004,None,747.4389361740004,None,747.4389361740004,None,c,1,1.4320344360003219,748.9891068500001,None,748.9891068500001,None,748.9891068500001,None,750.4758000510001,None,750.4758000510001,None,750.4758000510001,None,750.4758000510001,None,,,,,,,,,,,,,,,,,,,,,,,,,,,,,,,,,,,,,,,,,,,,001,175,2020_Feb_27_0951,spring_faces,3.1.5,60.01832803702495,
condition files/Stage1_1.xlsx,,T3,B4,c,"['c', 'm']","['Clue', 'Monopoly']","[-0.15, 0.5]","[0.15, 0.5]",1,1,,,,,,,,,0,8,8,8,0,7,7,5,,,,,,,,,,,,,,,,,,,,,,,,,,,,,,,,,,,,,,,,,,,,,,,,,,,,,,,752.4396144090006,None,752.4396144090006,None,752.4396144090006,None,m,0,12.768476633999853,753.9726917010003,None,753.9726917010003,None,753.9726917010003,None,766.8067790940004,None,766.8067790940004,None,766.8067790940004,None,766.8067790940004,None,,,,,,,,,,,,,,,,,,,,,,,,,,,,,,,,,,,,,,,,,,,,001,175,2020_Feb_27_0951,spring_faces,3.1.5,60.01832803702495,
condition files/Stage1_2.xlsx,,T2,B1,c,"['c', 'm']","['Clue', 'Monopoly']","[-0.15, 0.5]","[0.15, 0.5]",1,1,,,,,,,,,0,9,9,9,0,0,0,1,,,,,,,,,,,,,,,,,,,,,,,,,,,,,,,,,,,,,,,,,,,,,,,,,,,,,,,768.7896919100003,None,768.7896919100003,None,768.7896919100003,None,c,1,1.298322442999961,770.3228339520001,None,770.3228339520001,None,770.3228339520001,None,771.6731116520004,None,771.6731116520004,None,771.6731116520004,None,771.6731116520004,None,,,,,,,,,,,,,,,,,,,,,,,,,,,,,,,,,,,,,,,,,,,,001,175,2020_Feb_27_0951,spring_faces,3.1.5,60.01832803702495,
condition files/Stage1_2.xlsx,,T1,B2,m,"['c', 'm']","['Clue', 'Monopoly']","[-0.15, 0.5]","[0.15, 0.5]",1,1,,,,,,,,,0,9,9,9,0,1,1,2,,,,,,,,,,,,,,,,,,,,,,,,,,,,,,,,,,,,,,,,,,,,,,,,,,,,,,,773.6392658270006,None,773.6392658270006,None,773.6392658270006,None,m,1,1.1042127350001465,775.1729630980008,None,775.1729630980008,None,775.1729630980008,None,776.3564694550005,None,776.3564694550005,None,776.3564694550005,None,776.3564694550005,None,,,,,,,,,,,,,,,,,,,,,,,,,,,,,,,,,,,,,,,,,,,,001,175,2020_Feb_27_0951,spring_faces,3.1.5,60.01832803702495,
condition files/Stage1_2.xlsx,,B3,T4,m,"['c', 'm']","['Clue', 'Monopoly']","[-0.15, 0.5]","[0.15, 0.5]",1,1,,,,,,,,,0,9,9,9,0,2,2,6,,,,,,,,,,,,,,,,,,,,,,,,,,,,,,,,,,,,,,,,,,,,,,,,,,,,,,,778.3063322940006,None,778.3063322940006,None,778.3063322940006,None,c,0,3.9084813259996736,779.8567226969999,None,779.8567226969999,None,779.8567226969999,None,783.8230503960003,None,783.8230503960003,None,783.8230503960003,None,783.8230503960003,None,,,,,,,,,,,,,,,,,,,,,,,,,,,,,,,,,,,,,,,,,,,,001,175,2020_Feb_27_0951,spring_faces,3.1.5,60.01832803702495,
condition files/Stage1_2.xlsx,,B1,T1,c,"['c', 'm']","['Clue', 'Monopoly']","[-0.15, 0.5]","[0.15, 0.5]",1,1,,,,,,,,,0,9,9,9,0,3,3,0,,,,,,,,,,,,,,,,,,,,,,,,,,,,,,,,,,,,,,,,,,,,,,,,,,,,,,,785.7895735990005,None,785.7895735990005,None,785.7895735990005,None,c,1,0.9860291630002394,787.3231418810001,None,787.3231418810001,None,787.3231418810001,None,788.3754737980007,None,788.3754737980007,None,788.3754737980007,None,788.3754737980007,None,,,,,,,,,,,,,,,,,,,,,,,,,,,,,,,,,,,,,,,,,,,,001,175,2020_Feb_27_0951,spring_faces,3.1.5,60.01832803702495,
condition files/Stage1_2.xlsx,,B4,T3,c,"['c', 'm']","['Clue', 'Monopoly']","[-0.15, 0.5]","[0.15, 0.5]",1,1,,,,,,,,,0,9,9,9,0,4,4,5,,,,,,,,,,,,,,,,,,,,,,,,,,,,,,,,,,,,,,,,,,,,,,,,,,,,,,,790.3394759850007,None,790.3394759850007,None,790.3394759850007,None,m,0,7.236534004000532,791.8726405980005,None,791.8726405980005,None,791.8726405980005,None,799.1726356600002,None,799.1726356600002,None,799.1726356600002,None,799.1726356600002,None,,,,,,,,,,,,,,,,,,,,,,,,,,,,,,,,,,,,,,,,,,,,001,175,2020_Feb_27_0951,spring_faces,3.1.5,60.01832803702495,
condition files/Stage1_2.xlsx,,B2,T2,m,"['c', 'm']","['Clue', 'Monopoly']","[-0.15, 0.5]","[0.15, 0.5]",1,1,,,,,,,,,0,9,9,9,0,5,5,3,,,,,,,,,,,,,,,,,,,,,,,,,,,,,,,,,,,,,,,,,,,,,,,,,,,,,,,801.1396329429999,None,801.1396329429999,None,801.1396329429999,None,m,1,1.6517943139997442,802.6732953569999,None,802.6732953569999,None,802.6732953569999,None,804.4065370280005,None,804.4065370280005,None,804.4065370280005,None,804.4065370280005,None,,,,,,,,,,,,,,,,,,,,,,,,,,,,,,,,,,,,,,,,,,,,001,175,2020_Feb_27_0951,spring_faces,3.1.5,60.01832803702495,
condition files/Stage1_2.xlsx,,T3,B3,c,"['c', 'm']","['Clue', 'Monopoly']","[-0.15, 0.5]","[0.15, 0.5]",1,1,,,,,,,,,0,9,9,9,0,6,6,4,,,,,,,,,,,,,,,,,,,,,,,,,,,,,,,,,,,,,,,,,,,,,,,,,,,,,,,806.356034984,None,806.356034984,None,806.356034984,None,c,1,1.5861392070000875,807.8910302510003,None,807.8910302510003,None,807.8910302510003,None,809.5397062130005,None,809.5397062130005,None,809.5397062130005,None,809.5397062130005,None,,,,,,,,,,,,,,,,,,,,,,,,,,,,,,,,,,,,,,,,,,,,001,175,2020_Feb_27_0951,spring_faces,3.1.5,60.01832803702495,
condition files/Stage1_2.xlsx,,T4,B4,m,"['c', 'm']","['Clue', 'Monopoly']","[-0.15, 0.5]","[0.15, 0.5]",1,1,,,,,,,,,0,9,9,9,0,7,7,7,,,,,,,,,,,,,,,,,,,,,,,,,,,,,,,,,,,,,,,,,,,,,,,,,,,,,,,811.5062294770005,None,811.5062294770005,None,811.5062294770005,None,m,1,0.8217297689998304,813.0394450210006,None,813.0394450210006,None,813.0394450210006,None,813.923186991,None,813.923186991,None,813.923186991,None,813.923186991,None,,,,,,,,,,,,,,,,,,,,,,,,,,,,,,,,,,,,,,,,,,,,001,175,2020_Feb_27_0951,spring_faces,3.1.5,60.01832803702495,
condition files/Stage1_1.xlsx,,T4,B3,m,"['c', 'm']","['Clue', 'Monopoly']","[-0.15, 0.5]","[0.15, 0.5]",1,1,,,,,,,,,0,10,10,10,0,0,0,6,,,,,,,,,,,,,,,,,,,,,,,,,,,,,,,,,,,,,,,,,,,,,,,,,,,,,,,815.9064463450004,None,815.9064463450004,None,815.9064463450004,None,c,0,1.7170699810003498,817.4400374740007,None,817.4400374740007,None,817.4400374740007,None,819.2232361510005,None,819.2232361510005,None,819.2232361510005,None,819.2232361510005,None,,,,,,,,,,,,,,,,,,,,,,,,,,,,,,,,,,,,,,,,,,,,001,175,2020_Feb_27_0951,spring_faces,3.1.5,60.01832803702495,
condition files/Stage1_1.xlsx,,T1,B1,c,"['c', 'm']","['Clue', 'Monopoly']","[-0.15, 0.5]","[0.15, 0.5]",1,1,,,,,,,,,0,10,10,10,0,1,1,0,,,,,,,,,,,,,,,,,,,,,,,,,,,,,,,,,,,,,,,,,,,,,,,,,,,,,,,821.1895351800003,None,821.1895351800003,None,821.1895351800003,None,c,1,6.52996604800046,822.7231590460005,None,822.7231590460005,None,822.7231590460005,None,829.3057555330006,None,829.3057555330006,None,829.3057555330006,None,829.3057555330006,None,,,,,,,,,,,,,,,,,,,,,,,,,,,,,,,,,,,,,,,,,,,,001,175,2020_Feb_27_0951,spring_faces,3.1.5,60.01832803702495,
condition files/Stage1_1.xlsx,,B4,T4,m,"['c', 'm']","['Clue', 'Monopoly']","[-0.15, 0.5]","[0.15, 0.5]",1,1,,,,,,,,,0,10,10,10,0,2,2,7,,,,,,,,,,,,,,,,,,,,,,,,,,,,,,,,,,,,,,,,,,,,,,,,,,,,,,,831.2726544010002,None,831.2726544010002,None,831.2726544010002,None,m,1,1.5346288299997468,832.8065036490007,None,832.8065036490007,None,832.8065036490007,None,834.4059764230005,None,834.4059764230005,None,834.4059764230005,None,834.4059764230005,None,,,,,,,,,,,,,,,,,,,,,,,,,,,,,,,,,,,,,,,,,,,,001,175,2020_Feb_27_0951,spring_faces,3.1.5,60.01832803702495,
condition files/Stage1_1.xlsx,,T3,B4,c,"['c', 'm']","['Clue', 'Monopoly']","[-0.15, 0.5]","[0.15, 0.5]",1,1,,,,,,,,,0,10,10,10,0,3,3,5,,,,,,,,,,,,,,,,,,,,,,,,,,,,,,,,,,,,,,,,,,,,,,,,,,,,,,,836.3726327680006,None,836.3726327680006,None,836.3726327680006,None,c,1,4.6905523369996445,837.9226535830003,None,837.9226535830003,None,837.9226535830003,None,842.6737475330001,None,842.6737475330001,None,842.6737475330001,None,842.6737475330001,None,,,,,,,,,,,,,,,,,,,,,,,,,,,,,,,,,,,,,,,,,,,,001,175,2020_Feb_27_0951,spring_faces,3.1.5,60.01832803702495,
condition files/Stage1_1.xlsx,,B3,T3,c,"['c', 'm']","['Clue', 'Monopoly']","[-0.15, 0.5]","[0.15, 0.5]",1,1,,,,,,,,,0,10,10,10,0,4,4,4,,,,,,,,,,,,,,,,,,,,,,,,,,,,,,,,,,,,,,,,,,,,,,,,,,,,,,,844.6389583600003,None,844.6389583600003,None,844.6389583600003,None,c,1,1.591074574999766,846.190136227,None,846.190136227,None,846.190136227,None,847.8392690170003,None,847.8392690170003,None,847.8392690170003,None,847.8392690170003,None,,,,,,,,,,,,,,,,,,,,,,,,,,,,,,,,,,,,,,,,,,,,001,175,2020_Feb_27_0951,spring_faces,3.1.5,60.01832803702495,
condition files/Stage1_1.xlsx,,T2,B2,m,"['c', 'm']","['Clue', 'Monopoly']","[-0.15, 0.5]","[0.15, 0.5]",1,1,,,,,,,,,0,10,10,10,0,5,5,3,,,,,,,,,,,,,,,,,,,,,,,,,,,,,,,,,,,,,,,,,,,,,,,,,,,,,,,849.8063627420006,None,849.8063627420006,None,849.8063627420006,None,m,1,8.472767460000796,851.3564381120004,None,851.3564381120004,None,851.3564381120004,None,859.8893921610006,None,859.8893921610006,None,859.8893921610006,None,859.8893921610006,None,,,,,,,,,,,,,,,,,,,,,,,,,,,,,,,,,,,,,,,,,,,,001,175,2020_Feb_27_0951,spring_faces,3.1.5,60.01832803702495,
condition files/Stage1_1.xlsx,,B1,T2,c,"['c', 'm']","['Clue', 'Monopoly']","[-0.15, 0.5]","[0.15, 0.5]",1,1,,,,,,,,,0,10,10,10,0,6,6,1,,,,,,,,,,,,,,,,,,,,,,,,,,,,,,,,,,,,,,,,,,,,,,,,,,,,,,,861.8562644379999,None,861.8562644379999,None,861.8562644379999,None,c,1,0.6789474030001657,863.4061789140005,None,863.4061789140005,None,863.4061789140005,None,864.1565090680006,None,864.1565090680006,None,864.1565090680006,None,864.1565090680006,None,,,,,,,,,,,,,,,,,,,,,,,,,,,,,,,,,,,,,,,,,,,,001,175,2020_Feb_27_0951,spring_faces,3.1.5,60.01832803702495,
condition files/Stage1_1.xlsx,,B2,T1,m,"['c', 'm']","['Clue', 'Monopoly']","[-0.15, 0.5]","[0.15, 0.5]",1,1,,,,,,,,,0,10,10,10,0,7,7,2,,,,,,,,,,,,,,,,,,,,,,,,,,,,,,,,,,,,,,,,,,,,,,,,,,,,,,,866.1062880660002,None,866.1062880660002,None,866.1062880660002,None,m,1,7.580656089000513,867.6564901340007,None,867.6564901340007,None,867.6564901340007,None,875.290551989,None,875.290551989,None,875.290551989,None,875.290551989,None,,,,,,,,,,,,,,,,,,,,,,,,,,,,,,,,,,,,,,,,,,,,001,175,2020_Feb_27_0951,spring_faces,3.1.5,60.01832803702495,
condition files/Stage1_2.xlsx,,T3,B3,c,"['c', 'm']","['Clue', 'Monopoly']","[-0.15, 0.5]","[0.15, 0.5]",1,1,,,,,,,,,0,11,11,11,0,0,0,4,,,,,,,,,,,,,,,,,,,,,,,,,,,,,,,,,,,,,,,,,,,,,,,,,,,,,,,877.2733827120001,None,877.2733827120001,None,877.2733827120001,None,c,1,3.3886856640001497,878.8085499340004,None,878.8085499340004,None,878.8085499340004,None,882.2729091440006,None,882.2729091440006,None,882.2729091440006,None,882.2729091440006,None,,,,,,,,,,,,,,,,,,,,,,,,,,,,,,,,,,,,,,,,,,,,001,175,2020_Feb_27_0951,spring_faces,3.1.5,60.01832803702495,
condition files/Stage1_2.xlsx,,B2,T2,m,"['c', 'm']","['Clue', 'Monopoly']","[-0.15, 0.5]","[0.15, 0.5]",1,1,,,,,,,,,0,11,11,11,0,1,1,3,,,,,,,,,,,,,,,,,,,,,,,,,,,,,,,,,,,,,,,,,,,,,,,,,,,,,,,884.2228201850003,None,884.2228201850003,None,884.2228201850003,None,m,1,0.7609243220003918,885.7562478830005,None,885.7562478830005,None,885.7562478830005,None,886.5745332420001,None,886.5745332420001,None,886.5745332420001,None,886.5745332420001,None,,,,,,,,,,,,,,,,,,,,,,,,,,,,,,,,,,,,,,,,,,,,001,175,2020_Feb_27_0951,spring_faces,3.1.5,60.01832803702495,
condition files/Stage1_2.xlsx,,B4,T3,c,"['c', 'm']","['Clue', 'Monopoly']","[-0.15, 0.5]","[0.15, 0.5]",1,1,,,,,,,,,0,11,11,11,0,2,2,5,,,,,,,,,,,,,,,,,,,,,,,,,,,,,,,,,,,,,,,,,,,,,,,,,,,,,,,888.5395831390006,None,888.5395831390006,None,888.5395831390006,None,c,1,1.7879183289996945,890.0732671610003,None,890.0732671610003,None,890.0732671610003,None,891.9250702790005,None,891.9250702790005,None,891.9250702790005,None,891.9250702790005,None,,,,,,,,,,,,,,,,,,,,,,,,,,,,,,,,,,,,,,,,,,,,001,175,2020_Feb_27_0951,spring_faces,3.1.5,60.01832803702495,
condition files/Stage1_2.xlsx,,T4,B4,m,"['c', 'm']","['Clue', 'Monopoly']","[-0.15, 0.5]","[0.15, 0.5]",1,1,,,,,,,,,0,11,11,11,0,3,3,7,,,,,,,,,,,,,,,,,,,,,,,,,,,,,,,,,,,,,,,,,,,,,,,,,,,,,,,893.8895682040002,None,893.8895682040002,None,893.8895682040002,None,m,1,1.9103807530000267,895.4228533760006,None,895.4228533760006,None,895.4228533760006,None,897.3895762230004,None,897.3895762230004,None,897.3895762230004,None,897.3895762230004,None,,,,,,,,,,,,,,,,,,,,,,,,,,,,,,,,,,,,,,,,,,,,001,175,2020_Feb_27_0951,spring_faces,3.1.5,60.01832803702495,
condition files/Stage1_2.xlsx,,B3,T4,m,"['c', 'm']","['Clue', 'Monopoly']","[-0.15, 0.5]","[0.15, 0.5]",1,1,,,,,,,,,0,11,11,11,0,4,4,6,,,,,,,,,,,,,,,,,,,,,,,,,,,,,,,,,,,,,,,,,,,,,,,,,,,,,,,899.3562211210001,None,899.3562211210001,None,899.3562211210001,None,m,1,1.1790591500002847,900.8901074989999,None,900.8901074989999,None,900.8901074989999,None,902.1232007409999,None,902.1232007409999,None,902.1232007409999,None,902.1232007409999,None,,,,,,,,,,,,,,,,,,,,,,,,,,,,,,,,,,,,,,,,,,,,001,175,2020_Feb_27_0951,spring_faces,3.1.5,60.01832803702495,
condition files/Stage1_2.xlsx,,T2,B1,c,"['c', 'm']","['Clue', 'Monopoly']","[-0.15, 0.5]","[0.15, 0.5]",1,1,,,,,,,,,0,11,11,11,0,5,5,1,,,,,,,,,,,,,,,,,,,,,,,,,,,,,,,,,,,,,,,,,,,,,,,,,,,,,,,904.0897104750002,None,904.0897104750002,None,904.0897104750002,None,c,1,0.7168945859993983,905.6242733970003,None,905.6242733970003,None,905.6242733970003,None,906.4090371980001,None,906.4090371980001,None,906.4090371980001,None,906.4090371980001,None,,,,,,,,,,,,,,,,,,,,,,,,,,,,,,,,,,,,,,,,,,,,001,175,2020_Feb_27_0951,spring_faces,3.1.5,60.01832803702495,
condition files/Stage1_2.xlsx,,B1,T1,c,"['c', 'm']","['Clue', 'Monopoly']","[-0.15, 0.5]","[0.15, 0.5]",1,1,,,,,,,,,0,11,11,11,0,6,6,0,,,,,,,,,,,,,,,,,,,,,,,,,,,,,,,,,,,,,,,,,,,,,,,,,,,,,,,908.3723215650007,None,908.3723215650007,None,908.3723215650007,None,c,1,0.6093546080001033,909.9077709020003,None,909.9077709020003,None,909.9077709020003,None,910.5729281710001,None,910.5729281710001,None,910.5729281710001,None,910.5729281710001,None,,,,,,,,,,,,,,,,,,,,,,,,,,,,,,,,,,,,,,,,,,,,001,175,2020_Feb_27_0951,spring_faces,3.1.5,60.01832803702495,
condition files/Stage1_2.xlsx,,T1,B2,m,"['c', 'm']","['Clue', 'Monopoly']","[-0.15, 0.5]","[0.15, 0.5]",1,1,,,,,,,,,0,11,11,11,0,7,7,2,,,,,,,,,,,,,,,,,,,,,,,,,,,,,,,,,,,,,,,,,,,,,,,,,,,,,,,912.5394839180008,None,912.5394839180008,None,912.5394839180008,None,m,1,0.7631807859997934,914.0900598240005,None,914.0900598240005,None,914.0900598240005,None,914.9073417190002,None,914.9073417190002,None,914.9073417190002,None,914.9073417190002,None,,,,,,,,,,,,,,,,,,,,,,,,,,,,,,,,,,,,,,,,,,,,001,175,2020_Feb_27_0951,spring_faces,3.1.5,60.01832803702495,
,,,,,,,,,,,,,,,,,,,,,,,,,,,,,,,,,,,,,,,,,,,,,,,,,,,,,,,,,,,,,,,,,,,,,,,,,,,,,,,,,,,,,,,,,,,,,,,,,,,,,,,,,,,,,,,,916.8895610240006,None,space,6.291602588999922,921.8896271920003,None,,,,,,,,,,,,,,,,,,,,,,,,,,,,,,001,175,2020_Feb_27_0951,spring_faces,3.1.5,60.01832803702495,
condition files/Stage2_1.xlsx,,T3,B3,s,"['s', 'r']","['Stratego', 'Risk']","[-0.15, 0.5]","[0.15, 0.5]",1,1,,,,,,,,,,,,,,,,,0,0,0,0,0,0,0,4,,,,,,,,,,,,,,,,,,,,,,,,,,,,,,,,,,,,,,,,,,,,,,,928.2902040950003,None,928.2902040950003,None,928.2902040950003,None,s,1,1.176668965999852,929.7565534579999,None,929.7565534579999,None,929.7565534579999,None,930.9921494130003,None,930.9921494130003,None,930.9921494130003,None,930.9921494130003,None,,,,,,,,,,,,,,,921.8896271920003,None,,,,,,,,,,,,,,,,,,,,,,,,,,,,001,175,2020_Feb_27_0951,spring_faces,3.1.5,60.01832803702495,
condition files/Stage2_1.xlsx,,B6,T6,r,"['s', 'r']","['Stratego', 'Risk']","[-0.15, 0.5]","[0.15, 0.5]",1,1,,,,,,,,,,,,,,,,,0,0,0,0,0,1,1,1,,,,,,,,,,,,,,,,,,,,,,,,,,,,,,,,,,,,,,,,,,,,,,,932.9559325670007,None,932.9559325670007,None,932.9559325670007,None,r,1,1.0166027429995665,934.5565171369999,None,934.5565171369999,None,934.5565171369999,None,935.6419566230006,None,935.6419566230006,None,935.6419566230006,None,935.6419566230006,None,,,,,,,,,,,,,,,,,,,,,,,,,,,,,,,,,,,,,,,,,,,,001,175,2020_Feb_27_0951,spring_faces,3.1.5,60.01832803702495,
condition files/Stage2_1.xlsx,,B2,T2,r,"['s', 'r']","['Stratego', 'Risk']","[-0.15, 0.5]","[0.15, 0.5]",1,1,,,,,,,,,,,,,,,,,0,0,0,0,0,2,2,3,,,,,,,,,,,,,,,,,,,,,,,,,,,,,,,,,,,,,,,,,,,,,,,937.6062285690005,None,937.6062285690005,None,937.6062285690005,None,s,0,0.9443433789992923,939.1407802590002,None,939.1407802590002,None,939.1407802590002,None,940.139361388,None,940.139361388,None,940.139361388,None,940.139361388,None,,,,,,,,,,,,,,,,,,,,,,,,,,,,,,,,,,,,,,,,,,,,001,175,2020_Feb_27_0951,spring_faces,3.1.5,60.01832803702495,
condition files/Stage2_1.xlsx,,B4,T4,r,"['s', 'r']","['Stratego', 'Risk']","[-0.15, 0.5]","[0.15, 0.5]",1,1,,,,,,,,,,,,,,,,,0,0,0,0,0,3,3,5,,,,,,,,,,,,,,,,,,,,,,,,,,,,,,,,,,,,,,,,,,,,,,,942.1057752330007,None,942.1057752330007,None,942.1057752330007,None,r,1,1.021016495999902,943.6401700900005,None,943.6401700900005,None,943.6401700900005,None,944.7229502240007,None,944.7229502240007,None,944.7229502240007,None,944.7229502240007,None,,,,,,,,,,,,,,,,,,,,,,,,,,,,,,,,,,,,,,,,,,,,001,175,2020_Feb_27_0951,spring_faces,3.1.5,60.01832803702495,
condition files/Stage2_1.xlsx,,T5,B5,s,"['s', 'r']","['Stratego', 'Risk']","[-0.15, 0.5]","[0.15, 0.5]",1,1,,,,,,,,,,,,,,,,,0,0,0,0,0,4,4,0,,,,,,,,,,,,,,,,,,,,,,,,,,,,,,,,,,,,,,,,,,,,,,,946.689530359,None,946.689530359,None,946.689530359,None,r,0,1.7807222729998102,948.2725330180001,None,948.2725330180001,None,948.2725330180001,None,950.1068436989999,None,950.1068436989999,None,950.1068436989999,None,950.1068436989999,None,,,,,,,,,,,,,,,,,,,,,,,,,,,,,,,,,,,,,,,,,,,,001,175,2020_Feb_27_0951,spring_faces,3.1.5,60.01832803702495,
condition files/Stage2_1.xlsx,,T1,B1,s,"['s', 'r']","['Stratego', 'Risk']","[-0.15, 0.5]","[0.15, 0.5]",1,1,,,,,,,,,,,,,,,,,0,0,0,0,0,5,5,2,,,,,,,,,,,,,,,,,,,,,,,,,,,,,,,,,,,,,,,,,,,,,,,952.0728411590007,None,952.0728411590007,None,952.0728411590007,None,r,0,2.079610546999902,953.605540865,None,953.605540865,None,953.605540865,None,955.7393992350007,None,955.7393992350007,None,955.7393992350007,None,955.7393992350007,None,,,,,,,,,,,,,,,,,,,,,,,,,,,,,,,,,,,,,,,,,,,,001,175,2020_Feb_27_0951,spring_faces,3.1.5,60.01832803702495,
condition files/Stage2_2.xlsx,,T4,B4,r,"['s', 'r']","['Stratego', 'Risk']","[-0.15, 0.5]","[0.15, 0.5]",1,1,,,,,,,,,,,,,,,,,0,1,1,1,0,0,0,5,,,,,,,,,,,,,,,,,,,,,,,,,,,,,,,,,,,,,,,,,,,,,,,957.7731347080007,None,957.7731347080007,None,957.7731347080007,None,r,1,0.6846917900002154,959.2564882780007,None,959.2564882780007,None,959.2564882780007,None,960.0233432430005,None,960.0233432430005,None,960.0233432430005,None,960.0233432430005,None,,,,,,,,,,,,,,,,,,,,,,,,,,,,,,,,,,,,,,,,,,,,001,175,2020_Feb_27_0951,spring_faces,3.1.5,60.01832803702495,
condition files/Stage2_2.xlsx,,B5,T5,s,"['s', 'r']","['Stratego', 'Risk']","[-0.15, 0.5]","[0.15, 0.5]",1,1,,,,,,,,,,,,,,,,,0,1,1,1,0,1,1,0,,,,,,,,,,,,,,,,,,,,,,,,,,,,,,,,,,,,,,,,,,,,,,,961.9729990220003,None,961.9729990220003,None,961.9729990220003,None,s,1,0.7228035150001233,963.5064270190005,None,963.5064270190005,None,963.5064270190005,None,964.2894059800001,None,964.2894059800001,None,964.2894059800001,None,964.2894059800001,None,,,,,,,,,,,,,,,,,,,,,,,,,,,,,,,,,,,,,,,,,,,,001,175,2020_Feb_27_0951,spring_faces,3.1.5,60.01832803702495,
condition files/Stage2_2.xlsx,,T6,B6,r,"['s', 'r']","['Stratego', 'Risk']","[-0.15, 0.5]","[0.15, 0.5]",1,1,,,,,,,,,,,,,,,,,0,1,1,1,0,2,2,1,,,,,,,,,,,,,,,,,,,,,,,,,,,,,,,,,,,,,,,,,,,,,,,966.2558011370002,None,966.2558011370002,None,966.2558011370002,None,s,0,1.079627776000052,967.789536882,None,967.789536882,None,967.789536882,None,968.9229823169999,None,968.9229823169999,None,968.9229823169999,None,968.9229823169999,None,,,,,,,,,,,,,,,,,,,,,,,,,,,,,,,,,,,,,,,,,,,,001,175,2020_Feb_27_0951,spring_faces,3.1.5,60.01832803702495,
condition files/Stage2_2.xlsx,,B1,T1,s,"['s', 'r']","['Stratego', 'Risk']","[-0.15, 0.5]","[0.15, 0.5]",1,1,,,,,,,,,,,,,,,,,0,1,1,1,0,3,3,2,,,,,,,,,,,,,,,,,,,,,,,,,,,,,,,,,,,,,,,,,,,,,,,970.8896327480006,None,970.8896327480006,None,970.8896327480006,None,r,0,1.357596714000465,972.4236337090006,None,972.4236337090006,None,972.4236337090006,None,973.8561985920005,None,973.8561985920005,None,973.8561985920005,None,973.8561985920005,None,,,,,,,,,,,,,,,,,,,,,,,,,,,,,,,,,,,,,,,,,,,,001,175,2020_Feb_27_0951,spring_faces,3.1.5,60.01832803702495,
condition files/Stage2_2.xlsx,,T2,B2,r,"['s', 'r']","['Stratego', 'Risk']","[-0.15, 0.5]","[0.15, 0.5]",1,1,,,,,,,,,,,,,,,,,0,1,1,1,0,4,4,3,,,,,,,,,,,,,,,,,,,,,,,,,,,,,,,,,,,,,,,,,,,,,,,975.8058508260001,None,975.8058508260001,None,975.8058508260001,None,r,1,1.096634838000682,977.3565085850005,None,977.3565085850005,None,977.3565085850005,None,978.5232810510006,None,978.5232810510006,None,978.5232810510006,None,978.5232810510006,None,,,,,,,,,,,,,,,,,,,,,,,,,,,,,,,,,,,,,,,,,,,,001,175,2020_Feb_27_0951,spring_faces,3.1.5,60.01832803702495,
condition files/Stage2_2.xlsx,,B3,T3,s,"['s', 'r']","['Stratego', 'Risk']","[-0.15, 0.5]","[0.15, 0.5]",1,1,,,,,,,,,,,,,,,,,0,1,1,1,0,5,5,4,,,,,,,,,,,,,,,,,,,,,,,,,,,,,,,,,,,,,,,,,,,,,,,980.4722953190003,None,980.4722953190003,None,980.4722953190003,None,s,1,1.2783466010005213,982.0067770670003,None,982.0067770670003,None,982.0067770670003,None,983.356437204,None,983.356437204,None,983.356437204,None,983.356437204,None,,,,,,,,,,,,,,,,,,,,,,,,,,,,,,,,,,,,,,,,,,,,001,175,2020_Feb_27_0951,spring_faces,3.1.5,60.01832803702495,
condition files/Stage2_1.xlsx,,T3,B3,s,"['s', 'r']","['Stratego', 'Risk']","[-0.15, 0.5]","[0.15, 0.5]",1,1,,,,,,,,,,,,,,,,,0,2,2,2,0,0,0,4,,,,,,,,,,,,,,,,,,,,,,,,,,,,,,,,,,,,,,,,,,,,,,,985.3230923000001,None,985.3230923000001,None,985.3230923000001,None,s,1,2.540689745999771,986.8725319620007,None,986.8725319620007,None,986.8725319620007,None,989.4732800450001,None,989.4732800450001,None,989.4732800450001,None,989.4732800450001,None,,,,,,,,,,,,,,,,,,,,,,,,,,,,,,,,,,,,,,,,,,,,001,175,2020_Feb_27_0951,spring_faces,3.1.5,60.01832803702495,
condition files/Stage2_1.xlsx,,B2,T2,r,"['s', 'r']","['Stratego', 'Risk']","[-0.15, 0.5]","[0.15, 0.5]",1,1,,,,,,,,,,,,,,,,,0,2,2,2,0,1,1,3,,,,,,,,,,,,,,,,,,,,,,,,,,,,,,,,,,,,,,,,,,,,,,,991.4387762160004,None,991.4387762160004,None,991.4387762160004,None,r,1,1.0784506310001234,992.9746866260002,None,992.9746866260002,None,992.9746866260002,None,994.1233279710004,None,994.1233279710004,None,994.1233279710004,None,994.1233279710004,None,,,,,,,,,,,,,,,,,,,,,,,,,,,,,,,,,,,,,,,,,,,,001,175,2020_Feb_27_0951,spring_faces,3.1.5,60.01832803702495,
condition files/Stage2_1.xlsx,,B6,T6,r,"['s', 'r']","['Stratego', 'Risk']","[-0.15, 0.5]","[0.15, 0.5]",1,1,,,,,,,,,,,,,,,,,0,2,2,2,0,2,2,1,,,,,,,,,,,,,,,,,,,,,,,,,,,,,,,,,,,,,,,,,,,,,,,996.0721909869999,None,996.0721909869999,None,996.0721909869999,None,r,1,1.3252464670003974,997.6080019950004,None,997.6080019950004,None,997.6080019950004,None,998.9899920950002,None,998.9899920950002,None,998.9899920950002,None,998.9899920950002,None,,,,,,,,,,,,,,,,,,,,,,,,,,,,,,,,,,,,,,,,,,,,001,175,2020_Feb_27_0951,spring_faces,3.1.5,60.01832803702495,
condition files/Stage2_1.xlsx,,B4,T4,r,"['s', 'r']","['Stratego', 'Risk']","[-0.15, 0.5]","[0.15, 0.5]",1,1,,,,,,,,,,,,,,,,,0,2,2,2,0,3,3,5,,,,,,,,,,,,,,,,,,,,,,,,,,,,,,,,,,,,,,,,,,,,,,,1000.956236301,None,1000.956236301,None,1000.956236301,None,r,1,0.907142826999916,1002.4900848080006,None,1002.4900848080006,None,1002.4900848080006,None,1003.4562823550004,None,1003.4562823550004,None,1003.4562823550004,None,1003.4562823550004,None,,,,,,,,,,,,,,,,,,,,,,,,,,,,,,,,,,,,,,,,,,,,001,175,2020_Feb_27_0951,spring_faces,3.1.5,60.01832803702495,
condition files/Stage2_1.xlsx,,T5,B5,s,"['s', 'r']","['Stratego', 'Risk']","[-0.15, 0.5]","[0.15, 0.5]",1,1,,,,,,,,,,,,,,,,,0,2,2,2,0,4,4,0,,,,,,,,,,,,,,,,,,,,,,,,,,,,,,,,,,,,,,,,,,,,,,,1005.4228457680001,None,1005.4228457680001,None,1005.4228457680001,None,r,0,0.7753715849994478,1006.9578459080003,None,1006.9578459080003,None,1006.9578459080003,None,1007.8063939820004,None,1007.8063939820004,None,1007.8063939820004,None,1007.8063939820004,None,,,,,,,,,,,,,,,,,,,,,,,,,,,,,,,,,,,,,,,,,,,,001,175,2020_Feb_27_0951,spring_faces,3.1.5,60.01832803702495,
condition files/Stage2_1.xlsx,,T1,B1,s,"['s', 'r']","['Stratego', 'Risk']","[-0.15, 0.5]","[0.15, 0.5]",1,1,,,,,,,,,,,,,,,,,0,2,2,2,0,5,5,2,,,,,,,,,,,,,,,,,,,,,,,,,,,,,,,,,,,,,,,,,,,,,,,1009.7562633320003,None,1009.7562633320003,None,1009.7562633320003,None,s,1,1.4982762370000273,1011.2908808050006,None,1011.2908808050006,None,1011.2908808050006,None,1012.8401293010002,None,1012.8401293010002,None,1012.8401293010002,None,1012.8401293010002,None,,,,,,,,,,,,,,,,,,,,,,,,,,,,,,,,,,,,,,,,,,,,001,175,2020_Feb_27_0951,spring_faces,3.1.5,60.01832803702495,
condition files/Stage2_2.xlsx,,T6,B6,r,"['s', 'r']","['Stratego', 'Risk']","[-0.15, 0.5]","[0.15, 0.5]",1,1,,,,,,,,,,,,,,,,,0,3,3,3,0,0,0,1,,,,,,,,,,,,,,,,,,,,,,,,,,,,,,,,,,,,,,,,,,,,,,,1014.8230762030007,None,1014.8230762030007,None,1014.8230762030007,None,r,1,1.248466987000029,1016.3567028920006,None,1016.3567028920006,None,1016.3567028920006,None,1017.6574622600001,None,1017.6574622600001,None,1017.6574622600001,None,1017.6574622600001,None,,,,,,,,,,,,,,,,,,,,,,,,,,,,,,,,,,,,,,,,,,,,001,175,2020_Feb_27_0951,spring_faces,3.1.5,60.01832803702495,
condition files/Stage2_2.xlsx,,B3,T3,s,"['s', 'r']","['Stratego', 'Risk']","[-0.15, 0.5]","[0.15, 0.5]",1,1,,,,,,,,,,,,,,,,,0,3,3,3,0,1,1,4,,,,,,,,,,,,,,,,,,,,,,,,,,,,,,,,,,,,,,,,,,,,,,,1019.622283105,None,1019.622283105,None,1019.622283105,None,r,0,1.6005678479996277,1021.1565668480007,None,1021.1565668480007,None,1021.1565668480007,None,1022.8223326750003,None,1022.8223326750003,None,1022.8223326750003,None,1022.8223326750003,None,,,,,,,,,,,,,,,,,,,,,,,,,,,,,,,,,,,,,,,,,,,,001,175,2020_Feb_27_0951,spring_faces,3.1.5,60.01832803702495,
condition files/Stage2_2.xlsx,,B5,T5,s,"['s', 'r']","['Stratego', 'Risk']","[-0.15, 0.5]","[0.15, 0.5]",1,1,,,,,,,,,,,,,,,,,0,3,3,3,0,2,2,0,,,,,,,,,,,,,,,,,,,,,,,,,,,,,,,,,,,,,,,,,,,,,,,1024.7892399400007,None,1024.7892399400007,None,1024.7892399400007,None,r,0,0.9127725150001424,1026.3243948830004,None,1026.3243948830004,None,1026.3243948830004,None,1027.2897894430007,None,1027.2897894430007,None,1027.2897894430007,None,1027.2897894430007,None,,,,,,,,,,,,,,,,,,,,,,,,,,,,,,,,,,,,,,,,,,,,001,175,2020_Feb_27_0951,spring_faces,3.1.5,60.01832803702495,
condition files/Stage2_2.xlsx,,T2,B2,r,"['s', 'r']","['Stratego', 'Risk']","[-0.15, 0.5]","[0.15, 0.5]",1,1,,,,,,,,,,,,,,,,,0,3,3,3,0,3,3,3,,,,,,,,,,,,,,,,,,,,,,,,,,,,,,,,,,,,,,,,,,,,,,,1029.255665304,None,1029.255665304,None,1029.255665304,None,s,0,0.43074296200029494,1030.8064090340004,None,1030.8064090340004,None,1030.8064090340004,None,1031.3061310480007,None,1031.3061310480007,None,1031.3061310480007,None,1031.3061310480007,None,,,,,,,,,,,,,,,,,,,,,,,,,,,,,,,,,,,,,,,,,,,,001,175,2020_Feb_27_0951,spring_faces,3.1.5,60.01832803702495,
condition files/Stage2_2.xlsx,,B1,T1,s,"['s', 'r']","['Stratego', 'Risk']","[-0.15, 0.5]","[0.15, 0.5]",1,1,,,,,,,,,,,,,,,,,0,3,3,3,0,4,4,2,,,,,,,,,,,,,,,,,,,,,,,,,,,,,,,,,,,,,,,,,,,,,,,1033.2557112920003,None,1033.2557112920003,None,1033.2557112920003,None,r,0,0.3010634949996529,1034.792110427,None,1034.792110427,None,1034.792110427,None,1035.1576239980004,None,1035.1576239980004,None,1035.1576239980004,None,1035.1576239980004,None,,,,,,,,,,,,,,,,,,,,,,,,,,,,,,,,,,,,,,,,,,,,001,175,2020_Feb_27_0951,spring_faces,3.1.5,60.01832803702495,
condition files/Stage2_2.xlsx,,T4,B4,r,"['s', 'r']","['Stratego', 'Risk']","[-0.15, 0.5]","[0.15, 0.5]",1,1,,,,,,,,,,,,,,,,,0,3,3,3,0,5,5,5,,,,,,,,,,,,,,,,,,,,,,,,,,,,,,,,,,,,,,,,,,,,,,,1037.122867565,None,1037.122867565,None,1037.122867565,None,s,0,3.7811865419998867,1038.6559656059999,None,1038.6559656059999,None,1038.6559656059999,None,1042.4910718300007,None,1042.4910718300007,None,1042.4910718300007,None,1042.4910718300007,None,,,,,,,,,,,,,,,,,,,,,,,,,,,,,,,,,,,,,,,,,,,,001,175,2020_Feb_27_0951,spring_faces,3.1.5,60.01832803702495,
condition files/Stage2_1.xlsx,,T5,B5,s,"['s', 'r']","['Stratego', 'Risk']","[-0.15, 0.5]","[0.15, 0.5]",1,1,,,,,,,,,,,,,,,,,0,4,4,4,0,0,0,0,,,,,,,,,,,,,,,,,,,,,,,,,,,,,,,,,,,,,,,,,,,,,,,1044.4732212080007,None,1044.4732212080007,None,1044.4732212080007,None,r,0,5.102244580999468,1046.006942891,None,1046.006942891,None,1046.006942891,None,1051.1892404140008,None,1051.1892404140008,None,1051.1892404140008,None,1051.1892404140008,None,,,,,,,,,,,,,,,,,,,,,,,,,,,,,,,,,,,,,,,,,,,,001,175,2020_Feb_27_0951,spring_faces,3.1.5,60.01832803702495,
condition files/Stage2_1.xlsx,,T3,B3,s,"['s', 'r']","['Stratego', 'Risk']","[-0.15, 0.5]","[0.15, 0.5]",1,1,,,,,,,,,,,,,,,,,0,4,4,4,0,1,1,4,,,,,,,,,,,,,,,,,,,,,,,,,,,,,,,,,,,,,,,,,,,,,,,1053.1394641060006,None,1053.1394641060006,None,1053.1394641060006,None,r,0,0.9321020679999492,1054.689047297,None,1054.689047297,None,1054.689047297,None,1055.6727856530006,None,1055.6727856530006,None,1055.6727856530006,None,1055.6727856530006,None,,,,,,,,,,,,,,,,,,,,,,,,,,,,,,,,,,,,,,,,,,,,001,175,2020_Feb_27_0951,spring_faces,3.1.5,60.01832803702495,
condition files/Stage2_1.xlsx,,B2,T2,r,"['s', 'r']","['Stratego', 'Risk']","[-0.15, 0.5]","[0.15, 0.5]",1,1,,,,,,,,,,,,,,,,,0,4,4,4,0,2,2,3,,,,,,,,,,,,,,,,,,,,,,,,,,,,,,,,,,,,,,,,,,,,,,,1057.6395545780006,None,1057.6395545780006,None,1057.6395545780006,None,r,1,1.1176456060002238,1059.1755235380006,None,1059.1755235380006,None,1059.1755235380006,None,1060.356547536,None,1060.356547536,None,1060.356547536,None,1060.356547536,None,,,,,,,,,,,,,,,,,,,,,,,,,,,,,,,,,,,,,,,,,,,,001,175,2020_Feb_27_0951,spring_faces,3.1.5,60.01832803702495,
condition files/Stage2_1.xlsx,,B6,T6,r,"['s', 'r']","['Stratego', 'Risk']","[-0.15, 0.5]","[0.15, 0.5]",1,1,,,,,,,,,,,,,,,,,0,4,4,4,0,3,3,1,,,,,,,,,,,,,,,,,,,,,,,,,,,,,,,,,,,,,,,,,,,,,,,1062.3228047820003,None,1062.3228047820003,None,1062.3228047820003,None,s,0,1.6684695760004615,1063.856660212,None,1063.856660212,None,1063.856660212,None,1065.5901659670008,None,1065.5901659670008,None,1065.5901659670008,None,1065.5901659670008,None,,,,,,,,,,,,,,,,,,,,,,,,,,,,,,,,,,,,,,,,,,,,001,175,2020_Feb_27_0951,spring_faces,3.1.5,60.01832803702495,
