condsFile,subStage,cue1,cue2,correct,responseKeys,responseNames,cue1Position,cue2Position,cue1Opacity,cue2Opacity,stageLoop0.thisRepN,stageLoop0.thisTrialN,stageLoop0.thisN,stageLoop0.thisIndex,blockLoop0.thisRepN,blockLoop0.thisTrialN,blockLoop0.thisN,blockLoop0.thisIndex,stage1Loop.thisRepN,stage1Loop.thisTrialN,stage1Loop.thisN,stage1Loop.thisIndex,blockLoop1.thisRepN,blockLoop1.thisTrialN,blockLoop1.thisN,blockLoop1.thisIndex,stage2Loop.thisRepN,stage2Loop.thisTrialN,stage2Loop.thisN,stage2Loop.thisIndex,blockLoop2.thisRepN,blockLoop2.thisTrialN,blockLoop2.thisN,blockLoop2.thisIndex,testLoop.thisRepN,testLoop.thisTrialN,testLoop.thisN,testLoop.thisIndex,blockLoopTest.thisRepN,blockLoopTest.thisTrialN,blockLoopTest.thisN,blockLoopTest.thisIndex,cuePics,id_instr_text.started,id_instr_text.stopped,space_to_continue_2.started,space_to_continue_2.stopped,end_instructions_resp_3.keys,end_instructions_resp_3.rt,end_instructions_resp_3.started,end_instructions_resp_3.stopped,id_input_instr.started,id_input_instr.stopped,id_input_rect.started,id_input_rect.stopped,id_input_resp.keys,id_input_resp.rt,id_input_resp.started,id_input_resp.stopped,sonaID,id_input_text.started,id_input_text.stopped,final_text.started,final_text.stopped,instructions.started,instructions.stopped,end_instructions_resp.keys,end_instructions_resp.rt,end_instructions_resp.started,end_instructions_resp.stopped,space_to_continue.started,space_to_continue.stopped,instructions_stage0.started,instructions_stage0.stopped,end_instructions_resp_stage0.keys,end_instructions_resp_stage0.rt,end_instructions_resp_stage0.started,end_instructions_resp_stage0.stopped,space_to_continue_stage0.started,space_to_continue_stage0.stopped,text.started,text.stopped,resp_text1.started,resp_text1.stopped,resp_text2.started,resp_text2.stopped,trial_resp.keys,trial_resp.corr,trial_resp.rt,trial_resp.started,trial_resp.stopped,cue1Image.started,cue1Image.stopped,cue2Image.started,cue2Image.stopped,cue1Image_fb.started,cue1Image_fb.stopped,cue2Image_fb.started,cue2Image_fb.stopped,fb_text_answer.started,fb_text_answer.stopped,feedback_image.started,feedback_image.stopped,instructions_stage1.started,instructions_stage1.stopped,end_instructions_resp_stage1.keys,end_instructions_resp_stage1.rt,end_instructions_resp_stage1.started,end_instructions_resp_stage1.stopped,space_to_continue_stage1.started,space_to_continue_stage1.stopped,instructions_2.started,instructions_2.stopped,end_instructions_resp_2.keys,end_instructions_resp_2.rt,end_instructions_resp_2.started,end_instructions_resp_2.stopped,press_space_to_continue_stage2.started,press_space_to_continue_stage2.stopped,instructions_testStage1.started,instructions_testStage1.stopped,end_instructions_resp_test1.keys,end_instructions_resp_test1.rt,end_instructions_resp_test1.started,end_instructions_resp_test1.stopped,press_space_to_continue_test1.started,press_space_to_continue_test1.stopped,cue1Image_testChoice.started,cue1Image_testChoice.stopped,cue2Image_testChoice.started,cue2Image_testChoice.stopped,test_resp.keys,test_resp.corr,test_resp.rt,test_resp.started,test_resp.stopped,cue1Image_testConf.started,cue1Image_testConf.stopped,cue2Image_testConf.started,cue2Image_testConf.stopped,conf_reminder.started,conf_reminder.stopped,conf_rating.response,conf_rating.rt,conf_rating.started,conf_rating.stopped,session,participant,date,expName,psychopyVersion,frameRate,
,,,,,,,,,,,,,,,,,,,,,,,,,,,,,,,,,,,,,,,,,,,"{'none': 'pictures/20M_AN_C.png', 'alpha': 'pictures/SHINEd_pear.png', 'beta': 'pictures/SHINEd_melon.png', 'theta': 'pictures/SHINEd_pepper.png', 'phi': 'pictures/SHINEd_apple.png', 'T1': 'pictures/33M_AN_C.png', 'T2': 'pictures/37M_AN_C.png', 'T3': 'pictures/23M_AN_C.png', 'T4': 'pictures/38M_AN_C.png', 'T5': 'pictures/22M_AN_C.png', 'T6': 'pictures/32M_AN_C.png', 'B1': 'pictures/20M_NE_C.png', 'B2': 'pictures/36M_NE_C.png', 'B3': 'pictures/31M_NE_C.png', 'B4': 'pictures/25M_NE_C.png', 'B5': 'pictures/34M_NE_C.png', 'B6': 'pictures/26M_NE_C.png'}",10.278121078000368,None,15.277293990000544,None,space,65.38870785900053,15.277293990000544,None,,,,,,,,,,,,,,,,,,,,,,,,,,,,,,,,,,,,,,,,,,,,,,,,,,,,,,,,,,,,,,,,,,,,,,,,,,,,,,,,,,,,,,,,,,,,,,,,001,178,2020_Feb_27_1036,spring_faces,3.1.5,60.01210660257003,
,,,,,,,,,,,,,,,,,,,,,,,,,,,,,,,,,,,,,,,,,,,,,,,,,,,,81.04392999300035,None,81.04392999300035,None,"['0', '4', '2', '5', 'k', 'a', 'w', 'a', 's']","[18.038086432000455, 19.46207689000039, 21.12610408599994, 21.71804467000038, 25.41408126799979, 25.718033619999915, 31.814084718999766, 32.27804128600019, 32.59809125100037]",81.04392999300035,None,,,,,,,,,,,,,,,,,,,,,,,,,,,,,,,,,,,,,,,,,,,,,,,,,,,,,,,,,,,,,,,,,,,,,,,,,,,,,,,,,,,,,,,,001,178,2020_Feb_27_1036,spring_faces,3.1.5,60.01210660257003,
,,,,,,,,,,,,,,,,,,,,,,,,,,,,,,,,,,,,,,,,,,,,,,,,,,,,,,,,,,,,0425kawas,81.04392999300035,None,81.04392999300035,None,118.71062881800026,None,space,1.1314900609995675,123.71053074000065,None,,,,,,,,,,,,,,,,,,,,,,,,,,,,,,,,,,,,,,,,,,,,,,,,,,,,,,,,,,,,,,,,,,,,,,,,,,,,,001,178,2020_Feb_27_1036,spring_faces,3.1.5,60.01210660257003,
,,,,,,,,,,,,,,,,,,,,,,,,,,,,,,,,,,,,,,,,,,,,,,,,,,,,,,,,,,,,,,,,,,,,,,,123.71053074000065,None,124.8774458480002,None,space,5.973000343000422,129.8771096420005,None,,,,,,,,,,,,,,,,,,,,,,,,,,,,,,,,,,,,,,,,,,,,,,,,,,,,,,,,,,,,,,,,,,,,,001,178,2020_Feb_27_1036,spring_faces,3.1.5,60.01210660257003,
condition files/Stage0a.xlsx,0a,beta,none,g,"['h', 'g']","['Chess', 'Go']","[0, 0.5]","[0, 0]",1,0,0,0,0,0,0,0,0,1,,,,,,,,,,,,,,,,,,,,,,,,,,,,,,,,,,,,,,,,,,,,,,,,,,,,,,,,,,,,,129.8771096420005,None,135.9109442580002,None,135.9109442580002,None,135.9109442580002,None,g,1,4.400462438999966,137.4815813310006,None,137.4815813310006,None,137.4815813310006,None,141.9607690010007,None,141.9607690010007,None,141.9607690010007,None,141.9607690010007,None,,,,,,,,,,,,,,,,,,,,,,,,,,,,,,,,,,,,,,,,,,,,001,178,2020_Feb_27_1036,spring_faces,3.1.5,60.01210660257003,
condition files/Stage0a.xlsx,0a,alpha,none,h,"['h', 'g']","['Chess', 'Go']","[0, 0.5]","[0, 0]",1,0,0,0,0,0,0,1,1,0,,,,,,,,,,,,,,,,,,,,,,,,,,,,,,,,,,,,,,,,,,,,,,,,,,,,,,,,,,,,,,,143.91056456800015,None,143.91056456800015,None,143.91056456800015,None,h,1,1.4286021970001457,145.46143226799995,None,145.46143226799995,None,145.46143226799995,None,146.94459024500065,None,146.94459024500065,None,146.94459024500065,None,146.94459024500065,None,,,,,,,,,,,,,,,,,,,,,,,,,,,,,,,,,,,,,,,,,,,,001,178,2020_Feb_27_1036,spring_faces,3.1.5,60.01210660257003,
condition files/Stage0a.xlsx,0a,beta,none,g,"['h', 'g']","['Chess', 'Go']","[0, 0.5]","[0, 0]",1,0,0,1,1,1,0,0,0,1,,,,,,,,,,,,,,,,,,,,,,,,,,,,,,,,,,,,,,,,,,,,,,,,,,,,,,,,,,,,,,,148.92730777799989,None,148.92730777799989,None,148.92730777799989,None,g,1,1.3252371130001848,150.46085175200005,None,150.46085175200005,None,150.46085175200005,None,151.84386515999995,None,151.84386515999995,None,151.84386515999995,None,151.84386515999995,None,,,,,,,,,,,,,,,,,,,,,,,,,,,,,,,,,,,,,,,,,,,,001,178,2020_Feb_27_1036,spring_faces,3.1.5,60.01210660257003,
condition files/Stage0a.xlsx,0a,alpha,none,h,"['h', 'g']","['Chess', 'Go']","[0, 0.5]","[0, 0]",1,0,0,1,1,1,0,1,1,0,,,,,,,,,,,,,,,,,,,,,,,,,,,,,,,,,,,,,,,,,,,,,,,,,,,,,,,,,,,,,,,153.81032076000065,None,153.81032076000065,None,153.81032076000065,None,h,1,1.9940397540003687,155.34406970600048,None,155.34406970600048,None,155.34406970600048,None,157.39392640300048,None,157.39392640300048,None,157.39392640300048,None,157.39392640300048,None,,,,,,,,,,,,,,,,,,,,,,,,,,,,,,,,,,,,,,,,,,,,001,178,2020_Feb_27_1036,spring_faces,3.1.5,60.01210660257003,
condition files/Stage0a.xlsx,0a,beta,none,g,"['h', 'g']","['Chess', 'Go']","[0, 0.5]","[0, 0]",1,0,0,2,2,2,0,0,0,1,,,,,,,,,,,,,,,,,,,,,,,,,,,,,,,,,,,,,,,,,,,,,,,,,,,,,,,,,,,,,,,159.37744143800046,None,159.37744143800046,None,159.37744143800046,None,g,1,0.6195346909998989,160.91048511000008,None,160.91048511000008,None,160.91048511000008,None,161.59410359899994,None,161.59410359899994,None,161.59410359899994,None,161.59410359899994,None,,,,,,,,,,,,,,,,,,,,,,,,,,,,,,,,,,,,,,,,,,,,001,178,2020_Feb_27_1036,spring_faces,3.1.5,60.01210660257003,
condition files/Stage0a.xlsx,0a,alpha,none,h,"['h', 'g']","['Chess', 'Go']","[0, 0.5]","[0, 0]",1,0,0,2,2,2,0,1,1,0,,,,,,,,,,,,,,,,,,,,,,,,,,,,,,,,,,,,,,,,,,,,,,,,,,,,,,,,,,,,,,,163.56039971100017,None,163.56039971100017,None,163.56039971100017,None,h,1,0.5640411619997394,165.093970033,None,165.093970033,None,165.093970033,None,165.71110726300049,None,165.71110726300049,None,165.71110726300049,None,165.71110726300049,None,,,,,,,,,,,,,,,,,,,,,,,,,,,,,,,,,,,,,,,,,,,,001,178,2020_Feb_27_1036,spring_faces,3.1.5,60.01210660257003,
condition files/Stage0a.xlsx,0a,alpha,none,h,"['h', 'g']","['Chess', 'Go']","[0, 0.5]","[0, 0]",1,0,0,3,3,3,0,0,0,0,,,,,,,,,,,,,,,,,,,,,,,,,,,,,,,,,,,,,,,,,,,,,,,,,,,,,,,,,,,,,,,167.69404115399993,None,167.69404115399993,None,167.69404115399993,None,h,1,1.407003874000111,169.22708440299994,None,169.22708440299994,None,169.22708440299994,None,170.6938151580007,None,170.6938151580007,None,170.6938151580007,None,170.6938151580007,None,,,,,,,,,,,,,,,,,,,,,,,,,,,,,,,,,,,,,,,,,,,,001,178,2020_Feb_27_1036,spring_faces,3.1.5,60.01210660257003,
condition files/Stage0a.xlsx,0a,beta,none,g,"['h', 'g']","['Chess', 'Go']","[0, 0.5]","[0, 0]",1,0,0,3,3,3,0,1,1,1,,,,,,,,,,,,,,,,,,,,,,,,,,,,,,,,,,,,,,,,,,,,,,,,,,,,,,,,,,,,,,,172.6604863749999,None,172.6604863749999,None,172.6604863749999,None,g,1,0.6642697429997497,174.19375019100062,None,174.19375019100062,None,174.19375019100062,None,174.9109642450003,None,174.9109642450003,None,174.9109642450003,None,174.9109642450003,None,,,,,,,,,,,,,,,,,,,,,,,,,,,,,,,,,,,,,,,,,,,,001,178,2020_Feb_27_1036,spring_faces,3.1.5,60.01210660257003,
condition files/Stage0a.xlsx,0a,beta,none,g,"['h', 'g']","['Chess', 'Go']","[0, 0.5]","[0, 0]",1,0,0,4,4,4,0,0,0,1,,,,,,,,,,,,,,,,,,,,,,,,,,,,,,,,,,,,,,,,,,,,,,,,,,,,,,,,,,,,,,,176.8935377730004,None,176.8935377730004,None,176.8935377730004,None,g,1,0.7986069010003121,178.4274137500006,None,178.4274137500006,None,178.4274137500006,None,179.27752863800015,None,179.27752863800015,None,179.27752863800015,None,179.27752863800015,None,,,,,,,,,,,,,,,,,,,,,,,,,,,,,,,,,,,,,,,,,,,,001,178,2020_Feb_27_1036,spring_faces,3.1.5,60.01210660257003,
condition files/Stage0a.xlsx,0a,alpha,none,h,"['h', 'g']","['Chess', 'Go']","[0, 0.5]","[0, 0]",1,0,0,4,4,4,0,1,1,0,,,,,,,,,,,,,,,,,,,,,,,,,,,,,,,,,,,,,,,,,,,,,,,,,,,,,,,,,,,,,,,181.2435274540003,None,181.2435274540003,None,181.2435274540003,None,h,1,0.6730224140001155,182.7769832820004,None,182.7769832820004,None,182.7769832820004,None,183.51075270300043,None,183.51075270300043,None,183.51075270300043,None,183.51075270300043,None,,,,,,,,,,,,,,,,,,,,,,,,,,,,,,,,,,,,,,,,,,,,001,178,2020_Feb_27_1036,spring_faces,3.1.5,60.01210660257003,
condition files/Stage0a.xlsx,0a,beta,none,g,"['h', 'g']","['Chess', 'Go']","[0, 0.5]","[0, 0]",1,0,0,5,5,5,0,0,0,1,,,,,,,,,,,,,,,,,,,,,,,,,,,,,,,,,,,,,,,,,,,,,,,,,,,,,,,,,,,,,,,185.49422181499995,None,185.49422181499995,None,185.49422181499995,None,g,1,0.8222225740000795,187.02783001199987,None,187.02783001199987,None,187.02783001199987,None,187.91090418300064,None,187.91090418300064,None,187.91090418300064,None,187.91090418300064,None,,,,,,,,,,,,,,,,,,,,,,,,,,,,,,,,,,,,,,,,,,,,001,178,2020_Feb_27_1036,spring_faces,3.1.5,60.01210660257003,
condition files/Stage0a.xlsx,0a,alpha,none,h,"['h', 'g']","['Chess', 'Go']","[0, 0.5]","[0, 0]",1,0,0,5,5,5,0,1,1,0,,,,,,,,,,,,,,,,,,,,,,,,,,,,,,,,,,,,,,,,,,,,,,,,,,,,,,,,,,,,,,,189.87707591300023,None,189.87707591300023,None,189.87707591300023,None,h,1,0.9357336499997473,191.41028114300025,None,191.41028114300025,None,191.41028114300025,None,192.4101339130002,None,192.4101339130002,None,192.4101339130002,None,192.4101339130002,None,,,,,,,,,,,,,,,,,,,,,,,,,,,,,,,,,,,,,,,,,,,,001,178,2020_Feb_27_1036,spring_faces,3.1.5,60.01210660257003,
condition files/Stage0b_1.xlsx,0b,none,beta,g,"['h', 'g']","['Chess', 'Go']","[-0.15, 0.5]","[0.15, 0.5]",0,1,0,6,6,6,0,0,0,1,,,,,,,,,,,,,,,,,,,,,,,,,,,,,,,,,,,,,,,,,,,,,,,,,,,,,,,,,,,,,,,194.3939088750003,None,194.3939088750003,None,194.3939088750003,None,g,1,1.522091378999903,195.94394061100047,None,195.94394061100047,None,195.94394061100047,None,197.54355606199988,None,197.54355606199988,None,197.54355606199988,None,197.54355606199988,None,,,,,,,,,,,,,,,,,,,,,,,,,,,,,,,,,,,,,,,,,,,,001,178,2020_Feb_27_1036,spring_faces,3.1.5,60.01210660257003,
condition files/Stage0b_1.xlsx,0b,alpha,none,h,"['h', 'g']","['Chess', 'Go']","[-0.15, 0.5]","[0.15, 0.5]",1,0,0,6,6,6,0,1,1,0,,,,,,,,,,,,,,,,,,,,,,,,,,,,,,,,,,,,,,,,,,,,,,,,,,,,,,,,,,,,,,,199.4938199369999,None,199.4938199369999,None,199.4938199369999,None,h,1,0.6729419049997887,201.03304986400053,None,201.03304986400053,None,201.03304986400053,None,201.76168049199987,None,201.76168049199987,None,201.76168049199987,None,201.76168049199987,None,,,,,,,,,,,,,,,,,,,,,,,,,,,,,,,,,,,,,,,,,,,,001,178,2020_Feb_27_1036,spring_faces,3.1.5,60.01210660257003,
condition files/Stage0b_2.xlsx,0b,beta,none,g,"['h', 'g']","['Chess', 'Go']","[-0.15, 0.5]","[0.15, 0.5]",1,0,0,7,7,7,0,0,0,1,,,,,,,,,,,,,,,,,,,,,,,,,,,,,,,,,,,,,,,,,,,,,,,,,,,,,,,,,,,,,,,203.7439425319999,None,203.7439425319999,None,203.7439425319999,None,g,1,0.7641764300005889,205.27784579900072,None,205.27784579900072,None,205.27784579900072,None,206.09448429900021,None,206.09448429900021,None,206.09448429900021,None,206.09448429900021,None,,,,,,,,,,,,,,,,,,,,,,,,,,,,,,,,,,,,,,,,,,,,001,178,2020_Feb_27_1036,spring_faces,3.1.5,60.01210660257003,
condition files/Stage0b_2.xlsx,0b,none,alpha,h,"['h', 'g']","['Chess', 'Go']","[-0.15, 0.5]","[0.15, 0.5]",0,1,0,7,7,7,0,1,1,0,,,,,,,,,,,,,,,,,,,,,,,,,,,,,,,,,,,,,,,,,,,,,,,,,,,,,,,,,,,,,,,208.06023950300005,None,208.06023950300005,None,208.06023950300005,None,h,1,0.842288513999847,209.59972649800056,None,209.59972649800056,None,209.59972649800056,None,210.5107340780005,None,210.5107340780005,None,210.5107340780005,None,210.5107340780005,None,,,,,,,,,,,,,,,,,,,,,,,,,,,,,,,,,,,,,,,,,,,,001,178,2020_Feb_27_1036,spring_faces,3.1.5,60.01210660257003,
condition files/Stage0b_1.xlsx,0b,alpha,none,h,"['h', 'g']","['Chess', 'Go']","[-0.15, 0.5]","[0.15, 0.5]",1,0,0,8,8,8,0,0,0,0,,,,,,,,,,,,,,,,,,,,,,,,,,,,,,,,,,,,,,,,,,,,,,,,,,,,,,,,,,,,,,,212.4775327820007,None,212.4775327820007,None,212.4775327820007,None,h,1,1.0843287600000622,214.01371503000064,None,214.01371503000064,None,214.01371503000064,None,215.1602640300007,None,215.1602640300007,None,215.1602640300007,None,215.1602640300007,None,,,,,,,,,,,,,,,,,,,,,,,,,,,,,,,,,,,,,,,,,,,,001,178,2020_Feb_27_1036,spring_faces,3.1.5,60.01210660257003,
condition files/Stage0b_1.xlsx,0b,none,beta,g,"['h', 'g']","['Chess', 'Go']","[-0.15, 0.5]","[0.15, 0.5]",0,1,0,8,8,8,0,1,1,1,,,,,,,,,,,,,,,,,,,,,,,,,,,,,,,,,,,,,,,,,,,,,,,,,,,,,,,,,,,,,,,217.1270442089999,None,217.1270442089999,None,217.1270442089999,None,g,1,0.517820027000198,218.66018496700053,None,218.66018496700053,None,218.66018496700053,None,219.24368811400018,None,219.24368811400018,None,219.24368811400018,None,219.24368811400018,None,,,,,,,,,,,,,,,,,,,,,,,,,,,,,,,,,,,,,,,,,,,,001,178,2020_Feb_27_1036,spring_faces,3.1.5,60.01210660257003,
condition files/Stage0b_2.xlsx,0b,none,alpha,h,"['h', 'g']","['Chess', 'Go']","[-0.15, 0.5]","[0.15, 0.5]",0,1,0,9,9,9,0,0,0,0,,,,,,,,,,,,,,,,,,,,,,,,,,,,,,,,,,,,,,,,,,,,,,,,,,,,,,,,,,,,,,,221.22676918100024,None,221.22676918100024,None,221.22676918100024,None,h,1,0.7056574059997729,222.76038700900062,None,222.76038700900062,None,222.76038700900062,None,223.5277110520001,None,223.5277110520001,None,223.5277110520001,None,223.5277110520001,None,,,,,,,,,,,,,,,,,,,,,,,,,,,,,,,,,,,,,,,,,,,,001,178,2020_Feb_27_1036,spring_faces,3.1.5,60.01210660257003,
condition files/Stage0b_2.xlsx,0b,beta,none,g,"['h', 'g']","['Chess', 'Go']","[-0.15, 0.5]","[0.15, 0.5]",1,0,0,9,9,9,0,1,1,1,,,,,,,,,,,,,,,,,,,,,,,,,,,,,,,,,,,,,,,,,,,,,,,,,,,,,,,,,,,,,,,225.49391685800038,None,225.49391685800038,None,225.49391685800038,None,g,1,0.9139088360007008,227.03209151600004,None,227.03209151600004,None,227.03209151600004,None,228.01670777400068,None,228.01670777400068,None,228.01670777400068,None,228.01670777400068,None,,,,,,,,,,,,,,,,,,,,,,,,,,,,,,,,,,,,,,,,,,,,001,178,2020_Feb_27_1036,spring_faces,3.1.5,60.01210660257003,
condition files/Stage0b_1.xlsx,0b,none,beta,g,"['h', 'g']","['Chess', 'Go']","[-0.15, 0.5]","[0.15, 0.5]",0,1,0,10,10,10,0,0,0,1,,,,,,,,,,,,,,,,,,,,,,,,,,,,,,,,,,,,,,,,,,,,,,,,,,,,,,,,,,,,,,,229.99410046000048,None,229.99410046000048,None,229.99410046000048,None,g,1,2.130427659999441,231.52760218300045,None,231.52760218300045,None,231.52760218300045,None,233.71056589900036,None,233.71056589900036,None,233.71056589900036,None,233.71056589900036,None,,,,,,,,,,,,,,,,,,,,,,,,,,,,,,,,,,,,,,,,,,,,001,178,2020_Feb_27_1036,spring_faces,3.1.5,60.01210660257003,
condition files/Stage0b_1.xlsx,0b,alpha,none,h,"['h', 'g']","['Chess', 'Go']","[-0.15, 0.5]","[0.15, 0.5]",1,0,0,10,10,10,0,1,1,0,,,,,,,,,,,,,,,,,,,,,,,,,,,,,,,,,,,,,,,,,,,,,,,,,,,,,,,,,,,,,,,235.67703865600015,None,235.67703865600015,None,235.67703865600015,None,h,1,0.5901351879992944,237.21196482200048,None,237.21196482200048,None,237.21196482200048,None,237.86107679799989,None,237.86107679799989,None,237.86107679799989,None,237.86107679799989,None,,,,,,,,,,,,,,,,,,,,,,,,,,,,,,,,,,,,,,,,,,,,001,178,2020_Feb_27_1036,spring_faces,3.1.5,60.01210660257003,
condition files/Stage0b_2.xlsx,0b,none,alpha,h,"['h', 'g']","['Chess', 'Go']","[-0.15, 0.5]","[0.15, 0.5]",0,1,0,11,11,11,0,0,0,0,,,,,,,,,,,,,,,,,,,,,,,,,,,,,,,,,,,,,,,,,,,,,,,,,,,,,,,,,,,,,,,239.843664516,None,239.843664516,None,239.843664516,None,h,1,0.7287956999998642,241.3772399590007,None,241.3772399590007,None,241.3772399590007,None,242.16080278700065,None,242.16080278700065,None,242.16080278700065,None,242.16080278700065,None,,,,,,,,,,,,,,,,,,,,,,,,,,,,,,,,,,,,,,,,,,,,001,178,2020_Feb_27_1036,spring_faces,3.1.5,60.01210660257003,
condition files/Stage0b_2.xlsx,0b,beta,none,g,"['h', 'g']","['Chess', 'Go']","[-0.15, 0.5]","[0.15, 0.5]",1,0,0,11,11,11,0,1,1,1,,,,,,,,,,,,,,,,,,,,,,,,,,,,,,,,,,,,,,,,,,,,,,,,,,,,,,,,,,,,,,,244.12707330500052,None,244.12707330500052,None,244.12707330500052,None,g,1,0.7807884250005372,245.66123533600057,None,245.66123533600057,None,245.66123533600057,None,246.4945411460003,None,246.4945411460003,None,246.4945411460003,None,246.4945411460003,None,,,,,,,,,,,,,,,,,,,,,,,,,,,,,,,,,,,,,,,,,,,,001,178,2020_Feb_27_1036,spring_faces,3.1.5,60.01210660257003,
condition files/Stage0c_1.xlsx,0c,phi,beta,g,"['h', 'g']","['Chess', 'Go']","[-0.15, 0.5]","[0.15, 0.5]",1,1,0,12,12,12,0,0,0,3,,,,,,,,,,,,,,,,,,,,,,,,,,,,,,,,,,,,,,,,,,,,,,,,,,,,,,,,,,,,,,,248.4774720080004,None,248.4774720080004,None,248.4774720080004,None,g,1,2.9110389609995764,250.01098480700057,None,250.01098480700057,None,250.01098480700057,None,252.97740190400054,None,252.97740190400054,None,252.97740190400054,None,252.97740190400054,None,,,,,,,,,,,,,,,,,,,,,,,,,,,,,,,,,,,,,,,,,,,,001,178,2020_Feb_27_1036,spring_faces,3.1.5,60.01210660257003,
condition files/Stage0c_1.xlsx,0c,beta,theta,g,"['h', 'g']","['Chess', 'Go']","[-0.15, 0.5]","[0.15, 0.5]",1,1,0,12,12,12,0,1,1,2,,,,,,,,,,,,,,,,,,,,,,,,,,,,,,,,,,,,,,,,,,,,,,,,,,,,,,,,,,,,,,,254.94357253100043,None,254.94357253100043,None,254.94357253100043,None,h,0,1.1643700510003328,256.47762703100034,None,256.47762703100034,None,256.47762703100034,None,257.69350322300033,None,257.69350322300033,None,257.69350322300033,None,257.69350322300033,None,,,,,,,,,,,,,,,,,,,,,,,,,,,,,,,,,,,,,,,,,,,,001,178,2020_Feb_27_1036,spring_faces,3.1.5,60.01210660257003,
condition files/Stage0c_1.xlsx,0c,alpha,phi,h,"['h', 'g']","['Chess', 'Go']","[-0.15, 0.5]","[0.15, 0.5]",1,1,0,12,12,12,0,2,2,1,,,,,,,,,,,,,,,,,,,,,,,,,,,,,,,,,,,,,,,,,,,,,,,,,,,,,,,,,,,,,,,259.6601320810005,None,259.6601320810005,None,259.6601320810005,None,h,1,1.3278347320001558,261.1941629460007,None,261.1941629460007,None,261.1941629460007,None,262.57732066100016,None,262.57732066100016,None,262.57732066100016,None,262.57732066100016,None,,,,,,,,,,,,,,,,,,,,,,,,,,,,,,,,,,,,,,,,,,,,001,178,2020_Feb_27_1036,spring_faces,3.1.5,60.01210660257003,
condition files/Stage0c_1.xlsx,0c,theta,alpha,h,"['h', 'g']","['Chess', 'Go']","[-0.15, 0.5]","[0.15, 0.5]",1,1,0,12,12,12,0,3,3,0,,,,,,,,,,,,,,,,,,,,,,,,,,,,,,,,,,,,,,,,,,,,,,,,,,,,,,,,,,,,,,,264.5439553080005,None,264.5439553080005,None,264.5439553080005,None,h,1,1.8848879469996973,266.07701778699993,None,266.07701778699993,None,266.07701778699993,None,268.0272413729999,None,268.0272413729999,None,268.0272413729999,None,268.0272413729999,None,,,,,,,,,,,,,,,,,,,,,,,,,,,,,,,,,,,,,,,,,,,,001,178,2020_Feb_27_1036,spring_faces,3.1.5,60.01210660257003,
condition files/Stage0c_2.xlsx,0c,theta,beta,g,"['h', 'g']","['Chess', 'Go']","[-0.15, 0.5]","[0.15, 0.5]",1,1,0,13,13,13,0,0,0,2,,,,,,,,,,,,,,,,,,,,,,,,,,,,,,,,,,,,,,,,,,,,,,,,,,,,,,,,,,,,,,,270.0108393360006,None,270.0108393360006,None,270.0108393360006,None,g,1,1.5700368500001787,271.5439921140005,None,271.5439921140005,None,271.5439921140005,None,273.1776105730005,None,273.1776105730005,None,273.1776105730005,None,273.1776105730005,None,,,,,,,,,,,,,,,,,,,,,,,,,,,,,,,,,,,,,,,,,,,,001,178,2020_Feb_27_1036,spring_faces,3.1.5,60.01210660257003,
condition files/Stage0c_2.xlsx,0c,phi,alpha,h,"['h', 'g']","['Chess', 'Go']","[-0.15, 0.5]","[0.15, 0.5]",1,1,0,13,13,13,0,1,1,1,,,,,,,,,,,,,,,,,,,,,,,,,,,,,,,,,,,,,,,,,,,,,,,,,,,,,,,,,,,,,,,275.14353267000024,None,275.14353267000024,None,275.14353267000024,None,h,1,1.0286134599991783,276.67739410300055,None,276.67739410300055,None,276.67739410300055,None,277.7604073170005,None,277.7604073170005,None,277.7604073170005,None,277.7604073170005,None,,,,,,,,,,,,,,,,,,,,,,,,,,,,,,,,,,,,,,,,,,,,001,178,2020_Feb_27_1036,spring_faces,3.1.5,60.01210660257003,
condition files/Stage0c_2.xlsx,0c,alpha,theta,h,"['h', 'g']","['Chess', 'Go']","[-0.15, 0.5]","[0.15, 0.5]",1,1,0,13,13,13,0,2,2,0,,,,,,,,,,,,,,,,,,,,,,,,,,,,,,,,,,,,,,,,,,,,,,,,,,,,,,,,,,,,,,,279.72671199900014,None,279.72671199900014,None,279.72671199900014,None,h,1,2.7972095359991727,281.2608035590001,None,281.2608035590001,None,281.2608035590001,None,284.09481618100017,None,284.09481618100017,None,284.09481618100017,None,284.09481618100017,None,,,,,,,,,,,,,,,,,,,,,,,,,,,,,,,,,,,,,,,,,,,,001,178,2020_Feb_27_1036,spring_faces,3.1.5,60.01210660257003,
condition files/Stage0c_2.xlsx,0c,beta,phi,g,"['h', 'g']","['Chess', 'Go']","[-0.15, 0.5]","[0.15, 0.5]",1,1,0,13,13,13,0,3,3,3,,,,,,,,,,,,,,,,,,,,,,,,,,,,,,,,,,,,,,,,,,,,,,,,,,,,,,,,,,,,,,,286.07738090900057,None,286.07738090900057,None,286.07738090900057,None,g,1,1.8394156569993356,287.61061052200057,None,287.61061052200057,None,287.61061052200057,None,289.5109548350001,None,289.5109548350001,None,289.5109548350001,None,289.5109548350001,None,,,,,,,,,,,,,,,,,,,,,,,,,,,,,,,,,,,,,,,,,,,,001,178,2020_Feb_27_1036,spring_faces,3.1.5,60.01210660257003,
condition files/Stage0c_1.xlsx,0c,beta,theta,g,"['h', 'g']","['Chess', 'Go']","[-0.15, 0.5]","[0.15, 0.5]",1,1,0,14,14,14,0,0,0,2,,,,,,,,,,,,,,,,,,,,,,,,,,,,,,,,,,,,,,,,,,,,,,,,,,,,,,,,,,,,,,,291.49415282300015,None,291.49415282300015,None,291.49415282300015,None,g,1,1.5911212709997926,293.0269709510003,None,293.0269709510003,None,293.0269709510003,None,294.6618834640003,None,294.6618834640003,None,294.6618834640003,None,294.6618834640003,None,,,,,,,,,,,,,,,,,,,,,,,,,,,,,,,,,,,,,,,,,,,,001,178,2020_Feb_27_1036,spring_faces,3.1.5,60.01210660257003,
condition files/Stage0c_1.xlsx,0c,theta,alpha,h,"['h', 'g']","['Chess', 'Go']","[-0.15, 0.5]","[0.15, 0.5]",1,1,0,14,14,14,0,1,1,0,,,,,,,,,,,,,,,,,,,,,,,,,,,,,,,,,,,,,,,,,,,,,,,,,,,,,,,,,,,,,,,296.6437523580007,None,296.6437523580007,None,296.6437523580007,None,h,1,1.464639860000716,298.1773755720005,None,298.1773755720005,None,298.1773755720005,None,299.69413751200045,None,299.69413751200045,None,299.69413751200045,None,299.69413751200045,None,,,,,,,,,,,,,,,,,,,,,,,,,,,,,,,,,,,,,,,,,,,,001,178,2020_Feb_27_1036,spring_faces,3.1.5,60.01210660257003,
condition files/Stage0c_1.xlsx,0c,alpha,phi,h,"['h', 'g']","['Chess', 'Go']","[-0.15, 0.5]","[0.15, 0.5]",1,1,0,14,14,14,0,2,2,1,,,,,,,,,,,,,,,,,,,,,,,,,,,,,,,,,,,,,,,,,,,,,,,,,,,,,,,,,,,,,,,301.6605756429999,None,301.6605756429999,None,301.6605756429999,None,h,1,1.792218579999826,303.19385293899995,None,303.19385293899995,None,303.19385293899995,None,305.02752083999985,None,305.02752083999985,None,305.02752083999985,None,305.02752083999985,None,,,,,,,,,,,,,,,,,,,,,,,,,,,,,,,,,,,,,,,,,,,,001,178,2020_Feb_27_1036,spring_faces,3.1.5,60.01210660257003,
condition files/Stage0c_1.xlsx,0c,phi,beta,g,"['h', 'g']","['Chess', 'Go']","[-0.15, 0.5]","[0.15, 0.5]",1,1,0,14,14,14,0,3,3,3,,,,,,,,,,,,,,,,,,,,,,,,,,,,,,,,,,,,,,,,,,,,,,,,,,,,,,,,,,,,,,,307.01038912400054,None,307.01038912400054,None,307.01038912400054,None,g,1,2.9859159750003528,308.5441067219999,None,308.5441067219999,None,308.5441067219999,None,311.59352992000004,None,311.59352992000004,None,311.59352992000004,None,311.59352992000004,None,,,,,,,,,,,,,,,,,,,,,,,,,,,,,,,,,,,,,,,,,,,,001,178,2020_Feb_27_1036,spring_faces,3.1.5,60.01210660257003,
condition files/Stage0c_2.xlsx,0c,phi,alpha,h,"['h', 'g']","['Chess', 'Go']","[-0.15, 0.5]","[0.15, 0.5]",1,1,0,15,15,15,0,0,0,1,,,,,,,,,,,,,,,,,,,,,,,,,,,,,,,,,,,,,,,,,,,,,,,,,,,,,,,,,,,,,,,313.5771730690003,None,313.5771730690003,None,313.5771730690003,None,h,1,4.467719520000173,315.0942711100006,None,315.0942711100006,None,315.0942711100006,None,319.6272702209999,None,319.6272702209999,None,319.6272702209999,None,319.6272702209999,None,,,,,,,,,,,,,,,,,,,,,,,,,,,,,,,,,,,,,,,,,,,,001,178,2020_Feb_27_1036,spring_faces,3.1.5,60.01210660257003,
condition files/Stage0c_2.xlsx,0c,beta,phi,g,"['h', 'g']","['Chess', 'Go']","[-0.15, 0.5]","[0.15, 0.5]",1,1,0,15,15,15,0,1,1,3,,,,,,,,,,,,,,,,,,,,,,,,,,,,,,,,,,,,,,,,,,,,,,,,,,,,,,,,,,,,,,,321.59346955300043,None,321.59346955300043,None,321.59346955300043,None,h,0,2.754522573999566,323.12750794600015,None,323.12750794600015,None,323.12750794600015,None,325.9439863870002,None,325.9439863870002,None,325.9439863870002,None,325.9439863870002,None,,,,,,,,,,,,,,,,,,,,,,,,,,,,,,,,,,,,,,,,,,,,001,178,2020_Feb_27_1036,spring_faces,3.1.5,60.01210660257003,
condition files/Stage0c_2.xlsx,0c,alpha,theta,h,"['h', 'g']","['Chess', 'Go']","[-0.15, 0.5]","[0.15, 0.5]",1,1,0,15,15,15,0,2,2,0,,,,,,,,,,,,,,,,,,,,,,,,,,,,,,,,,,,,,,,,,,,,,,,,,,,,,,,,,,,,,,,327.91039973199986,None,327.91039973199986,None,327.91039973199986,None,h,1,3.734113435999461,329.44387841200023,None,329.44387841200023,None,329.44387841200023,None,333.2299751820001,None,333.2299751820001,None,333.2299751820001,None,333.2299751820001,None,,,,,,,,,,,,,,,,,,,,,,,,,,,,,,,,,,,,,,,,,,,,001,178,2020_Feb_27_1036,spring_faces,3.1.5,60.01210660257003,
condition files/Stage0c_2.xlsx,0c,theta,beta,g,"['h', 'g']","['Chess', 'Go']","[-0.15, 0.5]","[0.15, 0.5]",1,1,0,15,15,15,0,3,3,2,,,,,,,,,,,,,,,,,,,,,,,,,,,,,,,,,,,,,,,,,,,,,,,,,,,,,,,,,,,,,,,335.21040171999994,None,335.21040171999994,None,335.21040171999994,None,g,1,1.3785922540000684,336.7434107019999,None,336.7434107019999,None,336.7434107019999,None,338.1775094430004,None,338.1775094430004,None,338.1775094430004,None,338.1775094430004,None,,,,,,,,,,,,,,,,,,,,,,,,,,,,,,,,,,,,,,,,,,,,001,178,2020_Feb_27_1036,spring_faces,3.1.5,60.01210660257003,
condition files/Stage0c_1.xlsx,0c,beta,theta,g,"['h', 'g']","['Chess', 'Go']","[-0.15, 0.5]","[0.15, 0.5]",1,1,0,16,16,16,0,0,0,2,,,,,,,,,,,,,,,,,,,,,,,,,,,,,,,,,,,,,,,,,,,,,,,,,,,,,,,,,,,,,,,340.1603821160006,None,340.1603821160006,None,340.1603821160006,None,h,0,2.811996951000765,341.6940002470001,None,341.6940002470001,None,341.6940002470001,None,344.5607285550004,None,344.5607285550004,None,344.5607285550004,None,344.5607285550004,None,,,,,,,,,,,,,,,,,,,,,,,,,,,,,,,,,,,,,,,,,,,,001,178,2020_Feb_27_1036,spring_faces,3.1.5,60.01210660257003,
condition files/Stage0c_1.xlsx,0c,phi,beta,g,"['h', 'g']","['Chess', 'Go']","[-0.15, 0.5]","[0.15, 0.5]",1,1,0,16,16,16,0,1,1,3,,,,,,,,,,,,,,,,,,,,,,,,,,,,,,,,,,,,,,,,,,,,,,,,,,,,,,,,,,,,,,,346.52713254800074,None,346.52713254800074,None,346.52713254800074,None,g,1,0.9254250160001902,348.06065268900056,None,348.06065268900056,None,348.06065268900056,None,349.0270617030001,None,349.0270617030001,None,349.0270617030001,None,349.0270617030001,None,,,,,,,,,,,,,,,,,,,,,,,,,,,,,,,,,,,,,,,,,,,,001,178,2020_Feb_27_1036,spring_faces,3.1.5,60.01210660257003,
condition files/Stage0c_1.xlsx,0c,alpha,phi,h,"['h', 'g']","['Chess', 'Go']","[-0.15, 0.5]","[0.15, 0.5]",1,1,0,16,16,16,0,2,2,1,,,,,,,,,,,,,,,,,,,,,,,,,,,,,,,,,,,,,,,,,,,,,,,,,,,,,,,,,,,,,,,351.0107466850004,None,351.0107466850004,None,351.0107466850004,None,h,1,0.8899142439995558,352.5441146760004,None,352.5441146760004,None,352.5441146760004,None,353.49402895599997,None,353.49402895599997,None,353.49402895599997,None,353.49402895599997,None,,,,,,,,,,,,,,,,,,,,,,,,,,,,,,,,,,,,,,,,,,,,001,178,2020_Feb_27_1036,spring_faces,3.1.5,60.01210660257003,
condition files/Stage0c_1.xlsx,0c,theta,alpha,h,"['h', 'g']","['Chess', 'Go']","[-0.15, 0.5]","[0.15, 0.5]",1,1,0,16,16,16,0,3,3,0,,,,,,,,,,,,,,,,,,,,,,,,,,,,,,,,,,,,,,,,,,,,,,,,,,,,,,,,,,,,,,,355.46050590699997,None,355.46050590699997,None,355.46050590699997,None,g,0,0.951770624999881,356.99424612500025,None,356.99424612500025,None,356.99424612500025,None,358.0107355939999,None,358.0107355939999,None,358.0107355939999,None,358.0107355939999,None,,,,,,,,,,,,,,,,,,,,,,,,,,,,,,,,,,,,,,,,,,,,001,178,2020_Feb_27_1036,spring_faces,3.1.5,60.01210660257003,
condition files/Stage0c_2.xlsx,0c,theta,beta,g,"['h', 'g']","['Chess', 'Go']","[-0.15, 0.5]","[0.15, 0.5]",1,1,0,17,17,17,0,0,0,2,,,,,,,,,,,,,,,,,,,,,,,,,,,,,,,,,,,,,,,,,,,,,,,,,,,,,,,,,,,,,,,359.99399681700015,None,359.99399681700015,None,359.99399681700015,None,g,1,1.6027574059999097,361.5272778510007,None,361.5272778510007,None,361.5272778510007,None,363.193894686,None,363.193894686,None,363.193894686,None,363.193894686,None,,,,,,,,,,,,,,,,,,,,,,,,,,,,,,,,,,,,,,,,,,,,001,178,2020_Feb_27_1036,spring_faces,3.1.5,60.01210660257003,
condition files/Stage0c_2.xlsx,0c,phi,alpha,h,"['h', 'g']","['Chess', 'Go']","[-0.15, 0.5]","[0.15, 0.5]",1,1,0,17,17,17,0,1,1,1,,,,,,,,,,,,,,,,,,,,,,,,,,,,,,,,,,,,,,,,,,,,,,,,,,,,,,,,,,,,,,,365.16052752500036,None,365.16052752500036,None,365.16052752500036,None,h,1,1.1558596310005669,366.6941618390001,None,366.6941618390001,None,366.6941618390001,None,367.91002808900066,None,367.91002808900066,None,367.91002808900066,None,367.91002808900066,None,,,,,,,,,,,,,,,,,,,,,,,,,,,,,,,,,,,,,,,,,,,,001,178,2020_Feb_27_1036,spring_faces,3.1.5,60.01210660257003,
condition files/Stage0c_2.xlsx,0c,beta,phi,g,"['h', 'g']","['Chess', 'Go']","[-0.15, 0.5]","[0.15, 0.5]",1,1,0,17,17,17,0,2,2,3,,,,,,,,,,,,,,,,,,,,,,,,,,,,,,,,,,,,,,,,,,,,,,,,,,,,,,,,,,,,,,,369.87702133900075,None,369.87702133900075,None,369.87702133900075,None,g,1,3.9118476020003072,371.4101572990003,None,371.4101572990003,None,371.4101572990003,None,375.3769014260006,None,375.3769014260006,None,375.3769014260006,None,375.3769014260006,None,,,,,,,,,,,,,,,,,,,,,,,,,,,,,,,,,,,,,,,,,,,,001,178,2020_Feb_27_1036,spring_faces,3.1.5,60.01210660257003,
condition files/Stage0c_2.xlsx,0c,alpha,theta,h,"['h', 'g']","['Chess', 'Go']","[-0.15, 0.5]","[0.15, 0.5]",1,1,0,17,17,17,0,3,3,0,,,,,,,,,,,,,,,,,,,,,,,,,,,,,,,,,,,,,,,,,,,,,,,,,,,,,,,,,,,,,,,377.3437383440005,None,377.3437383440005,None,377.3437383440005,None,h,1,1.9647979740002484,378.87721585300005,None,378.87721585300005,None,378.87721585300005,None,380.8943623109999,None,380.8943623109999,None,380.8943623109999,None,380.8943623109999,None,,,,,,,,,,,,,,,,,,,,,,,,,,,,,,,,,,,,,,,,,,,,001,178,2020_Feb_27_1036,spring_faces,3.1.5,60.01210660257003,
,,,,,,,,,,,,,,,,,,,,,,,,,,,,,,,,,,,,,,,,,,,,,,,,,,,,,,,,,,,,,,,,,,,,,,,,,,,,,,,,,,,,,,,,,,,,,,,,,,,,,,,,382.87664704300005,None,space,3.8448844069998813,387.8771498870001,None,,,,,,,,,,,,,,,,,,,,,,,,,,,,,,,,,,,,,,001,178,2020_Feb_27_1036,spring_faces,3.1.5,60.01210660257003,
condition files/Stage1_1.xlsx,,T4,B3,m,"['c', 'm']","['Clue', 'Monopoly']","[-0.15, 0.5]","[0.15, 0.5]",1,1,,,,,,,,,0,0,0,0,0,0,0,6,,,,,,,,,,,,,,,,,,,,,,,,,,,,,,,,,,,,,,,,,,,,,,,,,,,,,,,391.7770783730002,None,391.7770783730002,None,391.7770783730002,None,c,0,2.907322756999747,393.3107806500002,None,393.3107806500002,None,393.3107806500002,None,396.2938364270003,None,396.2938364270003,None,396.2938364270003,None,396.2938364270003,None,,,,,,,387.8771498870001,None,,,,,,,,,,,,,,,,,,,,,,,,,,,,,,,,,,,,001,178,2020_Feb_27_1036,spring_faces,3.1.5,60.01210660257003,
condition files/Stage1_1.xlsx,,T1,B1,c,"['c', 'm']","['Clue', 'Monopoly']","[-0.15, 0.5]","[0.15, 0.5]",1,1,,,,,,,,,0,0,0,0,0,1,1,0,,,,,,,,,,,,,,,,,,,,,,,,,,,,,,,,,,,,,,,,,,,,,,,,,,,,,,,398.24377741900025,None,398.24377741900025,None,398.24377741900025,None,c,1,2.184920848000729,399.777116749,None,399.777116749,None,399.777116749,None,402.0442753160005,None,402.0442753160005,None,402.0442753160005,None,402.0442753160005,None,,,,,,,,,,,,,,,,,,,,,,,,,,,,,,,,,,,,,,,,,,,,001,178,2020_Feb_27_1036,spring_faces,3.1.5,60.01210660257003,
condition files/Stage1_1.xlsx,,B3,T3,c,"['c', 'm']","['Clue', 'Monopoly']","[-0.15, 0.5]","[0.15, 0.5]",1,1,,,,,,,,,0,0,0,0,0,2,2,4,,,,,,,,,,,,,,,,,,,,,,,,,,,,,,,,,,,,,,,,,,,,,,,,,,,,,,,403.99388081899997,None,403.99388081899997,None,403.99388081899997,None,m,0,1.4744796740005768,405.5436150350006,None,405.5436150350006,None,405.5436150350006,None,407.077272044,None,407.077272044,None,407.077272044,None,407.077272044,None,,,,,,,,,,,,,,,,,,,,,,,,,,,,,,,,,,,,,,,,,,,,001,178,2020_Feb_27_1036,spring_faces,3.1.5,60.01210660257003,
condition files/Stage1_1.xlsx,,T2,B2,m,"['c', 'm']","['Clue', 'Monopoly']","[-0.15, 0.5]","[0.15, 0.5]",1,1,,,,,,,,,0,0,0,0,0,3,3,3,,,,,,,,,,,,,,,,,,,,,,,,,,,,,,,,,,,,,,,,,,,,,,,,,,,,,,,409.0438242910004,None,409.0438242910004,None,409.0438242910004,None,c,0,3.063971846999266,410.57805594399997,None,410.57805594399997,None,410.57805594399997,None,413.7106940190006,None,413.7106940190006,None,413.7106940190006,None,413.7106940190006,None,,,,,,,,,,,,,,,,,,,,,,,,,,,,,,,,,,,,,,,,,,,,001,178,2020_Feb_27_1036,spring_faces,3.1.5,60.01210660257003,
condition files/Stage1_1.xlsx,,B1,T2,c,"['c', 'm']","['Clue', 'Monopoly']","[-0.15, 0.5]","[0.15, 0.5]",1,1,,,,,,,,,0,0,0,0,0,4,4,1,,,,,,,,,,,,,,,,,,,,,,,,,,,,,,,,,,,,,,,,,,,,,,,,,,,,,,,415.6606303770004,None,415.6606303770004,None,415.6606303770004,None,m,0,1.6787369539997599,417.19541777500035,None,417.19541777500035,None,417.19541777500035,None,418.9298499010001,None,418.9298499010001,None,418.9298499010001,None,418.9298499010001,None,,,,,,,,,,,,,,,,,,,,,,,,,,,,,,,,,,,,,,,,,,,,001,178,2020_Feb_27_1036,spring_faces,3.1.5,60.01210660257003,
condition files/Stage1_1.xlsx,,B2,T1,m,"['c', 'm']","['Clue', 'Monopoly']","[-0.15, 0.5]","[0.15, 0.5]",1,1,,,,,,,,,0,0,0,0,0,5,5,2,,,,,,,,,,,,,,,,,,,,,,,,,,,,,,,,,,,,,,,,,,,,,,,,,,,,,,,420.8934895880002,None,420.8934895880002,None,420.8934895880002,None,c,0,1.838878826999462,422.4270879860005,None,422.4270879860005,None,422.4270879860005,None,424.32682454099995,None,424.32682454099995,None,424.32682454099995,None,424.32682454099995,None,,,,,,,,,,,,,,,,,,,,,,,,,,,,,,,,,,,,,,,,,,,,001,178,2020_Feb_27_1036,spring_faces,3.1.5,60.01210660257003,
condition files/Stage1_1.xlsx,,B4,T4,m,"['c', 'm']","['Clue', 'Monopoly']","[-0.15, 0.5]","[0.15, 0.5]",1,1,,,,,,,,,0,0,0,0,0,6,6,7,,,,,,,,,,,,,,,,,,,,,,,,,,,,,,,,,,,,,,,,,,,,,,,,,,,,,,,426.29378839400033,None,426.29378839400033,None,426.29378839400033,None,m,1,2.0231931140006054,427.82682576500065,None,427.82682576500065,None,427.82682576500065,None,429.91078371599997,None,429.91078371599997,None,429.91078371599997,None,429.91078371599997,None,,,,,,,,,,,,,,,,,,,,,,,,,,,,,,,,,,,,,,,,,,,,001,178,2020_Feb_27_1036,spring_faces,3.1.5,60.01210660257003,
condition files/Stage1_1.xlsx,,T3,B4,c,"['c', 'm']","['Clue', 'Monopoly']","[-0.15, 0.5]","[0.15, 0.5]",1,1,,,,,,,,,0,0,0,0,0,7,7,5,,,,,,,,,,,,,,,,,,,,,,,,,,,,,,,,,,,,,,,,,,,,,,,,,,,,,,,431.87705310900037,None,431.87705310900037,None,431.87705310900037,None,c,1,2.9668829160000314,433.4111289430002,None,433.4111289430002,None,433.4111289430002,None,436.4445727940001,None,436.4445727940001,None,436.4445727940001,None,436.4445727940001,None,,,,,,,,,,,,,,,,,,,,,,,,,,,,,,,,,,,,,,,,,,,,001,178,2020_Feb_27_1036,spring_faces,3.1.5,60.01210660257003,
condition files/Stage1_2.xlsx,,B4,T3,c,"['c', 'm']","['Clue', 'Monopoly']","[-0.15, 0.5]","[0.15, 0.5]",1,1,,,,,,,,,0,1,1,1,0,0,0,5,,,,,,,,,,,,,,,,,,,,,,,,,,,,,,,,,,,,,,,,,,,,,,,,,,,,,,,438.4271562260001,None,438.4271562260001,None,438.4271562260001,None,c,1,0.994227606000095,439.9598891940004,None,439.9598891940004,None,439.9598891940004,None,441.0109196610001,None,441.0109196610001,None,441.0109196610001,None,441.0109196610001,None,,,,,,,,,,,,,,,,,,,,,,,,,,,,,,,,,,,,,,,,,,,,001,178,2020_Feb_27_1036,spring_faces,3.1.5,60.01210660257003,
condition files/Stage1_2.xlsx,,T1,B2,m,"['c', 'm']","['Clue', 'Monopoly']","[-0.15, 0.5]","[0.15, 0.5]",1,1,,,,,,,,,0,1,1,1,0,1,1,2,,,,,,,,,,,,,,,,,,,,,,,,,,,,,,,,,,,,,,,,,,,,,,,,,,,,,,,442.9770837040005,None,442.9770837040005,None,442.9770837040005,None,m,1,1.64316498900007,444.5109200950001,None,444.5109200950001,None,444.5109200950001,None,446.2106474080001,None,446.2106474080001,None,446.2106474080001,None,446.2106474080001,None,,,,,,,,,,,,,,,,,,,,,,,,,,,,,,,,,,,,,,,,,,,,001,178,2020_Feb_27_1036,spring_faces,3.1.5,60.01210660257003,
condition files/Stage1_2.xlsx,,T4,B4,m,"['c', 'm']","['Clue', 'Monopoly']","[-0.15, 0.5]","[0.15, 0.5]",1,1,,,,,,,,,0,1,1,1,0,2,2,7,,,,,,,,,,,,,,,,,,,,,,,,,,,,,,,,,,,,,,,,,,,,,,,,,,,,,,,448.1771232740002,None,448.1771232740002,None,448.1771232740002,None,m,1,0.906488409999838,449.7116016230002,None,449.7116016230002,None,449.7116016230002,None,450.6771339550005,None,450.6771339550005,None,450.6771339550005,None,450.6771339550005,None,,,,,,,,,,,,,,,,,,,,,,,,,,,,,,,,,,,,,,,,,,,,001,178,2020_Feb_27_1036,spring_faces,3.1.5,60.01210660257003,
condition files/Stage1_2.xlsx,,T2,B1,c,"['c', 'm']","['Clue', 'Monopoly']","[-0.15, 0.5]","[0.15, 0.5]",1,1,,,,,,,,,0,1,1,1,0,3,3,1,,,,,,,,,,,,,,,,,,,,,,,,,,,,,,,,,,,,,,,,,,,,,,,,,,,,,,,452.643822819,None,452.643822819,None,452.643822819,None,c,1,1.6562088499995298,454.193875768,None,454.193875768,None,454.193875768,None,455.91291539300073,None,455.91291539300073,None,455.91291539300073,None,455.91291539300073,None,,,,,,,,,,,,,,,,,,,,,,,,,,,,,,,,,,,,,,,,,,,,001,178,2020_Feb_27_1036,spring_faces,3.1.5,60.01210660257003,
condition files/Stage1_2.xlsx,,T3,B3,c,"['c', 'm']","['Clue', 'Monopoly']","[-0.15, 0.5]","[0.15, 0.5]",1,1,,,,,,,,,0,1,1,1,0,4,4,4,,,,,,,,,,,,,,,,,,,,,,,,,,,,,,,,,,,,,,,,,,,,,,,,,,,,,,,457.87687520800046,None,457.87687520800046,None,457.87687520800046,None,m,0,1.3827118700000938,459.4112838150004,None,459.4112838150004,None,459.4112838150004,None,460.8440235450007,None,460.8440235450007,None,460.8440235450007,None,460.8440235450007,None,,,,,,,,,,,,,,,,,,,,,,,,,,,,,,,,,,,,,,,,,,,,001,178,2020_Feb_27_1036,spring_faces,3.1.5,60.01210660257003,
condition files/Stage1_2.xlsx,,B2,T2,m,"['c', 'm']","['Clue', 'Monopoly']","[-0.15, 0.5]","[0.15, 0.5]",1,1,,,,,,,,,0,1,1,1,0,5,5,3,,,,,,,,,,,,,,,,,,,,,,,,,,,,,,,,,,,,,,,,,,,,,,,,,,,,,,,462.811020184,None,462.811020184,None,462.811020184,None,c,0,1.3119153300003745,464.34611737400064,None,464.34611737400064,None,464.34611737400064,None,465.72764539000036,None,465.72764539000036,None,465.72764539000036,None,465.72764539000036,None,,,,,,,,,,,,,,,,,,,,,,,,,,,,,,,,,,,,,,,,,,,,001,178,2020_Feb_27_1036,spring_faces,3.1.5,60.01210660257003,
condition files/Stage1_2.xlsx,,B3,T4,m,"['c', 'm']","['Clue', 'Monopoly']","[-0.15, 0.5]","[0.15, 0.5]",1,1,,,,,,,,,0,1,1,1,0,6,6,6,,,,,,,,,,,,,,,,,,,,,,,,,,,,,,,,,,,,,,,,,,,,,,,,,,,,,,,467.67707674600024,None,467.67707674600024,None,467.67707674600024,None,m,1,0.9756476809998276,469.21045258699996,None,469.21045258699996,None,469.21045258699996,None,470.24398543000007,None,470.24398543000007,None,470.24398543000007,None,470.24398543000007,None,,,,,,,,,,,,,,,,,,,,,,,,,,,,,,,,,,,,,,,,,,,,001,178,2020_Feb_27_1036,spring_faces,3.1.5,60.01210660257003,
condition files/Stage1_2.xlsx,,B1,T1,c,"['c', 'm']","['Clue', 'Monopoly']","[-0.15, 0.5]","[0.15, 0.5]",1,1,,,,,,,,,0,1,1,1,0,7,7,0,,,,,,,,,,,,,,,,,,,,,,,,,,,,,,,,,,,,,,,,,,,,,,,,,,,,,,,472.2106735890002,None,472.2106735890002,None,472.2106735890002,None,c,1,1.7546520320001946,473.743380375,None,473.743380375,None,473.743380375,None,475.5602697510003,None,475.5602697510003,None,475.5602697510003,None,475.5602697510003,None,,,,,,,,,,,,,,,,,,,,,,,,,,,,,,,,,,,,,,,,,,,,001,178,2020_Feb_27_1036,spring_faces,3.1.5,60.01210660257003,
condition files/Stage1_1.xlsx,,T1,B1,c,"['c', 'm']","['Clue', 'Monopoly']","[-0.15, 0.5]","[0.15, 0.5]",1,1,,,,,,,,,0,2,2,2,0,0,0,0,,,,,,,,,,,,,,,,,,,,,,,,,,,,,,,,,,,,,,,,,,,,,,,,,,,,,,,477.543824548,None,477.543824548,None,477.543824548,None,c,1,1.4589626679999128,479.0790963879999,None,479.0790963879999,None,479.0790963879999,None,480.5937558450005,None,480.5937558450005,None,480.5937558450005,None,480.5937558450005,None,,,,,,,,,,,,,,,,,,,,,,,,,,,,,,,,,,,,,,,,,,,,001,178,2020_Feb_27_1036,spring_faces,3.1.5,60.01210660257003,
condition files/Stage1_1.xlsx,,B4,T4,m,"['c', 'm']","['Clue', 'Monopoly']","[-0.15, 0.5]","[0.15, 0.5]",1,1,,,,,,,,,0,2,2,2,0,1,1,7,,,,,,,,,,,,,,,,,,,,,,,,,,,,,,,,,,,,,,,,,,,,,,,,,,,,,,,482.55969813699994,None,482.55969813699994,None,482.55969813699994,None,m,1,0.9562490589996742,484.0938581700002,None,484.0938581700002,None,484.0938581700002,None,485.1102418780001,None,485.1102418780001,None,485.1102418780001,None,485.1102418780001,None,,,,,,,,,,,,,,,,,,,,,,,,,,,,,,,,,,,,,,,,,,,,001,178,2020_Feb_27_1036,spring_faces,3.1.5,60.01210660257003,
condition files/Stage1_1.xlsx,,T4,B3,m,"['c', 'm']","['Clue', 'Monopoly']","[-0.15, 0.5]","[0.15, 0.5]",1,1,,,,,,,,,0,2,2,2,0,2,2,6,,,,,,,,,,,,,,,,,,,,,,,,,,,,,,,,,,,,,,,,,,,,,,,,,,,,,,,487.0772446810006,None,487.0772446810006,None,487.0772446810006,None,m,1,2.9822492520006563,488.611765011,None,488.611765011,None,488.611765011,None,491.6441972420007,None,491.6441972420007,None,491.6441972420007,None,491.6441972420007,None,,,,,,,,,,,,,,,,,,,,,,,,,,,,,,,,,,,,,,,,,,,,001,178,2020_Feb_27_1036,spring_faces,3.1.5,60.01210660257003,
condition files/Stage1_1.xlsx,,B2,T1,m,"['c', 'm']","['Clue', 'Monopoly']","[-0.15, 0.5]","[0.15, 0.5]",1,1,,,,,,,,,0,2,2,2,0,3,3,2,,,,,,,,,,,,,,,,,,,,,,,,,,,,,,,,,,,,,,,,,,,,,,,,,,,,,,,493.61031375699986,None,493.61031375699986,None,493.61031375699986,None,c,0,1.2818254399999205,495.16019134,None,495.16019134,None,495.16019134,None,496.49395676099994,None,496.49395676099994,None,496.49395676099994,None,496.49395676099994,None,,,,,,,,,,,,,,,,,,,,,,,,,,,,,,,,,,,,,,,,,,,,001,178,2020_Feb_27_1036,spring_faces,3.1.5,60.01210660257003,
condition files/Stage1_1.xlsx,,B3,T3,c,"['c', 'm']","['Clue', 'Monopoly']","[-0.15, 0.5]","[0.15, 0.5]",1,1,,,,,,,,,0,2,2,2,0,4,4,4,,,,,,,,,,,,,,,,,,,,,,,,,,,,,,,,,,,,,,,,,,,,,,,,,,,,,,,498.4600238870007,None,498.4600238870007,None,498.4600238870007,None,m,0,1.3901546730003247,499.99595995800064,None,499.99595995800064,None,499.99595995800064,None,501.4434207430004,None,501.4434207430004,None,501.4434207430004,None,501.4434207430004,None,,,,,,,,,,,,,,,,,,,,,,,,,,,,,,,,,,,,,,,,,,,,001,178,2020_Feb_27_1036,spring_faces,3.1.5,60.01210660257003,
condition files/Stage1_1.xlsx,,T2,B2,m,"['c', 'm']","['Clue', 'Monopoly']","[-0.15, 0.5]","[0.15, 0.5]",1,1,,,,,,,,,0,2,2,2,0,5,5,3,,,,,,,,,,,,,,,,,,,,,,,,,,,,,,,,,,,,,,,,,,,,,,,,,,,,,,,503.41001563400005,None,503.41001563400005,None,503.41001563400005,None,m,1,1.192295381999429,504.94582758900015,None,504.94582758900015,None,504.94582758900015,None,506.19596040500073,None,506.19596040500073,None,506.19596040500073,None,506.19596040500073,None,,,,,,,,,,,,,,,,,,,,,,,,,,,,,,,,,,,,,,,,,,,,001,178,2020_Feb_27_1036,spring_faces,3.1.5,60.01210660257003,
condition files/Stage1_1.xlsx,,T3,B4,c,"['c', 'm']","['Clue', 'Monopoly']","[-0.15, 0.5]","[0.15, 0.5]",1,1,,,,,,,,,0,2,2,2,0,6,6,5,,,,,,,,,,,,,,,,,,,,,,,,,,,,,,,,,,,,,,,,,,,,,,,,,,,,,,,508.1606434109999,None,508.1606434109999,None,508.1606434109999,None,m,0,1.7239081520001491,509.69418931400014,None,509.69418931400014,None,509.69418931400014,None,511.4939423140004,None,511.4939423140004,None,511.4939423140004,None,511.4939423140004,None,,,,,,,,,,,,,,,,,,,,,,,,,,,,,,,,,,,,,,,,,,,,001,178,2020_Feb_27_1036,spring_faces,3.1.5,60.01210660257003,
condition files/Stage1_1.xlsx,,B1,T2,c,"['c', 'm']","['Clue', 'Monopoly']","[-0.15, 0.5]","[0.15, 0.5]",1,1,,,,,,,,,0,2,2,2,0,7,7,1,,,,,,,,,,,,,,,,,,,,,,,,,,,,,,,,,,,,,,,,,,,,,,,,,,,,,,,513.4437960630003,None,513.4437960630003,None,513.4437960630003,None,c,1,3.800826802999836,514.9771885460004,None,514.9771885460004,None,514.9771885460004,None,518.8434597129999,None,518.8434597129999,None,518.8434597129999,None,518.8434597129999,None,,,,,,,,,,,,,,,,,,,,,,,,,,,,,,,,,,,,,,,,,,,,001,178,2020_Feb_27_1036,spring_faces,3.1.5,60.01210660257003,
condition files/Stage1_2.xlsx,,B1,T1,c,"['c', 'm']","['Clue', 'Monopoly']","[-0.15, 0.5]","[0.15, 0.5]",1,1,,,,,,,,,0,3,3,3,0,0,0,0,,,,,,,,,,,,,,,,,,,,,,,,,,,,,,,,,,,,,,,,,,,,,,,,,,,,,,,520.8271539430007,None,520.8271539430007,None,520.8271539430007,None,c,1,1.0567804299998897,522.3773088190001,None,522.3773088190001,None,522.3773088190001,None,523.4936220670006,None,523.4936220670006,None,523.4936220670006,None,523.4936220670006,None,,,,,,,,,,,,,,,,,,,,,,,,,,,,,,,,,,,,,,,,,,,,001,178,2020_Feb_27_1036,spring_faces,3.1.5,60.01210660257003,
condition files/Stage1_2.xlsx,,T4,B4,m,"['c', 'm']","['Clue', 'Monopoly']","[-0.15, 0.5]","[0.15, 0.5]",1,1,,,,,,,,,0,3,3,3,0,1,1,7,,,,,,,,,,,,,,,,,,,,,,,,,,,,,,,,,,,,,,,,,,,,,,,,,,,,,,,525.4604618050007,None,525.4604618050007,None,525.4604618050007,None,m,1,2.1359157420001793,526.9941301420004,None,526.9941301420004,None,526.9941301420004,None,529.193573732,None,529.193573732,None,529.193573732,None,529.193573732,None,,,,,,,,,,,,,,,,,,,,,,,,,,,,,,,,,,,,,,,,,,,,001,178,2020_Feb_27_1036,spring_faces,3.1.5,60.01210660257003,
condition files/Stage1_2.xlsx,,B2,T2,m,"['c', 'm']","['Clue', 'Monopoly']","[-0.15, 0.5]","[0.15, 0.5]",1,1,,,,,,,,,0,3,3,3,0,2,2,3,,,,,,,,,,,,,,,,,,,,,,,,,,,,,,,,,,,,,,,,,,,,,,,,,,,,,,,531.1604351830001,None,531.1604351830001,None,531.1604351830001,None,m,1,1.5085759120001967,532.6935403900006,None,532.6935403900006,None,532.6935403900006,None,534.2601500390001,None,534.2601500390001,None,534.2601500390001,None,534.2601500390001,None,,,,,,,,,,,,,,,,,,,,,,,,,,,,,,,,,,,,,,,,,,,,001,178,2020_Feb_27_1036,spring_faces,3.1.5,60.01210660257003,
condition files/Stage1_2.xlsx,,B4,T3,c,"['c', 'm']","['Clue', 'Monopoly']","[-0.15, 0.5]","[0.15, 0.5]",1,1,,,,,,,,,0,3,3,3,0,3,3,5,,,,,,,,,,,,,,,,,,,,,,,,,,,,,,,,,,,,,,,,,,,,,,,,,,,,,,,536.2271045180005,None,536.2271045180005,None,536.2271045180005,None,m,0,1.1772604679999858,537.7607707980005,None,537.7607707980005,None,537.7607707980005,None,539.0106870380005,None,539.0106870380005,None,539.0106870380005,None,539.0106870380005,None,,,,,,,,,,,,,,,,,,,,,,,,,,,,,,,,,,,,,,,,,,,,001,178,2020_Feb_27_1036,spring_faces,3.1.5,60.01210660257003,
condition files/Stage1_2.xlsx,,B3,T4,m,"['c', 'm']","['Clue', 'Monopoly']","[-0.15, 0.5]","[0.15, 0.5]",1,1,,,,,,,,,0,3,3,3,0,4,4,6,,,,,,,,,,,,,,,,,,,,,,,,,,,,,,,,,,,,,,,,,,,,,,,,,,,,,,,540.9605829000002,None,540.9605829000002,None,540.9605829000002,None,m,1,1.0363485990001209,542.493700133,None,542.493700133,None,542.493700133,None,543.5941254750005,None,543.5941254750005,None,543.5941254750005,None,543.5941254750005,None,,,,,,,,,,,,,,,,,,,,,,,,,,,,,,,,,,,,,,,,,,,,001,178,2020_Feb_27_1036,spring_faces,3.1.5,60.01210660257003,
condition files/Stage1_2.xlsx,,T3,B3,c,"['c', 'm']","['Clue', 'Monopoly']","[-0.15, 0.5]","[0.15, 0.5]",1,1,,,,,,,,,0,3,3,3,0,5,5,4,,,,,,,,,,,,,,,,,,,,,,,,,,,,,,,,,,,,,,,,,,,,,,,,,,,,,,,545.5605571350006,None,545.5605571350006,None,545.5605571350006,None,c,1,0.98053346100005,547.0935861770004,None,547.0935861770004,None,547.0935861770004,None,548.1297743220002,None,548.1297743220002,None,548.1297743220002,None,548.1297743220002,None,,,,,,,,,,,,,,,,,,,,,,,,,,,,,,,,,,,,,,,,,,,,001,178,2020_Feb_27_1036,spring_faces,3.1.5,60.01210660257003,
condition files/Stage1_2.xlsx,,T2,B1,c,"['c', 'm']","['Clue', 'Monopoly']","[-0.15, 0.5]","[0.15, 0.5]",1,1,,,,,,,,,0,3,3,3,0,6,6,1,,,,,,,,,,,,,,,,,,,,,,,,,,,,,,,,,,,,,,,,,,,,,,,,,,,,,,,550.0936005809999,None,550.0936005809999,None,550.0936005809999,None,c,1,1.7586739380003564,551.6274361490005,None,551.6274361490005,None,551.6274361490005,None,553.4436072080007,None,553.4436072080007,None,553.4436072080007,None,553.4436072080007,None,,,,,,,,,,,,,,,,,,,,,,,,,,,,,,,,,,,,,,,,,,,,001,178,2020_Feb_27_1036,spring_faces,3.1.5,60.01210660257003,
condition files/Stage1_2.xlsx,,T1,B2,m,"['c', 'm']","['Clue', 'Monopoly']","[-0.15, 0.5]","[0.15, 0.5]",1,1,,,,,,,,,0,3,3,3,0,7,7,2,,,,,,,,,,,,,,,,,,,,,,,,,,,,,,,,,,,,,,,,,,,,,,,,,,,,,,,555.4102031290004,None,555.4102031290004,None,555.4102031290004,None,c,0,1.0981252740002674,556.943901568,None,556.943901568,None,556.943901568,None,558.1109827730006,None,558.1109827730006,None,558.1109827730006,None,558.1109827730006,None,,,,,,,,,,,,,,,,,,,,,,,,,,,,,,,,,,,,,,,,,,,,001,178,2020_Feb_27_1036,spring_faces,3.1.5,60.01210660257003,
condition files/Stage1_1.xlsx,,T4,B3,m,"['c', 'm']","['Clue', 'Monopoly']","[-0.15, 0.5]","[0.15, 0.5]",1,1,,,,,,,,,0,4,4,4,0,0,0,6,,,,,,,,,,,,,,,,,,,,,,,,,,,,,,,,,,,,,,,,,,,,,,,,,,,,,,,560.0769797190005,None,560.0769797190005,None,560.0769797190005,None,m,1,0.8615124009993451,561.6125097040003,None,561.6125097040003,None,561.6125097040003,None,562.5269632720001,None,562.5269632720001,None,562.5269632720001,None,562.5269632720001,None,,,,,,,,,,,,,,,,,,,,,,,,,,,,,,,,,,,,,,,,,,,,001,178,2020_Feb_27_1036,spring_faces,3.1.5,60.01210660257003,
condition files/Stage1_1.xlsx,,B3,T3,c,"['c', 'm']","['Clue', 'Monopoly']","[-0.15, 0.5]","[0.15, 0.5]",1,1,,,,,,,,,0,4,4,4,0,1,1,4,,,,,,,,,,,,,,,,,,,,,,,,,,,,,,,,,,,,,,,,,,,,,,,,,,,,,,,564.4938590400006,None,564.4938590400006,None,564.4938590400006,None,c,1,1.3752232010001535,566.0268838689999,None,566.0268838689999,None,566.0268838689999,None,567.4768781090006,None,567.4768781090006,None,567.4768781090006,None,567.4768781090006,None,,,,,,,,,,,,,,,,,,,,,,,,,,,,,,,,,,,,,,,,,,,,001,178,2020_Feb_27_1036,spring_faces,3.1.5,60.01210660257003,
condition files/Stage1_1.xlsx,,B4,T4,m,"['c', 'm']","['Clue', 'Monopoly']","[-0.15, 0.5]","[0.15, 0.5]",1,1,,,,,,,,,0,4,4,4,0,2,2,7,,,,,,,,,,,,,,,,,,,,,,,,,,,,,,,,,,,,,,,,,,,,,,,,,,,,,,,569.426932972,None,569.426932972,None,569.426932972,None,m,1,0.7603528390000065,570.9776543520002,None,570.9776543520002,None,570.9776543520002,None,571.8103013220007,None,571.8103013220007,None,571.8103013220007,None,571.8103013220007,None,,,,,,,,,,,,,,,,,,,,,,,,,,,,,,,,,,,,,,,,,,,,001,178,2020_Feb_27_1036,spring_faces,3.1.5,60.01210660257003,
condition files/Stage1_1.xlsx,,T1,B1,c,"['c', 'm']","['Clue', 'Monopoly']","[-0.15, 0.5]","[0.15, 0.5]",1,1,,,,,,,,,0,4,4,4,0,3,3,0,,,,,,,,,,,,,,,,,,,,,,,,,,,,,,,,,,,,,,,,,,,,,,,,,,,,,,,573.7604397230007,None,573.7604397230007,None,573.7604397230007,None,m,0,2.5569029329999466,575.2932047029999,None,575.2932047029999,None,575.2932047029999,None,577.9272002470007,None,577.9272002470007,None,577.9272002470007,None,577.9272002470007,None,,,,,,,,,,,,,,,,,,,,,,,,,,,,,,,,,,,,,,,,,,,,001,178,2020_Feb_27_1036,spring_faces,3.1.5,60.01210660257003,
condition files/Stage1_1.xlsx,,T3,B4,c,"['c', 'm']","['Clue', 'Monopoly']","[-0.15, 0.5]","[0.15, 0.5]",1,1,,,,,,,,,0,4,4,4,0,4,4,5,,,,,,,,,,,,,,,,,,,,,,,,,,,,,,,,,,,,,,,,,,,,,,,,,,,,,,,579.8772840199999,None,579.8772840199999,None,579.8772840199999,None,c,1,1.8318445150007392,581.4101892580002,None,581.4101892580002,None,581.4101892580002,None,583.2940948590003,None,583.2940948590003,None,583.2940948590003,None,583.2940948590003,None,,,,,,,,,,,,,,,,,,,,,,,,,,,,,,,,,,,,,,,,,,,,001,178,2020_Feb_27_1036,spring_faces,3.1.5,60.01210660257003,
condition files/Stage1_1.xlsx,,T2,B2,m,"['c', 'm']","['Clue', 'Monopoly']","[-0.15, 0.5]","[0.15, 0.5]",1,1,,,,,,,,,0,4,4,4,0,5,5,3,,,,,,,,,,,,,,,,,,,,,,,,,,,,,,,,,,,,,,,,,,,,,,,,,,,,,,,585.2601606260005,None,585.2601606260005,None,585.2601606260005,None,m,1,1.360029764000501,586.7940875650002,None,586.7940875650002,None,586.7940875650002,None,588.2268990100001,None,588.2268990100001,None,588.2268990100001,None,588.2268990100001,None,,,,,,,,,,,,,,,,,,,,,,,,,,,,,,,,,,,,,,,,,,,,001,178,2020_Feb_27_1036,spring_faces,3.1.5,60.01210660257003,
condition files/Stage1_1.xlsx,,B2,T1,m,"['c', 'm']","['Clue', 'Monopoly']","[-0.15, 0.5]","[0.15, 0.5]",1,1,,,,,,,,,0,4,4,4,0,6,6,2,,,,,,,,,,,,,,,,,,,,,,,,,,,,,,,,,,,,,,,,,,,,,,,,,,,,,,,590.1771073529999,None,590.1771073529999,None,590.1771073529999,None,c,0,0.8753489059999993,591.7107459660001,None,591.7107459660001,None,591.7107459660001,None,592.6439118770004,None,592.6439118770004,None,592.6439118770004,None,592.6439118770004,None,,,,,,,,,,,,,,,,,,,,,,,,,,,,,,,,,,,,,,,,,,,,001,178,2020_Feb_27_1036,spring_faces,3.1.5,60.01210660257003,
condition files/Stage1_1.xlsx,,B1,T2,c,"['c', 'm']","['Clue', 'Monopoly']","[-0.15, 0.5]","[0.15, 0.5]",1,1,,,,,,,,,0,4,4,4,0,7,7,1,,,,,,,,,,,,,,,,,,,,,,,,,,,,,,,,,,,,,,,,,,,,,,,,,,,,,,,594.6104251659999,None,594.6104251659999,None,594.6104251659999,None,m,0,3.146558133000326,596.1434832190007,None,596.1434832190007,None,596.1434832190007,None,599.3448686780002,None,599.3448686780002,None,599.3448686780002,None,599.3448686780002,None,,,,,,,,,,,,,,,,,,,,,,,,,,,,,,,,,,,,,,,,,,,,001,178,2020_Feb_27_1036,spring_faces,3.1.5,60.01210660257003,
condition files/Stage1_2.xlsx,,T4,B4,m,"['c', 'm']","['Clue', 'Monopoly']","[-0.15, 0.5]","[0.15, 0.5]",1,1,,,,,,,,,0,5,5,5,0,0,0,7,,,,,,,,,,,,,,,,,,,,,,,,,,,,,,,,,,,,,,,,,,,,,,,,,,,,,,,601.3268315550004,None,601.3268315550004,None,601.3268315550004,None,m,1,1.0379065409997565,602.8601421480007,None,602.8601421480007,None,602.8601421480007,None,603.9633768920003,None,603.9633768920003,None,603.9633768920003,None,603.9633768920003,None,,,,,,,,,,,,,,,,,,,,,,,,,,,,,,,,,,,,,,,,,,,,001,178,2020_Feb_27_1036,spring_faces,3.1.5,60.01210660257003,
condition files/Stage1_2.xlsx,,B2,T2,m,"['c', 'm']","['Clue', 'Monopoly']","[-0.15, 0.5]","[0.15, 0.5]",1,1,,,,,,,,,0,5,5,5,0,1,1,3,,,,,,,,,,,,,,,,,,,,,,,,,,,,,,,,,,,,,,,,,,,,,,,,,,,,,,,605.9273113930003,None,605.9273113930003,None,605.9273113930003,None,c,0,2.5648002289999567,607.461221644,None,607.461221644,None,607.461221644,None,610.0777356990002,None,610.0777356990002,None,610.0777356990002,None,610.0777356990002,None,,,,,,,,,,,,,,,,,,,,,,,,,,,,,,,,,,,,,,,,,,,,001,178,2020_Feb_27_1036,spring_faces,3.1.5,60.01210660257003,
condition files/Stage1_2.xlsx,,T2,B1,c,"['c', 'm']","['Clue', 'Monopoly']","[-0.15, 0.5]","[0.15, 0.5]",1,1,,,,,,,,,0,5,5,5,0,2,2,1,,,,,,,,,,,,,,,,,,,,,,,,,,,,,,,,,,,,,,,,,,,,,,,,,,,,,,,612.0439728199999,None,612.0439728199999,None,612.0439728199999,None,m,0,0.9762213679996421,613.5778852960002,None,613.5778852960002,None,613.5778852960002,None,614.6272694469999,None,614.6272694469999,None,614.6272694469999,None,614.6272694469999,None,,,,,,,,,,,,,,,,,,,,,,,,,,,,,,,,,,,,,,,,,,,,001,178,2020_Feb_27_1036,spring_faces,3.1.5,60.01210660257003,
condition files/Stage1_2.xlsx,,B4,T3,c,"['c', 'm']","['Clue', 'Monopoly']","[-0.15, 0.5]","[0.15, 0.5]",1,1,,,,,,,,,0,5,5,5,0,3,3,5,,,,,,,,,,,,,,,,,,,,,,,,,,,,,,,,,,,,,,,,,,,,,,,,,,,,,,,616.5767296800004,None,616.5767296800004,None,616.5767296800004,None,c,1,2.506766381999114,618.127336902,None,618.127336902,None,618.127336902,None,620.6937222630004,None,620.6937222630004,None,620.6937222630004,None,620.6937222630004,None,,,,,,,,,,,,,,,,,,,,,,,,,,,,,,,,,,,,,,,,,,,,001,178,2020_Feb_27_1036,spring_faces,3.1.5,60.01210660257003,
condition files/Stage1_2.xlsx,,T3,B3,c,"['c', 'm']","['Clue', 'Monopoly']","[-0.15, 0.5]","[0.15, 0.5]",1,1,,,,,,,,,0,5,5,5,0,4,4,4,,,,,,,,,,,,,,,,,,,,,,,,,,,,,,,,,,,,,,,,,,,,,,,,,,,,,,,622.6603914930001,None,622.6603914930001,None,622.6603914930001,None,c,1,1.8315942230001383,624.1944454949999,None,624.1944454949999,None,624.1944454949999,None,626.0775730220003,None,626.0775730220003,None,626.0775730220003,None,626.0775730220003,None,,,,,,,,,,,,,,,,,,,,,,,,,,,,,,,,,,,,,,,,,,,,001,178,2020_Feb_27_1036,spring_faces,3.1.5,60.01210660257003,
condition files/Stage1_2.xlsx,,B1,T1,c,"['c', 'm']","['Clue', 'Monopoly']","[-0.15, 0.5]","[0.15, 0.5]",1,1,,,,,,,,,0,5,5,5,0,5,5,0,,,,,,,,,,,,,,,,,,,,,,,,,,,,,,,,,,,,,,,,,,,,,,,,,,,,,,,628.0435640760006,None,628.0435640760006,None,628.0435640760006,None,c,1,2.064666924999983,629.5773725059998,None,629.5773725059998,None,629.5773725059998,None,631.6942228750004,None,631.6942228750004,None,631.6942228750004,None,631.6942228750004,None,,,,,,,,,,,,,,,,,,,,,,,,,,,,,,,,,,,,,,,,,,,,001,178,2020_Feb_27_1036,spring_faces,3.1.5,60.01210660257003,
condition files/Stage1_2.xlsx,,B3,T4,m,"['c', 'm']","['Clue', 'Monopoly']","[-0.15, 0.5]","[0.15, 0.5]",1,1,,,,,,,,,0,5,5,5,0,6,6,6,,,,,,,,,,,,,,,,,,,,,,,,,,,,,,,,,,,,,,,,,,,,,,,,,,,,,,,633.6605219230005,None,633.6605219230005,None,633.6605219230005,None,m,1,0.7822394430004351,635.1957526410006,None,635.1957526410006,None,635.1957526410006,None,636.0448502100007,None,636.0448502100007,None,636.0448502100007,None,636.0448502100007,None,,,,,,,,,,,,,,,,,,,,,,,,,,,,,,,,,,,,,,,,,,,,001,178,2020_Feb_27_1036,spring_faces,3.1.5,60.01210660257003,
condition files/Stage1_2.xlsx,,T1,B2,m,"['c', 'm']","['Clue', 'Monopoly']","[-0.15, 0.5]","[0.15, 0.5]",1,1,,,,,,,,,0,5,5,5,0,7,7,2,,,,,,,,,,,,,,,,,,,,,,,,,,,,,,,,,,,,,,,,,,,,,,,,,,,,,,,638.0102577329999,None,638.0102577329999,None,638.0102577329999,None,c,0,1.2656000440001662,639.5444046080001,None,639.5444046080001,None,639.5444046080001,None,640.8609062350006,None,640.8609062350006,None,640.8609062350006,None,640.8609062350006,None,,,,,,,,,,,,,,,,,,,,,,,,,,,,,,,,,,,,,,,,,,,,001,178,2020_Feb_27_1036,spring_faces,3.1.5,60.01210660257003,
condition files/Stage1_1.xlsx,,B3,T3,c,"['c', 'm']","['Clue', 'Monopoly']","[-0.15, 0.5]","[0.15, 0.5]",1,1,,,,,,,,,0,6,6,6,0,0,0,4,,,,,,,,,,,,,,,,,,,,,,,,,,,,,,,,,,,,,,,,,,,,,,,,,,,,,,,642.843406164,None,642.843406164,None,642.843406164,None,c,1,1.1852098749996003,644.376807394,None,644.376807394,None,644.376807394,None,645.6279410420002,None,645.6279410420002,None,645.6279410420002,None,645.6279410420002,None,,,,,,,,,,,,,,,,,,,,,,,,,,,,,,,,,,,,,,,,,,,,001,178,2020_Feb_27_1036,spring_faces,3.1.5,60.01210660257003,
condition files/Stage1_1.xlsx,,B1,T2,c,"['c', 'm']","['Clue', 'Monopoly']","[-0.15, 0.5]","[0.15, 0.5]",1,1,,,,,,,,,0,6,6,6,0,1,1,1,,,,,,,,,,,,,,,,,,,,,,,,,,,,,,,,,,,,,,,,,,,,,,,,,,,,,,,647.5936194300002,None,647.5936194300002,None,647.5936194300002,None,c,1,2.257538695999756,649.1285629290005,None,649.1285629290005,None,649.1285629290005,None,651.4444326960001,None,651.4444326960001,None,651.4444326960001,None,651.4444326960001,None,,,,,,,,,,,,,,,,,,,,,,,,,,,,,,,,,,,,,,,,,,,,001,178,2020_Feb_27_1036,spring_faces,3.1.5,60.01210660257003,
condition files/Stage1_1.xlsx,,T1,B1,c,"['c', 'm']","['Clue', 'Monopoly']","[-0.15, 0.5]","[0.15, 0.5]",1,1,,,,,,,,,0,6,6,6,0,2,2,0,,,,,,,,,,,,,,,,,,,,,,,,,,,,,,,,,,,,,,,,,,,,,,,,,,,,,,,653.4106008879999,None,653.4106008879999,None,653.4106008879999,None,c,1,2.073287141000037,654.9607985100001,None,654.9607985100001,None,654.9607985100001,None,657.0941040710004,None,657.0941040710004,None,657.0941040710004,None,657.0941040710004,None,,,,,,,,,,,,,,,,,,,,,,,,,,,,,,,,,,,,,,,,,,,,001,178,2020_Feb_27_1036,spring_faces,3.1.5,60.01210660257003,
condition files/Stage1_1.xlsx,,T3,B4,c,"['c', 'm']","['Clue', 'Monopoly']","[-0.15, 0.5]","[0.15, 0.5]",1,1,,,,,,,,,0,6,6,6,0,3,3,5,,,,,,,,,,,,,,,,,,,,,,,,,,,,,,,,,,,,,,,,,,,,,,,,,,,,,,,659.0604020410001,None,659.0604020410001,None,659.0604020410001,None,c,1,1.031074190000254,660.6109492129999,None,660.6109492129999,None,660.6109492129999,None,661.6941651980005,None,661.6941651980005,None,661.6941651980005,None,661.6941651980005,None,,,,,,,,,,,,,,,,,,,,,,,,,,,,,,,,,,,,,,,,,,,,001,178,2020_Feb_27_1036,spring_faces,3.1.5,60.01210660257003,
condition files/Stage1_1.xlsx,,B4,T4,m,"['c', 'm']","['Clue', 'Monopoly']","[-0.15, 0.5]","[0.15, 0.5]",1,1,,,,,,,,,0,6,6,6,0,4,4,7,,,,,,,,,,,,,,,,,,,,,,,,,,,,,,,,,,,,,,,,,,,,,,,,,,,,,,,663.6605416010007,None,663.6605416010007,None,663.6605416010007,None,m,1,0.7038510969996423,665.1941842310007,None,665.1941842310007,None,665.1941842310007,None,665.960744123,None,665.960744123,None,665.960744123,None,665.960744123,None,,,,,,,,,,,,,,,,,,,,,,,,,,,,,,,,,,,,,,,,,,,,001,178,2020_Feb_27_1036,spring_faces,3.1.5,60.01210660257003,
condition files/Stage1_1.xlsx,,T4,B3,m,"['c', 'm']","['Clue', 'Monopoly']","[-0.15, 0.5]","[0.15, 0.5]",1,1,,,,,,,,,0,6,6,6,0,5,5,6,,,,,,,,,,,,,,,,,,,,,,,,,,,,,,,,,,,,,,,,,,,,,,,,,,,,,,,667.927160192,None,667.927160192,None,667.927160192,None,m,1,1.141965478000202,669.4601338870007,None,669.4601338870007,None,669.4601338870007,None,670.659960084,None,670.659960084,None,670.659960084,None,670.659960084,None,,,,,,,,,,,,,,,,,,,,,,,,,,,,,,,,,,,,,,,,,,,,001,178,2020_Feb_27_1036,spring_faces,3.1.5,60.01210660257003,
condition files/Stage1_1.xlsx,,T2,B2,m,"['c', 'm']","['Clue', 'Monopoly']","[-0.15, 0.5]","[0.15, 0.5]",1,1,,,,,,,,,0,6,6,6,0,6,6,3,,,,,,,,,,,,,,,,,,,,,,,,,,,,,,,,,,,,,,,,,,,,,,,,,,,,,,,672.6269635620001,None,672.6269635620001,None,672.6269635620001,None,c,0,1.8002904839995608,674.1776951990005,None,674.1776951990005,None,674.1776951990005,None,676.0448048630005,None,676.0448048630005,None,676.0448048630005,None,676.0448048630005,None,,,,,,,,,,,,,,,,,,,,,,,,,,,,,,,,,,,,,,,,,,,,001,178,2020_Feb_27_1036,spring_faces,3.1.5,60.01210660257003,
condition files/Stage1_1.xlsx,,B2,T1,m,"['c', 'm']","['Clue', 'Monopoly']","[-0.15, 0.5]","[0.15, 0.5]",1,1,,,,,,,,,0,6,6,6,0,7,7,2,,,,,,,,,,,,,,,,,,,,,,,,,,,,,,,,,,,,,,,,,,,,,,,,,,,,,,,678.0111728250004,None,678.0111728250004,None,678.0111728250004,None,c,0,1.6646132450005098,679.5454190050004,None,679.5454190050004,None,679.5454190050004,None,681.2609627900001,None,681.2609627900001,None,681.2609627900001,None,681.2609627900001,None,,,,,,,,,,,,,,,,,,,,,,,,,,,,,,,,,,,,,,,,,,,,001,178,2020_Feb_27_1036,spring_faces,3.1.5,60.01210660257003,
condition files/Stage1_2.xlsx,,B1,T1,c,"['c', 'm']","['Clue', 'Monopoly']","[-0.15, 0.5]","[0.15, 0.5]",1,1,,,,,,,,,0,7,7,7,0,0,0,0,,,,,,,,,,,,,,,,,,,,,,,,,,,,,,,,,,,,,,,,,,,,,,,,,,,,,,,683.2441455570006,None,683.2441455570006,None,683.2441455570006,None,c,1,1.0092857209992872,684.7768200910004,None,684.7768200910004,None,684.7768200910004,None,685.8448842000007,None,685.8448842000007,None,685.8448842000007,None,685.8448842000007,None,,,,,,,,,,,,,,,,,,,,,,,,,,,,,,,,,,,,,,,,,,,,001,178,2020_Feb_27_1036,spring_faces,3.1.5,60.01210660257003,
condition files/Stage1_2.xlsx,,T2,B1,c,"['c', 'm']","['Clue', 'Monopoly']","[-0.15, 0.5]","[0.15, 0.5]",1,1,,,,,,,,,0,7,7,7,0,1,1,1,,,,,,,,,,,,,,,,,,,,,,,,,,,,,,,,,,,,,,,,,,,,,,,,,,,,,,,687.810259809,None,687.810259809,None,687.810259809,None,m,0,0.6010340820002966,689.3449609449999,None,689.3449609449999,None,689.3449609449999,None,690.0106809730005,None,690.0106809730005,None,690.0106809730005,None,690.0106809730005,None,,,,,,,,,,,,,,,,,,,,,,,,,,,,,,,,,,,,,,,,,,,,001,178,2020_Feb_27_1036,spring_faces,3.1.5,60.01210660257003,
condition files/Stage1_2.xlsx,,B2,T2,m,"['c', 'm']","['Clue', 'Monopoly']","[-0.15, 0.5]","[0.15, 0.5]",1,1,,,,,,,,,0,7,7,7,0,2,2,3,,,,,,,,,,,,,,,,,,,,,,,,,,,,,,,,,,,,,,,,,,,,,,,,,,,,,,,691.9773385450007,None,691.9773385450007,None,691.9773385450007,None,c,0,2.322879690999798,693.5112351110001,None,693.5112351110001,None,693.5112351110001,None,695.8966977650007,None,695.8966977650007,None,695.8966977650007,None,695.8966977650007,None,,,,,,,,,,,,,,,,,,,,,,,,,,,,,,,,,,,,,,,,,,,,001,178,2020_Feb_27_1036,spring_faces,3.1.5,60.01210660257003,
condition files/Stage1_2.xlsx,,B3,T4,m,"['c', 'm']","['Clue', 'Monopoly']","[-0.15, 0.5]","[0.15, 0.5]",1,1,,,,,,,,,0,7,7,7,0,3,3,6,,,,,,,,,,,,,,,,,,,,,,,,,,,,,,,,,,,,,,,,,,,,,,,,,,,,,,,697.8605921140006,None,697.8605921140006,None,697.8605921140006,None,m,1,0.8884301250000135,699.3936392160003,None,699.3936392160003,None,699.3936392160003,None,700.343545187,None,700.343545187,None,700.343545187,None,700.343545187,None,,,,,,,,,,,,,,,,,,,,,,,,,,,,,,,,,,,,,,,,,,,,001,178,2020_Feb_27_1036,spring_faces,3.1.5,60.01210660257003,
condition files/Stage1_2.xlsx,,T3,B3,c,"['c', 'm']","['Clue', 'Monopoly']","[-0.15, 0.5]","[0.15, 0.5]",1,1,,,,,,,,,0,7,7,7,0,4,4,4,,,,,,,,,,,,,,,,,,,,,,,,,,,,,,,,,,,,,,,,,,,,,,,,,,,,,,,702.3107695770004,None,702.3107695770004,None,702.3107695770004,None,c,1,1.750533866999831,703.8434617769999,None,703.8434617769999,None,703.8434617769999,None,705.6441603170006,None,705.6441603170006,None,705.6441603170006,None,705.6441603170006,None,,,,,,,,,,,,,,,,,,,,,,,,,,,,,,,,,,,,,,,,,,,,001,178,2020_Feb_27_1036,spring_faces,3.1.5,60.01210660257003,
condition files/Stage1_2.xlsx,,T4,B4,m,"['c', 'm']","['Clue', 'Monopoly']","[-0.15, 0.5]","[0.15, 0.5]",1,1,,,,,,,,,0,7,7,7,0,5,5,7,,,,,,,,,,,,,,,,,,,,,,,,,,,,,,,,,,,,,,,,,,,,,,,,,,,,,,,707.6102104760002,None,707.6102104760002,None,707.6102104760002,None,m,1,0.6099688280000919,709.1441416050002,None,709.1441416050002,None,709.1441416050002,None,709.8268790420007,None,709.8268790420007,None,709.8268790420007,None,709.8268790420007,None,,,,,,,,,,,,,,,,,,,,,,,,,,,,,,,,,,,,,,,,,,,,001,178,2020_Feb_27_1036,spring_faces,3.1.5,60.01210660257003,
condition files/Stage1_2.xlsx,,T1,B2,m,"['c', 'm']","['Clue', 'Monopoly']","[-0.15, 0.5]","[0.15, 0.5]",1,1,,,,,,,,,0,7,7,7,0,6,6,2,,,,,,,,,,,,,,,,,,,,,,,,,,,,,,,,,,,,,,,,,,,,,,,,,,,,,,,711.7765979360001,None,711.7765979360001,None,711.7765979360001,None,c,0,1.5638009710000915,713.310318289,None,713.310318289,None,713.310318289,None,714.9272656660005,None,714.9272656660005,None,714.9272656660005,None,714.9272656660005,None,,,,,,,,,,,,,,,,,,,,,,,,,,,,,,,,,,,,,,,,,,,,001,178,2020_Feb_27_1036,spring_faces,3.1.5,60.01210660257003,
condition files/Stage1_2.xlsx,,B4,T3,c,"['c', 'm']","['Clue', 'Monopoly']","[-0.15, 0.5]","[0.15, 0.5]",1,1,,,,,,,,,0,7,7,7,0,7,7,5,,,,,,,,,,,,,,,,,,,,,,,,,,,,,,,,,,,,,,,,,,,,,,,,,,,,,,,716.8937797060007,None,716.8937797060007,None,716.8937797060007,None,c,1,0.8634286039996368,718.4266191639999,None,718.4266191639999,None,718.4266191639999,None,719.3456331810003,None,719.3456331810003,None,719.3456331810003,None,719.3456331810003,None,,,,,,,,,,,,,,,,,,,,,,,,,,,,,,,,,,,,,,,,,,,,001,178,2020_Feb_27_1036,spring_faces,3.1.5,60.01210660257003,
condition files/Stage1_1.xlsx,,B1,T2,c,"['c', 'm']","['Clue', 'Monopoly']","[-0.15, 0.5]","[0.15, 0.5]",1,1,,,,,,,,,0,8,8,8,0,0,0,1,,,,,,,,,,,,,,,,,,,,,,,,,,,,,,,,,,,,,,,,,,,,,,,,,,,,,,,721.326791296,None,721.326791296,None,721.326791296,None,m,0,2.732812045999708,722.8612232080004,None,722.8612232080004,None,722.8612232080004,None,725.6442954049999,None,725.6442954049999,None,725.6442954049999,None,725.6442954049999,None,,,,,,,,,,,,,,,,,,,,,,,,,,,,,,,,,,,,,,,,,,,,001,178,2020_Feb_27_1036,spring_faces,3.1.5,60.01210660257003,
condition files/Stage1_1.xlsx,,T4,B3,m,"['c', 'm']","['Clue', 'Monopoly']","[-0.15, 0.5]","[0.15, 0.5]",1,1,,,,,,,,,0,8,8,8,0,1,1,6,,,,,,,,,,,,,,,,,,,,,,,,,,,,,,,,,,,,,,,,,,,,,,,,,,,,,,,727.6103430020003,None,727.6103430020003,None,727.6103430020003,None,m,1,0.6725456599997415,729.1455653930007,None,729.1455653930007,None,729.1455653930007,None,729.8782853440007,None,729.8782853440007,None,729.8782853440007,None,729.8782853440007,None,,,,,,,,,,,,,,,,,,,,,,,,,,,,,,,,,,,,,,,,,,,,001,178,2020_Feb_27_1036,spring_faces,3.1.5,60.01210660257003,
condition files/Stage1_1.xlsx,,T3,B4,c,"['c', 'm']","['Clue', 'Monopoly']","[-0.15, 0.5]","[0.15, 0.5]",1,1,,,,,,,,,0,8,8,8,0,2,2,5,,,,,,,,,,,,,,,,,,,,,,,,,,,,,,,,,,,,,,,,,,,,,,,,,,,,,,,731.8435412510007,None,731.8435412510007,None,731.8435412510007,None,c,1,1.0488482749997274,733.3771890320004,None,733.3771890320004,None,733.3771890320004,None,734.4940726610002,None,734.4940726610002,None,734.4940726610002,None,734.4940726610002,None,,,,,,,,,,,,,,,,,,,,,,,,,,,,,,,,,,,,,,,,,,,,001,178,2020_Feb_27_1036,spring_faces,3.1.5,60.01210660257003,
condition files/Stage1_1.xlsx,,T2,B2,m,"['c', 'm']","['Clue', 'Monopoly']","[-0.15, 0.5]","[0.15, 0.5]",1,1,,,,,,,,,0,8,8,8,0,3,3,3,,,,,,,,,,,,,,,,,,,,,,,,,,,,,,,,,,,,,,,,,,,,,,,,,,,,,,,736.4438892120006,None,736.4438892120006,None,736.4438892120006,None,m,1,0.8959937090003223,737.977999449,None,737.977999449,None,737.977999449,None,738.9439017740006,None,738.9439017740006,None,738.9439017740006,None,738.9439017740006,None,,,,,,,,,,,,,,,,,,,,,,,,,,,,,,,,,,,,,,,,,,,,001,178,2020_Feb_27_1036,spring_faces,3.1.5,60.01210660257003,
condition files/Stage1_1.xlsx,,B2,T1,m,"['c', 'm']","['Clue', 'Monopoly']","[-0.15, 0.5]","[0.15, 0.5]",1,1,,,,,,,,,0,8,8,8,0,4,4,2,,,,,,,,,,,,,,,,,,,,,,,,,,,,,,,,,,,,,,,,,,,,,,,,,,,,,,,740.8932680920007,None,740.8932680920007,None,740.8932680920007,None,c,0,1.341912453999612,742.444191472,None,742.444191472,None,742.444191472,None,743.843699901,None,743.843699901,None,743.843699901,None,743.843699901,None,,,,,,,,,,,,,,,,,,,,,,,,,,,,,,,,,,,,,,,,,,,,001,178,2020_Feb_27_1036,spring_faces,3.1.5,60.01210660257003,
condition files/Stage1_1.xlsx,,B4,T4,m,"['c', 'm']","['Clue', 'Monopoly']","[-0.15, 0.5]","[0.15, 0.5]",1,1,,,,,,,,,0,8,8,8,0,5,5,7,,,,,,,,,,,,,,,,,,,,,,,,,,,,,,,,,,,,,,,,,,,,,,,,,,,,,,,745.8105267000001,None,745.8105267000001,None,745.8105267000001,None,m,1,0.6479844750001575,747.3460197190007,None,747.3460197190007,None,747.3460197190007,None,748.0441594950007,None,748.0441594950007,None,748.0441594950007,None,748.0441594950007,None,,,,,,,,,,,,,,,,,,,,,,,,,,,,,,,,,,,,,,,,,,,,001,178,2020_Feb_27_1036,spring_faces,3.1.5,60.01210660257003,
condition files/Stage1_1.xlsx,,B3,T3,c,"['c', 'm']","['Clue', 'Monopoly']","[-0.15, 0.5]","[0.15, 0.5]",1,1,,,,,,,,,0,8,8,8,0,6,6,4,,,,,,,,,,,,,,,,,,,,,,,,,,,,,,,,,,,,,,,,,,,,,,,,,,,,,,,750.0106133600002,None,750.0106133600002,None,750.0106133600002,None,m,0,0.7840028450000318,751.5460354220004,None,751.5460354220004,None,751.5460354220004,None,752.4106793310002,None,752.4106793310002,None,752.4106793310002,None,752.4106793310002,None,,,,,,,,,,,,,,,,,,,,,,,,,,,,,,,,,,,,,,,,,,,,001,178,2020_Feb_27_1036,spring_faces,3.1.5,60.01210660257003,
condition files/Stage1_1.xlsx,,T1,B1,c,"['c', 'm']","['Clue', 'Monopoly']","[-0.15, 0.5]","[0.15, 0.5]",1,1,,,,,,,,,0,8,8,8,0,7,7,0,,,,,,,,,,,,,,,,,,,,,,,,,,,,,,,,,,,,,,,,,,,,,,,,,,,,,,,754.3604649270001,None,754.3604649270001,None,754.3604649270001,None,c,1,1.5073163699998986,755.9107762860003,None,755.9107762860003,None,755.9107762860003,None,757.4768531200007,None,757.4768531200007,None,757.4768531200007,None,757.4768531200007,None,,,,,,,,,,,,,,,,,,,,,,,,,,,,,,,,,,,,,,,,,,,,001,178,2020_Feb_27_1036,spring_faces,3.1.5,60.01210660257003,
condition files/Stage1_2.xlsx,,B3,T4,m,"['c', 'm']","['Clue', 'Monopoly']","[-0.15, 0.5]","[0.15, 0.5]",1,1,,,,,,,,,0,9,9,9,0,0,0,6,,,,,,,,,,,,,,,,,,,,,,,,,,,,,,,,,,,,,,,,,,,,,,,,,,,,,,,759.4603230319999,None,759.4603230319999,None,759.4603230319999,None,m,1,0.5030565139995815,760.9949983670003,None,760.9949983670003,None,760.9949983670003,None,761.5623866810001,None,761.5623866810001,None,761.5623866810001,None,761.5623866810001,None,,,,,,,,,,,,,,,,,,,,,,,,,,,,,,,,,,,,,,,,,,,,001,178,2020_Feb_27_1036,spring_faces,3.1.5,60.01210660257003,
condition files/Stage1_2.xlsx,,T2,B1,c,"['c', 'm']","['Clue', 'Monopoly']","[-0.15, 0.5]","[0.15, 0.5]",1,1,,,,,,,,,0,9,9,9,0,1,1,1,,,,,,,,,,,,,,,,,,,,,,,,,,,,,,,,,,,,,,,,,,,,,,,,,,,,,,,763.5270945470002,None,763.5270945470002,None,763.5270945470002,None,c,1,0.6125086060001195,765.0775192750007,None,765.0775192750007,None,765.0775192750007,None,765.7603538840003,None,765.7603538840003,None,765.7603538840003,None,765.7603538840003,None,,,,,,,,,,,,,,,,,,,,,,,,,,,,,,,,,,,,,,,,,,,,001,178,2020_Feb_27_1036,spring_faces,3.1.5,60.01210660257003,
condition files/Stage1_2.xlsx,,T1,B2,m,"['c', 'm']","['Clue', 'Monopoly']","[-0.15, 0.5]","[0.15, 0.5]",1,1,,,,,,,,,0,9,9,9,0,2,2,2,,,,,,,,,,,,,,,,,,,,,,,,,,,,,,,,,,,,,,,,,,,,,,,,,,,,,,,767.710463597,None,767.710463597,None,767.710463597,None,c,0,0.7661920230002579,769.2438498070005,None,769.2438498070005,None,769.2438498070005,None,770.0772442710004,None,770.0772442710004,None,770.0772442710004,None,770.0772442710004,None,,,,,,,,,,,,,,,,,,,,,,,,,,,,,,,,,,,,,,,,,,,,001,178,2020_Feb_27_1036,spring_faces,3.1.5,60.01210660257003,
condition files/Stage1_2.xlsx,,B4,T3,c,"['c', 'm']","['Clue', 'Monopoly']","[-0.15, 0.5]","[0.15, 0.5]",1,1,,,,,,,,,0,9,9,9,0,3,3,5,,,,,,,,,,,,,,,,,,,,,,,,,,,,,,,,,,,,,,,,,,,,,,,,,,,,,,,772.0265690840006,None,772.0265690840006,None,772.0265690840006,None,m,0,0.4483039460001237,773.5617176989999,None,773.5617176989999,None,773.5617176989999,None,774.0774694990005,None,774.0774694990005,None,774.0774694990005,None,774.0774694990005,None,,,,,,,,,,,,,,,,,,,,,,,,,,,,,,,,,,,,,,,,,,,,001,178,2020_Feb_27_1036,spring_faces,3.1.5,60.01210660257003,
condition files/Stage1_2.xlsx,,T4,B4,m,"['c', 'm']","['Clue', 'Monopoly']","[-0.15, 0.5]","[0.15, 0.5]",1,1,,,,,,,,,0,9,9,9,0,4,4,7,,,,,,,,,,,,,,,,,,,,,,,,,,,,,,,,,,,,,,,,,,,,,,,,,,,,,,,776.0271254879999,None,776.0271254879999,None,776.0271254879999,None,m,1,0.4968801290006013,777.5771213349999,None,777.5771213349999,None,777.5771213349999,None,778.1441893380006,None,778.1441893380006,None,778.1441893380006,None,778.1441893380006,None,,,,,,,,,,,,,,,,,,,,,,,,,,,,,,,,,,,,,,,,,,,,001,178,2020_Feb_27_1036,spring_faces,3.1.5,60.01210660257003,
condition files/Stage1_2.xlsx,,B1,T1,c,"['c', 'm']","['Clue', 'Monopoly']","[-0.15, 0.5]","[0.15, 0.5]",1,1,,,,,,,,,0,9,9,9,0,5,5,0,,,,,,,,,,,,,,,,,,,,,,,,,,,,,,,,,,,,,,,,,,,,,,,,,,,,,,,780.0933404980005,None,780.0933404980005,None,780.0933404980005,None,c,1,1.293249600999843,781.6287681560007,None,781.6287681560007,None,781.6287681560007,None,782.9796509940006,None,782.9796509940006,None,782.9796509940006,None,782.9796509940006,None,,,,,,,,,,,,,,,,,,,,,,,,,,,,,,,,,,,,,,,,,,,,001,178,2020_Feb_27_1036,spring_faces,3.1.5,60.01210660257003,
condition files/Stage1_2.xlsx,,T3,B3,c,"['c', 'm']","['Clue', 'Monopoly']","[-0.15, 0.5]","[0.15, 0.5]",1,1,,,,,,,,,0,9,9,9,0,6,6,4,,,,,,,,,,,,,,,,,,,,,,,,,,,,,,,,,,,,,,,,,,,,,,,,,,,,,,,784.9437516860007,None,784.9437516860007,None,784.9437516860007,None,c,1,1.1813714479994815,786.476668196,None,786.476668196,None,786.476668196,None,787.710849913,None,787.710849913,None,787.710849913,None,787.710849913,None,,,,,,,,,,,,,,,,,,,,,,,,,,,,,,,,,,,,,,,,,,,,001,178,2020_Feb_27_1036,spring_faces,3.1.5,60.01210660257003,
condition files/Stage1_2.xlsx,,B2,T2,m,"['c', 'm']","['Clue', 'Monopoly']","[-0.15, 0.5]","[0.15, 0.5]",1,1,,,,,,,,,0,9,9,9,0,7,7,3,,,,,,,,,,,,,,,,,,,,,,,,,,,,,,,,,,,,,,,,,,,,,,,,,,,,,,,789.6770240730002,None,789.6770240730002,None,789.6770240730002,None,m,1,2.623396996000338,791.2107189620001,None,791.2107189620001,None,791.2107189620001,None,793.9101125520001,None,793.9101125520001,None,793.9101125520001,None,793.9101125520001,None,,,,,,,,,,,,,,,,,,,,,,,,,,,,,,,,,,,,,,,,,,,,001,178,2020_Feb_27_1036,spring_faces,3.1.5,60.01210660257003,
condition files/Stage1_1.xlsx,,T2,B2,m,"['c', 'm']","['Clue', 'Monopoly']","[-0.15, 0.5]","[0.15, 0.5]",1,1,,,,,,,,,0,10,10,10,0,0,0,3,,,,,,,,,,,,,,,,,,,,,,,,,,,,,,,,,,,,,,,,,,,,,,,,,,,,,,,795.8766721250004,None,795.8766721250004,None,795.8766721250004,None,m,1,1.398404028999721,797.4116391510006,None,797.4116391510006,None,797.4116391510006,None,798.8774841029999,None,798.8774841029999,None,798.8774841029999,None,798.8774841029999,None,,,,,,,,,,,,,,,,,,,,,,,,,,,,,,,,,,,,,,,,,,,,001,178,2020_Feb_27_1036,spring_faces,3.1.5,60.01210660257003,
condition files/Stage1_1.xlsx,,B1,T2,c,"['c', 'm']","['Clue', 'Monopoly']","[-0.15, 0.5]","[0.15, 0.5]",1,1,,,,,,,,,0,10,10,10,0,1,1,1,,,,,,,,,,,,,,,,,,,,,,,,,,,,,,,,,,,,,,,,,,,,,,,,,,,,,,,800.8276003500005,None,800.8276003500005,None,800.8276003500005,None,m,0,0.944089425999664,802.3619512880005,None,802.3619512880005,None,802.3619512880005,None,803.3773230040006,None,803.3773230040006,None,803.3773230040006,None,803.3773230040006,None,,,,,,,,,,,,,,,,,,,,,,,,,,,,,,,,,,,,,,,,,,,,001,178,2020_Feb_27_1036,spring_faces,3.1.5,60.01210660257003,
condition files/Stage1_1.xlsx,,B2,T1,m,"['c', 'm']","['Clue', 'Monopoly']","[-0.15, 0.5]","[0.15, 0.5]",1,1,,,,,,,,,0,10,10,10,0,2,2,2,,,,,,,,,,,,,,,,,,,,,,,,,,,,,,,,,,,,,,,,,,,,,,,,,,,,,,,805.3269310290007,None,805.3269310290007,None,805.3269310290007,None,c,0,1.037508735999836,806.8605507530001,None,806.8605507530001,None,806.8605507530001,None,807.9774651060006,None,807.9774651060006,None,807.9774651060006,None,807.9774651060006,None,,,,,,,,,,,,,,,,,,,,,,,,,,,,,,,,,,,,,,,,,,,,001,178,2020_Feb_27_1036,spring_faces,3.1.5,60.01210660257003,
condition files/Stage1_1.xlsx,,T3,B4,c,"['c', 'm']","['Clue', 'Monopoly']","[-0.15, 0.5]","[0.15, 0.5]",1,1,,,,,,,,,0,10,10,10,0,3,3,5,,,,,,,,,,,,,,,,,,,,,,,,,,,,,,,,,,,,,,,,,,,,,,,,,,,,,,,809.9270836390006,None,809.9270836390006,None,809.9270836390006,None,c,1,0.7898862410002039,811.4602264430005,None,811.4602264430005,None,811.4602264430005,None,812.3274622019999,None,812.3274622019999,None,812.3274622019999,None,812.3274622019999,None,,,,,,,,,,,,,,,,,,,,,,,,,,,,,,,,,,,,,,,,,,,,001,178,2020_Feb_27_1036,spring_faces,3.1.5,60.01210660257003,
condition files/Stage1_1.xlsx,,B4,T4,m,"['c', 'm']","['Clue', 'Monopoly']","[-0.15, 0.5]","[0.15, 0.5]",1,1,,,,,,,,,0,10,10,10,0,4,4,7,,,,,,,,,,,,,,,,,,,,,,,,,,,,,,,,,,,,,,,,,,,,,,,,,,,,,,,814.2771738700003,None,814.2771738700003,None,814.2771738700003,None,m,1,0.6948996959999931,815.811127039,None,815.811127039,None,815.811127039,None,816.576750317,None,816.576750317,None,816.576750317,None,816.576750317,None,,,,,,,,,,,,,,,,,,,,,,,,,,,,,,,,,,,,,,,,,,,,001,178,2020_Feb_27_1036,spring_faces,3.1.5,60.01210660257003,
condition files/Stage1_1.xlsx,,T4,B3,m,"['c', 'm']","['Clue', 'Monopoly']","[-0.15, 0.5]","[0.15, 0.5]",1,1,,,,,,,,,0,10,10,10,0,5,5,6,,,,,,,,,,,,,,,,,,,,,,,,,,,,,,,,,,,,,,,,,,,,,,,,,,,,,,,818.526659008,None,818.526659008,None,818.526659008,None,m,1,1.1478763839995736,820.0621670589999,None,820.0621670589999,None,820.0621670589999,None,821.2602131439999,None,821.2602131439999,None,821.2602131439999,None,821.2602131439999,None,,,,,,,,,,,,,,,,,,,,,,,,,,,,,,,,,,,,,,,,,,,,001,178,2020_Feb_27_1036,spring_faces,3.1.5,60.01210660257003,
condition files/Stage1_1.xlsx,,T1,B1,c,"['c', 'm']","['Clue', 'Monopoly']","[-0.15, 0.5]","[0.15, 0.5]",1,1,,,,,,,,,0,10,10,10,0,6,6,0,,,,,,,,,,,,,,,,,,,,,,,,,,,,,,,,,,,,,,,,,,,,,,,,,,,,,,,823.2270790920002,None,823.2270790920002,None,823.2270790920002,None,c,1,0.9760402700003397,824.7620107299999,None,824.7620107299999,None,824.7620107299999,None,825.8105781330005,None,825.8105781330005,None,825.8105781330005,None,825.8105781330005,None,,,,,,,,,,,,,,,,,,,,,,,,,,,,,,,,,,,,,,,,,,,,001,178,2020_Feb_27_1036,spring_faces,3.1.5,60.01210660257003,
condition files/Stage1_1.xlsx,,B3,T3,c,"['c', 'm']","['Clue', 'Monopoly']","[-0.15, 0.5]","[0.15, 0.5]",1,1,,,,,,,,,0,10,10,10,0,7,7,4,,,,,,,,,,,,,,,,,,,,,,,,,,,,,,,,,,,,,,,,,,,,,,,,,,,,,,,827.7605301600006,None,827.7605301600006,None,827.7605301600006,None,c,1,1.1961868629996388,829.2938255320005,None,829.2938255320005,None,829.2938255320005,None,830.5440220520004,None,830.5440220520004,None,830.5440220520004,None,830.5440220520004,None,,,,,,,,,,,,,,,,,,,,,,,,,,,,,,,,,,,,,,,,,,,,001,178,2020_Feb_27_1036,spring_faces,3.1.5,60.01210660257003,
condition files/Stage1_2.xlsx,,B1,T1,c,"['c', 'm']","['Clue', 'Monopoly']","[-0.15, 0.5]","[0.15, 0.5]",1,1,,,,,,,,,0,11,11,11,0,0,0,0,,,,,,,,,,,,,,,,,,,,,,,,,,,,,,,,,,,,,,,,,,,,,,,,,,,,,,,832.5274755230002,None,832.5274755230002,None,832.5274755230002,None,m,0,2.443152220000229,834.0628629980001,None,834.0628629980001,None,834.0628629980001,None,836.5608869500002,None,836.5608869500002,None,836.5608869500002,None,836.5608869500002,None,,,,,,,,,,,,,,,,,,,,,,,,,,,,,,,,,,,,,,,,,,,,001,178,2020_Feb_27_1036,spring_faces,3.1.5,60.01210660257003,
condition files/Stage1_2.xlsx,,T2,B1,c,"['c', 'm']","['Clue', 'Monopoly']","[-0.15, 0.5]","[0.15, 0.5]",1,1,,,,,,,,,0,11,11,11,0,1,1,1,,,,,,,,,,,,,,,,,,,,,,,,,,,,,,,,,,,,,,,,,,,,,,,,,,,,,,,838.5271505210003,None,838.5271505210003,None,838.5271505210003,None,c,1,1.3729127280003013,840.0611939,None,840.0611939,None,840.0611939,None,841.494041983,None,841.494041983,None,841.494041983,None,841.494041983,None,,,,,,,,,,,,,,,,,,,,,,,,,,,,,,,,,,,,,,,,,,,,001,178,2020_Feb_27_1036,spring_faces,3.1.5,60.01210660257003,
condition files/Stage1_2.xlsx,,T3,B3,c,"['c', 'm']","['Clue', 'Monopoly']","[-0.15, 0.5]","[0.15, 0.5]",1,1,,,,,,,,,0,11,11,11,0,2,2,4,,,,,,,,,,,,,,,,,,,,,,,,,,,,,,,,,,,,,,,,,,,,,,,,,,,,,,,843.460440488001,None,843.460440488001,None,843.460440488001,None,c,1,0.9519625030006864,844.9940887129997,None,844.9940887129997,None,844.9940887129997,None,846.011002090001,None,846.011002090001,None,846.011002090001,None,846.011002090001,None,,,,,,,,,,,,,,,,,,,,,,,,,,,,,,,,,,,,,,,,,,,,001,178,2020_Feb_27_1036,spring_faces,3.1.5,60.01210660257003,
condition files/Stage1_2.xlsx,,B2,T2,m,"['c', 'm']","['Clue', 'Monopoly']","[-0.15, 0.5]","[0.15, 0.5]",1,1,,,,,,,,,0,11,11,11,0,3,3,3,,,,,,,,,,,,,,,,,,,,,,,,,,,,,,,,,,,,,,,,,,,,,,,,,,,,,,,847.9771684790012,None,847.9771684790012,None,847.9771684790012,None,m,1,1.0745373360005033,849.5275607229996,None,849.5275607229996,None,849.5275607229996,None,850.6775029330001,None,850.6775029330001,None,850.6775029330001,None,850.6775029330001,None,,,,,,,,,,,,,,,,,,,,,,,,,,,,,,,,,,,,,,,,,,,,001,178,2020_Feb_27_1036,spring_faces,3.1.5,60.01210660257003,
condition files/Stage1_2.xlsx,,T4,B4,m,"['c', 'm']","['Clue', 'Monopoly']","[-0.15, 0.5]","[0.15, 0.5]",1,1,,,,,,,,,0,11,11,11,0,4,4,7,,,,,,,,,,,,,,,,,,,,,,,,,,,,,,,,,,,,,,,,,,,,,,,,,,,,,,,852.627326359001,None,852.627326359001,None,852.627326359001,None,m,1,0.7284966529987287,854.161503790001,None,854.161503790001,None,854.161503790001,None,854.9444326640005,None,854.9444326640005,None,854.9444326640005,None,854.9444326640005,None,,,,,,,,,,,,,,,,,,,,,,,,,,,,,,,,,,,,,,,,,,,,001,178,2020_Feb_27_1036,spring_faces,3.1.5,60.01210660257003,
condition files/Stage1_2.xlsx,,B4,T3,c,"['c', 'm']","['Clue', 'Monopoly']","[-0.15, 0.5]","[0.15, 0.5]",1,1,,,,,,,,,0,11,11,11,0,5,5,5,,,,,,,,,,,,,,,,,,,,,,,,,,,,,,,,,,,,,,,,,,,,,,,,,,,,,,,856.910664287001,None,856.910664287001,None,856.910664287001,None,c,1,1.0065401310002926,858.4435511190004,None,858.4435511190004,None,858.4435511190004,None,859.5102729419996,None,859.5102729419996,None,859.5102729419996,None,859.5102729419996,None,,,,,,,,,,,,,,,,,,,,,,,,,,,,,,,,,,,,,,,,,,,,001,178,2020_Feb_27_1036,spring_faces,3.1.5,60.01210660257003,
condition files/Stage1_2.xlsx,,B3,T4,m,"['c', 'm']","['Clue', 'Monopoly']","[-0.15, 0.5]","[0.15, 0.5]",1,1,,,,,,,,,0,11,11,11,0,6,6,6,,,,,,,,,,,,,,,,,,,,,,,,,,,,,,,,,,,,,,,,,,,,,,,,,,,,,,,861.477135606001,None,861.477135606001,None,861.477135606001,None,m,1,0.6317836439993698,863.0102697900002,None,863.0102697900002,None,863.0102697900002,None,863.6961393950005,None,863.6961393950005,None,863.6961393950005,None,863.6961393950005,None,,,,,,,,,,,,,,,,,,,,,,,,,,,,,,,,,,,,,,,,,,,,001,178,2020_Feb_27_1036,spring_faces,3.1.5,60.01210660257003,
condition files/Stage1_2.xlsx,,T1,B2,m,"['c', 'm']","['Clue', 'Monopoly']","[-0.15, 0.5]","[0.15, 0.5]",1,1,,,,,,,,,0,11,11,11,0,7,7,2,,,,,,,,,,,,,,,,,,,,,,,,,,,,,,,,,,,,,,,,,,,,,,,,,,,,,,,865.6601753200011,None,865.6601753200011,None,865.6601753200011,None,c,0,1.0552639700017608,867.2107583329998,None,867.2107583329998,None,867.2107583329998,None,868.327128455001,None,868.327128455001,None,868.327128455001,None,868.327128455001,None,,,,,,,,,,,,,,,,,,,,,,,,,,,,,,,,,,,,,,,,,,,,001,178,2020_Feb_27_1036,spring_faces,3.1.5,60.01210660257003,
,,,,,,,,,,,,,,,,,,,,,,,,,,,,,,,,,,,,,,,,,,,,,,,,,,,,,,,,,,,,,,,,,,,,,,,,,,,,,,,,,,,,,,,,,,,,,,,,,,,,,,,,,,,,,,,,870.3106879139996,None,space,5.611719260999962,875.3102704180001,None,,,,,,,,,,,,,,,,,,,,,,,,,,,,,,001,178,2020_Feb_27_1036,spring_faces,3.1.5,60.01210660257003,
condition files/Stage2_1.xlsx,,B6,T6,r,"['s', 'r']","['Stratego', 'Risk']","[-0.15, 0.5]","[0.15, 0.5]",1,1,,,,,,,,,,,,,,,,,0,0,0,0,0,0,0,1,,,,,,,,,,,,,,,,,,,,,,,,,,,,,,,,,,,,,,,,,,,,,,,880.9768352970004,None,880.9768352970004,None,880.9768352970004,None,s,0,6.475722090001,882.4943463809996,None,882.4943463809996,None,882.4943463809996,None,889.0440031390008,None,889.0440031390008,None,889.0440031390008,None,889.0440031390008,None,,,,,,,,,,,,,,,875.3102704180001,None,,,,,,,,,,,,,,,,,,,,,,,,,,,,001,178,2020_Feb_27_1036,spring_faces,3.1.5,60.01210660257003,
condition files/Stage2_1.xlsx,,T5,B5,s,"['s', 'r']","['Stratego', 'Risk']","[-0.15, 0.5]","[0.15, 0.5]",1,1,,,,,,,,,,,,,,,,,0,0,0,0,0,1,1,0,,,,,,,,,,,,,,,,,,,,,,,,,,,,,,,,,,,,,,,,,,,,,,,890.9937250269995,None,890.9937250269995,None,890.9937250269995,None,r,0,5.738765799000248,892.5272592670008,None,892.5272592670008,None,892.5272592670008,None,898.3440711929998,None,898.3440711929998,None,898.3440711929998,None,898.3440711929998,None,,,,,,,,,,,,,,,,,,,,,,,,,,,,,,,,,,,,,,,,,,,,001,178,2020_Feb_27_1036,spring_faces,3.1.5,60.01210660257003,
condition files/Stage2_1.xlsx,,T3,B3,s,"['s', 'r']","['Stratego', 'Risk']","[-0.15, 0.5]","[0.15, 0.5]",1,1,,,,,,,,,,,,,,,,,0,0,0,0,0,2,2,4,,,,,,,,,,,,,,,,,,,,,,,,,,,,,,,,,,,,,,,,,,,,,,,900.2932780600004,None,900.2932780600004,None,900.2932780600004,None,s,1,1.7966157459995884,901.829429116,None,901.829429116,None,901.829429116,None,903.6775879489996,None,903.6775879489996,None,903.6775879489996,None,903.6775879489996,None,,,,,,,,,,,,,,,,,,,,,,,,,,,,,,,,,,,,,,,,,,,,001,178,2020_Feb_27_1036,spring_faces,3.1.5,60.01210660257003,
condition files/Stage2_1.xlsx,,B4,T4,r,"['s', 'r']","['Stratego', 'Risk']","[-0.15, 0.5]","[0.15, 0.5]",1,1,,,,,,,,,,,,,,,,,0,0,0,0,0,3,3,5,,,,,,,,,,,,,,,,,,,,,,,,,,,,,,,,,,,,,,,,,,,,,,,905.6437599230012,None,905.6437599230012,None,905.6437599230012,None,r,1,5.536791983000512,907.1772643000004,None,907.1772643000004,None,907.1772643000004,None,912.7937116350004,None,912.7937116350004,None,912.7937116350004,None,912.7937116350004,None,,,,,,,,,,,,,,,,,,,,,,,,,,,,,,,,,,,,,,,,,,,,001,178,2020_Feb_27_1036,spring_faces,3.1.5,60.01210660257003,
condition files/Stage2_1.xlsx,,T1,B1,s,"['s', 'r']","['Stratego', 'Risk']","[-0.15, 0.5]","[0.15, 0.5]",1,1,,,,,,,,,,,,,,,,,0,0,0,0,0,4,4,2,,,,,,,,,,,,,,,,,,,,,,,,,,,,,,,,,,,,,,,,,,,,,,,914.7436740040012,None,914.7436740040012,None,914.7436740040012,None,s,1,1.812485211999956,916.2775744570008,None,916.2775744570008,None,916.2775744570008,None,918.1466804880001,None,918.1466804880001,None,918.1466804880001,None,918.1466804880001,None,,,,,,,,,,,,,,,,,,,,,,,,,,,,,,,,,,,,,,,,,,,,001,178,2020_Feb_27_1036,spring_faces,3.1.5,60.01210660257003,
condition files/Stage2_1.xlsx,,B2,T2,r,"['s', 'r']","['Stratego', 'Risk']","[-0.15, 0.5]","[0.15, 0.5]",1,1,,,,,,,,,,,,,,,,,0,0,0,0,0,5,5,3,,,,,,,,,,,,,,,,,,,,,,,,,,,,,,,,,,,,,,,,,,,,,,,920.1106482739997,None,920.1106482739997,None,920.1106482739997,None,r,1,0.3334165190008207,921.6606170020004,None,921.6606170020004,None,921.6606170020004,None,922.060974864,None,922.060974864,None,922.060974864,None,922.060974864,None,,,,,,,,,,,,,,,,,,,,,,,,,,,,,,,,,,,,,,,,,,,,001,178,2020_Feb_27_1036,spring_faces,3.1.5,60.01210660257003,
condition files/Stage2_2.xlsx,,B1,T1,s,"['s', 'r']","['Stratego', 'Risk']","[-0.15, 0.5]","[0.15, 0.5]",1,1,,,,,,,,,,,,,,,,,0,1,1,1,0,0,0,2,,,,,,,,,,,,,,,,,,,,,,,,,,,,,,,,,,,,,,,,,,,,,,,924.0271608830008,None,924.0271608830008,None,924.0271608830008,None,r,0,0.28945952799949737,925.5606679650009,None,925.5606679650009,None,925.5606679650009,None,925.9132563870007,None,925.9132563870007,None,925.9132563870007,None,925.9132563870007,None,,,,,,,,,,,,,,,,,,,,,,,,,,,,,,,,,,,,,,,,,,,,001,178,2020_Feb_27_1036,spring_faces,3.1.5,60.01210660257003,
condition files/Stage2_2.xlsx,,T6,B6,r,"['s', 'r']","['Stratego', 'Risk']","[-0.15, 0.5]","[0.15, 0.5]",1,1,,,,,,,,,,,,,,,,,0,1,1,1,0,1,1,1,,,,,,,,,,,,,,,,,,,,,,,,,,,,,,,,,,,,,,,,,,,,,,,927.8770663939995,None,927.8770663939995,None,927.8770663939995,None,s,0,0.11837311799899908,929.4116754429997,None,929.4116754429997,None,929.4116754429997,None,929.5960537880001,None,929.5960537880001,None,929.5960537880001,None,929.5960537880001,None,,,,,,,,,,,,,,,,,,,,,,,,,,,,,,,,,,,,,,,,,,,,001,178,2020_Feb_27_1036,spring_faces,3.1.5,60.01210660257003,
condition files/Stage2_2.xlsx,,T4,B4,r,"['s', 'r']","['Stratego', 'Risk']","[-0.15, 0.5]","[0.15, 0.5]",1,1,,,,,,,,,,,,,,,,,0,1,1,1,0,2,2,5,,,,,,,,,,,,,,,,,,,,,,,,,,,,,,,,,,,,,,,,,,,,,,,931.5606043900007,None,931.5606043900007,None,931.5606043900007,None,r,1,0.2757574070001283,933.0942912270002,None,933.0942912270002,None,933.0942912270002,None,933.427496364,None,933.427496364,None,933.427496364,None,933.427496364,None,,,,,,,,,,,,,,,,,,,,,,,,,,,,,,,,,,,,,,,,,,,,001,178,2020_Feb_27_1036,spring_faces,3.1.5,60.01210660257003,
condition files/Stage2_2.xlsx,,T2,B2,r,"['s', 'r']","['Stratego', 'Risk']","[-0.15, 0.5]","[0.15, 0.5]",1,1,,,,,,,,,,,,,,,,,0,1,1,1,0,3,3,3,,,,,,,,,,,,,,,,,,,,,,,,,,,,,,,,,,,,,,,,,,,,,,,935.393688741,None,935.393688741,None,935.393688741,None,s,0,0.2659488869994675,936.9440751300008,None,936.9440751300008,None,936.9440751300008,None,937.2610539939997,None,937.2610539939997,None,937.2610539939997,None,937.2610539939997,None,,,,,,,,,,,,,,,,,,,,,,,,,,,,,,,,,,,,,,,,,,,,001,178,2020_Feb_27_1036,spring_faces,3.1.5,60.01210660257003,
condition files/Stage2_2.xlsx,,B5,T5,s,"['s', 'r']","['Stratego', 'Risk']","[-0.15, 0.5]","[0.15, 0.5]",1,1,,,,,,,,,,,,,,,,,0,1,1,1,0,4,4,0,,,,,,,,,,,,,,,,,,,,,,,,,,,,,,,,,,,,,,,,,,,,,,,939.2273576919997,None,939.2273576919997,None,939.2273576919997,None,s,1,0.272766223999497,940.7613499700001,None,940.7613499700001,None,940.7613499700001,None,941.1106055820001,None,941.1106055820001,None,941.1106055820001,None,941.1106055820001,None,,,,,,,,,,,,,,,,,,,,,,,,,,,,,,,,,,,,,,,,,,,,001,178,2020_Feb_27_1036,spring_faces,3.1.5,60.01210660257003,
condition files/Stage2_2.xlsx,,B3,T3,s,"['s', 'r']","['Stratego', 'Risk']","[-0.15, 0.5]","[0.15, 0.5]",1,1,,,,,,,,,,,,,,,,,0,1,1,1,0,5,5,4,,,,,,,,,,,,,,,,,,,,,,,,,,,,,,,,,,,,,,,,,,,,,,,943.0602005519995,None,943.0602005519995,None,943.0602005519995,None,r,0,0.3912603429998853,944.6108374280011,None,944.6108374280011,None,944.6108374280011,None,945.0606563450001,None,945.0606563450001,None,945.0606563450001,None,945.0606563450001,None,,,,,,,,,,,,,,,,,,,,,,,,,,,,,,,,,,,,,,,,,,,,001,178,2020_Feb_27_1036,spring_faces,3.1.5,60.01210660257003,
condition files/Stage2_1.xlsx,,T5,B5,s,"['s', 'r']","['Stratego', 'Risk']","[-0.15, 0.5]","[0.15, 0.5]",1,1,,,,,,,,,,,,,,,,,0,2,2,2,0,0,0,0,,,,,,,,,,,,,,,,,,,,,,,,,,,,,,,,,,,,,,,,,,,,,,,947.0441068300006,None,947.0441068300006,None,947.0441068300006,None,s,1,0.2330290280006011,948.5769996899999,None,948.5769996899999,None,948.5769996899999,None,948.8602158530011,None,948.8602158530011,None,948.8602158530011,None,948.8602158530011,None,,,,,,,,,,,,,,,,,,,,,,,,,,,,,,,,,,,,,,,,,,,,001,178,2020_Feb_27_1036,spring_faces,3.1.5,60.01210660257003,
condition files/Stage2_1.xlsx,,T1,B1,s,"['s', 'r']","['Stratego', 'Risk']","[-0.15, 0.5]","[0.15, 0.5]",1,1,,,,,,,,,,,,,,,,,0,2,2,2,0,1,1,2,,,,,,,,,,,,,,,,,,,,,,,,,,,,,,,,,,,,,,,,,,,,,,,950.8263385680002,None,950.8263385680002,None,950.8263385680002,None,s,1,0.3699491829993349,952.3600971289998,None,952.3600971289998,None,952.3600971289998,None,952.7941245490001,None,952.7941245490001,None,952.7941245490001,None,952.7941245490001,None,,,,,,,,,,,,,,,,,,,,,,,,,,,,,,,,,,,,,,,,,,,,001,178,2020_Feb_27_1036,spring_faces,3.1.5,60.01210660257003,
condition files/Stage2_1.xlsx,,B6,T6,r,"['s', 'r']","['Stratego', 'Risk']","[-0.15, 0.5]","[0.15, 0.5]",1,1,,,,,,,,,,,,,,,,,0,2,2,2,0,2,2,1,,,,,,,,,,,,,,,,,,,,,,,,,,,,,,,,,,,,,,,,,,,,,,,954.7605988890009,None,954.7605988890009,None,954.7605988890009,None,s,0,0.4365353289995255,956.2935165930012,None,956.2935165930012,None,956.2935165930012,None,956.810931764001,None,956.810931764001,None,956.810931764001,None,956.810931764001,None,,,,,,,,,,,,,,,,,,,,,,,,,,,,,,,,,,,,,,,,,,,,001,178,2020_Feb_27_1036,spring_faces,3.1.5,60.01210660257003,
condition files/Stage2_1.xlsx,,B2,T2,r,"['s', 'r']","['Stratego', 'Risk']","[-0.15, 0.5]","[0.15, 0.5]",1,1,,,,,,,,,,,,,,,,,0,2,2,2,0,3,3,3,,,,,,,,,,,,,,,,,,,,,,,,,,,,,,,,,,,,,,,,,,,,,,,958.7606689559998,None,958.7606689559998,None,958.7606689559998,None,r,1,0.40260495099937543,960.295453005001,None,960.295453005001,None,960.295453005001,None,960.7603310840004,None,960.7603310840004,None,960.7603310840004,None,960.7603310840004,None,,,,,,,,,,,,,,,,,,,,,,,,,,,,,,,,,,,,,,,,,,,,001,178,2020_Feb_27_1036,spring_faces,3.1.5,60.01210660257003,
condition files/Stage2_1.xlsx,,B4,T4,r,"['s', 'r']","['Stratego', 'Risk']","[-0.15, 0.5]","[0.15, 0.5]",1,1,,,,,,,,,,,,,,,,,0,2,2,2,0,4,4,5,,,,,,,,,,,,,,,,,,,,,,,,,,,,,,,,,,,,,,,,,,,,,,,962.7273421419995,None,962.7273421419995,None,962.7273421419995,None,r,1,0.6294787609986088,964.2606007939994,None,964.2606007939994,None,964.2606007939994,None,964.9434475779999,None,964.9434475779999,None,964.9434475779999,None,964.9434475779999,None,,,,,,,,,,,,,,,,,,,,,,,,,,,,,,,,,,,,,,,,,,,,001,178,2020_Feb_27_1036,spring_faces,3.1.5,60.01210660257003,
condition files/Stage2_1.xlsx,,T3,B3,s,"['s', 'r']","['Stratego', 'Risk']","[-0.15, 0.5]","[0.15, 0.5]",1,1,,,,,,,,,,,,,,,,,0,2,2,2,0,5,5,4,,,,,,,,,,,,,,,,,,,,,,,,,,,,,,,,,,,,,,,,,,,,,,,966.9106452930009,None,966.9106452930009,None,966.9106452930009,None,r,0,0.36471945799894456,968.4453197109997,None,968.4453197109997,None,968.4453197109997,None,968.8629938800004,None,968.8629938800004,None,968.8629938800004,None,968.8629938800004,None,,,,,,,,,,,,,,,,,,,,,,,,,,,,,,,,,,,,,,,,,,,,001,178,2020_Feb_27_1036,spring_faces,3.1.5,60.01210660257003,
condition files/Stage2_2.xlsx,,T2,B2,r,"['s', 'r']","['Stratego', 'Risk']","[-0.15, 0.5]","[0.15, 0.5]",1,1,,,,,,,,,,,,,,,,,0,3,3,3,0,0,0,3,,,,,,,,,,,,,,,,,,,,,,,,,,,,,,,,,,,,,,,,,,,,,,,970.8442627870008,None,970.8442627870008,None,970.8442627870008,None,s,0,0.28800866900019173,972.3940424299999,None,972.3940424299999,None,972.3940424299999,None,972.746345212001,None,972.746345212001,None,972.746345212001,None,972.746345212001,None,,,,,,,,,,,,,,,,,,,,,,,,,,,,,,,,,,,,,,,,,,,,001,178,2020_Feb_27_1036,spring_faces,3.1.5,60.01210660257003,
condition files/Stage2_2.xlsx,,B3,T3,s,"['s', 'r']","['Stratego', 'Risk']","[-0.15, 0.5]","[0.15, 0.5]",1,1,,,,,,,,,,,,,,,,,0,3,3,3,0,1,1,4,,,,,,,,,,,,,,,,,,,,,,,,,,,,,,,,,,,,,,,,,,,,,,,974.7106106629999,None,974.7106106629999,None,974.7106106629999,None,r,0,0.24604399300005753,976.2440012589996,None,976.2440012589996,None,976.2440012589996,None,976.5603602009996,None,976.5603602009996,None,976.5603602009996,None,976.5603602009996,None,,,,,,,,,,,,,,,,,,,,,,,,,,,,,,,,,,,,,,,,,,,,001,178,2020_Feb_27_1036,spring_faces,3.1.5,60.01210660257003,
condition files/Stage2_2.xlsx,,T6,B6,r,"['s', 'r']","['Stratego', 'Risk']","[-0.15, 0.5]","[0.15, 0.5]",1,1,,,,,,,,,,,,,,,,,0,3,3,3,0,2,2,1,,,,,,,,,,,,,,,,,,,,,,,,,,,,,,,,,,,,,,,,,,,,,,,978.5104480190003,None,978.5104480190003,None,978.5104480190003,None,s,0,0.23757803400076227,980.0604620009999,None,980.0604620009999,None,980.0604620009999,None,980.3775621500008,None,980.3775621500008,None,980.3775621500008,None,980.3775621500008,None,,,,,,,,,,,,,,,,,,,,,,,,,,,,,,,,,,,,,,,,,,,,001,178,2020_Feb_27_1036,spring_faces,3.1.5,60.01210660257003,
condition files/Stage2_2.xlsx,,B1,T1,s,"['s', 'r']","['Stratego', 'Risk']","[-0.15, 0.5]","[0.15, 0.5]",1,1,,,,,,,,,,,,,,,,,0,3,3,3,0,3,3,2,,,,,,,,,,,,,,,,,,,,,,,,,,,,,,,,,,,,,,,,,,,,,,,982.3271467810009,None,982.3271467810009,None,982.3271467810009,None,r,0,0.8049364399994374,983.8610771599997,None,983.8610771599997,None,983.8610771599997,None,984.7294819409999,None,984.7294819409999,None,984.7294819409999,None,984.7294819409999,None,,,,,,,,,,,,,,,,,,,,,,,,,,,,,,,,,,,,,,,,,,,,001,178,2020_Feb_27_1036,spring_faces,3.1.5,60.01210660257003,
condition files/Stage2_2.xlsx,,B5,T5,s,"['s', 'r']","['Stratego', 'Risk']","[-0.15, 0.5]","[0.15, 0.5]",1,1,,,,,,,,,,,,,,,,,0,3,3,3,0,4,4,0,,,,,,,,,,,,,,,,,,,,,,,,,,,,,,,,,,,,,,,,,,,,,,,986.6937809480005,None,986.6937809480005,None,986.6937809480005,None,s,1,0.24702159899970866,988.2270260010009,None,988.2270260010009,None,988.2270260010009,None,988.5273895200007,None,988.5273895200007,None,988.5273895200007,None,988.5273895200007,None,,,,,,,,,,,,,,,,,,,,,,,,,,,,,,,,,,,,,,,,,,,,001,178,2020_Feb_27_1036,spring_faces,3.1.5,60.01210660257003,
condition files/Stage2_2.xlsx,,T4,B4,r,"['s', 'r']","['Stratego', 'Risk']","[-0.15, 0.5]","[0.15, 0.5]",1,1,,,,,,,,,,,,,,,,,0,3,3,3,0,5,5,5,,,,,,,,,,,,,,,,,,,,,,,,,,,,,,,,,,,,,,,,,,,,,,,990.4937870560007,None,990.4937870560007,None,990.4937870560007,None,s,0,0.284702496999671,992.029355050001,None,992.029355050001,None,992.029355050001,None,992.3938408909999,None,992.3938408909999,None,992.3938408909999,None,992.3938408909999,None,,,,,,,,,,,,,,,,,,,,,,,,,,,,,,,,,,,,,,,,,,,,001,178,2020_Feb_27_1036,spring_faces,3.1.5,60.01210660257003,
condition files/Stage2_1.xlsx,,T1,B1,s,"['s', 'r']","['Stratego', 'Risk']","[-0.15, 0.5]","[0.15, 0.5]",1,1,,,,,,,,,,,,,,,,,0,4,4,4,0,0,0,2,,,,,,,,,,,,,,,,,,,,,,,,,,,,,,,,,,,,,,,,,,,,,,,994.3601628730012,None,994.3601628730012,None,994.3601628730012,None,r,0,0.27636836400051834,995.8937017419994,None,995.8937017419994,None,995.8937017419994,None,996.2441756419994,None,996.2441756419994,None,996.2441756419994,None,996.2441756419994,None,,,,,,,,,,,,,,,,,,,,,,,,,,,,,,,,,,,,,,,,,,,,001,178,2020_Feb_27_1036,spring_faces,3.1.5,60.01210660257003,
condition files/Stage2_1.xlsx,,B4,T4,r,"['s', 'r']","['Stratego', 'Risk']","[-0.15, 0.5]","[0.15, 0.5]",1,1,,,,,,,,,,,,,,,,,0,4,4,4,0,1,1,5,,,,,,,,,,,,,,,,,,,,,,,,,,,,,,,,,,,,,,,,,,,,,,,998.1938590360005,None,998.1938590360005,None,998.1938590360005,None,r,1,0.6981099379991065,999.7279389779997,None,999.7279389779997,None,999.7279389779997,None,1000.4942608860001,None,1000.4942608860001,None,1000.4942608860001,None,1000.4942608860001,None,,,,,,,,,,,,,,,,,,,,,,,,,,,,,,,,,,,,,,,,,,,,001,178,2020_Feb_27_1036,spring_faces,3.1.5,60.01210660257003,
condition files/Stage2_1.xlsx,,T5,B5,s,"['s', 'r']","['Stratego', 'Risk']","[-0.15, 0.5]","[0.15, 0.5]",1,1,,,,,,,,,,,,,,,,,0,4,4,4,0,2,2,0,,,,,,,,,,,,,,,,,,,,,,,,,,,,,,,,,,,,,,,,,,,,,,,1002.4439321009995,None,1002.4439321009995,None,1002.4439321009995,None,r,0,0.366736881000179,1003.9793188269996,None,1003.9793188269996,None,1003.9793188269996,None,1004.4274654029996,None,1004.4274654029996,None,1004.4274654029996,None,1004.4274654029996,None,,,,,,,,,,,,,,,,,,,,,,,,,,,,,,,,,,,,,,,,,,,,001,178,2020_Feb_27_1036,spring_faces,3.1.5,60.01210660257003,
condition files/Stage2_1.xlsx,,B2,T2,r,"['s', 'r']","['Stratego', 'Risk']","[-0.15, 0.5]","[0.15, 0.5]",1,1,,,,,,,,,,,,,,,,,0,4,4,4,0,3,3,3,,,,,,,,,,,,,,,,,,,,,,,,,,,,,,,,,,,,,,,,,,,,,,,1006.3772859159999,None,1006.3772859159999,None,1006.3772859159999,None,s,0,0.35465142499924696,1007.9273872619997,None,1007.9273872619997,None,1007.9273872619997,None,1008.3609718629996,None,1008.3609718629996,None,1008.3609718629996,None,1008.3609718629996,None,,,,,,,,,,,,,,,,,,,,,,,,,,,,,,,,,,,,,,,,,,,,001,178,2020_Feb_27_1036,spring_faces,3.1.5,60.01210660257003,
