condsFile,subStage,cue1,cue2,correct,responseKeys,responseNames,cue1Position,cue2Position,cue1Opacity,cue2Opacity,stageLoop0.thisRepN,stageLoop0.thisTrialN,stageLoop0.thisN,stageLoop0.thisIndex,blockLoop0.thisRepN,blockLoop0.thisTrialN,blockLoop0.thisN,blockLoop0.thisIndex,stage1Loop.thisRepN,stage1Loop.thisTrialN,stage1Loop.thisN,stage1Loop.thisIndex,blockLoop1.thisRepN,blockLoop1.thisTrialN,blockLoop1.thisN,blockLoop1.thisIndex,stage2Loop.thisRepN,stage2Loop.thisTrialN,stage2Loop.thisN,stage2Loop.thisIndex,blockLoop2.thisRepN,blockLoop2.thisTrialN,blockLoop2.thisN,blockLoop2.thisIndex,testLoop.thisRepN,testLoop.thisTrialN,testLoop.thisN,testLoop.thisIndex,blockLoopTest.thisRepN,blockLoopTest.thisTrialN,blockLoopTest.thisN,blockLoopTest.thisIndex,cuePics,id_instr_text.started,id_instr_text.stopped,space_to_continue_2.started,space_to_continue_2.stopped,end_instructions_resp_3.keys,end_instructions_resp_3.rt,end_instructions_resp_3.started,end_instructions_resp_3.stopped,id_input_instr.started,id_input_instr.stopped,id_input_rect.started,id_input_rect.stopped,id_input_resp.keys,id_input_resp.rt,id_input_resp.started,id_input_resp.stopped,sonaID,id_input_text.started,id_input_text.stopped,final_text.started,final_text.stopped,instructions.started,instructions.stopped,end_instructions_resp.keys,end_instructions_resp.rt,end_instructions_resp.started,end_instructions_resp.stopped,space_to_continue.started,space_to_continue.stopped,instructions_stage0.started,instructions_stage0.stopped,end_instructions_resp_stage0.keys,end_instructions_resp_stage0.rt,end_instructions_resp_stage0.started,end_instructions_resp_stage0.stopped,space_to_continue_stage0.started,space_to_continue_stage0.stopped,text.started,text.stopped,resp_text1.started,resp_text1.stopped,resp_text2.started,resp_text2.stopped,trial_resp.keys,trial_resp.corr,trial_resp.rt,trial_resp.started,trial_resp.stopped,cue1Image.started,cue1Image.stopped,cue2Image.started,cue2Image.stopped,cue1Image_fb.started,cue1Image_fb.stopped,cue2Image_fb.started,cue2Image_fb.stopped,fb_text_answer.started,fb_text_answer.stopped,feedback_image.started,feedback_image.stopped,instructions_stage1.started,instructions_stage1.stopped,end_instructions_resp_stage1.keys,end_instructions_resp_stage1.rt,end_instructions_resp_stage1.started,end_instructions_resp_stage1.stopped,space_to_continue_stage1.started,space_to_continue_stage1.stopped,instructions_2.started,instructions_2.stopped,end_instructions_resp_2.keys,end_instructions_resp_2.rt,end_instructions_resp_2.started,end_instructions_resp_2.stopped,press_space_to_continue_stage2.started,press_space_to_continue_stage2.stopped,instructions_testStage1.started,instructions_testStage1.stopped,end_instructions_resp_test1.keys,end_instructions_resp_test1.rt,end_instructions_resp_test1.started,end_instructions_resp_test1.stopped,press_space_to_continue_test1.started,press_space_to_continue_test1.stopped,cue1Image_testChoice.started,cue1Image_testChoice.stopped,cue2Image_testChoice.started,cue2Image_testChoice.stopped,test_resp.keys,test_resp.corr,test_resp.rt,test_resp.started,test_resp.stopped,cue1Image_testConf.started,cue1Image_testConf.stopped,cue2Image_testConf.started,cue2Image_testConf.stopped,conf_reminder.started,conf_reminder.stopped,conf_rating.response,conf_rating.rt,conf_rating.started,conf_rating.stopped,session,participant,date,expName,psychopyVersion,frameRate,
,,,,,,,,,,,,,,,,,,,,,,,,,,,,,,,,,,,,,,,,,,,"{'none': 'pictures/20M_AN_C.png', 'alpha': 'pictures/SHINEd_pepper.png', 'beta': 'pictures/SHINEd_apple.png', 'theta': 'pictures/SHINEd_melon.png', 'phi': 'pictures/SHINEd_pear.png', 'T1': 'pictures/22M_AN_C.png', 'T2': 'pictures/38M_AN_C.png', 'T3': 'pictures/37M_AN_C.png', 'T4': 'pictures/33M_AN_C.png', 'T5': 'pictures/36M_AN_C.png', 'T6': 'pictures/26M_AN_C.png', 'B1': 'pictures/32M_NE_C.png', 'B2': 'pictures/23M_NE_C.png', 'B3': 'pictures/34M_NE_C.png', 'B4': 'pictures/20M_NE_C.png', 'B5': 'pictures/31M_NE_C.png', 'B6': 'pictures/25M_NE_C.png'}",15.817162526000175,None,20.800624747000256,None,space,8.775076472000364,20.800624747000256,None,,,,,,,,,,,,,,,,,,,,,,,,,,,,,,,,,,,,,,,,,,,,,,,,,,,,,,,,,,,,,,,,,,,,,,,,,,,,,,,,,,,,,,,,,,,,,,,,001,18,2020_Jan_28_1458,spring_faces,3.1.5,60.05845561437907,
,,,,,,,,,,,,,,,,,,,,,,,,,,,,,,,,,,,,,,,,,,,,,,,,,,,,29.98438752400034,None,29.98438752400034,None,"['k', 'i', 'backspace', 'backspace', '1', '1', '2', '5', 'k', 'i', 'l', 'i', 't']","[25.623290636998718, 26.471278280998376, 28.551189547997637, 28.695207160999416, 36.34330708199923, 36.63125099899844, 37.43125255400082, 37.79926140899988, 38.51924320999751, 41.03125392899892, 41.57530801299799, 41.73521858499953, 41.95925283699762]",29.98438752400034,None,,,,,,,,,,,,,,,,,,,,,,,,,,,,,,,,,,,,,,,,,,,,,,,,,,,,,,,,,,,,,,,,,,,,,,,,,,,,,,,,,,,,,,,,001,18,2020_Jan_28_1458,spring_faces,3.1.5,60.05845561437907,
,,,,,,,,,,,,,,,,,,,,,,,,,,,,,,,,,,,,,,,,,,,,,,,,,,,,,,,,,,,,1125kilit,29.98438752400034,None,29.98438752400034,None,77.01736770799835,None,space,4.758104176999041,82.01757354899746,None,,,,,,,,,,,,,,,,,,,,,,,,,,,,,,,,,,,,,,,,,,,,,,,,,,,,,,,,,,,,,,,,,,,,,,,,,,,,,001,18,2020_Jan_28_1458,spring_faces,3.1.5,60.05845561437907,
,,,,,,,,,,,,,,,,,,,,,,,,,,,,,,,,,,,,,,,,,,,,,,,,,,,,,,,,,,,,,,,,,,,,,,,82.01757354899746,None,86.81722720899779,None,space,5.390800902998308,91.80090553499758,None,,,,,,,,,,,,,,,,,,,,,,,,,,,,,,,,,,,,,,,,,,,,,,,,,,,,,,,,,,,,,,,,,,,,,001,18,2020_Jan_28_1458,spring_faces,3.1.5,60.05845561437907,
condition files/Stage0a.xlsx,0a,beta,none,g,"['h', 'g']","['Chess', 'Go']","[0, 0.5]","[0, 0]",1,0,0,0,0,0,0,0,0,1,,,,,,,,,,,,,,,,,,,,,,,,,,,,,,,,,,,,,,,,,,,,,,,,,,,,,,,,,,,,,91.80090553499758,None,97.25068916999953,None,97.25068916999953,None,97.25068916999953,None,h,0,6.928326687000663,98.9353216519994,None,98.9353216519994,None,98.9353216519994,None,105.93383351000011,None,105.93383351000011,None,105.93383351000011,None,105.93383351000011,None,,,,,,,,,,,,,,,,,,,,,,,,,,,,,,,,,,,,,,,,,,,,001,18,2020_Jan_28_1458,spring_faces,3.1.5,60.05845561437907,
condition files/Stage0a.xlsx,0a,alpha,none,h,"['h', 'g']","['Chess', 'Go']","[0, 0.5]","[0, 0]",1,0,0,0,0,0,0,1,1,0,,,,,,,,,,,,,,,,,,,,,,,,,,,,,,,,,,,,,,,,,,,,,,,,,,,,,,,,,,,,,,,107.8839369189991,None,107.8839369189991,None,107.8839369189991,None,h,1,1.437048400999629,109.43460107200008,None,109.43460107200008,None,109.43460107200008,None,110.95023476099959,None,110.95023476099959,None,110.95023476099959,None,110.95023476099959,None,,,,,,,,,,,,,,,,,,,,,,,,,,,,,,,,,,,,,,,,,,,,001,18,2020_Jan_28_1458,spring_faces,3.1.5,60.05845561437907,
condition files/Stage0a.xlsx,0a,alpha,none,h,"['h', 'g']","['Chess', 'Go']","[0, 0.5]","[0, 0]",1,0,0,1,1,1,0,0,0,0,,,,,,,,,,,,,,,,,,,,,,,,,,,,,,,,,,,,,,,,,,,,,,,,,,,,,,,,,,,,,,,112.91726544300036,None,112.91726544300036,None,112.91726544300036,None,h,1,0.7899941739997303,114.43368699299754,None,114.43368699299754,None,114.43368699299754,None,115.28437037599724,None,115.28437037599724,None,115.28437037599724,None,115.28437037599724,None,,,,,,,,,,,,,,,,,,,,,,,,,,,,,,,,,,,,,,,,,,,,001,18,2020_Jan_28_1458,spring_faces,3.1.5,60.05845561437907,
condition files/Stage0a.xlsx,0a,beta,none,g,"['h', 'g']","['Chess', 'Go']","[0, 0.5]","[0, 0]",1,0,0,1,1,1,0,1,1,1,,,,,,,,,,,,,,,,,,,,,,,,,,,,,,,,,,,,,,,,,,,,,,,,,,,,,,,,,,,,,,,117.25062064899976,None,117.25062064899976,None,117.25062064899976,None,g,1,0.999340474998462,118.7843055049998,None,118.7843055049998,None,118.7843055049998,None,119.83419355399747,None,119.83419355399747,None,119.83419355399747,None,119.83419355399747,None,,,,,,,,,,,,,,,,,,,,,,,,,,,,,,,,,,,,,,,,,,,,001,18,2020_Jan_28_1458,spring_faces,3.1.5,60.05845561437907,
condition files/Stage0a.xlsx,0a,beta,none,g,"['h', 'g']","['Chess', 'Go']","[0, 0.5]","[0, 0]",1,0,0,2,2,2,0,0,0,1,,,,,,,,,,,,,,,,,,,,,,,,,,,,,,,,,,,,,,,,,,,,,,,,,,,,,,,,,,,,,,,121.81756022599802,None,121.81756022599802,None,121.81756022599802,None,g,1,0.6883027930016397,123.35135805000027,None,123.35135805000027,None,123.35135805000027,None,124.1007763589987,None,124.1007763589987,None,124.1007763589987,None,124.1007763589987,None,,,,,,,,,,,,,,,,,,,,,,,,,,,,,,,,,,,,,,,,,,,,001,18,2020_Jan_28_1458,spring_faces,3.1.5,60.05845561437907,
condition files/Stage0a.xlsx,0a,alpha,none,h,"['h', 'g']","['Chess', 'Go']","[0, 0.5]","[0, 0]",1,0,0,2,2,2,0,1,1,0,,,,,,,,,,,,,,,,,,,,,,,,,,,,,,,,,,,,,,,,,,,,,,,,,,,,,,,,,,,,,,,126.06747761899896,None,126.06747761899896,None,126.06747761899896,None,h,1,0.5024702289993002,127.60119035599928,None,127.60119035599928,None,127.60119035599928,None,128.16699345499728,None,128.16699345499728,None,128.16699345499728,None,128.16699345499728,None,,,,,,,,,,,,,,,,,,,,,,,,,,,,,,,,,,,,,,,,,,,,001,18,2020_Jan_28_1458,spring_faces,3.1.5,60.05845561437907,
condition files/Stage0a.xlsx,0a,alpha,none,h,"['h', 'g']","['Chess', 'Go']","[0, 0.5]","[0, 0]",1,0,0,3,3,3,0,0,0,0,,,,,,,,,,,,,,,,,,,,,,,,,,,,,,,,,,,,,,,,,,,,,,,,,,,,,,,,,,,,,,,130.15107582699784,None,130.15107582699784,None,130.15107582699784,None,h,1,0.7876734359997499,131.68399472999954,None,131.68399472999954,None,131.68399472999954,None,132.53385503099707,None,132.53385503099707,None,132.53385503099707,None,132.53385503099707,None,,,,,,,,,,,,,,,,,,,,,,,,,,,,,,,,,,,,,,,,,,,,001,18,2020_Jan_28_1458,spring_faces,3.1.5,60.05845561437907,
condition files/Stage0a.xlsx,0a,beta,none,g,"['h', 'g']","['Chess', 'Go']","[0, 0.5]","[0, 0]",1,0,0,3,3,3,0,1,1,1,,,,,,,,,,,,,,,,,,,,,,,,,,,,,,,,,,,,,,,,,,,,,,,,,,,,,,,,,,,,,,,134.5005669969978,None,134.5005669969978,None,134.5005669969978,None,g,1,0.4691469160025008,136.03450602199882,None,136.03450602199882,None,136.03450602199882,None,136.56703664099769,None,136.56703664099769,None,136.56703664099769,None,136.56703664099769,None,,,,,,,,,,,,,,,,,,,,,,,,,,,,,,,,,,,,,,,,,,,,001,18,2020_Jan_28_1458,spring_faces,3.1.5,60.05845561437907,
condition files/Stage0a.xlsx,0a,alpha,none,h,"['h', 'g']","['Chess', 'Go']","[0, 0.5]","[0, 0]",1,0,0,4,4,4,0,0,0,0,,,,,,,,,,,,,,,,,,,,,,,,,,,,,,,,,,,,,,,,,,,,,,,,,,,,,,,,,,,,,,,138.55099280299692,None,138.55099280299692,None,138.55099280299692,None,h,1,0.5958648000014364,140.08379829099795,None,140.08379829099795,None,140.08379829099795,None,140.7340208429996,None,140.7340208429996,None,140.7340208429996,None,140.7340208429996,None,,,,,,,,,,,,,,,,,,,,,,,,,,,,,,,,,,,,,,,,,,,,001,18,2020_Jan_28_1458,spring_faces,3.1.5,60.05845561437907,
condition files/Stage0a.xlsx,0a,beta,none,g,"['h', 'g']","['Chess', 'Go']","[0, 0.5]","[0, 0]",1,0,0,4,4,4,0,1,1,1,,,,,,,,,,,,,,,,,,,,,,,,,,,,,,,,,,,,,,,,,,,,,,,,,,,,,,,,,,,,,,,142.70065147499918,None,142.70065147499918,None,142.70065147499918,None,g,1,0.6347433779992571,144.23691457099994,None,144.23691457099994,None,144.23691457099994,None,144.93398419599907,None,144.93398419599907,None,144.93398419599907,None,144.93398419599907,None,,,,,,,,,,,,,,,,,,,,,,,,,,,,,,,,,,,,,,,,,,,,001,18,2020_Jan_28_1458,spring_faces,3.1.5,60.05845561437907,
condition files/Stage0a.xlsx,0a,alpha,none,h,"['h', 'g']","['Chess', 'Go']","[0, 0.5]","[0, 0]",1,0,0,5,5,5,0,0,0,0,,,,,,,,,,,,,,,,,,,,,,,,,,,,,,,,,,,,,,,,,,,,,,,,,,,,,,,,,,,,,,,146.91719368899794,None,146.91719368899794,None,146.91719368899794,None,h,1,0.42123492099926807,148.45046270300008,None,148.45046270300008,None,148.45046270300008,None,148.93389875299908,None,148.93389875299908,None,148.93389875299908,None,148.93389875299908,None,,,,,,,,,,,,,,,,,,,,,,,,,,,,,,,,,,,,,,,,,,,,001,18,2020_Jan_28_1458,spring_faces,3.1.5,60.05845561437907,
condition files/Stage0a.xlsx,0a,beta,none,g,"['h', 'g']","['Chess', 'Go']","[0, 0.5]","[0, 0]",1,0,0,5,5,5,0,1,1,1,,,,,,,,,,,,,,,,,,,,,,,,,,,,,,,,,,,,,,,,,,,,,,,,,,,,,,,,,,,,,,,150.90080516299713,None,150.90080516299713,None,150.90080516299713,None,g,1,0.5489661419996992,152.43469567499778,None,152.43469567499778,None,152.43469567499778,None,153.0342014609996,None,153.0342014609996,None,153.0342014609996,None,153.0342014609996,None,,,,,,,,,,,,,,,,,,,,,,,,,,,,,,,,,,,,,,,,,,,,001,18,2020_Jan_28_1458,spring_faces,3.1.5,60.05845561437907,
condition files/Stage0b_1.xlsx,0b,none,beta,g,"['h', 'g']","['Chess', 'Go']","[-0.15, 0.5]","[0.15, 0.5]",0,1,0,6,6,6,0,0,0,1,,,,,,,,,,,,,,,,,,,,,,,,,,,,,,,,,,,,,,,,,,,,,,,,,,,,,,,,,,,,,,,155.0175949919976,None,155.0175949919976,None,155.0175949919976,None,g,1,0.6719127260003006,156.56777215699913,None,156.56777215699913,None,156.56777215699913,None,157.30345959899932,None,157.30345959899932,None,157.30345959899932,None,157.30345959899932,None,,,,,,,,,,,,,,,,,,,,,,,,,,,,,,,,,,,,,,,,,,,,001,18,2020_Jan_28_1458,spring_faces,3.1.5,60.05845561437907,
condition files/Stage0b_1.xlsx,0b,alpha,none,h,"['h', 'g']","['Chess', 'Go']","[-0.15, 0.5]","[0.15, 0.5]",1,0,0,6,6,6,0,1,1,0,,,,,,,,,,,,,,,,,,,,,,,,,,,,,,,,,,,,,,,,,,,,,,,,,,,,,,,,,,,,,,,159.26739964899753,None,159.26739964899753,None,159.26739964899753,None,h,1,0.5944296489979024,160.8051976809984,None,160.8051976809984,None,160.8051976809984,None,161.45263230099954,None,161.45263230099954,None,161.45263230099954,None,161.45263230099954,None,,,,,,,,,,,,,,,,,,,,,,,,,,,,,,,,,,,,,,,,,,,,001,18,2020_Jan_28_1458,spring_faces,3.1.5,60.05845561437907,
condition files/Stage0b_2.xlsx,0b,none,alpha,h,"['h', 'g']","['Chess', 'Go']","[-0.15, 0.5]","[0.15, 0.5]",0,1,0,7,7,7,0,0,0,0,,,,,,,,,,,,,,,,,,,,,,,,,,,,,,,,,,,,,,,,,,,,,,,,,,,,,,,,,,,,,,,163.43370382300054,None,163.43370382300054,None,163.43370382300054,None,h,1,0.7000630610018561,164.97162599699732,None,164.97162599699732,None,164.97162599699732,None,165.73399917799907,None,165.73399917799907,None,165.73399917799907,None,165.73399917799907,None,,,,,,,,,,,,,,,,,,,,,,,,,,,,,,,,,,,,,,,,,,,,001,18,2020_Jan_28_1458,spring_faces,3.1.5,60.05845561437907,
condition files/Stage0b_2.xlsx,0b,beta,none,g,"['h', 'g']","['Chess', 'Go']","[-0.15, 0.5]","[0.15, 0.5]",1,0,0,7,7,7,0,1,1,1,,,,,,,,,,,,,,,,,,,,,,,,,,,,,,,,,,,,,,,,,,,,,,,,,,,,,,,,,,,,,,,167.69991685199784,None,167.69991685199784,None,167.69991685199784,None,g,1,0.5774419879999186,169.23819024199838,None,169.23819024199838,None,169.23819024199838,None,169.86874396299754,None,169.86874396299754,None,169.86874396299754,None,169.86874396299754,None,,,,,,,,,,,,,,,,,,,,,,,,,,,,,,,,,,,,,,,,,,,,001,18,2020_Jan_28_1458,spring_faces,3.1.5,60.05845561437907,
condition files/Stage0b_1.xlsx,0b,alpha,none,h,"['h', 'g']","['Chess', 'Go']","[-0.15, 0.5]","[0.15, 0.5]",1,0,0,8,8,8,0,0,0,0,,,,,,,,,,,,,,,,,,,,,,,,,,,,,,,,,,,,,,,,,,,,,,,,,,,,,,,,,,,,,,,171.85089735499787,None,171.85089735499787,None,171.85089735499787,None,h,1,0.5915077999998175,173.38421192500027,None,173.38421192500027,None,173.38421192500027,None,174.03379913800018,None,174.03379913800018,None,174.03379913800018,None,174.03379913800018,None,,,,,,,,,,,,,,,,,,,,,,,,,,,,,,,,,,,,,,,,,,,,001,18,2020_Jan_28_1458,spring_faces,3.1.5,60.05845561437907,
condition files/Stage0b_1.xlsx,0b,none,beta,g,"['h', 'g']","['Chess', 'Go']","[-0.15, 0.5]","[0.15, 0.5]",0,1,0,8,8,8,0,1,1,1,,,,,,,,,,,,,,,,,,,,,,,,,,,,,,,,,,,,,,,,,,,,,,,,,,,,,,,,,,,,,,,176.00063685699934,None,176.00063685699934,None,176.00063685699934,None,g,1,0.5975528310009395,177.5380234969998,None,177.5380234969998,None,177.5380234969998,None,178.21755874599694,None,178.21755874599694,None,178.21755874599694,None,178.21755874599694,None,,,,,,,,,,,,,,,,,,,,,,,,,,,,,,,,,,,,,,,,,,,,001,18,2020_Jan_28_1458,spring_faces,3.1.5,60.05845561437907,
condition files/Stage0b_2.xlsx,0b,beta,none,g,"['h', 'g']","['Chess', 'Go']","[-0.15, 0.5]","[0.15, 0.5]",1,0,0,9,9,9,0,0,0,1,,,,,,,,,,,,,,,,,,,,,,,,,,,,,,,,,,,,,,,,,,,,,,,,,,,,,,,,,,,,,,,180.1836037159992,None,180.1836037159992,None,180.1836037159992,None,g,1,0.622353042002942,181.721307885,None,181.721307885,None,181.721307885,None,182.4007292819988,None,182.4007292819988,None,182.4007292819988,None,182.4007292819988,None,,,,,,,,,,,,,,,,,,,,,,,,,,,,,,,,,,,,,,,,,,,,001,18,2020_Jan_28_1458,spring_faces,3.1.5,60.05845561437907,
condition files/Stage0b_2.xlsx,0b,none,alpha,h,"['h', 'g']","['Chess', 'Go']","[-0.15, 0.5]","[0.15, 0.5]",0,1,0,9,9,9,0,1,1,0,,,,,,,,,,,,,,,,,,,,,,,,,,,,,,,,,,,,,,,,,,,,,,,,,,,,,,,,,,,,,,,184.36732199700054,None,184.36732199700054,None,184.36732199700054,None,h,1,0.4743404250002641,185.90135800799908,None,185.90135800799908,None,185.90135800799908,None,186.43562715999724,None,186.43562715999724,None,186.43562715999724,None,186.43562715999724,None,,,,,,,,,,,,,,,,,,,,,,,,,,,,,,,,,,,,,,,,,,,,001,18,2020_Jan_28_1458,spring_faces,3.1.5,60.05845561437907,
condition files/Stage0b_1.xlsx,0b,alpha,none,h,"['h', 'g']","['Chess', 'Go']","[-0.15, 0.5]","[0.15, 0.5]",1,0,0,10,10,10,0,0,0,0,,,,,,,,,,,,,,,,,,,,,,,,,,,,,,,,,,,,,,,,,,,,,,,,,,,,,,,,,,,,,,,188.41716906999864,None,188.41716906999864,None,188.41716906999864,None,h,1,0.7551468020028551,189.95648399699712,None,189.95648399699712,None,189.95648399699712,None,190.76724471699708,None,190.76724471699708,None,190.76724471699708,None,190.76724471699708,None,,,,,,,,,,,,,,,,,,,,,,,,,,,,,,,,,,,,,,,,,,,,001,18,2020_Jan_28_1458,spring_faces,3.1.5,60.05845561437907,
condition files/Stage0b_1.xlsx,0b,none,beta,g,"['h', 'g']","['Chess', 'Go']","[-0.15, 0.5]","[0.15, 0.5]",0,1,0,10,10,10,0,1,1,1,,,,,,,,,,,,,,,,,,,,,,,,,,,,,,,,,,,,,,,,,,,,,,,,,,,,,,,,,,,,,,,192.7341970439993,None,192.7341970439993,None,192.7341970439993,None,g,1,0.6981859959996655,194.26946563399906,None,194.26946563399906,None,194.26946563399906,None,195.02282132799883,None,195.02282132799883,None,195.02282132799883,None,195.02282132799883,None,,,,,,,,,,,,,,,,,,,,,,,,,,,,,,,,,,,,,,,,,,,,001,18,2020_Jan_28_1458,spring_faces,3.1.5,60.05845561437907,
condition files/Stage0b_2.xlsx,0b,none,alpha,h,"['h', 'g']","['Chess', 'Go']","[-0.15, 0.5]","[0.15, 0.5]",0,1,0,11,11,11,0,0,0,0,,,,,,,,,,,,,,,,,,,,,,,,,,,,,,,,,,,,,,,,,,,,,,,,,,,,,,,,,,,,,,,197.00088789299843,None,197.00088789299843,None,197.00088789299843,None,h,1,0.5773261860013008,198.53424842700042,None,198.53424842700042,None,198.53424842700042,None,199.16643995499908,None,199.16643995499908,None,199.16643995499908,None,199.16643995499908,None,,,,,,,,,,,,,,,,,,,,,,,,,,,,,,,,,,,,,,,,,,,,001,18,2020_Jan_28_1458,spring_faces,3.1.5,60.05845561437907,
condition files/Stage0b_2.xlsx,0b,beta,none,g,"['h', 'g']","['Chess', 'Go']","[-0.15, 0.5]","[0.15, 0.5]",1,0,0,11,11,11,0,1,1,1,,,,,,,,,,,,,,,,,,,,,,,,,,,,,,,,,,,,,,,,,,,,,,,,,,,,,,,,,,,,,,,201.13393963499766,None,201.13393963499766,None,201.13393963499766,None,g,1,0.6513130999992427,202.68427597799746,None,202.68427597799746,None,202.68427597799746,None,203.40319033599735,None,203.40319033599735,None,203.40319033599735,None,203.40319033599735,None,,,,,,,,,,,,,,,,,,,,,,,,,,,,,,,,,,,,,,,,,,,,001,18,2020_Jan_28_1458,spring_faces,3.1.5,60.05845561437907,
condition files/Stage0c_1.xlsx,0c,theta,alpha,h,"['h', 'g']","['Chess', 'Go']","[-0.15, 0.5]","[0.15, 0.5]",1,1,0,12,12,12,0,0,0,0,,,,,,,,,,,,,,,,,,,,,,,,,,,,,,,,,,,,,,,,,,,,,,,,,,,,,,,,,,,,,,,205.3841223039999,None,205.3841223039999,None,205.3841223039999,None,h,1,1.8101597630011383,206.9175527849984,None,206.9175527849984,None,206.9175527849984,None,208.78414568199878,None,208.78414568199878,None,208.78414568199878,None,208.78414568199878,None,,,,,,,,,,,,,,,,,,,,,,,,,,,,,,,,,,,,,,,,,,,,001,18,2020_Jan_28_1458,spring_faces,3.1.5,60.05845561437907,
condition files/Stage0c_1.xlsx,0c,alpha,phi,h,"['h', 'g']","['Chess', 'Go']","[-0.15, 0.5]","[0.15, 0.5]",1,1,0,12,12,12,0,1,1,1,,,,,,,,,,,,,,,,,,,,,,,,,,,,,,,,,,,,,,,,,,,,,,,,,,,,,,,,,,,,,,,210.7508248999984,None,210.7508248999984,None,210.7508248999984,None,h,1,1.2593829990000813,212.28424195999833,None,212.28424195999833,None,212.28424195999833,None,213.60098360199845,None,213.60098360199845,None,213.60098360199845,None,213.60098360199845,None,,,,,,,,,,,,,,,,,,,,,,,,,,,,,,,,,,,,,,,,,,,,001,18,2020_Jan_28_1458,spring_faces,3.1.5,60.05845561437907,
condition files/Stage0c_1.xlsx,0c,beta,theta,g,"['h', 'g']","['Chess', 'Go']","[-0.15, 0.5]","[0.15, 0.5]",1,1,0,12,12,12,0,2,2,2,,,,,,,,,,,,,,,,,,,,,,,,,,,,,,,,,,,,,,,,,,,,,,,,,,,,,,,,,,,,,,,215.56668478899883,None,215.56668478899883,None,215.56668478899883,None,g,1,2.5553861989974394,217.100311659,None,217.100311659,None,217.100311659,None,219.7173383349982,None,219.7173383349982,None,219.7173383349982,None,219.7173383349982,None,,,,,,,,,,,,,,,,,,,,,,,,,,,,,,,,,,,,,,,,,,,,001,18,2020_Jan_28_1458,spring_faces,3.1.5,60.05845561437907,
condition files/Stage0c_1.xlsx,0c,phi,beta,g,"['h', 'g']","['Chess', 'Go']","[-0.15, 0.5]","[0.15, 0.5]",1,1,0,12,12,12,0,3,3,3,,,,,,,,,,,,,,,,,,,,,,,,,,,,,,,,,,,,,,,,,,,,,,,,,,,,,,,,,,,,,,,221.68399159899855,None,221.68399159899855,None,221.68399159899855,None,g,1,1.0618245389996446,223.21779011000035,None,223.21779011000035,None,223.21779011000035,None,224.31863480799802,None,224.31863480799802,None,224.31863480799802,None,224.31863480799802,None,,,,,,,,,,,,,,,,,,,,,,,,,,,,,,,,,,,,,,,,,,,,001,18,2020_Jan_28_1458,spring_faces,3.1.5,60.05845561437907,
condition files/Stage0c_2.xlsx,0c,beta,phi,g,"['h', 'g']","['Chess', 'Go']","[-0.15, 0.5]","[0.15, 0.5]",1,1,0,13,13,13,0,0,0,3,,,,,,,,,,,,,,,,,,,,,,,,,,,,,,,,,,,,,,,,,,,,,,,,,,,,,,,,,,,,,,,226.31744715899913,None,226.31744715899913,None,226.31744715899913,None,g,1,0.8291862049991323,227.85038809399703,None,227.85038809399703,None,227.85038809399703,None,228.7193447159989,None,228.7193447159989,None,228.7193447159989,None,228.7193447159989,None,,,,,,,,,,,,,,,,,,,,,,,,,,,,,,,,,,,,,,,,,,,,001,18,2020_Jan_28_1458,spring_faces,3.1.5,60.05845561437907,
condition files/Stage0c_2.xlsx,0c,phi,alpha,h,"['h', 'g']","['Chess', 'Go']","[-0.15, 0.5]","[0.15, 0.5]",1,1,0,13,13,13,0,1,1,1,,,,,,,,,,,,,,,,,,,,,,,,,,,,,,,,,,,,,,,,,,,,,,,,,,,,,,,,,,,,,,,230.70093583799826,None,230.70093583799826,None,230.70093583799826,None,h,1,0.7814279979975254,232.2342104959971,None,232.2342104959971,None,232.2342104959971,None,233.0675901809991,None,233.0675901809991,None,233.0675901809991,None,233.0675901809991,None,,,,,,,,,,,,,,,,,,,,,,,,,,,,,,,,,,,,,,,,,,,,001,18,2020_Jan_28_1458,spring_faces,3.1.5,60.05845561437907,
condition files/Stage0c_2.xlsx,0c,alpha,theta,h,"['h', 'g']","['Chess', 'Go']","[-0.15, 0.5]","[0.15, 0.5]",1,1,0,13,13,13,0,2,2,0,,,,,,,,,,,,,,,,,,,,,,,,,,,,,,,,,,,,,,,,,,,,,,,,,,,,,,,,,,,,,,,235.0339943250001,None,235.0339943250001,None,235.0339943250001,None,h,1,0.5760908769989328,236.5675561600001,None,236.5675561600001,None,236.5675561600001,None,237.18451295299747,None,237.18451295299747,None,237.18451295299747,None,237.18451295299747,None,,,,,,,,,,,,,,,,,,,,,,,,,,,,,,,,,,,,,,,,,,,,001,18,2020_Jan_28_1458,spring_faces,3.1.5,60.05845561437907,
condition files/Stage0c_2.xlsx,0c,theta,beta,g,"['h', 'g']","['Chess', 'Go']","[-0.15, 0.5]","[0.15, 0.5]",1,1,0,13,13,13,0,3,3,2,,,,,,,,,,,,,,,,,,,,,,,,,,,,,,,,,,,,,,,,,,,,,,,,,,,,,,,,,,,,,,,239.16739572799997,None,239.16739572799997,None,239.16739572799997,None,g,1,1.2588041859999066,240.70089726899823,None,240.70089726899823,None,240.70089726899823,None,242.01762620299996,None,242.01762620299996,None,242.01762620299996,None,242.01762620299996,None,,,,,,,,,,,,,,,,,,,,,,,,,,,,,,,,,,,,,,,,,,,,001,18,2020_Jan_28_1458,spring_faces,3.1.5,60.05845561437907,
condition files/Stage0c_1.xlsx,0c,phi,beta,g,"['h', 'g']","['Chess', 'Go']","[-0.15, 0.5]","[0.15, 0.5]",1,1,0,14,14,14,0,0,0,3,,,,,,,,,,,,,,,,,,,,,,,,,,,,,,,,,,,,,,,,,,,,,,,,,,,,,,,,,,,,,,,244.00082109999857,None,244.00082109999857,None,244.00082109999857,None,h,0,0.6817682059991057,245.53388812199773,None,245.53388812199773,None,245.53388812199773,None,246.2677678149994,None,246.2677678149994,None,246.2677678149994,None,246.2677678149994,None,,,,,,,,,,,,,,,,,,,,,,,,,,,,,,,,,,,,,,,,,,,,001,18,2020_Jan_28_1458,spring_faces,3.1.5,60.05845561437907,
condition files/Stage0c_1.xlsx,0c,theta,alpha,h,"['h', 'g']","['Chess', 'Go']","[-0.15, 0.5]","[0.15, 0.5]",1,1,0,14,14,14,0,1,1,0,,,,,,,,,,,,,,,,,,,,,,,,,,,,,,,,,,,,,,,,,,,,,,,,,,,,,,,,,,,,,,,248.23338830799912,None,248.23338830799912,None,248.23338830799912,None,h,1,0.8161233909995644,249.76751670299927,None,249.76751670299927,None,249.76751670299927,None,250.634254487999,None,250.634254487999,None,250.634254487999,None,250.634254487999,None,,,,,,,,,,,,,,,,,,,,,,,,,,,,,,,,,,,,,,,,,,,,001,18,2020_Jan_28_1458,spring_faces,3.1.5,60.05845561437907,
condition files/Stage0c_1.xlsx,0c,beta,theta,g,"['h', 'g']","['Chess', 'Go']","[-0.15, 0.5]","[0.15, 0.5]",1,1,0,14,14,14,0,2,2,2,,,,,,,,,,,,,,,,,,,,,,,,,,,,,,,,,,,,,,,,,,,,,,,,,,,,,,,,,,,,,,,252.60005236099823,None,252.60005236099823,None,252.60005236099823,None,g,1,0.7699640110004111,254.13368870799968,None,254.13368870799968,None,254.13368870799968,None,254.9673466489985,None,254.9673466489985,None,254.9673466489985,None,254.9673466489985,None,,,,,,,,,,,,,,,,,,,,,,,,,,,,,,,,,,,,,,,,,,,,001,18,2020_Jan_28_1458,spring_faces,3.1.5,60.05845561437907,
condition files/Stage0c_1.xlsx,0c,alpha,phi,h,"['h', 'g']","['Chess', 'Go']","[-0.15, 0.5]","[0.15, 0.5]",1,1,0,14,14,14,0,3,3,1,,,,,,,,,,,,,,,,,,,,,,,,,,,,,,,,,,,,,,,,,,,,,,,,,,,,,,,,,,,,,,,256.93393853999805,None,256.93393853999805,None,256.93393853999805,None,h,1,0.7242551659983292,258.46744000099716,None,258.46744000099716,None,258.46744000099716,None,259.2506543119998,None,259.2506543119998,None,259.2506543119998,None,259.2506543119998,None,,,,,,,,,,,,,,,,,,,,,,,,,,,,,,,,,,,,,,,,,,,,001,18,2020_Jan_28_1458,spring_faces,3.1.5,60.05845561437907,
condition files/Stage0c_2.xlsx,0c,phi,alpha,h,"['h', 'g']","['Chess', 'Go']","[-0.15, 0.5]","[0.15, 0.5]",1,1,0,15,15,15,0,0,0,1,,,,,,,,,,,,,,,,,,,,,,,,,,,,,,,,,,,,,,,,,,,,,,,,,,,,,,,,,,,,,,,261.2340243699982,None,261.2340243699982,None,261.2340243699982,None,h,1,0.9520089100005862,262.76764692399956,None,262.76764692399956,None,262.76764692399956,None,263.76729581499967,None,263.76729581499967,None,263.76729581499967,None,263.76729581499967,None,,,,,,,,,,,,,,,,,,,,,,,,,,,,,,,,,,,,,,,,,,,,001,18,2020_Jan_28_1458,spring_faces,3.1.5,60.05845561437907,
condition files/Stage0c_2.xlsx,0c,alpha,theta,h,"['h', 'g']","['Chess', 'Go']","[-0.15, 0.5]","[0.15, 0.5]",1,1,0,15,15,15,0,1,1,0,,,,,,,,,,,,,,,,,,,,,,,,,,,,,,,,,,,,,,,,,,,,,,,,,,,,,,,,,,,,,,,265.75006447600026,None,265.75006447600026,None,265.75006447600026,None,h,1,0.7870145099986985,267.284648689998,None,267.284648689998,None,267.284648689998,None,268.1171377779974,None,268.1171377779974,None,268.1171377779974,None,268.1171377779974,None,,,,,,,,,,,,,,,,,,,,,,,,,,,,,,,,,,,,,,,,,,,,001,18,2020_Jan_28_1458,spring_faces,3.1.5,60.05845561437907,
condition files/Stage0c_2.xlsx,0c,beta,phi,g,"['h', 'g']","['Chess', 'Go']","[-0.15, 0.5]","[0.15, 0.5]",1,1,0,15,15,15,0,2,2,3,,,,,,,,,,,,,,,,,,,,,,,,,,,,,,,,,,,,,,,,,,,,,,,,,,,,,,,,,,,,,,,270.10050335899723,None,270.10050335899723,None,270.10050335899723,None,g,1,0.7420383130011032,271.6336616939989,None,271.6336616939989,None,271.6336616939989,None,272.4342609069972,None,272.4342609069972,None,272.4342609069972,None,272.4342609069972,None,,,,,,,,,,,,,,,,,,,,,,,,,,,,,,,,,,,,,,,,,,,,001,18,2020_Jan_28_1458,spring_faces,3.1.5,60.05845561437907,
condition files/Stage0c_2.xlsx,0c,theta,beta,g,"['h', 'g']","['Chess', 'Go']","[-0.15, 0.5]","[0.15, 0.5]",1,1,0,15,15,15,0,3,3,2,,,,,,,,,,,,,,,,,,,,,,,,,,,,,,,,,,,,,,,,,,,,,,,,,,,,,,,,,,,,,,,274.40040831499937,None,274.40040831499937,None,274.40040831499937,None,g,1,0.6978630689991405,275.93377962500017,None,275.93377962500017,None,275.93377962500017,None,276.66883674199926,None,276.66883674199926,None,276.66883674199926,None,276.66883674199926,None,,,,,,,,,,,,,,,,,,,,,,,,,,,,,,,,,,,,,,,,,,,,001,18,2020_Jan_28_1458,spring_faces,3.1.5,60.05845561437907,
condition files/Stage0c_1.xlsx,0c,phi,beta,g,"['h', 'g']","['Chess', 'Go']","[-0.15, 0.5]","[0.15, 0.5]",1,1,0,16,16,16,0,0,0,3,,,,,,,,,,,,,,,,,,,,,,,,,,,,,,,,,,,,,,,,,,,,,,,,,,,,,,,,,,,,,,,278.6673110569973,None,278.6673110569973,None,278.6673110569973,None,g,1,0.7513481370006048,280.2002696669988,None,280.2002696669988,None,280.2002696669988,None,281.00080594999963,None,281.00080594999963,None,281.00080594999963,None,281.00080594999963,None,,,,,,,,,,,,,,,,,,,,,,,,,,,,,,,,,,,,,,,,,,,,001,18,2020_Jan_28_1458,spring_faces,3.1.5,60.05845561437907,
condition files/Stage0c_1.xlsx,0c,theta,alpha,h,"['h', 'g']","['Chess', 'Go']","[-0.15, 0.5]","[0.15, 0.5]",1,1,0,16,16,16,0,1,1,0,,,,,,,,,,,,,,,,,,,,,,,,,,,,,,,,,,,,,,,,,,,,,,,,,,,,,,,,,,,,,,,282.983941192997,None,282.983941192997,None,282.983941192997,None,h,1,0.5781379569998535,284.51748114699876,None,284.51748114699876,None,284.51748114699876,None,285.15093610999975,None,285.15093610999975,None,285.15093610999975,None,285.15093610999975,None,,,,,,,,,,,,,,,,,,,,,,,,,,,,,,,,,,,,,,,,,,,,001,18,2020_Jan_28_1458,spring_faces,3.1.5,60.05845561437907,
condition files/Stage0c_1.xlsx,0c,beta,theta,g,"['h', 'g']","['Chess', 'Go']","[-0.15, 0.5]","[0.15, 0.5]",1,1,0,16,16,16,0,2,2,2,,,,,,,,,,,,,,,,,,,,,,,,,,,,,,,,,,,,,,,,,,,,,,,,,,,,,,,,,,,,,,,287.11743400299747,None,287.11743400299747,None,287.11743400299747,None,g,1,0.5569388370022352,288.6506795969981,None,288.6506795969981,None,288.6506795969981,None,289.2673195699972,None,289.2673195699972,None,289.2673195699972,None,289.2673195699972,None,,,,,,,,,,,,,,,,,,,,,,,,,,,,,,,,,,,,,,,,,,,,001,18,2020_Jan_28_1458,spring_faces,3.1.5,60.05845561437907,
condition files/Stage0c_1.xlsx,0c,alpha,phi,h,"['h', 'g']","['Chess', 'Go']","[-0.15, 0.5]","[0.15, 0.5]",1,1,0,16,16,16,0,3,3,1,,,,,,,,,,,,,,,,,,,,,,,,,,,,,,,,,,,,,,,,,,,,,,,,,,,,,,,,,,,,,,,291.23359360999893,None,291.23359360999893,None,291.23359360999893,None,h,1,0.536445513000217,292.76721250300034,None,292.76721250300034,None,292.76721250300034,None,293.3675061449976,None,293.3675061449976,None,293.3675061449976,None,293.3675061449976,None,,,,,,,,,,,,,,,,,,,,,,,,,,,,,,,,,,,,,,,,,,,,001,18,2020_Jan_28_1458,spring_faces,3.1.5,60.05845561437907,
condition files/Stage0c_2.xlsx,0c,theta,beta,g,"['h', 'g']","['Chess', 'Go']","[-0.15, 0.5]","[0.15, 0.5]",1,1,0,17,17,17,0,0,0,2,,,,,,,,,,,,,,,,,,,,,,,,,,,,,,,,,,,,,,,,,,,,,,,,,,,,,,,,,,,,,,,295.3505101489973,None,295.3505101489973,None,295.3505101489973,None,g,1,0.7720394030002353,296.86763058299766,None,296.86763058299766,None,296.86763058299766,None,297.70020849999855,None,297.70020849999855,None,297.70020849999855,None,297.70020849999855,None,,,,,,,,,,,,,,,,,,,,,,,,,,,,,,,,,,,,,,,,,,,,001,18,2020_Jan_28_1458,spring_faces,3.1.5,60.05845561437907,
condition files/Stage0c_2.xlsx,0c,phi,alpha,h,"['h', 'g']","['Chess', 'Go']","[-0.15, 0.5]","[0.15, 0.5]",1,1,0,17,17,17,0,1,1,1,,,,,,,,,,,,,,,,,,,,,,,,,,,,,,,,,,,,,,,,,,,,,,,,,,,,,,,,,,,,,,,299.66735679499834,None,299.66735679499834,None,299.66735679499834,None,h,1,0.6146566209972661,301.20098447299824,None,301.20098447299824,None,301.20098447299824,None,301.8677254260001,None,301.8677254260001,None,301.8677254260001,None,301.8677254260001,None,,,,,,,,,,,,,,,,,,,,,,,,,,,,,,,,,,,,,,,,,,,,001,18,2020_Jan_28_1458,spring_faces,3.1.5,60.05845561437907,
condition files/Stage0c_2.xlsx,0c,beta,phi,g,"['h', 'g']","['Chess', 'Go']","[-0.15, 0.5]","[0.15, 0.5]",1,1,0,17,17,17,0,2,2,3,,,,,,,,,,,,,,,,,,,,,,,,,,,,,,,,,,,,,,,,,,,,,,,,,,,,,,,,,,,,,,,303.8333850380004,None,303.8333850380004,None,303.8333850380004,None,g,1,0.6885561349990894,305.3670950839987,None,305.3670950839987,None,305.3670950839987,None,306.1176627679997,None,306.1176627679997,None,306.1176627679997,None,306.1176627679997,None,,,,,,,,,,,,,,,,,,,,,,,,,,,,,,,,,,,,,,,,,,,,001,18,2020_Jan_28_1458,spring_faces,3.1.5,60.05845561437907,
condition files/Stage0c_2.xlsx,0c,alpha,theta,h,"['h', 'g']","['Chess', 'Go']","[-0.15, 0.5]","[0.15, 0.5]",1,1,0,17,17,17,0,3,3,0,,,,,,,,,,,,,,,,,,,,,,,,,,,,,,,,,,,,,,,,,,,,,,,,,,,,,,,,,,,,,,,308.0836372729973,None,308.0836372729973,None,308.0836372729973,None,h,1,0.6298237110022455,309.61780526099756,None,309.61780526099756,None,309.61780526099756,None,310.3006559409987,None,310.3006559409987,None,310.3006559409987,None,310.3006559409987,None,,,,,,,,,,,,,,,,,,,,,,,,,,,,,,,,,,,,,,,,,,,,001,18,2020_Jan_28_1458,spring_faces,3.1.5,60.05845561437907,
,,,,,,,,,,,,,,,,,,,,,,,,,,,,,,,,,,,,,,,,,,,,,,,,,,,,,,,,,,,,,,,,,,,,,,,,,,,,,,,,,,,,,,,,,,,,,,,,,,,,,,,,312.2842837229982,None,space,2.5474635639984626,317.2841479050003,None,,,,,,,,,,,,,,,,,,,,,,,,,,,,,,,,,,,,,,001,18,2020_Jan_28_1458,spring_faces,3.1.5,60.05845561437907,
condition files/Stage1_1.xlsx,,B3,T3,c,"['c', 'm']","['Clue', 'Monopoly']","[-0.15, 0.5]","[0.15, 0.5]",1,1,,,,,,,,,0,0,0,0,0,0,0,4,,,,,,,,,,,,,,,,,,,,,,,,,,,,,,,,,,,,,,,,,,,,,,,,,,,,,,,319.884372444998,None,319.884372444998,None,319.884372444998,None,c,1,2.077880433000246,321.41769520399976,None,321.41769520399976,None,321.41769520399976,None,323.56782861199827,None,323.56782861199827,None,323.56782861199827,None,323.56782861199827,None,,,,,,,317.2841479050003,None,,,,,,,,,,,,,,,,,,,,,,,,,,,,,,,,,,,,001,18,2020_Jan_28_1458,spring_faces,3.1.5,60.05845561437907,
condition files/Stage1_1.xlsx,,B4,T4,m,"['c', 'm']","['Clue', 'Monopoly']","[-0.15, 0.5]","[0.15, 0.5]",1,1,,,,,,,,,0,0,0,0,0,1,1,7,,,,,,,,,,,,,,,,,,,,,,,,,,,,,,,,,,,,,,,,,,,,,,,,,,,,,,,325.5174466509998,None,325.5174466509998,None,325.5174466509998,None,m,1,0.9396703990023525,327.08398391599985,None,327.08398391599985,None,327.08398391599985,None,328.08383276699897,None,328.08383276699897,None,328.08383276699897,None,328.08383276699897,None,,,,,,,,,,,,,,,,,,,,,,,,,,,,,,,,,,,,,,,,,,,,001,18,2020_Jan_28_1458,spring_faces,3.1.5,60.05845561437907,
condition files/Stage1_1.xlsx,,T4,B3,m,"['c', 'm']","['Clue', 'Monopoly']","[-0.15, 0.5]","[0.15, 0.5]",1,1,,,,,,,,,0,0,0,0,0,2,2,6,,,,,,,,,,,,,,,,,,,,,,,,,,,,,,,,,,,,,,,,,,,,,,,,,,,,,,,330.05031197399876,None,330.05031197399876,None,330.05031197399876,None,c,0,0.68001782400097,331.5836264649988,None,331.5836264649988,None,331.5836264649988,None,332.31745127499744,None,332.31745127499744,None,332.31745127499744,None,332.31745127499744,None,,,,,,,,,,,,,,,,,,,,,,,,,,,,,,,,,,,,,,,,,,,,001,18,2020_Jan_28_1458,spring_faces,3.1.5,60.05845561437907,
condition files/Stage1_1.xlsx,,T1,B1,c,"['c', 'm']","['Clue', 'Monopoly']","[-0.15, 0.5]","[0.15, 0.5]",1,1,,,,,,,,,0,0,0,0,0,3,3,0,,,,,,,,,,,,,,,,,,,,,,,,,,,,,,,,,,,,,,,,,,,,,,,,,,,,,,,334.2835656009993,None,334.2835656009993,None,334.2835656009993,None,c,1,1.1011353249996318,335.8345025589988,None,335.8345025589988,None,335.8345025589988,None,337.01746317299694,None,337.01746317299694,None,337.01746317299694,None,337.01746317299694,None,,,,,,,,,,,,,,,,,,,,,,,,,,,,,,,,,,,,,,,,,,,,001,18,2020_Jan_28_1458,spring_faces,3.1.5,60.05845561437907,
condition files/Stage1_1.xlsx,,T2,B2,m,"['c', 'm']","['Clue', 'Monopoly']","[-0.15, 0.5]","[0.15, 0.5]",1,1,,,,,,,,,0,0,0,0,0,4,4,3,,,,,,,,,,,,,,,,,,,,,,,,,,,,,,,,,,,,,,,,,,,,,,,,,,,,,,,338.966606168,None,338.966606168,None,338.966606168,None,c,0,1.5359538329976203,340.5516910339975,None,340.5516910339975,None,340.5516910339975,None,342.167416909997,None,342.167416909997,None,342.167416909997,None,342.167416909997,None,,,,,,,,,,,,,,,,,,,,,,,,,,,,,,,,,,,,,,,,,,,,001,18,2020_Jan_28_1458,spring_faces,3.1.5,60.05845561437907,
condition files/Stage1_1.xlsx,,B1,T2,c,"['c', 'm']","['Clue', 'Monopoly']","[-0.15, 0.5]","[0.15, 0.5]",1,1,,,,,,,,,0,0,0,0,0,5,5,1,,,,,,,,,,,,,,,,,,,,,,,,,,,,,,,,,,,,,,,,,,,,,,,,,,,,,,,344.11680413799695,None,344.11680413799695,None,344.11680413799695,None,c,1,1.429154125002242,345.6504270730002,None,345.6504270730002,None,345.6504270730002,None,347.1341444469981,None,347.1341444469981,None,347.1341444469981,None,347.1341444469981,None,,,,,,,,,,,,,,,,,,,,,,,,,,,,,,,,,,,,,,,,,,,,001,18,2020_Jan_28_1458,spring_faces,3.1.5,60.05845561437907,
condition files/Stage1_1.xlsx,,T3,B4,c,"['c', 'm']","['Clue', 'Monopoly']","[-0.15, 0.5]","[0.15, 0.5]",1,1,,,,,,,,,0,0,0,0,0,6,6,5,,,,,,,,,,,,,,,,,,,,,,,,,,,,,,,,,,,,,,,,,,,,,,,,,,,,,,,349.10049809499833,None,349.10049809499833,None,349.10049809499833,None,m,0,1.1645989619973989,350.65103426099813,None,350.65103426099813,None,350.65103426099813,None,351.86794457999713,None,351.86794457999713,None,351.86794457999713,None,351.86794457999713,None,,,,,,,,,,,,,,,,,,,,,,,,,,,,,,,,,,,,,,,,,,,,001,18,2020_Jan_28_1458,spring_faces,3.1.5,60.05845561437907,
condition files/Stage1_1.xlsx,,B2,T1,m,"['c', 'm']","['Clue', 'Monopoly']","[-0.15, 0.5]","[0.15, 0.5]",1,1,,,,,,,,,0,0,0,0,0,7,7,2,,,,,,,,,,,,,,,,,,,,,,,,,,,,,,,,,,,,,,,,,,,,,,,,,,,,,,,353.8333933920003,None,353.8333933920003,None,353.8333933920003,None,m,1,1.837719734001439,355.3699673919982,None,355.3699673919982,None,355.3699673919982,None,357.2676122349985,None,357.2676122349985,None,357.2676122349985,None,357.2676122349985,None,,,,,,,,,,,,,,,,,,,,,,,,,,,,,,,,,,,,,,,,,,,,001,18,2020_Jan_28_1458,spring_faces,3.1.5,60.05845561437907,
condition files/Stage1_2.xlsx,,T4,B4,m,"['c', 'm']","['Clue', 'Monopoly']","[-0.15, 0.5]","[0.15, 0.5]",1,1,,,,,,,,,0,1,1,1,0,0,0,7,,,,,,,,,,,,,,,,,,,,,,,,,,,,,,,,,,,,,,,,,,,,,,,,,,,,,,,359.25061070899756,None,359.25061070899756,None,359.25061070899756,None,c,0,1.5428628980007488,360.8007846019973,None,360.8007846019973,None,360.8007846019973,None,362.4008716829994,None,362.4008716829994,None,362.4008716829994,None,362.4008716829994,None,,,,,,,,,,,,,,,,,,,,,,,,,,,,,,,,,,,,,,,,,,,,001,18,2020_Jan_28_1458,spring_faces,3.1.5,60.05845561437907,
condition files/Stage1_2.xlsx,,T1,B2,m,"['c', 'm']","['Clue', 'Monopoly']","[-0.15, 0.5]","[0.15, 0.5]",1,1,,,,,,,,,0,1,1,1,0,1,1,2,,,,,,,,,,,,,,,,,,,,,,,,,,,,,,,,,,,,,,,,,,,,,,,,,,,,,,,364.36726642499707,None,364.36726642499707,None,364.36726642499707,None,c,0,1.7385423819978314,365.91709968099894,None,365.91709968099894,None,365.91709968099894,None,367.71713652999824,None,367.71713652999824,None,367.71713652999824,None,367.71713652999824,None,,,,,,,,,,,,,,,,,,,,,,,,,,,,,,,,,,,,,,,,,,,,001,18,2020_Jan_28_1458,spring_faces,3.1.5,60.05845561437907,
condition files/Stage1_2.xlsx,,B1,T1,c,"['c', 'm']","['Clue', 'Monopoly']","[-0.15, 0.5]","[0.15, 0.5]",1,1,,,,,,,,,0,1,1,1,0,2,2,0,,,,,,,,,,,,,,,,,,,,,,,,,,,,,,,,,,,,,,,,,,,,,,,,,,,,,,,369.68408294300025,None,369.68408294300025,None,369.68408294300025,None,c,1,0.9816284120024648,371.2180253389997,None,371.2180253389997,None,371.2180253389997,None,372.2518123150003,None,372.2518123150003,None,372.2518123150003,None,372.2518123150003,None,,,,,,,,,,,,,,,,,,,,,,,,,,,,,,,,,,,,,,,,,,,,001,18,2020_Jan_28_1458,spring_faces,3.1.5,60.05845561437907,
condition files/Stage1_2.xlsx,,B2,T2,m,"['c', 'm']","['Clue', 'Monopoly']","[-0.15, 0.5]","[0.15, 0.5]",1,1,,,,,,,,,0,1,1,1,0,3,3,3,,,,,,,,,,,,,,,,,,,,,,,,,,,,,,,,,,,,,,,,,,,,,,,,,,,,,,,374.2171529309999,None,374.2171529309999,None,374.2171529309999,None,m,1,1.3446057309993193,375.75100939599724,None,375.75100939599724,None,375.75100939599724,None,377.16742302499915,None,377.16742302499915,None,377.16742302499915,None,377.16742302499915,None,,,,,,,,,,,,,,,,,,,,,,,,,,,,,,,,,,,,,,,,,,,,001,18,2020_Jan_28_1458,spring_faces,3.1.5,60.05845561437907,
condition files/Stage1_2.xlsx,,B4,T3,c,"['c', 'm']","['Clue', 'Monopoly']","[-0.15, 0.5]","[0.15, 0.5]",1,1,,,,,,,,,0,1,1,1,0,4,4,5,,,,,,,,,,,,,,,,,,,,,,,,,,,,,,,,,,,,,,,,,,,,,,,,,,,,,,,379.1168297160002,None,379.1168297160002,None,379.1168297160002,None,c,1,0.7967084609990707,380.6668906369996,None,380.6668906369996,None,380.6668906369996,None,381.5338207709974,None,381.5338207709974,None,381.5338207709974,None,381.5338207709974,None,,,,,,,,,,,,,,,,,,,,,,,,,,,,,,,,,,,,,,,,,,,,001,18,2020_Jan_28_1458,spring_faces,3.1.5,60.05845561437907,
condition files/Stage1_2.xlsx,,B3,T4,m,"['c', 'm']","['Clue', 'Monopoly']","[-0.15, 0.5]","[0.15, 0.5]",1,1,,,,,,,,,0,1,1,1,0,5,5,6,,,,,,,,,,,,,,,,,,,,,,,,,,,,,,,,,,,,,,,,,,,,,,,,,,,,,,,383.48352428699945,None,383.48352428699945,None,383.48352428699945,None,m,1,1.3571610559993132,385.03453246999925,None,385.03453246999925,None,385.03453246999925,None,386.4511758189983,None,386.4511758189983,None,386.4511758189983,None,386.4511758189983,None,,,,,,,,,,,,,,,,,,,,,,,,,,,,,,,,,,,,,,,,,,,,001,18,2020_Jan_28_1458,spring_faces,3.1.5,60.05845561437907,
condition files/Stage1_2.xlsx,,T2,B1,c,"['c', 'm']","['Clue', 'Monopoly']","[-0.15, 0.5]","[0.15, 0.5]",1,1,,,,,,,,,0,1,1,1,0,6,6,1,,,,,,,,,,,,,,,,,,,,,,,,,,,,,,,,,,,,,,,,,,,,,,,,,,,,,,,388.4166882779973,None,388.4166882779973,None,388.4166882779973,None,c,1,1.0641364409966627,389.9674930330002,None,389.9674930330002,None,389.9674930330002,None,391.08493390999865,None,391.08493390999865,None,391.08493390999865,None,391.08493390999865,None,,,,,,,,,,,,,,,,,,,,,,,,,,,,,,,,,,,,,,,,,,,,001,18,2020_Jan_28_1458,spring_faces,3.1.5,60.05845561437907,
condition files/Stage1_2.xlsx,,T3,B3,c,"['c', 'm']","['Clue', 'Monopoly']","[-0.15, 0.5]","[0.15, 0.5]",1,1,,,,,,,,,0,1,1,1,0,7,7,4,,,,,,,,,,,,,,,,,,,,,,,,,,,,,,,,,,,,,,,,,,,,,,,,,,,,,,,393.0500172819993,None,393.0500172819993,None,393.0500172819993,None,c,1,1.5192402270004095,394.60035681599766,None,394.60035681599766,None,394.60035681599766,None,396.1840661919996,None,396.1840661919996,None,396.1840661919996,None,396.1840661919996,None,,,,,,,,,,,,,,,,,,,,,,,,,,,,,,,,,,,,,,,,,,,,001,18,2020_Jan_28_1458,spring_faces,3.1.5,60.05845561437907,
condition files/Stage1_1.xlsx,,B2,T1,m,"['c', 'm']","['Clue', 'Monopoly']","[-0.15, 0.5]","[0.15, 0.5]",1,1,,,,,,,,,0,2,2,2,0,0,0,2,,,,,,,,,,,,,,,,,,,,,,,,,,,,,,,,,,,,,,,,,,,,,,,,,,,,,,,398.1675158359976,None,398.1675158359976,None,398.1675158359976,None,m,1,1.2179971700024907,399.71760452200033,None,399.71760452200033,None,399.71760452200033,None,401.00315055399915,None,401.00315055399915,None,401.00315055399915,None,401.00315055399915,None,,,,,,,,,,,,,,,,,,,,,,,,,,,,,,,,,,,,,,,,,,,,001,18,2020_Jan_28_1458,spring_faces,3.1.5,60.05845561437907,
condition files/Stage1_1.xlsx,,B1,T2,c,"['c', 'm']","['Clue', 'Monopoly']","[-0.15, 0.5]","[0.15, 0.5]",1,1,,,,,,,,,0,2,2,2,0,1,1,1,,,,,,,,,,,,,,,,,,,,,,,,,,,,,,,,,,,,,,,,,,,,,,,,,,,,,,,402.9672688669998,None,402.9672688669998,None,402.9672688669998,None,c,1,1.1865370360028464,404.517103422997,None,404.517103422997,None,404.517103422997,None,405.76861783599816,None,405.76861783599816,None,405.76861783599816,None,405.76861783599816,None,,,,,,,,,,,,,,,,,,,,,,,,,,,,,,,,,,,,,,,,,,,,001,18,2020_Jan_28_1458,spring_faces,3.1.5,60.05845561437907,
condition files/Stage1_1.xlsx,,T3,B4,c,"['c', 'm']","['Clue', 'Monopoly']","[-0.15, 0.5]","[0.15, 0.5]",1,1,,,,,,,,,0,2,2,2,0,2,2,5,,,,,,,,,,,,,,,,,,,,,,,,,,,,,,,,,,,,,,,,,,,,,,,,,,,,,,,407.7339026689988,None,407.7339026689988,None,407.7339026689988,None,m,0,1.7781629719975172,409.26948646299934,None,409.26948646299934,None,409.26948646299934,None,411.1013160699986,None,411.1013160699986,None,411.1013160699986,None,411.1013160699986,None,,,,,,,,,,,,,,,,,,,,,,,,,,,,,,,,,,,,,,,,,,,,001,18,2020_Jan_28_1458,spring_faces,3.1.5,60.05845561437907,
condition files/Stage1_1.xlsx,,B3,T3,c,"['c', 'm']","['Clue', 'Monopoly']","[-0.15, 0.5]","[0.15, 0.5]",1,1,,,,,,,,,0,2,2,2,0,3,3,4,,,,,,,,,,,,,,,,,,,,,,,,,,,,,,,,,,,,,,,,,,,,,,,,,,,,,,,413.0670737979999,None,413.0670737979999,None,413.0670737979999,None,c,1,1.1820657680000295,414.6175678439977,None,414.6175678439977,None,414.6175678439977,None,415.8507218800005,None,415.8507218800005,None,415.8507218800005,None,415.8507218800005,None,,,,,,,,,,,,,,,,,,,,,,,,,,,,,,,,,,,,,,,,,,,,001,18,2020_Jan_28_1458,spring_faces,3.1.5,60.05845561437907,
condition files/Stage1_1.xlsx,,T2,B2,m,"['c', 'm']","['Clue', 'Monopoly']","[-0.15, 0.5]","[0.15, 0.5]",1,1,,,,,,,,,0,2,2,2,0,4,4,3,,,,,,,,,,,,,,,,,,,,,,,,,,,,,,,,,,,,,,,,,,,,,,,,,,,,,,,417.81746364100036,None,417.81746364100036,None,417.81746364100036,None,m,1,1.3282867659982003,419.35135462799735,None,419.35135462799735,None,419.35135462799735,None,420.7369183869996,None,420.7369183869996,None,420.7369183869996,None,420.7369183869996,None,,,,,,,,,,,,,,,,,,,,,,,,,,,,,,,,,,,,,,,,,,,,001,18,2020_Jan_28_1458,spring_faces,3.1.5,60.05845561437907,
condition files/Stage1_1.xlsx,,B4,T4,m,"['c', 'm']","['Clue', 'Monopoly']","[-0.15, 0.5]","[0.15, 0.5]",1,1,,,,,,,,,0,2,2,2,0,5,5,7,,,,,,,,,,,,,,,,,,,,,,,,,,,,,,,,,,,,,,,,,,,,,,,,,,,,,,,422.7000443629986,None,422.7000443629986,None,422.7000443629986,None,c,0,2.044728410000971,424.2508945119989,None,424.2508945119989,None,424.2508945119989,None,426.3509980659983,None,426.3509980659983,None,426.3509980659983,None,426.3509980659983,None,,,,,,,,,,,,,,,,,,,,,,,,,,,,,,,,,,,,,,,,,,,,001,18,2020_Jan_28_1458,spring_faces,3.1.5,60.05845561437907,
condition files/Stage1_1.xlsx,,T4,B3,m,"['c', 'm']","['Clue', 'Monopoly']","[-0.15, 0.5]","[0.15, 0.5]",1,1,,,,,,,,,0,2,2,2,0,6,6,6,,,,,,,,,,,,,,,,,,,,,,,,,,,,,,,,,,,,,,,,,,,,,,,,,,,,,,,428.3166832959978,None,428.3166832959978,None,428.3166832959978,None,c,0,1.7067868949998228,429.85292379599923,None,429.85292379599923,None,429.85292379599923,None,431.61713155599864,None,431.61713155599864,None,431.61713155599864,None,431.61713155599864,None,,,,,,,,,,,,,,,,,,,,,,,,,,,,,,,,,,,,,,,,,,,,001,18,2020_Jan_28_1458,spring_faces,3.1.5,60.05845561437907,
condition files/Stage1_1.xlsx,,T1,B1,c,"['c', 'm']","['Clue', 'Monopoly']","[-0.15, 0.5]","[0.15, 0.5]",1,1,,,,,,,,,0,2,2,2,0,7,7,0,,,,,,,,,,,,,,,,,,,,,,,,,,,,,,,,,,,,,,,,,,,,,,,,,,,,,,,433.5834167419998,None,433.5834167419998,None,433.5834167419998,None,c,1,1.1142763040006685,435.11737181699937,None,435.11737181699937,None,435.11737181699937,None,436.2839083669969,None,436.2839083669969,None,436.2839083669969,None,436.2839083669969,None,,,,,,,,,,,,,,,,,,,,,,,,,,,,,,,,,,,,,,,,,,,,001,18,2020_Jan_28_1458,spring_faces,3.1.5,60.05845561437907,
condition files/Stage1_2.xlsx,,T1,B2,m,"['c', 'm']","['Clue', 'Monopoly']","[-0.15, 0.5]","[0.15, 0.5]",1,1,,,,,,,,,0,3,3,3,0,0,0,2,,,,,,,,,,,,,,,,,,,,,,,,,,,,,,,,,,,,,,,,,,,,,,,,,,,,,,,438.2675465529974,None,438.2675465529974,None,438.2675465529974,None,m,1,1.8224392819975037,439.8012792349982,None,439.8012792349982,None,439.8012792349982,None,441.68389986799957,None,441.68389986799957,None,441.68389986799957,None,441.68389986799957,None,,,,,,,,,,,,,,,,,,,,,,,,,,,,,,,,,,,,,,,,,,,,001,18,2020_Jan_28_1458,spring_faces,3.1.5,60.05845561437907,
condition files/Stage1_2.xlsx,,B1,T1,c,"['c', 'm']","['Clue', 'Monopoly']","[-0.15, 0.5]","[0.15, 0.5]",1,1,,,,,,,,,0,3,3,3,0,1,1,0,,,,,,,,,,,,,,,,,,,,,,,,,,,,,,,,,,,,,,,,,,,,,,,,,,,,,,,443.65071899899704,None,443.65071899899704,None,443.65071899899704,None,c,1,1.1250778609974077,445.18653201199777,None,445.18653201199777,None,445.18653201199777,None,446.36753192499964,None,446.36753192499964,None,446.36753192499964,None,446.36753192499964,None,,,,,,,,,,,,,,,,,,,,,,,,,,,,,,,,,,,,,,,,,,,,001,18,2020_Jan_28_1458,spring_faces,3.1.5,60.05845561437907,
condition files/Stage1_2.xlsx,,B2,T2,m,"['c', 'm']","['Clue', 'Monopoly']","[-0.15, 0.5]","[0.15, 0.5]",1,1,,,,,,,,,0,3,3,3,0,2,2,3,,,,,,,,,,,,,,,,,,,,,,,,,,,,,,,,,,,,,,,,,,,,,,,,,,,,,,,448.33370637999906,None,448.33370637999906,None,448.33370637999906,None,c,0,0.8104206719981448,449.8692245349994,None,449.8692245349994,None,449.8692245349994,None,450.735580818,None,450.735580818,None,450.735580818,None,450.735580818,None,,,,,,,,,,,,,,,,,,,,,,,,,,,,,,,,,,,,,,,,,,,,001,18,2020_Jan_28_1458,spring_faces,3.1.5,60.05845561437907,
condition files/Stage1_2.xlsx,,T2,B1,c,"['c', 'm']","['Clue', 'Monopoly']","[-0.15, 0.5]","[0.15, 0.5]",1,1,,,,,,,,,0,3,3,3,0,3,3,1,,,,,,,,,,,,,,,,,,,,,,,,,,,,,,,,,,,,,,,,,,,,,,,,,,,,,,,452.70055778299866,None,452.70055778299866,None,452.70055778299866,None,c,1,1.6293124399999215,454.25029988700044,None,454.25029988700044,None,454.25029988700044,None,455.9363904370002,None,455.9363904370002,None,455.9363904370002,None,455.9363904370002,None,,,,,,,,,,,,,,,,,,,,,,,,,,,,,,,,,,,,,,,,,,,,001,18,2020_Jan_28_1458,spring_faces,3.1.5,60.05845561437907,
condition files/Stage1_2.xlsx,,T3,B3,c,"['c', 'm']","['Clue', 'Monopoly']","[-0.15, 0.5]","[0.15, 0.5]",1,1,,,,,,,,,0,3,3,3,0,4,4,4,,,,,,,,,,,,,,,,,,,,,,,,,,,,,,,,,,,,,,,,,,,,,,,,,,,,,,,457.90014333100044,None,457.90014333100044,None,457.90014333100044,None,m,0,1.6452976239997952,459.4502800219998,None,459.4502800219998,None,459.4502800219998,None,461.15099996799836,None,461.15099996799836,None,461.15099996799836,None,461.15099996799836,None,,,,,,,,,,,,,,,,,,,,,,,,,,,,,,,,,,,,,,,,,,,,001,18,2020_Jan_28_1458,spring_faces,3.1.5,60.05845561437907,
condition files/Stage1_2.xlsx,,B3,T4,m,"['c', 'm']","['Clue', 'Monopoly']","[-0.15, 0.5]","[0.15, 0.5]",1,1,,,,,,,,,0,3,3,3,0,5,5,6,,,,,,,,,,,,,,,,,,,,,,,,,,,,,,,,,,,,,,,,,,,,,,,,,,,,,,,463.11676550300035,None,463.11676550300035,None,463.11676550300035,None,c,0,1.8030128619975585,464.6526591869988,None,464.6526591869988,None,464.6526591869988,None,466.51808826100023,None,466.51808826100023,None,466.51808826100023,None,466.51808826100023,None,,,,,,,,,,,,,,,,,,,,,,,,,,,,,,,,,,,,,,,,,,,,001,18,2020_Jan_28_1458,spring_faces,3.1.5,60.05845561437907,
condition files/Stage1_2.xlsx,,B4,T3,c,"['c', 'm']","['Clue', 'Monopoly']","[-0.15, 0.5]","[0.15, 0.5]",1,1,,,,,,,,,0,3,3,3,0,6,6,5,,,,,,,,,,,,,,,,,,,,,,,,,,,,,,,,,,,,,,,,,,,,,,,,,,,,,,,468.48406456500015,None,468.48406456500015,None,468.48406456500015,None,c,1,1.9570289450020937,470.0346743609989,None,470.0346743609989,None,470.0346743609989,None,472.06754922399705,None,472.06754922399705,None,472.06754922399705,None,472.06754922399705,None,,,,,,,,,,,,,,,,,,,,,,,,,,,,,,,,,,,,,,,,,,,,001,18,2020_Jan_28_1458,spring_faces,3.1.5,60.05845561437907,
condition files/Stage1_2.xlsx,,T4,B4,m,"['c', 'm']","['Clue', 'Monopoly']","[-0.15, 0.5]","[0.15, 0.5]",1,1,,,,,,,,,0,3,3,3,0,7,7,7,,,,,,,,,,,,,,,,,,,,,,,,,,,,,,,,,,,,,,,,,,,,,,,,,,,,,,,474.016787094999,None,474.016787094999,None,474.016787094999,None,m,1,1.4962116360002256,475.5514413469973,None,475.5514413469973,None,475.5514413469973,None,477.1013306959976,None,477.1013306959976,None,477.1013306959976,None,477.1013306959976,None,,,,,,,,,,,,,,,,,,,,,,,,,,,,,,,,,,,,,,,,,,,,001,18,2020_Jan_28_1458,spring_faces,3.1.5,60.05845561437907,
condition files/Stage1_1.xlsx,,B2,T1,m,"['c', 'm']","['Clue', 'Monopoly']","[-0.15, 0.5]","[0.15, 0.5]",1,1,,,,,,,,,0,4,4,4,0,0,0,2,,,,,,,,,,,,,,,,,,,,,,,,,,,,,,,,,,,,,,,,,,,,,,,,,,,,,,,479.08418152599916,None,479.08418152599916,None,479.08418152599916,None,c,0,1.0381517160021758,480.63354686099774,None,480.63354686099774,None,480.63354686099774,None,481.7368350359975,None,481.7368350359975,None,481.7368350359975,None,481.7368350359975,None,,,,,,,,,,,,,,,,,,,,,,,,,,,,,,,,,,,,,,,,,,,,001,18,2020_Jan_28_1458,spring_faces,3.1.5,60.05845561437907,
condition files/Stage1_1.xlsx,,B3,T3,c,"['c', 'm']","['Clue', 'Monopoly']","[-0.15, 0.5]","[0.15, 0.5]",1,1,,,,,,,,,0,4,4,4,0,1,1,4,,,,,,,,,,,,,,,,,,,,,,,,,,,,,,,,,,,,,,,,,,,,,,,,,,,,,,,483.7007746119998,None,483.7007746119998,None,483.7007746119998,None,c,1,1.2527443949984445,485.2349163830004,None,485.2349163830004,None,485.2349163830004,None,486.55322536099993,None,486.55322536099993,None,486.55322536099993,None,486.55322536099993,None,,,,,,,,,,,,,,,,,,,,,,,,,,,,,,,,,,,,,,,,,,,,001,18,2020_Jan_28_1458,spring_faces,3.1.5,60.05845561437907,
condition files/Stage1_1.xlsx,,T2,B2,m,"['c', 'm']","['Clue', 'Monopoly']","[-0.15, 0.5]","[0.15, 0.5]",1,1,,,,,,,,,0,4,4,4,0,2,2,3,,,,,,,,,,,,,,,,,,,,,,,,,,,,,,,,,,,,,,,,,,,,,,,,,,,,,,,488.51734302899786,None,488.51734302899786,None,488.51734302899786,None,m,1,1.2207921360022738,490.05087617099707,None,490.05087617099707,None,490.05087617099707,None,491.35045840399835,None,491.35045840399835,None,491.35045840399835,None,491.35045840399835,None,,,,,,,,,,,,,,,,,,,,,,,,,,,,,,,,,,,,,,,,,,,,001,18,2020_Jan_28_1458,spring_faces,3.1.5,60.05845561437907,
condition files/Stage1_1.xlsx,,T3,B4,c,"['c', 'm']","['Clue', 'Monopoly']","[-0.15, 0.5]","[0.15, 0.5]",1,1,,,,,,,,,0,4,4,4,0,3,3,5,,,,,,,,,,,,,,,,,,,,,,,,,,,,,,,,,,,,,,,,,,,,,,,,,,,,,,,493.30064443399897,None,493.30064443399897,None,493.30064443399897,None,c,1,1.0933390270001837,494.85031422300017,None,494.85031422300017,None,494.85031422300017,None,496.00348915499853,None,496.00348915499853,None,496.00348915499853,None,496.00348915499853,None,,,,,,,,,,,,,,,,,,,,,,,,,,,,,,,,,,,,,,,,,,,,001,18,2020_Jan_28_1458,spring_faces,3.1.5,60.05845561437907,
condition files/Stage1_1.xlsx,,B4,T4,m,"['c', 'm']","['Clue', 'Monopoly']","[-0.15, 0.5]","[0.15, 0.5]",1,1,,,,,,,,,0,4,4,4,0,4,4,7,,,,,,,,,,,,,,,,,,,,,,,,,,,,,,,,,,,,,,,,,,,,,,,,,,,,,,,497.96684958100013,None,497.96684958100013,None,497.96684958100013,None,c,0,1.1467811259972223,499.50087654399977,None,499.50087654399977,None,499.50087654399977,None,500.7035229599969,None,500.7035229599969,None,500.7035229599969,None,500.7035229599969,None,,,,,,,,,,,,,,,,,,,,,,,,,,,,,,,,,,,,,,,,,,,,001,18,2020_Jan_28_1458,spring_faces,3.1.5,60.05845561437907,
condition files/Stage1_1.xlsx,,B1,T2,c,"['c', 'm']","['Clue', 'Monopoly']","[-0.15, 0.5]","[0.15, 0.5]",1,1,,,,,,,,,0,4,4,4,0,5,5,1,,,,,,,,,,,,,,,,,,,,,,,,,,,,,,,,,,,,,,,,,,,,,,,,,,,,,,,502.66698288099724,None,502.66698288099724,None,502.66698288099724,None,c,1,0.9585387939987413,504.2010458179975,None,504.2010458179975,None,504.2010458179975,None,505.2173354810002,None,505.2173354810002,None,505.2173354810002,None,505.2173354810002,None,,,,,,,,,,,,,,,,,,,,,,,,,,,,,,,,,,,,,,,,,,,,001,18,2020_Jan_28_1458,spring_faces,3.1.5,60.05845561437907,
condition files/Stage1_1.xlsx,,T4,B3,m,"['c', 'm']","['Clue', 'Monopoly']","[-0.15, 0.5]","[0.15, 0.5]",1,1,,,,,,,,,0,4,4,4,0,6,6,6,,,,,,,,,,,,,,,,,,,,,,,,,,,,,,,,,,,,,,,,,,,,,,,,,,,,,,,507.1839634959979,None,507.1839634959979,None,507.1839634959979,None,m,1,0.9054729259987653,508.7341813389976,None,508.7341813389976,None,508.7341813389976,None,509.7019688629989,None,509.7019688629989,None,509.7019688629989,None,509.7019688629989,None,,,,,,,,,,,,,,,,,,,,,,,,,,,,,,,,,,,,,,,,,,,,001,18,2020_Jan_28_1458,spring_faces,3.1.5,60.05845561437907,
condition files/Stage1_1.xlsx,,T1,B1,c,"['c', 'm']","['Clue', 'Monopoly']","[-0.15, 0.5]","[0.15, 0.5]",1,1,,,,,,,,,0,4,4,4,0,7,7,0,,,,,,,,,,,,,,,,,,,,,,,,,,,,,,,,,,,,,,,,,,,,,,,,,,,,,,,511.66730031800034,None,511.66730031800034,None,511.66730031800034,None,m,0,1.1100187709998863,513.2176861209991,None,513.2176861209991,None,513.2176861209991,None,514.3845117249984,None,514.3845117249984,None,514.3845117249984,None,514.3845117249984,None,,,,,,,,,,,,,,,,,,,,,,,,,,,,,,,,,,,,,,,,,,,,001,18,2020_Jan_28_1458,spring_faces,3.1.5,60.05845561437907,
condition files/Stage1_2.xlsx,,B1,T1,c,"['c', 'm']","['Clue', 'Monopoly']","[-0.15, 0.5]","[0.15, 0.5]",1,1,,,,,,,,,0,5,5,5,0,0,0,0,,,,,,,,,,,,,,,,,,,,,,,,,,,,,,,,,,,,,,,,,,,,,,,,,,,,,,,516.3673116129976,None,516.3673116129976,None,516.3673116129976,None,c,1,1.4020124590024352,517.917641439999,None,517.917641439999,None,517.917641439999,None,519.3839803979972,None,519.3839803979972,None,519.3839803979972,None,519.3839803979972,None,,,,,,,,,,,,,,,,,,,,,,,,,,,,,,,,,,,,,,,,,,,,001,18,2020_Jan_28_1458,spring_faces,3.1.5,60.05845561437907,
condition files/Stage1_2.xlsx,,B4,T3,c,"['c', 'm']","['Clue', 'Monopoly']","[-0.15, 0.5]","[0.15, 0.5]",1,1,,,,,,,,,0,5,5,5,0,1,1,5,,,,,,,,,,,,,,,,,,,,,,,,,,,,,,,,,,,,,,,,,,,,,,,,,,,,,,,521.3503161829976,None,521.3503161829976,None,521.3503161829976,None,m,0,1.0418033450005169,522.8859131069985,None,522.8859131069985,None,522.8859131069985,None,523.9843116069969,None,523.9843116069969,None,523.9843116069969,None,523.9843116069969,None,,,,,,,,,,,,,,,,,,,,,,,,,,,,,,,,,,,,,,,,,,,,001,18,2020_Jan_28_1458,spring_faces,3.1.5,60.05845561437907,
condition files/Stage1_2.xlsx,,T2,B1,c,"['c', 'm']","['Clue', 'Monopoly']","[-0.15, 0.5]","[0.15, 0.5]",1,1,,,,,,,,,0,5,5,5,0,2,2,1,,,,,,,,,,,,,,,,,,,,,,,,,,,,,,,,,,,,,,,,,,,,,,,,,,,,,,,525.9500849109972,None,525.9500849109972,None,525.9500849109972,None,m,0,0.9235466210011509,527.4841817919987,None,527.4841817919987,None,527.4841817919987,None,528.4675061710004,None,528.4675061710004,None,528.4675061710004,None,528.4675061710004,None,,,,,,,,,,,,,,,,,,,,,,,,,,,,,,,,,,,,,,,,,,,,001,18,2020_Jan_28_1458,spring_faces,3.1.5,60.05845561437907,
condition files/Stage1_2.xlsx,,T4,B4,m,"['c', 'm']","['Clue', 'Monopoly']","[-0.15, 0.5]","[0.15, 0.5]",1,1,,,,,,,,,0,5,5,5,0,3,3,7,,,,,,,,,,,,,,,,,,,,,,,,,,,,,,,,,,,,,,,,,,,,,,,,,,,,,,,530.4334067879972,None,530.4334067879972,None,530.4334067879972,None,m,1,0.886776915001974,531.9688663630004,None,531.9688663630004,None,531.9688663630004,None,532.9184742039979,None,532.9184742039979,None,532.9184742039979,None,532.9184742039979,None,,,,,,,,,,,,,,,,,,,,,,,,,,,,,,,,,,,,,,,,,,,,001,18,2020_Jan_28_1458,spring_faces,3.1.5,60.05845561437907,
condition files/Stage1_2.xlsx,,T1,B2,m,"['c', 'm']","['Clue', 'Monopoly']","[-0.15, 0.5]","[0.15, 0.5]",1,1,,,,,,,,,0,5,5,5,0,4,4,2,,,,,,,,,,,,,,,,,,,,,,,,,,,,,,,,,,,,,,,,,,,,,,,,,,,,,,,534.8835075049974,None,534.8835075049974,None,534.8835075049974,None,m,1,1.0943381510005565,536.417367566999,None,536.417367566999,None,536.417367566999,None,537.5669180839977,None,537.5669180839977,None,537.5669180839977,None,537.5669180839977,None,,,,,,,,,,,,,,,,,,,,,,,,,,,,,,,,,,,,,,,,,,,,001,18,2020_Jan_28_1458,spring_faces,3.1.5,60.05845561437907,
condition files/Stage1_2.xlsx,,T3,B3,c,"['c', 'm']","['Clue', 'Monopoly']","[-0.15, 0.5]","[0.15, 0.5]",1,1,,,,,,,,,0,5,5,5,0,5,5,4,,,,,,,,,,,,,,,,,,,,,,,,,,,,,,,,,,,,,,,,,,,,,,,,,,,,,,,539.5336053840001,None,539.5336053840001,None,539.5336053840001,None,m,0,0.8270214000003762,541.0685573449991,None,541.0685573449991,None,541.0685573449991,None,541.9505570969995,None,541.9505570969995,None,541.9505570969995,None,541.9505570969995,None,,,,,,,,,,,,,,,,,,,,,,,,,,,,,,,,,,,,,,,,,,,,001,18,2020_Jan_28_1458,spring_faces,3.1.5,60.05845561437907,
condition files/Stage1_2.xlsx,,B3,T4,m,"['c', 'm']","['Clue', 'Monopoly']","[-0.15, 0.5]","[0.15, 0.5]",1,1,,,,,,,,,0,5,5,5,0,6,6,6,,,,,,,,,,,,,,,,,,,,,,,,,,,,,,,,,,,,,,,,,,,,,,,,,,,,,,,543.916699636,None,543.916699636,None,543.916699636,None,c,0,1.242521869000484,545.4530645009982,None,545.4530645009982,None,545.4530645009982,None,546.750622618998,None,546.750622618998,None,546.750622618998,None,546.750622618998,None,,,,,,,,,,,,,,,,,,,,,,,,,,,,,,,,,,,,,,,,,,,,001,18,2020_Jan_28_1458,spring_faces,3.1.5,60.05845561437907,
condition files/Stage1_2.xlsx,,B2,T2,m,"['c', 'm']","['Clue', 'Monopoly']","[-0.15, 0.5]","[0.15, 0.5]",1,1,,,,,,,,,0,5,5,5,0,7,7,3,,,,,,,,,,,,,,,,,,,,,,,,,,,,,,,,,,,,,,,,,,,,,,,,,,,,,,,548.7170676940004,None,548.7170676940004,None,548.7170676940004,None,c,0,1.5008522009993612,550.250757709,None,550.250757709,None,550.250757709,None,551.816792843998,None,551.816792843998,None,551.816792843998,None,551.816792843998,None,,,,,,,,,,,,,,,,,,,,,,,,,,,,,,,,,,,,,,,,,,,,001,18,2020_Jan_28_1458,spring_faces,3.1.5,60.05845561437907,
condition files/Stage1_1.xlsx,,B2,T1,m,"['c', 'm']","['Clue', 'Monopoly']","[-0.15, 0.5]","[0.15, 0.5]",1,1,,,,,,,,,0,6,6,6,0,0,0,2,,,,,,,,,,,,,,,,,,,,,,,,,,,,,,,,,,,,,,,,,,,,,,,,,,,,,,,553.8004705679996,None,553.8004705679996,None,553.8004705679996,None,m,1,0.8643822659978468,555.3512669109987,None,555.3512669109987,None,555.3512669109987,None,556.2675769499983,None,556.2675769499983,None,556.2675769499983,None,556.2675769499983,None,,,,,,,,,,,,,,,,,,,,,,,,,,,,,,,,,,,,,,,,,,,,001,18,2020_Jan_28_1458,spring_faces,3.1.5,60.05845561437907,
condition files/Stage1_1.xlsx,,B1,T2,c,"['c', 'm']","['Clue', 'Monopoly']","[-0.15, 0.5]","[0.15, 0.5]",1,1,,,,,,,,,0,6,6,6,0,1,1,1,,,,,,,,,,,,,,,,,,,,,,,,,,,,,,,,,,,,,,,,,,,,,,,,,,,,,,,558.2334368929987,None,558.2334368929987,None,558.2334368929987,None,c,1,0.7020023869990837,559.769666420998,None,559.769666420998,None,559.769666420998,None,560.5503480549996,None,560.5503480549996,None,560.5503480549996,None,560.5503480549996,None,,,,,,,,,,,,,,,,,,,,,,,,,,,,,,,,,,,,,,,,,,,,001,18,2020_Jan_28_1458,spring_faces,3.1.5,60.05845561437907,
condition files/Stage1_1.xlsx,,B3,T3,c,"['c', 'm']","['Clue', 'Monopoly']","[-0.15, 0.5]","[0.15, 0.5]",1,1,,,,,,,,,0,6,6,6,0,2,2,4,,,,,,,,,,,,,,,,,,,,,,,,,,,,,,,,,,,,,,,,,,,,,,,,,,,,,,,562.5006631629985,None,562.5006631629985,None,562.5006631629985,None,c,1,0.8531754910000018,564.0504887379975,None,564.0504887379975,None,564.0504887379975,None,564.9675980659995,None,564.9675980659995,None,564.9675980659995,None,564.9675980659995,None,,,,,,,,,,,,,,,,,,,,,,,,,,,,,,,,,,,,,,,,,,,,001,18,2020_Jan_28_1458,spring_faces,3.1.5,60.05845561437907,
condition files/Stage1_1.xlsx,,T4,B3,m,"['c', 'm']","['Clue', 'Monopoly']","[-0.15, 0.5]","[0.15, 0.5]",1,1,,,,,,,,,0,6,6,6,0,3,3,6,,,,,,,,,,,,,,,,,,,,,,,,,,,,,,,,,,,,,,,,,,,,,,,,,,,,,,,566.9339487879988,None,566.9339487879988,None,566.9339487879988,None,m,1,0.5004208579994156,568.467182327,None,568.467182327,None,568.467182327,None,569.0344026129969,None,569.0344026129969,None,569.0344026129969,None,569.0344026129969,None,,,,,,,,,,,,,,,,,,,,,,,,,,,,,,,,,,,,,,,,,,,,001,18,2020_Jan_28_1458,spring_faces,3.1.5,60.05845561437907,
condition files/Stage1_1.xlsx,,T3,B4,c,"['c', 'm']","['Clue', 'Monopoly']","[-0.15, 0.5]","[0.15, 0.5]",1,1,,,,,,,,,0,6,6,6,0,4,4,5,,,,,,,,,,,,,,,,,,,,,,,,,,,,,,,,,,,,,,,,,,,,,,,,,,,,,,,571.0002650329989,None,571.0002650329989,None,571.0002650329989,None,c,1,0.8326328750008543,572.5349874599997,None,572.5349874599997,None,572.5349874599997,None,573.4348932649991,None,573.4348932649991,None,573.4348932649991,None,573.4348932649991,None,,,,,,,,,,,,,,,,,,,,,,,,,,,,,,,,,,,,,,,,,,,,001,18,2020_Jan_28_1458,spring_faces,3.1.5,60.05845561437907,
condition files/Stage1_1.xlsx,,B4,T4,m,"['c', 'm']","['Clue', 'Monopoly']","[-0.15, 0.5]","[0.15, 0.5]",1,1,,,,,,,,,0,6,6,6,0,5,5,7,,,,,,,,,,,,,,,,,,,,,,,,,,,,,,,,,,,,,,,,,,,,,,,,,,,,,,,575.400291771999,None,575.400291771999,None,575.400291771999,None,c,0,0.7835779460001504,576.9360794579989,None,576.9360794579989,None,576.9360794579989,None,577.8008981709972,None,577.8008981709972,None,577.8008981709972,None,577.8008981709972,None,,,,,,,,,,,,,,,,,,,,,,,,,,,,,,,,,,,,,,,,,,,,001,18,2020_Jan_28_1458,spring_faces,3.1.5,60.05845561437907,
condition files/Stage1_1.xlsx,,T2,B2,m,"['c', 'm']","['Clue', 'Monopoly']","[-0.15, 0.5]","[0.15, 0.5]",1,1,,,,,,,,,0,6,6,6,0,6,6,3,,,,,,,,,,,,,,,,,,,,,,,,,,,,,,,,,,,,,,,,,,,,,,,,,,,,,,,579.7500320429972,None,579.7500320429972,None,579.7500320429972,None,c,0,0.7557177349990525,581.2838919059977,None,581.2838919059977,None,581.2838919059977,None,582.1010778479977,None,582.1010778479977,None,582.1010778479977,None,582.1010778479977,None,,,,,,,,,,,,,,,,,,,,,,,,,,,,,,,,,,,,,,,,,,,,001,18,2020_Jan_28_1458,spring_faces,3.1.5,60.05845561437907,
condition files/Stage1_1.xlsx,,T1,B1,c,"['c', 'm']","['Clue', 'Monopoly']","[-0.15, 0.5]","[0.15, 0.5]",1,1,,,,,,,,,0,6,6,6,0,7,7,0,,,,,,,,,,,,,,,,,,,,,,,,,,,,,,,,,,,,,,,,,,,,,,,,,,,,,,,584.0673128210001,None,584.0673128210001,None,584.0673128210001,None,c,1,1.0782585740016657,585.6013865749992,None,585.6013865749992,None,585.6013865749992,None,586.7353363759976,None,586.7353363759976,None,586.7353363759976,None,586.7353363759976,None,,,,,,,,,,,,,,,,,,,,,,,,,,,,,,,,,,,,,,,,,,,,001,18,2020_Jan_28_1458,spring_faces,3.1.5,60.05845561437907,
condition files/Stage1_2.xlsx,,B2,T2,m,"['c', 'm']","['Clue', 'Monopoly']","[-0.15, 0.5]","[0.15, 0.5]",1,1,,,,,,,,,0,7,7,7,0,0,0,3,,,,,,,,,,,,,,,,,,,,,,,,,,,,,,,,,,,,,,,,,,,,,,,,,,,,,,,588.717690882997,None,588.717690882997,None,588.717690882997,None,m,1,0.6668266629967547,590.2528499079999,None,590.2528499079999,None,590.2528499079999,None,591.0009616759999,None,591.0009616759999,None,591.0009616759999,None,591.0009616759999,None,,,,,,,,,,,,,,,,,,,,,,,,,,,,,,,,,,,,,,,,,,,,001,18,2020_Jan_28_1458,spring_faces,3.1.5,60.05845561437907,
condition files/Stage1_2.xlsx,,B4,T3,c,"['c', 'm']","['Clue', 'Monopoly']","[-0.15, 0.5]","[0.15, 0.5]",1,1,,,,,,,,,0,7,7,7,0,1,1,5,,,,,,,,,,,,,,,,,,,,,,,,,,,,,,,,,,,,,,,,,,,,,,,,,,,,,,,592.950715707997,None,592.950715707997,None,592.950715707997,None,c,1,1.0425153209980635,594.5011269379975,None,594.5011269379975,None,594.5011269379975,None,595.6177060459995,None,595.6177060459995,None,595.6177060459995,None,595.6177060459995,None,,,,,,,,,,,,,,,,,,,,,,,,,,,,,,,,,,,,,,,,,,,,001,18,2020_Jan_28_1458,spring_faces,3.1.5,60.05845561437907,
condition files/Stage1_2.xlsx,,T4,B4,m,"['c', 'm']","['Clue', 'Monopoly']","[-0.15, 0.5]","[0.15, 0.5]",1,1,,,,,,,,,0,7,7,7,0,2,2,7,,,,,,,,,,,,,,,,,,,,,,,,,,,,,,,,,,,,,,,,,,,,,,,,,,,,,,,597.5672342209982,None,597.5672342209982,None,597.5672342209982,None,m,1,1.0352262220003468,599.1004245839977,None,599.1004245839977,None,599.1004245839977,None,600.2176367600005,None,600.2176367600005,None,600.2176367600005,None,600.2176367600005,None,,,,,,,,,,,,,,,,,,,,,,,,,,,,,,,,,,,,,,,,,,,,001,18,2020_Jan_28_1458,spring_faces,3.1.5,60.05845561437907,
condition files/Stage1_2.xlsx,,T3,B3,c,"['c', 'm']","['Clue', 'Monopoly']","[-0.15, 0.5]","[0.15, 0.5]",1,1,,,,,,,,,0,7,7,7,0,3,3,4,,,,,,,,,,,,,,,,,,,,,,,,,,,,,,,,,,,,,,,,,,,,,,,,,,,,,,,602.1668174499973,None,602.1668174499973,None,602.1668174499973,None,m,0,0.7534959149998031,603.7021749689993,None,603.7021749689993,None,603.7021749689993,None,604.5182886019975,None,604.5182886019975,None,604.5182886019975,None,604.5182886019975,None,,,,,,,,,,,,,,,,,,,,,,,,,,,,,,,,,,,,,,,,,,,,001,18,2020_Jan_28_1458,spring_faces,3.1.5,60.05845561437907,
condition files/Stage1_2.xlsx,,T1,B2,m,"['c', 'm']","['Clue', 'Monopoly']","[-0.15, 0.5]","[0.15, 0.5]",1,1,,,,,,,,,0,7,7,7,0,4,4,2,,,,,,,,,,,,,,,,,,,,,,,,,,,,,,,,,,,,,,,,,,,,,,,,,,,,,,,606.4833911139976,None,606.4833911139976,None,606.4833911139976,None,c,0,0.7575608229999489,608.0341435709997,None,608.0341435709997,None,608.0341435709997,None,608.8511582430001,None,608.8511582430001,None,608.8511582430001,None,608.8511582430001,None,,,,,,,,,,,,,,,,,,,,,,,,,,,,,,,,,,,,,,,,,,,,001,18,2020_Jan_28_1458,spring_faces,3.1.5,60.05845561437907,
condition files/Stage1_2.xlsx,,B3,T4,m,"['c', 'm']","['Clue', 'Monopoly']","[-0.15, 0.5]","[0.15, 0.5]",1,1,,,,,,,,,0,7,7,7,0,5,5,6,,,,,,,,,,,,,,,,,,,,,,,,,,,,,,,,,,,,,,,,,,,,,,,,,,,,,,,610.8175082950002,None,610.8175082950002,None,610.8175082950002,None,c,0,0.8564869239999098,612.3512378179985,None,612.3512378179985,None,612.3512378179985,None,613.2675499319994,None,613.2675499319994,None,613.2675499319994,None,613.2675499319994,None,,,,,,,,,,,,,,,,,,,,,,,,,,,,,,,,,,,,,,,,,,,,001,18,2020_Jan_28_1458,spring_faces,3.1.5,60.05845561437907,
condition files/Stage1_2.xlsx,,B1,T1,c,"['c', 'm']","['Clue', 'Monopoly']","[-0.15, 0.5]","[0.15, 0.5]",1,1,,,,,,,,,0,7,7,7,0,6,6,0,,,,,,,,,,,,,,,,,,,,,,,,,,,,,,,,,,,,,,,,,,,,,,,,,,,,,,,615.2335354329989,None,615.2335354329989,None,615.2335354329989,None,m,0,0.6936584579998453,616.7700026919993,None,616.7700026919993,None,616.7700026919993,None,617.5179440229986,None,617.5179440229986,None,617.5179440229986,None,617.5179440229986,None,,,,,,,,,,,,,,,,,,,,,,,,,,,,,,,,,,,,,,,,,,,,001,18,2020_Jan_28_1458,spring_faces,3.1.5,60.05845561437907,
condition files/Stage1_2.xlsx,,T2,B1,c,"['c', 'm']","['Clue', 'Monopoly']","[-0.15, 0.5]","[0.15, 0.5]",1,1,,,,,,,,,0,7,7,7,0,7,7,1,,,,,,,,,,,,,,,,,,,,,,,,,,,,,,,,,,,,,,,,,,,,,,,,,,,,,,,619.4841607589988,None,619.4841607589988,None,619.4841607589988,None,m,0,0.38140699499854236,621.0182598339998,None,621.0182598339998,None,621.0182598339998,None,621.450956834,None,621.450956834,None,621.450956834,None,621.450956834,None,,,,,,,,,,,,,,,,,,,,,,,,,,,,,,,,,,,,,,,,,,,,001,18,2020_Jan_28_1458,spring_faces,3.1.5,60.05845561437907,
condition files/Stage1_1.xlsx,,T4,B3,m,"['c', 'm']","['Clue', 'Monopoly']","[-0.15, 0.5]","[0.15, 0.5]",1,1,,,,,,,,,0,8,8,8,0,0,0,6,,,,,,,,,,,,,,,,,,,,,,,,,,,,,,,,,,,,,,,,,,,,,,,,,,,,,,,623.4344806070003,None,623.4344806070003,None,623.4344806070003,None,m,1,1.007564261002699,624.9681660829992,None,624.9681660829992,None,624.9681660829992,None,626.0340125689982,None,626.0340125689982,None,626.0340125689982,None,626.0340125689982,None,,,,,,,,,,,,,,,,,,,,,,,,,,,,,,,,,,,,,,,,,,,,001,18,2020_Jan_28_1458,spring_faces,3.1.5,60.05845561437907,
condition files/Stage1_1.xlsx,,T1,B1,c,"['c', 'm']","['Clue', 'Monopoly']","[-0.15, 0.5]","[0.15, 0.5]",1,1,,,,,,,,,0,8,8,8,0,1,1,0,,,,,,,,,,,,,,,,,,,,,,,,,,,,,,,,,,,,,,,,,,,,,,,,,,,,,,,628.0006146999986,None,628.0006146999986,None,628.0006146999986,None,c,1,0.6174697300011758,629.5341607219998,None,629.5341607219998,None,629.5341607219998,None,630.2175032239975,None,630.2175032239975,None,630.2175032239975,None,630.2175032239975,None,,,,,,,,,,,,,,,,,,,,,,,,,,,,,,,,,,,,,,,,,,,,001,18,2020_Jan_28_1458,spring_faces,3.1.5,60.05845561437907,
condition files/Stage1_1.xlsx,,B3,T3,c,"['c', 'm']","['Clue', 'Monopoly']","[-0.15, 0.5]","[0.15, 0.5]",1,1,,,,,,,,,0,8,8,8,0,2,2,4,,,,,,,,,,,,,,,,,,,,,,,,,,,,,,,,,,,,,,,,,,,,,,,,,,,,,,,632.1834896179971,None,632.1834896179971,None,632.1834896179971,None,c,1,0.8013954679991002,633.7181968229997,None,633.7181968229997,None,633.7181968229997,None,634.5835681280005,None,634.5835681280005,None,634.5835681280005,None,634.5835681280005,None,,,,,,,,,,,,,,,,,,,,,,,,,,,,,,,,,,,,,,,,,,,,001,18,2020_Jan_28_1458,spring_faces,3.1.5,60.05845561437907,
condition files/Stage1_1.xlsx,,B2,T1,m,"['c', 'm']","['Clue', 'Monopoly']","[-0.15, 0.5]","[0.15, 0.5]",1,1,,,,,,,,,0,8,8,8,0,3,3,2,,,,,,,,,,,,,,,,,,,,,,,,,,,,,,,,,,,,,,,,,,,,,,,,,,,,,,,636.5501345999983,None,636.5501345999983,None,636.5501345999983,None,m,1,0.6742347509971296,638.0854878030004,None,638.0854878030004,None,638.0854878030004,None,638.8191500479988,None,638.8191500479988,None,638.8191500479988,None,638.8191500479988,None,,,,,,,,,,,,,,,,,,,,,,,,,,,,,,,,,,,,,,,,,,,,001,18,2020_Jan_28_1458,spring_faces,3.1.5,60.05845561437907,
condition files/Stage1_1.xlsx,,T2,B2,m,"['c', 'm']","['Clue', 'Monopoly']","[-0.15, 0.5]","[0.15, 0.5]",1,1,,,,,,,,,0,8,8,8,0,4,4,3,,,,,,,,,,,,,,,,,,,,,,,,,,,,,,,,,,,,,,,,,,,,,,,,,,,,,,,640.7833488599972,None,640.7833488599972,None,640.7833488599972,None,c,0,0.7298424529981276,642.3178266229988,None,642.3178266229988,None,642.3178266229988,None,643.1006356090002,None,643.1006356090002,None,643.1006356090002,None,643.1006356090002,None,,,,,,,,,,,,,,,,,,,,,,,,,,,,,,,,,,,,,,,,,,,,001,18,2020_Jan_28_1458,spring_faces,3.1.5,60.05845561437907,
condition files/Stage1_1.xlsx,,B1,T2,c,"['c', 'm']","['Clue', 'Monopoly']","[-0.15, 0.5]","[0.15, 0.5]",1,1,,,,,,,,,0,8,8,8,0,5,5,1,,,,,,,,,,,,,,,,,,,,,,,,,,,,,,,,,,,,,,,,,,,,,,,,,,,,,,,645.0669479969984,None,645.0669479969984,None,645.0669479969984,None,c,1,0.510778231000586,646.6008495149981,None,646.6008495149981,None,646.6008495149981,None,647.1840062839983,None,647.1840062839983,None,647.1840062839983,None,647.1840062839983,None,,,,,,,,,,,,,,,,,,,,,,,,,,,,,,,,,,,,,,,,,,,,001,18,2020_Jan_28_1458,spring_faces,3.1.5,60.05845561437907,
condition files/Stage1_1.xlsx,,B4,T4,m,"['c', 'm']","['Clue', 'Monopoly']","[-0.15, 0.5]","[0.15, 0.5]",1,1,,,,,,,,,0,8,8,8,0,6,6,7,,,,,,,,,,,,,,,,,,,,,,,,,,,,,,,,,,,,,,,,,,,,,,,,,,,,,,,649.1340173549979,None,649.1340173549979,None,649.1340173549979,None,c,0,0.5391036069995607,650.6686194169997,None,650.6686194169997,None,650.6686194169997,None,651.2844469649972,None,651.2844469649972,None,651.2844469649972,None,651.2844469649972,None,,,,,,,,,,,,,,,,,,,,,,,,,,,,,,,,,,,,,,,,,,,,001,18,2020_Jan_28_1458,spring_faces,3.1.5,60.05845561437907,
condition files/Stage1_1.xlsx,,T3,B4,c,"['c', 'm']","['Clue', 'Monopoly']","[-0.15, 0.5]","[0.15, 0.5]",1,1,,,,,,,,,0,8,8,8,0,7,7,5,,,,,,,,,,,,,,,,,,,,,,,,,,,,,,,,,,,,,,,,,,,,,,,,,,,,,,,653.2334930500001,None,653.2334930500001,None,653.2334930500001,None,m,0,0.36059465400103363,654.7671342789981,None,654.7671342789981,None,654.7671342789981,None,655.1844463799971,None,655.1844463799971,None,655.1844463799971,None,655.1844463799971,None,,,,,,,,,,,,,,,,,,,,,,,,,,,,,,,,,,,,,,,,,,,,001,18,2020_Jan_28_1458,spring_faces,3.1.5,60.05845561437907,
condition files/Stage1_2.xlsx,,T2,B1,c,"['c', 'm']","['Clue', 'Monopoly']","[-0.15, 0.5]","[0.15, 0.5]",1,1,,,,,,,,,0,9,9,9,0,0,0,1,,,,,,,,,,,,,,,,,,,,,,,,,,,,,,,,,,,,,,,,,,,,,,,,,,,,,,,657.1670926099978,None,657.1670926099978,None,657.1670926099978,None,c,1,0.298865097000089,658.7007951639971,None,658.7007951639971,None,658.7007951639971,None,659.0508779839984,None,659.0508779839984,None,659.0508779839984,None,659.0508779839984,None,,,,,,,,,,,,,,,,,,,,,,,,,,,,,,,,,,,,,,,,,,,,001,18,2020_Jan_28_1458,spring_faces,3.1.5,60.05845561437907,
condition files/Stage1_2.xlsx,,T3,B3,c,"['c', 'm']","['Clue', 'Monopoly']","[-0.15, 0.5]","[0.15, 0.5]",1,1,,,,,,,,,0,9,9,9,0,1,1,4,,,,,,,,,,,,,,,,,,,,,,,,,,,,,,,,,,,,,,,,,,,,,,,,,,,,,,,661.0173269730003,None,661.0173269730003,None,661.0173269730003,None,c,1,0.5748269459982112,662.5529017599983,None,662.5529017599983,None,662.5529017599983,None,663.184208314,None,663.184208314,None,663.184208314,None,663.184208314,None,,,,,,,,,,,,,,,,,,,,,,,,,,,,,,,,,,,,,,,,,,,,001,18,2020_Jan_28_1458,spring_faces,3.1.5,60.05845561437907,
condition files/Stage1_2.xlsx,,B2,T2,m,"['c', 'm']","['Clue', 'Monopoly']","[-0.15, 0.5]","[0.15, 0.5]",1,1,,,,,,,,,0,9,9,9,0,2,2,3,,,,,,,,,,,,,,,,,,,,,,,,,,,,,,,,,,,,,,,,,,,,,,,,,,,,,,,665.1500160659998,None,665.1500160659998,None,665.1500160659998,None,c,0,0.5557958490026067,666.6838607229984,None,666.6838607229984,None,666.6838607229984,None,667.3003311049979,None,667.3003311049979,None,667.3003311049979,None,667.3003311049979,None,,,,,,,,,,,,,,,,,,,,,,,,,,,,,,,,,,,,,,,,,,,,001,18,2020_Jan_28_1458,spring_faces,3.1.5,60.05845561437907,
condition files/Stage1_2.xlsx,,T1,B2,m,"['c', 'm']","['Clue', 'Monopoly']","[-0.15, 0.5]","[0.15, 0.5]",1,1,,,,,,,,,0,9,9,9,0,3,3,2,,,,,,,,,,,,,,,,,,,,,,,,,,,,,,,,,,,,,,,,,,,,,,,,,,,,,,,669.2671778330005,None,669.2671778330005,None,669.2671778330005,None,m,1,0.3565392089985835,670.8031927909979,None,670.8031927909979,None,670.8031927909979,None,671.2174026459979,None,671.2174026459979,None,671.2174026459979,None,671.2174026459979,None,,,,,,,,,,,,,,,,,,,,,,,,,,,,,,,,,,,,,,,,,,,,001,18,2020_Jan_28_1458,spring_faces,3.1.5,60.05845561437907,
condition files/Stage1_2.xlsx,,B1,T1,c,"['c', 'm']","['Clue', 'Monopoly']","[-0.15, 0.5]","[0.15, 0.5]",1,1,,,,,,,,,0,9,9,9,0,4,4,0,,,,,,,,,,,,,,,,,,,,,,,,,,,,,,,,,,,,,,,,,,,,,,,,,,,,,,,673.1834534339978,None,673.1834534339978,None,673.1834534339978,None,c,1,0.4581153369981621,674.7176044150001,None,674.7176044150001,None,674.7176044150001,None,675.233696037998,None,675.233696037998,None,675.233696037998,None,675.233696037998,None,,,,,,,,,,,,,,,,,,,,,,,,,,,,,,,,,,,,,,,,,,,,001,18,2020_Jan_28_1458,spring_faces,3.1.5,60.05845561437907,
condition files/Stage1_2.xlsx,,T4,B4,m,"['c', 'm']","['Clue', 'Monopoly']","[-0.15, 0.5]","[0.15, 0.5]",1,1,,,,,,,,,0,9,9,9,0,5,5,7,,,,,,,,,,,,,,,,,,,,,,,,,,,,,,,,,,,,,,,,,,,,,,,,,,,,,,,677.200801125,None,677.200801125,None,677.200801125,None,c,0,0.7457488000000012,678.7338930029982,None,678.7338930029982,None,678.7338930029982,None,679.534918694997,None,679.534918694997,None,679.534918694997,None,679.534918694997,None,,,,,,,,,,,,,,,,,,,,,,,,,,,,,,,,,,,,,,,,,,,,001,18,2020_Jan_28_1458,spring_faces,3.1.5,60.05845561437907,
condition files/Stage1_2.xlsx,,B4,T3,c,"['c', 'm']","['Clue', 'Monopoly']","[-0.15, 0.5]","[0.15, 0.5]",1,1,,,,,,,,,0,9,9,9,0,6,6,5,,,,,,,,,,,,,,,,,,,,,,,,,,,,,,,,,,,,,,,,,,,,,,,,,,,,,,,681.5006172859976,None,681.5006172859976,None,681.5006172859976,None,c,1,0.7156198419979773,683.0359965379976,None,683.0359965379976,None,683.0359965379976,None,683.8342553080001,None,683.8342553080001,None,683.8342553080001,None,683.8342553080001,None,,,,,,,,,,,,,,,,,,,,,,,,,,,,,,,,,,,,,,,,,,,,001,18,2020_Jan_28_1458,spring_faces,3.1.5,60.05845561437907,
condition files/Stage1_2.xlsx,,B3,T4,m,"['c', 'm']","['Clue', 'Monopoly']","[-0.15, 0.5]","[0.15, 0.5]",1,1,,,,,,,,,0,9,9,9,0,7,7,6,,,,,,,,,,,,,,,,,,,,,,,,,,,,,,,,,,,,,,,,,,,,,,,,,,,,,,,685.7841466009995,None,685.7841466009995,None,685.7841466009995,None,c,0,1.0257150959987484,687.3339881939974,None,687.3339881939974,None,687.3339881939974,None,688.4178258459979,None,688.4178258459979,None,688.4178258459979,None,688.4178258459979,None,,,,,,,,,,,,,,,,,,,,,,,,,,,,,,,,,,,,,,,,,,,,001,18,2020_Jan_28_1458,spring_faces,3.1.5,60.05845561437907,
condition files/Stage1_1.xlsx,,B3,T3,c,"['c', 'm']","['Clue', 'Monopoly']","[-0.15, 0.5]","[0.15, 0.5]",1,1,,,,,,,,,0,10,10,10,0,0,0,4,,,,,,,,,,,,,,,,,,,,,,,,,,,,,,,,,,,,,,,,,,,,,,,,,,,,,,,690.4004499639996,None,690.4004499639996,None,690.4004499639996,None,c,1,1.0966524529976596,691.9509982709969,None,691.9509982709969,None,691.9509982709969,None,693.117594526997,None,693.117594526997,None,693.117594526997,None,693.117594526997,None,,,,,,,,,,,,,,,,,,,,,,,,,,,,,,,,,,,,,,,,,,,,001,18,2020_Jan_28_1458,spring_faces,3.1.5,60.05845561437907,
condition files/Stage1_1.xlsx,,B4,T4,m,"['c', 'm']","['Clue', 'Monopoly']","[-0.15, 0.5]","[0.15, 0.5]",1,1,,,,,,,,,0,10,10,10,0,1,1,7,,,,,,,,,,,,,,,,,,,,,,,,,,,,,,,,,,,,,,,,,,,,,,,,,,,,,,,695.0672637899988,None,695.0672637899988,None,695.0672637899988,None,m,1,0.6865911530003359,696.6010642199981,None,696.6010642199981,None,696.6010642199981,None,697.3523981699982,None,697.3523981699982,None,697.3523981699982,None,697.3523981699982,None,,,,,,,,,,,,,,,,,,,,,,,,,,,,,,,,,,,,,,,,,,,,001,18,2020_Jan_28_1458,spring_faces,3.1.5,60.05845561437907,
condition files/Stage1_1.xlsx,,B1,T2,c,"['c', 'm']","['Clue', 'Monopoly']","[-0.15, 0.5]","[0.15, 0.5]",1,1,,,,,,,,,0,10,10,10,0,2,2,1,,,,,,,,,,,,,,,,,,,,,,,,,,,,,,,,,,,,,,,,,,,,,,,,,,,,,,,699.3173097199979,None,699.3173097199979,None,699.3173097199979,None,c,1,0.8361144259979483,700.8515583059998,None,700.8515583059998,None,700.8515583059998,None,701.7677821199977,None,701.7677821199977,None,701.7677821199977,None,701.7677821199977,None,,,,,,,,,,,,,,,,,,,,,,,,,,,,,,,,,,,,,,,,,,,,001,18,2020_Jan_28_1458,spring_faces,3.1.5,60.05845561437907,
condition files/Stage1_1.xlsx,,T3,B4,c,"['c', 'm']","['Clue', 'Monopoly']","[-0.15, 0.5]","[0.15, 0.5]",1,1,,,,,,,,,0,10,10,10,0,3,3,5,,,,,,,,,,,,,,,,,,,,,,,,,,,,,,,,,,,,,,,,,,,,,,,,,,,,,,,703.7172935179988,None,703.7172935179988,None,703.7172935179988,None,c,1,1.412193477000983,705.2674508889977,None,705.2674508889977,None,705.2674508889977,None,706.734319119998,None,706.734319119998,None,706.734319119998,None,706.734319119998,None,,,,,,,,,,,,,,,,,,,,,,,,,,,,,,,,,,,,,,,,,,,,001,18,2020_Jan_28_1458,spring_faces,3.1.5,60.05845561437907,
condition files/Stage1_1.xlsx,,B2,T1,m,"['c', 'm']","['Clue', 'Monopoly']","[-0.15, 0.5]","[0.15, 0.5]",1,1,,,,,,,,,0,10,10,10,0,4,4,2,,,,,,,,,,,,,,,,,,,,,,,,,,,,,,,,,,,,,,,,,,,,,,,,,,,,,,,708.700398746998,None,708.700398746998,None,708.700398746998,None,c,0,0.8926345690015296,710.251031380998,None,710.251031380998,None,710.251031380998,None,711.2170829999995,None,711.2170829999995,None,711.2170829999995,None,711.2170829999995,None,,,,,,,,,,,,,,,,,,,,,,,,,,,,,,,,,,,,,,,,,,,,001,18,2020_Jan_28_1458,spring_faces,3.1.5,60.05845561437907,
condition files/Stage1_1.xlsx,,T2,B2,m,"['c', 'm']","['Clue', 'Monopoly']","[-0.15, 0.5]","[0.15, 0.5]",1,1,,,,,,,,,0,10,10,10,0,5,5,3,,,,,,,,,,,,,,,,,,,,,,,,,,,,,,,,,,,,,,,,,,,,,,,,,,,,,,,713.1674788559976,None,713.1674788559976,None,713.1674788559976,None,c,0,1.1457983660002355,714.7178507989993,None,714.7178507989993,None,714.7178507989993,None,715.9178358719982,None,715.9178358719982,None,715.9178358719982,None,715.9178358719982,None,,,,,,,,,,,,,,,,,,,,,,,,,,,,,,,,,,,,,,,,,,,,001,18,2020_Jan_28_1458,spring_faces,3.1.5,60.05845561437907,
condition files/Stage1_1.xlsx,,T4,B3,m,"['c', 'm']","['Clue', 'Monopoly']","[-0.15, 0.5]","[0.15, 0.5]",1,1,,,,,,,,,0,10,10,10,0,6,6,6,,,,,,,,,,,,,,,,,,,,,,,,,,,,,,,,,,,,,,,,,,,,,,,,,,,,,,,717.8841010069991,None,717.8841010069991,None,717.8841010069991,None,m,1,0.7013490890021785,719.4342970580001,None,719.4342970580001,None,719.4342970580001,None,720.2006169909982,None,720.2006169909982,None,720.2006169909982,None,720.2006169909982,None,,,,,,,,,,,,,,,,,,,,,,,,,,,,,,,,,,,,,,,,,,,,001,18,2020_Jan_28_1458,spring_faces,3.1.5,60.05845561437907,
condition files/Stage1_1.xlsx,,T1,B1,c,"['c', 'm']","['Clue', 'Monopoly']","[-0.15, 0.5]","[0.15, 0.5]",1,1,,,,,,,,,0,10,10,10,0,7,7,0,,,,,,,,,,,,,,,,,,,,,,,,,,,,,,,,,,,,,,,,,,,,,,,,,,,,,,,722.1671857969995,None,722.1671857969995,None,722.1671857969995,None,m,0,1.0571390740005882,723.7025664649991,None,723.7025664649991,None,723.7025664649991,None,724.8179263210004,None,724.8179263210004,None,724.8179263210004,None,724.8179263210004,None,,,,,,,,,,,,,,,,,,,,,,,,,,,,,,,,,,,,,,,,,,,,001,18,2020_Jan_28_1458,spring_faces,3.1.5,60.05845561437907,
condition files/Stage1_2.xlsx,,T3,B3,c,"['c', 'm']","['Clue', 'Monopoly']","[-0.15, 0.5]","[0.15, 0.5]",1,1,,,,,,,,,0,11,11,11,0,0,0,4,,,,,,,,,,,,,,,,,,,,,,,,,,,,,,,,,,,,,,,,,,,,,,,,,,,,,,,726.8009728469988,None,726.8009728469988,None,726.8009728469988,None,c,1,1.096647647998907,728.3510392999997,None,728.3510392999997,None,728.3510392999997,None,729.5005383690004,None,729.5005383690004,None,729.5005383690004,None,729.5005383690004,None,,,,,,,,,,,,,,,,,,,,,,,,,,,,,,,,,,,,,,,,,,,,001,18,2020_Jan_28_1458,spring_faces,3.1.5,60.05845561437907,
condition files/Stage1_2.xlsx,,B4,T3,c,"['c', 'm']","['Clue', 'Monopoly']","[-0.15, 0.5]","[0.15, 0.5]",1,1,,,,,,,,,0,11,11,11,0,1,1,5,,,,,,,,,,,,,,,,,,,,,,,,,,,,,,,,,,,,,,,,,,,,,,,,,,,,,,,731.4667043879999,None,731.4667043879999,None,731.4667043879999,None,c,1,1.0379382909995911,733.0177114109974,None,733.0177114109974,None,733.0177114109974,None,734.1176807219999,None,734.1176807219999,None,734.1176807219999,None,734.1176807219999,None,,,,,,,,,,,,,,,,,,,,,,,,,,,,,,,,,,,,,,,,,,,,001,18,2020_Jan_28_1458,spring_faces,3.1.5,60.05845561437907,
condition files/Stage1_2.xlsx,,T2,B1,c,"['c', 'm']","['Clue', 'Monopoly']","[-0.15, 0.5]","[0.15, 0.5]",1,1,,,,,,,,,0,11,11,11,0,2,2,1,,,,,,,,,,,,,,,,,,,,,,,,,,,,,,,,,,,,,,,,,,,,,,,,,,,,,,,736.0839550429992,None,736.0839550429992,None,736.0839550429992,None,m,0,0.9812970570019388,737.6343516229972,None,737.6343516229972,None,737.6343516229972,None,738.6677257239971,None,738.6677257239971,None,738.6677257239971,None,738.6677257239971,None,,,,,,,,,,,,,,,,,,,,,,,,,,,,,,,,,,,,,,,,,,,,001,18,2020_Jan_28_1458,spring_faces,3.1.5,60.05845561437907,
condition files/Stage1_2.xlsx,,B1,T1,c,"['c', 'm']","['Clue', 'Monopoly']","[-0.15, 0.5]","[0.15, 0.5]",1,1,,,,,,,,,0,11,11,11,0,3,3,0,,,,,,,,,,,,,,,,,,,,,,,,,,,,,,,,,,,,,,,,,,,,,,,,,,,,,,,740.6340016489994,None,740.6340016489994,None,740.6340016489994,None,c,1,0.8301625979984237,742.1694962069996,None,742.1694962069996,None,742.1694962069996,None,743.0506078289982,None,743.0506078289982,None,743.0506078289982,None,743.0506078289982,None,,,,,,,,,,,,,,,,,,,,,,,,,,,,,,,,,,,,,,,,,,,,001,18,2020_Jan_28_1458,spring_faces,3.1.5,60.05845561437907,
condition files/Stage1_2.xlsx,,B3,T4,m,"['c', 'm']","['Clue', 'Monopoly']","[-0.15, 0.5]","[0.15, 0.5]",1,1,,,,,,,,,0,11,11,11,0,4,4,6,,,,,,,,,,,,,,,,,,,,,,,,,,,,,,,,,,,,,,,,,,,,,,,,,,,,,,,745.0173840779971,None,745.0173840779971,None,745.0173840779971,None,m,1,0.9586705080000684,746.5530666880004,None,746.5530666880004,None,746.5530666880004,None,747.5678483249976,None,747.5678483249976,None,747.5678483249976,None,747.5678483249976,None,,,,,,,,,,,,,,,,,,,,,,,,,,,,,,,,,,,,,,,,,,,,001,18,2020_Jan_28_1458,spring_faces,3.1.5,60.05845561437907,
condition files/Stage1_2.xlsx,,T4,B4,m,"['c', 'm']","['Clue', 'Monopoly']","[-0.15, 0.5]","[0.15, 0.5]",1,1,,,,,,,,,0,11,11,11,0,5,5,7,,,,,,,,,,,,,,,,,,,,,,,,,,,,,,,,,,,,,,,,,,,,,,,,,,,,,,,749.533592951997,None,749.533592951997,None,749.533592951997,None,m,1,0.7629991600006178,751.0846223269982,None,751.0846223269982,None,751.0846223269982,None,751.9009875049996,None,751.9009875049996,None,751.9009875049996,None,751.9009875049996,None,,,,,,,,,,,,,,,,,,,,,,,,,,,,,,,,,,,,,,,,,,,,001,18,2020_Jan_28_1458,spring_faces,3.1.5,60.05845561437907,
condition files/Stage1_2.xlsx,,T1,B2,m,"['c', 'm']","['Clue', 'Monopoly']","[-0.15, 0.5]","[0.15, 0.5]",1,1,,,,,,,,,0,11,11,11,0,6,6,2,,,,,,,,,,,,,,,,,,,,,,,,,,,,,,,,,,,,,,,,,,,,,,,,,,,,,,,753.8668005369982,None,753.8668005369982,None,753.8668005369982,None,c,0,0.799144452001201,755.4005022219972,None,755.4005022219972,None,755.4005022219972,None,756.2509077219984,None,756.2509077219984,None,756.2509077219984,None,756.2509077219984,None,,,,,,,,,,,,,,,,,,,,,,,,,,,,,,,,,,,,,,,,,,,,001,18,2020_Jan_28_1458,spring_faces,3.1.5,60.05845561437907,
condition files/Stage1_2.xlsx,,B2,T2,m,"['c', 'm']","['Clue', 'Monopoly']","[-0.15, 0.5]","[0.15, 0.5]",1,1,,,,,,,,,0,11,11,11,0,7,7,3,,,,,,,,,,,,,,,,,,,,,,,,,,,,,,,,,,,,,,,,,,,,,,,,,,,,,,,758.2168880979989,None,758.2168880979989,None,758.2168880979989,None,m,1,1.2810830829985207,759.7505816779994,None,759.7505816779994,None,759.7505816779994,None,761.0839778849986,None,761.0839778849986,None,761.0839778849986,None,761.0839778849986,None,,,,,,,,,,,,,,,,,,,,,,,,,,,,,,,,,,,,,,,,,,,,001,18,2020_Jan_28_1458,spring_faces,3.1.5,60.05845561437907,
,,,,,,,,,,,,,,,,,,,,,,,,,,,,,,,,,,,,,,,,,,,,,,,,,,,,,,,,,,,,,,,,,,,,,,,,,,,,,,,,,,,,,,,,,,,,,,,,,,,,,,,,,,,,,,,,763.0676558359992,None,space,9.300204225000925,768.0674011699994,None,,,,,,,,,,,,,,,,,,,,,,,,,,,,,,001,18,2020_Jan_28_1458,spring_faces,3.1.5,60.05845561437907,
condition files/Stage2_1.xlsx,,B6,T6,r,"['s', 'r']","['Stratego', 'Risk']","[-0.15, 0.5]","[0.15, 0.5]",1,1,,,,,,,,,,,,,,,,,0,0,0,0,0,0,0,1,,,,,,,,,,,,,,,,,,,,,,,,,,,,,,,,,,,,,,,,,,,,,,,777.4170910689973,None,777.4170910689973,None,777.4170910689973,None,s,0,1.2001192499992612,778.9674769729972,None,778.9674769729972,None,778.9674769729972,None,780.2349177629985,None,780.2349177629985,None,780.2349177629985,None,780.2349177629985,None,,,,,,,,,,,,,,,768.0674011699994,None,,,,,,,,,,,,,,,,,,,,,,,,,,,,001,18,2020_Jan_28_1458,spring_faces,3.1.5,60.05845561437907,
condition files/Stage2_1.xlsx,,T5,B5,s,"['s', 'r']","['Stratego', 'Risk']","[-0.15, 0.5]","[0.15, 0.5]",1,1,,,,,,,,,,,,,,,,,0,0,0,0,0,1,1,0,,,,,,,,,,,,,,,,,,,,,,,,,,,,,,,,,,,,,,,,,,,,,,,782.2007562569997,None,782.2007562569997,None,782.2007562569997,None,s,1,1.102618208999047,783.7850561689993,None,783.7850561689993,None,783.7850561689993,None,784.9533630019978,None,784.9533630019978,None,784.9533630019978,None,784.9533630019978,None,,,,,,,,,,,,,,,,,,,,,,,,,,,,,,,,,,,,,,,,,,,,001,18,2020_Jan_28_1458,spring_faces,3.1.5,60.05845561437907,
condition files/Stage2_1.xlsx,,T3,B3,s,"['s', 'r']","['Stratego', 'Risk']","[-0.15, 0.5]","[0.15, 0.5]",1,1,,,,,,,,,,,,,,,,,0,0,0,0,0,2,2,4,,,,,,,,,,,,,,,,,,,,,,,,,,,,,,,,,,,,,,,,,,,,,,,786.9173138189981,None,786.9173138189981,None,786.9173138189981,None,s,1,0.7866091400028381,788.4530568789996,None,788.4530568789996,None,788.4530568789996,None,789.3008864949988,None,789.3008864949988,None,789.3008864949988,None,789.3008864949988,None,,,,,,,,,,,,,,,,,,,,,,,,,,,,,,,,,,,,,,,,,,,,001,18,2020_Jan_28_1458,spring_faces,3.1.5,60.05845561437907,
condition files/Stage2_1.xlsx,,T1,B1,s,"['s', 'r']","['Stratego', 'Risk']","[-0.15, 0.5]","[0.15, 0.5]",1,1,,,,,,,,,,,,,,,,,0,0,0,0,0,3,3,2,,,,,,,,,,,,,,,,,,,,,,,,,,,,,,,,,,,,,,,,,,,,,,,791.2673354059989,None,791.2673354059989,None,791.2673354059989,None,s,1,0.805206699998962,792.8025220469972,None,792.8025220469972,None,792.8025220469972,None,793.6676187329977,None,793.6676187329977,None,793.6676187329977,None,793.6676187329977,None,,,,,,,,,,,,,,,,,,,,,,,,,,,,,,,,,,,,,,,,,,,,001,18,2020_Jan_28_1458,spring_faces,3.1.5,60.05845561437907,
condition files/Stage2_1.xlsx,,B4,T4,r,"['s', 'r']","['Stratego', 'Risk']","[-0.15, 0.5]","[0.15, 0.5]",1,1,,,,,,,,,,,,,,,,,0,0,0,0,0,4,4,5,,,,,,,,,,,,,,,,,,,,,,,,,,,,,,,,,,,,,,,,,,,,,,,795.6333916529984,None,795.6333916529984,None,795.6333916529984,None,r,1,0.8872567889993661,797.1844010959976,None,797.1844010959976,None,797.1844010959976,None,798.1502521459988,None,798.1502521459988,None,798.1502521459988,None,798.1502521459988,None,,,,,,,,,,,,,,,,,,,,,,,,,,,,,,,,,,,,,,,,,,,,001,18,2020_Jan_28_1458,spring_faces,3.1.5,60.05845561437907,
condition files/Stage2_1.xlsx,,B2,T2,r,"['s', 'r']","['Stratego', 'Risk']","[-0.15, 0.5]","[0.15, 0.5]",1,1,,,,,,,,,,,,,,,,,0,0,0,0,0,5,5,3,,,,,,,,,,,,,,,,,,,,,,,,,,,,,,,,,,,,,,,,,,,,,,,800.1003999929999,None,800.1003999929999,None,800.1003999929999,None,r,1,0.7578595820014016,801.6338669439974,None,801.6338669439974,None,801.6338669439974,None,802.4504386579974,None,802.4504386579974,None,802.4504386579974,None,802.4504386579974,None,,,,,,,,,,,,,,,,,,,,,,,,,,,,,,,,,,,,,,,,,,,,001,18,2020_Jan_28_1458,spring_faces,3.1.5,60.05845561437907,
condition files/Stage2_2.xlsx,,T2,B2,r,"['s', 'r']","['Stratego', 'Risk']","[-0.15, 0.5]","[0.15, 0.5]",1,1,,,,,,,,,,,,,,,,,0,1,1,1,0,0,0,3,,,,,,,,,,,,,,,,,,,,,,,,,,,,,,,,,,,,,,,,,,,,,,,804.4334104779991,None,804.4334104779991,None,804.4334104779991,None,s,0,0.8228993689990602,805.9688671839976,None,805.9688671839976,None,805.9688671839976,None,806.850747384,None,806.850747384,None,806.850747384,None,806.850747384,None,,,,,,,,,,,,,,,,,,,,,,,,,,,,,,,,,,,,,,,,,,,,001,18,2020_Jan_28_1458,spring_faces,3.1.5,60.05845561437907,
condition files/Stage2_2.xlsx,,T6,B6,r,"['s', 'r']","['Stratego', 'Risk']","[-0.15, 0.5]","[0.15, 0.5]",1,1,,,,,,,,,,,,,,,,,0,1,1,1,0,1,1,1,,,,,,,,,,,,,,,,,,,,,,,,,,,,,,,,,,,,,,,,,,,,,,,808.8165080399995,None,808.8165080399995,None,808.8165080399995,None,s,0,1.0166988290002337,810.3509224349982,None,810.3509224349982,None,810.3509224349982,None,811.4175802819991,None,811.4175802819991,None,811.4175802819991,None,811.4175802819991,None,,,,,,,,,,,,,,,,,,,,,,,,,,,,,,,,,,,,,,,,,,,,001,18,2020_Jan_28_1458,spring_faces,3.1.5,60.05845561437907,
condition files/Stage2_2.xlsx,,B5,T5,s,"['s', 'r']","['Stratego', 'Risk']","[-0.15, 0.5]","[0.15, 0.5]",1,1,,,,,,,,,,,,,,,,,0,1,1,1,0,2,2,0,,,,,,,,,,,,,,,,,,,,,,,,,,,,,,,,,,,,,,,,,,,,,,,813.383730436999,None,813.383730436999,None,813.383730436999,None,r,0,1.233109513999807,814.9344843379986,None,814.9344843379986,None,814.9344843379986,None,816.23448766,None,816.23448766,None,816.23448766,None,816.23448766,None,,,,,,,,,,,,,,,,,,,,,,,,,,,,,,,,,,,,,,,,,,,,001,18,2020_Jan_28_1458,spring_faces,3.1.5,60.05845561437907,
condition files/Stage2_2.xlsx,,B3,T3,s,"['s', 'r']","['Stratego', 'Risk']","[-0.15, 0.5]","[0.15, 0.5]",1,1,,,,,,,,,,,,,,,,,0,1,1,1,0,3,3,4,,,,,,,,,,,,,,,,,,,,,,,,,,,,,,,,,,,,,,,,,,,,,,,818.2003039099982,None,818.2003039099982,None,818.2003039099982,None,r,0,1.0569372790014313,819.7347799460003,None,819.7347799460003,None,819.7347799460003,None,820.8506255899993,None,820.8506255899993,None,820.8506255899993,None,820.8506255899993,None,,,,,,,,,,,,,,,,,,,,,,,,,,,,,,,,,,,,,,,,,,,,001,18,2020_Jan_28_1458,spring_faces,3.1.5,60.05845561437907,
condition files/Stage2_2.xlsx,,B1,T1,s,"['s', 'r']","['Stratego', 'Risk']","[-0.15, 0.5]","[0.15, 0.5]",1,1,,,,,,,,,,,,,,,,,0,1,1,1,0,4,4,2,,,,,,,,,,,,,,,,,,,,,,,,,,,,,,,,,,,,,,,,,,,,,,,822.8170105329991,None,822.8170105329991,None,822.8170105329991,None,s,1,0.6646387359978689,824.367007255998,None,824.367007255998,None,824.367007255998,None,825.0842100349983,None,825.0842100349983,None,825.0842100349983,None,825.0842100349983,None,,,,,,,,,,,,,,,,,,,,,,,,,,,,,,,,,,,,,,,,,,,,001,18,2020_Jan_28_1458,spring_faces,3.1.5,60.05845561437907,
condition files/Stage2_2.xlsx,,T4,B4,r,"['s', 'r']","['Stratego', 'Risk']","[-0.15, 0.5]","[0.15, 0.5]",1,1,,,,,,,,,,,,,,,,,0,1,1,1,0,5,5,5,,,,,,,,,,,,,,,,,,,,,,,,,,,,,,,,,,,,,,,,,,,,,,,827.0508897219988,None,827.0508897219988,None,827.0508897219988,None,s,0,0.5587465969983896,828.6009648010004,None,828.6009648010004,None,828.6009648010004,None,829.2178616969977,None,829.2178616969977,None,829.2178616969977,None,829.2178616969977,None,,,,,,,,,,,,,,,,,,,,,,,,,,,,,,,,,,,,,,,,,,,,001,18,2020_Jan_28_1458,spring_faces,3.1.5,60.05845561437907,
condition files/Stage2_1.xlsx,,B4,T4,r,"['s', 'r']","['Stratego', 'Risk']","[-0.15, 0.5]","[0.15, 0.5]",1,1,,,,,,,,,,,,,,,,,0,2,2,2,0,0,0,5,,,,,,,,,,,,,,,,,,,,,,,,,,,,,,,,,,,,,,,,,,,,,,,831.2006439899997,None,831.2006439899997,None,831.2006439899997,None,r,1,1.256600005999644,832.751123168,None,832.751123168,None,832.751123168,None,834.0670487179996,None,834.0670487179996,None,834.0670487179996,None,834.0670487179996,None,,,,,,,,,,,,,,,,,,,,,,,,,,,,,,,,,,,,,,,,,,,,001,18,2020_Jan_28_1458,spring_faces,3.1.5,60.05845561437907,
condition files/Stage2_1.xlsx,,T5,B5,s,"['s', 'r']","['Stratego', 'Risk']","[-0.15, 0.5]","[0.15, 0.5]",1,1,,,,,,,,,,,,,,,,,0,2,2,2,0,1,1,0,,,,,,,,,,,,,,,,,,,,,,,,,,,,,,,,,,,,,,,,,,,,,,,836.0339499429974,None,836.0339499429974,None,836.0339499429974,None,s,1,1.0162480020007933,837.5674065200001,None,837.5674065200001,None,837.5674065200001,None,838.650945772999,None,838.650945772999,None,838.650945772999,None,838.650945772999,None,,,,,,,,,,,,,,,,,,,,,,,,,,,,,,,,,,,,,,,,,,,,001,18,2020_Jan_28_1458,spring_faces,3.1.5,60.05845561437907,
condition files/Stage2_1.xlsx,,T1,B1,s,"['s', 'r']","['Stratego', 'Risk']","[-0.15, 0.5]","[0.15, 0.5]",1,1,,,,,,,,,,,,,,,,,0,2,2,2,0,2,2,2,,,,,,,,,,,,,,,,,,,,,,,,,,,,,,,,,,,,,,,,,,,,,,,840.6006208109975,None,840.6006208109975,None,840.6006208109975,None,r,0,1.0888183950009989,842.1508340330001,None,842.1508340330001,None,842.1508340330001,None,843.3009625359991,None,843.3009625359991,None,843.3009625359991,None,843.3009625359991,None,,,,,,,,,,,,,,,,,,,,,,,,,,,,,,,,,,,,,,,,,,,,001,18,2020_Jan_28_1458,spring_faces,3.1.5,60.05845561437907,
condition files/Stage2_1.xlsx,,B6,T6,r,"['s', 'r']","['Stratego', 'Risk']","[-0.15, 0.5]","[0.15, 0.5]",1,1,,,,,,,,,,,,,,,,,0,2,2,2,0,3,3,1,,,,,,,,,,,,,,,,,,,,,,,,,,,,,,,,,,,,,,,,,,,,,,,845.267324229997,None,845.267324229997,None,845.267324229997,None,s,0,0.7258040160013479,846.8178370219975,None,846.8178370219975,None,846.8178370219975,None,847.6176315839984,None,847.6176315839984,None,847.6176315839984,None,847.6176315839984,None,,,,,,,,,,,,,,,,,,,,,,,,,,,,,,,,,,,,,,,,,,,,001,18,2020_Jan_28_1458,spring_faces,3.1.5,60.05845561437907,
condition files/Stage2_1.xlsx,,T3,B3,s,"['s', 'r']","['Stratego', 'Risk']","[-0.15, 0.5]","[0.15, 0.5]",1,1,,,,,,,,,,,,,,,,,0,2,2,2,0,4,4,4,,,,,,,,,,,,,,,,,,,,,,,,,,,,,,,,,,,,,,,,,,,,,,,849.5669560799979,None,849.5669560799979,None,849.5669560799979,None,s,1,1.1299751090009522,851.117664784997,None,851.117664784997,None,851.117664784997,None,852.3176639880003,None,852.3176639880003,None,852.3176639880003,None,852.3176639880003,None,,,,,,,,,,,,,,,,,,,,,,,,,,,,,,,,,,,,,,,,,,,,001,18,2020_Jan_28_1458,spring_faces,3.1.5,60.05845561437907,
condition files/Stage2_1.xlsx,,B2,T2,r,"['s', 'r']","['Stratego', 'Risk']","[-0.15, 0.5]","[0.15, 0.5]",1,1,,,,,,,,,,,,,,,,,0,2,2,2,0,5,5,3,,,,,,,,,,,,,,,,,,,,,,,,,,,,,,,,,,,,,,,,,,,,,,,854.2672977129987,None,854.2672977129987,None,854.2672977129987,None,r,1,1.6783708719995047,855.8012785199971,None,855.8012785199971,None,855.8012785199971,None,857.534783207997,None,857.534783207997,None,857.534783207997,None,857.534783207997,None,,,,,,,,,,,,,,,,,,,,,,,,,,,,,,,,,,,,,,,,,,,,001,18,2020_Jan_28_1458,spring_faces,3.1.5,60.05845561437907,
condition files/Stage2_2.xlsx,,T6,B6,r,"['s', 'r']","['Stratego', 'Risk']","[-0.15, 0.5]","[0.15, 0.5]",1,1,,,,,,,,,,,,,,,,,0,3,3,3,0,0,0,1,,,,,,,,,,,,,,,,,,,,,,,,,,,,,,,,,,,,,,,,,,,,,,,859.5177143529982,None,859.5177143529982,None,859.5177143529982,None,s,0,0.5228111039978103,861.0529131740004,None,861.0529131740004,None,861.0529131740004,None,861.6336933219973,None,861.6336933219973,None,861.6336933219973,None,861.6336933219973,None,,,,,,,,,,,,,,,,,,,,,,,,,,,,,,,,,,,,,,,,,,,,001,18,2020_Jan_28_1458,spring_faces,3.1.5,60.05845561437907,
condition files/Stage2_2.xlsx,,B3,T3,s,"['s', 'r']","['Stratego', 'Risk']","[-0.15, 0.5]","[0.15, 0.5]",1,1,,,,,,,,,,,,,,,,,0,3,3,3,0,1,1,4,,,,,,,,,,,,,,,,,,,,,,,,,,,,,,,,,,,,,,,,,,,,,,,863.6000338779995,None,863.6000338779995,None,863.6000338779995,None,s,1,0.9686548430036055,865.1509956749978,None,865.1509956749978,None,865.1509956749978,None,866.2002220760005,None,866.2002220760005,None,866.2002220760005,None,866.2002220760005,None,,,,,,,,,,,,,,,,,,,,,,,,,,,,,,,,,,,,,,,,,,,,001,18,2020_Jan_28_1458,spring_faces,3.1.5,60.05845561437907,
condition files/Stage2_2.xlsx,,T2,B2,r,"['s', 'r']","['Stratego', 'Risk']","[-0.15, 0.5]","[0.15, 0.5]",1,1,,,,,,,,,,,,,,,,,0,3,3,3,0,2,2,3,,,,,,,,,,,,,,,,,,,,,,,,,,,,,,,,,,,,,,,,,,,,,,,868.1506435909978,None,868.1506435909978,None,868.1506435909978,None,s,0,0.6756392240022251,869.6840827519991,None,869.6840827519991,None,869.6840827519991,None,870.4194586310005,None,870.4194586310005,None,870.4194586310005,None,870.4194586310005,None,,,,,,,,,,,,,,,,,,,,,,,,,,,,,,,,,,,,,,,,,,,,001,18,2020_Jan_28_1458,spring_faces,3.1.5,60.05845561437907,
condition files/Stage2_2.xlsx,,T4,B4,r,"['s', 'r']","['Stratego', 'Risk']","[-0.15, 0.5]","[0.15, 0.5]",1,1,,,,,,,,,,,,,,,,,0,3,3,3,0,3,3,5,,,,,,,,,,,,,,,,,,,,,,,,,,,,,,,,,,,,,,,,,,,,,,,872.3841914000004,None,872.3841914000004,None,872.3841914000004,None,r,1,0.8741502849989047,873.9175768819987,None,873.9175768819987,None,873.9175768819987,None,874.8506831939994,None,874.8506831939994,None,874.8506831939994,None,874.8506831939994,None,,,,,,,,,,,,,,,,,,,,,,,,,,,,,,,,,,,,,,,,,,,,001,18,2020_Jan_28_1458,spring_faces,3.1.5,60.05845561437907,
condition files/Stage2_2.xlsx,,B5,T5,s,"['s', 'r']","['Stratego', 'Risk']","[-0.15, 0.5]","[0.15, 0.5]",1,1,,,,,,,,,,,,,,,,,0,3,3,3,0,4,4,0,,,,,,,,,,,,,,,,,,,,,,,,,,,,,,,,,,,,,,,,,,,,,,,876.8174439359973,None,876.8174439359973,None,876.8174439359973,None,s,1,0.935254629002884,878.3524237620004,None,878.3524237620004,None,878.3524237620004,None,879.367675538997,None,879.367675538997,None,879.367675538997,None,879.367675538997,None,,,,,,,,,,,,,,,,,,,,,,,,,,,,,,,,,,,,,,,,,,,,001,18,2020_Jan_28_1458,spring_faces,3.1.5,60.05845561437907,
condition files/Stage2_2.xlsx,,B1,T1,s,"['s', 'r']","['Stratego', 'Risk']","[-0.15, 0.5]","[0.15, 0.5]",1,1,,,,,,,,,,,,,,,,,0,3,3,3,0,5,5,2,,,,,,,,,,,,,,,,,,,,,,,,,,,,,,,,,,,,,,,,,,,,,,,881.3172964719997,None,881.3172964719997,None,881.3172964719997,None,r,0,0.7246596610020788,882.8510585139993,None,882.8510585139993,None,882.8510585139993,None,883.6338701399982,None,883.6338701399982,None,883.6338701399982,None,883.6338701399982,None,,,,,,,,,,,,,,,,,,,,,,,,,,,,,,,,,,,,,,,,,,,,001,18,2020_Jan_28_1458,spring_faces,3.1.5,60.05845561437907,
condition files/Stage2_1.xlsx,,B6,T6,r,"['s', 'r']","['Stratego', 'Risk']","[-0.15, 0.5]","[0.15, 0.5]",1,1,,,,,,,,,,,,,,,,,0,4,4,4,0,0,0,1,,,,,,,,,,,,,,,,,,,,,,,,,,,,,,,,,,,,,,,,,,,,,,,885.6175091490004,None,885.6175091490004,None,885.6175091490004,None,r,1,0.7589299229985045,887.1527010249993,None,887.1527010249993,None,887.1527010249993,None,887.9694354929998,None,887.9694354929998,None,887.9694354929998,None,887.9694354929998,None,,,,,,,,,,,,,,,,,,,,,,,,,,,,,,,,,,,,,,,,,,,,001,18,2020_Jan_28_1458,spring_faces,3.1.5,60.05845561437907,
condition files/Stage2_1.xlsx,,B2,T2,r,"['s', 'r']","['Stratego', 'Risk']","[-0.15, 0.5]","[0.15, 0.5]",1,1,,,,,,,,,,,,,,,,,0,4,4,4,0,1,1,3,,,,,,,,,,,,,,,,,,,,,,,,,,,,,,,,,,,,,,,,,,,,,,,889.9339850260003,None,889.9339850260003,None,889.9339850260003,None,s,0,0.7464970809996885,891.4691688029998,None,891.4691688029998,None,891.4691688029998,None,892.2676087699983,None,892.2676087699983,None,892.2676087699983,None,892.2676087699983,None,,,,,,,,,,,,,,,,,,,,,,,,,,,,,,,,,,,,,,,,,,,,001,18,2020_Jan_28_1458,spring_faces,3.1.5,60.05845561437907,
condition files/Stage2_1.xlsx,,T3,B3,s,"['s', 'r']","['Stratego', 'Risk']","[-0.15, 0.5]","[0.15, 0.5]",1,1,,,,,,,,,,,,,,,,,0,4,4,4,0,2,2,4,,,,,,,,,,,,,,,,,,,,,,,,,,,,,,,,,,,,,,,,,,,,,,,894.2335946319981,None,894.2335946319981,None,894.2335946319981,None,s,1,0.5919501039970783,895.7837634099997,None,895.7837634099997,None,895.7837634099997,None,896.450617921997,None,896.450617921997,None,896.450617921997,None,896.450617921997,None,,,,,,,,,,,,,,,,,,,,,,,,,,,,,,,,,,,,,,,,,,,,001,18,2020_Jan_28_1458,spring_faces,3.1.5,60.05845561437907,
condition files/Stage2_1.xlsx,,T5,B5,s,"['s', 'r']","['Stratego', 'Risk']","[-0.15, 0.5]","[0.15, 0.5]",1,1,,,,,,,,,,,,,,,,,0,4,4,4,0,3,3,0,,,,,,,,,,,,,,,,,,,,,,,,,,,,,,,,,,,,,,,,,,,,,,,898.400030367,None,898.400030367,None,898.400030367,None,r,0,0.7753396299995075,899.936285546999,None,899.936285546999,None,899.936285546999,None,900.7676486259988,None,900.7676486259988,None,900.7676486259988,None,900.7676486259988,None,,,,,,,,,,,,,,,,,,,,,,,,,,,,,,,,,,,,,,,,,,,,001,18,2020_Jan_28_1458,spring_faces,3.1.5,60.05845561437907,
