condsFile,subStage,cue1,cue2,correct,responseKeys,responseNames,cue1Position,cue2Position,cue1Opacity,cue2Opacity,stageLoop0.thisRepN,stageLoop0.thisTrialN,stageLoop0.thisN,stageLoop0.thisIndex,blockLoop0.thisRepN,blockLoop0.thisTrialN,blockLoop0.thisN,blockLoop0.thisIndex,stage1Loop.thisRepN,stage1Loop.thisTrialN,stage1Loop.thisN,stage1Loop.thisIndex,blockLoop1.thisRepN,blockLoop1.thisTrialN,blockLoop1.thisN,blockLoop1.thisIndex,stage2Loop.thisRepN,stage2Loop.thisTrialN,stage2Loop.thisN,stage2Loop.thisIndex,blockLoop2.thisRepN,blockLoop2.thisTrialN,blockLoop2.thisN,blockLoop2.thisIndex,testLoop.thisRepN,testLoop.thisTrialN,testLoop.thisN,testLoop.thisIndex,blockLoopTest.thisRepN,blockLoopTest.thisTrialN,blockLoopTest.thisN,blockLoopTest.thisIndex,cuePics,id_instr_text.started,id_instr_text.stopped,space_to_continue_2.started,space_to_continue_2.stopped,end_instructions_resp_3.keys,end_instructions_resp_3.rt,end_instructions_resp_3.started,end_instructions_resp_3.stopped,id_input_instr.started,id_input_instr.stopped,id_input_rect.started,id_input_rect.stopped,id_input_resp.keys,id_input_resp.rt,id_input_resp.started,id_input_resp.stopped,sonaID,id_input_text.started,id_input_text.stopped,final_text.started,final_text.stopped,instructions.started,instructions.stopped,end_instructions_resp.keys,end_instructions_resp.rt,end_instructions_resp.started,end_instructions_resp.stopped,space_to_continue.started,space_to_continue.stopped,instructions_stage0.started,instructions_stage0.stopped,end_instructions_resp_stage0.keys,end_instructions_resp_stage0.rt,end_instructions_resp_stage0.started,end_instructions_resp_stage0.stopped,space_to_continue_stage0.started,space_to_continue_stage0.stopped,text.started,text.stopped,resp_text1.started,resp_text1.stopped,resp_text2.started,resp_text2.stopped,trial_resp.keys,trial_resp.corr,trial_resp.rt,trial_resp.started,trial_resp.stopped,cue1Image.started,cue1Image.stopped,cue2Image.started,cue2Image.stopped,cue1Image_fb.started,cue1Image_fb.stopped,cue2Image_fb.started,cue2Image_fb.stopped,fb_text_answer.started,fb_text_answer.stopped,feedback_image.started,feedback_image.stopped,instructions_stage1.started,instructions_stage1.stopped,end_instructions_resp_stage1.keys,end_instructions_resp_stage1.rt,end_instructions_resp_stage1.started,end_instructions_resp_stage1.stopped,space_to_continue_stage1.started,space_to_continue_stage1.stopped,instructions_2.started,instructions_2.stopped,end_instructions_resp_2.keys,end_instructions_resp_2.rt,end_instructions_resp_2.started,end_instructions_resp_2.stopped,press_space_to_continue_stage2.started,press_space_to_continue_stage2.stopped,instructions_testStage1.started,instructions_testStage1.stopped,end_instructions_resp_test1.keys,end_instructions_resp_test1.rt,end_instructions_resp_test1.started,end_instructions_resp_test1.stopped,press_space_to_continue_test1.started,press_space_to_continue_test1.stopped,cue1Image_testChoice.started,cue1Image_testChoice.stopped,cue2Image_testChoice.started,cue2Image_testChoice.stopped,test_resp.keys,test_resp.corr,test_resp.rt,test_resp.started,test_resp.stopped,cue1Image_testConf.started,cue1Image_testConf.stopped,cue2Image_testConf.started,cue2Image_testConf.stopped,conf_reminder.started,conf_reminder.stopped,conf_rating.response,conf_rating.rt,conf_rating.started,conf_rating.stopped,session,participant,date,expName,psychopyVersion,frameRate,
,,,,,,,,,,,,,,,,,,,,,,,,,,,,,,,,,,,,,,,,,,,"{'none': 'pictures/20M_AN_C.png', 'alpha': 'pictures/SHINEd_apple.png', 'beta': 'pictures/SHINEd_pear.png', 'theta': 'pictures/SHINEd_pepper.png', 'phi': 'pictures/SHINEd_melon.png', 'T1': 'pictures/22M_AN_C.png', 'T2': 'pictures/33M_AN_C.png', 'T3': 'pictures/26M_AN_C.png', 'T4': 'pictures/23M_AN_C.png', 'T5': 'pictures/20M_AN_C.png', 'T6': 'pictures/38M_AN_C.png', 'B1': 'pictures/34M_NE_C.png', 'B2': 'pictures/25M_NE_C.png', 'B3': 'pictures/36M_NE_C.png', 'B4': 'pictures/31M_NE_C.png', 'B5': 'pictures/32M_NE_C.png', 'B6': 'pictures/37M_NE_C.png'}",221.9384636379982,None,226.9381145869993,None,space,23.872334485000465,226.9381145869993,None,,,,,,,,,,,,,,,,,,,,,,,,,,,,,,,,,,,,,,,,,,,,,,,,,,,,,,,,,,,,,,,,,,,,,,,,,,,,,,,,,,,,,,,,,,,,,,,,001,19,2020_Jan_28_1522,spring_faces,3.1.5,60.01050147803453,
,,,,,,,,,,,,,,,,,,,,,,,,,,,,,,,,,,,,,,,,,,,,,,,,,,,,251.20501100299953,None,251.20501100299953,None,"['0', '0', 'backspace', 'backspace', '0', '9', '0', '5', 'i', 'r', 'a', 'q', 'u']","[27.749476715998753, 27.925549119998323, 28.78949563200149, 28.917426477000845, 29.397476425001514, 29.62148700599937, 32.46948740099833, 32.5494774079998, 37.02948463099892, 37.173493105998205, 41.749476299999515, 42.29355213999952, 42.53339987000072]",251.20501100299953,None,,,,,,,,,,,,,,,,,,,,,,,,,,,,,,,,,,,,,,,,,,,,,,,,,,,,,,,,,,,,,,,,,,,,,,,,,,,,,,,,,,,,,,,,001,19,2020_Jan_28_1522,spring_faces,3.1.5,60.01050147803453,
,,,,,,,,,,,,,,,,,,,,,,,,,,,,,,,,,,,,,,,,,,,,,,,,,,,,,,,,,,,,0905iraqu,251.20501100299953,None,251.20501100299953,None,298.8216861330002,None,space,2.2209460659978504,303.82157251899844,None,,,,,,,,,,,,,,,,,,,,,,,,,,,,,,,,,,,,,,,,,,,,,,,,,,,,,,,,,,,,,,,,,,,,,,,,,,,,,001,19,2020_Jan_28_1522,spring_faces,3.1.5,60.01050147803453,
,,,,,,,,,,,,,,,,,,,,,,,,,,,,,,,,,,,,,,,,,,,,,,,,,,,,,,,,,,,,,,,,,,,,,,,303.82157251899844,None,306.0886395769994,None,space,5.754222434999974,311.08828549900136,None,,,,,,,,,,,,,,,,,,,,,,,,,,,,,,,,,,,,,,,,,,,,,,,,,,,,,,,,,,,,,,,,,,,,,001,19,2020_Jan_28_1522,spring_faces,3.1.5,60.01050147803453,
condition files/Stage0a.xlsx,0a,alpha,none,h,"['h', 'g']","['Chess', 'Go']","[0, 0.5]","[0, 0]",1,0,0,0,0,0,0,0,0,0,,,,,,,,,,,,,,,,,,,,,,,,,,,,,,,,,,,,,,,,,,,,,,,,,,,,,,,,,,,,,311.08828549900136,None,316.95479447699836,None,316.95479447699836,None,316.95479447699836,None,h,1,2.690655436999805,318.4879004020004,None,318.4879004020004,None,318.4879004020004,None,321.25477738300106,None,321.25477738300106,None,321.25477738300106,None,321.25477738300106,None,,,,,,,,,,,,,,,,,,,,,,,,,,,,,,,,,,,,,,,,,,,,001,19,2020_Jan_28_1522,spring_faces,3.1.5,60.01050147803453,
condition files/Stage0a.xlsx,0a,beta,none,g,"['h', 'g']","['Chess', 'Go']","[0, 0.5]","[0, 0]",1,0,0,0,0,0,0,1,1,1,,,,,,,,,,,,,,,,,,,,,,,,,,,,,,,,,,,,,,,,,,,,,,,,,,,,,,,,,,,,,,,323.2047948049985,None,323.2047948049985,None,323.2047948049985,None,g,1,3.0946040989983885,324.7399146559983,None,324.7399146559983,None,324.7399146559983,None,327.8891348219986,None,327.8891348219986,None,327.8891348219986,None,327.8891348219986,None,,,,,,,,,,,,,,,,,,,,,,,,,,,,,,,,,,,,,,,,,,,,001,19,2020_Jan_28_1522,spring_faces,3.1.5,60.01050147803453,
condition files/Stage0a.xlsx,0a,alpha,none,h,"['h', 'g']","['Chess', 'Go']","[0, 0.5]","[0, 0]",1,0,0,1,1,1,0,0,0,0,,,,,,,,,,,,,,,,,,,,,,,,,,,,,,,,,,,,,,,,,,,,,,,,,,,,,,,,,,,,,,,329.8717603449986,None,329.8717603449986,None,329.8717603449986,None,g,0,1.5816678829978628,331.40483578600106,None,331.40483578600106,None,331.40483578600106,None,333.03815269999905,None,333.03815269999905,None,333.03815269999905,None,333.03815269999905,None,,,,,,,,,,,,,,,,,,,,,,,,,,,,,,,,,,,,,,,,,,,,001,19,2020_Jan_28_1522,spring_faces,3.1.5,60.01050147803453,
condition files/Stage0a.xlsx,0a,beta,none,g,"['h', 'g']","['Chess', 'Go']","[0, 0.5]","[0, 0]",1,0,0,1,1,1,0,1,1,1,,,,,,,,,,,,,,,,,,,,,,,,,,,,,,,,,,,,,,,,,,,,,,,,,,,,,,,,,,,,,,,335.0048145239998,None,335.0048145239998,None,335.0048145239998,None,g,1,2.336008728001616,336.53848867800116,None,336.53848867800116,None,336.53848867800116,None,338.9383645130001,None,338.9383645130001,None,338.9383645130001,None,338.9383645130001,None,,,,,,,,,,,,,,,,,,,,,,,,,,,,,,,,,,,,,,,,,,,,001,19,2020_Jan_28_1522,spring_faces,3.1.5,60.01050147803453,
condition files/Stage0a.xlsx,0a,alpha,none,h,"['h', 'g']","['Chess', 'Go']","[0, 0.5]","[0, 0]",1,0,0,2,2,2,0,0,0,0,,,,,,,,,,,,,,,,,,,,,,,,,,,,,,,,,,,,,,,,,,,,,,,,,,,,,,,,,,,,,,,340.9216164589998,None,340.9216164589998,None,340.9216164589998,None,h,1,0.9318205549971026,342.4546809839994,None,342.4546809839994,None,342.4546809839994,None,343.4379543110008,None,343.4379543110008,None,343.4379543110008,None,343.4379543110008,None,,,,,,,,,,,,,,,,,,,,,,,,,,,,,,,,,,,,,,,,,,,,001,19,2020_Jan_28_1522,spring_faces,3.1.5,60.01050147803453,
condition files/Stage0a.xlsx,0a,beta,none,g,"['h', 'g']","['Chess', 'Go']","[0, 0.5]","[0, 0]",1,0,0,2,2,2,0,1,1,1,,,,,,,,,,,,,,,,,,,,,,,,,,,,,,,,,,,,,,,,,,,,,,,,,,,,,,,,,,,,,,,345.4047701929994,None,345.4047701929994,None,345.4047701929994,None,g,1,0.6404999799997313,346.9380637789982,None,346.9380637789982,None,346.9380637789982,None,347.6387919830013,None,347.6387919830013,None,347.6387919830013,None,347.6387919830013,None,,,,,,,,,,,,,,,,,,,,,,,,,,,,,,,,,,,,,,,,,,,,001,19,2020_Jan_28_1522,spring_faces,3.1.5,60.01050147803453,
condition files/Stage0a.xlsx,0a,alpha,none,h,"['h', 'g']","['Chess', 'Go']","[0, 0.5]","[0, 0]",1,0,0,3,3,3,0,0,0,0,,,,,,,,,,,,,,,,,,,,,,,,,,,,,,,,,,,,,,,,,,,,,,,,,,,,,,,,,,,,,,,349.6217198230006,None,349.6217198230006,None,349.6217198230006,None,h,1,0.8078284670009452,351.15474416899815,None,351.15474416899815,None,351.15474416899815,None,352.0211295830013,None,352.0211295830013,None,352.0211295830013,None,352.0211295830013,None,,,,,,,,,,,,,,,,,,,,,,,,,,,,,,,,,,,,,,,,,,,,001,19,2020_Jan_28_1522,spring_faces,3.1.5,60.01050147803453,
condition files/Stage0a.xlsx,0a,beta,none,g,"['h', 'g']","['Chess', 'Go']","[0, 0.5]","[0, 0]",1,0,0,3,3,3,0,1,1,1,,,,,,,,,,,,,,,,,,,,,,,,,,,,,,,,,,,,,,,,,,,,,,,,,,,,,,,,,,,,,,,353.9881606689996,None,353.9881606689996,None,353.9881606689996,None,g,1,0.7929457440004626,355.5215620400013,None,355.5215620400013,None,355.5215620400013,None,356.37113743399823,None,356.37113743399823,None,356.37113743399823,None,356.37113743399823,None,,,,,,,,,,,,,,,,,,,,,,,,,,,,,,,,,,,,,,,,,,,,001,19,2020_Jan_28_1522,spring_faces,3.1.5,60.01050147803453,
condition files/Stage0a.xlsx,0a,alpha,none,h,"['h', 'g']","['Chess', 'Go']","[0, 0.5]","[0, 0]",1,0,0,4,4,4,0,0,0,0,,,,,,,,,,,,,,,,,,,,,,,,,,,,,,,,,,,,,,,,,,,,,,,,,,,,,,,,,,,,,,,358.3551898529986,None,358.3551898529986,None,358.3551898529986,None,h,1,1.161751932999323,359.88874911400126,None,359.88874911400126,None,359.88874911400126,None,361.10526137299894,None,361.10526137299894,None,361.10526137299894,None,361.10526137299894,None,,,,,,,,,,,,,,,,,,,,,,,,,,,,,,,,,,,,,,,,,,,,001,19,2020_Jan_28_1522,spring_faces,3.1.5,60.01050147803453,
condition files/Stage0a.xlsx,0a,beta,none,g,"['h', 'g']","['Chess', 'Go']","[0, 0.5]","[0, 0]",1,0,0,4,4,4,0,1,1,1,,,,,,,,,,,,,,,,,,,,,,,,,,,,,,,,,,,,,,,,,,,,,,,,,,,,,,,,,,,,,,,363.07128450800155,None,363.07128450800155,None,363.07128450800155,None,g,1,0.8296009469995624,364.6048623470015,None,364.6048623470015,None,364.6048623470015,None,365.48799211200094,None,365.48799211200094,None,365.48799211200094,None,365.48799211200094,None,,,,,,,,,,,,,,,,,,,,,,,,,,,,,,,,,,,,,,,,,,,,001,19,2020_Jan_28_1522,spring_faces,3.1.5,60.01050147803453,
condition files/Stage0a.xlsx,0a,alpha,none,h,"['h', 'g']","['Chess', 'Go']","[0, 0.5]","[0, 0]",1,0,0,5,5,5,0,0,0,0,,,,,,,,,,,,,,,,,,,,,,,,,,,,,,,,,,,,,,,,,,,,,,,,,,,,,,,,,,,,,,,367.47154015200067,None,367.47154015200067,None,367.47154015200067,None,h,1,0.637920404002216,369.0045896650008,None,369.0045896650008,None,369.0045896650008,None,369.7043960230003,None,369.7043960230003,None,369.7043960230003,None,369.7043960230003,None,,,,,,,,,,,,,,,,,,,,,,,,,,,,,,,,,,,,,,,,,,,,001,19,2020_Jan_28_1522,spring_faces,3.1.5,60.01050147803453,
condition files/Stage0a.xlsx,0a,beta,none,g,"['h', 'g']","['Chess', 'Go']","[0, 0.5]","[0, 0]",1,0,0,5,5,5,0,1,1,1,,,,,,,,,,,,,,,,,,,,,,,,,,,,,,,,,,,,,,,,,,,,,,,,,,,,,,,,,,,,,,,371.6714312910008,None,371.6714312910008,None,371.6714312910008,None,g,1,0.373284961002355,373.2052960379988,None,373.2052960379988,None,373.2052960379988,None,373.63796123000066,None,373.63796123000066,None,373.63796123000066,None,373.63796123000066,None,,,,,,,,,,,,,,,,,,,,,,,,,,,,,,,,,,,,,,,,,,,,001,19,2020_Jan_28_1522,spring_faces,3.1.5,60.01050147803453,
condition files/Stage0b_1.xlsx,0b,alpha,none,h,"['h', 'g']","['Chess', 'Go']","[-0.15, 0.5]","[0.15, 0.5]",1,0,0,6,6,6,0,0,0,0,,,,,,,,,,,,,,,,,,,,,,,,,,,,,,,,,,,,,,,,,,,,,,,,,,,,,,,,,,,,,,,375.6217626289981,None,375.6217626289981,None,375.6217626289981,None,h,1,1.0797073770008865,377.1548206599982,None,377.1548206599982,None,377.1548206599982,None,378.2886486110001,None,378.2886486110001,None,378.2886486110001,None,378.2886486110001,None,,,,,,,,,,,,,,,,,,,,,,,,,,,,,,,,,,,,,,,,,,,,001,19,2020_Jan_28_1522,spring_faces,3.1.5,60.01050147803453,
condition files/Stage0b_1.xlsx,0b,none,beta,g,"['h', 'g']","['Chess', 'Go']","[-0.15, 0.5]","[0.15, 0.5]",0,1,0,6,6,6,0,1,1,1,,,,,,,,,,,,,,,,,,,,,,,,,,,,,,,,,,,,,,,,,,,,,,,,,,,,,,,,,,,,,,,380.2545452049999,None,380.2545452049999,None,380.2545452049999,None,g,1,0.6534523080008512,381.8050704080015,None,381.8050704080015,None,381.8050704080015,None,382.53850539999985,None,382.53850539999985,None,382.53850539999985,None,382.53850539999985,None,,,,,,,,,,,,,,,,,,,,,,,,,,,,,,,,,,,,,,,,,,,,001,19,2020_Jan_28_1522,spring_faces,3.1.5,60.01050147803453,
condition files/Stage0b_2.xlsx,0b,none,alpha,h,"['h', 'g']","['Chess', 'Go']","[-0.15, 0.5]","[0.15, 0.5]",0,1,0,7,7,7,0,0,0,0,,,,,,,,,,,,,,,,,,,,,,,,,,,,,,,,,,,,,,,,,,,,,,,,,,,,,,,,,,,,,,,384.50483663900013,None,384.50483663900013,None,384.50483663900013,None,h,1,0.5172891760012135,386.0212151480009,None,386.0212151480009,None,386.0212151480009,None,386.5886342039994,None,386.5886342039994,None,386.5886342039994,None,386.5886342039994,None,,,,,,,,,,,,,,,,,,,,,,,,,,,,,,,,,,,,,,,,,,,,001,19,2020_Jan_28_1522,spring_faces,3.1.5,60.01050147803453,
condition files/Stage0b_2.xlsx,0b,beta,none,g,"['h', 'g']","['Chess', 'Go']","[-0.15, 0.5]","[0.15, 0.5]",1,0,0,7,7,7,0,1,1,1,,,,,,,,,,,,,,,,,,,,,,,,,,,,,,,,,,,,,,,,,,,,,,,,,,,,,,,,,,,,,,,388.55453823100106,None,388.55453823100106,None,388.55453823100106,None,g,1,0.5563545590011927,390.0941316710014,None,390.0941316710014,None,390.0941316710014,None,390.72151584499807,None,390.72151584499807,None,390.72151584499807,None,390.72151584499807,None,,,,,,,,,,,,,,,,,,,,,,,,,,,,,,,,,,,,,,,,,,,,001,19,2020_Jan_28_1522,spring_faces,3.1.5,60.01050147803453,
condition files/Stage0b_1.xlsx,0b,alpha,none,h,"['h', 'g']","['Chess', 'Go']","[-0.15, 0.5]","[0.15, 0.5]",1,0,0,8,8,8,0,0,0,0,,,,,,,,,,,,,,,,,,,,,,,,,,,,,,,,,,,,,,,,,,,,,,,,,,,,,,,,,,,,,,,392.68841821300157,None,392.68841821300157,None,392.68841821300157,None,h,1,0.84406893400228,394.2064508129988,None,394.2064508129988,None,394.2064508129988,None,395.10446795499956,None,395.10446795499956,None,395.10446795499956,None,395.10446795499956,None,,,,,,,,,,,,,,,,,,,,,,,,,,,,,,,,,,,,,,,,,,,,001,19,2020_Jan_28_1522,spring_faces,3.1.5,60.01050147803453,
condition files/Stage0b_1.xlsx,0b,none,beta,g,"['h', 'g']","['Chess', 'Go']","[-0.15, 0.5]","[0.15, 0.5]",0,1,0,8,8,8,0,1,1,1,,,,,,,,,,,,,,,,,,,,,,,,,,,,,,,,,,,,,,,,,,,,,,,,,,,,,,,,,,,,,,,397.0714117419993,None,397.0714117419993,None,397.0714117419993,None,g,1,0.7807268619981187,398.6217691230013,None,398.6217691230013,None,398.6217691230013,None,399.4720676750003,None,399.4720676750003,None,399.4720676750003,None,399.4720676750003,None,,,,,,,,,,,,,,,,,,,,,,,,,,,,,,,,,,,,,,,,,,,,001,19,2020_Jan_28_1522,spring_faces,3.1.5,60.01050147803453,
condition files/Stage0b_2.xlsx,0b,none,alpha,h,"['h', 'g']","['Chess', 'Go']","[-0.15, 0.5]","[0.15, 0.5]",0,1,0,9,9,9,0,0,0,0,,,,,,,,,,,,,,,,,,,,,,,,,,,,,,,,,,,,,,,,,,,,,,,,,,,,,,,,,,,,,,,401.43822768300015,None,401.43822768300015,None,401.43822768300015,None,h,1,0.6228805780010589,402.9716561189998,None,402.9716561189998,None,402.9716561189998,None,403.65431528499903,None,403.65431528499903,None,403.65431528499903,None,403.65431528499903,None,,,,,,,,,,,,,,,,,,,,,,,,,,,,,,,,,,,,,,,,,,,,001,19,2020_Jan_28_1522,spring_faces,3.1.5,60.01050147803453,
condition files/Stage0b_2.xlsx,0b,beta,none,g,"['h', 'g']","['Chess', 'Go']","[-0.15, 0.5]","[0.15, 0.5]",1,0,0,9,9,9,0,1,1,1,,,,,,,,,,,,,,,,,,,,,,,,,,,,,,,,,,,,,,,,,,,,,,,,,,,,,,,,,,,,,,,405.6214575740014,None,405.6214575740014,None,405.6214575740014,None,g,1,0.4690562300020247,407.15746459300135,None,407.15746459300135,None,407.15746459300135,None,407.70524568999826,None,407.70524568999826,None,407.70524568999826,None,407.70524568999826,None,,,,,,,,,,,,,,,,,,,,,,,,,,,,,,,,,,,,,,,,,,,,001,19,2020_Jan_28_1522,spring_faces,3.1.5,60.01050147803453,
condition files/Stage0b_1.xlsx,0b,none,beta,g,"['h', 'g']","['Chess', 'Go']","[-0.15, 0.5]","[0.15, 0.5]",0,1,0,10,10,10,0,0,0,1,,,,,,,,,,,,,,,,,,,,,,,,,,,,,,,,,,,,,,,,,,,,,,,,,,,,,,,,,,,,,,,409.6721953999986,None,409.6721953999986,None,409.6721953999986,None,g,1,0.7087725339988538,411.2218029430005,None,411.2218029430005,None,411.2218029430005,None,411.9881793450004,None,411.9881793450004,None,411.9881793450004,None,411.9881793450004,None,,,,,,,,,,,,,,,,,,,,,,,,,,,,,,,,,,,,,,,,,,,,001,19,2020_Jan_28_1522,spring_faces,3.1.5,60.01050147803453,
condition files/Stage0b_1.xlsx,0b,alpha,none,h,"['h', 'g']","['Chess', 'Go']","[-0.15, 0.5]","[0.15, 0.5]",1,0,0,10,10,10,0,1,1,0,,,,,,,,,,,,,,,,,,,,,,,,,,,,,,,,,,,,,,,,,,,,,,,,,,,,,,,,,,,,,,,413.95490711599996,None,413.95490711599996,None,413.95490711599996,None,h,1,0.4690476879986818,415.4935456860003,None,415.4935456860003,None,415.4935456860003,None,416.0383125769986,None,416.0383125769986,None,416.0383125769986,None,416.0383125769986,None,,,,,,,,,,,,,,,,,,,,,,,,,,,,,,,,,,,,,,,,,,,,001,19,2020_Jan_28_1522,spring_faces,3.1.5,60.01050147803453,
condition files/Stage0b_2.xlsx,0b,beta,none,g,"['h', 'g']","['Chess', 'Go']","[-0.15, 0.5]","[0.15, 0.5]",1,0,0,11,11,11,0,0,0,1,,,,,,,,,,,,,,,,,,,,,,,,,,,,,,,,,,,,,,,,,,,,,,,,,,,,,,,,,,,,,,,418.0046966080008,None,418.0046966080008,None,418.0046966080008,None,g,1,0.6648076299970853,419.53770784399967,None,419.53770784399967,None,419.53770784399967,None,420.2554301249984,None,420.2554301249984,None,420.2554301249984,None,420.2554301249984,None,,,,,,,,,,,,,,,,,,,,,,,,,,,,,,,,,,,,,,,,,,,,001,19,2020_Jan_28_1522,spring_faces,3.1.5,60.01050147803453,
condition files/Stage0b_2.xlsx,0b,none,alpha,h,"['h', 'g']","['Chess', 'Go']","[-0.15, 0.5]","[0.15, 0.5]",0,1,0,11,11,11,0,1,1,0,,,,,,,,,,,,,,,,,,,,,,,,,,,,,,,,,,,,,,,,,,,,,,,,,,,,,,,,,,,,,,,422.2214849039992,None,422.2214849039992,None,422.2214849039992,None,h,1,0.4947795160005626,423.7717038869996,None,423.7717038869996,None,423.7717038869996,None,424.33812451999984,None,424.33812451999984,None,424.33812451999984,None,424.33812451999984,None,,,,,,,,,,,,,,,,,,,,,,,,,,,,,,,,,,,,,,,,,,,,001,19,2020_Jan_28_1522,spring_faces,3.1.5,60.01050147803453,
condition files/Stage0c_1.xlsx,0c,theta,alpha,h,"['h', 'g']","['Chess', 'Go']","[-0.15, 0.5]","[0.15, 0.5]",1,1,0,12,12,12,0,0,0,0,,,,,,,,,,,,,,,,,,,,,,,,,,,,,,,,,,,,,,,,,,,,,,,,,,,,,,,,,,,,,,,426.30475113300054,None,426.30475113300054,None,426.30475113300054,None,h,1,1.756146218998765,427.838358175999,None,427.838358175999,None,427.838358175999,None,429.654982991,None,429.654982991,None,429.654982991,None,429.654982991,None,,,,,,,,,,,,,,,,,,,,,,,,,,,,,,,,,,,,,,,,,,,,001,19,2020_Jan_28_1522,spring_faces,3.1.5,60.01050147803453,
condition files/Stage0c_1.xlsx,0c,beta,theta,g,"['h', 'g']","['Chess', 'Go']","[-0.15, 0.5]","[0.15, 0.5]",1,1,0,12,12,12,0,1,1,2,,,,,,,,,,,,,,,,,,,,,,,,,,,,,,,,,,,,,,,,,,,,,,,,,,,,,,,,,,,,,,,431.6214816840002,None,431.6214816840002,None,431.6214816840002,None,g,1,0.9034064409970597,433.1551001980006,None,433.1551001980006,None,433.1551001980006,None,434.12162684600116,None,434.12162684600116,None,434.12162684600116,None,434.12162684600116,None,,,,,,,,,,,,,,,,,,,,,,,,,,,,,,,,,,,,,,,,,,,,001,19,2020_Jan_28_1522,spring_faces,3.1.5,60.01050147803453,
condition files/Stage0c_1.xlsx,0c,phi,beta,g,"['h', 'g']","['Chess', 'Go']","[-0.15, 0.5]","[0.15, 0.5]",1,1,0,12,12,12,0,2,2,3,,,,,,,,,,,,,,,,,,,,,,,,,,,,,,,,,,,,,,,,,,,,,,,,,,,,,,,,,,,,,,,436.08797232899815,None,436.08797232899815,None,436.08797232899815,None,g,1,0.9326745529979235,437.62182457499875,None,437.62182457499875,None,437.62182457499875,None,438.6051404380014,None,438.6051404380014,None,438.6051404380014,None,438.6051404380014,None,,,,,,,,,,,,,,,,,,,,,,,,,,,,,,,,,,,,,,,,,,,,001,19,2020_Jan_28_1522,spring_faces,3.1.5,60.01050147803453,
condition files/Stage0c_1.xlsx,0c,alpha,phi,h,"['h', 'g']","['Chess', 'Go']","[-0.15, 0.5]","[0.15, 0.5]",1,1,0,12,12,12,0,3,3,1,,,,,,,,,,,,,,,,,,,,,,,,,,,,,,,,,,,,,,,,,,,,,,,,,,,,,,,,,,,,,,,440.5716013220008,None,440.5716013220008,None,440.5716013220008,None,h,1,0.721332450000773,442.10517362099927,None,442.10517362099927,None,442.10517362099927,None,442.88859929499813,None,442.88859929499813,None,442.88859929499813,None,442.88859929499813,None,,,,,,,,,,,,,,,,,,,,,,,,,,,,,,,,,,,,,,,,,,,,001,19,2020_Jan_28_1522,spring_faces,3.1.5,60.01050147803453,
condition files/Stage0c_2.xlsx,0c,beta,phi,g,"['h', 'g']","['Chess', 'Go']","[-0.15, 0.5]","[0.15, 0.5]",1,1,0,13,13,13,0,0,0,3,,,,,,,,,,,,,,,,,,,,,,,,,,,,,,,,,,,,,,,,,,,,,,,,,,,,,,,,,,,,,,,444.8717359559996,None,444.8717359559996,None,444.8717359559996,None,g,1,0.7580161629994109,446.38853402699897,None,446.38853402699897,None,446.38853402699897,None,447.20495086699884,None,447.20495086699884,None,447.20495086699884,None,447.20495086699884,None,,,,,,,,,,,,,,,,,,,,,,,,,,,,,,,,,,,,,,,,,,,,001,19,2020_Jan_28_1522,spring_faces,3.1.5,60.01050147803453,
condition files/Stage0c_2.xlsx,0c,alpha,theta,h,"['h', 'g']","['Chess', 'Go']","[-0.15, 0.5]","[0.15, 0.5]",1,1,0,13,13,13,0,1,1,0,,,,,,,,,,,,,,,,,,,,,,,,,,,,,,,,,,,,,,,,,,,,,,,,,,,,,,,,,,,,,,,449.1714554309983,None,449.1714554309983,None,449.1714554309983,None,h,1,0.809465841997735,450.70503899400137,None,450.70503899400137,None,450.70503899400137,None,451.57153226800074,None,451.57153226800074,None,451.57153226800074,None,451.57153226800074,None,,,,,,,,,,,,,,,,,,,,,,,,,,,,,,,,,,,,,,,,,,,,001,19,2020_Jan_28_1522,spring_faces,3.1.5,60.01050147803453,
condition files/Stage0c_2.xlsx,0c,phi,alpha,h,"['h', 'g']","['Chess', 'Go']","[-0.15, 0.5]","[0.15, 0.5]",1,1,0,13,13,13,0,2,2,1,,,,,,,,,,,,,,,,,,,,,,,,,,,,,,,,,,,,,,,,,,,,,,,,,,,,,,,,,,,,,,,453.53834351000114,None,453.53834351000114,None,453.53834351000114,None,h,1,0.9387523549994512,455.07174912100163,None,455.07174912100163,None,455.07174912100163,None,456.0550804759987,None,456.0550804759987,None,456.0550804759987,None,456.0550804759987,None,,,,,,,,,,,,,,,,,,,,,,,,,,,,,,,,,,,,,,,,,,,,001,19,2020_Jan_28_1522,spring_faces,3.1.5,60.01050147803453,
condition files/Stage0c_2.xlsx,0c,theta,beta,g,"['h', 'g']","['Chess', 'Go']","[-0.15, 0.5]","[0.15, 0.5]",1,1,0,13,13,13,0,3,3,2,,,,,,,,,,,,,,,,,,,,,,,,,,,,,,,,,,,,,,,,,,,,,,,,,,,,,,,,,,,,,,,458.0382609010012,None,458.0382609010012,None,458.0382609010012,None,g,1,1.079366306999873,459.5711207380009,None,459.5711207380009,None,459.5711207380009,None,460.7050741970015,None,460.7050741970015,None,460.7050741970015,None,460.7050741970015,None,,,,,,,,,,,,,,,,,,,,,,,,,,,,,,,,,,,,,,,,,,,,001,19,2020_Jan_28_1522,spring_faces,3.1.5,60.01050147803453,
condition files/Stage0c_1.xlsx,0c,beta,theta,g,"['h', 'g']","['Chess', 'Go']","[-0.15, 0.5]","[0.15, 0.5]",1,1,0,14,14,14,0,0,0,2,,,,,,,,,,,,,,,,,,,,,,,,,,,,,,,,,,,,,,,,,,,,,,,,,,,,,,,,,,,,,,,462.6879301789995,None,462.6879301789995,None,462.6879301789995,None,g,1,0.9889374730009877,464.2215764419998,None,464.2215764419998,None,464.2215764419998,None,465.25532193600156,None,465.25532193600156,None,465.25532193600156,None,465.25532193600156,None,,,,,,,,,,,,,,,,,,,,,,,,,,,,,,,,,,,,,,,,,,,,001,19,2020_Jan_28_1522,spring_faces,3.1.5,60.01050147803453,
condition files/Stage0c_1.xlsx,0c,alpha,phi,h,"['h', 'g']","['Chess', 'Go']","[-0.15, 0.5]","[0.15, 0.5]",1,1,0,14,14,14,0,1,1,1,,,,,,,,,,,,,,,,,,,,,,,,,,,,,,,,,,,,,,,,,,,,,,,,,,,,,,,,,,,,,,,467.2380450019991,None,467.2380450019991,None,467.2380450019991,None,h,1,0.6626975720027986,468.77180377699915,None,468.77180377699915,None,468.77180377699915,None,469.48867557799895,None,469.48867557799895,None,469.48867557799895,None,469.48867557799895,None,,,,,,,,,,,,,,,,,,,,,,,,,,,,,,,,,,,,,,,,,,,,001,19,2020_Jan_28_1522,spring_faces,3.1.5,60.01050147803453,
condition files/Stage0c_1.xlsx,0c,theta,alpha,h,"['h', 'g']","['Chess', 'Go']","[-0.15, 0.5]","[0.15, 0.5]",1,1,0,14,14,14,0,2,2,0,,,,,,,,,,,,,,,,,,,,,,,,,,,,,,,,,,,,,,,,,,,,,,,,,,,,,,,,,,,,,,,471.4548229159991,None,471.4548229159991,None,471.4548229159991,None,h,1,0.8301066659987555,472.9883869580008,None,472.9883869580008,None,472.9883869580008,None,473.8560275640011,None,473.8560275640011,None,473.8560275640011,None,473.8560275640011,None,,,,,,,,,,,,,,,,,,,,,,,,,,,,,,,,,,,,,,,,,,,,001,19,2020_Jan_28_1522,spring_faces,3.1.5,60.01050147803453,
condition files/Stage0c_1.xlsx,0c,phi,beta,g,"['h', 'g']","['Chess', 'Go']","[-0.15, 0.5]","[0.15, 0.5]",1,1,0,14,14,14,0,3,3,3,,,,,,,,,,,,,,,,,,,,,,,,,,,,,,,,,,,,,,,,,,,,,,,,,,,,,,,,,,,,,,,475.83783548000065,None,475.83783548000065,None,475.83783548000065,None,g,1,0.6871361500016064,477.37137332899874,None,477.37137332899874,None,477.37137332899874,None,478.12133842899857,None,478.12133842899857,None,478.12133842899857,None,478.12133842899857,None,,,,,,,,,,,,,,,,,,,,,,,,,,,,,,,,,,,,,,,,,,,,001,19,2020_Jan_28_1522,spring_faces,3.1.5,60.01050147803453,
condition files/Stage0c_2.xlsx,0c,theta,beta,g,"['h', 'g']","['Chess', 'Go']","[-0.15, 0.5]","[0.15, 0.5]",1,1,0,15,15,15,0,0,0,2,,,,,,,,,,,,,,,,,,,,,,,,,,,,,,,,,,,,,,,,,,,,,,,,,,,,,,,,,,,,,,,480.1050601880015,None,480.1050601880015,None,480.1050601880015,None,g,1,0.9479818799991335,481.63852129899897,None,481.63852129899897,None,481.63852129899897,None,482.6228157869991,None,482.6228157869991,None,482.6228157869991,None,482.6228157869991,None,,,,,,,,,,,,,,,,,,,,,,,,,,,,,,,,,,,,,,,,,,,,001,19,2020_Jan_28_1522,spring_faces,3.1.5,60.01050147803453,
condition files/Stage0c_2.xlsx,0c,phi,alpha,h,"['h', 'g']","['Chess', 'Go']","[-0.15, 0.5]","[0.15, 0.5]",1,1,0,15,15,15,0,1,1,1,,,,,,,,,,,,,,,,,,,,,,,,,,,,,,,,,,,,,,,,,,,,,,,,,,,,,,,,,,,,,,,484.6048308190002,None,484.6048308190002,None,484.6048308190002,None,h,1,0.607958652999514,486.1386079219992,None,486.1386079219992,None,486.1386079219992,None,486.80435285600106,None,486.80435285600106,None,486.80435285600106,None,486.80435285600106,None,,,,,,,,,,,,,,,,,,,,,,,,,,,,,,,,,,,,,,,,,,,,001,19,2020_Jan_28_1522,spring_faces,3.1.5,60.01050147803453,
condition files/Stage0c_2.xlsx,0c,alpha,theta,h,"['h', 'g']","['Chess', 'Go']","[-0.15, 0.5]","[0.15, 0.5]",1,1,0,15,15,15,0,2,2,0,,,,,,,,,,,,,,,,,,,,,,,,,,,,,,,,,,,,,,,,,,,,,,,,,,,,,,,,,,,,,,,488.77145128900156,None,488.77145128900156,None,488.77145128900156,None,h,1,0.9377094139999826,490.30478236199997,None,490.30478236199997,None,490.30478236199997,None,491.2896610509997,None,491.2896610509997,None,491.2896610509997,None,491.2896610509997,None,,,,,,,,,,,,,,,,,,,,,,,,,,,,,,,,,,,,,,,,,,,,001,19,2020_Jan_28_1522,spring_faces,3.1.5,60.01050147803453,
condition files/Stage0c_2.xlsx,0c,beta,phi,g,"['h', 'g']","['Chess', 'Go']","[-0.15, 0.5]","[0.15, 0.5]",1,1,0,15,15,15,0,3,3,3,,,,,,,,,,,,,,,,,,,,,,,,,,,,,,,,,,,,,,,,,,,,,,,,,,,,,,,,,,,,,,,493.2716022220011,None,493.2716022220011,None,493.2716022220011,None,g,1,0.7095904250018066,494.8049285019988,None,494.8049285019988,None,494.8049285019988,None,495.57130436700027,None,495.57130436700027,None,495.57130436700027,None,495.57130436700027,None,,,,,,,,,,,,,,,,,,,,,,,,,,,,,,,,,,,,,,,,,,,,001,19,2020_Jan_28_1522,spring_faces,3.1.5,60.01050147803453,
condition files/Stage0c_1.xlsx,0c,theta,alpha,h,"['h', 'g']","['Chess', 'Go']","[-0.15, 0.5]","[0.15, 0.5]",1,1,0,16,16,16,0,0,0,0,,,,,,,,,,,,,,,,,,,,,,,,,,,,,,,,,,,,,,,,,,,,,,,,,,,,,,,,,,,,,,,497.5545492929996,None,497.5545492929996,None,497.5545492929996,None,h,1,0.6658704430010403,499.0886211850011,None,499.0886211850011,None,499.0886211850011,None,499.80517478099864,None,499.80517478099864,None,499.80517478099864,None,499.80517478099864,None,,,,,,,,,,,,,,,,,,,,,,,,,,,,,,,,,,,,,,,,,,,,001,19,2020_Jan_28_1522,spring_faces,3.1.5,60.01050147803453,
condition files/Stage0c_1.xlsx,0c,phi,beta,g,"['h', 'g']","['Chess', 'Go']","[-0.15, 0.5]","[0.15, 0.5]",1,1,0,16,16,16,0,1,1,3,,,,,,,,,,,,,,,,,,,,,,,,,,,,,,,,,,,,,,,,,,,,,,,,,,,,,,,,,,,,,,,501.7707741160011,None,501.7707741160011,None,501.7707741160011,None,g,1,0.6575405570001749,503.30500400099845,None,503.30500400099845,None,503.30500400099845,None,504.0220554609987,None,504.0220554609987,None,504.0220554609987,None,504.0220554609987,None,,,,,,,,,,,,,,,,,,,,,,,,,,,,,,,,,,,,,,,,,,,,001,19,2020_Jan_28_1522,spring_faces,3.1.5,60.01050147803453,
condition files/Stage0c_1.xlsx,0c,beta,theta,g,"['h', 'g']","['Chess', 'Go']","[-0.15, 0.5]","[0.15, 0.5]",1,1,0,16,16,16,0,2,2,2,,,,,,,,,,,,,,,,,,,,,,,,,,,,,,,,,,,,,,,,,,,,,,,,,,,,,,,,,,,,,,,505.98833563000153,None,505.98833563000153,None,505.98833563000153,None,g,1,0.713435384001059,507.521074622,None,507.521074622,None,507.521074622,None,508.27209244799815,None,508.27209244799815,None,508.27209244799815,None,508.27209244799815,None,,,,,,,,,,,,,,,,,,,,,,,,,,,,,,,,,,,,,,,,,,,,001,19,2020_Jan_28_1522,spring_faces,3.1.5,60.01050147803453,
condition files/Stage0c_1.xlsx,0c,alpha,phi,h,"['h', 'g']","['Chess', 'Go']","[-0.15, 0.5]","[0.15, 0.5]",1,1,0,16,16,16,0,3,3,1,,,,,,,,,,,,,,,,,,,,,,,,,,,,,,,,,,,,,,,,,,,,,,,,,,,,,,,,,,,,,,,510.2565295839995,None,510.2565295839995,None,510.2565295839995,None,h,1,0.5739110139984405,511.7886561689993,None,511.7886561689993,None,511.7886561689993,None,512.4218446150007,None,512.4218446150007,None,512.4218446150007,None,512.4218446150007,None,,,,,,,,,,,,,,,,,,,,,,,,,,,,,,,,,,,,,,,,,,,,001,19,2020_Jan_28_1522,spring_faces,3.1.5,60.01050147803453,
condition files/Stage0c_2.xlsx,0c,phi,alpha,h,"['h', 'g']","['Chess', 'Go']","[-0.15, 0.5]","[0.15, 0.5]",1,1,0,17,17,17,0,0,0,1,,,,,,,,,,,,,,,,,,,,,,,,,,,,,,,,,,,,,,,,,,,,,,,,,,,,,,,,,,,,,,,514.4047187780016,None,514.4047187780016,None,514.4047187780016,None,h,1,0.5680581899978279,515.938451050999,None,515.938451050999,None,515.938451050999,None,516.5553637240009,None,516.5553637240009,None,516.5553637240009,None,516.5553637240009,None,,,,,,,,,,,,,,,,,,,,,,,,,,,,,,,,,,,,,,,,,,,,001,19,2020_Jan_28_1522,spring_faces,3.1.5,60.01050147803453,
condition files/Stage0c_2.xlsx,0c,alpha,theta,h,"['h', 'g']","['Chess', 'Go']","[-0.15, 0.5]","[0.15, 0.5]",1,1,0,17,17,17,0,1,1,0,,,,,,,,,,,,,,,,,,,,,,,,,,,,,,,,,,,,,,,,,,,,,,,,,,,,,,,,,,,,,,,518.5378877059993,None,518.5378877059993,None,518.5378877059993,None,h,1,0.5791907759994501,520.071312854001,None,520.071312854001,None,520.071312854001,None,520.7045429300015,None,520.7045429300015,None,520.7045429300015,None,520.7045429300015,None,,,,,,,,,,,,,,,,,,,,,,,,,,,,,,,,,,,,,,,,,,,,001,19,2020_Jan_28_1522,spring_faces,3.1.5,60.01050147803453,
condition files/Stage0c_2.xlsx,0c,beta,phi,g,"['h', 'g']","['Chess', 'Go']","[-0.15, 0.5]","[0.15, 0.5]",1,1,0,17,17,17,0,2,2,3,,,,,,,,,,,,,,,,,,,,,,,,,,,,,,,,,,,,,,,,,,,,,,,,,,,,,,,,,,,,,,,522.6715130090015,None,522.6715130090015,None,522.6715130090015,None,g,1,0.42935145199953695,524.2051499519985,None,524.2051499519985,None,524.2051499519985,None,524.688599770001,None,524.688599770001,None,524.688599770001,None,524.688599770001,None,,,,,,,,,,,,,,,,,,,,,,,,,,,,,,,,,,,,,,,,,,,,001,19,2020_Jan_28_1522,spring_faces,3.1.5,60.01050147803453,
condition files/Stage0c_2.xlsx,0c,theta,beta,g,"['h', 'g']","['Chess', 'Go']","[-0.15, 0.5]","[0.15, 0.5]",1,1,0,17,17,17,0,3,3,2,,,,,,,,,,,,,,,,,,,,,,,,,,,,,,,,,,,,,,,,,,,,,,,,,,,,,,,,,,,,,,,526.6550191179995,None,526.6550191179995,None,526.6550191179995,None,g,1,0.9418019360018661,528.1886203489994,None,528.1886203489994,None,528.1886203489994,None,529.1722384809982,None,529.1722384809982,None,529.1722384809982,None,529.1722384809982,None,,,,,,,,,,,,,,,,,,,,,,,,,,,,,,,,,,,,,,,,,,,,001,19,2020_Jan_28_1522,spring_faces,3.1.5,60.01050147803453,
,,,,,,,,,,,,,,,,,,,,,,,,,,,,,,,,,,,,,,,,,,,,,,,,,,,,,,,,,,,,,,,,,,,,,,,,,,,,,,,,,,,,,,,,,,,,,,,,,,,,,,,,531.1718245810007,None,space,4.255026338996686,536.171491568999,None,,,,,,,,,,,,,,,,,,,,,,,,,,,,,,,,,,,,,,001,19,2020_Jan_28_1522,spring_faces,3.1.5,60.01050147803453,
condition files/Stage1_1.xlsx,,B1,T2,c,"['c', 'm']","['Clue', 'Monopoly']","[-0.15, 0.5]","[0.15, 0.5]",1,1,,,,,,,,,0,0,0,0,0,0,0,1,,,,,,,,,,,,,,,,,,,,,,,,,,,,,,,,,,,,,,,,,,,,,,,,,,,,,,,540.4881675129982,None,540.4881675129982,None,540.4881675129982,None,c,1,1.5414105359996029,542.0211726410016,None,542.0211726410016,None,542.0211726410016,None,543.6379221179996,None,543.6379221179996,None,543.6379221179996,None,543.6379221179996,None,,,,,,,536.171491568999,None,,,,,,,,,,,,,,,,,,,,,,,,,,,,,,,,,,,,001,19,2020_Jan_28_1522,spring_faces,3.1.5,60.01050147803453,
condition files/Stage1_1.xlsx,,B4,T4,m,"['c', 'm']","['Clue', 'Monopoly']","[-0.15, 0.5]","[0.15, 0.5]",1,1,,,,,,,,,0,0,0,0,0,1,1,7,,,,,,,,,,,,,,,,,,,,,,,,,,,,,,,,,,,,,,,,,,,,,,,,,,,,,,,545.5878670189995,None,545.5878670189995,None,545.5878670189995,None,m,1,0.9040918040009274,547.1384160909984,None,547.1384160909984,None,547.1384160909984,None,548.1060549489994,None,548.1060549489994,None,548.1060549489994,None,548.1060549489994,None,,,,,,,,,,,,,,,,,,,,,,,,,,,,,,,,,,,,,,,,,,,,001,19,2020_Jan_28_1522,spring_faces,3.1.5,60.01050147803453,
condition files/Stage1_1.xlsx,,B2,T1,m,"['c', 'm']","['Clue', 'Monopoly']","[-0.15, 0.5]","[0.15, 0.5]",1,1,,,,,,,,,0,0,0,0,0,2,2,2,,,,,,,,,,,,,,,,,,,,,,,,,,,,,,,,,,,,,,,,,,,,,,,,,,,,,,,550.0713477809986,None,550.0713477809986,None,550.0713477809986,None,c,0,0.5818028790017706,551.6046405289999,None,551.6046405289999,None,551.6046405289999,None,552.2384866409993,None,552.2384866409993,None,552.2384866409993,None,552.2384866409993,None,,,,,,,,,,,,,,,,,,,,,,,,,,,,,,,,,,,,,,,,,,,,001,19,2020_Jan_28_1522,spring_faces,3.1.5,60.01050147803453,
condition files/Stage1_1.xlsx,,T4,B3,m,"['c', 'm']","['Clue', 'Monopoly']","[-0.15, 0.5]","[0.15, 0.5]",1,1,,,,,,,,,0,0,0,0,0,3,3,6,,,,,,,,,,,,,,,,,,,,,,,,,,,,,,,,,,,,,,,,,,,,,,,,,,,,,,,554.2048553839995,None,554.2048553839995,None,554.2048553839995,None,m,1,1.1193451959989034,555.755157167001,None,555.755157167001,None,555.755157167001,None,556.9383247549995,None,556.9383247549995,None,556.9383247549995,None,556.9383247549995,None,,,,,,,,,,,,,,,,,,,,,,,,,,,,,,,,,,,,,,,,,,,,001,19,2020_Jan_28_1522,spring_faces,3.1.5,60.01050147803453,
condition files/Stage1_1.xlsx,,T2,B2,m,"['c', 'm']","['Clue', 'Monopoly']","[-0.15, 0.5]","[0.15, 0.5]",1,1,,,,,,,,,0,0,0,0,0,4,4,3,,,,,,,,,,,,,,,,,,,,,,,,,,,,,,,,,,,,,,,,,,,,,,,,,,,,,,,558.9067155560006,None,558.9067155560006,None,558.9067155560006,None,m,1,0.8204807439979049,560.4380307920001,None,560.4380307920001,None,560.4380307920001,None,561.3215645529999,None,561.3215645529999,None,561.3215645529999,None,561.3215645529999,None,,,,,,,,,,,,,,,,,,,,,,,,,,,,,,,,,,,,,,,,,,,,001,19,2020_Jan_28_1522,spring_faces,3.1.5,60.01050147803453,
condition files/Stage1_1.xlsx,,T1,B1,c,"['c', 'm']","['Clue', 'Monopoly']","[-0.15, 0.5]","[0.15, 0.5]",1,1,,,,,,,,,0,0,0,0,0,5,5,0,,,,,,,,,,,,,,,,,,,,,,,,,,,,,,,,,,,,,,,,,,,,,,,,,,,,,,,563.2883072090008,None,563.2883072090008,None,563.2883072090008,None,c,1,0.9007886559993494,564.8216666740009,None,564.8216666740009,None,564.8216666740009,None,565.7894814889987,None,565.7894814889987,None,565.7894814889987,None,565.7894814889987,None,,,,,,,,,,,,,,,,,,,,,,,,,,,,,,,,,,,,,,,,,,,,001,19,2020_Jan_28_1522,spring_faces,3.1.5,60.01050147803453,
condition files/Stage1_1.xlsx,,B3,T3,c,"['c', 'm']","['Clue', 'Monopoly']","[-0.15, 0.5]","[0.15, 0.5]",1,1,,,,,,,,,0,0,0,0,0,6,6,4,,,,,,,,,,,,,,,,,,,,,,,,,,,,,,,,,,,,,,,,,,,,,,,,,,,,,,,567.7543840910002,None,567.7543840910002,None,567.7543840910002,None,m,0,1.4577833870025643,569.2887055169995,None,569.2887055169995,None,569.2887055169995,None,570.8052292409993,None,570.8052292409993,None,570.8052292409993,None,570.8052292409993,None,,,,,,,,,,,,,,,,,,,,,,,,,,,,,,,,,,,,,,,,,,,,001,19,2020_Jan_28_1522,spring_faces,3.1.5,60.01050147803453,
condition files/Stage1_1.xlsx,,T3,B4,c,"['c', 'm']","['Clue', 'Monopoly']","[-0.15, 0.5]","[0.15, 0.5]",1,1,,,,,,,,,0,0,0,0,0,7,7,5,,,,,,,,,,,,,,,,,,,,,,,,,,,,,,,,,,,,,,,,,,,,,,,,,,,,,,,572.7719609650012,None,572.7719609650012,None,572.7719609650012,None,c,1,1.4977700760027801,574.3047336130003,None,574.3047336130003,None,574.3047336130003,None,575.8552944549992,None,575.8552944549992,None,575.8552944549992,None,575.8552944549992,None,,,,,,,,,,,,,,,,,,,,,,,,,,,,,,,,,,,,,,,,,,,,001,19,2020_Jan_28_1522,spring_faces,3.1.5,60.01050147803453,
condition files/Stage1_2.xlsx,,T2,B1,c,"['c', 'm']","['Clue', 'Monopoly']","[-0.15, 0.5]","[0.15, 0.5]",1,1,,,,,,,,,0,1,1,1,0,0,0,1,,,,,,,,,,,,,,,,,,,,,,,,,,,,,,,,,,,,,,,,,,,,,,,,,,,,,,,577.8383757250012,None,577.8383757250012,None,577.8383757250012,None,c,1,0.878877666000335,579.3716028179988,None,579.3716028179988,None,579.3716028179988,None,580.304815249001,None,580.304815249001,None,580.304815249001,None,580.304815249001,None,,,,,,,,,,,,,,,,,,,,,,,,,,,,,,,,,,,,,,,,,,,,001,19,2020_Jan_28_1522,spring_faces,3.1.5,60.01050147803453,
condition files/Stage1_2.xlsx,,B2,T2,m,"['c', 'm']","['Clue', 'Monopoly']","[-0.15, 0.5]","[0.15, 0.5]",1,1,,,,,,,,,0,1,1,1,0,1,1,3,,,,,,,,,,,,,,,,,,,,,,,,,,,,,,,,,,,,,,,,,,,,,,,,,,,,,,,582.2714455800015,None,582.2714455800015,None,582.2714455800015,None,m,1,0.7178251529985573,583.8046727660003,None,583.8046727660003,None,583.8046727660003,None,584.5885686879992,None,584.5885686879992,None,584.5885686879992,None,584.5885686879992,None,,,,,,,,,,,,,,,,,,,,,,,,,,,,,,,,,,,,,,,,,,,,001,19,2020_Jan_28_1522,spring_faces,3.1.5,60.01050147803453,
condition files/Stage1_2.xlsx,,B1,T1,c,"['c', 'm']","['Clue', 'Monopoly']","[-0.15, 0.5]","[0.15, 0.5]",1,1,,,,,,,,,0,1,1,1,0,2,2,0,,,,,,,,,,,,,,,,,,,,,,,,,,,,,,,,,,,,,,,,,,,,,,,,,,,,,,,586.5548844670011,None,586.5548844670011,None,586.5548844670011,None,c,1,0.7851960389998567,588.0893238559984,None,588.0893238559984,None,588.0893238559984,None,588.9382525869987,None,588.9382525869987,None,588.9382525869987,None,588.9382525869987,None,,,,,,,,,,,,,,,,,,,,,,,,,,,,,,,,,,,,,,,,,,,,001,19,2020_Jan_28_1522,spring_faces,3.1.5,60.01050147803453,
condition files/Stage1_2.xlsx,,T1,B2,m,"['c', 'm']","['Clue', 'Monopoly']","[-0.15, 0.5]","[0.15, 0.5]",1,1,,,,,,,,,0,1,1,1,0,3,3,2,,,,,,,,,,,,,,,,,,,,,,,,,,,,,,,,,,,,,,,,,,,,,,,,,,,,,,,590.9046954959995,None,590.9046954959995,None,590.9046954959995,None,m,1,1.2839565559988841,592.4385352969985,None,592.4385352969985,None,592.4385352969985,None,593.8052361260015,None,593.8052361260015,None,593.8052361260015,None,593.8052361260015,None,,,,,,,,,,,,,,,,,,,,,,,,,,,,,,,,,,,,,,,,,,,,001,19,2020_Jan_28_1522,spring_faces,3.1.5,60.01050147803453,
condition files/Stage1_2.xlsx,,T3,B3,c,"['c', 'm']","['Clue', 'Monopoly']","[-0.15, 0.5]","[0.15, 0.5]",1,1,,,,,,,,,0,1,1,1,0,4,4,4,,,,,,,,,,,,,,,,,,,,,,,,,,,,,,,,,,,,,,,,,,,,,,,,,,,,,,,595.7548394879996,None,595.7548394879996,None,595.7548394879996,None,m,0,1.025689625999803,597.2888265090005,None,597.2888265090005,None,597.2888265090005,None,598.374438417999,None,598.374438417999,None,598.374438417999,None,598.374438417999,None,,,,,,,,,,,,,,,,,,,,,,,,,,,,,,,,,,,,,,,,,,,,001,19,2020_Jan_28_1522,spring_faces,3.1.5,60.01050147803453,
condition files/Stage1_2.xlsx,,T4,B4,m,"['c', 'm']","['Clue', 'Monopoly']","[-0.15, 0.5]","[0.15, 0.5]",1,1,,,,,,,,,0,1,1,1,0,5,5,7,,,,,,,,,,,,,,,,,,,,,,,,,,,,,,,,,,,,,,,,,,,,,,,,,,,,,,,600.3382247400004,None,600.3382247400004,None,600.3382247400004,None,m,1,0.9542564870025672,601.888248651001,None,601.888248651001,None,601.888248651001,None,602.9049211749989,None,602.9049211749989,None,602.9049211749989,None,602.9049211749989,None,,,,,,,,,,,,,,,,,,,,,,,,,,,,,,,,,,,,,,,,,,,,001,19,2020_Jan_28_1522,spring_faces,3.1.5,60.01050147803453,
condition files/Stage1_2.xlsx,,B3,T4,m,"['c', 'm']","['Clue', 'Monopoly']","[-0.15, 0.5]","[0.15, 0.5]",1,1,,,,,,,,,0,1,1,1,0,6,6,6,,,,,,,,,,,,,,,,,,,,,,,,,,,,,,,,,,,,,,,,,,,,,,,,,,,,,,,604.8716973330011,None,604.8716973330011,None,604.8716973330011,None,c,0,0.821399211003154,606.4051303939996,None,606.4051303939996,None,606.4051303939996,None,607.2885270709994,None,607.2885270709994,None,607.2885270709994,None,607.2885270709994,None,,,,,,,,,,,,,,,,,,,,,,,,,,,,,,,,,,,,,,,,,,,,001,19,2020_Jan_28_1522,spring_faces,3.1.5,60.01050147803453,
condition files/Stage1_2.xlsx,,B4,T3,c,"['c', 'm']","['Clue', 'Monopoly']","[-0.15, 0.5]","[0.15, 0.5]",1,1,,,,,,,,,0,1,1,1,0,7,7,5,,,,,,,,,,,,,,,,,,,,,,,,,,,,,,,,,,,,,,,,,,,,,,,,,,,,,,,609.2548453119998,None,609.2548453119998,None,609.2548453119998,None,m,0,1.5258560590009438,610.7886761890004,None,610.7886761890004,None,610.7886761890004,None,612.3736036289993,None,612.3736036289993,None,612.3736036289993,None,612.3736036289993,None,,,,,,,,,,,,,,,,,,,,,,,,,,,,,,,,,,,,,,,,,,,,001,19,2020_Jan_28_1522,spring_faces,3.1.5,60.01050147803453,
condition files/Stage1_1.xlsx,,T1,B1,c,"['c', 'm']","['Clue', 'Monopoly']","[-0.15, 0.5]","[0.15, 0.5]",1,1,,,,,,,,,0,2,2,2,0,0,0,0,,,,,,,,,,,,,,,,,,,,,,,,,,,,,,,,,,,,,,,,,,,,,,,,,,,,,,,614.3552317639987,None,614.3552317639987,None,614.3552317639987,None,c,1,1.0176338070014026,615.8888464999982,None,615.8888464999982,None,615.8888464999982,None,616.9719650439984,None,616.9719650439984,None,616.9719650439984,None,616.9719650439984,None,,,,,,,,,,,,,,,,,,,,,,,,,,,,,,,,,,,,,,,,,,,,001,19,2020_Jan_28_1522,spring_faces,3.1.5,60.01050147803453,
condition files/Stage1_1.xlsx,,B2,T1,m,"['c', 'm']","['Clue', 'Monopoly']","[-0.15, 0.5]","[0.15, 0.5]",1,1,,,,,,,,,0,2,2,2,0,1,1,2,,,,,,,,,,,,,,,,,,,,,,,,,,,,,,,,,,,,,,,,,,,,,,,,,,,,,,,618.9382349590014,None,618.9382349590014,None,618.9382349590014,None,c,0,0.9311568299999635,620.4713540589983,None,620.4713540589983,None,620.4713540589983,None,621.4561082779983,None,621.4561082779983,None,621.4561082779983,None,621.4561082779983,None,,,,,,,,,,,,,,,,,,,,,,,,,,,,,,,,,,,,,,,,,,,,001,19,2020_Jan_28_1522,spring_faces,3.1.5,60.01050147803453,
condition files/Stage1_1.xlsx,,B1,T2,c,"['c', 'm']","['Clue', 'Monopoly']","[-0.15, 0.5]","[0.15, 0.5]",1,1,,,,,,,,,0,2,2,2,0,2,2,1,,,,,,,,,,,,,,,,,,,,,,,,,,,,,,,,,,,,,,,,,,,,,,,,,,,,,,,623.4215859629985,None,623.4215859629985,None,623.4215859629985,None,c,1,1.2621658470015973,624.9563509110012,None,624.9563509110012,None,624.9563509110012,None,626.2716700329984,None,626.2716700329984,None,626.2716700329984,None,626.2716700329984,None,,,,,,,,,,,,,,,,,,,,,,,,,,,,,,,,,,,,,,,,,,,,001,19,2020_Jan_28_1522,spring_faces,3.1.5,60.01050147803453,
condition files/Stage1_1.xlsx,,T4,B3,m,"['c', 'm']","['Clue', 'Monopoly']","[-0.15, 0.5]","[0.15, 0.5]",1,1,,,,,,,,,0,2,2,2,0,3,3,6,,,,,,,,,,,,,,,,,,,,,,,,,,,,,,,,,,,,,,,,,,,,,,,,,,,,,,,628.2380245329987,None,628.2380245329987,None,628.2380245329987,None,m,1,1.0865553590010677,629.771952957999,None,629.771952957999,None,629.771952957999,None,630.9212542759997,None,630.9212542759997,None,630.9212542759997,None,630.9212542759997,None,,,,,,,,,,,,,,,,,,,,,,,,,,,,,,,,,,,,,,,,,,,,001,19,2020_Jan_28_1522,spring_faces,3.1.5,60.01050147803453,
condition files/Stage1_1.xlsx,,B3,T3,c,"['c', 'm']","['Clue', 'Monopoly']","[-0.15, 0.5]","[0.15, 0.5]",1,1,,,,,,,,,0,2,2,2,0,4,4,4,,,,,,,,,,,,,,,,,,,,,,,,,,,,,,,,,,,,,,,,,,,,,,,,,,,,,,,632.8879796260007,None,632.8879796260007,None,632.8879796260007,None,c,1,1.2372104989990476,634.4213107159994,None,634.4213107159994,None,634.4213107159994,None,635.7230277929993,None,635.7230277929993,None,635.7230277929993,None,635.7230277929993,None,,,,,,,,,,,,,,,,,,,,,,,,,,,,,,,,,,,,,,,,,,,,001,19,2020_Jan_28_1522,spring_faces,3.1.5,60.01050147803453,
condition files/Stage1_1.xlsx,,T2,B2,m,"['c', 'm']","['Clue', 'Monopoly']","[-0.15, 0.5]","[0.15, 0.5]",1,1,,,,,,,,,0,2,2,2,0,5,5,3,,,,,,,,,,,,,,,,,,,,,,,,,,,,,,,,,,,,,,,,,,,,,,,,,,,,,,,637.6879561620008,None,637.6879561620008,None,637.6879561620008,None,c,0,1.2025951969990274,639.2239234750014,None,639.2239234750014,None,639.2239234750014,None,640.4882043069993,None,640.4882043069993,None,640.4882043069993,None,640.4882043069993,None,,,,,,,,,,,,,,,,,,,,,,,,,,,,,,,,,,,,,,,,,,,,001,19,2020_Jan_28_1522,spring_faces,3.1.5,60.01050147803453,
condition files/Stage1_1.xlsx,,B4,T4,m,"['c', 'm']","['Clue', 'Monopoly']","[-0.15, 0.5]","[0.15, 0.5]",1,1,,,,,,,,,0,2,2,2,0,6,6,7,,,,,,,,,,,,,,,,,,,,,,,,,,,,,,,,,,,,,,,,,,,,,,,,,,,,,,,642.4548227710002,None,642.4548227710002,None,642.4548227710002,None,m,1,1.317492176000087,643.9890294549987,None,643.9890294549987,None,643.9890294549987,None,645.3715310490006,None,645.3715310490006,None,645.3715310490006,None,645.3715310490006,None,,,,,,,,,,,,,,,,,,,,,,,,,,,,,,,,,,,,,,,,,,,,001,19,2020_Jan_28_1522,spring_faces,3.1.5,60.01050147803453,
condition files/Stage1_1.xlsx,,T3,B4,c,"['c', 'm']","['Clue', 'Monopoly']","[-0.15, 0.5]","[0.15, 0.5]",1,1,,,,,,,,,0,2,2,2,0,7,7,5,,,,,,,,,,,,,,,,,,,,,,,,,,,,,,,,,,,,,,,,,,,,,,,,,,,,,,,647.3382762449983,None,647.3382762449983,None,647.3382762449983,None,c,1,1.2499873080014368,648.8884878729987,None,648.8884878729987,None,648.8884878729987,None,650.2048676359991,None,650.2048676359991,None,650.2048676359991,None,650.2048676359991,None,,,,,,,,,,,,,,,,,,,,,,,,,,,,,,,,,,,,,,,,,,,,001,19,2020_Jan_28_1522,spring_faces,3.1.5,60.01050147803453,
condition files/Stage1_2.xlsx,,T2,B1,c,"['c', 'm']","['Clue', 'Monopoly']","[-0.15, 0.5]","[0.15, 0.5]",1,1,,,,,,,,,0,3,3,3,0,0,0,1,,,,,,,,,,,,,,,,,,,,,,,,,,,,,,,,,,,,,,,,,,,,,,,,,,,,,,,652.1719967999998,None,652.1719967999998,None,652.1719967999998,None,c,1,1.0233629750000546,653.707236233,None,653.707236233,None,653.707236233,None,654.7886642439989,None,654.7886642439989,None,654.7886642439989,None,654.7886642439989,None,,,,,,,,,,,,,,,,,,,,,,,,,,,,,,,,,,,,,,,,,,,,001,19,2020_Jan_28_1522,spring_faces,3.1.5,60.01050147803453,
condition files/Stage1_2.xlsx,,B2,T2,m,"['c', 'm']","['Clue', 'Monopoly']","[-0.15, 0.5]","[0.15, 0.5]",1,1,,,,,,,,,0,3,3,3,0,1,1,3,,,,,,,,,,,,,,,,,,,,,,,,,,,,,,,,,,,,,,,,,,,,,,,,,,,,,,,656.7548054750005,None,656.7548054750005,None,656.7548054750005,None,m,1,1.0961736220015155,658.2903335730007,None,658.2903335730007,None,658.2903335730007,None,659.4395669080004,None,659.4395669080004,None,659.4395669080004,None,659.4395669080004,None,,,,,,,,,,,,,,,,,,,,,,,,,,,,,,,,,,,,,,,,,,,,001,19,2020_Jan_28_1522,spring_faces,3.1.5,60.01050147803453,
condition files/Stage1_2.xlsx,,T3,B3,c,"['c', 'm']","['Clue', 'Monopoly']","[-0.15, 0.5]","[0.15, 0.5]",1,1,,,,,,,,,0,3,3,3,0,2,2,4,,,,,,,,,,,,,,,,,,,,,,,,,,,,,,,,,,,,,,,,,,,,,,,,,,,,,,,661.4045657989991,None,661.4045657989991,None,661.4045657989991,None,c,1,1.3436601430003066,662.9389435970006,None,662.9389435970006,None,662.9389435970006,None,664.3400967999987,None,664.3400967999987,None,664.3400967999987,None,664.3400967999987,None,,,,,,,,,,,,,,,,,,,,,,,,,,,,,,,,,,,,,,,,,,,,001,19,2020_Jan_28_1522,spring_faces,3.1.5,60.01050147803453,
condition files/Stage1_2.xlsx,,T1,B2,m,"['c', 'm']","['Clue', 'Monopoly']","[-0.15, 0.5]","[0.15, 0.5]",1,1,,,,,,,,,0,3,3,3,0,3,3,2,,,,,,,,,,,,,,,,,,,,,,,,,,,,,,,,,,,,,,,,,,,,,,,,,,,,,,,666.3049085729981,None,666.3049085729981,None,666.3049085729981,None,c,0,0.8446352909995767,667.8379314820013,None,667.8379314820013,None,667.8379314820013,None,668.7401938969997,None,668.7401938969997,None,668.7401938969997,None,668.7401938969997,None,,,,,,,,,,,,,,,,,,,,,,,,,,,,,,,,,,,,,,,,,,,,001,19,2020_Jan_28_1522,spring_faces,3.1.5,60.01050147803453,
condition files/Stage1_2.xlsx,,B4,T3,c,"['c', 'm']","['Clue', 'Monopoly']","[-0.15, 0.5]","[0.15, 0.5]",1,1,,,,,,,,,0,3,3,3,0,4,4,5,,,,,,,,,,,,,,,,,,,,,,,,,,,,,,,,,,,,,,,,,,,,,,,,,,,,,,,670.7047763090013,None,670.7047763090013,None,670.7047763090013,None,m,0,1.4681753070035484,672.2383006269993,None,672.2383006269993,None,672.2383006269993,None,673.7736662050011,None,673.7736662050011,None,673.7736662050011,None,673.7736662050011,None,,,,,,,,,,,,,,,,,,,,,,,,,,,,,,,,,,,,,,,,,,,,001,19,2020_Jan_28_1522,spring_faces,3.1.5,60.01050147803453,
condition files/Stage1_2.xlsx,,T4,B4,m,"['c', 'm']","['Clue', 'Monopoly']","[-0.15, 0.5]","[0.15, 0.5]",1,1,,,,,,,,,0,3,3,3,0,5,5,7,,,,,,,,,,,,,,,,,,,,,,,,,,,,,,,,,,,,,,,,,,,,,,,,,,,,,,,675.737593324,None,675.737593324,None,675.737593324,None,m,1,0.9769408469983318,677.2735748609994,None,677.2735748609994,None,677.2735748609994,None,678.3058260869984,None,678.3058260869984,None,678.3058260869984,None,678.3058260869984,None,,,,,,,,,,,,,,,,,,,,,,,,,,,,,,,,,,,,,,,,,,,,001,19,2020_Jan_28_1522,spring_faces,3.1.5,60.01050147803453,
condition files/Stage1_2.xlsx,,B1,T1,c,"['c', 'm']","['Clue', 'Monopoly']","[-0.15, 0.5]","[0.15, 0.5]",1,1,,,,,,,,,0,3,3,3,0,6,6,0,,,,,,,,,,,,,,,,,,,,,,,,,,,,,,,,,,,,,,,,,,,,,,,,,,,,,,,680.2709431549993,None,680.2709431549993,None,680.2709431549993,None,c,1,1.0215511930000503,681.8049743310003,None,681.8049743310003,None,681.8049743310003,None,682.8875663809995,None,682.8875663809995,None,682.8875663809995,None,682.8875663809995,None,,,,,,,,,,,,,,,,,,,,,,,,,,,,,,,,,,,,,,,,,,,,001,19,2020_Jan_28_1522,spring_faces,3.1.5,60.01050147803453,
condition files/Stage1_2.xlsx,,B3,T4,m,"['c', 'm']","['Clue', 'Monopoly']","[-0.15, 0.5]","[0.15, 0.5]",1,1,,,,,,,,,0,3,3,3,0,7,7,6,,,,,,,,,,,,,,,,,,,,,,,,,,,,,,,,,,,,,,,,,,,,,,,,,,,,,,,684.8548126749993,None,684.8548126749993,None,684.8548126749993,None,m,1,1.670713715000602,686.3878185100002,None,686.3878185100002,None,686.3878185100002,None,688.1212855749982,None,688.1212855749982,None,688.1212855749982,None,688.1212855749982,None,,,,,,,,,,,,,,,,,,,,,,,,,,,,,,,,,,,,,,,,,,,,001,19,2020_Jan_28_1522,spring_faces,3.1.5,60.01050147803453,
condition files/Stage1_1.xlsx,,B3,T3,c,"['c', 'm']","['Clue', 'Monopoly']","[-0.15, 0.5]","[0.15, 0.5]",1,1,,,,,,,,,0,4,4,4,0,0,0,4,,,,,,,,,,,,,,,,,,,,,,,,,,,,,,,,,,,,,,,,,,,,,,,,,,,,,,,690.1049383719983,None,690.1049383719983,None,690.1049383719983,None,c,1,1.0915555499996117,691.6550371170015,None,691.6550371170015,None,691.6550371170015,None,692.8048580639988,None,692.8048580639988,None,692.8048580639988,None,692.8048580639988,None,,,,,,,,,,,,,,,,,,,,,,,,,,,,,,,,,,,,,,,,,,,,001,19,2020_Jan_28_1522,spring_faces,3.1.5,60.01050147803453,
condition files/Stage1_1.xlsx,,B2,T1,m,"['c', 'm']","['Clue', 'Monopoly']","[-0.15, 0.5]","[0.15, 0.5]",1,1,,,,,,,,,0,4,4,4,0,1,1,2,,,,,,,,,,,,,,,,,,,,,,,,,,,,,,,,,,,,,,,,,,,,,,,,,,,,,,,694.7706052909998,None,694.7706052909998,None,694.7706052909998,None,c,0,1.3046840839997458,696.3218264200004,None,696.3218264200004,None,696.3218264200004,None,697.7044519349984,None,697.7044519349984,None,697.7044519349984,None,697.7044519349984,None,,,,,,,,,,,,,,,,,,,,,,,,,,,,,,,,,,,,,,,,,,,,001,19,2020_Jan_28_1522,spring_faces,3.1.5,60.01050147803453,
condition files/Stage1_1.xlsx,,B4,T4,m,"['c', 'm']","['Clue', 'Monopoly']","[-0.15, 0.5]","[0.15, 0.5]",1,1,,,,,,,,,0,4,4,4,0,2,2,7,,,,,,,,,,,,,,,,,,,,,,,,,,,,,,,,,,,,,,,,,,,,,,,,,,,,,,,699.6548283060001,None,699.6548283060001,None,699.6548283060001,None,c,0,2.086732409999968,701.187799768999,None,701.187799768999,None,701.187799768999,None,703.3378061149997,None,703.3378061149997,None,703.3378061149997,None,703.3378061149997,None,,,,,,,,,,,,,,,,,,,,,,,,,,,,,,,,,,,,,,,,,,,,001,19,2020_Jan_28_1522,spring_faces,3.1.5,60.01050147803453,
condition files/Stage1_1.xlsx,,T1,B1,c,"['c', 'm']","['Clue', 'Monopoly']","[-0.15, 0.5]","[0.15, 0.5]",1,1,,,,,,,,,0,4,4,4,0,3,3,0,,,,,,,,,,,,,,,,,,,,,,,,,,,,,,,,,,,,,,,,,,,,,,,,,,,,,,,705.3049755329994,None,705.3049755329994,None,705.3049755329994,None,c,1,2.0035865179997927,706.838953257,None,706.838953257,None,706.838953257,None,708.9069382519992,None,708.9069382519992,None,708.9069382519992,None,708.9069382519992,None,,,,,,,,,,,,,,,,,,,,,,,,,,,,,,,,,,,,,,,,,,,,001,19,2020_Jan_28_1522,spring_faces,3.1.5,60.01050147803453,
condition files/Stage1_1.xlsx,,B1,T2,c,"['c', 'm']","['Clue', 'Monopoly']","[-0.15, 0.5]","[0.15, 0.5]",1,1,,,,,,,,,0,4,4,4,0,4,4,1,,,,,,,,,,,,,,,,,,,,,,,,,,,,,,,,,,,,,,,,,,,,,,,,,,,,,,,710.8715278599993,None,710.8715278599993,None,710.8715278599993,None,c,1,1.8617421489980188,712.4047301130013,None,712.4047301130013,None,712.4047301130013,None,714.3220337819985,None,714.3220337819985,None,714.3220337819985,None,714.3220337819985,None,,,,,,,,,,,,,,,,,,,,,,,,,,,,,,,,,,,,,,,,,,,,001,19,2020_Jan_28_1522,spring_faces,3.1.5,60.01050147803453,
condition files/Stage1_1.xlsx,,T4,B3,m,"['c', 'm']","['Clue', 'Monopoly']","[-0.15, 0.5]","[0.15, 0.5]",1,1,,,,,,,,,0,4,4,4,0,5,5,6,,,,,,,,,,,,,,,,,,,,,,,,,,,,,,,,,,,,,,,,,,,,,,,,,,,,,,,716.2875677990014,None,716.2875677990014,None,716.2875677990014,None,m,1,1.5971418579974852,717.8213575080008,None,717.8213575080008,None,717.8213575080008,None,719.4884148700003,None,719.4884148700003,None,719.4884148700003,None,719.4884148700003,None,,,,,,,,,,,,,,,,,,,,,,,,,,,,,,,,,,,,,,,,,,,,001,19,2020_Jan_28_1522,spring_faces,3.1.5,60.01050147803453,
condition files/Stage1_1.xlsx,,T3,B4,c,"['c', 'm']","['Clue', 'Monopoly']","[-0.15, 0.5]","[0.15, 0.5]",1,1,,,,,,,,,0,4,4,4,0,6,6,5,,,,,,,,,,,,,,,,,,,,,,,,,,,,,,,,,,,,,,,,,,,,,,,,,,,,,,,721.4377968349982,None,721.4377968349982,None,721.4377968349982,None,m,0,1.1018652860002476,722.9726544309997,None,722.9726544309997,None,722.9726544309997,None,724.1551054109987,None,724.1551054109987,None,724.1551054109987,None,724.1551054109987,None,,,,,,,,,,,,,,,,,,,,,,,,,,,,,,,,,,,,,,,,,,,,001,19,2020_Jan_28_1522,spring_faces,3.1.5,60.01050147803453,
condition files/Stage1_1.xlsx,,T2,B2,m,"['c', 'm']","['Clue', 'Monopoly']","[-0.15, 0.5]","[0.15, 0.5]",1,1,,,,,,,,,0,4,4,4,0,7,7,3,,,,,,,,,,,,,,,,,,,,,,,,,,,,,,,,,,,,,,,,,,,,,,,,,,,,,,,726.1046685729998,None,726.1046685729998,None,726.1046685729998,None,m,1,2.116646395999851,727.6378448450014,None,727.6378448450014,None,727.6378448450014,None,729.8046329190001,None,729.8046329190001,None,729.8046329190001,None,729.8046329190001,None,,,,,,,,,,,,,,,,,,,,,,,,,,,,,,,,,,,,,,,,,,,,001,19,2020_Jan_28_1522,spring_faces,3.1.5,60.01050147803453,
condition files/Stage1_2.xlsx,,T2,B1,c,"['c', 'm']","['Clue', 'Monopoly']","[-0.15, 0.5]","[0.15, 0.5]",1,1,,,,,,,,,0,5,5,5,0,0,0,1,,,,,,,,,,,,,,,,,,,,,,,,,,,,,,,,,,,,,,,,,,,,,,,,,,,,,,,731.7883954339995,None,731.7883954339995,None,731.7883954339995,None,m,0,1.6490925929974765,733.3214171600011,None,733.3214171600011,None,733.3214171600011,None,735.038465253001,None,735.038465253001,None,735.038465253001,None,735.038465253001,None,,,,,,,,,,,,,,,,,,,,,,,,,,,,,,,,,,,,,,,,,,,,001,19,2020_Jan_28_1522,spring_faces,3.1.5,60.01050147803453,
condition files/Stage1_2.xlsx,,T3,B3,c,"['c', 'm']","['Clue', 'Monopoly']","[-0.15, 0.5]","[0.15, 0.5]",1,1,,,,,,,,,0,5,5,5,0,1,1,4,,,,,,,,,,,,,,,,,,,,,,,,,,,,,,,,,,,,,,,,,,,,,,,,,,,,,,,736.9885751490001,None,736.9885751490001,None,736.9885751490001,None,c,1,1.1679006589984056,738.5226073429985,None,738.5226073429985,None,738.5226073429985,None,739.7545384840014,None,739.7545384840014,None,739.7545384840014,None,739.7545384840014,None,,,,,,,,,,,,,,,,,,,,,,,,,,,,,,,,,,,,,,,,,,,,001,19,2020_Jan_28_1522,spring_faces,3.1.5,60.01050147803453,
condition files/Stage1_2.xlsx,,B3,T4,m,"['c', 'm']","['Clue', 'Monopoly']","[-0.15, 0.5]","[0.15, 0.5]",1,1,,,,,,,,,0,5,5,5,0,2,2,6,,,,,,,,,,,,,,,,,,,,,,,,,,,,,,,,,,,,,,,,,,,,,,,,,,,,,,,741.7218020850014,None,741.7218020850014,None,741.7218020850014,None,c,0,1.555901924999489,743.2546004299984,None,743.2546004299984,None,743.2546004299984,None,744.8882384399985,None,744.8882384399985,None,744.8882384399985,None,744.8882384399985,None,,,,,,,,,,,,,,,,,,,,,,,,,,,,,,,,,,,,,,,,,,,,001,19,2020_Jan_28_1522,spring_faces,3.1.5,60.01050147803453,
condition files/Stage1_2.xlsx,,B2,T2,m,"['c', 'm']","['Clue', 'Monopoly']","[-0.15, 0.5]","[0.15, 0.5]",1,1,,,,,,,,,0,5,5,5,0,3,3,3,,,,,,,,,,,,,,,,,,,,,,,,,,,,,,,,,,,,,,,,,,,,,,,,,,,,,,,746.8382904549981,None,746.8382904549981,None,746.8382904549981,None,m,1,1.2210648619984568,748.3734155089987,None,748.3734155089987,None,748.3734155089987,None,749.654821985001,None,749.654821985001,None,749.654821985001,None,749.654821985001,None,,,,,,,,,,,,,,,,,,,,,,,,,,,,,,,,,,,,,,,,,,,,001,19,2020_Jan_28_1522,spring_faces,3.1.5,60.01050147803453,
condition files/Stage1_2.xlsx,,B1,T1,c,"['c', 'm']","['Clue', 'Monopoly']","[-0.15, 0.5]","[0.15, 0.5]",1,1,,,,,,,,,0,5,5,5,0,4,4,0,,,,,,,,,,,,,,,,,,,,,,,,,,,,,,,,,,,,,,,,,,,,,,,,,,,,,,,751.6214653819989,None,751.6214653819989,None,751.6214653819989,None,m,0,1.5280184590010322,753.1544983169988,None,753.1544983169988,None,753.1544983169988,None,754.7379727439984,None,754.7379727439984,None,754.7379727439984,None,754.7379727439984,None,,,,,,,,,,,,,,,,,,,,,,,,,,,,,,,,,,,,,,,,,,,,001,19,2020_Jan_28_1522,spring_faces,3.1.5,60.01050147803453,
condition files/Stage1_2.xlsx,,B4,T3,c,"['c', 'm']","['Clue', 'Monopoly']","[-0.15, 0.5]","[0.15, 0.5]",1,1,,,,,,,,,0,5,5,5,0,5,5,5,,,,,,,,,,,,,,,,,,,,,,,,,,,,,,,,,,,,,,,,,,,,,,,,,,,,,,,756.7049658329997,None,756.7049658329997,None,756.7049658329997,None,m,0,1.5801867230002244,758.2383233100009,None,758.2383233100009,None,758.2383233100009,None,759.8715359160014,None,759.8715359160014,None,759.8715359160014,None,759.8715359160014,None,,,,,,,,,,,,,,,,,,,,,,,,,,,,,,,,,,,,,,,,,,,,001,19,2020_Jan_28_1522,spring_faces,3.1.5,60.01050147803453,
condition files/Stage1_2.xlsx,,T4,B4,m,"['c', 'm']","['Clue', 'Monopoly']","[-0.15, 0.5]","[0.15, 0.5]",1,1,,,,,,,,,0,5,5,5,0,6,6,7,,,,,,,,,,,,,,,,,,,,,,,,,,,,,,,,,,,,,,,,,,,,,,,,,,,,,,,761.8377162379984,None,761.8377162379984,None,761.8377162379984,None,m,1,1.0387117430000217,763.3718437659991,None,763.3718437659991,None,763.3718437659991,None,764.4886968899991,None,764.4886968899991,None,764.4886968899991,None,764.4886968899991,None,,,,,,,,,,,,,,,,,,,,,,,,,,,,,,,,,,,,,,,,,,,,001,19,2020_Jan_28_1522,spring_faces,3.1.5,60.01050147803453,
condition files/Stage1_2.xlsx,,T1,B2,m,"['c', 'm']","['Clue', 'Monopoly']","[-0.15, 0.5]","[0.15, 0.5]",1,1,,,,,,,,,0,5,5,5,0,7,7,2,,,,,,,,,,,,,,,,,,,,,,,,,,,,,,,,,,,,,,,,,,,,,,,,,,,,,,,766.4380221569991,None,766.4380221569991,None,766.4380221569991,None,c,0,1.6060989159996097,767.9725005149994,None,767.9725005149994,None,767.9725005149994,None,769.6383723569998,None,769.6383723569998,None,769.6383723569998,None,769.6383723569998,None,,,,,,,,,,,,,,,,,,,,,,,,,,,,,,,,,,,,,,,,,,,,001,19,2020_Jan_28_1522,spring_faces,3.1.5,60.01050147803453,
condition files/Stage1_1.xlsx,,B1,T2,c,"['c', 'm']","['Clue', 'Monopoly']","[-0.15, 0.5]","[0.15, 0.5]",1,1,,,,,,,,,0,6,6,6,0,0,0,1,,,,,,,,,,,,,,,,,,,,,,,,,,,,,,,,,,,,,,,,,,,,,,,,,,,,,,,771.6217696159983,None,771.6217696159983,None,771.6217696159983,None,c,1,0.8718629210015933,773.1546779259988,None,773.1546779259988,None,773.1546779259988,None,774.0881100609986,None,774.0881100609986,None,774.0881100609986,None,774.0881100609986,None,,,,,,,,,,,,,,,,,,,,,,,,,,,,,,,,,,,,,,,,,,,,001,19,2020_Jan_28_1522,spring_faces,3.1.5,60.01050147803453,
condition files/Stage1_1.xlsx,,T3,B4,c,"['c', 'm']","['Clue', 'Monopoly']","[-0.15, 0.5]","[0.15, 0.5]",1,1,,,,,,,,,0,6,6,6,0,1,1,5,,,,,,,,,,,,,,,,,,,,,,,,,,,,,,,,,,,,,,,,,,,,,,,,,,,,,,,776.0545708659993,None,776.0545708659993,None,776.0545708659993,None,c,1,0.9985626589987078,777.5879563140006,None,777.5879563140006,None,777.5879563140006,None,778.6387164029984,None,778.6387164029984,None,778.6387164029984,None,778.6387164029984,None,,,,,,,,,,,,,,,,,,,,,,,,,,,,,,,,,,,,,,,,,,,,001,19,2020_Jan_28_1522,spring_faces,3.1.5,60.01050147803453,
condition files/Stage1_1.xlsx,,T1,B1,c,"['c', 'm']","['Clue', 'Monopoly']","[-0.15, 0.5]","[0.15, 0.5]",1,1,,,,,,,,,0,6,6,6,0,2,2,0,,,,,,,,,,,,,,,,,,,,,,,,,,,,,,,,,,,,,,,,,,,,,,,,,,,,,,,780.6045699800015,None,780.6045699800015,None,780.6045699800015,None,m,0,1.0715600229996198,782.1389786479995,None,782.1389786479995,None,782.1389786479995,None,783.271799954,None,783.271799954,None,783.271799954,None,783.271799954,None,,,,,,,,,,,,,,,,,,,,,,,,,,,,,,,,,,,,,,,,,,,,001,19,2020_Jan_28_1522,spring_faces,3.1.5,60.01050147803453,
condition files/Stage1_1.xlsx,,B3,T3,c,"['c', 'm']","['Clue', 'Monopoly']","[-0.15, 0.5]","[0.15, 0.5]",1,1,,,,,,,,,0,6,6,6,0,3,3,4,,,,,,,,,,,,,,,,,,,,,,,,,,,,,,,,,,,,,,,,,,,,,,,,,,,,,,,785.2379638009988,None,785.2379638009988,None,785.2379638009988,None,m,0,0.8073254560003988,786.7712673679998,None,786.7712673679998,None,786.7712673679998,None,787.6381047949981,None,787.6381047949981,None,787.6381047949981,None,787.6381047949981,None,,,,,,,,,,,,,,,,,,,,,,,,,,,,,,,,,,,,,,,,,,,,001,19,2020_Jan_28_1522,spring_faces,3.1.5,60.01050147803453,
condition files/Stage1_1.xlsx,,B4,T4,m,"['c', 'm']","['Clue', 'Monopoly']","[-0.15, 0.5]","[0.15, 0.5]",1,1,,,,,,,,,0,6,6,6,0,4,4,7,,,,,,,,,,,,,,,,,,,,,,,,,,,,,,,,,,,,,,,,,,,,,,,,,,,,,,,789.6045778029984,None,789.6045778029984,None,789.6045778029984,None,m,1,1.111683359999006,791.138837262999,None,791.138837262999,None,791.138837262999,None,792.3067419770014,None,792.3067419770014,None,792.3067419770014,None,792.3067419770014,None,,,,,,,,,,,,,,,,,,,,,,,,,,,,,,,,,,,,,,,,,,,,001,19,2020_Jan_28_1522,spring_faces,3.1.5,60.01050147803453,
condition files/Stage1_1.xlsx,,T2,B2,m,"['c', 'm']","['Clue', 'Monopoly']","[-0.15, 0.5]","[0.15, 0.5]",1,1,,,,,,,,,0,6,6,6,0,5,5,3,,,,,,,,,,,,,,,,,,,,,,,,,,,,,,,,,,,,,,,,,,,,,,,,,,,,,,,794.2716085799984,None,794.2716085799984,None,794.2716085799984,None,m,1,1.6130888420011615,795.8054006210004,None,795.8054006210004,None,795.8054006210004,None,797.4713421870001,None,797.4713421870001,None,797.4713421870001,None,797.4713421870001,None,,,,,,,,,,,,,,,,,,,,,,,,,,,,,,,,,,,,,,,,,,,,001,19,2020_Jan_28_1522,spring_faces,3.1.5,60.01050147803453,
condition files/Stage1_1.xlsx,,T4,B3,m,"['c', 'm']","['Clue', 'Monopoly']","[-0.15, 0.5]","[0.15, 0.5]",1,1,,,,,,,,,0,6,6,6,0,6,6,6,,,,,,,,,,,,,,,,,,,,,,,,,,,,,,,,,,,,,,,,,,,,,,,,,,,,,,,799.4382690530001,None,799.4382690530001,None,799.4382690530001,None,c,0,1.1817883889998484,800.9727225960014,None,800.9727225960014,None,800.9727225960014,None,802.2053602839987,None,802.2053602839987,None,802.2053602839987,None,802.2053602839987,None,,,,,,,,,,,,,,,,,,,,,,,,,,,,,,,,,,,,,,,,,,,,001,19,2020_Jan_28_1522,spring_faces,3.1.5,60.01050147803453,
condition files/Stage1_1.xlsx,,B2,T1,m,"['c', 'm']","['Clue', 'Monopoly']","[-0.15, 0.5]","[0.15, 0.5]",1,1,,,,,,,,,0,6,6,6,0,7,7,2,,,,,,,,,,,,,,,,,,,,,,,,,,,,,,,,,,,,,,,,,,,,,,,,,,,,,,,804.1716525439988,None,804.1716525439988,None,804.1716525439988,None,m,1,1.9674881020000612,805.7069886669997,None,805.7069886669997,None,805.7069886669997,None,807.7381261990013,None,807.7381261990013,None,807.7381261990013,None,807.7381261990013,None,,,,,,,,,,,,,,,,,,,,,,,,,,,,,,,,,,,,,,,,,,,,001,19,2020_Jan_28_1522,spring_faces,3.1.5,60.01050147803453,
condition files/Stage1_2.xlsx,,B2,T2,m,"['c', 'm']","['Clue', 'Monopoly']","[-0.15, 0.5]","[0.15, 0.5]",1,1,,,,,,,,,0,7,7,7,0,0,0,3,,,,,,,,,,,,,,,,,,,,,,,,,,,,,,,,,,,,,,,,,,,,,,,,,,,,,,,809.7212340439983,None,809.7212340439983,None,809.7212340439983,None,c,0,1.4250890149996849,811.2573976870008,None,811.2573976870008,None,811.2573976870008,None,812.7378723410002,None,812.7378723410002,None,812.7378723410002,None,812.7378723410002,None,,,,,,,,,,,,,,,,,,,,,,,,,,,,,,,,,,,,,,,,,,,,001,19,2020_Jan_28_1522,spring_faces,3.1.5,60.01050147803453,
condition files/Stage1_2.xlsx,,T2,B1,c,"['c', 'm']","['Clue', 'Monopoly']","[-0.15, 0.5]","[0.15, 0.5]",1,1,,,,,,,,,0,7,7,7,0,1,1,1,,,,,,,,,,,,,,,,,,,,,,,,,,,,,,,,,,,,,,,,,,,,,,,,,,,,,,,814.7048671310004,None,814.7048671310004,None,814.7048671310004,None,c,1,1.2607960620007361,816.2377799149981,None,816.2377799149981,None,816.2377799149981,None,817.555422049998,None,817.555422049998,None,817.555422049998,None,817.555422049998,None,,,,,,,,,,,,,,,,,,,,,,,,,,,,,,,,,,,,,,,,,,,,001,19,2020_Jan_28_1522,spring_faces,3.1.5,60.01050147803453,
condition files/Stage1_2.xlsx,,B1,T1,c,"['c', 'm']","['Clue', 'Monopoly']","[-0.15, 0.5]","[0.15, 0.5]",1,1,,,,,,,,,0,7,7,7,0,2,2,0,,,,,,,,,,,,,,,,,,,,,,,,,,,,,,,,,,,,,,,,,,,,,,,,,,,,,,,819.5215147089984,None,819.5215147089984,None,819.5215147089984,None,m,0,0.9540912720003689,821.0564346690007,None,821.0564346690007,None,821.0564346690007,None,822.0720978969985,None,822.0720978969985,None,822.0720978969985,None,822.0720978969985,None,,,,,,,,,,,,,,,,,,,,,,,,,,,,,,,,,,,,,,,,,,,,001,19,2020_Jan_28_1522,spring_faces,3.1.5,60.01050147803453,
condition files/Stage1_2.xlsx,,T1,B2,m,"['c', 'm']","['Clue', 'Monopoly']","[-0.15, 0.5]","[0.15, 0.5]",1,1,,,,,,,,,0,7,7,7,0,3,3,2,,,,,,,,,,,,,,,,,,,,,,,,,,,,,,,,,,,,,,,,,,,,,,,,,,,,,,,824.0378677570006,None,824.0378677570006,None,824.0378677570006,None,m,1,1.2221591220004484,825.572438266001,None,825.572438266001,None,825.572438266001,None,826.8564115340014,None,826.8564115340014,None,826.8564115340014,None,826.8564115340014,None,,,,,,,,,,,,,,,,,,,,,,,,,,,,,,,,,,,,,,,,,,,,001,19,2020_Jan_28_1522,spring_faces,3.1.5,60.01050147803453,
condition files/Stage1_2.xlsx,,B3,T4,m,"['c', 'm']","['Clue', 'Monopoly']","[-0.15, 0.5]","[0.15, 0.5]",1,1,,,,,,,,,0,7,7,7,0,4,4,6,,,,,,,,,,,,,,,,,,,,,,,,,,,,,,,,,,,,,,,,,,,,,,,,,,,,,,,828.8214814999992,None,828.8214814999992,None,828.8214814999992,None,m,1,1.031106455000554,830.3554129699987,None,830.3554129699987,None,830.3554129699987,None,831.4383102989996,None,831.4383102989996,None,831.4383102989996,None,831.4383102989996,None,,,,,,,,,,,,,,,,,,,,,,,,,,,,,,,,,,,,,,,,,,,,001,19,2020_Jan_28_1522,spring_faces,3.1.5,60.01050147803453,
condition files/Stage1_2.xlsx,,T4,B4,m,"['c', 'm']","['Clue', 'Monopoly']","[-0.15, 0.5]","[0.15, 0.5]",1,1,,,,,,,,,0,7,7,7,0,5,5,7,,,,,,,,,,,,,,,,,,,,,,,,,,,,,,,,,,,,,,,,,,,,,,,,,,,,,,,833.4053005159985,None,833.4053005159985,None,833.4053005159985,None,c,0,1.4234252930000366,834.9391655299987,None,834.9391655299987,None,834.9391655299987,None,836.4214714299997,None,836.4214714299997,None,836.4214714299997,None,836.4214714299997,None,,,,,,,,,,,,,,,,,,,,,,,,,,,,,,,,,,,,,,,,,,,,001,19,2020_Jan_28_1522,spring_faces,3.1.5,60.01050147803453,
condition files/Stage1_2.xlsx,,B4,T3,c,"['c', 'm']","['Clue', 'Monopoly']","[-0.15, 0.5]","[0.15, 0.5]",1,1,,,,,,,,,0,7,7,7,0,6,6,5,,,,,,,,,,,,,,,,,,,,,,,,,,,,,,,,,,,,,,,,,,,,,,,,,,,,,,,838.3884403179982,None,838.3884403179982,None,838.3884403179982,None,c,1,1.1602427479992912,839.9383295340012,None,839.9383295340012,None,839.9383295340012,None,841.1548895710002,None,841.1548895710002,None,841.1548895710002,None,841.1548895710002,None,,,,,,,,,,,,,,,,,,,,,,,,,,,,,,,,,,,,,,,,,,,,001,19,2020_Jan_28_1522,spring_faces,3.1.5,60.01050147803453,
condition files/Stage1_2.xlsx,,T3,B3,c,"['c', 'm']","['Clue', 'Monopoly']","[-0.15, 0.5]","[0.15, 0.5]",1,1,,,,,,,,,0,7,7,7,0,7,7,4,,,,,,,,,,,,,,,,,,,,,,,,,,,,,,,,,,,,,,,,,,,,,,,,,,,,,,,843.1214934540003,None,843.1214934540003,None,843.1214934540003,None,c,1,1.643661925001652,844.6549279749997,None,844.6549279749997,None,844.6549279749997,None,846.3546448009984,None,846.3546448009984,None,846.3546448009984,None,846.3546448009984,None,,,,,,,,,,,,,,,,,,,,,,,,,,,,,,,,,,,,,,,,,,,,001,19,2020_Jan_28_1522,spring_faces,3.1.5,60.01050147803453,
condition files/Stage1_1.xlsx,,B1,T2,c,"['c', 'm']","['Clue', 'Monopoly']","[-0.15, 0.5]","[0.15, 0.5]",1,1,,,,,,,,,0,8,8,8,0,0,0,1,,,,,,,,,,,,,,,,,,,,,,,,,,,,,,,,,,,,,,,,,,,,,,,,,,,,,,,848.3383677419988,None,848.3383677419988,None,848.3383677419988,None,c,1,1.4832292060018517,849.8712889630006,None,849.8712889630006,None,849.8712889630006,None,851.4051130090011,None,851.4051130090011,None,851.4051130090011,None,851.4051130090011,None,,,,,,,,,,,,,,,,,,,,,,,,,,,,,,,,,,,,,,,,,,,,001,19,2020_Jan_28_1522,spring_faces,3.1.5,60.01050147803453,
condition files/Stage1_1.xlsx,,T2,B2,m,"['c', 'm']","['Clue', 'Monopoly']","[-0.15, 0.5]","[0.15, 0.5]",1,1,,,,,,,,,0,8,8,8,0,1,1,3,,,,,,,,,,,,,,,,,,,,,,,,,,,,,,,,,,,,,,,,,,,,,,,,,,,,,,,853.371333602001,None,853.371333602001,None,853.371333602001,None,m,1,1.2173004260002926,854.9051702469988,None,854.9051702469988,None,854.9051702469988,None,856.1874059250003,None,856.1874059250003,None,856.1874059250003,None,856.1874059250003,None,,,,,,,,,,,,,,,,,,,,,,,,,,,,,,,,,,,,,,,,,,,,001,19,2020_Jan_28_1522,spring_faces,3.1.5,60.01050147803453,
condition files/Stage1_1.xlsx,,B3,T3,c,"['c', 'm']","['Clue', 'Monopoly']","[-0.15, 0.5]","[0.15, 0.5]",1,1,,,,,,,,,0,8,8,8,0,2,2,4,,,,,,,,,,,,,,,,,,,,,,,,,,,,,,,,,,,,,,,,,,,,,,,,,,,,,,,858.1548315309992,None,858.1548315309992,None,858.1548315309992,None,c,1,1.5216730640022433,859.7048497639989,None,859.7048497639989,None,859.7048497639989,None,861.2889881420015,None,861.2889881420015,None,861.2889881420015,None,861.2889881420015,None,,,,,,,,,,,,,,,,,,,,,,,,,,,,,,,,,,,,,,,,,,,,001,19,2020_Jan_28_1522,spring_faces,3.1.5,60.01050147803453,
condition files/Stage1_1.xlsx,,B2,T1,m,"['c', 'm']","['Clue', 'Monopoly']","[-0.15, 0.5]","[0.15, 0.5]",1,1,,,,,,,,,0,8,8,8,0,3,3,2,,,,,,,,,,,,,,,,,,,,,,,,,,,,,,,,,,,,,,,,,,,,,,,,,,,,,,,863.2548455869983,None,863.2548455869983,None,863.2548455869983,None,m,1,1.124153054002818,864.7903697129987,None,864.7903697129987,None,864.7903697129987,None,865.9720569550009,None,865.9720569550009,None,865.9720569550009,None,865.9720569550009,None,,,,,,,,,,,,,,,,,,,,,,,,,,,,,,,,,,,,,,,,,,,,001,19,2020_Jan_28_1522,spring_faces,3.1.5,60.01050147803453,
condition files/Stage1_1.xlsx,,T1,B1,c,"['c', 'm']","['Clue', 'Monopoly']","[-0.15, 0.5]","[0.15, 0.5]",1,1,,,,,,,,,0,8,8,8,0,4,4,0,,,,,,,,,,,,,,,,,,,,,,,,,,,,,,,,,,,,,,,,,,,,,,,,,,,,,,,867.9386786670002,None,867.9386786670002,None,867.9386786670002,None,c,1,1.6755628309983877,869.4708889360008,None,869.4708889360008,None,869.4708889360008,None,871.2040494579996,None,871.2040494579996,None,871.2040494579996,None,871.2040494579996,None,,,,,,,,,,,,,,,,,,,,,,,,,,,,,,,,,,,,,,,,,,,,001,19,2020_Jan_28_1522,spring_faces,3.1.5,60.01050147803453,
condition files/Stage1_1.xlsx,,T4,B3,m,"['c', 'm']","['Clue', 'Monopoly']","[-0.15, 0.5]","[0.15, 0.5]",1,1,,,,,,,,,0,8,8,8,0,5,5,6,,,,,,,,,,,,,,,,,,,,,,,,,,,,,,,,,,,,,,,,,,,,,,,,,,,,,,,873.1712870219999,None,873.1712870219999,None,873.1712870219999,None,c,0,1.5297454159990593,874.7047733459985,None,874.7047733459985,None,874.7047733459985,None,876.305279543998,None,876.305279543998,None,876.305279543998,None,876.305279543998,None,,,,,,,,,,,,,,,,,,,,,,,,,,,,,,,,,,,,,,,,,,,,001,19,2020_Jan_28_1522,spring_faces,3.1.5,60.01050147803453,
condition files/Stage1_1.xlsx,,B4,T4,m,"['c', 'm']","['Clue', 'Monopoly']","[-0.15, 0.5]","[0.15, 0.5]",1,1,,,,,,,,,0,8,8,8,0,6,6,7,,,,,,,,,,,,,,,,,,,,,,,,,,,,,,,,,,,,,,,,,,,,,,,,,,,,,,,878.2548699779982,None,878.2548699779982,None,878.2548699779982,None,m,1,0.9907168299978366,879.7878832409988,None,879.7878832409988,None,879.7878832409988,None,880.8381132530012,None,880.8381132530012,None,880.8381132530012,None,880.8381132530012,None,,,,,,,,,,,,,,,,,,,,,,,,,,,,,,,,,,,,,,,,,,,,001,19,2020_Jan_28_1522,spring_faces,3.1.5,60.01050147803453,
condition files/Stage1_1.xlsx,,T3,B4,c,"['c', 'm']","['Clue', 'Monopoly']","[-0.15, 0.5]","[0.15, 0.5]",1,1,,,,,,,,,0,8,8,8,0,7,7,5,,,,,,,,,,,,,,,,,,,,,,,,,,,,,,,,,,,,,,,,,,,,,,,,,,,,,,,882.804827396998,None,882.804827396998,None,882.804827396998,None,c,1,1.127409094999166,884.3550516159994,None,884.3550516159994,None,884.3550516159994,None,885.538694619001,None,885.538694619001,None,885.538694619001,None,885.538694619001,None,,,,,,,,,,,,,,,,,,,,,,,,,,,,,,,,,,,,,,,,,,,,001,19,2020_Jan_28_1522,spring_faces,3.1.5,60.01050147803453,
condition files/Stage1_2.xlsx,,B4,T3,c,"['c', 'm']","['Clue', 'Monopoly']","[-0.15, 0.5]","[0.15, 0.5]",1,1,,,,,,,,,0,9,9,9,0,0,0,5,,,,,,,,,,,,,,,,,,,,,,,,,,,,,,,,,,,,,,,,,,,,,,,,,,,,,,,887.5218744220001,None,887.5218744220001,None,887.5218744220001,None,c,1,1.995548676000908,889.0549429710009,None,889.0549429710009,None,889.0549429710009,None,891.1046652109981,None,891.1046652109981,None,891.1046652109981,None,891.1046652109981,None,,,,,,,,,,,,,,,,,,,,,,,,,,,,,,,,,,,,,,,,,,,,001,19,2020_Jan_28_1522,spring_faces,3.1.5,60.01050147803453,
condition files/Stage1_2.xlsx,,B3,T4,m,"['c', 'm']","['Clue', 'Monopoly']","[-0.15, 0.5]","[0.15, 0.5]",1,1,,,,,,,,,0,9,9,9,0,1,1,6,,,,,,,,,,,,,,,,,,,,,,,,,,,,,,,,,,,,,,,,,,,,,,,,,,,,,,,893.0715596959999,None,893.0715596959999,None,893.0715596959999,None,m,1,1.1969875100003264,894.6055329519986,None,894.6055329519986,None,894.6055329519986,None,895.8563539140014,None,895.8563539140014,None,895.8563539140014,None,895.8563539140014,None,,,,,,,,,,,,,,,,,,,,,,,,,,,,,,,,,,,,,,,,,,,,001,19,2020_Jan_28_1522,spring_faces,3.1.5,60.01050147803453,
condition files/Stage1_2.xlsx,,T3,B3,c,"['c', 'm']","['Clue', 'Monopoly']","[-0.15, 0.5]","[0.15, 0.5]",1,1,,,,,,,,,0,9,9,9,0,2,2,4,,,,,,,,,,,,,,,,,,,,,,,,,,,,,,,,,,,,,,,,,,,,,,,,,,,,,,,897.8215716880004,None,897.8215716880004,None,897.8215716880004,None,c,1,0.9904139020000002,899.3561862079987,None,899.3561862079987,None,899.3561862079987,None,900.4061535830006,None,900.4061535830006,None,900.4061535830006,None,900.4061535830006,None,,,,,,,,,,,,,,,,,,,,,,,,,,,,,,,,,,,,,,,,,,,,001,19,2020_Jan_28_1522,spring_faces,3.1.5,60.01050147803453,
condition files/Stage1_2.xlsx,,B1,T1,c,"['c', 'm']","['Clue', 'Monopoly']","[-0.15, 0.5]","[0.15, 0.5]",1,1,,,,,,,,,0,9,9,9,0,3,3,0,,,,,,,,,,,,,,,,,,,,,,,,,,,,,,,,,,,,,,,,,,,,,,,,,,,,,,,902.3715532089991,None,902.3715532089991,None,902.3715532089991,None,m,0,1.769793639999989,903.9047358069984,None,903.9047358069984,None,903.9047358069984,None,905.738334884998,None,905.738334884998,None,905.738334884998,None,905.738334884998,None,,,,,,,,,,,,,,,,,,,,,,,,,,,,,,,,,,,,,,,,,,,,001,19,2020_Jan_28_1522,spring_faces,3.1.5,60.01050147803453,
condition files/Stage1_2.xlsx,,T4,B4,m,"['c', 'm']","['Clue', 'Monopoly']","[-0.15, 0.5]","[0.15, 0.5]",1,1,,,,,,,,,0,9,9,9,0,4,4,7,,,,,,,,,,,,,,,,,,,,,,,,,,,,,,,,,,,,,,,,,,,,,,,,,,,,,,,907.7051899530015,None,907.7051899530015,None,907.7051899530015,None,m,1,0.9154190100016422,909.2550829309985,None,909.2550829309985,None,909.2550829309985,None,910.2238959300012,None,910.2238959300012,None,910.2238959300012,None,910.2238959300012,None,,,,,,,,,,,,,,,,,,,,,,,,,,,,,,,,,,,,,,,,,,,,001,19,2020_Jan_28_1522,spring_faces,3.1.5,60.01050147803453,
condition files/Stage1_2.xlsx,,T1,B2,m,"['c', 'm']","['Clue', 'Monopoly']","[-0.15, 0.5]","[0.15, 0.5]",1,1,,,,,,,,,0,9,9,9,0,5,5,2,,,,,,,,,,,,,,,,,,,,,,,,,,,,,,,,,,,,,,,,,,,,,,,,,,,,,,,912.1882452909995,None,912.1882452909995,None,912.1882452909995,None,c,0,0.7206999270019878,913.7218294410013,None,913.7218294410013,None,913.7218294410013,None,914.5047915979994,None,914.5047915979994,None,914.5047915979994,None,914.5047915979994,None,,,,,,,,,,,,,,,,,,,,,,,,,,,,,,,,,,,,,,,,,,,,001,19,2020_Jan_28_1522,spring_faces,3.1.5,60.01050147803453,
condition files/Stage1_2.xlsx,,B2,T2,m,"['c', 'm']","['Clue', 'Monopoly']","[-0.15, 0.5]","[0.15, 0.5]",1,1,,,,,,,,,0,9,9,9,0,6,6,3,,,,,,,,,,,,,,,,,,,,,,,,,,,,,,,,,,,,,,,,,,,,,,,,,,,,,,,916.4715410319986,None,916.4715410319986,None,916.4715410319986,None,m,1,1.2205617349973181,918.0059744870014,None,918.0059744870014,None,918.0059744870014,None,919.2884890069981,None,919.2884890069981,None,919.2884890069981,None,919.2884890069981,None,,,,,,,,,,,,,,,,,,,,,,,,,,,,,,,,,,,,,,,,,,,,001,19,2020_Jan_28_1522,spring_faces,3.1.5,60.01050147803453,
condition files/Stage1_2.xlsx,,T2,B1,c,"['c', 'm']","['Clue', 'Monopoly']","[-0.15, 0.5]","[0.15, 0.5]",1,1,,,,,,,,,0,9,9,9,0,7,7,1,,,,,,,,,,,,,,,,,,,,,,,,,,,,,,,,,,,,,,,,,,,,,,,,,,,,,,,921.2548303760013,None,921.2548303760013,None,921.2548303760013,None,c,1,1.3006562240007042,922.7898627499999,None,922.7898627499999,None,922.7898627499999,None,924.1547734490014,None,924.1547734490014,None,924.1547734490014,None,924.1547734490014,None,,,,,,,,,,,,,,,,,,,,,,,,,,,,,,,,,,,,,,,,,,,,001,19,2020_Jan_28_1522,spring_faces,3.1.5,60.01050147803453,
condition files/Stage1_1.xlsx,,B2,T1,m,"['c', 'm']","['Clue', 'Monopoly']","[-0.15, 0.5]","[0.15, 0.5]",1,1,,,,,,,,,0,10,10,10,0,0,0,2,,,,,,,,,,,,,,,,,,,,,,,,,,,,,,,,,,,,,,,,,,,,,,,,,,,,,,,926.1381521709991,None,926.1381521709991,None,926.1381521709991,None,m,1,0.9309757349983556,927.6715496750003,None,927.6715496750003,None,927.6715496750003,None,928.6561425180007,None,928.6561425180007,None,928.6561425180007,None,928.6561425180007,None,,,,,,,,,,,,,,,,,,,,,,,,,,,,,,,,,,,,,,,,,,,,001,19,2020_Jan_28_1522,spring_faces,3.1.5,60.01050147803453,
condition files/Stage1_1.xlsx,,B3,T3,c,"['c', 'm']","['Clue', 'Monopoly']","[-0.15, 0.5]","[0.15, 0.5]",1,1,,,,,,,,,0,10,10,10,0,1,1,4,,,,,,,,,,,,,,,,,,,,,,,,,,,,,,,,,,,,,,,,,,,,,,,,,,,,,,,930.621488378998,None,930.621488378998,None,930.621488378998,None,c,1,1.2952180370011774,932.1552958190005,None,932.1552958190005,None,932.1552958190005,None,933.5217755919984,None,933.5217755919984,None,933.5217755919984,None,933.5217755919984,None,,,,,,,,,,,,,,,,,,,,,,,,,,,,,,,,,,,,,,,,,,,,001,19,2020_Jan_28_1522,spring_faces,3.1.5,60.01050147803453,
condition files/Stage1_1.xlsx,,T4,B3,m,"['c', 'm']","['Clue', 'Monopoly']","[-0.15, 0.5]","[0.15, 0.5]",1,1,,,,,,,,,0,10,10,10,0,2,2,6,,,,,,,,,,,,,,,,,,,,,,,,,,,,,,,,,,,,,,,,,,,,,,,,,,,,,,,935.4715895900008,None,935.4715895900008,None,935.4715895900008,None,m,1,1.0526378790018498,937.0218701689992,None,937.0218701689992,None,937.0218701689992,None,938.1394999439981,None,938.1394999439981,None,938.1394999439981,None,938.1394999439981,None,,,,,,,,,,,,,,,,,,,,,,,,,,,,,,,,,,,,,,,,,,,,001,19,2020_Jan_28_1522,spring_faces,3.1.5,60.01050147803453,
condition files/Stage1_1.xlsx,,B1,T2,c,"['c', 'm']","['Clue', 'Monopoly']","[-0.15, 0.5]","[0.15, 0.5]",1,1,,,,,,,,,0,10,10,10,0,3,3,1,,,,,,,,,,,,,,,,,,,,,,,,,,,,,,,,,,,,,,,,,,,,,,,,,,,,,,,940.1051027360008,None,940.1051027360008,None,940.1051027360008,None,c,1,0.8045359179996012,941.6379755109992,None,941.6379755109992,None,941.6379755109992,None,942.5044040590001,None,942.5044040590001,None,942.5044040590001,None,942.5044040590001,None,,,,,,,,,,,,,,,,,,,,,,,,,,,,,,,,,,,,,,,,,,,,001,19,2020_Jan_28_1522,spring_faces,3.1.5,60.01050147803453,
condition files/Stage1_1.xlsx,,B4,T4,m,"['c', 'm']","['Clue', 'Monopoly']","[-0.15, 0.5]","[0.15, 0.5]",1,1,,,,,,,,,0,10,10,10,0,4,4,7,,,,,,,,,,,,,,,,,,,,,,,,,,,,,,,,,,,,,,,,,,,,,,,,,,,,,,,944.4714926199995,None,944.4714926199995,None,944.4714926199995,None,m,1,0.836330967998947,946.0062039650002,None,946.0062039650002,None,946.0062039650002,None,946.905072223999,None,946.905072223999,None,946.905072223999,None,946.905072223999,None,,,,,,,,,,,,,,,,,,,,,,,,,,,,,,,,,,,,,,,,,,,,001,19,2020_Jan_28_1522,spring_faces,3.1.5,60.01050147803453,
condition files/Stage1_1.xlsx,,T1,B1,c,"['c', 'm']","['Clue', 'Monopoly']","[-0.15, 0.5]","[0.15, 0.5]",1,1,,,,,,,,,0,10,10,10,0,5,5,0,,,,,,,,,,,,,,,,,,,,,,,,,,,,,,,,,,,,,,,,,,,,,,,,,,,,,,,948.8712895450008,None,948.8712895450008,None,948.8712895450008,None,m,0,0.853266383997834,950.4052660249981,None,950.4052660249981,None,950.4052660249981,None,951.3234759929983,None,951.3234759929983,None,951.3234759929983,None,951.3234759929983,None,,,,,,,,,,,,,,,,,,,,,,,,,,,,,,,,,,,,,,,,,,,,001,19,2020_Jan_28_1522,spring_faces,3.1.5,60.01050147803453,
condition files/Stage1_1.xlsx,,T2,B2,m,"['c', 'm']","['Clue', 'Monopoly']","[-0.15, 0.5]","[0.15, 0.5]",1,1,,,,,,,,,0,10,10,10,0,6,6,3,,,,,,,,,,,,,,,,,,,,,,,,,,,,,,,,,,,,,,,,,,,,,,,,,,,,,,,953.2879483590004,None,953.2879483590004,None,953.2879483590004,None,m,1,1.4437487340001098,954.8227573199983,None,954.8227573199983,None,954.8227573199983,None,956.3384860629994,None,956.3384860629994,None,956.3384860629994,None,956.3384860629994,None,,,,,,,,,,,,,,,,,,,,,,,,,,,,,,,,,,,,,,,,,,,,001,19,2020_Jan_28_1522,spring_faces,3.1.5,60.01050147803453,
condition files/Stage1_1.xlsx,,T3,B4,c,"['c', 'm']","['Clue', 'Monopoly']","[-0.15, 0.5]","[0.15, 0.5]",1,1,,,,,,,,,0,10,10,10,0,7,7,5,,,,,,,,,,,,,,,,,,,,,,,,,,,,,,,,,,,,,,,,,,,,,,,,,,,,,,,958.2883365980015,None,958.2883365980015,None,958.2883365980015,None,c,1,0.764268514001742,959.8222589479992,None,959.8222589479992,None,959.8222589479992,None,960.6398369470007,None,960.6398369470007,None,960.6398369470007,None,960.6398369470007,None,,,,,,,,,,,,,,,,,,,,,,,,,,,,,,,,,,,,,,,,,,,,001,19,2020_Jan_28_1522,spring_faces,3.1.5,60.01050147803453,
condition files/Stage1_2.xlsx,,T4,B4,m,"['c', 'm']","['Clue', 'Monopoly']","[-0.15, 0.5]","[0.15, 0.5]",1,1,,,,,,,,,0,11,11,11,0,0,0,7,,,,,,,,,,,,,,,,,,,,,,,,,,,,,,,,,,,,,,,,,,,,,,,,,,,,,,,962.6216930650007,None,962.6216930650007,None,962.6216930650007,None,m,1,0.7518624410004122,964.1546249450003,None,964.1546249450003,None,964.1546249450003,None,964.9742895880008,None,964.9742895880008,None,964.9742895880008,None,964.9742895880008,None,,,,,,,,,,,,,,,,,,,,,,,,,,,,,,,,,,,,,,,,,,,,001,19,2020_Jan_28_1522,spring_faces,3.1.5,60.01050147803453,
condition files/Stage1_2.xlsx,,B2,T2,m,"['c', 'm']","['Clue', 'Monopoly']","[-0.15, 0.5]","[0.15, 0.5]",1,1,,,,,,,,,0,11,11,11,0,1,1,3,,,,,,,,,,,,,,,,,,,,,,,,,,,,,,,,,,,,,,,,,,,,,,,,,,,,,,,966.9379878090003,None,966.9379878090003,None,966.9379878090003,None,m,1,1.4271085369982757,968.4714966889987,None,968.4714966889987,None,968.4714966889987,None,969.9549753579995,None,969.9549753579995,None,969.9549753579995,None,969.9549753579995,None,,,,,,,,,,,,,,,,,,,,,,,,,,,,,,,,,,,,,,,,,,,,001,19,2020_Jan_28_1522,spring_faces,3.1.5,60.01050147803453,
condition files/Stage1_2.xlsx,,B4,T3,c,"['c', 'm']","['Clue', 'Monopoly']","[-0.15, 0.5]","[0.15, 0.5]",1,1,,,,,,,,,0,11,11,11,0,2,2,5,,,,,,,,,,,,,,,,,,,,,,,,,,,,,,,,,,,,,,,,,,,,,,,,,,,,,,,971.9208726530014,None,971.9208726530014,None,971.9208726530014,None,c,1,0.6659671179986617,973.4565331689992,None,973.4565331689992,None,973.4565331689992,None,974.1889269849999,None,974.1889269849999,None,974.1889269849999,None,974.1889269849999,None,,,,,,,,,,,,,,,,,,,,,,,,,,,,,,,,,,,,,,,,,,,,001,19,2020_Jan_28_1522,spring_faces,3.1.5,60.01050147803453,
condition files/Stage1_2.xlsx,,T3,B3,c,"['c', 'm']","['Clue', 'Monopoly']","[-0.15, 0.5]","[0.15, 0.5]",1,1,,,,,,,,,0,11,11,11,0,3,3,4,,,,,,,,,,,,,,,,,,,,,,,,,,,,,,,,,,,,,,,,,,,,,,,,,,,,,,,976.1549124259982,None,976.1549124259982,None,976.1549124259982,None,c,1,0.6900126289983746,977.7045539409992,None,977.7045539409992,None,977.7045539409992,None,978.4549740479997,None,978.4549740479997,None,978.4549740479997,None,978.4549740479997,None,,,,,,,,,,,,,,,,,,,,,,,,,,,,,,,,,,,,,,,,,,,,001,19,2020_Jan_28_1522,spring_faces,3.1.5,60.01050147803453,
condition files/Stage1_2.xlsx,,T2,B1,c,"['c', 'm']","['Clue', 'Monopoly']","[-0.15, 0.5]","[0.15, 0.5]",1,1,,,,,,,,,0,11,11,11,0,4,4,1,,,,,,,,,,,,,,,,,,,,,,,,,,,,,,,,,,,,,,,,,,,,,,,,,,,,,,,980.4215025080011,None,980.4215025080011,None,980.4215025080011,None,c,1,0.8223795669982792,981.9562131319981,None,981.9562131319981,None,981.9562131319981,None,982.8383814230001,None,982.8383814230001,None,982.8383814230001,None,982.8383814230001,None,,,,,,,,,,,,,,,,,,,,,,,,,,,,,,,,,,,,,,,,,,,,001,19,2020_Jan_28_1522,spring_faces,3.1.5,60.01050147803453,
condition files/Stage1_2.xlsx,,T1,B2,m,"['c', 'm']","['Clue', 'Monopoly']","[-0.15, 0.5]","[0.15, 0.5]",1,1,,,,,,,,,0,11,11,11,0,5,5,2,,,,,,,,,,,,,,,,,,,,,,,,,,,,,,,,,,,,,,,,,,,,,,,,,,,,,,,984.8049037839992,None,984.8049037839992,None,984.8049037839992,None,m,1,0.8886022319966287,986.3379370110015,None,986.3379370110015,None,986.3379370110015,None,987.3044024330011,None,987.3044024330011,None,987.3044024330011,None,987.3044024330011,None,,,,,,,,,,,,,,,,,,,,,,,,,,,,,,,,,,,,,,,,,,,,001,19,2020_Jan_28_1522,spring_faces,3.1.5,60.01050147803453,
condition files/Stage1_2.xlsx,,B1,T1,c,"['c', 'm']","['Clue', 'Monopoly']","[-0.15, 0.5]","[0.15, 0.5]",1,1,,,,,,,,,0,11,11,11,0,6,6,0,,,,,,,,,,,,,,,,,,,,,,,,,,,,,,,,,,,,,,,,,,,,,,,,,,,,,,,989.2547623790015,None,989.2547623790015,None,989.2547623790015,None,c,1,0.5797744020019309,990.7907496830012,None,990.7907496830012,None,990.7907496830012,None,991.4213519689984,None,991.4213519689984,None,991.4213519689984,None,991.4213519689984,None,,,,,,,,,,,,,,,,,,,,,,,,,,,,,,,,,,,,,,,,,,,,001,19,2020_Jan_28_1522,spring_faces,3.1.5,60.01050147803453,
condition files/Stage1_2.xlsx,,B3,T4,m,"['c', 'm']","['Clue', 'Monopoly']","[-0.15, 0.5]","[0.15, 0.5]",1,1,,,,,,,,,0,11,11,11,0,7,7,6,,,,,,,,,,,,,,,,,,,,,,,,,,,,,,,,,,,,,,,,,,,,,,,,,,,,,,,993.3877918139988,None,993.3877918139988,None,993.3877918139988,None,m,1,0.9772681619979267,994.9213324509983,None,994.9213324509983,None,994.9213324509983,None,995.954535623001,None,995.954535623001,None,995.954535623001,None,995.954535623001,None,,,,,,,,,,,,,,,,,,,,,,,,,,,,,,,,,,,,,,,,,,,,001,19,2020_Jan_28_1522,spring_faces,3.1.5,60.01050147803453,
,,,,,,,,,,,,,,,,,,,,,,,,,,,,,,,,,,,,,,,,,,,,,,,,,,,,,,,,,,,,,,,,,,,,,,,,,,,,,,,,,,,,,,,,,,,,,,,,,,,,,,,,,,,,,,,,997.9384813959987,None,space,5.200208901998849,1002.9382770439988,None,,,,,,,,,,,,,,,,,,,,,,,,,,,,,,001,19,2020_Jan_28_1522,spring_faces,3.1.5,60.01050147803453,
condition files/Stage2_1.xlsx,,T1,B1,s,"['s', 'r']","['Stratego', 'Risk']","[-0.15, 0.5]","[0.15, 0.5]",1,1,,,,,,,,,,,,,,,,,0,0,0,0,0,0,0,2,,,,,,,,,,,,,,,,,,,,,,,,,,,,,,,,,,,,,,,,,,,,,,,1008.2051487989993,None,1008.2051487989993,None,1008.2051487989993,None,s,1,1.088776491000317,1009.721762137,None,1009.721762137,None,1009.721762137,None,1010.8717739999993,None,1010.8717739999993,None,1010.8717739999993,None,1010.8717739999993,None,,,,,,,,,,,,,,,1002.9382770439988,None,,,,,,,,,,,,,,,,,,,,,,,,,,,,001,19,2020_Jan_28_1522,spring_faces,3.1.5,60.01050147803453,
condition files/Stage2_1.xlsx,,T5,B5,s,"['s', 'r']","['Stratego', 'Risk']","[-0.15, 0.5]","[0.15, 0.5]",1,1,,,,,,,,,,,,,,,,,0,0,0,0,0,1,1,0,,,,,,,,,,,,,,,,,,,,,,,,,,,,,,,,,,,,,,,,,,,,,,,1012.8381168080014,None,1012.8381168080014,None,1012.8381168080014,None,r,0,0.9663155109992658,1014.3721519840001,None,1014.3721519840001,None,1014.3721519840001,None,1015.4051902889987,None,1015.4051902889987,None,1015.4051902889987,None,1015.4051902889987,None,,,,,,,,,,,,,,,,,,,,,,,,,,,,,,,,,,,,,,,,,,,,001,19,2020_Jan_28_1522,spring_faces,3.1.5,60.01050147803453,
condition files/Stage2_1.xlsx,,B4,T4,r,"['s', 'r']","['Stratego', 'Risk']","[-0.15, 0.5]","[0.15, 0.5]",1,1,,,,,,,,,,,,,,,,,0,0,0,0,0,2,2,5,,,,,,,,,,,,,,,,,,,,,,,,,,,,,,,,,,,,,,,,,,,,,,,1017.3713210319984,None,1017.3713210319984,None,1017.3713210319984,None,r,1,1.248770770002011,1018.905754561998,None,1018.905754561998,None,1018.905754561998,None,1020.2212244110015,None,1020.2212244110015,None,1020.2212244110015,None,1020.2212244110015,None,,,,,,,,,,,,,,,,,,,,,,,,,,,,,,,,,,,,,,,,,,,,001,19,2020_Jan_28_1522,spring_faces,3.1.5,60.01050147803453,
condition files/Stage2_1.xlsx,,B6,T6,r,"['s', 'r']","['Stratego', 'Risk']","[-0.15, 0.5]","[0.15, 0.5]",1,1,,,,,,,,,,,,,,,,,0,0,0,0,0,3,3,1,,,,,,,,,,,,,,,,,,,,,,,,,,,,,,,,,,,,,,,,,,,,,,,1022.1711403410009,None,1022.1711403410009,None,1022.1711403410009,None,s,0,1.6656254429981345,1023.7048946569994,None,1023.7048946569994,None,1023.7048946569994,None,1025.4218075309982,None,1025.4218075309982,None,1025.4218075309982,None,1025.4218075309982,None,,,,,,,,,,,,,,,,,,,,,,,,,,,,,,,,,,,,,,,,,,,,001,19,2020_Jan_28_1522,spring_faces,3.1.5,60.01050147803453,
condition files/Stage2_1.xlsx,,T3,B3,s,"['s', 'r']","['Stratego', 'Risk']","[-0.15, 0.5]","[0.15, 0.5]",1,1,,,,,,,,,,,,,,,,,0,0,0,0,0,4,4,4,,,,,,,,,,,,,,,,,,,,,,,,,,,,,,,,,,,,,,,,,,,,,,,1027.3883727659995,None,1027.3883727659995,None,1027.3883727659995,None,s,1,0.8160508260007191,1028.9384551219991,None,1028.9384551219991,None,1028.9384551219991,None,1029.8221415970002,None,1029.8221415970002,None,1029.8221415970002,None,1029.8221415970002,None,,,,,,,,,,,,,,,,,,,,,,,,,,,,,,,,,,,,,,,,,,,,001,19,2020_Jan_28_1522,spring_faces,3.1.5,60.01050147803453,
condition files/Stage2_1.xlsx,,B2,T2,r,"['s', 'r']","['Stratego', 'Risk']","[-0.15, 0.5]","[0.15, 0.5]",1,1,,,,,,,,,,,,,,,,,0,0,0,0,0,5,5,3,,,,,,,,,,,,,,,,,,,,,,,,,,,,,,,,,,,,,,,,,,,,,,,1031.7715590609987,None,1031.7715590609987,None,1031.7715590609987,None,r,1,1.2971153750004305,1033.305391168,None,1033.305391168,None,1033.305391168,None,1034.6575387999983,None,1034.6575387999983,None,1034.6575387999983,None,1034.6575387999983,None,,,,,,,,,,,,,,,,,,,,,,,,,,,,,,,,,,,,,,,,,,,,001,19,2020_Jan_28_1522,spring_faces,3.1.5,60.01050147803453,
condition files/Stage2_2.xlsx,,B5,T5,s,"['s', 'r']","['Stratego', 'Risk']","[-0.15, 0.5]","[0.15, 0.5]",1,1,,,,,,,,,,,,,,,,,0,1,1,1,0,0,0,0,,,,,,,,,,,,,,,,,,,,,,,,,,,,,,,,,,,,,,,,,,,,,,,1036.6378197779995,None,1036.6378197779995,None,1036.6378197779995,None,s,1,1.3093406230000255,1038.173209053999,None,1038.173209053999,None,1038.173209053999,None,1039.5404614549989,None,1039.5404614549989,None,1039.5404614549989,None,1039.5404614549989,None,,,,,,,,,,,,,,,,,,,,,,,,,,,,,,,,,,,,,,,,,,,,001,19,2020_Jan_28_1522,spring_faces,3.1.5,60.01050147803453,
condition files/Stage2_2.xlsx,,T2,B2,r,"['s', 'r']","['Stratego', 'Risk']","[-0.15, 0.5]","[0.15, 0.5]",1,1,,,,,,,,,,,,,,,,,0,1,1,1,0,1,1,3,,,,,,,,,,,,,,,,,,,,,,,,,,,,,,,,,,,,,,,,,,,,,,,1041.504817025001,None,1041.504817025001,None,1041.504817025001,None,s,0,1.020502799001406,1043.0380331730012,None,1043.0380331730012,None,1043.0380331730012,None,1044.124451497999,None,1044.124451497999,None,1044.124451497999,None,1044.124451497999,None,,,,,,,,,,,,,,,,,,,,,,,,,,,,,,,,,,,,,,,,,,,,001,19,2020_Jan_28_1522,spring_faces,3.1.5,60.01050147803453,
condition files/Stage2_2.xlsx,,T6,B6,r,"['s', 'r']","['Stratego', 'Risk']","[-0.15, 0.5]","[0.15, 0.5]",1,1,,,,,,,,,,,,,,,,,0,1,1,1,0,2,2,1,,,,,,,,,,,,,,,,,,,,,,,,,,,,,,,,,,,,,,,,,,,,,,,1046.088178777998,None,1046.088178777998,None,1046.088178777998,None,r,1,1.2691912390000653,1047.6213199129998,None,1047.6213199129998,None,1047.6213199129998,None,1048.9550167419984,None,1048.9550167419984,None,1048.9550167419984,None,1048.9550167419984,None,,,,,,,,,,,,,,,,,,,,,,,,,,,,,,,,,,,,,,,,,,,,001,19,2020_Jan_28_1522,spring_faces,3.1.5,60.01050147803453,
condition files/Stage2_2.xlsx,,B1,T1,s,"['s', 'r']","['Stratego', 'Risk']","[-0.15, 0.5]","[0.15, 0.5]",1,1,,,,,,,,,,,,,,,,,0,1,1,1,0,3,3,2,,,,,,,,,,,,,,,,,,,,,,,,,,,,,,,,,,,,,,,,,,,,,,,1050.9215057889996,None,1050.9215057889996,None,1050.9215057889996,None,s,1,0.9955012009995698,1052.4550283930002,None,1052.4550283930002,None,1052.4550283930002,None,1053.504574292001,None,1053.504574292001,None,1053.504574292001,None,1053.504574292001,None,,,,,,,,,,,,,,,,,,,,,,,,,,,,,,,,,,,,,,,,,,,,001,19,2020_Jan_28_1522,spring_faces,3.1.5,60.01050147803453,
condition files/Stage2_2.xlsx,,T4,B4,r,"['s', 'r']","['Stratego', 'Risk']","[-0.15, 0.5]","[0.15, 0.5]",1,1,,,,,,,,,,,,,,,,,0,1,1,1,0,4,4,5,,,,,,,,,,,,,,,,,,,,,,,,,,,,,,,,,,,,,,,,,,,,,,,1055.4716758620016,None,1055.4716758620016,None,1055.4716758620016,None,r,1,1.3410622480005259,1057.0055385900014,None,1057.0055385900014,None,1057.0055385900014,None,1058.4044806130005,None,1058.4044806130005,None,1058.4044806130005,None,1058.4044806130005,None,,,,,,,,,,,,,,,,,,,,,,,,,,,,,,,,,,,,,,,,,,,,001,19,2020_Jan_28_1522,spring_faces,3.1.5,60.01050147803453,
condition files/Stage2_2.xlsx,,B3,T3,s,"['s', 'r']","['Stratego', 'Risk']","[-0.15, 0.5]","[0.15, 0.5]",1,1,,,,,,,,,,,,,,,,,0,1,1,1,0,5,5,4,,,,,,,,,,,,,,,,,,,,,,,,,,,,,,,,,,,,,,,,,,,,,,,1060.371457063,None,1060.371457063,None,1060.371457063,None,r,0,1.4330863079994742,1061.9054216490003,None,1061.9054216490003,None,1061.9054216490003,None,1063.4049917019984,None,1063.4049917019984,None,1063.4049917019984,None,1063.4049917019984,None,,,,,,,,,,,,,,,,,,,,,,,,,,,,,,,,,,,,,,,,,,,,001,19,2020_Jan_28_1522,spring_faces,3.1.5,60.01050147803453,
condition files/Stage2_1.xlsx,,B2,T2,r,"['s', 'r']","['Stratego', 'Risk']","[-0.15, 0.5]","[0.15, 0.5]",1,1,,,,,,,,,,,,,,,,,0,2,2,2,0,0,0,3,,,,,,,,,,,,,,,,,,,,,,,,,,,,,,,,,,,,,,,,,,,,,,,1065.3717459889995,None,1065.3717459889995,None,1065.3717459889995,None,s,0,1.1535504940002284,1066.9049961240016,None,1066.9049961240016,None,1066.9049961240016,None,1068.137927486001,None,1068.137927486001,None,1068.137927486001,None,1068.137927486001,None,,,,,,,,,,,,,,,,,,,,,,,,,,,,,,,,,,,,,,,,,,,,001,19,2020_Jan_28_1522,spring_faces,3.1.5,60.01050147803453,
condition files/Stage2_1.xlsx,,B6,T6,r,"['s', 'r']","['Stratego', 'Risk']","[-0.15, 0.5]","[0.15, 0.5]",1,1,,,,,,,,,,,,,,,,,0,2,2,2,0,1,1,1,,,,,,,,,,,,,,,,,,,,,,,,,,,,,,,,,,,,,,,,,,,,,,,1070.0881680079983,None,1070.0881680079983,None,1070.0881680079983,None,r,1,1.1551933359987743,1071.6234041470016,None,1071.6234041470016,None,1071.6234041470016,None,1072.8378328,None,1072.8378328,None,1072.8378328,None,1072.8378328,None,,,,,,,,,,,,,,,,,,,,,,,,,,,,,,,,,,,,,,,,,,,,001,19,2020_Jan_28_1522,spring_faces,3.1.5,60.01050147803453,
condition files/Stage2_1.xlsx,,T3,B3,s,"['s', 'r']","['Stratego', 'Risk']","[-0.15, 0.5]","[0.15, 0.5]",1,1,,,,,,,,,,,,,,,,,0,2,2,2,0,2,2,4,,,,,,,,,,,,,,,,,,,,,,,,,,,,,,,,,,,,,,,,,,,,,,,1074.8048587259982,None,1074.8048587259982,None,1074.8048587259982,None,s,1,1.4482277630013414,1076.3382977949987,None,1076.3382977949987,None,1076.3382977949987,None,1077.8402663939996,None,1077.8402663939996,None,1077.8402663939996,None,1077.8402663939996,None,,,,,,,,,,,,,,,,,,,,,,,,,,,,,,,,,,,,,,,,,,,,001,19,2020_Jan_28_1522,spring_faces,3.1.5,60.01050147803453,
condition files/Stage2_1.xlsx,,B4,T4,r,"['s', 'r']","['Stratego', 'Risk']","[-0.15, 0.5]","[0.15, 0.5]",1,1,,,,,,,,,,,,,,,,,0,2,2,2,0,3,3,5,,,,,,,,,,,,,,,,,,,,,,,,,,,,,,,,,,,,,,,,,,,,,,,1079.8050099249995,None,1079.8050099249995,None,1079.8050099249995,None,r,1,0.5607049339996593,1081.337892571999,None,1081.337892571999,None,1081.337892571999,None,1081.9713691190009,None,1081.9713691190009,None,1081.9713691190009,None,1081.9713691190009,None,,,,,,,,,,,,,,,,,,,,,,,,,,,,,,,,,,,,,,,,,,,,001,19,2020_Jan_28_1522,spring_faces,3.1.5,60.01050147803453,
condition files/Stage2_1.xlsx,,T5,B5,s,"['s', 'r']","['Stratego', 'Risk']","[-0.15, 0.5]","[0.15, 0.5]",1,1,,,,,,,,,,,,,,,,,0,2,2,2,0,4,4,0,,,,,,,,,,,,,,,,,,,,,,,,,,,,,,,,,,,,,,,,,,,,,,,1083.9216209590013,None,1083.9216209590013,None,1083.9216209590013,None,s,1,1.5934401880003861,1085.4570709340005,None,1085.4570709340005,None,1085.4570709340005,None,1087.1215317530005,None,1087.1215317530005,None,1087.1215317530005,None,1087.1215317530005,None,,,,,,,,,,,,,,,,,,,,,,,,,,,,,,,,,,,,,,,,,,,,001,19,2020_Jan_28_1522,spring_faces,3.1.5,60.01050147803453,
condition files/Stage2_1.xlsx,,T1,B1,s,"['s', 'r']","['Stratego', 'Risk']","[-0.15, 0.5]","[0.15, 0.5]",1,1,,,,,,,,,,,,,,,,,0,2,2,2,0,5,5,2,,,,,,,,,,,,,,,,,,,,,,,,,,,,,,,,,,,,,,,,,,,,,,,1089.0712987109982,None,1089.0712987109982,None,1089.0712987109982,None,s,1,0.8457298520006589,1090.604752602001,None,1090.604752602001,None,1090.604752602001,None,1091.5050035610002,None,1091.5050035610002,None,1091.5050035610002,None,1091.5050035610002,None,,,,,,,,,,,,,,,,,,,,,,,,,,,,,,,,,,,,,,,,,,,,001,19,2020_Jan_28_1522,spring_faces,3.1.5,60.01050147803453,
condition files/Stage2_2.xlsx,,B1,T1,s,"['s', 'r']","['Stratego', 'Risk']","[-0.15, 0.5]","[0.15, 0.5]",1,1,,,,,,,,,,,,,,,,,0,3,3,3,0,0,0,2,,,,,,,,,,,,,,,,,,,,,,,,,,,,,,,,,,,,,,,,,,,,,,,1093.4886667190003,None,1093.4886667190003,None,1093.4886667190003,None,s,1,0.6532193579987506,1095.0213081229995,None,1095.0213081229995,None,1095.0213081229995,None,1095.7386246829992,None,1095.7386246829992,None,1095.7386246829992,None,1095.7386246829992,None,,,,,,,,,,,,,,,,,,,,,,,,,,,,,,,,,,,,,,,,,,,,001,19,2020_Jan_28_1522,spring_faces,3.1.5,60.01050147803453,
condition files/Stage2_2.xlsx,,T6,B6,r,"['s', 'r']","['Stratego', 'Risk']","[-0.15, 0.5]","[0.15, 0.5]",1,1,,,,,,,,,,,,,,,,,0,3,3,3,0,1,1,1,,,,,,,,,,,,,,,,,,,,,,,,,,,,,,,,,,,,,,,,,,,,,,,1097.704743626,None,1097.704743626,None,1097.704743626,None,r,1,0.7719068750011502,1099.238610515,None,1099.238610515,None,1099.238610515,None,1100.07421101,None,1100.07421101,None,1100.07421101,None,1100.07421101,None,,,,,,,,,,,,,,,,,,,,,,,,,,,,,,,,,,,,,,,,,,,,001,19,2020_Jan_28_1522,spring_faces,3.1.5,60.01050147803453,
condition files/Stage2_2.xlsx,,T2,B2,r,"['s', 'r']","['Stratego', 'Risk']","[-0.15, 0.5]","[0.15, 0.5]",1,1,,,,,,,,,,,,,,,,,0,3,3,3,0,2,2,3,,,,,,,,,,,,,,,,,,,,,,,,,,,,,,,,,,,,,,,,,,,,,,,1102.0380343319994,None,1102.0380343319994,None,1102.0380343319994,None,s,0,1.0149488989991369,1103.5715758689985,None,1103.5715758689985,None,1103.5715758689985,None,1104.6382340259988,None,1104.6382340259988,None,1104.6382340259988,None,1104.6382340259988,None,,,,,,,,,,,,,,,,,,,,,,,,,,,,,,,,,,,,,,,,,,,,001,19,2020_Jan_28_1522,spring_faces,3.1.5,60.01050147803453,
condition files/Stage2_2.xlsx,,B3,T3,s,"['s', 'r']","['Stratego', 'Risk']","[-0.15, 0.5]","[0.15, 0.5]",1,1,,,,,,,,,,,,,,,,,0,3,3,3,0,3,3,4,,,,,,,,,,,,,,,,,,,,,,,,,,,,,,,,,,,,,,,,,,,,,,,1106.6044861129994,None,1106.6044861129994,None,1106.6044861129994,None,s,1,0.9590747769980226,1108.1554424909991,None,1108.1554424909991,None,1108.1554424909991,None,1109.1741407750014,None,1109.1741407750014,None,1109.1741407750014,None,1109.1741407750014,None,,,,,,,,,,,,,,,,,,,,,,,,,,,,,,,,,,,,,,,,,,,,001,19,2020_Jan_28_1522,spring_faces,3.1.5,60.01050147803453,
condition files/Stage2_2.xlsx,,B5,T5,s,"['s', 'r']","['Stratego', 'Risk']","[-0.15, 0.5]","[0.15, 0.5]",1,1,,,,,,,,,,,,,,,,,0,3,3,3,0,4,4,0,,,,,,,,,,,,,,,,,,,,,,,,,,,,,,,,,,,,,,,,,,,,,,,1111.1382756230014,None,1111.1382756230014,None,1111.1382756230014,None,r,0,0.7451557379972655,1112.6733203479998,None,1112.6733203479998,None,1112.6733203479998,None,1113.4718145490006,None,1113.4718145490006,None,1113.4718145490006,None,1113.4718145490006,None,,,,,,,,,,,,,,,,,,,,,,,,,,,,,,,,,,,,,,,,,,,,001,19,2020_Jan_28_1522,spring_faces,3.1.5,60.01050147803453,
condition files/Stage2_2.xlsx,,T4,B4,r,"['s', 'r']","['Stratego', 'Risk']","[-0.15, 0.5]","[0.15, 0.5]",1,1,,,,,,,,,,,,,,,,,0,3,3,3,0,5,5,5,,,,,,,,,,,,,,,,,,,,,,,,,,,,,,,,,,,,,,,,,,,,,,,1115.4381640380016,None,1115.4381640380016,None,1115.4381640380016,None,r,1,0.5268395049970422,1116.9717721790003,None,1116.9717721790003,None,1116.9717721790003,None,1117.5565929490003,None,1117.5565929490003,None,1117.5565929490003,None,1117.5565929490003,None,,,,,,,,,,,,,,,,,,,,,,,,,,,,,,,,,,,,,,,,,,,,001,19,2020_Jan_28_1522,spring_faces,3.1.5,60.01050147803453,
condition files/Stage2_1.xlsx,,B2,T2,r,"['s', 'r']","['Stratego', 'Risk']","[-0.15, 0.5]","[0.15, 0.5]",1,1,,,,,,,,,,,,,,,,,0,4,4,4,0,0,0,3,,,,,,,,,,,,,,,,,,,,,,,,,,,,,,,,,,,,,,,,,,,,,,,1119.5379177059986,None,1119.5379177059986,None,1119.5379177059986,None,r,1,1.0665788160004013,1121.0719185950002,None,1121.0719185950002,None,1121.0719185950002,None,1122.1877015969985,None,1122.1877015969985,None,1122.1877015969985,None,1122.1877015969985,None,,,,,,,,,,,,,,,,,,,,,,,,,,,,,,,,,,,,,,,,,,,,001,19,2020_Jan_28_1522,spring_faces,3.1.5,60.01050147803453,
condition files/Stage2_1.xlsx,,B6,T6,r,"['s', 'r']","['Stratego', 'Risk']","[-0.15, 0.5]","[0.15, 0.5]",1,1,,,,,,,,,,,,,,,,,0,4,4,4,0,1,1,1,,,,,,,,,,,,,,,,,,,,,,,,,,,,,,,,,,,,,,,,,,,,,,,1124.1545999869995,None,1124.1545999869995,None,1124.1545999869995,None,r,1,0.8505862339989108,1125.687947426999,None,1125.687947426999,None,1125.687947426999,None,1126.5886331969996,None,1126.5886331969996,None,1126.5886331969996,None,1126.5886331969996,None,,,,,,,,,,,,,,,,,,,,,,,,,,,,,,,,,,,,,,,,,,,,001,19,2020_Jan_28_1522,spring_faces,3.1.5,60.01050147803453,
condition files/Stage2_1.xlsx,,T5,B5,s,"['s', 'r']","['Stratego', 'Risk']","[-0.15, 0.5]","[0.15, 0.5]",1,1,,,,,,,,,,,,,,,,,0,4,4,4,0,2,2,0,,,,,,,,,,,,,,,,,,,,,,,,,,,,,,,,,,,,,,,,,,,,,,,1128.5549145939985,None,1128.5549145939985,None,1128.5549145939985,None,s,1,0.7838608099991689,1130.0906789649998,None,1130.0906789649998,None,1130.0906789649998,None,1130.9544883630006,None,1130.9544883630006,None,1130.9544883630006,None,1130.9544883630006,None,,,,,,,,,,,,,,,,,,,,,,,,,,,,,,,,,,,,,,,,,,,,001,19,2020_Jan_28_1522,spring_faces,3.1.5,60.01050147803453,
condition files/Stage2_1.xlsx,,B4,T4,r,"['s', 'r']","['Stratego', 'Risk']","[-0.15, 0.5]","[0.15, 0.5]",1,1,,,,,,,,,,,,,,,,,0,4,4,4,0,3,3,5,,,,,,,,,,,,,,,,,,,,,,,,,,,,,,,,,,,,,,,,,,,,,,,1132.9047187020005,None,1132.9047187020005,None,1132.9047187020005,None,r,1,0.5797699269969598,1134.4387560100004,None,1134.4387560100004,None,1134.4387560100004,None,1135.0729560170003,None,1135.0729560170003,None,1135.0729560170003,None,1135.0729560170003,None,,,,,,,,,,,,,,,,,,,,,,,,,,,,,,,,,,,,,,,,,,,,001,19,2020_Jan_28_1522,spring_faces,3.1.5,60.01050147803453,
