condsFile,subStage,cue1,cue2,correct,responseKeys,responseNames,cue1Position,cue2Position,cue1Opacity,cue2Opacity,stageLoop0.thisRepN,stageLoop0.thisTrialN,stageLoop0.thisN,stageLoop0.thisIndex,blockLoop0.thisRepN,blockLoop0.thisTrialN,blockLoop0.thisN,blockLoop0.thisIndex,stage1Loop.thisRepN,stage1Loop.thisTrialN,stage1Loop.thisN,stage1Loop.thisIndex,blockLoop1.thisRepN,blockLoop1.thisTrialN,blockLoop1.thisN,blockLoop1.thisIndex,stage2Loop.thisRepN,stage2Loop.thisTrialN,stage2Loop.thisN,stage2Loop.thisIndex,blockLoop2.thisRepN,blockLoop2.thisTrialN,blockLoop2.thisN,blockLoop2.thisIndex,testLoop.thisRepN,testLoop.thisTrialN,testLoop.thisN,testLoop.thisIndex,blockLoopTest.thisRepN,blockLoopTest.thisTrialN,blockLoopTest.thisN,blockLoopTest.thisIndex,cuePics,id_instr_text.started,id_instr_text.stopped,space_to_continue_2.started,space_to_continue_2.stopped,end_instructions_resp_3.keys,end_instructions_resp_3.rt,end_instructions_resp_3.started,end_instructions_resp_3.stopped,id_input_instr.started,id_input_instr.stopped,id_input_rect.started,id_input_rect.stopped,id_input_resp.keys,id_input_resp.rt,id_input_resp.started,id_input_resp.stopped,sonaID,id_input_text.started,id_input_text.stopped,final_text.started,final_text.stopped,instructions.started,instructions.stopped,end_instructions_resp.keys,end_instructions_resp.rt,end_instructions_resp.started,end_instructions_resp.stopped,space_to_continue.started,space_to_continue.stopped,instructions_stage0.started,instructions_stage0.stopped,end_instructions_resp_stage0.keys,end_instructions_resp_stage0.rt,end_instructions_resp_stage0.started,end_instructions_resp_stage0.stopped,space_to_continue_stage0.started,space_to_continue_stage0.stopped,text.started,text.stopped,resp_text1.started,resp_text1.stopped,resp_text2.started,resp_text2.stopped,trial_resp.keys,trial_resp.corr,trial_resp.rt,trial_resp.started,trial_resp.stopped,cue1Image.started,cue1Image.stopped,cue2Image.started,cue2Image.stopped,cue1Image_fb.started,cue1Image_fb.stopped,cue2Image_fb.started,cue2Image_fb.stopped,fb_text_answer.started,fb_text_answer.stopped,feedback_image.started,feedback_image.stopped,instructions_stage1.started,instructions_stage1.stopped,end_instructions_resp_stage1.keys,end_instructions_resp_stage1.rt,end_instructions_resp_stage1.started,end_instructions_resp_stage1.stopped,space_to_continue_stage1.started,space_to_continue_stage1.stopped,instructions_2.started,instructions_2.stopped,end_instructions_resp_2.keys,end_instructions_resp_2.rt,end_instructions_resp_2.started,end_instructions_resp_2.stopped,press_space_to_continue_stage2.started,press_space_to_continue_stage2.stopped,instructions_testStage1.started,instructions_testStage1.stopped,end_instructions_resp_test1.keys,end_instructions_resp_test1.rt,end_instructions_resp_test1.started,end_instructions_resp_test1.stopped,press_space_to_continue_test1.started,press_space_to_continue_test1.stopped,cue1Image_testChoice.started,cue1Image_testChoice.stopped,cue2Image_testChoice.started,cue2Image_testChoice.stopped,test_resp.keys,test_resp.corr,test_resp.rt,test_resp.started,test_resp.stopped,cue1Image_testConf.started,cue1Image_testConf.stopped,cue2Image_testConf.started,cue2Image_testConf.stopped,conf_reminder.started,conf_reminder.stopped,conf_rating.response,conf_rating.rt,conf_rating.started,conf_rating.stopped,session,participant,date,expName,psychopyVersion,frameRate,
,,,,,,,,,,,,,,,,,,,,,,,,,,,,,,,,,,,,,,,,,,,"{'none': 'pictures/20M_AN_C.png', 'alpha': 'pictures/SHINEd_apple.png', 'beta': 'pictures/SHINEd_pepper.png', 'theta': 'pictures/SHINEd_pear.png', 'phi': 'pictures/SHINEd_melon.png', 'T1': 'pictures/31M_AN_C.png', 'T2': 'pictures/25M_AN_C.png', 'T3': 'pictures/37M_AN_C.png', 'T4': 'pictures/36M_AN_C.png', 'T5': 'pictures/34M_AN_C.png', 'T6': 'pictures/22M_AN_C.png', 'B1': 'pictures/32M_NE_C.png', 'B2': 'pictures/26M_NE_C.png', 'B3': 'pictures/38M_NE_C.png', 'B4': 'pictures/33M_NE_C.png', 'B5': 'pictures/23M_NE_C.png', 'B6': 'pictures/20M_NE_C.png'}",814.9685111900001,None,819.9520249899999,None,space,25.105735151999852,819.9520249899999,None,,,,,,,,,,,,,,,,,,,,,,,,,,,,,,,,,,,,,,,,,,,,,,,,,,,,,,,,,,,,,,,,,,,,,,,,,,,,,,,,,,,,,,,,,,,,,,,,001,1,2020_Jan_28_0858,spring_faces,3.1.5,59.91159660478723,
,,,,,,,,,,,,,,,,,,,,,,,,,,,,,,,,,,,,,,,,,,,,,,,,,,,,845.7189837929998,None,845.7189837929998,None,"['0', '2', '0', '8', 'j', 'a', 'c', 'e', 'n']","[22.314750354999887, 23.498765608999747, 31.37075152899979, 31.834692603999883, 36.93876030499996, 37.17870310299986, 40.95476660999975, 41.354772309000055, 41.62681148699994]",845.7189837929998,None,,,,,,,,,,,,,,,,,,,,,,,,,,,,,,,,,,,,,,,,,,,,,,,,,,,,,,,,,,,,,,,,,,,,,,,,,,,,,,,,,,,,,,,,001,1,2020_Jan_28_0858,spring_faces,3.1.5,59.91159660478723,
,,,,,,,,,,,,,,,,,,,,,,,,,,,,,,,,,,,,,,,,,,,,,,,,,,,,,,,,,,,,0208jacen,845.7189837929998,None,845.7189837929998,None,892.4189138529998,None,space,7.879538578999927,897.4182198820001,None,,,,,,,,,,,,,,,,,,,,,,,,,,,,,,,,,,,,,,,,,,,,,,,,,,,,,,,,,,,,,,,,,,,,,,,,,,,,,001,1,2020_Jan_28_0858,spring_faces,3.1.5,59.91159660478723,
,,,,,,,,,,,,,,,,,,,,,,,,,,,,,,,,,,,,,,,,,,,,,,,,,,,,,,,,,,,,,,,,,,,,,,,897.4182198820001,None,905.3359427110001,None,space,9.058253465999769,910.3355692490002,None,,,,,,,,,,,,,,,,,,,,,,,,,,,,,,,,,,,,,,,,,,,,,,,,,,,,,,,,,,,,,,,,,,,,,001,1,2020_Jan_28_0858,spring_faces,3.1.5,59.91159660478723,
condition files/Stage0a.xlsx,0a,alpha,none,h,"['h', 'g']","['Chess', 'Go']","[0, 0.5]","[0, 0]",1,0,0,0,0,0,0,0,0,0,,,,,,,,,,,,,,,,,,,,,,,,,,,,,,,,,,,,,,,,,,,,,,,,,,,,,,,,,,,,,910.3355692490002,None,919.584999083,None,919.584999083,None,919.584999083,None,g,0,4.3061140929999056,921.1516510150002,None,921.1516510150002,None,921.1516510150002,None,925.5358646410002,None,925.5358646410002,None,925.5358646410002,None,925.5358646410002,None,,,,,,,,,,,,,,,,,,,,,,,,,,,,,,,,,,,,,,,,,,,,001,1,2020_Jan_28_0858,spring_faces,3.1.5,59.91159660478723,
condition files/Stage0a.xlsx,0a,beta,none,g,"['h', 'g']","['Chess', 'Go']","[0, 0.5]","[0, 0]",1,0,0,0,0,0,0,1,1,1,,,,,,,,,,,,,,,,,,,,,,,,,,,,,,,,,,,,,,,,,,,,,,,,,,,,,,,,,,,,,,,927.4852670779999,None,927.4852670779999,None,927.4852670779999,None,h,0,5.156882483000118,929.06889647,None,929.06889647,None,929.06889647,None,934.2858965610001,None,934.2858965610001,None,934.2858965610001,None,934.2858965610001,None,,,,,,,,,,,,,,,,,,,,,,,,,,,,,,,,,,,,,,,,,,,,001,1,2020_Jan_28_0858,spring_faces,3.1.5,59.91159660478723,
condition files/Stage0a.xlsx,0a,beta,none,g,"['h', 'g']","['Chess', 'Go']","[0, 0.5]","[0, 0]",1,0,0,1,1,1,0,0,0,1,,,,,,,,,,,,,,,,,,,,,,,,,,,,,,,,,,,,,,,,,,,,,,,,,,,,,,,,,,,,,,,936.268858575,None,936.268858575,None,936.268858575,None,g,1,3.0634721239998726,937.8022811429998,None,937.8022811429998,None,937.8022811429998,None,940.9516963600001,None,940.9516963600001,None,940.9516963600001,None,940.9516963600001,None,,,,,,,,,,,,,,,,,,,,,,,,,,,,,,,,,,,,,,,,,,,,001,1,2020_Jan_28_0858,spring_faces,3.1.5,59.91159660478723,
condition files/Stage0a.xlsx,0a,alpha,none,h,"['h', 'g']","['Chess', 'Go']","[0, 0.5]","[0, 0]",1,0,0,1,1,1,0,1,1,0,,,,,,,,,,,,,,,,,,,,,,,,,,,,,,,,,,,,,,,,,,,,,,,,,,,,,,,,,,,,,,,942.8853320750002,None,942.8853320750002,None,942.8853320750002,None,h,1,2.4790453449995766,944.4186449289998,None,944.4186449289998,None,944.4186449289998,None,946.9521873770002,None,946.9521873770002,None,946.9521873770002,None,946.9521873770002,None,,,,,,,,,,,,,,,,,,,,,,,,,,,,,,,,,,,,,,,,,,,,001,1,2020_Jan_28_0858,spring_faces,3.1.5,59.91159660478723,
condition files/Stage0a.xlsx,0a,beta,none,g,"['h', 'g']","['Chess', 'Go']","[0, 0.5]","[0, 0]",1,0,0,2,2,2,0,0,0,1,,,,,,,,,,,,,,,,,,,,,,,,,,,,,,,,,,,,,,,,,,,,,,,,,,,,,,,,,,,,,,,948.935934032,None,948.935934032,None,948.935934032,None,g,1,2.5083593110002766,950.4694590699999,None,950.4694590699999,None,950.4694590699999,None,953.035545945,None,953.035545945,None,953.035545945,None,953.035545945,None,,,,,,,,,,,,,,,,,,,,,,,,,,,,,,,,,,,,,,,,,,,,001,1,2020_Jan_28_0858,spring_faces,3.1.5,59.91159660478723,
condition files/Stage0a.xlsx,0a,alpha,none,h,"['h', 'g']","['Chess', 'Go']","[0, 0.5]","[0, 0]",1,0,0,2,2,2,0,1,1,0,,,,,,,,,,,,,,,,,,,,,,,,,,,,,,,,,,,,,,,,,,,,,,,,,,,,,,,,,,,,,,,955.0013925219998,None,955.0013925219998,None,955.0013925219998,None,h,1,1.0981076810003287,956.5356270139998,None,956.5356270139998,None,956.5356270139998,None,957.6853139289999,None,957.6853139289999,None,957.6853139289999,None,957.6853139289999,None,,,,,,,,,,,,,,,,,,,,,,,,,,,,,,,,,,,,,,,,,,,,001,1,2020_Jan_28_0858,spring_faces,3.1.5,59.91159660478723,
condition files/Stage0a.xlsx,0a,beta,none,g,"['h', 'g']","['Chess', 'Go']","[0, 0.5]","[0, 0]",1,0,0,3,3,3,0,0,0,1,,,,,,,,,,,,,,,,,,,,,,,,,,,,,,,,,,,,,,,,,,,,,,,,,,,,,,,,,,,,,,,959.6689685240001,None,959.6689685240001,None,959.6689685240001,None,g,1,4.479852839999694,961.2018973719998,None,961.2018973719998,None,961.2018973719998,None,965.7353691720002,None,965.7353691720002,None,965.7353691720002,None,965.7353691720002,None,,,,,,,,,,,,,,,,,,,,,,,,,,,,,,,,,,,,,,,,,,,,001,1,2020_Jan_28_0858,spring_faces,3.1.5,59.91159660478723,
condition files/Stage0a.xlsx,0a,alpha,none,h,"['h', 'g']","['Chess', 'Go']","[0, 0.5]","[0, 0]",1,0,0,3,3,3,0,1,1,0,,,,,,,,,,,,,,,,,,,,,,,,,,,,,,,,,,,,,,,,,,,,,,,,,,,,,,,,,,,,,,,967.701918001,None,967.701918001,None,967.701918001,None,h,1,1.1982168829999864,969.235530363,None,969.235530363,None,969.235530363,None,970.4848739269999,None,970.4848739269999,None,970.4848739269999,None,970.4848739269999,None,,,,,,,,,,,,,,,,,,,,,,,,,,,,,,,,,,,,,,,,,,,,001,1,2020_Jan_28_0858,spring_faces,3.1.5,59.91159660478723,
condition files/Stage0a.xlsx,0a,alpha,none,h,"['h', 'g']","['Chess', 'Go']","[0, 0.5]","[0, 0]",1,0,0,4,4,4,0,0,0,0,,,,,,,,,,,,,,,,,,,,,,,,,,,,,,,,,,,,,,,,,,,,,,,,,,,,,,,,,,,,,,,972.469033005,None,972.469033005,None,972.469033005,None,h,1,2.7035704670001905,974.002199329,None,974.002199329,None,974.002199329,None,976.7688741300001,None,976.7688741300001,None,976.7688741300001,None,976.7688741300001,None,,,,,,,,,,,,,,,,,,,,,,,,,,,,,,,,,,,,,,,,,,,,001,1,2020_Jan_28_0858,spring_faces,3.1.5,59.91159660478723,
condition files/Stage0a.xlsx,0a,beta,none,g,"['h', 'g']","['Chess', 'Go']","[0, 0.5]","[0, 0]",1,0,0,4,4,4,0,1,1,1,,,,,,,,,,,,,,,,,,,,,,,,,,,,,,,,,,,,,,,,,,,,,,,,,,,,,,,,,,,,,,,978.7353143540001,None,978.7353143540001,None,978.7353143540001,None,g,1,1.3010179640000388,980.2686982080002,None,980.2686982080002,None,980.2686982080002,None,981.6351151249999,None,981.6351151249999,None,981.6351151249999,None,981.6351151249999,None,,,,,,,,,,,,,,,,,,,,,,,,,,,,,,,,,,,,,,,,,,,,001,1,2020_Jan_28_0858,spring_faces,3.1.5,59.91159660478723,
condition files/Stage0a.xlsx,0a,alpha,none,h,"['h', 'g']","['Chess', 'Go']","[0, 0.5]","[0, 0]",1,0,0,5,5,5,0,0,0,0,,,,,,,,,,,,,,,,,,,,,,,,,,,,,,,,,,,,,,,,,,,,,,,,,,,,,,,,,,,,,,,983.6186676210002,None,983.6186676210002,None,983.6186676210002,None,h,1,3.553626011000233,985.152075065,None,985.152075065,None,985.152075065,None,988.7684537080002,None,988.7684537080002,None,988.7684537080002,None,988.7684537080002,None,,,,,,,,,,,,,,,,,,,,,,,,,,,,,,,,,,,,,,,,,,,,001,1,2020_Jan_28_0858,spring_faces,3.1.5,59.91159660478723,
condition files/Stage0a.xlsx,0a,beta,none,g,"['h', 'g']","['Chess', 'Go']","[0, 0.5]","[0, 0]",1,0,0,5,5,5,0,1,1,1,,,,,,,,,,,,,,,,,,,,,,,,,,,,,,,,,,,,,,,,,,,,,,,,,,,,,,,,,,,,,,,990.735049436,None,990.735049436,None,990.735049436,None,g,1,2.356622483999672,992.2691713360002,None,992.2691713360002,None,992.2691713360002,None,994.6849188590002,None,994.6849188590002,None,994.6849188590002,None,994.6849188590002,None,,,,,,,,,,,,,,,,,,,,,,,,,,,,,,,,,,,,,,,,,,,,001,1,2020_Jan_28_0858,spring_faces,3.1.5,59.91159660478723,
condition files/Stage0b_1.xlsx,0b,alpha,none,h,"['h', 'g']","['Chess', 'Go']","[-0.15, 0.5]","[0.15, 0.5]",1,0,0,6,6,6,0,0,0,0,,,,,,,,,,,,,,,,,,,,,,,,,,,,,,,,,,,,,,,,,,,,,,,,,,,,,,,,,,,,,,,996.7190612289999,None,996.7190612289999,None,996.7190612289999,None,h,1,2.007747773999654,998.2020504159998,None,998.2020504159998,None,998.2020504159998,None,1000.2682719470001,None,1000.2682719470001,None,1000.2682719470001,None,1000.2682719470001,None,,,,,,,,,,,,,,,,,,,,,,,,,,,,,,,,,,,,,,,,,,,,001,1,2020_Jan_28_0858,spring_faces,3.1.5,59.91159660478723,
condition files/Stage0b_1.xlsx,0b,none,beta,g,"['h', 'g']","['Chess', 'Go']","[-0.15, 0.5]","[0.15, 0.5]",0,1,0,6,6,6,0,1,1,1,,,,,,,,,,,,,,,,,,,,,,,,,,,,,,,,,,,,,,,,,,,,,,,,,,,,,,,,,,,,,,,1002.2350763870002,None,1002.2350763870002,None,1002.2350763870002,None,g,1,1.9722195869999268,1003.7735642730001,None,1003.7735642730001,None,1003.7735642730001,None,1005.8066400290002,None,1005.8066400290002,None,1005.8066400290002,None,1005.8066400290002,None,,,,,,,,,,,,,,,,,,,,,,,,,,,,,,,,,,,,,,,,,,,,001,1,2020_Jan_28_0858,spring_faces,3.1.5,59.91159660478723,
condition files/Stage0b_2.xlsx,0b,beta,none,g,"['h', 'g']","['Chess', 'Go']","[-0.15, 0.5]","[0.15, 0.5]",1,0,0,7,7,7,0,0,0,1,,,,,,,,,,,,,,,,,,,,,,,,,,,,,,,,,,,,,,,,,,,,,,,,,,,,,,,,,,,,,,,1007.8022179329998,None,1007.8022179329998,None,1007.8022179329998,None,g,1,4.13808287799975,1009.3356830119999,None,1009.3356830119999,None,1009.3356830119999,None,1013.5354874329998,None,1013.5354874329998,None,1013.5354874329998,None,1013.5354874329998,None,,,,,,,,,,,,,,,,,,,,,,,,,,,,,,,,,,,,,,,,,,,,001,1,2020_Jan_28_0858,spring_faces,3.1.5,59.91159660478723,
condition files/Stage0b_2.xlsx,0b,none,alpha,h,"['h', 'g']","['Chess', 'Go']","[-0.15, 0.5]","[0.15, 0.5]",0,1,0,7,7,7,0,1,1,0,,,,,,,,,,,,,,,,,,,,,,,,,,,,,,,,,,,,,,,,,,,,,,,,,,,,,,,,,,,,,,,1015.5022319749999,None,1015.5022319749999,None,1015.5022319749999,None,h,1,0.6458773250001286,1017.0358692369998,None,1017.0358692369998,None,1017.0358692369998,None,1017.7353814249998,None,1017.7353814249998,None,1017.7353814249998,None,1017.7353814249998,None,,,,,,,,,,,,,,,,,,,,,,,,,,,,,,,,,,,,,,,,,,,,001,1,2020_Jan_28_0858,spring_faces,3.1.5,59.91159660478723,
condition files/Stage0b_1.xlsx,0b,alpha,none,h,"['h', 'g']","['Chess', 'Go']","[-0.15, 0.5]","[0.15, 0.5]",1,0,0,8,8,8,0,0,0,0,,,,,,,,,,,,,,,,,,,,,,,,,,,,,,,,,,,,,,,,,,,,,,,,,,,,,,,,,,,,,,,1019.7191465110002,None,1019.7191465110002,None,1019.7191465110002,None,h,1,0.666187906000232,1021.2555862040001,None,1021.2555862040001,None,1021.2555862040001,None,1021.9854536099999,None,1021.9854536099999,None,1021.9854536099999,None,1021.9854536099999,None,,,,,,,,,,,,,,,,,,,,,,,,,,,,,,,,,,,,,,,,,,,,001,1,2020_Jan_28_0858,spring_faces,3.1.5,59.91159660478723,
condition files/Stage0b_1.xlsx,0b,none,beta,g,"['h', 'g']","['Chess', 'Go']","[-0.15, 0.5]","[0.15, 0.5]",0,1,0,8,8,8,0,1,1,1,,,,,,,,,,,,,,,,,,,,,,,,,,,,,,,,,,,,,,,,,,,,,,,,,,,,,,,,,,,,,,,1023.9517479029998,None,1023.9517479029998,None,1023.9517479029998,None,g,1,0.8000584950000302,1025.489673574,None,1025.489673574,None,1025.489673574,None,1026.351976926,None,1026.351976926,None,1026.351976926,None,1026.351976926,None,,,,,,,,,,,,,,,,,,,,,,,,,,,,,,,,,,,,,,,,,,,,001,1,2020_Jan_28_0858,spring_faces,3.1.5,59.91159660478723,
condition files/Stage0b_2.xlsx,0b,none,alpha,h,"['h', 'g']","['Chess', 'Go']","[-0.15, 0.5]","[0.15, 0.5]",0,1,0,9,9,9,0,0,0,0,,,,,,,,,,,,,,,,,,,,,,,,,,,,,,,,,,,,,,,,,,,,,,,,,,,,,,,,,,,,,,,1028.3357700479999,None,1028.3357700479999,None,1028.3357700479999,None,h,1,3.1567480800003977,1029.8690629750001,None,1029.8690629750001,None,1029.8690629750001,None,1033.0852952869998,None,1033.0852952869998,None,1033.0852952869998,None,1033.0852952869998,None,,,,,,,,,,,,,,,,,,,,,,,,,,,,,,,,,,,,,,,,,,,,001,1,2020_Jan_28_0858,spring_faces,3.1.5,59.91159660478723,
condition files/Stage0b_2.xlsx,0b,beta,none,g,"['h', 'g']","['Chess', 'Go']","[-0.15, 0.5]","[0.15, 0.5]",1,0,0,9,9,9,0,1,1,1,,,,,,,,,,,,,,,,,,,,,,,,,,,,,,,,,,,,,,,,,,,,,,,,,,,,,,,,,,,,,,,1035.052093436,None,1035.052093436,None,1035.052093436,None,g,1,0.9978378939999857,1036.587929226,None,1036.587929226,None,1036.587929226,None,1037.639593146,None,1037.639593146,None,1037.639593146,None,1037.639593146,None,,,,,,,,,,,,,,,,,,,,,,,,,,,,,,,,,,,,,,,,,,,,001,1,2020_Jan_28_0858,spring_faces,3.1.5,59.91159660478723,
condition files/Stage0b_1.xlsx,0b,alpha,none,h,"['h', 'g']","['Chess', 'Go']","[-0.15, 0.5]","[0.15, 0.5]",1,0,0,10,10,10,0,0,0,0,,,,,,,,,,,,,,,,,,,,,,,,,,,,,,,,,,,,,,,,,,,,,,,,,,,,,,,,,,,,,,,1039.6189554650002,None,1039.6189554650002,None,1039.6189554650002,None,h,1,0.6255364609996832,1041.152269864,None,1041.152269864,None,1041.152269864,None,1041.8349188559998,None,1041.8349188559998,None,1041.8349188559998,None,1041.8349188559998,None,,,,,,,,,,,,,,,,,,,,,,,,,,,,,,,,,,,,,,,,,,,,001,1,2020_Jan_28_0858,spring_faces,3.1.5,59.91159660478723,
condition files/Stage0b_1.xlsx,0b,none,beta,g,"['h', 'g']","['Chess', 'Go']","[-0.15, 0.5]","[0.15, 0.5]",0,1,0,10,10,10,0,1,1,1,,,,,,,,,,,,,,,,,,,,,,,,,,,,,,,,,,,,,,,,,,,,,,,,,,,,,,,,,,,,,,,1043.802155911,None,1043.802155911,None,1043.802155911,None,g,1,0.5837753550003981,1045.3380097749998,None,1045.3380097749998,None,1045.3380097749998,None,1045.989272959,None,1045.989272959,None,1045.989272959,None,1045.989272959,None,,,,,,,,,,,,,,,,,,,,,,,,,,,,,,,,,,,,,,,,,,,,001,1,2020_Jan_28_0858,spring_faces,3.1.5,59.91159660478723,
condition files/Stage0b_2.xlsx,0b,beta,none,g,"['h', 'g']","['Chess', 'Go']","[-0.15, 0.5]","[0.15, 0.5]",1,0,0,11,11,11,0,0,0,1,,,,,,,,,,,,,,,,,,,,,,,,,,,,,,,,,,,,,,,,,,,,,,,,,,,,,,,,,,,,,,,1047.9687846670001,None,1047.9687846670001,None,1047.9687846670001,None,g,1,0.8802280720001363,1049.5054943900002,None,1049.5054943900002,None,1049.5054943900002,None,1050.4356017920002,None,1050.4356017920002,None,1050.4356017920002,None,1050.4356017920002,None,,,,,,,,,,,,,,,,,,,,,,,,,,,,,,,,,,,,,,,,,,,,001,1,2020_Jan_28_0858,spring_faces,3.1.5,59.91159660478723,
condition files/Stage0b_2.xlsx,0b,none,alpha,h,"['h', 'g']","['Chess', 'Go']","[-0.15, 0.5]","[0.15, 0.5]",0,1,0,11,11,11,0,1,1,0,,,,,,,,,,,,,,,,,,,,,,,,,,,,,,,,,,,,,,,,,,,,,,,,,,,,,,,,,,,,,,,1052.4018782310002,None,1052.4018782310002,None,1052.4018782310002,None,h,1,0.704678425000111,1053.9370891830001,None,1053.9370891830001,None,1053.9370891830001,None,1054.70498715,None,1054.70498715,None,1054.70498715,None,1054.70498715,None,,,,,,,,,,,,,,,,,,,,,,,,,,,,,,,,,,,,,,,,,,,,001,1,2020_Jan_28_0858,spring_faces,3.1.5,59.91159660478723,
condition files/Stage0c_1.xlsx,0c,alpha,phi,h,"['h', 'g']","['Chess', 'Go']","[-0.15, 0.5]","[0.15, 0.5]",1,1,0,12,12,12,0,0,0,1,,,,,,,,,,,,,,,,,,,,,,,,,,,,,,,,,,,,,,,,,,,,,,,,,,,,,,,,,,,,,,,1056.685406292,None,1056.685406292,None,1056.685406292,None,h,1,9.01309638399971,1058.2686517220002,None,1058.2686517220002,None,1058.2686517220002,None,1067.335426418,None,1067.335426418,None,1067.335426418,None,1067.335426418,None,,,,,,,,,,,,,,,,,,,,,,,,,,,,,,,,,,,,,,,,,,,,001,1,2020_Jan_28_0858,spring_faces,3.1.5,59.91159660478723,
condition files/Stage0c_1.xlsx,0c,beta,theta,g,"['h', 'g']","['Chess', 'Go']","[-0.15, 0.5]","[0.15, 0.5]",1,1,0,12,12,12,0,1,1,2,,,,,,,,,,,,,,,,,,,,,,,,,,,,,,,,,,,,,,,,,,,,,,,,,,,,,,,,,,,,,,,1069.3014656009998,None,1069.3014656009998,None,1069.3014656009998,None,g,1,1.4018710889999966,1070.871868892,None,1070.871868892,None,1070.871868892,None,1072.3349968220002,None,1072.3349968220002,None,1072.3349968220002,None,1072.3349968220002,None,,,,,,,,,,,,,,,,,,,,,,,,,,,,,,,,,,,,,,,,,,,,001,1,2020_Jan_28_0858,spring_faces,3.1.5,59.91159660478723,
condition files/Stage0c_1.xlsx,0c,phi,beta,g,"['h', 'g']","['Chess', 'Go']","[-0.15, 0.5]","[0.15, 0.5]",1,1,0,12,12,12,0,2,2,3,,,,,,,,,,,,,,,,,,,,,,,,,,,,,,,,,,,,,,,,,,,,,,,,,,,,,,,,,,,,,,,1074.3020255630001,None,1074.3020255630001,None,1074.3020255630001,None,g,1,8.790484219000064,1075.8352093669998,None,1075.8352093669998,None,1075.8352093669998,None,1084.6857590050001,None,1084.6857590050001,None,1084.6857590050001,None,1084.6857590050001,None,,,,,,,,,,,,,,,,,,,,,,,,,,,,,,,,,,,,,,,,,,,,001,1,2020_Jan_28_0858,spring_faces,3.1.5,59.91159660478723,
condition files/Stage0c_1.xlsx,0c,theta,alpha,h,"['h', 'g']","['Chess', 'Go']","[-0.15, 0.5]","[0.15, 0.5]",1,1,0,12,12,12,0,3,3,0,,,,,,,,,,,,,,,,,,,,,,,,,,,,,,,,,,,,,,,,,,,,,,,,,,,,,,,,,,,,,,,1086.6515110859998,None,1086.6515110859998,None,1086.6515110859998,None,h,1,1.5442053520000627,1088.1855765110001,None,1088.1855765110001,None,1088.1855765110001,None,1089.787158711,None,1089.787158711,None,1089.787158711,None,1089.787158711,None,,,,,,,,,,,,,,,,,,,,,,,,,,,,,,,,,,,,,,,,,,,,001,1,2020_Jan_28_0858,spring_faces,3.1.5,59.91159660478723,
condition files/Stage0c_2.xlsx,0c,theta,beta,g,"['h', 'g']","['Chess', 'Go']","[-0.15, 0.5]","[0.15, 0.5]",1,1,0,13,13,13,0,0,0,2,,,,,,,,,,,,,,,,,,,,,,,,,,,,,,,,,,,,,,,,,,,,,,,,,,,,,,,,,,,,,,,1091.785356746,None,1091.785356746,None,1091.785356746,None,g,1,1.3553293750001103,1093.3024251059999,None,1093.3024251059999,None,1093.3024251059999,None,1094.7188880269998,None,1094.7188880269998,None,1094.7188880269998,None,1094.7188880269998,None,,,,,,,,,,,,,,,,,,,,,,,,,,,,,,,,,,,,,,,,,,,,001,1,2020_Jan_28_0858,spring_faces,3.1.5,59.91159660478723,
condition files/Stage0c_2.xlsx,0c,beta,phi,g,"['h', 'g']","['Chess', 'Go']","[-0.15, 0.5]","[0.15, 0.5]",1,1,0,13,13,13,0,1,1,3,,,,,,,,,,,,,,,,,,,,,,,,,,,,,,,,,,,,,,,,,,,,,,,,,,,,,,,,,,,,,,,1096.685368366,None,1096.685368366,None,1096.685368366,None,g,1,1.4789675480001279,1098.218724473,None,1098.218724473,None,1098.218724473,None,1099.736387583,None,1099.736387583,None,1099.736387583,None,1099.736387583,None,,,,,,,,,,,,,,,,,,,,,,,,,,,,,,,,,,,,,,,,,,,,001,1,2020_Jan_28_0858,spring_faces,3.1.5,59.91159660478723,
condition files/Stage0c_2.xlsx,0c,phi,alpha,h,"['h', 'g']","['Chess', 'Go']","[-0.15, 0.5]","[0.15, 0.5]",1,1,0,13,13,13,0,2,2,1,,,,,,,,,,,,,,,,,,,,,,,,,,,,,,,,,,,,,,,,,,,,,,,,,,,,,,,,,,,,,,,1101.718199841,None,1101.718199841,None,1101.718199841,None,h,1,1.2616209610000624,1103.2520888380002,None,1103.2520888380002,None,1103.2520888380002,None,1104.569040612,None,1104.569040612,None,1104.569040612,None,1104.569040612,None,,,,,,,,,,,,,,,,,,,,,,,,,,,,,,,,,,,,,,,,,,,,001,1,2020_Jan_28_0858,spring_faces,3.1.5,59.91159660478723,
condition files/Stage0c_2.xlsx,0c,alpha,theta,h,"['h', 'g']","['Chess', 'Go']","[-0.15, 0.5]","[0.15, 0.5]",1,1,0,13,13,13,0,3,3,0,,,,,,,,,,,,,,,,,,,,,,,,,,,,,,,,,,,,,,,,,,,,,,,,,,,,,,,,,,,,,,,1106.535073662,None,1106.535073662,None,1106.535073662,None,h,1,1.4207676840001113,1108.068987162,None,1108.068987162,None,1108.068987162,None,1109.5349508830002,None,1109.5349508830002,None,1109.5349508830002,None,1109.5349508830002,None,,,,,,,,,,,,,,,,,,,,,,,,,,,,,,,,,,,,,,,,,,,,001,1,2020_Jan_28_0858,spring_faces,3.1.5,59.91159660478723,
condition files/Stage0c_1.xlsx,0c,alpha,phi,h,"['h', 'g']","['Chess', 'Go']","[-0.15, 0.5]","[0.15, 0.5]",1,1,0,14,14,14,0,0,0,1,,,,,,,,,,,,,,,,,,,,,,,,,,,,,,,,,,,,,,,,,,,,,,,,,,,,,,,,,,,,,,,1111.5358120080002,None,1111.5358120080002,None,1111.5358120080002,None,h,1,2.1169874399997752,1113.0687475850002,None,1113.0687475850002,None,1113.0687475850002,None,1115.2214897390002,None,1115.2214897390002,None,1115.2214897390002,None,1115.2214897390002,None,,,,,,,,,,,,,,,,,,,,,,,,,,,,,,,,,,,,,,,,,,,,001,1,2020_Jan_28_0858,spring_faces,3.1.5,59.91159660478723,
condition files/Stage0c_1.xlsx,0c,theta,alpha,h,"['h', 'g']","['Chess', 'Go']","[-0.15, 0.5]","[0.15, 0.5]",1,1,0,14,14,14,0,1,1,0,,,,,,,,,,,,,,,,,,,,,,,,,,,,,,,,,,,,,,,,,,,,,,,,,,,,,,,,,,,,,,,1117.201917617,None,1117.201917617,None,1117.201917617,None,h,1,1.2985827519996747,1118.735154067,None,1118.735154067,None,1118.735154067,None,1120.0693201800002,None,1120.0693201800002,None,1120.0693201800002,None,1120.0693201800002,None,,,,,,,,,,,,,,,,,,,,,,,,,,,,,,,,,,,,,,,,,,,,001,1,2020_Jan_28_0858,spring_faces,3.1.5,59.91159660478723,
condition files/Stage0c_1.xlsx,0c,phi,beta,g,"['h', 'g']","['Chess', 'Go']","[-0.15, 0.5]","[0.15, 0.5]",1,1,0,14,14,14,0,2,2,3,,,,,,,,,,,,,,,,,,,,,,,,,,,,,,,,,,,,,,,,,,,,,,,,,,,,,,,,,,,,,,,1122.052041017,None,1122.052041017,None,1122.052041017,None,g,1,1.0880144829998244,1123.5857396509998,None,1123.5857396509998,None,1123.5857396509998,None,1124.7354990279998,None,1124.7354990279998,None,1124.7354990279998,None,1124.7354990279998,None,,,,,,,,,,,,,,,,,,,,,,,,,,,,,,,,,,,,,,,,,,,,001,1,2020_Jan_28_0858,spring_faces,3.1.5,59.91159660478723,
condition files/Stage0c_1.xlsx,0c,beta,theta,g,"['h', 'g']","['Chess', 'Go']","[-0.15, 0.5]","[0.15, 0.5]",1,1,0,14,14,14,0,3,3,2,,,,,,,,,,,,,,,,,,,,,,,,,,,,,,,,,,,,,,,,,,,,,,,,,,,,,,,,,,,,,,,1126.7020266450002,None,1126.7020266450002,None,1126.7020266450002,None,g,1,1.2218947269998353,1128.235854591,None,1128.235854591,None,1128.235854591,None,1129.5188736369998,None,1129.5188736369998,None,1129.5188736369998,None,1129.5188736369998,None,,,,,,,,,,,,,,,,,,,,,,,,,,,,,,,,,,,,,,,,,,,,001,1,2020_Jan_28_0858,spring_faces,3.1.5,59.91159660478723,
condition files/Stage0c_2.xlsx,0c,alpha,theta,h,"['h', 'g']","['Chess', 'Go']","[-0.15, 0.5]","[0.15, 0.5]",1,1,0,15,15,15,0,0,0,0,,,,,,,,,,,,,,,,,,,,,,,,,,,,,,,,,,,,,,,,,,,,,,,,,,,,,,,,,,,,,,,1131.501935256,None,1131.501935256,None,1131.501935256,None,h,1,1.9110299979997762,1133.018685589,None,1133.018685589,None,1133.018685589,None,1134.9855523210001,None,1134.9855523210001,None,1134.9855523210001,None,1134.9855523210001,None,,,,,,,,,,,,,,,,,,,,,,,,,,,,,,,,,,,,,,,,,,,,001,1,2020_Jan_28_0858,spring_faces,3.1.5,59.91159660478723,
condition files/Stage0c_2.xlsx,0c,theta,beta,g,"['h', 'g']","['Chess', 'Go']","[-0.15, 0.5]","[0.15, 0.5]",1,1,0,15,15,15,0,1,1,2,,,,,,,,,,,,,,,,,,,,,,,,,,,,,,,,,,,,,,,,,,,,,,,,,,,,,,,,,,,,,,,1136.951988306,None,1136.951988306,None,1136.951988306,None,g,1,1.5637891730002593,1138.4858934810002,None,1138.4858934810002,None,1138.4858934810002,None,1140.102492532,None,1140.102492532,None,1140.102492532,None,1140.102492532,None,,,,,,,,,,,,,,,,,,,,,,,,,,,,,,,,,,,,,,,,,,,,001,1,2020_Jan_28_0858,spring_faces,3.1.5,59.91159660478723,
condition files/Stage0c_2.xlsx,0c,beta,phi,g,"['h', 'g']","['Chess', 'Go']","[-0.15, 0.5]","[0.15, 0.5]",1,1,0,15,15,15,0,2,2,3,,,,,,,,,,,,,,,,,,,,,,,,,,,,,,,,,,,,,,,,,,,,,,,,,,,,,,,,,,,,,,,1142.06873019,None,1142.06873019,None,1142.06873019,None,g,1,1.0079269140001088,1143.601864551,None,1143.601864551,None,1143.601864551,None,1144.652981732,None,1144.652981732,None,1144.652981732,None,1144.652981732,None,,,,,,,,,,,,,,,,,,,,,,,,,,,,,,,,,,,,,,,,,,,,001,1,2020_Jan_28_0858,spring_faces,3.1.5,59.91159660478723,
condition files/Stage0c_2.xlsx,0c,phi,alpha,h,"['h', 'g']","['Chess', 'Go']","[-0.15, 0.5]","[0.15, 0.5]",1,1,0,15,15,15,0,3,3,1,,,,,,,,,,,,,,,,,,,,,,,,,,,,,,,,,,,,,,,,,,,,,,,,,,,,,,,,,,,,,,,1146.6356574099998,None,1146.6356574099998,None,1146.6356574099998,None,h,1,1.6248612909998883,1148.1689332130002,None,1148.1689332130002,None,1148.1689332130002,None,1149.8523414889999,None,1149.8523414889999,None,1149.8523414889999,None,1149.8523414889999,None,,,,,,,,,,,,,,,,,,,,,,,,,,,,,,,,,,,,,,,,,,,,001,1,2020_Jan_28_0858,spring_faces,3.1.5,59.91159660478723,
condition files/Stage0c_1.xlsx,0c,theta,alpha,h,"['h', 'g']","['Chess', 'Go']","[-0.15, 0.5]","[0.15, 0.5]",1,1,0,16,16,16,0,0,0,0,,,,,,,,,,,,,,,,,,,,,,,,,,,,,,,,,,,,,,,,,,,,,,,,,,,,,,,,,,,,,,,1151.835421864,None,1151.835421864,None,1151.835421864,None,h,1,0.7934508949997507,1153.3683002340001,None,1153.3683002340001,None,1153.3683002340001,None,1154.203907248,None,1154.203907248,None,1154.203907248,None,1154.203907248,None,,,,,,,,,,,,,,,,,,,,,,,,,,,,,,,,,,,,,,,,,,,,001,1,2020_Jan_28_0858,spring_faces,3.1.5,59.91159660478723,
condition files/Stage0c_1.xlsx,0c,phi,beta,g,"['h', 'g']","['Chess', 'Go']","[-0.15, 0.5]","[0.15, 0.5]",1,1,0,16,16,16,0,1,1,3,,,,,,,,,,,,,,,,,,,,,,,,,,,,,,,,,,,,,,,,,,,,,,,,,,,,,,,,,,,,,,,1156.185352584,None,1156.185352584,None,1156.185352584,None,g,1,1.0348986099998,1157.718849833,None,1157.718849833,None,1157.718849833,None,1158.819128844,None,1158.819128844,None,1158.819128844,None,1158.819128844,None,,,,,,,,,,,,,,,,,,,,,,,,,,,,,,,,,,,,,,,,,,,,001,1,2020_Jan_28_0858,spring_faces,3.1.5,59.91159660478723,
condition files/Stage0c_1.xlsx,0c,beta,theta,g,"['h', 'g']","['Chess', 'Go']","[-0.15, 0.5]","[0.15, 0.5]",1,1,0,16,16,16,0,2,2,2,,,,,,,,,,,,,,,,,,,,,,,,,,,,,,,,,,,,,,,,,,,,,,,,,,,,,,,,,,,,,,,1160.7851402889999,None,1160.7851402889999,None,1160.7851402889999,None,g,1,1.6033120780002719,1162.318446435,None,1162.318446435,None,1162.318446435,None,1163.9694599779998,None,1163.9694599779998,None,1163.9694599779998,None,1163.9694599779998,None,,,,,,,,,,,,,,,,,,,,,,,,,,,,,,,,,,,,,,,,,,,,001,1,2020_Jan_28_0858,spring_faces,3.1.5,59.91159660478723,
condition files/Stage0c_1.xlsx,0c,alpha,phi,h,"['h', 'g']","['Chess', 'Go']","[-0.15, 0.5]","[0.15, 0.5]",1,1,0,16,16,16,0,3,3,1,,,,,,,,,,,,,,,,,,,,,,,,,,,,,,,,,,,,,,,,,,,,,,,,,,,,,,,,,,,,,,,1165.952159961,None,1165.952159961,None,1165.952159961,None,h,1,0.9486408239999946,1167.485102149,None,1167.485102149,None,1167.485102149,None,1168.4846421169998,None,1168.4846421169998,None,1168.4846421169998,None,1168.4846421169998,None,,,,,,,,,,,,,,,,,,,,,,,,,,,,,,,,,,,,,,,,,,,,001,1,2020_Jan_28_0858,spring_faces,3.1.5,59.91159660478723,
condition files/Stage0c_2.xlsx,0c,theta,beta,g,"['h', 'g']","['Chess', 'Go']","[-0.15, 0.5]","[0.15, 0.5]",1,1,0,17,17,17,0,0,0,2,,,,,,,,,,,,,,,,,,,,,,,,,,,,,,,,,,,,,,,,,,,,,,,,,,,,,,,,,,,,,,,1170.46891303,None,1170.46891303,None,1170.46891303,None,g,1,0.75103630600006,1172.002680549,None,1172.002680549,None,1172.002680549,None,1172.8189359649998,None,1172.8189359649998,None,1172.8189359649998,None,1172.8189359649998,None,,,,,,,,,,,,,,,,,,,,,,,,,,,,,,,,,,,,,,,,,,,,001,1,2020_Jan_28_0858,spring_faces,3.1.5,59.91159660478723,
condition files/Stage0c_2.xlsx,0c,phi,alpha,h,"['h', 'g']","['Chess', 'Go']","[-0.15, 0.5]","[0.15, 0.5]",1,1,0,17,17,17,0,1,1,1,,,,,,,,,,,,,,,,,,,,,,,,,,,,,,,,,,,,,,,,,,,,,,,,,,,,,,,,,,,,,,,1174.785572213,None,1174.785572213,None,1174.785572213,None,h,1,0.6110039380000671,1176.3187394499998,None,1176.3187394499998,None,1176.3187394499998,None,1176.985151819,None,1176.985151819,None,1176.985151819,None,1176.985151819,None,,,,,,,,,,,,,,,,,,,,,,,,,,,,,,,,,,,,,,,,,,,,001,1,2020_Jan_28_0858,spring_faces,3.1.5,59.91159660478723,
condition files/Stage0c_2.xlsx,0c,beta,phi,g,"['h', 'g']","['Chess', 'Go']","[-0.15, 0.5]","[0.15, 0.5]",1,1,0,17,17,17,0,2,2,3,,,,,,,,,,,,,,,,,,,,,,,,,,,,,,,,,,,,,,,,,,,,,,,,,,,,,,,,,,,,,,,1178.95210471,None,1178.95210471,None,1178.95210471,None,g,1,2.2524534770000173,1180.4852869990002,None,1180.4852869990002,None,1180.4852869990002,None,1182.8015881519998,None,1182.8015881519998,None,1182.8015881519998,None,1182.8015881519998,None,,,,,,,,,,,,,,,,,,,,,,,,,,,,,,,,,,,,,,,,,,,,001,1,2020_Jan_28_0858,spring_faces,3.1.5,59.91159660478723,
condition files/Stage0c_2.xlsx,0c,alpha,theta,h,"['h', 'g']","['Chess', 'Go']","[-0.15, 0.5]","[0.15, 0.5]",1,1,0,17,17,17,0,3,3,0,,,,,,,,,,,,,,,,,,,,,,,,,,,,,,,,,,,,,,,,,,,,,,,,,,,,,,,,,,,,,,,1184.7680207310002,None,1184.7680207310002,None,1184.7680207310002,None,h,1,0.6755026400001043,1186.3022983869998,None,1186.3022983869998,None,1186.3022983869998,None,1187.0357895670002,None,1187.0357895670002,None,1187.0357895670002,None,1187.0357895670002,None,,,,,,,,,,,,,,,,,,,,,,,,,,,,,,,,,,,,,,,,,,,,001,1,2020_Jan_28_0858,spring_faces,3.1.5,59.91159660478723,
,,,,,,,,,,,,,,,,,,,,,,,,,,,,,,,,,,,,,,,,,,,,,,,,,,,,,,,,,,,,,,,,,,,,,,,,,,,,,,,,,,,,,,,,,,,,,,,,,,,,,,,,1189.0189813129998,None,space,6.142836075000105,1194.018909219,None,,,,,,,,,,,,,,,,,,,,,,,,,,,,,,,,,,,,,,001,1,2020_Jan_28_0858,spring_faces,3.1.5,59.91159660478723,
condition files/Stage1_1.xlsx,,T2,B2,m,"['c', 'm']","['Clue', 'Monopoly']","[-0.15, 0.5]","[0.15, 0.5]",1,1,,,,,,,,,0,0,0,0,0,0,0,3,,,,,,,,,,,,,,,,,,,,,,,,,,,,,,,,,,,,,,,,,,,,,,,,,,,,,,,1200.2687086990002,None,1200.2687086990002,None,1200.2687086990002,None,c,0,2.520307578000029,1201.7854586750002,None,1201.7854586750002,None,1201.7854586750002,None,1204.3866247100002,None,1204.3866247100002,None,1204.3866247100002,None,1204.3866247100002,None,,,,,,,1194.018909219,None,,,,,,,,,,,,,,,,,,,,,,,,,,,,,,,,,,,,001,1,2020_Jan_28_0858,spring_faces,3.1.5,59.91159660478723,
condition files/Stage1_1.xlsx,,T4,B3,m,"['c', 'm']","['Clue', 'Monopoly']","[-0.15, 0.5]","[0.15, 0.5]",1,1,,,,,,,,,0,0,0,0,0,1,1,6,,,,,,,,,,,,,,,,,,,,,,,,,,,,,,,,,,,,,,,,,,,,,,,,,,,,,,,1206.3353562559998,None,1206.3353562559998,None,1206.3353562559998,None,m,1,0.9617503230001603,1207.935941174,None,1207.935941174,None,1207.935941174,None,1208.952420449,None,1208.952420449,None,1208.952420449,None,1208.952420449,None,,,,,,,,,,,,,,,,,,,,,,,,,,,,,,,,,,,,,,,,,,,,001,1,2020_Jan_28_0858,spring_faces,3.1.5,59.91159660478723,
condition files/Stage1_1.xlsx,,B3,T3,c,"['c', 'm']","['Clue', 'Monopoly']","[-0.15, 0.5]","[0.15, 0.5]",1,1,,,,,,,,,0,0,0,0,0,2,2,4,,,,,,,,,,,,,,,,,,,,,,,,,,,,,,,,,,,,,,,,,,,,,,,,,,,,,,,1210.918779972,None,1210.918779972,None,1210.918779972,None,m,0,1.4507533759997386,1212.518933472,None,1212.518933472,None,1212.518933472,None,1214.036913196,None,1214.036913196,None,1214.036913196,None,1214.036913196,None,,,,,,,,,,,,,,,,,,,,,,,,,,,,,,,,,,,,,,,,,,,,001,1,2020_Jan_28_0858,spring_faces,3.1.5,59.91159660478723,
condition files/Stage1_1.xlsx,,B2,T1,m,"['c', 'm']","['Clue', 'Monopoly']","[-0.15, 0.5]","[0.15, 0.5]",1,1,,,,,,,,,0,0,0,0,0,3,3,2,,,,,,,,,,,,,,,,,,,,,,,,,,,,,,,,,,,,,,,,,,,,,,,,,,,,,,,1216.002034801,None,1216.002034801,None,1216.002034801,None,m,1,3.1365156189999652,1217.5692433430002,None,1217.5692433430002,None,1217.5692433430002,None,1220.7851263589998,None,1220.7851263589998,None,1220.7851263589998,None,1220.7851263589998,None,,,,,,,,,,,,,,,,,,,,,,,,,,,,,,,,,,,,,,,,,,,,001,1,2020_Jan_28_0858,spring_faces,3.1.5,59.91159660478723,
condition files/Stage1_1.xlsx,,T1,B1,c,"['c', 'm']","['Clue', 'Monopoly']","[-0.15, 0.5]","[0.15, 0.5]",1,1,,,,,,,,,0,0,0,0,0,4,4,0,,,,,,,,,,,,,,,,,,,,,,,,,,,,,,,,,,,,,,,,,,,,,,,,,,,,,,,1222.7352568869999,None,1222.7352568869999,None,1222.7352568869999,None,m,0,2.179195033000269,1224.318532779,None,1224.318532779,None,1224.318532779,None,1226.553322001,None,1226.553322001,None,1226.553322001,None,1226.553322001,None,,,,,,,,,,,,,,,,,,,,,,,,,,,,,,,,,,,,,,,,,,,,001,1,2020_Jan_28_0858,spring_faces,3.1.5,59.91159660478723,
condition files/Stage1_1.xlsx,,B4,T4,m,"['c', 'm']","['Clue', 'Monopoly']","[-0.15, 0.5]","[0.15, 0.5]",1,1,,,,,,,,,0,0,0,0,0,5,5,7,,,,,,,,,,,,,,,,,,,,,,,,,,,,,,,,,,,,,,,,,,,,,,,,,,,,,,,1228.5188287879998,None,1228.5188287879998,None,1228.5188287879998,None,c,0,3.436186280000129,1230.085575848,None,1230.085575848,None,1230.085575848,None,1233.5850725560001,None,1233.5850725560001,None,1233.5850725560001,None,1233.5850725560001,None,,,,,,,,,,,,,,,,,,,,,,,,,,,,,,,,,,,,,,,,,,,,001,1,2020_Jan_28_0858,spring_faces,3.1.5,59.91159660478723,
condition files/Stage1_1.xlsx,,B1,T2,c,"['c', 'm']","['Clue', 'Monopoly']","[-0.15, 0.5]","[0.15, 0.5]",1,1,,,,,,,,,0,0,0,0,0,6,6,1,,,,,,,,,,,,,,,,,,,,,,,,,,,,,,,,,,,,,,,,,,,,,,,,,,,,,,,1235.552323564,None,1235.552323564,None,1235.552323564,None,m,0,1.125100355000086,1237.0847146980002,None,1237.0847146980002,None,1237.0847146980002,None,1238.2857522259999,None,1238.2857522259999,None,1238.2857522259999,None,1238.2857522259999,None,,,,,,,,,,,,,,,,,,,,,,,,,,,,,,,,,,,,,,,,,,,,001,1,2020_Jan_28_0858,spring_faces,3.1.5,59.91159660478723,
condition files/Stage1_1.xlsx,,T3,B4,c,"['c', 'm']","['Clue', 'Monopoly']","[-0.15, 0.5]","[0.15, 0.5]",1,1,,,,,,,,,0,0,0,0,0,7,7,5,,,,,,,,,,,,,,,,,,,,,,,,,,,,,,,,,,,,,,,,,,,,,,,,,,,,,,,1240.2354573750001,None,1240.2354573750001,None,1240.2354573750001,None,m,0,1.0479375439999785,1241.7698213380002,None,1241.7698213380002,None,1241.7698213380002,None,1242.8685150200001,None,1242.8685150200001,None,1242.8685150200001,None,1242.8685150200001,None,,,,,,,,,,,,,,,,,,,,,,,,,,,,,,,,,,,,,,,,,,,,001,1,2020_Jan_28_0858,spring_faces,3.1.5,59.91159660478723,
condition files/Stage1_2.xlsx,,B1,T1,c,"['c', 'm']","['Clue', 'Monopoly']","[-0.15, 0.5]","[0.15, 0.5]",1,1,,,,,,,,,0,1,1,1,0,0,0,0,,,,,,,,,,,,,,,,,,,,,,,,,,,,,,,,,,,,,,,,,,,,,,,,,,,,,,,1244.8690208,None,1244.8690208,None,1244.8690208,None,m,0,1.9837348020000718,1246.3859712189999,None,1246.3859712189999,None,1246.3859712189999,None,1248.4351175539998,None,1248.4351175539998,None,1248.4351175539998,None,1248.4351175539998,None,,,,,,,,,,,,,,,,,,,,,,,,,,,,,,,,,,,,,,,,,,,,001,1,2020_Jan_28_0858,spring_faces,3.1.5,59.91159660478723,
condition files/Stage1_2.xlsx,,T2,B1,c,"['c', 'm']","['Clue', 'Monopoly']","[-0.15, 0.5]","[0.15, 0.5]",1,1,,,,,,,,,0,1,1,1,0,1,1,1,,,,,,,,,,,,,,,,,,,,,,,,,,,,,,,,,,,,,,,,,,,,,,,,,,,,,,,1250.401880104,None,1250.401880104,None,1250.401880104,None,c,1,0.4177790290000303,1251.9519261389999,None,1251.9519261389999,None,1251.9519261389999,None,1252.4356133550002,None,1252.4356133550002,None,1252.4356133550002,None,1252.4356133550002,None,,,,,,,,,,,,,,,,,,,,,,,,,,,,,,,,,,,,,,,,,,,,001,1,2020_Jan_28_0858,spring_faces,3.1.5,59.91159660478723,
condition files/Stage1_2.xlsx,,T1,B2,m,"['c', 'm']","['Clue', 'Monopoly']","[-0.15, 0.5]","[0.15, 0.5]",1,1,,,,,,,,,0,1,1,1,0,2,2,2,,,,,,,,,,,,,,,,,,,,,,,,,,,,,,,,,,,,,,,,,,,,,,,,,,,,,,,1254.4018908350001,None,1254.4018908350001,None,1254.4018908350001,None,c,0,1.3942150050002056,1255.9355343119998,None,1255.9355343119998,None,1255.9355343119998,None,1257.402402642,None,1257.402402642,None,1257.402402642,None,1257.402402642,None,,,,,,,,,,,,,,,,,,,,,,,,,,,,,,,,,,,,,,,,,,,,001,1,2020_Jan_28_0858,spring_faces,3.1.5,59.91159660478723,
condition files/Stage1_2.xlsx,,B2,T2,m,"['c', 'm']","['Clue', 'Monopoly']","[-0.15, 0.5]","[0.15, 0.5]",1,1,,,,,,,,,0,1,1,1,0,3,3,3,,,,,,,,,,,,,,,,,,,,,,,,,,,,,,,,,,,,,,,,,,,,,,,,,,,,,,,1259.3521925829998,None,1259.3521925829998,None,1259.3521925829998,None,c,0,1.2441746249996868,1260.901632107,None,1260.901632107,None,1260.901632107,None,1262.202368687,None,1262.202368687,None,1262.202368687,None,1262.202368687,None,,,,,,,,,,,,,,,,,,,,,,,,,,,,,,,,,,,,,,,,,,,,001,1,2020_Jan_28_0858,spring_faces,3.1.5,59.91159660478723,
condition files/Stage1_2.xlsx,,B3,T4,m,"['c', 'm']","['Clue', 'Monopoly']","[-0.15, 0.5]","[0.15, 0.5]",1,1,,,,,,,,,0,1,1,1,0,4,4,6,,,,,,,,,,,,,,,,,,,,,,,,,,,,,,,,,,,,,,,,,,,,,,,,,,,,,,,1264.168859537,None,1264.168859537,None,1264.168859537,None,c,0,1.707935887000076,1265.70186283,None,1265.70186283,None,1265.70186283,None,1267.46851219,None,1267.46851219,None,1267.46851219,None,1267.46851219,None,,,,,,,,,,,,,,,,,,,,,,,,,,,,,,,,,,,,,,,,,,,,001,1,2020_Jan_28_0858,spring_faces,3.1.5,59.91159660478723,
condition files/Stage1_2.xlsx,,B4,T3,c,"['c', 'm']","['Clue', 'Monopoly']","[-0.15, 0.5]","[0.15, 0.5]",1,1,,,,,,,,,0,1,1,1,0,5,5,5,,,,,,,,,,,,,,,,,,,,,,,,,,,,,,,,,,,,,,,,,,,,,,,,,,,,,,,1269.435333149,None,1269.435333149,None,1269.435333149,None,m,0,0.7290349660001993,1270.9686849860002,None,1270.9686849860002,None,1270.9686849860002,None,1271.769026998,None,1271.769026998,None,1271.769026998,None,1271.769026998,None,,,,,,,,,,,,,,,,,,,,,,,,,,,,,,,,,,,,,,,,,,,,001,1,2020_Jan_28_0858,spring_faces,3.1.5,59.91159660478723,
condition files/Stage1_2.xlsx,,T4,B4,m,"['c', 'm']","['Clue', 'Monopoly']","[-0.15, 0.5]","[0.15, 0.5]",1,1,,,,,,,,,0,1,1,1,0,6,6,7,,,,,,,,,,,,,,,,,,,,,,,,,,,,,,,,,,,,,,,,,,,,,,,,,,,,,,,1273.7186910449998,None,1273.7186910449998,None,1273.7186910449998,None,m,1,2.9417761230001815,1275.2520295699999,None,1275.2520295699999,None,1275.2520295699999,None,1278.253425363,None,1278.253425363,None,1278.253425363,None,1278.253425363,None,,,,,,,,,,,,,,,,,,,,,,,,,,,,,,,,,,,,,,,,,,,,001,1,2020_Jan_28_0858,spring_faces,3.1.5,59.91159660478723,
condition files/Stage1_2.xlsx,,T3,B3,c,"['c', 'm']","['Clue', 'Monopoly']","[-0.15, 0.5]","[0.15, 0.5]",1,1,,,,,,,,,0,1,1,1,0,7,7,4,,,,,,,,,,,,,,,,,,,,,,,,,,,,,,,,,,,,,,,,,,,,,,,,,,,,,,,1280.218636536,None,1280.218636536,None,1280.218636536,None,c,1,1.3220881030001692,1281.751684994,None,1281.751684994,None,1281.751684994,None,1283.1362021060002,None,1283.1362021060002,None,1283.1362021060002,None,1283.1362021060002,None,,,,,,,,,,,,,,,,,,,,,,,,,,,,,,,,,,,,,,,,,,,,001,1,2020_Jan_28_0858,spring_faces,3.1.5,59.91159660478723,
condition files/Stage1_1.xlsx,,T3,B4,c,"['c', 'm']","['Clue', 'Monopoly']","[-0.15, 0.5]","[0.15, 0.5]",1,1,,,,,,,,,0,2,2,2,0,0,0,5,,,,,,,,,,,,,,,,,,,,,,,,,,,,,,,,,,,,,,,,,,,,,,,,,,,,,,,1285.118752607,None,1285.118752607,None,1285.118752607,None,c,1,1.8932620829996267,1286.652536853,None,1286.652536853,None,1286.652536853,None,1288.601529745,None,1288.601529745,None,1288.601529745,None,1288.601529745,None,,,,,,,,,,,,,,,,,,,,,,,,,,,,,,,,,,,,,,,,,,,,001,1,2020_Jan_28_0858,spring_faces,3.1.5,59.91159660478723,
condition files/Stage1_1.xlsx,,B4,T4,m,"['c', 'm']","['Clue', 'Monopoly']","[-0.15, 0.5]","[0.15, 0.5]",1,1,,,,,,,,,0,2,2,2,0,1,1,7,,,,,,,,,,,,,,,,,,,,,,,,,,,,,,,,,,,,,,,,,,,,,,,,,,,,,,,1290.5686654449999,None,1290.5686654449999,None,1290.5686654449999,None,m,1,2.1719105189999937,1292.101867359,None,1292.101867359,None,1292.101867359,None,1294.352242236,None,1294.352242236,None,1294.352242236,None,1294.352242236,None,,,,,,,,,,,,,,,,,,,,,,,,,,,,,,,,,,,,,,,,,,,,001,1,2020_Jan_28_0858,spring_faces,3.1.5,59.91159660478723,
condition files/Stage1_1.xlsx,,T4,B3,m,"['c', 'm']","['Clue', 'Monopoly']","[-0.15, 0.5]","[0.15, 0.5]",1,1,,,,,,,,,0,2,2,2,0,2,2,6,,,,,,,,,,,,,,,,,,,,,,,,,,,,,,,,,,,,,,,,,,,,,,,,,,,,,,,1296.3017656149998,None,1296.3017656149998,None,1296.3017656149998,None,c,0,6.198501469999883,1297.83524836,None,1297.83524836,None,1297.83524836,None,1304.0856446240002,None,1304.0856446240002,None,1304.0856446240002,None,1304.0856446240002,None,,,,,,,,,,,,,,,,,,,,,,,,,,,,,,,,,,,,,,,,,,,,001,1,2020_Jan_28_0858,spring_faces,3.1.5,59.91159660478723,
condition files/Stage1_1.xlsx,,B2,T1,m,"['c', 'm']","['Clue', 'Monopoly']","[-0.15, 0.5]","[0.15, 0.5]",1,1,,,,,,,,,0,2,2,2,0,3,3,2,,,,,,,,,,,,,,,,,,,,,,,,,,,,,,,,,,,,,,,,,,,,,,,,,,,,,,,1306.052080951,None,1306.052080951,None,1306.052080951,None,c,0,4.033225113999833,1307.5845502250002,None,1307.5845502250002,None,1307.5845502250002,None,1311.668717323,None,1311.668717323,None,1311.668717323,None,1311.668717323,None,,,,,,,,,,,,,,,,,,,,,,,,,,,,,,,,,,,,,,,,,,,,001,1,2020_Jan_28_0858,spring_faces,3.1.5,59.91159660478723,
condition files/Stage1_1.xlsx,,T2,B2,m,"['c', 'm']","['Clue', 'Monopoly']","[-0.15, 0.5]","[0.15, 0.5]",1,1,,,,,,,,,0,2,2,2,0,4,4,3,,,,,,,,,,,,,,,,,,,,,,,,,,,,,,,,,,,,,,,,,,,,,,,,,,,,,,,1313.6353657420002,None,1313.6353657420002,None,1313.6353657420002,None,c,0,2.7675424200001544,1315.1702141869998,None,1315.1702141869998,None,1315.1702141869998,None,1318.0017031670002,None,1318.0017031670002,None,1318.0017031670002,None,1318.0017031670002,None,,,,,,,,,,,,,,,,,,,,,,,,,,,,,,,,,,,,,,,,,,,,001,1,2020_Jan_28_0858,spring_faces,3.1.5,59.91159660478723,
condition files/Stage1_1.xlsx,,B3,T3,c,"['c', 'm']","['Clue', 'Monopoly']","[-0.15, 0.5]","[0.15, 0.5]",1,1,,,,,,,,,0,2,2,2,0,5,5,4,,,,,,,,,,,,,,,,,,,,,,,,,,,,,,,,,,,,,,,,,,,,,,,,,,,,,,,1319.9688307899999,None,1319.9688307899999,None,1319.9688307899999,None,c,1,4.577453536000121,1321.504308234,None,1321.504308234,None,1321.504308234,None,1326.1376470419998,None,1326.1376470419998,None,1326.1376470419998,None,1326.1376470419998,None,,,,,,,,,,,,,,,,,,,,,,,,,,,,,,,,,,,,,,,,,,,,001,1,2020_Jan_28_0858,spring_faces,3.1.5,59.91159660478723,
condition files/Stage1_1.xlsx,,B1,T2,c,"['c', 'm']","['Clue', 'Monopoly']","[-0.15, 0.5]","[0.15, 0.5]",1,1,,,,,,,,,0,2,2,2,0,6,6,1,,,,,,,,,,,,,,,,,,,,,,,,,,,,,,,,,,,,,,,,,,,,,,,,,,,,,,,1328.102081027,None,1328.102081027,None,1328.102081027,None,m,0,1.70954333499958,1329.6522034490001,None,1329.6522034490001,None,1329.6522034490001,None,1331.419088972,None,1331.419088972,None,1331.419088972,None,1331.419088972,None,,,,,,,,,,,,,,,,,,,,,,,,,,,,,,,,,,,,,,,,,,,,001,1,2020_Jan_28_0858,spring_faces,3.1.5,59.91159660478723,
condition files/Stage1_1.xlsx,,T1,B1,c,"['c', 'm']","['Clue', 'Monopoly']","[-0.15, 0.5]","[0.15, 0.5]",1,1,,,,,,,,,0,2,2,2,0,7,7,0,,,,,,,,,,,,,,,,,,,,,,,,,,,,,,,,,,,,,,,,,,,,,,,,,,,,,,,1333.384758256,None,1333.384758256,None,1333.384758256,None,c,1,2.491797278999911,1334.9180068909998,None,1334.9180068909998,None,1334.9180068909998,None,1337.4684558390002,None,1337.4684558390002,None,1337.4684558390002,None,1337.4684558390002,None,,,,,,,,,,,,,,,,,,,,,,,,,,,,,,,,,,,,,,,,,,,,001,1,2020_Jan_28_0858,spring_faces,3.1.5,59.91159660478723,
condition files/Stage1_2.xlsx,,B4,T3,c,"['c', 'm']","['Clue', 'Monopoly']","[-0.15, 0.5]","[0.15, 0.5]",1,1,,,,,,,,,0,3,3,3,0,0,0,5,,,,,,,,,,,,,,,,,,,,,,,,,,,,,,,,,,,,,,,,,,,,,,,,,,,,,,,1339.452021163,None,1339.452021163,None,1339.452021163,None,m,0,1.7204460150001069,1340.9853364580001,None,1340.9853364580001,None,1340.9853364580001,None,1342.7690859850002,None,1342.7690859850002,None,1342.7690859850002,None,1342.7690859850002,None,,,,,,,,,,,,,,,,,,,,,,,,,,,,,,,,,,,,,,,,,,,,001,1,2020_Jan_28_0858,spring_faces,3.1.5,59.91159660478723,
condition files/Stage1_2.xlsx,,T4,B4,m,"['c', 'm']","['Clue', 'Monopoly']","[-0.15, 0.5]","[0.15, 0.5]",1,1,,,,,,,,,0,3,3,3,0,1,1,7,,,,,,,,,,,,,,,,,,,,,,,,,,,,,,,,,,,,,,,,,,,,,,,,,,,,,,,1344.7349911160002,None,1344.7349911160002,None,1344.7349911160002,None,m,1,2.2932752130000154,1346.2684716780002,None,1346.2684716780002,None,1346.2684716780002,None,1348.620707628,None,1348.620707628,None,1348.620707628,None,1348.620707628,None,,,,,,,,,,,,,,,,,,,,,,,,,,,,,,,,,,,,,,,,,,,,001,1,2020_Jan_28_0858,spring_faces,3.1.5,59.91159660478723,
condition files/Stage1_2.xlsx,,T1,B2,m,"['c', 'm']","['Clue', 'Monopoly']","[-0.15, 0.5]","[0.15, 0.5]",1,1,,,,,,,,,0,3,3,3,0,2,2,2,,,,,,,,,,,,,,,,,,,,,,,,,,,,,,,,,,,,,,,,,,,,,,,,,,,,,,,1350.5849364849998,None,1350.5849364849998,None,1350.5849364849998,None,c,0,1.7871636699996998,1352.1186241439998,None,1352.1186241439998,None,1352.1186241439998,None,1353.9681622360001,None,1353.9681622360001,None,1353.9681622360001,None,1353.9681622360001,None,,,,,,,,,,,,,,,,,,,,,,,,,,,,,,,,,,,,,,,,,,,,001,1,2020_Jan_28_0858,spring_faces,3.1.5,59.91159660478723,
condition files/Stage1_2.xlsx,,B2,T2,m,"['c', 'm']","['Clue', 'Monopoly']","[-0.15, 0.5]","[0.15, 0.5]",1,1,,,,,,,,,0,3,3,3,0,3,3,3,,,,,,,,,,,,,,,,,,,,,,,,,,,,,,,,,,,,,,,,,,,,,,,,,,,,,,,1355.9353603010002,None,1355.9353603010002,None,1355.9353603010002,None,m,1,2.708236542999657,1357.4855697310002,None,1357.4855697310002,None,1357.4855697310002,None,1360.251948469,None,1360.251948469,None,1360.251948469,None,1360.251948469,None,,,,,,,,,,,,,,,,,,,,,,,,,,,,,,,,,,,,,,,,,,,,001,1,2020_Jan_28_0858,spring_faces,3.1.5,59.91159660478723,
condition files/Stage1_2.xlsx,,B3,T4,m,"['c', 'm']","['Clue', 'Monopoly']","[-0.15, 0.5]","[0.15, 0.5]",1,1,,,,,,,,,0,3,3,3,0,4,4,6,,,,,,,,,,,,,,,,,,,,,,,,,,,,,,,,,,,,,,,,,,,,,,,,,,,,,,,1362.2187671109998,None,1362.2187671109998,None,1362.2187671109998,None,c,0,1.6262783920001311,1363.751543319,None,1363.751543319,None,1363.751543319,None,1365.4352861720001,None,1365.4352861720001,None,1365.4352861720001,None,1365.4352861720001,None,,,,,,,,,,,,,,,,,,,,,,,,,,,,,,,,,,,,,,,,,,,,001,1,2020_Jan_28_0858,spring_faces,3.1.5,59.91159660478723,
condition files/Stage1_2.xlsx,,T2,B1,c,"['c', 'm']","['Clue', 'Monopoly']","[-0.15, 0.5]","[0.15, 0.5]",1,1,,,,,,,,,0,3,3,3,0,5,5,1,,,,,,,,,,,,,,,,,,,,,,,,,,,,,,,,,,,,,,,,,,,,,,,,,,,,,,,1367.4021190790002,None,1367.4021190790002,None,1367.4021190790002,None,m,0,2.16995593799993,1368.935819688,None,1368.935819688,None,1368.935819688,None,1371.171139236,None,1371.171139236,None,1371.171139236,None,1371.171139236,None,,,,,,,,,,,,,,,,,,,,,,,,,,,,,,,,,,,,,,,,,,,,001,1,2020_Jan_28_0858,spring_faces,3.1.5,59.91159660478723,
condition files/Stage1_2.xlsx,,B1,T1,c,"['c', 'm']","['Clue', 'Monopoly']","[-0.15, 0.5]","[0.15, 0.5]",1,1,,,,,,,,,0,3,3,3,0,6,6,0,,,,,,,,,,,,,,,,,,,,,,,,,,,,,,,,,,,,,,,,,,,,,,,,,,,,,,,1373.135053997,None,1373.135053997,None,1373.135053997,None,m,0,2.5331830989998707,1374.668599675,None,1374.668599675,None,1374.668599675,None,1377.2526252240002,None,1377.2526252240002,None,1377.2526252240002,None,1377.2526252240002,None,,,,,,,,,,,,,,,,,,,,,,,,,,,,,,,,,,,,,,,,,,,,001,1,2020_Jan_28_0858,spring_faces,3.1.5,59.91159660478723,
condition files/Stage1_2.xlsx,,T3,B3,c,"['c', 'm']","['Clue', 'Monopoly']","[-0.15, 0.5]","[0.15, 0.5]",1,1,,,,,,,,,0,3,3,3,0,7,7,4,,,,,,,,,,,,,,,,,,,,,,,,,,,,,,,,,,,,,,,,,,,,,,,,,,,,,,,1379.2187563539999,None,1379.2187563539999,None,1379.2187563539999,None,m,0,3.025866529000268,1380.751960363,None,1380.751960363,None,1380.751960363,None,1383.8352936909998,None,1383.8352936909998,None,1383.8352936909998,None,1383.8352936909998,None,,,,,,,,,,,,,,,,,,,,,,,,,,,,,,,,,,,,,,,,,,,,001,1,2020_Jan_28_0858,spring_faces,3.1.5,59.91159660478723,
condition files/Stage1_1.xlsx,,T4,B3,m,"['c', 'm']","['Clue', 'Monopoly']","[-0.15, 0.5]","[0.15, 0.5]",1,1,,,,,,,,,0,4,4,4,0,0,0,6,,,,,,,,,,,,,,,,,,,,,,,,,,,,,,,,,,,,,,,,,,,,,,,,,,,,,,,1385.8187181269998,None,1385.8187181269998,None,1385.8187181269998,None,c,0,1.2742222809997656,1387.351606432,None,1387.351606432,None,1387.351606432,None,1388.702491158,None,1388.702491158,None,1388.702491158,None,1388.702491158,None,,,,,,,,,,,,,,,,,,,,,,,,,,,,,,,,,,,,,,,,,,,,001,1,2020_Jan_28_0858,spring_faces,3.1.5,59.91159660478723,
condition files/Stage1_1.xlsx,,B2,T1,m,"['c', 'm']","['Clue', 'Monopoly']","[-0.15, 0.5]","[0.15, 0.5]",1,1,,,,,,,,,0,4,4,4,0,1,1,2,,,,,,,,,,,,,,,,,,,,,,,,,,,,,,,,,,,,,,,,,,,,,,,,,,,,,,,1390.652110198,None,1390.652110198,None,1390.652110198,None,m,1,1.478691757999968,1392.1869928509998,None,1392.1869928509998,None,1392.1869928509998,None,1393.71929006,None,1393.71929006,None,1393.71929006,None,1393.71929006,None,,,,,,,,,,,,,,,,,,,,,,,,,,,,,,,,,,,,,,,,,,,,001,1,2020_Jan_28_0858,spring_faces,3.1.5,59.91159660478723,
condition files/Stage1_1.xlsx,,B1,T2,c,"['c', 'm']","['Clue', 'Monopoly']","[-0.15, 0.5]","[0.15, 0.5]",1,1,,,,,,,,,0,4,4,4,0,2,2,1,,,,,,,,,,,,,,,,,,,,,,,,,,,,,,,,,,,,,,,,,,,,,,,,,,,,,,,1395.68490039,None,1395.68490039,None,1395.68490039,None,c,1,2.013806078000016,1397.219960047,None,1397.219960047,None,1397.219960047,None,1399.3024246100001,None,1399.3024246100001,None,1399.3024246100001,None,1399.3024246100001,None,,,,,,,,,,,,,,,,,,,,,,,,,,,,,,,,,,,,,,,,,,,,001,1,2020_Jan_28_0858,spring_faces,3.1.5,59.91159660478723,
condition files/Stage1_1.xlsx,,T3,B4,c,"['c', 'm']","['Clue', 'Monopoly']","[-0.15, 0.5]","[0.15, 0.5]",1,1,,,,,,,,,0,4,4,4,0,3,3,5,,,,,,,,,,,,,,,,,,,,,,,,,,,,,,,,,,,,,,,,,,,,,,,,,,,,,,,1401.25212403,None,1401.25212403,None,1401.25212403,None,c,1,1.3765162539998528,1402.785232173,None,1402.785232173,None,1402.785232173,None,1404.2188204749998,None,1404.2188204749998,None,1404.2188204749998,None,1404.2188204749998,None,,,,,,,,,,,,,,,,,,,,,,,,,,,,,,,,,,,,,,,,,,,,001,1,2020_Jan_28_0858,spring_faces,3.1.5,59.91159660478723,
condition files/Stage1_1.xlsx,,T1,B1,c,"['c', 'm']","['Clue', 'Monopoly']","[-0.15, 0.5]","[0.15, 0.5]",1,1,,,,,,,,,0,4,4,4,0,4,4,0,,,,,,,,,,,,,,,,,,,,,,,,,,,,,,,,,,,,,,,,,,,,,,,,,,,,,,,1406.1849204359999,None,1406.1849204359999,None,1406.1849204359999,None,c,1,1.7539728649999233,1407.735795016,None,1407.735795016,None,1407.735795016,None,1409.551634922,None,1409.551634922,None,1409.551634922,None,1409.551634922,None,,,,,,,,,,,,,,,,,,,,,,,,,,,,,,,,,,,,,,,,,,,,001,1,2020_Jan_28_0858,spring_faces,3.1.5,59.91159660478723,
condition files/Stage1_1.xlsx,,B4,T4,m,"['c', 'm']","['Clue', 'Monopoly']","[-0.15, 0.5]","[0.15, 0.5]",1,1,,,,,,,,,0,4,4,4,0,5,5,7,,,,,,,,,,,,,,,,,,,,,,,,,,,,,,,,,,,,,,,,,,,,,,,,,,,,,,,1411.518842663,None,1411.518842663,None,1411.518842663,None,m,1,1.9240141069999481,1413.0538027639998,None,1413.0538027639998,None,1413.0538027639998,None,1415.0363897549998,None,1415.0363897549998,None,1415.0363897549998,None,1415.0363897549998,None,,,,,,,,,,,,,,,,,,,,,,,,,,,,,,,,,,,,,,,,,,,,001,1,2020_Jan_28_0858,spring_faces,3.1.5,59.91159660478723,
condition files/Stage1_1.xlsx,,B3,T3,c,"['c', 'm']","['Clue', 'Monopoly']","[-0.15, 0.5]","[0.15, 0.5]",1,1,,,,,,,,,0,4,4,4,0,6,6,4,,,,,,,,,,,,,,,,,,,,,,,,,,,,,,,,,,,,,,,,,,,,,,,,,,,,,,,1417.0021035900002,None,1417.0021035900002,None,1417.0021035900002,None,m,0,2.4900313910002296,1418.5357673800002,None,1418.5357673800002,None,1418.5357673800002,None,1421.1023095899998,None,1421.1023095899998,None,1421.1023095899998,None,1421.1023095899998,None,,,,,,,,,,,,,,,,,,,,,,,,,,,,,,,,,,,,,,,,,,,,001,1,2020_Jan_28_0858,spring_faces,3.1.5,59.91159660478723,
condition files/Stage1_1.xlsx,,T2,B2,m,"['c', 'm']","['Clue', 'Monopoly']","[-0.15, 0.5]","[0.15, 0.5]",1,1,,,,,,,,,0,4,4,4,0,7,7,3,,,,,,,,,,,,,,,,,,,,,,,,,,,,,,,,,,,,,,,,,,,,,,,,,,,,,,,1423.052155475,None,1423.052155475,None,1423.052155475,None,c,0,1.5443137050001496,1424.5855091720002,None,1424.5855091720002,None,1424.5855091720002,None,1426.2021907699998,None,1426.2021907699998,None,1426.2021907699998,None,1426.2021907699998,None,,,,,,,,,,,,,,,,,,,,,,,,,,,,,,,,,,,,,,,,,,,,001,1,2020_Jan_28_0858,spring_faces,3.1.5,59.91159660478723,
condition files/Stage1_2.xlsx,,T3,B3,c,"['c', 'm']","['Clue', 'Monopoly']","[-0.15, 0.5]","[0.15, 0.5]",1,1,,,,,,,,,0,5,5,5,0,0,0,4,,,,,,,,,,,,,,,,,,,,,,,,,,,,,,,,,,,,,,,,,,,,,,,,,,,,,,,1428.169140795,None,1428.169140795,None,1428.169140795,None,m,0,1.9635426390000248,1429.702230233,None,1429.702230233,None,1429.702230233,None,1431.7357522640002,None,1431.7357522640002,None,1431.7357522640002,None,1431.7357522640002,None,,,,,,,,,,,,,,,,,,,,,,,,,,,,,,,,,,,,,,,,,,,,001,1,2020_Jan_28_0858,spring_faces,3.1.5,59.91159660478723,
condition files/Stage1_2.xlsx,,B4,T3,c,"['c', 'm']","['Clue', 'Monopoly']","[-0.15, 0.5]","[0.15, 0.5]",1,1,,,,,,,,,0,5,5,5,0,1,1,5,,,,,,,,,,,,,,,,,,,,,,,,,,,,,,,,,,,,,,,,,,,,,,,,,,,,,,,1433.685291993,None,1433.685291993,None,1433.685291993,None,c,1,2.8304151259999344,1435.2192530220002,None,1435.2192530220002,None,1435.2192530220002,None,1438.1024140309999,None,1438.1024140309999,None,1438.1024140309999,None,1438.1024140309999,None,,,,,,,,,,,,,,,,,,,,,,,,,,,,,,,,,,,,,,,,,,,,001,1,2020_Jan_28_0858,spring_faces,3.1.5,59.91159660478723,
condition files/Stage1_2.xlsx,,B3,T4,m,"['c', 'm']","['Clue', 'Monopoly']","[-0.15, 0.5]","[0.15, 0.5]",1,1,,,,,,,,,0,5,5,5,0,2,2,6,,,,,,,,,,,,,,,,,,,,,,,,,,,,,,,,,,,,,,,,,,,,,,,,,,,,,,,1440.0680210369999,None,1440.0680210369999,None,1440.0680210369999,None,c,0,1.1678490730000703,1441.601839405,None,1441.601839405,None,1441.601839405,None,1442.852295211,None,1442.852295211,None,1442.852295211,None,1442.852295211,None,,,,,,,,,,,,,,,,,,,,,,,,,,,,,,,,,,,,,,,,,,,,001,1,2020_Jan_28_0858,spring_faces,3.1.5,59.91159660478723,
condition files/Stage1_2.xlsx,,T4,B4,m,"['c', 'm']","['Clue', 'Monopoly']","[-0.15, 0.5]","[0.15, 0.5]",1,1,,,,,,,,,0,5,5,5,0,3,3,7,,,,,,,,,,,,,,,,,,,,,,,,,,,,,,,,,,,,,,,,,,,,,,,,,,,,,,,1444.8020072440002,None,1444.8020072440002,None,1444.8020072440002,None,m,1,3.2323099810000713,1446.3374170240002,None,1446.3374170240002,None,1446.3374170240002,None,1449.6349432069999,None,1449.6349432069999,None,1449.6349432069999,None,1449.6349432069999,None,,,,,,,,,,,,,,,,,,,,,,,,,,,,,,,,,,,,,,,,,,,,001,1,2020_Jan_28_0858,spring_faces,3.1.5,59.91159660478723,
condition files/Stage1_2.xlsx,,T1,B2,m,"['c', 'm']","['Clue', 'Monopoly']","[-0.15, 0.5]","[0.15, 0.5]",1,1,,,,,,,,,0,5,5,5,0,4,4,2,,,,,,,,,,,,,,,,,,,,,,,,,,,,,,,,,,,,,,,,,,,,,,,,,,,,,,,1451.602213386,None,1451.602213386,None,1451.602213386,None,c,0,1.2158798590003244,1453.1378401559998,None,1453.1378401559998,None,1453.1378401559998,None,1454.419074004,None,1454.419074004,None,1454.419074004,None,1454.419074004,None,,,,,,,,,,,,,,,,,,,,,,,,,,,,,,,,,,,,,,,,,,,,001,1,2020_Jan_28_0858,spring_faces,3.1.5,59.91159660478723,
condition files/Stage1_2.xlsx,,B2,T2,m,"['c', 'm']","['Clue', 'Monopoly']","[-0.15, 0.5]","[0.15, 0.5]",1,1,,,,,,,,,0,5,5,5,0,5,5,3,,,,,,,,,,,,,,,,,,,,,,,,,,,,,,,,,,,,,,,,,,,,,,,,,,,,,,,1456.385474031,None,1456.385474031,None,1456.385474031,None,m,1,4.0814127789999475,1457.920366385,None,1457.920366385,None,1457.920366385,None,1462.052027564,None,1462.052027564,None,1462.052027564,None,1462.052027564,None,,,,,,,,,,,,,,,,,,,,,,,,,,,,,,,,,,,,,,,,,,,,001,1,2020_Jan_28_0858,spring_faces,3.1.5,59.91159660478723,
condition files/Stage1_2.xlsx,,T2,B1,c,"['c', 'm']","['Clue', 'Monopoly']","[-0.15, 0.5]","[0.15, 0.5]",1,1,,,,,,,,,0,5,5,5,0,6,6,1,,,,,,,,,,,,,,,,,,,,,,,,,,,,,,,,,,,,,,,,,,,,,,,,,,,,,,,1464.0180071389998,None,1464.0180071389998,None,1464.0180071389998,None,m,0,4.208247942000071,1465.5535135349999,None,1465.5535135349999,None,1465.5535135349999,None,1469.834947997,None,1469.834947997,None,1469.834947997,None,1469.834947997,None,,,,,,,,,,,,,,,,,,,,,,,,,,,,,,,,,,,,,,,,,,,,001,1,2020_Jan_28_0858,spring_faces,3.1.5,59.91159660478723,
condition files/Stage1_2.xlsx,,B1,T1,c,"['c', 'm']","['Clue', 'Monopoly']","[-0.15, 0.5]","[0.15, 0.5]",1,1,,,,,,,,,0,5,5,5,0,7,7,0,,,,,,,,,,,,,,,,,,,,,,,,,,,,,,,,,,,,,,,,,,,,,,,,,,,,,,,1471.7847988279998,None,1471.7847988279998,None,1471.7847988279998,None,m,0,3.114155713999935,1473.335578079,None,1473.335578079,None,1473.335578079,None,1476.50193426,None,1476.50193426,None,1476.50193426,None,1476.50193426,None,,,,,,,,,,,,,,,,,,,,,,,,,,,,,,,,,,,,,,,,,,,,001,1,2020_Jan_28_0858,spring_faces,3.1.5,59.91159660478723,
condition files/Stage1_1.xlsx,,T1,B1,c,"['c', 'm']","['Clue', 'Monopoly']","[-0.15, 0.5]","[0.15, 0.5]",1,1,,,,,,,,,0,6,6,6,0,0,0,0,,,,,,,,,,,,,,,,,,,,,,,,,,,,,,,,,,,,,,,,,,,,,,,,,,,,,,,1478.485556424,None,1478.485556424,None,1478.485556424,None,c,1,1.0873197219998474,1480.0184512829999,None,1480.0184512829999,None,1480.0184512829999,None,1481.1685545849998,None,1481.1685545849998,None,1481.1685545849998,None,1481.1685545849998,None,,,,,,,,,,,,,,,,,,,,,,,,,,,,,,,,,,,,,,,,,,,,001,1,2020_Jan_28_0858,spring_faces,3.1.5,59.91159660478723,
condition files/Stage1_1.xlsx,,B4,T4,m,"['c', 'm']","['Clue', 'Monopoly']","[-0.15, 0.5]","[0.15, 0.5]",1,1,,,,,,,,,0,6,6,6,0,1,1,7,,,,,,,,,,,,,,,,,,,,,,,,,,,,,,,,,,,,,,,,,,,,,,,,,,,,,,,1483.135379264,None,1483.135379264,None,1483.135379264,None,c,0,1.8132609409999532,1484.6684983779999,None,1484.6684983779999,None,1484.6684983779999,None,1486.535500964,None,1486.535500964,None,1486.535500964,None,1486.535500964,None,,,,,,,,,,,,,,,,,,,,,,,,,,,,,,,,,,,,,,,,,,,,001,1,2020_Jan_28_0858,spring_faces,3.1.5,59.91159660478723,
condition files/Stage1_1.xlsx,,B1,T2,c,"['c', 'm']","['Clue', 'Monopoly']","[-0.15, 0.5]","[0.15, 0.5]",1,1,,,,,,,,,0,6,6,6,0,2,2,1,,,,,,,,,,,,,,,,,,,,,,,,,,,,,,,,,,,,,,,,,,,,,,,,,,,,,,,1488.5020872900002,None,1488.5020872900002,None,1488.5020872900002,None,c,1,1.5642537560001983,1490.0375303879998,None,1490.0375303879998,None,1490.0375303879998,None,1491.6689210430002,None,1491.6689210430002,None,1491.6689210430002,None,1491.6689210430002,None,,,,,,,,,,,,,,,,,,,,,,,,,,,,,,,,,,,,,,,,,,,,001,1,2020_Jan_28_0858,spring_faces,3.1.5,59.91159660478723,
condition files/Stage1_1.xlsx,,B3,T3,c,"['c', 'm']","['Clue', 'Monopoly']","[-0.15, 0.5]","[0.15, 0.5]",1,1,,,,,,,,,0,6,6,6,0,3,3,4,,,,,,,,,,,,,,,,,,,,,,,,,,,,,,,,,,,,,,,,,,,,,,,,,,,,,,,1493.618773335,None,1493.618773335,None,1493.618773335,None,c,1,1.48897490499985,1495.152836686,None,1495.152836686,None,1495.152836686,None,1496.7025786830002,None,1496.7025786830002,None,1496.7025786830002,None,1496.7025786830002,None,,,,,,,,,,,,,,,,,,,,,,,,,,,,,,,,,,,,,,,,,,,,001,1,2020_Jan_28_0858,spring_faces,3.1.5,59.91159660478723,
condition files/Stage1_1.xlsx,,T2,B2,m,"['c', 'm']","['Clue', 'Monopoly']","[-0.15, 0.5]","[0.15, 0.5]",1,1,,,,,,,,,0,6,6,6,0,4,4,3,,,,,,,,,,,,,,,,,,,,,,,,,,,,,,,,,,,,,,,,,,,,,,,,,,,,,,,1498.6687207500001,None,1498.6687207500001,None,1498.6687207500001,None,m,1,2.7896615639997435,1500.204155662,None,1500.204155662,None,1500.204155662,None,1503.0549153519999,None,1503.0549153519999,None,1503.0549153519999,None,1503.0549153519999,None,,,,,,,,,,,,,,,,,,,,,,,,,,,,,,,,,,,,,,,,,,,,001,1,2020_Jan_28_0858,spring_faces,3.1.5,59.91159660478723,
condition files/Stage1_1.xlsx,,T3,B4,c,"['c', 'm']","['Clue', 'Monopoly']","[-0.15, 0.5]","[0.15, 0.5]",1,1,,,,,,,,,0,6,6,6,0,5,5,5,,,,,,,,,,,,,,,,,,,,,,,,,,,,,,,,,,,,,,,,,,,,,,,,,,,,,,,1505.0183014370002,None,1505.0183014370002,None,1505.0183014370002,None,c,1,3.7689584579998154,1506.5528118149998,None,1506.5528118149998,None,1506.5528118149998,None,1510.3881507459998,None,1510.3881507459998,None,1510.3881507459998,None,1510.3881507459998,None,,,,,,,,,,,,,,,,,,,,,,,,,,,,,,,,,,,,,,,,,,,,001,1,2020_Jan_28_0858,spring_faces,3.1.5,59.91159660478723,
condition files/Stage1_1.xlsx,,B2,T1,m,"['c', 'm']","['Clue', 'Monopoly']","[-0.15, 0.5]","[0.15, 0.5]",1,1,,,,,,,,,0,6,6,6,0,6,6,2,,,,,,,,,,,,,,,,,,,,,,,,,,,,,,,,,,,,,,,,,,,,,,,,,,,,,,,1512.352124278,None,1512.352124278,None,1512.352124278,None,m,1,3.298185506000209,1513.8875269819998,None,1513.8875269819998,None,1513.8875269819998,None,1517.252106233,None,1517.252106233,None,1517.252106233,None,1517.252106233,None,,,,,,,,,,,,,,,,,,,,,,,,,,,,,,,,,,,,,,,,,,,,001,1,2020_Jan_28_0858,spring_faces,3.1.5,59.91159660478723,
condition files/Stage1_1.xlsx,,T4,B3,m,"['c', 'm']","['Clue', 'Monopoly']","[-0.15, 0.5]","[0.15, 0.5]",1,1,,,,,,,,,0,6,6,6,0,7,7,6,,,,,,,,,,,,,,,,,,,,,,,,,,,,,,,,,,,,,,,,,,,,,,,,,,,,,,,1519.201381954,None,1519.201381954,None,1519.201381954,None,c,0,5.5704797260000305,1520.7353051429998,None,1520.7353051429998,None,1520.7353051429998,None,1526.3687703449998,None,1526.3687703449998,None,1526.3687703449998,None,1526.3687703449998,None,,,,,,,,,,,,,,,,,,,,,,,,,,,,,,,,,,,,,,,,,,,,001,1,2020_Jan_28_0858,spring_faces,3.1.5,59.91159660478723,
condition files/Stage1_2.xlsx,,T3,B3,c,"['c', 'm']","['Clue', 'Monopoly']","[-0.15, 0.5]","[0.15, 0.5]",1,1,,,,,,,,,0,7,7,7,0,0,0,4,,,,,,,,,,,,,,,,,,,,,,,,,,,,,,,,,,,,,,,,,,,,,,,,,,,,,,,1528.3516636840002,None,1528.3516636840002,None,1528.3516636840002,None,m,0,2.2754227720001836,1529.8863403859998,None,1529.8863403859998,None,1529.8863403859998,None,1532.221289459,None,1532.221289459,None,1532.221289459,None,1532.221289459,None,,,,,,,,,,,,,,,,,,,,,,,,,,,,,,,,,,,,,,,,,,,,001,1,2020_Jan_28_0858,spring_faces,3.1.5,59.91159660478723,
condition files/Stage1_2.xlsx,,T1,B2,m,"['c', 'm']","['Clue', 'Monopoly']","[-0.15, 0.5]","[0.15, 0.5]",1,1,,,,,,,,,0,7,7,7,0,1,1,2,,,,,,,,,,,,,,,,,,,,,,,,,,,,,,,,,,,,,,,,,,,,,,,,,,,,,,,1534.1853135590002,None,1534.1853135590002,None,1534.1853135590002,None,m,1,2.218722394999986,1535.719046384,None,1535.719046384,None,1535.719046384,None,1538.003153336,None,1538.003153336,None,1538.003153336,None,1538.003153336,None,,,,,,,,,,,,,,,,,,,,,,,,,,,,,,,,,,,,,,,,,,,,001,1,2020_Jan_28_0858,spring_faces,3.1.5,59.91159660478723,
condition files/Stage1_2.xlsx,,B2,T2,m,"['c', 'm']","['Clue', 'Monopoly']","[-0.15, 0.5]","[0.15, 0.5]",1,1,,,,,,,,,0,7,7,7,0,2,2,3,,,,,,,,,,,,,,,,,,,,,,,,,,,,,,,,,,,,,,,,,,,,,,,,,,,,,,,1539.9687279940001,None,1539.9687279940001,None,1539.9687279940001,None,c,0,2.3879763470004036,1541.5018094200002,None,1541.5018094200002,None,1541.5018094200002,None,1543.952171754,None,1543.952171754,None,1543.952171754,None,1543.952171754,None,,,,,,,,,,,,,,,,,,,,,,,,,,,,,,,,,,,,,,,,,,,,001,1,2020_Jan_28_0858,spring_faces,3.1.5,59.91159660478723,
condition files/Stage1_2.xlsx,,T4,B4,m,"['c', 'm']","['Clue', 'Monopoly']","[-0.15, 0.5]","[0.15, 0.5]",1,1,,,,,,,,,0,7,7,7,0,3,3,7,,,,,,,,,,,,,,,,,,,,,,,,,,,,,,,,,,,,,,,,,,,,,,,,,,,,,,,1545.918769264,None,1545.918769264,None,1545.918769264,None,c,0,4.245845562999875,1547.451885184,None,1547.451885184,None,1547.451885184,None,1551.7520070080002,None,1551.7520070080002,None,1551.7520070080002,None,1551.7520070080002,None,,,,,,,,,,,,,,,,,,,,,,,,,,,,,,,,,,,,,,,,,,,,001,1,2020_Jan_28_0858,spring_faces,3.1.5,59.91159660478723,
condition files/Stage1_2.xlsx,,B1,T1,c,"['c', 'm']","['Clue', 'Monopoly']","[-0.15, 0.5]","[0.15, 0.5]",1,1,,,,,,,,,0,7,7,7,0,4,4,0,,,,,,,,,,,,,,,,,,,,,,,,,,,,,,,,,,,,,,,,,,,,,,,,,,,,,,,1553.71838357,None,1553.71838357,None,1553.71838357,None,c,1,2.3489174139999704,1555.2688534350002,None,1555.2688534350002,None,1555.2688534350002,None,1557.6717771239998,None,1557.6717771239998,None,1557.6717771239998,None,1557.6717771239998,None,,,,,,,,,,,,,,,,,,,,,,,,,,,,,,,,,,,,,,,,,,,,001,1,2020_Jan_28_0858,spring_faces,3.1.5,59.91159660478723,
condition files/Stage1_2.xlsx,,T2,B1,c,"['c', 'm']","['Clue', 'Monopoly']","[-0.15, 0.5]","[0.15, 0.5]",1,1,,,,,,,,,0,7,7,7,0,5,5,1,,,,,,,,,,,,,,,,,,,,,,,,,,,,,,,,,,,,,,,,,,,,,,,,,,,,,,,1559.6353716639999,None,1559.6353716639999,None,1559.6353716639999,None,m,0,1.7911913110001478,1561.1705678390001,None,1561.1705678390001,None,1561.1705678390001,None,1563.0184584800002,None,1563.0184584800002,None,1563.0184584800002,None,1563.0184584800002,None,,,,,,,,,,,,,,,,,,,,,,,,,,,,,,,,,,,,,,,,,,,,001,1,2020_Jan_28_0858,spring_faces,3.1.5,59.91159660478723,
condition files/Stage1_2.xlsx,,B3,T4,m,"['c', 'm']","['Clue', 'Monopoly']","[-0.15, 0.5]","[0.15, 0.5]",1,1,,,,,,,,,0,7,7,7,0,6,6,6,,,,,,,,,,,,,,,,,,,,,,,,,,,,,,,,,,,,,,,,,,,,,,,,,,,,,,,1564.984604608,None,1564.984604608,None,1564.984604608,None,c,0,4.411244160000024,1566.518551427,None,1566.518551427,None,1566.518551427,None,1570.98741734,None,1570.98741734,None,1570.98741734,None,1570.98741734,None,,,,,,,,,,,,,,,,,,,,,,,,,,,,,,,,,,,,,,,,,,,,001,1,2020_Jan_28_0858,spring_faces,3.1.5,59.91159660478723,
condition files/Stage1_2.xlsx,,B4,T3,c,"['c', 'm']","['Clue', 'Monopoly']","[-0.15, 0.5]","[0.15, 0.5]",1,1,,,,,,,,,0,7,7,7,0,7,7,5,,,,,,,,,,,,,,,,,,,,,,,,,,,,,,,,,,,,,,,,,,,,,,,,,,,,,,,1572.952183604,None,1572.952183604,None,1572.952183604,None,c,1,4.475778509000065,1574.4859695530001,None,1574.4859695530001,None,1574.4859695530001,None,1579.019993438,None,1579.019993438,None,1579.019993438,None,1579.019993438,None,,,,,,,,,,,,,,,,,,,,,,,,,,,,,,,,,,,,,,,,,,,,001,1,2020_Jan_28_0858,spring_faces,3.1.5,59.91159660478723,
condition files/Stage1_1.xlsx,,T3,B4,c,"['c', 'm']","['Clue', 'Monopoly']","[-0.15, 0.5]","[0.15, 0.5]",1,1,,,,,,,,,0,8,8,8,0,0,0,5,,,,,,,,,,,,,,,,,,,,,,,,,,,,,,,,,,,,,,,,,,,,,,,,,,,,,,,1581.0019803950001,None,1581.0019803950001,None,1581.0019803950001,None,c,1,2.3119712059997255,1582.5377900310002,None,1582.5377900310002,None,1582.5377900310002,None,1584.9021756210002,None,1584.9021756210002,None,1584.9021756210002,None,1584.9021756210002,None,,,,,,,,,,,,,,,,,,,,,,,,,,,,,,,,,,,,,,,,,,,,001,1,2020_Jan_28_0858,spring_faces,3.1.5,59.91159660478723,
condition files/Stage1_1.xlsx,,B3,T3,c,"['c', 'm']","['Clue', 'Monopoly']","[-0.15, 0.5]","[0.15, 0.5]",1,1,,,,,,,,,0,8,8,8,0,1,1,4,,,,,,,,,,,,,,,,,,,,,,,,,,,,,,,,,,,,,,,,,,,,,,,,,,,,,,,1586.8687435099998,None,1586.8687435099998,None,1586.8687435099998,None,m,0,1.758489549999922,1588.403279981,None,1588.403279981,None,1588.403279981,None,1590.2183274860001,None,1590.2183274860001,None,1590.2183274860001,None,1590.2183274860001,None,,,,,,,,,,,,,,,,,,,,,,,,,,,,,,,,,,,,,,,,,,,,001,1,2020_Jan_28_0858,spring_faces,3.1.5,59.91159660478723,
condition files/Stage1_1.xlsx,,T2,B2,m,"['c', 'm']","['Clue', 'Monopoly']","[-0.15, 0.5]","[0.15, 0.5]",1,1,,,,,,,,,0,8,8,8,0,2,2,3,,,,,,,,,,,,,,,,,,,,,,,,,,,,,,,,,,,,,,,,,,,,,,,,,,,,,,,1592.1854136979998,None,1592.1854136979998,None,1592.1854136979998,None,m,1,2.297487263000221,1593.720293743,None,1593.720293743,None,1593.720293743,None,1596.085234803,None,1596.085234803,None,1596.085234803,None,1596.085234803,None,,,,,,,,,,,,,,,,,,,,,,,,,,,,,,,,,,,,,,,,,,,,001,1,2020_Jan_28_0858,spring_faces,3.1.5,59.91159660478723,
condition files/Stage1_1.xlsx,,B1,T2,c,"['c', 'm']","['Clue', 'Monopoly']","[-0.15, 0.5]","[0.15, 0.5]",1,1,,,,,,,,,0,8,8,8,0,3,3,1,,,,,,,,,,,,,,,,,,,,,,,,,,,,,,,,,,,,,,,,,,,,,,,,,,,,,,,1598.0353775310002,None,1598.0353775310002,None,1598.0353775310002,None,c,1,2.737612702000206,1599.5681703910002,None,1599.5681703910002,None,1599.5681703910002,None,1602.3856269740002,None,1602.3856269740002,None,1602.3856269740002,None,1602.3856269740002,None,,,,,,,,,,,,,,,,,,,,,,,,,,,,,,,,,,,,,,,,,,,,001,1,2020_Jan_28_0858,spring_faces,3.1.5,59.91159660478723,
condition files/Stage1_1.xlsx,,T1,B1,c,"['c', 'm']","['Clue', 'Monopoly']","[-0.15, 0.5]","[0.15, 0.5]",1,1,,,,,,,,,0,8,8,8,0,4,4,0,,,,,,,,,,,,,,,,,,,,,,,,,,,,,,,,,,,,,,,,,,,,,,,,,,,,,,,1604.3354658669998,None,1604.3354658669998,None,1604.3354658669998,None,m,0,6.436641555999813,1605.885119415,None,1605.885119415,None,1605.885119415,None,1612.3858501860002,None,1612.3858501860002,None,1612.3858501860002,None,1612.3858501860002,None,,,,,,,,,,,,,,,,,,,,,,,,,,,,,,,,,,,,,,,,,,,,001,1,2020_Jan_28_0858,spring_faces,3.1.5,59.91159660478723,
condition files/Stage1_1.xlsx,,T4,B3,m,"['c', 'm']","['Clue', 'Monopoly']","[-0.15, 0.5]","[0.15, 0.5]",1,1,,,,,,,,,0,8,8,8,0,5,5,6,,,,,,,,,,,,,,,,,,,,,,,,,,,,,,,,,,,,,,,,,,,,,,,,,,,,,,,1614.3516244169998,None,1614.3516244169998,None,1614.3516244169998,None,c,0,7.506619170999784,1615.88720613,None,1615.88720613,None,1615.88720613,None,1623.453295517,None,1623.453295517,None,1623.453295517,None,1623.453295517,None,,,,,,,,,,,,,,,,,,,,,,,,,,,,,,,,,,,,,,,,,,,,001,1,2020_Jan_28_0858,spring_faces,3.1.5,59.91159660478723,
condition files/Stage1_1.xlsx,,B4,T4,m,"['c', 'm']","['Clue', 'Monopoly']","[-0.15, 0.5]","[0.15, 0.5]",1,1,,,,,,,,,0,8,8,8,0,6,6,7,,,,,,,,,,,,,,,,,,,,,,,,,,,,,,,,,,,,,,,,,,,,,,,,,,,,,,,1625.4186613549998,None,1625.4186613549998,None,1625.4186613549998,None,c,0,3.97590847399988,1626.953901699,None,1626.953901699,None,1626.953901699,None,1630.9856897910001,None,1630.9856897910001,None,1630.9856897910001,None,1630.9856897910001,None,,,,,,,,,,,,,,,,,,,,,,,,,,,,,,,,,,,,,,,,,,,,001,1,2020_Jan_28_0858,spring_faces,3.1.5,59.91159660478723,
condition files/Stage1_1.xlsx,,B2,T1,m,"['c', 'm']","['Clue', 'Monopoly']","[-0.15, 0.5]","[0.15, 0.5]",1,1,,,,,,,,,0,8,8,8,0,7,7,2,,,,,,,,,,,,,,,,,,,,,,,,,,,,,,,,,,,,,,,,,,,,,,,,,,,,,,,1632.9520677540002,None,1632.9520677540002,None,1632.9520677540002,None,m,1,1.3235688760000812,1634.48625483,None,1634.48625483,None,1634.48625483,None,1635.868552863,None,1635.868552863,None,1635.868552863,None,1635.868552863,None,,,,,,,,,,,,,,,,,,,,,,,,,,,,,,,,,,,,,,,,,,,,001,1,2020_Jan_28_0858,spring_faces,3.1.5,59.91159660478723,
condition files/Stage1_2.xlsx,,B3,T4,m,"['c', 'm']","['Clue', 'Monopoly']","[-0.15, 0.5]","[0.15, 0.5]",1,1,,,,,,,,,0,9,9,9,0,0,0,6,,,,,,,,,,,,,,,,,,,,,,,,,,,,,,,,,,,,,,,,,,,,,,,,,,,,,,,1637.8521977819998,None,1637.8521977819998,None,1637.8521977819998,None,c,0,2.4246316200001274,1639.3852029789998,None,1639.3852029789998,None,1639.3852029789998,None,1641.868787487,None,1641.868787487,None,1641.868787487,None,1641.868787487,None,,,,,,,,,,,,,,,,,,,,,,,,,,,,,,,,,,,,,,,,,,,,001,1,2020_Jan_28_0858,spring_faces,3.1.5,59.91159660478723,
condition files/Stage1_2.xlsx,,B2,T2,m,"['c', 'm']","['Clue', 'Monopoly']","[-0.15, 0.5]","[0.15, 0.5]",1,1,,,,,,,,,0,9,9,9,0,1,1,3,,,,,,,,,,,,,,,,,,,,,,,,,,,,,,,,,,,,,,,,,,,,,,,,,,,,,,,1643.8353866730001,None,1643.8353866730001,None,1643.8353866730001,None,m,1,1.6250946059999478,1645.368716308,None,1645.368716308,None,1645.368716308,None,1647.0519520720002,None,1647.0519520720002,None,1647.0519520720002,None,1647.0519520720002,None,,,,,,,,,,,,,,,,,,,,,,,,,,,,,,,,,,,,,,,,,,,,001,1,2020_Jan_28_0858,spring_faces,3.1.5,59.91159660478723,
condition files/Stage1_2.xlsx,,B1,T1,c,"['c', 'm']","['Clue', 'Monopoly']","[-0.15, 0.5]","[0.15, 0.5]",1,1,,,,,,,,,0,9,9,9,0,2,2,0,,,,,,,,,,,,,,,,,,,,,,,,,,,,,,,,,,,,,,,,,,,,,,,,,,,,,,,1649.017968453,None,1649.017968453,None,1649.017968453,None,c,1,3.4974493669997173,1650.5523144760002,None,1650.5523144760002,None,1650.5523144760002,None,1654.1186200670002,None,1654.1186200670002,None,1654.1186200670002,None,1654.1186200670002,None,,,,,,,,,,,,,,,,,,,,,,,,,,,,,,,,,,,,,,,,,,,,001,1,2020_Jan_28_0858,spring_faces,3.1.5,59.91159660478723,
condition files/Stage1_2.xlsx,,B4,T3,c,"['c', 'm']","['Clue', 'Monopoly']","[-0.15, 0.5]","[0.15, 0.5]",1,1,,,,,,,,,0,9,9,9,0,3,3,5,,,,,,,,,,,,,,,,,,,,,,,,,,,,,,,,,,,,,,,,,,,,,,,,,,,,,,,1656.0686834780001,None,1656.0686834780001,None,1656.0686834780001,None,c,1,2.3018273579996276,1657.603968476,None,1657.603968476,None,1657.603968476,None,1659.9690202519998,None,1659.9690202519998,None,1659.9690202519998,None,1659.9690202519998,None,,,,,,,,,,,,,,,,,,,,,,,,,,,,,,,,,,,,,,,,,,,,001,1,2020_Jan_28_0858,spring_faces,3.1.5,59.91159660478723,
condition files/Stage1_2.xlsx,,T1,B2,m,"['c', 'm']","['Clue', 'Monopoly']","[-0.15, 0.5]","[0.15, 0.5]",1,1,,,,,,,,,0,9,9,9,0,4,4,2,,,,,,,,,,,,,,,,,,,,,,,,,,,,,,,,,,,,,,,,,,,,,,,,,,,,,,,1661.9353888889998,None,1661.9353888889998,None,1661.9353888889998,None,c,0,0.852907974000118,1663.4688813159999,None,1663.4688813159999,None,1663.4688813159999,None,1664.387805739,None,1664.387805739,None,1664.387805739,None,1664.387805739,None,,,,,,,,,,,,,,,,,,,,,,,,,,,,,,,,,,,,,,,,,,,,001,1,2020_Jan_28_0858,spring_faces,3.1.5,59.91159660478723,
condition files/Stage1_2.xlsx,,T2,B1,c,"['c', 'm']","['Clue', 'Monopoly']","[-0.15, 0.5]","[0.15, 0.5]",1,1,,,,,,,,,0,9,9,9,0,5,5,1,,,,,,,,,,,,,,,,,,,,,,,,,,,,,,,,,,,,,,,,,,,,,,,,,,,,,,,1666.35160122,None,1666.35160122,None,1666.35160122,None,c,1,2.0015930950003167,1667.888172795,None,1667.888172795,None,1667.888172795,None,1669.968738462,None,1669.968738462,None,1669.968738462,None,1669.968738462,None,,,,,,,,,,,,,,,,,,,,,,,,,,,,,,,,,,,,,,,,,,,,001,1,2020_Jan_28_0858,spring_faces,3.1.5,59.91159660478723,
condition files/Stage1_2.xlsx,,T4,B4,m,"['c', 'm']","['Clue', 'Monopoly']","[-0.15, 0.5]","[0.15, 0.5]",1,1,,,,,,,,,0,9,9,9,0,6,6,7,,,,,,,,,,,,,,,,,,,,,,,,,,,,,,,,,,,,,,,,,,,,,,,,,,,,,,,1671.9187980650001,None,1671.9187980650001,None,1671.9187980650001,None,c,0,1.8457762729999558,1673.451981808,None,1673.451981808,None,1673.451981808,None,1675.3685658860002,None,1675.3685658860002,None,1675.3685658860002,None,1675.3685658860002,None,,,,,,,,,,,,,,,,,,,,,,,,,,,,,,,,,,,,,,,,,,,,001,1,2020_Jan_28_0858,spring_faces,3.1.5,59.91159660478723,
condition files/Stage1_2.xlsx,,T3,B3,c,"['c', 'm']","['Clue', 'Monopoly']","[-0.15, 0.5]","[0.15, 0.5]",1,1,,,,,,,,,0,9,9,9,0,7,7,4,,,,,,,,,,,,,,,,,,,,,,,,,,,,,,,,,,,,,,,,,,,,,,,,,,,,,,,1677.3189124120001,None,1677.3189124120001,None,1677.3189124120001,None,c,1,2.6365179279996482,1678.8532445839999,None,1678.8532445839999,None,1678.8532445839999,None,1681.5691358299998,None,1681.5691358299998,None,1681.5691358299998,None,1681.5691358299998,None,,,,,,,,,,,,,,,,,,,,,,,,,,,,,,,,,,,,,,,,,,,,001,1,2020_Jan_28_0858,spring_faces,3.1.5,59.91159660478723,
condition files/Stage1_1.xlsx,,B1,T2,c,"['c', 'm']","['Clue', 'Monopoly']","[-0.15, 0.5]","[0.15, 0.5]",1,1,,,,,,,,,0,10,10,10,0,0,0,1,,,,,,,,,,,,,,,,,,,,,,,,,,,,,,,,,,,,,,,,,,,,,,,,,,,,,,,1683.53563379,None,1683.53563379,None,1683.53563379,None,m,0,2.70841839600007,1685.069411579,None,1685.069411579,None,1685.069411579,None,1687.835296592,None,1687.835296592,None,1687.835296592,None,1687.835296592,None,,,,,,,,,,,,,,,,,,,,,,,,,,,,,,,,,,,,,,,,,,,,001,1,2020_Jan_28_0858,spring_faces,3.1.5,59.91159660478723,
condition files/Stage1_1.xlsx,,T3,B4,c,"['c', 'm']","['Clue', 'Monopoly']","[-0.15, 0.5]","[0.15, 0.5]",1,1,,,,,,,,,0,10,10,10,0,1,1,5,,,,,,,,,,,,,,,,,,,,,,,,,,,,,,,,,,,,,,,,,,,,,,,,,,,,,,,1689.80184574,None,1689.80184574,None,1689.80184574,None,c,1,3.194036216999848,1691.3357355229998,None,1691.3357355229998,None,1691.3357355229998,None,1694.585608965,None,1694.585608965,None,1694.585608965,None,1694.585608965,None,,,,,,,,,,,,,,,,,,,,,,,,,,,,,,,,,,,,,,,,,,,,001,1,2020_Jan_28_0858,spring_faces,3.1.5,59.91159660478723,
condition files/Stage1_1.xlsx,,B2,T1,m,"['c', 'm']","['Clue', 'Monopoly']","[-0.15, 0.5]","[0.15, 0.5]",1,1,,,,,,,,,0,10,10,10,0,2,2,2,,,,,,,,,,,,,,,,,,,,,,,,,,,,,,,,,,,,,,,,,,,,,,,,,,,,,,,1696.552005104,None,1696.552005104,None,1696.552005104,None,m,1,1.883435599999757,1698.1023380939998,None,1698.1023380939998,None,1698.1023380939998,None,1700.0519807849998,None,1700.0519807849998,None,1700.0519807849998,None,1700.0519807849998,None,,,,,,,,,,,,,,,,,,,,,,,,,,,,,,,,,,,,,,,,,,,,001,1,2020_Jan_28_0858,spring_faces,3.1.5,59.91159660478723,
condition files/Stage1_1.xlsx,,B3,T3,c,"['c', 'm']","['Clue', 'Monopoly']","[-0.15, 0.5]","[0.15, 0.5]",1,1,,,,,,,,,0,10,10,10,0,3,3,4,,,,,,,,,,,,,,,,,,,,,,,,,,,,,,,,,,,,,,,,,,,,,,,,,,,,,,,1702.001361116,None,1702.001361116,None,1702.001361116,None,m,0,2.0638990140000715,1703.5378830319999,None,1703.5378830319999,None,1703.5378830319999,None,1705.66889603,None,1705.66889603,None,1705.66889603,None,1705.66889603,None,,,,,,,,,,,,,,,,,,,,,,,,,,,,,,,,,,,,,,,,,,,,001,1,2020_Jan_28_0858,spring_faces,3.1.5,59.91159660478723,
condition files/Stage1_1.xlsx,,B4,T4,m,"['c', 'm']","['Clue', 'Monopoly']","[-0.15, 0.5]","[0.15, 0.5]",1,1,,,,,,,,,0,10,10,10,0,4,4,7,,,,,,,,,,,,,,,,,,,,,,,,,,,,,,,,,,,,,,,,,,,,,,,,,,,,,,,1707.6187649689998,None,1707.6187649689998,None,1707.6187649689998,None,c,0,2.3520687469999757,1709.153725687,None,1709.153725687,None,1709.153725687,None,1711.5850917999999,None,1711.5850917999999,None,1711.5850917999999,None,1711.5850917999999,None,,,,,,,,,,,,,,,,,,,,,,,,,,,,,,,,,,,,,,,,,,,,001,1,2020_Jan_28_0858,spring_faces,3.1.5,59.91159660478723,
condition files/Stage1_1.xlsx,,T2,B2,m,"['c', 'm']","['Clue', 'Monopoly']","[-0.15, 0.5]","[0.15, 0.5]",1,1,,,,,,,,,0,10,10,10,0,5,5,3,,,,,,,,,,,,,,,,,,,,,,,,,,,,,,,,,,,,,,,,,,,,,,,,,,,,,,,1713.5358514850002,None,1713.5358514850002,None,1713.5358514850002,None,m,1,1.9407292010000674,1715.0850808500002,None,1715.0850808500002,None,1715.0850808500002,None,1717.084769195,None,1717.084769195,None,1717.084769195,None,1717.084769195,None,,,,,,,,,,,,,,,,,,,,,,,,,,,,,,,,,,,,,,,,,,,,001,1,2020_Jan_28_0858,spring_faces,3.1.5,59.91159660478723,
condition files/Stage1_1.xlsx,,T1,B1,c,"['c', 'm']","['Clue', 'Monopoly']","[-0.15, 0.5]","[0.15, 0.5]",1,1,,,,,,,,,0,10,10,10,0,6,6,0,,,,,,,,,,,,,,,,,,,,,,,,,,,,,,,,,,,,,,,,,,,,,,,,,,,,,,,1719.0522028040002,None,1719.0522028040002,None,1719.0522028040002,None,c,1,1.783207394999863,1720.586525545,None,1720.586525545,None,1720.586525545,None,1722.45224045,None,1722.45224045,None,1722.45224045,None,1722.45224045,None,,,,,,,,,,,,,,,,,,,,,,,,,,,,,,,,,,,,,,,,,,,,001,1,2020_Jan_28_0858,spring_faces,3.1.5,59.91159660478723,
condition files/Stage1_1.xlsx,,T4,B3,m,"['c', 'm']","['Clue', 'Monopoly']","[-0.15, 0.5]","[0.15, 0.5]",1,1,,,,,,,,,0,10,10,10,0,7,7,6,,,,,,,,,,,,,,,,,,,,,,,,,,,,,,,,,,,,,,,,,,,,,,,,,,,,,,,1724.4016533870001,None,1724.4016533870001,None,1724.4016533870001,None,c,0,1.2336922200001936,1725.936026139,None,1725.936026139,None,1725.936026139,None,1727.235115007,None,1727.235115007,None,1727.235115007,None,1727.235115007,None,,,,,,,,,,,,,,,,,,,,,,,,,,,,,,,,,,,,,,,,,,,,001,1,2020_Jan_28_0858,spring_faces,3.1.5,59.91159660478723,
condition files/Stage1_2.xlsx,,B4,T3,c,"['c', 'm']","['Clue', 'Monopoly']","[-0.15, 0.5]","[0.15, 0.5]",1,1,,,,,,,,,0,11,11,11,0,0,0,5,,,,,,,,,,,,,,,,,,,,,,,,,,,,,,,,,,,,,,,,,,,,,,,,,,,,,,,1729.218360013,None,1729.218360013,None,1729.218360013,None,m,0,5.519363735999832,1730.7544331319998,None,1730.7544331319998,None,1730.7544331319998,None,1736.352521467,None,1736.352521467,None,1736.352521467,None,1736.352521467,None,,,,,,,,,,,,,,,,,,,,,,,,,,,,,,,,,,,,,,,,,,,,001,1,2020_Jan_28_0858,spring_faces,3.1.5,59.91159660478723,
condition files/Stage1_2.xlsx,,B2,T2,m,"['c', 'm']","['Clue', 'Monopoly']","[-0.15, 0.5]","[0.15, 0.5]",1,1,,,,,,,,,0,11,11,11,0,1,1,3,,,,,,,,,,,,,,,,,,,,,,,,,,,,,,,,,,,,,,,,,,,,,,,,,,,,,,,1738.3022417670002,None,1738.3022417670002,None,1738.3022417670002,None,c,0,3.70125268899983,1739.8365166830001,None,1739.8365166830001,None,1739.8365166830001,None,1743.60443874,None,1743.60443874,None,1743.60443874,None,1743.60443874,None,,,,,,,,,,,,,,,,,,,,,,,,,,,,,,,,,,,,,,,,,,,,001,1,2020_Jan_28_0858,spring_faces,3.1.5,59.91159660478723,
condition files/Stage1_2.xlsx,,T3,B3,c,"['c', 'm']","['Clue', 'Monopoly']","[-0.15, 0.5]","[0.15, 0.5]",1,1,,,,,,,,,0,11,11,11,0,2,2,4,,,,,,,,,,,,,,,,,,,,,,,,,,,,,,,,,,,,,,,,,,,,,,,,,,,,,,,1745.5688275179998,None,1745.5688275179998,None,1745.5688275179998,None,c,1,1.3478465409998535,1747.1019193999998,None,1747.1019193999998,None,1747.1019193999998,None,1748.518818033,None,1748.518818033,None,1748.518818033,None,1748.518818033,None,,,,,,,,,,,,,,,,,,,,,,,,,,,,,,,,,,,,,,,,,,,,001,1,2020_Jan_28_0858,spring_faces,3.1.5,59.91159660478723,
condition files/Stage1_2.xlsx,,T2,B1,c,"['c', 'm']","['Clue', 'Monopoly']","[-0.15, 0.5]","[0.15, 0.5]",1,1,,,,,,,,,0,11,11,11,0,3,3,1,,,,,,,,,,,,,,,,,,,,,,,,,,,,,,,,,,,,,,,,,,,,,,,,,,,,,,,1750.4687595120001,None,1750.4687595120001,None,1750.4687595120001,None,m,0,6.175397645999965,1752.0184189099998,None,1752.0184189099998,None,1752.0184189099998,None,1758.251704087,None,1758.251704087,None,1758.251704087,None,1758.251704087,None,,,,,,,,,,,,,,,,,,,,,,,,,,,,,,,,,,,,,,,,,,,,001,1,2020_Jan_28_0858,spring_faces,3.1.5,59.91159660478723,
condition files/Stage1_2.xlsx,,B1,T1,c,"['c', 'm']","['Clue', 'Monopoly']","[-0.15, 0.5]","[0.15, 0.5]",1,1,,,,,,,,,0,11,11,11,0,4,4,0,,,,,,,,,,,,,,,,,,,,,,,,,,,,,,,,,,,,,,,,,,,,,,,,,,,,,,,1760.2188137350001,None,1760.2188137350001,None,1760.2188137350001,None,c,1,3.0962896440000804,1761.753468903,None,1761.753468903,None,1761.753468903,None,1764.902907644,None,1764.902907644,None,1764.902907644,None,1764.902907644,None,,,,,,,,,,,,,,,,,,,,,,,,,,,,,,,,,,,,,,,,,,,,001,1,2020_Jan_28_0858,spring_faces,3.1.5,59.91159660478723,
condition files/Stage1_2.xlsx,,B3,T4,m,"['c', 'm']","['Clue', 'Monopoly']","[-0.15, 0.5]","[0.15, 0.5]",1,1,,,,,,,,,0,11,11,11,0,5,5,6,,,,,,,,,,,,,,,,,,,,,,,,,,,,,,,,,,,,,,,,,,,,,,,,,,,,,,,1766.868747974,None,1766.868747974,None,1766.868747974,None,c,0,0.9435446580000644,1768.4022757330001,None,1768.4022757330001,None,1768.4022757330001,None,1769.418262468,None,1769.418262468,None,1769.418262468,None,1769.418262468,None,,,,,,,,,,,,,,,,,,,,,,,,,,,,,,,,,,,,,,,,,,,,001,1,2020_Jan_28_0858,spring_faces,3.1.5,59.91159660478723,
condition files/Stage1_2.xlsx,,T1,B2,m,"['c', 'm']","['Clue', 'Monopoly']","[-0.15, 0.5]","[0.15, 0.5]",1,1,,,,,,,,,0,11,11,11,0,6,6,2,,,,,,,,,,,,,,,,,,,,,,,,,,,,,,,,,,,,,,,,,,,,,,,,,,,,,,,1771.368833578,None,1771.368833578,None,1771.368833578,None,m,1,4.138393636999808,1772.903322843,None,1772.903322843,None,1772.903322843,None,1777.1019979989999,None,1777.1019979989999,None,1777.1019979989999,None,1777.1019979989999,None,,,,,,,,,,,,,,,,,,,,,,,,,,,,,,,,,,,,,,,,,,,,001,1,2020_Jan_28_0858,spring_faces,3.1.5,59.91159660478723,
condition files/Stage1_2.xlsx,,T4,B4,m,"['c', 'm']","['Clue', 'Monopoly']","[-0.15, 0.5]","[0.15, 0.5]",1,1,,,,,,,,,0,11,11,11,0,7,7,7,,,,,,,,,,,,,,,,,,,,,,,,,,,,,,,,,,,,,,,,,,,,,,,,,,,,,,,1779.0687946780001,None,1779.0687946780001,None,1779.0687946780001,None,c,0,1.8481994089997897,1780.601556921,None,1780.601556921,None,1780.601556921,None,1782.5021786569998,None,1782.5021786569998,None,1782.5021786569998,None,1782.5021786569998,None,,,,,,,,,,,,,,,,,,,,,,,,,,,,,,,,,,,,,,,,,,,,001,1,2020_Jan_28_0858,spring_faces,3.1.5,59.91159660478723,
,,,,,,,,,,,,,,,,,,,,,,,,,,,,,,,,,,,,,,,,,,,,,,,,,,,,,,,,,,,,,,,,,,,,,,,,,,,,,,,,,,,,,,,,,,,,,,,,,,,,,,,,,,,,,,,,1784.4859556580002,None,space,11.36423570099987,1789.4855297790002,None,,,,,,,,,,,,,,,,,,,,,,,,,,,,,,001,1,2020_Jan_28_0858,spring_faces,3.1.5,59.91159660478723,
condition files/Stage2_1.xlsx,,T1,B1,s,"['s', 'r']","['Stratego', 'Risk']","[-0.15, 0.5]","[0.15, 0.5]",1,1,,,,,,,,,,,,,,,,,0,0,0,0,0,0,0,2,,,,,,,,,,,,,,,,,,,,,,,,,,,,,,,,,,,,,,,,,,,,,,,1800.951772876,None,1800.951772876,None,1800.951772876,None,s,1,5.662641536000137,1802.419130598,None,1802.419130598,None,1802.419130598,None,1808.152270582,None,1808.152270582,None,1808.152270582,None,1808.152270582,None,,,,,,,,,,,,,,,1789.4855297790002,None,,,,,,,,,,,,,,,,,,,,,,,,,,,,001,1,2020_Jan_28_0858,spring_faces,3.1.5,59.91159660478723,
condition files/Stage2_1.xlsx,,B6,T6,r,"['s', 'r']","['Stratego', 'Risk']","[-0.15, 0.5]","[0.15, 0.5]",1,1,,,,,,,,,,,,,,,,,0,0,0,0,0,1,1,1,,,,,,,,,,,,,,,,,,,,,,,,,,,,,,,,,,,,,,,,,,,,,,,1810.1020828580001,None,1810.1020828580001,None,1810.1020828580001,None,r,1,2.0923716130000685,1811.685459424,None,1811.685459424,None,1811.685459424,None,1813.8372661239998,None,1813.8372661239998,None,1813.8372661239998,None,1813.8372661239998,None,,,,,,,,,,,,,,,,,,,,,,,,,,,,,,,,,,,,,,,,,,,,001,1,2020_Jan_28_0858,spring_faces,3.1.5,59.91159660478723,
condition files/Stage2_1.xlsx,,B4,T4,r,"['s', 'r']","['Stratego', 'Risk']","[-0.15, 0.5]","[0.15, 0.5]",1,1,,,,,,,,,,,,,,,,,0,0,0,0,0,2,2,5,,,,,,,,,,,,,,,,,,,,,,,,,,,,,,,,,,,,,,,,,,,,,,,1815.801407232,None,1815.801407232,None,1815.801407232,None,s,0,1.1122769650000919,1817.337480029,None,1817.337480029,None,1817.337480029,None,1818.5022669090001,None,1818.5022669090001,None,1818.5022669090001,None,1818.5022669090001,None,,,,,,,,,,,,,,,,,,,,,,,,,,,,,,,,,,,,,,,,,,,,001,1,2020_Jan_28_0858,spring_faces,3.1.5,59.91159660478723,
condition files/Stage2_1.xlsx,,T3,B3,s,"['s', 'r']","['Stratego', 'Risk']","[-0.15, 0.5]","[0.15, 0.5]",1,1,,,,,,,,,,,,,,,,,0,0,0,0,0,3,3,4,,,,,,,,,,,,,,,,,,,,,,,,,,,,,,,,,,,,,,,,,,,,,,,1820.468054582,None,1820.468054582,None,1820.468054582,None,s,1,2.079461163999895,1822.0182513339998,None,1822.0182513339998,None,1822.0182513339998,None,1824.152412267,None,1824.152412267,None,1824.152412267,None,1824.152412267,None,,,,,,,,,,,,,,,,,,,,,,,,,,,,,,,,,,,,,,,,,,,,001,1,2020_Jan_28_0858,spring_faces,3.1.5,59.91159660478723,
condition files/Stage2_1.xlsx,,T5,B5,s,"['s', 'r']","['Stratego', 'Risk']","[-0.15, 0.5]","[0.15, 0.5]",1,1,,,,,,,,,,,,,,,,,0,0,0,0,0,4,4,0,,,,,,,,,,,,,,,,,,,,,,,,,,,,,,,,,,,,,,,,,,,,,,,1826.118733431,None,1826.118733431,None,1826.118733431,None,r,0,2.571392246999949,1827.718353171,None,1827.718353171,None,1827.718353171,None,1830.351981727,None,1830.351981727,None,1830.351981727,None,1830.351981727,None,,,,,,,,,,,,,,,,,,,,,,,,,,,,,,,,,,,,,,,,,,,,001,1,2020_Jan_28_0858,spring_faces,3.1.5,59.91159660478723,
condition files/Stage2_1.xlsx,,B2,T2,r,"['s', 'r']","['Stratego', 'Risk']","[-0.15, 0.5]","[0.15, 0.5]",1,1,,,,,,,,,,,,,,,,,0,0,0,0,0,5,5,3,,,,,,,,,,,,,,,,,,,,,,,,,,,,,,,,,,,,,,,,,,,,,,,1832.3191588420002,None,1832.3191588420002,None,1832.3191588420002,None,r,1,1.445424844000172,1833.852349742,None,1833.852349742,None,1833.852349742,None,1835.3690684290002,None,1835.3690684290002,None,1835.3690684290002,None,1835.3690684290002,None,,,,,,,,,,,,,,,,,,,,,,,,,,,,,,,,,,,,,,,,,,,,001,1,2020_Jan_28_0858,spring_faces,3.1.5,59.91159660478723,
condition files/Stage2_2.xlsx,,T4,B4,r,"['s', 'r']","['Stratego', 'Risk']","[-0.15, 0.5]","[0.15, 0.5]",1,1,,,,,,,,,,,,,,,,,0,1,1,1,0,0,0,5,,,,,,,,,,,,,,,,,,,,,,,,,,,,,,,,,,,,,,,,,,,,,,,1837.3855466440002,None,1837.3855466440002,None,1837.3855466440002,None,s,0,2.413730083000246,1838.868044861,None,1838.868044861,None,1838.868044861,None,1841.3355391940001,None,1841.3355391940001,None,1841.3355391940001,None,1841.3355391940001,None,,,,,,,,,,,,,,,,,,,,,,,,,,,,,,,,,,,,,,,,,,,,001,1,2020_Jan_28_0858,spring_faces,3.1.5,59.91159660478723,
condition files/Stage2_2.xlsx,,B1,T1,s,"['s', 'r']","['Stratego', 'Risk']","[-0.15, 0.5]","[0.15, 0.5]",1,1,,,,,,,,,,,,,,,,,0,1,1,1,0,1,1,2,,,,,,,,,,,,,,,,,,,,,,,,,,,,,,,,,,,,,,,,,,,,,,,1843.302168853,None,1843.302168853,None,1843.302168853,None,s,1,3.934466980000252,1844.8352552970002,None,1844.8352552970002,None,1844.8352552970002,None,1848.8358758470001,None,1848.8358758470001,None,1848.8358758470001,None,1848.8358758470001,None,,,,,,,,,,,,,,,,,,,,,,,,,,,,,,,,,,,,,,,,,,,,001,1,2020_Jan_28_0858,spring_faces,3.1.5,59.91159660478723,
condition files/Stage2_2.xlsx,,T2,B2,r,"['s', 'r']","['Stratego', 'Risk']","[-0.15, 0.5]","[0.15, 0.5]",1,1,,,,,,,,,,,,,,,,,0,1,1,1,0,2,2,3,,,,,,,,,,,,,,,,,,,,,,,,,,,,,,,,,,,,,,,,,,,,,,,1850.801774839,None,1850.801774839,None,1850.801774839,None,r,1,2.305529607000153,1852.3522453869998,None,1852.3522453869998,None,1852.3522453869998,None,1854.735544422,None,1854.735544422,None,1854.735544422,None,1854.735544422,None,,,,,,,,,,,,,,,,,,,,,,,,,,,,,,,,,,,,,,,,,,,,001,1,2020_Jan_28_0858,spring_faces,3.1.5,59.91159660478723,
condition files/Stage2_2.xlsx,,B5,T5,s,"['s', 'r']","['Stratego', 'Risk']","[-0.15, 0.5]","[0.15, 0.5]",1,1,,,,,,,,,,,,,,,,,0,1,1,1,0,3,3,0,,,,,,,,,,,,,,,,,,,,,,,,,,,,,,,,,,,,,,,,,,,,,,,1856.68548335,None,1856.68548335,None,1856.68548335,None,r,0,1.1259321279999313,1858.235817778,None,1858.235817778,None,1858.235817778,None,1859.435693656,None,1859.435693656,None,1859.435693656,None,1859.435693656,None,,,,,,,,,,,,,,,,,,,,,,,,,,,,,,,,,,,,,,,,,,,,001,1,2020_Jan_28_0858,spring_faces,3.1.5,59.91159660478723,
condition files/Stage2_2.xlsx,,B3,T3,s,"['s', 'r']","['Stratego', 'Risk']","[-0.15, 0.5]","[0.15, 0.5]",1,1,,,,,,,,,,,,,,,,,0,1,1,1,0,4,4,4,,,,,,,,,,,,,,,,,,,,,,,,,,,,,,,,,,,,,,,,,,,,,,,1861.385490756,None,1861.385490756,None,1861.385490756,None,s,1,2.794316125000023,1862.919393292,None,1862.919393292,None,1862.919393292,None,1865.7690872350001,None,1865.7690872350001,None,1865.7690872350001,None,1865.7690872350001,None,,,,,,,,,,,,,,,,,,,,,,,,,,,,,,,,,,,,,,,,,,,,001,1,2020_Jan_28_0858,spring_faces,3.1.5,59.91159660478723,
condition files/Stage2_2.xlsx,,T6,B6,r,"['s', 'r']","['Stratego', 'Risk']","[-0.15, 0.5]","[0.15, 0.5]",1,1,,,,,,,,,,,,,,,,,0,1,1,1,0,5,5,1,,,,,,,,,,,,,,,,,,,,,,,,,,,,,,,,,,,,,,,,,,,,,,,1867.73488732,None,1867.73488732,None,1867.73488732,None,r,1,1.2294959279997784,1869.2682656549998,None,1869.2682656549998,None,1869.2682656549998,None,1870.5689885059999,None,1870.5689885059999,None,1870.5689885059999,None,1870.5689885059999,None,,,,,,,,,,,,,,,,,,,,,,,,,,,,,,,,,,,,,,,,,,,,001,1,2020_Jan_28_0858,spring_faces,3.1.5,59.91159660478723,
condition files/Stage2_1.xlsx,,T1,B1,s,"['s', 'r']","['Stratego', 'Risk']","[-0.15, 0.5]","[0.15, 0.5]",1,1,,,,,,,,,,,,,,,,,0,2,2,2,0,0,0,2,,,,,,,,,,,,,,,,,,,,,,,,,,,,,,,,,,,,,,,,,,,,,,,1872.5357911429999,None,1872.5357911429999,None,1872.5357911429999,None,s,1,1.9975575049998042,1874.068158594,None,1874.068158594,None,1874.068158594,None,1876.135290991,None,1876.135290991,None,1876.135290991,None,1876.135290991,None,,,,,,,,,,,,,,,,,,,,,,,,,,,,,,,,,,,,,,,,,,,,001,1,2020_Jan_28_0858,spring_faces,3.1.5,59.91159660478723,
condition files/Stage2_1.xlsx,,T5,B5,s,"['s', 'r']","['Stratego', 'Risk']","[-0.15, 0.5]","[0.15, 0.5]",1,1,,,,,,,,,,,,,,,,,0,2,2,2,0,1,1,0,,,,,,,,,,,,,,,,,,,,,,,,,,,,,,,,,,,,,,,,,,,,,,,1878.085355992,None,1878.085355992,None,1878.085355992,None,r,0,2.3646688029998586,1879.621118933,None,1879.621118933,None,1879.621118933,None,1882.035532615,None,1882.035532615,None,1882.035532615,None,1882.035532615,None,,,,,,,,,,,,,,,,,,,,,,,,,,,,,,,,,,,,,,,,,,,,001,1,2020_Jan_28_0858,spring_faces,3.1.5,59.91159660478723,
condition files/Stage2_1.xlsx,,B2,T2,r,"['s', 'r']","['Stratego', 'Risk']","[-0.15, 0.5]","[0.15, 0.5]",1,1,,,,,,,,,,,,,,,,,0,2,2,2,0,2,2,3,,,,,,,,,,,,,,,,,,,,,,,,,,,,,,,,,,,,,,,,,,,,,,,1884.001694075,None,1884.001694075,None,1884.001694075,None,s,0,5.121787319000305,1885.5519872890002,None,1885.5519872890002,None,1885.5519872890002,None,1890.7382390770001,None,1890.7382390770001,None,1890.7382390770001,None,1890.7382390770001,None,,,,,,,,,,,,,,,,,,,,,,,,,,,,,,,,,,,,,,,,,,,,001,1,2020_Jan_28_0858,spring_faces,3.1.5,59.91159660478723,
condition files/Stage2_1.xlsx,,T3,B3,s,"['s', 'r']","['Stratego', 'Risk']","[-0.15, 0.5]","[0.15, 0.5]",1,1,,,,,,,,,,,,,,,,,0,2,2,2,0,3,3,4,,,,,,,,,,,,,,,,,,,,,,,,,,,,,,,,,,,,,,,,,,,,,,,1892.702059735,None,1892.702059735,None,1892.702059735,None,s,1,1.3977431129997058,1894.236039528,None,1894.236039528,None,1894.236039528,None,1895.687830661,None,1895.687830661,None,1895.687830661,None,1895.687830661,None,,,,,,,,,,,,,,,,,,,,,,,,,,,,,,,,,,,,,,,,,,,,001,1,2020_Jan_28_0858,spring_faces,3.1.5,59.91159660478723,
condition files/Stage2_1.xlsx,,B6,T6,r,"['s', 'r']","['Stratego', 'Risk']","[-0.15, 0.5]","[0.15, 0.5]",1,1,,,,,,,,,,,,,,,,,0,2,2,2,0,4,4,1,,,,,,,,,,,,,,,,,,,,,,,,,,,,,,,,,,,,,,,,,,,,,,,1897.6516584029998,None,1897.6516584029998,None,1897.6516584029998,None,s,0,3.743164934000106,1899.1866005650002,None,1899.1866005650002,None,1899.1866005650002,None,1902.9884333020002,None,1902.9884333020002,None,1902.9884333020002,None,1902.9884333020002,None,,,,,,,,,,,,,,,,,,,,,,,,,,,,,,,,,,,,,,,,,,,,001,1,2020_Jan_28_0858,spring_faces,3.1.5,59.91159660478723,
condition files/Stage2_1.xlsx,,B4,T4,r,"['s', 'r']","['Stratego', 'Risk']","[-0.15, 0.5]","[0.15, 0.5]",1,1,,,,,,,,,,,,,,,,,0,2,2,2,0,5,5,5,,,,,,,,,,,,,,,,,,,,,,,,,,,,,,,,,,,,,,,,,,,,,,,1904.9520444339998,None,1904.9520444339998,None,1904.9520444339998,None,r,1,3.787748266000108,1906.4860291910002,None,1906.4860291910002,None,1906.4860291910002,None,1910.3356411339998,None,1910.3356411339998,None,1910.3356411339998,None,1910.3356411339998,None,,,,,,,,,,,,,,,,,,,,,,,,,,,,,,,,,,,,,,,,,,,,001,1,2020_Jan_28_0858,spring_faces,3.1.5,59.91159660478723,
condition files/Stage2_2.xlsx,,T4,B4,r,"['s', 'r']","['Stratego', 'Risk']","[-0.15, 0.5]","[0.15, 0.5]",1,1,,,,,,,,,,,,,,,,,0,3,3,3,0,0,0,5,,,,,,,,,,,,,,,,,,,,,,,,,,,,,,,,,,,,,,,,,,,,,,,1912.3184385830002,None,1912.3184385830002,None,1912.3184385830002,None,r,1,1.2390062810000018,1913.834788676,None,1913.834788676,None,1913.834788676,None,1915.1357189950002,None,1915.1357189950002,None,1915.1357189950002,None,1915.1357189950002,None,,,,,,,,,,,,,,,,,,,,,,,,,,,,,,,,,,,,,,,,,,,,001,1,2020_Jan_28_0858,spring_faces,3.1.5,59.91159660478723,
condition files/Stage2_2.xlsx,,B3,T3,s,"['s', 'r']","['Stratego', 'Risk']","[-0.15, 0.5]","[0.15, 0.5]",1,1,,,,,,,,,,,,,,,,,0,3,3,3,0,1,1,4,,,,,,,,,,,,,,,,,,,,,,,,,,,,,,,,,,,,,,,,,,,,,,,1917.101660741,None,1917.101660741,None,1917.101660741,None,s,1,4.469699014000071,1918.636092764,None,1918.636092764,None,1918.636092764,None,1923.18575008,None,1923.18575008,None,1923.18575008,None,1923.18575008,None,,,,,,,,,,,,,,,,,,,,,,,,,,,,,,,,,,,,,,,,,,,,001,1,2020_Jan_28_0858,spring_faces,3.1.5,59.91159660478723,
condition files/Stage2_2.xlsx,,B1,T1,s,"['s', 'r']","['Stratego', 'Risk']","[-0.15, 0.5]","[0.15, 0.5]",1,1,,,,,,,,,,,,,,,,,0,3,3,3,0,2,2,2,,,,,,,,,,,,,,,,,,,,,,,,,,,,,,,,,,,,,,,,,,,,,,,1925.135082937,None,1925.135082937,None,1925.135082937,None,s,1,2.339034139999967,1926.670778,None,1926.670778,None,1926.670778,None,1929.068894669,None,1929.068894669,None,1929.068894669,None,1929.068894669,None,,,,,,,,,,,,,,,,,,,,,,,,,,,,,,,,,,,,,,,,,,,,001,1,2020_Jan_28_0858,spring_faces,3.1.5,59.91159660478723,
condition files/Stage2_2.xlsx,,B5,T5,s,"['s', 'r']","['Stratego', 'Risk']","[-0.15, 0.5]","[0.15, 0.5]",1,1,,,,,,,,,,,,,,,,,0,3,3,3,0,3,3,0,,,,,,,,,,,,,,,,,,,,,,,,,,,,,,,,,,,,,,,,,,,,,,,1931.036781738,None,1931.036781738,None,1931.036781738,None,s,1,9.768054266000036,1932.585605944,None,1932.585605944,None,1932.585605944,None,1942.418992233,None,1942.418992233,None,1942.418992233,None,1942.418992233,None,,,,,,,,,,,,,,,,,,,,,,,,,,,,,,,,,,,,,,,,,,,,001,1,2020_Jan_28_0858,spring_faces,3.1.5,59.91159660478723,
condition files/Stage2_2.xlsx,,T2,B2,r,"['s', 'r']","['Stratego', 'Risk']","[-0.15, 0.5]","[0.15, 0.5]",1,1,,,,,,,,,,,,,,,,,0,3,3,3,0,4,4,3,,,,,,,,,,,,,,,,,,,,,,,,,,,,,,,,,,,,,,,,,,,,,,,1944.3854019819998,None,1944.3854019819998,None,1944.3854019819998,None,r,1,2.0500899939997907,1945.9356186920002,None,1945.9356186920002,None,1945.9356186920002,None,1948.0522823630001,None,1948.0522823630001,None,1948.0522823630001,None,1948.0522823630001,None,,,,,,,,,,,,,,,,,,,,,,,,,,,,,,,,,,,,,,,,,,,,001,1,2020_Jan_28_0858,spring_faces,3.1.5,59.91159660478723,
condition files/Stage2_2.xlsx,,T6,B6,r,"['s', 'r']","['Stratego', 'Risk']","[-0.15, 0.5]","[0.15, 0.5]",1,1,,,,,,,,,,,,,,,,,0,3,3,3,0,5,5,1,,,,,,,,,,,,,,,,,,,,,,,,,,,,,,,,,,,,,,,,,,,,,,,1950.0020570559998,None,1950.0020570559998,None,1950.0020570559998,None,s,0,1.394222728999921,1951.5355387359998,None,1951.5355387359998,None,1951.5355387359998,None,1952.9856159590001,None,1952.9856159590001,None,1952.9856159590001,None,1952.9856159590001,None,,,,,,,,,,,,,,,,,,,,,,,,,,,,,,,,,,,,,,,,,,,,001,1,2020_Jan_28_0858,spring_faces,3.1.5,59.91159660478723,
condition files/Stage2_1.xlsx,,B2,T2,r,"['s', 'r']","['Stratego', 'Risk']","[-0.15, 0.5]","[0.15, 0.5]",1,1,,,,,,,,,,,,,,,,,0,4,4,4,0,0,0,3,,,,,,,,,,,,,,,,,,,,,,,,,,,,,,,,,,,,,,,,,,,,,,,1954.96903499,None,1954.96903499,None,1954.96903499,None,r,1,1.0827539870001601,1956.519035901,None,1956.519035901,None,1956.519035901,None,1957.6521060500002,None,1957.6521060500002,None,1957.6521060500002,None,1957.6521060500002,None,,,,,,,,,,,,,,,,,,,,,,,,,,,,,,,,,,,,,,,,,,,,001,1,2020_Jan_28_0858,spring_faces,3.1.5,59.91159660478723,
condition files/Stage2_1.xlsx,,B4,T4,r,"['s', 'r']","['Stratego', 'Risk']","[-0.15, 0.5]","[0.15, 0.5]",1,1,,,,,,,,,,,,,,,,,0,4,4,4,0,1,1,5,,,,,,,,,,,,,,,,,,,,,,,,,,,,,,,,,,,,,,,,,,,,,,,1959.61894589,None,1959.61894589,None,1959.61894589,None,r,1,1.345802066000033,1961.151952044,None,1961.151952044,None,1961.151952044,None,1962.5524522070002,None,1962.5524522070002,None,1962.5524522070002,None,1962.5524522070002,None,,,,,,,,,,,,,,,,,,,,,,,,,,,,,,,,,,,,,,,,,,,,001,1,2020_Jan_28_0858,spring_faces,3.1.5,59.91159660478723,
condition files/Stage2_1.xlsx,,T3,B3,s,"['s', 'r']","['Stratego', 'Risk']","[-0.15, 0.5]","[0.15, 0.5]",1,1,,,,,,,,,,,,,,,,,0,4,4,4,0,2,2,4,,,,,,,,,,,,,,,,,,,,,,,,,,,,,,,,,,,,,,,,,,,,,,,1964.5187001319998,None,1964.5187001319998,None,1964.5187001319998,None,s,1,1.6298111959999915,1966.0519493939998,None,1966.0519493939998,None,1966.0519493939998,None,1967.7370101509998,None,1967.7370101509998,None,1967.7370101509998,None,1967.7370101509998,None,,,,,,,,,,,,,,,,,,,,,,,,,,,,,,,,,,,,,,,,,,,,001,1,2020_Jan_28_0858,spring_faces,3.1.5,59.91159660478723,
condition files/Stage2_1.xlsx,,T5,B5,s,"['s', 'r']","['Stratego', 'Risk']","[-0.15, 0.5]","[0.15, 0.5]",1,1,,,,,,,,,,,,,,,,,0,4,4,4,0,3,3,0,,,,,,,,,,,,,,,,,,,,,,,,,,,,,,,,,,,,,,,,,,,,,,,1969.7021295430002,None,1969.7021295430002,None,1969.7021295430002,None,r,0,5.326600663000136,1971.2351672870002,None,1971.2351672870002,None,1971.2351672870002,None,1976.618532444,None,1976.618532444,None,1976.618532444,None,1976.618532444,None,,,,,,,,,,,,,,,,,,,,,,,,,,,,,,,,,,,,,,,,,,,,001,1,2020_Jan_28_0858,spring_faces,3.1.5,59.91159660478723,
condition files/Stage2_1.xlsx,,T1,B1,s,"['s', 'r']","['Stratego', 'Risk']","[-0.15, 0.5]","[0.15, 0.5]",1,1,,,,,,,,,,,,,,,,,0,4,4,4,0,4,4,2,,,,,,,,,,,,,,,,,,,,,,,,,,,,,,,,,,,,,,,,,,,,,,,1978.5854151709998,None,1978.5854151709998,None,1978.5854151709998,None,s,1,8.891007246999834,1980.118825279,None,1980.118825279,None,1980.118825279,None,1989.068661344,None,1989.068661344,None,1989.068661344,None,1989.068661344,None,,,,,,,,,,,,,,,,,,,,,,,,,,,,,,,,,,,,,,,,,,,,001,1,2020_Jan_28_0858,spring_faces,3.1.5,59.91159660478723,
condition files/Stage2_1.xlsx,,B6,T6,r,"['s', 'r']","['Stratego', 'Risk']","[-0.15, 0.5]","[0.15, 0.5]",1,1,,,,,,,,,,,,,,,,,0,4,4,4,0,5,5,1,,,,,,,,,,,,,,,,,,,,,,,,,,,,,,,,,,,,,,,,,,,,,,,1991.0354519559999,None,1991.0354519559999,None,1991.0354519559999,None,r,1,1.7367219590000786,1992.5690729770001,None,1992.5690729770001,None,1992.5690729770001,None,1994.369152394,None,1994.369152394,None,1994.369152394,None,1994.369152394,None,,,,,,,,,,,,,,,,,,,,,,,,,,,,,,,,,,,,,,,,,,,,001,1,2020_Jan_28_0858,spring_faces,3.1.5,59.91159660478723,
condition files/Stage2_2.xlsx,,T2,B2,r,"['s', 'r']","['Stratego', 'Risk']","[-0.15, 0.5]","[0.15, 0.5]",1,1,,,,,,,,,,,,,,,,,0,5,5,5,0,0,0,3,,,,,,,,,,,,,,,,,,,,,,,,,,,,,,,,,,,,,,,,,,,,,,,1996.3524293879998,None,1996.3524293879998,None,1996.3524293879998,None,s,0,1.5239877439998963,1997.901837744,None,1997.901837744,None,1997.901837744,None,1999.4855885660002,None,1999.4855885660002,None,1999.4855885660002,None,1999.4855885660002,None,,,,,,,,,,,,,,,,,,,,,,,,,,,,,,,,,,,,,,,,,,,,001,1,2020_Jan_28_0858,spring_faces,3.1.5,59.91159660478723,
condition files/Stage2_2.xlsx,,T4,B4,r,"['s', 'r']","['Stratego', 'Risk']","[-0.15, 0.5]","[0.15, 0.5]",1,1,,,,,,,,,,,,,,,,,0,5,5,5,0,1,1,5,,,,,,,,,,,,,,,,,,,,,,,,,,,,,,,,,,,,,,,,,,,,,,,2001.452112067,None,2001.452112067,None,2001.452112067,None,r,1,3.8311709590002465,2002.9866206119998,None,2002.9866206119998,None,2002.9866206119998,None,2006.869188645,None,2006.869188645,None,2006.869188645,None,2006.869188645,None,,,,,,,,,,,,,,,,,,,,,,,,,,,,,,,,,,,,,,,,,,,,001,1,2020_Jan_28_0858,spring_faces,3.1.5,59.91159660478723,
