condsFile,subStage,cue1,cue2,correct,responseKeys,responseNames,cue1Position,cue2Position,cue1Opacity,cue2Opacity,stageLoop0.thisRepN,stageLoop0.thisTrialN,stageLoop0.thisN,stageLoop0.thisIndex,blockLoop0.thisRepN,blockLoop0.thisTrialN,blockLoop0.thisN,blockLoop0.thisIndex,stage1Loop.thisRepN,stage1Loop.thisTrialN,stage1Loop.thisN,stage1Loop.thisIndex,blockLoop1.thisRepN,blockLoop1.thisTrialN,blockLoop1.thisN,blockLoop1.thisIndex,stage2Loop.thisRepN,stage2Loop.thisTrialN,stage2Loop.thisN,stage2Loop.thisIndex,blockLoop2.thisRepN,blockLoop2.thisTrialN,blockLoop2.thisN,blockLoop2.thisIndex,testLoop.thisRepN,testLoop.thisTrialN,testLoop.thisN,testLoop.thisIndex,blockLoopTest.thisRepN,blockLoopTest.thisTrialN,blockLoopTest.thisN,blockLoopTest.thisIndex,cuePics,id_instr_text.started,id_instr_text.stopped,space_to_continue_2.started,space_to_continue_2.stopped,end_instructions_resp_3.keys,end_instructions_resp_3.rt,end_instructions_resp_3.started,end_instructions_resp_3.stopped,id_input_instr.started,id_input_instr.stopped,id_input_rect.started,id_input_rect.stopped,id_input_resp.keys,id_input_resp.rt,id_input_resp.started,id_input_resp.stopped,sonaID,id_input_text.started,id_input_text.stopped,final_text.started,final_text.stopped,instructions.started,instructions.stopped,end_instructions_resp.keys,end_instructions_resp.rt,end_instructions_resp.started,end_instructions_resp.stopped,space_to_continue.started,space_to_continue.stopped,instructions_stage0.started,instructions_stage0.stopped,end_instructions_resp_stage0.keys,end_instructions_resp_stage0.rt,end_instructions_resp_stage0.started,end_instructions_resp_stage0.stopped,space_to_continue_stage0.started,space_to_continue_stage0.stopped,text.started,text.stopped,resp_text1.started,resp_text1.stopped,resp_text2.started,resp_text2.stopped,trial_resp.keys,trial_resp.corr,trial_resp.rt,trial_resp.started,trial_resp.stopped,cue1Image.started,cue1Image.stopped,cue2Image.started,cue2Image.stopped,cue1Image_fb.started,cue1Image_fb.stopped,cue2Image_fb.started,cue2Image_fb.stopped,fb_text_answer.started,fb_text_answer.stopped,feedback_image.started,feedback_image.stopped,instructions_stage1.started,instructions_stage1.stopped,end_instructions_resp_stage1.keys,end_instructions_resp_stage1.rt,end_instructions_resp_stage1.started,end_instructions_resp_stage1.stopped,space_to_continue_stage1.started,space_to_continue_stage1.stopped,instructions_2.started,instructions_2.stopped,end_instructions_resp_2.keys,end_instructions_resp_2.rt,end_instructions_resp_2.started,end_instructions_resp_2.stopped,press_space_to_continue_stage2.started,press_space_to_continue_stage2.stopped,instructions_testStage1.started,instructions_testStage1.stopped,end_instructions_resp_test1.keys,end_instructions_resp_test1.rt,end_instructions_resp_test1.started,end_instructions_resp_test1.stopped,press_space_to_continue_test1.started,press_space_to_continue_test1.stopped,cue1Image_testChoice.started,cue1Image_testChoice.stopped,cue2Image_testChoice.started,cue2Image_testChoice.stopped,test_resp.keys,test_resp.corr,test_resp.rt,test_resp.started,test_resp.stopped,cue1Image_testConf.started,cue1Image_testConf.stopped,cue2Image_testConf.started,cue2Image_testConf.stopped,conf_reminder.started,conf_reminder.stopped,conf_rating.response,conf_rating.rt,conf_rating.started,conf_rating.stopped,session,participant,date,expName,psychopyVersion,frameRate,
,,,,,,,,,,,,,,,,,,,,,,,,,,,,,,,,,,,,,,,,,,,"{'none': 'pictures/20M_AN_C.png', 'alpha': 'pictures/SHINEd_pepper.png', 'beta': 'pictures/SHINEd_melon.png', 'theta': 'pictures/SHINEd_pear.png', 'phi': 'pictures/SHINEd_apple.png', 'T1': 'pictures/26M_AN_C.png', 'T2': 'pictures/32M_AN_C.png', 'T3': 'pictures/25M_AN_C.png', 'T4': 'pictures/33M_AN_C.png', 'T5': 'pictures/38M_AN_C.png', 'T6': 'pictures/22M_AN_C.png', 'B1': 'pictures/20M_NE_C.png', 'B2': 'pictures/34M_NE_C.png', 'B3': 'pictures/23M_NE_C.png', 'B4': 'pictures/36M_NE_C.png', 'B5': 'pictures/37M_NE_C.png', 'B6': 'pictures/31M_NE_C.png'}",650.578391031002,None,655.5777433850017,None,space,4.740973372001463,655.5777433850017,None,,,,,,,,,,,,,,,,,,,,,,,,,,,,,,,,,,,,,,,,,,,,,,,,,,,,,,,,,,,,,,,,,,,,,,,,,,,,,,,,,,,,,,,,,,,,,,,,001,21,2020_Jan_28_1529,spring_faces,3.1.5,60.0066732224922,
,,,,,,,,,,,,,,,,,,,,,,,,,,,,,,,,,,,,,,,,,,,,,,,,,,,,660.7446633710024,None,660.7446633710024,None,"['0', '1', '1', '8', 'l', 'i', 'f', 'l', 'i']","[8.581991015998938, 8.726073563000682, 14.837990134998108, 14.981963135000115, 17.76599177800017, 17.990004371000396, 20.40602275999845, 20.549942276000365, 20.774027277999267]",660.7446633710024,None,,,,,,,,,,,,,,,,,,,,,,,,,,,,,,,,,,,,,,,,,,,,,,,,,,,,,,,,,,,,,,,,,,,,,,,,,,,,,,,,,,,,,,,,001,21,2020_Jan_28_1529,spring_faces,3.1.5,60.0066732224922,
,,,,,,,,,,,,,,,,,,,,,,,,,,,,,,,,,,,,,,,,,,,,,,,,,,,,,,,,,,,,0118lifli,660.7446633710024,None,660.7446633710024,None,686.5953376140023,None,space,6.067676670001674,691.5949297320003,None,,,,,,,,,,,,,,,,,,,,,,,,,,,,,,,,,,,,,,,,,,,,,,,,,,,,,,,,,,,,,,,,,,,,,,,,,,,,,001,21,2020_Jan_28_1529,spring_faces,3.1.5,60.0066732224922,
,,,,,,,,,,,,,,,,,,,,,,,,,,,,,,,,,,,,,,,,,,,,,,,,,,,,,,,,,,,,,,,,,,,,,,,691.5949297320003,None,697.7117228829993,None,space,15.47915848699995,702.7114936860016,None,,,,,,,,,,,,,,,,,,,,,,,,,,,,,,,,,,,,,,,,,,,,,,,,,,,,,,,,,,,,,,,,,,,,,001,21,2020_Jan_28_1529,spring_faces,3.1.5,60.0066732224922,
condition files/Stage0a.xlsx,0a,beta,none,g,"['h', 'g']","['Chess', 'Go']","[0, 0.5]","[0, 0]",1,0,0,0,0,0,0,0,0,1,,,,,,,,,,,,,,,,,,,,,,,,,,,,,,,,,,,,,,,,,,,,,,,,,,,,,,,,,,,,,702.7114936860016,None,718.2446292780005,None,718.2446292780005,None,718.2446292780005,None,g,1,3.675312938998104,719.8114056209997,None,719.8114056209997,None,719.8114056209997,None,723.561704967,None,723.561704967,None,723.561704967,None,723.561704967,None,,,,,,,,,,,,,,,,,,,,,,,,,,,,,,,,,,,,,,,,,,,,001,21,2020_Jan_28_1529,spring_faces,3.1.5,60.0066732224922,
condition files/Stage0a.xlsx,0a,alpha,none,h,"['h', 'g']","['Chess', 'Go']","[0, 0.5]","[0, 0]",1,0,0,0,0,0,0,1,1,0,,,,,,,,,,,,,,,,,,,,,,,,,,,,,,,,,,,,,,,,,,,,,,,,,,,,,,,,,,,,,,,725.5114708120018,None,725.5114708120018,None,725.5114708120018,None,g,0,2.153335586997855,727.0453273830026,None,727.0453273830026,None,727.0453273830026,None,729.2612746240011,None,729.2612746240011,None,729.2612746240011,None,729.2612746240011,None,,,,,,,,,,,,,,,,,,,,,,,,,,,,,,,,,,,,,,,,,,,,001,21,2020_Jan_28_1529,spring_faces,3.1.5,60.0066732224922,
condition files/Stage0a.xlsx,0a,beta,none,g,"['h', 'g']","['Chess', 'Go']","[0, 0.5]","[0, 0]",1,0,0,1,1,1,0,0,0,1,,,,,,,,,,,,,,,,,,,,,,,,,,,,,,,,,,,,,,,,,,,,,,,,,,,,,,,,,,,,,,,731.2450251570008,None,731.2450251570008,None,731.2450251570008,None,h,0,2.2125407780004025,732.7621063200022,None,732.7621063200022,None,732.7621063200022,None,735.0280545099995,None,735.0280545099995,None,735.0280545099995,None,735.0280545099995,None,,,,,,,,,,,,,,,,,,,,,,,,,,,,,,,,,,,,,,,,,,,,001,21,2020_Jan_28_1529,spring_faces,3.1.5,60.0066732224922,
condition files/Stage0a.xlsx,0a,alpha,none,h,"['h', 'g']","['Chess', 'Go']","[0, 0.5]","[0, 0]",1,0,0,1,1,1,0,1,1,0,,,,,,,,,,,,,,,,,,,,,,,,,,,,,,,,,,,,,,,,,,,,,,,,,,,,,,,,,,,,,,,736.9947932880023,None,736.9947932880023,None,736.9947932880023,None,h,1,1.3422376859998622,738.5284720840027,None,738.5284720840027,None,738.5284720840027,None,739.928162401,None,739.928162401,None,739.928162401,None,739.928162401,None,,,,,,,,,,,,,,,,,,,,,,,,,,,,,,,,,,,,,,,,,,,,001,21,2020_Jan_28_1529,spring_faces,3.1.5,60.0066732224922,
condition files/Stage0a.xlsx,0a,beta,none,g,"['h', 'g']","['Chess', 'Go']","[0, 0.5]","[0, 0]",1,0,0,2,2,2,0,0,0,1,,,,,,,,,,,,,,,,,,,,,,,,,,,,,,,,,,,,,,,,,,,,,,,,,,,,,,,,,,,,,,,741.9113506430003,None,741.9113506430003,None,741.9113506430003,None,g,1,0.6497057560009125,743.4448889849991,None,743.4448889849991,None,743.4448889849991,None,744.1443829400014,None,744.1443829400014,None,744.1443829400014,None,744.1443829400014,None,,,,,,,,,,,,,,,,,,,,,,,,,,,,,,,,,,,,,,,,,,,,001,21,2020_Jan_28_1529,spring_faces,3.1.5,60.0066732224922,
condition files/Stage0a.xlsx,0a,alpha,none,h,"['h', 'g']","['Chess', 'Go']","[0, 0.5]","[0, 0]",1,0,0,2,2,2,0,1,1,0,,,,,,,,,,,,,,,,,,,,,,,,,,,,,,,,,,,,,,,,,,,,,,,,,,,,,,,,,,,,,,,746.1106965719991,None,746.1106965719991,None,746.1106965719991,None,h,1,0.8175933129969053,747.6450253570001,None,747.6450253570001,None,747.6450253570001,None,748.5275840400027,None,748.5275840400027,None,748.5275840400027,None,748.5275840400027,None,,,,,,,,,,,,,,,,,,,,,,,,,,,,,,,,,,,,,,,,,,,,001,21,2020_Jan_28_1529,spring_faces,3.1.5,60.0066732224922,
condition files/Stage0a.xlsx,0a,alpha,none,h,"['h', 'g']","['Chess', 'Go']","[0, 0.5]","[0, 0]",1,0,0,3,3,3,0,0,0,0,,,,,,,,,,,,,,,,,,,,,,,,,,,,,,,,,,,,,,,,,,,,,,,,,,,,,,,,,,,,,,,750.5118040519992,None,750.5118040519992,None,750.5118040519992,None,h,1,2.513950348002254,752.0447195689994,None,752.0447195689994,None,752.0447195689994,None,754.6115199510023,None,754.6115199510023,None,754.6115199510023,None,754.6115199510023,None,,,,,,,,,,,,,,,,,,,,,,,,,,,,,,,,,,,,,,,,,,,,001,21,2020_Jan_28_1529,spring_faces,3.1.5,60.0066732224922,
condition files/Stage0a.xlsx,0a,beta,none,g,"['h', 'g']","['Chess', 'Go']","[0, 0.5]","[0, 0]",1,0,0,3,3,3,0,1,1,1,,,,,,,,,,,,,,,,,,,,,,,,,,,,,,,,,,,,,,,,,,,,,,,,,,,,,,,,,,,,,,,756.5784129970016,None,756.5784129970016,None,756.5784129970016,None,g,1,0.8787412460005726,758.1118987180016,None,758.1118987180016,None,758.1118987180016,None,759.0447586830014,None,759.0447586830014,None,759.0447586830014,None,759.0447586830014,None,,,,,,,,,,,,,,,,,,,,,,,,,,,,,,,,,,,,,,,,,,,,001,21,2020_Jan_28_1529,spring_faces,3.1.5,60.0066732224922,
condition files/Stage0a.xlsx,0a,alpha,none,h,"['h', 'g']","['Chess', 'Go']","[0, 0.5]","[0, 0]",1,0,0,4,4,4,0,0,0,0,,,,,,,,,,,,,,,,,,,,,,,,,,,,,,,,,,,,,,,,,,,,,,,,,,,,,,,,,,,,,,,761.0281797740026,None,761.0281797740026,None,761.0281797740026,None,h,1,0.6536858970030153,762.5609720400025,None,762.5609720400025,None,762.5609720400025,None,763.2779713170021,None,763.2779713170021,None,763.2779713170021,None,763.2779713170021,None,,,,,,,,,,,,,,,,,,,,,,,,,,,,,,,,,,,,,,,,,,,,001,21,2020_Jan_28_1529,spring_faces,3.1.5,60.0066732224922,
condition files/Stage0a.xlsx,0a,beta,none,g,"['h', 'g']","['Chess', 'Go']","[0, 0.5]","[0, 0]",1,0,0,4,4,4,0,1,1,1,,,,,,,,,,,,,,,,,,,,,,,,,,,,,,,,,,,,,,,,,,,,,,,,,,,,,,,,,,,,,,,765.2447318070008,None,765.2447318070008,None,765.2447318070008,None,g,1,0.8680171539999719,766.7786428470026,None,766.7786428470026,None,766.7786428470026,None,767.7119985470017,None,767.7119985470017,None,767.7119985470017,None,767.7119985470017,None,,,,,,,,,,,,,,,,,,,,,,,,,,,,,,,,,,,,,,,,,,,,001,21,2020_Jan_28_1529,spring_faces,3.1.5,60.0066732224922,
condition files/Stage0a.xlsx,0a,beta,none,g,"['h', 'g']","['Chess', 'Go']","[0, 0.5]","[0, 0]",1,0,0,5,5,5,0,0,0,1,,,,,,,,,,,,,,,,,,,,,,,,,,,,,,,,,,,,,,,,,,,,,,,,,,,,,,,,,,,,,,,769.6951703490013,None,769.6951703490013,None,769.6951703490013,None,g,1,0.8662652229977539,771.2283872730004,None,771.2283872730004,None,771.2283872730004,None,772.1447969910005,None,772.1447969910005,None,772.1447969910005,None,772.1447969910005,None,,,,,,,,,,,,,,,,,,,,,,,,,,,,,,,,,,,,,,,,,,,,001,21,2020_Jan_28_1529,spring_faces,3.1.5,60.0066732224922,
condition files/Stage0a.xlsx,0a,alpha,none,h,"['h', 'g']","['Chess', 'Go']","[0, 0.5]","[0, 0]",1,0,0,5,5,5,0,1,1,0,,,,,,,,,,,,,,,,,,,,,,,,,,,,,,,,,,,,,,,,,,,,,,,,,,,,,,,,,,,,,,,774.1113690890015,None,774.1113690890015,None,774.1113690890015,None,h,1,0.8820819390020915,775.6445592570017,None,775.6445592570017,None,775.6445592570017,None,776.5784349410023,None,776.5784349410023,None,776.5784349410023,None,776.5784349410023,None,,,,,,,,,,,,,,,,,,,,,,,,,,,,,,,,,,,,,,,,,,,,001,21,2020_Jan_28_1529,spring_faces,3.1.5,60.0066732224922,
condition files/Stage0b_1.xlsx,0b,alpha,none,h,"['h', 'g']","['Chess', 'Go']","[-0.15, 0.5]","[0.15, 0.5]",1,0,0,6,6,6,0,0,0,0,,,,,,,,,,,,,,,,,,,,,,,,,,,,,,,,,,,,,,,,,,,,,,,,,,,,,,,,,,,,,,,778.5617068770007,None,778.5617068770007,None,778.5617068770007,None,h,1,1.7274553310016927,780.095181429002,None,780.095181429002,None,780.095181429002,None,781.8782992260021,None,781.8782992260021,None,781.8782992260021,None,781.8782992260021,None,,,,,,,,,,,,,,,,,,,,,,,,,,,,,,,,,,,,,,,,,,,,001,21,2020_Jan_28_1529,spring_faces,3.1.5,60.0066732224922,
condition files/Stage0b_1.xlsx,0b,none,beta,g,"['h', 'g']","['Chess', 'Go']","[-0.15, 0.5]","[0.15, 0.5]",0,1,0,6,6,6,0,1,1,1,,,,,,,,,,,,,,,,,,,,,,,,,,,,,,,,,,,,,,,,,,,,,,,,,,,,,,,,,,,,,,,783.8448531419999,None,783.8448531419999,None,783.8448531419999,None,g,1,0.7163139549993502,785.3943290860007,None,785.3943290860007,None,785.3943290860007,None,786.1663020790002,None,786.1663020790002,None,786.1663020790002,None,786.1663020790002,None,,,,,,,,,,,,,,,,,,,,,,,,,,,,,,,,,,,,,,,,,,,,001,21,2020_Jan_28_1529,spring_faces,3.1.5,60.0066732224922,
condition files/Stage0b_2.xlsx,0b,beta,none,g,"['h', 'g']","['Chess', 'Go']","[-0.15, 0.5]","[0.15, 0.5]",1,0,0,7,7,7,0,0,0,1,,,,,,,,,,,,,,,,,,,,,,,,,,,,,,,,,,,,,,,,,,,,,,,,,,,,,,,,,,,,,,,788.1448122149995,None,788.1448122149995,None,788.1448122149995,None,g,1,0.959471187001327,789.6951921420005,None,789.6951921420005,None,789.6951921420005,None,790.7141162139997,None,790.7141162139997,None,790.7141162139997,None,790.7141162139997,None,,,,,,,,,,,,,,,,,,,,,,,,,,,,,,,,,,,,,,,,,,,,001,21,2020_Jan_28_1529,spring_faces,3.1.5,60.0066732224922,
condition files/Stage0b_2.xlsx,0b,none,alpha,h,"['h', 'g']","['Chess', 'Go']","[-0.15, 0.5]","[0.15, 0.5]",0,1,0,7,7,7,0,1,1,0,,,,,,,,,,,,,,,,,,,,,,,,,,,,,,,,,,,,,,,,,,,,,,,,,,,,,,,,,,,,,,,792.6780561000014,None,792.6780561000014,None,792.6780561000014,None,h,1,1.2106138609997288,794.2120201340003,None,794.2120201340003,None,794.2120201340003,None,795.4830224090001,None,795.4830224090001,None,795.4830224090001,None,795.4830224090001,None,,,,,,,,,,,,,,,,,,,,,,,,,,,,,,,,,,,,,,,,,,,,001,21,2020_Jan_28_1529,spring_faces,3.1.5,60.0066732224922,
condition files/Stage0b_1.xlsx,0b,alpha,none,h,"['h', 'g']","['Chess', 'Go']","[-0.15, 0.5]","[0.15, 0.5]",1,0,0,8,8,8,0,0,0,0,,,,,,,,,,,,,,,,,,,,,,,,,,,,,,,,,,,,,,,,,,,,,,,,,,,,,,,,,,,,,,,797.4609411740021,None,797.4609411740021,None,797.4609411740021,None,h,1,1.2108631060000334,798.9957850440005,None,798.9957850440005,None,798.9957850440005,None,800.2621212360027,None,800.2621212360027,None,800.2621212360027,None,800.2621212360027,None,,,,,,,,,,,,,,,,,,,,,,,,,,,,,,,,,,,,,,,,,,,,001,21,2020_Jan_28_1529,spring_faces,3.1.5,60.0066732224922,
condition files/Stage0b_1.xlsx,0b,none,beta,g,"['h', 'g']","['Chess', 'Go']","[-0.15, 0.5]","[0.15, 0.5]",0,1,0,8,8,8,0,1,1,1,,,,,,,,,,,,,,,,,,,,,,,,,,,,,,,,,,,,,,,,,,,,,,,,,,,,,,,,,,,,,,,802.2281032640021,None,802.2281032640021,None,802.2281032640021,None,g,1,2.0283871789979457,803.7782823650014,None,803.7782823650014,None,803.7782823650014,None,805.862326986,None,805.862326986,None,805.862326986,None,805.862326986,None,,,,,,,,,,,,,,,,,,,,,,,,,,,,,,,,,,,,,,,,,,,,001,21,2020_Jan_28_1529,spring_faces,3.1.5,60.0066732224922,
condition files/Stage0b_2.xlsx,0b,beta,none,g,"['h', 'g']","['Chess', 'Go']","[-0.15, 0.5]","[0.15, 0.5]",1,0,0,9,9,9,0,0,0,1,,,,,,,,,,,,,,,,,,,,,,,,,,,,,,,,,,,,,,,,,,,,,,,,,,,,,,,,,,,,,,,807.8448775450015,None,807.8448775450015,None,807.8448775450015,None,g,1,1.5933343459983007,809.3813381060027,None,809.3813381060027,None,809.3813381060027,None,811.0286012760007,None,811.0286012760007,None,811.0286012760007,None,811.0286012760007,None,,,,,,,,,,,,,,,,,,,,,,,,,,,,,,,,,,,,,,,,,,,,001,21,2020_Jan_28_1529,spring_faces,3.1.5,60.0066732224922,
condition files/Stage0b_2.xlsx,0b,none,alpha,h,"['h', 'g']","['Chess', 'Go']","[-0.15, 0.5]","[0.15, 0.5]",0,1,0,9,9,9,0,1,1,0,,,,,,,,,,,,,,,,,,,,,,,,,,,,,,,,,,,,,,,,,,,,,,,,,,,,,,,,,,,,,,,812.9946852850007,None,812.9946852850007,None,812.9946852850007,None,h,1,1.3696265449980274,814.5330990980001,None,814.5330990980001,None,814.5330990980001,None,815.965286720002,None,815.965286720002,None,815.965286720002,None,815.965286720002,None,,,,,,,,,,,,,,,,,,,,,,,,,,,,,,,,,,,,,,,,,,,,001,21,2020_Jan_28_1529,spring_faces,3.1.5,60.0066732224922,
condition files/Stage0b_1.xlsx,0b,alpha,none,h,"['h', 'g']","['Chess', 'Go']","[-0.15, 0.5]","[0.15, 0.5]",1,0,0,10,10,10,0,0,0,0,,,,,,,,,,,,,,,,,,,,,,,,,,,,,,,,,,,,,,,,,,,,,,,,,,,,,,,,,,,,,,,817.9450666939993,None,817.9450666939993,None,817.9450666939993,None,h,1,1.2875717060014722,819.4950909489999,None,819.4950909489999,None,819.4950909489999,None,820.8448796609991,None,820.8448796609991,None,820.8448796609991,None,820.8448796609991,None,,,,,,,,,,,,,,,,,,,,,,,,,,,,,,,,,,,,,,,,,,,,001,21,2020_Jan_28_1529,spring_faces,3.1.5,60.0066732224922,
condition files/Stage0b_1.xlsx,0b,none,beta,g,"['h', 'g']","['Chess', 'Go']","[-0.15, 0.5]","[0.15, 0.5]",0,1,0,10,10,10,0,1,1,1,,,,,,,,,,,,,,,,,,,,,,,,,,,,,,,,,,,,,,,,,,,,,,,,,,,,,,,,,,,,,,,822.8113734319995,None,822.8113734319995,None,822.8113734319995,None,g,1,1.238224407999951,824.3444376290026,None,824.3444376290026,None,824.3444376290026,None,825.6500716379996,None,825.6500716379996,None,825.6500716379996,None,825.6500716379996,None,,,,,,,,,,,,,,,,,,,,,,,,,,,,,,,,,,,,,,,,,,,,001,21,2020_Jan_28_1529,spring_faces,3.1.5,60.0066732224922,
condition files/Stage0b_2.xlsx,0b,beta,none,g,"['h', 'g']","['Chess', 'Go']","[-0.15, 0.5]","[0.15, 0.5]",1,0,0,11,11,11,0,0,0,1,,,,,,,,,,,,,,,,,,,,,,,,,,,,,,,,,,,,,,,,,,,,,,,,,,,,,,,,,,,,,,,827.6281516090021,None,827.6281516090021,None,827.6281516090021,None,g,1,1.136617952000961,829.166101199,None,829.166101199,None,829.166101199,None,830.3613027810025,None,830.3613027810025,None,830.3613027810025,None,830.3613027810025,None,,,,,,,,,,,,,,,,,,,,,,,,,,,,,,,,,,,,,,,,,,,,001,21,2020_Jan_28_1529,spring_faces,3.1.5,60.0066732224922,
condition files/Stage0b_2.xlsx,0b,none,alpha,h,"['h', 'g']","['Chess', 'Go']","[-0.15, 0.5]","[0.15, 0.5]",0,1,0,11,11,11,0,1,1,0,,,,,,,,,,,,,,,,,,,,,,,,,,,,,,,,,,,,,,,,,,,,,,,,,,,,,,,,,,,,,,,832.3280454500018,None,832.3280454500018,None,832.3280454500018,None,h,1,1.236775198001851,833.8659340510021,None,833.8659340510021,None,833.8659340510021,None,835.1652224310019,None,835.1652224310019,None,835.1652224310019,None,835.1652224310019,None,,,,,,,,,,,,,,,,,,,,,,,,,,,,,,,,,,,,,,,,,,,,001,21,2020_Jan_28_1529,spring_faces,3.1.5,60.0066732224922,
condition files/Stage0c_1.xlsx,0c,phi,beta,g,"['h', 'g']","['Chess', 'Go']","[-0.15, 0.5]","[0.15, 0.5]",1,1,0,12,12,12,0,0,0,3,,,,,,,,,,,,,,,,,,,,,,,,,,,,,,,,,,,,,,,,,,,,,,,,,,,,,,,,,,,,,,,837.1447566170027,None,837.1447566170027,None,837.1447566170027,None,g,1,8.167375187000289,838.6792796910013,None,838.6792796910013,None,838.6792796910013,None,846.9112732409994,None,846.9112732409994,None,846.9112732409994,None,846.9112732409994,None,,,,,,,,,,,,,,,,,,,,,,,,,,,,,,,,,,,,,,,,,,,,001,21,2020_Jan_28_1529,spring_faces,3.1.5,60.0066732224922,
condition files/Stage0c_1.xlsx,0c,alpha,phi,h,"['h', 'g']","['Chess', 'Go']","[-0.15, 0.5]","[0.15, 0.5]",1,1,0,12,12,12,0,1,1,1,,,,,,,,,,,,,,,,,,,,,,,,,,,,,,,,,,,,,,,,,,,,,,,,,,,,,,,,,,,,,,,848.8775218120027,None,848.8775218120027,None,848.8775218120027,None,h,1,1.6673274710010446,850.4113595980016,None,850.4113595980016,None,850.4113595980016,None,852.1279434989992,None,852.1279434989992,None,852.1279434989992,None,852.1279434989992,None,,,,,,,,,,,,,,,,,,,,,,,,,,,,,,,,,,,,,,,,,,,,001,21,2020_Jan_28_1529,spring_faces,3.1.5,60.0066732224922,
condition files/Stage0c_1.xlsx,0c,theta,alpha,h,"['h', 'g']","['Chess', 'Go']","[-0.15, 0.5]","[0.15, 0.5]",1,1,0,12,12,12,0,2,2,0,,,,,,,,,,,,,,,,,,,,,,,,,,,,,,,,,,,,,,,,,,,,,,,,,,,,,,,,,,,,,,,854.0942735930003,None,854.0942735930003,None,854.0942735930003,None,h,1,2.0828023409994785,855.6278507429997,None,855.6278507429997,None,855.6278507429997,None,857.7616121460014,None,857.7616121460014,None,857.7616121460014,None,857.7616121460014,None,,,,,,,,,,,,,,,,,,,,,,,,,,,,,,,,,,,,,,,,,,,,001,21,2020_Jan_28_1529,spring_faces,3.1.5,60.0066732224922,
condition files/Stage0c_1.xlsx,0c,beta,theta,g,"['h', 'g']","['Chess', 'Go']","[-0.15, 0.5]","[0.15, 0.5]",1,1,0,12,12,12,0,3,3,2,,,,,,,,,,,,,,,,,,,,,,,,,,,,,,,,,,,,,,,,,,,,,,,,,,,,,,,,,,,,,,,859.7281595790009,None,859.7281595790009,None,859.7281595790009,None,g,1,2.336911348000285,861.2617456530024,None,861.2617456530024,None,861.2617456530024,None,863.6617239520019,None,863.6617239520019,None,863.6617239520019,None,863.6617239520019,None,,,,,,,,,,,,,,,,,,,,,,,,,,,,,,,,,,,,,,,,,,,,001,21,2020_Jan_28_1529,spring_faces,3.1.5,60.0066732224922,
condition files/Stage0c_2.xlsx,0c,beta,phi,g,"['h', 'g']","['Chess', 'Go']","[-0.15, 0.5]","[0.15, 0.5]",1,1,0,13,13,13,0,0,0,3,,,,,,,,,,,,,,,,,,,,,,,,,,,,,,,,,,,,,,,,,,,,,,,,,,,,,,,,,,,,,,,865.6451178009993,None,865.6451178009993,None,865.6451178009993,None,g,1,1.332521682998049,867.1621191470003,None,867.1621191470003,None,867.1621191470003,None,868.530504325001,None,868.530504325001,None,868.530504325001,None,868.530504325001,None,,,,,,,,,,,,,,,,,,,,,,,,,,,,,,,,,,,,,,,,,,,,001,21,2020_Jan_28_1529,spring_faces,3.1.5,60.0066732224922,
condition files/Stage0c_2.xlsx,0c,theta,beta,g,"['h', 'g']","['Chess', 'Go']","[-0.15, 0.5]","[0.15, 0.5]",1,1,0,13,13,13,0,1,1,2,,,,,,,,,,,,,,,,,,,,,,,,,,,,,,,,,,,,,,,,,,,,,,,,,,,,,,,,,,,,,,,870.5114417709992,None,870.5114417709992,None,870.5114417709992,None,g,1,1.9539471009993576,872.0447075459997,None,872.0447075459997,None,872.0447075459997,None,874.0475850389994,None,874.0475850389994,None,874.0475850389994,None,874.0475850389994,None,,,,,,,,,,,,,,,,,,,,,,,,,,,,,,,,,,,,,,,,,,,,001,21,2020_Jan_28_1529,spring_faces,3.1.5,60.0066732224922,
condition files/Stage0c_2.xlsx,0c,phi,alpha,h,"['h', 'g']","['Chess', 'Go']","[-0.15, 0.5]","[0.15, 0.5]",1,1,0,13,13,13,0,2,2,1,,,,,,,,,,,,,,,,,,,,,,,,,,,,,,,,,,,,,,,,,,,,,,,,,,,,,,,,,,,,,,,876.0280259169995,None,876.0280259169995,None,876.0280259169995,None,h,1,3.9253270369990787,877.5613868860019,None,877.5613868860019,None,877.5613868860019,None,881.5451372780008,None,881.5451372780008,None,881.5451372780008,None,881.5451372780008,None,,,,,,,,,,,,,,,,,,,,,,,,,,,,,,,,,,,,,,,,,,,,001,21,2020_Jan_28_1529,spring_faces,3.1.5,60.0066732224922,
condition files/Stage0c_2.xlsx,0c,alpha,theta,h,"['h', 'g']","['Chess', 'Go']","[-0.15, 0.5]","[0.15, 0.5]",1,1,0,13,13,13,0,3,3,0,,,,,,,,,,,,,,,,,,,,,,,,,,,,,,,,,,,,,,,,,,,,,,,,,,,,,,,,,,,,,,,883.5109969810001,None,883.5109969810001,None,883.5109969810001,None,h,1,1.4174352500012901,885.045185551,None,885.045185551,None,885.045185551,None,886.5125608670023,None,886.5125608670023,None,886.5125608670023,None,886.5125608670023,None,,,,,,,,,,,,,,,,,,,,,,,,,,,,,,,,,,,,,,,,,,,,001,21,2020_Jan_28_1529,spring_faces,3.1.5,60.0066732224922,
condition files/Stage0c_1.xlsx,0c,alpha,phi,h,"['h', 'g']","['Chess', 'Go']","[-0.15, 0.5]","[0.15, 0.5]",1,1,0,14,14,14,0,0,0,1,,,,,,,,,,,,,,,,,,,,,,,,,,,,,,,,,,,,,,,,,,,,,,,,,,,,,,,,,,,,,,,888.5114552900013,None,888.5114552900013,None,888.5114552900013,None,h,1,0.9461452149989782,890.0444764810018,None,890.0444764810018,None,890.0444764810018,None,891.0281729269991,None,891.0281729269991,None,891.0281729269991,None,891.0281729269991,None,,,,,,,,,,,,,,,,,,,,,,,,,,,,,,,,,,,,,,,,,,,,001,21,2020_Jan_28_1529,spring_faces,3.1.5,60.0066732224922,
condition files/Stage0c_1.xlsx,0c,phi,beta,g,"['h', 'g']","['Chess', 'Go']","[-0.15, 0.5]","[0.15, 0.5]",1,1,0,14,14,14,0,1,1,3,,,,,,,,,,,,,,,,,,,,,,,,,,,,,,,,,,,,,,,,,,,,,,,,,,,,,,,,,,,,,,,893.0115144910014,None,893.0115144910014,None,893.0115144910014,None,g,1,2.173690534000343,894.5450212180003,None,894.5450212180003,None,894.5450212180003,None,896.7779676690006,None,896.7779676690006,None,896.7779676690006,None,896.7779676690006,None,,,,,,,,,,,,,,,,,,,,,,,,,,,,,,,,,,,,,,,,,,,,001,21,2020_Jan_28_1529,spring_faces,3.1.5,60.0066732224922,
condition files/Stage0c_1.xlsx,0c,beta,theta,g,"['h', 'g']","['Chess', 'Go']","[-0.15, 0.5]","[0.15, 0.5]",1,1,0,14,14,14,0,2,2,2,,,,,,,,,,,,,,,,,,,,,,,,,,,,,,,,,,,,,,,,,,,,,,,,,,,,,,,,,,,,,,,898.7449834290019,None,898.7449834290019,None,898.7449834290019,None,g,1,1.4325945780001348,900.278050416,None,900.278050416,None,900.278050416,None,901.7460225230025,None,901.7460225230025,None,901.7460225230025,None,901.7460225230025,None,,,,,,,,,,,,,,,,,,,,,,,,,,,,,,,,,,,,,,,,,,,,001,21,2020_Jan_28_1529,spring_faces,3.1.5,60.0066732224922,
condition files/Stage0c_1.xlsx,0c,theta,alpha,h,"['h', 'g']","['Chess', 'Go']","[-0.15, 0.5]","[0.15, 0.5]",1,1,0,14,14,14,0,3,3,0,,,,,,,,,,,,,,,,,,,,,,,,,,,,,,,,,,,,,,,,,,,,,,,,,,,,,,,,,,,,,,,903.7282871960015,None,903.7282871960015,None,903.7282871960015,None,h,1,1.4409308979993511,905.2617790910008,None,905.2617790910008,None,905.2617790910008,None,906.7625431820015,None,906.7625431820015,None,906.7625431820015,None,906.7625431820015,None,,,,,,,,,,,,,,,,,,,,,,,,,,,,,,,,,,,,,,,,,,,,001,21,2020_Jan_28_1529,spring_faces,3.1.5,60.0066732224922,
condition files/Stage0c_2.xlsx,0c,theta,beta,g,"['h', 'g']","['Chess', 'Go']","[-0.15, 0.5]","[0.15, 0.5]",1,1,0,15,15,15,0,0,0,2,,,,,,,,,,,,,,,,,,,,,,,,,,,,,,,,,,,,,,,,,,,,,,,,,,,,,,,,,,,,,,,908.7443504729999,None,908.7443504729999,None,908.7443504729999,None,g,1,1.2096442599977308,910.2610686059998,None,910.2610686059998,None,910.2610686059998,None,911.5286735240006,None,911.5286735240006,None,911.5286735240006,None,911.5286735240006,None,,,,,,,,,,,,,,,,,,,,,,,,,,,,,,,,,,,,,,,,,,,,001,21,2020_Jan_28_1529,spring_faces,3.1.5,60.0066732224922,
condition files/Stage0c_2.xlsx,0c,phi,alpha,h,"['h', 'g']","['Chess', 'Go']","[-0.15, 0.5]","[0.15, 0.5]",1,1,0,15,15,15,0,1,1,1,,,,,,,,,,,,,,,,,,,,,,,,,,,,,,,,,,,,,,,,,,,,,,,,,,,,,,,,,,,,,,,913.4947990750006,None,913.4947990750006,None,913.4947990750006,None,h,1,1.414542677001009,915.0161006410017,None,915.0161006410017,None,915.0161006410017,None,916.4949000790002,None,916.4949000790002,None,916.4949000790002,None,916.4949000790002,None,,,,,,,,,,,,,,,,,,,,,,,,,,,,,,,,,,,,,,,,,,,,001,21,2020_Jan_28_1529,spring_faces,3.1.5,60.0066732224922,
condition files/Stage0c_2.xlsx,0c,alpha,theta,h,"['h', 'g']","['Chess', 'Go']","[-0.15, 0.5]","[0.15, 0.5]",1,1,0,15,15,15,0,2,2,0,,,,,,,,,,,,,,,,,,,,,,,,,,,,,,,,,,,,,,,,,,,,,,,,,,,,,,,,,,,,,,,918.4614940680003,None,918.4614940680003,None,918.4614940680003,None,h,1,2.163471813000797,919.9951882530004,None,919.9951882530004,None,919.9951882530004,None,922.1963525589999,None,922.1963525589999,None,922.1963525589999,None,922.1963525589999,None,,,,,,,,,,,,,,,,,,,,,,,,,,,,,,,,,,,,,,,,,,,,001,21,2020_Jan_28_1529,spring_faces,3.1.5,60.0066732224922,
condition files/Stage0c_2.xlsx,0c,beta,phi,g,"['h', 'g']","['Chess', 'Go']","[-0.15, 0.5]","[0.15, 0.5]",1,1,0,15,15,15,0,3,3,3,,,,,,,,,,,,,,,,,,,,,,,,,,,,,,,,,,,,,,,,,,,,,,,,,,,,,,,,,,,,,,,924.1783055220003,None,924.1783055220003,None,924.1783055220003,None,g,1,1.6956757859989011,925.7109532989998,None,925.7109532989998,None,925.7109532989998,None,927.4617509630007,None,927.4617509630007,None,927.4617509630007,None,927.4617509630007,None,,,,,,,,,,,,,,,,,,,,,,,,,,,,,,,,,,,,,,,,,,,,001,21,2020_Jan_28_1529,spring_faces,3.1.5,60.0066732224922,
condition files/Stage0c_1.xlsx,0c,alpha,phi,h,"['h', 'g']","['Chess', 'Go']","[-0.15, 0.5]","[0.15, 0.5]",1,1,0,16,16,16,0,0,0,1,,,,,,,,,,,,,,,,,,,,,,,,,,,,,,,,,,,,,,,,,,,,,,,,,,,,,,,,,,,,,,,929.4447277990002,None,929.4447277990002,None,929.4447277990002,None,h,1,2.4603363329988497,930.97838606,None,930.97838606,None,930.97838606,None,933.4950580149998,None,933.4950580149998,None,933.4950580149998,None,933.4950580149998,None,,,,,,,,,,,,,,,,,,,,,,,,,,,,,,,,,,,,,,,,,,,,001,21,2020_Jan_28_1529,spring_faces,3.1.5,60.0066732224922,
condition files/Stage0c_1.xlsx,0c,beta,theta,g,"['h', 'g']","['Chess', 'Go']","[-0.15, 0.5]","[0.15, 0.5]",1,1,0,16,16,16,0,1,1,2,,,,,,,,,,,,,,,,,,,,,,,,,,,,,,,,,,,,,,,,,,,,,,,,,,,,,,,,,,,,,,,935.4614280200003,None,935.4614280200003,None,935.4614280200003,None,g,1,5.500038314999983,936.9945807180011,None,936.9945807180011,None,936.9945807180011,None,942.5447122260011,None,942.5447122260011,None,942.5447122260011,None,942.5447122260011,None,,,,,,,,,,,,,,,,,,,,,,,,,,,,,,,,,,,,,,,,,,,,001,21,2020_Jan_28_1529,spring_faces,3.1.5,60.0066732224922,
condition files/Stage0c_1.xlsx,0c,phi,beta,g,"['h', 'g']","['Chess', 'Go']","[-0.15, 0.5]","[0.15, 0.5]",1,1,0,16,16,16,0,2,2,3,,,,,,,,,,,,,,,,,,,,,,,,,,,,,,,,,,,,,,,,,,,,,,,,,,,,,,,,,,,,,,,944.5111484209992,None,944.5111484209992,None,944.5111484209992,None,g,1,1.3615902759993332,946.045024215,None,946.045024215,None,946.045024215,None,947.4455008680015,None,947.4455008680015,None,947.4455008680015,None,947.4455008680015,None,,,,,,,,,,,,,,,,,,,,,,,,,,,,,,,,,,,,,,,,,,,,001,21,2020_Jan_28_1529,spring_faces,3.1.5,60.0066732224922,
condition files/Stage0c_1.xlsx,0c,theta,alpha,h,"['h', 'g']","['Chess', 'Go']","[-0.15, 0.5]","[0.15, 0.5]",1,1,0,16,16,16,0,3,3,0,,,,,,,,,,,,,,,,,,,,,,,,,,,,,,,,,,,,,,,,,,,,,,,,,,,,,,,,,,,,,,,949.4276649050007,None,949.4276649050007,None,949.4276649050007,None,h,1,1.0052841969991277,950.9613722190006,None,950.9613722190006,None,950.9613722190006,None,952.0286247570002,None,952.0286247570002,None,952.0286247570002,None,952.0286247570002,None,,,,,,,,,,,,,,,,,,,,,,,,,,,,,,,,,,,,,,,,,,,,001,21,2020_Jan_28_1529,spring_faces,3.1.5,60.0066732224922,
condition files/Stage0c_2.xlsx,0c,beta,phi,g,"['h', 'g']","['Chess', 'Go']","[-0.15, 0.5]","[0.15, 0.5]",1,1,0,17,17,17,0,0,0,3,,,,,,,,,,,,,,,,,,,,,,,,,,,,,,,,,,,,,,,,,,,,,,,,,,,,,,,,,,,,,,,954.0116014699997,None,954.0116014699997,None,954.0116014699997,None,g,1,2.437770240001555,955.5448759240026,None,955.5448759240026,None,955.5448759240026,None,958.0447649140006,None,958.0447649140006,None,958.0447649140006,None,958.0447649140006,None,,,,,,,,,,,,,,,,,,,,,,,,,,,,,,,,,,,,,,,,,,,,001,21,2020_Jan_28_1529,spring_faces,3.1.5,60.0066732224922,
condition files/Stage0c_2.xlsx,0c,alpha,theta,h,"['h', 'g']","['Chess', 'Go']","[-0.15, 0.5]","[0.15, 0.5]",1,1,0,17,17,17,0,1,1,0,,,,,,,,,,,,,,,,,,,,,,,,,,,,,,,,,,,,,,,,,,,,,,,,,,,,,,,,,,,,,,,960.0113520080013,None,960.0113520080013,None,960.0113520080013,None,h,1,1.430216435001057,961.5443850410011,None,961.5443850410011,None,961.5443850410011,None,963.028149861002,None,963.028149861002,None,963.028149861002,None,963.028149861002,None,,,,,,,,,,,,,,,,,,,,,,,,,,,,,,,,,,,,,,,,,,,,001,21,2020_Jan_28_1529,spring_faces,3.1.5,60.0066732224922,
condition files/Stage0c_2.xlsx,0c,phi,alpha,h,"['h', 'g']","['Chess', 'Go']","[-0.15, 0.5]","[0.15, 0.5]",1,1,0,17,17,17,0,2,2,1,,,,,,,,,,,,,,,,,,,,,,,,,,,,,,,,,,,,,,,,,,,,,,,,,,,,,,,,,,,,,,,964.994672705001,None,964.994672705001,None,964.994672705001,None,h,1,7.438375226000062,966.5282761970011,None,966.5282761970011,None,966.5282761970011,None,974.0113813919997,None,974.0113813919997,None,974.0113813919997,None,974.0113813919997,None,,,,,,,,,,,,,,,,,,,,,,,,,,,,,,,,,,,,,,,,,,,,001,21,2020_Jan_28_1529,spring_faces,3.1.5,60.0066732224922,
condition files/Stage0c_2.xlsx,0c,theta,beta,g,"['h', 'g']","['Chess', 'Go']","[-0.15, 0.5]","[0.15, 0.5]",1,1,0,17,17,17,0,3,3,2,,,,,,,,,,,,,,,,,,,,,,,,,,,,,,,,,,,,,,,,,,,,,,,,,,,,,,,,,,,,,,,975.9944842510013,None,975.9944842510013,None,975.9944842510013,None,g,1,0.9349879670007795,977.5276195030019,None,977.5276195030019,None,977.5276195030019,None,978.5282420380026,None,978.5282420380026,None,978.5282420380026,None,978.5282420380026,None,,,,,,,,,,,,,,,,,,,,,,,,,,,,,,,,,,,,,,,,,,,,001,21,2020_Jan_28_1529,spring_faces,3.1.5,60.0066732224922,
,,,,,,,,,,,,,,,,,,,,,,,,,,,,,,,,,,,,,,,,,,,,,,,,,,,,,,,,,,,,,,,,,,,,,,,,,,,,,,,,,,,,,,,,,,,,,,,,,,,,,,,,980.5119104680016,None,space,1.991147851000278,985.5115811079995,None,,,,,,,,,,,,,,,,,,,,,,,,,,,,,,,,,,,,,,001,21,2020_Jan_28_1529,spring_faces,3.1.5,60.0066732224922,
condition files/Stage1_1.xlsx,,T3,B4,c,"['c', 'm']","['Clue', 'Monopoly']","[-0.15, 0.5]","[0.15, 0.5]",1,1,,,,,,,,,0,0,0,0,0,0,0,5,,,,,,,,,,,,,,,,,,,,,,,,,,,,,,,,,,,,,,,,,,,,,,,,,,,,,,,987.561104108001,None,987.561104108001,None,987.561104108001,None,c,1,2.2315161379992787,989.0951443720005,None,989.0951443720005,None,989.0951443720005,None,991.394450308002,None,991.394450308002,None,991.394450308002,None,991.394450308002,None,,,,,,,985.5115811079995,None,,,,,,,,,,,,,,,,,,,,,,,,,,,,,,,,,,,,001,21,2020_Jan_28_1529,spring_faces,3.1.5,60.0066732224922,
condition files/Stage1_1.xlsx,,B1,T2,c,"['c', 'm']","['Clue', 'Monopoly']","[-0.15, 0.5]","[0.15, 0.5]",1,1,,,,,,,,,0,0,0,0,0,1,1,1,,,,,,,,,,,,,,,,,,,,,,,,,,,,,,,,,,,,,,,,,,,,,,,,,,,,,,,993.3447897670012,None,993.3447897670012,None,993.3447897670012,None,m,0,2.0964493610008503,994.8783225270017,None,994.8783225270017,None,994.8783225270017,None,997.0280055260009,None,997.0280055260009,None,997.0280055260009,None,997.0280055260009,None,,,,,,,,,,,,,,,,,,,,,,,,,,,,,,,,,,,,,,,,,,,,001,21,2020_Jan_28_1529,spring_faces,3.1.5,60.0066732224922,
condition files/Stage1_1.xlsx,,B3,T3,c,"['c', 'm']","['Clue', 'Monopoly']","[-0.15, 0.5]","[0.15, 0.5]",1,1,,,,,,,,,0,0,0,0,0,2,2,4,,,,,,,,,,,,,,,,,,,,,,,,,,,,,,,,,,,,,,,,,,,,,,,,,,,,,,,998.9950660540017,None,998.9950660540017,None,998.9950660540017,None,m,0,4.34954872399976,1000.5450830310001,None,1000.5450830310001,None,1000.5450830310001,None,1004.9447942020015,None,1004.9447942020015,None,1004.9447942020015,None,1004.9447942020015,None,,,,,,,,,,,,,,,,,,,,,,,,,,,,,,,,,,,,,,,,,,,,001,21,2020_Jan_28_1529,spring_faces,3.1.5,60.0066732224922,
condition files/Stage1_1.xlsx,,T2,B2,m,"['c', 'm']","['Clue', 'Monopoly']","[-0.15, 0.5]","[0.15, 0.5]",1,1,,,,,,,,,0,0,0,0,0,3,3,3,,,,,,,,,,,,,,,,,,,,,,,,,,,,,,,,,,,,,,,,,,,,,,,,,,,,,,,1006.9113966680015,None,1006.9113966680015,None,1006.9113966680015,None,c,0,2.5779350539996813,1008.4447359620026,None,1008.4447359620026,None,1008.4447359620026,None,1011.0950750129996,None,1011.0950750129996,None,1011.0950750129996,None,1011.0950750129996,None,,,,,,,,,,,,,,,,,,,,,,,,,,,,,,,,,,,,,,,,,,,,001,21,2020_Jan_28_1529,spring_faces,3.1.5,60.0066732224922,
condition files/Stage1_1.xlsx,,B2,T1,m,"['c', 'm']","['Clue', 'Monopoly']","[-0.15, 0.5]","[0.15, 0.5]",1,1,,,,,,,,,0,0,0,0,0,4,4,2,,,,,,,,,,,,,,,,,,,,,,,,,,,,,,,,,,,,,,,,,,,,,,,,,,,,,,,1013.0445531229998,None,1013.0445531229998,None,1013.0445531229998,None,m,1,8.95461371700003,1014.5800560509997,None,1014.5800560509997,None,1014.5800560509997,None,1023.594526926001,None,1023.594526926001,None,1023.594526926001,None,1023.594526926001,None,,,,,,,,,,,,,,,,,,,,,,,,,,,,,,,,,,,,,,,,,,,,001,21,2020_Jan_28_1529,spring_faces,3.1.5,60.0066732224922,
condition files/Stage1_1.xlsx,,T4,B3,m,"['c', 'm']","['Clue', 'Monopoly']","[-0.15, 0.5]","[0.15, 0.5]",1,1,,,,,,,,,0,0,0,0,0,5,5,6,,,,,,,,,,,,,,,,,,,,,,,,,,,,,,,,,,,,,,,,,,,,,,,,,,,,,,,1025.5613937890012,None,1025.5613937890012,None,1025.5613937890012,None,c,0,1.2243033300001116,1027.0944141060027,None,1027.0944141060027,None,1027.0944141060027,None,1028.3779343419992,None,1028.3779343419992,None,1028.3779343419992,None,1028.3779343419992,None,,,,,,,,,,,,,,,,,,,,,,,,,,,,,,,,,,,,,,,,,,,,001,21,2020_Jan_28_1529,spring_faces,3.1.5,60.0066732224922,
condition files/Stage1_1.xlsx,,B4,T4,m,"['c', 'm']","['Clue', 'Monopoly']","[-0.15, 0.5]","[0.15, 0.5]",1,1,,,,,,,,,0,0,0,0,0,6,6,7,,,,,,,,,,,,,,,,,,,,,,,,,,,,,,,,,,,,,,,,,,,,,,,,,,,,,,,1030.3445928300025,None,1030.3445928300025,None,1030.3445928300025,None,c,0,1.3207019069996022,1031.8779694660006,None,1031.8779694660006,None,1031.8779694660006,None,1033.261634331,None,1033.261634331,None,1033.261634331,None,1033.261634331,None,,,,,,,,,,,,,,,,,,,,,,,,,,,,,,,,,,,,,,,,,,,,001,21,2020_Jan_28_1529,spring_faces,3.1.5,60.0066732224922,
condition files/Stage1_1.xlsx,,T1,B1,c,"['c', 'm']","['Clue', 'Monopoly']","[-0.15, 0.5]","[0.15, 0.5]",1,1,,,,,,,,,0,0,0,0,0,7,7,0,,,,,,,,,,,,,,,,,,,,,,,,,,,,,,,,,,,,,,,,,,,,,,,,,,,,,,,1035.2281266620012,None,1035.2281266620012,None,1035.2281266620012,None,c,1,3.653831273000833,1036.7608459879993,None,1036.7608459879993,None,1036.7608459879993,None,1040.4797508340016,None,1040.4797508340016,None,1040.4797508340016,None,1040.4797508340016,None,,,,,,,,,,,,,,,,,,,,,,,,,,,,,,,,,,,,,,,,,,,,001,21,2020_Jan_28_1529,spring_faces,3.1.5,60.0066732224922,
condition files/Stage1_2.xlsx,,B2,T2,m,"['c', 'm']","['Clue', 'Monopoly']","[-0.15, 0.5]","[0.15, 0.5]",1,1,,,,,,,,,0,1,1,1,0,0,0,3,,,,,,,,,,,,,,,,,,,,,,,,,,,,,,,,,,,,,,,,,,,,,,,,,,,,,,,1042.4611828439993,None,1042.4611828439993,None,1042.4611828439993,None,m,1,3.1069259550022252,1044.0118029860023,None,1044.0118029860023,None,1044.0118029860023,None,1047.180294529,None,1047.180294529,None,1047.180294529,None,1047.180294529,None,,,,,,,,,,,,,,,,,,,,,,,,,,,,,,,,,,,,,,,,,,,,001,21,2020_Jan_28_1529,spring_faces,3.1.5,60.0066732224922,
condition files/Stage1_2.xlsx,,B3,T4,m,"['c', 'm']","['Clue', 'Monopoly']","[-0.15, 0.5]","[0.15, 0.5]",1,1,,,,,,,,,0,1,1,1,0,1,1,6,,,,,,,,,,,,,,,,,,,,,,,,,,,,,,,,,,,,,,,,,,,,,,,,,,,,,,,1049.1448001380013,None,1049.1448001380013,None,1049.1448001380013,None,m,1,2.4399593620000815,1050.6946835330018,None,1050.6946835330018,None,1050.6946835330018,None,1053.194877848,None,1053.194877848,None,1053.194877848,None,1053.194877848,None,,,,,,,,,,,,,,,,,,,,,,,,,,,,,,,,,,,,,,,,,,,,001,21,2020_Jan_28_1529,spring_faces,3.1.5,60.0066732224922,
condition files/Stage1_2.xlsx,,T2,B1,c,"['c', 'm']","['Clue', 'Monopoly']","[-0.15, 0.5]","[0.15, 0.5]",1,1,,,,,,,,,0,1,1,1,0,2,2,1,,,,,,,,,,,,,,,,,,,,,,,,,,,,,,,,,,,,,,,,,,,,,,,,,,,,,,,1055.1613847780027,None,1055.1613847780027,None,1055.1613847780027,None,m,0,2.023028097999486,1056.711692162,None,1056.711692162,None,1056.711692162,None,1058.8116944979993,None,1058.8116944979993,None,1058.8116944979993,None,1058.8116944979993,None,,,,,,,,,,,,,,,,,,,,,,,,,,,,,,,,,,,,,,,,,,,,001,21,2020_Jan_28_1529,spring_faces,3.1.5,60.0066732224922,
condition files/Stage1_2.xlsx,,B4,T3,c,"['c', 'm']","['Clue', 'Monopoly']","[-0.15, 0.5]","[0.15, 0.5]",1,1,,,,,,,,,0,1,1,1,0,3,3,5,,,,,,,,,,,,,,,,,,,,,,,,,,,,,,,,,,,,,,,,,,,,,,,,,,,,,,,1060.7614497270006,None,1060.7614497270006,None,1060.7614497270006,None,c,1,3.0624207770015346,1062.296255043002,None,1062.296255043002,None,1062.296255043002,None,1065.4115537340003,None,1065.4115537340003,None,1065.4115537340003,None,1065.4115537340003,None,,,,,,,,,,,,,,,,,,,,,,,,,,,,,,,,,,,,,,,,,,,,001,21,2020_Jan_28_1529,spring_faces,3.1.5,60.0066732224922,
condition files/Stage1_2.xlsx,,B1,T1,c,"['c', 'm']","['Clue', 'Monopoly']","[-0.15, 0.5]","[0.15, 0.5]",1,1,,,,,,,,,0,1,1,1,0,4,4,0,,,,,,,,,,,,,,,,,,,,,,,,,,,,,,,,,,,,,,,,,,,,,,,,,,,,,,,1067.3778831010022,None,1067.3778831010022,None,1067.3778831010022,None,m,0,3.2620333769991703,1068.9126382310023,None,1068.9126382310023,None,1068.9126382310023,None,1072.228301989002,None,1072.228301989002,None,1072.228301989002,None,1072.228301989002,None,,,,,,,,,,,,,,,,,,,,,,,,,,,,,,,,,,,,,,,,,,,,001,21,2020_Jan_28_1529,spring_faces,3.1.5,60.0066732224922,
condition files/Stage1_2.xlsx,,T4,B4,m,"['c', 'm']","['Clue', 'Monopoly']","[-0.15, 0.5]","[0.15, 0.5]",1,1,,,,,,,,,0,1,1,1,0,5,5,7,,,,,,,,,,,,,,,,,,,,,,,,,,,,,,,,,,,,,,,,,,,,,,,,,,,,,,,1074.194910590002,None,1074.194910590002,None,1074.194910590002,None,c,0,3.1486350870000024,1075.7299910000002,None,1075.7299910000002,None,1075.7299910000002,None,1078.9458168310011,None,1078.9458168310011,None,1078.9458168310011,None,1078.9458168310011,None,,,,,,,,,,,,,,,,,,,,,,,,,,,,,,,,,,,,,,,,,,,,001,21,2020_Jan_28_1529,spring_faces,3.1.5,60.0066732224922,
condition files/Stage1_2.xlsx,,T1,B2,m,"['c', 'm']","['Clue', 'Monopoly']","[-0.15, 0.5]","[0.15, 0.5]",1,1,,,,,,,,,0,1,1,1,0,6,6,2,,,,,,,,,,,,,,,,,,,,,,,,,,,,,,,,,,,,,,,,,,,,,,,,,,,,,,,1080.9113649339997,None,1080.9113649339997,None,1080.9113649339997,None,m,1,2.7838802139995096,1082.4467838769997,None,1082.4467838769997,None,1082.4467838769997,None,1085.2950262170016,None,1085.2950262170016,None,1085.2950262170016,None,1085.2950262170016,None,,,,,,,,,,,,,,,,,,,,,,,,,,,,,,,,,,,,,,,,,,,,001,21,2020_Jan_28_1529,spring_faces,3.1.5,60.0066732224922,
condition files/Stage1_2.xlsx,,T3,B3,c,"['c', 'm']","['Clue', 'Monopoly']","[-0.15, 0.5]","[0.15, 0.5]",1,1,,,,,,,,,0,1,1,1,0,7,7,4,,,,,,,,,,,,,,,,,,,,,,,,,,,,,,,,,,,,,,,,,,,,,,,,,,,,,,,1087.2611924760022,None,1087.2611924760022,None,1087.2611924760022,None,c,1,2.8515603550004016,1088.8110650359995,None,1088.8110650359995,None,1088.8110650359995,None,1091.745051910002,None,1091.745051910002,None,1091.745051910002,None,1091.745051910002,None,,,,,,,,,,,,,,,,,,,,,,,,,,,,,,,,,,,,,,,,,,,,001,21,2020_Jan_28_1529,spring_faces,3.1.5,60.0066732224922,
condition files/Stage1_1.xlsx,,B1,T2,c,"['c', 'm']","['Clue', 'Monopoly']","[-0.15, 0.5]","[0.15, 0.5]",1,1,,,,,,,,,0,2,2,2,0,0,0,1,,,,,,,,,,,,,,,,,,,,,,,,,,,,,,,,,,,,,,,,,,,,,,,,,,,,,,,1093.7117931640023,None,1093.7117931640023,None,1093.7117931640023,None,c,1,3.2962468349978735,1095.2464186010002,None,1095.2464186010002,None,1095.2464186010002,None,1098.5949753910027,None,1098.5949753910027,None,1098.5949753910027,None,1098.5949753910027,None,,,,,,,,,,,,,,,,,,,,,,,,,,,,,,,,,,,,,,,,,,,,001,21,2020_Jan_28_1529,spring_faces,3.1.5,60.0066732224922,
condition files/Stage1_1.xlsx,,T1,B1,c,"['c', 'm']","['Clue', 'Monopoly']","[-0.15, 0.5]","[0.15, 0.5]",1,1,,,,,,,,,0,2,2,2,0,1,1,0,,,,,,,,,,,,,,,,,,,,,,,,,,,,,,,,,,,,,,,,,,,,,,,,,,,,,,,1100.5614415060008,None,1100.5614415060008,None,1100.5614415060008,None,m,0,2.095315196998854,1102.095344862002,None,1102.095344862002,None,1102.095344862002,None,1104.2450203260014,None,1104.2450203260014,None,1104.2450203260014,None,1104.2450203260014,None,,,,,,,,,,,,,,,,,,,,,,,,,,,,,,,,,,,,,,,,,,,,001,21,2020_Jan_28_1529,spring_faces,3.1.5,60.0066732224922,
condition files/Stage1_1.xlsx,,T4,B3,m,"['c', 'm']","['Clue', 'Monopoly']","[-0.15, 0.5]","[0.15, 0.5]",1,1,,,,,,,,,0,2,2,2,0,2,2,6,,,,,,,,,,,,,,,,,,,,,,,,,,,,,,,,,,,,,,,,,,,,,,,,,,,,,,,1106.2112177180024,None,1106.2112177180024,None,1106.2112177180024,None,m,1,3.7241952309996122,1107.7465340340023,None,1107.7465340340023,None,1107.7465340340023,None,1111.5282627680026,None,1111.5282627680026,None,1111.5282627680026,None,1111.5282627680026,None,,,,,,,,,,,,,,,,,,,,,,,,,,,,,,,,,,,,,,,,,,,,001,21,2020_Jan_28_1529,spring_faces,3.1.5,60.0066732224922,
condition files/Stage1_1.xlsx,,T2,B2,m,"['c', 'm']","['Clue', 'Monopoly']","[-0.15, 0.5]","[0.15, 0.5]",1,1,,,,,,,,,0,2,2,2,0,3,3,3,,,,,,,,,,,,,,,,,,,,,,,,,,,,,,,,,,,,,,,,,,,,,,,,,,,,,,,1113.494750705002,None,1113.494750705002,None,1113.494750705002,None,m,1,1.9627444369980367,1115.0278836640027,None,1115.0278836640027,None,1115.0278836640027,None,1117.0449876839994,None,1117.0449876839994,None,1117.0449876839994,None,1117.0449876839994,None,,,,,,,,,,,,,,,,,,,,,,,,,,,,,,,,,,,,,,,,,,,,001,21,2020_Jan_28_1529,spring_faces,3.1.5,60.0066732224922,
condition files/Stage1_1.xlsx,,B2,T1,m,"['c', 'm']","['Clue', 'Monopoly']","[-0.15, 0.5]","[0.15, 0.5]",1,1,,,,,,,,,0,2,2,2,0,4,4,2,,,,,,,,,,,,,,,,,,,,,,,,,,,,,,,,,,,,,,,,,,,,,,,,,,,,,,,1119.0114460799996,None,1119.0114460799996,None,1119.0114460799996,None,m,1,1.1495109269999375,1120.5451569040015,None,1120.5451569040015,None,1120.5451569040015,None,1121.744951828001,None,1121.744951828001,None,1121.744951828001,None,1121.744951828001,None,,,,,,,,,,,,,,,,,,,,,,,,,,,,,,,,,,,,,,,,,,,,001,21,2020_Jan_28_1529,spring_faces,3.1.5,60.0066732224922,
condition files/Stage1_1.xlsx,,T3,B4,c,"['c', 'm']","['Clue', 'Monopoly']","[-0.15, 0.5]","[0.15, 0.5]",1,1,,,,,,,,,0,2,2,2,0,5,5,5,,,,,,,,,,,,,,,,,,,,,,,,,,,,,,,,,,,,,,,,,,,,,,,,,,,,,,,1123.7115826219997,None,1123.7115826219997,None,1123.7115826219997,None,c,1,2.7529857979970984,1125.2616720459991,None,1125.2616720459991,None,1125.2616720459991,None,1128.0783726980007,None,1128.0783726980007,None,1128.0783726980007,None,1128.0783726980007,None,,,,,,,,,,,,,,,,,,,,,,,,,,,,,,,,,,,,,,,,,,,,001,21,2020_Jan_28_1529,spring_faces,3.1.5,60.0066732224922,
condition files/Stage1_1.xlsx,,B4,T4,m,"['c', 'm']","['Clue', 'Monopoly']","[-0.15, 0.5]","[0.15, 0.5]",1,1,,,,,,,,,0,2,2,2,0,6,6,7,,,,,,,,,,,,,,,,,,,,,,,,,,,,,,,,,,,,,,,,,,,,,,,,,,,,,,,1130.0448785070002,None,1130.0448785070002,None,1130.0448785070002,None,c,0,8.964424841000437,1131.578242260999,None,1131.578242260999,None,1131.578242260999,None,1140.5957167119996,None,1140.5957167119996,None,1140.5957167119996,None,1140.5957167119996,None,,,,,,,,,,,,,,,,,,,,,,,,,,,,,,,,,,,,,,,,,,,,001,21,2020_Jan_28_1529,spring_faces,3.1.5,60.0066732224922,
condition files/Stage1_1.xlsx,,B3,T3,c,"['c', 'm']","['Clue', 'Monopoly']","[-0.15, 0.5]","[0.15, 0.5]",1,1,,,,,,,,,0,2,2,2,0,7,7,4,,,,,,,,,,,,,,,,,,,,,,,,,,,,,,,,,,,,,,,,,,,,,,,,,,,,,,,1142.5616400260005,None,1142.5616400260005,None,1142.5616400260005,None,c,1,6.926838904997567,1144.1118782939993,None,1144.1118782939993,None,1144.1118782939993,None,1151.0952687810022,None,1151.0952687810022,None,1151.0952687810022,None,1151.0952687810022,None,,,,,,,,,,,,,,,,,,,,,,,,,,,,,,,,,,,,,,,,,,,,001,21,2020_Jan_28_1529,spring_faces,3.1.5,60.0066732224922,
condition files/Stage1_2.xlsx,,T2,B1,c,"['c', 'm']","['Clue', 'Monopoly']","[-0.15, 0.5]","[0.15, 0.5]",1,1,,,,,,,,,0,3,3,3,0,0,0,1,,,,,,,,,,,,,,,,,,,,,,,,,,,,,,,,,,,,,,,,,,,,,,,,,,,,,,,1153.0785238040007,None,1153.0785238040007,None,1153.0785238040007,None,c,1,3.225996993998706,1154.6286438880015,None,1154.6286438880015,None,1154.6286438880015,None,1157.9118179910001,None,1157.9118179910001,None,1157.9118179910001,None,1157.9118179910001,None,,,,,,,,,,,,,,,,,,,,,,,,,,,,,,,,,,,,,,,,,,,,001,21,2020_Jan_28_1529,spring_faces,3.1.5,60.0066732224922,
condition files/Stage1_2.xlsx,,T3,B3,c,"['c', 'm']","['Clue', 'Monopoly']","[-0.15, 0.5]","[0.15, 0.5]",1,1,,,,,,,,,0,3,3,3,0,1,1,4,,,,,,,,,,,,,,,,,,,,,,,,,,,,,,,,,,,,,,,,,,,,,,,,,,,,,,,1159.8776043750004,None,1159.8776043750004,None,1159.8776043750004,None,c,1,1.659088061998773,1161.4116521899996,None,1161.4116521899996,None,1161.4116521899996,None,1163.128460467,None,1163.128460467,None,1163.128460467,None,1163.128460467,None,,,,,,,,,,,,,,,,,,,,,,,,,,,,,,,,,,,,,,,,,,,,001,21,2020_Jan_28_1529,spring_faces,3.1.5,60.0066732224922,
condition files/Stage1_2.xlsx,,B4,T3,c,"['c', 'm']","['Clue', 'Monopoly']","[-0.15, 0.5]","[0.15, 0.5]",1,1,,,,,,,,,0,3,3,3,0,2,2,5,,,,,,,,,,,,,,,,,,,,,,,,,,,,,,,,,,,,,,,,,,,,,,,,,,,,,,,1165.0949296370018,None,1165.0949296370018,None,1165.0949296370018,None,c,1,3.241164410002966,1166.6295735509993,None,1166.6295735509993,None,1166.6295735509993,None,1169.9281741980012,None,1169.9281741980012,None,1169.9281741980012,None,1169.9281741980012,None,,,,,,,,,,,,,,,,,,,,,,,,,,,,,,,,,,,,,,,,,,,,001,21,2020_Jan_28_1529,spring_faces,3.1.5,60.0066732224922,
condition files/Stage1_2.xlsx,,B2,T2,m,"['c', 'm']","['Clue', 'Monopoly']","[-0.15, 0.5]","[0.15, 0.5]",1,1,,,,,,,,,0,3,3,3,0,3,3,3,,,,,,,,,,,,,,,,,,,,,,,,,,,,,,,,,,,,,,,,,,,,,,,,,,,,,,,1171.8944886380013,None,1171.8944886380013,None,1171.8944886380013,None,m,1,1.6259198890002153,1173.4288059730025,None,1173.4288059730025,None,1173.4288059730025,None,1175.128400898,None,1175.128400898,None,1175.128400898,None,1175.128400898,None,,,,,,,,,,,,,,,,,,,,,,,,,,,,,,,,,,,,,,,,,,,,001,21,2020_Jan_28_1529,spring_faces,3.1.5,60.0066732224922,
condition files/Stage1_2.xlsx,,T4,B4,m,"['c', 'm']","['Clue', 'Monopoly']","[-0.15, 0.5]","[0.15, 0.5]",1,1,,,,,,,,,0,3,3,3,0,4,4,7,,,,,,,,,,,,,,,,,,,,,,,,,,,,,,,,,,,,,,,,,,,,,,,,,,,,,,,1177.0774745220006,None,1177.0774745220006,None,1177.0774745220006,None,c,0,1.9307119109980704,1178.6279413280026,None,1178.6279413280026,None,1178.6279413280026,None,1180.6117121880015,None,1180.6117121880015,None,1180.6117121880015,None,1180.6117121880015,None,,,,,,,,,,,,,,,,,,,,,,,,,,,,,,,,,,,,,,,,,,,,001,21,2020_Jan_28_1529,spring_faces,3.1.5,60.0066732224922,
condition files/Stage1_2.xlsx,,T1,B2,m,"['c', 'm']","['Clue', 'Monopoly']","[-0.15, 0.5]","[0.15, 0.5]",1,1,,,,,,,,,0,3,3,3,0,5,5,2,,,,,,,,,,,,,,,,,,,,,,,,,,,,,,,,,,,,,,,,,,,,,,,,,,,,,,,1182.5781984800014,None,1182.5781984800014,None,1182.5781984800014,None,m,1,1.934775775000162,1184.1118756940014,None,1184.1118756940014,None,1184.1118756940014,None,1186.1111268509994,None,1186.1111268509994,None,1186.1111268509994,None,1186.1111268509994,None,,,,,,,,,,,,,,,,,,,,,,,,,,,,,,,,,,,,,,,,,,,,001,21,2020_Jan_28_1529,spring_faces,3.1.5,60.0066732224922,
condition files/Stage1_2.xlsx,,B1,T1,c,"['c', 'm']","['Clue', 'Monopoly']","[-0.15, 0.5]","[0.15, 0.5]",1,1,,,,,,,,,0,3,3,3,0,6,6,0,,,,,,,,,,,,,,,,,,,,,,,,,,,,,,,,,,,,,,,,,,,,,,,,,,,,,,,1188.0782109150023,None,1188.0782109150023,None,1188.0782109150023,None,c,1,2.3071432310025557,1189.6115625400016,None,1189.6115625400016,None,1189.6115625400016,None,1191.9797847650007,None,1191.9797847650007,None,1191.9797847650007,None,1191.9797847650007,None,,,,,,,,,,,,,,,,,,,,,,,,,,,,,,,,,,,,,,,,,,,,001,21,2020_Jan_28_1529,spring_faces,3.1.5,60.0066732224922,
condition files/Stage1_2.xlsx,,B3,T4,m,"['c', 'm']","['Clue', 'Monopoly']","[-0.15, 0.5]","[0.15, 0.5]",1,1,,,,,,,,,0,3,3,3,0,7,7,6,,,,,,,,,,,,,,,,,,,,,,,,,,,,,,,,,,,,,,,,,,,,,,,,,,,,,,,1193.9447533090024,None,1193.9447533090024,None,1193.9447533090024,None,c,0,1.895948686000338,1195.4787186450012,None,1195.4787186450012,None,1195.4787186450012,None,1197.4444816260002,None,1197.4444816260002,None,1197.4444816260002,None,1197.4444816260002,None,,,,,,,,,,,,,,,,,,,,,,,,,,,,,,,,,,,,,,,,,,,,001,21,2020_Jan_28_1529,spring_faces,3.1.5,60.0066732224922,
condition files/Stage1_1.xlsx,,T2,B2,m,"['c', 'm']","['Clue', 'Monopoly']","[-0.15, 0.5]","[0.15, 0.5]",1,1,,,,,,,,,0,4,4,4,0,0,0,3,,,,,,,,,,,,,,,,,,,,,,,,,,,,,,,,,,,,,,,,,,,,,,,,,,,,,,,1199.411144296002,None,1199.411144296002,None,1199.411144296002,None,m,1,1.5481342389975907,1200.9465386260017,None,1200.9465386260017,None,1200.9465386260017,None,1202.5447809020006,None,1202.5447809020006,None,1202.5447809020006,None,1202.5447809020006,None,,,,,,,,,,,,,,,,,,,,,,,,,,,,,,,,,,,,,,,,,,,,001,21,2020_Jan_28_1529,spring_faces,3.1.5,60.0066732224922,
condition files/Stage1_1.xlsx,,T4,B3,m,"['c', 'm']","['Clue', 'Monopoly']","[-0.15, 0.5]","[0.15, 0.5]",1,1,,,,,,,,,0,4,4,4,0,1,1,6,,,,,,,,,,,,,,,,,,,,,,,,,,,,,,,,,,,,,,,,,,,,,,,,,,,,,,,1204.5114558530004,None,1204.5114558530004,None,1204.5114558530004,None,c,0,1.5858866649978154,1206.044774348,None,1206.044774348,None,1206.044774348,None,1207.6947884520014,None,1207.6947884520014,None,1207.6947884520014,None,1207.6947884520014,None,,,,,,,,,,,,,,,,,,,,,,,,,,,,,,,,,,,,,,,,,,,,001,21,2020_Jan_28_1529,spring_faces,3.1.5,60.0066732224922,
condition files/Stage1_1.xlsx,,B1,T2,c,"['c', 'm']","['Clue', 'Monopoly']","[-0.15, 0.5]","[0.15, 0.5]",1,1,,,,,,,,,0,4,4,4,0,2,2,1,,,,,,,,,,,,,,,,,,,,,,,,,,,,,,,,,,,,,,,,,,,,,,,,,,,,,,,1209.661417667001,None,1209.661417667001,None,1209.661417667001,None,c,1,2.882988336998096,1211.1956336000003,None,1211.1956336000003,None,1211.1956336000003,None,1214.1473686600002,None,1214.1473686600002,None,1214.1473686600002,None,1214.1473686600002,None,,,,,,,,,,,,,,,,,,,,,,,,,,,,,,,,,,,,,,,,,,,,001,21,2020_Jan_28_1529,spring_faces,3.1.5,60.0066732224922,
condition files/Stage1_1.xlsx,,B2,T1,m,"['c', 'm']","['Clue', 'Monopoly']","[-0.15, 0.5]","[0.15, 0.5]",1,1,,,,,,,,,0,4,4,4,0,3,3,2,,,,,,,,,,,,,,,,,,,,,,,,,,,,,,,,,,,,,,,,,,,,,,,,,,,,,,,1216.111370130002,None,1216.111370130002,None,1216.111370130002,None,m,1,1.8415871469987906,1217.6611226890018,None,1217.6611226890018,None,1217.6611226890018,None,1219.5622543680001,None,1219.5622543680001,None,1219.5622543680001,None,1219.5622543680001,None,,,,,,,,,,,,,,,,,,,,,,,,,,,,,,,,,,,,,,,,,,,,001,21,2020_Jan_28_1529,spring_faces,3.1.5,60.0066732224922,
condition files/Stage1_1.xlsx,,B3,T3,c,"['c', 'm']","['Clue', 'Monopoly']","[-0.15, 0.5]","[0.15, 0.5]",1,1,,,,,,,,,0,4,4,4,0,4,4,4,,,,,,,,,,,,,,,,,,,,,,,,,,,,,,,,,,,,,,,,,,,,,,,,,,,,,,,1221.528222142002,None,1221.528222142002,None,1221.528222142002,None,c,1,1.9287499769998249,1223.0618886449993,None,1223.0618886449993,None,1223.0618886449993,None,1225.0465757540005,None,1225.0465757540005,None,1225.0465757540005,None,1225.0465757540005,None,,,,,,,,,,,,,,,,,,,,,,,,,,,,,,,,,,,,,,,,,,,,001,21,2020_Jan_28_1529,spring_faces,3.1.5,60.0066732224922,
condition files/Stage1_1.xlsx,,T3,B4,c,"['c', 'm']","['Clue', 'Monopoly']","[-0.15, 0.5]","[0.15, 0.5]",1,1,,,,,,,,,0,4,4,4,0,5,5,5,,,,,,,,,,,,,,,,,,,,,,,,,,,,,,,,,,,,,,,,,,,,,,,,,,,,,,,1227.0115096160007,None,1227.0115096160007,None,1227.0115096160007,None,c,1,2.541743323999981,1228.5450014350026,None,1228.5450014350026,None,1228.5450014350026,None,1231.145663702002,None,1231.145663702002,None,1231.145663702002,None,1231.145663702002,None,,,,,,,,,,,,,,,,,,,,,,,,,,,,,,,,,,,,,,,,,,,,001,21,2020_Jan_28_1529,spring_faces,3.1.5,60.0066732224922,
condition files/Stage1_1.xlsx,,T1,B1,c,"['c', 'm']","['Clue', 'Monopoly']","[-0.15, 0.5]","[0.15, 0.5]",1,1,,,,,,,,,0,4,4,4,0,6,6,0,,,,,,,,,,,,,,,,,,,,,,,,,,,,,,,,,,,,,,,,,,,,,,,,,,,,,,,1233.1112426440013,None,1233.1112426440013,None,1233.1112426440013,None,c,1,2.585255723002774,1234.6454182340021,None,1234.6454182340021,None,1234.6454182340021,None,1237.2952544159998,None,1237.2952544159998,None,1237.2952544159998,None,1237.2952544159998,None,,,,,,,,,,,,,,,,,,,,,,,,,,,,,,,,,,,,,,,,,,,,001,21,2020_Jan_28_1529,spring_faces,3.1.5,60.0066732224922,
condition files/Stage1_1.xlsx,,B4,T4,m,"['c', 'm']","['Clue', 'Monopoly']","[-0.15, 0.5]","[0.15, 0.5]",1,1,,,,,,,,,0,4,4,4,0,7,7,7,,,,,,,,,,,,,,,,,,,,,,,,,,,,,,,,,,,,,,,,,,,,,,,,,,,,,,,1239.2614494120025,None,1239.2614494120025,None,1239.2614494120025,None,m,1,3.235446586000762,1240.7952265740023,None,1240.7952265740023,None,1240.7952265740023,None,1244.0955383239998,None,1244.0955383239998,None,1244.0955383239998,None,1244.0955383239998,None,,,,,,,,,,,,,,,,,,,,,,,,,,,,,,,,,,,,,,,,,,,,001,21,2020_Jan_28_1529,spring_faces,3.1.5,60.0066732224922,
condition files/Stage1_2.xlsx,,T4,B4,m,"['c', 'm']","['Clue', 'Monopoly']","[-0.15, 0.5]","[0.15, 0.5]",1,1,,,,,,,,,0,5,5,5,0,0,0,7,,,,,,,,,,,,,,,,,,,,,,,,,,,,,,,,,,,,,,,,,,,,,,,,,,,,,,,1246.0782916780008,None,1246.0782916780008,None,1246.0782916780008,None,m,1,1.3474175539995485,1247.6111971810024,None,1247.6111971810024,None,1247.6111971810024,None,1249.0116584780008,None,1249.0116584780008,None,1249.0116584780008,None,1249.0116584780008,None,,,,,,,,,,,,,,,,,,,,,,,,,,,,,,,,,,,,,,,,,,,,001,21,2020_Jan_28_1529,spring_faces,3.1.5,60.0066732224922,
condition files/Stage1_2.xlsx,,B2,T2,m,"['c', 'm']","['Clue', 'Monopoly']","[-0.15, 0.5]","[0.15, 0.5]",1,1,,,,,,,,,0,5,5,5,0,1,1,3,,,,,,,,,,,,,,,,,,,,,,,,,,,,,,,,,,,,,,,,,,,,,,,,,,,,,,,1250.9772313270005,None,1250.9772313270005,None,1250.9772313270005,None,m,1,1.518656831998669,1252.5120156039993,None,1252.5120156039993,None,1252.5120156039993,None,1254.0950321630007,None,1254.0950321630007,None,1254.0950321630007,None,1254.0950321630007,None,,,,,,,,,,,,,,,,,,,,,,,,,,,,,,,,,,,,,,,,,,,,001,21,2020_Jan_28_1529,spring_faces,3.1.5,60.0066732224922,
condition files/Stage1_2.xlsx,,T1,B2,m,"['c', 'm']","['Clue', 'Monopoly']","[-0.15, 0.5]","[0.15, 0.5]",1,1,,,,,,,,,0,5,5,5,0,2,2,2,,,,,,,,,,,,,,,,,,,,,,,,,,,,,,,,,,,,,,,,,,,,,,,,,,,,,,,1256.0613727000018,None,1256.0613727000018,None,1256.0613727000018,None,m,1,1.667672355997638,1257.5949747830018,None,1257.5949747830018,None,1257.5949747830018,None,1259.3275898380016,None,1259.3275898380016,None,1259.3275898380016,None,1259.3275898380016,None,,,,,,,,,,,,,,,,,,,,,,,,,,,,,,,,,,,,,,,,,,,,001,21,2020_Jan_28_1529,spring_faces,3.1.5,60.0066732224922,
condition files/Stage1_2.xlsx,,B3,T4,m,"['c', 'm']","['Clue', 'Monopoly']","[-0.15, 0.5]","[0.15, 0.5]",1,1,,,,,,,,,0,5,5,5,0,3,3,6,,,,,,,,,,,,,,,,,,,,,,,,,,,,,,,,,,,,,,,,,,,,,,,,,,,,,,,1261.2945623910018,None,1261.2945623910018,None,1261.2945623910018,None,m,1,1.6332681230014714,1262.8293450400015,None,1262.8293450400015,None,1262.8293450400015,None,1264.528268858001,None,1264.528268858001,None,1264.528268858001,None,1264.528268858001,None,,,,,,,,,,,,,,,,,,,,,,,,,,,,,,,,,,,,,,,,,,,,001,21,2020_Jan_28_1529,spring_faces,3.1.5,60.0066732224922,
condition files/Stage1_2.xlsx,,T2,B1,c,"['c', 'm']","['Clue', 'Monopoly']","[-0.15, 0.5]","[0.15, 0.5]",1,1,,,,,,,,,0,5,5,5,0,4,4,1,,,,,,,,,,,,,,,,,,,,,,,,,,,,,,,,,,,,,,,,,,,,,,,,,,,,,,,1266.4947873590027,None,1266.4947873590027,None,1266.4947873590027,None,c,1,1.7150760189979337,1268.0275944080022,None,1268.0275944080022,None,1268.0275944080022,None,1269.7963727580027,None,1269.7963727580027,None,1269.7963727580027,None,1269.7963727580027,None,,,,,,,,,,,,,,,,,,,,,,,,,,,,,,,,,,,,,,,,,,,,001,21,2020_Jan_28_1529,spring_faces,3.1.5,60.0066732224922,
condition files/Stage1_2.xlsx,,B4,T3,c,"['c', 'm']","['Clue', 'Monopoly']","[-0.15, 0.5]","[0.15, 0.5]",1,1,,,,,,,,,0,5,5,5,0,5,5,5,,,,,,,,,,,,,,,,,,,,,,,,,,,,,,,,,,,,,,,,,,,,,,,,,,,,,,,1271.7609668410005,None,1271.7609668410005,None,1271.7609668410005,None,c,1,1.4379494309978327,1273.2967934270018,None,1273.2967934270018,None,1273.2967934270018,None,1274.7952161100002,None,1274.7952161100002,None,1274.7952161100002,None,1274.7952161100002,None,,,,,,,,,,,,,,,,,,,,,,,,,,,,,,,,,,,,,,,,,,,,001,21,2020_Jan_28_1529,spring_faces,3.1.5,60.0066732224922,
condition files/Stage1_2.xlsx,,B1,T1,c,"['c', 'm']","['Clue', 'Monopoly']","[-0.15, 0.5]","[0.15, 0.5]",1,1,,,,,,,,,0,5,5,5,0,6,6,0,,,,,,,,,,,,,,,,,,,,,,,,,,,,,,,,,,,,,,,,,,,,,,,,,,,,,,,1276.761124782999,None,1276.761124782999,None,1276.761124782999,None,c,1,1.6229872869989777,1278.311738029999,None,1278.311738029999,None,1278.311738029999,None,1279.9949270899997,None,1279.9949270899997,None,1279.9949270899997,None,1279.9949270899997,None,,,,,,,,,,,,,,,,,,,,,,,,,,,,,,,,,,,,,,,,,,,,001,21,2020_Jan_28_1529,spring_faces,3.1.5,60.0066732224922,
condition files/Stage1_2.xlsx,,T3,B3,c,"['c', 'm']","['Clue', 'Monopoly']","[-0.15, 0.5]","[0.15, 0.5]",1,1,,,,,,,,,0,5,5,5,0,7,7,4,,,,,,,,,,,,,,,,,,,,,,,,,,,,,,,,,,,,,,,,,,,,,,,,,,,,,,,1281.9613848080007,None,1281.9613848080007,None,1281.9613848080007,None,c,1,2.5359316819995,1283.4947437219998,None,1283.4947437219998,None,1283.4947437219998,None,1286.0948788720016,None,1286.0948788720016,None,1286.0948788720016,None,1286.0948788720016,None,,,,,,,,,,,,,,,,,,,,,,,,,,,,,,,,,,,,,,,,,,,,001,21,2020_Jan_28_1529,spring_faces,3.1.5,60.0066732224922,
condition files/Stage1_1.xlsx,,B2,T1,m,"['c', 'm']","['Clue', 'Monopoly']","[-0.15, 0.5]","[0.15, 0.5]",1,1,,,,,,,,,0,6,6,6,0,0,0,2,,,,,,,,,,,,,,,,,,,,,,,,,,,,,,,,,,,,,,,,,,,,,,,,,,,,,,,1288.0782865740002,None,1288.0782865740002,None,1288.0782865740002,None,m,1,6.402273583000351,1289.6124146559996,None,1289.6124146559996,None,1289.6124146559996,None,1296.0949915480014,None,1296.0949915480014,None,1296.0949915480014,None,1296.0949915480014,None,,,,,,,,,,,,,,,,,,,,,,,,,,,,,,,,,,,,,,,,,,,,001,21,2020_Jan_28_1529,spring_faces,3.1.5,60.0066732224922,
condition files/Stage1_1.xlsx,,B3,T3,c,"['c', 'm']","['Clue', 'Monopoly']","[-0.15, 0.5]","[0.15, 0.5]",1,1,,,,,,,,,0,6,6,6,0,1,1,4,,,,,,,,,,,,,,,,,,,,,,,,,,,,,,,,,,,,,,,,,,,,,,,,,,,,,,,1298.04479249,None,1298.04479249,None,1298.04479249,None,c,1,1.8608513869985472,1299.5778825449997,None,1299.5778825449997,None,1299.5778825449997,None,1301.4966342379994,None,1301.4966342379994,None,1301.4966342379994,None,1301.4966342379994,None,,,,,,,,,,,,,,,,,,,,,,,,,,,,,,,,,,,,,,,,,,,,001,21,2020_Jan_28_1529,spring_faces,3.1.5,60.0066732224922,
condition files/Stage1_1.xlsx,,T3,B4,c,"['c', 'm']","['Clue', 'Monopoly']","[-0.15, 0.5]","[0.15, 0.5]",1,1,,,,,,,,,0,6,6,6,0,2,2,5,,,,,,,,,,,,,,,,,,,,,,,,,,,,,,,,,,,,,,,,,,,,,,,,,,,,,,,1303.4618192820017,None,1303.4618192820017,None,1303.4618192820017,None,c,1,1.1960284849992604,1304.9946643930016,None,1304.9946643930016,None,1304.9946643930016,None,1306.2444884210017,None,1306.2444884210017,None,1306.2444884210017,None,1306.2444884210017,None,,,,,,,,,,,,,,,,,,,,,,,,,,,,,,,,,,,,,,,,,,,,001,21,2020_Jan_28_1529,spring_faces,3.1.5,60.0066732224922,
condition files/Stage1_1.xlsx,,T4,B3,m,"['c', 'm']","['Clue', 'Monopoly']","[-0.15, 0.5]","[0.15, 0.5]",1,1,,,,,,,,,0,6,6,6,0,3,3,6,,,,,,,,,,,,,,,,,,,,,,,,,,,,,,,,,,,,,,,,,,,,,,,,,,,,,,,1308.210818593001,None,1308.210818593001,None,1308.210818593001,None,m,1,1.134188689000439,1309.7444562960009,None,1309.7444562960009,None,1309.7444562960009,None,1310.945017692,None,1310.945017692,None,1310.945017692,None,1310.945017692,None,,,,,,,,,,,,,,,,,,,,,,,,,,,,,,,,,,,,,,,,,,,,001,21,2020_Jan_28_1529,spring_faces,3.1.5,60.0066732224922,
condition files/Stage1_1.xlsx,,B4,T4,m,"['c', 'm']","['Clue', 'Monopoly']","[-0.15, 0.5]","[0.15, 0.5]",1,1,,,,,,,,,0,6,6,6,0,4,4,7,,,,,,,,,,,,,,,,,,,,,,,,,,,,,,,,,,,,,,,,,,,,,,,,,,,,,,,1312.894982746002,None,1312.894982746002,None,1312.894982746002,None,m,1,1.121652855999855,1314.4449981620019,None,1314.4449981620019,None,1314.4449981620019,None,1315.6283541800003,None,1315.6283541800003,None,1315.6283541800003,None,1315.6283541800003,None,,,,,,,,,,,,,,,,,,,,,,,,,,,,,,,,,,,,,,,,,,,,001,21,2020_Jan_28_1529,spring_faces,3.1.5,60.0066732224922,
condition files/Stage1_1.xlsx,,T2,B2,m,"['c', 'm']","['Clue', 'Monopoly']","[-0.15, 0.5]","[0.15, 0.5]",1,1,,,,,,,,,0,6,6,6,0,5,5,3,,,,,,,,,,,,,,,,,,,,,,,,,,,,,,,,,,,,,,,,,,,,,,,,,,,,,,,1317.594922581,None,1317.594922581,None,1317.594922581,None,m,1,1.5744504870017408,1319.1442678010026,None,1319.1442678010026,None,1319.1442678010026,None,1320.7780861030005,None,1320.7780861030005,None,1320.7780861030005,None,1320.7780861030005,None,,,,,,,,,,,,,,,,,,,,,,,,,,,,,,,,,,,,,,,,,,,,001,21,2020_Jan_28_1529,spring_faces,3.1.5,60.0066732224922,
condition files/Stage1_1.xlsx,,T1,B1,c,"['c', 'm']","['Clue', 'Monopoly']","[-0.15, 0.5]","[0.15, 0.5]",1,1,,,,,,,,,0,6,6,6,0,6,6,0,,,,,,,,,,,,,,,,,,,,,,,,,,,,,,,,,,,,,,,,,,,,,,,,,,,,,,,1322.744196312,None,1322.744196312,None,1322.744196312,None,c,1,1.175475453997933,1324.2951070260024,None,1324.2951070260024,None,1324.2951070260024,None,1325.5443924380015,None,1325.5443924380015,None,1325.5443924380015,None,1325.5443924380015,None,,,,,,,,,,,,,,,,,,,,,,,,,,,,,,,,,,,,,,,,,,,,001,21,2020_Jan_28_1529,spring_faces,3.1.5,60.0066732224922,
condition files/Stage1_1.xlsx,,B1,T2,c,"['c', 'm']","['Clue', 'Monopoly']","[-0.15, 0.5]","[0.15, 0.5]",1,1,,,,,,,,,0,6,6,6,0,7,7,1,,,,,,,,,,,,,,,,,,,,,,,,,,,,,,,,,,,,,,,,,,,,,,,,,,,,,,,1327.4942870520026,None,1327.4942870520026,None,1327.4942870520026,None,c,1,1.5787707560011768,1329.027812223001,None,1329.027812223001,None,1329.027812223001,None,1330.6613571119997,None,1330.6613571119997,None,1330.6613571119997,None,1330.6613571119997,None,,,,,,,,,,,,,,,,,,,,,,,,,,,,,,,,,,,,,,,,,,,,001,21,2020_Jan_28_1529,spring_faces,3.1.5,60.0066732224922,
condition files/Stage1_2.xlsx,,T4,B4,m,"['c', 'm']","['Clue', 'Monopoly']","[-0.15, 0.5]","[0.15, 0.5]",1,1,,,,,,,,,0,7,7,7,0,0,0,7,,,,,,,,,,,,,,,,,,,,,,,,,,,,,,,,,,,,,,,,,,,,,,,,,,,,,,,1332.6449431130022,None,1332.6449431130022,None,1332.6449431130022,None,m,1,2.9727309830013837,1334.1779559440001,None,1334.1779559440001,None,1334.1779559440001,None,1337.2112319530024,None,1337.2112319530024,None,1337.2112319530024,None,1337.2112319530024,None,,,,,,,,,,,,,,,,,,,,,,,,,,,,,,,,,,,,,,,,,,,,001,21,2020_Jan_28_1529,spring_faces,3.1.5,60.0066732224922,
condition files/Stage1_2.xlsx,,T3,B3,c,"['c', 'm']","['Clue', 'Monopoly']","[-0.15, 0.5]","[0.15, 0.5]",1,1,,,,,,,,,0,7,7,7,0,1,1,4,,,,,,,,,,,,,,,,,,,,,,,,,,,,,,,,,,,,,,,,,,,,,,,,,,,,,,,1339.177976621002,None,1339.177976621002,None,1339.177976621002,None,c,1,2.1984654209991277,1340.728174164,None,1340.728174164,None,1340.728174164,None,1342.9944950120007,None,1342.9944950120007,None,1342.9944950120007,None,1342.9944950120007,None,,,,,,,,,,,,,,,,,,,,,,,,,,,,,,,,,,,,,,,,,,,,001,21,2020_Jan_28_1529,spring_faces,3.1.5,60.0066732224922,
condition files/Stage1_2.xlsx,,T2,B1,c,"['c', 'm']","['Clue', 'Monopoly']","[-0.15, 0.5]","[0.15, 0.5]",1,1,,,,,,,,,0,7,7,7,0,2,2,1,,,,,,,,,,,,,,,,,,,,,,,,,,,,,,,,,,,,,,,,,,,,,,,,,,,,,,,1344.9449456469993,None,1344.9449456469993,None,1344.9449456469993,None,c,1,1.552068656001211,1346.4786154210015,None,1346.4786154210015,None,1346.4786154210015,None,1348.0947777950023,None,1348.0947777950023,None,1348.0947777950023,None,1348.0947777950023,None,,,,,,,,,,,,,,,,,,,,,,,,,,,,,,,,,,,,,,,,,,,,001,21,2020_Jan_28_1529,spring_faces,3.1.5,60.0066732224922,
condition files/Stage1_2.xlsx,,B1,T1,c,"['c', 'm']","['Clue', 'Monopoly']","[-0.15, 0.5]","[0.15, 0.5]",1,1,,,,,,,,,0,7,7,7,0,3,3,0,,,,,,,,,,,,,,,,,,,,,,,,,,,,,,,,,,,,,,,,,,,,,,,,,,,,,,,1350.0612484320009,None,1350.0612484320009,None,1350.0612484320009,None,c,1,1.2997771420014033,1351.594907720002,None,1351.594907720002,None,1351.594907720002,None,1352.945098731001,None,1352.945098731001,None,1352.945098731001,None,1352.945098731001,None,,,,,,,,,,,,,,,,,,,,,,,,,,,,,,,,,,,,,,,,,,,,001,21,2020_Jan_28_1529,spring_faces,3.1.5,60.0066732224922,
condition files/Stage1_2.xlsx,,T1,B2,m,"['c', 'm']","['Clue', 'Monopoly']","[-0.15, 0.5]","[0.15, 0.5]",1,1,,,,,,,,,0,7,7,7,0,4,4,2,,,,,,,,,,,,,,,,,,,,,,,,,,,,,,,,,,,,,,,,,,,,,,,,,,,,,,,1354.9107967029995,None,1354.9107967029995,None,1354.9107967029995,None,m,1,1.5053740270013805,1356.4452860189995,None,1356.4452860189995,None,1356.4452860189995,None,1358.0276129930025,None,1358.0276129930025,None,1358.0276129930025,None,1358.0276129930025,None,,,,,,,,,,,,,,,,,,,,,,,,,,,,,,,,,,,,,,,,,,,,001,21,2020_Jan_28_1529,spring_faces,3.1.5,60.0066732224922,
condition files/Stage1_2.xlsx,,B3,T4,m,"['c', 'm']","['Clue', 'Monopoly']","[-0.15, 0.5]","[0.15, 0.5]",1,1,,,,,,,,,0,7,7,7,0,5,5,6,,,,,,,,,,,,,,,,,,,,,,,,,,,,,,,,,,,,,,,,,,,,,,,,,,,,,,,1359.9783327389996,None,1359.9783327389996,None,1359.9783327389996,None,m,1,1.4618793929985259,1361.5127966969994,None,1361.5127966969994,None,1361.5127966969994,None,1363.0278784420007,None,1363.0278784420007,None,1363.0278784420007,None,1363.0278784420007,None,,,,,,,,,,,,,,,,,,,,,,,,,,,,,,,,,,,,,,,,,,,,001,21,2020_Jan_28_1529,spring_faces,3.1.5,60.0066732224922,
condition files/Stage1_2.xlsx,,B2,T2,m,"['c', 'm']","['Clue', 'Monopoly']","[-0.15, 0.5]","[0.15, 0.5]",1,1,,,,,,,,,0,7,7,7,0,6,6,3,,,,,,,,,,,,,,,,,,,,,,,,,,,,,,,,,,,,,,,,,,,,,,,,,,,,,,,1364.9947653810013,None,1364.9947653810013,None,1364.9947653810013,None,m,1,1.6445783759991173,1366.5300841330027,None,1366.5300841330027,None,1366.5300841330027,None,1368.228772196002,None,1368.228772196002,None,1368.228772196002,None,1368.228772196002,None,,,,,,,,,,,,,,,,,,,,,,,,,,,,,,,,,,,,,,,,,,,,001,21,2020_Jan_28_1529,spring_faces,3.1.5,60.0066732224922,
condition files/Stage1_2.xlsx,,B4,T3,c,"['c', 'm']","['Clue', 'Monopoly']","[-0.15, 0.5]","[0.15, 0.5]",1,1,,,,,,,,,0,7,7,7,0,7,7,5,,,,,,,,,,,,,,,,,,,,,,,,,,,,,,,,,,,,,,,,,,,,,,,,,,,,,,,1370.194904709002,None,1370.194904709002,None,1370.194904709002,None,c,1,1.6783162920000905,1371.7282968940017,None,1371.7282968940017,None,1371.7282968940017,None,1373.4613300090023,None,1373.4613300090023,None,1373.4613300090023,None,1373.4613300090023,None,,,,,,,,,,,,,,,,,,,,,,,,,,,,,,,,,,,,,,,,,,,,001,21,2020_Jan_28_1529,spring_faces,3.1.5,60.0066732224922,
condition files/Stage1_1.xlsx,,B1,T2,c,"['c', 'm']","['Clue', 'Monopoly']","[-0.15, 0.5]","[0.15, 0.5]",1,1,,,,,,,,,0,8,8,8,0,0,0,1,,,,,,,,,,,,,,,,,,,,,,,,,,,,,,,,,,,,,,,,,,,,,,,,,,,,,,,1375.445248999,None,1375.445248999,None,1375.445248999,None,c,1,1.8193693499997607,1376.9793210030002,None,1376.9793210030002,None,1376.9793210030002,None,1378.8612867880001,None,1378.8612867880001,None,1378.8612867880001,None,1378.8612867880001,None,,,,,,,,,,,,,,,,,,,,,,,,,,,,,,,,,,,,,,,,,,,,001,21,2020_Jan_28_1529,spring_faces,3.1.5,60.0066732224922,
condition files/Stage1_1.xlsx,,T3,B4,c,"['c', 'm']","['Clue', 'Monopoly']","[-0.15, 0.5]","[0.15, 0.5]",1,1,,,,,,,,,0,8,8,8,0,1,1,5,,,,,,,,,,,,,,,,,,,,,,,,,,,,,,,,,,,,,,,,,,,,,,,,,,,,,,,1380.8281371520025,None,1380.8281371520025,None,1380.8281371520025,None,c,1,1.9079502189997584,1382.3627863250003,None,1382.3627863250003,None,1382.3627863250003,None,1384.3282179020025,None,1384.3282179020025,None,1384.3282179020025,None,1384.3282179020025,None,,,,,,,,,,,,,,,,,,,,,,,,,,,,,,,,,,,,,,,,,,,,001,21,2020_Jan_28_1529,spring_faces,3.1.5,60.0066732224922,
condition files/Stage1_1.xlsx,,B2,T1,m,"['c', 'm']","['Clue', 'Monopoly']","[-0.15, 0.5]","[0.15, 0.5]",1,1,,,,,,,,,0,8,8,8,0,2,2,2,,,,,,,,,,,,,,,,,,,,,,,,,,,,,,,,,,,,,,,,,,,,,,,,,,,,,,,1386.2948302870027,None,1386.2948302870027,None,1386.2948302870027,None,m,1,1.8177682559980894,1387.8448609240004,None,1387.8448609240004,None,1387.8448609240004,None,1389.730732508,None,1389.730732508,None,1389.730732508,None,1389.730732508,None,,,,,,,,,,,,,,,,,,,,,,,,,,,,,,,,,,,,,,,,,,,,001,21,2020_Jan_28_1529,spring_faces,3.1.5,60.0066732224922,
condition files/Stage1_1.xlsx,,B4,T4,m,"['c', 'm']","['Clue', 'Monopoly']","[-0.15, 0.5]","[0.15, 0.5]",1,1,,,,,,,,,0,8,8,8,0,3,3,7,,,,,,,,,,,,,,,,,,,,,,,,,,,,,,,,,,,,,,,,,,,,,,,,,,,,,,,1391.6948460330022,None,1391.6948460330022,None,1391.6948460330022,None,m,1,1.2660658470013004,1393.2286055410004,None,1393.2286055410004,None,1393.2286055410004,None,1394.5449386850014,None,1394.5449386850014,None,1394.5449386850014,None,1394.5449386850014,None,,,,,,,,,,,,,,,,,,,,,,,,,,,,,,,,,,,,,,,,,,,,001,21,2020_Jan_28_1529,spring_faces,3.1.5,60.0066732224922,
condition files/Stage1_1.xlsx,,T2,B2,m,"['c', 'm']","['Clue', 'Monopoly']","[-0.15, 0.5]","[0.15, 0.5]",1,1,,,,,,,,,0,8,8,8,0,4,4,3,,,,,,,,,,,,,,,,,,,,,,,,,,,,,,,,,,,,,,,,,,,,,,,,,,,,,,,1396.510757887001,None,1396.510757887001,None,1396.510757887001,None,m,1,1.2334278210000775,1398.0452382660005,None,1398.0452382660005,None,1398.0452382660005,None,1399.3283160669998,None,1399.3283160669998,None,1399.3283160669998,None,1399.3283160669998,None,,,,,,,,,,,,,,,,,,,,,,,,,,,,,,,,,,,,,,,,,,,,001,21,2020_Jan_28_1529,spring_faces,3.1.5,60.0066732224922,
condition files/Stage1_1.xlsx,,T1,B1,c,"['c', 'm']","['Clue', 'Monopoly']","[-0.15, 0.5]","[0.15, 0.5]",1,1,,,,,,,,,0,8,8,8,0,5,5,0,,,,,,,,,,,,,,,,,,,,,,,,,,,,,,,,,,,,,,,,,,,,,,,,,,,,,,,1401.2947481240008,None,1401.2947481240008,None,1401.2947481240008,None,c,1,3.0902248640013568,1402.8444913010026,None,1402.8444913010026,None,1402.8444913010026,None,1405.996429625,None,1405.996429625,None,1405.996429625,None,1405.996429625,None,,,,,,,,,,,,,,,,,,,,,,,,,,,,,,,,,,,,,,,,,,,,001,21,2020_Jan_28_1529,spring_faces,3.1.5,60.0066732224922,
condition files/Stage1_1.xlsx,,T4,B3,m,"['c', 'm']","['Clue', 'Monopoly']","[-0.15, 0.5]","[0.15, 0.5]",1,1,,,,,,,,,0,8,8,8,0,6,6,6,,,,,,,,,,,,,,,,,,,,,,,,,,,,,,,,,,,,,,,,,,,,,,,,,,,,,,,1407.961547070001,None,1407.961547070001,None,1407.961547070001,None,m,1,1.1120392010016076,1409.4946433309997,None,1409.4946433309997,None,1409.4946433309997,None,1410.6617978480026,None,1410.6617978480026,None,1410.6617978480026,None,1410.6617978480026,None,,,,,,,,,,,,,,,,,,,,,,,,,,,,,,,,,,,,,,,,,,,,001,21,2020_Jan_28_1529,spring_faces,3.1.5,60.0066732224922,
condition files/Stage1_1.xlsx,,B3,T3,c,"['c', 'm']","['Clue', 'Monopoly']","[-0.15, 0.5]","[0.15, 0.5]",1,1,,,,,,,,,0,8,8,8,0,7,7,4,,,,,,,,,,,,,,,,,,,,,,,,,,,,,,,,,,,,,,,,,,,,,,,,,,,,,,,1412.6282858820014,None,1412.6282858820014,None,1412.6282858820014,None,c,1,1.4213436389982235,1414.161288088002,None,1414.161288088002,None,1414.161288088002,None,1415.6457874690022,None,1415.6457874690022,None,1415.6457874690022,None,1415.6457874690022,None,,,,,,,,,,,,,,,,,,,,,,,,,,,,,,,,,,,,,,,,,,,,001,21,2020_Jan_28_1529,spring_faces,3.1.5,60.0066732224922,
condition files/Stage1_2.xlsx,,T2,B1,c,"['c', 'm']","['Clue', 'Monopoly']","[-0.15, 0.5]","[0.15, 0.5]",1,1,,,,,,,,,0,9,9,9,0,0,0,1,,,,,,,,,,,,,,,,,,,,,,,,,,,,,,,,,,,,,,,,,,,,,,,,,,,,,,,1417.627601616001,None,1417.627601616001,None,1417.627601616001,None,c,1,2.645030902000144,1419.161644988002,None,1419.161644988002,None,1419.161644988002,None,1421.8615269910006,None,1421.8615269910006,None,1421.8615269910006,None,1421.8615269910006,None,,,,,,,,,,,,,,,,,,,,,,,,,,,,,,,,,,,,,,,,,,,,001,21,2020_Jan_28_1529,spring_faces,3.1.5,60.0066732224922,
condition files/Stage1_2.xlsx,,B2,T2,m,"['c', 'm']","['Clue', 'Monopoly']","[-0.15, 0.5]","[0.15, 0.5]",1,1,,,,,,,,,0,9,9,9,0,1,1,3,,,,,,,,,,,,,,,,,,,,,,,,,,,,,,,,,,,,,,,,,,,,,,,,,,,,,,,1423.8281161030027,None,1423.8281161030027,None,1423.8281161030027,None,m,1,2.621467439999833,1425.3612000739995,None,1425.3612000739995,None,1425.3612000739995,None,1428.0472378990016,None,1428.0472378990016,None,1428.0472378990016,None,1428.0472378990016,None,,,,,,,,,,,,,,,,,,,,,,,,,,,,,,,,,,,,,,,,,,,,001,21,2020_Jan_28_1529,spring_faces,3.1.5,60.0066732224922,
condition files/Stage1_2.xlsx,,B1,T1,c,"['c', 'm']","['Clue', 'Monopoly']","[-0.15, 0.5]","[0.15, 0.5]",1,1,,,,,,,,,0,9,9,9,0,2,2,0,,,,,,,,,,,,,,,,,,,,,,,,,,,,,,,,,,,,,,,,,,,,,,,,,,,,,,,1430.011544197001,None,1430.011544197001,None,1430.011544197001,None,c,1,1.8454848130022583,1431.5611523820007,None,1431.5611523820007,None,1431.5611523820007,None,1433.4781337919994,None,1433.4781337919994,None,1433.4781337919994,None,1433.4781337919994,None,,,,,,,,,,,,,,,,,,,,,,,,,,,,,,,,,,,,,,,,,,,,001,21,2020_Jan_28_1529,spring_faces,3.1.5,60.0066732224922,
condition files/Stage1_2.xlsx,,T4,B4,m,"['c', 'm']","['Clue', 'Monopoly']","[-0.15, 0.5]","[0.15, 0.5]",1,1,,,,,,,,,0,9,9,9,0,3,3,7,,,,,,,,,,,,,,,,,,,,,,,,,,,,,,,,,,,,,,,,,,,,,,,,,,,,,,,1435.4282640980018,None,1435.4282640980018,None,1435.4282640980018,None,m,1,1.162778347999847,1436.9638959420008,None,1436.9638959420008,None,1436.9638959420008,None,1438.1785162390006,None,1438.1785162390006,None,1438.1785162390006,None,1438.1785162390006,None,,,,,,,,,,,,,,,,,,,,,,,,,,,,,,,,,,,,,,,,,,,,001,21,2020_Jan_28_1529,spring_faces,3.1.5,60.0066732224922,
condition files/Stage1_2.xlsx,,B3,T4,m,"['c', 'm']","['Clue', 'Monopoly']","[-0.15, 0.5]","[0.15, 0.5]",1,1,,,,,,,,,0,9,9,9,0,4,4,6,,,,,,,,,,,,,,,,,,,,,,,,,,,,,,,,,,,,,,,,,,,,,,,,,,,,,,,1440.1448812430026,None,1440.1448812430026,None,1440.1448812430026,None,m,1,1.4881639039995207,1441.6784962570018,None,1441.6784962570018,None,1441.6784962570018,None,1443.2280381480014,None,1443.2280381480014,None,1443.2280381480014,None,1443.2280381480014,None,,,,,,,,,,,,,,,,,,,,,,,,,,,,,,,,,,,,,,,,,,,,001,21,2020_Jan_28_1529,spring_faces,3.1.5,60.0066732224922,
condition files/Stage1_2.xlsx,,T1,B2,m,"['c', 'm']","['Clue', 'Monopoly']","[-0.15, 0.5]","[0.15, 0.5]",1,1,,,,,,,,,0,9,9,9,0,5,5,2,,,,,,,,,,,,,,,,,,,,,,,,,,,,,,,,,,,,,,,,,,,,,,,,,,,,,,,1445.1946093810002,None,1445.1946093810002,None,1445.1946093810002,None,m,1,1.5411637600009271,1446.7295801360015,None,1446.7295801360015,None,1446.7295801360015,None,1448.3280742880015,None,1448.3280742880015,None,1448.3280742880015,None,1448.3280742880015,None,,,,,,,,,,,,,,,,,,,,,,,,,,,,,,,,,,,,,,,,,,,,001,21,2020_Jan_28_1529,spring_faces,3.1.5,60.0066732224922,
condition files/Stage1_2.xlsx,,B4,T3,c,"['c', 'm']","['Clue', 'Monopoly']","[-0.15, 0.5]","[0.15, 0.5]",1,1,,,,,,,,,0,9,9,9,0,6,6,5,,,,,,,,,,,,,,,,,,,,,,,,,,,,,,,,,,,,,,,,,,,,,,,,,,,,,,,1450.2948067569996,None,1450.2948067569996,None,1450.2948067569996,None,c,1,1.3861196950019803,1451.828552250001,None,1451.828552250001,None,1451.828552250001,None,1453.280009031001,None,1453.280009031001,None,1453.280009031001,None,1453.280009031001,None,,,,,,,,,,,,,,,,,,,,,,,,,,,,,,,,,,,,,,,,,,,,001,21,2020_Jan_28_1529,spring_faces,3.1.5,60.0066732224922,
condition files/Stage1_2.xlsx,,T3,B3,c,"['c', 'm']","['Clue', 'Monopoly']","[-0.15, 0.5]","[0.15, 0.5]",1,1,,,,,,,,,0,9,9,9,0,7,7,4,,,,,,,,,,,,,,,,,,,,,,,,,,,,,,,,,,,,,,,,,,,,,,,,,,,,,,,1455.2449487110025,None,1455.2449487110025,None,1455.2449487110025,None,c,1,1.940035314000852,1456.7787367439996,None,1456.7787367439996,None,1456.7787367439996,None,1458.7777141100014,None,1458.7777141100014,None,1458.7777141100014,None,1458.7777141100014,None,,,,,,,,,,,,,,,,,,,,,,,,,,,,,,,,,,,,,,,,,,,,001,21,2020_Jan_28_1529,spring_faces,3.1.5,60.0066732224922,
condition files/Stage1_1.xlsx,,T2,B2,m,"['c', 'm']","['Clue', 'Monopoly']","[-0.15, 0.5]","[0.15, 0.5]",1,1,,,,,,,,,0,10,10,10,0,0,0,3,,,,,,,,,,,,,,,,,,,,,,,,,,,,,,,,,,,,,,,,,,,,,,,,,,,,,,,1460.762058266002,None,1460.762058266002,None,1460.762058266002,None,m,1,1.287932686998829,1462.2947633510012,None,1462.2947633510012,None,1462.2947633510012,None,1463.6613021129997,None,1463.6613021129997,None,1463.6613021129997,None,1463.6613021129997,None,,,,,,,,,,,,,,,,,,,,,,,,,,,,,,,,,,,,,,,,,,,,001,21,2020_Jan_28_1529,spring_faces,3.1.5,60.0066732224922,
condition files/Stage1_1.xlsx,,B3,T3,c,"['c', 'm']","['Clue', 'Monopoly']","[-0.15, 0.5]","[0.15, 0.5]",1,1,,,,,,,,,0,10,10,10,0,1,1,4,,,,,,,,,,,,,,,,,,,,,,,,,,,,,,,,,,,,,,,,,,,,,,,,,,,,,,,1465.6113596079995,None,1465.6113596079995,None,1465.6113596079995,None,c,1,1.2206693469997845,1467.1460138790026,None,1467.1460138790026,None,1467.1460138790026,None,1468.4449536050015,None,1468.4449536050015,None,1468.4449536050015,None,1468.4449536050015,None,,,,,,,,,,,,,,,,,,,,,,,,,,,,,,,,,,,,,,,,,,,,001,21,2020_Jan_28_1529,spring_faces,3.1.5,60.0066732224922,
condition files/Stage1_1.xlsx,,T4,B3,m,"['c', 'm']","['Clue', 'Monopoly']","[-0.15, 0.5]","[0.15, 0.5]",1,1,,,,,,,,,0,10,10,10,0,2,2,6,,,,,,,,,,,,,,,,,,,,,,,,,,,,,,,,,,,,,,,,,,,,,,,,,,,,,,,1470.394718888001,None,1470.394718888001,None,1470.394718888001,None,m,1,1.302440982999542,1471.9282341239996,None,1471.9282341239996,None,1471.9282341239996,None,1473.2974632950027,None,1473.2974632950027,None,1473.2974632950027,None,1473.2974632950027,None,,,,,,,,,,,,,,,,,,,,,,,,,,,,,,,,,,,,,,,,,,,,001,21,2020_Jan_28_1529,spring_faces,3.1.5,60.0066732224922,
condition files/Stage1_1.xlsx,,B2,T1,m,"['c', 'm']","['Clue', 'Monopoly']","[-0.15, 0.5]","[0.15, 0.5]",1,1,,,,,,,,,0,10,10,10,0,3,3,2,,,,,,,,,,,,,,,,,,,,,,,,,,,,,,,,,,,,,,,,,,,,,,,,,,,,,,,1475.261285550001,None,1475.261285550001,None,1475.261285550001,None,m,1,1.3794225530000404,1476.7952471249992,None,1476.7952471249992,None,1476.7952471249992,None,1478.2284098790005,None,1478.2284098790005,None,1478.2284098790005,None,1478.2284098790005,None,,,,,,,,,,,,,,,,,,,,,,,,,,,,,,,,,,,,,,,,,,,,001,21,2020_Jan_28_1529,spring_faces,3.1.5,60.0066732224922,
condition files/Stage1_1.xlsx,,B1,T2,c,"['c', 'm']","['Clue', 'Monopoly']","[-0.15, 0.5]","[0.15, 0.5]",1,1,,,,,,,,,0,10,10,10,0,4,4,1,,,,,,,,,,,,,,,,,,,,,,,,,,,,,,,,,,,,,,,,,,,,,,,,,,,,,,,1480.1947207060002,None,1480.1947207060002,None,1480.1947207060002,None,c,1,1.7410796270014544,1481.7296828969993,None,1481.7296828969993,None,1481.7296828969993,None,1483.5298891090024,None,1483.5298891090024,None,1483.5298891090024,None,1483.5298891090024,None,,,,,,,,,,,,,,,,,,,,,,,,,,,,,,,,,,,,,,,,,,,,001,21,2020_Jan_28_1529,spring_faces,3.1.5,60.0066732224922,
condition files/Stage1_1.xlsx,,B4,T4,m,"['c', 'm']","['Clue', 'Monopoly']","[-0.15, 0.5]","[0.15, 0.5]",1,1,,,,,,,,,0,10,10,10,0,5,5,7,,,,,,,,,,,,,,,,,,,,,,,,,,,,,,,,,,,,,,,,,,,,,,,,,,,,,,,1485.4941748620004,None,1485.4941748620004,None,1485.4941748620004,None,m,1,1.354854406999948,1487.0278288379996,None,1487.0278288379996,None,1487.0278288379996,None,1488.4460671660017,None,1488.4460671660017,None,1488.4460671660017,None,1488.4460671660017,None,,,,,,,,,,,,,,,,,,,,,,,,,,,,,,,,,,,,,,,,,,,,001,21,2020_Jan_28_1529,spring_faces,3.1.5,60.0066732224922,
condition files/Stage1_1.xlsx,,T1,B1,c,"['c', 'm']","['Clue', 'Monopoly']","[-0.15, 0.5]","[0.15, 0.5]",1,1,,,,,,,,,0,10,10,10,0,6,6,0,,,,,,,,,,,,,,,,,,,,,,,,,,,,,,,,,,,,,,,,,,,,,,,,,,,,,,,1490.4113820310013,None,1490.4113820310013,None,1490.4113820310013,None,c,1,1.3011883639992448,1491.9614227109996,None,1491.9614227109996,None,1491.9614227109996,None,1493.3291988560013,None,1493.3291988560013,None,1493.3291988560013,None,1493.3291988560013,None,,,,,,,,,,,,,,,,,,,,,,,,,,,,,,,,,,,,,,,,,,,,001,21,2020_Jan_28_1529,spring_faces,3.1.5,60.0066732224922,
condition files/Stage1_1.xlsx,,T3,B4,c,"['c', 'm']","['Clue', 'Monopoly']","[-0.15, 0.5]","[0.15, 0.5]",1,1,,,,,,,,,0,10,10,10,0,7,7,5,,,,,,,,,,,,,,,,,,,,,,,,,,,,,,,,,,,,,,,,,,,,,,,,,,,,,,,1495.2941717649992,None,1495.2941717649992,None,1495.2941717649992,None,c,1,3.0095139760014717,1496.8451481529992,None,1496.8451481529992,None,1496.8451481529992,None,1499.9110625790017,None,1499.9110625790017,None,1499.9110625790017,None,1499.9110625790017,None,,,,,,,,,,,,,,,,,,,,,,,,,,,,,,,,,,,,,,,,,,,,001,21,2020_Jan_28_1529,spring_faces,3.1.5,60.0066732224922,
condition files/Stage1_2.xlsx,,B3,T4,m,"['c', 'm']","['Clue', 'Monopoly']","[-0.15, 0.5]","[0.15, 0.5]",1,1,,,,,,,,,0,11,11,11,0,0,0,6,,,,,,,,,,,,,,,,,,,,,,,,,,,,,,,,,,,,,,,,,,,,,,,,,,,,,,,1501.8946500790007,None,1501.8946500790007,None,1501.8946500790007,None,m,1,1.1598946009980864,1503.430737570001,None,1503.430737570001,None,1503.430737570001,None,1504.6476477819997,None,1504.6476477819997,None,1504.6476477819997,None,1504.6476477819997,None,,,,,,,,,,,,,,,,,,,,,,,,,,,,,,,,,,,,,,,,,,,,001,21,2020_Jan_28_1529,spring_faces,3.1.5,60.0066732224922,
condition files/Stage1_2.xlsx,,T1,B2,m,"['c', 'm']","['Clue', 'Monopoly']","[-0.15, 0.5]","[0.15, 0.5]",1,1,,,,,,,,,0,11,11,11,0,1,1,2,,,,,,,,,,,,,,,,,,,,,,,,,,,,,,,,,,,,,,,,,,,,,,,,,,,,,,,1506.6115220890024,None,1506.6115220890024,None,1506.6115220890024,None,m,1,2.6368643839996366,1508.1618051709993,None,1508.1618051709993,None,1508.1618051709993,None,1510.8611492980017,None,1510.8611492980017,None,1510.8611492980017,None,1510.8611492980017,None,,,,,,,,,,,,,,,,,,,,,,,,,,,,,,,,,,,,,,,,,,,,001,21,2020_Jan_28_1529,spring_faces,3.1.5,60.0066732224922,
condition files/Stage1_2.xlsx,,B2,T2,m,"['c', 'm']","['Clue', 'Monopoly']","[-0.15, 0.5]","[0.15, 0.5]",1,1,,,,,,,,,0,11,11,11,0,2,2,3,,,,,,,,,,,,,,,,,,,,,,,,,,,,,,,,,,,,,,,,,,,,,,,,,,,,,,,1512.8280759750014,None,1512.8280759750014,None,1512.8280759750014,None,m,1,1.0277858899971761,1514.3628871030014,None,1514.3628871030014,None,1514.3628871030014,None,1515.4450328040002,None,1515.4450328040002,None,1515.4450328040002,None,1515.4450328040002,None,,,,,,,,,,,,,,,,,,,,,,,,,,,,,,,,,,,,,,,,,,,,001,21,2020_Jan_28_1529,spring_faces,3.1.5,60.0066732224922,
condition files/Stage1_2.xlsx,,B1,T1,c,"['c', 'm']","['Clue', 'Monopoly']","[-0.15, 0.5]","[0.15, 0.5]",1,1,,,,,,,,,0,11,11,11,0,3,3,0,,,,,,,,,,,,,,,,,,,,,,,,,,,,,,,,,,,,,,,,,,,,,,,,,,,,,,,1517.4114485730024,None,1517.4114485730024,None,1517.4114485730024,None,c,1,1.1506510229992273,1518.9440214640017,None,1518.9440214640017,None,1518.9440214640017,None,1520.1613957770023,None,1520.1613957770023,None,1520.1613957770023,None,1520.1613957770023,None,,,,,,,,,,,,,,,,,,,,,,,,,,,,,,,,,,,,,,,,,,,,001,21,2020_Jan_28_1529,spring_faces,3.1.5,60.0066732224922,
condition files/Stage1_2.xlsx,,B4,T3,c,"['c', 'm']","['Clue', 'Monopoly']","[-0.15, 0.5]","[0.15, 0.5]",1,1,,,,,,,,,0,11,11,11,0,4,4,5,,,,,,,,,,,,,,,,,,,,,,,,,,,,,,,,,,,,,,,,,,,,,,,,,,,,,,,1522.1116946050024,None,1522.1116946050024,None,1522.1116946050024,None,c,1,6.51274096799898,1523.6619210999997,None,1523.6619210999997,None,1523.6619210999997,None,1530.2283608280013,None,1530.2283608280013,None,1530.2283608280013,None,1530.2283608280013,None,,,,,,,,,,,,,,,,,,,,,,,,,,,,,,,,,,,,,,,,,,,,001,21,2020_Jan_28_1529,spring_faces,3.1.5,60.0066732224922,
condition files/Stage1_2.xlsx,,T3,B3,c,"['c', 'm']","['Clue', 'Monopoly']","[-0.15, 0.5]","[0.15, 0.5]",1,1,,,,,,,,,0,11,11,11,0,5,5,4,,,,,,,,,,,,,,,,,,,,,,,,,,,,,,,,,,,,,,,,,,,,,,,,,,,,,,,1532.1950118890018,None,1532.1950118890018,None,1532.1950118890018,None,c,1,4.318498223998176,1533.7281376030005,None,1533.7281376030005,None,1533.7281376030005,None,1538.1117377869996,None,1538.1117377869996,None,1538.1117377869996,None,1538.1117377869996,None,,,,,,,,,,,,,,,,,,,,,,,,,,,,,,,,,,,,,,,,,,,,001,21,2020_Jan_28_1529,spring_faces,3.1.5,60.0066732224922,
condition files/Stage1_2.xlsx,,T2,B1,c,"['c', 'm']","['Clue', 'Monopoly']","[-0.15, 0.5]","[0.15, 0.5]",1,1,,,,,,,,,0,11,11,11,0,6,6,1,,,,,,,,,,,,,,,,,,,,,,,,,,,,,,,,,,,,,,,,,,,,,,,,,,,,,,,1540.0782820130007,None,1540.0782820130007,None,1540.0782820130007,None,c,1,1.0909274799996638,1541.6278005170025,None,1541.6278005170025,None,1541.6278005170025,None,1542.7783401190027,None,1542.7783401190027,None,1542.7783401190027,None,1542.7783401190027,None,,,,,,,,,,,,,,,,,,,,,,,,,,,,,,,,,,,,,,,,,,,,001,21,2020_Jan_28_1529,spring_faces,3.1.5,60.0066732224922,
condition files/Stage1_2.xlsx,,T4,B4,m,"['c', 'm']","['Clue', 'Monopoly']","[-0.15, 0.5]","[0.15, 0.5]",1,1,,,,,,,,,0,11,11,11,0,7,7,7,,,,,,,,,,,,,,,,,,,,,,,,,,,,,,,,,,,,,,,,,,,,,,,,,,,,,,,1544.7442364929993,None,1544.7442364929993,None,1544.7442364929993,None,m,1,4.408788247001212,1546.2779520740005,None,1546.2779520740005,None,1546.2779520740005,None,1550.7617221620021,None,1550.7617221620021,None,1550.7617221620021,None,1550.7617221620021,None,,,,,,,,,,,,,,,,,,,,,,,,,,,,,,,,,,,,,,,,,,,,001,21,2020_Jan_28_1529,spring_faces,3.1.5,60.0066732224922,
,,,,,,,,,,,,,,,,,,,,,,,,,,,,,,,,,,,,,,,,,,,,,,,,,,,,,,,,,,,,,,,,,,,,,,,,,,,,,,,,,,,,,,,,,,,,,,,,,,,,,,,,,,,,,,,,1552.7277769210014,None,space,1.5343723269979819,1557.7282587160007,None,,,,,,,,,,,,,,,,,,,,,,,,,,,,,,001,21,2020_Jan_28_1529,spring_faces,3.1.5,60.0066732224922,
condition files/Stage2_1.xlsx,,B4,T4,r,"['s', 'r']","['Stratego', 'Risk']","[-0.15, 0.5]","[0.15, 0.5]",1,1,,,,,,,,,,,,,,,,,0,0,0,0,0,0,0,5,,,,,,,,,,,,,,,,,,,,,,,,,,,,,,,,,,,,,,,,,,,,,,,1559.3283460929997,None,1559.3283460929997,None,1559.3283460929997,None,s,0,2.479773560000467,1560.8469005469997,None,1560.8469005469997,None,1560.8469005469997,None,1563.3791883119993,None,1563.3791883119993,None,1563.3791883119993,None,1563.3791883119993,None,,,,,,,,,,,,,,,1557.7282587160007,None,,,,,,,,,,,,,,,,,,,,,,,,,,,,001,21,2020_Jan_28_1529,spring_faces,3.1.5,60.0066732224922,
condition files/Stage2_1.xlsx,,B2,T2,r,"['s', 'r']","['Stratego', 'Risk']","[-0.15, 0.5]","[0.15, 0.5]",1,1,,,,,,,,,,,,,,,,,0,0,0,0,0,1,1,3,,,,,,,,,,,,,,,,,,,,,,,,,,,,,,,,,,,,,,,,,,,,,,,1565.3446459730003,None,1565.3446459730003,None,1565.3446459730003,None,r,1,0.9752555999984907,1566.8793776359998,None,1566.8793776359998,None,1566.8793776359998,None,1567.9117589279995,None,1567.9117589279995,None,1567.9117589279995,None,1567.9117589279995,None,,,,,,,,,,,,,,,,,,,,,,,,,,,,,,,,,,,,,,,,,,,,001,21,2020_Jan_28_1529,spring_faces,3.1.5,60.0066732224922,
condition files/Stage2_1.xlsx,,T3,B3,s,"['s', 'r']","['Stratego', 'Risk']","[-0.15, 0.5]","[0.15, 0.5]",1,1,,,,,,,,,,,,,,,,,0,0,0,0,0,2,2,4,,,,,,,,,,,,,,,,,,,,,,,,,,,,,,,,,,,,,,,,,,,,,,,1569.877374615,None,1569.877374615,None,1569.877374615,None,s,1,0.8914346170022327,1571.4112945350025,None,1571.4112945350025,None,1571.4112945350025,None,1572.3630308339998,None,1572.3630308339998,None,1572.3630308339998,None,1572.3630308339998,None,,,,,,,,,,,,,,,,,,,,,,,,,,,,,,,,,,,,,,,,,,,,001,21,2020_Jan_28_1529,spring_faces,3.1.5,60.0066732224922,
condition files/Stage2_1.xlsx,,T1,B1,s,"['s', 'r']","['Stratego', 'Risk']","[-0.15, 0.5]","[0.15, 0.5]",1,1,,,,,,,,,,,,,,,,,0,0,0,0,0,3,3,2,,,,,,,,,,,,,,,,,,,,,,,,,,,,,,,,,,,,,,,,,,,,,,,1574.328224547,None,1574.328224547,None,1574.328224547,None,s,1,1.1771697799995309,1575.861590315002,None,1575.861590315002,None,1575.861590315002,None,1577.0950477299994,None,1577.0950477299994,None,1577.0950477299994,None,1577.0950477299994,None,,,,,,,,,,,,,,,,,,,,,,,,,,,,,,,,,,,,,,,,,,,,001,21,2020_Jan_28_1529,spring_faces,3.1.5,60.0066732224922,
condition files/Stage2_1.xlsx,,T5,B5,s,"['s', 'r']","['Stratego', 'Risk']","[-0.15, 0.5]","[0.15, 0.5]",1,1,,,,,,,,,,,,,,,,,0,0,0,0,0,4,4,0,,,,,,,,,,,,,,,,,,,,,,,,,,,,,,,,,,,,,,,,,,,,,,,1579.0617133760024,None,1579.0617133760024,None,1579.0617133760024,None,s,1,4.043199640000239,1580.5955445540021,None,1580.5955445540021,None,1580.5955445540021,None,1584.6945012630022,None,1584.6945012630022,None,1584.6945012630022,None,1584.6945012630022,None,,,,,,,,,,,,,,,,,,,,,,,,,,,,,,,,,,,,,,,,,,,,001,21,2020_Jan_28_1529,spring_faces,3.1.5,60.0066732224922,
condition files/Stage2_1.xlsx,,B6,T6,r,"['s', 'r']","['Stratego', 'Risk']","[-0.15, 0.5]","[0.15, 0.5]",1,1,,,,,,,,,,,,,,,,,0,0,0,0,0,5,5,1,,,,,,,,,,,,,,,,,,,,,,,,,,,,,,,,,,,,,,,,,,,,,,,1586.6618262690026,None,1586.6618262690026,None,1586.6618262690026,None,r,1,2.8268935660016723,1588.2118440990016,None,1588.2118440990016,None,1588.2118440990016,None,1591.094521340001,None,1591.094521340001,None,1591.094521340001,None,1591.094521340001,None,,,,,,,,,,,,,,,,,,,,,,,,,,,,,,,,,,,,,,,,,,,,001,21,2020_Jan_28_1529,spring_faces,3.1.5,60.0066732224922,
condition files/Stage2_2.xlsx,,T4,B4,r,"['s', 'r']","['Stratego', 'Risk']","[-0.15, 0.5]","[0.15, 0.5]",1,1,,,,,,,,,,,,,,,,,0,1,1,1,0,0,0,5,,,,,,,,,,,,,,,,,,,,,,,,,,,,,,,,,,,,,,,,,,,,,,,1593.0782233110003,None,1593.0782233110003,None,1593.0782233110003,None,r,1,2.712814291000541,1594.6138687509992,None,1594.6138687509992,None,1594.6138687509992,None,1597.3778758780027,None,1597.3778758780027,None,1597.3778758780027,None,1597.3778758780027,None,,,,,,,,,,,,,,,,,,,,,,,,,,,,,,,,,,,,,,,,,,,,001,21,2020_Jan_28_1529,spring_faces,3.1.5,60.0066732224922,
condition files/Stage2_2.xlsx,,T2,B2,r,"['s', 'r']","['Stratego', 'Risk']","[-0.15, 0.5]","[0.15, 0.5]",1,1,,,,,,,,,,,,,,,,,0,1,1,1,0,1,1,3,,,,,,,,,,,,,,,,,,,,,,,,,,,,,,,,,,,,,,,,,,,,,,,1599.3448139499997,None,1599.3448139499997,None,1599.3448139499997,None,r,1,1.1352227629977278,1600.8954424950025,None,1600.8954424950025,None,1600.8954424950025,None,1602.0950707449992,None,1602.0950707449992,None,1602.0950707449992,None,1602.0950707449992,None,,,,,,,,,,,,,,,,,,,,,,,,,,,,,,,,,,,,,,,,,,,,001,21,2020_Jan_28_1529,spring_faces,3.1.5,60.0066732224922,
condition files/Stage2_2.xlsx,,B3,T3,s,"['s', 'r']","['Stratego', 'Risk']","[-0.15, 0.5]","[0.15, 0.5]",1,1,,,,,,,,,,,,,,,,,0,1,1,1,0,2,2,4,,,,,,,,,,,,,,,,,,,,,,,,,,,,,,,,,,,,,,,,,,,,,,,1604.061446314001,None,1604.061446314001,None,1604.061446314001,None,s,1,1.5877498709996871,1605.594936079,None,1605.594936079,None,1605.594936079,None,1607.2450300759992,None,1607.2450300759992,None,1607.2450300759992,None,1607.2450300759992,None,,,,,,,,,,,,,,,,,,,,,,,,,,,,,,,,,,,,,,,,,,,,001,21,2020_Jan_28_1529,spring_faces,3.1.5,60.0066732224922,
condition files/Stage2_2.xlsx,,B1,T1,s,"['s', 'r']","['Stratego', 'Risk']","[-0.15, 0.5]","[0.15, 0.5]",1,1,,,,,,,,,,,,,,,,,0,1,1,1,0,3,3,2,,,,,,,,,,,,,,,,,,,,,,,,,,,,,,,,,,,,,,,,,,,,,,,1609.2108007669995,None,1609.2108007669995,None,1609.2108007669995,None,s,1,3.830055389997142,1610.7446183009997,None,1610.7446183009997,None,1610.7446183009997,None,1614.628181420001,None,1614.628181420001,None,1614.628181420001,None,1614.628181420001,None,,,,,,,,,,,,,,,,,,,,,,,,,,,,,,,,,,,,,,,,,,,,001,21,2020_Jan_28_1529,spring_faces,3.1.5,60.0066732224922,
condition files/Stage2_2.xlsx,,T6,B6,r,"['s', 'r']","['Stratego', 'Risk']","[-0.15, 0.5]","[0.15, 0.5]",1,1,,,,,,,,,,,,,,,,,0,1,1,1,0,4,4,1,,,,,,,,,,,,,,,,,,,,,,,,,,,,,,,,,,,,,,,,,,,,,,,1616.5948041170013,None,1616.5948041170013,None,1616.5948041170013,None,s,0,3.5828014689977863,1618.1278728200014,None,1618.1278728200014,None,1618.1278728200014,None,1621.7630183870024,None,1621.7630183870024,None,1621.7630183870024,None,1621.7630183870024,None,,,,,,,,,,,,,,,,,,,,,,,,,,,,,,,,,,,,,,,,,,,,001,21,2020_Jan_28_1529,spring_faces,3.1.5,60.0066732224922,
condition files/Stage2_2.xlsx,,B5,T5,s,"['s', 'r']","['Stratego', 'Risk']","[-0.15, 0.5]","[0.15, 0.5]",1,1,,,,,,,,,,,,,,,,,0,1,1,1,0,5,5,0,,,,,,,,,,,,,,,,,,,,,,,,,,,,,,,,,,,,,,,,,,,,,,,1623.728304471002,None,1623.728304471002,None,1623.728304471002,None,s,1,2.62480652999875,1625.261930861001,None,1625.261930861001,None,1625.261930861001,None,1627.9459213640002,None,1627.9459213640002,None,1627.9459213640002,None,1627.9459213640002,None,,,,,,,,,,,,,,,,,,,,,,,,,,,,,,,,,,,,,,,,,,,,001,21,2020_Jan_28_1529,spring_faces,3.1.5,60.0066732224922,
condition files/Stage2_1.xlsx,,B6,T6,r,"['s', 'r']","['Stratego', 'Risk']","[-0.15, 0.5]","[0.15, 0.5]",1,1,,,,,,,,,,,,,,,,,0,2,2,2,0,0,0,1,,,,,,,,,,,,,,,,,,,,,,,,,,,,,,,,,,,,,,,,,,,,,,,1629.928144253001,None,1629.928144253001,None,1629.928144253001,None,r,1,3.3210193170016282,1631.4616694159995,None,1631.4616694159995,None,1631.4616694159995,None,1634.8476562430005,None,1634.8476562430005,None,1634.8476562430005,None,1634.8476562430005,None,,,,,,,,,,,,,,,,,,,,,,,,,,,,,,,,,,,,,,,,,,,,001,21,2020_Jan_28_1529,spring_faces,3.1.5,60.0066732224922,
condition files/Stage2_1.xlsx,,T3,B3,s,"['s', 'r']","['Stratego', 'Risk']","[-0.15, 0.5]","[0.15, 0.5]",1,1,,,,,,,,,,,,,,,,,0,2,2,2,0,1,1,4,,,,,,,,,,,,,,,,,,,,,,,,,,,,,,,,,,,,,,,,,,,,,,,1636.8119727420017,None,1636.8119727420017,None,1636.8119727420017,None,s,1,1.4449988690030295,1638.3616475130002,None,1638.3616475130002,None,1638.3616475130002,None,1639.8784526810014,None,1639.8784526810014,None,1639.8784526810014,None,1639.8784526810014,None,,,,,,,,,,,,,,,,,,,,,,,,,,,,,,,,,,,,,,,,,,,,001,21,2020_Jan_28_1529,spring_faces,3.1.5,60.0066732224922,
condition files/Stage2_1.xlsx,,T1,B1,s,"['s', 'r']","['Stratego', 'Risk']","[-0.15, 0.5]","[0.15, 0.5]",1,1,,,,,,,,,,,,,,,,,0,2,2,2,0,2,2,2,,,,,,,,,,,,,,,,,,,,,,,,,,,,,,,,,,,,,,,,,,,,,,,1641.8275340600012,None,1641.8275340600012,None,1641.8275340600012,None,s,1,2.028205689999595,1643.378399653,None,1643.378399653,None,1643.378399653,None,1645.462129757001,None,1645.462129757001,None,1645.462129757001,None,1645.462129757001,None,,,,,,,,,,,,,,,,,,,,,,,,,,,,,,,,,,,,,,,,,,,,001,21,2020_Jan_28_1529,spring_faces,3.1.5,60.0066732224922,
condition files/Stage2_1.xlsx,,B4,T4,r,"['s', 'r']","['Stratego', 'Risk']","[-0.15, 0.5]","[0.15, 0.5]",1,1,,,,,,,,,,,,,,,,,0,2,2,2,0,3,3,5,,,,,,,,,,,,,,,,,,,,,,,,,,,,,,,,,,,,,,,,,,,,,,,1647.4283106760013,None,1647.4283106760013,None,1647.4283106760013,None,r,1,1.259071380001842,1648.9635748559995,None,1648.9635748559995,None,1648.9635748559995,None,1650.2779838150018,None,1650.2779838150018,None,1650.2779838150018,None,1650.2779838150018,None,,,,,,,,,,,,,,,,,,,,,,,,,,,,,,,,,,,,,,,,,,,,001,21,2020_Jan_28_1529,spring_faces,3.1.5,60.0066732224922,
condition files/Stage2_1.xlsx,,T5,B5,s,"['s', 'r']","['Stratego', 'Risk']","[-0.15, 0.5]","[0.15, 0.5]",1,1,,,,,,,,,,,,,,,,,0,2,2,2,0,4,4,0,,,,,,,,,,,,,,,,,,,,,,,,,,,,,,,,,,,,,,,,,,,,,,,1652.2450283729995,None,1652.2450283729995,None,1652.2450283729995,None,s,1,2.5881897390027007,1653.778489823002,None,1653.778489823002,None,1653.778489823002,None,1656.4291312770001,None,1656.4291312770001,None,1656.4291312770001,None,1656.4291312770001,None,,,,,,,,,,,,,,,,,,,,,,,,,,,,,,,,,,,,,,,,,,,,001,21,2020_Jan_28_1529,spring_faces,3.1.5,60.0066732224922,
condition files/Stage2_1.xlsx,,B2,T2,r,"['s', 'r']","['Stratego', 'Risk']","[-0.15, 0.5]","[0.15, 0.5]",1,1,,,,,,,,,,,,,,,,,0,2,2,2,0,5,5,3,,,,,,,,,,,,,,,,,,,,,,,,,,,,,,,,,,,,,,,,,,,,,,,1658.3948074100008,None,1658.3948074100008,None,1658.3948074100008,None,r,1,3.0773973159994057,1659.9292492040004,None,1659.9292492040004,None,1659.9292492040004,None,1663.0626225090018,None,1663.0626225090018,None,1663.0626225090018,None,1663.0626225090018,None,,,,,,,,,,,,,,,,,,,,,,,,,,,,,,,,,,,,,,,,,,,,001,21,2020_Jan_28_1529,spring_faces,3.1.5,60.0066732224922,
condition files/Stage2_2.xlsx,,T2,B2,r,"['s', 'r']","['Stratego', 'Risk']","[-0.15, 0.5]","[0.15, 0.5]",1,1,,,,,,,,,,,,,,,,,0,3,3,3,0,0,0,3,,,,,,,,,,,,,,,,,,,,,,,,,,,,,,,,,,,,,,,,,,,,,,,1665.0450615770023,None,1665.0450615770023,None,1665.0450615770023,None,r,1,1.5642969900000026,1666.5783873600012,None,1666.5783873600012,None,1666.5783873600012,None,1668.1953503120021,None,1668.1953503120021,None,1668.1953503120021,None,1668.1953503120021,None,,,,,,,,,,,,,,,,,,,,,,,,,,,,,,,,,,,,,,,,,,,,001,21,2020_Jan_28_1529,spring_faces,3.1.5,60.0066732224922,
condition files/Stage2_2.xlsx,,T6,B6,r,"['s', 'r']","['Stratego', 'Risk']","[-0.15, 0.5]","[0.15, 0.5]",1,1,,,,,,,,,,,,,,,,,0,3,3,3,0,1,1,1,,,,,,,,,,,,,,,,,,,,,,,,,,,,,,,,,,,,,,,,,,,,,,,1670.1615239370003,None,1670.1615239370003,None,1670.1615239370003,None,r,1,3.0215744570014067,1671.6971785160022,None,1671.6971785160022,None,1671.6971785160022,None,1674.7784232880003,None,1674.7784232880003,None,1674.7784232880003,None,1674.7784232880003,None,,,,,,,,,,,,,,,,,,,,,,,,,,,,,,,,,,,,,,,,,,,,001,21,2020_Jan_28_1529,spring_faces,3.1.5,60.0066732224922,
condition files/Stage2_2.xlsx,,B5,T5,s,"['s', 'r']","['Stratego', 'Risk']","[-0.15, 0.5]","[0.15, 0.5]",1,1,,,,,,,,,,,,,,,,,0,3,3,3,0,2,2,0,,,,,,,,,,,,,,,,,,,,,,,,,,,,,,,,,,,,,,,,,,,,,,,1676.7448904400007,None,1676.7448904400007,None,1676.7448904400007,None,s,1,1.848909876000107,1678.2777735870004,None,1678.2777735870004,None,1678.2777735870004,None,1680.1787173449993,None,1680.1787173449993,None,1680.1787173449993,None,1680.1787173449993,None,,,,,,,,,,,,,,,,,,,,,,,,,,,,,,,,,,,,,,,,,,,,001,21,2020_Jan_28_1529,spring_faces,3.1.5,60.0066732224922,
condition files/Stage2_2.xlsx,,B1,T1,s,"['s', 'r']","['Stratego', 'Risk']","[-0.15, 0.5]","[0.15, 0.5]",1,1,,,,,,,,,,,,,,,,,0,3,3,3,0,3,3,2,,,,,,,,,,,,,,,,,,,,,,,,,,,,,,,,,,,,,,,,,,,,,,,1682.1448318680013,None,1682.1448318680013,None,1682.1448318680013,None,s,1,1.3286944170031347,1683.677943294002,None,1683.677943294002,None,1683.677943294002,None,1685.0616821030017,None,1685.0616821030017,None,1685.0616821030017,None,1685.0616821030017,None,,,,,,,,,,,,,,,,,,,,,,,,,,,,,,,,,,,,,,,,,,,,001,21,2020_Jan_28_1529,spring_faces,3.1.5,60.0066732224922,
condition files/Stage2_2.xlsx,,T4,B4,r,"['s', 'r']","['Stratego', 'Risk']","[-0.15, 0.5]","[0.15, 0.5]",1,1,,,,,,,,,,,,,,,,,0,3,3,3,0,4,4,5,,,,,,,,,,,,,,,,,,,,,,,,,,,,,,,,,,,,,,,,,,,,,,,1687.028273977001,None,1687.028273977001,None,1687.028273977001,None,r,1,1.1802763609994145,1688.5783809210006,None,1688.5783809210006,None,1688.5783809210006,None,1689.812836674002,None,1689.812836674002,None,1689.812836674002,None,1689.812836674002,None,,,,,,,,,,,,,,,,,,,,,,,,,,,,,,,,,,,,,,,,,,,,001,21,2020_Jan_28_1529,spring_faces,3.1.5,60.0066732224922,
condition files/Stage2_2.xlsx,,B3,T3,s,"['s', 'r']","['Stratego', 'Risk']","[-0.15, 0.5]","[0.15, 0.5]",1,1,,,,,,,,,,,,,,,,,0,3,3,3,0,5,5,4,,,,,,,,,,,,,,,,,,,,,,,,,,,,,,,,,,,,,,,,,,,,,,,1691.777588418001,None,1691.777588418001,None,1691.777588418001,None,s,1,2.094776889000059,1693.3118438010024,None,1693.3118438010024,None,1693.3118438010024,None,1695.4630371679996,None,1695.4630371679996,None,1695.4630371679996,None,1695.4630371679996,None,,,,,,,,,,,,,,,,,,,,,,,,,,,,,,,,,,,,,,,,,,,,001,21,2020_Jan_28_1529,spring_faces,3.1.5,60.0066732224922,
condition files/Stage2_1.xlsx,,B6,T6,r,"['s', 'r']","['Stratego', 'Risk']","[-0.15, 0.5]","[0.15, 0.5]",1,1,,,,,,,,,,,,,,,,,0,4,4,4,0,0,0,1,,,,,,,,,,,,,,,,,,,,,,,,,,,,,,,,,,,,,,,,,,,,,,,1697.4446978160013,None,1697.4446978160013,None,1697.4446978160013,None,r,1,1.1797436230008316,1698.9789380340007,None,1698.9789380340007,None,1698.9789380340007,None,1700.228308316,None,1700.228308316,None,1700.228308316,None,1700.228308316,None,,,,,,,,,,,,,,,,,,,,,,,,,,,,,,,,,,,,,,,,,,,,001,21,2020_Jan_28_1529,spring_faces,3.1.5,60.0066732224922,
condition files/Stage2_1.xlsx,,T3,B3,s,"['s', 'r']","['Stratego', 'Risk']","[-0.15, 0.5]","[0.15, 0.5]",1,1,,,,,,,,,,,,,,,,,0,4,4,4,0,1,1,4,,,,,,,,,,,,,,,,,,,,,,,,,,,,,,,,,,,,,,,,,,,,,,,1702.1780606030006,None,1702.1780606030006,None,1702.1780606030006,None,s,1,2.4620084449998103,1703.7126699649998,None,1703.7126699649998,None,1703.7126699649998,None,1706.2302811020018,None,1706.2302811020018,None,1706.2302811020018,None,1706.2302811020018,None,,,,,,,,,,,,,,,,,,,,,,,,,,,,,,,,,,,,,,,,,,,,001,21,2020_Jan_28_1529,spring_faces,3.1.5,60.0066732224922,
condition files/Stage2_1.xlsx,,T5,B5,s,"['s', 'r']","['Stratego', 'Risk']","[-0.15, 0.5]","[0.15, 0.5]",1,1,,,,,,,,,,,,,,,,,0,4,4,4,0,2,2,0,,,,,,,,,,,,,,,,,,,,,,,,,,,,,,,,,,,,,,,,,,,,,,,1708.1949571709993,None,1708.1949571709993,None,1708.1949571709993,None,s,1,2.0781118470004003,1709.744525459002,None,1709.744525459002,None,1709.744525459002,None,1711.8782418709998,None,1711.8782418709998,None,1711.8782418709998,None,1711.8782418709998,None,,,,,,,,,,,,,,,,,,,,,,,,,,,,,,,,,,,,,,,,,,,,001,21,2020_Jan_28_1529,spring_faces,3.1.5,60.0066732224922,
