condsFile,subStage,cue1,cue2,correct,responseKeys,responseNames,cue1Position,cue2Position,cue1Opacity,cue2Opacity,stageLoop0.thisRepN,stageLoop0.thisTrialN,stageLoop0.thisN,stageLoop0.thisIndex,blockLoop0.thisRepN,blockLoop0.thisTrialN,blockLoop0.thisN,blockLoop0.thisIndex,stage1Loop.thisRepN,stage1Loop.thisTrialN,stage1Loop.thisN,stage1Loop.thisIndex,blockLoop1.thisRepN,blockLoop1.thisTrialN,blockLoop1.thisN,blockLoop1.thisIndex,stage2Loop.thisRepN,stage2Loop.thisTrialN,stage2Loop.thisN,stage2Loop.thisIndex,blockLoop2.thisRepN,blockLoop2.thisTrialN,blockLoop2.thisN,blockLoop2.thisIndex,testLoop.thisRepN,testLoop.thisTrialN,testLoop.thisN,testLoop.thisIndex,blockLoopTest.thisRepN,blockLoopTest.thisTrialN,blockLoopTest.thisN,blockLoopTest.thisIndex,cuePics,id_instr_text.started,id_instr_text.stopped,space_to_continue_2.started,space_to_continue_2.stopped,end_instructions_resp_3.keys,end_instructions_resp_3.rt,end_instructions_resp_3.started,end_instructions_resp_3.stopped,id_input_instr.started,id_input_instr.stopped,id_input_rect.started,id_input_rect.stopped,id_input_resp.keys,id_input_resp.rt,id_input_resp.started,id_input_resp.stopped,sonaID,id_input_text.started,id_input_text.stopped,final_text.started,final_text.stopped,instructions.started,instructions.stopped,end_instructions_resp.keys,end_instructions_resp.rt,end_instructions_resp.started,end_instructions_resp.stopped,space_to_continue.started,space_to_continue.stopped,instructions_stage0.started,instructions_stage0.stopped,end_instructions_resp_stage0.keys,end_instructions_resp_stage0.rt,end_instructions_resp_stage0.started,end_instructions_resp_stage0.stopped,space_to_continue_stage0.started,space_to_continue_stage0.stopped,text.started,text.stopped,resp_text1.started,resp_text1.stopped,resp_text2.started,resp_text2.stopped,trial_resp.keys,trial_resp.corr,trial_resp.rt,trial_resp.started,trial_resp.stopped,cue1Image.started,cue1Image.stopped,cue2Image.started,cue2Image.stopped,cue1Image_fb.started,cue1Image_fb.stopped,cue2Image_fb.started,cue2Image_fb.stopped,fb_text_answer.started,fb_text_answer.stopped,feedback_image.started,feedback_image.stopped,instructions_stage1.started,instructions_stage1.stopped,end_instructions_resp_stage1.keys,end_instructions_resp_stage1.rt,end_instructions_resp_stage1.started,end_instructions_resp_stage1.stopped,space_to_continue_stage1.started,space_to_continue_stage1.stopped,instructions_2.started,instructions_2.stopped,end_instructions_resp_2.keys,end_instructions_resp_2.rt,end_instructions_resp_2.started,end_instructions_resp_2.stopped,press_space_to_continue_stage2.started,press_space_to_continue_stage2.stopped,instructions_testStage1.started,instructions_testStage1.stopped,end_instructions_resp_test1.keys,end_instructions_resp_test1.rt,end_instructions_resp_test1.started,end_instructions_resp_test1.stopped,press_space_to_continue_test1.started,press_space_to_continue_test1.stopped,cue1Image_testChoice.started,cue1Image_testChoice.stopped,cue2Image_testChoice.started,cue2Image_testChoice.stopped,test_resp.keys,test_resp.corr,test_resp.rt,test_resp.started,test_resp.stopped,cue1Image_testConf.started,cue1Image_testConf.stopped,cue2Image_testConf.started,cue2Image_testConf.stopped,conf_reminder.started,conf_reminder.stopped,conf_rating.response,conf_rating.rt,conf_rating.started,conf_rating.stopped,session,participant,date,expName,psychopyVersion,frameRate,
,,,,,,,,,,,,,,,,,,,,,,,,,,,,,,,,,,,,,,,,,,,"{'none': 'pictures/20M_AN_C.png', 'alpha': 'pictures/SHINEd_pear.png', 'beta': 'pictures/SHINEd_apple.png', 'theta': 'pictures/SHINEd_melon.png', 'phi': 'pictures/SHINEd_pepper.png', 'T1': 'pictures/32M_AN_C.png', 'T2': 'pictures/23M_AN_C.png', 'T3': 'pictures/20M_AN_C.png', 'T4': 'pictures/22M_AN_C.png', 'T5': 'pictures/31M_AN_C.png', 'T6': 'pictures/38M_AN_C.png', 'B1': 'pictures/26M_NE_C.png', 'B2': 'pictures/25M_NE_C.png', 'B3': 'pictures/37M_NE_C.png', 'B4': 'pictures/34M_NE_C.png', 'B5': 'pictures/36M_NE_C.png', 'B6': 'pictures/33M_NE_C.png'}",1288.194629934,None,1293.193841246,None,space,24.06367863000014,1293.193841246,None,,,,,,,,,,,,,,,,,,,,,,,,,,,,,,,,,,,,,,,,,,,,,,,,,,,,,,,,,,,,,,,,,,,,,,,,,,,,,,,,,,,,,,,,,,,,,,,,001,23,2020_Jan_30_0900,spring_faces,3.1.5,60.3463245392295,
,,,,,,,,,,,,,,,,,,,,,,,,,,,,,,,,,,,,,,,,,,,,,,,,,,,,1317.760762402,None,1317.760762402,None,"['0', '8', '2', '9', '0', '1', 'backspace', 'backspace', 'j', 'u', 'r', 'u', 's']","[8.840802995999866, 9.640819096999849, 10.152742593999847, 10.744703060999882, 11.112716325999827, 12.088760450999871, 14.680740366999999, 15.032738408999876, 21.256800955000017, 21.44873672599988, 24.392810216999806, 25.128732317999948, 32.56868528199993]",1317.760762402,None,,,,,,,,,,,,,,,,,,,,,,,,,,,,,,,,,,,,,,,,,,,,,,,,,,,,,,,,,,,,,,,,,,,,,,,,,,,,,,,,,,,,,,,,001,23,2020_Jan_30_0900,spring_faces,3.1.5,60.3463245392295,
,,,,,,,,,,,,,,,,,,,,,,,,,,,,,,,,,,,,,,,,,,,,,,,,,,,,,,,,,,,,0829jurus,1317.760762402,None,1317.760762402,None,1355.410597348,None,space,1.0388605050000024,1360.410660415,None,,,,,,,,,,,,,,,,,,,,,,,,,,,,,,,,,,,,,,,,,,,,,,,,,,,,,,,,,,,,,,,,,,,,,,,,,,,,,001,23,2020_Jan_30_0900,spring_faces,3.1.5,60.3463245392295,
,,,,,,,,,,,,,,,,,,,,,,,,,,,,,,,,,,,,,,,,,,,,,,,,,,,,,,,,,,,,,,,,,,,,,,,1360.410660415,None,1361.494003161,None,space,5.195657167999798,1366.493880866,None,,,,,,,,,,,,,,,,,,,,,,,,,,,,,,,,,,,,,,,,,,,,,,,,,,,,,,,,,,,,,,,,,,,,,001,23,2020_Jan_30_0900,spring_faces,3.1.5,60.3463245392295,
condition files/Stage0a.xlsx,0a,beta,none,g,"['h', 'g']","['Chess', 'Go']","[0, 0.5]","[0, 0]",1,0,0,0,0,0,0,0,0,1,,,,,,,,,,,,,,,,,,,,,,,,,,,,,,,,,,,,,,,,,,,,,,,,,,,,,,,,,,,,,1366.493880866,None,1371.8274770409998,None,1371.8274770409998,None,1371.8274770409998,None,h,0,1.6542765870001404,1373.4272583289999,None,1373.4272583289999,None,1373.4272583289999,None,1375.177369195,None,1375.177369195,None,1375.177369195,None,1375.177369195,None,,,,,,,,,,,,,,,,,,,,,,,,,,,,,,,,,,,,,,,,,,,,001,23,2020_Jan_30_0900,spring_faces,3.1.5,60.3463245392295,
condition files/Stage0a.xlsx,0a,alpha,none,h,"['h', 'g']","['Chess', 'Go']","[0, 0.5]","[0, 0]",1,0,0,0,0,0,0,1,1,0,,,,,,,,,,,,,,,,,,,,,,,,,,,,,,,,,,,,,,,,,,,,,,,,,,,,,,,,,,,,,,,1377.110488841,None,1377.110488841,None,1377.110488841,None,h,1,1.3311996380000437,1378.678295966,None,1378.678295966,None,1378.678295966,None,1380.093845329,None,1380.093845329,None,1380.093845329,None,1380.093845329,None,,,,,,,,,,,,,,,,,,,,,,,,,,,,,,,,,,,,,,,,,,,,001,23,2020_Jan_30_0900,spring_faces,3.1.5,60.3463245392295,
condition files/Stage0a.xlsx,0a,alpha,none,h,"['h', 'g']","['Chess', 'Go']","[0, 0.5]","[0, 0]",1,0,0,1,1,1,0,0,0,0,,,,,,,,,,,,,,,,,,,,,,,,,,,,,,,,,,,,,,,,,,,,,,,,,,,,,,,,,,,,,,,1382.044282693,None,1382.044282693,None,1382.044282693,None,h,1,0.736974544999839,1383.560535371,None,1383.560535371,None,1383.560535371,None,1384.360667166,None,1384.360667166,None,1384.360667166,None,1384.360667166,None,,,,,,,,,,,,,,,,,,,,,,,,,,,,,,,,,,,,,,,,,,,,001,23,2020_Jan_30_0900,spring_faces,3.1.5,60.3463245392295,
condition files/Stage0a.xlsx,0a,beta,none,g,"['h', 'g']","['Chess', 'Go']","[0, 0.5]","[0, 0]",1,0,0,1,1,1,0,1,1,1,,,,,,,,,,,,,,,,,,,,,,,,,,,,,,,,,,,,,,,,,,,,,,,,,,,,,,,,,,,,,,,1386.327596403,None,1386.327596403,None,1386.327596403,None,g,1,0.6448553349998747,1387.860638256,None,1387.860638256,None,1387.860638256,None,1388.560711639,None,1388.560711639,None,1388.560711639,None,1388.560711639,None,,,,,,,,,,,,,,,,,,,,,,,,,,,,,,,,,,,,,,,,,,,,001,23,2020_Jan_30_0900,spring_faces,3.1.5,60.3463245392295,
condition files/Stage0a.xlsx,0a,alpha,none,h,"['h', 'g']","['Chess', 'Go']","[0, 0.5]","[0, 0]",1,0,0,2,2,2,0,0,0,0,,,,,,,,,,,,,,,,,,,,,,,,,,,,,,,,,,,,,,,,,,,,,,,,,,,,,,,,,,,,,,,1390.543549865,None,1390.543549865,None,1390.543549865,None,h,1,0.6519172560001607,1392.0776059529999,None,1392.0776059529999,None,1392.0776059529999,None,1392.7936233389999,None,1392.7936233389999,None,1392.7936233389999,None,1392.7936233389999,None,,,,,,,,,,,,,,,,,,,,,,,,,,,,,,,,,,,,,,,,,,,,001,23,2020_Jan_30_0900,spring_faces,3.1.5,60.3463245392295,
condition files/Stage0a.xlsx,0a,beta,none,g,"['h', 'g']","['Chess', 'Go']","[0, 0.5]","[0, 0]",1,0,0,2,2,2,0,1,1,1,,,,,,,,,,,,,,,,,,,,,,,,,,,,,,,,,,,,,,,,,,,,,,,,,,,,,,,,,,,,,,,1394.760508074,None,1394.760508074,None,1394.760508074,None,g,1,0.6277067020000686,1396.2938838139999,None,1396.2938838139999,None,1396.2938838139999,None,1396.976912402,None,1396.976912402,None,1396.976912402,None,1396.976912402,None,,,,,,,,,,,,,,,,,,,,,,,,,,,,,,,,,,,,,,,,,,,,001,23,2020_Jan_30_0900,spring_faces,3.1.5,60.3463245392295,
condition files/Stage0a.xlsx,0a,alpha,none,h,"['h', 'g']","['Chess', 'Go']","[0, 0.5]","[0, 0]",1,0,0,3,3,3,0,0,0,0,,,,,,,,,,,,,,,,,,,,,,,,,,,,,,,,,,,,,,,,,,,,,,,,,,,,,,,,,,,,,,,1398.9608340099999,None,1398.9608340099999,None,1398.9608340099999,None,h,1,0.69931279299999,1400.494209791,None,1400.494209791,None,1400.494209791,None,1401.244013586,None,1401.244013586,None,1401.244013586,None,1401.244013586,None,,,,,,,,,,,,,,,,,,,,,,,,,,,,,,,,,,,,,,,,,,,,001,23,2020_Jan_30_0900,spring_faces,3.1.5,60.3463245392295,
condition files/Stage0a.xlsx,0a,beta,none,g,"['h', 'g']","['Chess', 'Go']","[0, 0.5]","[0, 0]",1,0,0,3,3,3,0,1,1,1,,,,,,,,,,,,,,,,,,,,,,,,,,,,,,,,,,,,,,,,,,,,,,,,,,,,,,,,,,,,,,,1403.2105733639999,None,1403.2105733639999,None,1403.2105733639999,None,g,1,0.5771531939999477,1404.74436696,None,1404.74436696,None,1404.74436696,None,1405.377288182,None,1405.377288182,None,1405.377288182,None,1405.377288182,None,,,,,,,,,,,,,,,,,,,,,,,,,,,,,,,,,,,,,,,,,,,,001,23,2020_Jan_30_0900,spring_faces,3.1.5,60.3463245392295,
condition files/Stage0a.xlsx,0a,alpha,none,h,"['h', 'g']","['Chess', 'Go']","[0, 0.5]","[0, 0]",1,0,0,4,4,4,0,0,0,0,,,,,,,,,,,,,,,,,,,,,,,,,,,,,,,,,,,,,,,,,,,,,,,,,,,,,,,,,,,,,,,1407.3600020249999,None,1407.3600020249999,None,1407.3600020249999,None,h,1,0.5555333939998945,1408.893987446,None,1408.893987446,None,1408.893987446,None,1409.51067706,None,1409.51067706,None,1409.51067706,None,1409.51067706,None,,,,,,,,,,,,,,,,,,,,,,,,,,,,,,,,,,,,,,,,,,,,001,23,2020_Jan_30_0900,spring_faces,3.1.5,60.3463245392295,
condition files/Stage0a.xlsx,0a,beta,none,g,"['h', 'g']","['Chess', 'Go']","[0, 0.5]","[0, 0]",1,0,0,4,4,4,0,1,1,1,,,,,,,,,,,,,,,,,,,,,,,,,,,,,,,,,,,,,,,,,,,,,,,,,,,,,,,,,,,,,,,1411.477314435,None,1411.477314435,None,1411.477314435,None,g,1,0.5347042620001048,1413.0108022539998,None,1413.0108022539998,None,1413.0108022539998,None,1413.61031385,None,1413.61031385,None,1413.61031385,None,1413.61031385,None,,,,,,,,,,,,,,,,,,,,,,,,,,,,,,,,,,,,,,,,,,,,001,23,2020_Jan_30_0900,spring_faces,3.1.5,60.3463245392295,
condition files/Stage0a.xlsx,0a,alpha,none,h,"['h', 'g']","['Chess', 'Go']","[0, 0.5]","[0, 0]",1,0,0,5,5,5,0,0,0,0,,,,,,,,,,,,,,,,,,,,,,,,,,,,,,,,,,,,,,,,,,,,,,,,,,,,,,,,,,,,,,,1415.593591575,None,1415.593591575,None,1415.593591575,None,h,1,0.6107978379998258,1417.1267958189999,None,1417.1267958189999,None,1417.1267958189999,None,1417.793641458,None,1417.793641458,None,1417.793641458,None,1417.793641458,None,,,,,,,,,,,,,,,,,,,,,,,,,,,,,,,,,,,,,,,,,,,,001,23,2020_Jan_30_0900,spring_faces,3.1.5,60.3463245392295,
condition files/Stage0a.xlsx,0a,beta,none,g,"['h', 'g']","['Chess', 'Go']","[0, 0.5]","[0, 0]",1,0,0,5,5,5,0,1,1,1,,,,,,,,,,,,,,,,,,,,,,,,,,,,,,,,,,,,,,,,,,,,,,,,,,,,,,,,,,,,,,,1419.760342158,None,1419.760342158,None,1419.760342158,None,g,1,1.4668263389999083,1421.2946650889999,None,1421.2946650889999,None,1421.2946650889999,None,1422.827425865,None,1422.827425865,None,1422.827425865,None,1422.827425865,None,,,,,,,,,,,,,,,,,,,,,,,,,,,,,,,,,,,,,,,,,,,,001,23,2020_Jan_30_0900,spring_faces,3.1.5,60.3463245392295,
condition files/Stage0b_1.xlsx,0b,alpha,none,h,"['h', 'g']","['Chess', 'Go']","[-0.15, 0.5]","[0.15, 0.5]",1,0,0,6,6,6,0,0,0,0,,,,,,,,,,,,,,,,,,,,,,,,,,,,,,,,,,,,,,,,,,,,,,,,,,,,,,,,,,,,,,,1424.8264330539998,None,1424.8264330539998,None,1424.8264330539998,None,h,1,0.6418633549999413,1426.3436570459999,None,1426.3436570459999,None,1426.3436570459999,None,1427.0433879099999,None,1427.0433879099999,None,1427.0433879099999,None,1427.0433879099999,None,,,,,,,,,,,,,,,,,,,,,,,,,,,,,,,,,,,,,,,,,,,,001,23,2020_Jan_30_0900,spring_faces,3.1.5,60.3463245392295,
condition files/Stage0b_1.xlsx,0b,none,beta,g,"['h', 'g']","['Chess', 'Go']","[-0.15, 0.5]","[0.15, 0.5]",0,1,0,6,6,6,0,1,1,1,,,,,,,,,,,,,,,,,,,,,,,,,,,,,,,,,,,,,,,,,,,,,,,,,,,,,,,,,,,,,,,1429.010278524,None,1429.010278524,None,1429.010278524,None,g,1,0.6652815099998861,1430.560239984,None,1430.560239984,None,1430.560239984,None,1431.281745604,None,1431.281745604,None,1431.281745604,None,1431.281745604,None,,,,,,,,,,,,,,,,,,,,,,,,,,,,,,,,,,,,,,,,,,,,001,23,2020_Jan_30_0900,spring_faces,3.1.5,60.3463245392295,
condition files/Stage0b_2.xlsx,0b,beta,none,g,"['h', 'g']","['Chess', 'Go']","[-0.15, 0.5]","[0.15, 0.5]",1,0,0,7,7,7,0,0,0,1,,,,,,,,,,,,,,,,,,,,,,,,,,,,,,,,,,,,,,,,,,,,,,,,,,,,,,,,,,,,,,,1433.293738317,None,1433.293738317,None,1433.293738317,None,g,1,0.6048023060000105,1434.796800713,None,1434.796800713,None,1434.796800713,None,1435.4602731329999,None,1435.4602731329999,None,1435.4602731329999,None,1435.4602731329999,None,,,,,,,,,,,,,,,,,,,,,,,,,,,,,,,,,,,,,,,,,,,,001,23,2020_Jan_30_0900,spring_faces,3.1.5,60.3463245392295,
condition files/Stage0b_2.xlsx,0b,none,alpha,h,"['h', 'g']","['Chess', 'Go']","[-0.15, 0.5]","[0.15, 0.5]",0,1,0,7,7,7,0,1,1,0,,,,,,,,,,,,,,,,,,,,,,,,,,,,,,,,,,,,,,,,,,,,,,,,,,,,,,,,,,,,,,,1437.427240302,None,1437.427240302,None,1437.427240302,None,h,1,0.5995327529999486,1438.961943243,None,1438.961943243,None,1438.961943243,None,1439.6289591569998,None,1439.6289591569998,None,1439.6289591569998,None,1439.6289591569998,None,,,,,,,,,,,,,,,,,,,,,,,,,,,,,,,,,,,,,,,,,,,,001,23,2020_Jan_30_0900,spring_faces,3.1.5,60.3463245392295,
condition files/Stage0b_1.xlsx,0b,none,beta,g,"['h', 'g']","['Chess', 'Go']","[-0.15, 0.5]","[0.15, 0.5]",0,1,0,8,8,8,0,0,0,1,,,,,,,,,,,,,,,,,,,,,,,,,,,,,,,,,,,,,,,,,,,,,,,,,,,,,,,,,,,,,,,1441.6105211499998,None,1441.6105211499998,None,1441.6105211499998,None,g,1,0.9301182090000566,1443.143389099,None,1443.143389099,None,1443.143389099,None,1444.126916922,None,1444.126916922,None,1444.126916922,None,1444.126916922,None,,,,,,,,,,,,,,,,,,,,,,,,,,,,,,,,,,,,,,,,,,,,001,23,2020_Jan_30_0900,spring_faces,3.1.5,60.3463245392295,
condition files/Stage0b_1.xlsx,0b,alpha,none,h,"['h', 'g']","['Chess', 'Go']","[-0.15, 0.5]","[0.15, 0.5]",1,0,0,8,8,8,0,1,1,0,,,,,,,,,,,,,,,,,,,,,,,,,,,,,,,,,,,,,,,,,,,,,,,,,,,,,,,,,,,,,,,1446.0938279949999,None,1446.0938279949999,None,1446.0938279949999,None,h,1,0.6051801029998387,1447.644355164,None,1447.644355164,None,1447.644355164,None,1448.3141904,None,1448.3141904,None,1448.3141904,None,1448.3141904,None,,,,,,,,,,,,,,,,,,,,,,,,,,,,,,,,,,,,,,,,,,,,001,23,2020_Jan_30_0900,spring_faces,3.1.5,60.3463245392295,
condition files/Stage0b_2.xlsx,0b,beta,none,g,"['h', 'g']","['Chess', 'Go']","[-0.15, 0.5]","[0.15, 0.5]",1,0,0,9,9,9,0,0,0,1,,,,,,,,,,,,,,,,,,,,,,,,,,,,,,,,,,,,,,,,,,,,,,,,,,,,,,,,,,,,,,,1450.294152951,None,1450.294152951,None,1450.294152951,None,g,1,0.8066206729999976,1451.826918283,None,1451.826918283,None,1451.826918283,None,1452.69358033,None,1452.69358033,None,1452.69358033,None,1452.69358033,None,,,,,,,,,,,,,,,,,,,,,,,,,,,,,,,,,,,,,,,,,,,,001,23,2020_Jan_30_0900,spring_faces,3.1.5,60.3463245392295,
condition files/Stage0b_2.xlsx,0b,none,alpha,h,"['h', 'g']","['Chess', 'Go']","[-0.15, 0.5]","[0.15, 0.5]",0,1,0,9,9,9,0,1,1,0,,,,,,,,,,,,,,,,,,,,,,,,,,,,,,,,,,,,,,,,,,,,,,,,,,,,,,,,,,,,,,,1454.660515128,None,1454.660515128,None,1454.660515128,None,h,1,0.6124600840000767,1456.1970687389999,None,1456.1970687389999,None,1456.1970687389999,None,1456.866080194,None,1456.866080194,None,1456.866080194,None,1456.866080194,None,,,,,,,,,,,,,,,,,,,,,,,,,,,,,,,,,,,,,,,,,,,,001,23,2020_Jan_30_0900,spring_faces,3.1.5,60.3463245392295,
condition files/Stage0b_1.xlsx,0b,none,beta,g,"['h', 'g']","['Chess', 'Go']","[-0.15, 0.5]","[0.15, 0.5]",0,1,0,10,10,10,0,0,0,1,,,,,,,,,,,,,,,,,,,,,,,,,,,,,,,,,,,,,,,,,,,,,,,,,,,,,,,,,,,,,,,1458.843859099,None,1458.843859099,None,1458.843859099,None,g,1,0.608404832999895,1460.377183098,None,1460.377183098,None,1460.377183098,None,1461.045599611,None,1461.045599611,None,1461.045599611,None,1461.045599611,None,,,,,,,,,,,,,,,,,,,,,,,,,,,,,,,,,,,,,,,,,,,,001,23,2020_Jan_30_0900,spring_faces,3.1.5,60.3463245392295,
condition files/Stage0b_1.xlsx,0b,alpha,none,h,"['h', 'g']","['Chess', 'Go']","[-0.15, 0.5]","[0.15, 0.5]",1,0,0,10,10,10,0,1,1,0,,,,,,,,,,,,,,,,,,,,,,,,,,,,,,,,,,,,,,,,,,,,,,,,,,,,,,,,,,,,,,,1463.0103742449999,None,1463.0103742449999,None,1463.0103742449999,None,h,1,0.6009170590000394,1464.560569179,None,1464.560569179,None,1464.560569179,None,1465.230177688,None,1465.230177688,None,1465.230177688,None,1465.230177688,None,,,,,,,,,,,,,,,,,,,,,,,,,,,,,,,,,,,,,,,,,,,,001,23,2020_Jan_30_0900,spring_faces,3.1.5,60.3463245392295,
condition files/Stage0b_2.xlsx,0b,none,alpha,h,"['h', 'g']","['Chess', 'Go']","[-0.15, 0.5]","[0.15, 0.5]",0,1,0,11,11,11,0,0,0,0,,,,,,,,,,,,,,,,,,,,,,,,,,,,,,,,,,,,,,,,,,,,,,,,,,,,,,,,,,,,,,,1467.2104163889999,None,1467.2104163889999,None,1467.2104163889999,None,h,1,0.7819147890002114,1468.7476241269999,None,1468.7476241269999,None,1468.7476241269999,None,1469.594194849,None,1469.594194849,None,1469.594194849,None,1469.594194849,None,,,,,,,,,,,,,,,,,,,,,,,,,,,,,,,,,,,,,,,,,,,,001,23,2020_Jan_30_0900,spring_faces,3.1.5,60.3463245392295,
condition files/Stage0b_2.xlsx,0b,beta,none,g,"['h', 'g']","['Chess', 'Go']","[-0.15, 0.5]","[0.15, 0.5]",1,0,0,11,11,11,0,1,1,1,,,,,,,,,,,,,,,,,,,,,,,,,,,,,,,,,,,,,,,,,,,,,,,,,,,,,,,,,,,,,,,1471.56046501,None,1471.56046501,None,1471.56046501,None,g,1,0.6570794849999402,1473.096517078,None,1473.096517078,None,1473.096517078,None,1473.811224087,None,1473.811224087,None,1473.811224087,None,1473.811224087,None,,,,,,,,,,,,,,,,,,,,,,,,,,,,,,,,,,,,,,,,,,,,001,23,2020_Jan_30_0900,spring_faces,3.1.5,60.3463245392295,
condition files/Stage0c_1.xlsx,0c,phi,beta,g,"['h', 'g']","['Chess', 'Go']","[-0.15, 0.5]","[0.15, 0.5]",1,1,0,12,12,12,0,0,0,3,,,,,,,,,,,,,,,,,,,,,,,,,,,,,,,,,,,,,,,,,,,,,,,,,,,,,,,,,,,,,,,1475.810288431,None,1475.810288431,None,1475.810288431,None,g,1,2.1816282429999774,1477.347888817,None,1477.347888817,None,1477.347888817,None,1479.593527557,None,1479.593527557,None,1479.593527557,None,1479.593527557,None,,,,,,,,,,,,,,,,,,,,,,,,,,,,,,,,,,,,,,,,,,,,001,23,2020_Jan_30_0900,spring_faces,3.1.5,60.3463245392295,
condition files/Stage0c_1.xlsx,0c,theta,alpha,h,"['h', 'g']","['Chess', 'Go']","[-0.15, 0.5]","[0.15, 0.5]",1,1,0,12,12,12,0,1,1,0,,,,,,,,,,,,,,,,,,,,,,,,,,,,,,,,,,,,,,,,,,,,,,,,,,,,,,,,,,,,,,,1481.560577007,None,1481.560577007,None,1481.560577007,None,h,1,0.7386582010001348,1483.110904319,None,1483.110904319,None,1483.110904319,None,1483.9108450669999,None,1483.9108450669999,None,1483.9108450669999,None,1483.9108450669999,None,,,,,,,,,,,,,,,,,,,,,,,,,,,,,,,,,,,,,,,,,,,,001,23,2020_Jan_30_0900,spring_faces,3.1.5,60.3463245392295,
condition files/Stage0c_1.xlsx,0c,beta,theta,g,"['h', 'g']","['Chess', 'Go']","[-0.15, 0.5]","[0.15, 0.5]",1,1,0,12,12,12,0,2,2,2,,,,,,,,,,,,,,,,,,,,,,,,,,,,,,,,,,,,,,,,,,,,,,,,,,,,,,,,,,,,,,,1485.877273246,None,1485.877273246,None,1485.877273246,None,g,1,1.7032255780000014,1487.410290215,None,1487.410290215,None,1487.410290215,None,1489.1768354189999,None,1489.1768354189999,None,1489.1768354189999,None,1489.1768354189999,None,,,,,,,,,,,,,,,,,,,,,,,,,,,,,,,,,,,,,,,,,,,,001,23,2020_Jan_30_0900,spring_faces,3.1.5,60.3463245392295,
condition files/Stage0c_1.xlsx,0c,alpha,phi,h,"['h', 'g']","['Chess', 'Go']","[-0.15, 0.5]","[0.15, 0.5]",1,1,0,12,12,12,0,3,3,1,,,,,,,,,,,,,,,,,,,,,,,,,,,,,,,,,,,,,,,,,,,,,,,,,,,,,,,,,,,,,,,1491.1432648789998,None,1491.1432648789998,None,1491.1432648789998,None,h,1,1.9721746519999215,1492.6773522879998,None,1492.6773522879998,None,1492.6773522879998,None,1494.711056677,None,1494.711056677,None,1494.711056677,None,1494.711056677,None,,,,,,,,,,,,,,,,,,,,,,,,,,,,,,,,,,,,,,,,,,,,001,23,2020_Jan_30_0900,spring_faces,3.1.5,60.3463245392295,
condition files/Stage0c_2.xlsx,0c,alpha,theta,h,"['h', 'g']","['Chess', 'Go']","[-0.15, 0.5]","[0.15, 0.5]",1,1,0,13,13,13,0,0,0,0,,,,,,,,,,,,,,,,,,,,,,,,,,,,,,,,,,,,,,,,,,,,,,,,,,,,,,,,,,,,,,,1496.71160507,None,1496.71160507,None,1496.71160507,None,h,1,1.2861500329997853,1498.2273847239999,None,1498.2273847239999,None,1498.2273847239999,None,1499.562006934,None,1499.562006934,None,1499.562006934,None,1499.562006934,None,,,,,,,,,,,,,,,,,,,,,,,,,,,,,,,,,,,,,,,,,,,,001,23,2020_Jan_30_0900,spring_faces,3.1.5,60.3463245392295,
condition files/Stage0c_2.xlsx,0c,beta,phi,g,"['h', 'g']","['Chess', 'Go']","[-0.15, 0.5]","[0.15, 0.5]",1,1,0,13,13,13,0,1,1,3,,,,,,,,,,,,,,,,,,,,,,,,,,,,,,,,,,,,,,,,,,,,,,,,,,,,,,,,,,,,,,,1501.543798926,None,1501.543798926,None,1501.543798926,None,g,1,0.8683246929999768,1503.077160733,None,1503.077160733,None,1503.077160733,None,1504.010577009,None,1504.010577009,None,1504.010577009,None,1504.010577009,None,,,,,,,,,,,,,,,,,,,,,,,,,,,,,,,,,,,,,,,,,,,,001,23,2020_Jan_30_0900,spring_faces,3.1.5,60.3463245392295,
condition files/Stage0c_2.xlsx,0c,phi,alpha,h,"['h', 'g']","['Chess', 'Go']","[-0.15, 0.5]","[0.15, 0.5]",1,1,0,13,13,13,0,2,2,1,,,,,,,,,,,,,,,,,,,,,,,,,,,,,,,,,,,,,,,,,,,,,,,,,,,,,,,,,,,,,,,1505.976625752,None,1505.976625752,None,1505.976625752,None,h,1,1.0587429950001024,1507.510833159,None,1507.510833159,None,1507.510833159,None,1508.626670639,None,1508.626670639,None,1508.626670639,None,1508.626670639,None,,,,,,,,,,,,,,,,,,,,,,,,,,,,,,,,,,,,,,,,,,,,001,23,2020_Jan_30_0900,spring_faces,3.1.5,60.3463245392295,
condition files/Stage0c_2.xlsx,0c,theta,beta,g,"['h', 'g']","['Chess', 'Go']","[-0.15, 0.5]","[0.15, 0.5]",1,1,0,13,13,13,0,3,3,2,,,,,,,,,,,,,,,,,,,,,,,,,,,,,,,,,,,,,,,,,,,,,,,,,,,,,,,,,,,,,,,1510.594038542,None,1510.594038542,None,1510.594038542,None,g,1,1.4820677820000583,1512.1274603319998,None,1512.1274603319998,None,1512.1274603319998,None,1513.660905255,None,1513.660905255,None,1513.660905255,None,1513.660905255,None,,,,,,,,,,,,,,,,,,,,,,,,,,,,,,,,,,,,,,,,,,,,001,23,2020_Jan_30_0900,spring_faces,3.1.5,60.3463245392295,
condition files/Stage0c_1.xlsx,0c,phi,beta,g,"['h', 'g']","['Chess', 'Go']","[-0.15, 0.5]","[0.15, 0.5]",1,1,0,14,14,14,0,0,0,3,,,,,,,,,,,,,,,,,,,,,,,,,,,,,,,,,,,,,,,,,,,,,,,,,,,,,,,,,,,,,,,1515.6442363029998,None,1515.6442363029998,None,1515.6442363029998,None,g,1,1.0883800330000213,1517.1771639429999,None,1517.1771639429999,None,1517.1771639429999,None,1518.310327359,None,1518.310327359,None,1518.310327359,None,1518.310327359,None,,,,,,,,,,,,,,,,,,,,,,,,,,,,,,,,,,,,,,,,,,,,001,23,2020_Jan_30_0900,spring_faces,3.1.5,60.3463245392295,
condition files/Stage0c_1.xlsx,0c,beta,theta,g,"['h', 'g']","['Chess', 'Go']","[-0.15, 0.5]","[0.15, 0.5]",1,1,0,14,14,14,0,1,1,2,,,,,,,,,,,,,,,,,,,,,,,,,,,,,,,,,,,,,,,,,,,,,,,,,,,,,,,,,,,,,,,1520.294030097,None,1520.294030097,None,1520.294030097,None,g,1,1.350449357999878,1521.8270343059999,None,1521.8270343059999,None,1521.8270343059999,None,1523.214190581,None,1523.214190581,None,1523.214190581,None,1523.214190581,None,,,,,,,,,,,,,,,,,,,,,,,,,,,,,,,,,,,,,,,,,,,,001,23,2020_Jan_30_0900,spring_faces,3.1.5,60.3463245392295,
condition files/Stage0c_1.xlsx,0c,alpha,phi,h,"['h', 'g']","['Chess', 'Go']","[-0.15, 0.5]","[0.15, 0.5]",1,1,0,14,14,14,0,2,2,1,,,,,,,,,,,,,,,,,,,,,,,,,,,,,,,,,,,,,,,,,,,,,,,,,,,,,,,,,,,,,,,1525.1933176759999,None,1525.1933176759999,None,1525.1933176759999,None,h,1,0.9142212140000083,1526.7272862769998,None,1526.7272862769998,None,1526.7272862769998,None,1527.693650389,None,1527.693650389,None,1527.693650389,None,1527.693650389,None,,,,,,,,,,,,,,,,,,,,,,,,,,,,,,,,,,,,,,,,,,,,001,23,2020_Jan_30_0900,spring_faces,3.1.5,60.3463245392295,
condition files/Stage0c_1.xlsx,0c,theta,alpha,h,"['h', 'g']","['Chess', 'Go']","[-0.15, 0.5]","[0.15, 0.5]",1,1,0,14,14,14,0,3,3,0,,,,,,,,,,,,,,,,,,,,,,,,,,,,,,,,,,,,,,,,,,,,,,,,,,,,,,,,,,,,,,,1529.65993458,None,1529.65993458,None,1529.65993458,None,h,1,0.9755260409999664,1531.194053497,None,1531.194053497,None,1531.194053497,None,1532.2275260249999,None,1532.2275260249999,None,1532.2275260249999,None,1532.2275260249999,None,,,,,,,,,,,,,,,,,,,,,,,,,,,,,,,,,,,,,,,,,,,,001,23,2020_Jan_30_0900,spring_faces,3.1.5,60.3463245392295,
condition files/Stage0c_2.xlsx,0c,beta,phi,g,"['h', 'g']","['Chess', 'Go']","[-0.15, 0.5]","[0.15, 0.5]",1,1,0,15,15,15,0,0,0,3,,,,,,,,,,,,,,,,,,,,,,,,,,,,,,,,,,,,,,,,,,,,,,,,,,,,,,,,,,,,,,,1534.210579638,None,1534.210579638,None,1534.210579638,None,g,1,1.0341305150000153,1535.7434265269999,None,1535.7434265269999,None,1535.7434265269999,None,1536.827123108,None,1536.827123108,None,1536.827123108,None,1536.827123108,None,,,,,,,,,,,,,,,,,,,,,,,,,,,,,,,,,,,,,,,,,,,,001,23,2020_Jan_30_0900,spring_faces,3.1.5,60.3463245392295,
condition files/Stage0c_2.xlsx,0c,alpha,theta,h,"['h', 'g']","['Chess', 'Go']","[-0.15, 0.5]","[0.15, 0.5]",1,1,0,15,15,15,0,1,1,0,,,,,,,,,,,,,,,,,,,,,,,,,,,,,,,,,,,,,,,,,,,,,,,,,,,,,,,,,,,,,,,1538.793844958,None,1538.793844958,None,1538.793844958,None,h,1,0.674245449999944,1540.327174479,None,1540.327174479,None,1540.327174479,None,1541.0604985109999,None,1541.0604985109999,None,1541.0604985109999,None,1541.0604985109999,None,,,,,,,,,,,,,,,,,,,,,,,,,,,,,,,,,,,,,,,,,,,,001,23,2020_Jan_30_0900,spring_faces,3.1.5,60.3463245392295,
condition files/Stage0c_2.xlsx,0c,theta,beta,g,"['h', 'g']","['Chess', 'Go']","[-0.15, 0.5]","[0.15, 0.5]",1,1,0,15,15,15,0,2,2,2,,,,,,,,,,,,,,,,,,,,,,,,,,,,,,,,,,,,,,,,,,,,,,,,,,,,,,,,,,,,,,,1543.027248357,None,1543.027248357,None,1543.027248357,None,g,1,1.0806929820000732,1544.5608204999999,None,1544.5608204999999,None,1544.5608204999999,None,1545.693608067,None,1545.693608067,None,1545.693608067,None,1545.693608067,None,,,,,,,,,,,,,,,,,,,,,,,,,,,,,,,,,,,,,,,,,,,,001,23,2020_Jan_30_0900,spring_faces,3.1.5,60.3463245392295,
condition files/Stage0c_2.xlsx,0c,phi,alpha,h,"['h', 'g']","['Chess', 'Go']","[-0.15, 0.5]","[0.15, 0.5]",1,1,0,15,15,15,0,3,3,1,,,,,,,,,,,,,,,,,,,,,,,,,,,,,,,,,,,,,,,,,,,,,,,,,,,,,,,,,,,,,,,1547.660453195,None,1547.660453195,None,1547.660453195,None,h,1,1.0233494970000265,1549.194234929,None,1549.194234929,None,1549.194234929,None,1550.27735577,None,1550.27735577,None,1550.27735577,None,1550.27735577,None,,,,,,,,,,,,,,,,,,,,,,,,,,,,,,,,,,,,,,,,,,,,001,23,2020_Jan_30_0900,spring_faces,3.1.5,60.3463245392295,
condition files/Stage0c_1.xlsx,0c,phi,beta,g,"['h', 'g']","['Chess', 'Go']","[-0.15, 0.5]","[0.15, 0.5]",1,1,0,16,16,16,0,0,0,3,,,,,,,,,,,,,,,,,,,,,,,,,,,,,,,,,,,,,,,,,,,,,,,,,,,,,,,,,,,,,,,1552.260089319,None,1552.260089319,None,1552.260089319,None,g,1,0.6794300650001333,1553.794071672,None,1553.794071672,None,1553.794071672,None,1554.527412924,None,1554.527412924,None,1554.527412924,None,1554.527412924,None,,,,,,,,,,,,,,,,,,,,,,,,,,,,,,,,,,,,,,,,,,,,001,23,2020_Jan_30_0900,spring_faces,3.1.5,60.3463245392295,
condition files/Stage0c_1.xlsx,0c,beta,theta,g,"['h', 'g']","['Chess', 'Go']","[-0.15, 0.5]","[0.15, 0.5]",1,1,0,16,16,16,0,1,1,2,,,,,,,,,,,,,,,,,,,,,,,,,,,,,,,,,,,,,,,,,,,,,,,,,,,,,,,,,,,,,,,1556.493794241,None,1556.493794241,None,1556.493794241,None,g,1,1.1348263150000548,1558.026659035,None,1558.026659035,None,1558.026659035,None,1559.211671438,None,1559.211671438,None,1559.211671438,None,1559.211671438,None,,,,,,,,,,,,,,,,,,,,,,,,,,,,,,,,,,,,,,,,,,,,001,23,2020_Jan_30_0900,spring_faces,3.1.5,60.3463245392295,
condition files/Stage0c_1.xlsx,0c,alpha,phi,h,"['h', 'g']","['Chess', 'Go']","[-0.15, 0.5]","[0.15, 0.5]",1,1,0,16,16,16,0,2,2,1,,,,,,,,,,,,,,,,,,,,,,,,,,,,,,,,,,,,,,,,,,,,,,,,,,,,,,,,,,,,,,,1561.194109671,None,1561.194109671,None,1561.194109671,None,h,1,0.9460721919999742,1562.727449383,None,1562.727449383,None,1562.727449383,None,1563.727336293,None,1563.727336293,None,1563.727336293,None,1563.727336293,None,,,,,,,,,,,,,,,,,,,,,,,,,,,,,,,,,,,,,,,,,,,,001,23,2020_Jan_30_0900,spring_faces,3.1.5,60.3463245392295,
condition files/Stage0c_1.xlsx,0c,theta,alpha,h,"['h', 'g']","['Chess', 'Go']","[-0.15, 0.5]","[0.15, 0.5]",1,1,0,16,16,16,0,3,3,0,,,,,,,,,,,,,,,,,,,,,,,,,,,,,,,,,,,,,,,,,,,,,,,,,,,,,,,,,,,,,,,1565.694053104,None,1565.694053104,None,1565.694053104,None,h,1,0.8621256549999998,1567.227360588,None,1567.227360588,None,1567.227360588,None,1568.1285970659999,None,1568.1285970659999,None,1568.1285970659999,None,1568.1285970659999,None,,,,,,,,,,,,,,,,,,,,,,,,,,,,,,,,,,,,,,,,,,,,001,23,2020_Jan_30_0900,spring_faces,3.1.5,60.3463245392295,
condition files/Stage0c_2.xlsx,0c,phi,alpha,h,"['h', 'g']","['Chess', 'Go']","[-0.15, 0.5]","[0.15, 0.5]",1,1,0,17,17,17,0,0,0,1,,,,,,,,,,,,,,,,,,,,,,,,,,,,,,,,,,,,,,,,,,,,,,,,,,,,,,,,,,,,,,,1570.1272481449998,None,1570.1272481449998,None,1570.1272481449998,None,h,1,1.388871010999992,1571.660667321,None,1571.660667321,None,1571.660667321,None,1573.09649171,None,1573.09649171,None,1573.09649171,None,1573.09649171,None,,,,,,,,,,,,,,,,,,,,,,,,,,,,,,,,,,,,,,,,,,,,001,23,2020_Jan_30_0900,spring_faces,3.1.5,60.3463245392295,
condition files/Stage0c_2.xlsx,0c,alpha,theta,h,"['h', 'g']","['Chess', 'Go']","[-0.15, 0.5]","[0.15, 0.5]",1,1,0,17,17,17,0,1,1,0,,,,,,,,,,,,,,,,,,,,,,,,,,,,,,,,,,,,,,,,,,,,,,,,,,,,,,,,,,,,,,,1575.077258443,None,1575.077258443,None,1575.077258443,None,h,1,0.7590257309998378,1576.610557617,None,1576.610557617,None,1576.610557617,None,1577.4115938129999,None,1577.4115938129999,None,1577.4115938129999,None,1577.4115938129999,None,,,,,,,,,,,,,,,,,,,,,,,,,,,,,,,,,,,,,,,,,,,,001,23,2020_Jan_30_0900,spring_faces,3.1.5,60.3463245392295,
condition files/Stage0c_2.xlsx,0c,theta,beta,g,"['h', 'g']","['Chess', 'Go']","[-0.15, 0.5]","[0.15, 0.5]",1,1,0,17,17,17,0,2,2,2,,,,,,,,,,,,,,,,,,,,,,,,,,,,,,,,,,,,,,,,,,,,,,,,,,,,,,,,,,,,,,,1579.3939825979999,None,1579.3939825979999,None,1579.3939825979999,None,g,1,0.9219463090000772,1580.927589038,None,1580.927589038,None,1580.927589038,None,1581.9101739,None,1581.9101739,None,1581.9101739,None,1581.9101739,None,,,,,,,,,,,,,,,,,,,,,,,,,,,,,,,,,,,,,,,,,,,,001,23,2020_Jan_30_0900,spring_faces,3.1.5,60.3463245392295,
condition files/Stage0c_2.xlsx,0c,beta,phi,g,"['h', 'g']","['Chess', 'Go']","[-0.15, 0.5]","[0.15, 0.5]",1,1,0,17,17,17,0,3,3,3,,,,,,,,,,,,,,,,,,,,,,,,,,,,,,,,,,,,,,,,,,,,,,,,,,,,,,,,,,,,,,,1583.877332244,None,1583.877332244,None,1583.877332244,None,g,1,0.8394747529998767,1585.410060539,None,1585.410060539,None,1585.410060539,None,1586.2942065309999,None,1586.2942065309999,None,1586.2942065309999,None,1586.2942065309999,None,,,,,,,,,,,,,,,,,,,,,,,,,,,,,,,,,,,,,,,,,,,,001,23,2020_Jan_30_0900,spring_faces,3.1.5,60.3463245392295,
,,,,,,,,,,,,,,,,,,,,,,,,,,,,,,,,,,,,,,,,,,,,,,,,,,,,,,,,,,,,,,,,,,,,,,,,,,,,,,,,,,,,,,,,,,,,,,,,,,,,,,,,1588.2940944,None,space,2.3955322509998496,1593.293998655,None,,,,,,,,,,,,,,,,,,,,,,,,,,,,,,,,,,,,,,001,23,2020_Jan_30_0900,spring_faces,3.1.5,60.3463245392295,
condition files/Stage1_1.xlsx,,B1,T2,c,"['c', 'm']","['Clue', 'Monopoly']","[-0.15, 0.5]","[0.15, 0.5]",1,1,,,,,,,,,0,0,0,0,0,0,0,1,,,,,,,,,,,,,,,,,,,,,,,,,,,,,,,,,,,,,,,,,,,,,,,,,,,,,,,1595.7777204929998,None,1595.7777204929998,None,1595.7777204929998,None,c,1,2.2498737260000325,1597.3275984089998,None,1597.3275984089998,None,1597.3275984089998,None,1599.6604861629999,None,1599.6604861629999,None,1599.6604861629999,None,1599.6604861629999,None,,,,,,,1593.293998655,None,,,,,,,,,,,,,,,,,,,,,,,,,,,,,,,,,,,,001,23,2020_Jan_30_0900,spring_faces,3.1.5,60.3463245392295,
condition files/Stage1_1.xlsx,,B3,T3,c,"['c', 'm']","['Clue', 'Monopoly']","[-0.15, 0.5]","[0.15, 0.5]",1,1,,,,,,,,,0,0,0,0,0,1,1,4,,,,,,,,,,,,,,,,,,,,,,,,,,,,,,,,,,,,,,,,,,,,,,,,,,,,,,,1601.6098644889998,None,1601.6098644889998,None,1601.6098644889998,None,m,0,1.024239652999995,1603.177344142,None,1603.177344142,None,1603.177344142,None,1604.26043854,None,1604.26043854,None,1604.26043854,None,1604.26043854,None,,,,,,,,,,,,,,,,,,,,,,,,,,,,,,,,,,,,,,,,,,,,001,23,2020_Jan_30_0900,spring_faces,3.1.5,60.3463245392295,
condition files/Stage1_1.xlsx,,T4,B3,m,"['c', 'm']","['Clue', 'Monopoly']","[-0.15, 0.5]","[0.15, 0.5]",1,1,,,,,,,,,0,0,0,0,0,2,2,6,,,,,,,,,,,,,,,,,,,,,,,,,,,,,,,,,,,,,,,,,,,,,,,,,,,,,,,1606.2267659289998,None,1606.2267659289998,None,1606.2267659289998,None,c,0,0.8871831159999601,1607.794365714,None,1607.794365714,None,1607.794365714,None,1608.760133029,None,1608.760133029,None,1608.760133029,None,1608.760133029,None,,,,,,,,,,,,,,,,,,,,,,,,,,,,,,,,,,,,,,,,,,,,001,23,2020_Jan_30_0900,spring_faces,3.1.5,60.3463245392295,
condition files/Stage1_1.xlsx,,T3,B4,c,"['c', 'm']","['Clue', 'Monopoly']","[-0.15, 0.5]","[0.15, 0.5]",1,1,,,,,,,,,0,0,0,0,0,3,3,5,,,,,,,,,,,,,,,,,,,,,,,,,,,,,,,,,,,,,,,,,,,,,,,,,,,,,,,1610.71054525,None,1610.71054525,None,1610.71054525,None,c,1,1.4921884389998468,1612.277401993,None,1612.277401993,None,1612.277401993,None,1613.828535192,None,1613.828535192,None,1613.828535192,None,1613.828535192,None,,,,,,,,,,,,,,,,,,,,,,,,,,,,,,,,,,,,,,,,,,,,001,23,2020_Jan_30_0900,spring_faces,3.1.5,60.3463245392295,
condition files/Stage1_1.xlsx,,B4,T4,m,"['c', 'm']","['Clue', 'Monopoly']","[-0.15, 0.5]","[0.15, 0.5]",1,1,,,,,,,,,0,0,0,0,0,4,4,7,,,,,,,,,,,,,,,,,,,,,,,,,,,,,,,,,,,,,,,,,,,,,,,,,,,,,,,1615.794097194,None,1615.794097194,None,1615.794097194,None,m,1,0.8243802199999664,1617.3292018959999,None,1617.3292018959999,None,1617.3292018959999,None,1618.227597284,None,1618.227597284,None,1618.227597284,None,1618.227597284,None,,,,,,,,,,,,,,,,,,,,,,,,,,,,,,,,,,,,,,,,,,,,001,23,2020_Jan_30_0900,spring_faces,3.1.5,60.3463245392295,
condition files/Stage1_1.xlsx,,B2,T1,m,"['c', 'm']","['Clue', 'Monopoly']","[-0.15, 0.5]","[0.15, 0.5]",1,1,,,,,,,,,0,0,0,0,0,5,5,2,,,,,,,,,,,,,,,,,,,,,,,,,,,,,,,,,,,,,,,,,,,,,,,,,,,,,,,1620.1773306379998,None,1620.1773306379998,None,1620.1773306379998,None,c,0,1.0004306090002046,1621.761039965,None,1621.761039965,None,1621.761039965,None,1622.8272150599998,None,1622.8272150599998,None,1622.8272150599998,None,1622.8272150599998,None,,,,,,,,,,,,,,,,,,,,,,,,,,,,,,,,,,,,,,,,,,,,001,23,2020_Jan_30_0900,spring_faces,3.1.5,60.3463245392295,
condition files/Stage1_1.xlsx,,T1,B1,c,"['c', 'm']","['Clue', 'Monopoly']","[-0.15, 0.5]","[0.15, 0.5]",1,1,,,,,,,,,0,0,0,0,0,6,6,0,,,,,,,,,,,,,,,,,,,,,,,,,,,,,,,,,,,,,,,,,,,,,,,,,,,,,,,1624.793637007,None,1624.793637007,None,1624.793637007,None,m,0,2.5624333309999656,1626.327059264,None,1626.327059264,None,1626.327059264,None,1628.945595773,None,1628.945595773,None,1628.945595773,None,1628.945595773,None,,,,,,,,,,,,,,,,,,,,,,,,,,,,,,,,,,,,,,,,,,,,001,23,2020_Jan_30_0900,spring_faces,3.1.5,60.3463245392295,
condition files/Stage1_1.xlsx,,T2,B2,m,"['c', 'm']","['Clue', 'Monopoly']","[-0.15, 0.5]","[0.15, 0.5]",1,1,,,,,,,,,0,0,0,0,0,7,7,3,,,,,,,,,,,,,,,,,,,,,,,,,,,,,,,,,,,,,,,,,,,,,,,,,,,,,,,1630.910227505,None,1630.910227505,None,1630.910227505,None,c,0,2.397454257000163,1632.444078781,None,1632.444078781,None,1632.444078781,None,1634.894702288,None,1634.894702288,None,1634.894702288,None,1634.894702288,None,,,,,,,,,,,,,,,,,,,,,,,,,,,,,,,,,,,,,,,,,,,,001,23,2020_Jan_30_0900,spring_faces,3.1.5,60.3463245392295,
condition files/Stage1_2.xlsx,,T1,B2,m,"['c', 'm']","['Clue', 'Monopoly']","[-0.15, 0.5]","[0.15, 0.5]",1,1,,,,,,,,,0,1,1,1,0,0,0,2,,,,,,,,,,,,,,,,,,,,,,,,,,,,,,,,,,,,,,,,,,,,,,,,,,,,,,,1636.910845894,None,1636.910845894,None,1636.910845894,None,m,1,1.8545391810000638,1638.4270071239998,None,1638.4270071239998,None,1638.4270071239998,None,1640.344362158,None,1640.344362158,None,1640.344362158,None,1640.344362158,None,,,,,,,,,,,,,,,,,,,,,,,,,,,,,,,,,,,,,,,,,,,,001,23,2020_Jan_30_0900,spring_faces,3.1.5,60.3463245392295,
condition files/Stage1_2.xlsx,,B4,T3,c,"['c', 'm']","['Clue', 'Monopoly']","[-0.15, 0.5]","[0.15, 0.5]",1,1,,,,,,,,,0,1,1,1,0,1,1,5,,,,,,,,,,,,,,,,,,,,,,,,,,,,,,,,,,,,,,,,,,,,,,,,,,,,,,,1642.3105141849999,None,1642.3105141849999,None,1642.3105141849999,None,c,1,0.948825184000043,1643.860694773,None,1643.860694773,None,1643.860694773,None,1644.87749437,None,1644.87749437,None,1644.87749437,None,1644.87749437,None,,,,,,,,,,,,,,,,,,,,,,,,,,,,,,,,,,,,,,,,,,,,001,23,2020_Jan_30_0900,spring_faces,3.1.5,60.3463245392295,
condition files/Stage1_2.xlsx,,B3,T4,m,"['c', 'm']","['Clue', 'Monopoly']","[-0.15, 0.5]","[0.15, 0.5]",1,1,,,,,,,,,0,1,1,1,0,2,2,6,,,,,,,,,,,,,,,,,,,,,,,,,,,,,,,,,,,,,,,,,,,,,,,,,,,,,,,1646.8274621639998,None,1646.8274621639998,None,1646.8274621639998,None,c,0,2.2879507399998147,1648.361626574,None,1648.361626574,None,1648.361626574,None,1650.727286334,None,1650.727286334,None,1650.727286334,None,1650.727286334,None,,,,,,,,,,,,,,,,,,,,,,,,,,,,,,,,,,,,,,,,,,,,001,23,2020_Jan_30_0900,spring_faces,3.1.5,60.3463245392295,
condition files/Stage1_2.xlsx,,T2,B1,c,"['c', 'm']","['Clue', 'Monopoly']","[-0.15, 0.5]","[0.15, 0.5]",1,1,,,,,,,,,0,1,1,1,0,3,3,1,,,,,,,,,,,,,,,,,,,,,,,,,,,,,,,,,,,,,,,,,,,,,,,,,,,,,,,1652.677213356,None,1652.677213356,None,1652.677213356,None,c,1,1.2061622880000868,1654.227427241,None,1654.227427241,None,1654.227427241,None,1655.494235915,None,1655.494235915,None,1655.494235915,None,1655.494235915,None,,,,,,,,,,,,,,,,,,,,,,,,,,,,,,,,,,,,,,,,,,,,001,23,2020_Jan_30_0900,spring_faces,3.1.5,60.3463245392295,
condition files/Stage1_2.xlsx,,B2,T2,m,"['c', 'm']","['Clue', 'Monopoly']","[-0.15, 0.5]","[0.15, 0.5]",1,1,,,,,,,,,0,1,1,1,0,4,4,3,,,,,,,,,,,,,,,,,,,,,,,,,,,,,,,,,,,,,,,,,,,,,,,,,,,,,,,1657.460196909,None,1657.460196909,None,1657.460196909,None,c,0,1.3507464220001566,1659.010722969,None,1659.010722969,None,1659.010722969,None,1660.443640213,None,1660.443640213,None,1660.443640213,None,1660.443640213,None,,,,,,,,,,,,,,,,,,,,,,,,,,,,,,,,,,,,,,,,,,,,001,23,2020_Jan_30_0900,spring_faces,3.1.5,60.3463245392295,
condition files/Stage1_2.xlsx,,B1,T1,c,"['c', 'm']","['Clue', 'Monopoly']","[-0.15, 0.5]","[0.15, 0.5]",1,1,,,,,,,,,0,1,1,1,0,5,5,0,,,,,,,,,,,,,,,,,,,,,,,,,,,,,,,,,,,,,,,,,,,,,,,,,,,,,,,1662.3940304609998,None,1662.3940304609998,None,1662.3940304609998,None,c,1,0.7852804220001417,1663.9282572109998,None,1663.9282572109998,None,1663.9282572109998,None,1664.777645364,None,1664.777645364,None,1664.777645364,None,1664.777645364,None,,,,,,,,,,,,,,,,,,,,,,,,,,,,,,,,,,,,,,,,,,,,001,23,2020_Jan_30_0900,spring_faces,3.1.5,60.3463245392295,
condition files/Stage1_2.xlsx,,T3,B3,c,"['c', 'm']","['Clue', 'Monopoly']","[-0.15, 0.5]","[0.15, 0.5]",1,1,,,,,,,,,0,1,1,1,0,6,6,4,,,,,,,,,,,,,,,,,,,,,,,,,,,,,,,,,,,,,,,,,,,,,,,,,,,,,,,1666.743861002,None,1666.743861002,None,1666.743861002,None,c,1,1.2354980480001814,1668.294012228,None,1668.294012228,None,1668.294012228,None,1669.593470344,None,1669.593470344,None,1669.593470344,None,1669.593470344,None,,,,,,,,,,,,,,,,,,,,,,,,,,,,,,,,,,,,,,,,,,,,001,23,2020_Jan_30_0900,spring_faces,3.1.5,60.3463245392295,
condition files/Stage1_2.xlsx,,T4,B4,m,"['c', 'm']","['Clue', 'Monopoly']","[-0.15, 0.5]","[0.15, 0.5]",1,1,,,,,,,,,0,1,1,1,0,7,7,7,,,,,,,,,,,,,,,,,,,,,,,,,,,,,,,,,,,,,,,,,,,,,,,,,,,,,,,1671.5602225,None,1671.5602225,None,1671.5602225,None,m,1,1.0441679840000688,1673.093434064,None,1673.093434064,None,1673.093434064,None,1674.196488733,None,1674.196488733,None,1674.196488733,None,1674.196488733,None,,,,,,,,,,,,,,,,,,,,,,,,,,,,,,,,,,,,,,,,,,,,001,23,2020_Jan_30_0900,spring_faces,3.1.5,60.3463245392295,
condition files/Stage1_1.xlsx,,T3,B4,c,"['c', 'm']","['Clue', 'Monopoly']","[-0.15, 0.5]","[0.15, 0.5]",1,1,,,,,,,,,0,2,2,2,0,0,0,5,,,,,,,,,,,,,,,,,,,,,,,,,,,,,,,,,,,,,,,,,,,,,,,,,,,,,,,1676.1768281099999,None,1676.1768281099999,None,1676.1768281099999,None,c,1,1.738140661999978,1677.711400597,None,1677.711400597,None,1677.711400597,None,1679.511239862,None,1679.511239862,None,1679.511239862,None,1679.511239862,None,,,,,,,,,,,,,,,,,,,,,,,,,,,,,,,,,,,,,,,,,,,,001,23,2020_Jan_30_0900,spring_faces,3.1.5,60.3463245392295,
condition files/Stage1_1.xlsx,,T2,B2,m,"['c', 'm']","['Clue', 'Monopoly']","[-0.15, 0.5]","[0.15, 0.5]",1,1,,,,,,,,,0,2,2,2,0,1,1,3,,,,,,,,,,,,,,,,,,,,,,,,,,,,,,,,,,,,,,,,,,,,,,,,,,,,,,,1681.477357178,None,1681.477357178,None,1681.477357178,None,c,0,1.0946490220001124,1683.026918773,None,1683.026918773,None,1683.026918773,None,1684.178755941,None,1684.178755941,None,1684.178755941,None,1684.178755941,None,,,,,,,,,,,,,,,,,,,,,,,,,,,,,,,,,,,,,,,,,,,,001,23,2020_Jan_30_0900,spring_faces,3.1.5,60.3463245392295,
condition files/Stage1_1.xlsx,,B2,T1,m,"['c', 'm']","['Clue', 'Monopoly']","[-0.15, 0.5]","[0.15, 0.5]",1,1,,,,,,,,,0,2,2,2,0,2,2,2,,,,,,,,,,,,,,,,,,,,,,,,,,,,,,,,,,,,,,,,,,,,,,,,,,,,,,,1686.143558623,None,1686.143558623,None,1686.143558623,None,m,1,0.5235288389999369,1687.694057489,None,1687.694057489,None,1687.694057489,None,1688.277383915,None,1688.277383915,None,1688.277383915,None,1688.277383915,None,,,,,,,,,,,,,,,,,,,,,,,,,,,,,,,,,,,,,,,,,,,,001,23,2020_Jan_30_0900,spring_faces,3.1.5,60.3463245392295,
condition files/Stage1_1.xlsx,,T4,B3,m,"['c', 'm']","['Clue', 'Monopoly']","[-0.15, 0.5]","[0.15, 0.5]",1,1,,,,,,,,,0,2,2,2,0,3,3,6,,,,,,,,,,,,,,,,,,,,,,,,,,,,,,,,,,,,,,,,,,,,,,,,,,,,,,,1690.243341806,None,1690.243341806,None,1690.243341806,None,c,0,1.4320566380001765,1691.777472126,None,1691.777472126,None,1691.777472126,None,1693.2601867419999,None,1693.2601867419999,None,1693.2601867419999,None,1693.2601867419999,None,,,,,,,,,,,,,,,,,,,,,,,,,,,,,,,,,,,,,,,,,,,,001,23,2020_Jan_30_0900,spring_faces,3.1.5,60.3463245392295,
condition files/Stage1_1.xlsx,,B3,T3,c,"['c', 'm']","['Clue', 'Monopoly']","[-0.15, 0.5]","[0.15, 0.5]",1,1,,,,,,,,,0,2,2,2,0,4,4,4,,,,,,,,,,,,,,,,,,,,,,,,,,,,,,,,,,,,,,,,,,,,,,,,,,,,,,,1695.226623322,None,1695.226623322,None,1695.226623322,None,c,1,1.2959006339999632,1696.761600757,None,1696.761600757,None,1696.761600757,None,1698.1125111279998,None,1698.1125111279998,None,1698.1125111279998,None,1698.1125111279998,None,,,,,,,,,,,,,,,,,,,,,,,,,,,,,,,,,,,,,,,,,,,,001,23,2020_Jan_30_0900,spring_faces,3.1.5,60.3463245392295,
condition files/Stage1_1.xlsx,,T1,B1,c,"['c', 'm']","['Clue', 'Monopoly']","[-0.15, 0.5]","[0.15, 0.5]",1,1,,,,,,,,,0,2,2,2,0,5,5,0,,,,,,,,,,,,,,,,,,,,,,,,,,,,,,,,,,,,,,,,,,,,,,,,,,,,,,,1700.076841917,None,1700.076841917,None,1700.076841917,None,c,1,1.2129030020000755,1701.612637681,None,1701.612637681,None,1701.612637681,None,1702.877417144,None,1702.877417144,None,1702.877417144,None,1702.877417144,None,,,,,,,,,,,,,,,,,,,,,,,,,,,,,,,,,,,,,,,,,,,,001,23,2020_Jan_30_0900,spring_faces,3.1.5,60.3463245392295,
condition files/Stage1_1.xlsx,,B4,T4,m,"['c', 'm']","['Clue', 'Monopoly']","[-0.15, 0.5]","[0.15, 0.5]",1,1,,,,,,,,,0,2,2,2,0,6,6,7,,,,,,,,,,,,,,,,,,,,,,,,,,,,,,,,,,,,,,,,,,,,,,,,,,,,,,,1704.84408814,None,1704.84408814,None,1704.84408814,None,m,1,1.8227312310000343,1706.3788708319998,None,1706.3788708319998,None,1706.3788708319998,None,1708.276953442,None,1708.276953442,None,1708.276953442,None,1708.276953442,None,,,,,,,,,,,,,,,,,,,,,,,,,,,,,,,,,,,,,,,,,,,,001,23,2020_Jan_30_0900,spring_faces,3.1.5,60.3463245392295,
condition files/Stage1_1.xlsx,,B1,T2,c,"['c', 'm']","['Clue', 'Monopoly']","[-0.15, 0.5]","[0.15, 0.5]",1,1,,,,,,,,,0,2,2,2,0,7,7,1,,,,,,,,,,,,,,,,,,,,,,,,,,,,,,,,,,,,,,,,,,,,,,,,,,,,,,,1710.226732802,None,1710.226732802,None,1710.226732802,None,c,1,0.8237400900000011,1711.7618434879998,None,1711.7618434879998,None,1711.7618434879998,None,1712.644007231,None,1712.644007231,None,1712.644007231,None,1712.644007231,None,,,,,,,,,,,,,,,,,,,,,,,,,,,,,,,,,,,,,,,,,,,,001,23,2020_Jan_30_0900,spring_faces,3.1.5,60.3463245392295,
condition files/Stage1_2.xlsx,,B3,T4,m,"['c', 'm']","['Clue', 'Monopoly']","[-0.15, 0.5]","[0.15, 0.5]",1,1,,,,,,,,,0,3,3,3,0,0,0,6,,,,,,,,,,,,,,,,,,,,,,,,,,,,,,,,,,,,,,,,,,,,,,,,,,,,,,,1714.6272852719999,None,1714.6272852719999,None,1714.6272852719999,None,m,1,1.384151956000096,1716.161366118,None,1716.161366118,None,1716.161366118,None,1717.613278006,None,1717.613278006,None,1717.613278006,None,1717.613278006,None,,,,,,,,,,,,,,,,,,,,,,,,,,,,,,,,,,,,,,,,,,,,001,23,2020_Jan_30_0900,spring_faces,3.1.5,60.3463245392295,
condition files/Stage1_2.xlsx,,T3,B3,c,"['c', 'm']","['Clue', 'Monopoly']","[-0.15, 0.5]","[0.15, 0.5]",1,1,,,,,,,,,0,3,3,3,0,1,1,4,,,,,,,,,,,,,,,,,,,,,,,,,,,,,,,,,,,,,,,,,,,,,,,,,,,,,,,1719.5771259589999,None,1719.5771259589999,None,1719.5771259589999,None,c,1,2.2091164819998994,1721.112478933,None,1721.112478933,None,1721.112478933,None,1723.377180135,None,1723.377180135,None,1723.377180135,None,1723.377180135,None,,,,,,,,,,,,,,,,,,,,,,,,,,,,,,,,,,,,,,,,,,,,001,23,2020_Jan_30_0900,spring_faces,3.1.5,60.3463245392295,
condition files/Stage1_2.xlsx,,B4,T3,c,"['c', 'm']","['Clue', 'Monopoly']","[-0.15, 0.5]","[0.15, 0.5]",1,1,,,,,,,,,0,3,3,3,0,2,2,5,,,,,,,,,,,,,,,,,,,,,,,,,,,,,,,,,,,,,,,,,,,,,,,,,,,,,,,1725.343828924,None,1725.343828924,None,1725.343828924,None,c,1,1.6599231589998453,1726.87768136,None,1726.87768136,None,1726.87768136,None,1728.594276762,None,1728.594276762,None,1728.594276762,None,1728.594276762,None,,,,,,,,,,,,,,,,,,,,,,,,,,,,,,,,,,,,,,,,,,,,001,23,2020_Jan_30_0900,spring_faces,3.1.5,60.3463245392295,
condition files/Stage1_2.xlsx,,B1,T1,c,"['c', 'm']","['Clue', 'Monopoly']","[-0.15, 0.5]","[0.15, 0.5]",1,1,,,,,,,,,0,3,3,3,0,3,3,0,,,,,,,,,,,,,,,,,,,,,,,,,,,,,,,,,,,,,,,,,,,,,,,,,,,,,,,1730.560660677,None,1730.560660677,None,1730.560660677,None,c,1,0.6987970470001983,1732.0947704159998,None,1732.0947704159998,None,1732.0947704159998,None,1732.843948947,None,1732.843948947,None,1732.843948947,None,1732.843948947,None,,,,,,,,,,,,,,,,,,,,,,,,,,,,,,,,,,,,,,,,,,,,001,23,2020_Jan_30_0900,spring_faces,3.1.5,60.3463245392295,
condition files/Stage1_2.xlsx,,T1,B2,m,"['c', 'm']","['Clue', 'Monopoly']","[-0.15, 0.5]","[0.15, 0.5]",1,1,,,,,,,,,0,3,3,3,0,4,4,2,,,,,,,,,,,,,,,,,,,,,,,,,,,,,,,,,,,,,,,,,,,,,,,,,,,,,,,1734.8102333709999,None,1734.8102333709999,None,1734.8102333709999,None,m,1,0.9271192409999003,1736.346420779,None,1736.346420779,None,1736.346420779,None,1737.329568507,None,1737.329568507,None,1737.329568507,None,1737.329568507,None,,,,,,,,,,,,,,,,,,,,,,,,,,,,,,,,,,,,,,,,,,,,001,23,2020_Jan_30_0900,spring_faces,3.1.5,60.3463245392295,
condition files/Stage1_2.xlsx,,B2,T2,m,"['c', 'm']","['Clue', 'Monopoly']","[-0.15, 0.5]","[0.15, 0.5]",1,1,,,,,,,,,0,3,3,3,0,5,5,3,,,,,,,,,,,,,,,,,,,,,,,,,,,,,,,,,,,,,,,,,,,,,,,,,,,,,,,1739.293464479,None,1739.293464479,None,1739.293464479,None,c,0,1.3735617820000243,1740.8280588799998,None,1740.8280588799998,None,1740.8280588799998,None,1742.2605834839999,None,1742.2605834839999,None,1742.2605834839999,None,1742.2605834839999,None,,,,,,,,,,,,,,,,,,,,,,,,,,,,,,,,,,,,,,,,,,,,001,23,2020_Jan_30_0900,spring_faces,3.1.5,60.3463245392295,
condition files/Stage1_2.xlsx,,T4,B4,m,"['c', 'm']","['Clue', 'Monopoly']","[-0.15, 0.5]","[0.15, 0.5]",1,1,,,,,,,,,0,3,3,3,0,6,6,7,,,,,,,,,,,,,,,,,,,,,,,,,,,,,,,,,,,,,,,,,,,,,,,,,,,,,,,1744.226585487,None,1744.226585487,None,1744.226585487,None,m,1,0.8552999949999958,1745.762302574,None,1745.762302574,None,1745.762302574,None,1746.67770924,None,1746.67770924,None,1746.67770924,None,1746.67770924,None,,,,,,,,,,,,,,,,,,,,,,,,,,,,,,,,,,,,,,,,,,,,001,23,2020_Jan_30_0900,spring_faces,3.1.5,60.3463245392295,
condition files/Stage1_2.xlsx,,T2,B1,c,"['c', 'm']","['Clue', 'Monopoly']","[-0.15, 0.5]","[0.15, 0.5]",1,1,,,,,,,,,0,3,3,3,0,7,7,1,,,,,,,,,,,,,,,,,,,,,,,,,,,,,,,,,,,,,,,,,,,,,,,,,,,,,,,1748.6431963799998,None,1748.6431963799998,None,1748.6431963799998,None,c,1,0.8553833309999845,1750.1782096949999,None,1750.1782096949999,None,1750.1782096949999,None,1751.094802761,None,1751.094802761,None,1751.094802761,None,1751.094802761,None,,,,,,,,,,,,,,,,,,,,,,,,,,,,,,,,,,,,,,,,,,,,001,23,2020_Jan_30_0900,spring_faces,3.1.5,60.3463245392295,
condition files/Stage1_1.xlsx,,T3,B4,c,"['c', 'm']","['Clue', 'Monopoly']","[-0.15, 0.5]","[0.15, 0.5]",1,1,,,,,,,,,0,4,4,4,0,0,0,5,,,,,,,,,,,,,,,,,,,,,,,,,,,,,,,,,,,,,,,,,,,,,,,,,,,,,,,1753.07740862,None,1753.07740862,None,1753.07740862,None,c,1,1.0775109250000696,1754.6120185529999,None,1754.6120185529999,None,1754.6120185529999,None,1755.743465998,None,1755.743465998,None,1755.743465998,None,1755.743465998,None,,,,,,,,,,,,,,,,,,,,,,,,,,,,,,,,,,,,,,,,,,,,001,23,2020_Jan_30_0900,spring_faces,3.1.5,60.3463245392295,
condition files/Stage1_1.xlsx,,B3,T3,c,"['c', 'm']","['Clue', 'Monopoly']","[-0.15, 0.5]","[0.15, 0.5]",1,1,,,,,,,,,0,4,4,4,0,1,1,4,,,,,,,,,,,,,,,,,,,,,,,,,,,,,,,,,,,,,,,,,,,,,,,,,,,,,,,1757.7105452869998,None,1757.7105452869998,None,1757.7105452869998,None,c,1,1.1645553780001592,1759.244982129,None,1759.244982129,None,1759.244982129,None,1760.4601323939999,None,1760.4601323939999,None,1760.4601323939999,None,1760.4601323939999,None,,,,,,,,,,,,,,,,,,,,,,,,,,,,,,,,,,,,,,,,,,,,001,23,2020_Jan_30_0900,spring_faces,3.1.5,60.3463245392295,
condition files/Stage1_1.xlsx,,T1,B1,c,"['c', 'm']","['Clue', 'Monopoly']","[-0.15, 0.5]","[0.15, 0.5]",1,1,,,,,,,,,0,4,4,4,0,2,2,0,,,,,,,,,,,,,,,,,,,,,,,,,,,,,,,,,,,,,,,,,,,,,,,,,,,,,,,1762.427299212,None,1762.427299212,None,1762.427299212,None,c,1,0.8965620320000198,1763.960907248,None,1763.960907248,None,1763.960907248,None,1764.910730831,None,1764.910730831,None,1764.910730831,None,1764.910730831,None,,,,,,,,,,,,,,,,,,,,,,,,,,,,,,,,,,,,,,,,,,,,001,23,2020_Jan_30_0900,spring_faces,3.1.5,60.3463245392295,
condition files/Stage1_1.xlsx,,B1,T2,c,"['c', 'm']","['Clue', 'Monopoly']","[-0.15, 0.5]","[0.15, 0.5]",1,1,,,,,,,,,0,4,4,4,0,3,3,1,,,,,,,,,,,,,,,,,,,,,,,,,,,,,,,,,,,,,,,,,,,,,,,,,,,,,,,1766.8773499279998,None,1766.8773499279998,None,1766.8773499279998,None,c,1,1.9980875670000842,1768.427424243,None,1768.427424243,None,1768.427424243,None,1770.4767992299999,None,1770.4767992299999,None,1770.4767992299999,None,1770.4767992299999,None,,,,,,,,,,,,,,,,,,,,,,,,,,,,,,,,,,,,,,,,,,,,001,23,2020_Jan_30_0900,spring_faces,3.1.5,60.3463245392295,
condition files/Stage1_1.xlsx,,T4,B3,m,"['c', 'm']","['Clue', 'Monopoly']","[-0.15, 0.5]","[0.15, 0.5]",1,1,,,,,,,,,0,4,4,4,0,4,4,6,,,,,,,,,,,,,,,,,,,,,,,,,,,,,,,,,,,,,,,,,,,,,,,,,,,,,,,1772.4436027899999,None,1772.4436027899999,None,1772.4436027899999,None,m,1,1.3749815189999026,1773.9786021799998,None,1773.9786021799998,None,1773.9786021799998,None,1775.411753853,None,1775.411753853,None,1775.411753853,None,1775.411753853,None,,,,,,,,,,,,,,,,,,,,,,,,,,,,,,,,,,,,,,,,,,,,001,23,2020_Jan_30_0900,spring_faces,3.1.5,60.3463245392295,
condition files/Stage1_1.xlsx,,B4,T4,m,"['c', 'm']","['Clue', 'Monopoly']","[-0.15, 0.5]","[0.15, 0.5]",1,1,,,,,,,,,0,4,4,4,0,5,5,7,,,,,,,,,,,,,,,,,,,,,,,,,,,,,,,,,,,,,,,,,,,,,,,,,,,,,,,1777.37690286,None,1777.37690286,None,1777.37690286,None,m,1,1.0835637180000504,1778.9099611079998,None,1778.9099611079998,None,1778.9099611079998,None,1780.0442365269998,None,1780.0442365269998,None,1780.0442365269998,None,1780.0442365269998,None,,,,,,,,,,,,,,,,,,,,,,,,,,,,,,,,,,,,,,,,,,,,001,23,2020_Jan_30_0900,spring_faces,3.1.5,60.3463245392295,
condition files/Stage1_1.xlsx,,T2,B2,m,"['c', 'm']","['Clue', 'Monopoly']","[-0.15, 0.5]","[0.15, 0.5]",1,1,,,,,,,,,0,4,4,4,0,6,6,3,,,,,,,,,,,,,,,,,,,,,,,,,,,,,,,,,,,,,,,,,,,,,,,,,,,,,,,1782.0109405599999,None,1782.0109405599999,None,1782.0109405599999,None,m,1,1.5205465770000046,1783.5450021899999,None,1783.5450021899999,None,1783.5450021899999,None,1785.127499839,None,1785.127499839,None,1785.127499839,None,1785.127499839,None,,,,,,,,,,,,,,,,,,,,,,,,,,,,,,,,,,,,,,,,,,,,001,23,2020_Jan_30_0900,spring_faces,3.1.5,60.3463245392295,
condition files/Stage1_1.xlsx,,B2,T1,m,"['c', 'm']","['Clue', 'Monopoly']","[-0.15, 0.5]","[0.15, 0.5]",1,1,,,,,,,,,0,4,4,4,0,7,7,2,,,,,,,,,,,,,,,,,,,,,,,,,,,,,,,,,,,,,,,,,,,,,,,,,,,,,,,1787.093830194,None,1787.093830194,None,1787.093830194,None,m,1,1.4137920059997668,1788.627740149,None,1788.627740149,None,1788.627740149,None,1790.094115587,None,1790.094115587,None,1790.094115587,None,1790.094115587,None,,,,,,,,,,,,,,,,,,,,,,,,,,,,,,,,,,,,,,,,,,,,001,23,2020_Jan_30_0900,spring_faces,3.1.5,60.3463245392295,
condition files/Stage1_2.xlsx,,B2,T2,m,"['c', 'm']","['Clue', 'Monopoly']","[-0.15, 0.5]","[0.15, 0.5]",1,1,,,,,,,,,0,5,5,5,0,0,0,3,,,,,,,,,,,,,,,,,,,,,,,,,,,,,,,,,,,,,,,,,,,,,,,,,,,,,,,1792.077412226,None,1792.077412226,None,1792.077412226,None,m,1,1.4697411429997373,1793.611816782,None,1793.611816782,None,1793.611816782,None,1795.143963901,None,1795.143963901,None,1795.143963901,None,1795.143963901,None,,,,,,,,,,,,,,,,,,,,,,,,,,,,,,,,,,,,,,,,,,,,001,23,2020_Jan_30_0900,spring_faces,3.1.5,60.3463245392295,
condition files/Stage1_2.xlsx,,T1,B2,m,"['c', 'm']","['Clue', 'Monopoly']","[-0.15, 0.5]","[0.15, 0.5]",1,1,,,,,,,,,0,5,5,5,0,1,1,2,,,,,,,,,,,,,,,,,,,,,,,,,,,,,,,,,,,,,,,,,,,,,,,,,,,,,,,1797.1105113569997,None,1797.1105113569997,None,1797.1105113569997,None,m,1,1.4137632699998903,1798.643778215,None,1798.643778215,None,1798.643778215,None,1800.1102874859998,None,1800.1102874859998,None,1800.1102874859998,None,1800.1102874859998,None,,,,,,,,,,,,,,,,,,,,,,,,,,,,,,,,,,,,,,,,,,,,001,23,2020_Jan_30_0900,spring_faces,3.1.5,60.3463245392295,
condition files/Stage1_2.xlsx,,B4,T3,c,"['c', 'm']","['Clue', 'Monopoly']","[-0.15, 0.5]","[0.15, 0.5]",1,1,,,,,,,,,0,5,5,5,0,2,2,5,,,,,,,,,,,,,,,,,,,,,,,,,,,,,,,,,,,,,,,,,,,,,,,,,,,,,,,1802.0773300629999,None,1802.0773300629999,None,1802.0773300629999,None,c,1,0.9912626669997735,1803.610341431,None,1803.610341431,None,1803.610341431,None,1804.676774867,None,1804.676774867,None,1804.676774867,None,1804.676774867,None,,,,,,,,,,,,,,,,,,,,,,,,,,,,,,,,,,,,,,,,,,,,001,23,2020_Jan_30_0900,spring_faces,3.1.5,60.3463245392295,
condition files/Stage1_2.xlsx,,B3,T4,m,"['c', 'm']","['Clue', 'Monopoly']","[-0.15, 0.5]","[0.15, 0.5]",1,1,,,,,,,,,0,5,5,5,0,3,3,6,,,,,,,,,,,,,,,,,,,,,,,,,,,,,,,,,,,,,,,,,,,,,,,,,,,,,,,1806.626637123,None,1806.626637123,None,1806.626637123,None,m,1,1.0468600970002626,1808.162674178,None,1808.162674178,None,1808.162674178,None,1809.263469634,None,1809.263469634,None,1809.263469634,None,1809.263469634,None,,,,,,,,,,,,,,,,,,,,,,,,,,,,,,,,,,,,,,,,,,,,001,23,2020_Jan_30_0900,spring_faces,3.1.5,60.3463245392295,
condition files/Stage1_2.xlsx,,B1,T1,c,"['c', 'm']","['Clue', 'Monopoly']","[-0.15, 0.5]","[0.15, 0.5]",1,1,,,,,,,,,0,5,5,5,0,4,4,0,,,,,,,,,,,,,,,,,,,,,,,,,,,,,,,,,,,,,,,,,,,,,,,,,,,,,,,1811.2272255130001,None,1811.2272255130001,None,1811.2272255130001,None,c,1,1.6319128770001043,1812.777607895,None,1812.777607895,None,1812.777607895,None,1814.462985268,None,1814.462985268,None,1814.462985268,None,1814.462985268,None,,,,,,,,,,,,,,,,,,,,,,,,,,,,,,,,,,,,,,,,,,,,001,23,2020_Jan_30_0900,spring_faces,3.1.5,60.3463245392295,
condition files/Stage1_2.xlsx,,T4,B4,m,"['c', 'm']","['Clue', 'Monopoly']","[-0.15, 0.5]","[0.15, 0.5]",1,1,,,,,,,,,0,5,5,5,0,5,5,7,,,,,,,,,,,,,,,,,,,,,,,,,,,,,,,,,,,,,,,,,,,,,,,,,,,,,,,1816.427279739,None,1816.427279739,None,1816.427279739,None,m,1,1.0575794599999426,1817.9600274680001,None,1817.9600274680001,None,1817.9600274680001,None,1819.094160736,None,1819.094160736,None,1819.094160736,None,1819.094160736,None,,,,,,,,,,,,,,,,,,,,,,,,,,,,,,,,,,,,,,,,,,,,001,23,2020_Jan_30_0900,spring_faces,3.1.5,60.3463245392295,
condition files/Stage1_2.xlsx,,T2,B1,c,"['c', 'm']","['Clue', 'Monopoly']","[-0.15, 0.5]","[0.15, 0.5]",1,1,,,,,,,,,0,5,5,5,0,6,6,1,,,,,,,,,,,,,,,,,,,,,,,,,,,,,,,,,,,,,,,,,,,,,,,,,,,,,,,1821.043917732,None,1821.043917732,None,1821.043917732,None,c,1,1.0959075949999715,1822.5936099249998,None,1822.5936099249998,None,1822.5936099249998,None,1823.746809454,None,1823.746809454,None,1823.746809454,None,1823.746809454,None,,,,,,,,,,,,,,,,,,,,,,,,,,,,,,,,,,,,,,,,,,,,001,23,2020_Jan_30_0900,spring_faces,3.1.5,60.3463245392295,
condition files/Stage1_2.xlsx,,T3,B3,c,"['c', 'm']","['Clue', 'Monopoly']","[-0.15, 0.5]","[0.15, 0.5]",1,1,,,,,,,,,0,5,5,5,0,7,7,4,,,,,,,,,,,,,,,,,,,,,,,,,,,,,,,,,,,,,,,,,,,,,,,,,,,,,,,1825.7098920059998,None,1825.7098920059998,None,1825.7098920059998,None,c,1,2.7648242079999363,1827.260708239,None,1827.260708239,None,1827.260708239,None,1830.0774199819998,None,1830.0774199819998,None,1830.0774199819998,None,1830.0774199819998,None,,,,,,,,,,,,,,,,,,,,,,,,,,,,,,,,,,,,,,,,,,,,001,23,2020_Jan_30_0900,spring_faces,3.1.5,60.3463245392295,
condition files/Stage1_1.xlsx,,T1,B1,c,"['c', 'm']","['Clue', 'Monopoly']","[-0.15, 0.5]","[0.15, 0.5]",1,1,,,,,,,,,0,6,6,6,0,0,0,0,,,,,,,,,,,,,,,,,,,,,,,,,,,,,,,,,,,,,,,,,,,,,,,,,,,,,,,1832.0602362589998,None,1832.0602362589998,None,1832.0602362589998,None,c,1,3.2457321030001367,1833.5958056680001,None,1833.5958056680001,None,1833.5958056680001,None,1836.894187976,None,1836.894187976,None,1836.894187976,None,1836.894187976,None,,,,,,,,,,,,,,,,,,,,,,,,,,,,,,,,,,,,,,,,,,,,001,23,2020_Jan_30_0900,spring_faces,3.1.5,60.3463245392295,
condition files/Stage1_1.xlsx,,B1,T2,c,"['c', 'm']","['Clue', 'Monopoly']","[-0.15, 0.5]","[0.15, 0.5]",1,1,,,,,,,,,0,6,6,6,0,1,1,1,,,,,,,,,,,,,,,,,,,,,,,,,,,,,,,,,,,,,,,,,,,,,,,,,,,,,,,1838.860569805,None,1838.860569805,None,1838.860569805,None,c,1,0.9745488260000457,1840.395058618,None,1840.395058618,None,1840.395058618,None,1841.4270949040001,None,1841.4270949040001,None,1841.4270949040001,None,1841.4270949040001,None,,,,,,,,,,,,,,,,,,,,,,,,,,,,,,,,,,,,,,,,,,,,001,23,2020_Jan_30_0900,spring_faces,3.1.5,60.3463245392295,
condition files/Stage1_1.xlsx,,T4,B3,m,"['c', 'm']","['Clue', 'Monopoly']","[-0.15, 0.5]","[0.15, 0.5]",1,1,,,,,,,,,0,6,6,6,0,2,2,6,,,,,,,,,,,,,,,,,,,,,,,,,,,,,,,,,,,,,,,,,,,,,,,,,,,,,,,1843.393938784,None,1843.393938784,None,1843.393938784,None,m,1,0.8077009329999782,1844.9297595580001,None,1844.9297595580001,None,1844.9297595580001,None,1845.7946964080002,None,1845.7946964080002,None,1845.7946964080002,None,1845.7946964080002,None,,,,,,,,,,,,,,,,,,,,,,,,,,,,,,,,,,,,,,,,,,,,001,23,2020_Jan_30_0900,spring_faces,3.1.5,60.3463245392295,
condition files/Stage1_1.xlsx,,T3,B4,c,"['c', 'm']","['Clue', 'Monopoly']","[-0.15, 0.5]","[0.15, 0.5]",1,1,,,,,,,,,0,6,6,6,0,3,3,5,,,,,,,,,,,,,,,,,,,,,,,,,,,,,,,,,,,,,,,,,,,,,,,,,,,,,,,1847.7606097970001,None,1847.7606097970001,None,1847.7606097970001,None,c,1,0.7306022159996246,1849.2949357009998,None,1849.2949357009998,None,1849.2949357009998,None,1850.0935929019997,None,1850.0935929019997,None,1850.0935929019997,None,1850.0935929019997,None,,,,,,,,,,,,,,,,,,,,,,,,,,,,,,,,,,,,,,,,,,,,001,23,2020_Jan_30_0900,spring_faces,3.1.5,60.3463245392295,
condition files/Stage1_1.xlsx,,B2,T1,m,"['c', 'm']","['Clue', 'Monopoly']","[-0.15, 0.5]","[0.15, 0.5]",1,1,,,,,,,,,0,6,6,6,0,4,4,2,,,,,,,,,,,,,,,,,,,,,,,,,,,,,,,,,,,,,,,,,,,,,,,,,,,,,,,1852.04331134,None,1852.04331134,None,1852.04331134,None,m,1,1.2154473589998815,1853.5940794469998,None,1853.5940794469998,None,1853.5940794469998,None,1854.8776369500001,None,1854.8776369500001,None,1854.8776369500001,None,1854.8776369500001,None,,,,,,,,,,,,,,,,,,,,,,,,,,,,,,,,,,,,,,,,,,,,001,23,2020_Jan_30_0900,spring_faces,3.1.5,60.3463245392295,
condition files/Stage1_1.xlsx,,B4,T4,m,"['c', 'm']","['Clue', 'Monopoly']","[-0.15, 0.5]","[0.15, 0.5]",1,1,,,,,,,,,0,6,6,6,0,5,5,7,,,,,,,,,,,,,,,,,,,,,,,,,,,,,,,,,,,,,,,,,,,,,,,,,,,,,,,1856.827313328,None,1856.827313328,None,1856.827313328,None,m,1,0.5612216909999006,1858.3603454479999,None,1858.3603454479999,None,1858.3603454479999,None,1858.9770174239998,None,1858.9770174239998,None,1858.9770174239998,None,1858.9770174239998,None,,,,,,,,,,,,,,,,,,,,,,,,,,,,,,,,,,,,,,,,,,,,001,23,2020_Jan_30_0900,spring_faces,3.1.5,60.3463245392295,
condition files/Stage1_1.xlsx,,T2,B2,m,"['c', 'm']","['Clue', 'Monopoly']","[-0.15, 0.5]","[0.15, 0.5]",1,1,,,,,,,,,0,6,6,6,0,6,6,3,,,,,,,,,,,,,,,,,,,,,,,,,,,,,,,,,,,,,,,,,,,,,,,,,,,,,,,1860.9435436889999,None,1860.9435436889999,None,1860.9435436889999,None,m,1,1.8202702779999527,1862.477287783,None,1862.477287783,None,1862.477287783,None,1864.3609652750001,None,1864.3609652750001,None,1864.3609652750001,None,1864.3609652750001,None,,,,,,,,,,,,,,,,,,,,,,,,,,,,,,,,,,,,,,,,,,,,001,23,2020_Jan_30_0900,spring_faces,3.1.5,60.3463245392295,
condition files/Stage1_1.xlsx,,B3,T3,c,"['c', 'm']","['Clue', 'Monopoly']","[-0.15, 0.5]","[0.15, 0.5]",1,1,,,,,,,,,0,6,6,6,0,7,7,4,,,,,,,,,,,,,,,,,,,,,,,,,,,,,,,,,,,,,,,,,,,,,,,,,,,,,,,1866.3271568219998,None,1866.3271568219998,None,1866.3271568219998,None,c,1,1.955939590000071,1867.8616562809998,None,1867.8616562809998,None,1867.8616562809998,None,1869.8941135290002,None,1869.8941135290002,None,1869.8941135290002,None,1869.8941135290002,None,,,,,,,,,,,,,,,,,,,,,,,,,,,,,,,,,,,,,,,,,,,,001,23,2020_Jan_30_0900,spring_faces,3.1.5,60.3463245392295,
condition files/Stage1_2.xlsx,,T1,B2,m,"['c', 'm']","['Clue', 'Monopoly']","[-0.15, 0.5]","[0.15, 0.5]",1,1,,,,,,,,,0,7,7,7,0,0,0,2,,,,,,,,,,,,,,,,,,,,,,,,,,,,,,,,,,,,,,,,,,,,,,,,,,,,,,,1871.860865956,None,1871.860865956,None,1871.860865956,None,m,1,0.8717265459999908,1873.393845574,None,1873.393845574,None,1873.393845574,None,1874.3271779689999,None,1874.3271779689999,None,1874.3271779689999,None,1874.3271779689999,None,,,,,,,,,,,,,,,,,,,,,,,,,,,,,,,,,,,,,,,,,,,,001,23,2020_Jan_30_0900,spring_faces,3.1.5,60.3463245392295,
condition files/Stage1_2.xlsx,,B2,T2,m,"['c', 'm']","['Clue', 'Monopoly']","[-0.15, 0.5]","[0.15, 0.5]",1,1,,,,,,,,,0,7,7,7,0,1,1,3,,,,,,,,,,,,,,,,,,,,,,,,,,,,,,,,,,,,,,,,,,,,,,,,,,,,,,,1876.2940231879998,None,1876.2940231879998,None,1876.2940231879998,None,m,1,0.8707811180001954,1877.826777891,None,1877.826777891,None,1877.826777891,None,1878.7600911609998,None,1878.7600911609998,None,1878.7600911609998,None,1878.7600911609998,None,,,,,,,,,,,,,,,,,,,,,,,,,,,,,,,,,,,,,,,,,,,,001,23,2020_Jan_30_0900,spring_faces,3.1.5,60.3463245392295,
condition files/Stage1_2.xlsx,,B3,T4,m,"['c', 'm']","['Clue', 'Monopoly']","[-0.15, 0.5]","[0.15, 0.5]",1,1,,,,,,,,,0,7,7,7,0,2,2,6,,,,,,,,,,,,,,,,,,,,,,,,,,,,,,,,,,,,,,,,,,,,,,,,,,,,,,,1880.7275015659998,None,1880.7275015659998,None,1880.7275015659998,None,m,1,1.0923945079998703,1882.2771980029997,None,1882.2771980029997,None,1882.2771980029997,None,1883.427173558,None,1883.427173558,None,1883.427173558,None,1883.427173558,None,,,,,,,,,,,,,,,,,,,,,,,,,,,,,,,,,,,,,,,,,,,,001,23,2020_Jan_30_0900,spring_faces,3.1.5,60.3463245392295,
condition files/Stage1_2.xlsx,,T4,B4,m,"['c', 'm']","['Clue', 'Monopoly']","[-0.15, 0.5]","[0.15, 0.5]",1,1,,,,,,,,,0,7,7,7,0,3,3,7,,,,,,,,,,,,,,,,,,,,,,,,,,,,,,,,,,,,,,,,,,,,,,,,,,,,,,,1885.3933127699997,None,1885.3933127699997,None,1885.3933127699997,None,m,1,0.9227825829998437,1886.926731956,None,1886.926731956,None,1886.926731956,None,1887.9110557909999,None,1887.9110557909999,None,1887.9110557909999,None,1887.9110557909999,None,,,,,,,,,,,,,,,,,,,,,,,,,,,,,,,,,,,,,,,,,,,,001,23,2020_Jan_30_0900,spring_faces,3.1.5,60.3463245392295,
condition files/Stage1_2.xlsx,,T2,B1,c,"['c', 'm']","['Clue', 'Monopoly']","[-0.15, 0.5]","[0.15, 0.5]",1,1,,,,,,,,,0,7,7,7,0,4,4,1,,,,,,,,,,,,,,,,,,,,,,,,,,,,,,,,,,,,,,,,,,,,,,,,,,,,,,,1889.876552737,None,1889.876552737,None,1889.876552737,None,c,1,0.9508119549996081,1891.4106807560001,None,1891.4106807560001,None,1891.4106807560001,None,1892.427162376,None,1892.427162376,None,1892.427162376,None,1892.427162376,None,,,,,,,,,,,,,,,,,,,,,,,,,,,,,,,,,,,,,,,,,,,,001,23,2020_Jan_30_0900,spring_faces,3.1.5,60.3463245392295,
condition files/Stage1_2.xlsx,,T3,B3,c,"['c', 'm']","['Clue', 'Monopoly']","[-0.15, 0.5]","[0.15, 0.5]",1,1,,,,,,,,,0,7,7,7,0,5,5,4,,,,,,,,,,,,,,,,,,,,,,,,,,,,,,,,,,,,,,,,,,,,,,,,,,,,,,,1894.393978309,None,1894.393978309,None,1894.393978309,None,c,1,0.5457082070001888,1895.927838047,None,1895.927838047,None,1895.927838047,None,1896.5272408259998,None,1896.5272408259998,None,1896.5272408259998,None,1896.5272408259998,None,,,,,,,,,,,,,,,,,,,,,,,,,,,,,,,,,,,,,,,,,,,,001,23,2020_Jan_30_0900,spring_faces,3.1.5,60.3463245392295,
condition files/Stage1_2.xlsx,,B4,T3,c,"['c', 'm']","['Clue', 'Monopoly']","[-0.15, 0.5]","[0.15, 0.5]",1,1,,,,,,,,,0,7,7,7,0,6,6,5,,,,,,,,,,,,,,,,,,,,,,,,,,,,,,,,,,,,,,,,,,,,,,,,,,,,,,,1898.4940233029997,None,1898.4940233029997,None,1898.4940233029997,None,c,1,0.7968825379998634,1900.028661166,None,1900.028661166,None,1900.028661166,None,1900.8774336689999,None,1900.8774336689999,None,1900.8774336689999,None,1900.8774336689999,None,,,,,,,,,,,,,,,,,,,,,,,,,,,,,,,,,,,,,,,,,,,,001,23,2020_Jan_30_0900,spring_faces,3.1.5,60.3463245392295,
condition files/Stage1_2.xlsx,,B1,T1,c,"['c', 'm']","['Clue', 'Monopoly']","[-0.15, 0.5]","[0.15, 0.5]",1,1,,,,,,,,,0,7,7,7,0,7,7,0,,,,,,,,,,,,,,,,,,,,,,,,,,,,,,,,,,,,,,,,,,,,,,,,,,,,,,,1902.843531041,None,1902.843531041,None,1902.843531041,None,c,1,1.678444602000127,1904.3790241399997,None,1904.3790241399997,None,1904.3790241399997,None,1906.1105734520002,None,1906.1105734520002,None,1906.1105734520002,None,1906.1105734520002,None,,,,,,,,,,,,,,,,,,,,,,,,,,,,,,,,,,,,,,,,,,,,001,23,2020_Jan_30_0900,spring_faces,3.1.5,60.3463245392295,
condition files/Stage1_1.xlsx,,B4,T4,m,"['c', 'm']","['Clue', 'Monopoly']","[-0.15, 0.5]","[0.15, 0.5]",1,1,,,,,,,,,0,8,8,8,0,0,0,7,,,,,,,,,,,,,,,,,,,,,,,,,,,,,,,,,,,,,,,,,,,,,,,,,,,,,,,1908.0942858089998,None,1908.0942858089998,None,1908.0942858089998,None,m,1,0.9738115430000107,1909.62779908,None,1909.62779908,None,1909.62779908,None,1910.676734056,None,1910.676734056,None,1910.676734056,None,1910.676734056,None,,,,,,,,,,,,,,,,,,,,,,,,,,,,,,,,,,,,,,,,,,,,001,23,2020_Jan_30_0900,spring_faces,3.1.5,60.3463245392295,
condition files/Stage1_1.xlsx,,B3,T3,c,"['c', 'm']","['Clue', 'Monopoly']","[-0.15, 0.5]","[0.15, 0.5]",1,1,,,,,,,,,0,8,8,8,0,1,1,4,,,,,,,,,,,,,,,,,,,,,,,,,,,,,,,,,,,,,,,,,,,,,,,,,,,,,,,1912.627088097,None,1912.627088097,None,1912.627088097,None,c,1,1.175783028999831,1914.16182734,None,1914.16182734,None,1914.16182734,None,1915.3935115559998,None,1915.3935115559998,None,1915.3935115559998,None,1915.3935115559998,None,,,,,,,,,,,,,,,,,,,,,,,,,,,,,,,,,,,,,,,,,,,,001,23,2020_Jan_30_0900,spring_faces,3.1.5,60.3463245392295,
condition files/Stage1_1.xlsx,,T3,B4,c,"['c', 'm']","['Clue', 'Monopoly']","[-0.15, 0.5]","[0.15, 0.5]",1,1,,,,,,,,,0,8,8,8,0,2,2,5,,,,,,,,,,,,,,,,,,,,,,,,,,,,,,,,,,,,,,,,,,,,,,,,,,,,,,,1917.3606629679998,None,1917.3606629679998,None,1917.3606629679998,None,c,1,1.5958640209996702,1918.8936706989998,None,1918.8936706989998,None,1918.8936706989998,None,1920.544517331,None,1920.544517331,None,1920.544517331,None,1920.544517331,None,,,,,,,,,,,,,,,,,,,,,,,,,,,,,,,,,,,,,,,,,,,,001,23,2020_Jan_30_0900,spring_faces,3.1.5,60.3463245392295,
condition files/Stage1_1.xlsx,,B2,T1,m,"['c', 'm']","['Clue', 'Monopoly']","[-0.15, 0.5]","[0.15, 0.5]",1,1,,,,,,,,,0,8,8,8,0,3,3,2,,,,,,,,,,,,,,,,,,,,,,,,,,,,,,,,,,,,,,,,,,,,,,,,,,,,,,,1922.5103225469998,None,1922.5103225469998,None,1922.5103225469998,None,m,1,2.828732277999734,1924.060754214,None,1924.060754214,None,1924.060754214,None,1926.944813006,None,1926.944813006,None,1926.944813006,None,1926.944813006,None,,,,,,,,,,,,,,,,,,,,,,,,,,,,,,,,,,,,,,,,,,,,001,23,2020_Jan_30_0900,spring_faces,3.1.5,60.3463245392295,
condition files/Stage1_1.xlsx,,T4,B3,m,"['c', 'm']","['Clue', 'Monopoly']","[-0.15, 0.5]","[0.15, 0.5]",1,1,,,,,,,,,0,8,8,8,0,4,4,6,,,,,,,,,,,,,,,,,,,,,,,,,,,,,,,,,,,,,,,,,,,,,,,,,,,,,,,1928.9105088390002,None,1928.9105088390002,None,1928.9105088390002,None,m,1,0.9728991059996588,1930.4447104699998,None,1930.4447104699998,None,1930.4447104699998,None,1931.4772144170001,None,1931.4772144170001,None,1931.4772144170001,None,1931.4772144170001,None,,,,,,,,,,,,,,,,,,,,,,,,,,,,,,,,,,,,,,,,,,,,001,23,2020_Jan_30_0900,spring_faces,3.1.5,60.3463245392295,
condition files/Stage1_1.xlsx,,T1,B1,c,"['c', 'm']","['Clue', 'Monopoly']","[-0.15, 0.5]","[0.15, 0.5]",1,1,,,,,,,,,0,8,8,8,0,5,5,0,,,,,,,,,,,,,,,,,,,,,,,,,,,,,,,,,,,,,,,,,,,,,,,,,,,,,,,1933.4433592609998,None,1933.4433592609998,None,1933.4433592609998,None,c,1,1.895459177000248,1934.978086518,None,1934.978086518,None,1934.978086518,None,1936.927773501,None,1936.927773501,None,1936.927773501,None,1936.927773501,None,,,,,,,,,,,,,,,,,,,,,,,,,,,,,,,,,,,,,,,,,,,,001,23,2020_Jan_30_0900,spring_faces,3.1.5,60.3463245392295,
condition files/Stage1_1.xlsx,,B1,T2,c,"['c', 'm']","['Clue', 'Monopoly']","[-0.15, 0.5]","[0.15, 0.5]",1,1,,,,,,,,,0,8,8,8,0,6,6,1,,,,,,,,,,,,,,,,,,,,,,,,,,,,,,,,,,,,,,,,,,,,,,,,,,,,,,,1938.893511974,None,1938.893511974,None,1938.893511974,None,c,1,0.6225721310001973,1940.42690675,None,1940.42690675,None,1940.42690675,None,1941.1108009189998,None,1941.1108009189998,None,1941.1108009189998,None,1941.1108009189998,None,,,,,,,,,,,,,,,,,,,,,,,,,,,,,,,,,,,,,,,,,,,,001,23,2020_Jan_30_0900,spring_faces,3.1.5,60.3463245392295,
condition files/Stage1_1.xlsx,,T2,B2,m,"['c', 'm']","['Clue', 'Monopoly']","[-0.15, 0.5]","[0.15, 0.5]",1,1,,,,,,,,,0,8,8,8,0,7,7,3,,,,,,,,,,,,,,,,,,,,,,,,,,,,,,,,,,,,,,,,,,,,,,,,,,,,,,,1943.07702484,None,1943.07702484,None,1943.07702484,None,m,1,1.175237038999967,1944.610378371,None,1944.610378371,None,1944.610378371,None,1945.844257492,None,1945.844257492,None,1945.844257492,None,1945.844257492,None,,,,,,,,,,,,,,,,,,,,,,,,,,,,,,,,,,,,,,,,,,,,001,23,2020_Jan_30_0900,spring_faces,3.1.5,60.3463245392295,
condition files/Stage1_2.xlsx,,T2,B1,c,"['c', 'm']","['Clue', 'Monopoly']","[-0.15, 0.5]","[0.15, 0.5]",1,1,,,,,,,,,0,9,9,9,0,0,0,1,,,,,,,,,,,,,,,,,,,,,,,,,,,,,,,,,,,,,,,,,,,,,,,,,,,,,,,1947.8270190099997,None,1947.8270190099997,None,1947.8270190099997,None,c,1,1.062387451000177,1949.3631460339998,None,1949.3631460339998,None,1949.3631460339998,None,1950.478808209,None,1950.478808209,None,1950.478808209,None,1950.478808209,None,,,,,,,,,,,,,,,,,,,,,,,,,,,,,,,,,,,,,,,,,,,,001,23,2020_Jan_30_0900,spring_faces,3.1.5,60.3463245392295,
condition files/Stage1_2.xlsx,,B1,T1,c,"['c', 'm']","['Clue', 'Monopoly']","[-0.15, 0.5]","[0.15, 0.5]",1,1,,,,,,,,,0,9,9,9,0,1,1,0,,,,,,,,,,,,,,,,,,,,,,,,,,,,,,,,,,,,,,,,,,,,,,,,,,,,,,,1952.4439892750001,None,1952.4439892750001,None,1952.4439892750001,None,c,1,1.1523886960003438,1953.9771547569999,None,1953.9771547569999,None,1953.9771547569999,None,1955.1945865980001,None,1955.1945865980001,None,1955.1945865980001,None,1955.1945865980001,None,,,,,,,,,,,,,,,,,,,,,,,,,,,,,,,,,,,,,,,,,,,,001,23,2020_Jan_30_0900,spring_faces,3.1.5,60.3463245392295,
condition files/Stage1_2.xlsx,,B2,T2,m,"['c', 'm']","['Clue', 'Monopoly']","[-0.15, 0.5]","[0.15, 0.5]",1,1,,,,,,,,,0,9,9,9,0,2,2,3,,,,,,,,,,,,,,,,,,,,,,,,,,,,,,,,,,,,,,,,,,,,,,,,,,,,,,,1957.1604212930001,None,1957.1604212930001,None,1957.1604212930001,None,m,1,4.0198574299997745,1958.69366992,None,1958.69366992,None,1958.69366992,None,1962.7798834719997,None,1962.7798834719997,None,1962.7798834719997,None,1962.7798834719997,None,,,,,,,,,,,,,,,,,,,,,,,,,,,,,,,,,,,,,,,,,,,,001,23,2020_Jan_30_0900,spring_faces,3.1.5,60.3463245392295,
condition files/Stage1_2.xlsx,,T3,B3,c,"['c', 'm']","['Clue', 'Monopoly']","[-0.15, 0.5]","[0.15, 0.5]",1,1,,,,,,,,,0,9,9,9,0,3,3,4,,,,,,,,,,,,,,,,,,,,,,,,,,,,,,,,,,,,,,,,,,,,,,,,,,,,,,,1964.743846209,None,1964.743846209,None,1964.743846209,None,c,1,1.1870456709998507,1966.2785090319999,None,1966.2785090319999,None,1966.2785090319999,None,1967.5279941969998,None,1967.5279941969998,None,1967.5279941969998,None,1967.5279941969998,None,,,,,,,,,,,,,,,,,,,,,,,,,,,,,,,,,,,,,,,,,,,,001,23,2020_Jan_30_0900,spring_faces,3.1.5,60.3463245392295,
condition files/Stage1_2.xlsx,,T4,B4,m,"['c', 'm']","['Clue', 'Monopoly']","[-0.15, 0.5]","[0.15, 0.5]",1,1,,,,,,,,,0,9,9,9,0,4,4,7,,,,,,,,,,,,,,,,,,,,,,,,,,,,,,,,,,,,,,,,,,,,,,,,,,,,,,,1969.493846622,None,1969.493846622,None,1969.493846622,None,m,1,0.6777856929998052,1971.027692574,None,1971.027692574,None,1971.027692574,None,1971.7606228149998,None,1971.7606228149998,None,1971.7606228149998,None,1971.7606228149998,None,,,,,,,,,,,,,,,,,,,,,,,,,,,,,,,,,,,,,,,,,,,,001,23,2020_Jan_30_0900,spring_faces,3.1.5,60.3463245392295,
condition files/Stage1_2.xlsx,,B4,T3,c,"['c', 'm']","['Clue', 'Monopoly']","[-0.15, 0.5]","[0.15, 0.5]",1,1,,,,,,,,,0,9,9,9,0,5,5,5,,,,,,,,,,,,,,,,,,,,,,,,,,,,,,,,,,,,,,,,,,,,,,,,,,,,,,,1973.727296596,None,1973.727296596,None,1973.727296596,None,c,1,1.0688083929999266,1975.260741815,None,1975.260741815,None,1975.260741815,None,1976.3936858890002,None,1976.3936858890002,None,1976.3936858890002,None,1976.3936858890002,None,,,,,,,,,,,,,,,,,,,,,,,,,,,,,,,,,,,,,,,,,,,,001,23,2020_Jan_30_0900,spring_faces,3.1.5,60.3463245392295,
condition files/Stage1_2.xlsx,,B3,T4,m,"['c', 'm']","['Clue', 'Monopoly']","[-0.15, 0.5]","[0.15, 0.5]",1,1,,,,,,,,,0,9,9,9,0,6,6,6,,,,,,,,,,,,,,,,,,,,,,,,,,,,,,,,,,,,,,,,,,,,,,,,,,,,,,,1978.3606016539998,None,1978.3606016539998,None,1978.3606016539998,None,m,1,1.281394124000144,1979.8961199,None,1979.8961199,None,1979.8961199,None,1981.2441071919998,None,1981.2441071919998,None,1981.2441071919998,None,1981.2441071919998,None,,,,,,,,,,,,,,,,,,,,,,,,,,,,,,,,,,,,,,,,,,,,001,23,2020_Jan_30_0900,spring_faces,3.1.5,60.3463245392295,
condition files/Stage1_2.xlsx,,T1,B2,m,"['c', 'm']","['Clue', 'Monopoly']","[-0.15, 0.5]","[0.15, 0.5]",1,1,,,,,,,,,0,9,9,9,0,7,7,2,,,,,,,,,,,,,,,,,,,,,,,,,,,,,,,,,,,,,,,,,,,,,,,,,,,,,,,1983.1936122369998,None,1983.1936122369998,None,1983.1936122369998,None,m,1,0.9612392910003109,1984.744212176,None,1984.744212176,None,1984.744212176,None,1985.760724449,None,1985.760724449,None,1985.760724449,None,1985.760724449,None,,,,,,,,,,,,,,,,,,,,,,,,,,,,,,,,,,,,,,,,,,,,001,23,2020_Jan_30_0900,spring_faces,3.1.5,60.3463245392295,
condition files/Stage1_1.xlsx,,B3,T3,c,"['c', 'm']","['Clue', 'Monopoly']","[-0.15, 0.5]","[0.15, 0.5]",1,1,,,,,,,,,0,10,10,10,0,0,0,4,,,,,,,,,,,,,,,,,,,,,,,,,,,,,,,,,,,,,,,,,,,,,,,,,,,,,,,1987.743723897,None,1987.743723897,None,1987.743723897,None,c,1,0.8108641450003233,1989.2786856530001,None,1989.2786856530001,None,1989.2786856530001,None,1990.1453123689998,None,1990.1453123689998,None,1990.1453123689998,None,1990.1453123689998,None,,,,,,,,,,,,,,,,,,,,,,,,,,,,,,,,,,,,,,,,,,,,001,23,2020_Jan_30_0900,spring_faces,3.1.5,60.3463245392295,
condition files/Stage1_1.xlsx,,B1,T2,c,"['c', 'm']","['Clue', 'Monopoly']","[-0.15, 0.5]","[0.15, 0.5]",1,1,,,,,,,,,0,10,10,10,0,1,1,1,,,,,,,,,,,,,,,,,,,,,,,,,,,,,,,,,,,,,,,,,,,,,,,,,,,,,,,1992.1101378099997,None,1992.1101378099997,None,1992.1101378099997,None,c,1,1.3089196869996158,1993.66067767,None,1993.66067767,None,1993.66067767,None,1995.0273292789998,None,1995.0273292789998,None,1995.0273292789998,None,1995.0273292789998,None,,,,,,,,,,,,,,,,,,,,,,,,,,,,,,,,,,,,,,,,,,,,001,23,2020_Jan_30_0900,spring_faces,3.1.5,60.3463245392295,
condition files/Stage1_1.xlsx,,T2,B2,m,"['c', 'm']","['Clue', 'Monopoly']","[-0.15, 0.5]","[0.15, 0.5]",1,1,,,,,,,,,0,10,10,10,0,2,2,3,,,,,,,,,,,,,,,,,,,,,,,,,,,,,,,,,,,,,,,,,,,,,,,,,,,,,,,1996.993850031,None,1996.993850031,None,1996.993850031,None,c,0,3.5294385740003236,1998.544062242,None,1998.544062242,None,1998.544062242,None,2002.130090604,None,2002.130090604,None,2002.130090604,None,2002.130090604,None,,,,,,,,,,,,,,,,,,,,,,,,,,,,,,,,,,,,,,,,,,,,001,23,2020_Jan_30_0900,spring_faces,3.1.5,60.3463245392295,
condition files/Stage1_1.xlsx,,B2,T1,m,"['c', 'm']","['Clue', 'Monopoly']","[-0.15, 0.5]","[0.15, 0.5]",1,1,,,,,,,,,0,10,10,10,0,3,3,2,,,,,,,,,,,,,,,,,,,,,,,,,,,,,,,,,,,,,,,,,,,,,,,,,,,,,,,2004.093280433,None,2004.093280433,None,2004.093280433,None,m,1,0.6694889379996312,2005.644046588,None,2005.644046588,None,2005.644046588,None,2006.3771102,None,2006.3771102,None,2006.3771102,None,2006.3771102,None,,,,,,,,,,,,,,,,,,,,,,,,,,,,,,,,,,,,,,,,,,,,001,23,2020_Jan_30_0900,spring_faces,3.1.5,60.3463245392295,
condition files/Stage1_1.xlsx,,T4,B3,m,"['c', 'm']","['Clue', 'Monopoly']","[-0.15, 0.5]","[0.15, 0.5]",1,1,,,,,,,,,0,10,10,10,0,4,4,6,,,,,,,,,,,,,,,,,,,,,,,,,,,,,,,,,,,,,,,,,,,,,,,,,,,,,,,2008.34381988,None,2008.34381988,None,2008.34381988,None,m,1,0.7565121019997605,2009.8770989149998,None,2009.8770989149998,None,2009.8770989149998,None,2010.6937357870002,None,2010.6937357870002,None,2010.6937357870002,None,2010.6937357870002,None,,,,,,,,,,,,,,,,,,,,,,,,,,,,,,,,,,,,,,,,,,,,001,23,2020_Jan_30_0900,spring_faces,3.1.5,60.3463245392295,
condition files/Stage1_1.xlsx,,B4,T4,m,"['c', 'm']","['Clue', 'Monopoly']","[-0.15, 0.5]","[0.15, 0.5]",1,1,,,,,,,,,0,10,10,10,0,5,5,7,,,,,,,,,,,,,,,,,,,,,,,,,,,,,,,,,,,,,,,,,,,,,,,,,,,,,,,2012.660534792,None,2012.660534792,None,2012.660534792,None,m,1,0.7759294529996623,2014.1936734619999,None,2014.1936734619999,None,2014.1936734619999,None,2015.0273094539998,None,2015.0273094539998,None,2015.0273094539998,None,2015.0273094539998,None,,,,,,,,,,,,,,,,,,,,,,,,,,,,,,,,,,,,,,,,,,,,001,23,2020_Jan_30_0900,spring_faces,3.1.5,60.3463245392295,
condition files/Stage1_1.xlsx,,T3,B4,c,"['c', 'm']","['Clue', 'Monopoly']","[-0.15, 0.5]","[0.15, 0.5]",1,1,,,,,,,,,0,10,10,10,0,6,6,5,,,,,,,,,,,,,,,,,,,,,,,,,,,,,,,,,,,,,,,,,,,,,,,,,,,,,,,2016.9939170809998,None,2016.9939170809998,None,2016.9939170809998,None,c,1,0.617578224999761,2018.5279127029999,None,2018.5279127029999,None,2018.5279127029999,None,2019.210921031,None,2019.210921031,None,2019.210921031,None,2019.210921031,None,,,,,,,,,,,,,,,,,,,,,,,,,,,,,,,,,,,,,,,,,,,,001,23,2020_Jan_30_0900,spring_faces,3.1.5,60.3463245392295,
condition files/Stage1_1.xlsx,,T1,B1,c,"['c', 'm']","['Clue', 'Monopoly']","[-0.15, 0.5]","[0.15, 0.5]",1,1,,,,,,,,,0,10,10,10,0,7,7,0,,,,,,,,,,,,,,,,,,,,,,,,,,,,,,,,,,,,,,,,,,,,,,,,,,,,,,,2021.1772775629997,None,2021.1772775629997,None,2021.1772775629997,None,m,0,0.7379796870000064,2022.711601212,None,2022.711601212,None,2022.711601212,None,2023.510538383,None,2023.510538383,None,2023.510538383,None,2023.510538383,None,,,,,,,,,,,,,,,,,,,,,,,,,,,,,,,,,,,,,,,,,,,,001,23,2020_Jan_30_0900,spring_faces,3.1.5,60.3463245392295,
condition files/Stage1_2.xlsx,,B3,T4,m,"['c', 'm']","['Clue', 'Monopoly']","[-0.15, 0.5]","[0.15, 0.5]",1,1,,,,,,,,,0,11,11,11,0,0,0,6,,,,,,,,,,,,,,,,,,,,,,,,,,,,,,,,,,,,,,,,,,,,,,,,,,,,,,,2025.4943436109997,None,2025.4943436109997,None,2025.4943436109997,None,m,1,0.6133669599998939,2027.044134189,None,2027.044134189,None,2027.044134189,None,2027.7116831140002,None,2027.7116831140002,None,2027.7116831140002,None,2027.7116831140002,None,,,,,,,,,,,,,,,,,,,,,,,,,,,,,,,,,,,,,,,,,,,,001,23,2020_Jan_30_0900,spring_faces,3.1.5,60.3463245392295,
condition files/Stage1_2.xlsx,,T2,B1,c,"['c', 'm']","['Clue', 'Monopoly']","[-0.15, 0.5]","[0.15, 0.5]",1,1,,,,,,,,,0,11,11,11,0,1,1,1,,,,,,,,,,,,,,,,,,,,,,,,,,,,,,,,,,,,,,,,,,,,,,,,,,,,,,,2029.676965823,None,2029.676965823,None,2029.676965823,None,c,1,1.1671064849997492,2031.210391313,None,2031.210391313,None,2031.210391313,None,2032.4281705429999,None,2032.4281705429999,None,2032.4281705429999,None,2032.4281705429999,None,,,,,,,,,,,,,,,,,,,,,,,,,,,,,,,,,,,,,,,,,,,,001,23,2020_Jan_30_0900,spring_faces,3.1.5,60.3463245392295,
condition files/Stage1_2.xlsx,,T1,B2,m,"['c', 'm']","['Clue', 'Monopoly']","[-0.15, 0.5]","[0.15, 0.5]",1,1,,,,,,,,,0,11,11,11,0,2,2,2,,,,,,,,,,,,,,,,,,,,,,,,,,,,,,,,,,,,,,,,,,,,,,,,,,,,,,,2034.393327676,None,2034.393327676,None,2034.393327676,None,m,1,0.8814442040002177,2035.9281178269998,None,2035.9281178269998,None,2035.9281178269998,None,2036.8617262009998,None,2036.8617262009998,None,2036.8617262009998,None,2036.8617262009998,None,,,,,,,,,,,,,,,,,,,,,,,,,,,,,,,,,,,,,,,,,,,,001,23,2020_Jan_30_0900,spring_faces,3.1.5,60.3463245392295,
condition files/Stage1_2.xlsx,,B1,T1,c,"['c', 'm']","['Clue', 'Monopoly']","[-0.15, 0.5]","[0.15, 0.5]",1,1,,,,,,,,,0,11,11,11,0,3,3,0,,,,,,,,,,,,,,,,,,,,,,,,,,,,,,,,,,,,,,,,,,,,,,,,,,,,,,,2038.8268154480002,None,2038.8268154480002,None,2038.8268154480002,None,c,1,0.6871489360000851,2040.362420002,None,2040.362420002,None,2040.362420002,None,2041.112823285,None,2041.112823285,None,2041.112823285,None,2041.112823285,None,,,,,,,,,,,,,,,,,,,,,,,,,,,,,,,,,,,,,,,,,,,,001,23,2020_Jan_30_0900,spring_faces,3.1.5,60.3463245392295,
condition files/Stage1_2.xlsx,,B2,T2,m,"['c', 'm']","['Clue', 'Monopoly']","[-0.15, 0.5]","[0.15, 0.5]",1,1,,,,,,,,,0,11,11,11,0,4,4,3,,,,,,,,,,,,,,,,,,,,,,,,,,,,,,,,,,,,,,,,,,,,,,,,,,,,,,,2043.077418381,None,2043.077418381,None,2043.077418381,None,m,1,1.5107930180001858,2044.610752901,None,2044.610752901,None,2044.610752901,None,2046.193480203,None,2046.193480203,None,2046.193480203,None,2046.193480203,None,,,,,,,,,,,,,,,,,,,,,,,,,,,,,,,,,,,,,,,,,,,,001,23,2020_Jan_30_0900,spring_faces,3.1.5,60.3463245392295,
condition files/Stage1_2.xlsx,,T4,B4,m,"['c', 'm']","['Clue', 'Monopoly']","[-0.15, 0.5]","[0.15, 0.5]",1,1,,,,,,,,,0,11,11,11,0,5,5,7,,,,,,,,,,,,,,,,,,,,,,,,,,,,,,,,,,,,,,,,,,,,,,,,,,,,,,,2048.143621495,None,2048.143621495,None,2048.143621495,None,m,1,0.5885256430001391,2049.677040045,None,2049.677040045,None,2049.677040045,None,2050.327535765,None,2050.327535765,None,2050.327535765,None,2050.327535765,None,,,,,,,,,,,,,,,,,,,,,,,,,,,,,,,,,,,,,,,,,,,,001,23,2020_Jan_30_0900,spring_faces,3.1.5,60.3463245392295,
condition files/Stage1_2.xlsx,,T3,B3,c,"['c', 'm']","['Clue', 'Monopoly']","[-0.15, 0.5]","[0.15, 0.5]",1,1,,,,,,,,,0,11,11,11,0,6,6,4,,,,,,,,,,,,,,,,,,,,,,,,,,,,,,,,,,,,,,,,,,,,,,,,,,,,,,,2052.29326888,None,2052.29326888,None,2052.29326888,None,c,1,0.5964533219998884,2053.8290913759997,None,2053.8290913759997,None,2053.8290913759997,None,2054.478895661,None,2054.478895661,None,2054.478895661,None,2054.478895661,None,,,,,,,,,,,,,,,,,,,,,,,,,,,,,,,,,,,,,,,,,,,,001,23,2020_Jan_30_0900,spring_faces,3.1.5,60.3463245392295,
condition files/Stage1_2.xlsx,,B4,T3,c,"['c', 'm']","['Clue', 'Monopoly']","[-0.15, 0.5]","[0.15, 0.5]",1,1,,,,,,,,,0,11,11,11,0,7,7,5,,,,,,,,,,,,,,,,,,,,,,,,,,,,,,,,,,,,,,,,,,,,,,,,,,,,,,,2056.443539047,None,2056.443539047,None,2056.443539047,None,c,1,0.8158373740002389,2057.977707574,None,2057.977707574,None,2057.977707574,None,2058.843487976,None,2058.843487976,None,2058.843487976,None,2058.843487976,None,,,,,,,,,,,,,,,,,,,,,,,,,,,,,,,,,,,,,,,,,,,,001,23,2020_Jan_30_0900,spring_faces,3.1.5,60.3463245392295,
,,,,,,,,,,,,,,,,,,,,,,,,,,,,,,,,,,,,,,,,,,,,,,,,,,,,,,,,,,,,,,,,,,,,,,,,,,,,,,,,,,,,,,,,,,,,,,,,,,,,,,,,,,,,,,,,2060.827455727,None,space,2.3742941280002015,2065.827246404,None,,,,,,,,,,,,,,,,,,,,,,,,,,,,,,001,23,2020_Jan_30_0900,spring_faces,3.1.5,60.3463245392295,
condition files/Stage2_1.xlsx,,B4,T4,r,"['s', 'r']","['Stratego', 'Risk']","[-0.15, 0.5]","[0.15, 0.5]",1,1,,,,,,,,,,,,,,,,,0,0,0,0,0,0,0,5,,,,,,,,,,,,,,,,,,,,,,,,,,,,,,,,,,,,,,,,,,,,,,,2068.278373818,None,2068.278373818,None,2068.278373818,None,s,0,1.607919031000165,2069.7617023479997,None,2069.7617023479997,None,2069.7617023479997,None,2071.428492942,None,2071.428492942,None,2071.428492942,None,2071.428492942,None,,,,,,,,,,,,,,,2065.827246404,None,,,,,,,,,,,,,,,,,,,,,,,,,,,,001,23,2020_Jan_30_0900,spring_faces,3.1.5,60.3463245392295,
condition files/Stage2_1.xlsx,,T5,B5,s,"['s', 'r']","['Stratego', 'Risk']","[-0.15, 0.5]","[0.15, 0.5]",1,1,,,,,,,,,,,,,,,,,0,0,0,0,0,1,1,0,,,,,,,,,,,,,,,,,,,,,,,,,,,,,,,,,,,,,,,,,,,,,,,2073.393940366,None,2073.393940366,None,2073.393940366,None,s,1,2.440008429000045,2074.9775783659998,None,2074.9775783659998,None,2074.9775783659998,None,2077.478031093,None,2077.478031093,None,2077.478031093,None,2077.478031093,None,,,,,,,,,,,,,,,,,,,,,,,,,,,,,,,,,,,,,,,,,,,,001,23,2020_Jan_30_0900,spring_faces,3.1.5,60.3463245392295,
condition files/Stage2_1.xlsx,,B2,T2,r,"['s', 'r']","['Stratego', 'Risk']","[-0.15, 0.5]","[0.15, 0.5]",1,1,,,,,,,,,,,,,,,,,0,0,0,0,0,2,2,3,,,,,,,,,,,,,,,,,,,,,,,,,,,,,,,,,,,,,,,,,,,,,,,2079.443936516,None,2079.443936516,None,2079.443936516,None,s,0,1.3344671049999306,2080.979095924,None,2080.979095924,None,2080.979095924,None,2082.393543299,None,2082.393543299,None,2082.393543299,None,2082.393543299,None,,,,,,,,,,,,,,,,,,,,,,,,,,,,,,,,,,,,,,,,,,,,001,23,2020_Jan_30_0900,spring_faces,3.1.5,60.3463245392295,
condition files/Stage2_1.xlsx,,T3,B3,s,"['s', 'r']","['Stratego', 'Risk']","[-0.15, 0.5]","[0.15, 0.5]",1,1,,,,,,,,,,,,,,,,,0,0,0,0,0,3,3,4,,,,,,,,,,,,,,,,,,,,,,,,,,,,,,,,,,,,,,,,,,,,,,,2084.34415229,None,2084.34415229,None,2084.34415229,None,r,0,1.7637078379998457,2085.893853636,None,2085.893853636,None,2085.893853636,None,2087.712856751,None,2087.712856751,None,2087.712856751,None,2087.712856751,None,,,,,,,,,,,,,,,,,,,,,,,,,,,,,,,,,,,,,,,,,,,,001,23,2020_Jan_30_0900,spring_faces,3.1.5,60.3463245392295,
condition files/Stage2_1.xlsx,,B6,T6,r,"['s', 'r']","['Stratego', 'Risk']","[-0.15, 0.5]","[0.15, 0.5]",1,1,,,,,,,,,,,,,,,,,0,0,0,0,0,4,4,1,,,,,,,,,,,,,,,,,,,,,,,,,,,,,,,,,,,,,,,,,,,,,,,2089.677087402,None,2089.677087402,None,2089.677087402,None,s,0,1.5178920389998893,2091.2435869329997,None,2091.2435869329997,None,2091.2435869329997,None,2092.829170344,None,2092.829170344,None,2092.829170344,None,2092.829170344,None,,,,,,,,,,,,,,,,,,,,,,,,,,,,,,,,,,,,,,,,,,,,001,23,2020_Jan_30_0900,spring_faces,3.1.5,60.3463245392295,
condition files/Stage2_1.xlsx,,T1,B1,s,"['s', 'r']","['Stratego', 'Risk']","[-0.15, 0.5]","[0.15, 0.5]",1,1,,,,,,,,,,,,,,,,,0,0,0,0,0,5,5,2,,,,,,,,,,,,,,,,,,,,,,,,,,,,,,,,,,,,,,,,,,,,,,,2094.793309792,None,2094.793309792,None,2094.793309792,None,r,0,1.8255022119997193,2096.3440967399997,None,2096.3440967399997,None,2096.3440967399997,None,2098.229591903,None,2098.229591903,None,2098.229591903,None,2098.229591903,None,,,,,,,,,,,,,,,,,,,,,,,,,,,,,,,,,,,,,,,,,,,,001,23,2020_Jan_30_0900,spring_faces,3.1.5,60.3463245392295,
condition files/Stage2_2.xlsx,,B5,T5,s,"['s', 'r']","['Stratego', 'Risk']","[-0.15, 0.5]","[0.15, 0.5]",1,1,,,,,,,,,,,,,,,,,0,1,1,1,0,0,0,0,,,,,,,,,,,,,,,,,,,,,,,,,,,,,,,,,,,,,,,,,,,,,,,2100.244371336,None,2100.244371336,None,2100.244371336,None,s,1,1.1920440139997481,2101.745565355,None,2101.745565355,None,2101.745565355,None,2102.994081743,None,2102.994081743,None,2102.994081743,None,2102.994081743,None,,,,,,,,,,,,,,,,,,,,,,,,,,,,,,,,,,,,,,,,,,,,001,23,2020_Jan_30_0900,spring_faces,3.1.5,60.3463245392295,
condition files/Stage2_2.xlsx,,B1,T1,s,"['s', 'r']","['Stratego', 'Risk']","[-0.15, 0.5]","[0.15, 0.5]",1,1,,,,,,,,,,,,,,,,,0,1,1,1,0,1,1,2,,,,,,,,,,,,,,,,,,,,,,,,,,,,,,,,,,,,,,,,,,,,,,,2104.9606071499998,None,2104.9606071499998,None,2104.9606071499998,None,r,0,1.0179820710000058,2106.49558362,None,2106.49558362,None,2106.49558362,None,2107.5772602859997,None,2107.5772602859997,None,2107.5772602859997,None,2107.5772602859997,None,,,,,,,,,,,,,,,,,,,,,,,,,,,,,,,,,,,,,,,,,,,,001,23,2020_Jan_30_0900,spring_faces,3.1.5,60.3463245392295,
condition files/Stage2_2.xlsx,,T6,B6,r,"['s', 'r']","['Stratego', 'Risk']","[-0.15, 0.5]","[0.15, 0.5]",1,1,,,,,,,,,,,,,,,,,0,1,1,1,0,2,2,1,,,,,,,,,,,,,,,,,,,,,,,,,,,,,,,,,,,,,,,,,,,,,,,2109.543876466,None,2109.543876466,None,2109.543876466,None,s,0,1.5244889559999137,2111.07711654,None,2111.07711654,None,2111.07711654,None,2112.660182447,None,2112.660182447,None,2112.660182447,None,2112.660182447,None,,,,,,,,,,,,,,,,,,,,,,,,,,,,,,,,,,,,,,,,,,,,001,23,2020_Jan_30_0900,spring_faces,3.1.5,60.3463245392295,
condition files/Stage2_2.xlsx,,B3,T3,s,"['s', 'r']","['Stratego', 'Risk']","[-0.15, 0.5]","[0.15, 0.5]",1,1,,,,,,,,,,,,,,,,,0,1,1,1,0,3,3,4,,,,,,,,,,,,,,,,,,,,,,,,,,,,,,,,,,,,,,,,,,,,,,,2114.627290474,None,2114.627290474,None,2114.627290474,None,r,0,1.0331866739998077,2116.160375806,None,2116.160375806,None,2116.160375806,None,2117.260773572,None,2117.260773572,None,2117.260773572,None,2117.260773572,None,,,,,,,,,,,,,,,,,,,,,,,,,,,,,,,,,,,,,,,,,,,,001,23,2020_Jan_30_0900,spring_faces,3.1.5,60.3463245392295,
condition files/Stage2_2.xlsx,,T2,B2,r,"['s', 'r']","['Stratego', 'Risk']","[-0.15, 0.5]","[0.15, 0.5]",1,1,,,,,,,,,,,,,,,,,0,1,1,1,0,4,4,3,,,,,,,,,,,,,,,,,,,,,,,,,,,,,,,,,,,,,,,,,,,,,,,2119.21042705,None,2119.21042705,None,2119.21042705,None,s,0,2.304762853000284,2120.760783226,None,2120.760783226,None,2120.760783226,None,2123.12795725,None,2123.12795725,None,2123.12795725,None,2123.12795725,None,,,,,,,,,,,,,,,,,,,,,,,,,,,,,,,,,,,,,,,,,,,,001,23,2020_Jan_30_0900,spring_faces,3.1.5,60.3463245392295,
condition files/Stage2_2.xlsx,,T4,B4,r,"['s', 'r']","['Stratego', 'Risk']","[-0.15, 0.5]","[0.15, 0.5]",1,1,,,,,,,,,,,,,,,,,0,1,1,1,0,5,5,5,,,,,,,,,,,,,,,,,,,,,,,,,,,,,,,,,,,,,,,,,,,,,,,2125.093890675,None,2125.093890675,None,2125.093890675,None,r,1,1.7824392930001522,2126.627123767,None,2126.627123767,None,2126.627123767,None,2128.460733695,None,2128.460733695,None,2128.460733695,None,2128.460733695,None,,,,,,,,,,,,,,,,,,,,,,,,,,,,,,,,,,,,,,,,,,,,001,23,2020_Jan_30_0900,spring_faces,3.1.5,60.3463245392295,
condition files/Stage2_1.xlsx,,B2,T2,r,"['s', 'r']","['Stratego', 'Risk']","[-0.15, 0.5]","[0.15, 0.5]",1,1,,,,,,,,,,,,,,,,,0,2,2,2,0,0,0,3,,,,,,,,,,,,,,,,,,,,,,,,,,,,,,,,,,,,,,,,,,,,,,,2130.444119597,None,2130.444119597,None,2130.444119597,None,r,1,1.1355765299999803,2131.993970481,None,2131.993970481,None,2131.993970481,None,2133.194227677,None,2133.194227677,None,2133.194227677,None,2133.194227677,None,,,,,,,,,,,,,,,,,,,,,,,,,,,,,,,,,,,,,,,,,,,,001,23,2020_Jan_30_0900,spring_faces,3.1.5,60.3463245392295,
condition files/Stage2_1.xlsx,,B6,T6,r,"['s', 'r']","['Stratego', 'Risk']","[-0.15, 0.5]","[0.15, 0.5]",1,1,,,,,,,,,,,,,,,,,0,2,2,2,0,1,1,1,,,,,,,,,,,,,,,,,,,,,,,,,,,,,,,,,,,,,,,,,,,,,,,2135.160620862,None,2135.160620862,None,2135.160620862,None,r,1,1.3461359389998506,2136.695406518,None,2136.695406518,None,2136.695406518,None,2138.094025438,None,2138.094025438,None,2138.094025438,None,2138.094025438,None,,,,,,,,,,,,,,,,,,,,,,,,,,,,,,,,,,,,,,,,,,,,001,23,2020_Jan_30_0900,spring_faces,3.1.5,60.3463245392295,
condition files/Stage2_1.xlsx,,T3,B3,s,"['s', 'r']","['Stratego', 'Risk']","[-0.15, 0.5]","[0.15, 0.5]",1,1,,,,,,,,,,,,,,,,,0,2,2,2,0,2,2,4,,,,,,,,,,,,,,,,,,,,,,,,,,,,,,,,,,,,,,,,,,,,,,,2140.06012254,None,2140.06012254,None,2140.06012254,None,r,0,2.158160066000164,2141.595441162,None,2141.595441162,None,2141.595441162,None,2143.827033342,None,2143.827033342,None,2143.827033342,None,2143.827033342,None,,,,,,,,,,,,,,,,,,,,,,,,,,,,,,,,,,,,,,,,,,,,001,23,2020_Jan_30_0900,spring_faces,3.1.5,60.3463245392295,
condition files/Stage2_1.xlsx,,B4,T4,r,"['s', 'r']","['Stratego', 'Risk']","[-0.15, 0.5]","[0.15, 0.5]",1,1,,,,,,,,,,,,,,,,,0,2,2,2,0,3,3,5,,,,,,,,,,,,,,,,,,,,,,,,,,,,,,,,,,,,,,,,,,,,,,,2145.776613216,None,2145.776613216,None,2145.776613216,None,r,1,1.6270752710001943,2147.310534155,None,2147.310534155,None,2147.310534155,None,2149.0107661389998,None,2149.0107661389998,None,2149.0107661389998,None,2149.0107661389998,None,,,,,,,,,,,,,,,,,,,,,,,,,,,,,,,,,,,,,,,,,,,,001,23,2020_Jan_30_0900,spring_faces,3.1.5,60.3463245392295,
condition files/Stage2_1.xlsx,,T1,B1,s,"['s', 'r']","['Stratego', 'Risk']","[-0.15, 0.5]","[0.15, 0.5]",1,1,,,,,,,,,,,,,,,,,0,2,2,2,0,4,4,2,,,,,,,,,,,,,,,,,,,,,,,,,,,,,,,,,,,,,,,,,,,,,,,2150.960679896,None,2150.960679896,None,2150.960679896,None,r,0,1.2113115739998648,2152.494164075,None,2152.494164075,None,2152.494164075,None,2153.760588567,None,2153.760588567,None,2153.760588567,None,2153.760588567,None,,,,,,,,,,,,,,,,,,,,,,,,,,,,,,,,,,,,,,,,,,,,001,23,2020_Jan_30_0900,spring_faces,3.1.5,60.3463245392295,
condition files/Stage2_1.xlsx,,T5,B5,s,"['s', 'r']","['Stratego', 'Risk']","[-0.15, 0.5]","[0.15, 0.5]",1,1,,,,,,,,,,,,,,,,,0,2,2,2,0,5,5,0,,,,,,,,,,,,,,,,,,,,,,,,,,,,,,,,,,,,,,,,,,,,,,,2155.726588353,None,2155.726588353,None,2155.726588353,None,s,1,1.0844425459999911,2157.26103248,None,2157.26103248,None,2157.26103248,None,2158.410219901,None,2158.410219901,None,2158.410219901,None,2158.410219901,None,,,,,,,,,,,,,,,,,,,,,,,,,,,,,,,,,,,,,,,,,,,,001,23,2020_Jan_30_0900,spring_faces,3.1.5,60.3463245392295,
condition files/Stage2_2.xlsx,,B5,T5,s,"['s', 'r']","['Stratego', 'Risk']","[-0.15, 0.5]","[0.15, 0.5]",1,1,,,,,,,,,,,,,,,,,0,3,3,3,0,0,0,0,,,,,,,,,,,,,,,,,,,,,,,,,,,,,,,,,,,,,,,,,,,,,,,2160.393855128,None,2160.393855128,None,2160.393855128,None,s,1,0.9918572930000664,2161.929701297,None,2161.929701297,None,2161.929701297,None,2162.976826915,None,2162.976826915,None,2162.976826915,None,2162.976826915,None,,,,,,,,,,,,,,,,,,,,,,,,,,,,,,,,,,,,,,,,,,,,001,23,2020_Jan_30_0900,spring_faces,3.1.5,60.3463245392295,
condition files/Stage2_2.xlsx,,T4,B4,r,"['s', 'r']","['Stratego', 'Risk']","[-0.15, 0.5]","[0.15, 0.5]",1,1,,,,,,,,,,,,,,,,,0,3,3,3,0,1,1,5,,,,,,,,,,,,,,,,,,,,,,,,,,,,,,,,,,,,,,,,,,,,,,,2164.9440382489997,None,2164.9440382489997,None,2164.9440382489997,None,r,1,0.6204034350002985,2166.4771496119997,None,2166.4771496119997,None,2166.4771496119997,None,2167.162769478,None,2167.162769478,None,2167.162769478,None,2167.162769478,None,,,,,,,,,,,,,,,,,,,,,,,,,,,,,,,,,,,,,,,,,,,,001,23,2020_Jan_30_0900,spring_faces,3.1.5,60.3463245392295,
condition files/Stage2_2.xlsx,,B3,T3,s,"['s', 'r']","['Stratego', 'Risk']","[-0.15, 0.5]","[0.15, 0.5]",1,1,,,,,,,,,,,,,,,,,0,3,3,3,0,2,2,4,,,,,,,,,,,,,,,,,,,,,,,,,,,,,,,,,,,,,,,,,,,,,,,2169.127664863,None,2169.127664863,None,2169.127664863,None,s,1,1.92381759600039,2170.677773302,None,2170.677773302,None,2170.677773302,None,2172.662671039,None,2172.662671039,None,2172.662671039,None,2172.662671039,None,,,,,,,,,,,,,,,,,,,,,,,,,,,,,,,,,,,,,,,,,,,,001,23,2020_Jan_30_0900,spring_faces,3.1.5,60.3463245392295,
condition files/Stage2_2.xlsx,,T2,B2,r,"['s', 'r']","['Stratego', 'Risk']","[-0.15, 0.5]","[0.15, 0.5]",1,1,,,,,,,,,,,,,,,,,0,3,3,3,0,3,3,3,,,,,,,,,,,,,,,,,,,,,,,,,,,,,,,,,,,,,,,,,,,,,,,2174.626995814,None,2174.626995814,None,2174.626995814,None,r,1,1.8803368389999378,2176.161206634,None,2176.161206634,None,2176.161206634,None,2178.094891651,None,2178.094891651,None,2178.094891651,None,2178.094891651,None,,,,,,,,,,,,,,,,,,,,,,,,,,,,,,,,,,,,,,,,,,,,001,23,2020_Jan_30_0900,spring_faces,3.1.5,60.3463245392295,
condition files/Stage2_2.xlsx,,T6,B6,r,"['s', 'r']","['Stratego', 'Risk']","[-0.15, 0.5]","[0.15, 0.5]",1,1,,,,,,,,,,,,,,,,,0,3,3,3,0,4,4,1,,,,,,,,,,,,,,,,,,,,,,,,,,,,,,,,,,,,,,,,,,,,,,,2180.060673979,None,2180.060673979,None,2180.060673979,None,r,1,0.9282508800001779,2181.593285079,None,2181.593285079,None,2181.593285079,None,2182.576873692,None,2182.576873692,None,2182.576873692,None,2182.576873692,None,,,,,,,,,,,,,,,,,,,,,,,,,,,,,,,,,,,,,,,,,,,,001,23,2020_Jan_30_0900,spring_faces,3.1.5,60.3463245392295,
condition files/Stage2_2.xlsx,,B1,T1,s,"['s', 'r']","['Stratego', 'Risk']","[-0.15, 0.5]","[0.15, 0.5]",1,1,,,,,,,,,,,,,,,,,0,3,3,3,0,5,5,2,,,,,,,,,,,,,,,,,,,,,,,,,,,,,,,,,,,,,,,,,,,,,,,2184.543187595,None,2184.543187595,None,2184.543187595,None,s,1,1.7068888730000253,2186.078730744,None,2186.078730744,None,2186.078730744,None,2187.844860888,None,2187.844860888,None,2187.844860888,None,2187.844860888,None,,,,,,,,,,,,,,,,,,,,,,,,,,,,,,,,,,,,,,,,,,,,001,23,2020_Jan_30_0900,spring_faces,3.1.5,60.3463245392295,
condition files/Stage2_1.xlsx,,T5,B5,s,"['s', 'r']","['Stratego', 'Risk']","[-0.15, 0.5]","[0.15, 0.5]",1,1,,,,,,,,,,,,,,,,,0,4,4,4,0,0,0,0,,,,,,,,,,,,,,,,,,,,,,,,,,,,,,,,,,,,,,,,,,,,,,,2189.827384091,None,2189.827384091,None,2189.827384091,None,s,1,0.7441702279998026,2191.3773702999997,None,2191.3773702999997,None,2191.3773702999997,None,2192.177526845,None,2192.177526845,None,2192.177526845,None,2192.177526845,None,,,,,,,,,,,,,,,,,,,,,,,,,,,,,,,,,,,,,,,,,,,,001,23,2020_Jan_30_0900,spring_faces,3.1.5,60.3463245392295,
condition files/Stage2_1.xlsx,,B4,T4,r,"['s', 'r']","['Stratego', 'Risk']","[-0.15, 0.5]","[0.15, 0.5]",1,1,,,,,,,,,,,,,,,,,0,4,4,4,0,1,1,5,,,,,,,,,,,,,,,,,,,,,,,,,,,,,,,,,,,,,,,,,,,,,,,2194.143813101,None,2194.143813101,None,2194.143813101,None,r,1,1.0037446129999807,2195.677820078,None,2195.677820078,None,2195.677820078,None,2196.744707778,None,2196.744707778,None,2196.744707778,None,2196.744707778,None,,,,,,,,,,,,,,,,,,,,,,,,,,,,,,,,,,,,,,,,,,,,001,23,2020_Jan_30_0900,spring_faces,3.1.5,60.3463245392295,
condition files/Stage2_1.xlsx,,T3,B3,s,"['s', 'r']","['Stratego', 'Risk']","[-0.15, 0.5]","[0.15, 0.5]",1,1,,,,,,,,,,,,,,,,,0,4,4,4,0,2,2,4,,,,,,,,,,,,,,,,,,,,,,,,,,,,,,,,,,,,,,,,,,,,,,,2198.710529985,None,2198.710529985,None,2198.710529985,None,s,1,1.4128561210000044,2200.244741488,None,2200.244741488,None,2200.244741488,None,2201.71158706,None,2201.71158706,None,2201.71158706,None,2201.71158706,None,,,,,,,,,,,,,,,,,,,,,,,,,,,,,,,,,,,,,,,,,,,,001,23,2020_Jan_30_0900,spring_faces,3.1.5,60.3463245392295,
condition files/Stage2_1.xlsx,,B2,T2,r,"['s', 'r']","['Stratego', 'Risk']","[-0.15, 0.5]","[0.15, 0.5]",1,1,,,,,,,,,,,,,,,,,0,4,4,4,0,3,3,3,,,,,,,,,,,,,,,,,,,,,,,,,,,,,,,,,,,,,,,,,,,,,,,2203.676684696,None,2203.676684696,None,2203.676684696,None,r,1,1.7901913860000604,2205.227407763,None,2205.227407763,None,2205.227407763,None,2207.077413676,None,2207.077413676,None,2207.077413676,None,2207.077413676,None,,,,,,,,,,,,,,,,,,,,,,,,,,,,,,,,,,,,,,,,,,,,001,23,2020_Jan_30_0900,spring_faces,3.1.5,60.3463245392295,
condition files/Stage2_1.xlsx,,T1,B1,s,"['s', 'r']","['Stratego', 'Risk']","[-0.15, 0.5]","[0.15, 0.5]",1,1,,,,,,,,,,,,,,,,,0,4,4,4,0,4,4,2,,,,,,,,,,,,,,,,,,,,,,,,,,,,,,,,,,,,,,,,,,,,,,,2209.043548646,None,2209.043548646,None,2209.043548646,None,s,1,1.9434229670000605,2210.578131581,None,2210.578131581,None,2210.578131581,None,2212.594100535,None,2212.594100535,None,2212.594100535,None,2212.594100535,None,,,,,,,,,,,,,,,,,,,,,,,,,,,,,,,,,,,,,,,,,,,,001,23,2020_Jan_30_0900,spring_faces,3.1.5,60.3463245392295,
condition files/Stage2_1.xlsx,,B6,T6,r,"['s', 'r']","['Stratego', 'Risk']","[-0.15, 0.5]","[0.15, 0.5]",1,1,,,,,,,,,,,,,,,,,0,4,4,4,0,5,5,1,,,,,,,,,,,,,,,,,,,,,,,,,,,,,,,,,,,,,,,,,,,,,,,2214.543276299,None,2214.543276299,None,2214.543276299,None,r,1,0.7325551399999313,2216.076995555,None,2216.076995555,None,2216.076995555,None,2216.860713911,None,2216.860713911,None,2216.860713911,None,2216.860713911,None,,,,,,,,,,,,,,,,,,,,,,,,,,,,,,,,,,,,,,,,,,,,001,23,2020_Jan_30_0900,spring_faces,3.1.5,60.3463245392295,
condition files/Stage2_2.xlsx,,B3,T3,s,"['s', 'r']","['Stratego', 'Risk']","[-0.15, 0.5]","[0.15, 0.5]",1,1,,,,,,,,,,,,,,,,,0,5,5,5,0,0,0,4,,,,,,,,,,,,,,,,,,,,,,,,,,,,,,,,,,,,,,,,,,,,,,,2218.8436273419998,None,2218.8436273419998,None,2218.8436273419998,None,s,1,0.943509750999965,2220.394104639,None,2220.394104639,None,2220.394104639,None,2221.3957653469997,None,2221.3957653469997,None,2221.3957653469997,None,2221.3957653469997,None,,,,,,,,,,,,,,,,,,,,,,,,,,,,,,,,,,,,,,,,,,,,001,23,2020_Jan_30_0900,spring_faces,3.1.5,60.3463245392295,
condition files/Stage2_2.xlsx,,B5,T5,s,"['s', 'r']","['Stratego', 'Risk']","[-0.15, 0.5]","[0.15, 0.5]",1,1,,,,,,,,,,,,,,,,,0,5,5,5,0,1,1,0,,,,,,,,,,,,,,,,,,,,,,,,,,,,,,,,,,,,,,,,,,,,,,,2223.3600040789997,None,2223.3600040789997,None,2223.3600040789997,None,s,1,0.6988029590002043,2224.910723526,None,2224.910723526,None,2224.910723526,None,2225.660574794,None,2225.660574794,None,2225.660574794,None,2225.660574794,None,,,,,,,,,,,,,,,,,,,,,,,,,,,,,,,,,,,,,,,,,,,,001,23,2020_Jan_30_0900,spring_faces,3.1.5,60.3463245392295,
condition files/Stage2_2.xlsx,,B1,T1,s,"['s', 'r']","['Stratego', 'Risk']","[-0.15, 0.5]","[0.15, 0.5]",1,1,,,,,,,,,,,,,,,,,0,5,5,5,0,2,2,2,,,,,,,,,,,,,,,,,,,,,,,,,,,,,,,,,,,,,,,,,,,,,,,2227.627243739,None,2227.627243739,None,2227.627243739,None,s,1,1.3759979930000554,2229.177567991,None,2229.177567991,None,2229.177567991,None,2230.610463018,None,2230.610463018,None,2230.610463018,None,2230.610463018,None,,,,,,,,,,,,,,,,,,,,,,,,,,,,,,,,,,,,,,,,,,,,001,23,2020_Jan_30_0900,spring_faces,3.1.5,60.3463245392295,
condition files/Stage2_2.xlsx,,T2,B2,r,"['s', 'r']","['Stratego', 'Risk']","[-0.15, 0.5]","[0.15, 0.5]",1,1,,,,,,,,,,,,,,,,,0,5,5,5,0,3,3,3,,,,,,,,,,,,,,,,,,,,,,,,,,,,,,,,,,,,,,,,,,,,,,,2232.577336989,None,2232.577336989,None,2232.577336989,None,r,1,1.3711895850001383,2234.110378947,None,2234.110378947,None,2234.110378947,None,2235.56066937,None,2235.56066937,None,2235.56066937,None,2235.56066937,None,,,,,,,,,,,,,,,,,,,,,,,,,,,,,,,,,,,,,,,,,,,,001,23,2020_Jan_30_0900,spring_faces,3.1.5,60.3463245392295,
