condsFile,subStage,cue1,cue2,correct,responseKeys,responseNames,cue1Position,cue2Position,cue1Opacity,cue2Opacity,stageLoop0.thisRepN,stageLoop0.thisTrialN,stageLoop0.thisN,stageLoop0.thisIndex,blockLoop0.thisRepN,blockLoop0.thisTrialN,blockLoop0.thisN,blockLoop0.thisIndex,stage1Loop.thisRepN,stage1Loop.thisTrialN,stage1Loop.thisN,stage1Loop.thisIndex,blockLoop1.thisRepN,blockLoop1.thisTrialN,blockLoop1.thisN,blockLoop1.thisIndex,stage2Loop.thisRepN,stage2Loop.thisTrialN,stage2Loop.thisN,stage2Loop.thisIndex,blockLoop2.thisRepN,blockLoop2.thisTrialN,blockLoop2.thisN,blockLoop2.thisIndex,testLoop.thisRepN,testLoop.thisTrialN,testLoop.thisN,testLoop.thisIndex,blockLoopTest.thisRepN,blockLoopTest.thisTrialN,blockLoopTest.thisN,blockLoopTest.thisIndex,cuePics,id_instr_text.started,id_instr_text.stopped,space_to_continue_2.started,space_to_continue_2.stopped,end_instructions_resp_3.keys,end_instructions_resp_3.rt,end_instructions_resp_3.started,end_instructions_resp_3.stopped,id_input_instr.started,id_input_instr.stopped,id_input_rect.started,id_input_rect.stopped,id_input_resp.keys,id_input_resp.rt,id_input_resp.started,id_input_resp.stopped,sonaID,id_input_text.started,id_input_text.stopped,final_text.started,final_text.stopped,instructions.started,instructions.stopped,end_instructions_resp.keys,end_instructions_resp.rt,end_instructions_resp.started,end_instructions_resp.stopped,space_to_continue.started,space_to_continue.stopped,instructions_stage0.started,instructions_stage0.stopped,end_instructions_resp_stage0.keys,end_instructions_resp_stage0.rt,end_instructions_resp_stage0.started,end_instructions_resp_stage0.stopped,space_to_continue_stage0.started,space_to_continue_stage0.stopped,text.started,text.stopped,resp_text1.started,resp_text1.stopped,resp_text2.started,resp_text2.stopped,trial_resp.keys,trial_resp.corr,trial_resp.rt,trial_resp.started,trial_resp.stopped,cue1Image.started,cue1Image.stopped,cue2Image.started,cue2Image.stopped,cue1Image_fb.started,cue1Image_fb.stopped,cue2Image_fb.started,cue2Image_fb.stopped,fb_text_answer.started,fb_text_answer.stopped,feedback_image.started,feedback_image.stopped,instructions_stage1.started,instructions_stage1.stopped,end_instructions_resp_stage1.keys,end_instructions_resp_stage1.rt,end_instructions_resp_stage1.started,end_instructions_resp_stage1.stopped,space_to_continue_stage1.started,space_to_continue_stage1.stopped,instructions_2.started,instructions_2.stopped,end_instructions_resp_2.keys,end_instructions_resp_2.rt,end_instructions_resp_2.started,end_instructions_resp_2.stopped,press_space_to_continue_stage2.started,press_space_to_continue_stage2.stopped,instructions_testStage1.started,instructions_testStage1.stopped,end_instructions_resp_test1.keys,end_instructions_resp_test1.rt,end_instructions_resp_test1.started,end_instructions_resp_test1.stopped,press_space_to_continue_test1.started,press_space_to_continue_test1.stopped,cue1Image_testChoice.started,cue1Image_testChoice.stopped,cue2Image_testChoice.started,cue2Image_testChoice.stopped,test_resp.keys,test_resp.corr,test_resp.rt,test_resp.started,test_resp.stopped,cue1Image_testConf.started,cue1Image_testConf.stopped,cue2Image_testConf.started,cue2Image_testConf.stopped,conf_reminder.started,conf_reminder.stopped,conf_rating.response,conf_rating.rt,conf_rating.started,conf_rating.stopped,session,participant,date,expName,psychopyVersion,frameRate,
,,,,,,,,,,,,,,,,,,,,,,,,,,,,,,,,,,,,,,,,,,,"{'none': 'pictures/20M_AN_C.png', 'alpha': 'pictures/SHINEd_pepper.png', 'beta': 'pictures/SHINEd_apple.png', 'theta': 'pictures/SHINEd_pear.png', 'phi': 'pictures/SHINEd_melon.png', 'T1': 'pictures/36M_AN_C.png', 'T2': 'pictures/23M_AN_C.png', 'T3': 'pictures/38M_AN_C.png', 'T4': 'pictures/33M_AN_C.png', 'T5': 'pictures/22M_AN_C.png', 'T6': 'pictures/31M_AN_C.png', 'B1': 'pictures/34M_NE_C.png', 'B2': 'pictures/25M_NE_C.png', 'B3': 'pictures/20M_NE_C.png', 'B4': 'pictures/32M_NE_C.png', 'B5': 'pictures/37M_NE_C.png', 'B6': 'pictures/26M_NE_C.png'}",30.940019167000173,None,35.90674193800032,None,space,27.701693717000126,35.90674193800032,None,,,,,,,,,,,,,,,,,,,,,,,,,,,,,,,,,,,,,,,,,,,,,,,,,,,,,,,,,,,,,,,,,,,,,,,,,,,,,,,,,,,,,,,,,,,,,,,,001,24,2020_Jan_30_0932,spring_faces,3.2.3,59.967920161070495,
,,,,,,,,,,,,,,,,,,,,,,,,,,,,,,,,,,,,,,,,,,,,,,,,,,,,64.40604681100012,None,64.40604681100012,None,"['0', '5', '1', '1', 's', 'a', 'w', 'o', 'o']","[11.602407235999635, 11.98641027199983, 15.970389022999825, 16.194492394000008, 19.810499488000005, 20.130530649999855, 29.922473829999944, 30.27446971299969, 30.498572230999798]",64.40604681100012,None,,,,,,,,,,,,,,,,,,,,,,,,,,,,,,,,,,,,,,,,,,,,,,,,,,,,,,,,,,,,,,,,,,,,,,,,,,,,,,,,,,,,,,,,001,24,2020_Jan_30_0932,spring_faces,3.2.3,59.967920161070495,
,,,,,,,,,,,,,,,,,,,,,,,,,,,,,,,,,,,,,,,,,,,,,,,,,,,,,,,,,,,,0511sawoo,64.40604681100012,None,64.40604681100012,None,99.95674767800028,None,space,2.9725157959996977,104.94000660400025,None,,,,,,,,,,,,,,,,,,,,,,,,,,,,,,,,,,,,,,,,,,,,,,,,,,,,,,,,,,,,,,,,,,,,,,,,,,,,,001,24,2020_Jan_30_0932,spring_faces,3.2.3,59.967920161070495,
,,,,,,,,,,,,,,,,,,,,,,,,,,,,,,,,,,,,,,,,,,,,,,,,,,,,,,,,,,,,,,,,,,,,,,,104.94000660400025,None,107.94006604000015,None,space,18.653132240000105,112.92337185499991,None,,,,,,,,,,,,,,,,,,,,,,,,,,,,,,,,,,,,,,,,,,,,,,,,,,,,,,,,,,,,,,,,,,,,,001,24,2020_Jan_30_0932,spring_faces,3.2.3,59.967920161070495,
condition files/Stage0a.xlsx,0a,beta,none,g,"['h', 'g']","['Chess', 'Go']","[0, 0.5]","[0, 0]",1,0,0,0,0,0,0,0,0,1,,,,,,,,,,,,,,,,,,,,,,,,,,,,,,,,,,,,,,,,,,,,,,,,,,,,,,,,,,,,,112.92337185499991,None,131.95672754499992,None,131.95672754499992,None,131.95672754499992,None,h,0,2.939926026000194,133.37260429800017,None,133.37260429800017,None,133.37260429800017,None,136.3900555600003,None,136.3900555600003,None,136.3900555600003,None,136.3900555600003,None,,,,,,,,,,,,,,,,,,,,,,,,,,,,,,,,,,,,,,,,,,,,001,24,2020_Jan_30_0932,spring_faces,3.2.3,59.967920161070495,
condition files/Stage0a.xlsx,0a,alpha,none,h,"['h', 'g']","['Chess', 'Go']","[0, 0.5]","[0, 0]",1,0,0,0,0,0,0,1,1,0,,,,,,,,,,,,,,,,,,,,,,,,,,,,,,,,,,,,,,,,,,,,,,,,,,,,,,,,,,,,,,,138.35671082999988,None,138.35671082999988,None,138.35671082999988,None,g,0,1.2857428940001228,139.90671924800017,None,139.90671924800017,None,139.90671924800017,None,141.273359582,None,141.273359582,None,141.273359582,None,141.273359582,None,,,,,,,,,,,,,,,,,,,,,,,,,,,,,,,,,,,,,,,,,,,,001,24,2020_Jan_30_0932,spring_faces,3.2.3,59.967920161070495,
condition files/Stage0a.xlsx,0a,alpha,none,h,"['h', 'g']","['Chess', 'Go']","[0, 0.5]","[0, 0]",1,0,0,1,1,1,0,0,0,0,,,,,,,,,,,,,,,,,,,,,,,,,,,,,,,,,,,,,,,,,,,,,,,,,,,,,,,,,,,,,,,143.2567574059999,None,143.2567574059999,None,143.2567574059999,None,h,1,1.0424712439998984,144.7900727020001,None,144.7900727020001,None,144.7900727020001,None,145.94008283099993,None,145.94008283099993,None,145.94008283099993,None,145.94008283099993,None,,,,,,,,,,,,,,,,,,,,,,,,,,,,,,,,,,,,,,,,,,,,001,24,2020_Jan_30_0932,spring_faces,3.2.3,59.967920161070495,
condition files/Stage0a.xlsx,0a,beta,none,g,"['h', 'g']","['Chess', 'Go']","[0, 0.5]","[0, 0]",1,0,0,1,1,1,0,1,1,1,,,,,,,,,,,,,,,,,,,,,,,,,,,,,,,,,,,,,,,,,,,,,,,,,,,,,,,,,,,,,,,147.8734411549999,None,147.8734411549999,None,147.8734411549999,None,g,1,0.9377481999999873,149.40674412399994,None,149.40674412399994,None,149.40674412399994,None,150.406754567,None,150.406754567,None,150.406754567,None,150.406754567,None,,,,,,,,,,,,,,,,,,,,,,,,,,,,,,,,,,,,,,,,,,,,001,24,2020_Jan_30_0932,spring_faces,3.2.3,59.967920161070495,
condition files/Stage0a.xlsx,0a,alpha,none,h,"['h', 'g']","['Chess', 'Go']","[0, 0.5]","[0, 0]",1,0,0,2,2,2,0,0,0,0,,,,,,,,,,,,,,,,,,,,,,,,,,,,,,,,,,,,,,,,,,,,,,,,,,,,,,,,,,,,,,,152.40671823999992,None,152.40671823999992,None,152.40671823999992,None,h,1,0.6924705350002114,153.94006123999998,None,153.94006123999998,None,153.94006123999998,None,154.69010241700016,None,154.69010241700016,None,154.69010241700016,None,154.69010241700016,None,,,,,,,,,,,,,,,,,,,,,,,,,,,,,,,,,,,,,,,,,,,,001,24,2020_Jan_30_0932,spring_faces,3.2.3,59.967920161070495,
condition files/Stage0a.xlsx,0a,beta,none,g,"['h', 'g']","['Chess', 'Go']","[0, 0.5]","[0, 0]",1,0,0,2,2,2,0,1,1,1,,,,,,,,,,,,,,,,,,,,,,,,,,,,,,,,,,,,,,,,,,,,,,,,,,,,,,,,,,,,,,,156.67341374200032,None,156.67341374200032,None,156.67341374200032,None,g,1,0.6658578470000975,158.2067240440001,None,158.2067240440001,None,158.2067240440001,None,158.94003555200015,None,158.94003555200015,None,158.94003555200015,None,158.94003555200015,None,,,,,,,,,,,,,,,,,,,,,,,,,,,,,,,,,,,,,,,,,,,,001,24,2020_Jan_30_0932,spring_faces,3.2.3,59.967920161070495,
condition files/Stage0a.xlsx,0a,beta,none,g,"['h', 'g']","['Chess', 'Go']","[0, 0.5]","[0, 0]",1,0,0,3,3,3,0,0,0,1,,,,,,,,,,,,,,,,,,,,,,,,,,,,,,,,,,,,,,,,,,,,,,,,,,,,,,,,,,,,,,,160.923367805,None,160.923367805,None,160.923367805,None,g,1,0.9436811649998162,162.456850045,None,162.456850045,None,162.456850045,None,163.45674824300022,None,163.45674824300022,None,163.45674824300022,None,163.45674824300022,None,,,,,,,,,,,,,,,,,,,,,,,,,,,,,,,,,,,,,,,,,,,,001,24,2020_Jan_30_0932,spring_faces,3.2.3,59.967920161070495,
condition files/Stage0a.xlsx,0a,alpha,none,h,"['h', 'g']","['Chess', 'Go']","[0, 0.5]","[0, 0]",1,0,0,3,3,3,0,1,1,0,,,,,,,,,,,,,,,,,,,,,,,,,,,,,,,,,,,,,,,,,,,,,,,,,,,,,,,,,,,,,,,165.44008659500014,None,165.44008659500014,None,165.44008659500014,None,h,1,0.7471902059996864,166.9733844719999,None,166.9733844719999,None,166.9733844719999,None,167.79006158600032,None,167.79006158600032,None,167.79006158600032,None,167.79006158600032,None,,,,,,,,,,,,,,,,,,,,,,,,,,,,,,,,,,,,,,,,,,,,001,24,2020_Jan_30_0932,spring_faces,3.2.3,59.967920161070495,
condition files/Stage0a.xlsx,0a,beta,none,g,"['h', 'g']","['Chess', 'Go']","[0, 0.5]","[0, 0]",1,0,0,4,4,4,0,0,0,1,,,,,,,,,,,,,,,,,,,,,,,,,,,,,,,,,,,,,,,,,,,,,,,,,,,,,,,,,,,,,,,169.77338735000012,None,169.77338735000012,None,169.77338735000012,None,g,1,0.5898453609997887,171.3066756410003,None,171.3066756410003,None,171.3066756410003,None,171.97341297899993,None,171.97341297899993,None,171.97341297899993,None,171.97341297899993,None,,,,,,,,,,,,,,,,,,,,,,,,,,,,,,,,,,,,,,,,,,,,001,24,2020_Jan_30_0932,spring_faces,3.2.3,59.967920161070495,
condition files/Stage0a.xlsx,0a,alpha,none,h,"['h', 'g']","['Chess', 'Go']","[0, 0.5]","[0, 0]",1,0,0,4,4,4,0,1,1,0,,,,,,,,,,,,,,,,,,,,,,,,,,,,,,,,,,,,,,,,,,,,,,,,,,,,,,,,,,,,,,,173.94008691099998,None,173.94008691099998,None,173.94008691099998,None,h,1,0.6471641610000916,175.47340716899998,None,175.47340716899998,None,175.47340716899998,None,176.1900768200003,None,176.1900768200003,None,176.1900768200003,None,176.1900768200003,None,,,,,,,,,,,,,,,,,,,,,,,,,,,,,,,,,,,,,,,,,,,,001,24,2020_Jan_30_0932,spring_faces,3.2.3,59.967920161070495,
condition files/Stage0a.xlsx,0a,beta,none,g,"['h', 'g']","['Chess', 'Go']","[0, 0.5]","[0, 0]",1,0,0,5,5,5,0,0,0,1,,,,,,,,,,,,,,,,,,,,,,,,,,,,,,,,,,,,,,,,,,,,,,,,,,,,,,,,,,,,,,,178.1733983510003,None,178.1733983510003,None,178.1733983510003,None,g,1,0.5418588590000581,179.70669326400002,None,179.70669326400002,None,179.70669326400002,None,180.30660582400014,None,180.30660582400014,None,180.30660582400014,None,180.30660582400014,None,,,,,,,,,,,,,,,,,,,,,,,,,,,,,,,,,,,,,,,,,,,,001,24,2020_Jan_30_0932,spring_faces,3.2.3,59.967920161070495,
condition files/Stage0a.xlsx,0a,alpha,none,h,"['h', 'g']","['Chess', 'Go']","[0, 0.5]","[0, 0]",1,0,0,5,5,5,0,1,1,0,,,,,,,,,,,,,,,,,,,,,,,,,,,,,,,,,,,,,,,,,,,,,,,,,,,,,,,,,,,,,,,182.29007826399993,None,182.29007826399993,None,182.29007826399993,None,h,1,0.37711268099974404,183.8234071920001,None,183.8234071920001,None,183.8234071920001,None,184.2733942220002,None,184.2733942220002,None,184.2733942220002,None,184.2733942220002,None,,,,,,,,,,,,,,,,,,,,,,,,,,,,,,,,,,,,,,,,,,,,001,24,2020_Jan_30_0932,spring_faces,3.2.3,59.967920161070495,
condition files/Stage0b_1.xlsx,0b,alpha,none,h,"['h', 'g']","['Chess', 'Go']","[-0.15, 0.5]","[0.15, 0.5]",1,0,0,6,6,6,0,0,0,0,,,,,,,,,,,,,,,,,,,,,,,,,,,,,,,,,,,,,,,,,,,,,,,,,,,,,,,,,,,,,,,186.3067403340001,None,186.3067403340001,None,186.3067403340001,None,h,1,0.6665191110000706,187.7900763790003,None,187.7900763790003,None,187.7900763790003,None,188.506673245,None,188.506673245,None,188.506673245,None,188.506673245,None,,,,,,,,,,,,,,,,,,,,,,,,,,,,,,,,,,,,,,,,,,,,001,24,2020_Jan_30_0932,spring_faces,3.2.3,59.967920161070495,
condition files/Stage0b_1.xlsx,0b,none,beta,g,"['h', 'g']","['Chess', 'Go']","[-0.15, 0.5]","[0.15, 0.5]",0,1,0,6,6,6,0,1,1,1,,,,,,,,,,,,,,,,,,,,,,,,,,,,,,,,,,,,,,,,,,,,,,,,,,,,,,,,,,,,,,,190.4900208449999,None,190.4900208449999,None,190.4900208449999,None,g,1,0.46455818999993426,192.04006854299996,None,192.04006854299996,None,192.04006854299996,None,192.573423199,None,192.573423199,None,192.573423199,None,192.573423199,None,,,,,,,,,,,,,,,,,,,,,,,,,,,,,,,,,,,,,,,,,,,,001,24,2020_Jan_30_0932,spring_faces,3.2.3,59.967920161070495,
condition files/Stage0b_2.xlsx,0b,beta,none,g,"['h', 'g']","['Chess', 'Go']","[-0.15, 0.5]","[0.15, 0.5]",1,0,0,7,7,7,0,0,0,1,,,,,,,,,,,,,,,,,,,,,,,,,,,,,,,,,,,,,,,,,,,,,,,,,,,,,,,,,,,,,,,194.59009648200026,None,194.59009648200026,None,194.59009648200026,None,g,1,0.7186969780000254,196.08975521599996,None,196.08975521599996,None,196.08975521599996,None,196.8900419050001,None,196.8900419050001,None,196.8900419050001,None,196.8900419050001,None,,,,,,,,,,,,,,,,,,,,,,,,,,,,,,,,,,,,,,,,,,,,001,24,2020_Jan_30_0932,spring_faces,3.2.3,59.967920161070495,
condition files/Stage0b_2.xlsx,0b,none,alpha,h,"['h', 'g']","['Chess', 'Go']","[-0.15, 0.5]","[0.15, 0.5]",0,1,0,7,7,7,0,1,1,0,,,,,,,,,,,,,,,,,,,,,,,,,,,,,,,,,,,,,,,,,,,,,,,,,,,,,,,,,,,,,,,198.8567563460001,None,198.8567563460001,None,198.8567563460001,None,h,1,0.37040495100018234,200.3900858310003,None,200.3900858310003,None,200.3900858310003,None,200.84008832000018,None,200.84008832000018,None,200.84008832000018,None,200.84008832000018,None,,,,,,,,,,,,,,,,,,,,,,,,,,,,,,,,,,,,,,,,,,,,001,24,2020_Jan_30_0932,spring_faces,3.2.3,59.967920161070495,
condition files/Stage0b_1.xlsx,0b,none,beta,g,"['h', 'g']","['Chess', 'Go']","[-0.15, 0.5]","[0.15, 0.5]",0,1,0,8,8,8,0,0,0,1,,,,,,,,,,,,,,,,,,,,,,,,,,,,,,,,,,,,,,,,,,,,,,,,,,,,,,,,,,,,,,,202.82342453799993,None,202.82342453799993,None,202.82342453799993,None,g,1,0.6277733130000342,204.35674778300017,None,204.35674778300017,None,204.35674778300017,None,205.0567373150002,None,205.0567373150002,None,205.0567373150002,None,205.0567373150002,None,,,,,,,,,,,,,,,,,,,,,,,,,,,,,,,,,,,,,,,,,,,,001,24,2020_Jan_30_0932,spring_faces,3.2.3,59.967920161070495,
condition files/Stage0b_1.xlsx,0b,alpha,none,h,"['h', 'g']","['Chess', 'Go']","[-0.15, 0.5]","[0.15, 0.5]",1,0,0,8,8,8,0,1,1,0,,,,,,,,,,,,,,,,,,,,,,,,,,,,,,,,,,,,,,,,,,,,,,,,,,,,,,,,,,,,,,,207.02341991899993,None,207.02341991899993,None,207.02341991899993,None,h,1,0.7001476639998145,208.55645916599997,None,208.55645916599997,None,208.55645916599997,None,209.32336972200028,None,209.32336972200028,None,209.32336972200028,None,209.32336972200028,None,,,,,,,,,,,,,,,,,,,,,,,,,,,,,,,,,,,,,,,,,,,,001,24,2020_Jan_30_0932,spring_faces,3.2.3,59.967920161070495,
condition files/Stage0b_2.xlsx,0b,beta,none,g,"['h', 'g']","['Chess', 'Go']","[-0.15, 0.5]","[0.15, 0.5]",1,0,0,9,9,9,0,0,0,1,,,,,,,,,,,,,,,,,,,,,,,,,,,,,,,,,,,,,,,,,,,,,,,,,,,,,,,,,,,,,,,211.30669862500008,None,211.30669862500008,None,211.30669862500008,None,g,1,0.7523770019997755,212.84010574900003,None,212.84010574900003,None,212.84010574900003,None,213.67335064400004,None,213.67335064400004,None,213.67335064400004,None,213.67335064400004,None,,,,,,,,,,,,,,,,,,,,,,,,,,,,,,,,,,,,,,,,,,,,001,24,2020_Jan_30_0932,spring_faces,3.2.3,59.967920161070495,
condition files/Stage0b_2.xlsx,0b,none,alpha,h,"['h', 'g']","['Chess', 'Go']","[-0.15, 0.5]","[0.15, 0.5]",0,1,0,9,9,9,0,1,1,0,,,,,,,,,,,,,,,,,,,,,,,,,,,,,,,,,,,,,,,,,,,,,,,,,,,,,,,,,,,,,,,215.6400541600001,None,215.6400541600001,None,215.6400541600001,None,h,1,0.5471555259996421,217.173413169,None,217.173413169,None,217.173413169,None,217.79007012500006,None,217.79007012500006,None,217.79007012500006,None,217.79007012500006,None,,,,,,,,,,,,,,,,,,,,,,,,,,,,,,,,,,,,,,,,,,,,001,24,2020_Jan_30_0932,spring_faces,3.2.3,59.967920161070495,
condition files/Stage0b_1.xlsx,0b,alpha,none,h,"['h', 'g']","['Chess', 'Go']","[-0.15, 0.5]","[0.15, 0.5]",1,0,0,10,10,10,0,0,0,0,,,,,,,,,,,,,,,,,,,,,,,,,,,,,,,,,,,,,,,,,,,,,,,,,,,,,,,,,,,,,,,219.77339010600008,None,219.77339010600008,None,219.77339010600008,None,h,1,0.6220777629996519,221.3064414620003,None,221.3064414620003,None,221.3064414620003,None,222.00675003700007,None,222.00675003700007,None,222.00675003700007,None,222.00675003700007,None,,,,,,,,,,,,,,,,,,,,,,,,,,,,,,,,,,,,,,,,,,,,001,24,2020_Jan_30_0932,spring_faces,3.2.3,59.967920161070495,
condition files/Stage0b_1.xlsx,0b,none,beta,g,"['h', 'g']","['Chess', 'Go']","[-0.15, 0.5]","[0.15, 0.5]",0,1,0,10,10,10,0,1,1,1,,,,,,,,,,,,,,,,,,,,,,,,,,,,,,,,,,,,,,,,,,,,,,,,,,,,,,,,,,,,,,,223.97340229700012,None,223.97340229700012,None,223.97340229700012,None,g,1,0.3897605100000874,225.50674729499997,None,225.50674729499997,None,225.50674729499997,None,225.9734014620003,None,225.9734014620003,None,225.9734014620003,None,225.9734014620003,None,,,,,,,,,,,,,,,,,,,,,,,,,,,,,,,,,,,,,,,,,,,,001,24,2020_Jan_30_0932,spring_faces,3.2.3,59.967920161070495,
condition files/Stage0b_2.xlsx,0b,beta,none,g,"['h', 'g']","['Chess', 'Go']","[-0.15, 0.5]","[0.15, 0.5]",1,0,0,11,11,11,0,0,0,1,,,,,,,,,,,,,,,,,,,,,,,,,,,,,,,,,,,,,,,,,,,,,,,,,,,,,,,,,,,,,,,227.95672251799988,None,227.95672251799988,None,227.95672251799988,None,g,1,0.9186639179997655,229.48978170400005,None,229.48978170400005,None,229.48978170400005,None,230.47302728500017,None,230.47302728500017,None,230.47302728500017,None,230.47302728500017,None,,,,,,,,,,,,,,,,,,,,,,,,,,,,,,,,,,,,,,,,,,,,001,24,2020_Jan_30_0932,spring_faces,3.2.3,59.967920161070495,
condition files/Stage0b_2.xlsx,0b,none,alpha,h,"['h', 'g']","['Chess', 'Go']","[-0.15, 0.5]","[0.15, 0.5]",0,1,0,11,11,11,0,1,1,0,,,,,,,,,,,,,,,,,,,,,,,,,,,,,,,,,,,,,,,,,,,,,,,,,,,,,,,,,,,,,,,232.45669690000022,None,232.45669690000022,None,232.45669690000022,None,g,0,1.7305173559998366,233.99005529100032,None,233.99005529100032,None,233.99005529100032,None,235.79007797700024,None,235.79007797700024,None,235.79007797700024,None,235.79007797700024,None,,,,,,,,,,,,,,,,,,,,,,,,,,,,,,,,,,,,,,,,,,,,001,24,2020_Jan_30_0932,spring_faces,3.2.3,59.967920161070495,
condition files/Stage0c_1.xlsx,0c,phi,beta,g,"['h', 'g']","['Chess', 'Go']","[-0.15, 0.5]","[0.15, 0.5]",1,1,0,12,12,12,0,0,0,3,,,,,,,,,,,,,,,,,,,,,,,,,,,,,,,,,,,,,,,,,,,,,,,,,,,,,,,,,,,,,,,237.80679585400003,None,237.80679585400003,None,237.80679585400003,None,g,1,3.532539659000122,239.34008488100017,None,239.34008488100017,None,239.34008488100017,None,242.9400069369999,None,242.9400069369999,None,242.9400069369999,None,242.9400069369999,None,,,,,,,,,,,,,,,,,,,,,,,,,,,,,,,,,,,,,,,,,,,,001,24,2020_Jan_30_0932,spring_faces,3.2.3,59.967920161070495,
condition files/Stage0c_1.xlsx,0c,beta,theta,g,"['h', 'g']","['Chess', 'Go']","[-0.15, 0.5]","[0.15, 0.5]",1,1,0,12,12,12,0,1,1,2,,,,,,,,,,,,,,,,,,,,,,,,,,,,,,,,,,,,,,,,,,,,,,,,,,,,,,,,,,,,,,,244.9066662580003,None,244.9066662580003,None,244.9066662580003,None,g,1,0.7670824599999833,246.47337099600009,None,246.47337099600009,None,246.47337099600009,None,247.30668873600007,None,247.30668873600007,None,247.30668873600007,None,247.30668873600007,None,,,,,,,,,,,,,,,,,,,,,,,,,,,,,,,,,,,,,,,,,,,,001,24,2020_Jan_30_0932,spring_faces,3.2.3,59.967920161070495,
condition files/Stage0c_1.xlsx,0c,alpha,phi,h,"['h', 'g']","['Chess', 'Go']","[-0.15, 0.5]","[0.15, 0.5]",1,1,0,12,12,12,0,2,2,1,,,,,,,,,,,,,,,,,,,,,,,,,,,,,,,,,,,,,,,,,,,,,,,,,,,,,,,,,,,,,,,249.290028033,None,249.290028033,None,249.290028033,None,h,1,0.672988192000048,250.82342756900016,None,250.82342756900016,None,250.82342756900016,None,251.5734178470002,None,251.5734178470002,None,251.5734178470002,None,251.5734178470002,None,,,,,,,,,,,,,,,,,,,,,,,,,,,,,,,,,,,,,,,,,,,,001,24,2020_Jan_30_0932,spring_faces,3.2.3,59.967920161070495,
condition files/Stage0c_1.xlsx,0c,theta,alpha,h,"['h', 'g']","['Chess', 'Go']","[-0.15, 0.5]","[0.15, 0.5]",1,1,0,12,12,12,0,3,3,0,,,,,,,,,,,,,,,,,,,,,,,,,,,,,,,,,,,,,,,,,,,,,,,,,,,,,,,,,,,,,,,253.54008206800017,None,253.54008206800017,None,253.54008206800017,None,h,1,0.856025972000225,255.05650710200007,None,255.05650710200007,None,255.05650710200007,None,255.97341636200008,None,255.97341636200008,None,255.97341636200008,None,255.97341636200008,None,,,,,,,,,,,,,,,,,,,,,,,,,,,,,,,,,,,,,,,,,,,,001,24,2020_Jan_30_0932,spring_faces,3.2.3,59.967920161070495,
condition files/Stage0c_2.xlsx,0c,phi,alpha,h,"['h', 'g']","['Chess', 'Go']","[-0.15, 0.5]","[0.15, 0.5]",1,1,0,13,13,13,0,0,0,1,,,,,,,,,,,,,,,,,,,,,,,,,,,,,,,,,,,,,,,,,,,,,,,,,,,,,,,,,,,,,,,258.2900907410003,None,258.2900907410003,None,258.2900907410003,None,h,1,0.40678013699971416,259.4897494720003,None,259.4897494720003,None,259.4897494720003,None,259.95658565600024,None,259.95658565600024,None,259.95658565600024,None,259.95658565600024,None,,,,,,,,,,,,,,,,,,,,,,,,,,,,,,,,,,,,,,,,,,,,001,24,2020_Jan_30_0932,spring_faces,3.2.3,59.967920161070495,
condition files/Stage0c_2.xlsx,0c,beta,phi,g,"['h', 'g']","['Chess', 'Go']","[-0.15, 0.5]","[0.15, 0.5]",1,1,0,13,13,13,0,1,1,3,,,,,,,,,,,,,,,,,,,,,,,,,,,,,,,,,,,,,,,,,,,,,,,,,,,,,,,,,,,,,,,261.94011308200015,None,261.94011308200015,None,261.94011308200015,None,g,1,0.37595616199996584,263.45657536,None,263.45657536,None,263.45657536,None,263.8900967970003,None,263.8900967970003,None,263.8900967970003,None,263.8900967970003,None,,,,,,,,,,,,,,,,,,,,,,,,,,,,,,,,,,,,,,,,,,,,001,24,2020_Jan_30_0932,spring_faces,3.2.3,59.967920161070495,
condition files/Stage0c_2.xlsx,0c,theta,beta,g,"['h', 'g']","['Chess', 'Go']","[-0.15, 0.5]","[0.15, 0.5]",1,1,0,13,13,13,0,2,2,2,,,,,,,,,,,,,,,,,,,,,,,,,,,,,,,,,,,,,,,,,,,,,,,,,,,,,,,,,,,,,,,265.8733877280001,None,265.8733877280001,None,265.8733877280001,None,g,1,0.665886657000101,267.406731432,None,267.406731432,None,267.406731432,None,268.1233685420002,None,268.1233685420002,None,268.1233685420002,None,268.1233685420002,None,,,,,,,,,,,,,,,,,,,,,,,,,,,,,,,,,,,,,,,,,,,,001,24,2020_Jan_30_0932,spring_faces,3.2.3,59.967920161070495,
condition files/Stage0c_2.xlsx,0c,alpha,theta,h,"['h', 'g']","['Chess', 'Go']","[-0.15, 0.5]","[0.15, 0.5]",1,1,0,13,13,13,0,3,3,0,,,,,,,,,,,,,,,,,,,,,,,,,,,,,,,,,,,,,,,,,,,,,,,,,,,,,,,,,,,,,,,270.10674392300007,None,270.10674392300007,None,270.10674392300007,None,h,1,0.6575010179999481,271.6229465000001,None,271.6229465000001,None,271.6229465000001,None,272.3400127059999,None,272.3400127059999,None,272.3400127059999,None,272.3400127059999,None,,,,,,,,,,,,,,,,,,,,,,,,,,,,,,,,,,,,,,,,,,,,001,24,2020_Jan_30_0932,spring_faces,3.2.3,59.967920161070495,
condition files/Stage0c_1.xlsx,0c,phi,beta,g,"['h', 'g']","['Chess', 'Go']","[-0.15, 0.5]","[0.15, 0.5]",1,1,0,14,14,14,0,0,0,3,,,,,,,,,,,,,,,,,,,,,,,,,,,,,,,,,,,,,,,,,,,,,,,,,,,,,,,,,,,,,,,274.3400611930001,None,274.3400611930001,None,274.3400611930001,None,g,1,0.6319204840001476,275.8567329100001,None,275.8567329100001,None,275.8567329100001,None,276.540079545,None,276.540079545,None,276.540079545,None,276.540079545,None,,,,,,,,,,,,,,,,,,,,,,,,,,,,,,,,,,,,,,,,,,,,001,24,2020_Jan_30_0932,spring_faces,3.2.3,59.967920161070495,
condition files/Stage0c_1.xlsx,0c,theta,alpha,h,"['h', 'g']","['Chess', 'Go']","[-0.15, 0.5]","[0.15, 0.5]",1,1,0,14,14,14,0,1,1,0,,,,,,,,,,,,,,,,,,,,,,,,,,,,,,,,,,,,,,,,,,,,,,,,,,,,,,,,,,,,,,,278.5234181210003,None,278.5234181210003,None,278.5234181210003,None,h,1,1.0397743659996195,280.0567340990001,None,280.0567340990001,None,280.0567340990001,None,281.1567369950003,None,281.1567369950003,None,281.1567369950003,None,281.1567369950003,None,,,,,,,,,,,,,,,,,,,,,,,,,,,,,,,,,,,,,,,,,,,,001,24,2020_Jan_30_0932,spring_faces,3.2.3,59.967920161070495,
condition files/Stage0c_1.xlsx,0c,beta,theta,g,"['h', 'g']","['Chess', 'Go']","[-0.15, 0.5]","[0.15, 0.5]",1,1,0,14,14,14,0,2,2,2,,,,,,,,,,,,,,,,,,,,,,,,,,,,,,,,,,,,,,,,,,,,,,,,,,,,,,,,,,,,,,,283.1400836400003,None,283.1400836400003,None,283.1400836400003,None,g,1,0.6481950849997702,284.65643243700015,None,284.65643243700015,None,284.65643243700015,None,285.35665492399994,None,285.35665492399994,None,285.35665492399994,None,285.35665492399994,None,,,,,,,,,,,,,,,,,,,,,,,,,,,,,,,,,,,,,,,,,,,,001,24,2020_Jan_30_0932,spring_faces,3.2.3,59.967920161070495,
condition files/Stage0c_1.xlsx,0c,alpha,phi,h,"['h', 'g']","['Chess', 'Go']","[-0.15, 0.5]","[0.15, 0.5]",1,1,0,14,14,14,0,3,3,1,,,,,,,,,,,,,,,,,,,,,,,,,,,,,,,,,,,,,,,,,,,,,,,,,,,,,,,,,,,,,,,287.34006617600016,None,287.34006617600016,None,287.34006617600016,None,h,1,0.7031626200000574,288.8733523210003,None,288.8733523210003,None,288.8733523210003,None,289.6400614879999,None,289.6400614879999,None,289.6400614879999,None,289.6400614879999,None,,,,,,,,,,,,,,,,,,,,,,,,,,,,,,,,,,,,,,,,,,,,001,24,2020_Jan_30_0932,spring_faces,3.2.3,59.967920161070495,
condition files/Stage0c_2.xlsx,0c,theta,beta,g,"['h', 'g']","['Chess', 'Go']","[-0.15, 0.5]","[0.15, 0.5]",1,1,0,15,15,15,0,0,0,2,,,,,,,,,,,,,,,,,,,,,,,,,,,,,,,,,,,,,,,,,,,,,,,,,,,,,,,,,,,,,,,291.64007927800003,None,291.64007927800003,None,291.64007927800003,None,g,1,1.188164585999857,293.15635765100023,None,293.15635765100023,None,293.15635765100023,None,294.4067356600003,None,294.4067356600003,None,294.4067356600003,None,294.4067356600003,None,,,,,,,,,,,,,,,,,,,,,,,,,,,,,,,,,,,,,,,,,,,,001,24,2020_Jan_30_0932,spring_faces,3.2.3,59.967920161070495,
condition files/Stage0c_2.xlsx,0c,beta,phi,g,"['h', 'g']","['Chess', 'Go']","[-0.15, 0.5]","[0.15, 0.5]",1,1,0,15,15,15,0,1,1,3,,,,,,,,,,,,,,,,,,,,,,,,,,,,,,,,,,,,,,,,,,,,,,,,,,,,,,,,,,,,,,,296.3900927720001,None,296.3900927720001,None,296.3900927720001,None,h,0,0.6778539639999508,297.9066556450002,None,297.9066556450002,None,297.9066556450002,None,298.64005221100024,None,298.64005221100024,None,298.64005221100024,None,298.64005221100024,None,,,,,,,,,,,,,,,,,,,,,,,,,,,,,,,,,,,,,,,,,,,,001,24,2020_Jan_30_0932,spring_faces,3.2.3,59.967920161070495,
condition files/Stage0c_2.xlsx,0c,phi,alpha,h,"['h', 'g']","['Chess', 'Go']","[-0.15, 0.5]","[0.15, 0.5]",1,1,0,15,15,15,0,2,2,1,,,,,,,,,,,,,,,,,,,,,,,,,,,,,,,,,,,,,,,,,,,,,,,,,,,,,,,,,,,,,,,300.623426139,None,300.623426139,None,300.623426139,None,h,1,0.9888642880000589,302.1396627600002,None,302.1396627600002,None,302.1396627600002,None,303.1900897380001,None,303.1900897380001,None,303.1900897380001,None,303.1900897380001,None,,,,,,,,,,,,,,,,,,,,,,,,,,,,,,,,,,,,,,,,,,,,001,24,2020_Jan_30_0932,spring_faces,3.2.3,59.967920161070495,
condition files/Stage0c_2.xlsx,0c,alpha,theta,h,"['h', 'g']","['Chess', 'Go']","[-0.15, 0.5]","[0.15, 0.5]",1,1,0,15,15,15,0,3,3,0,,,,,,,,,,,,,,,,,,,,,,,,,,,,,,,,,,,,,,,,,,,,,,,,,,,,,,,,,,,,,,,305.1733932709999,None,305.1733932709999,None,305.1733932709999,None,h,1,1.1577882100000352,306.7067307110001,None,306.7067307110001,None,306.7067307110001,None,307.923418161,None,307.923418161,None,307.923418161,None,307.923418161,None,,,,,,,,,,,,,,,,,,,,,,,,,,,,,,,,,,,,,,,,,,,,001,24,2020_Jan_30_0932,spring_faces,3.2.3,59.967920161070495,
condition files/Stage0c_1.xlsx,0c,phi,beta,g,"['h', 'g']","['Chess', 'Go']","[-0.15, 0.5]","[0.15, 0.5]",1,1,0,16,16,16,0,0,0,3,,,,,,,,,,,,,,,,,,,,,,,,,,,,,,,,,,,,,,,,,,,,,,,,,,,,,,,,,,,,,,,309.9233961240002,None,309.9233961240002,None,309.9233961240002,None,g,1,0.6318998280003143,311.4567286290003,None,311.4567286290003,None,311.4567286290003,None,312.1400415080002,None,312.1400415080002,None,312.1400415080002,None,312.1400415080002,None,,,,,,,,,,,,,,,,,,,,,,,,,,,,,,,,,,,,,,,,,,,,001,24,2020_Jan_30_0932,spring_faces,3.2.3,59.967920161070495,
condition files/Stage0c_1.xlsx,0c,theta,alpha,h,"['h', 'g']","['Chess', 'Go']","[-0.15, 0.5]","[0.15, 0.5]",1,1,0,16,16,16,0,1,1,0,,,,,,,,,,,,,,,,,,,,,,,,,,,,,,,,,,,,,,,,,,,,,,,,,,,,,,,,,,,,,,,314.12332734200027,None,314.12332734200027,None,314.12332734200027,None,h,1,0.8329806500000814,315.6396416450002,None,315.6396416450002,None,315.6396416450002,None,316.5234438100001,None,316.5234438100001,None,316.5234438100001,None,316.5234438100001,None,,,,,,,,,,,,,,,,,,,,,,,,,,,,,,,,,,,,,,,,,,,,001,24,2020_Jan_30_0932,spring_faces,3.2.3,59.967920161070495,
condition files/Stage0c_1.xlsx,0c,alpha,phi,h,"['h', 'g']","['Chess', 'Go']","[-0.15, 0.5]","[0.15, 0.5]",1,1,0,16,16,16,0,2,2,1,,,,,,,,,,,,,,,,,,,,,,,,,,,,,,,,,,,,,,,,,,,,,,,,,,,,,,,,,,,,,,,318.50672492800004,None,318.50672492800004,None,318.50672492800004,None,h,1,0.9935357260001183,320.0229998489999,None,320.0229998489999,None,320.0229998489999,None,321.0734210170003,None,321.0734210170003,None,321.0734210170003,None,321.0734210170003,None,,,,,,,,,,,,,,,,,,,,,,,,,,,,,,,,,,,,,,,,,,,,001,24,2020_Jan_30_0932,spring_faces,3.2.3,59.967920161070495,
condition files/Stage0c_1.xlsx,0c,beta,theta,g,"['h', 'g']","['Chess', 'Go']","[-0.15, 0.5]","[0.15, 0.5]",1,1,0,16,16,16,0,3,3,2,,,,,,,,,,,,,,,,,,,,,,,,,,,,,,,,,,,,,,,,,,,,,,,,,,,,,,,,,,,,,,,323.05676348199995,None,323.05676348199995,None,323.05676348199995,None,g,1,0.5235099910000827,324.5730074799999,None,324.5730074799999,None,324.5730074799999,None,325.1567530000002,None,325.1567530000002,None,325.1567530000002,None,325.1567530000002,None,,,,,,,,,,,,,,,,,,,,,,,,,,,,,,,,,,,,,,,,,,,,001,24,2020_Jan_30_0932,spring_faces,3.2.3,59.967920161070495,
condition files/Stage0c_2.xlsx,0c,alpha,theta,h,"['h', 'g']","['Chess', 'Go']","[-0.15, 0.5]","[0.15, 0.5]",1,1,0,17,17,17,0,0,0,0,,,,,,,,,,,,,,,,,,,,,,,,,,,,,,,,,,,,,,,,,,,,,,,,,,,,,,,,,,,,,,,327.15672741100025,None,327.15672741100025,None,327.15672741100025,None,g,0,0.5831966209998427,328.67340453099996,None,328.67340453099996,None,328.67340453099996,None,329.30667646300026,None,329.30667646300026,None,329.30667646300026,None,329.30667646300026,None,,,,,,,,,,,,,,,,,,,,,,,,,,,,,,,,,,,,,,,,,,,,001,24,2020_Jan_30_0932,spring_faces,3.2.3,59.967920161070495,
condition files/Stage0c_2.xlsx,0c,beta,phi,g,"['h', 'g']","['Chess', 'Go']","[-0.15, 0.5]","[0.15, 0.5]",1,1,0,17,17,17,0,1,1,3,,,,,,,,,,,,,,,,,,,,,,,,,,,,,,,,,,,,,,,,,,,,,,,,,,,,,,,,,,,,,,,331.2900913560002,None,331.2900913560002,None,331.2900913560002,None,g,1,0.44997018899994146,332.80661893100023,None,332.80661893100023,None,332.80661893100023,None,333.30670379899993,None,333.30670379899993,None,333.30670379899993,None,333.30670379899993,None,,,,,,,,,,,,,,,,,,,,,,,,,,,,,,,,,,,,,,,,,,,,001,24,2020_Jan_30_0932,spring_faces,3.2.3,59.967920161070495,
condition files/Stage0c_2.xlsx,0c,phi,alpha,h,"['h', 'g']","['Chess', 'Go']","[-0.15, 0.5]","[0.15, 0.5]",1,1,0,17,17,17,0,2,2,1,,,,,,,,,,,,,,,,,,,,,,,,,,,,,,,,,,,,,,,,,,,,,,,,,,,,,,,,,,,,,,,335.289981893,None,335.289981893,None,335.289981893,None,h,1,0.37017787800004953,336.8063181890002,None,336.8063181890002,None,336.8063181890002,None,337.240064866,None,337.240064866,None,337.240064866,None,337.240064866,None,,,,,,,,,,,,,,,,,,,,,,,,,,,,,,,,,,,,,,,,,,,,001,24,2020_Jan_30_0932,spring_faces,3.2.3,59.967920161070495,
condition files/Stage0c_2.xlsx,0c,theta,beta,g,"['h', 'g']","['Chess', 'Go']","[-0.15, 0.5]","[0.15, 0.5]",1,1,0,17,17,17,0,3,3,2,,,,,,,,,,,,,,,,,,,,,,,,,,,,,,,,,,,,,,,,,,,,,,,,,,,,,,,,,,,,,,,339.2234486000002,None,339.2234486000002,None,339.2234486000002,None,g,1,0.9004150450000452,340.7400337070003,None,340.7400337070003,None,340.7400337070003,None,341.706688194,None,341.706688194,None,341.706688194,None,341.706688194,None,,,,,,,,,,,,,,,,,,,,,,,,,,,,,,,,,,,,,,,,,,,,001,24,2020_Jan_30_0932,spring_faces,3.2.3,59.967920161070495,
,,,,,,,,,,,,,,,,,,,,,,,,,,,,,,,,,,,,,,,,,,,,,,,,,,,,,,,,,,,,,,,,,,,,,,,,,,,,,,,,,,,,,,,,,,,,,,,,,,,,,,,,343.690007016,None,space,3.079031615999611,348.67341013700025,None,,,,,,,,,,,,,,,,,,,,,,,,,,,,,,,,,,,,,,001,24,2020_Jan_30_0932,spring_faces,3.2.3,59.967920161070495,
condition files/Stage1_1.xlsx,,B1,T2,c,"['c', 'm']","['Clue', 'Monopoly']","[-0.15, 0.5]","[0.15, 0.5]",1,1,,,,,,,,,0,0,0,0,0,0,0,1,,,,,,,,,,,,,,,,,,,,,,,,,,,,,,,,,,,,,,,,,,,,,,,,,,,,,,,351.85672455500026,None,351.85672455500026,None,351.85672455500026,None,c,1,3.1777645749998555,353.40677709500005,None,353.40677709500005,None,353.40677709500005,None,356.65630202500006,None,356.65630202500006,None,356.65630202500006,None,356.65630202500006,None,,,,,,,348.67341013700025,None,,,,,,,,,,,,,,,,,,,,,,,,,,,,,,,,,,,,001,24,2020_Jan_30_0932,spring_faces,3.2.3,59.967920161070495,
condition files/Stage1_1.xlsx,,T1,B1,c,"['c', 'm']","['Clue', 'Monopoly']","[-0.15, 0.5]","[0.15, 0.5]",1,1,,,,,,,,,0,0,0,0,0,1,1,0,,,,,,,,,,,,,,,,,,,,,,,,,,,,,,,,,,,,,,,,,,,,,,,,,,,,,,,358.623454861,None,358.623454861,None,358.623454861,None,c,1,1.754424181000104,360.190079643,None,360.190079643,None,360.190079643,None,362.00656513700005,None,362.00656513700005,None,362.00656513700005,None,362.00656513700005,None,,,,,,,,,,,,,,,,,,,,,,,,,,,,,,,,,,,,,,,,,,,,001,24,2020_Jan_30_0932,spring_faces,3.2.3,59.967920161070495,
condition files/Stage1_1.xlsx,,T4,B3,m,"['c', 'm']","['Clue', 'Monopoly']","[-0.15, 0.5]","[0.15, 0.5]",1,1,,,,,,,,,0,0,0,0,0,2,2,6,,,,,,,,,,,,,,,,,,,,,,,,,,,,,,,,,,,,,,,,,,,,,,,,,,,,,,,363.99008138599993,None,363.99008138599993,None,363.99008138599993,None,m,1,1.2350068129999272,365.57342154800017,None,365.57342154800017,None,365.57342154800017,None,366.89002398,None,366.89002398,None,366.89002398,None,366.89002398,None,,,,,,,,,,,,,,,,,,,,,,,,,,,,,,,,,,,,,,,,,,,,001,24,2020_Jan_30_0932,spring_faces,3.2.3,59.967920161070495,
condition files/Stage1_1.xlsx,,B2,T1,m,"['c', 'm']","['Clue', 'Monopoly']","[-0.15, 0.5]","[0.15, 0.5]",1,1,,,,,,,,,0,0,0,0,0,3,3,2,,,,,,,,,,,,,,,,,,,,,,,,,,,,,,,,,,,,,,,,,,,,,,,,,,,,,,,368.8566588130002,None,368.8566588130002,None,368.8566588130002,None,c,0,1.0571027989999493,370.4234165890002,None,370.4234165890002,None,370.4234165890002,None,371.54003580100016,None,371.54003580100016,None,371.54003580100016,None,371.54003580100016,None,,,,,,,,,,,,,,,,,,,,,,,,,,,,,,,,,,,,,,,,,,,,001,24,2020_Jan_30_0932,spring_faces,3.2.3,59.967920161070495,
condition files/Stage1_1.xlsx,,B3,T3,c,"['c', 'm']","['Clue', 'Monopoly']","[-0.15, 0.5]","[0.15, 0.5]",1,1,,,,,,,,,0,0,0,0,0,4,4,4,,,,,,,,,,,,,,,,,,,,,,,,,,,,,,,,,,,,,,,,,,,,,,,,,,,,,,,373.5234447040002,None,373.5234447040002,None,373.5234447040002,None,m,0,2.245648996,375.1067725130001,None,375.1067725130001,None,375.1067725130001,None,377.42345727300017,None,377.42345727300017,None,377.42345727300017,None,377.42345727300017,None,,,,,,,,,,,,,,,,,,,,,,,,,,,,,,,,,,,,,,,,,,,,001,24,2020_Jan_30_0932,spring_faces,3.2.3,59.967920161070495,
condition files/Stage1_1.xlsx,,B4,T4,m,"['c', 'm']","['Clue', 'Monopoly']","[-0.15, 0.5]","[0.15, 0.5]",1,1,,,,,,,,,0,0,0,0,0,5,5,7,,,,,,,,,,,,,,,,,,,,,,,,,,,,,,,,,,,,,,,,,,,,,,,,,,,,,,,379.3900982330001,None,379.3900982330001,None,379.3900982330001,None,m,1,1.4524730129996897,380.9400286979999,None,380.9400286979999,None,380.9400286979999,None,382.47334549100015,None,382.47334549100015,None,382.47334549100015,None,382.47334549100015,None,,,,,,,,,,,,,,,,,,,,,,,,,,,,,,,,,,,,,,,,,,,,001,24,2020_Jan_30_0932,spring_faces,3.2.3,59.967920161070495,
condition files/Stage1_1.xlsx,,T2,B2,m,"['c', 'm']","['Clue', 'Monopoly']","[-0.15, 0.5]","[0.15, 0.5]",1,1,,,,,,,,,0,0,0,0,0,6,6,3,,,,,,,,,,,,,,,,,,,,,,,,,,,,,,,,,,,,,,,,,,,,,,,,,,,,,,,384.43996960699997,None,384.43996960699997,None,384.43996960699997,None,c,0,2.051031508000051,385.97340436800005,None,385.97340436800005,None,385.97340436800005,None,388.0900309200001,None,388.0900309200001,None,388.0900309200001,None,388.0900309200001,None,,,,,,,,,,,,,,,,,,,,,,,,,,,,,,,,,,,,,,,,,,,,001,24,2020_Jan_30_0932,spring_faces,3.2.3,59.967920161070495,
condition files/Stage1_1.xlsx,,T3,B4,c,"['c', 'm']","['Clue', 'Monopoly']","[-0.15, 0.5]","[0.15, 0.5]",1,1,,,,,,,,,0,0,0,0,0,7,7,5,,,,,,,,,,,,,,,,,,,,,,,,,,,,,,,,,,,,,,,,,,,,,,,,,,,,,,,390.0734389580002,None,390.0734389580002,None,390.0734389580002,None,c,1,1.3617931889998545,391.6067355959999,None,391.6067355959999,None,391.6067355959999,None,393.04008246500007,None,393.04008246500007,None,393.04008246500007,None,393.04008246500007,None,,,,,,,,,,,,,,,,,,,,,,,,,,,,,,,,,,,,,,,,,,,,001,24,2020_Jan_30_0932,spring_faces,3.2.3,59.967920161070495,
condition files/Stage1_2.xlsx,,T4,B4,m,"['c', 'm']","['Clue', 'Monopoly']","[-0.15, 0.5]","[0.15, 0.5]",1,1,,,,,,,,,0,1,1,1,0,0,0,7,,,,,,,,,,,,,,,,,,,,,,,,,,,,,,,,,,,,,,,,,,,,,,,,,,,,,,,395.34010002800005,None,395.34010002800005,None,395.34010002800005,None,m,1,1.0038045070000408,396.55672236600003,None,396.55672236600003,None,396.55672236600003,None,397.64007848500023,None,397.64007848500023,None,397.64007848500023,None,397.64007848500023,None,,,,,,,,,,,,,,,,,,,,,,,,,,,,,,,,,,,,,,,,,,,,001,24,2020_Jan_30_0932,spring_faces,3.2.3,59.967920161070495,
condition files/Stage1_2.xlsx,,B2,T2,m,"['c', 'm']","['Clue', 'Monopoly']","[-0.15, 0.5]","[0.15, 0.5]",1,1,,,,,,,,,0,1,1,1,0,1,1,3,,,,,,,,,,,,,,,,,,,,,,,,,,,,,,,,,,,,,,,,,,,,,,,,,,,,,,,399.606737779,None,399.606737779,None,399.606737779,None,m,1,0.7877551299998231,401.1567399149999,None,401.1567399149999,None,401.1567399149999,None,402.0066899440003,None,402.0066899440003,None,402.0066899440003,None,402.0066899440003,None,,,,,,,,,,,,,,,,,,,,,,,,,,,,,,,,,,,,,,,,,,,,001,24,2020_Jan_30_0932,spring_faces,3.2.3,59.967920161070495,
condition files/Stage1_2.xlsx,,T2,B1,c,"['c', 'm']","['Clue', 'Monopoly']","[-0.15, 0.5]","[0.15, 0.5]",1,1,,,,,,,,,0,1,1,1,0,2,2,1,,,,,,,,,,,,,,,,,,,,,,,,,,,,,,,,,,,,,,,,,,,,,,,,,,,,,,,403.9900552419999,None,403.9900552419999,None,403.9900552419999,None,m,0,0.997179493999738,405.523408003,None,405.523408003,None,405.523408003,None,406.590091691,None,406.590091691,None,406.590091691,None,406.590091691,None,,,,,,,,,,,,,,,,,,,,,,,,,,,,,,,,,,,,,,,,,,,,001,24,2020_Jan_30_0932,spring_faces,3.2.3,59.967920161070495,
condition files/Stage1_2.xlsx,,B4,T3,c,"['c', 'm']","['Clue', 'Monopoly']","[-0.15, 0.5]","[0.15, 0.5]",1,1,,,,,,,,,0,1,1,1,0,3,3,5,,,,,,,,,,,,,,,,,,,,,,,,,,,,,,,,,,,,,,,,,,,,,,,,,,,,,,,408.5567856820003,None,408.5567856820003,None,408.5567856820003,None,m,0,1.4544390460000614,410.0900841580001,None,410.0900841580001,None,410.0900841580001,None,411.6066906000001,None,411.6066906000001,None,411.6066906000001,None,411.6066906000001,None,,,,,,,,,,,,,,,,,,,,,,,,,,,,,,,,,,,,,,,,,,,,001,24,2020_Jan_30_0932,spring_faces,3.2.3,59.967920161070495,
condition files/Stage1_2.xlsx,,T1,B2,m,"['c', 'm']","['Clue', 'Monopoly']","[-0.15, 0.5]","[0.15, 0.5]",1,1,,,,,,,,,0,1,1,1,0,4,4,2,,,,,,,,,,,,,,,,,,,,,,,,,,,,,,,,,,,,,,,,,,,,,,,,,,,,,,,413.5900943720003,None,413.5900943720003,None,413.5900943720003,None,m,1,0.9170191500002147,415.12341670700016,None,415.12341670700016,None,415.12341670700016,None,416.1233995480002,None,416.1233995480002,None,416.1233995480002,None,416.1233995480002,None,,,,,,,,,,,,,,,,,,,,,,,,,,,,,,,,,,,,,,,,,,,,001,24,2020_Jan_30_0932,spring_faces,3.2.3,59.967920161070495,
condition files/Stage1_2.xlsx,,B1,T1,c,"['c', 'm']","['Clue', 'Monopoly']","[-0.15, 0.5]","[0.15, 0.5]",1,1,,,,,,,,,0,1,1,1,0,5,5,0,,,,,,,,,,,,,,,,,,,,,,,,,,,,,,,,,,,,,,,,,,,,,,,,,,,,,,,418.08999997499996,None,418.08999997499996,None,418.08999997499996,None,m,0,1.4891100459999507,419.6234004140001,None,419.6234004140001,None,419.6234004140001,None,421.1901071880002,None,421.1901071880002,None,421.1901071880002,None,421.1901071880002,None,,,,,,,,,,,,,,,,,,,,,,,,,,,,,,,,,,,,,,,,,,,,001,24,2020_Jan_30_0932,spring_faces,3.2.3,59.967920161070495,
condition files/Stage1_2.xlsx,,T3,B3,c,"['c', 'm']","['Clue', 'Monopoly']","[-0.15, 0.5]","[0.15, 0.5]",1,1,,,,,,,,,0,1,1,1,0,6,6,4,,,,,,,,,,,,,,,,,,,,,,,,,,,,,,,,,,,,,,,,,,,,,,,,,,,,,,,423.1567470069999,None,423.1567470069999,None,423.1567470069999,None,c,1,1.0464826669999638,424.69008971600033,None,424.69008971600033,None,424.69008971600033,None,425.8067709930001,None,425.8067709930001,None,425.8067709930001,None,425.8067709930001,None,,,,,,,,,,,,,,,,,,,,,,,,,,,,,,,,,,,,,,,,,,,,001,24,2020_Jan_30_0932,spring_faces,3.2.3,59.967920161070495,
condition files/Stage1_2.xlsx,,B3,T4,m,"['c', 'm']","['Clue', 'Monopoly']","[-0.15, 0.5]","[0.15, 0.5]",1,1,,,,,,,,,0,1,1,1,0,7,7,6,,,,,,,,,,,,,,,,,,,,,,,,,,,,,,,,,,,,,,,,,,,,,,,,,,,,,,,427.7733248950003,None,427.7733248950003,None,427.7733248950003,None,m,1,1.741856996000024,429.3066921130003,None,429.3066921130003,None,429.3066921130003,None,431.1234869650002,None,431.1234869650002,None,431.1234869650002,None,431.1234869650002,None,,,,,,,,,,,,,,,,,,,,,,,,,,,,,,,,,,,,,,,,,,,,001,24,2020_Jan_30_0932,spring_faces,3.2.3,59.967920161070495,
condition files/Stage1_1.xlsx,,B2,T1,m,"['c', 'm']","['Clue', 'Monopoly']","[-0.15, 0.5]","[0.15, 0.5]",1,1,,,,,,,,,0,2,2,2,0,0,0,2,,,,,,,,,,,,,,,,,,,,,,,,,,,,,,,,,,,,,,,,,,,,,,,,,,,,,,,433.10674799200024,None,433.10674799200024,None,433.10674799200024,None,c,0,1.7843617110002015,434.640083881,None,434.640083881,None,434.640083881,None,436.4899824419999,None,436.4899824419999,None,436.4899824419999,None,436.4899824419999,None,,,,,,,,,,,,,,,,,,,,,,,,,,,,,,,,,,,,,,,,,,,,001,24,2020_Jan_30_0932,spring_faces,3.2.3,59.967920161070495,
condition files/Stage1_1.xlsx,,T3,B4,c,"['c', 'm']","['Clue', 'Monopoly']","[-0.15, 0.5]","[0.15, 0.5]",1,1,,,,,,,,,0,2,2,2,0,1,1,5,,,,,,,,,,,,,,,,,,,,,,,,,,,,,,,,,,,,,,,,,,,,,,,,,,,,,,,438.47334820800006,None,438.47334820800006,None,438.47334820800006,None,c,1,1.9377845599997272,440.0067539060001,None,440.0067539060001,None,440.0067539060001,None,442.0234334840002,None,442.0234334840002,None,442.0234334840002,None,442.0234334840002,None,,,,,,,,,,,,,,,,,,,,,,,,,,,,,,,,,,,,,,,,,,,,001,24,2020_Jan_30_0932,spring_faces,3.2.3,59.967920161070495,
condition files/Stage1_1.xlsx,,B1,T2,c,"['c', 'm']","['Clue', 'Monopoly']","[-0.15, 0.5]","[0.15, 0.5]",1,1,,,,,,,,,0,2,2,2,0,2,2,1,,,,,,,,,,,,,,,,,,,,,,,,,,,,,,,,,,,,,,,,,,,,,,,,,,,,,,,443.9900899200002,None,443.9900899200002,None,443.9900899200002,None,m,0,0.8210750419998476,445.5234316169999,None,445.5234316169999,None,445.5234316169999,None,446.4065786260003,None,446.4065786260003,None,446.4065786260003,None,446.4065786260003,None,,,,,,,,,,,,,,,,,,,,,,,,,,,,,,,,,,,,,,,,,,,,001,24,2020_Jan_30_0932,spring_faces,3.2.3,59.967920161070495,
condition files/Stage1_1.xlsx,,T4,B3,m,"['c', 'm']","['Clue', 'Monopoly']","[-0.15, 0.5]","[0.15, 0.5]",1,1,,,,,,,,,0,2,2,2,0,3,3,6,,,,,,,,,,,,,,,,,,,,,,,,,,,,,,,,,,,,,,,,,,,,,,,,,,,,,,,448.39009713099995,None,448.39009713099995,None,448.39009713099995,None,m,1,1.1091143799999372,449.92341642400015,None,449.92341642400015,None,449.92341642400015,None,451.10676743600015,None,451.10676743600015,None,451.10676743600015,None,451.10676743600015,None,,,,,,,,,,,,,,,,,,,,,,,,,,,,,,,,,,,,,,,,,,,,001,24,2020_Jan_30_0932,spring_faces,3.2.3,59.967920161070495,
condition files/Stage1_1.xlsx,,T1,B1,c,"['c', 'm']","['Clue', 'Monopoly']","[-0.15, 0.5]","[0.15, 0.5]",1,1,,,,,,,,,0,2,2,2,0,4,4,0,,,,,,,,,,,,,,,,,,,,,,,,,,,,,,,,,,,,,,,,,,,,,,,,,,,,,,,453.0734345430001,None,453.0734345430001,None,453.0734345430001,None,m,0,1.25777344800008,454.60675455499995,None,454.60675455499995,None,454.60675455499995,None,455.9400672070001,None,455.9400672070001,None,455.9400672070001,None,455.9400672070001,None,,,,,,,,,,,,,,,,,,,,,,,,,,,,,,,,,,,,,,,,,,,,001,24,2020_Jan_30_0932,spring_faces,3.2.3,59.967920161070495,
condition files/Stage1_1.xlsx,,B4,T4,m,"['c', 'm']","['Clue', 'Monopoly']","[-0.15, 0.5]","[0.15, 0.5]",1,1,,,,,,,,,0,2,2,2,0,5,5,7,,,,,,,,,,,,,,,,,,,,,,,,,,,,,,,,,,,,,,,,,,,,,,,,,,,,,,,457.90674111,None,457.90674111,None,457.90674111,None,c,0,2.1044611099996473,459.44006106300003,None,459.44006106300003,None,459.44006106300003,None,461.62341113599996,None,461.62341113599996,None,461.62341113599996,None,461.62341113599996,None,,,,,,,,,,,,,,,,,,,,,,,,,,,,,,,,,,,,,,,,,,,,001,24,2020_Jan_30_0932,spring_faces,3.2.3,59.967920161070495,
condition files/Stage1_1.xlsx,,B3,T3,c,"['c', 'm']","['Clue', 'Monopoly']","[-0.15, 0.5]","[0.15, 0.5]",1,1,,,,,,,,,0,2,2,2,0,6,6,4,,,,,,,,,,,,,,,,,,,,,,,,,,,,,,,,,,,,,,,,,,,,,,,,,,,,,,,463.590094315,None,463.590094315,None,463.590094315,None,c,1,0.8052076909998505,465.12331975300003,None,465.12331975300003,None,465.12331975300003,None,466.0067275189999,None,466.0067275189999,None,466.0067275189999,None,466.0067275189999,None,,,,,,,,,,,,,,,,,,,,,,,,,,,,,,,,,,,,,,,,,,,,001,24,2020_Jan_30_0932,spring_faces,3.2.3,59.967920161070495,
condition files/Stage1_1.xlsx,,T2,B2,m,"['c', 'm']","['Clue', 'Monopoly']","[-0.15, 0.5]","[0.15, 0.5]",1,1,,,,,,,,,0,2,2,2,0,7,7,3,,,,,,,,,,,,,,,,,,,,,,,,,,,,,,,,,,,,,,,,,,,,,,,,,,,,,,,467.9733934200003,None,467.9733934200003,None,467.9733934200003,None,m,1,0.8538027959998544,469.50673045400026,None,469.50673045400026,None,469.50673045400026,None,470.440086952,None,470.440086952,None,470.440086952,None,470.440086952,None,,,,,,,,,,,,,,,,,,,,,,,,,,,,,,,,,,,,,,,,,,,,001,24,2020_Jan_30_0932,spring_faces,3.2.3,59.967920161070495,
condition files/Stage1_2.xlsx,,T4,B4,m,"['c', 'm']","['Clue', 'Monopoly']","[-0.15, 0.5]","[0.15, 0.5]",1,1,,,,,,,,,0,3,3,3,0,0,0,7,,,,,,,,,,,,,,,,,,,,,,,,,,,,,,,,,,,,,,,,,,,,,,,,,,,,,,,472.4234170190002,None,472.4234170190002,None,472.4234170190002,None,m,1,2.419755747000181,473.95676628599995,None,473.95676628599995,None,473.95676628599995,None,476.45671038699993,None,476.45671038699993,None,476.45671038699993,None,476.45671038699993,None,,,,,,,,,,,,,,,,,,,,,,,,,,,,,,,,,,,,,,,,,,,,001,24,2020_Jan_30_0932,spring_faces,3.2.3,59.967920161070495,
condition files/Stage1_2.xlsx,,B3,T4,m,"['c', 'm']","['Clue', 'Monopoly']","[-0.15, 0.5]","[0.15, 0.5]",1,1,,,,,,,,,0,3,3,3,0,1,1,6,,,,,,,,,,,,,,,,,,,,,,,,,,,,,,,,,,,,,,,,,,,,,,,,,,,,,,,478.42341969300014,None,478.42341969300014,None,478.42341969300014,None,c,0,2.483824716000072,479.9566507080003,None,479.9566507080003,None,479.9566507080003,None,482.5065812060002,None,482.5065812060002,None,482.5065812060002,None,482.5065812060002,None,,,,,,,,,,,,,,,,,,,,,,,,,,,,,,,,,,,,,,,,,,,,001,24,2020_Jan_30_0932,spring_faces,3.2.3,59.967920161070495,
condition files/Stage1_2.xlsx,,B4,T3,c,"['c', 'm']","['Clue', 'Monopoly']","[-0.15, 0.5]","[0.15, 0.5]",1,1,,,,,,,,,0,3,3,3,0,2,2,5,,,,,,,,,,,,,,,,,,,,,,,,,,,,,,,,,,,,,,,,,,,,,,,,,,,,,,,484.49001423300024,None,484.49001423300024,None,484.49001423300024,None,c,1,1.0890972950001014,486.02340753399994,None,486.02340753399994,None,486.02340753399994,None,487.1901100170003,None,487.1901100170003,None,487.1901100170003,None,487.1901100170003,None,,,,,,,,,,,,,,,,,,,,,,,,,,,,,,,,,,,,,,,,,,,,001,24,2020_Jan_30_0932,spring_faces,3.2.3,59.967920161070495,
condition files/Stage1_2.xlsx,,T1,B2,m,"['c', 'm']","['Clue', 'Monopoly']","[-0.15, 0.5]","[0.15, 0.5]",1,1,,,,,,,,,0,3,3,3,0,3,3,2,,,,,,,,,,,,,,,,,,,,,,,,,,,,,,,,,,,,,,,,,,,,,,,,,,,,,,,489.15678382900023,None,489.15678382900023,None,489.15678382900023,None,c,0,2.5825250570001117,490.6900924669999,None,490.6900924669999,None,490.6900924669999,None,493.34009043000015,None,493.34009043000015,None,493.34009043000015,None,493.34009043000015,None,,,,,,,,,,,,,,,,,,,,,,,,,,,,,,,,,,,,,,,,,,,,001,24,2020_Jan_30_0932,spring_faces,3.2.3,59.967920161070495,
condition files/Stage1_2.xlsx,,B1,T1,c,"['c', 'm']","['Clue', 'Monopoly']","[-0.15, 0.5]","[0.15, 0.5]",1,1,,,,,,,,,0,3,3,3,0,4,4,0,,,,,,,,,,,,,,,,,,,,,,,,,,,,,,,,,,,,,,,,,,,,,,,,,,,,,,,495.30668036099996,None,495.30668036099996,None,495.30668036099996,None,c,1,1.36042379599985,496.8400996989999,None,496.8400996989999,None,496.8400996989999,None,498.27339797700006,None,498.27339797700006,None,498.27339797700006,None,498.27339797700006,None,,,,,,,,,,,,,,,,,,,,,,,,,,,,,,,,,,,,,,,,,,,,001,24,2020_Jan_30_0932,spring_faces,3.2.3,59.967920161070495,
condition files/Stage1_2.xlsx,,B2,T2,m,"['c', 'm']","['Clue', 'Monopoly']","[-0.15, 0.5]","[0.15, 0.5]",1,1,,,,,,,,,0,3,3,3,0,5,5,3,,,,,,,,,,,,,,,,,,,,,,,,,,,,,,,,,,,,,,,,,,,,,,,,,,,,,,,500.24005994900017,None,500.24005994900017,None,500.24005994900017,None,c,0,2.699393289999989,501.77327138600003,None,501.77327138600003,None,501.77327138600003,None,504.54003215700004,None,504.54003215700004,None,504.54003215700004,None,504.54003215700004,None,,,,,,,,,,,,,,,,,,,,,,,,,,,,,,,,,,,,,,,,,,,,001,24,2020_Jan_30_0932,spring_faces,3.2.3,59.967920161070495,
condition files/Stage1_2.xlsx,,T2,B1,c,"['c', 'm']","['Clue', 'Monopoly']","[-0.15, 0.5]","[0.15, 0.5]",1,1,,,,,,,,,0,3,3,3,0,6,6,1,,,,,,,,,,,,,,,,,,,,,,,,,,,,,,,,,,,,,,,,,,,,,,,,,,,,,,,506.5067869120003,None,506.5067869120003,None,506.5067869120003,None,m,0,0.7523963819999153,508.0400879859999,None,508.0400879859999,None,508.0400879859999,None,508.873400985,None,508.873400985,None,508.873400985,None,508.873400985,None,,,,,,,,,,,,,,,,,,,,,,,,,,,,,,,,,,,,,,,,,,,,001,24,2020_Jan_30_0932,spring_faces,3.2.3,59.967920161070495,
condition files/Stage1_2.xlsx,,T3,B3,c,"['c', 'm']","['Clue', 'Monopoly']","[-0.15, 0.5]","[0.15, 0.5]",1,1,,,,,,,,,0,3,3,3,0,7,7,4,,,,,,,,,,,,,,,,,,,,,,,,,,,,,,,,,,,,,,,,,,,,,,,,,,,,,,,510.8400765639999,None,510.8400765639999,None,510.8400765639999,None,c,1,2.3071220920000997,512.3733991510003,None,512.3733991510003,None,512.3733991510003,None,514.7399697280002,None,514.7399697280002,None,514.7399697280002,None,514.7399697280002,None,,,,,,,,,,,,,,,,,,,,,,,,,,,,,,,,,,,,,,,,,,,,001,24,2020_Jan_30_0932,spring_faces,3.2.3,59.967920161070495,
condition files/Stage1_1.xlsx,,B1,T2,c,"['c', 'm']","['Clue', 'Monopoly']","[-0.15, 0.5]","[0.15, 0.5]",1,1,,,,,,,,,0,4,4,4,0,0,0,1,,,,,,,,,,,,,,,,,,,,,,,,,,,,,,,,,,,,,,,,,,,,,,,,,,,,,,,516.7400785350001,None,516.7400785350001,None,516.7400785350001,None,m,0,1.271096972000123,518.2734212240002,None,518.2734212240002,None,518.2734212240002,None,519.6065222679999,None,519.6065222679999,None,519.6065222679999,None,519.6065222679999,None,,,,,,,,,,,,,,,,,,,,,,,,,,,,,,,,,,,,,,,,,,,,001,24,2020_Jan_30_0932,spring_faces,3.2.3,59.967920161070495,
condition files/Stage1_1.xlsx,,T2,B2,m,"['c', 'm']","['Clue', 'Monopoly']","[-0.15, 0.5]","[0.15, 0.5]",1,1,,,,,,,,,0,4,4,4,0,1,1,3,,,,,,,,,,,,,,,,,,,,,,,,,,,,,,,,,,,,,,,,,,,,,,,,,,,,,,,521.5900907640003,None,521.5900907640003,None,521.5900907640003,None,m,1,0.9331703399998332,523.123415602,None,523.123415602,None,523.123415602,None,524.1233810660001,None,524.1233810660001,None,524.1233810660001,None,524.1233810660001,None,,,,,,,,,,,,,,,,,,,,,,,,,,,,,,,,,,,,,,,,,,,,001,24,2020_Jan_30_0932,spring_faces,3.2.3,59.967920161070495,
condition files/Stage1_1.xlsx,,B3,T3,c,"['c', 'm']","['Clue', 'Monopoly']","[-0.15, 0.5]","[0.15, 0.5]",1,1,,,,,,,,,0,4,4,4,0,2,2,4,,,,,,,,,,,,,,,,,,,,,,,,,,,,,,,,,,,,,,,,,,,,,,,,,,,,,,,526.0900112700001,None,526.0900112700001,None,526.0900112700001,None,c,1,0.43317598800013,527.6234255620002,None,527.6234255620002,None,527.6234255620002,None,528.12334921,None,528.12334921,None,528.12334921,None,528.12334921,None,,,,,,,,,,,,,,,,,,,,,,,,,,,,,,,,,,,,,,,,,,,,001,24,2020_Jan_30_0932,spring_faces,3.2.3,59.967920161070495,
condition files/Stage1_1.xlsx,,T3,B4,c,"['c', 'm']","['Clue', 'Monopoly']","[-0.15, 0.5]","[0.15, 0.5]",1,1,,,,,,,,,0,4,4,4,0,3,3,5,,,,,,,,,,,,,,,,,,,,,,,,,,,,,,,,,,,,,,,,,,,,,,,,,,,,,,,530.0899803820002,None,530.0899803820002,None,530.0899803820002,None,c,1,0.6571487030000753,531.6233992289999,None,531.6233992289999,None,531.6233992289999,None,532.3567542989999,None,532.3567542989999,None,532.3567542989999,None,532.3567542989999,None,,,,,,,,,,,,,,,,,,,,,,,,,,,,,,,,,,,,,,,,,,,,001,24,2020_Jan_30_0932,spring_faces,3.2.3,59.967920161070495,
condition files/Stage1_1.xlsx,,T4,B3,m,"['c', 'm']","['Clue', 'Monopoly']","[-0.15, 0.5]","[0.15, 0.5]",1,1,,,,,,,,,0,4,4,4,0,4,4,6,,,,,,,,,,,,,,,,,,,,,,,,,,,,,,,,,,,,,,,,,,,,,,,,,,,,,,,534.3234139360002,None,534.3234139360002,None,534.3234139360002,None,m,1,2.103760240000156,535.8567536979999,None,535.8567536979999,None,535.8567536979999,None,538.040093225,None,538.040093225,None,538.040093225,None,538.040093225,None,,,,,,,,,,,,,,,,,,,,,,,,,,,,,,,,,,,,,,,,,,,,001,24,2020_Jan_30_0932,spring_faces,3.2.3,59.967920161070495,
condition files/Stage1_1.xlsx,,B4,T4,m,"['c', 'm']","['Clue', 'Monopoly']","[-0.15, 0.5]","[0.15, 0.5]",1,1,,,,,,,,,0,4,4,4,0,5,5,7,,,,,,,,,,,,,,,,,,,,,,,,,,,,,,,,,,,,,,,,,,,,,,,,,,,,,,,540.0067940389999,None,540.0067940389999,None,540.0067940389999,None,m,1,1.8924421149999944,541.5400897940003,None,541.5400897940003,None,541.5400897940003,None,543.490063883,None,543.490063883,None,543.490063883,None,543.490063883,None,,,,,,,,,,,,,,,,,,,,,,,,,,,,,,,,,,,,,,,,,,,,001,24,2020_Jan_30_0932,spring_faces,3.2.3,59.967920161070495,
condition files/Stage1_1.xlsx,,B2,T1,m,"['c', 'm']","['Clue', 'Monopoly']","[-0.15, 0.5]","[0.15, 0.5]",1,1,,,,,,,,,0,4,4,4,0,6,6,2,,,,,,,,,,,,,,,,,,,,,,,,,,,,,,,,,,,,,,,,,,,,,,,,,,,,,,,545.4734287599999,None,545.4734287599999,None,545.4734287599999,None,c,0,2.9217500069999005,547.0067607310002,None,547.0067607310002,None,547.0067607310002,None,549.9900553299999,None,549.9900553299999,None,549.9900553299999,None,549.9900553299999,None,,,,,,,,,,,,,,,,,,,,,,,,,,,,,,,,,,,,,,,,,,,,001,24,2020_Jan_30_0932,spring_faces,3.2.3,59.967920161070495,
condition files/Stage1_1.xlsx,,T1,B1,c,"['c', 'm']","['Clue', 'Monopoly']","[-0.15, 0.5]","[0.15, 0.5]",1,1,,,,,,,,,0,4,4,4,0,7,7,0,,,,,,,,,,,,,,,,,,,,,,,,,,,,,,,,,,,,,,,,,,,,,,,,,,,,,,,551.9734284410001,None,551.9734284410001,None,551.9734284410001,None,m,0,1.013824883000325,553.5067651630002,None,553.5067651630002,None,553.5067651630002,None,554.5901064690001,None,554.5901064690001,None,554.5901064690001,None,554.5901064690001,None,,,,,,,,,,,,,,,,,,,,,,,,,,,,,,,,,,,,,,,,,,,,001,24,2020_Jan_30_0932,spring_faces,3.2.3,59.967920161070495,
condition files/Stage1_2.xlsx,,T3,B3,c,"['c', 'm']","['Clue', 'Monopoly']","[-0.15, 0.5]","[0.15, 0.5]",1,1,,,,,,,,,0,5,5,5,0,0,0,4,,,,,,,,,,,,,,,,,,,,,,,,,,,,,,,,,,,,,,,,,,,,,,,,,,,,,,,556.5734238740001,None,556.5734238740001,None,556.5734238740001,None,c,1,0.605829569999969,558.1067083800003,None,558.1067083800003,None,558.1067083800003,None,558.7734193169999,None,558.7734193169999,None,558.7734193169999,None,558.7734193169999,None,,,,,,,,,,,,,,,,,,,,,,,,,,,,,,,,,,,,,,,,,,,,001,24,2020_Jan_30_0932,spring_faces,3.2.3,59.967920161070495,
condition files/Stage1_2.xlsx,,B4,T3,c,"['c', 'm']","['Clue', 'Monopoly']","[-0.15, 0.5]","[0.15, 0.5]",1,1,,,,,,,,,0,5,5,5,0,1,1,5,,,,,,,,,,,,,,,,,,,,,,,,,,,,,,,,,,,,,,,,,,,,,,,,,,,,,,,560.7567844370001,None,560.7567844370001,None,560.7567844370001,None,c,1,0.5985468730000321,562.2900613470001,None,562.2900613470001,None,562.2900613470001,None,562.9400267790002,None,562.9400267790002,None,562.9400267790002,None,562.9400267790002,None,,,,,,,,,,,,,,,,,,,,,,,,,,,,,,,,,,,,,,,,,,,,001,24,2020_Jan_30_0932,spring_faces,3.2.3,59.967920161070495,
condition files/Stage1_2.xlsx,,T4,B4,m,"['c', 'm']","['Clue', 'Monopoly']","[-0.15, 0.5]","[0.15, 0.5]",1,1,,,,,,,,,0,5,5,5,0,2,2,7,,,,,,,,,,,,,,,,,,,,,,,,,,,,,,,,,,,,,,,,,,,,,,,,,,,,,,,564.9233304160002,None,564.9233304160002,None,564.9233304160002,None,m,1,2.9918426230001387,566.456739453,None,566.456739453,None,566.456739453,None,569.5234256690001,None,569.5234256690001,None,569.5234256690001,None,569.5234256690001,None,,,,,,,,,,,,,,,,,,,,,,,,,,,,,,,,,,,,,,,,,,,,001,24,2020_Jan_30_0932,spring_faces,3.2.3,59.967920161070495,
condition files/Stage1_2.xlsx,,T2,B1,c,"['c', 'm']","['Clue', 'Monopoly']","[-0.15, 0.5]","[0.15, 0.5]",1,1,,,,,,,,,0,5,5,5,0,3,3,1,,,,,,,,,,,,,,,,,,,,,,,,,,,,,,,,,,,,,,,,,,,,,,,,,,,,,,,571.4901157920003,None,571.4901157920003,None,571.4901157920003,None,m,0,1.3690669399998114,573.02342288,None,573.02342288,None,573.02342288,None,574.4733482440001,None,574.4733482440001,None,574.4733482440001,None,574.4733482440001,None,,,,,,,,,,,,,,,,,,,,,,,,,,,,,,,,,,,,,,,,,,,,001,24,2020_Jan_30_0932,spring_faces,3.2.3,59.967920161070495,
condition files/Stage1_2.xlsx,,B1,T1,c,"['c', 'm']","['Clue', 'Monopoly']","[-0.15, 0.5]","[0.15, 0.5]",1,1,,,,,,,,,0,5,5,5,0,4,4,0,,,,,,,,,,,,,,,,,,,,,,,,,,,,,,,,,,,,,,,,,,,,,,,,,,,,,,,576.4400947720001,None,576.4400947720001,None,576.4400947720001,None,m,0,1.8271137360002285,577.9734246110002,None,577.9734246110002,None,577.9734246110002,None,579.856739461,None,579.856739461,None,579.856739461,None,579.856739461,None,,,,,,,,,,,,,,,,,,,,,,,,,,,,,,,,,,,,,,,,,,,,001,24,2020_Jan_30_0932,spring_faces,3.2.3,59.967920161070495,
condition files/Stage1_2.xlsx,,T1,B2,m,"['c', 'm']","['Clue', 'Monopoly']","[-0.15, 0.5]","[0.15, 0.5]",1,1,,,,,,,,,0,5,5,5,0,5,5,2,,,,,,,,,,,,,,,,,,,,,,,,,,,,,,,,,,,,,,,,,,,,,,,,,,,,,,,581.8400965810001,None,581.8400965810001,None,581.8400965810001,None,c,0,2.6350191909996283,583.373414008,None,583.373414008,None,583.373414008,None,586.0899860069999,None,586.0899860069999,None,586.0899860069999,None,586.0899860069999,None,,,,,,,,,,,,,,,,,,,,,,,,,,,,,,,,,,,,,,,,,,,,001,24,2020_Jan_30_0932,spring_faces,3.2.3,59.967920161070495,
condition files/Stage1_2.xlsx,,B2,T2,m,"['c', 'm']","['Clue', 'Monopoly']","[-0.15, 0.5]","[0.15, 0.5]",1,1,,,,,,,,,0,5,5,5,0,6,6,3,,,,,,,,,,,,,,,,,,,,,,,,,,,,,,,,,,,,,,,,,,,,,,,,,,,,,,,588.056718197,None,588.056718197,None,588.056718197,None,m,1,1.202371161999963,589.5901131260002,None,589.5901131260002,None,589.5901131260002,None,590.8567187010003,None,590.8567187010003,None,590.8567187010003,None,590.8567187010003,None,,,,,,,,,,,,,,,,,,,,,,,,,,,,,,,,,,,,,,,,,,,,001,24,2020_Jan_30_0932,spring_faces,3.2.3,59.967920161070495,
condition files/Stage1_2.xlsx,,B3,T4,m,"['c', 'm']","['Clue', 'Monopoly']","[-0.15, 0.5]","[0.15, 0.5]",1,1,,,,,,,,,0,5,5,5,0,7,7,6,,,,,,,,,,,,,,,,,,,,,,,,,,,,,,,,,,,,,,,,,,,,,,,,,,,,,,,592.8400949020001,None,592.8400949020001,None,592.8400949020001,None,c,0,2.035039074999986,594.3734003760001,None,594.3734003760001,None,594.3734003760001,None,596.490075963,None,596.490075963,None,596.490075963,None,596.490075963,None,,,,,,,,,,,,,,,,,,,,,,,,,,,,,,,,,,,,,,,,,,,,001,24,2020_Jan_30_0932,spring_faces,3.2.3,59.967920161070495,
condition files/Stage1_1.xlsx,,B2,T1,m,"['c', 'm']","['Clue', 'Monopoly']","[-0.15, 0.5]","[0.15, 0.5]",1,1,,,,,,,,,0,6,6,6,0,0,0,2,,,,,,,,,,,,,,,,,,,,,,,,,,,,,,,,,,,,,,,,,,,,,,,,,,,,,,,598.4733441610001,None,598.4733441610001,None,598.4733441610001,None,c,0,2.577813173999857,600.00673319,None,600.00673319,None,600.00673319,None,602.6567422520002,None,602.6567422520002,None,602.6567422520002,None,602.6567422520002,None,,,,,,,,,,,,,,,,,,,,,,,,,,,,,,,,,,,,,,,,,,,,001,24,2020_Jan_30_0932,spring_faces,3.2.3,59.967920161070495,
condition files/Stage1_1.xlsx,,B4,T4,m,"['c', 'm']","['Clue', 'Monopoly']","[-0.15, 0.5]","[0.15, 0.5]",1,1,,,,,,,,,0,6,6,6,0,1,1,7,,,,,,,,,,,,,,,,,,,,,,,,,,,,,,,,,,,,,,,,,,,,,,,,,,,,,,,604.6234133050002,None,604.6234133050002,None,604.6234133050002,None,c,0,1.8197674039997764,606.156739476,None,606.156739476,None,606.156739476,None,608.056760424,None,608.056760424,None,608.056760424,None,608.056760424,None,,,,,,,,,,,,,,,,,,,,,,,,,,,,,,,,,,,,,,,,,,,,001,24,2020_Jan_30_0932,spring_faces,3.2.3,59.967920161070495,
condition files/Stage1_1.xlsx,,T3,B4,c,"['c', 'm']","['Clue', 'Monopoly']","[-0.15, 0.5]","[0.15, 0.5]",1,1,,,,,,,,,0,6,6,6,0,2,2,5,,,,,,,,,,,,,,,,,,,,,,,,,,,,,,,,,,,,,,,,,,,,,,,,,,,,,,,610.0234731200003,None,610.0234731200003,None,610.0234731200003,None,c,1,0.7396717189999436,611.5567450799999,None,611.5567450799999,None,611.5567450799999,None,612.3734256749999,None,612.3734256749999,None,612.3734256749999,None,612.3734256749999,None,,,,,,,,,,,,,,,,,,,,,,,,,,,,,,,,,,,,,,,,,,,,001,24,2020_Jan_30_0932,spring_faces,3.2.3,59.967920161070495,
condition files/Stage1_1.xlsx,,B1,T2,c,"['c', 'm']","['Clue', 'Monopoly']","[-0.15, 0.5]","[0.15, 0.5]",1,1,,,,,,,,,0,6,6,6,0,3,3,1,,,,,,,,,,,,,,,,,,,,,,,,,,,,,,,,,,,,,,,,,,,,,,,,,,,,,,,614.3401171979999,None,614.3401171979999,None,614.3401171979999,None,m,0,2.4390719380003247,615.8734380340002,None,615.8734380340002,None,615.8734380340002,None,618.3900933330001,None,618.3900933330001,None,618.3900933330001,None,618.3900933330001,None,,,,,,,,,,,,,,,,,,,,,,,,,,,,,,,,,,,,,,,,,,,,001,24,2020_Jan_30_0932,spring_faces,3.2.3,59.967920161070495,
condition files/Stage1_1.xlsx,,B3,T3,c,"['c', 'm']","['Clue', 'Monopoly']","[-0.15, 0.5]","[0.15, 0.5]",1,1,,,,,,,,,0,6,6,6,0,4,4,4,,,,,,,,,,,,,,,,,,,,,,,,,,,,,,,,,,,,,,,,,,,,,,,,,,,,,,,620.356751757,None,620.356751757,None,620.356751757,None,c,1,0.7584261329998299,621.890105294,None,621.890105294,None,621.890105294,None,622.7067065350002,None,622.7067065350002,None,622.7067065350002,None,622.7067065350002,None,,,,,,,,,,,,,,,,,,,,,,,,,,,,,,,,,,,,,,,,,,,,001,24,2020_Jan_30_0932,spring_faces,3.2.3,59.967920161070495,
condition files/Stage1_1.xlsx,,T4,B3,m,"['c', 'm']","['Clue', 'Monopoly']","[-0.15, 0.5]","[0.15, 0.5]",1,1,,,,,,,,,0,6,6,6,0,5,5,6,,,,,,,,,,,,,,,,,,,,,,,,,,,,,,,,,,,,,,,,,,,,,,,,,,,,,,,624.6901089140001,None,624.6901089140001,None,624.6901089140001,None,m,1,1.80100411300009,626.2234333770002,None,626.2234333770002,None,626.2234333770002,None,628.1067074739999,None,628.1067074739999,None,628.1067074739999,None,628.1067074739999,None,,,,,,,,,,,,,,,,,,,,,,,,,,,,,,,,,,,,,,,,,,,,001,24,2020_Jan_30_0932,spring_faces,3.2.3,59.967920161070495,
condition files/Stage1_1.xlsx,,T1,B1,c,"['c', 'm']","['Clue', 'Monopoly']","[-0.15, 0.5]","[0.15, 0.5]",1,1,,,,,,,,,0,6,6,6,0,6,6,0,,,,,,,,,,,,,,,,,,,,,,,,,,,,,,,,,,,,,,,,,,,,,,,,,,,,,,,630.0733618570002,None,630.0733618570002,None,630.0733618570002,None,m,0,0.993743214999995,631.6067737660001,None,631.6067737660001,None,631.6067737660001,None,632.6734043800002,None,632.6734043800002,None,632.6734043800002,None,632.6734043800002,None,,,,,,,,,,,,,,,,,,,,,,,,,,,,,,,,,,,,,,,,,,,,001,24,2020_Jan_30_0932,spring_faces,3.2.3,59.967920161070495,
condition files/Stage1_1.xlsx,,T2,B2,m,"['c', 'm']","['Clue', 'Monopoly']","[-0.15, 0.5]","[0.15, 0.5]",1,1,,,,,,,,,0,6,6,6,0,7,7,3,,,,,,,,,,,,,,,,,,,,,,,,,,,,,,,,,,,,,,,,,,,,,,,,,,,,,,,634.6400773230002,None,634.6400773230002,None,634.6400773230002,None,c,0,1.2911339759998555,636.1733941299999,None,636.1733941299999,None,636.1733941299999,None,637.540093441,None,637.540093441,None,637.540093441,None,637.540093441,None,,,,,,,,,,,,,,,,,,,,,,,,,,,,,,,,,,,,,,,,,,,,001,24,2020_Jan_30_0932,spring_faces,3.2.3,59.967920161070495,
condition files/Stage1_2.xlsx,,T1,B2,m,"['c', 'm']","['Clue', 'Monopoly']","[-0.15, 0.5]","[0.15, 0.5]",1,1,,,,,,,,,0,7,7,7,0,0,0,2,,,,,,,,,,,,,,,,,,,,,,,,,,,,,,,,,,,,,,,,,,,,,,,,,,,,,,,639.523422926,None,639.523422926,None,639.523422926,None,c,0,1.8158894919997692,641.056752345,None,641.056752345,None,641.056752345,None,642.9233479059999,None,642.9233479059999,None,642.9233479059999,None,642.9233479059999,None,,,,,,,,,,,,,,,,,,,,,,,,,,,,,,,,,,,,,,,,,,,,001,24,2020_Jan_30_0932,spring_faces,3.2.3,59.967920161070495,
condition files/Stage1_2.xlsx,,B2,T2,m,"['c', 'm']","['Clue', 'Monopoly']","[-0.15, 0.5]","[0.15, 0.5]",1,1,,,,,,,,,0,7,7,7,0,1,1,3,,,,,,,,,,,,,,,,,,,,,,,,,,,,,,,,,,,,,,,,,,,,,,,,,,,,,,,644.9066705170003,None,644.9066705170003,None,644.9066705170003,None,m,1,1.7444547869999951,646.4400748130001,None,646.4400748130001,None,646.4400748130001,None,648.2400664790002,None,648.2400664790002,None,648.2400664790002,None,648.2400664790002,None,,,,,,,,,,,,,,,,,,,,,,,,,,,,,,,,,,,,,,,,,,,,001,24,2020_Jan_30_0932,spring_faces,3.2.3,59.967920161070495,
condition files/Stage1_2.xlsx,,B1,T1,c,"['c', 'm']","['Clue', 'Monopoly']","[-0.15, 0.5]","[0.15, 0.5]",1,1,,,,,,,,,0,7,7,7,0,2,2,0,,,,,,,,,,,,,,,,,,,,,,,,,,,,,,,,,,,,,,,,,,,,,,,,,,,,,,,650.2234579820001,None,650.2234579820001,None,650.2234579820001,None,c,1,2.283682448000036,651.7567563500002,None,651.7567563500002,None,651.7567563500002,None,654.1234061509999,None,654.1234061509999,None,654.1234061509999,None,654.1234061509999,None,,,,,,,,,,,,,,,,,,,,,,,,,,,,,,,,,,,,,,,,,,,,001,24,2020_Jan_30_0932,spring_faces,3.2.3,59.967920161070495,
condition files/Stage1_2.xlsx,,T2,B1,c,"['c', 'm']","['Clue', 'Monopoly']","[-0.15, 0.5]","[0.15, 0.5]",1,1,,,,,,,,,0,7,7,7,0,3,3,1,,,,,,,,,,,,,,,,,,,,,,,,,,,,,,,,,,,,,,,,,,,,,,,,,,,,,,,656.0899967200003,None,656.0899967200003,None,656.0899967200003,None,c,1,1.4411374609999257,657.6234019819999,None,657.6234019819999,None,657.6234019819999,None,659.1233915090002,None,659.1233915090002,None,659.1233915090002,None,659.1233915090002,None,,,,,,,,,,,,,,,,,,,,,,,,,,,,,,,,,,,,,,,,,,,,001,24,2020_Jan_30_0932,spring_faces,3.2.3,59.967920161070495,
condition files/Stage1_2.xlsx,,T4,B4,m,"['c', 'm']","['Clue', 'Monopoly']","[-0.15, 0.5]","[0.15, 0.5]",1,1,,,,,,,,,0,7,7,7,0,4,4,7,,,,,,,,,,,,,,,,,,,,,,,,,,,,,,,,,,,,,,,,,,,,,,,,,,,,,,,661.1067867280003,None,661.1067867280003,None,661.1067867280003,None,m,1,1.096498148000137,662.6400914700002,None,662.6400914700002,None,662.6400914700002,None,663.8067347320002,None,663.8067347320002,None,663.8067347320002,None,663.8067347320002,None,,,,,,,,,,,,,,,,,,,,,,,,,,,,,,,,,,,,,,,,,,,,001,24,2020_Jan_30_0932,spring_faces,3.2.3,59.967920161070495,
condition files/Stage1_2.xlsx,,B4,T3,c,"['c', 'm']","['Clue', 'Monopoly']","[-0.15, 0.5]","[0.15, 0.5]",1,1,,,,,,,,,0,7,7,7,0,5,5,5,,,,,,,,,,,,,,,,,,,,,,,,,,,,,,,,,,,,,,,,,,,,,,,,,,,,,,,665.7734226340003,None,665.7734226340003,None,665.7734226340003,None,c,1,0.9098516459998791,667.3067015760003,None,667.3067015760003,None,667.3067015760003,None,668.2900754340003,None,668.2900754340003,None,668.2900754340003,None,668.2900754340003,None,,,,,,,,,,,,,,,,,,,,,,,,,,,,,,,,,,,,,,,,,,,,001,24,2020_Jan_30_0932,spring_faces,3.2.3,59.967920161070495,
condition files/Stage1_2.xlsx,,B3,T4,m,"['c', 'm']","['Clue', 'Monopoly']","[-0.15, 0.5]","[0.15, 0.5]",1,1,,,,,,,,,0,7,7,7,0,6,6,6,,,,,,,,,,,,,,,,,,,,,,,,,,,,,,,,,,,,,,,,,,,,,,,,,,,,,,,670.256749871,None,670.256749871,None,670.256749871,None,m,1,1.6904604339997604,671.7900581580002,None,671.7900581580002,None,671.7900581580002,None,673.5567728999999,None,673.5567728999999,None,673.5567728999999,None,673.5567728999999,None,,,,,,,,,,,,,,,,,,,,,,,,,,,,,,,,,,,,,,,,,,,,001,24,2020_Jan_30_0932,spring_faces,3.2.3,59.967920161070495,
condition files/Stage1_2.xlsx,,T3,B3,c,"['c', 'm']","['Clue', 'Monopoly']","[-0.15, 0.5]","[0.15, 0.5]",1,1,,,,,,,,,0,7,7,7,0,7,7,4,,,,,,,,,,,,,,,,,,,,,,,,,,,,,,,,,,,,,,,,,,,,,,,,,,,,,,,675.5233139520001,None,675.5233139520001,None,675.5233139520001,None,c,1,0.6318602309997914,677.0567700199999,None,677.0567700199999,None,677.0567700199999,None,677.7567308570001,None,677.7567308570001,None,677.7567308570001,None,677.7567308570001,None,,,,,,,,,,,,,,,,,,,,,,,,,,,,,,,,,,,,,,,,,,,,001,24,2020_Jan_30_0932,spring_faces,3.2.3,59.967920161070495,
condition files/Stage1_1.xlsx,,T4,B3,m,"['c', 'm']","['Clue', 'Monopoly']","[-0.15, 0.5]","[0.15, 0.5]",1,1,,,,,,,,,0,8,8,8,0,0,0,6,,,,,,,,,,,,,,,,,,,,,,,,,,,,,,,,,,,,,,,,,,,,,,,,,,,,,,,679.7400212699999,None,679.7400212699999,None,679.7400212699999,None,m,1,1.05513378500018,681.2733960290002,None,681.2733960290002,None,681.2733960290002,None,682.4067637090002,None,682.4067637090002,None,682.4067637090002,None,682.4067637090002,None,,,,,,,,,,,,,,,,,,,,,,,,,,,,,,,,,,,,,,,,,,,,001,24,2020_Jan_30_0932,spring_faces,3.2.3,59.967920161070495,
condition files/Stage1_1.xlsx,,B3,T3,c,"['c', 'm']","['Clue', 'Monopoly']","[-0.15, 0.5]","[0.15, 0.5]",1,1,,,,,,,,,0,8,8,8,0,1,1,4,,,,,,,,,,,,,,,,,,,,,,,,,,,,,,,,,,,,,,,,,,,,,,,,,,,,,,,684.3734273360001,None,684.3734273360001,None,684.3734273360001,None,c,1,1.077756588000284,685.9067647780003,None,685.9067647780003,None,685.9067647780003,None,687.056759911,None,687.056759911,None,687.056759911,None,687.056759911,None,,,,,,,,,,,,,,,,,,,,,,,,,,,,,,,,,,,,,,,,,,,,001,24,2020_Jan_30_0932,spring_faces,3.2.3,59.967920161070495,
condition files/Stage1_1.xlsx,,T2,B2,m,"['c', 'm']","['Clue', 'Monopoly']","[-0.15, 0.5]","[0.15, 0.5]",1,1,,,,,,,,,0,8,8,8,0,2,2,3,,,,,,,,,,,,,,,,,,,,,,,,,,,,,,,,,,,,,,,,,,,,,,,,,,,,,,,689.0234491010001,None,689.0234491010001,None,689.0234491010001,None,c,0,3.9798174540001128,690.5567651730003,None,690.5567651730003,None,690.5567651730003,None,694.6067641970003,None,694.6067641970003,None,694.6067641970003,None,694.6067641970003,None,,,,,,,,,,,,,,,,,,,,,,,,,,,,,,,,,,,,,,,,,,,,001,24,2020_Jan_30_0932,spring_faces,3.2.3,59.967920161070495,
condition files/Stage1_1.xlsx,,B2,T1,m,"['c', 'm']","['Clue', 'Monopoly']","[-0.15, 0.5]","[0.15, 0.5]",1,1,,,,,,,,,0,8,8,8,0,3,3,2,,,,,,,,,,,,,,,,,,,,,,,,,,,,,,,,,,,,,,,,,,,,,,,,,,,,,,,696.5734605140001,None,696.5734605140001,None,696.5734605140001,None,m,1,1.2457401660003597,698.1067128960003,None,698.1067128960003,None,698.1067128960003,None,699.4066417460003,None,699.4066417460003,None,699.4066417460003,None,699.4066417460003,None,,,,,,,,,,,,,,,,,,,,,,,,,,,,,,,,,,,,,,,,,,,,001,24,2020_Jan_30_0932,spring_faces,3.2.3,59.967920161070495,
condition files/Stage1_1.xlsx,,T1,B1,c,"['c', 'm']","['Clue', 'Monopoly']","[-0.15, 0.5]","[0.15, 0.5]",1,1,,,,,,,,,0,8,8,8,0,4,4,0,,,,,,,,,,,,,,,,,,,,,,,,,,,,,,,,,,,,,,,,,,,,,,,,,,,,,,,701.390064751,None,701.390064751,None,701.390064751,None,m,0,0.9252468350000527,702.9232882649999,None,702.9232882649999,None,702.9232882649999,None,703.9234264330003,None,703.9234264330003,None,703.9234264330003,None,703.9234264330003,None,,,,,,,,,,,,,,,,,,,,,,,,,,,,,,,,,,,,,,,,,,,,001,24,2020_Jan_30_0932,spring_faces,3.2.3,59.967920161070495,
condition files/Stage1_1.xlsx,,T3,B4,c,"['c', 'm']","['Clue', 'Monopoly']","[-0.15, 0.5]","[0.15, 0.5]",1,1,,,,,,,,,0,8,8,8,0,5,5,5,,,,,,,,,,,,,,,,,,,,,,,,,,,,,,,,,,,,,,,,,,,,,,,,,,,,,,,705.890088014,None,705.890088014,None,705.890088014,None,c,1,0.7290323810002519,707.4234154250003,None,707.4234154250003,None,707.4234154250003,None,708.2066525790001,None,708.2066525790001,None,708.2066525790001,None,708.2066525790001,None,,,,,,,,,,,,,,,,,,,,,,,,,,,,,,,,,,,,,,,,,,,,001,24,2020_Jan_30_0932,spring_faces,3.2.3,59.967920161070495,
condition files/Stage1_1.xlsx,,B4,T4,m,"['c', 'm']","['Clue', 'Monopoly']","[-0.15, 0.5]","[0.15, 0.5]",1,1,,,,,,,,,0,8,8,8,0,6,6,7,,,,,,,,,,,,,,,,,,,,,,,,,,,,,,,,,,,,,,,,,,,,,,,,,,,,,,,710.1900993950003,None,710.1900993950003,None,710.1900993950003,None,c,0,1.1972251239999423,711.7233147420002,None,711.7233147420002,None,711.7233147420002,None,712.9900748670002,None,712.9900748670002,None,712.9900748670002,None,712.9900748670002,None,,,,,,,,,,,,,,,,,,,,,,,,,,,,,,,,,,,,,,,,,,,,001,24,2020_Jan_30_0932,spring_faces,3.2.3,59.967920161070495,
condition files/Stage1_1.xlsx,,B1,T2,c,"['c', 'm']","['Clue', 'Monopoly']","[-0.15, 0.5]","[0.15, 0.5]",1,1,,,,,,,,,0,8,8,8,0,7,7,1,,,,,,,,,,,,,,,,,,,,,,,,,,,,,,,,,,,,,,,,,,,,,,,,,,,,,,,714.9567242980002,None,714.9567242980002,None,714.9567242980002,None,c,1,3.182603944999755,716.4900275949999,None,716.4900275949999,None,716.4900275949999,None,719.7400830910001,None,719.7400830910001,None,719.7400830910001,None,719.7400830910001,None,,,,,,,,,,,,,,,,,,,,,,,,,,,,,,,,,,,,,,,,,,,,001,24,2020_Jan_30_0932,spring_faces,3.2.3,59.967920161070495,
condition files/Stage1_2.xlsx,,T1,B2,m,"['c', 'm']","['Clue', 'Monopoly']","[-0.15, 0.5]","[0.15, 0.5]",1,1,,,,,,,,,0,9,9,9,0,0,0,2,,,,,,,,,,,,,,,,,,,,,,,,,,,,,,,,,,,,,,,,,,,,,,,,,,,,,,,721.7234015290001,None,721.7234015290001,None,721.7234015290001,None,c,0,3.0878006620000633,723.2567328150003,None,723.2567328150003,None,723.2567328150003,None,726.4234276490001,None,726.4234276490001,None,726.4234276490001,None,726.4234276490001,None,,,,,,,,,,,,,,,,,,,,,,,,,,,,,,,,,,,,,,,,,,,,001,24,2020_Jan_30_0932,spring_faces,3.2.3,59.967920161070495,
condition files/Stage1_2.xlsx,,T4,B4,m,"['c', 'm']","['Clue', 'Monopoly']","[-0.15, 0.5]","[0.15, 0.5]",1,1,,,,,,,,,0,9,9,9,0,1,1,7,,,,,,,,,,,,,,,,,,,,,,,,,,,,,,,,,,,,,,,,,,,,,,,,,,,,,,,728.3901184690003,None,728.3901184690003,None,728.3901184690003,None,m,1,1.6370874859999276,729.9234295680003,None,729.9234295680003,None,729.9234295680003,None,731.623357814,None,731.623357814,None,731.623357814,None,731.623357814,None,,,,,,,,,,,,,,,,,,,,,,,,,,,,,,,,,,,,,,,,,,,,001,24,2020_Jan_30_0932,spring_faces,3.2.3,59.967920161070495,
condition files/Stage1_2.xlsx,,T2,B1,c,"['c', 'm']","['Clue', 'Monopoly']","[-0.15, 0.5]","[0.15, 0.5]",1,1,,,,,,,,,0,9,9,9,0,2,2,1,,,,,,,,,,,,,,,,,,,,,,,,,,,,,,,,,,,,,,,,,,,,,,,,,,,,,,,733.606736576,None,733.606736576,None,733.606736576,None,c,1,4.276454064000063,735.1400695410002,None,735.1400695410002,None,735.1400695410002,None,739.4900908029999,None,739.4900908029999,None,739.4900908029999,None,739.4900908029999,None,,,,,,,,,,,,,,,,,,,,,,,,,,,,,,,,,,,,,,,,,,,,001,24,2020_Jan_30_0932,spring_faces,3.2.3,59.967920161070495,
condition files/Stage1_2.xlsx,,B4,T3,c,"['c', 'm']","['Clue', 'Monopoly']","[-0.15, 0.5]","[0.15, 0.5]",1,1,,,,,,,,,0,9,9,9,0,3,3,5,,,,,,,,,,,,,,,,,,,,,,,,,,,,,,,,,,,,,,,,,,,,,,,,,,,,,,,741.4567518500003,None,741.4567518500003,None,741.4567518500003,None,c,1,1.1145410149997588,742.990084516,None,742.990084516,None,742.990084516,None,744.1733799630001,None,744.1733799630001,None,744.1733799630001,None,744.1733799630001,None,,,,,,,,,,,,,,,,,,,,,,,,,,,,,,,,,,,,,,,,,,,,001,24,2020_Jan_30_0932,spring_faces,3.2.3,59.967920161070495,
condition files/Stage1_2.xlsx,,T3,B3,c,"['c', 'm']","['Clue', 'Monopoly']","[-0.15, 0.5]","[0.15, 0.5]",1,1,,,,,,,,,0,9,9,9,0,4,4,4,,,,,,,,,,,,,,,,,,,,,,,,,,,,,,,,,,,,,,,,,,,,,,,,,,,,,,,746.1400030760001,None,746.1400030760001,None,746.1400030760001,None,c,1,0.8951722480001081,747.67336729,None,747.67336729,None,747.67336729,None,748.6400942949999,None,748.6400942949999,None,748.6400942949999,None,748.6400942949999,None,,,,,,,,,,,,,,,,,,,,,,,,,,,,,,,,,,,,,,,,,,,,001,24,2020_Jan_30_0932,spring_faces,3.2.3,59.967920161070495,
condition files/Stage1_2.xlsx,,B1,T1,c,"['c', 'm']","['Clue', 'Monopoly']","[-0.15, 0.5]","[0.15, 0.5]",1,1,,,,,,,,,0,9,9,9,0,5,5,0,,,,,,,,,,,,,,,,,,,,,,,,,,,,,,,,,,,,,,,,,,,,,,,,,,,,,,,750.606751927,None,750.606751927,None,750.606751927,None,c,1,1.5165220839999165,752.140083715,None,752.140083715,None,752.140083715,None,753.7067257130002,None,753.7067257130002,None,753.7067257130002,None,753.7067257130002,None,,,,,,,,,,,,,,,,,,,,,,,,,,,,,,,,,,,,,,,,,,,,001,24,2020_Jan_30_0932,spring_faces,3.2.3,59.967920161070495,
condition files/Stage1_2.xlsx,,B2,T2,m,"['c', 'm']","['Clue', 'Monopoly']","[-0.15, 0.5]","[0.15, 0.5]",1,1,,,,,,,,,0,9,9,9,0,6,6,3,,,,,,,,,,,,,,,,,,,,,,,,,,,,,,,,,,,,,,,,,,,,,,,,,,,,,,,755.6899948539999,None,755.6899948539999,None,755.6899948539999,None,c,0,1.2332410770000024,757.2233691179999,None,757.2233691179999,None,757.2233691179999,None,758.5233911680002,None,758.5233911680002,None,758.5233911680002,None,758.5233911680002,None,,,,,,,,,,,,,,,,,,,,,,,,,,,,,,,,,,,,,,,,,,,,001,24,2020_Jan_30_0932,spring_faces,3.2.3,59.967920161070495,
condition files/Stage1_2.xlsx,,B3,T4,m,"['c', 'm']","['Clue', 'Monopoly']","[-0.15, 0.5]","[0.15, 0.5]",1,1,,,,,,,,,0,9,9,9,0,7,7,6,,,,,,,,,,,,,,,,,,,,,,,,,,,,,,,,,,,,,,,,,,,,,,,,,,,,,,,760.4900993420001,None,760.4900993420001,None,760.4900993420001,None,m,1,1.2170048390003103,762.0234391849999,None,762.0234391849999,None,762.0234391849999,None,763.306696395,None,763.306696395,None,763.306696395,None,763.306696395,None,,,,,,,,,,,,,,,,,,,,,,,,,,,,,,,,,,,,,,,,,,,,001,24,2020_Jan_30_0932,spring_faces,3.2.3,59.967920161070495,
condition files/Stage1_1.xlsx,,T2,B2,m,"['c', 'm']","['Clue', 'Monopoly']","[-0.15, 0.5]","[0.15, 0.5]",1,1,,,,,,,,,0,10,10,10,0,0,0,3,,,,,,,,,,,,,,,,,,,,,,,,,,,,,,,,,,,,,,,,,,,,,,,,,,,,,,,765.3066982690002,None,765.3066982690002,None,765.3066982690002,None,m,1,1.9843587189998289,766.8400928870001,None,766.8400928870001,None,766.8400928870001,None,768.8900270170002,None,768.8900270170002,None,768.8900270170002,None,768.8900270170002,None,,,,,,,,,,,,,,,,,,,,,,,,,,,,,,,,,,,,,,,,,,,,001,24,2020_Jan_30_0932,spring_faces,3.2.3,59.967920161070495,
condition files/Stage1_1.xlsx,,B3,T3,c,"['c', 'm']","['Clue', 'Monopoly']","[-0.15, 0.5]","[0.15, 0.5]",1,1,,,,,,,,,0,10,10,10,0,1,1,4,,,,,,,,,,,,,,,,,,,,,,,,,,,,,,,,,,,,,,,,,,,,,,,,,,,,,,,770.8734476110003,None,770.8734476110003,None,770.8734476110003,None,c,1,1.121733309999854,772.4067785530001,None,772.4067785530001,None,772.4067785530001,None,773.6067523070001,None,773.6067523070001,None,773.6067523070001,None,773.6067523070001,None,,,,,,,,,,,,,,,,,,,,,,,,,,,,,,,,,,,,,,,,,,,,001,24,2020_Jan_30_0932,spring_faces,3.2.3,59.967920161070495,
condition files/Stage1_1.xlsx,,B1,T2,c,"['c', 'm']","['Clue', 'Monopoly']","[-0.15, 0.5]","[0.15, 0.5]",1,1,,,,,,,,,0,10,10,10,0,2,2,1,,,,,,,,,,,,,,,,,,,,,,,,,,,,,,,,,,,,,,,,,,,,,,,,,,,,,,,775.5734132590001,None,775.5734132590001,None,775.5734132590001,None,c,1,2.1016984879997835,777.1067378150001,None,777.1067378150001,None,777.1067378150001,None,779.2733073680001,None,779.2733073680001,None,779.2733073680001,None,779.2733073680001,None,,,,,,,,,,,,,,,,,,,,,,,,,,,,,,,,,,,,,,,,,,,,001,24,2020_Jan_30_0932,spring_faces,3.2.3,59.967920161070495,
condition files/Stage1_1.xlsx,,B2,T1,m,"['c', 'm']","['Clue', 'Monopoly']","[-0.15, 0.5]","[0.15, 0.5]",1,1,,,,,,,,,0,10,10,10,0,3,3,2,,,,,,,,,,,,,,,,,,,,,,,,,,,,,,,,,,,,,,,,,,,,,,,,,,,,,,,781.2567698319999,None,781.2567698319999,None,781.2567698319999,None,c,0,1.3784418340001139,782.790091802,None,782.790091802,None,782.790091802,None,784.240115011,None,784.240115011,None,784.240115011,None,784.240115011,None,,,,,,,,,,,,,,,,,,,,,,,,,,,,,,,,,,,,,,,,,,,,001,24,2020_Jan_30_0932,spring_faces,3.2.3,59.967920161070495,
condition files/Stage1_1.xlsx,,B4,T4,m,"['c', 'm']","['Clue', 'Monopoly']","[-0.15, 0.5]","[0.15, 0.5]",1,1,,,,,,,,,0,10,10,10,0,4,4,7,,,,,,,,,,,,,,,,,,,,,,,,,,,,,,,,,,,,,,,,,,,,,,,,,,,,,,,786.2067881620001,None,786.2067881620001,None,786.2067881620001,None,m,1,1.4365037490001669,787.740036226,None,787.740036226,None,787.740036226,None,789.25683119,None,789.25683119,None,789.25683119,None,789.25683119,None,,,,,,,,,,,,,,,,,,,,,,,,,,,,,,,,,,,,,,,,,,,,001,24,2020_Jan_30_0932,spring_faces,3.2.3,59.967920161070495,
condition files/Stage1_1.xlsx,,T4,B3,m,"['c', 'm']","['Clue', 'Monopoly']","[-0.15, 0.5]","[0.15, 0.5]",1,1,,,,,,,,,0,10,10,10,0,5,5,6,,,,,,,,,,,,,,,,,,,,,,,,,,,,,,,,,,,,,,,,,,,,,,,,,,,,,,,791.223454681,None,791.223454681,None,791.223454681,None,m,1,0.8357115700000577,792.7567855370003,None,792.7567855370003,None,792.7567855370003,None,793.6567977150003,None,793.6567977150003,None,793.6567977150003,None,793.6567977150003,None,,,,,,,,,,,,,,,,,,,,,,,,,,,,,,,,,,,,,,,,,,,,001,24,2020_Jan_30_0932,spring_faces,3.2.3,59.967920161070495,
condition files/Stage1_1.xlsx,,T1,B1,c,"['c', 'm']","['Clue', 'Monopoly']","[-0.15, 0.5]","[0.15, 0.5]",1,1,,,,,,,,,0,10,10,10,0,6,6,0,,,,,,,,,,,,,,,,,,,,,,,,,,,,,,,,,,,,,,,,,,,,,,,,,,,,,,,795.640075797,None,795.640075797,None,795.640075797,None,m,0,1.171105955999792,797.1734094420003,None,797.1734094420003,None,797.1734094420003,None,798.4234245520001,None,798.4234245520001,None,798.4234245520001,None,798.4234245520001,None,,,,,,,,,,,,,,,,,,,,,,,,,,,,,,,,,,,,,,,,,,,,001,24,2020_Jan_30_0932,spring_faces,3.2.3,59.967920161070495,
condition files/Stage1_1.xlsx,,T3,B4,c,"['c', 'm']","['Clue', 'Monopoly']","[-0.15, 0.5]","[0.15, 0.5]",1,1,,,,,,,,,0,10,10,10,0,7,7,5,,,,,,,,,,,,,,,,,,,,,,,,,,,,,,,,,,,,,,,,,,,,,,,,,,,,,,,800.3900713450003,None,800.3900713450003,None,800.3900713450003,None,c,1,0.6931219500002044,801.9234084760001,None,801.9234084760001,None,801.9234084760001,None,802.673467611,None,802.673467611,None,802.673467611,None,802.673467611,None,,,,,,,,,,,,,,,,,,,,,,,,,,,,,,,,,,,,,,,,,,,,001,24,2020_Jan_30_0932,spring_faces,3.2.3,59.967920161070495,
condition files/Stage1_2.xlsx,,T3,B3,c,"['c', 'm']","['Clue', 'Monopoly']","[-0.15, 0.5]","[0.15, 0.5]",1,1,,,,,,,,,0,11,11,11,0,0,0,4,,,,,,,,,,,,,,,,,,,,,,,,,,,,,,,,,,,,,,,,,,,,,,,,,,,,,,,804.6734065979999,None,804.6734065979999,None,804.6734065979999,None,c,1,0.7937877919998755,806.2067478640001,None,806.2067478640001,None,806.2067478640001,None,807.0567564329999,None,807.0567564329999,None,807.0567564329999,None,807.0567564329999,None,,,,,,,,,,,,,,,,,,,,,,,,,,,,,,,,,,,,,,,,,,,,001,24,2020_Jan_30_0932,spring_faces,3.2.3,59.967920161070495,
condition files/Stage1_2.xlsx,,T1,B2,m,"['c', 'm']","['Clue', 'Monopoly']","[-0.15, 0.5]","[0.15, 0.5]",1,1,,,,,,,,,0,11,11,11,0,1,1,2,,,,,,,,,,,,,,,,,,,,,,,,,,,,,,,,,,,,,,,,,,,,,,,,,,,,,,,809.0400812920002,None,809.0400812920002,None,809.0400812920002,None,c,0,2.299240438999732,810.573391119,None,810.573391119,None,810.573391119,None,812.940044168,None,812.940044168,None,812.940044168,None,812.940044168,None,,,,,,,,,,,,,,,,,,,,,,,,,,,,,,,,,,,,,,,,,,,,001,24,2020_Jan_30_0932,spring_faces,3.2.3,59.967920161070495,
condition files/Stage1_2.xlsx,,B4,T3,c,"['c', 'm']","['Clue', 'Monopoly']","[-0.15, 0.5]","[0.15, 0.5]",1,1,,,,,,,,,0,11,11,11,0,2,2,5,,,,,,,,,,,,,,,,,,,,,,,,,,,,,,,,,,,,,,,,,,,,,,,,,,,,,,,814.906537759,None,814.906537759,None,814.906537759,None,c,1,0.672401649999756,816.4401143270002,None,816.4401143270002,None,816.4401143270002,None,817.1901105390002,None,817.1901105390002,None,817.1901105390002,None,817.1901105390002,None,,,,,,,,,,,,,,,,,,,,,,,,,,,,,,,,,,,,,,,,,,,,001,24,2020_Jan_30_0932,spring_faces,3.2.3,59.967920161070495,
condition files/Stage1_2.xlsx,,B1,T1,c,"['c', 'm']","['Clue', 'Monopoly']","[-0.15, 0.5]","[0.15, 0.5]",1,1,,,,,,,,,0,11,11,11,0,3,3,0,,,,,,,,,,,,,,,,,,,,,,,,,,,,,,,,,,,,,,,,,,,,,,,,,,,,,,,819.1567714500002,None,819.1567714500002,None,819.1567714500002,None,m,0,1.1904045090000182,820.6901056050001,None,820.6901056050001,None,820.6901056050001,None,821.9400187320002,None,821.9400187320002,None,821.9400187320002,None,821.9400187320002,None,,,,,,,,,,,,,,,,,,,,,,,,,,,,,,,,,,,,,,,,,,,,001,24,2020_Jan_30_0932,spring_faces,3.2.3,59.967920161070495,
condition files/Stage1_2.xlsx,,B3,T4,m,"['c', 'm']","['Clue', 'Monopoly']","[-0.15, 0.5]","[0.15, 0.5]",1,1,,,,,,,,,0,11,11,11,0,4,4,6,,,,,,,,,,,,,,,,,,,,,,,,,,,,,,,,,,,,,,,,,,,,,,,,,,,,,,,823.9234575,None,823.9234575,None,823.9234575,None,m,1,1.1917669530002968,825.456769075,None,825.456769075,None,825.456769075,None,826.7234058640001,None,826.7234058640001,None,826.7234058640001,None,826.7234058640001,None,,,,,,,,,,,,,,,,,,,,,,,,,,,,,,,,,,,,,,,,,,,,001,24,2020_Jan_30_0932,spring_faces,3.2.3,59.967920161070495,
condition files/Stage1_2.xlsx,,T4,B4,m,"['c', 'm']","['Clue', 'Monopoly']","[-0.15, 0.5]","[0.15, 0.5]",1,1,,,,,,,,,0,11,11,11,0,5,5,7,,,,,,,,,,,,,,,,,,,,,,,,,,,,,,,,,,,,,,,,,,,,,,,,,,,,,,,828.6900787059999,None,828.6900787059999,None,828.6900787059999,None,m,1,2.041115391999938,830.2234228060001,None,830.2234228060001,None,830.2234228060001,None,832.3234233420003,None,832.3234233420003,None,832.3234233420003,None,832.3234233420003,None,,,,,,,,,,,,,,,,,,,,,,,,,,,,,,,,,,,,,,,,,,,,001,24,2020_Jan_30_0932,spring_faces,3.2.3,59.967920161070495,
condition files/Stage1_2.xlsx,,B2,T2,m,"['c', 'm']","['Clue', 'Monopoly']","[-0.15, 0.5]","[0.15, 0.5]",1,1,,,,,,,,,0,11,11,11,0,6,6,3,,,,,,,,,,,,,,,,,,,,,,,,,,,,,,,,,,,,,,,,,,,,,,,,,,,,,,,834.3067908510002,None,834.3067908510002,None,834.3067908510002,None,m,1,2.184328760000426,835.8401100629999,None,835.8401100629999,None,835.8401100629999,None,838.0900245890002,None,838.0900245890002,None,838.0900245890002,None,838.0900245890002,None,,,,,,,,,,,,,,,,,,,,,,,,,,,,,,,,,,,,,,,,,,,,001,24,2020_Jan_30_0932,spring_faces,3.2.3,59.967920161070495,
condition files/Stage1_2.xlsx,,T2,B1,c,"['c', 'm']","['Clue', 'Monopoly']","[-0.15, 0.5]","[0.15, 0.5]",1,1,,,,,,,,,0,11,11,11,0,7,7,1,,,,,,,,,,,,,,,,,,,,,,,,,,,,,,,,,,,,,,,,,,,,,,,,,,,,,,,840.0733621730001,None,840.0733621730001,None,840.0733621730001,None,c,1,2.9298238110000057,841.6067561270002,None,841.6067561270002,None,841.6067561270002,None,844.6067515650002,None,844.6067515650002,None,844.6067515650002,None,844.6067515650002,None,,,,,,,,,,,,,,,,,,,,,,,,,,,,,,,,,,,,,,,,,,,,001,24,2020_Jan_30_0932,spring_faces,3.2.3,59.967920161070495,
,,,,,,,,,,,,,,,,,,,,,,,,,,,,,,,,,,,,,,,,,,,,,,,,,,,,,,,,,,,,,,,,,,,,,,,,,,,,,,,,,,,,,,,,,,,,,,,,,,,,,,,,,,,,,,,,846.5734035149999,None,space,9.827789999000288,851.5567615479999,None,,,,,,,,,,,,,,,,,,,,,,,,,,,,,,001,24,2020_Jan_30_0932,spring_faces,3.2.3,59.967920161070495,
condition files/Stage2_1.xlsx,,B6,T6,r,"['s', 'r']","['Stratego', 'Risk']","[-0.15, 0.5]","[0.15, 0.5]",1,1,,,,,,,,,,,,,,,,,0,0,0,0,0,0,0,1,,,,,,,,,,,,,,,,,,,,,,,,,,,,,,,,,,,,,,,,,,,,,,,861.4731979970002,None,861.4731979970002,None,861.4731979970002,None,s,0,2.3465089510000325,862.9900996810002,None,862.9900996810002,None,862.9900996810002,None,865.4067594180001,None,865.4067594180001,None,865.4067594180001,None,865.4067594180001,None,,,,,,,,,,,,,,,851.5567615479999,None,,,,,,,,,,,,,,,,,,,,,,,,,,,,001,24,2020_Jan_30_0932,spring_faces,3.2.3,59.967920161070495,
condition files/Stage2_1.xlsx,,T1,B1,s,"['s', 'r']","['Stratego', 'Risk']","[-0.15, 0.5]","[0.15, 0.5]",1,1,,,,,,,,,,,,,,,,,0,0,0,0,0,1,1,2,,,,,,,,,,,,,,,,,,,,,,,,,,,,,,,,,,,,,,,,,,,,,,,867.3734136560001,None,867.3734136560001,None,867.3734136560001,None,r,0,2.397926517000087,868.9067178680002,None,868.9067178680002,None,868.9067178680002,None,871.3733948859999,None,871.3733948859999,None,871.3733948859999,None,871.3733948859999,None,,,,,,,,,,,,,,,,,,,,,,,,,,,,,,,,,,,,,,,,,,,,001,24,2020_Jan_30_0932,spring_faces,3.2.3,59.967920161070495,
condition files/Stage2_1.xlsx,,B2,T2,r,"['s', 'r']","['Stratego', 'Risk']","[-0.15, 0.5]","[0.15, 0.5]",1,1,,,,,,,,,,,,,,,,,0,0,0,0,0,2,2,3,,,,,,,,,,,,,,,,,,,,,,,,,,,,,,,,,,,,,,,,,,,,,,,873.3399953910002,None,873.3399953910002,None,873.3399953910002,None,r,1,2.047317875999852,874.873302594,None,874.873302594,None,874.873302594,None,876.9901082820002,None,876.9901082820002,None,876.9901082820002,None,876.9901082820002,None,,,,,,,,,,,,,,,,,,,,,,,,,,,,,,,,,,,,,,,,,,,,001,24,2020_Jan_30_0932,spring_faces,3.2.3,59.967920161070495,
condition files/Stage2_1.xlsx,,T3,B3,s,"['s', 'r']","['Stratego', 'Risk']","[-0.15, 0.5]","[0.15, 0.5]",1,1,,,,,,,,,,,,,,,,,0,0,0,0,0,3,3,4,,,,,,,,,,,,,,,,,,,,,,,,,,,,,,,,,,,,,,,,,,,,,,,878.9567502140003,None,878.9567502140003,None,878.9567502140003,None,r,0,0.9585371969997141,880.4900265030001,None,880.4900265030001,None,880.4900265030001,None,881.523435525,None,881.523435525,None,881.523435525,None,881.523435525,None,,,,,,,,,,,,,,,,,,,,,,,,,,,,,,,,,,,,,,,,,,,,001,24,2020_Jan_30_0932,spring_faces,3.2.3,59.967920161070495,
condition files/Stage2_1.xlsx,,B4,T4,r,"['s', 'r']","['Stratego', 'Risk']","[-0.15, 0.5]","[0.15, 0.5]",1,1,,,,,,,,,,,,,,,,,0,0,0,0,0,4,4,5,,,,,,,,,,,,,,,,,,,,,,,,,,,,,,,,,,,,,,,,,,,,,,,883.4901066490002,None,883.4901066490002,None,883.4901066490002,None,r,1,1.7050724210002954,885.0234507300001,None,885.0234507300001,None,885.0234507300001,None,886.8067779160001,None,886.8067779160001,None,886.8067779160001,None,886.8067779160001,None,,,,,,,,,,,,,,,,,,,,,,,,,,,,,,,,,,,,,,,,,,,,001,24,2020_Jan_30_0932,spring_faces,3.2.3,59.967920161070495,
condition files/Stage2_1.xlsx,,T5,B5,s,"['s', 'r']","['Stratego', 'Risk']","[-0.15, 0.5]","[0.15, 0.5]",1,1,,,,,,,,,,,,,,,,,0,0,0,0,0,5,5,0,,,,,,,,,,,,,,,,,,,,,,,,,,,,,,,,,,,,,,,,,,,,,,,888.7734576550001,None,888.7734576550001,None,888.7734576550001,None,s,1,3.145105034000153,890.6234337169999,None,890.6234337169999,None,890.6234337169999,None,893.84011139,None,893.84011139,None,893.84011139,None,893.84011139,None,,,,,,,,,,,,,,,,,,,,,,,,,,,,,,,,,,,,,,,,,,,,001,24,2020_Jan_30_0932,spring_faces,3.2.3,59.967920161070495,
condition files/Stage2_2.xlsx,,T4,B4,r,"['s', 'r']","['Stratego', 'Risk']","[-0.15, 0.5]","[0.15, 0.5]",1,1,,,,,,,,,,,,,,,,,0,1,1,1,0,0,0,5,,,,,,,,,,,,,,,,,,,,,,,,,,,,,,,,,,,,,,,,,,,,,,,895.856751885,None,895.856751885,None,895.856751885,None,r,1,1.4836849089997486,897.3567718680001,None,897.3567718680001,None,897.3567718680001,None,898.9231999650001,None,898.9231999650001,None,898.9231999650001,None,898.9231999650001,None,,,,,,,,,,,,,,,,,,,,,,,,,,,,,,,,,,,,,,,,,,,,001,24,2020_Jan_30_0932,spring_faces,3.2.3,59.967920161070495,
condition files/Stage2_2.xlsx,,T6,B6,r,"['s', 'r']","['Stratego', 'Risk']","[-0.15, 0.5]","[0.15, 0.5]",1,1,,,,,,,,,,,,,,,,,0,1,1,1,0,1,1,1,,,,,,,,,,,,,,,,,,,,,,,,,,,,,,,,,,,,,,,,,,,,,,,900.889994446,None,900.889994446,None,900.889994446,None,s,0,2.753116185000181,902.4233991430001,None,902.4233991430001,None,902.4233991430001,None,905.2567552260002,None,905.2567552260002,None,905.2567552260002,None,905.2567552260002,None,,,,,,,,,,,,,,,,,,,,,,,,,,,,,,,,,,,,,,,,,,,,001,24,2020_Jan_30_0932,spring_faces,3.2.3,59.967920161070495,
condition files/Stage2_2.xlsx,,B5,T5,s,"['s', 'r']","['Stratego', 'Risk']","[-0.15, 0.5]","[0.15, 0.5]",1,1,,,,,,,,,,,,,,,,,0,1,1,1,0,2,2,0,,,,,,,,,,,,,,,,,,,,,,,,,,,,,,,,,,,,,,,,,,,,,,,907.2234593540002,None,907.2234593540002,None,907.2234593540002,None,r,0,1.2998240659999283,908.756765099,None,908.756765099,None,908.756765099,None,910.1234412100002,None,910.1234412100002,None,910.1234412100002,None,910.1234412100002,None,,,,,,,,,,,,,,,,,,,,,,,,,,,,,,,,,,,,,,,,,,,,001,24,2020_Jan_30_0932,spring_faces,3.2.3,59.967920161070495,
condition files/Stage2_2.xlsx,,T2,B2,r,"['s', 'r']","['Stratego', 'Risk']","[-0.15, 0.5]","[0.15, 0.5]",1,1,,,,,,,,,,,,,,,,,0,1,1,1,0,3,3,3,,,,,,,,,,,,,,,,,,,,,,,,,,,,,,,,,,,,,,,,,,,,,,,912.089962427,None,912.089962427,None,912.089962427,None,r,1,2.2730113850002454,913.623408682,None,913.623408682,None,913.623408682,None,915.9734322100003,None,915.9734322100003,None,915.9734322100003,None,915.9734322100003,None,,,,,,,,,,,,,,,,,,,,,,,,,,,,,,,,,,,,,,,,,,,,001,24,2020_Jan_30_0932,spring_faces,3.2.3,59.967920161070495,
condition files/Stage2_2.xlsx,,B3,T3,s,"['s', 'r']","['Stratego', 'Risk']","[-0.15, 0.5]","[0.15, 0.5]",1,1,,,,,,,,,,,,,,,,,0,1,1,1,0,4,4,4,,,,,,,,,,,,,,,,,,,,,,,,,,,,,,,,,,,,,,,,,,,,,,,917.940102866,None,917.940102866,None,917.940102866,None,s,1,1.015224150999984,919.4734107019999,None,919.4734107019999,None,919.4734107019999,None,920.556738236,None,920.556738236,None,920.556738236,None,920.556738236,None,,,,,,,,,,,,,,,,,,,,,,,,,,,,,,,,,,,,,,,,,,,,001,24,2020_Jan_30_0932,spring_faces,3.2.3,59.967920161070495,
condition files/Stage2_2.xlsx,,B1,T1,s,"['s', 'r']","['Stratego', 'Risk']","[-0.15, 0.5]","[0.15, 0.5]",1,1,,,,,,,,,,,,,,,,,0,1,1,1,0,5,5,2,,,,,,,,,,,,,,,,,,,,,,,,,,,,,,,,,,,,,,,,,,,,,,,922.5234158520002,None,922.5234158520002,None,922.5234158520002,None,r,0,0.9277790729997832,924.056711666,None,924.056711666,None,924.056711666,None,925.0400855030002,None,925.0400855030002,None,925.0400855030002,None,925.0400855030002,None,,,,,,,,,,,,,,,,,,,,,,,,,,,,,,,,,,,,,,,,,,,,001,24,2020_Jan_30_0932,spring_faces,3.2.3,59.967920161070495,
condition files/Stage2_1.xlsx,,T1,B1,s,"['s', 'r']","['Stratego', 'Risk']","[-0.15, 0.5]","[0.15, 0.5]",1,1,,,,,,,,,,,,,,,,,0,2,2,2,0,0,0,2,,,,,,,,,,,,,,,,,,,,,,,,,,,,,,,,,,,,,,,,,,,,,,,927.0400726060002,None,927.0400726060002,None,927.0400726060002,None,r,0,1.499256917999901,928.5733912129999,None,928.5733912129999,None,928.5733912129999,None,930.1400496300002,None,930.1400496300002,None,930.1400496300002,None,930.1400496300002,None,,,,,,,,,,,,,,,,,,,,,,,,,,,,,,,,,,,,,,,,,,,,001,24,2020_Jan_30_0932,spring_faces,3.2.3,59.967920161070495,
condition files/Stage2_1.xlsx,,B4,T4,r,"['s', 'r']","['Stratego', 'Risk']","[-0.15, 0.5]","[0.15, 0.5]",1,1,,,,,,,,,,,,,,,,,0,2,2,2,0,1,1,5,,,,,,,,,,,,,,,,,,,,,,,,,,,,,,,,,,,,,,,,,,,,,,,932.1066833509999,None,932.1066833509999,None,932.1066833509999,None,r,1,1.3924377629996343,933.6401012000001,None,933.6401012000001,None,933.6401012000001,None,935.1067500270001,None,935.1067500270001,None,935.1067500270001,None,935.1067500270001,None,,,,,,,,,,,,,,,,,,,,,,,,,,,,,,,,,,,,,,,,,,,,001,24,2020_Jan_30_0932,spring_faces,3.2.3,59.967920161070495,
condition files/Stage2_1.xlsx,,T3,B3,s,"['s', 'r']","['Stratego', 'Risk']","[-0.15, 0.5]","[0.15, 0.5]",1,1,,,,,,,,,,,,,,,,,0,2,2,2,0,2,2,4,,,,,,,,,,,,,,,,,,,,,,,,,,,,,,,,,,,,,,,,,,,,,,,937.073412532,None,937.073412532,None,937.073412532,None,s,1,0.9697856379998484,938.6067394400002,None,938.6067394400002,None,938.6067394400002,None,939.6567473730001,None,939.6567473730001,None,939.6567473730001,None,939.6567473730001,None,,,,,,,,,,,,,,,,,,,,,,,,,,,,,,,,,,,,,,,,,,,,001,24,2020_Jan_30_0932,spring_faces,3.2.3,59.967920161070495,
condition files/Stage2_1.xlsx,,B6,T6,r,"['s', 'r']","['Stratego', 'Risk']","[-0.15, 0.5]","[0.15, 0.5]",1,1,,,,,,,,,,,,,,,,,0,2,2,2,0,3,3,1,,,,,,,,,,,,,,,,,,,,,,,,,,,,,,,,,,,,,,,,,,,,,,,941.6234384469999,None,941.6234384469999,None,941.6234384469999,None,r,1,1.0597943879997729,943.1567502990001,None,943.1567502990001,None,943.1567502990001,None,944.2901104090001,None,944.2901104090001,None,944.2901104090001,None,944.2901104090001,None,,,,,,,,,,,,,,,,,,,,,,,,,,,,,,,,,,,,,,,,,,,,001,24,2020_Jan_30_0932,spring_faces,3.2.3,59.967920161070495,
condition files/Stage2_1.xlsx,,T5,B5,s,"['s', 'r']","['Stratego', 'Risk']","[-0.15, 0.5]","[0.15, 0.5]",1,1,,,,,,,,,,,,,,,,,0,2,2,2,0,4,4,0,,,,,,,,,,,,,,,,,,,,,,,,,,,,,,,,,,,,,,,,,,,,,,,946.2568051990002,None,946.2568051990002,None,946.2568051990002,None,s,1,4.42647368300004,947.7900834950001,None,947.7900834950001,None,947.7900834950001,None,952.2900790650001,None,952.2900790650001,None,952.2900790650001,None,952.2900790650001,None,,,,,,,,,,,,,,,,,,,,,,,,,,,,,,,,,,,,,,,,,,,,001,24,2020_Jan_30_0932,spring_faces,3.2.3,59.967920161070495,
condition files/Stage2_1.xlsx,,B2,T2,r,"['s', 'r']","['Stratego', 'Risk']","[-0.15, 0.5]","[0.15, 0.5]",1,1,,,,,,,,,,,,,,,,,0,2,2,2,0,5,5,3,,,,,,,,,,,,,,,,,,,,,,,,,,,,,,,,,,,,,,,,,,,,,,,954.25677012,None,954.25677012,None,954.25677012,None,r,1,1.7704481109999506,955.7900712210003,None,955.7900712210003,None,955.7900712210003,None,957.6400953350003,None,957.6400953350003,None,957.6400953350003,None,957.6400953350003,None,,,,,,,,,,,,,,,,,,,,,,,,,,,,,,,,,,,,,,,,,,,,001,24,2020_Jan_30_0932,spring_faces,3.2.3,59.967920161070495,
condition files/Stage2_2.xlsx,,B3,T3,s,"['s', 'r']","['Stratego', 'Risk']","[-0.15, 0.5]","[0.15, 0.5]",1,1,,,,,,,,,,,,,,,,,0,3,3,3,0,0,0,4,,,,,,,,,,,,,,,,,,,,,,,,,,,,,,,,,,,,,,,,,,,,,,,959.6234050560001,None,959.6234050560001,None,959.6234050560001,None,s,1,1.779832881999937,961.1567571660003,None,961.1567571660003,None,961.1567571660003,None,963.006755932,None,963.006755932,None,963.006755932,None,963.006755932,None,,,,,,,,,,,,,,,,,,,,,,,,,,,,,,,,,,,,,,,,,,,,001,24,2020_Jan_30_0932,spring_faces,3.2.3,59.967920161070495,
condition files/Stage2_2.xlsx,,B1,T1,s,"['s', 'r']","['Stratego', 'Risk']","[-0.15, 0.5]","[0.15, 0.5]",1,1,,,,,,,,,,,,,,,,,0,3,3,3,0,1,1,2,,,,,,,,,,,,,,,,,,,,,,,,,,,,,,,,,,,,,,,,,,,,,,,964.9734238790002,None,964.9734238790002,None,964.9734238790002,None,r,0,2.637860330999956,966.5066907330001,None,966.5066907330001,None,966.5066907330001,None,969.223415894,None,969.223415894,None,969.223415894,None,969.223415894,None,,,,,,,,,,,,,,,,,,,,,,,,,,,,,,,,,,,,,,,,,,,,001,24,2020_Jan_30_0932,spring_faces,3.2.3,59.967920161070495,
condition files/Stage2_2.xlsx,,T4,B4,r,"['s', 'r']","['Stratego', 'Risk']","[-0.15, 0.5]","[0.15, 0.5]",1,1,,,,,,,,,,,,,,,,,0,3,3,3,0,2,2,5,,,,,,,,,,,,,,,,,,,,,,,,,,,,,,,,,,,,,,,,,,,,,,,971.1900886550002,None,971.1900886550002,None,971.1900886550002,None,r,1,0.8850337789999685,972.7234081810002,None,972.7234081810002,None,972.7234081810002,None,973.690102046,None,973.690102046,None,973.690102046,None,973.690102046,None,,,,,,,,,,,,,,,,,,,,,,,,,,,,,,,,,,,,,,,,,,,,001,24,2020_Jan_30_0932,spring_faces,3.2.3,59.967920161070495,
condition files/Stage2_2.xlsx,,T2,B2,r,"['s', 'r']","['Stratego', 'Risk']","[-0.15, 0.5]","[0.15, 0.5]",1,1,,,,,,,,,,,,,,,,,0,3,3,3,0,3,3,3,,,,,,,,,,,,,,,,,,,,,,,,,,,,,,,,,,,,,,,,,,,,,,,975.6567560430003,None,975.6567560430003,None,975.6567560430003,None,s,0,1.3304996480001137,977.190103597,None,977.190103597,None,977.190103597,None,978.5900828150002,None,978.5900828150002,None,978.5900828150002,None,978.5900828150002,None,,,,,,,,,,,,,,,,,,,,,,,,,,,,,,,,,,,,,,,,,,,,001,24,2020_Jan_30_0932,spring_faces,3.2.3,59.967920161070495,
condition files/Stage2_2.xlsx,,T6,B6,r,"['s', 'r']","['Stratego', 'Risk']","[-0.15, 0.5]","[0.15, 0.5]",1,1,,,,,,,,,,,,,,,,,0,3,3,3,0,4,4,1,,,,,,,,,,,,,,,,,,,,,,,,,,,,,,,,,,,,,,,,,,,,,,,980.5567955930001,None,980.5567955930001,None,980.5567955930001,None,r,1,1.3105296430003364,982.0900291800003,None,982.0900291800003,None,982.0900291800003,None,983.456745466,None,983.456745466,None,983.456745466,None,983.456745466,None,,,,,,,,,,,,,,,,,,,,,,,,,,,,,,,,,,,,,,,,,,,,001,24,2020_Jan_30_0932,spring_faces,3.2.3,59.967920161070495,
condition files/Stage2_2.xlsx,,B5,T5,s,"['s', 'r']","['Stratego', 'Risk']","[-0.15, 0.5]","[0.15, 0.5]",1,1,,,,,,,,,,,,,,,,,0,3,3,3,0,5,5,0,,,,,,,,,,,,,,,,,,,,,,,,,,,,,,,,,,,,,,,,,,,,,,,985.440141738,None,985.440141738,None,985.440141738,None,s,1,1.0992069619996983,986.9734318820001,None,986.9734318820001,None,986.9734318820001,None,988.1400260770001,None,988.1400260770001,None,988.1400260770001,None,988.1400260770001,None,,,,,,,,,,,,,,,,,,,,,,,,,,,,,,,,,,,,,,,,,,,,001,24,2020_Jan_30_0932,spring_faces,3.2.3,59.967920161070495,
condition files/Stage2_1.xlsx,,T1,B1,s,"['s', 'r']","['Stratego', 'Risk']","[-0.15, 0.5]","[0.15, 0.5]",1,1,,,,,,,,,,,,,,,,,0,4,4,4,0,0,0,2,,,,,,,,,,,,,,,,,,,,,,,,,,,,,,,,,,,,,,,,,,,,,,,990.123362627,None,990.123362627,None,990.123362627,None,r,0,6.575805596000009,991.6567407800003,None,991.6567407800003,None,991.6567407800003,None,998.2900934260001,None,998.2900934260001,None,998.2900934260001,None,998.2900934260001,None,,,,,,,,,,,,,,,,,,,,,,,,,,,,,,,,,,,,,,,,,,,,001,24,2020_Jan_30_0932,spring_faces,3.2.3,59.967920161070495,
condition files/Stage2_1.xlsx,,T3,B3,s,"['s', 'r']","['Stratego', 'Risk']","[-0.15, 0.5]","[0.15, 0.5]",1,1,,,,,,,,,,,,,,,,,0,4,4,4,0,1,1,4,,,,,,,,,,,,,,,,,,,,,,,,,,,,,,,,,,,,,,,,,,,,,,,1000.2734557190001,None,1000.2734557190001,None,1000.2734557190001,None,s,1,0.8896703529999286,1001.8067799999999,None,1001.8067799999999,None,1001.8067799999999,None,1002.773412475,None,1002.773412475,None,1002.773412475,None,1002.773412475,None,,,,,,,,,,,,,,,,,,,,,,,,,,,,,,,,,,,,,,,,,,,,001,24,2020_Jan_30_0932,spring_faces,3.2.3,59.967920161070495,
condition files/Stage2_1.xlsx,,B2,T2,r,"['s', 'r']","['Stratego', 'Risk']","[-0.15, 0.5]","[0.15, 0.5]",1,1,,,,,,,,,,,,,,,,,0,4,4,4,0,2,2,3,,,,,,,,,,,,,,,,,,,,,,,,,,,,,,,,,,,,,,,,,,,,,,,1004.7400855690003,None,1004.7400855690003,None,1004.7400855690003,None,r,1,2.3911257400000068,1006.2734166519999,None,1006.2734166519999,None,1006.2734166519999,None,1008.7401120990003,None,1008.7401120990003,None,1008.7401120990003,None,1008.7401120990003,None,,,,,,,,,,,,,,,,,,,,,,,,,,,,,,,,,,,,,,,,,,,,001,24,2020_Jan_30_0932,spring_faces,3.2.3,59.967920161070495,
condition files/Stage2_1.xlsx,,B6,T6,r,"['s', 'r']","['Stratego', 'Risk']","[-0.15, 0.5]","[0.15, 0.5]",1,1,,,,,,,,,,,,,,,,,0,4,4,4,0,3,3,1,,,,,,,,,,,,,,,,,,,,,,,,,,,,,,,,,,,,,,,,,,,,,,,1010.7067971870001,None,1010.7067971870001,None,1010.7067971870001,None,s,0,0.6325168869998379,1012.2401033790002,None,1012.2401033790002,None,1012.2401033790002,None,1012.940014668,None,1012.940014668,None,1012.940014668,None,1012.940014668,None,,,,,,,,,,,,,,,,,,,,,,,,,,,,,,,,,,,,,,,,,,,,001,24,2020_Jan_30_0932,spring_faces,3.2.3,59.967920161070495,
condition files/Stage2_1.xlsx,,B4,T4,r,"['s', 'r']","['Stratego', 'Risk']","[-0.15, 0.5]","[0.15, 0.5]",1,1,,,,,,,,,,,,,,,,,0,4,4,4,0,4,4,5,,,,,,,,,,,,,,,,,,,,,,,,,,,,,,,,,,,,,,,,,,,,,,,1014.906608971,None,1014.906608971,None,1014.906608971,None,r,1,3.53641455900015,1016.440091679,None,1016.440091679,None,1016.440091679,None,1020.0400791330003,None,1020.0400791330003,None,1020.0400791330003,None,1020.0400791330003,None,,,,,,,,,,,,,,,,,,,,,,,,,,,,,,,,,,,,,,,,,,,,001,24,2020_Jan_30_0932,spring_faces,3.2.3,59.967920161070495,
