condsFile,subStage,cue1,cue2,correct,responseKeys,responseNames,cue1Position,cue2Position,cue1Opacity,cue2Opacity,stageLoop0.thisRepN,stageLoop0.thisTrialN,stageLoop0.thisN,stageLoop0.thisIndex,blockLoop0.thisRepN,blockLoop0.thisTrialN,blockLoop0.thisN,blockLoop0.thisIndex,stage1Loop.thisRepN,stage1Loop.thisTrialN,stage1Loop.thisN,stage1Loop.thisIndex,blockLoop1.thisRepN,blockLoop1.thisTrialN,blockLoop1.thisN,blockLoop1.thisIndex,stage2Loop.thisRepN,stage2Loop.thisTrialN,stage2Loop.thisN,stage2Loop.thisIndex,blockLoop2.thisRepN,blockLoop2.thisTrialN,blockLoop2.thisN,blockLoop2.thisIndex,testLoop.thisRepN,testLoop.thisTrialN,testLoop.thisN,testLoop.thisIndex,blockLoopTest.thisRepN,blockLoopTest.thisTrialN,blockLoopTest.thisN,blockLoopTest.thisIndex,cuePics,id_instr_text.started,id_instr_text.stopped,space_to_continue_2.started,space_to_continue_2.stopped,end_instructions_resp_3.keys,end_instructions_resp_3.rt,end_instructions_resp_3.started,end_instructions_resp_3.stopped,id_input_instr.started,id_input_instr.stopped,id_input_rect.started,id_input_rect.stopped,id_input_resp.keys,id_input_resp.rt,id_input_resp.started,id_input_resp.stopped,sonaID,id_input_text.started,id_input_text.stopped,final_text.started,final_text.stopped,instructions.started,instructions.stopped,end_instructions_resp.keys,end_instructions_resp.rt,end_instructions_resp.started,end_instructions_resp.stopped,space_to_continue.started,space_to_continue.stopped,instructions_stage0.started,instructions_stage0.stopped,end_instructions_resp_stage0.keys,end_instructions_resp_stage0.rt,end_instructions_resp_stage0.started,end_instructions_resp_stage0.stopped,space_to_continue_stage0.started,space_to_continue_stage0.stopped,text.started,text.stopped,resp_text1.started,resp_text1.stopped,resp_text2.started,resp_text2.stopped,trial_resp.keys,trial_resp.corr,trial_resp.rt,trial_resp.started,trial_resp.stopped,cue1Image.started,cue1Image.stopped,cue2Image.started,cue2Image.stopped,cue1Image_fb.started,cue1Image_fb.stopped,cue2Image_fb.started,cue2Image_fb.stopped,fb_text_answer.started,fb_text_answer.stopped,feedback_image.started,feedback_image.stopped,instructions_stage1.started,instructions_stage1.stopped,end_instructions_resp_stage1.keys,end_instructions_resp_stage1.rt,end_instructions_resp_stage1.started,end_instructions_resp_stage1.stopped,space_to_continue_stage1.started,space_to_continue_stage1.stopped,instructions_2.started,instructions_2.stopped,end_instructions_resp_2.keys,end_instructions_resp_2.rt,end_instructions_resp_2.started,end_instructions_resp_2.stopped,press_space_to_continue_stage2.started,press_space_to_continue_stage2.stopped,instructions_testStage1.started,instructions_testStage1.stopped,end_instructions_resp_test1.keys,end_instructions_resp_test1.rt,end_instructions_resp_test1.started,end_instructions_resp_test1.stopped,press_space_to_continue_test1.started,press_space_to_continue_test1.stopped,cue1Image_testChoice.started,cue1Image_testChoice.stopped,cue2Image_testChoice.started,cue2Image_testChoice.stopped,test_resp.keys,test_resp.corr,test_resp.rt,test_resp.started,test_resp.stopped,cue1Image_testConf.started,cue1Image_testConf.stopped,cue2Image_testConf.started,cue2Image_testConf.stopped,conf_reminder.started,conf_reminder.stopped,conf_rating.response,conf_rating.rt,conf_rating.started,conf_rating.stopped,session,participant,date,expName,psychopyVersion,frameRate,
,,,,,,,,,,,,,,,,,,,,,,,,,,,,,,,,,,,,,,,,,,,"{'none': 'pictures/20M_AN_C.png', 'alpha': 'pictures/SHINEd_pepper.png', 'beta': 'pictures/SHINEd_apple.png', 'theta': 'pictures/SHINEd_melon.png', 'phi': 'pictures/SHINEd_pear.png', 'T1': 'pictures/33M_AN_C.png', 'T2': 'pictures/31M_AN_C.png', 'T3': 'pictures/22M_AN_C.png', 'T4': 'pictures/34M_AN_C.png', 'T5': 'pictures/26M_AN_C.png', 'T6': 'pictures/32M_AN_C.png', 'B1': 'pictures/20M_NE_C.png', 'B2': 'pictures/37M_NE_C.png', 'B3': 'pictures/25M_NE_C.png', 'B4': 'pictures/23M_NE_C.png', 'B5': 'pictures/38M_NE_C.png', 'B6': 'pictures/36M_NE_C.png'}",9.222030593,None,14.20564771799991,None,space,16.16631975600012,14.20564771799991,None,,,,,,,,,,,,,,,,,,,,,,,,,,,,,,,,,,,,,,,,,,,,,,,,,,,,,,,,,,,,,,,,,,,,,,,,,,,,,,,,,,,,,,,,,,,,,,,,001,25,2020_Jan_30_0934,spring_faces,3.1.5,60.00275256619414,
,,,,,,,,,,,,,,,,,,,,,,,,,,,,,,,,,,,,,,,,,,,,,,,,,,,,30.739798715000234,None,30.739798715000234,None,"['0', '6', '0', '1', 'k', 'e', 'k', 'e', 'n']","[16.528181855000184, 16.99220435799998, 29.552174790999743, 29.728186697000183, 36.112139813999875, 36.44816951499979, 46.20824402800008, 46.70418561999986, 46.9441307269999]",30.739798715000234,None,,,,,,,,,,,,,,,,,,,,,,,,,,,,,,,,,,,,,,,,,,,,,,,,,,,,,,,,,,,,,,,,,,,,,,,,,,,,,,,,,,,,,,,,001,25,2020_Jan_30_0934,spring_faces,3.1.5,60.00275256619414,
,,,,,,,,,,,,,,,,,,,,,,,,,,,,,,,,,,,,,,,,,,,,,,,,,,,,,,,,,,,,0601keken,30.739798715000234,None,30.739798715000234,None,82.75584930500008,None,space,8.888147637000202,87.75583255399988,None,,,,,,,,,,,,,,,,,,,,,,,,,,,,,,,,,,,,,,,,,,,,,,,,,,,,,,,,,,,,,,,,,,,,,,,,,,,,,001,25,2020_Jan_30_0934,spring_faces,3.1.5,60.00275256619414,
,,,,,,,,,,,,,,,,,,,,,,,,,,,,,,,,,,,,,,,,,,,,,,,,,,,,,,,,,,,,,,,,,,,,,,,87.75583255399988,None,96.68894935400021,None,space,13.210886153000047,101.68906158500022,None,,,,,,,,,,,,,,,,,,,,,,,,,,,,,,,,,,,,,,,,,,,,,,,,,,,,,,,,,,,,,,,,,,,,,001,25,2020_Jan_30_0934,spring_faces,3.1.5,60.00275256619414,
condition files/Stage0a.xlsx,0a,alpha,none,h,"['h', 'g']","['Chess', 'Go']","[0, 0.5]","[0, 0]",1,0,0,0,0,0,0,0,0,0,,,,,,,,,,,,,,,,,,,,,,,,,,,,,,,,,,,,,,,,,,,,,,,,,,,,,,,,,,,,,101.68906158500022,None,114.95584100799988,None,114.95584100799988,None,114.95584100799988,None,g,0,6.649681398000212,116.52226403700024,None,116.52226403700024,None,116.52226403700024,None,123.23896206500012,None,123.23896206500012,None,123.23896206500012,None,123.23896206500012,None,,,,,,,,,,,,,,,,,,,,,,,,,,,,,,,,,,,,,,,,,,,,001,25,2020_Jan_30_0934,spring_faces,3.1.5,60.00275256619414,
condition files/Stage0a.xlsx,0a,beta,none,g,"['h', 'g']","['Chess', 'Go']","[0, 0.5]","[0, 0]",1,0,0,0,0,0,0,1,1,1,,,,,,,,,,,,,,,,,,,,,,,,,,,,,,,,,,,,,,,,,,,,,,,,,,,,,,,,,,,,,,,125.18827254799999,None,125.18827254799999,None,125.18827254799999,None,h,0,1.4250726880000002,126.72294420000026,None,126.72294420000026,None,126.72294420000026,None,128.20545408399994,None,128.20545408399994,None,128.20545408399994,None,128.20545408399994,None,,,,,,,,,,,,,,,,,,,,,,,,,,,,,,,,,,,,,,,,,,,,001,25,2020_Jan_30_0934,spring_faces,3.1.5,60.00275256619414,
condition files/Stage0a.xlsx,0a,alpha,none,h,"['h', 'g']","['Chess', 'Go']","[0, 0.5]","[0, 0]",1,0,0,1,1,1,0,0,0,0,,,,,,,,,,,,,,,,,,,,,,,,,,,,,,,,,,,,,,,,,,,,,,,,,,,,,,,,,,,,,,,130.18886368199992,None,130.18886368199992,None,130.18886368199992,None,g,0,5.336603092000132,131.72338489499998,None,131.72338489499998,None,131.72338489499998,None,137.12228167000012,None,137.12228167000012,None,137.12228167000012,None,137.12228167000012,None,,,,,,,,,,,,,,,,,,,,,,,,,,,,,,,,,,,,,,,,,,,,001,25,2020_Jan_30_0934,spring_faces,3.1.5,60.00275256619414,
condition files/Stage0a.xlsx,0a,beta,none,g,"['h', 'g']","['Chess', 'Go']","[0, 0.5]","[0, 0]",1,0,0,1,1,1,0,1,1,1,,,,,,,,,,,,,,,,,,,,,,,,,,,,,,,,,,,,,,,,,,,,,,,,,,,,,,,,,,,,,,,139.08952280099993,None,139.08952280099993,None,139.08952280099993,None,g,1,1.0454082310002377,140.622539812,None,140.622539812,None,140.622539812,None,141.721907654,None,141.721907654,None,141.721907654,None,141.721907654,None,,,,,,,,,,,,,,,,,,,,,,,,,,,,,,,,,,,,,,,,,,,,001,25,2020_Jan_30_0934,spring_faces,3.1.5,60.00275256619414,
condition files/Stage0a.xlsx,0a,beta,none,g,"['h', 'g']","['Chess', 'Go']","[0, 0.5]","[0, 0]",1,0,0,2,2,2,0,0,0,1,,,,,,,,,,,,,,,,,,,,,,,,,,,,,,,,,,,,,,,,,,,,,,,,,,,,,,,,,,,,,,,143.70614538500013,None,143.70614538500013,None,143.70614538500013,None,g,1,1.7579120330001388,145.222112981,None,145.222112981,None,145.222112981,None,147.039494225,None,147.039494225,None,147.039494225,None,147.039494225,None,,,,,,,,,,,,,,,,,,,,,,,,,,,,,,,,,,,,,,,,,,,,001,25,2020_Jan_30_0934,spring_faces,3.1.5,60.00275256619414,
condition files/Stage0a.xlsx,0a,alpha,none,h,"['h', 'g']","['Chess', 'Go']","[0, 0.5]","[0, 0]",1,0,0,2,2,2,0,1,1,0,,,,,,,,,,,,,,,,,,,,,,,,,,,,,,,,,,,,,,,,,,,,,,,,,,,,,,,,,,,,,,,149.00553148300014,None,149.00553148300014,None,149.00553148300014,None,g,0,0.793121974999849,150.53890014499984,None,150.53890014499984,None,150.53890014499984,None,151.3894996240001,None,151.3894996240001,None,151.3894996240001,None,151.3894996240001,None,,,,,,,,,,,,,,,,,,,,,,,,,,,,,,,,,,,,,,,,,,,,001,25,2020_Jan_30_0934,spring_faces,3.1.5,60.00275256619414,
condition files/Stage0a.xlsx,0a,alpha,none,h,"['h', 'g']","['Chess', 'Go']","[0, 0.5]","[0, 0]",1,0,0,3,3,3,0,0,0,0,,,,,,,,,,,,,,,,,,,,,,,,,,,,,,,,,,,,,,,,,,,,,,,,,,,,,,,,,,,,,,,153.3725892289999,None,153.3725892289999,None,153.3725892289999,None,h,1,1.0506879439999466,154.90523005500017,None,154.90523005500017,None,154.90523005500017,None,156.02307182200002,None,156.02307182200002,None,156.02307182200002,None,156.02307182200002,None,,,,,,,,,,,,,,,,,,,,,,,,,,,,,,,,,,,,,,,,,,,,001,25,2020_Jan_30_0934,spring_faces,3.1.5,60.00275256619414,
condition files/Stage0a.xlsx,0a,beta,none,g,"['h', 'g']","['Chess', 'Go']","[0, 0.5]","[0, 0]",1,0,0,3,3,3,0,1,1,1,,,,,,,,,,,,,,,,,,,,,,,,,,,,,,,,,,,,,,,,,,,,,,,,,,,,,,,,,,,,,,,157.9883879140002,None,157.9883879140002,None,157.9883879140002,None,g,1,0.8652037759998166,159.5228030520002,None,159.5228030520002,None,159.5228030520002,None,160.4389441520002,None,160.4389441520002,None,160.4389441520002,None,160.4389441520002,None,,,,,,,,,,,,,,,,,,,,,,,,,,,,,,,,,,,,,,,,,,,,001,25,2020_Jan_30_0934,spring_faces,3.1.5,60.00275256619414,
condition files/Stage0a.xlsx,0a,alpha,none,h,"['h', 'g']","['Chess', 'Go']","[0, 0.5]","[0, 0]",1,0,0,4,4,4,0,0,0,0,,,,,,,,,,,,,,,,,,,,,,,,,,,,,,,,,,,,,,,,,,,,,,,,,,,,,,,,,,,,,,,162.4227429460002,None,162.4227429460002,None,162.4227429460002,None,h,1,1.0401401519998217,163.95589178,None,163.95589178,None,163.95589178,None,165.0557034110002,None,165.0557034110002,None,165.0557034110002,None,165.0557034110002,None,,,,,,,,,,,,,,,,,,,,,,,,,,,,,,,,,,,,,,,,,,,,001,25,2020_Jan_30_0934,spring_faces,3.1.5,60.00275256619414,
condition files/Stage0a.xlsx,0a,beta,none,g,"['h', 'g']","['Chess', 'Go']","[0, 0.5]","[0, 0]",1,0,0,4,4,4,0,1,1,1,,,,,,,,,,,,,,,,,,,,,,,,,,,,,,,,,,,,,,,,,,,,,,,,,,,,,,,,,,,,,,,167.02225399600002,None,167.02225399600002,None,167.02225399600002,None,g,1,0.824745410000105,168.55527641400022,None,168.55527641400022,None,168.55527641400022,None,169.43867069899989,None,169.43867069899989,None,169.43867069899989,None,169.43867069899989,None,,,,,,,,,,,,,,,,,,,,,,,,,,,,,,,,,,,,,,,,,,,,001,25,2020_Jan_30_0934,spring_faces,3.1.5,60.00275256619414,
condition files/Stage0a.xlsx,0a,beta,none,g,"['h', 'g']","['Chess', 'Go']","[0, 0.5]","[0, 0]",1,0,0,5,5,5,0,0,0,1,,,,,,,,,,,,,,,,,,,,,,,,,,,,,,,,,,,,,,,,,,,,,,,,,,,,,,,,,,,,,,,171.42278788700014,None,171.42278788700014,None,171.42278788700014,None,g,1,1.0164644819997193,172.95549993700024,None,172.95549993700024,None,172.95549993700024,None,174.02198365799995,None,174.02198365799995,None,174.02198365799995,None,174.02198365799995,None,,,,,,,,,,,,,,,,,,,,,,,,,,,,,,,,,,,,,,,,,,,,001,25,2020_Jan_30_0934,spring_faces,3.1.5,60.00275256619414,
condition files/Stage0a.xlsx,0a,alpha,none,h,"['h', 'g']","['Chess', 'Go']","[0, 0.5]","[0, 0]",1,0,0,5,5,5,0,1,1,0,,,,,,,,,,,,,,,,,,,,,,,,,,,,,,,,,,,,,,,,,,,,,,,,,,,,,,,,,,,,,,,175.98852338799998,None,175.98852338799998,None,175.98852338799998,None,h,1,0.4336533450000388,177.52225749599984,None,177.52225749599984,None,177.52225749599984,None,178.00575065400017,None,178.00575065400017,None,178.00575065400017,None,178.00575065400017,None,,,,,,,,,,,,,,,,,,,,,,,,,,,,,,,,,,,,,,,,,,,,001,25,2020_Jan_30_0934,spring_faces,3.1.5,60.00275256619414,
condition files/Stage0b_1.xlsx,0b,alpha,none,h,"['h', 'g']","['Chess', 'Go']","[-0.15, 0.5]","[0.15, 0.5]",1,0,0,6,6,6,0,0,0,0,,,,,,,,,,,,,,,,,,,,,,,,,,,,,,,,,,,,,,,,,,,,,,,,,,,,,,,,,,,,,,,179.98904592200006,None,179.98904592200006,None,179.98904592200006,None,h,1,0.8978089859997453,181.522144561,None,181.522144561,None,181.522144561,None,182.472567584,None,182.472567584,None,182.472567584,None,182.472567584,None,,,,,,,,,,,,,,,,,,,,,,,,,,,,,,,,,,,,,,,,,,,,001,25,2020_Jan_30_0934,spring_faces,3.1.5,60.00275256619414,
condition files/Stage0b_1.xlsx,0b,none,beta,g,"['h', 'g']","['Chess', 'Go']","[-0.15, 0.5]","[0.15, 0.5]",0,1,0,6,6,6,0,1,1,1,,,,,,,,,,,,,,,,,,,,,,,,,,,,,,,,,,,,,,,,,,,,,,,,,,,,,,,,,,,,,,,184.4389891320002,None,184.4389891320002,None,184.4389891320002,None,g,1,0.8270211019998897,185.97692592700014,None,185.97692592700014,None,185.97692592700014,None,186.86043592399983,None,186.86043592399983,None,186.86043592399983,None,186.86043592399983,None,,,,,,,,,,,,,,,,,,,,,,,,,,,,,,,,,,,,,,,,,,,,001,25,2020_Jan_30_0934,spring_faces,3.1.5,60.00275256619414,
condition files/Stage0b_2.xlsx,0b,beta,none,g,"['h', 'g']","['Chess', 'Go']","[-0.15, 0.5]","[0.15, 0.5]",1,0,0,7,7,7,0,0,0,1,,,,,,,,,,,,,,,,,,,,,,,,,,,,,,,,,,,,,,,,,,,,,,,,,,,,,,,,,,,,,,,188.83926763599993,None,188.83926763599993,None,188.83926763599993,None,g,1,0.9065486909998981,190.37738861800017,None,190.37738861800017,None,190.37738861800017,None,191.33933108400015,None,191.33933108400015,None,191.33933108400015,None,191.33933108400015,None,,,,,,,,,,,,,,,,,,,,,,,,,,,,,,,,,,,,,,,,,,,,001,25,2020_Jan_30_0934,spring_faces,3.1.5,60.00275256619414,
condition files/Stage0b_2.xlsx,0b,none,alpha,h,"['h', 'g']","['Chess', 'Go']","[-0.15, 0.5]","[0.15, 0.5]",0,1,0,7,7,7,0,1,1,0,,,,,,,,,,,,,,,,,,,,,,,,,,,,,,,,,,,,,,,,,,,,,,,,,,,,,,,,,,,,,,,193.30570588799992,None,193.30570588799992,None,193.30570588799992,None,h,1,0.47159138100005293,194.84445320700024,None,194.84445320700024,None,194.84445320700024,None,195.37725100599982,None,195.37725100599982,None,195.37725100599982,None,195.37725100599982,None,,,,,,,,,,,,,,,,,,,,,,,,,,,,,,,,,,,,,,,,,,,,001,25,2020_Jan_30_0934,spring_faces,3.1.5,60.00275256619414,
condition files/Stage0b_1.xlsx,0b,alpha,none,h,"['h', 'g']","['Chess', 'Go']","[-0.15, 0.5]","[0.15, 0.5]",1,0,0,8,8,8,0,0,0,0,,,,,,,,,,,,,,,,,,,,,,,,,,,,,,,,,,,,,,,,,,,,,,,,,,,,,,,,,,,,,,,197.35556978600016,None,197.35556978600016,None,197.35556978600016,None,h,1,0.6664363529998809,198.8895446219999,None,198.8895446219999,None,198.8895446219999,None,199.60619214500002,None,199.60619214500002,None,199.60619214500002,None,199.60619214500002,None,,,,,,,,,,,,,,,,,,,,,,,,,,,,,,,,,,,,,,,,,,,,001,25,2020_Jan_30_0934,spring_faces,3.1.5,60.00275256619414,
condition files/Stage0b_1.xlsx,0b,none,beta,g,"['h', 'g']","['Chess', 'Go']","[-0.15, 0.5]","[0.15, 0.5]",0,1,0,8,8,8,0,1,1,1,,,,,,,,,,,,,,,,,,,,,,,,,,,,,,,,,,,,,,,,,,,,,,,,,,,,,,,,,,,,,,,201.57235249699988,None,201.57235249699988,None,201.57235249699988,None,g,1,0.5762833039998441,203.1076799120001,None,203.1076799120001,None,203.1076799120001,None,203.74028479000026,None,203.74028479000026,None,203.74028479000026,None,203.74028479000026,None,,,,,,,,,,,,,,,,,,,,,,,,,,,,,,,,,,,,,,,,,,,,001,25,2020_Jan_30_0934,spring_faces,3.1.5,60.00275256619414,
condition files/Stage0b_2.xlsx,0b,none,alpha,h,"['h', 'g']","['Chess', 'Go']","[-0.15, 0.5]","[0.15, 0.5]",0,1,0,9,9,9,0,0,0,0,,,,,,,,,,,,,,,,,,,,,,,,,,,,,,,,,,,,,,,,,,,,,,,,,,,,,,,,,,,,,,,205.72218625999994,None,205.72218625999994,None,205.72218625999994,None,h,1,0.587641626000277,207.25628532600012,None,207.25628532600012,None,207.25628532600012,None,207.90552413000023,None,207.90552413000023,None,207.90552413000023,None,207.90552413000023,None,,,,,,,,,,,,,,,,,,,,,,,,,,,,,,,,,,,,,,,,,,,,001,25,2020_Jan_30_0934,spring_faces,3.1.5,60.00275256619414,
condition files/Stage0b_2.xlsx,0b,beta,none,g,"['h', 'g']","['Chess', 'Go']","[-0.15, 0.5]","[0.15, 0.5]",1,0,0,9,9,9,0,1,1,1,,,,,,,,,,,,,,,,,,,,,,,,,,,,,,,,,,,,,,,,,,,,,,,,,,,,,,,,,,,,,,,209.8723141370001,None,209.8723141370001,None,209.8723141370001,None,g,1,0.6435243870000704,211.4084186670002,None,211.4084186670002,None,211.4084186670002,None,212.1095121200001,None,212.1095121200001,None,212.1095121200001,None,212.1095121200001,None,,,,,,,,,,,,,,,,,,,,,,,,,,,,,,,,,,,,,,,,,,,,001,25,2020_Jan_30_0934,spring_faces,3.1.5,60.00275256619414,
condition files/Stage0b_1.xlsx,0b,none,beta,g,"['h', 'g']","['Chess', 'Go']","[-0.15, 0.5]","[0.15, 0.5]",0,1,0,10,10,10,0,0,0,1,,,,,,,,,,,,,,,,,,,,,,,,,,,,,,,,,,,,,,,,,,,,,,,,,,,,,,,,,,,,,,,214.08942233300013,None,214.08942233300013,None,214.08942233300013,None,g,1,1.3885766640000838,215.6393989170001,None,215.6393989170001,None,215.6393989170001,None,217.08922407,None,217.08922407,None,217.08922407,None,217.08922407,None,,,,,,,,,,,,,,,,,,,,,,,,,,,,,,,,,,,,,,,,,,,,001,25,2020_Jan_30_0934,spring_faces,3.1.5,60.00275256619414,
condition files/Stage0b_1.xlsx,0b,alpha,none,h,"['h', 'g']","['Chess', 'Go']","[-0.15, 0.5]","[0.15, 0.5]",1,0,0,10,10,10,0,1,1,0,,,,,,,,,,,,,,,,,,,,,,,,,,,,,,,,,,,,,,,,,,,,,,,,,,,,,,,,,,,,,,,219.05493773099988,None,219.05493773099988,None,219.05493773099988,None,h,1,0.7738109839997378,220.6062135090001,None,220.6062135090001,None,220.6062135090001,None,221.44065302599984,None,221.44065302599984,None,221.44065302599984,None,221.44065302599984,None,,,,,,,,,,,,,,,,,,,,,,,,,,,,,,,,,,,,,,,,,,,,001,25,2020_Jan_30_0934,spring_faces,3.1.5,60.00275256619414,
condition files/Stage0b_2.xlsx,0b,beta,none,g,"['h', 'g']","['Chess', 'Go']","[-0.15, 0.5]","[0.15, 0.5]",1,0,0,11,11,11,0,0,0,1,,,,,,,,,,,,,,,,,,,,,,,,,,,,,,,,,,,,,,,,,,,,,,,,,,,,,,,,,,,,,,,223.4222999990002,None,223.4222999990002,None,223.4222999990002,None,g,1,0.6479593270000805,224.95600586199998,None,224.95600586199998,None,224.95600586199998,None,225.65628091500002,None,225.65628091500002,None,225.65628091500002,None,225.65628091500002,None,,,,,,,,,,,,,,,,,,,,,,,,,,,,,,,,,,,,,,,,,,,,001,25,2020_Jan_30_0934,spring_faces,3.1.5,60.00275256619414,
condition files/Stage0b_2.xlsx,0b,none,alpha,h,"['h', 'g']","['Chess', 'Go']","[-0.15, 0.5]","[0.15, 0.5]",0,1,0,11,11,11,0,1,1,0,,,,,,,,,,,,,,,,,,,,,,,,,,,,,,,,,,,,,,,,,,,,,,,,,,,,,,,,,,,,,,,227.6224200659999,None,227.6224200659999,None,227.6224200659999,None,h,1,0.7174180470001374,229.15856587000007,None,229.15856587000007,None,229.15856587000007,None,229.94045526299988,None,229.94045526299988,None,229.94045526299988,None,229.94045526299988,None,,,,,,,,,,,,,,,,,,,,,,,,,,,,,,,,,,,,,,,,,,,,001,25,2020_Jan_30_0934,spring_faces,3.1.5,60.00275256619414,
condition files/Stage0c_1.xlsx,0c,beta,theta,g,"['h', 'g']","['Chess', 'Go']","[-0.15, 0.5]","[0.15, 0.5]",1,1,0,12,12,12,0,0,0,2,,,,,,,,,,,,,,,,,,,,,,,,,,,,,,,,,,,,,,,,,,,,,,,,,,,,,,,,,,,,,,,231.92229796699985,None,231.92229796699985,None,231.92229796699985,None,g,1,2.6445028910002293,233.45543607499985,None,233.45543607499985,None,233.45543607499985,None,236.15584669500004,None,236.15584669500004,None,236.15584669500004,None,236.15584669500004,None,,,,,,,,,,,,,,,,,,,,,,,,,,,,,,,,,,,,,,,,,,,,001,25,2020_Jan_30_0934,spring_faces,3.1.5,60.00275256619414,
condition files/Stage0c_1.xlsx,0c,theta,alpha,h,"['h', 'g']","['Chess', 'Go']","[-0.15, 0.5]","[0.15, 0.5]",1,1,0,12,12,12,0,1,1,0,,,,,,,,,,,,,,,,,,,,,,,,,,,,,,,,,,,,,,,,,,,,,,,,,,,,,,,,,,,,,,,238.1223163630002,None,238.1223163630002,None,238.1223163630002,None,h,1,0.7808869850000519,239.65511571200022,None,239.65511571200022,None,239.65511571200022,None,240.48871313300015,None,240.48871313300015,None,240.48871313300015,None,240.48871313300015,None,,,,,,,,,,,,,,,,,,,,,,,,,,,,,,,,,,,,,,,,,,,,001,25,2020_Jan_30_0934,spring_faces,3.1.5,60.00275256619414,
condition files/Stage0c_1.xlsx,0c,alpha,phi,h,"['h', 'g']","['Chess', 'Go']","[-0.15, 0.5]","[0.15, 0.5]",1,1,0,12,12,12,0,2,2,1,,,,,,,,,,,,,,,,,,,,,,,,,,,,,,,,,,,,,,,,,,,,,,,,,,,,,,,,,,,,,,,242.4552516230001,None,242.4552516230001,None,242.4552516230001,None,h,1,0.76730726400001,243.98862231500016,None,243.98862231500016,None,243.98862231500016,None,244.80621458899986,None,244.80621458899986,None,244.80621458899986,None,244.80621458899986,None,,,,,,,,,,,,,,,,,,,,,,,,,,,,,,,,,,,,,,,,,,,,001,25,2020_Jan_30_0934,spring_faces,3.1.5,60.00275256619414,
condition files/Stage0c_1.xlsx,0c,phi,beta,g,"['h', 'g']","['Chess', 'Go']","[-0.15, 0.5]","[0.15, 0.5]",1,1,0,12,12,12,0,3,3,3,,,,,,,,,,,,,,,,,,,,,,,,,,,,,,,,,,,,,,,,,,,,,,,,,,,,,,,,,,,,,,,246.77269815199998,None,246.77269815199998,None,246.77269815199998,None,g,1,1.0102661020000596,248.30576619500016,None,248.30576619500016,None,248.30576619500016,None,249.37259615899984,None,249.37259615899984,None,249.37259615899984,None,249.37259615899984,None,,,,,,,,,,,,,,,,,,,,,,,,,,,,,,,,,,,,,,,,,,,,001,25,2020_Jan_30_0934,spring_faces,3.1.5,60.00275256619414,
condition files/Stage0c_2.xlsx,0c,beta,phi,g,"['h', 'g']","['Chess', 'Go']","[-0.15, 0.5]","[0.15, 0.5]",1,1,0,13,13,13,0,0,0,3,,,,,,,,,,,,,,,,,,,,,,,,,,,,,,,,,,,,,,,,,,,,,,,,,,,,,,,,,,,,,,,251.35606190999988,None,251.35606190999988,None,251.35606190999988,None,g,1,0.5868010959998173,252.8891692279999,None,252.8891692279999,None,252.8891692279999,None,253.52236944900005,None,253.52236944900005,None,253.52236944900005,None,253.52236944900005,None,,,,,,,,,,,,,,,,,,,,,,,,,,,,,,,,,,,,,,,,,,,,001,25,2020_Jan_30_0934,spring_faces,3.1.5,60.00275256619414,
condition files/Stage0c_2.xlsx,0c,alpha,theta,h,"['h', 'g']","['Chess', 'Go']","[-0.15, 0.5]","[0.15, 0.5]",1,1,0,13,13,13,0,1,1,0,,,,,,,,,,,,,,,,,,,,,,,,,,,,,,,,,,,,,,,,,,,,,,,,,,,,,,,,,,,,,,,255.50569906200008,None,255.50569906200008,None,255.50569906200008,None,h,1,0.8849407060001795,257.0390189929999,None,257.0390189929999,None,257.0390189929999,None,257.98905672399997,None,257.98905672399997,None,257.98905672399997,None,257.98905672399997,None,,,,,,,,,,,,,,,,,,,,,,,,,,,,,,,,,,,,,,,,,,,,001,25,2020_Jan_30_0934,spring_faces,3.1.5,60.00275256619414,
condition files/Stage0c_2.xlsx,0c,phi,alpha,h,"['h', 'g']","['Chess', 'Go']","[-0.15, 0.5]","[0.15, 0.5]",1,1,0,13,13,13,0,2,2,1,,,,,,,,,,,,,,,,,,,,,,,,,,,,,,,,,,,,,,,,,,,,,,,,,,,,,,,,,,,,,,,259.95568890799996,None,259.95568890799996,None,259.95568890799996,None,h,1,0.6268216410003333,261.4892022939998,None,261.4892022939998,None,261.4892022939998,None,262.1569818150001,None,262.1569818150001,None,262.1569818150001,None,262.1569818150001,None,,,,,,,,,,,,,,,,,,,,,,,,,,,,,,,,,,,,,,,,,,,,001,25,2020_Jan_30_0934,spring_faces,3.1.5,60.00275256619414,
condition files/Stage0c_2.xlsx,0c,theta,beta,g,"['h', 'g']","['Chess', 'Go']","[-0.15, 0.5]","[0.15, 0.5]",1,1,0,13,13,13,0,3,3,2,,,,,,,,,,,,,,,,,,,,,,,,,,,,,,,,,,,,,,,,,,,,,,,,,,,,,,,,,,,,,,,264.13908659000026,None,264.13908659000026,None,264.13908659000026,None,g,1,0.9072224450001158,265.67279950500006,None,265.67279950500006,None,265.67279950500006,None,266.639023661,None,266.639023661,None,266.639023661,None,266.639023661,None,,,,,,,,,,,,,,,,,,,,,,,,,,,,,,,,,,,,,,,,,,,,001,25,2020_Jan_30_0934,spring_faces,3.1.5,60.00275256619414,
condition files/Stage0c_1.xlsx,0c,beta,theta,g,"['h', 'g']","['Chess', 'Go']","[-0.15, 0.5]","[0.15, 0.5]",1,1,0,14,14,14,0,0,0,2,,,,,,,,,,,,,,,,,,,,,,,,,,,,,,,,,,,,,,,,,,,,,,,,,,,,,,,,,,,,,,,268.62237361000007,None,268.62237361000007,None,268.62237361000007,None,g,1,1.5118181780003397,270.15612603499994,None,270.15612603499994,None,270.15612603499994,None,271.7079264170002,None,271.7079264170002,None,271.7079264170002,None,271.7079264170002,None,,,,,,,,,,,,,,,,,,,,,,,,,,,,,,,,,,,,,,,,,,,,001,25,2020_Jan_30_0934,spring_faces,3.1.5,60.00275256619414,
condition files/Stage0c_1.xlsx,0c,alpha,phi,h,"['h', 'g']","['Chess', 'Go']","[-0.15, 0.5]","[0.15, 0.5]",1,1,0,14,14,14,0,1,1,1,,,,,,,,,,,,,,,,,,,,,,,,,,,,,,,,,,,,,,,,,,,,,,,,,,,,,,,,,,,,,,,273.68896430899986,None,273.68896430899986,None,273.68896430899986,None,h,1,1.245670457000415,275.2222827380001,None,275.2222827380001,None,275.2222827380001,None,276.52267845200004,None,276.52267845200004,None,276.52267845200004,None,276.52267845200004,None,,,,,,,,,,,,,,,,,,,,,,,,,,,,,,,,,,,,,,,,,,,,001,25,2020_Jan_30_0934,spring_faces,3.1.5,60.00275256619414,
condition files/Stage0c_1.xlsx,0c,theta,alpha,h,"['h', 'g']","['Chess', 'Go']","[-0.15, 0.5]","[0.15, 0.5]",1,1,0,14,14,14,0,2,2,0,,,,,,,,,,,,,,,,,,,,,,,,,,,,,,,,,,,,,,,,,,,,,,,,,,,,,,,,,,,,,,,278.4888282339998,None,278.4888282339998,None,278.4888282339998,None,h,1,0.8290781089999655,280.02288702600026,None,280.02288702600026,None,280.02288702600026,None,280.8904679080001,None,280.8904679080001,None,280.8904679080001,None,280.8904679080001,None,,,,,,,,,,,,,,,,,,,,,,,,,,,,,,,,,,,,,,,,,,,,001,25,2020_Jan_30_0934,spring_faces,3.1.5,60.00275256619414,
condition files/Stage0c_1.xlsx,0c,phi,beta,g,"['h', 'g']","['Chess', 'Go']","[-0.15, 0.5]","[0.15, 0.5]",1,1,0,14,14,14,0,3,3,3,,,,,,,,,,,,,,,,,,,,,,,,,,,,,,,,,,,,,,,,,,,,,,,,,,,,,,,,,,,,,,,282.87239363000026,None,282.87239363000026,None,282.87239363000026,None,g,1,0.9421784979999757,284.40584348699986,None,284.40584348699986,None,284.40584348699986,None,285.4058067830001,None,285.4058067830001,None,285.4058067830001,None,285.4058067830001,None,,,,,,,,,,,,,,,,,,,,,,,,,,,,,,,,,,,,,,,,,,,,001,25,2020_Jan_30_0934,spring_faces,3.1.5,60.00275256619414,
condition files/Stage0c_2.xlsx,0c,theta,beta,g,"['h', 'g']","['Chess', 'Go']","[-0.15, 0.5]","[0.15, 0.5]",1,1,0,15,15,15,0,0,0,2,,,,,,,,,,,,,,,,,,,,,,,,,,,,,,,,,,,,,,,,,,,,,,,,,,,,,,,,,,,,,,,287.38882051200017,None,287.38882051200017,None,287.38882051200017,None,g,1,0.8579377860000932,288.92208586900006,None,288.92208586900006,None,288.92208586900006,None,289.8241787520001,None,289.8241787520001,None,289.8241787520001,None,289.8241787520001,None,,,,,,,,,,,,,,,,,,,,,,,,,,,,,,,,,,,,,,,,,,,,001,25,2020_Jan_30_0934,spring_faces,3.1.5,60.00275256619414,
condition files/Stage0c_2.xlsx,0c,phi,alpha,h,"['h', 'g']","['Chess', 'Go']","[-0.15, 0.5]","[0.15, 0.5]",1,1,0,15,15,15,0,1,1,1,,,,,,,,,,,,,,,,,,,,,,,,,,,,,,,,,,,,,,,,,,,,,,,,,,,,,,,,,,,,,,,291.8056166890001,None,291.8056166890001,None,291.8056166890001,None,h,1,0.6966832550001527,293.33932095499995,None,293.33932095499995,None,293.33932095499995,None,294.08890578,None,294.08890578,None,294.08890578,None,294.08890578,None,,,,,,,,,,,,,,,,,,,,,,,,,,,,,,,,,,,,,,,,,,,,001,25,2020_Jan_30_0934,spring_faces,3.1.5,60.00275256619414,
condition files/Stage0c_2.xlsx,0c,alpha,theta,h,"['h', 'g']","['Chess', 'Go']","[-0.15, 0.5]","[0.15, 0.5]",1,1,0,15,15,15,0,2,2,0,,,,,,,,,,,,,,,,,,,,,,,,,,,,,,,,,,,,,,,,,,,,,,,,,,,,,,,,,,,,,,,296.0558120579999,None,296.0558120579999,None,296.0558120579999,None,h,1,0.7823975299997983,297.58955841299985,None,297.58955841299985,None,297.58955841299985,None,298.4072629309999,None,298.4072629309999,None,298.4072629309999,None,298.4072629309999,None,,,,,,,,,,,,,,,,,,,,,,,,,,,,,,,,,,,,,,,,,,,,001,25,2020_Jan_30_0934,spring_faces,3.1.5,60.00275256619414,
condition files/Stage0c_2.xlsx,0c,beta,phi,g,"['h', 'g']","['Chess', 'Go']","[-0.15, 0.5]","[0.15, 0.5]",1,1,0,15,15,15,0,3,3,3,,,,,,,,,,,,,,,,,,,,,,,,,,,,,,,,,,,,,,,,,,,,,,,,,,,,,,,,,,,,,,,300.38921333400003,None,300.38921333400003,None,300.38921333400003,None,g,1,0.737443686000006,301.92252560099996,None,301.92252560099996,None,301.92252560099996,None,302.7221368989999,None,302.7221368989999,None,302.7221368989999,None,302.7221368989999,None,,,,,,,,,,,,,,,,,,,,,,,,,,,,,,,,,,,,,,,,,,,,001,25,2020_Jan_30_0934,spring_faces,3.1.5,60.00275256619414,
condition files/Stage0c_1.xlsx,0c,phi,beta,g,"['h', 'g']","['Chess', 'Go']","[-0.15, 0.5]","[0.15, 0.5]",1,1,0,16,16,16,0,0,0,3,,,,,,,,,,,,,,,,,,,,,,,,,,,,,,,,,,,,,,,,,,,,,,,,,,,,,,,,,,,,,,,304.7061068859998,None,304.7061068859998,None,304.7061068859998,None,g,1,5.2206913740001255,306.23929140400014,None,306.23929140400014,None,306.23929140400014,None,311.5073949490002,None,311.5073949490002,None,311.5073949490002,None,311.5073949490002,None,,,,,,,,,,,,,,,,,,,,,,,,,,,,,,,,,,,,,,,,,,,,001,25,2020_Jan_30_0934,spring_faces,3.1.5,60.00275256619414,
condition files/Stage0c_1.xlsx,0c,theta,alpha,h,"['h', 'g']","['Chess', 'Go']","[-0.15, 0.5]","[0.15, 0.5]",1,1,0,16,16,16,0,1,1,0,,,,,,,,,,,,,,,,,,,,,,,,,,,,,,,,,,,,,,,,,,,,,,,,,,,,,,,,,,,,,,,313.48930188099985,None,313.48930188099985,None,313.48930188099985,None,h,1,0.7096773489997759,315.022331571,None,315.022331571,None,315.022331571,None,315.7889535690001,None,315.7889535690001,None,315.7889535690001,None,315.7889535690001,None,,,,,,,,,,,,,,,,,,,,,,,,,,,,,,,,,,,,,,,,,,,,001,25,2020_Jan_30_0934,spring_faces,3.1.5,60.00275256619414,
condition files/Stage0c_1.xlsx,0c,beta,theta,g,"['h', 'g']","['Chess', 'Go']","[-0.15, 0.5]","[0.15, 0.5]",1,1,0,16,16,16,0,2,2,2,,,,,,,,,,,,,,,,,,,,,,,,,,,,,,,,,,,,,,,,,,,,,,,,,,,,,,,,,,,,,,,317.7551406540001,None,317.7551406540001,None,317.7551406540001,None,g,1,0.5706916369999817,319.28926408899997,None,319.28926408899997,None,319.28926408899997,None,319.92261057299993,None,319.92261057299993,None,319.92261057299993,None,319.92261057299993,None,,,,,,,,,,,,,,,,,,,,,,,,,,,,,,,,,,,,,,,,,,,,001,25,2020_Jan_30_0934,spring_faces,3.1.5,60.00275256619414,
condition files/Stage0c_1.xlsx,0c,alpha,phi,h,"['h', 'g']","['Chess', 'Go']","[-0.15, 0.5]","[0.15, 0.5]",1,1,0,16,16,16,0,3,3,1,,,,,,,,,,,,,,,,,,,,,,,,,,,,,,,,,,,,,,,,,,,,,,,,,,,,,,,,,,,,,,,321.88905273599994,None,321.88905273599994,None,321.88905273599994,None,h,1,1.3651449899998624,323.4228139319998,None,323.4228139319998,None,323.4228139319998,None,324.838931235,None,324.838931235,None,324.838931235,None,324.838931235,None,,,,,,,,,,,,,,,,,,,,,,,,,,,,,,,,,,,,,,,,,,,,001,25,2020_Jan_30_0934,spring_faces,3.1.5,60.00275256619414,
condition files/Stage0c_2.xlsx,0c,beta,phi,g,"['h', 'g']","['Chess', 'Go']","[-0.15, 0.5]","[0.15, 0.5]",1,1,0,17,17,17,0,0,0,3,,,,,,,,,,,,,,,,,,,,,,,,,,,,,,,,,,,,,,,,,,,,,,,,,,,,,,,,,,,,,,,326.82261183799983,None,326.82261183799983,None,326.82261183799983,None,g,1,1.0400718099999722,328.3558705250002,None,328.3558705250002,None,328.3558705250002,None,329.4559419070001,None,329.4559419070001,None,329.4559419070001,None,329.4559419070001,None,,,,,,,,,,,,,,,,,,,,,,,,,,,,,,,,,,,,,,,,,,,,001,25,2020_Jan_30_0934,spring_faces,3.1.5,60.00275256619414,
condition files/Stage0c_2.xlsx,0c,theta,beta,g,"['h', 'g']","['Chess', 'Go']","[-0.15, 0.5]","[0.15, 0.5]",1,1,0,17,17,17,0,1,1,2,,,,,,,,,,,,,,,,,,,,,,,,,,,,,,,,,,,,,,,,,,,,,,,,,,,,,,,,,,,,,,,331.4222400190001,None,331.4222400190001,None,331.4222400190001,None,g,1,0.8079942630001824,332.9560223090002,None,332.9560223090002,None,332.9560223090002,None,333.8070322210001,None,333.8070322210001,None,333.8070322210001,None,333.8070322210001,None,,,,,,,,,,,,,,,,,,,,,,,,,,,,,,,,,,,,,,,,,,,,001,25,2020_Jan_30_0934,spring_faces,3.1.5,60.00275256619414,
condition files/Stage0c_2.xlsx,0c,phi,alpha,h,"['h', 'g']","['Chess', 'Go']","[-0.15, 0.5]","[0.15, 0.5]",1,1,0,17,17,17,0,2,2,1,,,,,,,,,,,,,,,,,,,,,,,,,,,,,,,,,,,,,,,,,,,,,,,,,,,,,,,,,,,,,,,335.7890937000002,None,335.7890937000002,None,335.7890937000002,None,h,1,0.7139494689999992,337.3222148079999,None,337.3222148079999,None,337.3222148079999,None,338.0892369960002,None,338.0892369960002,None,338.0892369960002,None,338.0892369960002,None,,,,,,,,,,,,,,,,,,,,,,,,,,,,,,,,,,,,,,,,,,,,001,25,2020_Jan_30_0934,spring_faces,3.1.5,60.00275256619414,
condition files/Stage0c_2.xlsx,0c,alpha,theta,h,"['h', 'g']","['Chess', 'Go']","[-0.15, 0.5]","[0.15, 0.5]",1,1,0,17,17,17,0,3,3,0,,,,,,,,,,,,,,,,,,,,,,,,,,,,,,,,,,,,,,,,,,,,,,,,,,,,,,,,,,,,,,,340.0552520800002,None,340.0552520800002,None,340.0552520800002,None,h,1,0.8946736339999006,341.58926750699993,None,341.58926750699993,None,341.58926750699993,None,342.5238076559999,None,342.5238076559999,None,342.5238076559999,None,342.5238076559999,None,,,,,,,,,,,,,,,,,,,,,,,,,,,,,,,,,,,,,,,,,,,,001,25,2020_Jan_30_0934,spring_faces,3.1.5,60.00275256619414,
,,,,,,,,,,,,,,,,,,,,,,,,,,,,,,,,,,,,,,,,,,,,,,,,,,,,,,,,,,,,,,,,,,,,,,,,,,,,,,,,,,,,,,,,,,,,,,,,,,,,,,,,344.5223402800002,None,space,5.633419924999998,349.5224961590002,None,,,,,,,,,,,,,,,,,,,,,,,,,,,,,,,,,,,,,,001,25,2020_Jan_30_0934,spring_faces,3.1.5,60.00275256619414,
condition files/Stage1_1.xlsx,,T2,B2,m,"['c', 'm']","['Clue', 'Monopoly']","[-0.15, 0.5]","[0.15, 0.5]",1,1,,,,,,,,,0,0,0,0,0,0,0,3,,,,,,,,,,,,,,,,,,,,,,,,,,,,,,,,,,,,,,,,,,,,,,,,,,,,,,,355.22231718700004,None,355.22231718700004,None,355.22231718700004,None,c,0,0.8479590889996871,356.756014175,None,356.756014175,None,356.756014175,None,357.672862895,None,357.672862895,None,357.672862895,None,357.672862895,None,,,,,,,349.5224961590002,None,,,,,,,,,,,,,,,,,,,,,,,,,,,,,,,,,,,,001,25,2020_Jan_30_0934,spring_faces,3.1.5,60.00275256619414,
condition files/Stage1_1.xlsx,,B1,T2,c,"['c', 'm']","['Clue', 'Monopoly']","[-0.15, 0.5]","[0.15, 0.5]",1,1,,,,,,,,,0,0,0,0,0,1,1,1,,,,,,,,,,,,,,,,,,,,,,,,,,,,,,,,,,,,,,,,,,,,,,,,,,,,,,,359.6215838930002,None,359.6215838930002,None,359.6215838930002,None,c,1,2.238960006999605,361.1889977840001,None,361.1889977840001,None,361.1889977840001,None,363.48971884799994,None,363.48971884799994,None,363.48971884799994,None,363.48971884799994,None,,,,,,,,,,,,,,,,,,,,,,,,,,,,,,,,,,,,,,,,,,,,001,25,2020_Jan_30_0934,spring_faces,3.1.5,60.00275256619414,
condition files/Stage1_1.xlsx,,T3,B4,c,"['c', 'm']","['Clue', 'Monopoly']","[-0.15, 0.5]","[0.15, 0.5]",1,1,,,,,,,,,0,0,0,0,0,2,2,5,,,,,,,,,,,,,,,,,,,,,,,,,,,,,,,,,,,,,,,,,,,,,,,,,,,,,,,365.4558138880002,None,365.4558138880002,None,365.4558138880002,None,m,0,0.7414838510003392,367.0225433280002,None,367.0225433280002,None,367.0225433280002,None,367.8223115410001,None,367.8223115410001,None,367.8223115410001,None,367.8223115410001,None,,,,,,,,,,,,,,,,,,,,,,,,,,,,,,,,,,,,,,,,,,,,001,25,2020_Jan_30_0934,spring_faces,3.1.5,60.00275256619414,
condition files/Stage1_1.xlsx,,B4,T4,m,"['c', 'm']","['Clue', 'Monopoly']","[-0.15, 0.5]","[0.15, 0.5]",1,1,,,,,,,,,0,0,0,0,0,3,3,7,,,,,,,,,,,,,,,,,,,,,,,,,,,,,,,,,,,,,,,,,,,,,,,,,,,,,,,369.7892008540002,None,369.7892008540002,None,369.7892008540002,None,c,0,1.0005365720003283,371.355425102,None,371.355425102,None,371.355425102,None,372.42277640500015,None,372.42277640500015,None,372.42277640500015,None,372.42277640500015,None,,,,,,,,,,,,,,,,,,,,,,,,,,,,,,,,,,,,,,,,,,,,001,25,2020_Jan_30_0934,spring_faces,3.1.5,60.00275256619414,
condition files/Stage1_1.xlsx,,T1,B1,c,"['c', 'm']","['Clue', 'Monopoly']","[-0.15, 0.5]","[0.15, 0.5]",1,1,,,,,,,,,0,0,0,0,0,4,4,0,,,,,,,,,,,,,,,,,,,,,,,,,,,,,,,,,,,,,,,,,,,,,,,,,,,,,,,374.3721793579998,None,374.3721793579998,None,374.3721793579998,None,c,1,1.4724877999997261,375.9395585970001,None,375.9395585970001,None,375.9395585970001,None,377.4722147540001,None,377.4722147540001,None,377.4722147540001,None,377.4722147540001,None,,,,,,,,,,,,,,,,,,,,,,,,,,,,,,,,,,,,,,,,,,,,001,25,2020_Jan_30_0934,spring_faces,3.1.5,60.00275256619414,
condition files/Stage1_1.xlsx,,B3,T3,c,"['c', 'm']","['Clue', 'Monopoly']","[-0.15, 0.5]","[0.15, 0.5]",1,1,,,,,,,,,0,0,0,0,0,5,5,4,,,,,,,,,,,,,,,,,,,,,,,,,,,,,,,,,,,,,,,,,,,,,,,,,,,,,,,379.4389978720001,None,379.4389978720001,None,379.4389978720001,None,m,0,3.238768524000079,380.98920861299985,None,380.98920861299985,None,380.98920861299985,None,384.28935577899983,None,384.28935577899983,None,384.28935577899983,None,384.28935577899983,None,,,,,,,,,,,,,,,,,,,,,,,,,,,,,,,,,,,,,,,,,,,,001,25,2020_Jan_30_0934,spring_faces,3.1.5,60.00275256619414,
condition files/Stage1_1.xlsx,,T4,B3,m,"['c', 'm']","['Clue', 'Monopoly']","[-0.15, 0.5]","[0.15, 0.5]",1,1,,,,,,,,,0,0,0,0,0,6,6,6,,,,,,,,,,,,,,,,,,,,,,,,,,,,,,,,,,,,,,,,,,,,,,,,,,,,,,,386.25547633899987,None,386.25547633899987,None,386.25547633899987,None,c,0,1.8451066520001405,387.80685608800013,None,387.80685608800013,None,387.80685608800013,None,389.7061102110001,None,389.7061102110001,None,389.7061102110001,None,389.7061102110001,None,,,,,,,,,,,,,,,,,,,,,,,,,,,,,,,,,,,,,,,,,,,,001,25,2020_Jan_30_0934,spring_faces,3.1.5,60.00275256619414,
condition files/Stage1_1.xlsx,,B2,T1,m,"['c', 'm']","['Clue', 'Monopoly']","[-0.15, 0.5]","[0.15, 0.5]",1,1,,,,,,,,,0,0,0,0,0,7,7,2,,,,,,,,,,,,,,,,,,,,,,,,,,,,,,,,,,,,,,,,,,,,,,,,,,,,,,,391.6717713580001,None,391.6717713580001,None,391.6717713580001,None,c,0,1.5816156739997496,393.20634708199987,None,393.20634708199987,None,393.20634708199987,None,394.83873213200013,None,394.83873213200013,None,394.83873213200013,None,394.83873213200013,None,,,,,,,,,,,,,,,,,,,,,,,,,,,,,,,,,,,,,,,,,,,,001,25,2020_Jan_30_0934,spring_faces,3.1.5,60.00275256619414,
condition files/Stage1_2.xlsx,,T2,B1,c,"['c', 'm']","['Clue', 'Monopoly']","[-0.15, 0.5]","[0.15, 0.5]",1,1,,,,,,,,,0,1,1,1,0,0,0,1,,,,,,,,,,,,,,,,,,,,,,,,,,,,,,,,,,,,,,,,,,,,,,,,,,,,,,,396.82255101600003,None,396.82255101600003,None,396.82255101600003,None,m,0,1.2324880560004203,398.3554910910002,None,398.3554910910002,None,398.3554910910002,None,399.64042081100024,None,399.64042081100024,None,399.64042081100024,None,399.64042081100024,None,,,,,,,,,,,,,,,,,,,,,,,,,,,,,,,,,,,,,,,,,,,,001,25,2020_Jan_30_0934,spring_faces,3.1.5,60.00275256619414,
condition files/Stage1_2.xlsx,,B1,T1,c,"['c', 'm']","['Clue', 'Monopoly']","[-0.15, 0.5]","[0.15, 0.5]",1,1,,,,,,,,,0,1,1,1,0,1,1,0,,,,,,,,,,,,,,,,,,,,,,,,,,,,,,,,,,,,,,,,,,,,,,,,,,,,,,,401.60486503699985,None,401.60486503699985,None,401.60486503699985,None,c,1,1.2634226519999174,403.14054183200005,None,403.14054183200005,None,403.14054183200005,None,404.45606054300015,None,404.45606054300015,None,404.45606054300015,None,404.45606054300015,None,,,,,,,,,,,,,,,,,,,,,,,,,,,,,,,,,,,,,,,,,,,,001,25,2020_Jan_30_0934,spring_faces,3.1.5,60.00275256619414,
condition files/Stage1_2.xlsx,,T1,B2,m,"['c', 'm']","['Clue', 'Monopoly']","[-0.15, 0.5]","[0.15, 0.5]",1,1,,,,,,,,,0,1,1,1,0,2,2,2,,,,,,,,,,,,,,,,,,,,,,,,,,,,,,,,,,,,,,,,,,,,,,,,,,,,,,,406.4219586690001,None,406.4219586690001,None,406.4219586690001,None,m,1,1.550345582999853,407.9576308300002,None,407.9576308300002,None,407.9576308300002,None,409.589506411,None,409.589506411,None,409.589506411,None,409.589506411,None,,,,,,,,,,,,,,,,,,,,,,,,,,,,,,,,,,,,,,,,,,,,001,25,2020_Jan_30_0934,spring_faces,3.1.5,60.00275256619414,
condition files/Stage1_2.xlsx,,T3,B3,c,"['c', 'm']","['Clue', 'Monopoly']","[-0.15, 0.5]","[0.15, 0.5]",1,1,,,,,,,,,0,1,1,1,0,3,3,4,,,,,,,,,,,,,,,,,,,,,,,,,,,,,,,,,,,,,,,,,,,,,,,,,,,,,,,411.53860382699986,None,411.53860382699986,None,411.53860382699986,None,m,0,2.5477345839999543,413.0722409169998,None,413.0722409169998,None,413.0722409169998,None,415.67301306499985,None,415.67301306499985,None,415.67301306499985,None,415.67301306499985,None,,,,,,,,,,,,,,,,,,,,,,,,,,,,,,,,,,,,,,,,,,,,001,25,2020_Jan_30_0934,spring_faces,3.1.5,60.00275256619414,
condition files/Stage1_2.xlsx,,B2,T2,m,"['c', 'm']","['Clue', 'Monopoly']","[-0.15, 0.5]","[0.15, 0.5]",1,1,,,,,,,,,0,1,1,1,0,4,4,3,,,,,,,,,,,,,,,,,,,,,,,,,,,,,,,,,,,,,,,,,,,,,,,,,,,,,,,417.6384497610002,None,417.6384497610002,None,417.6384497610002,None,m,1,1.3256575740001608,419.17440171199996,None,419.17440171199996,None,419.17440171199996,None,420.55775438,None,420.55775438,None,420.55775438,None,420.55775438,None,,,,,,,,,,,,,,,,,,,,,,,,,,,,,,,,,,,,,,,,,,,,001,25,2020_Jan_30_0934,spring_faces,3.1.5,60.00275256619414,
condition files/Stage1_2.xlsx,,B3,T4,m,"['c', 'm']","['Clue', 'Monopoly']","[-0.15, 0.5]","[0.15, 0.5]",1,1,,,,,,,,,0,1,1,1,0,5,5,6,,,,,,,,,,,,,,,,,,,,,,,,,,,,,,,,,,,,,,,,,,,,,,,,,,,,,,,422.5217310769999,None,422.5217310769999,None,422.5217310769999,None,c,0,1.3244190659997912,424.05563448500016,None,424.05563448500016,None,424.05563448500016,None,425.43920037099997,None,425.43920037099997,None,425.43920037099997,None,425.43920037099997,None,,,,,,,,,,,,,,,,,,,,,,,,,,,,,,,,,,,,,,,,,,,,001,25,2020_Jan_30_0934,spring_faces,3.1.5,60.00275256619414,
condition files/Stage1_2.xlsx,,B4,T3,c,"['c', 'm']","['Clue', 'Monopoly']","[-0.15, 0.5]","[0.15, 0.5]",1,1,,,,,,,,,0,1,1,1,0,6,6,5,,,,,,,,,,,,,,,,,,,,,,,,,,,,,,,,,,,,,,,,,,,,,,,,,,,,,,,427.4054463130001,None,427.4054463130001,None,427.4054463130001,None,m,0,3.464542450999943,428.95542252899986,None,428.95542252899986,None,428.95542252899986,None,432.47481124700016,None,432.47481124700016,None,432.47481124700016,None,432.47481124700016,None,,,,,,,,,,,,,,,,,,,,,,,,,,,,,,,,,,,,,,,,,,,,001,25,2020_Jan_30_0934,spring_faces,3.1.5,60.00275256619414,
condition files/Stage1_2.xlsx,,T4,B4,m,"['c', 'm']","['Clue', 'Monopoly']","[-0.15, 0.5]","[0.15, 0.5]",1,1,,,,,,,,,0,1,1,1,0,7,7,7,,,,,,,,,,,,,,,,,,,,,,,,,,,,,,,,,,,,,,,,,,,,,,,,,,,,,,,434.4387593719998,None,434.4387593719998,None,434.4387593719998,None,c,0,1.8393341680002777,435.9886304239999,None,435.9886304239999,None,435.9886304239999,None,437.9053368320001,None,437.9053368320001,None,437.9053368320001,None,437.9053368320001,None,,,,,,,,,,,,,,,,,,,,,,,,,,,,,,,,,,,,,,,,,,,,001,25,2020_Jan_30_0934,spring_faces,3.1.5,60.00275256619414,
condition files/Stage1_1.xlsx,,T1,B1,c,"['c', 'm']","['Clue', 'Monopoly']","[-0.15, 0.5]","[0.15, 0.5]",1,1,,,,,,,,,0,2,2,2,0,0,0,0,,,,,,,,,,,,,,,,,,,,,,,,,,,,,,,,,,,,,,,,,,,,,,,,,,,,,,,439.87266606000003,None,439.87266606000003,None,439.87266606000003,None,c,1,1.3493711649998659,441.42259644700016,None,441.42259644700016,None,441.42259644700016,None,442.8235306920001,None,442.8235306920001,None,442.8235306920001,None,442.8235306920001,None,,,,,,,,,,,,,,,,,,,,,,,,,,,,,,,,,,,,,,,,,,,,001,25,2020_Jan_30_0934,spring_faces,3.1.5,60.00275256619414,
condition files/Stage1_1.xlsx,,B2,T1,m,"['c', 'm']","['Clue', 'Monopoly']","[-0.15, 0.5]","[0.15, 0.5]",1,1,,,,,,,,,0,2,2,2,0,1,1,2,,,,,,,,,,,,,,,,,,,,,,,,,,,,,,,,,,,,,,,,,,,,,,,,,,,,,,,444.78866768900025,None,444.78866768900025,None,444.78866768900025,None,c,0,2.463152261000232,446.32482772899994,None,446.32482772899994,None,446.32482772899994,None,448.85558187100014,None,448.85558187100014,None,448.85558187100014,None,448.85558187100014,None,,,,,,,,,,,,,,,,,,,,,,,,,,,,,,,,,,,,,,,,,,,,001,25,2020_Jan_30_0934,spring_faces,3.1.5,60.00275256619414,
condition files/Stage1_1.xlsx,,B1,T2,c,"['c', 'm']","['Clue', 'Monopoly']","[-0.15, 0.5]","[0.15, 0.5]",1,1,,,,,,,,,0,2,2,2,0,2,2,1,,,,,,,,,,,,,,,,,,,,,,,,,,,,,,,,,,,,,,,,,,,,,,,,,,,,,,,450.8057164329998,None,450.8057164329998,None,450.8057164329998,None,c,1,0.9284691620000558,452.3394753990001,None,452.3394753990001,None,452.3394753990001,None,453.32421756700023,None,453.32421756700023,None,453.32421756700023,None,453.32421756700023,None,,,,,,,,,,,,,,,,,,,,,,,,,,,,,,,,,,,,,,,,,,,,001,25,2020_Jan_30_0934,spring_faces,3.1.5,60.00275256619414,
condition files/Stage1_1.xlsx,,T4,B3,m,"['c', 'm']","['Clue', 'Monopoly']","[-0.15, 0.5]","[0.15, 0.5]",1,1,,,,,,,,,0,2,2,2,0,3,3,6,,,,,,,,,,,,,,,,,,,,,,,,,,,,,,,,,,,,,,,,,,,,,,,,,,,,,,,455.289243316,None,455.289243316,None,455.289243316,None,c,0,4.140599889999976,456.83943553200015,None,456.83943553200015,None,456.83943553200015,None,461.0395441300002,None,461.0395441300002,None,461.0395441300002,None,461.0395441300002,None,,,,,,,,,,,,,,,,,,,,,,,,,,,,,,,,,,,,,,,,,,,,001,25,2020_Jan_30_0934,spring_faces,3.1.5,60.00275256619414,
condition files/Stage1_1.xlsx,,B4,T4,m,"['c', 'm']","['Clue', 'Monopoly']","[-0.15, 0.5]","[0.15, 0.5]",1,1,,,,,,,,,0,2,2,2,0,4,4,7,,,,,,,,,,,,,,,,,,,,,,,,,,,,,,,,,,,,,,,,,,,,,,,,,,,,,,,463.00570708299983,None,463.00570708299983,None,463.00570708299983,None,m,1,1.6878065629998673,464.5402230640002,None,464.5402230640002,None,464.5402230640002,None,466.28915572899996,None,466.28915572899996,None,466.28915572899996,None,466.28915572899996,None,,,,,,,,,,,,,,,,,,,,,,,,,,,,,,,,,,,,,,,,,,,,001,25,2020_Jan_30_0934,spring_faces,3.1.5,60.00275256619414,
condition files/Stage1_1.xlsx,,T3,B4,c,"['c', 'm']","['Clue', 'Monopoly']","[-0.15, 0.5]","[0.15, 0.5]",1,1,,,,,,,,,0,2,2,2,0,5,5,5,,,,,,,,,,,,,,,,,,,,,,,,,,,,,,,,,,,,,,,,,,,,,,,,,,,,,,,468.2555477169999,None,468.2555477169999,None,468.2555477169999,None,m,0,1.540571866999926,469.79145500699997,None,469.79145500699997,None,469.79145500699997,None,471.3898439610002,None,471.3898439610002,None,471.3898439610002,None,471.3898439610002,None,,,,,,,,,,,,,,,,,,,,,,,,,,,,,,,,,,,,,,,,,,,,001,25,2020_Jan_30_0934,spring_faces,3.1.5,60.00275256619414,
condition files/Stage1_1.xlsx,,T2,B2,m,"['c', 'm']","['Clue', 'Monopoly']","[-0.15, 0.5]","[0.15, 0.5]",1,1,,,,,,,,,0,2,2,2,0,6,6,3,,,,,,,,,,,,,,,,,,,,,,,,,,,,,,,,,,,,,,,,,,,,,,,,,,,,,,,473.35506769699987,None,473.35506769699987,None,473.35506769699987,None,m,1,2.0420885859998634,474.9059428270002,None,474.9059428270002,None,474.9059428270002,None,477.0077447059998,None,477.0077447059998,None,477.0077447059998,None,477.0077447059998,None,,,,,,,,,,,,,,,,,,,,,,,,,,,,,,,,,,,,,,,,,,,,001,25,2020_Jan_30_0934,spring_faces,3.1.5,60.00275256619414,
condition files/Stage1_1.xlsx,,B3,T3,c,"['c', 'm']","['Clue', 'Monopoly']","[-0.15, 0.5]","[0.15, 0.5]",1,1,,,,,,,,,0,2,2,2,0,7,7,4,,,,,,,,,,,,,,,,,,,,,,,,,,,,,,,,,,,,,,,,,,,,,,,,,,,,,,,478.97215357999994,None,478.97215357999994,None,478.97215357999994,None,c,1,2.7299518759996317,480.5220070109999,None,480.5220070109999,None,480.5220070109999,None,483.30674156700024,None,483.30674156700024,None,483.30674156700024,None,483.30674156700024,None,,,,,,,,,,,,,,,,,,,,,,,,,,,,,,,,,,,,,,,,,,,,001,25,2020_Jan_30_0934,spring_faces,3.1.5,60.00275256619414,
condition files/Stage1_2.xlsx,,B1,T1,c,"['c', 'm']","['Clue', 'Monopoly']","[-0.15, 0.5]","[0.15, 0.5]",1,1,,,,,,,,,0,3,3,3,0,0,0,0,,,,,,,,,,,,,,,,,,,,,,,,,,,,,,,,,,,,,,,,,,,,,,,,,,,,,,,485.28924162600015,None,485.28924162600015,None,485.28924162600015,None,c,1,0.9874523690000387,486.8246057189999,None,486.8246057189999,None,486.8246057189999,None,487.8730660080005,None,487.8730660080005,None,487.8730660080005,None,487.8730660080005,None,,,,,,,,,,,,,,,,,,,,,,,,,,,,,,,,,,,,,,,,,,,,001,25,2020_Jan_30_0934,spring_faces,3.1.5,60.00275256619414,
condition files/Stage1_2.xlsx,,B2,T2,m,"['c', 'm']","['Clue', 'Monopoly']","[-0.15, 0.5]","[0.15, 0.5]",1,1,,,,,,,,,0,3,3,3,0,1,1,3,,,,,,,,,,,,,,,,,,,,,,,,,,,,,,,,,,,,,,,,,,,,,,,,,,,,,,,489.83894360600016,None,489.83894360600016,None,489.83894360600016,None,m,1,0.98277693,491.38920455000016,None,491.38920455000016,None,491.38920455000016,None,492.4392480680003,None,492.4392480680003,None,492.4392480680003,None,492.4392480680003,None,,,,,,,,,,,,,,,,,,,,,,,,,,,,,,,,,,,,,,,,,,,,001,25,2020_Jan_30_0934,spring_faces,3.1.5,60.00275256619414,
condition files/Stage1_2.xlsx,,T4,B4,m,"['c', 'm']","['Clue', 'Monopoly']","[-0.15, 0.5]","[0.15, 0.5]",1,1,,,,,,,,,0,3,3,3,0,2,2,7,,,,,,,,,,,,,,,,,,,,,,,,,,,,,,,,,,,,,,,,,,,,,,,,,,,,,,,494.3888469819999,None,494.3888469819999,None,494.3888469819999,None,m,1,2.6247192809996704,495.9393193809997,None,495.9393193809997,None,495.9393193809997,None,498.62262636100013,None,498.62262636100013,None,498.62262636100013,None,498.62262636100013,None,,,,,,,,,,,,,,,,,,,,,,,,,,,,,,,,,,,,,,,,,,,,001,25,2020_Jan_30_0934,spring_faces,3.1.5,60.00275256619414,
condition files/Stage1_2.xlsx,,T3,B3,c,"['c', 'm']","['Clue', 'Monopoly']","[-0.15, 0.5]","[0.15, 0.5]",1,1,,,,,,,,,0,3,3,3,0,3,3,4,,,,,,,,,,,,,,,,,,,,,,,,,,,,,,,,,,,,,,,,,,,,,,,,,,,,,,,500.5892754620004,None,500.5892754620004,None,500.5892754620004,None,c,1,2.1046765780001806,502.1393062430002,None,502.1393062430002,None,502.1393062430002,None,504.30698773999984,None,504.30698773999984,None,504.30698773999984,None,504.30698773999984,None,,,,,,,,,,,,,,,,,,,,,,,,,,,,,,,,,,,,,,,,,,,,001,25,2020_Jan_30_0934,spring_faces,3.1.5,60.00275256619414,
condition files/Stage1_2.xlsx,,B4,T3,c,"['c', 'm']","['Clue', 'Monopoly']","[-0.15, 0.5]","[0.15, 0.5]",1,1,,,,,,,,,0,3,3,3,0,4,4,5,,,,,,,,,,,,,,,,,,,,,,,,,,,,,,,,,,,,,,,,,,,,,,,,,,,,,,,506.27241539299985,None,506.27241539299985,None,506.27241539299985,None,m,0,2.390623080000296,507.80533412999966,None,507.80533412999966,None,507.80533412999966,None,510.25591137499987,None,510.25591137499987,None,510.25591137499987,None,510.25591137499987,None,,,,,,,,,,,,,,,,,,,,,,,,,,,,,,,,,,,,,,,,,,,,001,25,2020_Jan_30_0934,spring_faces,3.1.5,60.00275256619414,
condition files/Stage1_2.xlsx,,T2,B1,c,"['c', 'm']","['Clue', 'Monopoly']","[-0.15, 0.5]","[0.15, 0.5]",1,1,,,,,,,,,0,3,3,3,0,5,5,1,,,,,,,,,,,,,,,,,,,,,,,,,,,,,,,,,,,,,,,,,,,,,,,,,,,,,,,512.2225243839998,None,512.2225243839998,None,512.2225243839998,None,c,1,1.7355796629999531,513.7723882450005,None,513.7723882450005,None,513.7723882450005,None,515.5728636119998,None,515.5728636119998,None,515.5728636119998,None,515.5728636119998,None,,,,,,,,,,,,,,,,,,,,,,,,,,,,,,,,,,,,,,,,,,,,001,25,2020_Jan_30_0934,spring_faces,3.1.5,60.00275256619414,
condition files/Stage1_2.xlsx,,T1,B2,m,"['c', 'm']","['Clue', 'Monopoly']","[-0.15, 0.5]","[0.15, 0.5]",1,1,,,,,,,,,0,3,3,3,0,6,6,2,,,,,,,,,,,,,,,,,,,,,,,,,,,,,,,,,,,,,,,,,,,,,,,,,,,,,,,517.5385029249996,None,517.5385029249996,None,517.5385029249996,None,m,1,1.4274072669995803,519.0726347180002,None,519.0726347180002,None,519.0726347180002,None,520.555519774,None,520.555519774,None,520.555519774,None,520.555519774,None,,,,,,,,,,,,,,,,,,,,,,,,,,,,,,,,,,,,,,,,,,,,001,25,2020_Jan_30_0934,spring_faces,3.1.5,60.00275256619414,
condition files/Stage1_2.xlsx,,B3,T4,m,"['c', 'm']","['Clue', 'Monopoly']","[-0.15, 0.5]","[0.15, 0.5]",1,1,,,,,,,,,0,3,3,3,0,7,7,6,,,,,,,,,,,,,,,,,,,,,,,,,,,,,,,,,,,,,,,,,,,,,,,,,,,,,,,522.5224422510005,None,522.5224422510005,None,522.5224422510005,None,m,1,1.9938217089993486,524.0581573160002,None,524.0581573160002,None,524.0581573160002,None,526.1059784260001,None,526.1059784260001,None,526.1059784260001,None,526.1059784260001,None,,,,,,,,,,,,,,,,,,,,,,,,,,,,,,,,,,,,,,,,,,,,001,25,2020_Jan_30_0934,spring_faces,3.1.5,60.00275256619414,
condition files/Stage1_1.xlsx,,B1,T2,c,"['c', 'm']","['Clue', 'Monopoly']","[-0.15, 0.5]","[0.15, 0.5]",1,1,,,,,,,,,0,4,4,4,0,0,0,1,,,,,,,,,,,,,,,,,,,,,,,,,,,,,,,,,,,,,,,,,,,,,,,,,,,,,,,528.0885718300001,None,528.0885718300001,None,528.0885718300001,None,c,1,1.2277748039996368,529.6242188190004,None,529.6242188190004,None,529.6242188190004,None,530.9065413969997,None,530.9065413969997,None,530.9065413969997,None,530.9065413969997,None,,,,,,,,,,,,,,,,,,,,,,,,,,,,,,,,,,,,,,,,,,,,001,25,2020_Jan_30_0934,spring_faces,3.1.5,60.00275256619414,
condition files/Stage1_1.xlsx,,T2,B2,m,"['c', 'm']","['Clue', 'Monopoly']","[-0.15, 0.5]","[0.15, 0.5]",1,1,,,,,,,,,0,4,4,4,0,1,1,3,,,,,,,,,,,,,,,,,,,,,,,,,,,,,,,,,,,,,,,,,,,,,,,,,,,,,,,532.8723119339998,None,532.8723119339998,None,532.8723119339998,None,m,1,2.332291759000327,534.4076484290003,None,534.4076484290003,None,534.4076484290003,None,536.8229156339999,None,536.8229156339999,None,536.8229156339999,None,536.8229156339999,None,,,,,,,,,,,,,,,,,,,,,,,,,,,,,,,,,,,,,,,,,,,,001,25,2020_Jan_30_0934,spring_faces,3.1.5,60.00275256619414,
condition files/Stage1_1.xlsx,,T4,B3,m,"['c', 'm']","['Clue', 'Monopoly']","[-0.15, 0.5]","[0.15, 0.5]",1,1,,,,,,,,,0,4,4,4,0,2,2,6,,,,,,,,,,,,,,,,,,,,,,,,,,,,,,,,,,,,,,,,,,,,,,,,,,,,,,,538.7718571709997,None,538.7718571709997,None,538.7718571709997,None,m,1,4.1937254220001705,540.3063170219998,None,540.3063170219998,None,540.3063170219998,None,544.5560450509997,None,544.5560450509997,None,544.5560450509997,None,544.5560450509997,None,,,,,,,,,,,,,,,,,,,,,,,,,,,,,,,,,,,,,,,,,,,,001,25,2020_Jan_30_0934,spring_faces,3.1.5,60.00275256619414,
condition files/Stage1_1.xlsx,,T3,B4,c,"['c', 'm']","['Clue', 'Monopoly']","[-0.15, 0.5]","[0.15, 0.5]",1,1,,,,,,,,,0,4,4,4,0,3,3,5,,,,,,,,,,,,,,,,,,,,,,,,,,,,,,,,,,,,,,,,,,,,,,,,,,,,,,,546.5225200330001,None,546.5225200330001,None,546.5225200330001,None,c,1,2.3004134499997235,548.0555242000005,None,548.0555242000005,None,548.0555242000005,None,550.4233193180003,None,550.4233193180003,None,550.4233193180003,None,550.4233193180003,None,,,,,,,,,,,,,,,,,,,,,,,,,,,,,,,,,,,,,,,,,,,,001,25,2020_Jan_30_0934,spring_faces,3.1.5,60.00275256619414,
condition files/Stage1_1.xlsx,,B4,T4,m,"['c', 'm']","['Clue', 'Monopoly']","[-0.15, 0.5]","[0.15, 0.5]",1,1,,,,,,,,,0,4,4,4,0,4,4,7,,,,,,,,,,,,,,,,,,,,,,,,,,,,,,,,,,,,,,,,,,,,,,,,,,,,,,,552.3890771540005,None,552.3890771540005,None,552.3890771540005,None,c,0,1.425797687999875,553.9222615149997,None,553.9222615149997,None,553.9222615149997,None,555.406936201,None,555.406936201,None,555.406936201,None,555.406936201,None,,,,,,,,,,,,,,,,,,,,,,,,,,,,,,,,,,,,,,,,,,,,001,25,2020_Jan_30_0934,spring_faces,3.1.5,60.00275256619414,
condition files/Stage1_1.xlsx,,T1,B1,c,"['c', 'm']","['Clue', 'Monopoly']","[-0.15, 0.5]","[0.15, 0.5]",1,1,,,,,,,,,0,4,4,4,0,5,5,0,,,,,,,,,,,,,,,,,,,,,,,,,,,,,,,,,,,,,,,,,,,,,,,,,,,,,,,557.3719260080002,None,557.3719260080002,None,557.3719260080002,None,c,1,1.0027514459998201,558.9052332200004,None,558.9052332200004,None,558.9052332200004,None,559.9743069439996,None,559.9743069439996,None,559.9743069439996,None,559.9743069439996,None,,,,,,,,,,,,,,,,,,,,,,,,,,,,,,,,,,,,,,,,,,,,001,25,2020_Jan_30_0934,spring_faces,3.1.5,60.00275256619414,
condition files/Stage1_1.xlsx,,B2,T1,m,"['c', 'm']","['Clue', 'Monopoly']","[-0.15, 0.5]","[0.15, 0.5]",1,1,,,,,,,,,0,4,4,4,0,6,6,2,,,,,,,,,,,,,,,,,,,,,,,,,,,,,,,,,,,,,,,,,,,,,,,,,,,,,,,561.9388027159998,None,561.9388027159998,None,561.9388027159998,None,m,1,2.0517644799992922,563.4721632490005,None,563.4721632490005,None,563.4721632490005,None,565.5900037850001,None,565.5900037850001,None,565.5900037850001,None,565.5900037850001,None,,,,,,,,,,,,,,,,,,,,,,,,,,,,,,,,,,,,,,,,,,,,001,25,2020_Jan_30_0934,spring_faces,3.1.5,60.00275256619414,
condition files/Stage1_1.xlsx,,B3,T3,c,"['c', 'm']","['Clue', 'Monopoly']","[-0.15, 0.5]","[0.15, 0.5]",1,1,,,,,,,,,0,4,4,4,0,7,7,4,,,,,,,,,,,,,,,,,,,,,,,,,,,,,,,,,,,,,,,,,,,,,,,,,,,,,,,567.5557272000001,None,567.5557272000001,None,567.5557272000001,None,m,0,1.9870240030004425,569.0889658049996,None,569.0889658049996,None,569.0889658049996,None,571.1559497949997,None,571.1559497949997,None,571.1559497949997,None,571.1559497949997,None,,,,,,,,,,,,,,,,,,,,,,,,,,,,,,,,,,,,,,,,,,,,001,25,2020_Jan_30_0934,spring_faces,3.1.5,60.00275256619414,
condition files/Stage1_2.xlsx,,T1,B2,m,"['c', 'm']","['Clue', 'Monopoly']","[-0.15, 0.5]","[0.15, 0.5]",1,1,,,,,,,,,0,5,5,5,0,0,0,2,,,,,,,,,,,,,,,,,,,,,,,,,,,,,,,,,,,,,,,,,,,,,,,,,,,,,,,573.1226025350002,None,573.1226025350002,None,573.1226025350002,None,m,1,1.316449795999688,574.6555336810002,None,574.6555336810002,None,574.6555336810002,None,576.023034153,None,576.023034153,None,576.023034153,None,576.023034153,None,,,,,,,,,,,,,,,,,,,,,,,,,,,,,,,,,,,,,,,,,,,,001,25,2020_Jan_30_0934,spring_faces,3.1.5,60.00275256619414,
condition files/Stage1_2.xlsx,,T4,B4,m,"['c', 'm']","['Clue', 'Monopoly']","[-0.15, 0.5]","[0.15, 0.5]",1,1,,,,,,,,,0,5,5,5,0,1,1,7,,,,,,,,,,,,,,,,,,,,,,,,,,,,,,,,,,,,,,,,,,,,,,,,,,,,,,,577.9891141639996,None,577.9891141639996,None,577.9891141639996,None,c,0,2.417778742000337,579.5221595690005,None,579.5221595690005,None,579.5221595690005,None,582.005831164,None,582.005831164,None,582.005831164,None,582.005831164,None,,,,,,,,,,,,,,,,,,,,,,,,,,,,,,,,,,,,,,,,,,,,001,25,2020_Jan_30_0934,spring_faces,3.1.5,60.00275256619414,
condition files/Stage1_2.xlsx,,B1,T1,c,"['c', 'm']","['Clue', 'Monopoly']","[-0.15, 0.5]","[0.15, 0.5]",1,1,,,,,,,,,0,5,5,5,0,2,2,0,,,,,,,,,,,,,,,,,,,,,,,,,,,,,,,,,,,,,,,,,,,,,,,,,,,,,,,583.9719712769997,None,583.9719712769997,None,583.9719712769997,None,c,1,1.0891588220001722,585.5069021759996,None,585.5069021759996,None,585.5069021759996,None,586.6560583710002,None,586.6560583710002,None,586.6560583710002,None,586.6560583710002,None,,,,,,,,,,,,,,,,,,,,,,,,,,,,,,,,,,,,,,,,,,,,001,25,2020_Jan_30_0934,spring_faces,3.1.5,60.00275256619414,
condition files/Stage1_2.xlsx,,B2,T2,m,"['c', 'm']","['Clue', 'Monopoly']","[-0.15, 0.5]","[0.15, 0.5]",1,1,,,,,,,,,0,5,5,5,0,3,3,3,,,,,,,,,,,,,,,,,,,,,,,,,,,,,,,,,,,,,,,,,,,,,,,,,,,,,,,588.6225127399998,None,588.6225127399998,None,588.6225127399998,None,m,1,3.256103195999458,590.1559527530003,None,590.1559527530003,None,590.1559527530003,None,593.4733165359999,None,593.4733165359999,None,593.4733165359999,None,593.4733165359999,None,,,,,,,,,,,,,,,,,,,,,,,,,,,,,,,,,,,,,,,,,,,,001,25,2020_Jan_30_0934,spring_faces,3.1.5,60.00275256619414,
condition files/Stage1_2.xlsx,,T3,B3,c,"['c', 'm']","['Clue', 'Monopoly']","[-0.15, 0.5]","[0.15, 0.5]",1,1,,,,,,,,,0,5,5,5,0,4,4,4,,,,,,,,,,,,,,,,,,,,,,,,,,,,,,,,,,,,,,,,,,,,,,,,,,,,,,,595.4386376839998,None,595.4386376839998,None,595.4386376839998,None,m,0,2.759153260999483,596.972876667,None,596.972876667,None,596.972876667,None,599.7898253629996,None,599.7898253629996,None,599.7898253629996,None,599.7898253629996,None,,,,,,,,,,,,,,,,,,,,,,,,,,,,,,,,,,,,,,,,,,,,001,25,2020_Jan_30_0934,spring_faces,3.1.5,60.00275256619414,
condition files/Stage1_2.xlsx,,T2,B1,c,"['c', 'm']","['Clue', 'Monopoly']","[-0.15, 0.5]","[0.15, 0.5]",1,1,,,,,,,,,0,5,5,5,0,5,5,1,,,,,,,,,,,,,,,,,,,,,,,,,,,,,,,,,,,,,,,,,,,,,,,,,,,,,,,601.7557814309998,None,601.7557814309998,None,601.7557814309998,None,c,1,1.0026476980001462,603.2893466379996,None,603.2893466379996,None,603.2893466379996,None,604.3559230349997,None,604.3559230349997,None,604.3559230349997,None,604.3559230349997,None,,,,,,,,,,,,,,,,,,,,,,,,,,,,,,,,,,,,,,,,,,,,001,25,2020_Jan_30_0934,spring_faces,3.1.5,60.00275256619414,
condition files/Stage1_2.xlsx,,B3,T4,m,"['c', 'm']","['Clue', 'Monopoly']","[-0.15, 0.5]","[0.15, 0.5]",1,1,,,,,,,,,0,5,5,5,0,6,6,6,,,,,,,,,,,,,,,,,,,,,,,,,,,,,,,,,,,,,,,,,,,,,,,,,,,,,,,606.3223353380004,None,606.3223353380004,None,606.3223353380004,None,m,1,1.1087451530002,607.8553158939999,None,607.8553158939999,None,607.8553158939999,None,609.0239291780003,None,609.0239291780003,None,609.0239291780003,None,609.0239291780003,None,,,,,,,,,,,,,,,,,,,,,,,,,,,,,,,,,,,,,,,,,,,,001,25,2020_Jan_30_0934,spring_faces,3.1.5,60.00275256619414,
condition files/Stage1_2.xlsx,,B4,T3,c,"['c', 'm']","['Clue', 'Monopoly']","[-0.15, 0.5]","[0.15, 0.5]",1,1,,,,,,,,,0,5,5,5,0,7,7,5,,,,,,,,,,,,,,,,,,,,,,,,,,,,,,,,,,,,,,,,,,,,,,,,,,,,,,,610.9890114710001,None,610.9890114710001,None,610.9890114710001,None,c,1,2.713736021999466,612.522178617,None,612.522178617,None,612.522178617,None,615.2889031199998,None,615.2889031199998,None,615.2889031199998,None,615.2889031199998,None,,,,,,,,,,,,,,,,,,,,,,,,,,,,,,,,,,,,,,,,,,,,001,25,2020_Jan_30_0934,spring_faces,3.1.5,60.00275256619414,
condition files/Stage1_1.xlsx,,B1,T2,c,"['c', 'm']","['Clue', 'Monopoly']","[-0.15, 0.5]","[0.15, 0.5]",1,1,,,,,,,,,0,6,6,6,0,0,0,1,,,,,,,,,,,,,,,,,,,,,,,,,,,,,,,,,,,,,,,,,,,,,,,,,,,,,,,617.2721262850005,None,617.2721262850005,None,617.2721262850005,None,c,1,0.8135888589995375,618.8063975769996,None,618.8063975769996,None,618.8063975769996,None,619.6726539420001,None,619.6726539420001,None,619.6726539420001,None,619.6726539420001,None,,,,,,,,,,,,,,,,,,,,,,,,,,,,,,,,,,,,,,,,,,,,001,25,2020_Jan_30_0934,spring_faces,3.1.5,60.00275256619414,
condition files/Stage1_1.xlsx,,B4,T4,m,"['c', 'm']","['Clue', 'Monopoly']","[-0.15, 0.5]","[0.15, 0.5]",1,1,,,,,,,,,0,6,6,6,0,1,1,7,,,,,,,,,,,,,,,,,,,,,,,,,,,,,,,,,,,,,,,,,,,,,,,,,,,,,,,621.6387544690001,None,621.6387544690001,None,621.6387544690001,None,m,1,1.1342840919996888,623.1736938179997,None,623.1736938179997,None,623.1736938179997,None,624.3735778320001,None,624.3735778320001,None,624.3735778320001,None,624.3735778320001,None,,,,,,,,,,,,,,,,,,,,,,,,,,,,,,,,,,,,,,,,,,,,001,25,2020_Jan_30_0934,spring_faces,3.1.5,60.00275256619414,
condition files/Stage1_1.xlsx,,T4,B3,m,"['c', 'm']","['Clue', 'Monopoly']","[-0.15, 0.5]","[0.15, 0.5]",1,1,,,,,,,,,0,6,6,6,0,2,2,6,,,,,,,,,,,,,,,,,,,,,,,,,,,,,,,,,,,,,,,,,,,,,,,,,,,,,,,626.3389842970005,None,626.3389842970005,None,626.3389842970005,None,c,0,0.7233935320000455,627.8726627909996,None,627.8726627909996,None,627.8726627909996,None,628.6561584659999,None,628.6561584659999,None,628.6561584659999,None,628.6561584659999,None,,,,,,,,,,,,,,,,,,,,,,,,,,,,,,,,,,,,,,,,,,,,001,25,2020_Jan_30_0934,spring_faces,3.1.5,60.00275256619414,
condition files/Stage1_1.xlsx,,B2,T1,m,"['c', 'm']","['Clue', 'Monopoly']","[-0.15, 0.5]","[0.15, 0.5]",1,1,,,,,,,,,0,6,6,6,0,3,3,2,,,,,,,,,,,,,,,,,,,,,,,,,,,,,,,,,,,,,,,,,,,,,,,,,,,,,,,630.6223983659997,None,630.6223983659997,None,630.6223983659997,None,m,1,4.583825271000023,632.1721153980002,None,632.1721153980002,None,632.1721153980002,None,636.8055616400002,None,636.8055616400002,None,636.8055616400002,None,636.8055616400002,None,,,,,,,,,,,,,,,,,,,,,,,,,,,,,,,,,,,,,,,,,,,,001,25,2020_Jan_30_0934,spring_faces,3.1.5,60.00275256619414,
condition files/Stage1_1.xlsx,,T3,B4,c,"['c', 'm']","['Clue', 'Monopoly']","[-0.15, 0.5]","[0.15, 0.5]",1,1,,,,,,,,,0,6,6,6,0,4,4,5,,,,,,,,,,,,,,,,,,,,,,,,,,,,,,,,,,,,,,,,,,,,,,,,,,,,,,,638.7722708850001,None,638.7722708850001,None,638.7722708850001,None,c,1,3.057696687999851,640.3223349140003,None,640.3223349140003,None,640.3223349140003,None,643.4418946540004,None,643.4418946540004,None,643.4418946540004,None,643.4418946540004,None,,,,,,,,,,,,,,,,,,,,,,,,,,,,,,,,,,,,,,,,,,,,001,25,2020_Jan_30_0934,spring_faces,3.1.5,60.00275256619414,
condition files/Stage1_1.xlsx,,B3,T3,c,"['c', 'm']","['Clue', 'Monopoly']","[-0.15, 0.5]","[0.15, 0.5]",1,1,,,,,,,,,0,6,6,6,0,5,5,4,,,,,,,,,,,,,,,,,,,,,,,,,,,,,,,,,,,,,,,,,,,,,,,,,,,,,,,645.405055187,None,645.405055187,None,645.405055187,None,c,1,1.800153333999333,646.9397880259999,None,646.9397880259999,None,646.9397880259999,None,648.805994672,None,648.805994672,None,648.805994672,None,648.805994672,None,,,,,,,,,,,,,,,,,,,,,,,,,,,,,,,,,,,,,,,,,,,,001,25,2020_Jan_30_0934,spring_faces,3.1.5,60.00275256619414,
condition files/Stage1_1.xlsx,,T2,B2,m,"['c', 'm']","['Clue', 'Monopoly']","[-0.15, 0.5]","[0.15, 0.5]",1,1,,,,,,,,,0,6,6,6,0,6,6,3,,,,,,,,,,,,,,,,,,,,,,,,,,,,,,,,,,,,,,,,,,,,,,,,,,,,,,,650.7717287379996,None,650.7717287379996,None,650.7717287379996,None,m,1,0.9137260030001926,652.3221681959999,None,652.3221681959999,None,652.3221681959999,None,653.2897370810001,None,653.2897370810001,None,653.2897370810001,None,653.2897370810001,None,,,,,,,,,,,,,,,,,,,,,,,,,,,,,,,,,,,,,,,,,,,,001,25,2020_Jan_30_0934,spring_faces,3.1.5,60.00275256619414,
condition files/Stage1_1.xlsx,,T1,B1,c,"['c', 'm']","['Clue', 'Monopoly']","[-0.15, 0.5]","[0.15, 0.5]",1,1,,,,,,,,,0,6,6,6,0,7,7,0,,,,,,,,,,,,,,,,,,,,,,,,,,,,,,,,,,,,,,,,,,,,,,,,,,,,,,,655.255496839,None,655.255496839,None,655.255496839,None,c,1,3.358405310999842,656.7896350819997,None,656.7896350819997,None,656.7896350819997,None,660.2080536190001,None,660.2080536190001,None,660.2080536190001,None,660.2080536190001,None,,,,,,,,,,,,,,,,,,,,,,,,,,,,,,,,,,,,,,,,,,,,001,25,2020_Jan_30_0934,spring_faces,3.1.5,60.00275256619414,
condition files/Stage1_2.xlsx,,B1,T1,c,"['c', 'm']","['Clue', 'Monopoly']","[-0.15, 0.5]","[0.15, 0.5]",1,1,,,,,,,,,0,7,7,7,0,0,0,0,,,,,,,,,,,,,,,,,,,,,,,,,,,,,,,,,,,,,,,,,,,,,,,,,,,,,,,662.188694858,None,662.188694858,None,662.188694858,None,c,1,0.7446520199991937,663.7392832520004,None,663.7392832520004,None,663.7392832520004,None,664.5393230120003,None,664.5393230120003,None,664.5393230120003,None,664.5393230120003,None,,,,,,,,,,,,,,,,,,,,,,,,,,,,,,,,,,,,,,,,,,,,001,25,2020_Jan_30_0934,spring_faces,3.1.5,60.00275256619414,
condition files/Stage1_2.xlsx,,B2,T2,m,"['c', 'm']","['Clue', 'Monopoly']","[-0.15, 0.5]","[0.15, 0.5]",1,1,,,,,,,,,0,7,7,7,0,1,1,3,,,,,,,,,,,,,,,,,,,,,,,,,,,,,,,,,,,,,,,,,,,,,,,,,,,,,,,666.5057453969998,None,666.5057453969998,None,666.5057453969998,None,m,1,1.2767478429996117,668.0392993139999,None,668.0392993139999,None,668.0392993139999,None,669.3893906950002,None,669.3893906950002,None,669.3893906950002,None,669.3893906950002,None,,,,,,,,,,,,,,,,,,,,,,,,,,,,,,,,,,,,,,,,,,,,001,25,2020_Jan_30_0934,spring_faces,3.1.5,60.00275256619414,
condition files/Stage1_2.xlsx,,T4,B4,m,"['c', 'm']","['Clue', 'Monopoly']","[-0.15, 0.5]","[0.15, 0.5]",1,1,,,,,,,,,0,7,7,7,0,2,2,7,,,,,,,,,,,,,,,,,,,,,,,,,,,,,,,,,,,,,,,,,,,,,,,,,,,,,,,671.3384823009997,None,671.3384823009997,None,671.3384823009997,None,m,1,3.514814844999819,672.8731654730004,None,672.8731654730004,None,672.8731654730004,None,676.4385819499998,None,676.4385819499998,None,676.4385819499998,None,676.4385819499998,None,,,,,,,,,,,,,,,,,,,,,,,,,,,,,,,,,,,,,,,,,,,,001,25,2020_Jan_30_0934,spring_faces,3.1.5,60.00275256619414,
condition files/Stage1_2.xlsx,,B4,T3,c,"['c', 'm']","['Clue', 'Monopoly']","[-0.15, 0.5]","[0.15, 0.5]",1,1,,,,,,,,,0,7,7,7,0,3,3,5,,,,,,,,,,,,,,,,,,,,,,,,,,,,,,,,,,,,,,,,,,,,,,,,,,,,,,,678.4053059089997,None,678.4053059089997,None,678.4053059089997,None,m,0,0.8328294350003489,679.9391541250002,None,679.9391541250002,None,679.9391541250002,None,680.823107101,None,680.823107101,None,680.823107101,None,680.823107101,None,,,,,,,,,,,,,,,,,,,,,,,,,,,,,,,,,,,,,,,,,,,,001,25,2020_Jan_30_0934,spring_faces,3.1.5,60.00275256619414,
condition files/Stage1_2.xlsx,,T3,B3,c,"['c', 'm']","['Clue', 'Monopoly']","[-0.15, 0.5]","[0.15, 0.5]",1,1,,,,,,,,,0,7,7,7,0,4,4,4,,,,,,,,,,,,,,,,,,,,,,,,,,,,,,,,,,,,,,,,,,,,,,,,,,,,,,,682.7884776710002,None,682.7884776710002,None,682.7884776710002,None,c,1,1.761818728000435,684.3221352060004,None,684.3221352060004,None,684.3221352060004,None,686.1393516060002,None,686.1393516060002,None,686.1393516060002,None,686.1393516060002,None,,,,,,,,,,,,,,,,,,,,,,,,,,,,,,,,,,,,,,,,,,,,001,25,2020_Jan_30_0934,spring_faces,3.1.5,60.00275256619414,
condition files/Stage1_2.xlsx,,T1,B2,m,"['c', 'm']","['Clue', 'Monopoly']","[-0.15, 0.5]","[0.15, 0.5]",1,1,,,,,,,,,0,7,7,7,0,5,5,2,,,,,,,,,,,,,,,,,,,,,,,,,,,,,,,,,,,,,,,,,,,,,,,,,,,,,,,688.1058896139998,None,688.1058896139998,None,688.1058896139998,None,m,1,2.093386647999978,689.6386429139998,None,689.6386429139998,None,689.6386429139998,None,691.7918206529998,None,691.7918206529998,None,691.7918206529998,None,691.7918206529998,None,,,,,,,,,,,,,,,,,,,,,,,,,,,,,,,,,,,,,,,,,,,,001,25,2020_Jan_30_0934,spring_faces,3.1.5,60.00275256619414,
condition files/Stage1_2.xlsx,,T2,B1,c,"['c', 'm']","['Clue', 'Monopoly']","[-0.15, 0.5]","[0.15, 0.5]",1,1,,,,,,,,,0,7,7,7,0,6,6,1,,,,,,,,,,,,,,,,,,,,,,,,,,,,,,,,,,,,,,,,,,,,,,,,,,,,,,,693.755705649,None,693.755705649,None,693.755705649,None,c,1,2.138676528999895,695.2892890910002,None,695.2892890910002,None,695.2892890910002,None,697.4911296430005,None,697.4911296430005,None,697.4911296430005,None,697.4911296430005,None,,,,,,,,,,,,,,,,,,,,,,,,,,,,,,,,,,,,,,,,,,,,001,25,2020_Jan_30_0934,spring_faces,3.1.5,60.00275256619414,
condition files/Stage1_2.xlsx,,B3,T4,m,"['c', 'm']","['Clue', 'Monopoly']","[-0.15, 0.5]","[0.15, 0.5]",1,1,,,,,,,,,0,7,7,7,0,7,7,6,,,,,,,,,,,,,,,,,,,,,,,,,,,,,,,,,,,,,,,,,,,,,,,,,,,,,,,699.4555496899998,None,699.4555496899998,None,699.4555496899998,None,c,0,4.117578522999793,700.9904044259997,None,700.9904044259997,None,700.9904044259997,None,705.172582269,None,705.172582269,None,705.172582269,None,705.172582269,None,,,,,,,,,,,,,,,,,,,,,,,,,,,,,,,,,,,,,,,,,,,,001,25,2020_Jan_30_0934,spring_faces,3.1.5,60.00275256619414,
condition files/Stage1_1.xlsx,,T3,B4,c,"['c', 'm']","['Clue', 'Monopoly']","[-0.15, 0.5]","[0.15, 0.5]",1,1,,,,,,,,,0,8,8,8,0,0,0,5,,,,,,,,,,,,,,,,,,,,,,,,,,,,,,,,,,,,,,,,,,,,,,,,,,,,,,,707.1559453200002,None,707.1559453200002,None,707.1559453200002,None,c,1,0.880462140000418,708.6915280540002,None,708.6915280540002,None,708.6915280540002,None,709.6251365960002,None,709.6251365960002,None,709.6251365960002,None,709.6251365960002,None,,,,,,,,,,,,,,,,,,,,,,,,,,,,,,,,,,,,,,,,,,,,001,25,2020_Jan_30_0934,spring_faces,3.1.5,60.00275256619414,
condition files/Stage1_1.xlsx,,B3,T3,c,"['c', 'm']","['Clue', 'Monopoly']","[-0.15, 0.5]","[0.15, 0.5]",1,1,,,,,,,,,0,8,8,8,0,1,1,4,,,,,,,,,,,,,,,,,,,,,,,,,,,,,,,,,,,,,,,,,,,,,,,,,,,,,,,711.5884507449996,None,711.5884507449996,None,711.5884507449996,None,c,1,1.6487377940002261,713.1392282510001,None,713.1392282510001,None,713.1392282510001,None,714.8394593670005,None,714.8394593670005,None,714.8394593670005,None,714.8394593670005,None,,,,,,,,,,,,,,,,,,,,,,,,,,,,,,,,,,,,,,,,,,,,001,25,2020_Jan_30_0934,spring_faces,3.1.5,60.00275256619414,
condition files/Stage1_1.xlsx,,T1,B1,c,"['c', 'm']","['Clue', 'Monopoly']","[-0.15, 0.5]","[0.15, 0.5]",1,1,,,,,,,,,0,8,8,8,0,2,2,0,,,,,,,,,,,,,,,,,,,,,,,,,,,,,,,,,,,,,,,,,,,,,,,,,,,,,,,716.8051412270001,None,716.8051412270001,None,716.8051412270001,None,c,1,1.4736351349993129,718.3384262880004,None,718.3384262880004,None,718.3384262880004,None,719.872918644,None,719.872918644,None,719.872918644,None,719.872918644,None,,,,,,,,,,,,,,,,,,,,,,,,,,,,,,,,,,,,,,,,,,,,001,25,2020_Jan_30_0934,spring_faces,3.1.5,60.00275256619414,
condition files/Stage1_1.xlsx,,B4,T4,m,"['c', 'm']","['Clue', 'Monopoly']","[-0.15, 0.5]","[0.15, 0.5]",1,1,,,,,,,,,0,8,8,8,0,3,3,7,,,,,,,,,,,,,,,,,,,,,,,,,,,,,,,,,,,,,,,,,,,,,,,,,,,,,,,721.838930071,None,721.838930071,None,721.838930071,None,c,0,2.854790019000575,723.3891968599996,None,723.3891968599996,None,723.3891968599996,None,726.3225236399999,None,726.3225236399999,None,726.3225236399999,None,726.3225236399999,None,,,,,,,,,,,,,,,,,,,,,,,,,,,,,,,,,,,,,,,,,,,,001,25,2020_Jan_30_0934,spring_faces,3.1.5,60.00275256619414,
condition files/Stage1_1.xlsx,,T2,B2,m,"['c', 'm']","['Clue', 'Monopoly']","[-0.15, 0.5]","[0.15, 0.5]",1,1,,,,,,,,,0,8,8,8,0,4,4,3,,,,,,,,,,,,,,,,,,,,,,,,,,,,,,,,,,,,,,,,,,,,,,,,,,,,,,,728.2726018850003,None,728.2726018850003,None,728.2726018850003,None,m,1,1.2060402919996704,729.8060197749996,None,729.8060197749996,None,729.8060197749996,None,731.0727800729996,None,731.0727800729996,None,731.0727800729996,None,731.0727800729996,None,,,,,,,,,,,,,,,,,,,,,,,,,,,,,,,,,,,,,,,,,,,,001,25,2020_Jan_30_0934,spring_faces,3.1.5,60.00275256619414,
condition files/Stage1_1.xlsx,,B2,T1,m,"['c', 'm']","['Clue', 'Monopoly']","[-0.15, 0.5]","[0.15, 0.5]",1,1,,,,,,,,,0,8,8,8,0,5,5,2,,,,,,,,,,,,,,,,,,,,,,,,,,,,,,,,,,,,,,,,,,,,,,,,,,,,,,,733.0389649439999,None,733.0389649439999,None,733.0389649439999,None,m,1,1.6074970640001993,734.5725637540004,None,734.5725637540004,None,734.5725637540004,None,736.2392967990004,None,736.2392967990004,None,736.2392967990004,None,736.2392967990004,None,,,,,,,,,,,,,,,,,,,,,,,,,,,,,,,,,,,,,,,,,,,,001,25,2020_Jan_30_0934,spring_faces,3.1.5,60.00275256619414,
condition files/Stage1_1.xlsx,,T4,B3,m,"['c', 'm']","['Clue', 'Monopoly']","[-0.15, 0.5]","[0.15, 0.5]",1,1,,,,,,,,,0,8,8,8,0,6,6,6,,,,,,,,,,,,,,,,,,,,,,,,,,,,,,,,,,,,,,,,,,,,,,,,,,,,,,,738.2056693070003,None,738.2056693070003,None,738.2056693070003,None,c,0,3.5286913700001605,739.7392647760003,None,739.7392647760003,None,739.7392647760003,None,743.3226210489997,None,743.3226210489997,None,743.3226210489997,None,743.3226210489997,None,,,,,,,,,,,,,,,,,,,,,,,,,,,,,,,,,,,,,,,,,,,,001,25,2020_Jan_30_0934,spring_faces,3.1.5,60.00275256619414,
condition files/Stage1_1.xlsx,,B1,T2,c,"['c', 'm']","['Clue', 'Monopoly']","[-0.15, 0.5]","[0.15, 0.5]",1,1,,,,,,,,,0,8,8,8,0,7,7,1,,,,,,,,,,,,,,,,,,,,,,,,,,,,,,,,,,,,,,,,,,,,,,,,,,,,,,,745.2884770670003,None,745.2884770670003,None,745.2884770670003,None,c,1,1.4857326399996964,746.822200096,None,746.822200096,None,746.822200096,None,748.3892548970002,None,748.3892548970002,None,748.3892548970002,None,748.3892548970002,None,,,,,,,,,,,,,,,,,,,,,,,,,,,,,,,,,,,,,,,,,,,,001,25,2020_Jan_30_0934,spring_faces,3.1.5,60.00275256619414,
condition files/Stage1_2.xlsx,,T2,B1,c,"['c', 'm']","['Clue', 'Monopoly']","[-0.15, 0.5]","[0.15, 0.5]",1,1,,,,,,,,,0,9,9,9,0,0,0,1,,,,,,,,,,,,,,,,,,,,,,,,,,,,,,,,,,,,,,,,,,,,,,,,,,,,,,,750.3557309680004,None,750.3557309680004,None,750.3557309680004,None,c,1,1.266866461999598,751.8891173429997,None,751.8891173429997,None,751.8891173429997,None,753.2059219990001,None,753.2059219990001,None,753.2059219990001,None,753.2059219990001,None,,,,,,,,,,,,,,,,,,,,,,,,,,,,,,,,,,,,,,,,,,,,001,25,2020_Jan_30_0934,spring_faces,3.1.5,60.00275256619414,
condition files/Stage1_2.xlsx,,T4,B4,m,"['c', 'm']","['Clue', 'Monopoly']","[-0.15, 0.5]","[0.15, 0.5]",1,1,,,,,,,,,0,9,9,9,0,1,1,7,,,,,,,,,,,,,,,,,,,,,,,,,,,,,,,,,,,,,,,,,,,,,,,,,,,,,,,755.1724050970001,None,755.1724050970001,None,755.1724050970001,None,c,0,1.2825575090000711,756.7054007620004,None,756.7054007620004,None,756.7054007620004,None,758.056132311,None,758.056132311,None,758.056132311,None,758.056132311,None,,,,,,,,,,,,,,,,,,,,,,,,,,,,,,,,,,,,,,,,,,,,001,25,2020_Jan_30_0934,spring_faces,3.1.5,60.00275256619414,
condition files/Stage1_2.xlsx,,B2,T2,m,"['c', 'm']","['Clue', 'Monopoly']","[-0.15, 0.5]","[0.15, 0.5]",1,1,,,,,,,,,0,9,9,9,0,2,2,3,,,,,,,,,,,,,,,,,,,,,,,,,,,,,,,,,,,,,,,,,,,,,,,,,,,,,,,760.0057755880002,None,760.0057755880002,None,760.0057755880002,None,m,1,0.9927488109997284,761.5552770970003,None,761.5552770970003,None,761.5552770970003,None,762.605687535,None,762.605687535,None,762.605687535,None,762.605687535,None,,,,,,,,,,,,,,,,,,,,,,,,,,,,,,,,,,,,,,,,,,,,001,25,2020_Jan_30_0934,spring_faces,3.1.5,60.00275256619414,
condition files/Stage1_2.xlsx,,B1,T1,c,"['c', 'm']","['Clue', 'Monopoly']","[-0.15, 0.5]","[0.15, 0.5]",1,1,,,,,,,,,0,9,9,9,0,3,3,0,,,,,,,,,,,,,,,,,,,,,,,,,,,,,,,,,,,,,,,,,,,,,,,,,,,,,,,764.5726455649997,None,764.5726455649997,None,764.5726455649997,None,c,1,1.338121640999816,766.1058689429997,None,766.1058689429997,None,766.1058689429997,None,767.5058362240002,None,767.5058362240002,None,767.5058362240002,None,767.5058362240002,None,,,,,,,,,,,,,,,,,,,,,,,,,,,,,,,,,,,,,,,,,,,,001,25,2020_Jan_30_0934,spring_faces,3.1.5,60.00275256619414,
condition files/Stage1_2.xlsx,,B4,T3,c,"['c', 'm']","['Clue', 'Monopoly']","[-0.15, 0.5]","[0.15, 0.5]",1,1,,,,,,,,,0,9,9,9,0,4,4,5,,,,,,,,,,,,,,,,,,,,,,,,,,,,,,,,,,,,,,,,,,,,,,,,,,,,,,,769.4723185979997,None,769.4723185979997,None,769.4723185979997,None,c,1,1.7494844789998751,771.0064411070002,None,771.0064411070002,None,771.0064411070002,None,772.8227951699996,None,772.8227951699996,None,772.8227951699996,None,772.8227951699996,None,,,,,,,,,,,,,,,,,,,,,,,,,,,,,,,,,,,,,,,,,,,,001,25,2020_Jan_30_0934,spring_faces,3.1.5,60.00275256619414,
condition files/Stage1_2.xlsx,,B3,T4,m,"['c', 'm']","['Clue', 'Monopoly']","[-0.15, 0.5]","[0.15, 0.5]",1,1,,,,,,,,,0,9,9,9,0,5,5,6,,,,,,,,,,,,,,,,,,,,,,,,,,,,,,,,,,,,,,,,,,,,,,,,,,,,,,,774.7885192460003,None,774.7885192460003,None,774.7885192460003,None,c,0,2.2715834059999906,776.3244760430002,None,776.3244760430002,None,776.3244760430002,None,778.6576455480003,None,778.6576455480003,None,778.6576455480003,None,778.6576455480003,None,,,,,,,,,,,,,,,,,,,,,,,,,,,,,,,,,,,,,,,,,,,,001,25,2020_Jan_30_0934,spring_faces,3.1.5,60.00275256619414,
condition files/Stage1_2.xlsx,,T1,B2,m,"['c', 'm']","['Clue', 'Monopoly']","[-0.15, 0.5]","[0.15, 0.5]",1,1,,,,,,,,,0,9,9,9,0,6,6,2,,,,,,,,,,,,,,,,,,,,,,,,,,,,,,,,,,,,,,,,,,,,,,,,,,,,,,,780.6219080060005,None,780.6219080060005,None,780.6219080060005,None,m,1,1.9588772630004314,782.1571792250002,None,782.1571792250002,None,782.1571792250002,None,784.1728447789997,None,784.1728447789997,None,784.1728447789997,None,784.1728447789997,None,,,,,,,,,,,,,,,,,,,,,,,,,,,,,,,,,,,,,,,,,,,,001,25,2020_Jan_30_0934,spring_faces,3.1.5,60.00275256619414,
condition files/Stage1_2.xlsx,,T3,B3,c,"['c', 'm']","['Clue', 'Monopoly']","[-0.15, 0.5]","[0.15, 0.5]",1,1,,,,,,,,,0,9,9,9,0,7,7,4,,,,,,,,,,,,,,,,,,,,,,,,,,,,,,,,,,,,,,,,,,,,,,,,,,,,,,,786.1389837560005,None,786.1389837560005,None,786.1389837560005,None,c,1,2.7638436630004435,787.6720857579999,None,787.6720857579999,None,787.6720857579999,None,790.4890618320001,None,790.4890618320001,None,790.4890618320001,None,790.4890618320001,None,,,,,,,,,,,,,,,,,,,,,,,,,,,,,,,,,,,,,,,,,,,,001,25,2020_Jan_30_0934,spring_faces,3.1.5,60.00275256619414,
condition files/Stage1_1.xlsx,,T1,B1,c,"['c', 'm']","['Clue', 'Monopoly']","[-0.15, 0.5]","[0.15, 0.5]",1,1,,,,,,,,,0,10,10,10,0,0,0,0,,,,,,,,,,,,,,,,,,,,,,,,,,,,,,,,,,,,,,,,,,,,,,,,,,,,,,,792.4724923500003,None,792.4724923500003,None,792.4724923500003,None,c,1,0.9100874289997591,794.005958667,None,794.005958667,None,794.005958667,None,794.9727441480004,None,794.9727441480004,None,794.9727441480004,None,794.9727441480004,None,,,,,,,,,,,,,,,,,,,,,,,,,,,,,,,,,,,,,,,,,,,,001,25,2020_Jan_30_0934,spring_faces,3.1.5,60.00275256619414,
condition files/Stage1_1.xlsx,,B3,T3,c,"['c', 'm']","['Clue', 'Monopoly']","[-0.15, 0.5]","[0.15, 0.5]",1,1,,,,,,,,,0,10,10,10,0,1,1,4,,,,,,,,,,,,,,,,,,,,,,,,,,,,,,,,,,,,,,,,,,,,,,,,,,,,,,,796.9390089829999,None,796.9390089829999,None,796.9390089829999,None,m,0,2.347900380000283,798.4720795549997,None,798.4720795549997,None,798.4720795549997,None,800.872112259,None,800.872112259,None,800.872112259,None,800.872112259,None,,,,,,,,,,,,,,,,,,,,,,,,,,,,,,,,,,,,,,,,,,,,001,25,2020_Jan_30_0934,spring_faces,3.1.5,60.00275256619414,
condition files/Stage1_1.xlsx,,B2,T1,m,"['c', 'm']","['Clue', 'Monopoly']","[-0.15, 0.5]","[0.15, 0.5]",1,1,,,,,,,,,0,10,10,10,0,2,2,2,,,,,,,,,,,,,,,,,,,,,,,,,,,,,,,,,,,,,,,,,,,,,,,,,,,,,,,802.8391691640004,None,802.8391691640004,None,802.8391691640004,None,m,1,1.7600038239997957,804.3720109569999,None,804.3720109569999,None,804.3720109569999,None,806.1889881259999,None,806.1889881259999,None,806.1889881259999,None,806.1889881259999,None,,,,,,,,,,,,,,,,,,,,,,,,,,,,,,,,,,,,,,,,,,,,001,25,2020_Jan_30_0934,spring_faces,3.1.5,60.00275256619414,
condition files/Stage1_1.xlsx,,T2,B2,m,"['c', 'm']","['Clue', 'Monopoly']","[-0.15, 0.5]","[0.15, 0.5]",1,1,,,,,,,,,0,10,10,10,0,3,3,3,,,,,,,,,,,,,,,,,,,,,,,,,,,,,,,,,,,,,,,,,,,,,,,,,,,,,,,808.1550388740002,None,808.1550388740002,None,808.1550388740002,None,m,1,1.563158172999465,809.6888407740003,None,809.6888407740003,None,809.6888407740003,None,811.3059407730002,None,811.3059407730002,None,811.3059407730002,None,811.3059407730002,None,,,,,,,,,,,,,,,,,,,,,,,,,,,,,,,,,,,,,,,,,,,,001,25,2020_Jan_30_0934,spring_faces,3.1.5,60.00275256619414,
condition files/Stage1_1.xlsx,,T3,B4,c,"['c', 'm']","['Clue', 'Monopoly']","[-0.15, 0.5]","[0.15, 0.5]",1,1,,,,,,,,,0,10,10,10,0,4,4,5,,,,,,,,,,,,,,,,,,,,,,,,,,,,,,,,,,,,,,,,,,,,,,,,,,,,,,,813.2725037140003,None,813.2725037140003,None,813.2725037140003,None,c,1,1.7426858099997844,814.8053731730001,None,814.8053731730001,None,814.8053731730001,None,816.6075423309999,None,816.6075423309999,None,816.6075423309999,None,816.6075423309999,None,,,,,,,,,,,,,,,,,,,,,,,,,,,,,,,,,,,,,,,,,,,,001,25,2020_Jan_30_0934,spring_faces,3.1.5,60.00275256619414,
condition files/Stage1_1.xlsx,,T4,B3,m,"['c', 'm']","['Clue', 'Monopoly']","[-0.15, 0.5]","[0.15, 0.5]",1,1,,,,,,,,,0,10,10,10,0,5,5,6,,,,,,,,,,,,,,,,,,,,,,,,,,,,,,,,,,,,,,,,,,,,,,,,,,,,,,,818.5723929809997,None,818.5723929809997,None,818.5723929809997,None,c,0,3.3538279459999103,820.1061744390004,None,820.1061744390004,None,820.1061744390004,None,823.5388660740005,None,823.5388660740005,None,823.5388660740005,None,823.5388660740005,None,,,,,,,,,,,,,,,,,,,,,,,,,,,,,,,,,,,,,,,,,,,,001,25,2020_Jan_30_0934,spring_faces,3.1.5,60.00275256619414,
condition files/Stage1_1.xlsx,,B4,T4,m,"['c', 'm']","['Clue', 'Monopoly']","[-0.15, 0.5]","[0.15, 0.5]",1,1,,,,,,,,,0,10,10,10,0,6,6,7,,,,,,,,,,,,,,,,,,,,,,,,,,,,,,,,,,,,,,,,,,,,,,,,,,,,,,,825.4884314599999,None,825.4884314599999,None,825.4884314599999,None,m,1,2.2289733580000757,827.0230221810002,None,827.0230221810002,None,827.0230221810002,None,829.3059272149999,None,829.3059272149999,None,829.3059272149999,None,829.3059272149999,None,,,,,,,,,,,,,,,,,,,,,,,,,,,,,,,,,,,,,,,,,,,,001,25,2020_Jan_30_0934,spring_faces,3.1.5,60.00275256619414,
condition files/Stage1_1.xlsx,,B1,T2,c,"['c', 'm']","['Clue', 'Monopoly']","[-0.15, 0.5]","[0.15, 0.5]",1,1,,,,,,,,,0,10,10,10,0,7,7,1,,,,,,,,,,,,,,,,,,,,,,,,,,,,,,,,,,,,,,,,,,,,,,,,,,,,,,,831.2725336799999,None,831.2725336799999,None,831.2725336799999,None,c,1,1.7896496939993085,832.8064072049997,None,832.8064072049997,None,832.8064072049997,None,834.6574665450003,None,834.6574665450003,None,834.6574665450003,None,834.6574665450003,None,,,,,,,,,,,,,,,,,,,,,,,,,,,,,,,,,,,,,,,,,,,,001,25,2020_Jan_30_0934,spring_faces,3.1.5,60.00275256619414,
condition files/Stage1_2.xlsx,,B3,T4,m,"['c', 'm']","['Clue', 'Monopoly']","[-0.15, 0.5]","[0.15, 0.5]",1,1,,,,,,,,,0,11,11,11,0,0,0,6,,,,,,,,,,,,,,,,,,,,,,,,,,,,,,,,,,,,,,,,,,,,,,,,,,,,,,,836.6392916810005,None,836.6392916810005,None,836.6392916810005,None,c,0,3.479459262999626,838.1725388119999,None,838.1725388119999,None,838.1725388119999,None,841.7059240410003,None,841.7059240410003,None,841.7059240410003,None,841.7059240410003,None,,,,,,,,,,,,,,,,,,,,,,,,,,,,,,,,,,,,,,,,,,,,001,25,2020_Jan_30_0934,spring_faces,3.1.5,60.00275256619414,
condition files/Stage1_2.xlsx,,B4,T3,c,"['c', 'm']","['Clue', 'Monopoly']","[-0.15, 0.5]","[0.15, 0.5]",1,1,,,,,,,,,0,11,11,11,0,1,1,5,,,,,,,,,,,,,,,,,,,,,,,,,,,,,,,,,,,,,,,,,,,,,,,,,,,,,,,843.6724140609999,None,843.6724140609999,None,843.6724140609999,None,c,1,3.501087223000468,845.2069063240001,None,845.2069063240001,None,845.2069063240001,None,848.7886664620005,None,848.7886664620005,None,848.7886664620005,None,848.7886664620005,None,,,,,,,,,,,,,,,,,,,,,,,,,,,,,,,,,,,,,,,,,,,,001,25,2020_Jan_30_0934,spring_faces,3.1.5,60.00275256619414,
condition files/Stage1_2.xlsx,,T2,B1,c,"['c', 'm']","['Clue', 'Monopoly']","[-0.15, 0.5]","[0.15, 0.5]",1,1,,,,,,,,,0,11,11,11,0,2,2,1,,,,,,,,,,,,,,,,,,,,,,,,,,,,,,,,,,,,,,,,,,,,,,,,,,,,,,,850.7390750990003,None,850.7390750990003,None,850.7390750990003,None,c,1,1.011536631999661,852.272399033,None,852.272399033,None,852.272399033,None,853.3552911210004,None,853.3552911210004,None,853.3552911210004,None,853.3552911210004,None,,,,,,,,,,,,,,,,,,,,,,,,,,,,,,,,,,,,,,,,,,,,001,25,2020_Jan_30_0934,spring_faces,3.1.5,60.00275256619414,
condition files/Stage1_2.xlsx,,T1,B2,m,"['c', 'm']","['Clue', 'Monopoly']","[-0.15, 0.5]","[0.15, 0.5]",1,1,,,,,,,,,0,11,11,11,0,3,3,2,,,,,,,,,,,,,,,,,,,,,,,,,,,,,,,,,,,,,,,,,,,,,,,,,,,,,,,855.3051782150001,None,855.3051782150001,None,855.3051782150001,None,m,1,1.3388473659997544,856.8412182340003,None,856.8412182340003,None,856.8412182340003,None,858.2390820739997,None,858.2390820739997,None,858.2390820739997,None,858.2390820739997,None,,,,,,,,,,,,,,,,,,,,,,,,,,,,,,,,,,,,,,,,,,,,001,25,2020_Jan_30_0934,spring_faces,3.1.5,60.00275256619414,
condition files/Stage1_2.xlsx,,B2,T2,m,"['c', 'm']","['Clue', 'Monopoly']","[-0.15, 0.5]","[0.15, 0.5]",1,1,,,,,,,,,0,11,11,11,0,4,4,3,,,,,,,,,,,,,,,,,,,,,,,,,,,,,,,,,,,,,,,,,,,,,,,,,,,,,,,860.2056796669999,None,860.2056796669999,None,860.2056796669999,None,m,1,1.207049798999833,861.7410204470002,None,861.7410204470002,None,861.7410204470002,None,863.0061054869998,None,863.0061054869998,None,863.0061054869998,None,863.0061054869998,None,,,,,,,,,,,,,,,,,,,,,,,,,,,,,,,,,,,,,,,,,,,,001,25,2020_Jan_30_0934,spring_faces,3.1.5,60.00275256619414,
condition files/Stage1_2.xlsx,,T3,B3,c,"['c', 'm']","['Clue', 'Monopoly']","[-0.15, 0.5]","[0.15, 0.5]",1,1,,,,,,,,,0,11,11,11,0,5,5,4,,,,,,,,,,,,,,,,,,,,,,,,,,,,,,,,,,,,,,,,,,,,,,,,,,,,,,,864.9717468269996,None,864.9717468269996,None,864.9717468269996,None,m,0,4.058447235999665,866.5056080340005,None,866.5056080340005,None,866.5056080340005,None,870.6250388240001,None,870.6250388240001,None,870.6250388240001,None,870.6250388240001,None,,,,,,,,,,,,,,,,,,,,,,,,,,,,,,,,,,,,,,,,,,,,001,25,2020_Jan_30_0934,spring_faces,3.1.5,60.00275256619414,
condition files/Stage1_2.xlsx,,T4,B4,m,"['c', 'm']","['Clue', 'Monopoly']","[-0.15, 0.5]","[0.15, 0.5]",1,1,,,,,,,,,0,11,11,11,0,6,6,7,,,,,,,,,,,,,,,,,,,,,,,,,,,,,,,,,,,,,,,,,,,,,,,,,,,,,,,872.588498693,None,872.588498693,None,872.588498693,None,c,0,2.0737971059998017,874.1222645920002,None,874.1222645920002,None,874.1222645920002,None,876.2555930020003,None,876.2555930020003,None,876.2555930020003,None,876.2555930020003,None,,,,,,,,,,,,,,,,,,,,,,,,,,,,,,,,,,,,,,,,,,,,001,25,2020_Jan_30_0934,spring_faces,3.1.5,60.00275256619414,
condition files/Stage1_2.xlsx,,B1,T1,c,"['c', 'm']","['Clue', 'Monopoly']","[-0.15, 0.5]","[0.15, 0.5]",1,1,,,,,,,,,0,11,11,11,0,7,7,0,,,,,,,,,,,,,,,,,,,,,,,,,,,,,,,,,,,,,,,,,,,,,,,,,,,,,,,878.2223716220001,None,878.2223716220001,None,878.2223716220001,None,c,1,4.23261277399979,879.7553714319997,None,879.7553714319997,None,879.7553714319997,None,884.0388324210003,None,884.0388324210003,None,884.0388324210003,None,884.0388324210003,None,,,,,,,,,,,,,,,,,,,,,,,,,,,,,,,,,,,,,,,,,,,,001,25,2020_Jan_30_0934,spring_faces,3.1.5,60.00275256619414,
,,,,,,,,,,,,,,,,,,,,,,,,,,,,,,,,,,,,,,,,,,,,,,,,,,,,,,,,,,,,,,,,,,,,,,,,,,,,,,,,,,,,,,,,,,,,,,,,,,,,,,,,,,,,,,,,886.0226201370001,None,space,9.941590469999937,891.0224743439999,None,,,,,,,,,,,,,,,,,,,,,,,,,,,,,,001,25,2020_Jan_30_0934,spring_faces,3.1.5,60.00275256619414,
condition files/Stage2_1.xlsx,,T5,B5,s,"['s', 'r']","['Stratego', 'Risk']","[-0.15, 0.5]","[0.15, 0.5]",1,1,,,,,,,,,,,,,,,,,0,0,0,0,0,0,0,0,,,,,,,,,,,,,,,,,,,,,,,,,,,,,,,,,,,,,,,,,,,,,,,901.0227838269998,None,901.0227838269998,None,901.0227838269998,None,s,1,2.423917412999799,902.5721487309997,None,902.5721487309997,None,902.5721487309997,None,905.07265469,None,905.07265469,None,905.07265469,None,905.07265469,None,,,,,,,,,,,,,,,891.0224743439999,None,,,,,,,,,,,,,,,,,,,,,,,,,,,,001,25,2020_Jan_30_0934,spring_faces,3.1.5,60.00275256619414,
condition files/Stage2_1.xlsx,,B6,T6,r,"['s', 'r']","['Stratego', 'Risk']","[-0.15, 0.5]","[0.15, 0.5]",1,1,,,,,,,,,,,,,,,,,0,0,0,0,0,1,1,1,,,,,,,,,,,,,,,,,,,,,,,,,,,,,,,,,,,,,,,,,,,,,,,907.0223554919999,None,907.0223554919999,None,907.0223554919999,None,r,1,1.8795647500000996,908.572408304,None,908.572408304,None,908.572408304,None,910.5224979130003,None,910.5224979130003,None,910.5224979130003,None,910.5224979130003,None,,,,,,,,,,,,,,,,,,,,,,,,,,,,,,,,,,,,,,,,,,,,001,25,2020_Jan_30_0934,spring_faces,3.1.5,60.00275256619414,
condition files/Stage2_1.xlsx,,B4,T4,r,"['s', 'r']","['Stratego', 'Risk']","[-0.15, 0.5]","[0.15, 0.5]",1,1,,,,,,,,,,,,,,,,,0,0,0,0,0,2,2,5,,,,,,,,,,,,,,,,,,,,,,,,,,,,,,,,,,,,,,,,,,,,,,,912.4727884469999,None,912.4727884469999,None,912.4727884469999,None,r,1,1.1494930819999354,914.0224755189997,None,914.0224755189997,None,914.0224755189997,None,915.2229254139997,None,915.2229254139997,None,915.2229254139997,None,915.2229254139997,None,,,,,,,,,,,,,,,,,,,,,,,,,,,,,,,,,,,,,,,,,,,,001,25,2020_Jan_30_0934,spring_faces,3.1.5,60.00275256619414,
condition files/Stage2_1.xlsx,,B2,T2,r,"['s', 'r']","['Stratego', 'Risk']","[-0.15, 0.5]","[0.15, 0.5]",1,1,,,,,,,,,,,,,,,,,0,0,0,0,0,3,3,3,,,,,,,,,,,,,,,,,,,,,,,,,,,,,,,,,,,,,,,,,,,,,,,917.1889650879998,None,917.1889650879998,None,917.1889650879998,None,r,1,1.2654188599999543,918.7225581690004,None,918.7225581690004,None,918.7225581690004,None,920.0393392359997,None,920.0393392359997,None,920.0393392359997,None,920.0393392359997,None,,,,,,,,,,,,,,,,,,,,,,,,,,,,,,,,,,,,,,,,,,,,001,25,2020_Jan_30_0934,spring_faces,3.1.5,60.00275256619414,
condition files/Stage2_1.xlsx,,T3,B3,s,"['s', 'r']","['Stratego', 'Risk']","[-0.15, 0.5]","[0.15, 0.5]",1,1,,,,,,,,,,,,,,,,,0,0,0,0,0,4,4,4,,,,,,,,,,,,,,,,,,,,,,,,,,,,,,,,,,,,,,,,,,,,,,,922.0051716949997,None,922.0051716949997,None,922.0051716949997,None,r,0,1.0239949919996434,923.5400572490003,None,923.5400572490003,None,923.5400572490003,None,924.6235003200004,None,924.6235003200004,None,924.6235003200004,None,924.6235003200004,None,,,,,,,,,,,,,,,,,,,,,,,,,,,,,,,,,,,,,,,,,,,,001,25,2020_Jan_30_0934,spring_faces,3.1.5,60.00275256619414,
condition files/Stage2_1.xlsx,,T1,B1,s,"['s', 'r']","['Stratego', 'Risk']","[-0.15, 0.5]","[0.15, 0.5]",1,1,,,,,,,,,,,,,,,,,0,0,0,0,0,5,5,2,,,,,,,,,,,,,,,,,,,,,,,,,,,,,,,,,,,,,,,,,,,,,,,926.5890604290003,None,926.5890604290003,None,926.5890604290003,None,s,1,3.338192039000205,928.1218001969996,None,928.1218001969996,None,928.1218001969996,None,931.5223754550002,None,931.5223754550002,None,931.5223754550002,None,931.5223754550002,None,,,,,,,,,,,,,,,,,,,,,,,,,,,,,,,,,,,,,,,,,,,,001,25,2020_Jan_30_0934,spring_faces,3.1.5,60.00275256619414,
condition files/Stage2_2.xlsx,,T2,B2,r,"['s', 'r']","['Stratego', 'Risk']","[-0.15, 0.5]","[0.15, 0.5]",1,1,,,,,,,,,,,,,,,,,0,1,1,1,0,0,0,3,,,,,,,,,,,,,,,,,,,,,,,,,,,,,,,,,,,,,,,,,,,,,,,933.506334143,None,933.506334143,None,933.506334143,None,r,1,0.9803178430001935,935.0396766750005,None,935.0396766750005,None,935.0396766750005,None,936.0723584450002,None,936.0723584450002,None,936.0723584450002,None,936.0723584450002,None,,,,,,,,,,,,,,,,,,,,,,,,,,,,,,,,,,,,,,,,,,,,001,25,2020_Jan_30_0934,spring_faces,3.1.5,60.00275256619414,
condition files/Stage2_2.xlsx,,B1,T1,s,"['s', 'r']","['Stratego', 'Risk']","[-0.15, 0.5]","[0.15, 0.5]",1,1,,,,,,,,,,,,,,,,,0,1,1,1,0,1,1,2,,,,,,,,,,,,,,,,,,,,,,,,,,,,,,,,,,,,,,,,,,,,,,,938.039087392,None,938.039087392,None,938.039087392,None,s,1,1.023324522000621,939.5727197829997,None,939.5727197829997,None,939.5727197829997,None,940.6564406729999,None,940.6564406729999,None,940.6564406729999,None,940.6564406729999,None,,,,,,,,,,,,,,,,,,,,,,,,,,,,,,,,,,,,,,,,,,,,001,25,2020_Jan_30_0934,spring_faces,3.1.5,60.00275256619414,
condition files/Stage2_2.xlsx,,T6,B6,r,"['s', 'r']","['Stratego', 'Risk']","[-0.15, 0.5]","[0.15, 0.5]",1,1,,,,,,,,,,,,,,,,,0,1,1,1,0,2,2,1,,,,,,,,,,,,,,,,,,,,,,,,,,,,,,,,,,,,,,,,,,,,,,,942.6221582339999,None,942.6221582339999,None,942.6221582339999,None,s,0,1.7668101799999931,944.1571303570004,None,944.1571303570004,None,944.1571303570004,None,945.9903177760002,None,945.9903177760002,None,945.9903177760002,None,945.9903177760002,None,,,,,,,,,,,,,,,,,,,,,,,,,,,,,,,,,,,,,,,,,,,,001,25,2020_Jan_30_0934,spring_faces,3.1.5,60.00275256619414,
condition files/Stage2_2.xlsx,,B3,T3,s,"['s', 'r']","['Stratego', 'Risk']","[-0.15, 0.5]","[0.15, 0.5]",1,1,,,,,,,,,,,,,,,,,0,1,1,1,0,3,3,4,,,,,,,,,,,,,,,,,,,,,,,,,,,,,,,,,,,,,,,,,,,,,,,947.9559532260005,None,947.9559532260005,None,947.9559532260005,None,r,0,1.521965502999592,949.4900997130003,None,949.4900997130003,None,949.4900997130003,None,951.0726297059996,None,951.0726297059996,None,951.0726297059996,None,951.0726297059996,None,,,,,,,,,,,,,,,,,,,,,,,,,,,,,,,,,,,,,,,,,,,,001,25,2020_Jan_30_0934,spring_faces,3.1.5,60.00275256619414,
condition files/Stage2_2.xlsx,,B5,T5,s,"['s', 'r']","['Stratego', 'Risk']","[-0.15, 0.5]","[0.15, 0.5]",1,1,,,,,,,,,,,,,,,,,0,1,1,1,0,4,4,0,,,,,,,,,,,,,,,,,,,,,,,,,,,,,,,,,,,,,,,,,,,,,,,953.038714234,None,953.038714234,None,953.038714234,None,s,1,0.9195346899996366,954.572459728,None,954.572459728,None,954.572459728,None,955.5561860929997,None,955.5561860929997,None,955.5561860929997,None,955.5561860929997,None,,,,,,,,,,,,,,,,,,,,,,,,,,,,,,,,,,,,,,,,,,,,001,25,2020_Jan_30_0934,spring_faces,3.1.5,60.00275256619414,
condition files/Stage2_2.xlsx,,T4,B4,r,"['s', 'r']","['Stratego', 'Risk']","[-0.15, 0.5]","[0.15, 0.5]",1,1,,,,,,,,,,,,,,,,,0,1,1,1,0,5,5,5,,,,,,,,,,,,,,,,,,,,,,,,,,,,,,,,,,,,,,,,,,,,,,,957.5219121490004,None,957.5219121490004,None,957.5219121490004,None,r,1,2.515272909000487,959.0567191969999,None,959.0567191969999,None,959.0567191969999,None,961.6389817630002,None,961.6389817630002,None,961.6389817630002,None,961.6389817630002,None,,,,,,,,,,,,,,,,,,,,,,,,,,,,,,,,,,,,,,,,,,,,001,25,2020_Jan_30_0934,spring_faces,3.1.5,60.00275256619414,
condition files/Stage2_1.xlsx,,B4,T4,r,"['s', 'r']","['Stratego', 'Risk']","[-0.15, 0.5]","[0.15, 0.5]",1,1,,,,,,,,,,,,,,,,,0,2,2,2,0,0,0,5,,,,,,,,,,,,,,,,,,,,,,,,,,,,,,,,,,,,,,,,,,,,,,,963.6053590919996,None,963.6053590919996,None,963.6053590919996,None,r,1,4.3358680310002455,965.1561301550005,None,965.1561301550005,None,965.1561301550005,None,969.5552478029999,None,969.5552478029999,None,969.5552478029999,None,969.5552478029999,None,,,,,,,,,,,,,,,,,,,,,,,,,,,,,,,,,,,,,,,,,,,,001,25,2020_Jan_30_0934,spring_faces,3.1.5,60.00275256619414,
condition files/Stage2_1.xlsx,,T3,B3,s,"['s', 'r']","['Stratego', 'Risk']","[-0.15, 0.5]","[0.15, 0.5]",1,1,,,,,,,,,,,,,,,,,0,2,2,2,0,1,1,4,,,,,,,,,,,,,,,,,,,,,,,,,,,,,,,,,,,,,,,,,,,,,,,971.5223978469999,None,971.5223978469999,None,971.5223978469999,None,s,1,2.3387416279992976,973.057324416,None,973.057324416,None,973.057324416,None,975.472665715,None,975.472665715,None,975.472665715,None,975.472665715,None,,,,,,,,,,,,,,,,,,,,,,,,,,,,,,,,,,,,,,,,,,,,001,25,2020_Jan_30_0934,spring_faces,3.1.5,60.00275256619414,
condition files/Stage2_1.xlsx,,T1,B1,s,"['s', 'r']","['Stratego', 'Risk']","[-0.15, 0.5]","[0.15, 0.5]",1,1,,,,,,,,,,,,,,,,,0,2,2,2,0,2,2,2,,,,,,,,,,,,,,,,,,,,,,,,,,,,,,,,,,,,,,,,,,,,,,,977.4218365560005,None,977.4218365560005,None,977.4218365560005,None,s,1,2.310770224999942,978.9571924010002,None,978.9571924010002,None,978.9571924010002,None,981.3221802769999,None,981.3221802769999,None,981.3221802769999,None,981.3221802769999,None,,,,,,,,,,,,,,,,,,,,,,,,,,,,,,,,,,,,,,,,,,,,001,25,2020_Jan_30_0934,spring_faces,3.1.5,60.00275256619414,
condition files/Stage2_1.xlsx,,T5,B5,s,"['s', 'r']","['Stratego', 'Risk']","[-0.15, 0.5]","[0.15, 0.5]",1,1,,,,,,,,,,,,,,,,,0,2,2,2,0,3,3,0,,,,,,,,,,,,,,,,,,,,,,,,,,,,,,,,,,,,,,,,,,,,,,,983.2891887860001,None,983.2891887860001,None,983.2891887860001,None,s,1,1.115695589999632,984.824248331,None,984.824248331,None,984.824248331,None,986.0059130060004,None,986.0059130060004,None,986.0059130060004,None,986.0059130060004,None,,,,,,,,,,,,,,,,,,,,,,,,,,,,,,,,,,,,,,,,,,,,001,25,2020_Jan_30_0934,spring_faces,3.1.5,60.00275256619414,
condition files/Stage2_1.xlsx,,B6,T6,r,"['s', 'r']","['Stratego', 'Risk']","[-0.15, 0.5]","[0.15, 0.5]",1,1,,,,,,,,,,,,,,,,,0,2,2,2,0,4,4,1,,,,,,,,,,,,,,,,,,,,,,,,,,,,,,,,,,,,,,,,,,,,,,,987.972573947,None,987.972573947,None,987.972573947,None,r,1,1.8423275780005497,989.5057278230001,None,989.5057278230001,None,989.5057278230001,None,991.4074274099999,None,991.4074274099999,None,991.4074274099999,None,991.4074274099999,None,,,,,,,,,,,,,,,,,,,,,,,,,,,,,,,,,,,,,,,,,,,,001,25,2020_Jan_30_0934,spring_faces,3.1.5,60.00275256619414,
condition files/Stage2_1.xlsx,,B2,T2,r,"['s', 'r']","['Stratego', 'Risk']","[-0.15, 0.5]","[0.15, 0.5]",1,1,,,,,,,,,,,,,,,,,0,2,2,2,0,5,5,3,,,,,,,,,,,,,,,,,,,,,,,,,,,,,,,,,,,,,,,,,,,,,,,993.3723836350005,None,993.3723836350005,None,993.3723836350005,None,r,1,1.2257809190004991,994.9222612070002,None,994.9222612070002,None,994.9222612070002,None,996.2060013599998,None,996.2060013599998,None,996.2060013599998,None,996.2060013599998,None,,,,,,,,,,,,,,,,,,,,,,,,,,,,,,,,,,,,,,,,,,,,001,25,2020_Jan_30_0934,spring_faces,3.1.5,60.00275256619414,
condition files/Stage2_2.xlsx,,B5,T5,s,"['s', 'r']","['Stratego', 'Risk']","[-0.15, 0.5]","[0.15, 0.5]",1,1,,,,,,,,,,,,,,,,,0,3,3,3,0,0,0,0,,,,,,,,,,,,,,,,,,,,,,,,,,,,,,,,,,,,,,,,,,,,,,,998.1894814510001,None,998.1894814510001,None,998.1894814510001,None,s,1,1.0645286099997975,999.7394509139999,None,999.7394509139999,None,999.7394509139999,None,1000.8572000320005,None,1000.8572000320005,None,1000.8572000320005,None,1000.8572000320005,None,,,,,,,,,,,,,,,,,,,,,,,,,,,,,,,,,,,,,,,,,,,,001,25,2020_Jan_30_0934,spring_faces,3.1.5,60.00275256619414,
condition files/Stage2_2.xlsx,,T4,B4,r,"['s', 'r']","['Stratego', 'Risk']","[-0.15, 0.5]","[0.15, 0.5]",1,1,,,,,,,,,,,,,,,,,0,3,3,3,0,1,1,5,,,,,,,,,,,,,,,,,,,,,,,,,,,,,,,,,,,,,,,,,,,,,,,1002.8224272370003,None,1002.8224272370003,None,1002.8224272370003,None,s,0,1.4239886530003787,1004.3560631180003,None,1004.3560631180003,None,1004.3560631180003,None,1005.855589024,None,1005.855589024,None,1005.855589024,None,1005.855589024,None,,,,,,,,,,,,,,,,,,,,,,,,,,,,,,,,,,,,,,,,,,,,001,25,2020_Jan_30_0934,spring_faces,3.1.5,60.00275256619414,
condition files/Stage2_2.xlsx,,B3,T3,s,"['s', 'r']","['Stratego', 'Risk']","[-0.15, 0.5]","[0.15, 0.5]",1,1,,,,,,,,,,,,,,,,,0,3,3,3,0,2,2,4,,,,,,,,,,,,,,,,,,,,,,,,,,,,,,,,,,,,,,,,,,,,,,,1007.8057767380001,None,1007.8057767380001,None,1007.8057767380001,None,s,1,1.351650988000074,1009.3403469939999,None,1009.3403469939999,None,1009.3403469939999,None,1010.772626126,None,1010.772626126,None,1010.772626126,None,1010.772626126,None,,,,,,,,,,,,,,,,,,,,,,,,,,,,,,,,,,,,,,,,,,,,001,25,2020_Jan_30_0934,spring_faces,3.1.5,60.00275256619414,
condition files/Stage2_2.xlsx,,T6,B6,r,"['s', 'r']","['Stratego', 'Risk']","[-0.15, 0.5]","[0.15, 0.5]",1,1,,,,,,,,,,,,,,,,,0,3,3,3,0,3,3,1,,,,,,,,,,,,,,,,,,,,,,,,,,,,,,,,,,,,,,,,,,,,,,,1012.7224602740002,None,1012.7224602740002,None,1012.7224602740002,None,r,1,1.2363840549996894,1014.2556092380005,None,1014.2556092380005,None,1014.2556092380005,None,1015.5586728720004,None,1015.5586728720004,None,1015.5586728720004,None,1015.5586728720004,None,,,,,,,,,,,,,,,,,,,,,,,,,,,,,,,,,,,,,,,,,,,,001,25,2020_Jan_30_0934,spring_faces,3.1.5,60.00275256619414,
condition files/Stage2_2.xlsx,,B1,T1,s,"['s', 'r']","['Stratego', 'Risk']","[-0.15, 0.5]","[0.15, 0.5]",1,1,,,,,,,,,,,,,,,,,0,3,3,3,0,4,4,2,,,,,,,,,,,,,,,,,,,,,,,,,,,,,,,,,,,,,,,,,,,,,,,1017.5224081090005,None,1017.5224081090005,None,1017.5224081090005,None,s,1,1.1703125109997927,1019.0576815810005,None,1019.0576815810005,None,1019.0576815810005,None,1020.289560615,None,1020.289560615,None,1020.289560615,None,1020.289560615,None,,,,,,,,,,,,,,,,,,,,,,,,,,,,,,,,,,,,,,,,,,,,001,25,2020_Jan_30_0934,spring_faces,3.1.5,60.00275256619414,
condition files/Stage2_2.xlsx,,T2,B2,r,"['s', 'r']","['Stratego', 'Risk']","[-0.15, 0.5]","[0.15, 0.5]",1,1,,,,,,,,,,,,,,,,,0,3,3,3,0,5,5,3,,,,,,,,,,,,,,,,,,,,,,,,,,,,,,,,,,,,,,,,,,,,,,,1022.255671675,None,1022.255671675,None,1022.255671675,None,r,1,1.1901698780002334,1023.7898997500001,None,1023.7898997500001,None,1023.7898997500001,None,1025.0416659790003,None,1025.0416659790003,None,1025.0416659790003,None,1025.0416659790003,None,,,,,,,,,,,,,,,,,,,,,,,,,,,,,,,,,,,,,,,,,,,,001,25,2020_Jan_30_0934,spring_faces,3.1.5,60.00275256619414,
condition files/Stage2_1.xlsx,,B4,T4,r,"['s', 'r']","['Stratego', 'Risk']","[-0.15, 0.5]","[0.15, 0.5]",1,1,,,,,,,,,,,,,,,,,0,4,4,4,0,0,0,5,,,,,,,,,,,,,,,,,,,,,,,,,,,,,,,,,,,,,,,,,,,,,,,1027.0225406510003,None,1027.0225406510003,None,1027.0225406510003,None,r,1,3.1898165249995145,1028.558240926,None,1028.558240926,None,1028.558240926,None,1031.805388675,None,1031.805388675,None,1031.805388675,None,1031.805388675,None,,,,,,,,,,,,,,,,,,,,,,,,,,,,,,,,,,,,,,,,,,,,001,25,2020_Jan_30_0934,spring_faces,3.1.5,60.00275256619414,
condition files/Stage2_1.xlsx,,B6,T6,r,"['s', 'r']","['Stratego', 'Risk']","[-0.15, 0.5]","[0.15, 0.5]",1,1,,,,,,,,,,,,,,,,,0,4,4,4,0,1,1,1,,,,,,,,,,,,,,,,,,,,,,,,,,,,,,,,,,,,,,,,,,,,,,,1033.772305557,None,1033.772305557,None,1033.772305557,None,r,1,2.0891337299999577,1035.3069391539998,None,1035.3069391539998,None,1035.3069391539998,None,1037.45592798,None,1037.45592798,None,1037.45592798,None,1037.45592798,None,,,,,,,,,,,,,,,,,,,,,,,,,,,,,,,,,,,,,,,,,,,,001,25,2020_Jan_30_0934,spring_faces,3.1.5,60.00275256619414,
condition files/Stage2_1.xlsx,,T1,B1,s,"['s', 'r']","['Stratego', 'Risk']","[-0.15, 0.5]","[0.15, 0.5]",1,1,,,,,,,,,,,,,,,,,0,4,4,4,0,2,2,2,,,,,,,,,,,,,,,,,,,,,,,,,,,,,,,,,,,,,,,,,,,,,,,1039.421932441,None,1039.421932441,None,1039.421932441,None,s,1,2.2961562990003586,1040.9558382990003,None,1040.9558382990003,None,1040.9558382990003,None,1043.3086147600002,None,1043.3086147600002,None,1043.3086147600002,None,1043.3086147600002,None,,,,,,,,,,,,,,,,,,,,,,,,,,,,,,,,,,,,,,,,,,,,001,25,2020_Jan_30_0934,spring_faces,3.1.5,60.00275256619414,
condition files/Stage2_1.xlsx,,T5,B5,s,"['s', 'r']","['Stratego', 'Risk']","[-0.15, 0.5]","[0.15, 0.5]",1,1,,,,,,,,,,,,,,,,,0,4,4,4,0,3,3,0,,,,,,,,,,,,,,,,,,,,,,,,,,,,,,,,,,,,,,,,,,,,,,,1045.2723821160002,None,1045.2723821160002,None,1045.2723821160002,None,s,1,0.9585711800000354,1046.8054958899997,None,1046.8054958899997,None,1046.8054958899997,None,1047.8226632150004,None,1047.8226632150004,None,1047.8226632150004,None,1047.8226632150004,None,,,,,,,,,,,,,,,,,,,,,,,,,,,,,,,,,,,,,,,,,,,,001,25,2020_Jan_30_0934,spring_faces,3.1.5,60.00275256619414,
condition files/Stage2_1.xlsx,,T3,B3,s,"['s', 'r']","['Stratego', 'Risk']","[-0.15, 0.5]","[0.15, 0.5]",1,1,,,,,,,,,,,,,,,,,0,4,4,4,0,4,4,4,,,,,,,,,,,,,,,,,,,,,,,,,,,,,,,,,,,,,,,,,,,,,,,1049.7891397520002,None,1049.7891397520002,None,1049.7891397520002,None,r,0,1.881264181000006,1051.3386812129997,None,1051.3386812129997,None,1051.3386812129997,None,1053.272505085,None,1053.272505085,None,1053.272505085,None,1053.272505085,None,,,,,,,,,,,,,,,,,,,,,,,,,,,,,,,,,,,,,,,,,,,,001,25,2020_Jan_30_0934,spring_faces,3.1.5,60.00275256619414,
