condsFile,subStage,cue1,cue2,correct,responseKeys,responseNames,cue1Position,cue2Position,cue1Opacity,cue2Opacity,stageLoop0.thisRepN,stageLoop0.thisTrialN,stageLoop0.thisN,stageLoop0.thisIndex,blockLoop0.thisRepN,blockLoop0.thisTrialN,blockLoop0.thisN,blockLoop0.thisIndex,stage1Loop.thisRepN,stage1Loop.thisTrialN,stage1Loop.thisN,stage1Loop.thisIndex,blockLoop1.thisRepN,blockLoop1.thisTrialN,blockLoop1.thisN,blockLoop1.thisIndex,stage2Loop.thisRepN,stage2Loop.thisTrialN,stage2Loop.thisN,stage2Loop.thisIndex,blockLoop2.thisRepN,blockLoop2.thisTrialN,blockLoop2.thisN,blockLoop2.thisIndex,testLoop.thisRepN,testLoop.thisTrialN,testLoop.thisN,testLoop.thisIndex,blockLoopTest.thisRepN,blockLoopTest.thisTrialN,blockLoopTest.thisN,blockLoopTest.thisIndex,cuePics,id_instr_text.started,id_instr_text.stopped,space_to_continue_2.started,space_to_continue_2.stopped,end_instructions_resp_3.keys,end_instructions_resp_3.rt,end_instructions_resp_3.started,end_instructions_resp_3.stopped,id_input_instr.started,id_input_instr.stopped,id_input_rect.started,id_input_rect.stopped,id_input_resp.keys,id_input_resp.rt,id_input_resp.started,id_input_resp.stopped,sonaID,id_input_text.started,id_input_text.stopped,final_text.started,final_text.stopped,instructions.started,instructions.stopped,end_instructions_resp.keys,end_instructions_resp.rt,end_instructions_resp.started,end_instructions_resp.stopped,space_to_continue.started,space_to_continue.stopped,instructions_stage0.started,instructions_stage0.stopped,end_instructions_resp_stage0.keys,end_instructions_resp_stage0.rt,end_instructions_resp_stage0.started,end_instructions_resp_stage0.stopped,space_to_continue_stage0.started,space_to_continue_stage0.stopped,text.started,text.stopped,resp_text1.started,resp_text1.stopped,resp_text2.started,resp_text2.stopped,trial_resp.keys,trial_resp.corr,trial_resp.rt,trial_resp.started,trial_resp.stopped,cue1Image.started,cue1Image.stopped,cue2Image.started,cue2Image.stopped,cue1Image_fb.started,cue1Image_fb.stopped,cue2Image_fb.started,cue2Image_fb.stopped,fb_text_answer.started,fb_text_answer.stopped,feedback_image.started,feedback_image.stopped,instructions_stage1.started,instructions_stage1.stopped,end_instructions_resp_stage1.keys,end_instructions_resp_stage1.rt,end_instructions_resp_stage1.started,end_instructions_resp_stage1.stopped,space_to_continue_stage1.started,space_to_continue_stage1.stopped,instructions_2.started,instructions_2.stopped,end_instructions_resp_2.keys,end_instructions_resp_2.rt,end_instructions_resp_2.started,end_instructions_resp_2.stopped,press_space_to_continue_stage2.started,press_space_to_continue_stage2.stopped,instructions_testStage1.started,instructions_testStage1.stopped,end_instructions_resp_test1.keys,end_instructions_resp_test1.rt,end_instructions_resp_test1.started,end_instructions_resp_test1.stopped,press_space_to_continue_test1.started,press_space_to_continue_test1.stopped,cue1Image_testChoice.started,cue1Image_testChoice.stopped,cue2Image_testChoice.started,cue2Image_testChoice.stopped,test_resp.keys,test_resp.corr,test_resp.rt,test_resp.started,test_resp.stopped,cue1Image_testConf.started,cue1Image_testConf.stopped,cue2Image_testConf.started,cue2Image_testConf.stopped,conf_reminder.started,conf_reminder.stopped,conf_rating.response,conf_rating.rt,conf_rating.started,conf_rating.stopped,session,participant,date,expName,psychopyVersion,frameRate,
,,,,,,,,,,,,,,,,,,,,,,,,,,,,,,,,,,,,,,,,,,,"{'none': 'pictures/20M_AN_C.png', 'alpha': 'pictures/SHINEd_melon.png', 'beta': 'pictures/SHINEd_apple.png', 'theta': 'pictures/SHINEd_pear.png', 'phi': 'pictures/SHINEd_pepper.png', 'T1': 'pictures/31M_AN_C.png', 'T2': 'pictures/20M_AN_C.png', 'T3': 'pictures/22M_AN_C.png', 'T4': 'pictures/26M_AN_C.png', 'T5': 'pictures/25M_AN_C.png', 'T6': 'pictures/38M_AN_C.png', 'B1': 'pictures/37M_NE_C.png', 'B2': 'pictures/33M_NE_C.png', 'B3': 'pictures/36M_NE_C.png', 'B4': 'pictures/32M_NE_C.png', 'B5': 'pictures/34M_NE_C.png', 'B6': 'pictures/23M_NE_C.png'}",158.15873015200032,None,163.15867754200008,None,space,17.374328689999857,163.15867754200008,None,,,,,,,,,,,,,,,,,,,,,,,,,,,,,,,,,,,,,,,,,,,,,,,,,,,,,,,,,,,,,,,,,,,,,,,,,,,,,,,,,,,,,,,,,,,,,,,,001,2,2020_Jan_28_0925,spring_faces,3.1.5,60.01975129973214,
,,,,,,,,,,,,,,,,,,,,,,,,,,,,,,,,,,,,,,,,,,,,,,,,,,,,180.90810649600007,None,180.90810649600007,None,"['0', '6', '1', '0', 'c', 'r', 'c', 'e', 's']","[15.40077089999977, 15.848823442999674, 31.49678907500038, 31.62488909700005, 39.096827098000176, 39.5768193290005, 46.808878013999674, 47.24082754899973, 47.67282906899982]",180.90810649600007,None,,,,,,,,,,,,,,,,,,,,,,,,,,,,,,,,,,,,,,,,,,,,,,,,,,,,,,,,,,,,,,,,,,,,,,,,,,,,,,,,,,,,,,,,001,2,2020_Jan_28_0925,spring_faces,3.1.5,60.01975129973214,
,,,,,,,,,,,,,,,,,,,,,,,,,,,,,,,,,,,,,,,,,,,,,,,,,,,,,,,,,,,,0610crces,180.90810649600007,None,180.90810649600007,None,233.6586635880003,None,space,9.682334215000083,238.65860573999998,None,,,,,,,,,,,,,,,,,,,,,,,,,,,,,,,,,,,,,,,,,,,,,,,,,,,,,,,,,,,,,,,,,,,,,,,,,,,,,001,2,2020_Jan_28_0925,spring_faces,3.1.5,60.01975129973214,
,,,,,,,,,,,,,,,,,,,,,,,,,,,,,,,,,,,,,,,,,,,,,,,,,,,,,,,,,,,,,,,,,,,,,,,238.65860573999998,None,248.3750150040005,None,space,11.557237030000579,253.37577791900003,None,,,,,,,,,,,,,,,,,,,,,,,,,,,,,,,,,,,,,,,,,,,,,,,,,,,,,,,,,,,,,,,,,,,,,001,2,2020_Jan_28_0925,spring_faces,3.1.5,60.01975129973214,
condition files/Stage0a.xlsx,0a,beta,none,g,"['h', 'g']","['Chess', 'Go']","[0, 0.5]","[0, 0]",1,0,0,0,0,0,0,0,0,1,,,,,,,,,,,,,,,,,,,,,,,,,,,,,,,,,,,,,,,,,,,,,,,,,,,,,,,,,,,,,253.37577791900003,None,264.9922467920005,None,264.9922467920005,None,264.9922467920005,None,g,1,6.853430160999778,266.5755072480006,None,266.5755072480006,None,266.5755072480006,None,273.50826514100027,None,273.50826514100027,None,273.50826514100027,None,273.50826514100027,None,,,,,,,,,,,,,,,,,,,,,,,,,,,,,,,,,,,,,,,,,,,,001,2,2020_Jan_28_0925,spring_faces,3.1.5,60.01975129973214,
condition files/Stage0a.xlsx,0a,alpha,none,h,"['h', 'g']","['Chess', 'Go']","[0, 0.5]","[0, 0]",1,0,0,0,0,0,0,1,1,0,,,,,,,,,,,,,,,,,,,,,,,,,,,,,,,,,,,,,,,,,,,,,,,,,,,,,,,,,,,,,,,275.4585118670002,None,275.4585118670002,None,275.4585118670002,None,h,1,1.5095470999995086,276.9914565609997,None,276.9914565609997,None,276.9914565609997,None,278.55794005900043,None,278.55794005900043,None,278.55794005900043,None,278.55794005900043,None,,,,,,,,,,,,,,,,,,,,,,,,,,,,,,,,,,,,,,,,,,,,001,2,2020_Jan_28_0925,spring_faces,3.1.5,60.01975129973214,
condition files/Stage0a.xlsx,0a,beta,none,g,"['h', 'g']","['Chess', 'Go']","[0, 0.5]","[0, 0]",1,0,0,1,1,1,0,0,0,1,,,,,,,,,,,,,,,,,,,,,,,,,,,,,,,,,,,,,,,,,,,,,,,,,,,,,,,,,,,,,,,280.54228451700055,None,280.54228451700055,None,280.54228451700055,None,g,1,1.2254779189997862,282.0755353579998,None,282.0755353579998,None,282.0755353579998,None,283.35856573,None,283.35856573,None,283.35856573,None,283.35856573,None,,,,,,,,,,,,,,,,,,,,,,,,,,,,,,,,,,,,,,,,,,,,001,2,2020_Jan_28_0925,spring_faces,3.1.5,60.01975129973214,
condition files/Stage0a.xlsx,0a,alpha,none,h,"['h', 'g']","['Chess', 'Go']","[0, 0.5]","[0, 0]",1,0,0,1,1,1,0,1,1,0,,,,,,,,,,,,,,,,,,,,,,,,,,,,,,,,,,,,,,,,,,,,,,,,,,,,,,,,,,,,,,,285.326118985,None,285.326118985,None,285.326118985,None,h,1,1.2421366380003747,286.85885077400053,None,286.85885077400053,None,286.85885077400053,None,288.1584524050004,None,288.1584524050004,None,288.1584524050004,None,288.1584524050004,None,,,,,,,,,,,,,,,,,,,,,,,,,,,,,,,,,,,,,,,,,,,,001,2,2020_Jan_28_0925,spring_faces,3.1.5,60.01975129973214,
condition files/Stage0a.xlsx,0a,beta,none,g,"['h', 'g']","['Chess', 'Go']","[0, 0.5]","[0, 0]",1,0,0,2,2,2,0,0,0,1,,,,,,,,,,,,,,,,,,,,,,,,,,,,,,,,,,,,,,,,,,,,,,,,,,,,,,,,,,,,,,,290.1418655130001,None,290.1418655130001,None,290.1418655130001,None,h,0,1.514120116000413,291.6750247830005,None,291.6750247830005,None,291.6750247830005,None,293.2419197750005,None,293.2419197750005,None,293.2419197750005,None,293.2419197750005,None,,,,,,,,,,,,,,,,,,,,,,,,,,,,,,,,,,,,,,,,,,,,001,2,2020_Jan_28_0925,spring_faces,3.1.5,60.01975129973214,
condition files/Stage0a.xlsx,0a,alpha,none,h,"['h', 'g']","['Chess', 'Go']","[0, 0.5]","[0, 0]",1,0,0,2,2,2,0,1,1,0,,,,,,,,,,,,,,,,,,,,,,,,,,,,,,,,,,,,,,,,,,,,,,,,,,,,,,,,,,,,,,,295.2090422430001,None,295.2090422430001,None,295.2090422430001,None,h,1,1.3903722899995046,296.7426408780002,None,296.7426408780002,None,296.7426408780002,None,298.19181765099984,None,298.19181765099984,None,298.19181765099984,None,298.19181765099984,None,,,,,,,,,,,,,,,,,,,,,,,,,,,,,,,,,,,,,,,,,,,,001,2,2020_Jan_28_0925,spring_faces,3.1.5,60.01975129973214,
condition files/Stage0a.xlsx,0a,beta,none,g,"['h', 'g']","['Chess', 'Go']","[0, 0.5]","[0, 0]",1,0,0,3,3,3,0,0,0,1,,,,,,,,,,,,,,,,,,,,,,,,,,,,,,,,,,,,,,,,,,,,,,,,,,,,,,,,,,,,,,,300.17544705,None,300.17544705,None,300.17544705,None,g,1,0.6007781680000335,301.7081324609999,None,301.7081324609999,None,301.7081324609999,None,302.3591510490005,None,302.3591510490005,None,302.3591510490005,None,302.3591510490005,None,,,,,,,,,,,,,,,,,,,,,,,,,,,,,,,,,,,,,,,,,,,,001,2,2020_Jan_28_0925,spring_faces,3.1.5,60.01975129973214,
condition files/Stage0a.xlsx,0a,alpha,none,h,"['h', 'g']","['Chess', 'Go']","[0, 0.5]","[0, 0]",1,0,0,3,3,3,0,1,1,0,,,,,,,,,,,,,,,,,,,,,,,,,,,,,,,,,,,,,,,,,,,,,,,,,,,,,,,,,,,,,,,304.32520726500024,None,304.32520726500024,None,304.32520726500024,None,h,1,0.5942415930003335,305.85869119900053,None,305.85869119900053,None,305.85869119900053,None,306.509018017,None,306.509018017,None,306.509018017,None,306.509018017,None,,,,,,,,,,,,,,,,,,,,,,,,,,,,,,,,,,,,,,,,,,,,001,2,2020_Jan_28_0925,spring_faces,3.1.5,60.01975129973214,
condition files/Stage0a.xlsx,0a,beta,none,g,"['h', 'g']","['Chess', 'Go']","[0, 0.5]","[0, 0]",1,0,0,4,4,4,0,0,0,1,,,,,,,,,,,,,,,,,,,,,,,,,,,,,,,,,,,,,,,,,,,,,,,,,,,,,,,,,,,,,,,308.4923510670005,None,308.4923510670005,None,308.4923510670005,None,g,1,0.635909876000369,310.0090186039997,None,310.0090186039997,None,310.0090186039997,None,310.7090489510001,None,310.7090489510001,None,310.7090489510001,None,310.7090489510001,None,,,,,,,,,,,,,,,,,,,,,,,,,,,,,,,,,,,,,,,,,,,,001,2,2020_Jan_28_0925,spring_faces,3.1.5,60.01975129973214,
condition files/Stage0a.xlsx,0a,alpha,none,h,"['h', 'g']","['Chess', 'Go']","[0, 0.5]","[0, 0]",1,0,0,4,4,4,0,1,1,0,,,,,,,,,,,,,,,,,,,,,,,,,,,,,,,,,,,,,,,,,,,,,,,,,,,,,,,,,,,,,,,312.6753500599998,None,312.6753500599998,None,312.6753500599998,None,h,1,0.6919623690000662,314.2090348850006,None,314.2090348850006,None,314.2090348850006,None,314.9587850879998,None,314.9587850879998,None,314.9587850879998,None,314.9587850879998,None,,,,,,,,,,,,,,,,,,,,,,,,,,,,,,,,,,,,,,,,,,,,001,2,2020_Jan_28_0925,spring_faces,3.1.5,60.01975129973214,
condition files/Stage0a.xlsx,0a,alpha,none,h,"['h', 'g']","['Chess', 'Go']","[0, 0.5]","[0, 0]",1,0,0,5,5,5,0,0,0,0,,,,,,,,,,,,,,,,,,,,,,,,,,,,,,,,,,,,,,,,,,,,,,,,,,,,,,,,,,,,,,,316.9422930840001,None,316.9422930840001,None,316.9422930840001,None,h,1,0.8094435010007146,318.4755134880006,None,318.4755134880006,None,318.4755134880006,None,319.34171338800024,None,319.34171338800024,None,319.34171338800024,None,319.34171338800024,None,,,,,,,,,,,,,,,,,,,,,,,,,,,,,,,,,,,,,,,,,,,,001,2,2020_Jan_28_0925,spring_faces,3.1.5,60.01975129973214,
condition files/Stage0a.xlsx,0a,beta,none,g,"['h', 'g']","['Chess', 'Go']","[0, 0.5]","[0, 0]",1,0,0,5,5,5,0,1,1,1,,,,,,,,,,,,,,,,,,,,,,,,,,,,,,,,,,,,,,,,,,,,,,,,,,,,,,,,,,,,,,,321.3085812999998,None,321.3085812999998,None,321.3085812999998,None,g,1,0.5228146310000739,322.8421245290001,None,322.8421245290001,None,322.8421245290001,None,323.4248758399999,None,323.4248758399999,None,323.4248758399999,None,323.4248758399999,None,,,,,,,,,,,,,,,,,,,,,,,,,,,,,,,,,,,,,,,,,,,,001,2,2020_Jan_28_0925,spring_faces,3.1.5,60.01975129973214,
condition files/Stage0b_1.xlsx,0b,alpha,none,h,"['h', 'g']","['Chess', 'Go']","[-0.15, 0.5]","[0.15, 0.5]",1,0,0,6,6,6,0,0,0,0,,,,,,,,,,,,,,,,,,,,,,,,,,,,,,,,,,,,,,,,,,,,,,,,,,,,,,,,,,,,,,,325.4086048750005,None,325.4086048750005,None,325.4086048750005,None,h,1,0.6640127440005017,326.9249522700002,None,326.9249522700002,None,326.9249522700002,None,327.64243045700005,None,327.64243045700005,None,327.64243045700005,None,327.64243045700005,None,,,,,,,,,,,,,,,,,,,,,,,,,,,,,,,,,,,,,,,,,,,,001,2,2020_Jan_28_0925,spring_faces,3.1.5,60.01975129973214,
condition files/Stage0b_1.xlsx,0b,none,beta,g,"['h', 'g']","['Chess', 'Go']","[-0.15, 0.5]","[0.15, 0.5]",0,1,0,6,6,6,0,1,1,1,,,,,,,,,,,,,,,,,,,,,,,,,,,,,,,,,,,,,,,,,,,,,,,,,,,,,,,,,,,,,,,329.6085798610002,None,329.6085798610002,None,329.6085798610002,None,g,1,0.5225720900007218,331.1464399840006,None,331.1464399840006,None,331.1464399840006,None,331.74202856100055,None,331.74202856100055,None,331.74202856100055,None,331.74202856100055,None,,,,,,,,,,,,,,,,,,,,,,,,,,,,,,,,,,,,,,,,,,,,001,2,2020_Jan_28_0925,spring_faces,3.1.5,60.01975129973214,
condition files/Stage0b_2.xlsx,0b,beta,none,g,"['h', 'g']","['Chess', 'Go']","[-0.15, 0.5]","[0.15, 0.5]",1,0,0,7,7,7,0,0,0,1,,,,,,,,,,,,,,,,,,,,,,,,,,,,,,,,,,,,,,,,,,,,,,,,,,,,,,,,,,,,,,,333.7086887000005,None,333.7086887000005,None,333.7086887000005,None,g,1,0.8904412510000839,335.2585431030002,None,335.2585431030002,None,335.2585431030002,None,336.2084769540006,None,336.2084769540006,None,336.2084769540006,None,336.2084769540006,None,,,,,,,,,,,,,,,,,,,,,,,,,,,,,,,,,,,,,,,,,,,,001,2,2020_Jan_28_0925,spring_faces,3.1.5,60.01975129973214,
condition files/Stage0b_2.xlsx,0b,none,alpha,h,"['h', 'g']","['Chess', 'Go']","[-0.15, 0.5]","[0.15, 0.5]",0,1,0,7,7,7,0,1,1,0,,,,,,,,,,,,,,,,,,,,,,,,,,,,,,,,,,,,,,,,,,,,,,,,,,,,,,,,,,,,,,,338.175207583,None,338.175207583,None,338.175207583,None,h,1,0.5490080330000637,339.7119345780002,None,339.7119345780002,None,339.7119345780002,None,340.3274706259999,None,340.3274706259999,None,340.3274706259999,None,340.3274706259999,None,,,,,,,,,,,,,,,,,,,,,,,,,,,,,,,,,,,,,,,,,,,,001,2,2020_Jan_28_0925,spring_faces,3.1.5,60.01975129973214,
condition files/Stage0b_1.xlsx,0b,alpha,none,h,"['h', 'g']","['Chess', 'Go']","[-0.15, 0.5]","[0.15, 0.5]",1,0,0,8,8,8,0,0,0,0,,,,,,,,,,,,,,,,,,,,,,,,,,,,,,,,,,,,,,,,,,,,,,,,,,,,,,,,,,,,,,,342.30870309500006,None,342.30870309500006,None,342.30870309500006,None,h,1,0.7029074430001856,343.8461080520001,None,343.8461080520001,None,343.8461080520001,None,344.60860214700006,None,344.60860214700006,None,344.60860214700006,None,344.60860214700006,None,,,,,,,,,,,,,,,,,,,,,,,,,,,,,,,,,,,,,,,,,,,,001,2,2020_Jan_28_0925,spring_faces,3.1.5,60.01975129973214,
condition files/Stage0b_1.xlsx,0b,none,beta,g,"['h', 'g']","['Chess', 'Go']","[-0.15, 0.5]","[0.15, 0.5]",0,1,0,8,8,8,0,1,1,1,,,,,,,,,,,,,,,,,,,,,,,,,,,,,,,,,,,,,,,,,,,,,,,,,,,,,,,,,,,,,,,346.5752630850002,None,346.5752630850002,None,346.5752630850002,None,g,1,0.4701006889999917,348.11085849200026,None,348.11085849200026,None,348.11085849200026,None,348.6452279089999,None,348.6452279089999,None,348.6452279089999,None,348.6452279089999,None,,,,,,,,,,,,,,,,,,,,,,,,,,,,,,,,,,,,,,,,,,,,001,2,2020_Jan_28_0925,spring_faces,3.1.5,60.01975129973214,
condition files/Stage0b_2.xlsx,0b,none,alpha,h,"['h', 'g']","['Chess', 'Go']","[-0.15, 0.5]","[0.15, 0.5]",0,1,0,9,9,9,0,0,0,0,,,,,,,,,,,,,,,,,,,,,,,,,,,,,,,,,,,,,,,,,,,,,,,,,,,,,,,,,,,,,,,350.62489116899997,None,350.62489116899997,None,350.62489116899997,None,h,1,0.8061315550003201,352.1588236630005,None,352.1588236630005,None,352.1588236630005,None,353.0249016460002,None,353.0249016460002,None,353.0249016460002,None,353.0249016460002,None,,,,,,,,,,,,,,,,,,,,,,,,,,,,,,,,,,,,,,,,,,,,001,2,2020_Jan_28_0925,spring_faces,3.1.5,60.01975129973214,
condition files/Stage0b_2.xlsx,0b,beta,none,g,"['h', 'g']","['Chess', 'Go']","[-0.15, 0.5]","[0.15, 0.5]",1,0,0,9,9,9,0,1,1,1,,,,,,,,,,,,,,,,,,,,,,,,,,,,,,,,,,,,,,,,,,,,,,,,,,,,,,,,,,,,,,,354.99165462900055,None,354.99165462900055,None,354.99165462900055,None,g,1,0.40271370799928263,356.5302758079997,None,356.5302758079997,None,356.5302758079997,None,356.99604696000006,None,356.99604696000006,None,356.99604696000006,None,356.99604696000006,None,,,,,,,,,,,,,,,,,,,,,,,,,,,,,,,,,,,,,,,,,,,,001,2,2020_Jan_28_0925,spring_faces,3.1.5,60.01975129973214,
condition files/Stage0b_1.xlsx,0b,alpha,none,h,"['h', 'g']","['Chess', 'Go']","[-0.15, 0.5]","[0.15, 0.5]",1,0,0,10,10,10,0,0,0,0,,,,,,,,,,,,,,,,,,,,,,,,,,,,,,,,,,,,,,,,,,,,,,,,,,,,,,,,,,,,,,,358.9747996750002,None,358.9747996750002,None,358.9747996750002,None,h,1,0.6641816370001834,360.50875343900043,None,360.50875343900043,None,360.50875343900043,None,361.22514933799994,None,361.22514933799994,None,361.22514933799994,None,361.22514933799994,None,,,,,,,,,,,,,,,,,,,,,,,,,,,,,,,,,,,,,,,,,,,,001,2,2020_Jan_28_0925,spring_faces,3.1.5,60.01975129973214,
condition files/Stage0b_1.xlsx,0b,none,beta,g,"['h', 'g']","['Chess', 'Go']","[-0.15, 0.5]","[0.15, 0.5]",0,1,0,10,10,10,0,1,1,1,,,,,,,,,,,,,,,,,,,,,,,,,,,,,,,,,,,,,,,,,,,,,,,,,,,,,,,,,,,,,,,363.1919575440006,None,363.1919575440006,None,363.1919575440006,None,g,1,0.604538954000418,364.7284717100001,None,364.7284717100001,None,364.7284717100001,None,365.3960289610004,None,365.3960289610004,None,365.3960289610004,None,365.3960289610004,None,,,,,,,,,,,,,,,,,,,,,,,,,,,,,,,,,,,,,,,,,,,,001,2,2020_Jan_28_0925,spring_faces,3.1.5,60.01975129973214,
condition files/Stage0b_2.xlsx,0b,none,alpha,h,"['h', 'g']","['Chess', 'Go']","[-0.15, 0.5]","[0.15, 0.5]",0,1,0,11,11,11,0,0,0,0,,,,,,,,,,,,,,,,,,,,,,,,,,,,,,,,,,,,,,,,,,,,,,,,,,,,,,,,,,,,,,,367.3753596209999,None,367.3753596209999,None,367.3753596209999,None,h,1,0.47202493300028436,368.9089270479999,None,368.9089270479999,None,368.9089270479999,None,369.4415767700002,None,369.4415767700002,None,369.4415767700002,None,369.4415767700002,None,,,,,,,,,,,,,,,,,,,,,,,,,,,,,,,,,,,,,,,,,,,,001,2,2020_Jan_28_0925,spring_faces,3.1.5,60.01975129973214,
condition files/Stage0b_2.xlsx,0b,beta,none,g,"['h', 'g']","['Chess', 'Go']","[-0.15, 0.5]","[0.15, 0.5]",1,0,0,11,11,11,0,1,1,1,,,,,,,,,,,,,,,,,,,,,,,,,,,,,,,,,,,,,,,,,,,,,,,,,,,,,,,,,,,,,,,371.408719217,None,371.408719217,None,371.408719217,None,g,1,0.3726856969997243,372.9443248289999,None,372.9443248289999,None,372.9443248289999,None,373.37874112200006,None,373.37874112200006,None,373.37874112200006,None,373.37874112200006,None,,,,,,,,,,,,,,,,,,,,,,,,,,,,,,,,,,,,,,,,,,,,001,2,2020_Jan_28_0925,spring_faces,3.1.5,60.01975129973214,
condition files/Stage0c_1.xlsx,0c,alpha,phi,h,"['h', 'g']","['Chess', 'Go']","[-0.15, 0.5]","[0.15, 0.5]",1,1,0,12,12,12,0,0,0,1,,,,,,,,,,,,,,,,,,,,,,,,,,,,,,,,,,,,,,,,,,,,,,,,,,,,,,,,,,,,,,,375.3584924480001,None,375.3584924480001,None,375.3584924480001,None,h,1,2.088826193999921,376.8921118500002,None,376.8921118500002,None,376.8921118500002,None,379.04145500400045,None,379.04145500400045,None,379.04145500400045,None,379.04145500400045,None,,,,,,,,,,,,,,,,,,,,,,,,,,,,,,,,,,,,,,,,,,,,001,2,2020_Jan_28_0925,spring_faces,3.1.5,60.01975129973214,
condition files/Stage0c_1.xlsx,0c,theta,alpha,h,"['h', 'g']","['Chess', 'Go']","[-0.15, 0.5]","[0.15, 0.5]",1,1,0,12,12,12,0,1,1,0,,,,,,,,,,,,,,,,,,,,,,,,,,,,,,,,,,,,,,,,,,,,,,,,,,,,,,,,,,,,,,,381.0077382489999,None,381.0077382489999,None,381.0077382489999,None,h,1,1.1587804769997092,382.54219811500025,None,382.54219811500025,None,382.54219811500025,None,383.7591115089999,None,383.7591115089999,None,383.7591115089999,None,383.7591115089999,None,,,,,,,,,,,,,,,,,,,,,,,,,,,,,,,,,,,,,,,,,,,,001,2,2020_Jan_28_0925,spring_faces,3.1.5,60.01975129973214,
condition files/Stage0c_1.xlsx,0c,phi,beta,g,"['h', 'g']","['Chess', 'Go']","[-0.15, 0.5]","[0.15, 0.5]",1,1,0,12,12,12,0,2,2,3,,,,,,,,,,,,,,,,,,,,,,,,,,,,,,,,,,,,,,,,,,,,,,,,,,,,,,,,,,,,,,,385.7253670529999,None,385.7253670529999,None,385.7253670529999,None,g,1,0.9382978849998835,387.258638841,None,387.258638841,None,387.258638841,None,388.25876510499984,None,388.25876510499984,None,388.25876510499984,None,388.25876510499984,None,,,,,,,,,,,,,,,,,,,,,,,,,,,,,,,,,,,,,,,,,,,,001,2,2020_Jan_28_0925,spring_faces,3.1.5,60.01975129973214,
condition files/Stage0c_1.xlsx,0c,beta,theta,g,"['h', 'g']","['Chess', 'Go']","[-0.15, 0.5]","[0.15, 0.5]",1,1,0,12,12,12,0,3,3,2,,,,,,,,,,,,,,,,,,,,,,,,,,,,,,,,,,,,,,,,,,,,,,,,,,,,,,,,,,,,,,,390.2250803320003,None,390.2250803320003,None,390.2250803320003,None,g,1,0.8219668450001336,391.75898801600033,None,391.75898801600033,None,391.75898801600033,None,392.62715928800026,None,392.62715928800026,None,392.62715928800026,None,392.62715928800026,None,,,,,,,,,,,,,,,,,,,,,,,,,,,,,,,,,,,,,,,,,,,,001,2,2020_Jan_28_0925,spring_faces,3.1.5,60.01975129973214,
condition files/Stage0c_2.xlsx,0c,alpha,theta,h,"['h', 'g']","['Chess', 'Go']","[-0.15, 0.5]","[0.15, 0.5]",1,1,0,13,13,13,0,0,0,0,,,,,,,,,,,,,,,,,,,,,,,,,,,,,,,,,,,,,,,,,,,,,,,,,,,,,,,,,,,,,,,394.6250927330002,None,394.6250927330002,None,394.6250927330002,None,h,1,0.9819587609999871,396.15896243299994,None,396.15896243299994,None,396.15896243299994,None,397.191694567,None,397.191694567,None,397.191694567,None,397.191694567,None,,,,,,,,,,,,,,,,,,,,,,,,,,,,,,,,,,,,,,,,,,,,001,2,2020_Jan_28_0925,spring_faces,3.1.5,60.01975129973214,
condition files/Stage0c_2.xlsx,0c,beta,phi,g,"['h', 'g']","['Chess', 'Go']","[-0.15, 0.5]","[0.15, 0.5]",1,1,0,13,13,13,0,1,1,3,,,,,,,,,,,,,,,,,,,,,,,,,,,,,,,,,,,,,,,,,,,,,,,,,,,,,,,,,,,,,,,399.1586006839998,None,399.1586006839998,None,399.1586006839998,None,g,1,0.6568142599999192,400.69218070900024,None,400.69218070900024,None,400.69218070900024,None,401.40870087300027,None,401.40870087300027,None,401.40870087300027,None,401.40870087300027,None,,,,,,,,,,,,,,,,,,,,,,,,,,,,,,,,,,,,,,,,,,,,001,2,2020_Jan_28_0925,spring_faces,3.1.5,60.01975129973214,
condition files/Stage0c_2.xlsx,0c,phi,alpha,h,"['h', 'g']","['Chess', 'Go']","[-0.15, 0.5]","[0.15, 0.5]",1,1,0,13,13,13,0,2,2,1,,,,,,,,,,,,,,,,,,,,,,,,,,,,,,,,,,,,,,,,,,,,,,,,,,,,,,,,,,,,,,,403.3752518500005,None,403.3752518500005,None,403.3752518500005,None,h,1,0.9839823090005666,404.9089225329999,None,404.9089225329999,None,404.9089225329999,None,405.94524270000056,None,405.94524270000056,None,405.94524270000056,None,405.94524270000056,None,,,,,,,,,,,,,,,,,,,,,,,,,,,,,,,,,,,,,,,,,,,,001,2,2020_Jan_28_0925,spring_faces,3.1.5,60.01975129973214,
condition files/Stage0c_2.xlsx,0c,theta,beta,g,"['h', 'g']","['Chess', 'Go']","[-0.15, 0.5]","[0.15, 0.5]",1,1,0,13,13,13,0,3,3,2,,,,,,,,,,,,,,,,,,,,,,,,,,,,,,,,,,,,,,,,,,,,,,,,,,,,,,,,,,,,,,,407.9253900980002,None,407.9253900980002,None,407.9253900980002,None,g,1,0.7062954639995951,409.4586434789999,None,409.4586434789999,None,409.4586434789999,None,410.2254921270005,None,410.2254921270005,None,410.2254921270005,None,410.2254921270005,None,,,,,,,,,,,,,,,,,,,,,,,,,,,,,,,,,,,,,,,,,,,,001,2,2020_Jan_28_0925,spring_faces,3.1.5,60.01975129973214,
condition files/Stage0c_1.xlsx,0c,phi,beta,g,"['h', 'g']","['Chess', 'Go']","[-0.15, 0.5]","[0.15, 0.5]",1,1,0,14,14,14,0,0,0,3,,,,,,,,,,,,,,,,,,,,,,,,,,,,,,,,,,,,,,,,,,,,,,,,,,,,,,,,,,,,,,,412.20898171800036,None,412.20898171800036,None,412.20898171800036,None,g,1,1.0465649139996458,413.7423762389999,None,413.7423762389999,None,413.7423762389999,None,414.8266159270006,None,414.8266159270006,None,414.8266159270006,None,414.8266159270006,None,,,,,,,,,,,,,,,,,,,,,,,,,,,,,,,,,,,,,,,,,,,,001,2,2020_Jan_28_0925,spring_faces,3.1.5,60.01975129973214,
condition files/Stage0c_1.xlsx,0c,beta,theta,g,"['h', 'g']","['Chess', 'Go']","[-0.15, 0.5]","[0.15, 0.5]",1,1,0,14,14,14,0,1,1,2,,,,,,,,,,,,,,,,,,,,,,,,,,,,,,,,,,,,,,,,,,,,,,,,,,,,,,,,,,,,,,,416.80855972300014,None,416.80855972300014,None,416.80855972300014,None,g,1,0.7667107050001505,418.3421895820002,None,418.3421895820002,None,418.3421895820002,None,419.1593237320003,None,419.1593237320003,None,419.1593237320003,None,419.1593237320003,None,,,,,,,,,,,,,,,,,,,,,,,,,,,,,,,,,,,,,,,,,,,,001,2,2020_Jan_28_0925,spring_faces,3.1.5,60.01975129973214,
condition files/Stage0c_1.xlsx,0c,theta,alpha,h,"['h', 'g']","['Chess', 'Go']","[-0.15, 0.5]","[0.15, 0.5]",1,1,0,14,14,14,0,2,2,0,,,,,,,,,,,,,,,,,,,,,,,,,,,,,,,,,,,,,,,,,,,,,,,,,,,,,,,,,,,,,,,421.1419216610002,None,421.1419216610002,None,421.1419216610002,None,h,1,0.6895336059997135,422.67541085500034,None,422.67541085500034,None,422.67541085500034,None,423.42568844200014,None,423.42568844200014,None,423.42568844200014,None,423.42568844200014,None,,,,,,,,,,,,,,,,,,,,,,,,,,,,,,,,,,,,,,,,,,,,001,2,2020_Jan_28_0925,spring_faces,3.1.5,60.01975129973214,
condition files/Stage0c_1.xlsx,0c,alpha,phi,h,"['h', 'g']","['Chess', 'Go']","[-0.15, 0.5]","[0.15, 0.5]",1,1,0,14,14,14,0,3,3,1,,,,,,,,,,,,,,,,,,,,,,,,,,,,,,,,,,,,,,,,,,,,,,,,,,,,,,,,,,,,,,,425.3918578570001,None,425.3918578570001,None,425.3918578570001,None,h,1,0.7433125190000283,426.9256948840002,None,426.9256948840002,None,426.9256948840002,None,427.7249240830006,None,427.7249240830006,None,427.7249240830006,None,427.7249240830006,None,,,,,,,,,,,,,,,,,,,,,,,,,,,,,,,,,,,,,,,,,,,,001,2,2020_Jan_28_0925,spring_faces,3.1.5,60.01975129973214,
condition files/Stage0c_2.xlsx,0c,phi,alpha,h,"['h', 'g']","['Chess', 'Go']","[-0.15, 0.5]","[0.15, 0.5]",1,1,0,15,15,15,0,0,0,1,,,,,,,,,,,,,,,,,,,,,,,,,,,,,,,,,,,,,,,,,,,,,,,,,,,,,,,,,,,,,,,429.7084240920003,None,429.7084240920003,None,429.7084240920003,None,h,1,0.8266852309998285,431.24232749600014,None,431.24232749600014,None,431.24232749600014,None,432.11044908700023,None,432.11044908700023,None,432.11044908700023,None,432.11044908700023,None,,,,,,,,,,,,,,,,,,,,,,,,,,,,,,,,,,,,,,,,,,,,001,2,2020_Jan_28_0925,spring_faces,3.1.5,60.01975129973214,
condition files/Stage0c_2.xlsx,0c,theta,beta,g,"['h', 'g']","['Chess', 'Go']","[-0.15, 0.5]","[0.15, 0.5]",1,1,0,15,15,15,0,1,1,2,,,,,,,,,,,,,,,,,,,,,,,,,,,,,,,,,,,,,,,,,,,,,,,,,,,,,,,,,,,,,,,434.0919264840004,None,434.0919264840004,None,434.0919264840004,None,g,1,0.8438497179995466,435.625139281,None,435.625139281,None,435.625139281,None,436.52545994200045,None,436.52545994200045,None,436.52545994200045,None,436.52545994200045,None,,,,,,,,,,,,,,,,,,,,,,,,,,,,,,,,,,,,,,,,,,,,001,2,2020_Jan_28_0925,spring_faces,3.1.5,60.01975129973214,
condition files/Stage0c_2.xlsx,0c,alpha,theta,h,"['h', 'g']","['Chess', 'Go']","[-0.15, 0.5]","[0.15, 0.5]",1,1,0,15,15,15,0,2,2,0,,,,,,,,,,,,,,,,,,,,,,,,,,,,,,,,,,,,,,,,,,,,,,,,,,,,,,,,,,,,,,,438.49202621400036,None,438.49202621400036,None,438.49202621400036,None,h,1,1.2593936270004633,440.02554580300057,None,440.02554580300057,None,440.02554580300057,None,441.34186832900014,None,441.34186832900014,None,441.34186832900014,None,441.34186832900014,None,,,,,,,,,,,,,,,,,,,,,,,,,,,,,,,,,,,,,,,,,,,,001,2,2020_Jan_28_0925,spring_faces,3.1.5,60.01975129973214,
condition files/Stage0c_2.xlsx,0c,beta,phi,g,"['h', 'g']","['Chess', 'Go']","[-0.15, 0.5]","[0.15, 0.5]",1,1,0,15,15,15,0,3,3,3,,,,,,,,,,,,,,,,,,,,,,,,,,,,,,,,,,,,,,,,,,,,,,,,,,,,,,,,,,,,,,,443.30818284700035,None,443.30818284700035,None,443.30818284700035,None,g,1,0.7147375770000508,444.842198669,None,444.842198669,None,444.842198669,None,445.60866780800006,None,445.60866780800006,None,445.60866780800006,None,445.60866780800006,None,,,,,,,,,,,,,,,,,,,,,,,,,,,,,,,,,,,,,,,,,,,,001,2,2020_Jan_28_0925,spring_faces,3.1.5,60.01975129973214,
condition files/Stage0c_1.xlsx,0c,phi,beta,g,"['h', 'g']","['Chess', 'Go']","[-0.15, 0.5]","[0.15, 0.5]",1,1,0,16,16,16,0,0,0,3,,,,,,,,,,,,,,,,,,,,,,,,,,,,,,,,,,,,,,,,,,,,,,,,,,,,,,,,,,,,,,,447.59151341100005,None,447.59151341100005,None,447.59151341100005,None,g,1,0.7676537699999244,449.1252613880006,None,449.1252613880006,None,449.1252613880006,None,449.94173608300025,None,449.94173608300025,None,449.94173608300025,None,449.94173608300025,None,,,,,,,,,,,,,,,,,,,,,,,,,,,,,,,,,,,,,,,,,,,,001,2,2020_Jan_28_0925,spring_faces,3.1.5,60.01975129973214,
condition files/Stage0c_1.xlsx,0c,theta,alpha,h,"['h', 'g']","['Chess', 'Go']","[-0.15, 0.5]","[0.15, 0.5]",1,1,0,16,16,16,0,1,1,0,,,,,,,,,,,,,,,,,,,,,,,,,,,,,,,,,,,,,,,,,,,,,,,,,,,,,,,,,,,,,,,451.925223966,None,451.925223966,None,451.925223966,None,h,1,0.7386813200000688,453.45824735299993,None,453.45824735299993,None,453.45824735299993,None,454.25881830399976,None,454.25881830399976,None,454.25881830399976,None,454.25881830399976,None,,,,,,,,,,,,,,,,,,,,,,,,,,,,,,,,,,,,,,,,,,,,001,2,2020_Jan_28_0925,spring_faces,3.1.5,60.01975129973214,
condition files/Stage0c_1.xlsx,0c,beta,theta,g,"['h', 'g']","['Chess', 'Go']","[-0.15, 0.5]","[0.15, 0.5]",1,1,0,16,16,16,0,2,2,2,,,,,,,,,,,,,,,,,,,,,,,,,,,,,,,,,,,,,,,,,,,,,,,,,,,,,,,,,,,,,,,456.22517687300024,None,456.22517687300024,None,456.22517687300024,None,g,1,0.5019346680001036,457.7590003590003,None,457.7590003590003,None,457.7590003590003,None,458.3251637840003,None,458.3251637840003,None,458.3251637840003,None,458.3251637840003,None,,,,,,,,,,,,,,,,,,,,,,,,,,,,,,,,,,,,,,,,,,,,001,2,2020_Jan_28_0925,spring_faces,3.1.5,60.01975129973214,
condition files/Stage0c_1.xlsx,0c,alpha,phi,h,"['h', 'g']","['Chess', 'Go']","[-0.15, 0.5]","[0.15, 0.5]",1,1,0,16,16,16,0,3,3,1,,,,,,,,,,,,,,,,,,,,,,,,,,,,,,,,,,,,,,,,,,,,,,,,,,,,,,,,,,,,,,,460.29200000000037,None,460.29200000000037,None,460.29200000000037,None,h,1,1.1236275510000269,461.82531399799973,None,461.82531399799973,None,461.82531399799973,None,463.0082901650003,None,463.0082901650003,None,463.0082901650003,None,463.0082901650003,None,,,,,,,,,,,,,,,,,,,,,,,,,,,,,,,,,,,,,,,,,,,,001,2,2020_Jan_28_0925,spring_faces,3.1.5,60.01975129973214,
condition files/Stage0c_2.xlsx,0c,beta,phi,g,"['h', 'g']","['Chess', 'Go']","[-0.15, 0.5]","[0.15, 0.5]",1,1,0,17,17,17,0,0,0,3,,,,,,,,,,,,,,,,,,,,,,,,,,,,,,,,,,,,,,,,,,,,,,,,,,,,,,,,,,,,,,,464.9916930119998,None,464.9916930119998,None,464.9916930119998,None,g,1,0.663618982999651,466.5255195239997,None,466.5255195239997,None,466.5255195239997,None,467.241625142,None,467.241625142,None,467.241625142,None,467.241625142,None,,,,,,,,,,,,,,,,,,,,,,,,,,,,,,,,,,,,,,,,,,,,001,2,2020_Jan_28_0925,spring_faces,3.1.5,60.01975129973214,
condition files/Stage0c_2.xlsx,0c,alpha,theta,h,"['h', 'g']","['Chess', 'Go']","[-0.15, 0.5]","[0.15, 0.5]",1,1,0,17,17,17,0,1,1,0,,,,,,,,,,,,,,,,,,,,,,,,,,,,,,,,,,,,,,,,,,,,,,,,,,,,,,,,,,,,,,,469.2085692190003,None,469.2085692190003,None,469.2085692190003,None,h,1,0.8311028369998894,470.74182654300057,None,470.74182654300057,None,470.74182654300057,None,471.62561744899995,None,471.62561744899995,None,471.62561744899995,None,471.62561744899995,None,,,,,,,,,,,,,,,,,,,,,,,,,,,,,,,,,,,,,,,,,,,,001,2,2020_Jan_28_0925,spring_faces,3.1.5,60.01975129973214,
condition files/Stage0c_2.xlsx,0c,phi,alpha,h,"['h', 'g']","['Chess', 'Go']","[-0.15, 0.5]","[0.15, 0.5]",1,1,0,17,17,17,0,2,2,1,,,,,,,,,,,,,,,,,,,,,,,,,,,,,,,,,,,,,,,,,,,,,,,,,,,,,,,,,,,,,,,473.59209101299984,None,473.59209101299984,None,473.59209101299984,None,h,1,0.8634899360004056,475.12554381100017,None,475.12554381100017,None,475.12554381100017,None,476.026125804,None,476.026125804,None,476.026125804,None,476.026125804,None,,,,,,,,,,,,,,,,,,,,,,,,,,,,,,,,,,,,,,,,,,,,001,2,2020_Jan_28_0925,spring_faces,3.1.5,60.01975129973214,
condition files/Stage0c_2.xlsx,0c,theta,beta,g,"['h', 'g']","['Chess', 'Go']","[-0.15, 0.5]","[0.15, 0.5]",1,1,0,17,17,17,0,3,3,2,,,,,,,,,,,,,,,,,,,,,,,,,,,,,,,,,,,,,,,,,,,,,,,,,,,,,,,,,,,,,,,478.0085982620003,None,478.0085982620003,None,478.0085982620003,None,g,1,0.7350521329999538,479.5418802280001,None,479.5418802280001,None,479.5418802280001,None,480.341679913,None,480.341679913,None,480.341679913,None,480.341679913,None,,,,,,,,,,,,,,,,,,,,,,,,,,,,,,,,,,,,,,,,,,,,001,2,2020_Jan_28_0925,spring_faces,3.1.5,60.01975129973214,
,,,,,,,,,,,,,,,,,,,,,,,,,,,,,,,,,,,,,,,,,,,,,,,,,,,,,,,,,,,,,,,,,,,,,,,,,,,,,,,,,,,,,,,,,,,,,,,,,,,,,,,,482.325636349,None,space,4.887563949999276,487.3253898419998,None,,,,,,,,,,,,,,,,,,,,,,,,,,,,,,,,,,,,,,001,2,2020_Jan_28_0925,spring_faces,3.1.5,60.01975129973214,
condition files/Stage1_1.xlsx,,T3,B4,c,"['c', 'm']","['Clue', 'Monopoly']","[-0.15, 0.5]","[0.15, 0.5]",1,1,,,,,,,,,0,0,0,0,0,0,0,5,,,,,,,,,,,,,,,,,,,,,,,,,,,,,,,,,,,,,,,,,,,,,,,,,,,,,,,492.2754489170002,None,492.2754489170002,None,492.2754489170002,None,c,1,1.4760387409996838,493.80889864799974,None,493.80889864799974,None,493.80889864799974,None,495.3583526150005,None,495.3583526150005,None,495.3583526150005,None,495.3583526150005,None,,,,,,,487.3253898419998,None,,,,,,,,,,,,,,,,,,,,,,,,,,,,,,,,,,,,001,2,2020_Jan_28_0925,spring_faces,3.1.5,60.01975129973214,
condition files/Stage1_1.xlsx,,B2,T1,m,"['c', 'm']","['Clue', 'Monopoly']","[-0.15, 0.5]","[0.15, 0.5]",1,1,,,,,,,,,0,0,0,0,0,1,1,2,,,,,,,,,,,,,,,,,,,,,,,,,,,,,,,,,,,,,,,,,,,,,,,,,,,,,,,497.30862550500024,None,497.30862550500024,None,497.30862550500024,None,m,1,1.1455778409999766,498.8433340780002,None,498.8433340780002,None,498.8433340780002,None,500.0585154959999,None,500.0585154959999,None,500.0585154959999,None,500.0585154959999,None,,,,,,,,,,,,,,,,,,,,,,,,,,,,,,,,,,,,,,,,,,,,001,2,2020_Jan_28_0925,spring_faces,3.1.5,60.01975129973214,
condition files/Stage1_1.xlsx,,B1,T2,c,"['c', 'm']","['Clue', 'Monopoly']","[-0.15, 0.5]","[0.15, 0.5]",1,1,,,,,,,,,0,0,0,0,0,2,2,1,,,,,,,,,,,,,,,,,,,,,,,,,,,,,,,,,,,,,,,,,,,,,,,,,,,,,,,502.0087680710003,None,502.0087680710003,None,502.0087680710003,None,c,1,1.0212860499996168,503.5917103990005,None,503.5917103990005,None,503.5917103990005,None,504.67591361500035,None,504.67591361500035,None,504.67591361500035,None,504.67591361500035,None,,,,,,,,,,,,,,,,,,,,,,,,,,,,,,,,,,,,,,,,,,,,001,2,2020_Jan_28_0925,spring_faces,3.1.5,60.01975129973214,
condition files/Stage1_1.xlsx,,T1,B1,c,"['c', 'm']","['Clue', 'Monopoly']","[-0.15, 0.5]","[0.15, 0.5]",1,1,,,,,,,,,0,0,0,0,0,3,3,0,,,,,,,,,,,,,,,,,,,,,,,,,,,,,,,,,,,,,,,,,,,,,,,,,,,,,,,506.6419593649998,None,506.6419593649998,None,506.6419593649998,None,c,1,1.3338551139995616,508.1750399950006,None,508.1750399950006,None,508.1750399950006,None,509.55890849000025,None,509.55890849000025,None,509.55890849000025,None,509.55890849000025,None,,,,,,,,,,,,,,,,,,,,,,,,,,,,,,,,,,,,,,,,,,,,001,2,2020_Jan_28_0925,spring_faces,3.1.5,60.01975129973214,
condition files/Stage1_1.xlsx,,B4,T4,m,"['c', 'm']","['Clue', 'Monopoly']","[-0.15, 0.5]","[0.15, 0.5]",1,1,,,,,,,,,0,0,0,0,0,4,4,7,,,,,,,,,,,,,,,,,,,,,,,,,,,,,,,,,,,,,,,,,,,,,,,,,,,,,,,511.52538631600055,None,511.52538631600055,None,511.52538631600055,None,m,1,1.151609615999405,513.1093457730003,None,513.1093457730003,None,513.1093457730003,None,514.3421833439997,None,514.3421833439997,None,514.3421833439997,None,514.3421833439997,None,,,,,,,,,,,,,,,,,,,,,,,,,,,,,,,,,,,,,,,,,,,,001,2,2020_Jan_28_0925,spring_faces,3.1.5,60.01975129973214,
condition files/Stage1_1.xlsx,,B3,T3,c,"['c', 'm']","['Clue', 'Monopoly']","[-0.15, 0.5]","[0.15, 0.5]",1,1,,,,,,,,,0,0,0,0,0,5,5,4,,,,,,,,,,,,,,,,,,,,,,,,,,,,,,,,,,,,,,,,,,,,,,,,,,,,,,,516.2920861080001,None,516.2920861080001,None,516.2920861080001,None,m,0,1.5361259579995021,517.8768164250005,None,517.8768164250005,None,517.8768164250005,None,519.4759458170001,None,519.4759458170001,None,519.4759458170001,None,519.4759458170001,None,,,,,,,,,,,,,,,,,,,,,,,,,,,,,,,,,,,,,,,,,,,,001,2,2020_Jan_28_0925,spring_faces,3.1.5,60.01975129973214,
condition files/Stage1_1.xlsx,,T4,B3,m,"['c', 'm']","['Clue', 'Monopoly']","[-0.15, 0.5]","[0.15, 0.5]",1,1,,,,,,,,,0,0,0,0,0,6,6,6,,,,,,,,,,,,,,,,,,,,,,,,,,,,,,,,,,,,,,,,,,,,,,,,,,,,,,,521.4417414970003,None,521.4417414970003,None,521.4417414970003,None,c,0,1.33337530100016,522.9755356410005,None,522.9755356410005,None,522.9755356410005,None,524.3607352870004,None,524.3607352870004,None,524.3607352870004,None,524.3607352870004,None,,,,,,,,,,,,,,,,,,,,,,,,,,,,,,,,,,,,,,,,,,,,001,2,2020_Jan_28_0925,spring_faces,3.1.5,60.01975129973214,
condition files/Stage1_1.xlsx,,T2,B2,m,"['c', 'm']","['Clue', 'Monopoly']","[-0.15, 0.5]","[0.15, 0.5]",1,1,,,,,,,,,0,0,0,0,0,7,7,3,,,,,,,,,,,,,,,,,,,,,,,,,,,,,,,,,,,,,,,,,,,,,,,,,,,,,,,526.3250547810003,None,526.3250547810003,None,526.3250547810003,None,c,0,1.0247665530005179,527.8602005760004,None,527.8602005760004,None,527.8602005760004,None,528.9414314670003,None,528.9414314670003,None,528.9414314670003,None,528.9414314670003,None,,,,,,,,,,,,,,,,,,,,,,,,,,,,,,,,,,,,,,,,,,,,001,2,2020_Jan_28_0925,spring_faces,3.1.5,60.01975129973214,
condition files/Stage1_2.xlsx,,T1,B2,m,"['c', 'm']","['Clue', 'Monopoly']","[-0.15, 0.5]","[0.15, 0.5]",1,1,,,,,,,,,0,1,1,1,0,0,0,2,,,,,,,,,,,,,,,,,,,,,,,,,,,,,,,,,,,,,,,,,,,,,,,,,,,,,,,530.9258185879999,None,530.9258185879999,None,530.9258185879999,None,c,0,1.8329603960000895,532.45996896,None,532.45996896,None,532.45996896,None,534.3585829240001,None,534.3585829240001,None,534.3585829240001,None,534.3585829240001,None,,,,,,,,,,,,,,,,,,,,,,,,,,,,,,,,,,,,,,,,,,,,001,2,2020_Jan_28_0925,spring_faces,3.1.5,60.01975129973214,
condition files/Stage1_2.xlsx,,T4,B4,m,"['c', 'm']","['Clue', 'Monopoly']","[-0.15, 0.5]","[0.15, 0.5]",1,1,,,,,,,,,0,1,1,1,0,1,1,7,,,,,,,,,,,,,,,,,,,,,,,,,,,,,,,,,,,,,,,,,,,,,,,,,,,,,,,536.3252413660002,None,536.3252413660002,None,536.3252413660002,None,m,1,1.009185516000798,537.8598419310001,None,537.8598419310001,None,537.8598419310001,None,538.9255672549998,None,538.9255672549998,None,538.9255672549998,None,538.9255672549998,None,,,,,,,,,,,,,,,,,,,,,,,,,,,,,,,,,,,,,,,,,,,,001,2,2020_Jan_28_0925,spring_faces,3.1.5,60.01975129973214,
condition files/Stage1_2.xlsx,,T3,B3,c,"['c', 'm']","['Clue', 'Monopoly']","[-0.15, 0.5]","[0.15, 0.5]",1,1,,,,,,,,,0,1,1,1,0,2,2,4,,,,,,,,,,,,,,,,,,,,,,,,,,,,,,,,,,,,,,,,,,,,,,,,,,,,,,,540.8919229820003,None,540.8919229820003,None,540.8919229820003,None,m,0,1.0986566809997385,542.4422677880002,None,542.4422677880002,None,542.4422677880002,None,543.6082396080001,None,543.6082396080001,None,543.6082396080001,None,543.6082396080001,None,,,,,,,,,,,,,,,,,,,,,,,,,,,,,,,,,,,,,,,,,,,,001,2,2020_Jan_28_0925,spring_faces,3.1.5,60.01975129973214,
condition files/Stage1_2.xlsx,,B4,T3,c,"['c', 'm']","['Clue', 'Monopoly']","[-0.15, 0.5]","[0.15, 0.5]",1,1,,,,,,,,,0,1,1,1,0,3,3,5,,,,,,,,,,,,,,,,,,,,,,,,,,,,,,,,,,,,,,,,,,,,,,,,,,,,,,,545.5585526670002,None,545.5585526670002,None,545.5585526670002,None,m,0,2.767565692000062,547.093350614,None,547.093350614,None,547.093350614,None,549.9245218490005,None,549.9245218490005,None,549.9245218490005,None,549.9245218490005,None,,,,,,,,,,,,,,,,,,,,,,,,,,,,,,,,,,,,,,,,,,,,001,2,2020_Jan_28_0925,spring_faces,3.1.5,60.01975129973214,
condition files/Stage1_2.xlsx,,T2,B1,c,"['c', 'm']","['Clue', 'Monopoly']","[-0.15, 0.5]","[0.15, 0.5]",1,1,,,,,,,,,0,1,1,1,0,4,4,1,,,,,,,,,,,,,,,,,,,,,,,,,,,,,,,,,,,,,,,,,,,,,,,,,,,,,,,551.8917967960006,None,551.8917967960006,None,551.8917967960006,None,c,1,1.8268635829999766,553.4261727570001,None,553.4261727570001,None,553.4261727570001,None,555.309261544,None,555.309261544,None,555.309261544,None,555.309261544,None,,,,,,,,,,,,,,,,,,,,,,,,,,,,,,,,,,,,,,,,,,,,001,2,2020_Jan_28_0925,spring_faces,3.1.5,60.01975129973214,
condition files/Stage1_2.xlsx,,B2,T2,m,"['c', 'm']","['Clue', 'Monopoly']","[-0.15, 0.5]","[0.15, 0.5]",1,1,,,,,,,,,0,1,1,1,0,5,5,3,,,,,,,,,,,,,,,,,,,,,,,,,,,,,,,,,,,,,,,,,,,,,,,,,,,,,,,557.2753497149997,None,557.2753497149997,None,557.2753497149997,None,c,0,1.4845260550000603,558.8084082760006,None,558.8084082760006,None,558.8084082760006,None,560.3586676129999,None,560.3586676129999,None,560.3586676129999,None,560.3586676129999,None,,,,,,,,,,,,,,,,,,,,,,,,,,,,,,,,,,,,,,,,,,,,001,2,2020_Jan_28_0925,spring_faces,3.1.5,60.01975129973214,
condition files/Stage1_2.xlsx,,B1,T1,c,"['c', 'm']","['Clue', 'Monopoly']","[-0.15, 0.5]","[0.15, 0.5]",1,1,,,,,,,,,0,1,1,1,0,6,6,0,,,,,,,,,,,,,,,,,,,,,,,,,,,,,,,,,,,,,,,,,,,,,,,,,,,,,,,562.3246140540004,None,562.3246140540004,None,562.3246140540004,None,m,0,1.6817028909999863,563.8752283190006,None,563.8752283190006,None,563.8752283190006,None,565.6105828990003,None,565.6105828990003,None,565.6105828990003,None,565.6105828990003,None,,,,,,,,,,,,,,,,,,,,,,,,,,,,,,,,,,,,,,,,,,,,001,2,2020_Jan_28_0925,spring_faces,3.1.5,60.01975129973214,
condition files/Stage1_2.xlsx,,B3,T4,m,"['c', 'm']","['Clue', 'Monopoly']","[-0.15, 0.5]","[0.15, 0.5]",1,1,,,,,,,,,0,1,1,1,0,7,7,6,,,,,,,,,,,,,,,,,,,,,,,,,,,,,,,,,,,,,,,,,,,,,,,,,,,,,,,567.5751450970001,None,567.5751450970001,None,567.5751450970001,None,m,1,1.6644960439998613,569.1084466110005,None,569.1084466110005,None,569.1084466110005,None,570.8261826910002,None,570.8261826910002,None,570.8261826910002,None,570.8261826910002,None,,,,,,,,,,,,,,,,,,,,,,,,,,,,,,,,,,,,,,,,,,,,001,2,2020_Jan_28_0925,spring_faces,3.1.5,60.01975129973214,
condition files/Stage1_1.xlsx,,B3,T3,c,"['c', 'm']","['Clue', 'Monopoly']","[-0.15, 0.5]","[0.15, 0.5]",1,1,,,,,,,,,0,2,2,2,0,0,0,4,,,,,,,,,,,,,,,,,,,,,,,,,,,,,,,,,,,,,,,,,,,,,,,,,,,,,,,572.8087124149997,None,572.8087124149997,None,572.8087124149997,None,m,0,1.3740963109994482,574.3589210680002,None,574.3589210680002,None,574.3589210680002,None,575.7921478600001,None,575.7921478600001,None,575.7921478600001,None,575.7921478600001,None,,,,,,,,,,,,,,,,,,,,,,,,,,,,,,,,,,,,,,,,,,,,001,2,2020_Jan_28_0925,spring_faces,3.1.5,60.01975129973214,
condition files/Stage1_1.xlsx,,B1,T2,c,"['c', 'm']","['Clue', 'Monopoly']","[-0.15, 0.5]","[0.15, 0.5]",1,1,,,,,,,,,0,2,2,2,0,1,1,1,,,,,,,,,,,,,,,,,,,,,,,,,,,,,,,,,,,,,,,,,,,,,,,,,,,,,,,577.7585955100003,None,577.7585955100003,None,577.7585955100003,None,m,0,2.0722365949995947,579.2927814140003,None,579.2927814140003,None,579.2927814140003,None,581.4250224759999,None,581.4250224759999,None,581.4250224759999,None,581.4250224759999,None,,,,,,,,,,,,,,,,,,,,,,,,,,,,,,,,,,,,,,,,,,,,001,2,2020_Jan_28_0925,spring_faces,3.1.5,60.01975129973214,
condition files/Stage1_1.xlsx,,T4,B3,m,"['c', 'm']","['Clue', 'Monopoly']","[-0.15, 0.5]","[0.15, 0.5]",1,1,,,,,,,,,0,2,2,2,0,2,2,6,,,,,,,,,,,,,,,,,,,,,,,,,,,,,,,,,,,,,,,,,,,,,,,,,,,,,,,583.3916748150004,None,583.3916748150004,None,583.3916748150004,None,c,0,1.686379553999359,584.9265800680005,None,584.9265800680005,None,584.9265800680005,None,586.6762623459999,None,586.6762623459999,None,586.6762623459999,None,586.6762623459999,None,,,,,,,,,,,,,,,,,,,,,,,,,,,,,,,,,,,,,,,,,,,,001,2,2020_Jan_28_0925,spring_faces,3.1.5,60.01975129973214,
condition files/Stage1_1.xlsx,,T1,B1,c,"['c', 'm']","['Clue', 'Monopoly']","[-0.15, 0.5]","[0.15, 0.5]",1,1,,,,,,,,,0,2,2,2,0,3,3,0,,,,,,,,,,,,,,,,,,,,,,,,,,,,,,,,,,,,,,,,,,,,,,,,,,,,,,,588.641383188,None,588.641383188,None,588.641383188,None,c,1,3.525927104999937,590.1750981679997,None,590.1750981679997,None,590.1750981679997,None,593.7756533359998,None,593.7756533359998,None,593.7756533359998,None,593.7756533359998,None,,,,,,,,,,,,,,,,,,,,,,,,,,,,,,,,,,,,,,,,,,,,001,2,2020_Jan_28_0925,spring_faces,3.1.5,60.01975129973214,
condition files/Stage1_1.xlsx,,B4,T4,m,"['c', 'm']","['Clue', 'Monopoly']","[-0.15, 0.5]","[0.15, 0.5]",1,1,,,,,,,,,0,2,2,2,0,4,4,7,,,,,,,,,,,,,,,,,,,,,,,,,,,,,,,,,,,,,,,,,,,,,,,,,,,,,,,595.725242388,None,595.725242388,None,595.725242388,None,c,0,1.4174997129994154,597.2594098230002,None,597.2594098230002,None,597.2594098230002,None,598.7444077569999,None,598.7444077569999,None,598.7444077569999,None,598.7444077569999,None,,,,,,,,,,,,,,,,,,,,,,,,,,,,,,,,,,,,,,,,,,,,001,2,2020_Jan_28_0925,spring_faces,3.1.5,60.01975129973214,
condition files/Stage1_1.xlsx,,B2,T1,m,"['c', 'm']","['Clue', 'Monopoly']","[-0.15, 0.5]","[0.15, 0.5]",1,1,,,,,,,,,0,2,2,2,0,5,5,2,,,,,,,,,,,,,,,,,,,,,,,,,,,,,,,,,,,,,,,,,,,,,,,,,,,,,,,600.7086442669997,None,600.7086442669997,None,600.7086442669997,None,m,1,2.944536091000373,602.244369473,None,602.244369473,None,602.244369473,None,605.2417719590003,None,605.2417719590003,None,605.2417719590003,None,605.2417719590003,None,,,,,,,,,,,,,,,,,,,,,,,,,,,,,,,,,,,,,,,,,,,,001,2,2020_Jan_28_0925,spring_faces,3.1.5,60.01975129973214,
condition files/Stage1_1.xlsx,,T2,B2,m,"['c', 'm']","['Clue', 'Monopoly']","[-0.15, 0.5]","[0.15, 0.5]",1,1,,,,,,,,,0,2,2,2,0,6,6,3,,,,,,,,,,,,,,,,,,,,,,,,,,,,,,,,,,,,,,,,,,,,,,,,,,,,,,,607.208632371,None,607.208632371,None,607.208632371,None,c,0,1.5168958619997284,608.744053898,None,608.744053898,None,608.744053898,None,610.3252443809997,None,610.3252443809997,None,610.3252443809997,None,610.3252443809997,None,,,,,,,,,,,,,,,,,,,,,,,,,,,,,,,,,,,,,,,,,,,,001,2,2020_Jan_28_0925,spring_faces,3.1.5,60.01975129973214,
condition files/Stage1_1.xlsx,,T3,B4,c,"['c', 'm']","['Clue', 'Monopoly']","[-0.15, 0.5]","[0.15, 0.5]",1,1,,,,,,,,,0,2,2,2,0,7,7,5,,,,,,,,,,,,,,,,,,,,,,,,,,,,,,,,,,,,,,,,,,,,,,,,,,,,,,,612.2920453070001,None,612.2920453070001,None,612.2920453070001,None,m,0,2.1951847710006405,613.8257200190001,None,613.8257200190001,None,613.8257200190001,None,616.0755468400002,None,616.0755468400002,None,616.0755468400002,None,616.0755468400002,None,,,,,,,,,,,,,,,,,,,,,,,,,,,,,,,,,,,,,,,,,,,,001,2,2020_Jan_28_0925,spring_faces,3.1.5,60.01975129973214,
condition files/Stage1_2.xlsx,,T1,B2,m,"['c', 'm']","['Clue', 'Monopoly']","[-0.15, 0.5]","[0.15, 0.5]",1,1,,,,,,,,,0,3,3,3,0,0,0,2,,,,,,,,,,,,,,,,,,,,,,,,,,,,,,,,,,,,,,,,,,,,,,,,,,,,,,,618.0589134709999,None,618.0589134709999,None,618.0589134709999,None,c,0,5.723787789999733,619.593230257,None,619.593230257,None,619.593230257,None,625.3757775570002,None,625.3757775570002,None,625.3757775570002,None,625.3757775570002,None,,,,,,,,,,,,,,,,,,,,,,,,,,,,,,,,,,,,,,,,,,,,001,2,2020_Jan_28_0925,spring_faces,3.1.5,60.01975129973214,
condition files/Stage1_2.xlsx,,T4,B4,m,"['c', 'm']","['Clue', 'Monopoly']","[-0.15, 0.5]","[0.15, 0.5]",1,1,,,,,,,,,0,3,3,3,0,1,1,7,,,,,,,,,,,,,,,,,,,,,,,,,,,,,,,,,,,,,,,,,,,,,,,,,,,,,,,627.3418982009998,None,627.3418982009998,None,627.3418982009998,None,m,1,3.9941496179999376,628.874881236,None,628.874881236,None,628.874881236,None,632.9251386920005,None,632.9251386920005,None,632.9251386920005,None,632.9251386920005,None,,,,,,,,,,,,,,,,,,,,,,,,,,,,,,,,,,,,,,,,,,,,001,2,2020_Jan_28_0925,spring_faces,3.1.5,60.01975129973214,
condition files/Stage1_2.xlsx,,T3,B3,c,"['c', 'm']","['Clue', 'Monopoly']","[-0.15, 0.5]","[0.15, 0.5]",1,1,,,,,,,,,0,3,3,3,0,2,2,4,,,,,,,,,,,,,,,,,,,,,,,,,,,,,,,,,,,,,,,,,,,,,,,,,,,,,,,634.8919269650005,None,634.8919269650005,None,634.8919269650005,None,c,1,2.476043665999896,636.4249680290004,None,636.4249680290004,None,636.4249680290004,None,638.9755566129998,None,638.9755566129998,None,638.9755566129998,None,638.9755566129998,None,,,,,,,,,,,,,,,,,,,,,,,,,,,,,,,,,,,,,,,,,,,,001,2,2020_Jan_28_0925,spring_faces,3.1.5,60.01975129973214,
condition files/Stage1_2.xlsx,,B1,T1,c,"['c', 'm']","['Clue', 'Monopoly']","[-0.15, 0.5]","[0.15, 0.5]",1,1,,,,,,,,,0,3,3,3,0,3,3,0,,,,,,,,,,,,,,,,,,,,,,,,,,,,,,,,,,,,,,,,,,,,,,,,,,,,,,,640.9248501040001,None,640.9248501040001,None,640.9248501040001,None,m,0,3.417472748000364,642.4594242160001,None,642.4594242160001,None,642.4594242160001,None,645.9424292379999,None,645.9424292379999,None,645.9424292379999,None,645.9424292379999,None,,,,,,,,,,,,,,,,,,,,,,,,,,,,,,,,,,,,,,,,,,,,001,2,2020_Jan_28_0925,spring_faces,3.1.5,60.01975129973214,
condition files/Stage1_2.xlsx,,B4,T3,c,"['c', 'm']","['Clue', 'Monopoly']","[-0.15, 0.5]","[0.15, 0.5]",1,1,,,,,,,,,0,3,3,3,0,4,4,5,,,,,,,,,,,,,,,,,,,,,,,,,,,,,,,,,,,,,,,,,,,,,,,,,,,,,,,647.9086334590002,None,647.9086334590002,None,647.9086334590002,None,m,0,1.7312379309996686,649.4416935950003,None,649.4416935950003,None,649.4416935950003,None,651.2250220300002,None,651.2250220300002,None,651.2250220300002,None,651.2250220300002,None,,,,,,,,,,,,,,,,,,,,,,,,,,,,,,,,,,,,,,,,,,,,001,2,2020_Jan_28_0925,spring_faces,3.1.5,60.01975129973214,
condition files/Stage1_2.xlsx,,T2,B1,c,"['c', 'm']","['Clue', 'Monopoly']","[-0.15, 0.5]","[0.15, 0.5]",1,1,,,,,,,,,0,3,3,3,0,5,5,1,,,,,,,,,,,,,,,,,,,,,,,,,,,,,,,,,,,,,,,,,,,,,,,,,,,,,,,653.192040254,None,653.192040254,None,653.192040254,None,c,1,1.8069501750005657,654.7260619990002,None,654.7260619990002,None,654.7260619990002,None,656.59221187,None,656.59221187,None,656.59221187,None,656.59221187,None,,,,,,,,,,,,,,,,,,,,,,,,,,,,,,,,,,,,,,,,,,,,001,2,2020_Jan_28_0925,spring_faces,3.1.5,60.01975129973214,
condition files/Stage1_2.xlsx,,B2,T2,m,"['c', 'm']","['Clue', 'Monopoly']","[-0.15, 0.5]","[0.15, 0.5]",1,1,,,,,,,,,0,3,3,3,0,6,6,3,,,,,,,,,,,,,,,,,,,,,,,,,,,,,,,,,,,,,,,,,,,,,,,,,,,,,,,658.5581073519998,None,658.5581073519998,None,658.5581073519998,None,c,0,0.8877749599996605,660.0931178860001,None,660.0931178860001,None,660.0931178860001,None,661.0422706859999,None,661.0422706859999,None,661.0422706859999,None,661.0422706859999,None,,,,,,,,,,,,,,,,,,,,,,,,,,,,,,,,,,,,,,,,,,,,001,2,2020_Jan_28_0925,spring_faces,3.1.5,60.01975129973214,
condition files/Stage1_2.xlsx,,B3,T4,m,"['c', 'm']","['Clue', 'Monopoly']","[-0.15, 0.5]","[0.15, 0.5]",1,1,,,,,,,,,0,3,3,3,0,7,7,6,,,,,,,,,,,,,,,,,,,,,,,,,,,,,,,,,,,,,,,,,,,,,,,,,,,,,,,663.008560532,None,663.008560532,None,663.008560532,None,m,1,2.294741235999936,664.55820219,None,664.55820219,None,664.55820219,None,666.9086951589998,None,666.9086951589998,None,666.9086951589998,None,666.9086951589998,None,,,,,,,,,,,,,,,,,,,,,,,,,,,,,,,,,,,,,,,,,,,,001,2,2020_Jan_28_0925,spring_faces,3.1.5,60.01975129973214,
condition files/Stage1_1.xlsx,,B2,T1,m,"['c', 'm']","['Clue', 'Monopoly']","[-0.15, 0.5]","[0.15, 0.5]",1,1,,,,,,,,,0,4,4,4,0,0,0,2,,,,,,,,,,,,,,,,,,,,,,,,,,,,,,,,,,,,,,,,,,,,,,,,,,,,,,,668.8921868400002,None,668.8921868400002,None,668.8921868400002,None,c,0,3.084220189000007,670.4246976280001,None,670.4246976280001,None,670.4246976280001,None,673.558883359,None,673.558883359,None,673.558883359,None,673.558883359,None,,,,,,,,,,,,,,,,,,,,,,,,,,,,,,,,,,,,,,,,,,,,001,2,2020_Jan_28_0925,spring_faces,3.1.5,60.01975129973214,
condition files/Stage1_1.xlsx,,B4,T4,m,"['c', 'm']","['Clue', 'Monopoly']","[-0.15, 0.5]","[0.15, 0.5]",1,1,,,,,,,,,0,4,4,4,0,1,1,7,,,,,,,,,,,,,,,,,,,,,,,,,,,,,,,,,,,,,,,,,,,,,,,,,,,,,,,675.5251633910002,None,675.5251633910002,None,675.5251633910002,None,m,1,2.337517459999617,677.0594472660005,None,677.0594472660005,None,677.0594472660005,None,679.459017569,None,679.459017569,None,679.459017569,None,679.459017569,None,,,,,,,,,,,,,,,,,,,,,,,,,,,,,,,,,,,,,,,,,,,,001,2,2020_Jan_28_0925,spring_faces,3.1.5,60.01975129973214,
condition files/Stage1_1.xlsx,,B3,T3,c,"['c', 'm']","['Clue', 'Monopoly']","[-0.15, 0.5]","[0.15, 0.5]",1,1,,,,,,,,,0,4,4,4,0,2,2,4,,,,,,,,,,,,,,,,,,,,,,,,,,,,,,,,,,,,,,,,,,,,,,,,,,,,,,,681.4249721940005,None,681.4249721940005,None,681.4249721940005,None,m,0,2.263102011999763,682.9578437250002,None,682.9578437250002,None,682.9578437250002,None,685.2773578510005,None,685.2773578510005,None,685.2773578510005,None,685.2773578510005,None,,,,,,,,,,,,,,,,,,,,,,,,,,,,,,,,,,,,,,,,,,,,001,2,2020_Jan_28_0925,spring_faces,3.1.5,60.01975129973214,
condition files/Stage1_1.xlsx,,B1,T2,c,"['c', 'm']","['Clue', 'Monopoly']","[-0.15, 0.5]","[0.15, 0.5]",1,1,,,,,,,,,0,4,4,4,0,3,3,1,,,,,,,,,,,,,,,,,,,,,,,,,,,,,,,,,,,,,,,,,,,,,,,,,,,,,,,687.2419618630001,None,687.2419618630001,None,687.2419618630001,None,m,0,1.2443534969997927,688.7925692710005,None,688.7925692710005,None,688.7925692710005,None,690.0923849620003,None,690.0923849620003,None,690.0923849620003,None,690.0923849620003,None,,,,,,,,,,,,,,,,,,,,,,,,,,,,,,,,,,,,,,,,,,,,001,2,2020_Jan_28_0925,spring_faces,3.1.5,60.01975129973214,
condition files/Stage1_1.xlsx,,T2,B2,m,"['c', 'm']","['Clue', 'Monopoly']","[-0.15, 0.5]","[0.15, 0.5]",1,1,,,,,,,,,0,4,4,4,0,4,4,3,,,,,,,,,,,,,,,,,,,,,,,,,,,,,,,,,,,,,,,,,,,,,,,,,,,,,,,692.0585594049999,None,692.0585594049999,None,692.0585594049999,None,m,1,1.4692029070001809,693.5917457880005,None,693.5917457880005,None,693.5917457880005,None,695.1420274000002,None,695.1420274000002,None,695.1420274000002,None,695.1420274000002,None,,,,,,,,,,,,,,,,,,,,,,,,,,,,,,,,,,,,,,,,,,,,001,2,2020_Jan_28_0925,spring_faces,3.1.5,60.01975129973214,
condition files/Stage1_1.xlsx,,T3,B4,c,"['c', 'm']","['Clue', 'Monopoly']","[-0.15, 0.5]","[0.15, 0.5]",1,1,,,,,,,,,0,4,4,4,0,5,5,5,,,,,,,,,,,,,,,,,,,,,,,,,,,,,,,,,,,,,,,,,,,,,,,,,,,,,,,697.0919971459998,None,697.0919971459998,None,697.0919971459998,None,c,1,1.0435479650004709,698.6254507820004,None,698.6254507820004,None,698.6254507820004,None,699.7275830369999,None,699.7275830369999,None,699.7275830369999,None,699.7275830369999,None,,,,,,,,,,,,,,,,,,,,,,,,,,,,,,,,,,,,,,,,,,,,001,2,2020_Jan_28_0925,spring_faces,3.1.5,60.01975129973214,
condition files/Stage1_1.xlsx,,T4,B3,m,"['c', 'm']","['Clue', 'Monopoly']","[-0.15, 0.5]","[0.15, 0.5]",1,1,,,,,,,,,0,4,4,4,0,6,6,6,,,,,,,,,,,,,,,,,,,,,,,,,,,,,,,,,,,,,,,,,,,,,,,,,,,,,,,701.6920662570001,None,701.6920662570001,None,701.6920662570001,None,m,1,2.0741785200007143,703.2268418889998,None,703.2268418889998,None,703.2268418889998,None,705.3753965420001,None,705.3753965420001,None,705.3753965420001,None,705.3753965420001,None,,,,,,,,,,,,,,,,,,,,,,,,,,,,,,,,,,,,,,,,,,,,001,2,2020_Jan_28_0925,spring_faces,3.1.5,60.01975129973214,
condition files/Stage1_1.xlsx,,T1,B1,c,"['c', 'm']","['Clue', 'Monopoly']","[-0.15, 0.5]","[0.15, 0.5]",1,1,,,,,,,,,0,4,4,4,0,7,7,0,,,,,,,,,,,,,,,,,,,,,,,,,,,,,,,,,,,,,,,,,,,,,,,,,,,,,,,707.3252778030001,None,707.3252778030001,None,707.3252778030001,None,c,1,1.241698302000259,708.8593212900005,None,708.8593212900005,None,708.8593212900005,None,710.1604077689999,None,710.1604077689999,None,710.1604077689999,None,710.1604077689999,None,,,,,,,,,,,,,,,,,,,,,,,,,,,,,,,,,,,,,,,,,,,,001,2,2020_Jan_28_0925,spring_faces,3.1.5,60.01975129973214,
condition files/Stage1_2.xlsx,,B3,T4,m,"['c', 'm']","['Clue', 'Monopoly']","[-0.15, 0.5]","[0.15, 0.5]",1,1,,,,,,,,,0,5,5,5,0,0,0,6,,,,,,,,,,,,,,,,,,,,,,,,,,,,,,,,,,,,,,,,,,,,,,,,,,,,,,,712.1416233290001,None,712.1416233290001,None,712.1416233290001,None,m,1,1.672864731000118,713.6761691600004,None,713.6761691600004,None,713.6761691600004,None,715.4093900090002,None,715.4093900090002,None,715.4093900090002,None,715.4093900090002,None,,,,,,,,,,,,,,,,,,,,,,,,,,,,,,,,,,,,,,,,,,,,001,2,2020_Jan_28_0925,spring_faces,3.1.5,60.01975129973214,
condition files/Stage1_2.xlsx,,T1,B2,m,"['c', 'm']","['Clue', 'Monopoly']","[-0.15, 0.5]","[0.15, 0.5]",1,1,,,,,,,,,0,5,5,5,0,1,1,2,,,,,,,,,,,,,,,,,,,,,,,,,,,,,,,,,,,,,,,,,,,,,,,,,,,,,,,717.3752451609998,None,717.3752451609998,None,717.3752451609998,None,c,0,1.0481016489993635,718.9088494980006,None,718.9088494980006,None,718.9088494980006,None,720.0089618920001,None,720.0089618920001,None,720.0089618920001,None,720.0089618920001,None,,,,,,,,,,,,,,,,,,,,,,,,,,,,,,,,,,,,,,,,,,,,001,2,2020_Jan_28_0925,spring_faces,3.1.5,60.01975129973214,
condition files/Stage1_2.xlsx,,T3,B3,c,"['c', 'm']","['Clue', 'Monopoly']","[-0.15, 0.5]","[0.15, 0.5]",1,1,,,,,,,,,0,5,5,5,0,2,2,4,,,,,,,,,,,,,,,,,,,,,,,,,,,,,,,,,,,,,,,,,,,,,,,,,,,,,,,721.9749738390001,None,721.9749738390001,None,721.9749738390001,None,m,0,1.6166732909996426,723.5082732150004,None,723.5082732150004,None,723.5082732150004,None,725.1760510650001,None,725.1760510650001,None,725.1760510650001,None,725.1760510650001,None,,,,,,,,,,,,,,,,,,,,,,,,,,,,,,,,,,,,,,,,,,,,001,2,2020_Jan_28_0925,spring_faces,3.1.5,60.01975129973214,
condition files/Stage1_2.xlsx,,B1,T1,c,"['c', 'm']","['Clue', 'Monopoly']","[-0.15, 0.5]","[0.15, 0.5]",1,1,,,,,,,,,0,5,5,5,0,3,3,0,,,,,,,,,,,,,,,,,,,,,,,,,,,,,,,,,,,,,,,,,,,,,,,,,,,,,,,727.1419202610005,None,727.1419202610005,None,727.1419202610005,None,m,0,2.256952923999961,728.6760692939997,None,728.6760692939997,None,728.6760692939997,None,730.9919724520005,None,730.9919724520005,None,730.9919724520005,None,730.9919724520005,None,,,,,,,,,,,,,,,,,,,,,,,,,,,,,,,,,,,,,,,,,,,,001,2,2020_Jan_28_0925,spring_faces,3.1.5,60.01975129973214,
condition files/Stage1_2.xlsx,,B2,T2,m,"['c', 'm']","['Clue', 'Monopoly']","[-0.15, 0.5]","[0.15, 0.5]",1,1,,,,,,,,,0,5,5,5,0,4,4,3,,,,,,,,,,,,,,,,,,,,,,,,,,,,,,,,,,,,,,,,,,,,,,,,,,,,,,,732.9580939990001,None,732.9580939990001,None,732.9580939990001,None,m,1,1.4631758639998225,734.4937775979997,None,734.4937775979997,None,734.4937775979997,None,736.0107208050003,None,736.0107208050003,None,736.0107208050003,None,736.0107208050003,None,,,,,,,,,,,,,,,,,,,,,,,,,,,,,,,,,,,,,,,,,,,,001,2,2020_Jan_28_0925,spring_faces,3.1.5,60.01975129973214,
condition files/Stage1_2.xlsx,,T4,B4,m,"['c', 'm']","['Clue', 'Monopoly']","[-0.15, 0.5]","[0.15, 0.5]",1,1,,,,,,,,,0,5,5,5,0,5,5,7,,,,,,,,,,,,,,,,,,,,,,,,,,,,,,,,,,,,,,,,,,,,,,,,,,,,,,,737.9752797740002,None,737.9752797740002,None,737.9752797740002,None,c,0,1.3765424610000991,739.5084203360002,None,739.5084203360002,None,739.5084203360002,None,740.9417098230006,None,740.9417098230006,None,740.9417098230006,None,740.9417098230006,None,,,,,,,,,,,,,,,,,,,,,,,,,,,,,,,,,,,,,,,,,,,,001,2,2020_Jan_28_0925,spring_faces,3.1.5,60.01975129973214,
condition files/Stage1_2.xlsx,,T2,B1,c,"['c', 'm']","['Clue', 'Monopoly']","[-0.15, 0.5]","[0.15, 0.5]",1,1,,,,,,,,,0,5,5,5,0,6,6,1,,,,,,,,,,,,,,,,,,,,,,,,,,,,,,,,,,,,,,,,,,,,,,,,,,,,,,,742.9087656370002,None,742.9087656370002,None,742.9087656370002,None,m,0,1.1927595779998228,744.4441816019998,None,744.4441816019998,None,744.4441816019998,None,745.708820799,None,745.708820799,None,745.708820799,None,745.708820799,None,,,,,,,,,,,,,,,,,,,,,,,,,,,,,,,,,,,,,,,,,,,,001,2,2020_Jan_28_0925,spring_faces,3.1.5,60.01975129973214,
condition files/Stage1_2.xlsx,,B4,T3,c,"['c', 'm']","['Clue', 'Monopoly']","[-0.15, 0.5]","[0.15, 0.5]",1,1,,,,,,,,,0,5,5,5,0,7,7,5,,,,,,,,,,,,,,,,,,,,,,,,,,,,,,,,,,,,,,,,,,,,,,,,,,,,,,,747.6586867430005,None,747.6586867430005,None,747.6586867430005,None,m,0,1.7733566279994193,749.191608053,None,749.191608053,None,749.191608053,None,751.0256838160003,None,751.0256838160003,None,751.0256838160003,None,751.0256838160003,None,,,,,,,,,,,,,,,,,,,,,,,,,,,,,,,,,,,,,,,,,,,,001,2,2020_Jan_28_0925,spring_faces,3.1.5,60.01975129973214,
condition files/Stage1_1.xlsx,,T2,B2,m,"['c', 'm']","['Clue', 'Monopoly']","[-0.15, 0.5]","[0.15, 0.5]",1,1,,,,,,,,,0,6,6,6,0,0,0,3,,,,,,,,,,,,,,,,,,,,,,,,,,,,,,,,,,,,,,,,,,,,,,,,,,,,,,,753.0089567900004,None,753.0089567900004,None,753.0089567900004,None,c,0,1.3663911840003493,754.5585554790005,None,754.5585554790005,None,754.5585554790005,None,755.9771038520003,None,755.9771038520003,None,755.9771038520003,None,755.9771038520003,None,,,,,,,,,,,,,,,,,,,,,,,,,,,,,,,,,,,,,,,,,,,,001,2,2020_Jan_28_0925,spring_faces,3.1.5,60.01975129973214,
condition files/Stage1_1.xlsx,,T1,B1,c,"['c', 'm']","['Clue', 'Monopoly']","[-0.15, 0.5]","[0.15, 0.5]",1,1,,,,,,,,,0,6,6,6,0,1,1,0,,,,,,,,,,,,,,,,,,,,,,,,,,,,,,,,,,,,,,,,,,,,,,,,,,,,,,,757.9418773730004,None,757.9418773730004,None,757.9418773730004,None,c,1,2.2419790439998906,759.4750364680003,None,759.4750364680003,None,759.4750364680003,None,761.7916698250001,None,761.7916698250001,None,761.7916698250001,None,761.7916698250001,None,,,,,,,,,,,,,,,,,,,,,,,,,,,,,,,,,,,,,,,,,,,,001,2,2020_Jan_28_0925,spring_faces,3.1.5,60.01975129973214,
condition files/Stage1_1.xlsx,,B2,T1,m,"['c', 'm']","['Clue', 'Monopoly']","[-0.15, 0.5]","[0.15, 0.5]",1,1,,,,,,,,,0,6,6,6,0,2,2,2,,,,,,,,,,,,,,,,,,,,,,,,,,,,,,,,,,,,,,,,,,,,,,,,,,,,,,,763.7420489670003,None,763.7420489670003,None,763.7420489670003,None,m,1,1.0640634420005881,765.276872898,None,765.276872898,None,765.276872898,None,766.39475219,None,766.39475219,None,766.39475219,None,766.39475219,None,,,,,,,,,,,,,,,,,,,,,,,,,,,,,,,,,,,,,,,,,,,,001,2,2020_Jan_28_0925,spring_faces,3.1.5,60.01975129973214,
condition files/Stage1_1.xlsx,,B1,T2,c,"['c', 'm']","['Clue', 'Monopoly']","[-0.15, 0.5]","[0.15, 0.5]",1,1,,,,,,,,,0,6,6,6,0,3,3,1,,,,,,,,,,,,,,,,,,,,,,,,,,,,,,,,,,,,,,,,,,,,,,,,,,,,,,,768.3587056910001,None,768.3587056910001,None,768.3587056910001,None,c,1,3.0891009099996154,769.8918744399998,None,769.8918744399998,None,769.8918744399998,None,773.0588635160002,None,773.0588635160002,None,773.0588635160002,None,773.0588635160002,None,,,,,,,,,,,,,,,,,,,,,,,,,,,,,,,,,,,,,,,,,,,,001,2,2020_Jan_28_0925,spring_faces,3.1.5,60.01975129973214,
condition files/Stage1_1.xlsx,,T3,B4,c,"['c', 'm']","['Clue', 'Monopoly']","[-0.15, 0.5]","[0.15, 0.5]",1,1,,,,,,,,,0,6,6,6,0,4,4,5,,,,,,,,,,,,,,,,,,,,,,,,,,,,,,,,,,,,,,,,,,,,,,,,,,,,,,,775.0086445679999,None,775.0086445679999,None,775.0086445679999,None,m,0,2.374134590999347,776.5428899150002,None,776.5428899150002,None,776.5428899150002,None,778.9753975450003,None,778.9753975450003,None,778.9753975450003,None,778.9753975450003,None,,,,,,,,,,,,,,,,,,,,,,,,,,,,,,,,,,,,,,,,,,,,001,2,2020_Jan_28_0925,spring_faces,3.1.5,60.01975129973214,
condition files/Stage1_1.xlsx,,T4,B3,m,"['c', 'm']","['Clue', 'Monopoly']","[-0.15, 0.5]","[0.15, 0.5]",1,1,,,,,,,,,0,6,6,6,0,5,5,6,,,,,,,,,,,,,,,,,,,,,,,,,,,,,,,,,,,,,,,,,,,,,,,,,,,,,,,780.9416634720001,None,780.9416634720001,None,780.9416634720001,None,m,1,1.463731750000079,782.4772189719997,None,782.4772189719997,None,782.4772189719997,None,783.9933011900002,None,783.9933011900002,None,783.9933011900002,None,783.9933011900002,None,,,,,,,,,,,,,,,,,,,,,,,,,,,,,,,,,,,,,,,,,,,,001,2,2020_Jan_28_0925,spring_faces,3.1.5,60.01975129973214,
condition files/Stage1_1.xlsx,,B3,T3,c,"['c', 'm']","['Clue', 'Monopoly']","[-0.15, 0.5]","[0.15, 0.5]",1,1,,,,,,,,,0,6,6,6,0,6,6,4,,,,,,,,,,,,,,,,,,,,,,,,,,,,,,,,,,,,,,,,,,,,,,,,,,,,,,,785.9583709890003,None,785.9583709890003,None,785.9583709890003,None,c,1,1.3440394500003094,787.5089694930002,None,787.5089694930002,None,787.5089694930002,None,788.9102455520006,None,788.9102455520006,None,788.9102455520006,None,788.9102455520006,None,,,,,,,,,,,,,,,,,,,,,,,,,,,,,,,,,,,,,,,,,,,,001,2,2020_Jan_28_0925,spring_faces,3.1.5,60.01975129973214,
condition files/Stage1_1.xlsx,,B4,T4,m,"['c', 'm']","['Clue', 'Monopoly']","[-0.15, 0.5]","[0.15, 0.5]",1,1,,,,,,,,,0,6,6,6,0,7,7,7,,,,,,,,,,,,,,,,,,,,,,,,,,,,,,,,,,,,,,,,,,,,,,,,,,,,,,,790.8746692109999,None,790.8746692109999,None,790.8746692109999,None,c,0,2.203251998000269,792.4097110780003,None,792.4097110780003,None,792.4097110780003,None,794.6924411079999,None,794.6924411079999,None,794.6924411079999,None,794.6924411079999,None,,,,,,,,,,,,,,,,,,,,,,,,,,,,,,,,,,,,,,,,,,,,001,2,2020_Jan_28_0925,spring_faces,3.1.5,60.01975129973214,
condition files/Stage1_2.xlsx,,T4,B4,m,"['c', 'm']","['Clue', 'Monopoly']","[-0.15, 0.5]","[0.15, 0.5]",1,1,,,,,,,,,0,7,7,7,0,0,0,7,,,,,,,,,,,,,,,,,,,,,,,,,,,,,,,,,,,,,,,,,,,,,,,,,,,,,,,796.6583541560003,None,796.6583541560003,None,796.6583541560003,None,c,0,1.3010032559996034,798.1918947949998,None,798.1918947949998,None,798.1918947949998,None,799.5581051119998,None,799.5581051119998,None,799.5581051119998,None,799.5581051119998,None,,,,,,,,,,,,,,,,,,,,,,,,,,,,,,,,,,,,,,,,,,,,001,2,2020_Jan_28_0925,spring_faces,3.1.5,60.01975129973214,
condition files/Stage1_2.xlsx,,B1,T1,c,"['c', 'm']","['Clue', 'Monopoly']","[-0.15, 0.5]","[0.15, 0.5]",1,1,,,,,,,,,0,7,7,7,0,1,1,0,,,,,,,,,,,,,,,,,,,,,,,,,,,,,,,,,,,,,,,,,,,,,,,,,,,,,,,801.5250982100006,None,801.5250982100006,None,801.5250982100006,None,c,1,1.4244231749999017,803.0605268670006,None,803.0605268670006,None,803.0605268670006,None,804.5440902370001,None,804.5440902370001,None,804.5440902370001,None,804.5440902370001,None,,,,,,,,,,,,,,,,,,,,,,,,,,,,,,,,,,,,,,,,,,,,001,2,2020_Jan_28_0925,spring_faces,3.1.5,60.01975129973214,
condition files/Stage1_2.xlsx,,T3,B3,c,"['c', 'm']","['Clue', 'Monopoly']","[-0.15, 0.5]","[0.15, 0.5]",1,1,,,,,,,,,0,7,7,7,0,2,2,4,,,,,,,,,,,,,,,,,,,,,,,,,,,,,,,,,,,,,,,,,,,,,,,,,,,,,,,806.5082688439998,None,806.5082688439998,None,806.5082688439998,None,c,1,3.896550128999479,808.0444082060003,None,808.0444082060003,None,808.0444082060003,None,811.9922734510001,None,811.9922734510001,None,811.9922734510001,None,811.9922734510001,None,,,,,,,,,,,,,,,,,,,,,,,,,,,,,,,,,,,,,,,,,,,,001,2,2020_Jan_28_0925,spring_faces,3.1.5,60.01975129973214,
condition files/Stage1_2.xlsx,,B2,T2,m,"['c', 'm']","['Clue', 'Monopoly']","[-0.15, 0.5]","[0.15, 0.5]",1,1,,,,,,,,,0,7,7,7,0,3,3,3,,,,,,,,,,,,,,,,,,,,,,,,,,,,,,,,,,,,,,,,,,,,,,,,,,,,,,,813.9588379690003,None,813.9588379690003,None,813.9588379690003,None,m,1,2.192980833000547,815.4919696659999,None,815.4919696659999,None,815.4919696659999,None,817.7585275400006,None,817.7585275400006,None,817.7585275400006,None,817.7585275400006,None,,,,,,,,,,,,,,,,,,,,,,,,,,,,,,,,,,,,,,,,,,,,001,2,2020_Jan_28_0925,spring_faces,3.1.5,60.01975129973214,
condition files/Stage1_2.xlsx,,B3,T4,m,"['c', 'm']","['Clue', 'Monopoly']","[-0.15, 0.5]","[0.15, 0.5]",1,1,,,,,,,,,0,7,7,7,0,4,4,6,,,,,,,,,,,,,,,,,,,,,,,,,,,,,,,,,,,,,,,,,,,,,,,,,,,,,,,819.7077974510003,None,819.7077974510003,None,819.7077974510003,None,m,1,2.2342642619996695,821.2586247199997,None,821.2586247199997,None,821.2586247199997,None,823.559165181,None,823.559165181,None,823.559165181,None,823.559165181,None,,,,,,,,,,,,,,,,,,,,,,,,,,,,,,,,,,,,,,,,,,,,001,2,2020_Jan_28_0925,spring_faces,3.1.5,60.01975129973214,
condition files/Stage1_2.xlsx,,B4,T3,c,"['c', 'm']","['Clue', 'Monopoly']","[-0.15, 0.5]","[0.15, 0.5]",1,1,,,,,,,,,0,7,7,7,0,5,5,5,,,,,,,,,,,,,,,,,,,,,,,,,,,,,,,,,,,,,,,,,,,,,,,,,,,,,,,825.524728544,None,825.524728544,None,825.524728544,None,c,1,1.3933248940002159,827.0756780829997,None,827.0756780829997,None,827.0756780829997,None,828.5416428480003,None,828.5416428480003,None,828.5416428480003,None,828.5416428480003,None,,,,,,,,,,,,,,,,,,,,,,,,,,,,,,,,,,,,,,,,,,,,001,2,2020_Jan_28_0925,spring_faces,3.1.5,60.01975129973214,
condition files/Stage1_2.xlsx,,T2,B1,c,"['c', 'm']","['Clue', 'Monopoly']","[-0.15, 0.5]","[0.15, 0.5]",1,1,,,,,,,,,0,7,7,7,0,6,6,1,,,,,,,,,,,,,,,,,,,,,,,,,,,,,,,,,,,,,,,,,,,,,,,,,,,,,,,830.4920324969999,None,830.4920324969999,None,830.4920324969999,None,m,0,1.4184513219997825,832.0424855760002,None,832.0424855760002,None,832.0424855760002,None,833.5257308700002,None,833.5257308700002,None,833.5257308700002,None,833.5257308700002,None,,,,,,,,,,,,,,,,,,,,,,,,,,,,,,,,,,,,,,,,,,,,001,2,2020_Jan_28_0925,spring_faces,3.1.5,60.01975129973214,
condition files/Stage1_2.xlsx,,T1,B2,m,"['c', 'm']","['Clue', 'Monopoly']","[-0.15, 0.5]","[0.15, 0.5]",1,1,,,,,,,,,0,7,7,7,0,7,7,2,,,,,,,,,,,,,,,,,,,,,,,,,,,,,,,,,,,,,,,,,,,,,,,,,,,,,,,835.4919573070001,None,835.4919573070001,None,835.4919573070001,None,c,0,1.2515768229995956,837.0253705080004,None,837.0253705080004,None,837.0253705080004,None,838.3584347670003,None,838.3584347670003,None,838.3584347670003,None,838.3584347670003,None,,,,,,,,,,,,,,,,,,,,,,,,,,,,,,,,,,,,,,,,,,,,001,2,2020_Jan_28_0925,spring_faces,3.1.5,60.01975129973214,
condition files/Stage1_1.xlsx,,B4,T4,m,"['c', 'm']","['Clue', 'Monopoly']","[-0.15, 0.5]","[0.15, 0.5]",1,1,,,,,,,,,0,8,8,8,0,0,0,7,,,,,,,,,,,,,,,,,,,,,,,,,,,,,,,,,,,,,,,,,,,,,,,,,,,,,,,840.32544203,None,840.32544203,None,840.32544203,None,c,0,3.8416033069997866,841.8752842860004,None,841.8752842860004,None,841.8752842860004,None,845.7757740200004,None,845.7757740200004,None,845.7757740200004,None,845.7757740200004,None,,,,,,,,,,,,,,,,,,,,,,,,,,,,,,,,,,,,,,,,,,,,001,2,2020_Jan_28_0925,spring_faces,3.1.5,60.01975129973214,
condition files/Stage1_1.xlsx,,T2,B2,m,"['c', 'm']","['Clue', 'Monopoly']","[-0.15, 0.5]","[0.15, 0.5]",1,1,,,,,,,,,0,8,8,8,0,1,1,3,,,,,,,,,,,,,,,,,,,,,,,,,,,,,,,,,,,,,,,,,,,,,,,,,,,,,,,847.742009482,None,847.742009482,None,847.742009482,None,c,0,2.281854046999797,849.2751012590006,None,849.2751012590006,None,849.2751012590006,None,851.6090047530006,None,851.6090047530006,None,851.6090047530006,None,851.6090047530006,None,,,,,,,,,,,,,,,,,,,,,,,,,,,,,,,,,,,,,,,,,,,,001,2,2020_Jan_28_0925,spring_faces,3.1.5,60.01975129973214,
condition files/Stage1_1.xlsx,,B3,T3,c,"['c', 'm']","['Clue', 'Monopoly']","[-0.15, 0.5]","[0.15, 0.5]",1,1,,,,,,,,,0,8,8,8,0,2,2,4,,,,,,,,,,,,,,,,,,,,,,,,,,,,,,,,,,,,,,,,,,,,,,,,,,,,,,,853.5754504140004,None,853.5754504140004,None,853.5754504140004,None,c,1,3.0218656669994743,855.1111648390006,None,855.1111648390006,None,855.1111648390006,None,858.1921721400004,None,858.1921721400004,None,858.1921721400004,None,858.1921721400004,None,,,,,,,,,,,,,,,,,,,,,,,,,,,,,,,,,,,,,,,,,,,,001,2,2020_Jan_28_0925,spring_faces,3.1.5,60.01975129973214,
condition files/Stage1_1.xlsx,,T4,B3,m,"['c', 'm']","['Clue', 'Monopoly']","[-0.15, 0.5]","[0.15, 0.5]",1,1,,,,,,,,,0,8,8,8,0,3,3,6,,,,,,,,,,,,,,,,,,,,,,,,,,,,,,,,,,,,,,,,,,,,,,,,,,,,,,,860.1586010810006,None,860.1586010810006,None,860.1586010810006,None,m,1,0.8562733140006458,861.692754879,None,861.692754879,None,861.692754879,None,862.6251530250001,None,862.6251530250001,None,862.6251530250001,None,862.6251530250001,None,,,,,,,,,,,,,,,,,,,,,,,,,,,,,,,,,,,,,,,,,,,,001,2,2020_Jan_28_0925,spring_faces,3.1.5,60.01975129973214,
condition files/Stage1_1.xlsx,,B1,T2,c,"['c', 'm']","['Clue', 'Monopoly']","[-0.15, 0.5]","[0.15, 0.5]",1,1,,,,,,,,,0,8,8,8,0,4,4,1,,,,,,,,,,,,,,,,,,,,,,,,,,,,,,,,,,,,,,,,,,,,,,,,,,,,,,,864.5751982319998,None,864.5751982319998,None,864.5751982319998,None,c,1,2.5500762609999583,866.1108812080001,None,866.1108812080001,None,866.1108812080001,None,868.7271873899999,None,868.7271873899999,None,868.7271873899999,None,868.7271873899999,None,,,,,,,,,,,,,,,,,,,,,,,,,,,,,,,,,,,,,,,,,,,,001,2,2020_Jan_28_0925,spring_faces,3.1.5,60.01975129973214,
condition files/Stage1_1.xlsx,,B2,T1,m,"['c', 'm']","['Clue', 'Monopoly']","[-0.15, 0.5]","[0.15, 0.5]",1,1,,,,,,,,,0,8,8,8,0,5,5,2,,,,,,,,,,,,,,,,,,,,,,,,,,,,,,,,,,,,,,,,,,,,,,,,,,,,,,,870.6920321489997,None,870.6920321489997,None,870.6920321489997,None,m,1,2.2251136160002716,872.2278863330002,None,872.2278863330002,None,872.2278863330002,None,874.5251307010003,None,874.5251307010003,None,874.5251307010003,None,874.5251307010003,None,,,,,,,,,,,,,,,,,,,,,,,,,,,,,,,,,,,,,,,,,,,,001,2,2020_Jan_28_0925,spring_faces,3.1.5,60.01975129973214,
condition files/Stage1_1.xlsx,,T3,B4,c,"['c', 'm']","['Clue', 'Monopoly']","[-0.15, 0.5]","[0.15, 0.5]",1,1,,,,,,,,,0,8,8,8,0,6,6,5,,,,,,,,,,,,,,,,,,,,,,,,,,,,,,,,,,,,,,,,,,,,,,,,,,,,,,,876.4746718920005,None,876.4746718920005,None,876.4746718920005,None,c,1,1.611219065000114,878.0257110860002,None,878.0257110860002,None,878.0257110860002,None,879.6947515110005,None,879.6947515110005,None,879.6947515110005,None,879.6947515110005,None,,,,,,,,,,,,,,,,,,,,,,,,,,,,,,,,,,,,,,,,,,,,001,2,2020_Jan_28_0925,spring_faces,3.1.5,60.01975129973214,
condition files/Stage1_1.xlsx,,T1,B1,c,"['c', 'm']","['Clue', 'Monopoly']","[-0.15, 0.5]","[0.15, 0.5]",1,1,,,,,,,,,0,8,8,8,0,7,7,0,,,,,,,,,,,,,,,,,,,,,,,,,,,,,,,,,,,,,,,,,,,,,,,,,,,,,,,881.6588115479999,None,881.6588115479999,None,881.6588115479999,None,m,0,1.2106459799997538,883.1943072640006,None,883.1943072640006,None,883.1943072640006,None,884.4589947149998,None,884.4589947149998,None,884.4589947149998,None,884.4589947149998,None,,,,,,,,,,,,,,,,,,,,,,,,,,,,,,,,,,,,,,,,,,,,001,2,2020_Jan_28_0925,spring_faces,3.1.5,60.01975129973214,
condition files/Stage1_2.xlsx,,T1,B2,m,"['c', 'm']","['Clue', 'Monopoly']","[-0.15, 0.5]","[0.15, 0.5]",1,1,,,,,,,,,0,9,9,9,0,0,0,2,,,,,,,,,,,,,,,,,,,,,,,,,,,,,,,,,,,,,,,,,,,,,,,,,,,,,,,886.4419058860003,None,886.4419058860003,None,886.4419058860003,None,m,1,1.0199260010003854,887.9770395690002,None,887.9770395690002,None,887.9770395690002,None,889.0596528030001,None,889.0596528030001,None,889.0596528030001,None,889.0596528030001,None,,,,,,,,,,,,,,,,,,,,,,,,,,,,,,,,,,,,,,,,,,,,001,2,2020_Jan_28_0925,spring_faces,3.1.5,60.01975129973214,
condition files/Stage1_2.xlsx,,T3,B3,c,"['c', 'm']","['Clue', 'Monopoly']","[-0.15, 0.5]","[0.15, 0.5]",1,1,,,,,,,,,0,9,9,9,0,1,1,4,,,,,,,,,,,,,,,,,,,,,,,,,,,,,,,,,,,,,,,,,,,,,,,,,,,,,,,891.0252188330005,None,891.0252188330005,None,891.0252188330005,None,c,1,1.1415832160000718,892.5594408480001,None,892.5594408480001,None,892.5594408480001,None,893.7612697410004,None,893.7612697410004,None,893.7612697410004,None,893.7612697410004,None,,,,,,,,,,,,,,,,,,,,,,,,,,,,,,,,,,,,,,,,,,,,001,2,2020_Jan_28_0925,spring_faces,3.1.5,60.01975129973214,
condition files/Stage1_2.xlsx,,T2,B1,c,"['c', 'm']","['Clue', 'Monopoly']","[-0.15, 0.5]","[0.15, 0.5]",1,1,,,,,,,,,0,9,9,9,0,2,2,1,,,,,,,,,,,,,,,,,,,,,,,,,,,,,,,,,,,,,,,,,,,,,,,,,,,,,,,895.7253939869997,None,895.7253939869997,None,895.7253939869997,None,c,1,1.9938576329996067,897.2751638400005,None,897.2751638400005,None,897.2751638400005,None,899.3255408579998,None,899.3255408579998,None,899.3255408579998,None,899.3255408579998,None,,,,,,,,,,,,,,,,,,,,,,,,,,,,,,,,,,,,,,,,,,,,001,2,2020_Jan_28_0925,spring_faces,3.1.5,60.01975129973214,
condition files/Stage1_2.xlsx,,B1,T1,c,"['c', 'm']","['Clue', 'Monopoly']","[-0.15, 0.5]","[0.15, 0.5]",1,1,,,,,,,,,0,9,9,9,0,3,3,0,,,,,,,,,,,,,,,,,,,,,,,,,,,,,,,,,,,,,,,,,,,,,,,,,,,,,,,901.2916976410006,None,901.2916976410006,None,901.2916976410006,None,c,1,0.9718641190002018,902.8250973550003,None,902.8250973550003,None,902.8250973550003,None,903.8588175209998,None,903.8588175209998,None,903.8588175209998,None,903.8588175209998,None,,,,,,,,,,,,,,,,,,,,,,,,,,,,,,,,,,,,,,,,,,,,001,2,2020_Jan_28_0925,spring_faces,3.1.5,60.01975129973214,
condition files/Stage1_2.xlsx,,B3,T4,m,"['c', 'm']","['Clue', 'Monopoly']","[-0.15, 0.5]","[0.15, 0.5]",1,1,,,,,,,,,0,9,9,9,0,4,4,6,,,,,,,,,,,,,,,,,,,,,,,,,,,,,,,,,,,,,,,,,,,,,,,,,,,,,,,905.8253112950006,None,905.8253112950006,None,905.8253112950006,None,m,1,1.8771520609998333,907.359795198,None,907.359795198,None,907.359795198,None,909.3088263680002,None,909.3088263680002,None,909.3088263680002,None,909.3088263680002,None,,,,,,,,,,,,,,,,,,,,,,,,,,,,,,,,,,,,,,,,,,,,001,2,2020_Jan_28_0925,spring_faces,3.1.5,60.01975129973214,
condition files/Stage1_2.xlsx,,B2,T2,m,"['c', 'm']","['Clue', 'Monopoly']","[-0.15, 0.5]","[0.15, 0.5]",1,1,,,,,,,,,0,9,9,9,0,5,5,3,,,,,,,,,,,,,,,,,,,,,,,,,,,,,,,,,,,,,,,,,,,,,,,,,,,,,,,911.2586728209999,None,911.2586728209999,None,911.2586728209999,None,m,1,2.410413508999227,912.7945495579997,None,912.7945495579997,None,912.7945495579997,None,915.2589014060004,None,915.2589014060004,None,915.2589014060004,None,915.2589014060004,None,,,,,,,,,,,,,,,,,,,,,,,,,,,,,,,,,,,,,,,,,,,,001,2,2020_Jan_28_0925,spring_faces,3.1.5,60.01975129973214,
condition files/Stage1_2.xlsx,,B4,T3,c,"['c', 'm']","['Clue', 'Monopoly']","[-0.15, 0.5]","[0.15, 0.5]",1,1,,,,,,,,,0,9,9,9,0,6,6,5,,,,,,,,,,,,,,,,,,,,,,,,,,,,,,,,,,,,,,,,,,,,,,,,,,,,,,,917.2250143950005,None,917.2250143950005,None,917.2250143950005,None,c,1,1.2945374099999754,918.7584807100002,None,918.7584807100002,None,918.7584807100002,None,920.1092123170001,None,920.1092123170001,None,920.1092123170001,None,920.1092123170001,None,,,,,,,,,,,,,,,,,,,,,,,,,,,,,,,,,,,,,,,,,,,,001,2,2020_Jan_28_0925,spring_faces,3.1.5,60.01975129973214,
condition files/Stage1_2.xlsx,,T4,B4,m,"['c', 'm']","['Clue', 'Monopoly']","[-0.15, 0.5]","[0.15, 0.5]",1,1,,,,,,,,,0,9,9,9,0,7,7,7,,,,,,,,,,,,,,,,,,,,,,,,,,,,,,,,,,,,,,,,,,,,,,,,,,,,,,,922.0752814010002,None,922.0752814010002,None,922.0752814010002,None,m,1,1.5794682089999696,923.6254710040002,None,923.6254710040002,None,923.6254710040002,None,925.2592515619999,None,925.2592515619999,None,925.2592515619999,None,925.2592515619999,None,,,,,,,,,,,,,,,,,,,,,,,,,,,,,,,,,,,,,,,,,,,,001,2,2020_Jan_28_0925,spring_faces,3.1.5,60.01975129973214,
condition files/Stage1_1.xlsx,,T3,B4,c,"['c', 'm']","['Clue', 'Monopoly']","[-0.15, 0.5]","[0.15, 0.5]",1,1,,,,,,,,,0,10,10,10,0,0,0,5,,,,,,,,,,,,,,,,,,,,,,,,,,,,,,,,,,,,,,,,,,,,,,,,,,,,,,,927.241938479,None,927.241938479,None,927.241938479,None,c,1,0.925553248000142,928.7754745760003,None,928.7754745760003,None,928.7754745760003,None,929.7585737310001,None,929.7585737310001,None,929.7585737310001,None,929.7585737310001,None,,,,,,,,,,,,,,,,,,,,,,,,,,,,,,,,,,,,,,,,,,,,001,2,2020_Jan_28_0925,spring_faces,3.1.5,60.01975129973214,
condition files/Stage1_1.xlsx,,T2,B2,m,"['c', 'm']","['Clue', 'Monopoly']","[-0.15, 0.5]","[0.15, 0.5]",1,1,,,,,,,,,0,10,10,10,0,1,1,3,,,,,,,,,,,,,,,,,,,,,,,,,,,,,,,,,,,,,,,,,,,,,,,,,,,,,,,931.7252870210004,None,931.7252870210004,None,931.7252870210004,None,m,1,1.354173974999867,933.2587819910004,None,933.2587819910004,None,933.2587819910004,None,934.6765509220004,None,934.6765509220004,None,934.6765509220004,None,934.6765509220004,None,,,,,,,,,,,,,,,,,,,,,,,,,,,,,,,,,,,,,,,,,,,,001,2,2020_Jan_28_0925,spring_faces,3.1.5,60.01975129973214,
condition files/Stage1_1.xlsx,,B3,T3,c,"['c', 'm']","['Clue', 'Monopoly']","[-0.15, 0.5]","[0.15, 0.5]",1,1,,,,,,,,,0,10,10,10,0,2,2,4,,,,,,,,,,,,,,,,,,,,,,,,,,,,,,,,,,,,,,,,,,,,,,,,,,,,,,,936.6421430830005,None,936.6421430830005,None,936.6421430830005,None,c,1,1.174303984999824,938.1747223319999,None,938.1747223319999,None,938.1747223319999,None,939.4116398960005,None,939.4116398960005,None,939.4116398960005,None,939.4116398960005,None,,,,,,,,,,,,,,,,,,,,,,,,,,,,,,,,,,,,,,,,,,,,001,2,2020_Jan_28_0925,spring_faces,3.1.5,60.01975129973214,
condition files/Stage1_1.xlsx,,T1,B1,c,"['c', 'm']","['Clue', 'Monopoly']","[-0.15, 0.5]","[0.15, 0.5]",1,1,,,,,,,,,0,10,10,10,0,3,3,0,,,,,,,,,,,,,,,,,,,,,,,,,,,,,,,,,,,,,,,,,,,,,,,,,,,,,,,941.3752944309999,None,941.3752944309999,None,941.3752944309999,None,m,0,3.4799200130000827,942.9090227240004,None,942.9090227240004,None,942.9090227240004,None,946.4421701179999,None,946.4421701179999,None,946.4421701179999,None,946.4421701179999,None,,,,,,,,,,,,,,,,,,,,,,,,,,,,,,,,,,,,,,,,,,,,001,2,2020_Jan_28_0925,spring_faces,3.1.5,60.01975129973214,
condition files/Stage1_1.xlsx,,B4,T4,m,"['c', 'm']","['Clue', 'Monopoly']","[-0.15, 0.5]","[0.15, 0.5]",1,1,,,,,,,,,0,10,10,10,0,4,4,7,,,,,,,,,,,,,,,,,,,,,,,,,,,,,,,,,,,,,,,,,,,,,,,,,,,,,,,948.4080271550001,None,948.4080271550001,None,948.4080271550001,None,m,1,1.1825476310004888,949.9424011030005,None,949.9424011030005,None,949.9424011030005,None,951.1922038729999,None,951.1922038729999,None,951.1922038729999,None,951.1922038729999,None,,,,,,,,,,,,,,,,,,,,,,,,,,,,,,,,,,,,,,,,,,,,001,2,2020_Jan_28_0925,spring_faces,3.1.5,60.01975129973214,
condition files/Stage1_1.xlsx,,B2,T1,m,"['c', 'm']","['Clue', 'Monopoly']","[-0.15, 0.5]","[0.15, 0.5]",1,1,,,,,,,,,0,10,10,10,0,5,5,2,,,,,,,,,,,,,,,,,,,,,,,,,,,,,,,,,,,,,,,,,,,,,,,,,,,,,,,953.1418828189999,None,953.1418828189999,None,953.1418828189999,None,m,1,2.497893935999855,954.6750619740005,None,954.6750619740005,None,954.6750619740005,None,957.2253757990002,None,957.2253757990002,None,957.2253757990002,None,957.2253757990002,None,,,,,,,,,,,,,,,,,,,,,,,,,,,,,,,,,,,,,,,,,,,,001,2,2020_Jan_28_0925,spring_faces,3.1.5,60.01975129973214,
condition files/Stage1_1.xlsx,,B1,T2,c,"['c', 'm']","['Clue', 'Monopoly']","[-0.15, 0.5]","[0.15, 0.5]",1,1,,,,,,,,,0,10,10,10,0,6,6,1,,,,,,,,,,,,,,,,,,,,,,,,,,,,,,,,,,,,,,,,,,,,,,,,,,,,,,,959.1917460069999,None,959.1917460069999,None,959.1917460069999,None,c,1,1.439545645999715,960.7253685370006,None,960.7253685370006,None,960.7253685370006,None,962.2421144740001,None,962.2421144740001,None,962.2421144740001,None,962.2421144740001,None,,,,,,,,,,,,,,,,,,,,,,,,,,,,,,,,,,,,,,,,,,,,001,2,2020_Jan_28_0925,spring_faces,3.1.5,60.01975129973214,
condition files/Stage1_1.xlsx,,T4,B3,m,"['c', 'm']","['Clue', 'Monopoly']","[-0.15, 0.5]","[0.15, 0.5]",1,1,,,,,,,,,0,10,10,10,0,7,7,6,,,,,,,,,,,,,,,,,,,,,,,,,,,,,,,,,,,,,,,,,,,,,,,,,,,,,,,964.1917719640005,None,964.1917719640005,None,964.1917719640005,None,c,0,6.549786767000114,965.7271231040004,None,965.7271231040004,None,965.7271231040004,None,972.3436677380005,None,972.3436677380005,None,972.3436677380005,None,972.3436677380005,None,,,,,,,,,,,,,,,,,,,,,,,,,,,,,,,,,,,,,,,,,,,,001,2,2020_Jan_28_0925,spring_faces,3.1.5,60.01975129973214,
condition files/Stage1_2.xlsx,,T4,B4,m,"['c', 'm']","['Clue', 'Monopoly']","[-0.15, 0.5]","[0.15, 0.5]",1,1,,,,,,,,,0,11,11,11,0,0,0,7,,,,,,,,,,,,,,,,,,,,,,,,,,,,,,,,,,,,,,,,,,,,,,,,,,,,,,,974.3255098019999,None,974.3255098019999,None,974.3255098019999,None,m,1,1.7777808410000944,975.8591128349999,None,975.8591128349999,None,975.8591128349999,None,977.6924295569997,None,977.6924295569997,None,977.6924295569997,None,977.6924295569997,None,,,,,,,,,,,,,,,,,,,,,,,,,,,,,,,,,,,,,,,,,,,,001,2,2020_Jan_28_0925,spring_faces,3.1.5,60.01975129973214,
condition files/Stage1_2.xlsx,,B4,T3,c,"['c', 'm']","['Clue', 'Monopoly']","[-0.15, 0.5]","[0.15, 0.5]",1,1,,,,,,,,,0,11,11,11,0,1,1,5,,,,,,,,,,,,,,,,,,,,,,,,,,,,,,,,,,,,,,,,,,,,,,,,,,,,,,,979.6585944610006,None,979.6585944610006,None,979.6585944610006,None,c,1,0.9874280499998349,981.1935338530002,None,981.1935338530002,None,981.1935338530002,None,982.258913871,None,982.258913871,None,982.258913871,None,982.258913871,None,,,,,,,,,,,,,,,,,,,,,,,,,,,,,,,,,,,,,,,,,,,,001,2,2020_Jan_28_0925,spring_faces,3.1.5,60.01975129973214,
condition files/Stage1_2.xlsx,,B2,T2,m,"['c', 'm']","['Clue', 'Monopoly']","[-0.15, 0.5]","[0.15, 0.5]",1,1,,,,,,,,,0,11,11,11,0,2,2,3,,,,,,,,,,,,,,,,,,,,,,,,,,,,,,,,,,,,,,,,,,,,,,,,,,,,,,,984.208603131,None,984.208603131,None,984.208603131,None,m,1,1.191228456999852,985.7417874090006,None,985.7417874090006,None,985.7417874090006,None,987.0081551419999,None,987.0081551419999,None,987.0081551419999,None,987.0081551419999,None,,,,,,,,,,,,,,,,,,,,,,,,,,,,,,,,,,,,,,,,,,,,001,2,2020_Jan_28_0925,spring_faces,3.1.5,60.01975129973214,
condition files/Stage1_2.xlsx,,T1,B2,m,"['c', 'm']","['Clue', 'Monopoly']","[-0.15, 0.5]","[0.15, 0.5]",1,1,,,,,,,,,0,11,11,11,0,3,3,2,,,,,,,,,,,,,,,,,,,,,,,,,,,,,,,,,,,,,,,,,,,,,,,,,,,,,,,988.9584851110003,None,988.9584851110003,None,988.9584851110003,None,m,1,0.9211145669996768,990.4918508250003,None,990.4918508250003,None,990.4918508250003,None,991.4751484050003,None,991.4751484050003,None,991.4751484050003,None,991.4751484050003,None,,,,,,,,,,,,,,,,,,,,,,,,,,,,,,,,,,,,,,,,,,,,001,2,2020_Jan_28_0925,spring_faces,3.1.5,60.01975129973214,
condition files/Stage1_2.xlsx,,T3,B3,c,"['c', 'm']","['Clue', 'Monopoly']","[-0.15, 0.5]","[0.15, 0.5]",1,1,,,,,,,,,0,11,11,11,0,4,4,4,,,,,,,,,,,,,,,,,,,,,,,,,,,,,,,,,,,,,,,,,,,,,,,,,,,,,,,993.441981377,None,993.441981377,None,993.441981377,None,c,1,0.9330487350007388,994.9918874089999,None,994.9918874089999,None,994.9918874089999,None,995.9918196010003,None,995.9918196010003,None,995.9918196010003,None,995.9918196010003,None,,,,,,,,,,,,,,,,,,,,,,,,,,,,,,,,,,,,,,,,,,,,001,2,2020_Jan_28_0925,spring_faces,3.1.5,60.01975129973214,
condition files/Stage1_2.xlsx,,T2,B1,c,"['c', 'm']","['Clue', 'Monopoly']","[-0.15, 0.5]","[0.15, 0.5]",1,1,,,,,,,,,0,11,11,11,0,5,5,1,,,,,,,,,,,,,,,,,,,,,,,,,,,,,,,,,,,,,,,,,,,,,,,,,,,,,,,997.9420076770002,None,997.9420076770002,None,997.9420076770002,None,m,0,1.3764253130002544,999.476506432,None,999.476506432,None,999.476506432,None,1000.9091242200002,None,1000.9091242200002,None,1000.9091242200002,None,1000.9091242200002,None,,,,,,,,,,,,,,,,,,,,,,,,,,,,,,,,,,,,,,,,,,,,001,2,2020_Jan_28_0925,spring_faces,3.1.5,60.01975129973214,
condition files/Stage1_2.xlsx,,B1,T1,c,"['c', 'm']","['Clue', 'Monopoly']","[-0.15, 0.5]","[0.15, 0.5]",1,1,,,,,,,,,0,11,11,11,0,6,6,0,,,,,,,,,,,,,,,,,,,,,,,,,,,,,,,,,,,,,,,,,,,,,,,,,,,,,,,1002.8752610950005,None,1002.8752610950005,None,1002.8752610950005,None,c,1,1.4518773550007609,1004.4090875669999,None,1004.4090875669999,None,1004.4090875669999,None,1005.9251756149997,None,1005.9251756149997,None,1005.9251756149997,None,1005.9251756149997,None,,,,,,,,,,,,,,,,,,,,,,,,,,,,,,,,,,,,,,,,,,,,001,2,2020_Jan_28_0925,spring_faces,3.1.5,60.01975129973214,
condition files/Stage1_2.xlsx,,B3,T4,m,"['c', 'm']","['Clue', 'Monopoly']","[-0.15, 0.5]","[0.15, 0.5]",1,1,,,,,,,,,0,11,11,11,0,7,7,6,,,,,,,,,,,,,,,,,,,,,,,,,,,,,,,,,,,,,,,,,,,,,,,,,,,,,,,1007.8920590050002,None,1007.8920590050002,None,1007.8920590050002,None,m,1,1.1721381789993757,1009.4248698310003,None,1009.4248698310003,None,1009.4248698310003,None,1010.6596064750001,None,1010.6596064750001,None,1010.6596064750001,None,1010.6596064750001,None,,,,,,,,,,,,,,,,,,,,,,,,,,,,,,,,,,,,,,,,,,,,001,2,2020_Jan_28_0925,spring_faces,3.1.5,60.01975129973214,
,,,,,,,,,,,,,,,,,,,,,,,,,,,,,,,,,,,,,,,,,,,,,,,,,,,,,,,,,,,,,,,,,,,,,,,,,,,,,,,,,,,,,,,,,,,,,,,,,,,,,,,,,,,,,,,,1012.6417881420002,None,space,12.282763573000011,1017.6421992920004,None,,,,,,,,,,,,,,,,,,,,,,,,,,,,,,001,2,2020_Jan_28_0925,spring_faces,3.1.5,60.01975129973214,
condition files/Stage2_1.xlsx,,B2,T2,r,"['s', 'r']","['Stratego', 'Risk']","[-0.15, 0.5]","[0.15, 0.5]",1,1,,,,,,,,,,,,,,,,,0,0,0,0,0,0,0,3,,,,,,,,,,,,,,,,,,,,,,,,,,,,,,,,,,,,,,,,,,,,,,,1029.9756768920006,None,1029.9756768920006,None,1029.9756768920006,None,s,0,1.6963645030000407,1031.492517664,None,1031.492517664,None,1031.492517664,None,1033.2588756290006,None,1033.2588756290006,None,1033.2588756290006,None,1033.2588756290006,None,,,,,,,,,,,,,,,1017.6421992920004,None,,,,,,,,,,,,,,,,,,,,,,,,,,,,001,2,2020_Jan_28_0925,spring_faces,3.1.5,60.01975129973214,
condition files/Stage2_1.xlsx,,T3,B3,s,"['s', 'r']","['Stratego', 'Risk']","[-0.15, 0.5]","[0.15, 0.5]",1,1,,,,,,,,,,,,,,,,,0,0,0,0,0,1,1,4,,,,,,,,,,,,,,,,,,,,,,,,,,,,,,,,,,,,,,,,,,,,,,,1035.208655128,None,1035.208655128,None,1035.208655128,None,s,1,2.271317283000826,1036.741643624,None,1036.741643624,None,1036.741643624,None,1039.076075035,None,1039.076075035,None,1039.076075035,None,1039.076075035,None,,,,,,,,,,,,,,,,,,,,,,,,,,,,,,,,,,,,,,,,,,,,001,2,2020_Jan_28_0925,spring_faces,3.1.5,60.01975129973214,
condition files/Stage2_1.xlsx,,B6,T6,r,"['s', 'r']","['Stratego', 'Risk']","[-0.15, 0.5]","[0.15, 0.5]",1,1,,,,,,,,,,,,,,,,,0,0,0,0,0,2,2,1,,,,,,,,,,,,,,,,,,,,,,,,,,,,,,,,,,,,,,,,,,,,,,,1041.0420024160003,None,1041.0420024160003,None,1041.0420024160003,None,s,0,2.387832965000598,1042.6251384960005,None,1042.6251384960005,None,1042.6251384960005,None,1045.0780557369999,None,1045.0780557369999,None,1045.0780557369999,None,1045.0780557369999,None,,,,,,,,,,,,,,,,,,,,,,,,,,,,,,,,,,,,,,,,,,,,001,2,2020_Jan_28_0925,spring_faces,3.1.5,60.01975129973214,
condition files/Stage2_1.xlsx,,T5,B5,s,"['s', 'r']","['Stratego', 'Risk']","[-0.15, 0.5]","[0.15, 0.5]",1,1,,,,,,,,,,,,,,,,,0,0,0,0,0,3,3,0,,,,,,,,,,,,,,,,,,,,,,,,,,,,,,,,,,,,,,,,,,,,,,,1047.041982279,None,1047.041982279,None,1047.041982279,None,r,0,1.5077841339998486,1048.6092378350004,None,1048.6092378350004,None,1048.6092378350004,None,1050.175001212,None,1050.175001212,None,1050.175001212,None,1050.175001212,None,,,,,,,,,,,,,,,,,,,,,,,,,,,,,,,,,,,,,,,,,,,,001,2,2020_Jan_28_0925,spring_faces,3.1.5,60.01975129973214,
condition files/Stage2_1.xlsx,,B4,T4,r,"['s', 'r']","['Stratego', 'Risk']","[-0.15, 0.5]","[0.15, 0.5]",1,1,,,,,,,,,,,,,,,,,0,0,0,0,0,4,4,5,,,,,,,,,,,,,,,,,,,,,,,,,,,,,,,,,,,,,,,,,,,,,,,1052.1412855600001,None,1052.1412855600001,None,1052.1412855600001,None,s,0,1.8313914949994796,1053.67754848,None,1053.67754848,None,1053.67754848,None,1055.5757555850005,None,1055.5757555850005,None,1055.5757555850005,None,1055.5757555850005,None,,,,,,,,,,,,,,,,,,,,,,,,,,,,,,,,,,,,,,,,,,,,001,2,2020_Jan_28_0925,spring_faces,3.1.5,60.01975129973214,
condition files/Stage2_1.xlsx,,T1,B1,s,"['s', 'r']","['Stratego', 'Risk']","[-0.15, 0.5]","[0.15, 0.5]",1,1,,,,,,,,,,,,,,,,,0,0,0,0,0,5,5,2,,,,,,,,,,,,,,,,,,,,,,,,,,,,,,,,,,,,,,,,,,,,,,,1057.5253191970005,None,1057.5253191970005,None,1057.5253191970005,None,r,0,1.6823398879996603,1059.058617226,None,1059.058617226,None,1059.058617226,None,1060.8082122140004,None,1060.8082122140004,None,1060.8082122140004,None,1060.8082122140004,None,,,,,,,,,,,,,,,,,,,,,,,,,,,,,,,,,,,,,,,,,,,,001,2,2020_Jan_28_0925,spring_faces,3.1.5,60.01975129973214,
condition files/Stage2_2.xlsx,,B5,T5,s,"['s', 'r']","['Stratego', 'Risk']","[-0.15, 0.5]","[0.15, 0.5]",1,1,,,,,,,,,,,,,,,,,0,1,1,1,0,0,0,0,,,,,,,,,,,,,,,,,,,,,,,,,,,,,,,,,,,,,,,,,,,,,,,1062.7750946470005,None,1062.7750946470005,None,1062.7750946470005,None,s,1,0.9918620120006381,1064.3251729390004,None,1064.3251729390004,None,1064.3251729390004,None,1065.3757810380002,None,1065.3757810380002,None,1065.3757810380002,None,1065.3757810380002,None,,,,,,,,,,,,,,,,,,,,,,,,,,,,,,,,,,,,,,,,,,,,001,2,2020_Jan_28_0925,spring_faces,3.1.5,60.01975129973214,
condition files/Stage2_2.xlsx,,B3,T3,s,"['s', 'r']","['Stratego', 'Risk']","[-0.15, 0.5]","[0.15, 0.5]",1,1,,,,,,,,,,,,,,,,,0,1,1,1,0,1,1,4,,,,,,,,,,,,,,,,,,,,,,,,,,,,,,,,,,,,,,,,,,,,,,,1067.3419230950003,None,1067.3419230950003,None,1067.3419230950003,None,r,0,1.3045930380003483,1068.8923528599998,None,1068.8923528599998,None,1068.8923528599998,None,1070.2588242290003,None,1070.2588242290003,None,1070.2588242290003,None,1070.2588242290003,None,,,,,,,,,,,,,,,,,,,,,,,,,,,,,,,,,,,,,,,,,,,,001,2,2020_Jan_28_0925,spring_faces,3.1.5,60.01975129973214,
condition files/Stage2_2.xlsx,,T2,B2,r,"['s', 'r']","['Stratego', 'Risk']","[-0.15, 0.5]","[0.15, 0.5]",1,1,,,,,,,,,,,,,,,,,0,1,1,1,0,2,2,3,,,,,,,,,,,,,,,,,,,,,,,,,,,,,,,,,,,,,,,,,,,,,,,1072.2254471260003,None,1072.2254471260003,None,1072.2254471260003,None,r,1,1.3184892740000578,1073.7584721909998,None,1073.7584721909998,None,1073.7584721909998,None,1075.142449864,None,1075.142449864,None,1075.142449864,None,1075.142449864,None,,,,,,,,,,,,,,,,,,,,,,,,,,,,,,,,,,,,,,,,,,,,001,2,2020_Jan_28_0925,spring_faces,3.1.5,60.01975129973214,
condition files/Stage2_2.xlsx,,T6,B6,r,"['s', 'r']","['Stratego', 'Risk']","[-0.15, 0.5]","[0.15, 0.5]",1,1,,,,,,,,,,,,,,,,,0,1,1,1,0,3,3,1,,,,,,,,,,,,,,,,,,,,,,,,,,,,,,,,,,,,,,,,,,,,,,,1077.108595318,None,1077.108595318,None,1077.108595318,None,s,0,1.954547700999683,1078.642399808,None,1078.642399808,None,1078.642399808,None,1080.659121318,None,1080.659121318,None,1080.659121318,None,1080.659121318,None,,,,,,,,,,,,,,,,,,,,,,,,,,,,,,,,,,,,,,,,,,,,001,2,2020_Jan_28_0925,spring_faces,3.1.5,60.01975129973214,
condition files/Stage2_2.xlsx,,T4,B4,r,"['s', 'r']","['Stratego', 'Risk']","[-0.15, 0.5]","[0.15, 0.5]",1,1,,,,,,,,,,,,,,,,,0,1,1,1,0,4,4,5,,,,,,,,,,,,,,,,,,,,,,,,,,,,,,,,,,,,,,,,,,,,,,,1082.625165933,None,1082.625165933,None,1082.625165933,None,s,0,1.173117135999746,1084.1759017200002,None,1084.1759017200002,None,1084.1759017200002,None,1085.4088375800002,None,1085.4088375800002,None,1085.4088375800002,None,1085.4088375800002,None,,,,,,,,,,,,,,,,,,,,,,,,,,,,,,,,,,,,,,,,,,,,001,2,2020_Jan_28_0925,spring_faces,3.1.5,60.01975129973214,
condition files/Stage2_2.xlsx,,B1,T1,s,"['s', 'r']","['Stratego', 'Risk']","[-0.15, 0.5]","[0.15, 0.5]",1,1,,,,,,,,,,,,,,,,,0,1,1,1,0,5,5,2,,,,,,,,,,,,,,,,,,,,,,,,,,,,,,,,,,,,,,,,,,,,,,,1087.3753660339999,None,1087.3753660339999,None,1087.3753660339999,None,r,0,1.3849954910001543,1088.9079436050006,None,1088.9079436050006,None,1088.9079436050006,None,1090.357942578,None,1090.357942578,None,1090.357942578,None,1090.357942578,None,,,,,,,,,,,,,,,,,,,,,,,,,,,,,,,,,,,,,,,,,,,,001,2,2020_Jan_28_0925,spring_faces,3.1.5,60.01975129973214,
condition files/Stage2_1.xlsx,,T5,B5,s,"['s', 'r']","['Stratego', 'Risk']","[-0.15, 0.5]","[0.15, 0.5]",1,1,,,,,,,,,,,,,,,,,0,2,2,2,0,0,0,0,,,,,,,,,,,,,,,,,,,,,,,,,,,,,,,,,,,,,,,,,,,,,,,1092.3420373630006,None,1092.3420373630006,None,1092.3420373630006,None,r,0,1.5522923520002223,1093.8766860360001,None,1093.8766860360001,None,1093.8766860360001,None,1095.4919237640006,None,1095.4919237640006,None,1095.4919237640006,None,1095.4919237640006,None,,,,,,,,,,,,,,,,,,,,,,,,,,,,,,,,,,,,,,,,,,,,001,2,2020_Jan_28_0925,spring_faces,3.1.5,60.01975129973214,
condition files/Stage2_1.xlsx,,T3,B3,s,"['s', 'r']","['Stratego', 'Risk']","[-0.15, 0.5]","[0.15, 0.5]",1,1,,,,,,,,,,,,,,,,,0,2,2,2,0,1,1,4,,,,,,,,,,,,,,,,,,,,,,,,,,,,,,,,,,,,,,,,,,,,,,,1097.4586561770002,None,1097.4586561770002,None,1097.4586561770002,None,r,0,1.716003305000413,1098.9929067120001,None,1098.9929067120001,None,1098.9929067120001,None,1100.775659932,None,1100.775659932,None,1100.775659932,None,1100.775659932,None,,,,,,,,,,,,,,,,,,,,,,,,,,,,,,,,,,,,,,,,,,,,001,2,2020_Jan_28_0925,spring_faces,3.1.5,60.01975129973214,
condition files/Stage2_1.xlsx,,B2,T2,r,"['s', 'r']","['Stratego', 'Risk']","[-0.15, 0.5]","[0.15, 0.5]",1,1,,,,,,,,,,,,,,,,,0,2,2,2,0,2,2,3,,,,,,,,,,,,,,,,,,,,,,,,,,,,,,,,,,,,,,,,,,,,,,,1102.7419522030004,None,1102.7419522030004,None,1102.7419522030004,None,s,0,2.176260862000163,1104.2766860440006,None,1104.2766860440006,None,1104.2766860440006,None,1106.5085701500002,None,1106.5085701500002,None,1106.5085701500002,None,1106.5085701500002,None,,,,,,,,,,,,,,,,,,,,,,,,,,,,,,,,,,,,,,,,,,,,001,2,2020_Jan_28_0925,spring_faces,3.1.5,60.01975129973214,
condition files/Stage2_1.xlsx,,B4,T4,r,"['s', 'r']","['Stratego', 'Risk']","[-0.15, 0.5]","[0.15, 0.5]",1,1,,,,,,,,,,,,,,,,,0,2,2,2,0,3,3,5,,,,,,,,,,,,,,,,,,,,,,,,,,,,,,,,,,,,,,,,,,,,,,,1108.4754573760001,None,1108.4754573760001,None,1108.4754573760001,None,s,0,2.4115598420003153,1110.009402367,None,1110.009402367,None,1110.009402367,None,1112.4755351820004,None,1112.4755351820004,None,1112.4755351820004,None,1112.4755351820004,None,,,,,,,,,,,,,,,,,,,,,,,,,,,,,,,,,,,,,,,,,,,,001,2,2020_Jan_28_0925,spring_faces,3.1.5,60.01975129973214,
condition files/Stage2_1.xlsx,,T1,B1,s,"['s', 'r']","['Stratego', 'Risk']","[-0.15, 0.5]","[0.15, 0.5]",1,1,,,,,,,,,,,,,,,,,0,2,2,2,0,4,4,2,,,,,,,,,,,,,,,,,,,,,,,,,,,,,,,,,,,,,,,,,,,,,,,1114.4420515339998,None,1114.4420515339998,None,1114.4420515339998,None,r,0,1.30891312499989,1115.976053632,None,1115.976053632,None,1115.976053632,None,1117.3587897759999,None,1117.3587897759999,None,1117.3587897759999,None,1117.3587897759999,None,,,,,,,,,,,,,,,,,,,,,,,,,,,,,,,,,,,,,,,,,,,,001,2,2020_Jan_28_0925,spring_faces,3.1.5,60.01975129973214,
condition files/Stage2_1.xlsx,,B6,T6,r,"['s', 'r']","['Stratego', 'Risk']","[-0.15, 0.5]","[0.15, 0.5]",1,1,,,,,,,,,,,,,,,,,0,2,2,2,0,5,5,1,,,,,,,,,,,,,,,,,,,,,,,,,,,,,,,,,,,,,,,,,,,,,,,1119.3086378480002,None,1119.3086378480002,None,1119.3086378480002,None,r,1,0.9391025240001909,1120.8418634119998,None,1120.8418634119998,None,1120.8418634119998,None,1121.8582869910006,None,1121.8582869910006,None,1121.8582869910006,None,1121.8582869910006,None,,,,,,,,,,,,,,,,,,,,,,,,,,,,,,,,,,,,,,,,,,,,001,2,2020_Jan_28_0925,spring_faces,3.1.5,60.01975129973214,
condition files/Stage2_2.xlsx,,T6,B6,r,"['s', 'r']","['Stratego', 'Risk']","[-0.15, 0.5]","[0.15, 0.5]",1,1,,,,,,,,,,,,,,,,,0,3,3,3,0,0,0,1,,,,,,,,,,,,,,,,,,,,,,,,,,,,,,,,,,,,,,,,,,,,,,,1123.8253222909998,None,1123.8253222909998,None,1123.8253222909998,None,r,1,0.8067039340003248,1125.3583279680006,None,1125.3583279680006,None,1125.3583279680006,None,1126.225839355,None,1126.225839355,None,1126.225839355,None,1126.225839355,None,,,,,,,,,,,,,,,,,,,,,,,,,,,,,,,,,,,,,,,,,,,,001,2,2020_Jan_28_0925,spring_faces,3.1.5,60.01975129973214,
condition files/Stage2_2.xlsx,,T4,B4,r,"['s', 'r']","['Stratego', 'Risk']","[-0.15, 0.5]","[0.15, 0.5]",1,1,,,,,,,,,,,,,,,,,0,3,3,3,0,1,1,5,,,,,,,,,,,,,,,,,,,,,,,,,,,,,,,,,,,,,,,,,,,,,,,1128.1918924480005,None,1128.1918924480005,None,1128.1918924480005,None,s,0,0.9834993209997265,1129.725410907,None,1129.725410907,None,1129.725410907,None,1130.775335327,None,1130.775335327,None,1130.775335327,None,1130.775335327,None,,,,,,,,,,,,,,,,,,,,,,,,,,,,,,,,,,,,,,,,,,,,001,2,2020_Jan_28_0925,spring_faces,3.1.5,60.01975129973214,
condition files/Stage2_2.xlsx,,B5,T5,s,"['s', 'r']","['Stratego', 'Risk']","[-0.15, 0.5]","[0.15, 0.5]",1,1,,,,,,,,,,,,,,,,,0,3,3,3,0,2,2,0,,,,,,,,,,,,,,,,,,,,,,,,,,,,,,,,,,,,,,,,,,,,,,,1132.7422214690005,None,1132.7422214690005,None,1132.7422214690005,None,r,0,1.3772872979998283,1134.291736878,None,1134.291736878,None,1134.291736878,None,1135.7270671349997,None,1135.7270671349997,None,1135.7270671349997,None,1135.7270671349997,None,,,,,,,,,,,,,,,,,,,,,,,,,,,,,,,,,,,,,,,,,,,,001,2,2020_Jan_28_0925,spring_faces,3.1.5,60.01975129973214,
condition files/Stage2_2.xlsx,,B1,T1,s,"['s', 'r']","['Stratego', 'Risk']","[-0.15, 0.5]","[0.15, 0.5]",1,1,,,,,,,,,,,,,,,,,0,3,3,3,0,3,3,2,,,,,,,,,,,,,,,,,,,,,,,,,,,,,,,,,,,,,,,,,,,,,,,1137.692135284,None,1137.692135284,None,1137.692135284,None,s,1,1.291926803000024,1139.2251147590005,None,1139.2251147590005,None,1139.2251147590005,None,1140.5749769680006,None,1140.5749769680006,None,1140.5749769680006,None,1140.5749769680006,None,,,,,,,,,,,,,,,,,,,,,,,,,,,,,,,,,,,,,,,,,,,,001,2,2020_Jan_28_0925,spring_faces,3.1.5,60.01975129973214,
condition files/Stage2_2.xlsx,,T2,B2,r,"['s', 'r']","['Stratego', 'Risk']","[-0.15, 0.5]","[0.15, 0.5]",1,1,,,,,,,,,,,,,,,,,0,3,3,3,0,4,4,3,,,,,,,,,,,,,,,,,,,,,,,,,,,,,,,,,,,,,,,,,,,,,,,1142.5420514260004,None,1142.5420514260004,None,1142.5420514260004,None,s,0,1.7357346409999082,1144.0772295200004,None,1144.0772295200004,None,1144.0772295200004,None,1145.8924351710002,None,1145.8924351710002,None,1145.8924351710002,None,1145.8924351710002,None,,,,,,,,,,,,,,,,,,,,,,,,,,,,,,,,,,,,,,,,,,,,001,2,2020_Jan_28_0925,spring_faces,3.1.5,60.01975129973214,
condition files/Stage2_2.xlsx,,B3,T3,s,"['s', 'r']","['Stratego', 'Risk']","[-0.15, 0.5]","[0.15, 0.5]",1,1,,,,,,,,,,,,,,,,,0,3,3,3,0,5,5,4,,,,,,,,,,,,,,,,,,,,,,,,,,,,,,,,,,,,,,,,,,,,,,,1147.8419723630004,None,1147.8419723630004,None,1147.8419723630004,None,r,0,1.7013981600002808,1149.3755262000004,None,1149.3755262000004,None,1149.3755262000004,None,1151.142930739,None,1151.142930739,None,1151.142930739,None,1151.142930739,None,,,,,,,,,,,,,,,,,,,,,,,,,,,,,,,,,,,,,,,,,,,,001,2,2020_Jan_28_0925,spring_faces,3.1.5,60.01975129973214,
condition files/Stage2_1.xlsx,,B2,T2,r,"['s', 'r']","['Stratego', 'Risk']","[-0.15, 0.5]","[0.15, 0.5]",1,1,,,,,,,,,,,,,,,,,0,4,4,4,0,0,0,3,,,,,,,,,,,,,,,,,,,,,,,,,,,,,,,,,,,,,,,,,,,,,,,1153.124982022,None,1153.124982022,None,1153.124982022,None,s,0,2.0027009990008082,1154.658270731,None,1154.658270731,None,1154.658270731,None,1156.7254330249998,None,1156.7254330249998,None,1156.7254330249998,None,1156.7254330249998,None,,,,,,,,,,,,,,,,,,,,,,,,,,,,,,,,,,,,,,,,,,,,001,2,2020_Jan_28_0925,spring_faces,3.1.5,60.01975129973214,
condition files/Stage2_1.xlsx,,B4,T4,r,"['s', 'r']","['Stratego', 'Risk']","[-0.15, 0.5]","[0.15, 0.5]",1,1,,,,,,,,,,,,,,,,,0,4,4,4,0,1,1,5,,,,,,,,,,,,,,,,,,,,,,,,,,,,,,,,,,,,,,,,,,,,,,,1158.6919262820002,None,1158.6919262820002,None,1158.6919262820002,None,r,1,1.9228440119995867,1160.2261933979999,None,1160.2261933979999,None,1160.2261933979999,None,1162.2082885930004,None,1162.2082885930004,None,1162.2082885930004,None,1162.2082885930004,None,,,,,,,,,,,,,,,,,,,,,,,,,,,,,,,,,,,,,,,,,,,,001,2,2020_Jan_28_0925,spring_faces,3.1.5,60.01975129973214,
condition files/Stage2_1.xlsx,,T3,B3,s,"['s', 'r']","['Stratego', 'Risk']","[-0.15, 0.5]","[0.15, 0.5]",1,1,,,,,,,,,,,,,,,,,0,4,4,4,0,2,2,4,,,,,,,,,,,,,,,,,,,,,,,,,,,,,,,,,,,,,,,,,,,,,,,1164.1752823880006,None,1164.1752823880006,None,1164.1752823880006,None,s,1,1.9584891310005332,1165.710560507,None,1165.710560507,None,1165.710560507,None,1167.7255836479999,None,1167.7255836479999,None,1167.7255836479999,None,1167.7255836479999,None,,,,,,,,,,,,,,,,,,,,,,,,,,,,,,,,,,,,,,,,,,,,001,2,2020_Jan_28_0925,spring_faces,3.1.5,60.01975129973214,
condition files/Stage2_1.xlsx,,T5,B5,s,"['s', 'r']","['Stratego', 'Risk']","[-0.15, 0.5]","[0.15, 0.5]",1,1,,,,,,,,,,,,,,,,,0,4,4,4,0,3,3,0,,,,,,,,,,,,,,,,,,,,,,,,,,,,,,,,,,,,,,,,,,,,,,,1169.691529795,None,1169.691529795,None,1169.691529795,None,s,1,3.099889436000012,1171.2250718960004,None,1171.2250718960004,None,1171.2250718960004,None,1174.3754137229998,None,1174.3754137229998,None,1174.3754137229998,None,1174.3754137229998,None,,,,,,,,,,,,,,,,,,,,,,,,,,,,,,,,,,,,,,,,,,,,001,2,2020_Jan_28_0925,spring_faces,3.1.5,60.01975129973214,
condition files/Stage2_1.xlsx,,T1,B1,s,"['s', 'r']","['Stratego', 'Risk']","[-0.15, 0.5]","[0.15, 0.5]",1,1,,,,,,,,,,,,,,,,,0,4,4,4,0,4,4,2,,,,,,,,,,,,,,,,,,,,,,,,,,,,,,,,,,,,,,,,,,,,,,,1176.3420044660006,None,1176.3420044660006,None,1176.3420044660006,None,s,1,1.5692246279995743,1177.8757410750004,None,1177.8757410750004,None,1177.8757410750004,None,1179.5087946840003,None,1179.5087946840003,None,1179.5087946840003,None,1179.5087946840003,None,,,,,,,,,,,,,,,,,,,,,,,,,,,,,,,,,,,,,,,,,,,,001,2,2020_Jan_28_0925,spring_faces,3.1.5,60.01975129973214,
