condsFile,subStage,cue1,cue2,correct,responseKeys,responseNames,cue1Position,cue2Position,cue1Opacity,cue2Opacity,stageLoop0.thisRepN,stageLoop0.thisTrialN,stageLoop0.thisN,stageLoop0.thisIndex,blockLoop0.thisRepN,blockLoop0.thisTrialN,blockLoop0.thisN,blockLoop0.thisIndex,stage1Loop.thisRepN,stage1Loop.thisTrialN,stage1Loop.thisN,stage1Loop.thisIndex,blockLoop1.thisRepN,blockLoop1.thisTrialN,blockLoop1.thisN,blockLoop1.thisIndex,stage2Loop.thisRepN,stage2Loop.thisTrialN,stage2Loop.thisN,stage2Loop.thisIndex,blockLoop2.thisRepN,blockLoop2.thisTrialN,blockLoop2.thisN,blockLoop2.thisIndex,testLoop.thisRepN,testLoop.thisTrialN,testLoop.thisN,testLoop.thisIndex,blockLoopTest.thisRepN,blockLoopTest.thisTrialN,blockLoopTest.thisN,blockLoopTest.thisIndex,cuePics,id_instr_text.started,id_instr_text.stopped,space_to_continue_2.started,space_to_continue_2.stopped,end_instructions_resp_3.keys,end_instructions_resp_3.rt,end_instructions_resp_3.started,end_instructions_resp_3.stopped,id_input_instr.started,id_input_instr.stopped,id_input_rect.started,id_input_rect.stopped,id_input_resp.keys,id_input_resp.rt,id_input_resp.started,id_input_resp.stopped,sonaID,id_input_text.started,id_input_text.stopped,final_text.started,final_text.stopped,instructions.started,instructions.stopped,end_instructions_resp.keys,end_instructions_resp.rt,end_instructions_resp.started,end_instructions_resp.stopped,space_to_continue.started,space_to_continue.stopped,instructions_stage0.started,instructions_stage0.stopped,end_instructions_resp_stage0.keys,end_instructions_resp_stage0.rt,end_instructions_resp_stage0.started,end_instructions_resp_stage0.stopped,space_to_continue_stage0.started,space_to_continue_stage0.stopped,text.started,text.stopped,resp_text1.started,resp_text1.stopped,resp_text2.started,resp_text2.stopped,trial_resp.keys,trial_resp.corr,trial_resp.rt,trial_resp.started,trial_resp.stopped,cue1Image.started,cue1Image.stopped,cue2Image.started,cue2Image.stopped,cue1Image_fb.started,cue1Image_fb.stopped,cue2Image_fb.started,cue2Image_fb.stopped,fb_text_answer.started,fb_text_answer.stopped,feedback_image.started,feedback_image.stopped,instructions_stage1.started,instructions_stage1.stopped,end_instructions_resp_stage1.keys,end_instructions_resp_stage1.rt,end_instructions_resp_stage1.started,end_instructions_resp_stage1.stopped,space_to_continue_stage1.started,space_to_continue_stage1.stopped,instructions_2.started,instructions_2.stopped,end_instructions_resp_2.keys,end_instructions_resp_2.rt,end_instructions_resp_2.started,end_instructions_resp_2.stopped,press_space_to_continue_stage2.started,press_space_to_continue_stage2.stopped,instructions_testStage1.started,instructions_testStage1.stopped,end_instructions_resp_test1.keys,end_instructions_resp_test1.rt,end_instructions_resp_test1.started,end_instructions_resp_test1.stopped,press_space_to_continue_test1.started,press_space_to_continue_test1.stopped,cue1Image_testChoice.started,cue1Image_testChoice.stopped,cue2Image_testChoice.started,cue2Image_testChoice.stopped,test_resp.keys,test_resp.corr,test_resp.rt,test_resp.started,test_resp.stopped,cue1Image_testConf.started,cue1Image_testConf.stopped,cue2Image_testConf.started,cue2Image_testConf.stopped,conf_reminder.started,conf_reminder.stopped,conf_rating.response,conf_rating.rt,conf_rating.started,conf_rating.stopped,session,participant,date,expName,psychopyVersion,frameRate,
,,,,,,,,,,,,,,,,,,,,,,,,,,,,,,,,,,,,,,,,,,,"{'none': 'pictures/20M_AN_C.png', 'alpha': 'pictures/SHINEd_pepper.png', 'beta': 'pictures/SHINEd_pear.png', 'theta': 'pictures/SHINEd_apple.png', 'phi': 'pictures/SHINEd_melon.png', 'T1': 'pictures/33M_AN_C.png', 'T2': 'pictures/25M_AN_C.png', 'T3': 'pictures/38M_AN_C.png', 'T4': 'pictures/34M_AN_C.png', 'T5': 'pictures/31M_AN_C.png', 'T6': 'pictures/37M_AN_C.png', 'B1': 'pictures/23M_NE_C.png', 'B2': 'pictures/20M_NE_C.png', 'B3': 'pictures/22M_NE_C.png', 'B4': 'pictures/32M_NE_C.png', 'B5': 'pictures/36M_NE_C.png', 'B6': 'pictures/26M_NE_C.png'}",14.615127147999374,None,19.613720087998445,None,space,62.82649287300046,19.613720087998445,None,,,,,,,,,,,,,,,,,,,,,,,,,,,,,,,,,,,,,,,,,,,,,,,,,,,,,,,,,,,,,,,,,,,,,,,,,,,,,,,,,,,,,,,,,,,,,,,,001,32,2020_Jan_30_1059,spring_faces,3.1.5,60.04407967968752,
,,,,,,,,,,,,,,,,,,,,,,,,,,,,,,,,,,,,,,,,,,,,,,,,,,,,82.87973168200006,None,82.87973168200006,None,"['0', '9', '2', '1', 'l', 'o', 'w', 'e', 's', '0', '9', '2', '1', 'l', 'o', 'w', 'e', 's', '0', '9', '2', '1', 'l', 'o', 'w', 'e', 's']","[57.640387994000776, 58.088448808000976, 60.05644515899985, 60.472434618999614, 65.81643370200072, 66.16839732900007, 69.89643611700012, 70.15240722400085, 70.45644443600031, 81.19249073900028, 81.56047349300025, 84.69643046599958, 84.98438523600089, 89.91238861300008, 90.63242844700108, 95.0484300019998, 95.24038070999995, 95.57652207799947, 113.3843718219996, 113.7204419310001, 114.02447584299989, 114.29644522800118, 115.22442268099985, 115.48056501999963, 115.80041704700125, 116.07243923100032, 116.29639316900102]",82.87973168200006,None,,,,,,,,,,,,,,,,,,,,,,,,,,,,,,,,,,,,,,,,,,,,,,,,,,,,,,,,,,,,,,,,,,,,,,,,,,,,,,,,,,,,,,,,001,32,2020_Jan_30_1059,spring_faces,3.1.5,60.04407967968752,
,,,,,,,,,,,,,,,,,,,,,,,,,,,,,,,,,,,,,,,,,,,,,,,,,,,,,,,,,,,,0921lowes,82.87973168200006,None,82.87973168200006,None,204.2470043229987,None,space,9.785349085001144,209.24676749699938,None,,,,,,,,,,,,,,,,,,,,,,,,,,,,,,,,,,,,,,,,,,,,,,,,,,,,,,,,,,,,,,,,,,,,,,,,,,,,,001,32,2020_Jan_30_1059,spring_faces,3.1.5,60.04407967968752,
,,,,,,,,,,,,,,,,,,,,,,,,,,,,,,,,,,,,,,,,,,,,,,,,,,,,,,,,,,,,,,,,,,,,,,,209.24676749699938,None,219.08021412199923,None,space,13.463912588000312,224.08025086399903,None,,,,,,,,,,,,,,,,,,,,,,,,,,,,,,,,,,,,,,,,,,,,,,,,,,,,,,,,,,,,,,,,,,,,,001,32,2020_Jan_30_1059,spring_faces,3.1.5,60.04407967968752,
condition files/Stage0a.xlsx,0a,alpha,none,h,"['h', 'g']","['Chess', 'Go']","[0, 0.5]","[0, 0]",1,0,0,0,0,0,0,0,0,0,,,,,,,,,,,,,,,,,,,,,,,,,,,,,,,,,,,,,,,,,,,,,,,,,,,,,,,,,,,,,224.08025086399903,None,237.6462893959997,None,237.6462893959997,None,237.6462893959997,None,g,0,5.210482305001278,239.22973783399902,None,239.22973783399902,None,239.22973783399902,None,244.54718354899887,None,244.54718354899887,None,244.54718354899887,None,244.54718354899887,None,,,,,,,,,,,,,,,,,,,,,,,,,,,,,,,,,,,,,,,,,,,,001,32,2020_Jan_30_1059,spring_faces,3.1.5,60.04407967968752,
condition files/Stage0a.xlsx,0a,beta,none,g,"['h', 'g']","['Chess', 'Go']","[0, 0.5]","[0, 0]",1,0,0,0,0,0,0,1,1,1,,,,,,,,,,,,,,,,,,,,,,,,,,,,,,,,,,,,,,,,,,,,,,,,,,,,,,,,,,,,,,,246.46301888499875,None,246.46301888499875,None,246.46301888499875,None,g,1,1.2405231809989345,248.04767562300003,None,248.04767562300003,None,248.04767562300003,None,249.36358888799987,None,249.36358888799987,None,249.36358888799987,None,249.36358888799987,None,,,,,,,,,,,,,,,,,,,,,,,,,,,,,,,,,,,,,,,,,,,,001,32,2020_Jan_30_1059,spring_faces,3.1.5,60.04407967968752,
condition files/Stage0a.xlsx,0a,alpha,none,h,"['h', 'g']","['Chess', 'Go']","[0, 0.5]","[0, 0]",1,0,0,1,1,1,0,0,0,0,,,,,,,,,,,,,,,,,,,,,,,,,,,,,,,,,,,,,,,,,,,,,,,,,,,,,,,,,,,,,,,251.33014116499908,None,251.33014116499908,None,251.33014116499908,None,h,1,1.2872265500009235,252.8649463900001,None,252.8649463900001,None,252.8649463900001,None,254.2137026799992,None,254.2137026799992,None,254.2137026799992,None,254.2137026799992,None,,,,,,,,,,,,,,,,,,,,,,,,,,,,,,,,,,,,,,,,,,,,001,32,2020_Jan_30_1059,spring_faces,3.1.5,60.04407967968752,
condition files/Stage0a.xlsx,0a,beta,none,g,"['h', 'g']","['Chess', 'Go']","[0, 0.5]","[0, 0]",1,0,0,1,1,1,0,1,1,1,,,,,,,,,,,,,,,,,,,,,,,,,,,,,,,,,,,,,,,,,,,,,,,,,,,,,,,,,,,,,,,256.1800541499997,None,256.1800541499997,None,256.1800541499997,None,h,0,1.5749696679995395,257.71325361399977,None,257.71325361399977,None,257.71325361399977,None,259.34674462600015,None,259.34674462600015,None,259.34674462600015,None,259.34674462600015,None,,,,,,,,,,,,,,,,,,,,,,,,,,,,,,,,,,,,,,,,,,,,001,32,2020_Jan_30_1059,spring_faces,3.1.5,60.04407967968752,
condition files/Stage0a.xlsx,0a,beta,none,g,"['h', 'g']","['Chess', 'Go']","[0, 0.5]","[0, 0]",1,0,0,2,2,2,0,0,0,1,,,,,,,,,,,,,,,,,,,,,,,,,,,,,,,,,,,,,,,,,,,,,,,,,,,,,,,,,,,,,,,261.330301005999,None,261.330301005999,None,261.330301005999,None,g,1,1.2090898070000549,262.86313866599994,None,262.86313866599994,None,262.86313866599994,None,264.13040271799946,None,264.13040271799946,None,264.13040271799946,None,264.13040271799946,None,,,,,,,,,,,,,,,,,,,,,,,,,,,,,,,,,,,,,,,,,,,,001,32,2020_Jan_30_1059,spring_faces,3.1.5,60.04407967968752,
condition files/Stage0a.xlsx,0a,alpha,none,h,"['h', 'g']","['Chess', 'Go']","[0, 0.5]","[0, 0]",1,0,0,2,2,2,0,1,1,0,,,,,,,,,,,,,,,,,,,,,,,,,,,,,,,,,,,,,,,,,,,,,,,,,,,,,,,,,,,,,,,266.0958476269989,None,266.0958476269989,None,266.0958476269989,None,h,1,0.5061868789998698,267.6299876489993,None,267.6299876489993,None,267.6299876489993,None,268.1963144860001,None,268.1963144860001,None,268.1963144860001,None,268.1963144860001,None,,,,,,,,,,,,,,,,,,,,,,,,,,,,,,,,,,,,,,,,,,,,001,32,2020_Jan_30_1059,spring_faces,3.1.5,60.04407967968752,
condition files/Stage0a.xlsx,0a,alpha,none,h,"['h', 'g']","['Chess', 'Go']","[0, 0.5]","[0, 0]",1,0,0,3,3,3,0,0,0,0,,,,,,,,,,,,,,,,,,,,,,,,,,,,,,,,,,,,,,,,,,,,,,,,,,,,,,,,,,,,,,,270.18011871399904,None,270.18011871399904,None,270.18011871399904,None,h,1,0.7424714240005414,271.7137738989986,None,271.7137738989986,None,271.7137738989986,None,272.51352682499964,None,272.51352682499964,None,272.51352682499964,None,272.51352682499964,None,,,,,,,,,,,,,,,,,,,,,,,,,,,,,,,,,,,,,,,,,,,,001,32,2020_Jan_30_1059,spring_faces,3.1.5,60.04407967968752,
condition files/Stage0a.xlsx,0a,beta,none,g,"['h', 'g']","['Chess', 'Go']","[0, 0.5]","[0, 0]",1,0,0,3,3,3,0,1,1,1,,,,,,,,,,,,,,,,,,,,,,,,,,,,,,,,,,,,,,,,,,,,,,,,,,,,,,,,,,,,,,,274.48014982399945,None,274.48014982399945,None,274.48014982399945,None,g,1,0.6345321210010297,276.0135741649992,None,276.0135741649992,None,276.0135741649992,None,276.71356966999883,None,276.71356966999883,None,276.71356966999883,None,276.71356966999883,None,,,,,,,,,,,,,,,,,,,,,,,,,,,,,,,,,,,,,,,,,,,,001,32,2020_Jan_30_1059,spring_faces,3.1.5,60.04407967968752,
condition files/Stage0a.xlsx,0a,alpha,none,h,"['h', 'g']","['Chess', 'Go']","[0, 0.5]","[0, 0]",1,0,0,4,4,4,0,0,0,0,,,,,,,,,,,,,,,,,,,,,,,,,,,,,,,,,,,,,,,,,,,,,,,,,,,,,,,,,,,,,,,278.69703295199906,None,278.69703295199906,None,278.69703295199906,None,h,1,0.3377110370001901,280.230449699,None,280.230449699,None,280.230449699,None,280.63036126399857,None,280.63036126399857,None,280.63036126399857,None,280.63036126399857,None,,,,,,,,,,,,,,,,,,,,,,,,,,,,,,,,,,,,,,,,,,,,001,32,2020_Jan_30_1059,spring_faces,3.1.5,60.04407967968752,
condition files/Stage0a.xlsx,0a,beta,none,g,"['h', 'g']","['Chess', 'Go']","[0, 0.5]","[0, 0]",1,0,0,4,4,4,0,1,1,1,,,,,,,,,,,,,,,,,,,,,,,,,,,,,,,,,,,,,,,,,,,,,,,,,,,,,,,,,,,,,,,282.5967034360001,None,282.5967034360001,None,282.5967034360001,None,g,1,0.5174519299998792,284.13068107099934,None,284.13068107099934,None,284.13068107099934,None,284.71340061699993,None,284.71340061699993,None,284.71340061699993,None,284.71340061699993,None,,,,,,,,,,,,,,,,,,,,,,,,,,,,,,,,,,,,,,,,,,,,001,32,2020_Jan_30_1059,spring_faces,3.1.5,60.04407967968752,
condition files/Stage0a.xlsx,0a,beta,none,g,"['h', 'g']","['Chess', 'Go']","[0, 0.5]","[0, 0]",1,0,0,5,5,5,0,0,0,1,,,,,,,,,,,,,,,,,,,,,,,,,,,,,,,,,,,,,,,,,,,,,,,,,,,,,,,,,,,,,,,286.69690638799875,None,286.69690638799875,None,286.69690638799875,None,g,1,0.6408222369991563,288.23141281899916,None,288.23141281899916,None,288.23141281899916,None,288.93031735099976,None,288.93031735099976,None,288.93031735099976,None,288.93031735099976,None,,,,,,,,,,,,,,,,,,,,,,,,,,,,,,,,,,,,,,,,,,,,001,32,2020_Jan_30_1059,spring_faces,3.1.5,60.04407967968752,
condition files/Stage0a.xlsx,0a,alpha,none,h,"['h', 'g']","['Chess', 'Go']","[0, 0.5]","[0, 0]",1,0,0,5,5,5,0,1,1,0,,,,,,,,,,,,,,,,,,,,,,,,,,,,,,,,,,,,,,,,,,,,,,,,,,,,,,,,,,,,,,,290.8967841879985,None,290.8967841879985,None,290.8967841879985,None,h,1,0.5696503750004922,292.43049542599874,None,292.43049542599874,None,292.43049542599874,None,293.0634619709999,None,293.0634619709999,None,293.0634619709999,None,293.0634619709999,None,,,,,,,,,,,,,,,,,,,,,,,,,,,,,,,,,,,,,,,,,,,,001,32,2020_Jan_30_1059,spring_faces,3.1.5,60.04407967968752,
condition files/Stage0b_1.xlsx,0b,none,beta,g,"['h', 'g']","['Chess', 'Go']","[-0.15, 0.5]","[0.15, 0.5]",0,1,0,6,6,6,0,0,0,1,,,,,,,,,,,,,,,,,,,,,,,,,,,,,,,,,,,,,,,,,,,,,,,,,,,,,,,,,,,,,,,295.0970130549995,None,295.0970130549995,None,295.0970130549995,None,g,1,0.6431795379994583,296.5970356529997,None,296.5970356529997,None,296.5970356529997,None,297.3026253359985,None,297.3026253359985,None,297.3026253359985,None,297.3026253359985,None,,,,,,,,,,,,,,,,,,,,,,,,,,,,,,,,,,,,,,,,,,,,001,32,2020_Jan_30_1059,spring_faces,3.1.5,60.04407967968752,
condition files/Stage0b_1.xlsx,0b,alpha,none,h,"['h', 'g']","['Chess', 'Go']","[-0.15, 0.5]","[0.15, 0.5]",1,0,0,6,6,6,0,1,1,0,,,,,,,,,,,,,,,,,,,,,,,,,,,,,,,,,,,,,,,,,,,,,,,,,,,,,,,,,,,,,,,299.2633875729989,None,299.2633875729989,None,299.2633875729989,None,h,1,0.5867726819997188,300.8133855389988,None,300.8133855389988,None,300.8133855389988,None,301.46432232999905,None,301.46432232999905,None,301.46432232999905,None,301.46432232999905,None,,,,,,,,,,,,,,,,,,,,,,,,,,,,,,,,,,,,,,,,,,,,001,32,2020_Jan_30_1059,spring_faces,3.1.5,60.04407967968752,
condition files/Stage0b_2.xlsx,0b,beta,none,g,"['h', 'g']","['Chess', 'Go']","[-0.15, 0.5]","[0.15, 0.5]",1,0,0,7,7,7,0,0,0,1,,,,,,,,,,,,,,,,,,,,,,,,,,,,,,,,,,,,,,,,,,,,,,,,,,,,,,,,,,,,,,,303.4469699739984,None,303.4469699739984,None,303.4469699739984,None,g,1,1.3956293189985445,304.9805363209998,None,304.9805363209998,None,304.9805363209998,None,306.4299547009996,None,306.4299547009996,None,306.4299547009996,None,306.4299547009996,None,,,,,,,,,,,,,,,,,,,,,,,,,,,,,,,,,,,,,,,,,,,,001,32,2020_Jan_30_1059,spring_faces,3.1.5,60.04407967968752,
condition files/Stage0b_2.xlsx,0b,none,alpha,h,"['h', 'g']","['Chess', 'Go']","[-0.15, 0.5]","[0.15, 0.5]",0,1,0,7,7,7,0,1,1,0,,,,,,,,,,,,,,,,,,,,,,,,,,,,,,,,,,,,,,,,,,,,,,,,,,,,,,,,,,,,,,,308.3965053789998,None,308.3965053789998,None,308.3965053789998,None,h,1,0.38105447900125,309.9470946299989,None,309.9470946299989,None,309.9470946299989,None,310.39641540199955,None,310.39641540199955,None,310.39641540199955,None,310.39641540199955,None,,,,,,,,,,,,,,,,,,,,,,,,,,,,,,,,,,,,,,,,,,,,001,32,2020_Jan_30_1059,spring_faces,3.1.5,60.04407967968752,
condition files/Stage0b_1.xlsx,0b,alpha,none,h,"['h', 'g']","['Chess', 'Go']","[-0.15, 0.5]","[0.15, 0.5]",1,0,0,8,8,8,0,0,0,0,,,,,,,,,,,,,,,,,,,,,,,,,,,,,,,,,,,,,,,,,,,,,,,,,,,,,,,,,,,,,,,312.3630573729988,None,312.3630573729988,None,312.3630573729988,None,h,1,0.5386082620007073,313.9016008589988,None,313.9016008589988,None,313.9016008589988,None,314.49624064699856,None,314.49624064699856,None,314.49624064699856,None,314.49624064699856,None,,,,,,,,,,,,,,,,,,,,,,,,,,,,,,,,,,,,,,,,,,,,001,32,2020_Jan_30_1059,spring_faces,3.1.5,60.04407967968752,
condition files/Stage0b_1.xlsx,0b,none,beta,g,"['h', 'g']","['Chess', 'Go']","[-0.15, 0.5]","[0.15, 0.5]",0,1,0,8,8,8,0,1,1,1,,,,,,,,,,,,,,,,,,,,,,,,,,,,,,,,,,,,,,,,,,,,,,,,,,,,,,,,,,,,,,,316.4632130859991,None,316.4632130859991,None,316.4632130859991,None,g,1,0.5707501059987408,317.99741685799927,None,317.99741685799927,None,317.99741685799927,None,318.63079202299923,None,318.63079202299923,None,318.63079202299923,None,318.63079202299923,None,,,,,,,,,,,,,,,,,,,,,,,,,,,,,,,,,,,,,,,,,,,,001,32,2020_Jan_30_1059,spring_faces,3.1.5,60.04407967968752,
condition files/Stage0b_2.xlsx,0b,beta,none,g,"['h', 'g']","['Chess', 'Go']","[-0.15, 0.5]","[0.15, 0.5]",1,0,0,9,9,9,0,0,0,1,,,,,,,,,,,,,,,,,,,,,,,,,,,,,,,,,,,,,,,,,,,,,,,,,,,,,,,,,,,,,,,320.6137346830001,None,320.6137346830001,None,320.6137346830001,None,g,1,0.7244598779998341,322.1477723909993,None,322.1477723909993,None,322.1477723909993,None,322.9300135249996,None,322.9300135249996,None,322.9300135249996,None,322.9300135249996,None,,,,,,,,,,,,,,,,,,,,,,,,,,,,,,,,,,,,,,,,,,,,001,32,2020_Jan_30_1059,spring_faces,3.1.5,60.04407967968752,
condition files/Stage0b_2.xlsx,0b,none,alpha,h,"['h', 'g']","['Chess', 'Go']","[-0.15, 0.5]","[0.15, 0.5]",0,1,0,9,9,9,0,1,1,0,,,,,,,,,,,,,,,,,,,,,,,,,,,,,,,,,,,,,,,,,,,,,,,,,,,,,,,,,,,,,,,324.8965223439991,None,324.8965223439991,None,324.8965223439991,None,h,1,0.5047302330003731,326.4314407689999,None,326.4314407689999,None,326.4314407689999,None,326.99664876099996,None,326.99664876099996,None,326.99664876099996,None,326.99664876099996,None,,,,,,,,,,,,,,,,,,,,,,,,,,,,,,,,,,,,,,,,,,,,001,32,2020_Jan_30_1059,spring_faces,3.1.5,60.04407967968752,
condition files/Stage0b_1.xlsx,0b,alpha,none,h,"['h', 'g']","['Chess', 'Go']","[-0.15, 0.5]","[0.15, 0.5]",1,0,0,10,10,10,0,0,0,0,,,,,,,,,,,,,,,,,,,,,,,,,,,,,,,,,,,,,,,,,,,,,,,,,,,,,,,,,,,,,,,328.98031154099954,None,328.98031154099954,None,328.98031154099954,None,g,0,0.42130042600001616,330.51488635699934,None,330.51488635699934,None,330.51488635699934,None,330.99686632299927,None,330.99686632299927,None,330.99686632299927,None,330.99686632299927,None,,,,,,,,,,,,,,,,,,,,,,,,,,,,,,,,,,,,,,,,,,,,001,32,2020_Jan_30_1059,spring_faces,3.1.5,60.04407967968752,
condition files/Stage0b_1.xlsx,0b,none,beta,g,"['h', 'g']","['Chess', 'Go']","[-0.15, 0.5]","[0.15, 0.5]",0,1,0,10,10,10,0,1,1,1,,,,,,,,,,,,,,,,,,,,,,,,,,,,,,,,,,,,,,,,,,,,,,,,,,,,,,,,,,,,,,,332.96357885399993,None,332.96357885399993,None,332.96357885399993,None,g,1,0.6607402699992235,334.49960739000016,None,334.49960739000016,None,334.49960739000016,None,335.21789648399863,None,335.21789648399863,None,335.21789648399863,None,335.21789648399863,None,,,,,,,,,,,,,,,,,,,,,,,,,,,,,,,,,,,,,,,,,,,,001,32,2020_Jan_30_1059,spring_faces,3.1.5,60.04407967968752,
condition files/Stage0b_2.xlsx,0b,beta,none,g,"['h', 'g']","['Chess', 'Go']","[-0.15, 0.5]","[0.15, 0.5]",1,0,0,11,11,11,0,0,0,1,,,,,,,,,,,,,,,,,,,,,,,,,,,,,,,,,,,,,,,,,,,,,,,,,,,,,,,,,,,,,,,337.1968257119988,None,337.1968257119988,None,337.1968257119988,None,g,1,0.7485621089999768,338.73162678100016,None,338.73162678100016,None,338.73162678100016,None,339.53008353399855,None,339.53008353399855,None,339.53008353399855,None,339.53008353399855,None,,,,,,,,,,,,,,,,,,,,,,,,,,,,,,,,,,,,,,,,,,,,001,32,2020_Jan_30_1059,spring_faces,3.1.5,60.04407967968752,
condition files/Stage0b_2.xlsx,0b,none,alpha,h,"['h', 'g']","['Chess', 'Go']","[-0.15, 0.5]","[0.15, 0.5]",0,1,0,11,11,11,0,1,1,0,,,,,,,,,,,,,,,,,,,,,,,,,,,,,,,,,,,,,,,,,,,,,,,,,,,,,,,,,,,,,,,341.4971888609998,None,341.4971888609998,None,341.4971888609998,None,h,1,0.5113473209985386,343.03281918599896,None,343.03281918599896,None,343.03281918599896,None,343.60167571799866,None,343.60167571799866,None,343.60167571799866,None,343.60167571799866,None,,,,,,,,,,,,,,,,,,,,,,,,,,,,,,,,,,,,,,,,,,,,001,32,2020_Jan_30_1059,spring_faces,3.1.5,60.04407967968752,
condition files/Stage0c_1.xlsx,0c,theta,alpha,h,"['h', 'g']","['Chess', 'Go']","[-0.15, 0.5]","[0.15, 0.5]",1,1,0,12,12,12,0,0,0,0,,,,,,,,,,,,,,,,,,,,,,,,,,,,,,,,,,,,,,,,,,,,,,,,,,,,,,,,,,,,,,,345.6303540579993,None,345.6303540579993,None,345.6303540579993,None,h,1,2.1219657920009922,347.1182519699996,None,347.1182519699996,None,347.1182519699996,None,349.2969880519995,None,349.2969880519995,None,349.2969880519995,None,349.2969880519995,None,,,,,,,,,,,,,,,,,,,,,,,,,,,,,,,,,,,,,,,,,,,,001,32,2020_Jan_30_1059,spring_faces,3.1.5,60.04407967968752,
condition files/Stage0c_1.xlsx,0c,beta,theta,g,"['h', 'g']","['Chess', 'Go']","[-0.15, 0.5]","[0.15, 0.5]",1,1,0,12,12,12,0,1,1,2,,,,,,,,,,,,,,,,,,,,,,,,,,,,,,,,,,,,,,,,,,,,,,,,,,,,,,,,,,,,,,,351.2634217549985,None,351.2634217549985,None,351.2634217549985,None,g,1,0.8272202449988981,352.7969961949984,None,352.7969961949984,None,352.7969961949984,None,353.68002850799894,None,353.68002850799894,None,353.68002850799894,None,353.68002850799894,None,,,,,,,,,,,,,,,,,,,,,,,,,,,,,,,,,,,,,,,,,,,,001,32,2020_Jan_30_1059,spring_faces,3.1.5,60.04407967968752,
condition files/Stage0c_1.xlsx,0c,alpha,phi,h,"['h', 'g']","['Chess', 'Go']","[-0.15, 0.5]","[0.15, 0.5]",1,1,0,12,12,12,0,2,2,1,,,,,,,,,,,,,,,,,,,,,,,,,,,,,,,,,,,,,,,,,,,,,,,,,,,,,,,,,,,,,,,355.64603281999916,None,355.64603281999916,None,355.64603281999916,None,h,1,0.8578603900004964,357.23035230999994,None,357.23035230999994,None,357.23035230999994,None,358.1464662339986,None,358.1464662339986,None,358.1464662339986,None,358.1464662339986,None,,,,,,,,,,,,,,,,,,,,,,,,,,,,,,,,,,,,,,,,,,,,001,32,2020_Jan_30_1059,spring_faces,3.1.5,60.04407967968752,
condition files/Stage0c_1.xlsx,0c,phi,beta,g,"['h', 'g']","['Chess', 'Go']","[-0.15, 0.5]","[0.15, 0.5]",1,1,0,12,12,12,0,3,3,3,,,,,,,,,,,,,,,,,,,,,,,,,,,,,,,,,,,,,,,,,,,,,,,,,,,,,,,,,,,,,,,360.1133596189993,None,360.1133596189993,None,360.1133596189993,None,g,1,0.9377801139999065,361.6463751179999,None,361.6463751179999,None,361.6463751179999,None,362.646859208,None,362.646859208,None,362.646859208,None,362.646859208,None,,,,,,,,,,,,,,,,,,,,,,,,,,,,,,,,,,,,,,,,,,,,001,32,2020_Jan_30_1059,spring_faces,3.1.5,60.04407967968752,
condition files/Stage0c_2.xlsx,0c,theta,beta,g,"['h', 'g']","['Chess', 'Go']","[-0.15, 0.5]","[0.15, 0.5]",1,1,0,13,13,13,0,0,0,2,,,,,,,,,,,,,,,,,,,,,,,,,,,,,,,,,,,,,,,,,,,,,,,,,,,,,,,,,,,,,,,364.6468261159989,None,364.6468261159989,None,364.6468261159989,None,g,1,0.7251413839985617,366.1630640489984,None,366.1630640489984,None,366.1630640489984,None,366.9313865109998,None,366.9313865109998,None,366.9313865109998,None,366.9313865109998,None,,,,,,,,,,,,,,,,,,,,,,,,,,,,,,,,,,,,,,,,,,,,001,32,2020_Jan_30_1059,spring_faces,3.1.5,60.04407967968752,
condition files/Stage0c_2.xlsx,0c,beta,phi,g,"['h', 'g']","['Chess', 'Go']","[-0.15, 0.5]","[0.15, 0.5]",1,1,0,13,13,13,0,1,1,3,,,,,,,,,,,,,,,,,,,,,,,,,,,,,,,,,,,,,,,,,,,,,,,,,,,,,,,,,,,,,,,368.9135147019988,None,368.9135147019988,None,368.9135147019988,None,g,1,0.9368691580002633,370.44728784699873,None,370.44728784699873,None,370.44728784699873,None,371.4296179309986,None,371.4296179309986,None,371.4296179309986,None,371.4296179309986,None,,,,,,,,,,,,,,,,,,,,,,,,,,,,,,,,,,,,,,,,,,,,001,32,2020_Jan_30_1059,spring_faces,3.1.5,60.04407967968752,
condition files/Stage0c_2.xlsx,0c,phi,alpha,h,"['h', 'g']","['Chess', 'Go']","[-0.15, 0.5]","[0.15, 0.5]",1,1,0,13,13,13,0,2,2,1,,,,,,,,,,,,,,,,,,,,,,,,,,,,,,,,,,,,,,,,,,,,,,,,,,,,,,,,,,,,,,,373.4133784759997,None,373.4133784759997,None,373.4133784759997,None,h,1,1.2371532680008386,374.9470006629999,None,374.9470006629999,None,374.9470006629999,None,376.2466137470001,None,376.2466137470001,None,376.2466137470001,None,376.2466137470001,None,,,,,,,,,,,,,,,,,,,,,,,,,,,,,,,,,,,,,,,,,,,,001,32,2020_Jan_30_1059,spring_faces,3.1.5,60.04407967968752,
condition files/Stage0c_2.xlsx,0c,alpha,theta,h,"['h', 'g']","['Chess', 'Go']","[-0.15, 0.5]","[0.15, 0.5]",1,1,0,13,13,13,0,3,3,0,,,,,,,,,,,,,,,,,,,,,,,,,,,,,,,,,,,,,,,,,,,,,,,,,,,,,,,,,,,,,,,378.2136710549985,None,378.2136710549985,None,378.2136710549985,None,h,1,0.9495018859997799,379.746636382999,None,379.746636382999,None,379.746636382999,None,380.7313557889993,None,380.7313557889993,None,380.7313557889993,None,380.7313557889993,None,,,,,,,,,,,,,,,,,,,,,,,,,,,,,,,,,,,,,,,,,,,,001,32,2020_Jan_30_1059,spring_faces,3.1.5,60.04407967968752,
condition files/Stage0c_1.xlsx,0c,phi,beta,g,"['h', 'g']","['Chess', 'Go']","[-0.15, 0.5]","[0.15, 0.5]",1,1,0,14,14,14,0,0,0,3,,,,,,,,,,,,,,,,,,,,,,,,,,,,,,,,,,,,,,,,,,,,,,,,,,,,,,,,,,,,,,,382.730408944999,None,382.730408944999,None,382.730408944999,None,g,1,0.7689264279997587,384.26323300399963,None,384.26323300399963,None,384.26323300399963,None,385.09627230499973,None,385.09627230499973,None,385.09627230499973,None,385.09627230499973,None,,,,,,,,,,,,,,,,,,,,,,,,,,,,,,,,,,,,,,,,,,,,001,32,2020_Jan_30_1059,spring_faces,3.1.5,60.04407967968752,
condition files/Stage0c_1.xlsx,0c,beta,theta,g,"['h', 'g']","['Chess', 'Go']","[-0.15, 0.5]","[0.15, 0.5]",1,1,0,14,14,14,0,1,1,2,,,,,,,,,,,,,,,,,,,,,,,,,,,,,,,,,,,,,,,,,,,,,,,,,,,,,,,,,,,,,,,387.06262594799955,None,387.06262594799955,None,387.06262594799955,None,h,0,0.7072606340007042,388.5969500249994,None,388.5969500249994,None,388.5969500249994,None,389.3473993970001,None,389.3473993970001,None,389.3473993970001,None,389.3473993970001,None,,,,,,,,,,,,,,,,,,,,,,,,,,,,,,,,,,,,,,,,,,,,001,32,2020_Jan_30_1059,spring_faces,3.1.5,60.04407967968752,
condition files/Stage0c_1.xlsx,0c,theta,alpha,h,"['h', 'g']","['Chess', 'Go']","[-0.15, 0.5]","[0.15, 0.5]",1,1,0,14,14,14,0,2,2,0,,,,,,,,,,,,,,,,,,,,,,,,,,,,,,,,,,,,,,,,,,,,,,,,,,,,,,,,,,,,,,,391.33005226599926,None,391.33005226599926,None,391.33005226599926,None,h,1,0.9363123180010007,392.86383935199956,None,392.86383935199956,None,392.86383935199956,None,393.86296364400005,None,393.86296364400005,None,393.86296364400005,None,393.86296364400005,None,,,,,,,,,,,,,,,,,,,,,,,,,,,,,,,,,,,,,,,,,,,,001,32,2020_Jan_30_1059,spring_faces,3.1.5,60.04407967968752,
condition files/Stage0c_1.xlsx,0c,alpha,phi,h,"['h', 'g']","['Chess', 'Go']","[-0.15, 0.5]","[0.15, 0.5]",1,1,0,14,14,14,0,3,3,1,,,,,,,,,,,,,,,,,,,,,,,,,,,,,,,,,,,,,,,,,,,,,,,,,,,,,,,,,,,,,,,395.8300673619997,None,395.8300673619997,None,395.8300673619997,None,h,1,0.8364548230001674,397.36370366899973,None,397.36370366899973,None,397.36370366899973,None,398.2473658349991,None,398.2473658349991,None,398.2473658349991,None,398.2473658349991,None,,,,,,,,,,,,,,,,,,,,,,,,,,,,,,,,,,,,,,,,,,,,001,32,2020_Jan_30_1059,spring_faces,3.1.5,60.04407967968752,
condition files/Stage0c_2.xlsx,0c,beta,phi,g,"['h', 'g']","['Chess', 'Go']","[-0.15, 0.5]","[0.15, 0.5]",1,1,0,15,15,15,0,0,0,3,,,,,,,,,,,,,,,,,,,,,,,,,,,,,,,,,,,,,,,,,,,,,,,,,,,,,,,,,,,,,,,400.24685085300007,None,400.24685085300007,None,400.24685085300007,None,g,1,0.5969753560002573,401.7631735849991,None,401.7631735849991,None,401.7631735849991,None,402.41307424299885,None,402.41307424299885,None,402.41307424299885,None,402.41307424299885,None,,,,,,,,,,,,,,,,,,,,,,,,,,,,,,,,,,,,,,,,,,,,001,32,2020_Jan_30_1059,spring_faces,3.1.5,60.04407967968752,
condition files/Stage0c_2.xlsx,0c,phi,alpha,h,"['h', 'g']","['Chess', 'Go']","[-0.15, 0.5]","[0.15, 0.5]",1,1,0,15,15,15,0,1,1,1,,,,,,,,,,,,,,,,,,,,,,,,,,,,,,,,,,,,,,,,,,,,,,,,,,,,,,,,,,,,,,,404.38003455299986,None,404.38003455299986,None,404.38003455299986,None,h,1,0.9106144960005622,405.9135980769988,None,405.9135980769988,None,405.9135980769988,None,406.88042151599984,None,406.88042151599984,None,406.88042151599984,None,406.88042151599984,None,,,,,,,,,,,,,,,,,,,,,,,,,,,,,,,,,,,,,,,,,,,,001,32,2020_Jan_30_1059,spring_faces,3.1.5,60.04407967968752,
condition files/Stage0c_2.xlsx,0c,alpha,theta,h,"['h', 'g']","['Chess', 'Go']","[-0.15, 0.5]","[0.15, 0.5]",1,1,0,15,15,15,0,2,2,0,,,,,,,,,,,,,,,,,,,,,,,,,,,,,,,,,,,,,,,,,,,,,,,,,,,,,,,,,,,,,,,408.8459131539985,None,408.8459131539985,None,408.8459131539985,None,h,1,0.8757657739988645,410.3804759229988,None,410.3804759229988,None,410.3804759229988,None,411.29776856399985,None,411.29776856399985,None,411.29776856399985,None,411.29776856399985,None,,,,,,,,,,,,,,,,,,,,,,,,,,,,,,,,,,,,,,,,,,,,001,32,2020_Jan_30_1059,spring_faces,3.1.5,60.04407967968752,
condition files/Stage0c_2.xlsx,0c,theta,beta,g,"['h', 'g']","['Chess', 'Go']","[-0.15, 0.5]","[0.15, 0.5]",1,1,0,15,15,15,0,3,3,2,,,,,,,,,,,,,,,,,,,,,,,,,,,,,,,,,,,,,,,,,,,,,,,,,,,,,,,,,,,,,,,413.280085123999,None,413.280085123999,None,413.280085123999,None,g,1,1.002963914999782,414.81319098199856,None,414.81319098199856,None,414.81319098199856,None,415.87964874599857,None,415.87964874599857,None,415.87964874599857,None,415.87964874599857,None,,,,,,,,,,,,,,,,,,,,,,,,,,,,,,,,,,,,,,,,,,,,001,32,2020_Jan_30_1059,spring_faces,3.1.5,60.04407967968752,
condition files/Stage0c_1.xlsx,0c,beta,theta,g,"['h', 'g']","['Chess', 'Go']","[-0.15, 0.5]","[0.15, 0.5]",1,1,0,16,16,16,0,0,0,2,,,,,,,,,,,,,,,,,,,,,,,,,,,,,,,,,,,,,,,,,,,,,,,,,,,,,,,,,,,,,,,417.8637627929984,None,417.8637627929984,None,417.8637627929984,None,g,1,1.1074710979992233,419.3967504429984,None,419.3967504429984,None,419.3967504429984,None,420.5492724879987,None,420.5492724879987,None,420.5492724879987,None,420.5492724879987,None,,,,,,,,,,,,,,,,,,,,,,,,,,,,,,,,,,,,,,,,,,,,001,32,2020_Jan_30_1059,spring_faces,3.1.5,60.04407967968752,
condition files/Stage0c_1.xlsx,0c,theta,alpha,h,"['h', 'g']","['Chess', 'Go']","[-0.15, 0.5]","[0.15, 0.5]",1,1,0,16,16,16,0,1,1,0,,,,,,,,,,,,,,,,,,,,,,,,,,,,,,,,,,,,,,,,,,,,,,,,,,,,,,,,,,,,,,,422.529354717999,None,422.529354717999,None,422.529354717999,None,h,1,0.8563158060005662,424.06383654099955,None,424.06383654099955,None,424.06383654099955,None,424.98027421699953,None,424.98027421699953,None,424.98027421699953,None,424.98027421699953,None,,,,,,,,,,,,,,,,,,,,,,,,,,,,,,,,,,,,,,,,,,,,001,32,2020_Jan_30_1059,spring_faces,3.1.5,60.04407967968752,
condition files/Stage0c_1.xlsx,0c,phi,beta,g,"['h', 'g']","['Chess', 'Go']","[-0.15, 0.5]","[0.15, 0.5]",1,1,0,16,16,16,0,2,2,3,,,,,,,,,,,,,,,,,,,,,,,,,,,,,,,,,,,,,,,,,,,,,,,,,,,,,,,,,,,,,,,426.9466775639994,None,426.9466775639994,None,426.9466775639994,None,g,1,0.9039452559991332,428.4802117629988,None,428.4802117629988,None,428.4802117629988,None,429.44656552999913,None,429.44656552999913,None,429.44656552999913,None,429.44656552999913,None,,,,,,,,,,,,,,,,,,,,,,,,,,,,,,,,,,,,,,,,,,,,001,32,2020_Jan_30_1059,spring_faces,3.1.5,60.04407967968752,
condition files/Stage0c_1.xlsx,0c,alpha,phi,h,"['h', 'g']","['Chess', 'Go']","[-0.15, 0.5]","[0.15, 0.5]",1,1,0,16,16,16,0,3,3,1,,,,,,,,,,,,,,,,,,,,,,,,,,,,,,,,,,,,,,,,,,,,,,,,,,,,,,,,,,,,,,,431.4151115479999,None,431.4151115479999,None,431.4151115479999,None,h,1,1.8610984859988093,432.9470408349989,None,432.9470408349989,None,432.9470408349989,None,434.86371749299906,None,434.86371749299906,None,434.86371749299906,None,434.86371749299906,None,,,,,,,,,,,,,,,,,,,,,,,,,,,,,,,,,,,,,,,,,,,,001,32,2020_Jan_30_1059,spring_faces,3.1.5,60.04407967968752,
condition files/Stage0c_2.xlsx,0c,theta,beta,g,"['h', 'g']","['Chess', 'Go']","[-0.15, 0.5]","[0.15, 0.5]",1,1,0,17,17,17,0,0,0,2,,,,,,,,,,,,,,,,,,,,,,,,,,,,,,,,,,,,,,,,,,,,,,,,,,,,,,,,,,,,,,,436.84697298099854,None,436.84697298099854,None,436.84697298099854,None,g,1,1.0677492169998004,438.38038003899965,None,438.38038003899965,None,438.38038003899965,None,439.5135062869995,None,439.5135062869995,None,439.5135062869995,None,439.5135062869995,None,,,,,,,,,,,,,,,,,,,,,,,,,,,,,,,,,,,,,,,,,,,,001,32,2020_Jan_30_1059,spring_faces,3.1.5,60.04407967968752,
condition files/Stage0c_2.xlsx,0c,beta,phi,g,"['h', 'g']","['Chess', 'Go']","[-0.15, 0.5]","[0.15, 0.5]",1,1,0,17,17,17,0,1,1,3,,,,,,,,,,,,,,,,,,,,,,,,,,,,,,,,,,,,,,,,,,,,,,,,,,,,,,,,,,,,,,,441.48001295099857,None,441.48001295099857,None,441.48001295099857,None,g,1,1.0587135619989567,443.0134977099988,None,443.0134977099988,None,443.0134977099988,None,444.1156640529989,None,444.1156640529989,None,444.1156640529989,None,444.1156640529989,None,,,,,,,,,,,,,,,,,,,,,,,,,,,,,,,,,,,,,,,,,,,,001,32,2020_Jan_30_1059,spring_faces,3.1.5,60.04407967968752,
condition files/Stage0c_2.xlsx,0c,alpha,theta,h,"['h', 'g']","['Chess', 'Go']","[-0.15, 0.5]","[0.15, 0.5]",1,1,0,17,17,17,0,2,2,0,,,,,,,,,,,,,,,,,,,,,,,,,,,,,,,,,,,,,,,,,,,,,,,,,,,,,,,,,,,,,,,446.09706468199875,None,446.09706468199875,None,446.09706468199875,None,h,1,0.6337557619990548,447.63035218099867,None,447.63035218099867,None,447.63035218099867,None,448.3164211289986,None,448.3164211289986,None,448.3164211289986,None,448.3164211289986,None,,,,,,,,,,,,,,,,,,,,,,,,,,,,,,,,,,,,,,,,,,,,001,32,2020_Jan_30_1059,spring_faces,3.1.5,60.04407967968752,
condition files/Stage0c_2.xlsx,0c,phi,alpha,h,"['h', 'g']","['Chess', 'Go']","[-0.15, 0.5]","[0.15, 0.5]",1,1,0,17,17,17,0,3,3,1,,,,,,,,,,,,,,,,,,,,,,,,,,,,,,,,,,,,,,,,,,,,,,,,,,,,,,,,,,,,,,,450.29678034399876,None,450.29678034399876,None,450.29678034399876,None,h,1,0.9782861940002476,451.829849886999,None,451.829849886999,None,451.829849886999,None,452.84821677799846,None,452.84821677799846,None,452.84821677799846,None,452.84821677799846,None,,,,,,,,,,,,,,,,,,,,,,,,,,,,,,,,,,,,,,,,,,,,001,32,2020_Jan_30_1059,spring_faces,3.1.5,60.04407967968752,
,,,,,,,,,,,,,,,,,,,,,,,,,,,,,,,,,,,,,,,,,,,,,,,,,,,,,,,,,,,,,,,,,,,,,,,,,,,,,,,,,,,,,,,,,,,,,,,,,,,,,,,,454.8470680720002,None,space,8.433415761001015,459.84677044399905,None,,,,,,,,,,,,,,,,,,,,,,,,,,,,,,,,,,,,,,001,32,2020_Jan_30_1059,spring_faces,3.1.5,60.04407967968752,
condition files/Stage1_1.xlsx,,B3,T3,c,"['c', 'm']","['Clue', 'Monopoly']","[-0.15, 0.5]","[0.15, 0.5]",1,1,,,,,,,,,0,0,0,0,0,0,0,4,,,,,,,,,,,,,,,,,,,,,,,,,,,,,,,,,,,,,,,,,,,,,,,,,,,,,,,468.3801154169996,None,468.3801154169996,None,468.3801154169996,None,m,0,2.1270268440002837,469.89722010699916,None,469.89722010699916,None,469.89722010699916,None,472.0963724889989,None,472.0963724889989,None,472.0963724889989,None,472.0963724889989,None,,,,,,,459.84677044399905,None,,,,,,,,,,,,,,,,,,,,,,,,,,,,,,,,,,,,001,32,2020_Jan_30_1059,spring_faces,3.1.5,60.04407967968752,
condition files/Stage1_1.xlsx,,T1,B1,c,"['c', 'm']","['Clue', 'Monopoly']","[-0.15, 0.5]","[0.15, 0.5]",1,1,,,,,,,,,0,0,0,0,0,1,1,0,,,,,,,,,,,,,,,,,,,,,,,,,,,,,,,,,,,,,,,,,,,,,,,,,,,,,,,474.046727678,None,474.046727678,None,474.046727678,None,c,1,1.8500010879997717,475.64614836599867,None,475.64614836599867,None,475.64614836599867,None,477.546488295,None,477.546488295,None,477.546488295,None,477.546488295,None,,,,,,,,,,,,,,,,,,,,,,,,,,,,,,,,,,,,,,,,,,,,001,32,2020_Jan_30_1059,spring_faces,3.1.5,60.04407967968752,
condition files/Stage1_1.xlsx,,B2,T1,m,"['c', 'm']","['Clue', 'Monopoly']","[-0.15, 0.5]","[0.15, 0.5]",1,1,,,,,,,,,0,0,0,0,0,2,2,2,,,,,,,,,,,,,,,,,,,,,,,,,,,,,,,,,,,,,,,,,,,,,,,,,,,,,,,479.5134778189986,None,479.5134778189986,None,479.5134778189986,None,c,0,3.0713078529988707,481.0968541029997,None,481.0968541029997,None,481.0968541029997,None,484.2318186449993,None,484.2318186449993,None,484.2318186449993,None,484.2318186449993,None,,,,,,,,,,,,,,,,,,,,,,,,,,,,,,,,,,,,,,,,,,,,001,32,2020_Jan_30_1059,spring_faces,3.1.5,60.04407967968752,
condition files/Stage1_1.xlsx,,T3,B4,c,"['c', 'm']","['Clue', 'Monopoly']","[-0.15, 0.5]","[0.15, 0.5]",1,1,,,,,,,,,0,0,0,0,0,3,3,5,,,,,,,,,,,,,,,,,,,,,,,,,,,,,,,,,,,,,,,,,,,,,,,,,,,,,,,486.19672327699845,None,486.19672327699845,None,486.19672327699845,None,m,0,1.9557513170002494,487.7324756950002,None,487.7324756950002,None,487.7324756950002,None,489.76357970999925,None,489.76357970999925,None,489.76357970999925,None,489.76357970999925,None,,,,,,,,,,,,,,,,,,,,,,,,,,,,,,,,,,,,,,,,,,,,001,32,2020_Jan_30_1059,spring_faces,3.1.5,60.04407967968752,
condition files/Stage1_1.xlsx,,B1,T2,c,"['c', 'm']","['Clue', 'Monopoly']","[-0.15, 0.5]","[0.15, 0.5]",1,1,,,,,,,,,0,0,0,0,0,4,4,1,,,,,,,,,,,,,,,,,,,,,,,,,,,,,,,,,,,,,,,,,,,,,,,,,,,,,,,491.71330492499874,None,491.71330492499874,None,491.71330492499874,None,c,1,1.8642777929999284,493.26386971099964,None,493.26386971099964,None,493.26386971099964,None,495.1796677479997,None,495.1796677479997,None,495.1796677479997,None,495.1796677479997,None,,,,,,,,,,,,,,,,,,,,,,,,,,,,,,,,,,,,,,,,,,,,001,32,2020_Jan_30_1059,spring_faces,3.1.5,60.04407967968752,
condition files/Stage1_1.xlsx,,T4,B3,m,"['c', 'm']","['Clue', 'Monopoly']","[-0.15, 0.5]","[0.15, 0.5]",1,1,,,,,,,,,0,0,0,0,0,5,5,6,,,,,,,,,,,,,,,,,,,,,,,,,,,,,,,,,,,,,,,,,,,,,,,,,,,,,,,497.14647427899945,None,497.14647427899945,None,497.14647427899945,None,c,0,1.2470862209993356,498.6970645549991,None,498.6970645549991,None,498.6970645549991,None,499.9973488300002,None,499.9973488300002,None,499.9973488300002,None,499.9973488300002,None,,,,,,,,,,,,,,,,,,,,,,,,,,,,,,,,,,,,,,,,,,,,001,32,2020_Jan_30_1059,spring_faces,3.1.5,60.04407967968752,
condition files/Stage1_1.xlsx,,B4,T4,m,"['c', 'm']","['Clue', 'Monopoly']","[-0.15, 0.5]","[0.15, 0.5]",1,1,,,,,,,,,0,0,0,0,0,6,6,7,,,,,,,,,,,,,,,,,,,,,,,,,,,,,,,,,,,,,,,,,,,,,,,,,,,,,,,501.96341474699875,None,501.96341474699875,None,501.96341474699875,None,c,0,1.4856931489994167,503.49848567299887,None,503.49848567299887,None,503.49848567299887,None,505.0472012779992,None,505.0472012779992,None,505.0472012779992,None,505.0472012779992,None,,,,,,,,,,,,,,,,,,,,,,,,,,,,,,,,,,,,,,,,,,,,001,32,2020_Jan_30_1059,spring_faces,3.1.5,60.04407967968752,
condition files/Stage1_1.xlsx,,T2,B2,m,"['c', 'm']","['Clue', 'Monopoly']","[-0.15, 0.5]","[0.15, 0.5]",1,1,,,,,,,,,0,0,0,0,0,7,7,3,,,,,,,,,,,,,,,,,,,,,,,,,,,,,,,,,,,,,,,,,,,,,,,,,,,,,,,507.0133658329996,None,507.0133658329996,None,507.0133658329996,None,c,0,1.8429772920007963,508.54920608499924,None,508.54920608499924,None,508.54920608499924,None,510.4464911019986,None,510.4464911019986,None,510.4464911019986,None,510.4464911019986,None,,,,,,,,,,,,,,,,,,,,,,,,,,,,,,,,,,,,,,,,,,,,001,32,2020_Jan_30_1059,spring_faces,3.1.5,60.04407967968752,
condition files/Stage1_2.xlsx,,B1,T1,c,"['c', 'm']","['Clue', 'Monopoly']","[-0.15, 0.5]","[0.15, 0.5]",1,1,,,,,,,,,0,1,1,1,0,0,0,0,,,,,,,,,,,,,,,,,,,,,,,,,,,,,,,,,,,,,,,,,,,,,,,,,,,,,,,512.4467269349989,None,512.4467269349989,None,512.4467269349989,None,m,0,1.5470117579989164,513.9651483839989,None,513.9651483839989,None,513.9651483839989,None,515.5644739799991,None,515.5644739799991,None,515.5644739799991,None,515.5644739799991,None,,,,,,,,,,,,,,,,,,,,,,,,,,,,,,,,,,,,,,,,,,,,001,32,2020_Jan_30_1059,spring_faces,3.1.5,60.04407967968752,
condition files/Stage1_2.xlsx,,T1,B2,m,"['c', 'm']","['Clue', 'Monopoly']","[-0.15, 0.5]","[0.15, 0.5]",1,1,,,,,,,,,0,1,1,1,0,1,1,2,,,,,,,,,,,,,,,,,,,,,,,,,,,,,,,,,,,,,,,,,,,,,,,,,,,,,,,517.5292449009994,None,517.5292449009994,None,517.5292449009994,None,c,0,2.3370115690013336,519.0631534589993,None,519.0631534589993,None,519.0631534589993,None,521.4656052269984,None,521.4656052269984,None,521.4656052269984,None,521.4656052269984,None,,,,,,,,,,,,,,,,,,,,,,,,,,,,,,,,,,,,,,,,,,,,001,32,2020_Jan_30_1059,spring_faces,3.1.5,60.04407967968752,
condition files/Stage1_2.xlsx,,B3,T4,m,"['c', 'm']","['Clue', 'Monopoly']","[-0.15, 0.5]","[0.15, 0.5]",1,1,,,,,,,,,0,1,1,1,0,2,2,6,,,,,,,,,,,,,,,,,,,,,,,,,,,,,,,,,,,,,,,,,,,,,,,,,,,,,,,523.4301634859985,None,523.4301634859985,None,523.4301634859985,None,m,1,1.3638355780003621,524.9643314269997,None,524.9643314269997,None,524.9643314269997,None,526.3799593589993,None,526.3799593589993,None,526.3799593589993,None,526.3799593589993,None,,,,,,,,,,,,,,,,,,,,,,,,,,,,,,,,,,,,,,,,,,,,001,32,2020_Jan_30_1059,spring_faces,3.1.5,60.04407967968752,
condition files/Stage1_2.xlsx,,T4,B4,m,"['c', 'm']","['Clue', 'Monopoly']","[-0.15, 0.5]","[0.15, 0.5]",1,1,,,,,,,,,0,1,1,1,0,3,3,7,,,,,,,,,,,,,,,,,,,,,,,,,,,,,,,,,,,,,,,,,,,,,,,,,,,,,,,528.3466893579989,None,528.3466893579989,None,528.3466893579989,None,c,0,0.9746909290006442,529.8815680569987,None,529.8815680569987,None,529.8815680569987,None,530.9132838329988,None,530.9132838329988,None,530.9132838329988,None,530.9132838329988,None,,,,,,,,,,,,,,,,,,,,,,,,,,,,,,,,,,,,,,,,,,,,001,32,2020_Jan_30_1059,spring_faces,3.1.5,60.04407967968752,
condition files/Stage1_2.xlsx,,B4,T3,c,"['c', 'm']","['Clue', 'Monopoly']","[-0.15, 0.5]","[0.15, 0.5]",1,1,,,,,,,,,0,1,1,1,0,4,4,5,,,,,,,,,,,,,,,,,,,,,,,,,,,,,,,,,,,,,,,,,,,,,,,,,,,,,,,532.8796336699997,None,532.8796336699997,None,532.8796336699997,None,c,1,1.7379097789998923,534.414268692999,None,534.414268692999,None,534.414268692999,None,536.2132792969987,None,536.2132792969987,None,536.2132792969987,None,536.2132792969987,None,,,,,,,,,,,,,,,,,,,,,,,,,,,,,,,,,,,,,,,,,,,,001,32,2020_Jan_30_1059,spring_faces,3.1.5,60.04407967968752,
condition files/Stage1_2.xlsx,,B2,T2,m,"['c', 'm']","['Clue', 'Monopoly']","[-0.15, 0.5]","[0.15, 0.5]",1,1,,,,,,,,,0,1,1,1,0,5,5,3,,,,,,,,,,,,,,,,,,,,,,,,,,,,,,,,,,,,,,,,,,,,,,,,,,,,,,,538.1800917559995,None,538.1800917559995,None,538.1800917559995,None,c,0,1.5737665760007076,539.7304585829988,None,539.7304585829988,None,539.7304585829988,None,541.3630321539986,None,541.3630321539986,None,541.3630321539986,None,541.3630321539986,None,,,,,,,,,,,,,,,,,,,,,,,,,,,,,,,,,,,,,,,,,,,,001,32,2020_Jan_30_1059,spring_faces,3.1.5,60.04407967968752,
condition files/Stage1_2.xlsx,,T3,B3,c,"['c', 'm']","['Clue', 'Monopoly']","[-0.15, 0.5]","[0.15, 0.5]",1,1,,,,,,,,,0,1,1,1,0,6,6,4,,,,,,,,,,,,,,,,,,,,,,,,,,,,,,,,,,,,,,,,,,,,,,,,,,,,,,,543.330104315999,None,543.330104315999,None,543.330104315999,None,c,1,0.8565998030007904,544.8636387949991,None,544.8636387949991,None,544.8636387949991,None,545.7830190429995,None,545.7830190429995,None,545.7830190429995,None,545.7830190429995,None,,,,,,,,,,,,,,,,,,,,,,,,,,,,,,,,,,,,,,,,,,,,001,32,2020_Jan_30_1059,spring_faces,3.1.5,60.04407967968752,
condition files/Stage1_2.xlsx,,T2,B1,c,"['c', 'm']","['Clue', 'Monopoly']","[-0.15, 0.5]","[0.15, 0.5]",1,1,,,,,,,,,0,1,1,1,0,7,7,1,,,,,,,,,,,,,,,,,,,,,,,,,,,,,,,,,,,,,,,,,,,,,,,,,,,,,,,547.7466103480001,None,547.7466103480001,None,547.7466103480001,None,m,0,0.760095204001118,549.2801238969987,None,549.2801238969987,None,549.2801238969987,None,550.0969903469995,None,550.0969903469995,None,550.0969903469995,None,550.0969903469995,None,,,,,,,,,,,,,,,,,,,,,,,,,,,,,,,,,,,,,,,,,,,,001,32,2020_Jan_30_1059,spring_faces,3.1.5,60.04407967968752,
condition files/Stage1_1.xlsx,,T3,B4,c,"['c', 'm']","['Clue', 'Monopoly']","[-0.15, 0.5]","[0.15, 0.5]",1,1,,,,,,,,,0,2,2,2,0,0,0,5,,,,,,,,,,,,,,,,,,,,,,,,,,,,,,,,,,,,,,,,,,,,,,,,,,,,,,,552.0799247899995,None,552.0799247899995,None,552.0799247899995,None,c,1,1.2580939189992932,553.6141200679995,None,553.6141200679995,None,553.6141200679995,None,554.9300739499995,None,554.9300739499995,None,554.9300739499995,None,554.9300739499995,None,,,,,,,,,,,,,,,,,,,,,,,,,,,,,,,,,,,,,,,,,,,,001,32,2020_Jan_30_1059,spring_faces,3.1.5,60.04407967968752,
condition files/Stage1_1.xlsx,,B3,T3,c,"['c', 'm']","['Clue', 'Monopoly']","[-0.15, 0.5]","[0.15, 0.5]",1,1,,,,,,,,,0,2,2,2,0,1,1,4,,,,,,,,,,,,,,,,,,,,,,,,,,,,,,,,,,,,,,,,,,,,,,,,,,,,,,,556.8967840209989,None,556.8967840209989,None,556.8967840209989,None,c,1,0.8420713300001808,558.4301496469998,None,558.4301496469998,None,558.4301496469998,None,559.3306150079989,None,559.3306150079989,None,559.3306150079989,None,559.3306150079989,None,,,,,,,,,,,,,,,,,,,,,,,,,,,,,,,,,,,,,,,,,,,,001,32,2020_Jan_30_1059,spring_faces,3.1.5,60.04407967968752,
condition files/Stage1_1.xlsx,,T1,B1,c,"['c', 'm']","['Clue', 'Monopoly']","[-0.15, 0.5]","[0.15, 0.5]",1,1,,,,,,,,,0,2,2,2,0,2,2,0,,,,,,,,,,,,,,,,,,,,,,,,,,,,,,,,,,,,,,,,,,,,,,,,,,,,,,,561.296531435999,None,561.296531435999,None,561.296531435999,None,m,0,0.9864568259999942,562.8297095899998,None,562.8297095899998,None,562.8297095899998,None,563.8803397739994,None,563.8803397739994,None,563.8803397739994,None,563.8803397739994,None,,,,,,,,,,,,,,,,,,,,,,,,,,,,,,,,,,,,,,,,,,,,001,32,2020_Jan_30_1059,spring_faces,3.1.5,60.04407967968752,
condition files/Stage1_1.xlsx,,B2,T1,m,"['c', 'm']","['Clue', 'Monopoly']","[-0.15, 0.5]","[0.15, 0.5]",1,1,,,,,,,,,0,2,2,2,0,3,3,2,,,,,,,,,,,,,,,,,,,,,,,,,,,,,,,,,,,,,,,,,,,,,,,,,,,,,,,565.8468143549999,None,565.8468143549999,None,565.8468143549999,None,m,1,0.9637413309992553,567.3804172189994,None,567.3804172189994,None,567.3804172189994,None,568.3980594329987,None,568.3980594329987,None,568.3980594329987,None,568.3980594329987,None,,,,,,,,,,,,,,,,,,,,,,,,,,,,,,,,,,,,,,,,,,,,001,32,2020_Jan_30_1059,spring_faces,3.1.5,60.04407967968752,
condition files/Stage1_1.xlsx,,T4,B3,m,"['c', 'm']","['Clue', 'Monopoly']","[-0.15, 0.5]","[0.15, 0.5]",1,1,,,,,,,,,0,2,2,2,0,4,4,6,,,,,,,,,,,,,,,,,,,,,,,,,,,,,,,,,,,,,,,,,,,,,,,,,,,,,,,570.3634755989988,None,570.3634755989988,None,570.3634755989988,None,m,1,1.8558767740014446,571.8963326559988,None,571.8963326559988,None,571.8963326559988,None,573.813689786999,None,573.813689786999,None,573.813689786999,None,573.813689786999,None,,,,,,,,,,,,,,,,,,,,,,,,,,,,,,,,,,,,,,,,,,,,001,32,2020_Jan_30_1059,spring_faces,3.1.5,60.04407967968752,
condition files/Stage1_1.xlsx,,B1,T2,c,"['c', 'm']","['Clue', 'Monopoly']","[-0.15, 0.5]","[0.15, 0.5]",1,1,,,,,,,,,0,2,2,2,0,5,5,1,,,,,,,,,,,,,,,,,,,,,,,,,,,,,,,,,,,,,,,,,,,,,,,,,,,,,,,575.7797649309996,None,575.7797649309996,None,575.7797649309996,None,m,0,1.9572884019999037,577.3149386709993,None,577.3149386709993,None,577.3149386709993,None,579.3299363879996,None,579.3299363879996,None,579.3299363879996,None,579.3299363879996,None,,,,,,,,,,,,,,,,,,,,,,,,,,,,,,,,,,,,,,,,,,,,001,32,2020_Jan_30_1059,spring_faces,3.1.5,60.04407967968752,
condition files/Stage1_1.xlsx,,B4,T4,m,"['c', 'm']","['Clue', 'Monopoly']","[-0.15, 0.5]","[0.15, 0.5]",1,1,,,,,,,,,0,2,2,2,0,6,6,7,,,,,,,,,,,,,,,,,,,,,,,,,,,,,,,,,,,,,,,,,,,,,,,,,,,,,,,581.2964833699989,None,581.2964833699989,None,581.2964833699989,None,m,1,1.097799524999573,582.8463498539986,None,582.8463498539986,None,582.8463498539986,None,583.9978310369988,None,583.9978310369988,None,583.9978310369988,None,583.9978310369988,None,,,,,,,,,,,,,,,,,,,,,,,,,,,,,,,,,,,,,,,,,,,,001,32,2020_Jan_30_1059,spring_faces,3.1.5,60.04407967968752,
condition files/Stage1_1.xlsx,,T2,B2,m,"['c', 'm']","['Clue', 'Monopoly']","[-0.15, 0.5]","[0.15, 0.5]",1,1,,,,,,,,,0,2,2,2,0,7,7,3,,,,,,,,,,,,,,,,,,,,,,,,,,,,,,,,,,,,,,,,,,,,,,,,,,,,,,,585.9635652969991,None,585.9635652969991,None,585.9635652969991,None,c,0,5.439122105999559,587.5130477639996,None,587.5130477639996,None,587.5130477639996,None,593.013581797999,None,593.013581797999,None,593.013581797999,None,593.013581797999,None,,,,,,,,,,,,,,,,,,,,,,,,,,,,,,,,,,,,,,,,,,,,001,32,2020_Jan_30_1059,spring_faces,3.1.5,60.04407967968752,
condition files/Stage1_2.xlsx,,T1,B2,m,"['c', 'm']","['Clue', 'Monopoly']","[-0.15, 0.5]","[0.15, 0.5]",1,1,,,,,,,,,0,3,3,3,0,0,0,2,,,,,,,,,,,,,,,,,,,,,,,,,,,,,,,,,,,,,,,,,,,,,,,,,,,,,,,594.9963950040001,None,594.9963950040001,None,594.9963950040001,None,m,1,0.8842503399991983,596.5318695440001,None,596.5318695440001,None,596.5318695440001,None,597.480401806999,None,597.480401806999,None,597.480401806999,None,597.480401806999,None,,,,,,,,,,,,,,,,,,,,,,,,,,,,,,,,,,,,,,,,,,,,001,32,2020_Jan_30_1059,spring_faces,3.1.5,60.04407967968752,
condition files/Stage1_2.xlsx,,B1,T1,c,"['c', 'm']","['Clue', 'Monopoly']","[-0.15, 0.5]","[0.15, 0.5]",1,1,,,,,,,,,0,3,3,3,0,1,1,0,,,,,,,,,,,,,,,,,,,,,,,,,,,,,,,,,,,,,,,,,,,,,,,,,,,,,,,599.4467747509989,None,599.4467747509989,None,599.4467747509989,None,m,0,1.2994102029988426,600.9807596219998,None,600.9807596219998,None,600.9807596219998,None,602.3312191139994,None,602.3312191139994,None,602.3312191139994,None,602.3312191139994,None,,,,,,,,,,,,,,,,,,,,,,,,,,,,,,,,,,,,,,,,,,,,001,32,2020_Jan_30_1059,spring_faces,3.1.5,60.04407967968752,
condition files/Stage1_2.xlsx,,B4,T3,c,"['c', 'm']","['Clue', 'Monopoly']","[-0.15, 0.5]","[0.15, 0.5]",1,1,,,,,,,,,0,3,3,3,0,2,2,5,,,,,,,,,,,,,,,,,,,,,,,,,,,,,,,,,,,,,,,,,,,,,,,,,,,,,,,604.2967600369993,None,604.2967600369993,None,604.2967600369993,None,c,1,1.121894798001449,605.8462686829989,None,605.8462686829989,None,605.8462686829989,None,607.0303327849997,None,607.0303327849997,None,607.0303327849997,None,607.0303327849997,None,,,,,,,,,,,,,,,,,,,,,,,,,,,,,,,,,,,,,,,,,,,,001,32,2020_Jan_30_1059,spring_faces,3.1.5,60.04407967968752,
condition files/Stage1_2.xlsx,,B2,T2,m,"['c', 'm']","['Clue', 'Monopoly']","[-0.15, 0.5]","[0.15, 0.5]",1,1,,,,,,,,,0,3,3,3,0,3,3,3,,,,,,,,,,,,,,,,,,,,,,,,,,,,,,,,,,,,,,,,,,,,,,,,,,,,,,,608.9963159889994,None,608.9963159889994,None,608.9963159889994,None,m,1,1.860954302999744,610.5312177269989,None,610.5312177269989,None,610.5312177269989,None,612.4484896099984,None,612.4484896099984,None,612.4484896099984,None,612.4484896099984,None,,,,,,,,,,,,,,,,,,,,,,,,,,,,,,,,,,,,,,,,,,,,001,32,2020_Jan_30_1059,spring_faces,3.1.5,60.04407967968752,
condition files/Stage1_2.xlsx,,B3,T4,m,"['c', 'm']","['Clue', 'Monopoly']","[-0.15, 0.5]","[0.15, 0.5]",1,1,,,,,,,,,0,3,3,3,0,4,4,6,,,,,,,,,,,,,,,,,,,,,,,,,,,,,,,,,,,,,,,,,,,,,,,,,,,,,,,614.4128299189997,None,614.4128299189997,None,614.4128299189997,None,m,1,1.4351235920003091,615.9490539660001,None,615.9490539660001,None,615.9490539660001,None,617.4466282989997,None,617.4466282989997,None,617.4466282989997,None,617.4466282989997,None,,,,,,,,,,,,,,,,,,,,,,,,,,,,,,,,,,,,,,,,,,,,001,32,2020_Jan_30_1059,spring_faces,3.1.5,60.04407967968752,
condition files/Stage1_2.xlsx,,T2,B1,c,"['c', 'm']","['Clue', 'Monopoly']","[-0.15, 0.5]","[0.15, 0.5]",1,1,,,,,,,,,0,3,3,3,0,5,5,1,,,,,,,,,,,,,,,,,,,,,,,,,,,,,,,,,,,,,,,,,,,,,,,,,,,,,,,619.4136729459988,None,619.4136729459988,None,619.4136729459988,None,c,1,0.917490349000218,620.946635594999,None,620.946635594999,None,620.946635594999,None,621.930603847999,None,621.930603847999,None,621.930603847999,None,621.930603847999,None,,,,,,,,,,,,,,,,,,,,,,,,,,,,,,,,,,,,,,,,,,,,001,32,2020_Jan_30_1059,spring_faces,3.1.5,60.04407967968752,
condition files/Stage1_2.xlsx,,T4,B4,m,"['c', 'm']","['Clue', 'Monopoly']","[-0.15, 0.5]","[0.15, 0.5]",1,1,,,,,,,,,0,3,3,3,0,6,6,7,,,,,,,,,,,,,,,,,,,,,,,,,,,,,,,,,,,,,,,,,,,,,,,,,,,,,,,623.896978675999,None,623.896978675999,None,623.896978675999,None,c,0,0.9606257790001109,625.4315178050001,None,625.4315178050001,None,625.4315178050001,None,626.4469862589995,None,626.4469862589995,None,626.4469862589995,None,626.4469862589995,None,,,,,,,,,,,,,,,,,,,,,,,,,,,,,,,,,,,,,,,,,,,,001,32,2020_Jan_30_1059,spring_faces,3.1.5,60.04407967968752,
condition files/Stage1_2.xlsx,,T3,B3,c,"['c', 'm']","['Clue', 'Monopoly']","[-0.15, 0.5]","[0.15, 0.5]",1,1,,,,,,,,,0,3,3,3,0,7,7,4,,,,,,,,,,,,,,,,,,,,,,,,,,,,,,,,,,,,,,,,,,,,,,,,,,,,,,,628.4130950709987,None,628.4130950709987,None,628.4130950709987,None,c,1,1.1014724460001162,629.9466377879999,None,629.9466377879999,None,629.9466377879999,None,631.1143377279986,None,631.1143377279986,None,631.1143377279986,None,631.1143377279986,None,,,,,,,,,,,,,,,,,,,,,,,,,,,,,,,,,,,,,,,,,,,,001,32,2020_Jan_30_1059,spring_faces,3.1.5,60.04407967968752,
condition files/Stage1_1.xlsx,,T3,B4,c,"['c', 'm']","['Clue', 'Monopoly']","[-0.15, 0.5]","[0.15, 0.5]",1,1,,,,,,,,,0,4,4,4,0,0,0,5,,,,,,,,,,,,,,,,,,,,,,,,,,,,,,,,,,,,,,,,,,,,,,,,,,,,,,,633.0970401359991,None,633.0970401359991,None,633.0970401359991,None,c,1,0.7209494140006427,634.6312402889998,None,634.6312402889998,None,634.6312402889998,None,635.4136057319993,None,635.4136057319993,None,635.4136057319993,None,635.4136057319993,None,,,,,,,,,,,,,,,,,,,,,,,,,,,,,,,,,,,,,,,,,,,,001,32,2020_Jan_30_1059,spring_faces,3.1.5,60.04407967968752,
condition files/Stage1_1.xlsx,,T4,B3,m,"['c', 'm']","['Clue', 'Monopoly']","[-0.15, 0.5]","[0.15, 0.5]",1,1,,,,,,,,,0,4,4,4,0,1,1,6,,,,,,,,,,,,,,,,,,,,,,,,,,,,,,,,,,,,,,,,,,,,,,,,,,,,,,,637.3801500760001,None,637.3801500760001,None,637.3801500760001,None,m,1,1.9578166629999032,638.9304001839992,None,638.9304001839992,None,638.9304001839992,None,640.9639194289994,None,640.9639194289994,None,640.9639194289994,None,640.9639194289994,None,,,,,,,,,,,,,,,,,,,,,,,,,,,,,,,,,,,,,,,,,,,,001,32,2020_Jan_30_1059,spring_faces,3.1.5,60.04407967968752,
condition files/Stage1_1.xlsx,,B3,T3,c,"['c', 'm']","['Clue', 'Monopoly']","[-0.15, 0.5]","[0.15, 0.5]",1,1,,,,,,,,,0,4,4,4,0,2,2,4,,,,,,,,,,,,,,,,,,,,,,,,,,,,,,,,,,,,,,,,,,,,,,,,,,,,,,,642.913442432,None,642.913442432,None,642.913442432,None,c,1,1.0486159089996363,644.4475563409997,None,644.4475563409997,None,644.4475563409997,None,645.5474240299991,None,645.5474240299991,None,645.5474240299991,None,645.5474240299991,None,,,,,,,,,,,,,,,,,,,,,,,,,,,,,,,,,,,,,,,,,,,,001,32,2020_Jan_30_1059,spring_faces,3.1.5,60.04407967968752,
condition files/Stage1_1.xlsx,,B2,T1,m,"['c', 'm']","['Clue', 'Monopoly']","[-0.15, 0.5]","[0.15, 0.5]",1,1,,,,,,,,,0,4,4,4,0,3,3,2,,,,,,,,,,,,,,,,,,,,,,,,,,,,,,,,,,,,,,,,,,,,,,,,,,,,,,,647.513240676999,None,647.513240676999,None,647.513240676999,None,m,1,0.8170900770001026,649.0470339659987,None,649.0470339659987,None,649.0470339659987,None,649.9466530979989,None,649.9466530979989,None,649.9466530979989,None,649.9466530979989,None,,,,,,,,,,,,,,,,,,,,,,,,,,,,,,,,,,,,,,,,,,,,001,32,2020_Jan_30_1059,spring_faces,3.1.5,60.04407967968752,
condition files/Stage1_1.xlsx,,T2,B2,m,"['c', 'm']","['Clue', 'Monopoly']","[-0.15, 0.5]","[0.15, 0.5]",1,1,,,,,,,,,0,4,4,4,0,4,4,3,,,,,,,,,,,,,,,,,,,,,,,,,,,,,,,,,,,,,,,,,,,,,,,,,,,,,,,651.8968041150001,None,651.8968041150001,None,651.8968041150001,None,c,0,1.4412990419987182,653.4469192689994,None,653.4469192689994,None,653.4469192689994,None,654.9471033279988,None,654.9471033279988,None,654.9471033279988,None,654.9471033279988,None,,,,,,,,,,,,,,,,,,,,,,,,,,,,,,,,,,,,,,,,,,,,001,32,2020_Jan_30_1059,spring_faces,3.1.5,60.04407967968752,
condition files/Stage1_1.xlsx,,B4,T4,m,"['c', 'm']","['Clue', 'Monopoly']","[-0.15, 0.5]","[0.15, 0.5]",1,1,,,,,,,,,0,4,4,4,0,5,5,7,,,,,,,,,,,,,,,,,,,,,,,,,,,,,,,,,,,,,,,,,,,,,,,,,,,,,,,656.913400424999,None,656.913400424999,None,656.913400424999,None,m,1,0.8884171110003081,658.4477777299999,None,658.4477777299999,None,658.4477777299999,None,659.3967313389985,None,659.3967313389985,None,659.3967313389985,None,659.3967313389985,None,,,,,,,,,,,,,,,,,,,,,,,,,,,,,,,,,,,,,,,,,,,,001,32,2020_Jan_30_1059,spring_faces,3.1.5,60.04407967968752,
condition files/Stage1_1.xlsx,,T1,B1,c,"['c', 'm']","['Clue', 'Monopoly']","[-0.15, 0.5]","[0.15, 0.5]",1,1,,,,,,,,,0,4,4,4,0,6,6,0,,,,,,,,,,,,,,,,,,,,,,,,,,,,,,,,,,,,,,,,,,,,,,,,,,,,,,,661.3634323189999,None,661.3634323189999,None,661.3634323189999,None,m,0,0.8710982440006774,662.8970877229985,None,662.8970877229985,None,662.8970877229985,None,663.846722156999,None,663.846722156999,None,663.846722156999,None,663.846722156999,None,,,,,,,,,,,,,,,,,,,,,,,,,,,,,,,,,,,,,,,,,,,,001,32,2020_Jan_30_1059,spring_faces,3.1.5,60.04407967968752,
condition files/Stage1_1.xlsx,,B1,T2,c,"['c', 'm']","['Clue', 'Monopoly']","[-0.15, 0.5]","[0.15, 0.5]",1,1,,,,,,,,,0,4,4,4,0,7,7,1,,,,,,,,,,,,,,,,,,,,,,,,,,,,,,,,,,,,,,,,,,,,,,,,,,,,,,,665.7967951639985,None,665.7967951639985,None,665.7967951639985,None,c,1,1.573295121999763,667.346920091999,None,667.346920091999,None,667.346920091999,None,668.9804354600001,None,668.9804354600001,None,668.9804354600001,None,668.9804354600001,None,,,,,,,,,,,,,,,,,,,,,,,,,,,,,,,,,,,,,,,,,,,,001,32,2020_Jan_30_1059,spring_faces,3.1.5,60.04407967968752,
condition files/Stage1_2.xlsx,,T1,B2,m,"['c', 'm']","['Clue', 'Monopoly']","[-0.15, 0.5]","[0.15, 0.5]",1,1,,,,,,,,,0,5,5,5,0,0,0,2,,,,,,,,,,,,,,,,,,,,,,,,,,,,,,,,,,,,,,,,,,,,,,,,,,,,,,,670.9637520199994,None,670.9637520199994,None,670.9637520199994,None,m,1,1.4473030400004063,672.4968743289992,None,672.4968743289992,None,672.4968743289992,None,674.0131792819993,None,674.0131792819993,None,674.0131792819993,None,674.0131792819993,None,,,,,,,,,,,,,,,,,,,,,,,,,,,,,,,,,,,,,,,,,,,,001,32,2020_Jan_30_1059,spring_faces,3.1.5,60.04407967968752,
condition files/Stage1_2.xlsx,,B3,T4,m,"['c', 'm']","['Clue', 'Monopoly']","[-0.15, 0.5]","[0.15, 0.5]",1,1,,,,,,,,,0,5,5,5,0,1,1,6,,,,,,,,,,,,,,,,,,,,,,,,,,,,,,,,,,,,,,,,,,,,,,,,,,,,,,,675.9633745009996,None,675.9633745009996,None,675.9633745009996,None,m,1,0.9902335060014593,677.4979870009993,None,677.4979870009993,None,677.4979870009993,None,678.5469804639997,None,678.5469804639997,None,678.5469804639997,None,678.5469804639997,None,,,,,,,,,,,,,,,,,,,,,,,,,,,,,,,,,,,,,,,,,,,,001,32,2020_Jan_30_1059,spring_faces,3.1.5,60.04407967968752,
condition files/Stage1_2.xlsx,,T4,B4,m,"['c', 'm']","['Clue', 'Monopoly']","[-0.15, 0.5]","[0.15, 0.5]",1,1,,,,,,,,,0,5,5,5,0,2,2,7,,,,,,,,,,,,,,,,,,,,,,,,,,,,,,,,,,,,,,,,,,,,,,,,,,,,,,,680.5130227049995,None,680.5130227049995,None,680.5130227049995,None,c,0,3.8316527329989185,682.0484664799988,None,682.0484664799988,None,682.0484664799988,None,685.9301490599992,None,685.9301490599992,None,685.9301490599992,None,685.9301490599992,None,,,,,,,,,,,,,,,,,,,,,,,,,,,,,,,,,,,,,,,,,,,,001,32,2020_Jan_30_1059,spring_faces,3.1.5,60.04407967968752,
condition files/Stage1_2.xlsx,,T3,B3,c,"['c', 'm']","['Clue', 'Monopoly']","[-0.15, 0.5]","[0.15, 0.5]",1,1,,,,,,,,,0,5,5,5,0,3,3,4,,,,,,,,,,,,,,,,,,,,,,,,,,,,,,,,,,,,,,,,,,,,,,,,,,,,,,,687.896211583,None,687.896211583,None,687.896211583,None,c,1,0.7539813249986764,689.4301986209994,None,689.4301986209994,None,689.4301986209994,None,690.2486197599992,None,690.2486197599992,None,690.2486197599992,None,690.2486197599992,None,,,,,,,,,,,,,,,,,,,,,,,,,,,,,,,,,,,,,,,,,,,,001,32,2020_Jan_30_1059,spring_faces,3.1.5,60.04407967968752,
condition files/Stage1_2.xlsx,,B4,T3,c,"['c', 'm']","['Clue', 'Monopoly']","[-0.15, 0.5]","[0.15, 0.5]",1,1,,,,,,,,,0,5,5,5,0,4,4,5,,,,,,,,,,,,,,,,,,,,,,,,,,,,,,,,,,,,,,,,,,,,,,,,,,,,,,,692.2134012329989,None,692.2134012329989,None,692.2134012329989,None,c,1,0.8694889990001684,693.7466871050001,None,693.7466871050001,None,693.7466871050001,None,694.6798160879989,None,694.6798160879989,None,694.6798160879989,None,694.6798160879989,None,,,,,,,,,,,,,,,,,,,,,,,,,,,,,,,,,,,,,,,,,,,,001,32,2020_Jan_30_1059,spring_faces,3.1.5,60.04407967968752,
condition files/Stage1_2.xlsx,,B2,T2,m,"['c', 'm']","['Clue', 'Monopoly']","[-0.15, 0.5]","[0.15, 0.5]",1,1,,,,,,,,,0,5,5,5,0,5,5,3,,,,,,,,,,,,,,,,,,,,,,,,,,,,,,,,,,,,,,,,,,,,,,,,,,,,,,,696.6461869269988,None,696.6461869269988,None,696.6461869269988,None,m,1,0.9478532770008314,698.1803167599992,None,698.1803167599992,None,698.1803167599992,None,699.1965001799999,None,699.1965001799999,None,699.1965001799999,None,699.1965001799999,None,,,,,,,,,,,,,,,,,,,,,,,,,,,,,,,,,,,,,,,,,,,,001,32,2020_Jan_30_1059,spring_faces,3.1.5,60.04407967968752,
condition files/Stage1_2.xlsx,,T2,B1,c,"['c', 'm']","['Clue', 'Monopoly']","[-0.15, 0.5]","[0.15, 0.5]",1,1,,,,,,,,,0,5,5,5,0,6,6,1,,,,,,,,,,,,,,,,,,,,,,,,,,,,,,,,,,,,,,,,,,,,,,,,,,,,,,,701.1465337059999,None,701.1465337059999,None,701.1465337059999,None,c,1,1.1987616429996706,702.6814223879992,None,702.6814223879992,None,702.6814223879992,None,703.9964054809989,None,703.9964054809989,None,703.9964054809989,None,703.9964054809989,None,,,,,,,,,,,,,,,,,,,,,,,,,,,,,,,,,,,,,,,,,,,,001,32,2020_Jan_30_1059,spring_faces,3.1.5,60.04407967968752,
condition files/Stage1_2.xlsx,,B1,T1,c,"['c', 'm']","['Clue', 'Monopoly']","[-0.15, 0.5]","[0.15, 0.5]",1,1,,,,,,,,,0,5,5,5,0,7,7,0,,,,,,,,,,,,,,,,,,,,,,,,,,,,,,,,,,,,,,,,,,,,,,,,,,,,,,,705.8966340049992,None,705.8966340049992,None,705.8966340049992,None,m,0,1.9846292760012147,707.43154254,None,707.43154254,None,707.43154254,None,709.4797419079987,None,709.4797419079987,None,709.4797419079987,None,709.4797419079987,None,,,,,,,,,,,,,,,,,,,,,,,,,,,,,,,,,,,,,,,,,,,,001,32,2020_Jan_30_1059,spring_faces,3.1.5,60.04407967968752,
condition files/Stage1_1.xlsx,,T1,B1,c,"['c', 'm']","['Clue', 'Monopoly']","[-0.15, 0.5]","[0.15, 0.5]",1,1,,,,,,,,,0,6,6,6,0,0,0,0,,,,,,,,,,,,,,,,,,,,,,,,,,,,,,,,,,,,,,,,,,,,,,,,,,,,,,,711.4631533909997,None,711.4631533909997,None,711.4631533909997,None,m,0,1.106307227999423,713.0139097449992,None,713.0139097449992,None,713.0139097449992,None,714.1796407879992,None,714.1796407879992,None,714.1796407879992,None,714.1796407879992,None,,,,,,,,,,,,,,,,,,,,,,,,,,,,,,,,,,,,,,,,,,,,001,32,2020_Jan_30_1059,spring_faces,3.1.5,60.04407967968752,
condition files/Stage1_1.xlsx,,T4,B3,m,"['c', 'm']","['Clue', 'Monopoly']","[-0.15, 0.5]","[0.15, 0.5]",1,1,,,,,,,,,0,6,6,6,0,1,1,6,,,,,,,,,,,,,,,,,,,,,,,,,,,,,,,,,,,,,,,,,,,,,,,,,,,,,,,716.1466919769991,None,716.1466919769991,None,716.1466919769991,None,m,1,3.4302216840005713,717.6819475339998,None,717.6819475339998,None,717.6819475339998,None,721.1649507539987,None,721.1649507539987,None,721.1649507539987,None,721.1649507539987,None,,,,,,,,,,,,,,,,,,,,,,,,,,,,,,,,,,,,,,,,,,,,001,32,2020_Jan_30_1059,spring_faces,3.1.5,60.04407967968752,
condition files/Stage1_1.xlsx,,B1,T2,c,"['c', 'm']","['Clue', 'Monopoly']","[-0.15, 0.5]","[0.15, 0.5]",1,1,,,,,,,,,0,6,6,6,0,2,2,1,,,,,,,,,,,,,,,,,,,,,,,,,,,,,,,,,,,,,,,,,,,,,,,,,,,,,,,723.1301612589996,None,723.1301612589996,None,723.1301612589996,None,c,1,1.4405210300010367,724.6637142179989,None,724.6637142179989,None,724.6637142179989,None,726.166092943,None,726.166092943,None,726.166092943,None,726.166092943,None,,,,,,,,,,,,,,,,,,,,,,,,,,,,,,,,,,,,,,,,,,,,001,32,2020_Jan_30_1059,spring_faces,3.1.5,60.04407967968752,
condition files/Stage1_1.xlsx,,T3,B4,c,"['c', 'm']","['Clue', 'Monopoly']","[-0.15, 0.5]","[0.15, 0.5]",1,1,,,,,,,,,0,6,6,6,0,3,3,5,,,,,,,,,,,,,,,,,,,,,,,,,,,,,,,,,,,,,,,,,,,,,,,,,,,,,,,728.129858368,None,728.129858368,None,728.129858368,None,c,1,1.0163670100009767,729.6638089959997,None,729.6638089959997,None,729.6638089959997,None,730.7302319769988,None,730.7302319769988,None,730.7302319769988,None,730.7302319769988,None,,,,,,,,,,,,,,,,,,,,,,,,,,,,,,,,,,,,,,,,,,,,001,32,2020_Jan_30_1059,spring_faces,3.1.5,60.04407967968752,
condition files/Stage1_1.xlsx,,B4,T4,m,"['c', 'm']","['Clue', 'Monopoly']","[-0.15, 0.5]","[0.15, 0.5]",1,1,,,,,,,,,0,6,6,6,0,4,4,7,,,,,,,,,,,,,,,,,,,,,,,,,,,,,,,,,,,,,,,,,,,,,,,,,,,,,,,732.6971583759987,None,732.6971583759987,None,732.6971583759987,None,m,1,2.9125406419989304,734.2316250069998,None,734.2316250069998,None,734.2316250069998,None,737.2129621439999,None,737.2129621439999,None,737.2129621439999,None,737.2129621439999,None,,,,,,,,,,,,,,,,,,,,,,,,,,,,,,,,,,,,,,,,,,,,001,32,2020_Jan_30_1059,spring_faces,3.1.5,60.04407967968752,
condition files/Stage1_1.xlsx,,T2,B2,m,"['c', 'm']","['Clue', 'Monopoly']","[-0.15, 0.5]","[0.15, 0.5]",1,1,,,,,,,,,0,6,6,6,0,5,5,3,,,,,,,,,,,,,,,,,,,,,,,,,,,,,,,,,,,,,,,,,,,,,,,,,,,,,,,739.1633268939986,None,739.1633268939986,None,739.1633268939986,None,m,1,2.4934440329998324,740.6987490759984,None,740.6987490759984,None,740.6987490759984,None,743.2470189079995,None,743.2470189079995,None,743.2470189079995,None,743.2470189079995,None,,,,,,,,,,,,,,,,,,,,,,,,,,,,,,,,,,,,,,,,,,,,001,32,2020_Jan_30_1059,spring_faces,3.1.5,60.04407967968752,
condition files/Stage1_1.xlsx,,B3,T3,c,"['c', 'm']","['Clue', 'Monopoly']","[-0.15, 0.5]","[0.15, 0.5]",1,1,,,,,,,,,0,6,6,6,0,6,6,4,,,,,,,,,,,,,,,,,,,,,,,,,,,,,,,,,,,,,,,,,,,,,,,,,,,,,,,745.2128782799991,None,745.2128782799991,None,745.2128782799991,None,c,1,0.9721944680004526,746.7480416919989,None,746.7480416919989,None,746.7480416919989,None,747.780777685999,None,747.780777685999,None,747.780777685999,None,747.780777685999,None,,,,,,,,,,,,,,,,,,,,,,,,,,,,,,,,,,,,,,,,,,,,001,32,2020_Jan_30_1059,spring_faces,3.1.5,60.04407967968752,
condition files/Stage1_1.xlsx,,B2,T1,m,"['c', 'm']","['Clue', 'Monopoly']","[-0.15, 0.5]","[0.15, 0.5]",1,1,,,,,,,,,0,6,6,6,0,7,7,2,,,,,,,,,,,,,,,,,,,,,,,,,,,,,,,,,,,,,,,,,,,,,,,,,,,,,,,749.7467575679984,None,749.7467575679984,None,749.7467575679984,None,c,0,1.6882951730003697,751.2798871549985,None,751.2798871549985,None,751.2798871549985,None,753.0470923459998,None,753.0470923459998,None,753.0470923459998,None,753.0470923459998,None,,,,,,,,,,,,,,,,,,,,,,,,,,,,,,,,,,,,,,,,,,,,001,32,2020_Jan_30_1059,spring_faces,3.1.5,60.04407967968752,
condition files/Stage1_2.xlsx,,T3,B3,c,"['c', 'm']","['Clue', 'Monopoly']","[-0.15, 0.5]","[0.15, 0.5]",1,1,,,,,,,,,0,7,7,7,0,0,0,4,,,,,,,,,,,,,,,,,,,,,,,,,,,,,,,,,,,,,,,,,,,,,,,,,,,,,,,755.0136922149995,None,755.0136922149995,None,755.0136922149995,None,c,1,1.1257657269998163,756.5464645089996,None,756.5464645089996,None,756.5464645089996,None,757.7314105429996,None,757.7314105429996,None,757.7314105429996,None,757.7314105429996,None,,,,,,,,,,,,,,,,,,,,,,,,,,,,,,,,,,,,,,,,,,,,001,32,2020_Jan_30_1059,spring_faces,3.1.5,60.04407967968752,
condition files/Stage1_2.xlsx,,T2,B1,c,"['c', 'm']","['Clue', 'Monopoly']","[-0.15, 0.5]","[0.15, 0.5]",1,1,,,,,,,,,0,7,7,7,0,1,1,1,,,,,,,,,,,,,,,,,,,,,,,,,,,,,,,,,,,,,,,,,,,,,,,,,,,,,,,759.6959537029998,None,759.6959537029998,None,759.6959537029998,None,c,1,5.673868261999814,761.2463507679986,None,761.2463507679986,None,761.2463507679986,None,766.9802518659999,None,766.9802518659999,None,766.9802518659999,None,766.9802518659999,None,,,,,,,,,,,,,,,,,,,,,,,,,,,,,,,,,,,,,,,,,,,,001,32,2020_Jan_30_1059,spring_faces,3.1.5,60.04407967968752,
condition files/Stage1_2.xlsx,,B4,T3,c,"['c', 'm']","['Clue', 'Monopoly']","[-0.15, 0.5]","[0.15, 0.5]",1,1,,,,,,,,,0,7,7,7,0,2,2,5,,,,,,,,,,,,,,,,,,,,,,,,,,,,,,,,,,,,,,,,,,,,,,,,,,,,,,,768.9468166099996,None,768.9468166099996,None,768.9468166099996,None,c,1,2.504262110000127,770.4799063809987,None,770.4799063809987,None,770.4799063809987,None,773.0469690059999,None,773.0469690059999,None,773.0469690059999,None,773.0469690059999,None,,,,,,,,,,,,,,,,,,,,,,,,,,,,,,,,,,,,,,,,,,,,001,32,2020_Jan_30_1059,spring_faces,3.1.5,60.04407967968752,
condition files/Stage1_2.xlsx,,B3,T4,m,"['c', 'm']","['Clue', 'Monopoly']","[-0.15, 0.5]","[0.15, 0.5]",1,1,,,,,,,,,0,7,7,7,0,3,3,6,,,,,,,,,,,,,,,,,,,,,,,,,,,,,,,,,,,,,,,,,,,,,,,,,,,,,,,775.0133695189998,None,775.0133695189998,None,775.0133695189998,None,m,1,2.3564991650000593,776.5477387769988,None,776.5477387769988,None,776.5477387769988,None,778.9802971169993,None,778.9802971169993,None,778.9802971169993,None,778.9802971169993,None,,,,,,,,,,,,,,,,,,,,,,,,,,,,,,,,,,,,,,,,,,,,001,32,2020_Jan_30_1059,spring_faces,3.1.5,60.04407967968752,
condition files/Stage1_2.xlsx,,B1,T1,c,"['c', 'm']","['Clue', 'Monopoly']","[-0.15, 0.5]","[0.15, 0.5]",1,1,,,,,,,,,0,7,7,7,0,4,4,0,,,,,,,,,,,,,,,,,,,,,,,,,,,,,,,,,,,,,,,,,,,,,,,,,,,,,,,780.9301300520001,None,780.9301300520001,None,780.9301300520001,None,c,1,3.208290735999981,782.4639495319989,None,782.4639495319989,None,782.4639495319989,None,785.730878381999,None,785.730878381999,None,785.730878381999,None,785.730878381999,None,,,,,,,,,,,,,,,,,,,,,,,,,,,,,,,,,,,,,,,,,,,,001,32,2020_Jan_30_1059,spring_faces,3.1.5,60.04407967968752,
condition files/Stage1_2.xlsx,,T1,B2,m,"['c', 'm']","['Clue', 'Monopoly']","[-0.15, 0.5]","[0.15, 0.5]",1,1,,,,,,,,,0,7,7,7,0,5,5,2,,,,,,,,,,,,,,,,,,,,,,,,,,,,,,,,,,,,,,,,,,,,,,,,,,,,,,,787.6964032169999,None,787.6964032169999,None,787.6964032169999,None,m,1,0.920888897999248,789.2312823609991,None,789.2312823609991,None,789.2312823609991,None,790.2302958219989,None,790.2302958219989,None,790.2302958219989,None,790.2302958219989,None,,,,,,,,,,,,,,,,,,,,,,,,,,,,,,,,,,,,,,,,,,,,001,32,2020_Jan_30_1059,spring_faces,3.1.5,60.04407967968752,
condition files/Stage1_2.xlsx,,T4,B4,m,"['c', 'm']","['Clue', 'Monopoly']","[-0.15, 0.5]","[0.15, 0.5]",1,1,,,,,,,,,0,7,7,7,0,6,6,7,,,,,,,,,,,,,,,,,,,,,,,,,,,,,,,,,,,,,,,,,,,,,,,,,,,,,,,792.1800335520002,None,792.1800335520002,None,792.1800335520002,None,m,1,2.836961816999974,793.7151535249996,None,793.7151535249996,None,793.7151535249996,None,796.6138539259991,None,796.6138539259991,None,796.6138539259991,None,796.6138539259991,None,,,,,,,,,,,,,,,,,,,,,,,,,,,,,,,,,,,,,,,,,,,,001,32,2020_Jan_30_1059,spring_faces,3.1.5,60.04407967968752,
condition files/Stage1_2.xlsx,,B2,T2,m,"['c', 'm']","['Clue', 'Monopoly']","[-0.15, 0.5]","[0.15, 0.5]",1,1,,,,,,,,,0,7,7,7,0,7,7,3,,,,,,,,,,,,,,,,,,,,,,,,,,,,,,,,,,,,,,,,,,,,,,,,,,,,,,,798.5794244119988,None,798.5794244119988,None,798.5794244119988,None,c,0,2.1002975720002723,800.115825162,None,800.115825162,None,800.115825162,None,802.279562366999,None,802.279562366999,None,802.279562366999,None,802.279562366999,None,,,,,,,,,,,,,,,,,,,,,,,,,,,,,,,,,,,,,,,,,,,,001,32,2020_Jan_30_1059,spring_faces,3.1.5,60.04407967968752,
condition files/Stage1_1.xlsx,,T4,B3,m,"['c', 'm']","['Clue', 'Monopoly']","[-0.15, 0.5]","[0.15, 0.5]",1,1,,,,,,,,,0,8,8,8,0,0,0,6,,,,,,,,,,,,,,,,,,,,,,,,,,,,,,,,,,,,,,,,,,,,,,,,,,,,,,,804.263720469,None,804.263720469,None,804.263720469,None,m,1,1.2502922030016634,805.8138318370002,None,805.8138318370002,None,805.8138318370002,None,807.1301117289986,None,807.1301117289986,None,807.1301117289986,None,807.1301117289986,None,,,,,,,,,,,,,,,,,,,,,,,,,,,,,,,,,,,,,,,,,,,,001,32,2020_Jan_30_1059,spring_faces,3.1.5,60.04407967968752,
condition files/Stage1_1.xlsx,,T3,B4,c,"['c', 'm']","['Clue', 'Monopoly']","[-0.15, 0.5]","[0.15, 0.5]",1,1,,,,,,,,,0,8,8,8,0,1,1,5,,,,,,,,,,,,,,,,,,,,,,,,,,,,,,,,,,,,,,,,,,,,,,,,,,,,,,,809.0967869109991,None,809.0967869109991,None,809.0967869109991,None,c,1,0.7206239059996733,810.6315673989993,None,810.6315673989993,None,810.6315673989993,None,811.4301772359995,None,811.4301772359995,None,811.4301772359995,None,811.4301772359995,None,,,,,,,,,,,,,,,,,,,,,,,,,,,,,,,,,,,,,,,,,,,,001,32,2020_Jan_30_1059,spring_faces,3.1.5,60.04407967968752,
condition files/Stage1_1.xlsx,,B2,T1,m,"['c', 'm']","['Clue', 'Monopoly']","[-0.15, 0.5]","[0.15, 0.5]",1,1,,,,,,,,,0,8,8,8,0,2,2,2,,,,,,,,,,,,,,,,,,,,,,,,,,,,,,,,,,,,,,,,,,,,,,,,,,,,,,,813.3800722619999,None,813.3800722619999,None,813.3800722619999,None,c,0,1.5896666209991963,814.9305510019985,None,814.9305510019985,None,814.9305510019985,None,816.5827600149987,None,816.5827600149987,None,816.5827600149987,None,816.5827600149987,None,,,,,,,,,,,,,,,,,,,,,,,,,,,,,,,,,,,,,,,,,,,,001,32,2020_Jan_30_1059,spring_faces,3.1.5,60.04407967968752,
condition files/Stage1_1.xlsx,,T1,B1,c,"['c', 'm']","['Clue', 'Monopoly']","[-0.15, 0.5]","[0.15, 0.5]",1,1,,,,,,,,,0,8,8,8,0,3,3,0,,,,,,,,,,,,,,,,,,,,,,,,,,,,,,,,,,,,,,,,,,,,,,,,,,,,,,,818.5468215679994,None,818.5468215679994,None,818.5468215679994,None,m,0,2.2795631120006874,820.0806184009998,None,820.0806184009998,None,820.0806184009998,None,822.4149400749993,None,822.4149400749993,None,822.4149400749993,None,822.4149400749993,None,,,,,,,,,,,,,,,,,,,,,,,,,,,,,,,,,,,,,,,,,,,,001,32,2020_Jan_30_1059,spring_faces,3.1.5,60.04407967968752,
condition files/Stage1_1.xlsx,,T2,B2,m,"['c', 'm']","['Clue', 'Monopoly']","[-0.15, 0.5]","[0.15, 0.5]",1,1,,,,,,,,,0,8,8,8,0,4,4,3,,,,,,,,,,,,,,,,,,,,,,,,,,,,,,,,,,,,,,,,,,,,,,,,,,,,,,,824.3803325379995,None,824.3803325379995,None,824.3803325379995,None,c,0,2.349804921001123,825.9303554170001,None,825.9303554170001,None,825.9303554170001,None,828.3469841189999,None,828.3469841189999,None,828.3469841189999,None,828.3469841189999,None,,,,,,,,,,,,,,,,,,,,,,,,,,,,,,,,,,,,,,,,,,,,001,32,2020_Jan_30_1059,spring_faces,3.1.5,60.04407967968752,
condition files/Stage1_1.xlsx,,B3,T3,c,"['c', 'm']","['Clue', 'Monopoly']","[-0.15, 0.5]","[0.15, 0.5]",1,1,,,,,,,,,0,8,8,8,0,5,5,4,,,,,,,,,,,,,,,,,,,,,,,,,,,,,,,,,,,,,,,,,,,,,,,,,,,,,,,830.297256247999,None,830.297256247999,None,830.297256247999,None,c,1,0.6576228750000155,831.8306165409995,None,831.8306165409995,None,831.8306165409995,None,832.5495454569991,None,832.5495454569991,None,832.5495454569991,None,832.5495454569991,None,,,,,,,,,,,,,,,,,,,,,,,,,,,,,,,,,,,,,,,,,,,,001,32,2020_Jan_30_1059,spring_faces,3.1.5,60.04407967968752,
condition files/Stage1_1.xlsx,,B4,T4,m,"['c', 'm']","['Clue', 'Monopoly']","[-0.15, 0.5]","[0.15, 0.5]",1,1,,,,,,,,,0,8,8,8,0,6,6,7,,,,,,,,,,,,,,,,,,,,,,,,,,,,,,,,,,,,,,,,,,,,,,,,,,,,,,,834.5131511159998,None,834.5131511159998,None,834.5131511159998,None,m,1,0.825039833000119,836.0471967199992,None,836.0471967199992,None,836.0471967199992,None,836.9471226019996,None,836.9471226019996,None,836.9471226019996,None,836.9471226019996,None,,,,,,,,,,,,,,,,,,,,,,,,,,,,,,,,,,,,,,,,,,,,001,32,2020_Jan_30_1059,spring_faces,3.1.5,60.04407967968752,
condition files/Stage1_1.xlsx,,B1,T2,c,"['c', 'm']","['Clue', 'Monopoly']","[-0.15, 0.5]","[0.15, 0.5]",1,1,,,,,,,,,0,8,8,8,0,7,7,1,,,,,,,,,,,,,,,,,,,,,,,,,,,,,,,,,,,,,,,,,,,,,,,,,,,,,,,838.8962920189988,None,838.8962920189988,None,838.8962920189988,None,c,1,2.3292154080008913,840.4469467759991,None,840.4469467759991,None,840.4469467759991,None,842.8320239299992,None,842.8320239299992,None,842.8320239299992,None,842.8320239299992,None,,,,,,,,,,,,,,,,,,,,,,,,,,,,,,,,,,,,,,,,,,,,001,32,2020_Jan_30_1059,spring_faces,3.1.5,60.04407967968752,
condition files/Stage1_2.xlsx,,B1,T1,c,"['c', 'm']","['Clue', 'Monopoly']","[-0.15, 0.5]","[0.15, 0.5]",1,1,,,,,,,,,0,9,9,9,0,0,0,0,,,,,,,,,,,,,,,,,,,,,,,,,,,,,,,,,,,,,,,,,,,,,,,,,,,,,,,844.8135987699989,None,844.8135987699989,None,844.8135987699989,None,c,1,2.2529436980003084,846.3632293760002,None,846.3632293760002,None,846.3632293760002,None,848.6804364009986,None,848.6804364009986,None,848.6804364009986,None,848.6804364009986,None,,,,,,,,,,,,,,,,,,,,,,,,,,,,,,,,,,,,,,,,,,,,001,32,2020_Jan_30_1059,spring_faces,3.1.5,60.04407967968752,
condition files/Stage1_2.xlsx,,B4,T3,c,"['c', 'm']","['Clue', 'Monopoly']","[-0.15, 0.5]","[0.15, 0.5]",1,1,,,,,,,,,0,9,9,9,0,1,1,5,,,,,,,,,,,,,,,,,,,,,,,,,,,,,,,,,,,,,,,,,,,,,,,,,,,,,,,850.6464905510002,None,850.6464905510002,None,850.6464905510002,None,c,1,1.043257604000246,852.196945018999,None,852.196945018999,None,852.196945018999,None,853.2971947759997,None,853.2971947759997,None,853.2971947759997,None,853.2971947759997,None,,,,,,,,,,,,,,,,,,,,,,,,,,,,,,,,,,,,,,,,,,,,001,32,2020_Jan_30_1059,spring_faces,3.1.5,60.04407967968752,
condition files/Stage1_2.xlsx,,B2,T2,m,"['c', 'm']","['Clue', 'Monopoly']","[-0.15, 0.5]","[0.15, 0.5]",1,1,,,,,,,,,0,9,9,9,0,2,2,3,,,,,,,,,,,,,,,,,,,,,,,,,,,,,,,,,,,,,,,,,,,,,,,,,,,,,,,855.2628030959986,None,855.2628030959986,None,855.2628030959986,None,c,0,7.8182382350005355,856.7979459609996,None,856.7979459609996,None,856.7979459609996,None,864.6962772119987,None,864.6962772119987,None,864.6962772119987,None,864.6962772119987,None,,,,,,,,,,,,,,,,,,,,,,,,,,,,,,,,,,,,,,,,,,,,001,32,2020_Jan_30_1059,spring_faces,3.1.5,60.04407967968752,
condition files/Stage1_2.xlsx,,T2,B1,c,"['c', 'm']","['Clue', 'Monopoly']","[-0.15, 0.5]","[0.15, 0.5]",1,1,,,,,,,,,0,9,9,9,0,3,3,1,,,,,,,,,,,,,,,,,,,,,,,,,,,,,,,,,,,,,,,,,,,,,,,,,,,,,,,866.646670827,None,866.646670827,None,866.646670827,None,m,0,2.6278332080000837,868.1803118469998,None,868.1803118469998,None,868.1803118469998,None,870.8804984580001,None,870.8804984580001,None,870.8804984580001,None,870.8804984580001,None,,,,,,,,,,,,,,,,,,,,,,,,,,,,,,,,,,,,,,,,,,,,001,32,2020_Jan_30_1059,spring_faces,3.1.5,60.04407967968752,
condition files/Stage1_2.xlsx,,T1,B2,m,"['c', 'm']","['Clue', 'Monopoly']","[-0.15, 0.5]","[0.15, 0.5]",1,1,,,,,,,,,0,9,9,9,0,4,4,2,,,,,,,,,,,,,,,,,,,,,,,,,,,,,,,,,,,,,,,,,,,,,,,,,,,,,,,872.8297204959999,None,872.8297204959999,None,872.8297204959999,None,m,1,2.3169259179994697,874.3632498829993,None,874.3632498829993,None,874.3632498829993,None,876.731425173999,None,876.731425173999,None,876.731425173999,None,876.731425173999,None,,,,,,,,,,,,,,,,,,,,,,,,,,,,,,,,,,,,,,,,,,,,001,32,2020_Jan_30_1059,spring_faces,3.1.5,60.04407967968752,
condition files/Stage1_2.xlsx,,T3,B3,c,"['c', 'm']","['Clue', 'Monopoly']","[-0.15, 0.5]","[0.15, 0.5]",1,1,,,,,,,,,0,9,9,9,0,5,5,4,,,,,,,,,,,,,,,,,,,,,,,,,,,,,,,,,,,,,,,,,,,,,,,,,,,,,,,878.6961293859986,None,878.6961293859986,None,878.6961293859986,None,c,1,0.8487579680004274,880.2314250939999,None,880.2314250939999,None,880.2314250939999,None,881.1312862279992,None,881.1312862279992,None,881.1312862279992,None,881.1312862279992,None,,,,,,,,,,,,,,,,,,,,,,,,,,,,,,,,,,,,,,,,,,,,001,32,2020_Jan_30_1059,spring_faces,3.1.5,60.04407967968752,
condition files/Stage1_2.xlsx,,T4,B4,m,"['c', 'm']","['Clue', 'Monopoly']","[-0.15, 0.5]","[0.15, 0.5]",1,1,,,,,,,,,0,9,9,9,0,6,6,7,,,,,,,,,,,,,,,,,,,,,,,,,,,,,,,,,,,,,,,,,,,,,,,,,,,,,,,883.0964772409989,None,883.0964772409989,None,883.0964772409989,None,m,1,9.665953593999802,884.6302197709992,None,884.6302197709992,None,884.6302197709992,None,894.3635875759992,None,894.3635875759992,None,894.3635875759992,None,894.3635875759992,None,,,,,,,,,,,,,,,,,,,,,,,,,,,,,,,,,,,,,,,,,,,,001,32,2020_Jan_30_1059,spring_faces,3.1.5,60.04407967968752,
condition files/Stage1_2.xlsx,,B3,T4,m,"['c', 'm']","['Clue', 'Monopoly']","[-0.15, 0.5]","[0.15, 0.5]",1,1,,,,,,,,,0,9,9,9,0,7,7,6,,,,,,,,,,,,,,,,,,,,,,,,,,,,,,,,,,,,,,,,,,,,,,,,,,,,,,,896.313341613999,None,896.313341613999,None,896.313341613999,None,c,0,1.7770898899998429,897.8471664929984,None,897.8471664929984,None,897.8471664929984,None,899.6797385249993,None,899.6797385249993,None,899.6797385249993,None,899.6797385249993,None,,,,,,,,,,,,,,,,,,,,,,,,,,,,,,,,,,,,,,,,,,,,001,32,2020_Jan_30_1059,spring_faces,3.1.5,60.04407967968752,
condition files/Stage1_1.xlsx,,B1,T2,c,"['c', 'm']","['Clue', 'Monopoly']","[-0.15, 0.5]","[0.15, 0.5]",1,1,,,,,,,,,0,10,10,10,0,0,0,1,,,,,,,,,,,,,,,,,,,,,,,,,,,,,,,,,,,,,,,,,,,,,,,,,,,,,,,901.6634373689994,None,901.6634373689994,None,901.6634373689994,None,c,1,1.5622481379996316,903.2138832459987,None,903.2138832459987,None,903.2138832459987,None,904.8464237009994,None,904.8464237009994,None,904.8464237009994,None,904.8464237009994,None,,,,,,,,,,,,,,,,,,,,,,,,,,,,,,,,,,,,,,,,,,,,001,32,2020_Jan_30_1059,spring_faces,3.1.5,60.04407967968752,
condition files/Stage1_1.xlsx,,T2,B2,m,"['c', 'm']","['Clue', 'Monopoly']","[-0.15, 0.5]","[0.15, 0.5]",1,1,,,,,,,,,0,10,10,10,0,1,1,3,,,,,,,,,,,,,,,,,,,,,,,,,,,,,,,,,,,,,,,,,,,,,,,,,,,,,,,906.7967359249997,None,906.7967359249997,None,906.7967359249997,None,m,1,0.843600616999538,908.3325810309998,None,908.3325810309998,None,908.3325810309998,None,909.2463512409995,None,909.2463512409995,None,909.2463512409995,None,909.2463512409995,None,,,,,,,,,,,,,,,,,,,,,,,,,,,,,,,,,,,,,,,,,,,,001,32,2020_Jan_30_1059,spring_faces,3.1.5,60.04407967968752,
condition files/Stage1_1.xlsx,,B2,T1,m,"['c', 'm']","['Clue', 'Monopoly']","[-0.15, 0.5]","[0.15, 0.5]",1,1,,,,,,,,,0,10,10,10,0,2,2,2,,,,,,,,,,,,,,,,,,,,,,,,,,,,,,,,,,,,,,,,,,,,,,,,,,,,,,,911.1967162659985,None,911.1967162659985,None,911.1967162659985,None,m,1,3.261173040998983,912.7469687309986,None,912.7469687309986,None,912.7469687309986,None,916.0635687479989,None,916.0635687479989,None,916.0635687479989,None,916.0635687479989,None,,,,,,,,,,,,,,,,,,,,,,,,,,,,,,,,,,,,,,,,,,,,001,32,2020_Jan_30_1059,spring_faces,3.1.5,60.04407967968752,
condition files/Stage1_1.xlsx,,T1,B1,c,"['c', 'm']","['Clue', 'Monopoly']","[-0.15, 0.5]","[0.15, 0.5]",1,1,,,,,,,,,0,10,10,10,0,3,3,0,,,,,,,,,,,,,,,,,,,,,,,,,,,,,,,,,,,,,,,,,,,,,,,,,,,,,,,918.0301109289994,None,918.0301109289994,None,918.0301109289994,None,c,1,1.70841008699972,919.5638398259998,None,919.5638398259998,None,919.5638398259998,None,921.331629631999,None,921.331629631999,None,921.331629631999,None,921.331629631999,None,,,,,,,,,,,,,,,,,,,,,,,,,,,,,,,,,,,,,,,,,,,,001,32,2020_Jan_30_1059,spring_faces,3.1.5,60.04407967968752,
condition files/Stage1_1.xlsx,,B4,T4,m,"['c', 'm']","['Clue', 'Monopoly']","[-0.15, 0.5]","[0.15, 0.5]",1,1,,,,,,,,,0,10,10,10,0,4,4,7,,,,,,,,,,,,,,,,,,,,,,,,,,,,,,,,,,,,,,,,,,,,,,,,,,,,,,,923.2965659999991,None,923.2965659999991,None,923.2965659999991,None,m,1,2.5866766939998342,924.8294894760002,None,924.8294894760002,None,924.8294894760002,None,927.497086338999,None,927.497086338999,None,927.497086338999,None,927.497086338999,None,,,,,,,,,,,,,,,,,,,,,,,,,,,,,,,,,,,,,,,,,,,,001,32,2020_Jan_30_1059,spring_faces,3.1.5,60.04407967968752,
condition files/Stage1_1.xlsx,,T3,B4,c,"['c', 'm']","['Clue', 'Monopoly']","[-0.15, 0.5]","[0.15, 0.5]",1,1,,,,,,,,,0,10,10,10,0,5,5,5,,,,,,,,,,,,,,,,,,,,,,,,,,,,,,,,,,,,,,,,,,,,,,,,,,,,,,,929.4467410489997,None,929.4467410489997,None,929.4467410489997,None,c,1,1.059939007000139,930.9802683950002,None,930.9802683950002,None,930.9802683950002,None,932.0980494139985,None,932.0980494139985,None,932.0980494139985,None,932.0980494139985,None,,,,,,,,,,,,,,,,,,,,,,,,,,,,,,,,,,,,,,,,,,,,001,32,2020_Jan_30_1059,spring_faces,3.1.5,60.04407967968752,
condition files/Stage1_1.xlsx,,B3,T3,c,"['c', 'm']","['Clue', 'Monopoly']","[-0.15, 0.5]","[0.15, 0.5]",1,1,,,,,,,,,0,10,10,10,0,6,6,4,,,,,,,,,,,,,,,,,,,,,,,,,,,,,,,,,,,,,,,,,,,,,,,,,,,,,,,934.0631762789999,None,934.0631762789999,None,934.0631762789999,None,c,1,0.7315154299994902,935.5966670950002,None,935.5966670950002,None,935.5966670950002,None,936.3802000539999,None,936.3802000539999,None,936.3802000539999,None,936.3802000539999,None,,,,,,,,,,,,,,,,,,,,,,,,,,,,,,,,,,,,,,,,,,,,001,32,2020_Jan_30_1059,spring_faces,3.1.5,60.04407967968752,
condition files/Stage1_1.xlsx,,T4,B3,m,"['c', 'm']","['Clue', 'Monopoly']","[-0.15, 0.5]","[0.15, 0.5]",1,1,,,,,,,,,0,10,10,10,0,7,7,6,,,,,,,,,,,,,,,,,,,,,,,,,,,,,,,,,,,,,,,,,,,,,,,,,,,,,,,938.3464705089991,None,938.3464705089991,None,938.3464705089991,None,c,0,1.4557153410005412,939.8804633869986,None,939.8804633869986,None,939.8804633869986,None,941.3974866199987,None,941.3974866199987,None,941.3974866199987,None,941.3974866199987,None,,,,,,,,,,,,,,,,,,,,,,,,,,,,,,,,,,,,,,,,,,,,001,32,2020_Jan_30_1059,spring_faces,3.1.5,60.04407967968752,
condition files/Stage1_2.xlsx,,T2,B1,c,"['c', 'm']","['Clue', 'Monopoly']","[-0.15, 0.5]","[0.15, 0.5]",1,1,,,,,,,,,0,11,11,11,0,0,0,1,,,,,,,,,,,,,,,,,,,,,,,,,,,,,,,,,,,,,,,,,,,,,,,,,,,,,,,943.38031993,None,943.38031993,None,943.38031993,None,m,0,1.6525555759999406,944.9156244259993,None,944.9156244259993,None,944.9156244259993,None,946.6467491949988,None,946.6467491949988,None,946.6467491949988,None,946.6467491949988,None,,,,,,,,,,,,,,,,,,,,,,,,,,,,,,,,,,,,,,,,,,,,001,32,2020_Jan_30_1059,spring_faces,3.1.5,60.04407967968752,
condition files/Stage1_2.xlsx,,B4,T3,c,"['c', 'm']","['Clue', 'Monopoly']","[-0.15, 0.5]","[0.15, 0.5]",1,1,,,,,,,,,0,11,11,11,0,1,1,5,,,,,,,,,,,,,,,,,,,,,,,,,,,,,,,,,,,,,,,,,,,,,,,,,,,,,,,948.5962681789988,None,948.5962681789988,None,948.5962681789988,None,c,1,0.6939298329998564,950.1303566099996,None,950.1303566099996,None,950.1303566099996,None,950.8803108619995,None,950.8803108619995,None,950.8803108619995,None,950.8803108619995,None,,,,,,,,,,,,,,,,,,,,,,,,,,,,,,,,,,,,,,,,,,,,001,32,2020_Jan_30_1059,spring_faces,3.1.5,60.04407967968752,
condition files/Stage1_2.xlsx,,B2,T2,m,"['c', 'm']","['Clue', 'Monopoly']","[-0.15, 0.5]","[0.15, 0.5]",1,1,,,,,,,,,0,11,11,11,0,2,2,3,,,,,,,,,,,,,,,,,,,,,,,,,,,,,,,,,,,,,,,,,,,,,,,,,,,,,,,952.846050533999,None,952.846050533999,None,952.846050533999,None,m,1,3.595270996000181,954.3808551849997,None,954.3808551849997,None,954.3808551849997,None,958.0327549679987,None,958.0327549679987,None,958.0327549679987,None,958.0327549679987,None,,,,,,,,,,,,,,,,,,,,,,,,,,,,,,,,,,,,,,,,,,,,001,32,2020_Jan_30_1059,spring_faces,3.1.5,60.04407967968752,
condition files/Stage1_2.xlsx,,B3,T4,m,"['c', 'm']","['Clue', 'Monopoly']","[-0.15, 0.5]","[0.15, 0.5]",1,1,,,,,,,,,0,11,11,11,0,3,3,6,,,,,,,,,,,,,,,,,,,,,,,,,,,,,,,,,,,,,,,,,,,,,,,,,,,,,,,959.9968460689997,None,959.9968460689997,None,959.9968460689997,None,m,1,1.6278233929988346,961.5323245319996,None,961.5323245319996,None,961.5323245319996,None,963.213127256,None,963.213127256,None,963.213127256,None,963.213127256,None,,,,,,,,,,,,,,,,,,,,,,,,,,,,,,,,,,,,,,,,,,,,001,32,2020_Jan_30_1059,spring_faces,3.1.5,60.04407967968752,
condition files/Stage1_2.xlsx,,T1,B2,m,"['c', 'm']","['Clue', 'Monopoly']","[-0.15, 0.5]","[0.15, 0.5]",1,1,,,,,,,,,0,11,11,11,0,4,4,2,,,,,,,,,,,,,,,,,,,,,,,,,,,,,,,,,,,,,,,,,,,,,,,,,,,,,,,965.1802165959998,None,965.1802165959998,None,965.1802165959998,None,c,0,1.1498466609991738,966.714284103,None,966.714284103,None,966.714284103,None,967.9298333799998,None,967.9298333799998,None,967.9298333799998,None,967.9298333799998,None,,,,,,,,,,,,,,,,,,,,,,,,,,,,,,,,,,,,,,,,,,,,001,32,2020_Jan_30_1059,spring_faces,3.1.5,60.04407967968752,
condition files/Stage1_2.xlsx,,B1,T1,c,"['c', 'm']","['Clue', 'Monopoly']","[-0.15, 0.5]","[0.15, 0.5]",1,1,,,,,,,,,0,11,11,11,0,5,5,0,,,,,,,,,,,,,,,,,,,,,,,,,,,,,,,,,,,,,,,,,,,,,,,,,,,,,,,969.8971955899997,None,969.8971955899997,None,969.8971955899997,None,c,1,7.00993641399873,971.4303098809996,None,971.4303098809996,None,971.4303098809996,None,978.4990251539984,None,978.4990251539984,None,978.4990251539984,None,978.4990251539984,None,,,,,,,,,,,,,,,,,,,,,,,,,,,,,,,,,,,,,,,,,,,,001,32,2020_Jan_30_1059,spring_faces,3.1.5,60.04407967968752,
condition files/Stage1_2.xlsx,,T3,B3,c,"['c', 'm']","['Clue', 'Monopoly']","[-0.15, 0.5]","[0.15, 0.5]",1,1,,,,,,,,,0,11,11,11,0,6,6,4,,,,,,,,,,,,,,,,,,,,,,,,,,,,,,,,,,,,,,,,,,,,,,,,,,,,,,,980.463272727,None,980.463272727,None,980.463272727,None,c,1,0.666031163000298,981.9981146239988,None,981.9981146239988,None,981.9981146239988,None,982.7304027350001,None,982.7304027350001,None,982.7304027350001,None,982.7304027350001,None,,,,,,,,,,,,,,,,,,,,,,,,,,,,,,,,,,,,,,,,,,,,001,32,2020_Jan_30_1059,spring_faces,3.1.5,60.04407967968752,
condition files/Stage1_2.xlsx,,T4,B4,m,"['c', 'm']","['Clue', 'Monopoly']","[-0.15, 0.5]","[0.15, 0.5]",1,1,,,,,,,,,0,11,11,11,0,7,7,7,,,,,,,,,,,,,,,,,,,,,,,,,,,,,,,,,,,,,,,,,,,,,,,,,,,,,,,984.6967580919991,None,984.6967580919991,None,984.6967580919991,None,m,1,0.960651286999564,986.231519727,None,986.231519727,None,986.231519727,None,987.263191262,None,987.263191262,None,987.263191262,None,987.263191262,None,,,,,,,,,,,,,,,,,,,,,,,,,,,,,,,,,,,,,,,,,,,,001,32,2020_Jan_30_1059,spring_faces,3.1.5,60.04407967968752,
,,,,,,,,,,,,,,,,,,,,,,,,,,,,,,,,,,,,,,,,,,,,,,,,,,,,,,,,,,,,,,,,,,,,,,,,,,,,,,,,,,,,,,,,,,,,,,,,,,,,,,,,,,,,,,,,989.230364822999,None,space,12.690076818000307,994.2301699949985,None,,,,,,,,,,,,,,,,,,,,,,,,,,,,,,001,32,2020_Jan_30_1059,spring_faces,3.1.5,60.04407967968752,
condition files/Stage2_1.xlsx,,T1,B1,s,"['s', 'r']","['Stratego', 'Risk']","[-0.15, 0.5]","[0.15, 0.5]",1,1,,,,,,,,,,,,,,,,,0,0,0,0,0,0,0,2,,,,,,,,,,,,,,,,,,,,,,,,,,,,,,,,,,,,,,,,,,,,,,,1007.0300706609996,None,1007.0300706609996,None,1007.0300706609996,None,s,1,1.1732978370000637,1008.4989505199992,None,1008.4989505199992,None,1008.4989505199992,None,1009.732880603,None,1009.732880603,None,1009.732880603,None,1009.732880603,None,,,,,,,,,,,,,,,994.2301699949985,None,,,,,,,,,,,,,,,,,,,,,,,,,,,,001,32,2020_Jan_30_1059,spring_faces,3.1.5,60.04407967968752,
condition files/Stage2_1.xlsx,,B4,T4,r,"['s', 'r']","['Stratego', 'Risk']","[-0.15, 0.5]","[0.15, 0.5]",1,1,,,,,,,,,,,,,,,,,0,0,0,0,0,1,1,5,,,,,,,,,,,,,,,,,,,,,,,,,,,,,,,,,,,,,,,,,,,,,,,1011.6967844659994,None,1011.6967844659994,None,1011.6967844659994,None,r,1,0.9379272799997125,1013.2302580129999,None,1013.2302580129999,None,1013.2302580129999,None,1014.2303602569991,None,1014.2303602569991,None,1014.2303602569991,None,1014.2303602569991,None,,,,,,,,,,,,,,,,,,,,,,,,,,,,,,,,,,,,,,,,,,,,001,32,2020_Jan_30_1059,spring_faces,3.1.5,60.04407967968752,
condition files/Stage2_1.xlsx,,T5,B5,s,"['s', 'r']","['Stratego', 'Risk']","[-0.15, 0.5]","[0.15, 0.5]",1,1,,,,,,,,,,,,,,,,,0,0,0,0,0,2,2,0,,,,,,,,,,,,,,,,,,,,,,,,,,,,,,,,,,,,,,,,,,,,,,,1016.1966925859997,None,1016.1966925859997,None,1016.1966925859997,None,r,0,1.1875837900006445,1017.7966035849986,None,1017.7966035849986,None,1017.7966035849986,None,1019.0636514559992,None,1019.0636514559992,None,1019.0636514559992,None,1019.0636514559992,None,,,,,,,,,,,,,,,,,,,,,,,,,,,,,,,,,,,,,,,,,,,,001,32,2020_Jan_30_1059,spring_faces,3.1.5,60.04407967968752,
condition files/Stage2_1.xlsx,,B6,T6,r,"['s', 'r']","['Stratego', 'Risk']","[-0.15, 0.5]","[0.15, 0.5]",1,1,,,,,,,,,,,,,,,,,0,0,0,0,0,3,3,1,,,,,,,,,,,,,,,,,,,,,,,,,,,,,,,,,,,,,,,,,,,,,,,1021.0133692949985,None,1021.0133692949985,None,1021.0133692949985,None,r,1,0.9930262950001634,1022.6151405509991,None,1022.6151405509991,None,1022.6151405509991,None,1023.6802358659988,None,1023.6802358659988,None,1023.6802358659988,None,1023.6802358659988,None,,,,,,,,,,,,,,,,,,,,,,,,,,,,,,,,,,,,,,,,,,,,001,32,2020_Jan_30_1059,spring_faces,3.1.5,60.04407967968752,
condition files/Stage2_1.xlsx,,T3,B3,s,"['s', 'r']","['Stratego', 'Risk']","[-0.15, 0.5]","[0.15, 0.5]",1,1,,,,,,,,,,,,,,,,,0,0,0,0,0,4,4,4,,,,,,,,,,,,,,,,,,,,,,,,,,,,,,,,,,,,,,,,,,,,,,,1025.629676646,None,1025.629676646,None,1025.629676646,None,s,1,0.9406538900002488,1027.163584643,None,1027.163584643,None,1027.163584643,None,1028.1651872589991,None,1028.1651872589991,None,1028.1651872589991,None,1028.1651872589991,None,,,,,,,,,,,,,,,,,,,,,,,,,,,,,,,,,,,,,,,,,,,,001,32,2020_Jan_30_1059,spring_faces,3.1.5,60.04407967968752,
condition files/Stage2_1.xlsx,,B2,T2,r,"['s', 'r']","['Stratego', 'Risk']","[-0.15, 0.5]","[0.15, 0.5]",1,1,,,,,,,,,,,,,,,,,0,0,0,0,0,5,5,3,,,,,,,,,,,,,,,,,,,,,,,,,,,,,,,,,,,,,,,,,,,,,,,1030.1297996879985,None,1030.1297996879985,None,1030.1297996879985,None,r,1,0.8703953309995995,1031.6657829399992,None,1031.6657829399992,None,1031.6657829399992,None,1032.5990493829995,None,1032.5990493829995,None,1032.5990493829995,None,1032.5990493829995,None,,,,,,,,,,,,,,,,,,,,,,,,,,,,,,,,,,,,,,,,,,,,001,32,2020_Jan_30_1059,spring_faces,3.1.5,60.04407967968752,
condition files/Stage2_2.xlsx,,T4,B4,r,"['s', 'r']","['Stratego', 'Risk']","[-0.15, 0.5]","[0.15, 0.5]",1,1,,,,,,,,,,,,,,,,,0,1,1,1,0,0,0,5,,,,,,,,,,,,,,,,,,,,,,,,,,,,,,,,,,,,,,,,,,,,,,,1034.6305210519986,None,1034.6305210519986,None,1034.6305210519986,None,s,0,1.8778549769995152,1036.1302894709988,None,1036.1302894709988,None,1036.1302894709988,None,1038.063496285,None,1038.063496285,None,1038.063496285,None,1038.063496285,None,,,,,,,,,,,,,,,,,,,,,,,,,,,,,,,,,,,,,,,,,,,,001,32,2020_Jan_30_1059,spring_faces,3.1.5,60.04407967968752,
condition files/Stage2_2.xlsx,,T2,B2,r,"['s', 'r']","['Stratego', 'Risk']","[-0.15, 0.5]","[0.15, 0.5]",1,1,,,,,,,,,,,,,,,,,0,1,1,1,0,1,1,3,,,,,,,,,,,,,,,,,,,,,,,,,,,,,,,,,,,,,,,,,,,,,,,1040.0300930039994,None,1040.0300930039994,None,1040.0300930039994,None,s,0,0.9066222879991983,1041.565614236999,None,1041.565614236999,None,1041.565614236999,None,1042.5307201349988,None,1042.5307201349988,None,1042.5307201349988,None,1042.5307201349988,None,,,,,,,,,,,,,,,,,,,,,,,,,,,,,,,,,,,,,,,,,,,,001,32,2020_Jan_30_1059,spring_faces,3.1.5,60.04407967968752,
condition files/Stage2_2.xlsx,,B1,T1,s,"['s', 'r']","['Stratego', 'Risk']","[-0.15, 0.5]","[0.15, 0.5]",1,1,,,,,,,,,,,,,,,,,0,1,1,1,0,2,2,2,,,,,,,,,,,,,,,,,,,,,,,,,,,,,,,,,,,,,,,,,,,,,,,1044.4965392859995,None,1044.4965392859995,None,1044.4965392859995,None,s,1,1.4496907039992948,1046.0304881129996,None,1046.0304881129996,None,1046.0304881129996,None,1047.5326914259986,None,1047.5326914259986,None,1047.5326914259986,None,1047.5326914259986,None,,,,,,,,,,,,,,,,,,,,,,,,,,,,,,,,,,,,,,,,,,,,001,32,2020_Jan_30_1059,spring_faces,3.1.5,60.04407967968752,
condition files/Stage2_2.xlsx,,B3,T3,s,"['s', 'r']","['Stratego', 'Risk']","[-0.15, 0.5]","[0.15, 0.5]",1,1,,,,,,,,,,,,,,,,,0,1,1,1,0,3,3,4,,,,,,,,,,,,,,,,,,,,,,,,,,,,,,,,,,,,,,,,,,,,,,,1049.4964124959988,None,1049.4964124959988,None,1049.4964124959988,None,r,0,1.7146212070001638,1051.029536996999,None,1051.029536996999,None,1051.029536996999,None,1052.796859778,None,1052.796859778,None,1052.796859778,None,1052.796859778,None,,,,,,,,,,,,,,,,,,,,,,,,,,,,,,,,,,,,,,,,,,,,001,32,2020_Jan_30_1059,spring_faces,3.1.5,60.04407967968752,
condition files/Stage2_2.xlsx,,T6,B6,r,"['s', 'r']","['Stratego', 'Risk']","[-0.15, 0.5]","[0.15, 0.5]",1,1,,,,,,,,,,,,,,,,,0,1,1,1,0,4,4,1,,,,,,,,,,,,,,,,,,,,,,,,,,,,,,,,,,,,,,,,,,,,,,,1054.7633086999995,None,1054.7633086999995,None,1054.7633086999995,None,s,0,2.2389335139996547,1056.297300447999,None,1056.297300447999,None,1056.297300447999,None,1058.6137100839987,None,1058.6137100839987,None,1058.6137100839987,None,1058.6137100839987,None,,,,,,,,,,,,,,,,,,,,,,,,,,,,,,,,,,,,,,,,,,,,001,32,2020_Jan_30_1059,spring_faces,3.1.5,60.04407967968752,
condition files/Stage2_2.xlsx,,B5,T5,s,"['s', 'r']","['Stratego', 'Risk']","[-0.15, 0.5]","[0.15, 0.5]",1,1,,,,,,,,,,,,,,,,,0,1,1,1,0,5,5,0,,,,,,,,,,,,,,,,,,,,,,,,,,,,,,,,,,,,,,,,,,,,,,,1060.5635002069994,None,1060.5635002069994,None,1060.5635002069994,None,r,0,2.0860362540006463,1062.098162160999,None,1062.098162160999,None,1062.098162160999,None,1064.2637203289996,None,1064.2637203289996,None,1064.2637203289996,None,1064.2637203289996,None,,,,,,,,,,,,,,,,,,,,,,,,,,,,,,,,,,,,,,,,,,,,001,32,2020_Jan_30_1059,spring_faces,3.1.5,60.04407967968752,
condition files/Stage2_1.xlsx,,B6,T6,r,"['s', 'r']","['Stratego', 'Risk']","[-0.15, 0.5]","[0.15, 0.5]",1,1,,,,,,,,,,,,,,,,,0,2,2,2,0,0,0,1,,,,,,,,,,,,,,,,,,,,,,,,,,,,,,,,,,,,,,,,,,,,,,,1066.2297880059996,None,1066.2297880059996,None,1066.2297880059996,None,r,1,0.8982282270008,1067.7658995019992,None,1067.7658995019992,None,1067.7658995019992,None,1068.7472020219993,None,1068.7472020219993,None,1068.7472020219993,None,1068.7472020219993,None,,,,,,,,,,,,,,,,,,,,,,,,,,,,,,,,,,,,,,,,,,,,001,32,2020_Jan_30_1059,spring_faces,3.1.5,60.04407967968752,
condition files/Stage2_1.xlsx,,T3,B3,s,"['s', 'r']","['Stratego', 'Risk']","[-0.15, 0.5]","[0.15, 0.5]",1,1,,,,,,,,,,,,,,,,,0,2,2,2,0,1,1,4,,,,,,,,,,,,,,,,,,,,,,,,,,,,,,,,,,,,,,,,,,,,,,,1070.6964722569992,None,1070.6964722569992,None,1070.6964722569992,None,s,1,1.1679239550012426,1072.232256534,None,1072.232256534,None,1072.232256534,None,1073.466051043999,None,1073.466051043999,None,1073.466051043999,None,1073.466051043999,None,,,,,,,,,,,,,,,,,,,,,,,,,,,,,,,,,,,,,,,,,,,,001,32,2020_Jan_30_1059,spring_faces,3.1.5,60.04407967968752,
condition files/Stage2_1.xlsx,,T1,B1,s,"['s', 'r']","['Stratego', 'Risk']","[-0.15, 0.5]","[0.15, 0.5]",1,1,,,,,,,,,,,,,,,,,0,2,2,2,0,2,2,2,,,,,,,,,,,,,,,,,,,,,,,,,,,,,,,,,,,,,,,,,,,,,,,1075.4301069899993,None,1075.4301069899993,None,1075.4301069899993,None,r,0,1.5891838539992023,1076.9629174909987,None,1076.9629174909987,None,1076.9629174909987,None,1078.6130393249987,None,1078.6130393249987,None,1078.6130393249987,None,1078.6130393249987,None,,,,,,,,,,,,,,,,,,,,,,,,,,,,,,,,,,,,,,,,,,,,001,32,2020_Jan_30_1059,spring_faces,3.1.5,60.04407967968752,
condition files/Stage2_1.xlsx,,B4,T4,r,"['s', 'r']","['Stratego', 'Risk']","[-0.15, 0.5]","[0.15, 0.5]",1,1,,,,,,,,,,,,,,,,,0,2,2,2,0,3,3,5,,,,,,,,,,,,,,,,,,,,,,,,,,,,,,,,,,,,,,,,,,,,,,,1080.5800312899992,None,1080.5800312899992,None,1080.5800312899992,None,r,1,1.5731729429990082,1082.1150672249987,None,1082.1150672249987,None,1082.1150672249987,None,1083.748154773999,None,1083.748154773999,None,1083.748154773999,None,1083.748154773999,None,,,,,,,,,,,,,,,,,,,,,,,,,,,,,,,,,,,,,,,,,,,,001,32,2020_Jan_30_1059,spring_faces,3.1.5,60.04407967968752,
condition files/Stage2_1.xlsx,,B2,T2,r,"['s', 'r']","['Stratego', 'Risk']","[-0.15, 0.5]","[0.15, 0.5]",1,1,,,,,,,,,,,,,,,,,0,2,2,2,0,4,4,3,,,,,,,,,,,,,,,,,,,,,,,,,,,,,,,,,,,,,,,,,,,,,,,1085.713402543999,None,1085.713402543999,None,1085.713402543999,None,s,0,3.2245506010003737,1087.2636647989984,None,1087.2636647989984,None,1087.2636647989984,None,1090.5465505619995,None,1090.5465505619995,None,1090.5465505619995,None,1090.5465505619995,None,,,,,,,,,,,,,,,,,,,,,,,,,,,,,,,,,,,,,,,,,,,,001,32,2020_Jan_30_1059,spring_faces,3.1.5,60.04407967968752,
condition files/Stage2_1.xlsx,,T5,B5,s,"['s', 'r']","['Stratego', 'Risk']","[-0.15, 0.5]","[0.15, 0.5]",1,1,,,,,,,,,,,,,,,,,0,2,2,2,0,5,5,0,,,,,,,,,,,,,,,,,,,,,,,,,,,,,,,,,,,,,,,,,,,,,,,1092.5132711799997,None,1092.5132711799997,None,1092.5132711799997,None,s,1,1.4323525130002963,1094.0637993559994,None,1094.0637993559994,None,1094.0637993559994,None,1095.563346154,None,1095.563346154,None,1095.563346154,None,1095.563346154,None,,,,,,,,,,,,,,,,,,,,,,,,,,,,,,,,,,,,,,,,,,,,001,32,2020_Jan_30_1059,spring_faces,3.1.5,60.04407967968752,
condition files/Stage2_2.xlsx,,T2,B2,r,"['s', 'r']","['Stratego', 'Risk']","[-0.15, 0.5]","[0.15, 0.5]",1,1,,,,,,,,,,,,,,,,,0,3,3,3,0,0,0,3,,,,,,,,,,,,,,,,,,,,,,,,,,,,,,,,,,,,,,,,,,,,,,,1097.530181819,None,1097.530181819,None,1097.530181819,None,r,1,0.6710131639993051,1099.0652247299986,None,1099.0652247299986,None,1099.0652247299986,None,1099.7998194149986,None,1099.7998194149986,None,1099.7998194149986,None,1099.7998194149986,None,,,,,,,,,,,,,,,,,,,,,,,,,,,,,,,,,,,,,,,,,,,,001,32,2020_Jan_30_1059,spring_faces,3.1.5,60.04407967968752,
condition files/Stage2_2.xlsx,,B1,T1,s,"['s', 'r']","['Stratego', 'Risk']","[-0.15, 0.5]","[0.15, 0.5]",1,1,,,,,,,,,,,,,,,,,0,3,3,3,0,1,1,2,,,,,,,,,,,,,,,,,,,,,,,,,,,,,,,,,,,,,,,,,,,,,,,1101.7630136049993,None,1101.7630136049993,None,1101.7630136049993,None,s,1,1.1426627590008138,1103.3135866349985,None,1103.3135866349985,None,1103.3135866349985,None,1104.5296262939992,None,1104.5296262939992,None,1104.5296262939992,None,1104.5296262939992,None,,,,,,,,,,,,,,,,,,,,,,,,,,,,,,,,,,,,,,,,,,,,001,32,2020_Jan_30_1059,spring_faces,3.1.5,60.04407967968752,
condition files/Stage2_2.xlsx,,T4,B4,r,"['s', 'r']","['Stratego', 'Risk']","[-0.15, 0.5]","[0.15, 0.5]",1,1,,,,,,,,,,,,,,,,,0,3,3,3,0,2,2,5,,,,,,,,,,,,,,,,,,,,,,,,,,,,,,,,,,,,,,,,,,,,,,,1106.4803080069996,None,1106.4803080069996,None,1106.4803080069996,None,r,1,2.2817864200005715,1108.03038147,None,1108.03038147,None,1108.03038147,None,1110.3804230159985,None,1110.3804230159985,None,1110.3804230159985,None,1110.3804230159985,None,,,,,,,,,,,,,,,,,,,,,,,,,,,,,,,,,,,,,,,,,,,,001,32,2020_Jan_30_1059,spring_faces,3.1.5,60.04407967968752,
condition files/Stage2_2.xlsx,,T6,B6,r,"['s', 'r']","['Stratego', 'Risk']","[-0.15, 0.5]","[0.15, 0.5]",1,1,,,,,,,,,,,,,,,,,0,3,3,3,0,3,3,1,,,,,,,,,,,,,,,,,,,,,,,,,,,,,,,,,,,,,,,,,,,,,,,1112.329951534999,None,1112.329951534999,None,1112.329951534999,None,s,0,1.1518909389997134,1113.8802756149998,None,1113.8802756149998,None,1113.8802756149998,None,1115.096442098,None,1115.096442098,None,1115.096442098,None,1115.096442098,None,,,,,,,,,,,,,,,,,,,,,,,,,,,,,,,,,,,,,,,,,,,,001,32,2020_Jan_30_1059,spring_faces,3.1.5,60.04407967968752,
condition files/Stage2_2.xlsx,,B3,T3,s,"['s', 'r']","['Stratego', 'Risk']","[-0.15, 0.5]","[0.15, 0.5]",1,1,,,,,,,,,,,,,,,,,0,3,3,3,0,4,4,4,,,,,,,,,,,,,,,,,,,,,,,,,,,,,,,,,,,,,,,,,,,,,,,1117.063681407999,None,1117.063681407999,None,1117.063681407999,None,s,1,0.8661645140000473,1118.6139521269997,None,1118.6139521269997,None,1118.6139521269997,None,1119.5313711039998,None,1119.5313711039998,None,1119.5313711039998,None,1119.5313711039998,None,,,,,,,,,,,,,,,,,,,,,,,,,,,,,,,,,,,,,,,,,,,,001,32,2020_Jan_30_1059,spring_faces,3.1.5,60.04407967968752,
condition files/Stage2_2.xlsx,,B5,T5,s,"['s', 'r']","['Stratego', 'Risk']","[-0.15, 0.5]","[0.15, 0.5]",1,1,,,,,,,,,,,,,,,,,0,3,3,3,0,5,5,0,,,,,,,,,,,,,,,,,,,,,,,,,,,,,,,,,,,,,,,,,,,,,,,1121.4968868249998,None,1121.4968868249998,None,1121.4968868249998,None,s,1,1.649235179000243,1123.0309442069993,None,1123.0309442069993,None,1123.0309442069993,None,1124.7298034979995,None,1124.7298034979995,None,1124.7298034979995,None,1124.7298034979995,None,,,,,,,,,,,,,,,,,,,,,,,,,,,,,,,,,,,,,,,,,,,,001,32,2020_Jan_30_1059,spring_faces,3.1.5,60.04407967968752,
condition files/Stage2_1.xlsx,,B4,T4,r,"['s', 'r']","['Stratego', 'Risk']","[-0.15, 0.5]","[0.15, 0.5]",1,1,,,,,,,,,,,,,,,,,0,4,4,4,0,0,0,5,,,,,,,,,,,,,,,,,,,,,,,,,,,,,,,,,,,,,,,,,,,,,,,1126.713770979999,None,1126.713770979999,None,1126.713770979999,None,r,1,1.1517432049986382,1128.2484433709997,None,1128.2484433709997,None,1128.2484433709997,None,1129.4803191949995,None,1129.4803191949995,None,1129.4803191949995,None,1129.4803191949995,None,,,,,,,,,,,,,,,,,,,,,,,,,,,,,,,,,,,,,,,,,,,,001,32,2020_Jan_30_1059,spring_faces,3.1.5,60.04407967968752,
condition files/Stage2_1.xlsx,,T5,B5,s,"['s', 'r']","['Stratego', 'Risk']","[-0.15, 0.5]","[0.15, 0.5]",1,1,,,,,,,,,,,,,,,,,0,4,4,4,0,1,1,0,,,,,,,,,,,,,,,,,,,,,,,,,,,,,,,,,,,,,,,,,,,,,,,1131.4300592609998,None,1131.4300592609998,None,1131.4300592609998,None,s,1,1.3308067769994523,1132.9653745359992,None,1132.9653745359992,None,1132.9653745359992,None,1134.3630983629992,None,1134.3630983629992,None,1134.3630983629992,None,1134.3630983629992,None,,,,,,,,,,,,,,,,,,,,,,,,,,,,,,,,,,,,,,,,,,,,001,32,2020_Jan_30_1059,spring_faces,3.1.5,60.04407967968752,
condition files/Stage2_1.xlsx,,B2,T2,r,"['s', 'r']","['Stratego', 'Risk']","[-0.15, 0.5]","[0.15, 0.5]",1,1,,,,,,,,,,,,,,,,,0,4,4,4,0,2,2,3,,,,,,,,,,,,,,,,,,,,,,,,,,,,,,,,,,,,,,,,,,,,,,,1136.3131434879997,None,1136.3131434879997,None,1136.3131434879997,None,r,1,2.0808148859996436,1137.8633503429992,None,1137.8633503429992,None,1137.8633503429992,None,1140.0135587280001,None,1140.0135587280001,None,1140.0135587280001,None,1140.0135587280001,None,,,,,,,,,,,,,,,,,,,,,,,,,,,,,,,,,,,,,,,,,,,,001,32,2020_Jan_30_1059,spring_faces,3.1.5,60.04407967968752,
