condsFile,subStage,cue1,cue2,correct,responseKeys,responseNames,cue1Position,cue2Position,cue1Opacity,cue2Opacity,stageLoop0.thisRepN,stageLoop0.thisTrialN,stageLoop0.thisN,stageLoop0.thisIndex,blockLoop0.thisRepN,blockLoop0.thisTrialN,blockLoop0.thisN,blockLoop0.thisIndex,stage1Loop.thisRepN,stage1Loop.thisTrialN,stage1Loop.thisN,stage1Loop.thisIndex,blockLoop1.thisRepN,blockLoop1.thisTrialN,blockLoop1.thisN,blockLoop1.thisIndex,stage2Loop.thisRepN,stage2Loop.thisTrialN,stage2Loop.thisN,stage2Loop.thisIndex,blockLoop2.thisRepN,blockLoop2.thisTrialN,blockLoop2.thisN,blockLoop2.thisIndex,testLoop.thisRepN,testLoop.thisTrialN,testLoop.thisN,testLoop.thisIndex,blockLoopTest.thisRepN,blockLoopTest.thisTrialN,blockLoopTest.thisN,blockLoopTest.thisIndex,cuePics,id_instr_text.started,id_instr_text.stopped,space_to_continue_2.started,space_to_continue_2.stopped,end_instructions_resp_3.keys,end_instructions_resp_3.rt,end_instructions_resp_3.started,end_instructions_resp_3.stopped,id_input_instr.started,id_input_instr.stopped,id_input_rect.started,id_input_rect.stopped,id_input_resp.keys,id_input_resp.rt,id_input_resp.started,id_input_resp.stopped,sonaID,id_input_text.started,id_input_text.stopped,final_text.started,final_text.stopped,instructions.started,instructions.stopped,end_instructions_resp.keys,end_instructions_resp.rt,end_instructions_resp.started,end_instructions_resp.stopped,space_to_continue.started,space_to_continue.stopped,instructions_stage0.started,instructions_stage0.stopped,end_instructions_resp_stage0.keys,end_instructions_resp_stage0.rt,end_instructions_resp_stage0.started,end_instructions_resp_stage0.stopped,space_to_continue_stage0.started,space_to_continue_stage0.stopped,text.started,text.stopped,resp_text1.started,resp_text1.stopped,resp_text2.started,resp_text2.stopped,trial_resp.keys,trial_resp.corr,trial_resp.rt,trial_resp.started,trial_resp.stopped,cue1Image.started,cue1Image.stopped,cue2Image.started,cue2Image.stopped,cue1Image_fb.started,cue1Image_fb.stopped,cue2Image_fb.started,cue2Image_fb.stopped,fb_text_answer.started,fb_text_answer.stopped,feedback_image.started,feedback_image.stopped,instructions_stage1.started,instructions_stage1.stopped,end_instructions_resp_stage1.keys,end_instructions_resp_stage1.rt,end_instructions_resp_stage1.started,end_instructions_resp_stage1.stopped,space_to_continue_stage1.started,space_to_continue_stage1.stopped,instructions_2.started,instructions_2.stopped,end_instructions_resp_2.keys,end_instructions_resp_2.rt,end_instructions_resp_2.started,end_instructions_resp_2.stopped,press_space_to_continue_stage2.started,press_space_to_continue_stage2.stopped,instructions_testStage1.started,instructions_testStage1.stopped,end_instructions_resp_test1.keys,end_instructions_resp_test1.rt,end_instructions_resp_test1.started,end_instructions_resp_test1.stopped,press_space_to_continue_test1.started,press_space_to_continue_test1.stopped,cue1Image_testChoice.started,cue1Image_testChoice.stopped,cue2Image_testChoice.started,cue2Image_testChoice.stopped,test_resp.keys,test_resp.corr,test_resp.rt,test_resp.started,test_resp.stopped,cue1Image_testConf.started,cue1Image_testConf.stopped,cue2Image_testConf.started,cue2Image_testConf.stopped,conf_reminder.started,conf_reminder.stopped,conf_rating.response,conf_rating.rt,conf_rating.started,conf_rating.stopped,session,participant,date,expName,psychopyVersion,frameRate,
,,,,,,,,,,,,,,,,,,,,,,,,,,,,,,,,,,,,,,,,,,,"{'none': 'pictures/20M_AN_C.png', 'alpha': 'pictures/SHINEd_pear.png', 'beta': 'pictures/SHINEd_melon.png', 'theta': 'pictures/SHINEd_apple.png', 'phi': 'pictures/SHINEd_pepper.png', 'T1': 'pictures/26M_AN_C.png', 'T2': 'pictures/34M_AN_C.png', 'T3': 'pictures/36M_AN_C.png', 'T4': 'pictures/20M_AN_C.png', 'T5': 'pictures/25M_AN_C.png', 'T6': 'pictures/33M_AN_C.png', 'B1': 'pictures/37M_NE_C.png', 'B2': 'pictures/32M_NE_C.png', 'B3': 'pictures/23M_NE_C.png', 'B4': 'pictures/22M_NE_C.png', 'B5': 'pictures/31M_NE_C.png', 'B6': 'pictures/38M_NE_C.png'}",8.735117600999729,None,13.718121451000115,None,space,4.083453774999725,13.718121451000115,None,,,,,,,,,,,,,,,,,,,,,,,,,,,,,,,,,,,,,,,,,,,,,,,,,,,,,,,,,,,,,,,,,,,,,,,,,,,,,,,,,,,,,,,,,,,,,,,,001,33,2020_Jan_30_1101,spring_faces,3.1.5,60.12314458541963,
,,,,,,,,,,,,,,,,,,,,,,,,,,,,,,,,,,,,,,,,,,,,,,,,,,,,18.16995401299937,None,18.16995401299937,None,"['0', '3', '0', '3', 'r', 'e', 'r', 'e', 'g', '0', '3', '0', '3', 'k', 'a', 'r', 'e', 'g']","[5.823700930999621, 5.9036438329985685, 10.57568319999882, 10.623700172000099, 15.279621011999552, 15.343644657999903, 17.759586356998625, 17.7915852240003, 17.999576645999696, 26.799568319000173, 26.9116331059995, 27.135636807999617, 27.215594921999582, 28.28763223900023, 28.367561013999875, 28.815599278999798, 28.87961856899892, 29.02367912399859]",18.16995401299937,None,,,,,,,,,,,,,,,,,,,,,,,,,,,,,,,,,,,,,,,,,,,,,,,,,,,,,,,,,,,,,,,,,,,,,,,,,,,,,,,,,,,,,,,,001,33,2020_Jan_30_1101,spring_faces,3.1.5,60.12314458541963,
,,,,,,,,,,,,,,,,,,,,,,,,,,,,,,,,,,,,,,,,,,,,,,,,,,,,,,,,,,,,0303kareg,18.16995401299937,None,18.16995401299937,None,52.26858982399972,None,space,7.189168397000685,57.26849381700049,None,,,,,,,,,,,,,,,,,,,,,,,,,,,,,,,,,,,,,,,,,,,,,,,,,,,,,,,,,,,,,,,,,,,,,,,,,,,,,001,33,2020_Jan_30_1101,spring_faces,3.1.5,60.12314458541963,
,,,,,,,,,,,,,,,,,,,,,,,,,,,,,,,,,,,,,,,,,,,,,,,,,,,,,,,,,,,,,,,,,,,,,,,57.26849381700049,None,64.50110503699943,None,space,2.1879803760002687,69.5016088100001,None,,,,,,,,,,,,,,,,,,,,,,,,,,,,,,,,,,,,,,,,,,,,,,,,,,,,,,,,,,,,,,,,,,,,,001,33,2020_Jan_30_1101,spring_faces,3.1.5,60.12314458541963,
condition files/Stage0a.xlsx,0a,alpha,none,h,"['h', 'g']","['Chess', 'Go']","[0, 0.5]","[0, 0]",1,0,0,0,0,0,0,0,0,0,,,,,,,,,,,,,,,,,,,,,,,,,,,,,,,,,,,,,,,,,,,,,,,,,,,,,,,,,,,,,69.5016088100001,None,71.75181965199954,None,71.75181965199954,None,71.75181965199954,None,h,1,10.578313494001122,73.33526180999979,None,73.33526180999979,None,73.33526180999979,None,83.98492339899894,None,83.98492339899894,None,83.98492339899894,None,83.98492339899894,None,,,,,,,,,,,,,,,,,,,,,,,,,,,,,,,,,,,,,,,,,,,,001,33,2020_Jan_30_1101,spring_faces,3.1.5,60.12314458541963,
condition files/Stage0a.xlsx,0a,beta,none,g,"['h', 'g']","['Chess', 'Go']","[0, 0.5]","[0, 0]",1,0,0,0,0,0,0,1,1,1,,,,,,,,,,,,,,,,,,,,,,,,,,,,,,,,,,,,,,,,,,,,,,,,,,,,,,,,,,,,,,,85.93479651099915,None,85.93479651099915,None,85.93479651099915,None,g,1,1.0350451310005155,87.47054451999975,None,87.47054451999975,None,87.47054451999975,None,88.56807792799918,None,88.56807792799918,None,88.56807792799918,None,88.56807792799918,None,,,,,,,,,,,,,,,,,,,,,,,,,,,,,,,,,,,,,,,,,,,,001,33,2020_Jan_30_1101,spring_faces,3.1.5,60.12314458541963,
condition files/Stage0a.xlsx,0a,alpha,none,h,"['h', 'g']","['Chess', 'Go']","[0, 0.5]","[0, 0]",1,0,0,1,1,1,0,0,0,0,,,,,,,,,,,,,,,,,,,,,,,,,,,,,,,,,,,,,,,,,,,,,,,,,,,,,,,,,,,,,,,90.55144568700052,None,90.55144568700052,None,90.55144568700052,None,h,1,0.7090420170006837,92.08461141999942,None,92.08461141999942,None,92.08461141999942,None,92.85157614899981,None,92.85157614899981,None,92.85157614899981,None,92.85157614899981,None,,,,,,,,,,,,,,,,,,,,,,,,,,,,,,,,,,,,,,,,,,,,001,33,2020_Jan_30_1101,spring_faces,3.1.5,60.12314458541963,
condition files/Stage0a.xlsx,0a,beta,none,g,"['h', 'g']","['Chess', 'Go']","[0, 0.5]","[0, 0]",1,0,0,1,1,1,0,1,1,1,,,,,,,,,,,,,,,,,,,,,,,,,,,,,,,,,,,,,,,,,,,,,,,,,,,,,,,,,,,,,,,94.81816327999877,None,94.81816327999877,None,94.81816327999877,None,g,1,0.585858623000604,96.3517258009997,None,96.3517258009997,None,96.3517258009997,None,97.00113294000039,None,97.00113294000039,None,97.00113294000039,None,97.00113294000039,None,,,,,,,,,,,,,,,,,,,,,,,,,,,,,,,,,,,,,,,,,,,,001,33,2020_Jan_30_1101,spring_faces,3.1.5,60.12314458541963,
condition files/Stage0a.xlsx,0a,alpha,none,h,"['h', 'g']","['Chess', 'Go']","[0, 0.5]","[0, 0]",1,0,0,2,2,2,0,0,0,0,,,,,,,,,,,,,,,,,,,,,,,,,,,,,,,,,,,,,,,,,,,,,,,,,,,,,,,,,,,,,,,98.98483921099978,None,98.98483921099978,None,98.98483921099978,None,h,1,0.5792557500008115,100.51832220100005,None,100.51832220100005,None,100.51832220100005,None,101.15217854399998,None,101.15217854399998,None,101.15217854399998,None,101.15217854399998,None,,,,,,,,,,,,,,,,,,,,,,,,,,,,,,,,,,,,,,,,,,,,001,33,2020_Jan_30_1101,spring_faces,3.1.5,60.12314458541963,
condition files/Stage0a.xlsx,0a,beta,none,g,"['h', 'g']","['Chess', 'Go']","[0, 0.5]","[0, 0]",1,0,0,2,2,2,0,1,1,1,,,,,,,,,,,,,,,,,,,,,,,,,,,,,,,,,,,,,,,,,,,,,,,,,,,,,,,,,,,,,,,103.11832817100003,None,103.11832817100003,None,103.11832817100003,None,g,1,0.5423608030014293,104.65127066700006,None,104.65127066700006,None,104.65127066700006,None,105.25179033600034,None,105.25179033600034,None,105.25179033600034,None,105.25179033600034,None,,,,,,,,,,,,,,,,,,,,,,,,,,,,,,,,,,,,,,,,,,,,001,33,2020_Jan_30_1101,spring_faces,3.1.5,60.12314458541963,
condition files/Stage0a.xlsx,0a,beta,none,g,"['h', 'g']","['Chess', 'Go']","[0, 0.5]","[0, 0]",1,0,0,3,3,3,0,0,0,1,,,,,,,,,,,,,,,,,,,,,,,,,,,,,,,,,,,,,,,,,,,,,,,,,,,,,,,,,,,,,,,107.23483909199967,None,107.23483909199967,None,107.23483909199967,None,g,1,0.8091753999997309,108.76848816799975,None,108.76848816799975,None,108.76848816799975,None,109.63494770800025,None,109.63494770800025,None,109.63494770800025,None,109.63494770800025,None,,,,,,,,,,,,,,,,,,,,,,,,,,,,,,,,,,,,,,,,,,,,001,33,2020_Jan_30_1101,spring_faces,3.1.5,60.12314458541963,
condition files/Stage0a.xlsx,0a,alpha,none,h,"['h', 'g']","['Chess', 'Go']","[0, 0.5]","[0, 0]",1,0,0,3,3,3,0,1,1,0,,,,,,,,,,,,,,,,,,,,,,,,,,,,,,,,,,,,,,,,,,,,,,,,,,,,,,,,,,,,,,,111.60150877900014,None,111.60150877900014,None,111.60150877900014,None,h,1,0.6022526519991516,113.13529357699917,None,113.13529357699917,None,113.13529357699917,None,113.80128691999926,None,113.80128691999926,None,113.80128691999926,None,113.80128691999926,None,,,,,,,,,,,,,,,,,,,,,,,,,,,,,,,,,,,,,,,,,,,,001,33,2020_Jan_30_1101,spring_faces,3.1.5,60.12314458541963,
condition files/Stage0a.xlsx,0a,alpha,none,h,"['h', 'g']","['Chess', 'Go']","[0, 0.5]","[0, 0]",1,0,0,4,4,4,0,0,0,0,,,,,,,,,,,,,,,,,,,,,,,,,,,,,,,,,,,,,,,,,,,,,,,,,,,,,,,,,,,,,,,115.78454007599976,None,115.78454007599976,None,115.78454007599976,None,h,1,0.5794360219988448,117.31810753799982,None,117.31810753799982,None,117.31810753799982,None,117.95169696799894,None,117.95169696799894,None,117.95169696799894,None,117.95169696799894,None,,,,,,,,,,,,,,,,,,,,,,,,,,,,,,,,,,,,,,,,,,,,001,33,2020_Jan_30_1101,spring_faces,3.1.5,60.12314458541963,
condition files/Stage0a.xlsx,0a,beta,none,g,"['h', 'g']","['Chess', 'Go']","[0, 0.5]","[0, 0]",1,0,0,4,4,4,0,1,1,1,,,,,,,,,,,,,,,,,,,,,,,,,,,,,,,,,,,,,,,,,,,,,,,,,,,,,,,,,,,,,,,119.91795353399903,None,119.91795353399903,None,119.91795353399903,None,g,1,0.47796089300027234,121.45160364900039,None,121.45160364900039,None,121.45160364900039,None,121.98459697399994,None,121.98459697399994,None,121.98459697399994,None,121.98459697399994,None,,,,,,,,,,,,,,,,,,,,,,,,,,,,,,,,,,,,,,,,,,,,001,33,2020_Jan_30_1101,spring_faces,3.1.5,60.12314458541963,
condition files/Stage0a.xlsx,0a,beta,none,g,"['h', 'g']","['Chess', 'Go']","[0, 0.5]","[0, 0]",1,0,0,5,5,5,0,0,0,1,,,,,,,,,,,,,,,,,,,,,,,,,,,,,,,,,,,,,,,,,,,,,,,,,,,,,,,,,,,,,,,123.9677878170005,None,123.9677878170005,None,123.9677878170005,None,g,1,0.5399053969995293,125.50167264399897,None,125.50167264399897,None,125.50167264399897,None,126.10189727299985,None,126.10189727299985,None,126.10189727299985,None,126.10189727299985,None,,,,,,,,,,,,,,,,,,,,,,,,,,,,,,,,,,,,,,,,,,,,001,33,2020_Jan_30_1101,spring_faces,3.1.5,60.12314458541963,
condition files/Stage0a.xlsx,0a,alpha,none,h,"['h', 'g']","['Chess', 'Go']","[0, 0.5]","[0, 0]",1,0,0,5,5,5,0,1,1,0,,,,,,,,,,,,,,,,,,,,,,,,,,,,,,,,,,,,,,,,,,,,,,,,,,,,,,,,,,,,,,,128.06828007500008,None,128.06828007500008,None,128.06828007500008,None,h,1,0.5202240309990884,129.6013462560004,None,129.6013462560004,None,129.6013462560004,None,130.185248623,None,130.185248623,None,130.185248623,None,130.185248623,None,,,,,,,,,,,,,,,,,,,,,,,,,,,,,,,,,,,,,,,,,,,,001,33,2020_Jan_30_1101,spring_faces,3.1.5,60.12314458541963,
condition files/Stage0b_1.xlsx,0b,none,beta,g,"['h', 'g']","['Chess', 'Go']","[-0.15, 0.5]","[0.15, 0.5]",0,1,0,6,6,6,0,0,0,1,,,,,,,,,,,,,,,,,,,,,,,,,,,,,,,,,,,,,,,,,,,,,,,,,,,,,,,,,,,,,,,132.16858987699925,None,132.16858987699925,None,132.16858987699925,None,g,1,1.1072585509991768,133.71838311899955,None,133.71838311899955,None,133.71838311899955,None,134.90181483699962,None,134.90181483699962,None,134.90181483699962,None,134.90181483699962,None,,,,,,,,,,,,,,,,,,,,,,,,,,,,,,,,,,,,,,,,,,,,001,33,2020_Jan_30_1101,spring_faces,3.1.5,60.12314458541963,
condition files/Stage0b_1.xlsx,0b,alpha,none,h,"['h', 'g']","['Chess', 'Go']","[-0.15, 0.5]","[0.15, 0.5]",1,0,0,6,6,6,0,1,1,0,,,,,,,,,,,,,,,,,,,,,,,,,,,,,,,,,,,,,,,,,,,,,,,,,,,,,,,,,,,,,,,136.85143287199935,None,136.85143287199935,None,136.85143287199935,None,h,1,0.6791922649990738,138.4023618880001,None,138.4023618880001,None,138.4023618880001,None,139.13795159099936,None,139.13795159099936,None,139.13795159099936,None,139.13795159099936,None,,,,,,,,,,,,,,,,,,,,,,,,,,,,,,,,,,,,,,,,,,,,001,33,2020_Jan_30_1101,spring_faces,3.1.5,60.12314458541963,
condition files/Stage0b_2.xlsx,0b,none,alpha,h,"['h', 'g']","['Chess', 'Go']","[-0.15, 0.5]","[0.15, 0.5]",0,1,0,7,7,7,0,0,0,0,,,,,,,,,,,,,,,,,,,,,,,,,,,,,,,,,,,,,,,,,,,,,,,,,,,,,,,,,,,,,,,141.11868078599946,None,141.11868078599946,None,141.11868078599946,None,h,1,0.620617561000472,142.65299156199944,None,142.65299156199944,None,142.65299156199944,None,143.33485593399928,None,143.33485593399928,None,143.33485593399928,None,143.33485593399928,None,,,,,,,,,,,,,,,,,,,,,,,,,,,,,,,,,,,,,,,,,,,,001,33,2020_Jan_30_1101,spring_faces,3.1.5,60.12314458541963,
condition files/Stage0b_2.xlsx,0b,beta,none,g,"['h', 'g']","['Chess', 'Go']","[-0.15, 0.5]","[0.15, 0.5]",1,0,0,7,7,7,0,1,1,1,,,,,,,,,,,,,,,,,,,,,,,,,,,,,,,,,,,,,,,,,,,,,,,,,,,,,,,,,,,,,,,145.30097496300004,None,145.30097496300004,None,145.30097496300004,None,g,1,0.9345529719994374,146.83499057600056,None,146.83499057600056,None,146.83499057600056,None,147.8354172069994,None,147.8354172069994,None,147.8354172069994,None,147.8354172069994,None,,,,,,,,,,,,,,,,,,,,,,,,,,,,,,,,,,,,,,,,,,,,001,33,2020_Jan_30_1101,spring_faces,3.1.5,60.12314458541963,
condition files/Stage0b_1.xlsx,0b,alpha,none,h,"['h', 'g']","['Chess', 'Go']","[-0.15, 0.5]","[0.15, 0.5]",1,0,0,8,8,8,0,0,0,0,,,,,,,,,,,,,,,,,,,,,,,,,,,,,,,,,,,,,,,,,,,,,,,,,,,,,,,,,,,,,,,149.81826647999878,None,149.81826647999878,None,149.81826647999878,None,h,1,0.6261789489999501,151.35146393600007,None,151.35146393600007,None,151.35146393600007,None,152.03501692399914,None,152.03501692399914,None,152.03501692399914,None,152.03501692399914,None,,,,,,,,,,,,,,,,,,,,,,,,,,,,,,,,,,,,,,,,,,,,001,33,2020_Jan_30_1101,spring_faces,3.1.5,60.12314458541963,
condition files/Stage0b_1.xlsx,0b,none,beta,g,"['h', 'g']","['Chess', 'Go']","[-0.15, 0.5]","[0.15, 0.5]",0,1,0,8,8,8,0,1,1,1,,,,,,,,,,,,,,,,,,,,,,,,,,,,,,,,,,,,,,,,,,,,,,,,,,,,,,,,,,,,,,,154.00147531899893,None,154.00147531899893,None,154.00147531899893,None,g,1,0.4096399730005942,155.55193036299897,None,155.55193036299897,None,155.55193036299897,None,156.0351107539991,None,156.0351107539991,None,156.0351107539991,None,156.0351107539991,None,,,,,,,,,,,,,,,,,,,,,,,,,,,,,,,,,,,,,,,,,,,,001,33,2020_Jan_30_1101,spring_faces,3.1.5,60.12314458541963,
condition files/Stage0b_2.xlsx,0b,beta,none,g,"['h', 'g']","['Chess', 'Go']","[-0.15, 0.5]","[0.15, 0.5]",1,0,0,9,9,9,0,0,0,1,,,,,,,,,,,,,,,,,,,,,,,,,,,,,,,,,,,,,,,,,,,,,,,,,,,,,,,,,,,,,,,158.00149131499893,None,158.00149131499893,None,158.00149131499893,None,g,1,0.5979319350008154,159.53964443800032,None,159.53964443800032,None,159.53964443800032,None,160.20170768299977,None,160.20170768299977,None,160.20170768299977,None,160.20170768299977,None,,,,,,,,,,,,,,,,,,,,,,,,,,,,,,,,,,,,,,,,,,,,001,33,2020_Jan_30_1101,spring_faces,3.1.5,60.12314458541963,
condition files/Stage0b_2.xlsx,0b,none,alpha,h,"['h', 'g']","['Chess', 'Go']","[-0.15, 0.5]","[0.15, 0.5]",0,1,0,9,9,9,0,1,1,0,,,,,,,,,,,,,,,,,,,,,,,,,,,,,,,,,,,,,,,,,,,,,,,,,,,,,,,,,,,,,,,162.16821327599973,None,162.16821327599973,None,162.16821327599973,None,h,1,0.4671224939993408,163.71841748800034,None,163.71841748800034,None,163.71841748800034,None,164.25394698299897,None,164.25394698299897,None,164.25394698299897,None,164.25394698299897,None,,,,,,,,,,,,,,,,,,,,,,,,,,,,,,,,,,,,,,,,,,,,001,33,2020_Jan_30_1101,spring_faces,3.1.5,60.12314458541963,
condition files/Stage0b_1.xlsx,0b,alpha,none,h,"['h', 'g']","['Chess', 'Go']","[-0.15, 0.5]","[0.15, 0.5]",1,0,0,10,10,10,0,0,0,0,,,,,,,,,,,,,,,,,,,,,,,,,,,,,,,,,,,,,,,,,,,,,,,,,,,,,,,,,,,,,,,166.23480729899893,None,166.23480729899893,None,166.23480729899893,None,h,1,0.5411048559999472,167.7724918269996,None,167.7724918269996,None,167.7724918269996,None,168.36770315799913,None,168.36770315799913,None,168.36770315799913,None,168.36770315799913,None,,,,,,,,,,,,,,,,,,,,,,,,,,,,,,,,,,,,,,,,,,,,001,33,2020_Jan_30_1101,spring_faces,3.1.5,60.12314458541963,
condition files/Stage0b_1.xlsx,0b,none,beta,g,"['h', 'g']","['Chess', 'Go']","[-0.15, 0.5]","[0.15, 0.5]",0,1,0,10,10,10,0,1,1,1,,,,,,,,,,,,,,,,,,,,,,,,,,,,,,,,,,,,,,,,,,,,,,,,,,,,,,,,,,,,,,,170.3348515609996,None,170.3348515609996,None,170.3348515609996,None,g,1,0.6182230340000388,171.87136880300022,None,171.87136880300022,None,171.87136880300022,None,172.55121089800014,None,172.55121089800014,None,172.55121089800014,None,172.55121089800014,None,,,,,,,,,,,,,,,,,,,,,,,,,,,,,,,,,,,,,,,,,,,,001,33,2020_Jan_30_1101,spring_faces,3.1.5,60.12314458541963,
condition files/Stage0b_2.xlsx,0b,none,alpha,h,"['h', 'g']","['Chess', 'Go']","[-0.15, 0.5]","[0.15, 0.5]",0,1,0,11,11,11,0,0,0,0,,,,,,,,,,,,,,,,,,,,,,,,,,,,,,,,,,,,,,,,,,,,,,,,,,,,,,,,,,,,,,,174.53450001000056,None,174.53450001000056,None,174.53450001000056,None,h,1,0.676810826998917,176.06884290699963,None,176.06884290699963,None,176.06884290699963,None,176.80115579999983,None,176.80115579999983,None,176.80115579999983,None,176.80115579999983,None,,,,,,,,,,,,,,,,,,,,,,,,,,,,,,,,,,,,,,,,,,,,001,33,2020_Jan_30_1101,spring_faces,3.1.5,60.12314458541963,
condition files/Stage0b_2.xlsx,0b,beta,none,g,"['h', 'g']","['Chess', 'Go']","[-0.15, 0.5]","[0.15, 0.5]",1,0,0,11,11,11,0,1,1,1,,,,,,,,,,,,,,,,,,,,,,,,,,,,,,,,,,,,,,,,,,,,,,,,,,,,,,,,,,,,,,,178.76815522700053,None,178.76815522700053,None,178.76815522700053,None,g,1,0.7425717289988825,180.30698407300042,None,180.30698407300042,None,180.30698407300042,None,181.10606429499967,None,181.10606429499967,None,181.10606429499967,None,181.10606429499967,None,,,,,,,,,,,,,,,,,,,,,,,,,,,,,,,,,,,,,,,,,,,,001,33,2020_Jan_30_1101,spring_faces,3.1.5,60.12314458541963,
condition files/Stage0c_1.xlsx,0c,alpha,phi,h,"['h', 'g']","['Chess', 'Go']","[-0.15, 0.5]","[0.15, 0.5]",1,1,0,12,12,12,0,0,0,1,,,,,,,,,,,,,,,,,,,,,,,,,,,,,,,,,,,,,,,,,,,,,,,,,,,,,,,,,,,,,,,183.08441121000033,None,183.08441121000033,None,183.08441121000033,None,h,1,1.5510656620008376,184.6184425350002,None,184.6184425350002,None,184.6184425350002,None,186.23479459400005,None,186.23479459400005,None,186.23479459400005,None,186.23479459400005,None,,,,,,,,,,,,,,,,,,,,,,,,,,,,,,,,,,,,,,,,,,,,001,33,2020_Jan_30_1101,spring_faces,3.1.5,60.12314458541963,
condition files/Stage0c_1.xlsx,0c,theta,alpha,h,"['h', 'g']","['Chess', 'Go']","[-0.15, 0.5]","[0.15, 0.5]",1,1,0,12,12,12,0,1,1,0,,,,,,,,,,,,,,,,,,,,,,,,,,,,,,,,,,,,,,,,,,,,,,,,,,,,,,,,,,,,,,,188.20133040499968,None,188.20133040499968,None,188.20133040499968,None,h,1,1.0903334829999949,189.73534069900052,None,189.73534069900052,None,189.73534069900052,None,190.88538536399938,None,190.88538536399938,None,190.88538536399938,None,190.88538536399938,None,,,,,,,,,,,,,,,,,,,,,,,,,,,,,,,,,,,,,,,,,,,,001,33,2020_Jan_30_1101,spring_faces,3.1.5,60.12314458541963,
condition files/Stage0c_1.xlsx,0c,beta,theta,g,"['h', 'g']","['Chess', 'Go']","[-0.15, 0.5]","[0.15, 0.5]",1,1,0,12,12,12,0,2,2,2,,,,,,,,,,,,,,,,,,,,,,,,,,,,,,,,,,,,,,,,,,,,,,,,,,,,,,,,,,,,,,,192.85188529100014,None,192.85188529100014,None,192.85188529100014,None,g,1,0.8087429990009696,194.38488376699934,None,194.38488376699934,None,194.38488376699934,None,195.25168366300022,None,195.25168366300022,None,195.25168366300022,None,195.25168366300022,None,,,,,,,,,,,,,,,,,,,,,,,,,,,,,,,,,,,,,,,,,,,,001,33,2020_Jan_30_1101,spring_faces,3.1.5,60.12314458541963,
condition files/Stage0c_1.xlsx,0c,phi,beta,g,"['h', 'g']","['Chess', 'Go']","[-0.15, 0.5]","[0.15, 0.5]",1,1,0,12,12,12,0,3,3,3,,,,,,,,,,,,,,,,,,,,,,,,,,,,,,,,,,,,,,,,,,,,,,,,,,,,,,,,,,,,,,,197.22024653500011,None,197.22024653500011,None,197.22024653500011,None,g,1,0.9059089970014611,198.75166659800016,None,198.75166659800016,None,198.75166659800016,None,199.7013814009988,None,199.7013814009988,None,199.7013814009988,None,199.7013814009988,None,,,,,,,,,,,,,,,,,,,,,,,,,,,,,,,,,,,,,,,,,,,,001,33,2020_Jan_30_1101,spring_faces,3.1.5,60.12314458541963,
condition files/Stage0c_2.xlsx,0c,alpha,theta,h,"['h', 'g']","['Chess', 'Go']","[-0.15, 0.5]","[0.15, 0.5]",1,1,0,13,13,13,0,0,0,0,,,,,,,,,,,,,,,,,,,,,,,,,,,,,,,,,,,,,,,,,,,,,,,,,,,,,,,,,,,,,,,201.70122697700026,None,201.70122697700026,None,201.70122697700026,None,h,1,1.1905764219991397,203.23506166399966,None,203.23506166399966,None,203.23506166399966,None,204.48461700500047,None,204.48461700500047,None,204.48461700500047,None,204.48461700500047,None,,,,,,,,,,,,,,,,,,,,,,,,,,,,,,,,,,,,,,,,,,,,001,33,2020_Jan_30_1101,spring_faces,3.1.5,60.12314458541963,
condition files/Stage0c_2.xlsx,0c,beta,phi,g,"['h', 'g']","['Chess', 'Go']","[-0.15, 0.5]","[0.15, 0.5]",1,1,0,13,13,13,0,1,1,3,,,,,,,,,,,,,,,,,,,,,,,,,,,,,,,,,,,,,,,,,,,,,,,,,,,,,,,,,,,,,,,206.45149238199883,None,206.45149238199883,None,206.45149238199883,None,g,1,1.2405416029996559,207.98502207799902,None,207.98502207799902,None,207.98502207799902,None,209.2844207449998,None,209.2844207449998,None,209.2844207449998,None,209.2844207449998,None,,,,,,,,,,,,,,,,,,,,,,,,,,,,,,,,,,,,,,,,,,,,001,33,2020_Jan_30_1101,spring_faces,3.1.5,60.12314458541963,
condition files/Stage0c_2.xlsx,0c,theta,beta,g,"['h', 'g']","['Chess', 'Go']","[-0.15, 0.5]","[0.15, 0.5]",1,1,0,13,13,13,0,2,2,2,,,,,,,,,,,,,,,,,,,,,,,,,,,,,,,,,,,,,,,,,,,,,,,,,,,,,,,,,,,,,,,211.2512581659994,None,211.2512581659994,None,211.2512581659994,None,g,1,0.952709272998618,212.78485229800026,None,212.78485229800026,None,212.78485229800026,None,213.7863806690002,None,213.7863806690002,None,213.7863806690002,None,213.7863806690002,None,,,,,,,,,,,,,,,,,,,,,,,,,,,,,,,,,,,,,,,,,,,,001,33,2020_Jan_30_1101,spring_faces,3.1.5,60.12314458541963,
condition files/Stage0c_2.xlsx,0c,phi,alpha,h,"['h', 'g']","['Chess', 'Go']","[-0.15, 0.5]","[0.15, 0.5]",1,1,0,13,13,13,0,3,3,1,,,,,,,,,,,,,,,,,,,,,,,,,,,,,,,,,,,,,,,,,,,,,,,,,,,,,,,,,,,,,,,215.76753060599913,None,215.76753060599913,None,215.76753060599913,None,h,1,0.6276740889989014,217.30188060599903,None,217.30188060599903,None,217.30188060599903,None,217.98494495900013,None,217.98494495900013,None,217.98494495900013,None,217.98494495900013,None,,,,,,,,,,,,,,,,,,,,,,,,,,,,,,,,,,,,,,,,,,,,001,33,2020_Jan_30_1101,spring_faces,3.1.5,60.12314458541963,
condition files/Stage0c_1.xlsx,0c,alpha,phi,h,"['h', 'g']","['Chess', 'Go']","[-0.15, 0.5]","[0.15, 0.5]",1,1,0,14,14,14,0,0,0,1,,,,,,,,,,,,,,,,,,,,,,,,,,,,,,,,,,,,,,,,,,,,,,,,,,,,,,,,,,,,,,,219.96813865699914,None,219.96813865699914,None,219.96813865699914,None,h,1,1.2597884499991778,221.5017914709988,None,221.5017914709988,None,221.5017914709988,None,222.8027656129998,None,222.8027656129998,None,222.8027656129998,None,222.8027656129998,None,,,,,,,,,,,,,,,,,,,,,,,,,,,,,,,,,,,,,,,,,,,,001,33,2020_Jan_30_1101,spring_faces,3.1.5,60.12314458541963,
condition files/Stage0c_1.xlsx,0c,beta,theta,g,"['h', 'g']","['Chess', 'Go']","[-0.15, 0.5]","[0.15, 0.5]",1,1,0,14,14,14,0,1,1,2,,,,,,,,,,,,,,,,,,,,,,,,,,,,,,,,,,,,,,,,,,,,,,,,,,,,,,,,,,,,,,,224.78479588699884,None,224.78479588699884,None,224.78479588699884,None,g,1,0.61913419099983,226.31843350999952,None,226.31843350999952,None,226.31843350999952,None,227.0016704059999,None,227.0016704059999,None,227.0016704059999,None,227.0016704059999,None,,,,,,,,,,,,,,,,,,,,,,,,,,,,,,,,,,,,,,,,,,,,001,33,2020_Jan_30_1101,spring_faces,3.1.5,60.12314458541963,
condition files/Stage0c_1.xlsx,0c,theta,alpha,h,"['h', 'g']","['Chess', 'Go']","[-0.15, 0.5]","[0.15, 0.5]",1,1,0,14,14,14,0,2,2,0,,,,,,,,,,,,,,,,,,,,,,,,,,,,,,,,,,,,,,,,,,,,,,,,,,,,,,,,,,,,,,,228.9683317529998,None,228.9683317529998,None,228.9683317529998,None,h,1,0.8038698130003468,230.5017009410003,None,230.5017009410003,None,230.5017009410003,None,231.36856919799902,None,231.36856919799902,None,231.36856919799902,None,231.36856919799902,None,,,,,,,,,,,,,,,,,,,,,,,,,,,,,,,,,,,,,,,,,,,,001,33,2020_Jan_30_1101,spring_faces,3.1.5,60.12314458541963,
condition files/Stage0c_1.xlsx,0c,phi,beta,g,"['h', 'g']","['Chess', 'Go']","[-0.15, 0.5]","[0.15, 0.5]",1,1,0,14,14,14,0,3,3,3,,,,,,,,,,,,,,,,,,,,,,,,,,,,,,,,,,,,,,,,,,,,,,,,,,,,,,,,,,,,,,,233.33482814200033,None,233.33482814200033,None,233.33482814200033,None,g,1,0.7092234780011495,234.86841388500034,None,234.86841388500034,None,234.86841388500034,None,235.63509413300017,None,235.63509413300017,None,235.63509413300017,None,235.63509413300017,None,,,,,,,,,,,,,,,,,,,,,,,,,,,,,,,,,,,,,,,,,,,,001,33,2020_Jan_30_1101,spring_faces,3.1.5,60.12314458541963,
condition files/Stage0c_2.xlsx,0c,theta,beta,g,"['h', 'g']","['Chess', 'Go']","[-0.15, 0.5]","[0.15, 0.5]",1,1,0,15,15,15,0,0,0,2,,,,,,,,,,,,,,,,,,,,,,,,,,,,,,,,,,,,,,,,,,,,,,,,,,,,,,,,,,,,,,,237.61828764799975,None,237.61828764799975,None,237.61828764799975,None,g,1,0.745877687999382,239.15163946699977,None,239.15163946699977,None,239.15163946699977,None,239.93813071099976,None,239.93813071099976,None,239.93813071099976,None,239.93813071099976,None,,,,,,,,,,,,,,,,,,,,,,,,,,,,,,,,,,,,,,,,,,,,001,33,2020_Jan_30_1101,spring_faces,3.1.5,60.12314458541963,
condition files/Stage0c_2.xlsx,0c,beta,phi,g,"['h', 'g']","['Chess', 'Go']","[-0.15, 0.5]","[0.15, 0.5]",1,1,0,15,15,15,0,1,1,3,,,,,,,,,,,,,,,,,,,,,,,,,,,,,,,,,,,,,,,,,,,,,,,,,,,,,,,,,,,,,,,241.91817835599977,None,241.91817835599977,None,241.91817835599977,None,g,1,0.6378285800001322,243.4517505240001,None,243.4517505240001,None,243.4517505240001,None,244.13598850699964,None,244.13598850699964,None,244.13598850699964,None,244.13598850699964,None,,,,,,,,,,,,,,,,,,,,,,,,,,,,,,,,,,,,,,,,,,,,001,33,2020_Jan_30_1101,spring_faces,3.1.5,60.12314458541963,
condition files/Stage0c_2.xlsx,0c,alpha,theta,h,"['h', 'g']","['Chess', 'Go']","[-0.15, 0.5]","[0.15, 0.5]",1,1,0,15,15,15,0,2,2,0,,,,,,,,,,,,,,,,,,,,,,,,,,,,,,,,,,,,,,,,,,,,,,,,,,,,,,,,,,,,,,,246.11828562600022,None,246.11828562600022,None,246.11828562600022,None,h,1,0.582077704000767,247.65148869599943,None,247.65148869599943,None,247.65148869599943,None,248.2852401780001,None,248.2852401780001,None,248.2852401780001,None,248.2852401780001,None,,,,,,,,,,,,,,,,,,,,,,,,,,,,,,,,,,,,,,,,,,,,001,33,2020_Jan_30_1101,spring_faces,3.1.5,60.12314458541963,
condition files/Stage0c_2.xlsx,0c,phi,alpha,h,"['h', 'g']","['Chess', 'Go']","[-0.15, 0.5]","[0.15, 0.5]",1,1,0,15,15,15,0,3,3,1,,,,,,,,,,,,,,,,,,,,,,,,,,,,,,,,,,,,,,,,,,,,,,,,,,,,,,,,,,,,,,,250.25104383100006,None,250.25104383100006,None,250.25104383100006,None,h,1,0.7368033419988933,251.7847722639999,None,251.7847722639999,None,251.7847722639999,None,252.56821015499918,None,252.56821015499918,None,252.56821015499918,None,252.56821015499918,None,,,,,,,,,,,,,,,,,,,,,,,,,,,,,,,,,,,,,,,,,,,,001,33,2020_Jan_30_1101,spring_faces,3.1.5,60.12314458541963,
condition files/Stage0c_1.xlsx,0c,beta,theta,g,"['h', 'g']","['Chess', 'Go']","[-0.15, 0.5]","[0.15, 0.5]",1,1,0,16,16,16,0,0,0,2,,,,,,,,,,,,,,,,,,,,,,,,,,,,,,,,,,,,,,,,,,,,,,,,,,,,,,,,,,,,,,,254.56827589599925,None,254.56827589599925,None,254.56827589599925,None,g,1,0.6758466580013192,256.1018044709999,None,256.1018044709999,None,256.1018044709999,None,256.83514343099887,None,256.83514343099887,None,256.83514343099887,None,256.83514343099887,None,,,,,,,,,,,,,,,,,,,,,,,,,,,,,,,,,,,,,,,,,,,,001,33,2020_Jan_30_1101,spring_faces,3.1.5,60.12314458541963,
condition files/Stage0c_1.xlsx,0c,phi,beta,g,"['h', 'g']","['Chess', 'Go']","[-0.15, 0.5]","[0.15, 0.5]",1,1,0,16,16,16,0,1,1,3,,,,,,,,,,,,,,,,,,,,,,,,,,,,,,,,,,,,,,,,,,,,,,,,,,,,,,,,,,,,,,,258.8015170999988,None,258.8015170999988,None,258.8015170999988,None,g,1,0.6831121960003657,260.3344530859995,None,260.3344530859995,None,260.3344530859995,None,261.05195811500016,None,261.05195811500016,None,261.05195811500016,None,261.05195811500016,None,,,,,,,,,,,,,,,,,,,,,,,,,,,,,,,,,,,,,,,,,,,,001,33,2020_Jan_30_1101,spring_faces,3.1.5,60.12314458541963,
condition files/Stage0c_1.xlsx,0c,theta,alpha,h,"['h', 'g']","['Chess', 'Go']","[-0.15, 0.5]","[0.15, 0.5]",1,1,0,16,16,16,0,2,2,0,,,,,,,,,,,,,,,,,,,,,,,,,,,,,,,,,,,,,,,,,,,,,,,,,,,,,,,,,,,,,,,263.03506437899887,None,263.03506437899887,None,263.03506437899887,None,h,1,0.7531266969999706,264.5684554319996,None,264.5684554319996,None,264.5684554319996,None,265.384830220999,None,265.384830220999,None,265.384830220999,None,265.384830220999,None,,,,,,,,,,,,,,,,,,,,,,,,,,,,,,,,,,,,,,,,,,,,001,33,2020_Jan_30_1101,spring_faces,3.1.5,60.12314458541963,
condition files/Stage0c_1.xlsx,0c,alpha,phi,h,"['h', 'g']","['Chess', 'Go']","[-0.15, 0.5]","[0.15, 0.5]",1,1,0,16,16,16,0,3,3,1,,,,,,,,,,,,,,,,,,,,,,,,,,,,,,,,,,,,,,,,,,,,,,,,,,,,,,,,,,,,,,,267.3510275159988,None,267.3510275159988,None,267.3510275159988,None,h,1,0.772497960999317,268.88507336099974,None,268.88507336099974,None,268.88507336099974,None,269.70152795799913,None,269.70152795799913,None,269.70152795799913,None,269.70152795799913,None,,,,,,,,,,,,,,,,,,,,,,,,,,,,,,,,,,,,,,,,,,,,001,33,2020_Jan_30_1101,spring_faces,3.1.5,60.12314458541963,
condition files/Stage0c_2.xlsx,0c,theta,beta,g,"['h', 'g']","['Chess', 'Go']","[-0.15, 0.5]","[0.15, 0.5]",1,1,0,17,17,17,0,0,0,2,,,,,,,,,,,,,,,,,,,,,,,,,,,,,,,,,,,,,,,,,,,,,,,,,,,,,,,,,,,,,,,271.7019901929998,None,271.7019901929998,None,271.7019901929998,None,g,1,0.5983763559997897,273.2351980309995,None,273.2351980309995,None,273.2351980309995,None,273.88489836999906,None,273.88489836999906,None,273.88489836999906,None,273.88489836999906,None,,,,,,,,,,,,,,,,,,,,,,,,,,,,,,,,,,,,,,,,,,,,001,33,2020_Jan_30_1101,spring_faces,3.1.5,60.12314458541963,
condition files/Stage0c_2.xlsx,0c,phi,alpha,h,"['h', 'g']","['Chess', 'Go']","[-0.15, 0.5]","[0.15, 0.5]",1,1,0,17,17,17,0,1,1,1,,,,,,,,,,,,,,,,,,,,,,,,,,,,,,,,,,,,,,,,,,,,,,,,,,,,,,,,,,,,,,,275.8515541609995,None,275.8515541609995,None,275.8515541609995,None,h,1,0.7849887709999166,277.38455294899904,None,277.38455294899904,None,277.38455294899904,None,278.2350966869999,None,278.2350966869999,None,278.2350966869999,None,278.2350966869999,None,,,,,,,,,,,,,,,,,,,,,,,,,,,,,,,,,,,,,,,,,,,,001,33,2020_Jan_30_1101,spring_faces,3.1.5,60.12314458541963,
condition files/Stage0c_2.xlsx,0c,beta,phi,g,"['h', 'g']","['Chess', 'Go']","[-0.15, 0.5]","[0.15, 0.5]",1,1,0,17,17,17,0,2,2,3,,,,,,,,,,,,,,,,,,,,,,,,,,,,,,,,,,,,,,,,,,,,,,,,,,,,,,,,,,,,,,,280.20126752800024,None,280.20126752800024,None,280.20126752800024,None,g,1,0.6104247229995963,281.73521533299936,None,281.73521533299936,None,281.73521533299936,None,282.40151883,None,282.40151883,None,282.40151883,None,282.40151883,None,,,,,,,,,,,,,,,,,,,,,,,,,,,,,,,,,,,,,,,,,,,,001,33,2020_Jan_30_1101,spring_faces,3.1.5,60.12314458541963,
condition files/Stage0c_2.xlsx,0c,alpha,theta,h,"['h', 'g']","['Chess', 'Go']","[-0.15, 0.5]","[0.15, 0.5]",1,1,0,17,17,17,0,3,3,0,,,,,,,,,,,,,,,,,,,,,,,,,,,,,,,,,,,,,,,,,,,,,,,,,,,,,,,,,,,,,,,284.3681932929994,None,284.3681932929994,None,284.3681932929994,None,h,1,0.716253209999195,285.90131161299905,None,285.90131161299905,None,285.90131161299905,None,286.66852147200007,None,286.66852147200007,None,286.66852147200007,None,286.66852147200007,None,,,,,,,,,,,,,,,,,,,,,,,,,,,,,,,,,,,,,,,,,,,,001,33,2020_Jan_30_1101,spring_faces,3.1.5,60.12314458541963,
,,,,,,,,,,,,,,,,,,,,,,,,,,,,,,,,,,,,,,,,,,,,,,,,,,,,,,,,,,,,,,,,,,,,,,,,,,,,,,,,,,,,,,,,,,,,,,,,,,,,,,,,288.65195910200055,None,space,1.7339460430011968,293.65158620200054,None,,,,,,,,,,,,,,,,,,,,,,,,,,,,,,,,,,,,,,001,33,2020_Jan_30_1101,spring_faces,3.1.5,60.12314458541963,
condition files/Stage1_1.xlsx,,B3,T3,c,"['c', 'm']","['Clue', 'Monopoly']","[-0.15, 0.5]","[0.15, 0.5]",1,1,,,,,,,,,0,0,0,0,0,0,0,4,,,,,,,,,,,,,,,,,,,,,,,,,,,,,,,,,,,,,,,,,,,,,,,,,,,,,,,295.4515109570002,None,295.4515109570002,None,295.4515109570002,None,m,0,3.1179249950000667,297.05160374299885,None,297.05160374299885,None,297.05160374299885,None,300.2518747599988,None,300.2518747599988,None,300.2518747599988,None,300.2518747599988,None,,,,,,,293.65158620200054,None,,,,,,,,,,,,,,,,,,,,,,,,,,,,,,,,,,,,001,33,2020_Jan_30_1101,spring_faces,3.1.5,60.12314458541963,
condition files/Stage1_1.xlsx,,B1,T2,c,"['c', 'm']","['Clue', 'Monopoly']","[-0.15, 0.5]","[0.15, 0.5]",1,1,,,,,,,,,0,0,0,0,0,1,1,1,,,,,,,,,,,,,,,,,,,,,,,,,,,,,,,,,,,,,,,,,,,,,,,,,,,,,,,302.201512145999,None,302.201512145999,None,302.201512145999,None,m,0,1.18699774200104,303.73459203399943,None,303.73459203399943,None,303.73459203399943,None,304.9849516710001,None,304.9849516710001,None,304.9849516710001,None,304.9849516710001,None,,,,,,,,,,,,,,,,,,,,,,,,,,,,,,,,,,,,,,,,,,,,001,33,2020_Jan_30_1101,spring_faces,3.1.5,60.12314458541963,
condition files/Stage1_1.xlsx,,B2,T1,m,"['c', 'm']","['Clue', 'Monopoly']","[-0.15, 0.5]","[0.15, 0.5]",1,1,,,,,,,,,0,0,0,0,0,2,2,2,,,,,,,,,,,,,,,,,,,,,,,,,,,,,,,,,,,,,,,,,,,,,,,,,,,,,,,306.95157322699924,None,306.95157322699924,None,306.95157322699924,None,c,0,0.817768683000395,308.535821984,None,308.535821984,None,308.535821984,None,309.43504901599954,None,309.43504901599954,None,309.43504901599954,None,309.43504901599954,None,,,,,,,,,,,,,,,,,,,,,,,,,,,,,,,,,,,,,,,,,,,,001,33,2020_Jan_30_1101,spring_faces,3.1.5,60.12314458541963,
condition files/Stage1_1.xlsx,,T4,B3,m,"['c', 'm']","['Clue', 'Monopoly']","[-0.15, 0.5]","[0.15, 0.5]",1,1,,,,,,,,,0,0,0,0,0,3,3,6,,,,,,,,,,,,,,,,,,,,,,,,,,,,,,,,,,,,,,,,,,,,,,,,,,,,,,,311.3849548779999,None,311.3849548779999,None,311.3849548779999,None,c,0,0.9957635900009336,312.9177954049992,None,312.9177954049992,None,312.9177954049992,None,313.96880861499994,None,313.96880861499994,None,313.96880861499994,None,313.96880861499994,None,,,,,,,,,,,,,,,,,,,,,,,,,,,,,,,,,,,,,,,,,,,,001,33,2020_Jan_30_1101,spring_faces,3.1.5,60.12314458541963,
condition files/Stage1_1.xlsx,,T3,B4,c,"['c', 'm']","['Clue', 'Monopoly']","[-0.15, 0.5]","[0.15, 0.5]",1,1,,,,,,,,,0,0,0,0,0,4,4,5,,,,,,,,,,,,,,,,,,,,,,,,,,,,,,,,,,,,,,,,,,,,,,,,,,,,,,,315.93493036700056,None,315.93493036700056,None,315.93493036700056,None,m,0,0.5245795560003899,317.48505893400034,None,317.48505893400034,None,317.48505893400034,None,318.08497867999904,None,318.08497867999904,None,318.08497867999904,None,318.08497867999904,None,,,,,,,,,,,,,,,,,,,,,,,,,,,,,,,,,,,,,,,,,,,,001,33,2020_Jan_30_1101,spring_faces,3.1.5,60.12314458541963,
condition files/Stage1_1.xlsx,,T2,B2,m,"['c', 'm']","['Clue', 'Monopoly']","[-0.15, 0.5]","[0.15, 0.5]",1,1,,,,,,,,,0,0,0,0,0,5,5,3,,,,,,,,,,,,,,,,,,,,,,,,,,,,,,,,,,,,,,,,,,,,,,,,,,,,,,,320.03422619999947,None,320.03422619999947,None,320.03422619999947,None,c,0,0.7279255470002681,321.569686077999,None,321.569686077999,None,321.569686077999,None,322.35225878299934,None,322.35225878299934,None,322.35225878299934,None,322.35225878299934,None,,,,,,,,,,,,,,,,,,,,,,,,,,,,,,,,,,,,,,,,,,,,001,33,2020_Jan_30_1101,spring_faces,3.1.5,60.12314458541963,
condition files/Stage1_1.xlsx,,T1,B1,c,"['c', 'm']","['Clue', 'Monopoly']","[-0.15, 0.5]","[0.15, 0.5]",1,1,,,,,,,,,0,0,0,0,0,6,6,0,,,,,,,,,,,,,,,,,,,,,,,,,,,,,,,,,,,,,,,,,,,,,,,,,,,,,,,324.31836778199977,None,324.31836778199977,None,324.31836778199977,None,m,0,0.31786710000051244,325.85169313000006,None,325.85169313000006,None,325.85169313000006,None,326.23700997299966,None,326.23700997299966,None,326.23700997299966,None,326.23700997299966,None,,,,,,,,,,,,,,,,,,,,,,,,,,,,,,,,,,,,,,,,,,,,001,33,2020_Jan_30_1101,spring_faces,3.1.5,60.12314458541963,
condition files/Stage1_1.xlsx,,B4,T4,m,"['c', 'm']","['Clue', 'Monopoly']","[-0.15, 0.5]","[0.15, 0.5]",1,1,,,,,,,,,0,0,0,0,0,7,7,7,,,,,,,,,,,,,,,,,,,,,,,,,,,,,,,,,,,,,,,,,,,,,,,,,,,,,,,328.20155201799935,None,328.20155201799935,None,328.20155201799935,None,m,1,0.33917109399953915,329.73442345699914,None,329.73442345699914,None,329.73442345699914,None,330.13678570499906,None,330.13678570499906,None,330.13678570499906,None,330.13678570499906,None,,,,,,,,,,,,,,,,,,,,,,,,,,,,,,,,,,,,,,,,,,,,001,33,2020_Jan_30_1101,spring_faces,3.1.5,60.12314458541963,
condition files/Stage1_2.xlsx,,T1,B2,m,"['c', 'm']","['Clue', 'Monopoly']","[-0.15, 0.5]","[0.15, 0.5]",1,1,,,,,,,,,0,1,1,1,0,0,0,2,,,,,,,,,,,,,,,,,,,,,,,,,,,,,,,,,,,,,,,,,,,,,,,,,,,,,,,332.11802823499966,None,332.11802823499966,None,332.11802823499966,None,c,0,0.6939598389999446,333.6675812379999,None,333.6675812379999,None,333.6675812379999,None,334.4180143800004,None,334.4180143800004,None,334.4180143800004,None,334.4180143800004,None,,,,,,,,,,,,,,,,,,,,,,,,,,,,,,,,,,,,,,,,,,,,001,33,2020_Jan_30_1101,spring_faces,3.1.5,60.12314458541963,
condition files/Stage1_2.xlsx,,T3,B3,c,"['c', 'm']","['Clue', 'Monopoly']","[-0.15, 0.5]","[0.15, 0.5]",1,1,,,,,,,,,0,1,1,1,0,1,1,4,,,,,,,,,,,,,,,,,,,,,,,,,,,,,,,,,,,,,,,,,,,,,,,,,,,,,,,336.3845537849993,None,336.3845537849993,None,336.3845537849993,None,m,0,1.5800394450016029,337.9175137309994,None,337.9175137309994,None,337.9175137309994,None,339.55459431300005,None,339.55459431300005,None,339.55459431300005,None,339.55459431300005,None,,,,,,,,,,,,,,,,,,,,,,,,,,,,,,,,,,,,,,,,,,,,001,33,2020_Jan_30_1101,spring_faces,3.1.5,60.12314458541963,
condition files/Stage1_2.xlsx,,T4,B4,m,"['c', 'm']","['Clue', 'Monopoly']","[-0.15, 0.5]","[0.15, 0.5]",1,1,,,,,,,,,0,1,1,1,0,2,2,7,,,,,,,,,,,,,,,,,,,,,,,,,,,,,,,,,,,,,,,,,,,,,,,,,,,,,,,341.51827335899907,None,341.51827335899907,None,341.51827335899907,None,c,0,0.6686294920000364,343.05296230599924,None,343.05296230599924,None,343.05296230599924,None,343.7872395430004,None,343.7872395430004,None,343.7872395430004,None,343.7872395430004,None,,,,,,,,,,,,,,,,,,,,,,,,,,,,,,,,,,,,,,,,,,,,001,33,2020_Jan_30_1101,spring_faces,3.1.5,60.12314458541963,
condition files/Stage1_2.xlsx,,T2,B1,c,"['c', 'm']","['Clue', 'Monopoly']","[-0.15, 0.5]","[0.15, 0.5]",1,1,,,,,,,,,0,1,1,1,0,3,3,1,,,,,,,,,,,,,,,,,,,,,,,,,,,,,,,,,,,,,,,,,,,,,,,,,,,,,,,345.7511627120002,None,345.7511627120002,None,345.7511627120002,None,m,0,0.4842297069990309,347.30129996100004,None,347.30129996100004,None,347.30129996100004,None,347.8519714619997,None,347.8519714619997,None,347.8519714619997,None,347.8519714619997,None,,,,,,,,,,,,,,,,,,,,,,,,,,,,,,,,,,,,,,,,,,,,001,33,2020_Jan_30_1101,spring_faces,3.1.5,60.12314458541963,
condition files/Stage1_2.xlsx,,B4,T3,c,"['c', 'm']","['Clue', 'Monopoly']","[-0.15, 0.5]","[0.15, 0.5]",1,1,,,,,,,,,0,1,1,1,0,4,4,5,,,,,,,,,,,,,,,,,,,,,,,,,,,,,,,,,,,,,,,,,,,,,,,,,,,,,,,349.8182328849998,None,349.8182328849998,None,349.8182328849998,None,m,0,1.0582854920012323,351.35139444800006,None,351.35139444800006,None,351.35139444800006,None,352.46849769599976,None,352.46849769599976,None,352.46849769599976,None,352.46849769599976,None,,,,,,,,,,,,,,,,,,,,,,,,,,,,,,,,,,,,,,,,,,,,001,33,2020_Jan_30_1101,spring_faces,3.1.5,60.12314458541963,
condition files/Stage1_2.xlsx,,B2,T2,m,"['c', 'm']","['Clue', 'Monopoly']","[-0.15, 0.5]","[0.15, 0.5]",1,1,,,,,,,,,0,1,1,1,0,5,5,3,,,,,,,,,,,,,,,,,,,,,,,,,,,,,,,,,,,,,,,,,,,,,,,,,,,,,,,354.43483415599985,None,354.43483415599985,None,354.43483415599985,None,m,1,1.3188729100002092,355.9707182479997,None,355.9707182479997,None,355.9707182479997,None,357.36819520300014,None,357.36819520300014,None,357.36819520300014,None,357.36819520300014,None,,,,,,,,,,,,,,,,,,,,,,,,,,,,,,,,,,,,,,,,,,,,001,33,2020_Jan_30_1101,spring_faces,3.1.5,60.12314458541963,
condition files/Stage1_2.xlsx,,B3,T4,m,"['c', 'm']","['Clue', 'Monopoly']","[-0.15, 0.5]","[0.15, 0.5]",1,1,,,,,,,,,0,1,1,1,0,6,6,6,,,,,,,,,,,,,,,,,,,,,,,,,,,,,,,,,,,,,,,,,,,,,,,,,,,,,,,359.3183020739998,None,359.3183020739998,None,359.3183020739998,None,c,0,1.1260499629988772,360.8516023209995,None,360.8516023209995,None,360.8516023209995,None,362.035296434,None,362.035296434,None,362.035296434,None,362.035296434,None,,,,,,,,,,,,,,,,,,,,,,,,,,,,,,,,,,,,,,,,,,,,001,33,2020_Jan_30_1101,spring_faces,3.1.5,60.12314458541963,
condition files/Stage1_2.xlsx,,B1,T1,c,"['c', 'm']","['Clue', 'Monopoly']","[-0.15, 0.5]","[0.15, 0.5]",1,1,,,,,,,,,0,1,1,1,0,7,7,0,,,,,,,,,,,,,,,,,,,,,,,,,,,,,,,,,,,,,,,,,,,,,,,,,,,,,,,364.00151359699885,None,364.00151359699885,None,364.00151359699885,None,c,1,1.7545393019991025,365.55103874700035,None,365.55103874700035,None,365.55103874700035,None,367.38438562400006,None,367.38438562400006,None,367.38438562400006,None,367.38438562400006,None,,,,,,,,,,,,,,,,,,,,,,,,,,,,,,,,,,,,,,,,,,,,001,33,2020_Jan_30_1101,spring_faces,3.1.5,60.12314458541963,
condition files/Stage1_1.xlsx,,T3,B4,c,"['c', 'm']","['Clue', 'Monopoly']","[-0.15, 0.5]","[0.15, 0.5]",1,1,,,,,,,,,0,2,2,2,0,0,0,5,,,,,,,,,,,,,,,,,,,,,,,,,,,,,,,,,,,,,,,,,,,,,,,,,,,,,,,369.3519822170001,None,369.3519822170001,None,369.3519822170001,None,m,0,1.8110872320012277,370.8864676430003,None,370.8864676430003,None,370.8864676430003,None,372.751520292999,None,372.751520292999,None,372.751520292999,None,372.751520292999,None,,,,,,,,,,,,,,,,,,,,,,,,,,,,,,,,,,,,,,,,,,,,001,33,2020_Jan_30_1101,spring_faces,3.1.5,60.12314458541963,
condition files/Stage1_1.xlsx,,B1,T2,c,"['c', 'm']","['Clue', 'Monopoly']","[-0.15, 0.5]","[0.15, 0.5]",1,1,,,,,,,,,0,2,2,2,0,1,1,1,,,,,,,,,,,,,,,,,,,,,,,,,,,,,,,,,,,,,,,,,,,,,,,,,,,,,,,374.71818321200044,None,374.71818321200044,None,374.71818321200044,None,m,0,1.2131776019996323,376.26856589199997,None,376.26856589199997,None,376.26856589199997,None,377.53505068199956,None,377.53505068199956,None,377.53505068199956,None,377.53505068199956,None,,,,,,,,,,,,,,,,,,,,,,,,,,,,,,,,,,,,,,,,,,,,001,33,2020_Jan_30_1101,spring_faces,3.1.5,60.12314458541963,
condition files/Stage1_1.xlsx,,B3,T3,c,"['c', 'm']","['Clue', 'Monopoly']","[-0.15, 0.5]","[0.15, 0.5]",1,1,,,,,,,,,0,2,2,2,0,2,2,4,,,,,,,,,,,,,,,,,,,,,,,,,,,,,,,,,,,,,,,,,,,,,,,,,,,,,,,379.5015401820001,None,379.5015401820001,None,379.5015401820001,None,m,0,0.9910071199992672,381.0346275569991,None,381.0346275569991,None,381.0346275569991,None,382.084564195,None,382.084564195,None,382.084564195,None,382.084564195,None,,,,,,,,,,,,,,,,,,,,,,,,,,,,,,,,,,,,,,,,,,,,001,33,2020_Jan_30_1101,spring_faces,3.1.5,60.12314458541963,
condition files/Stage1_1.xlsx,,T1,B1,c,"['c', 'm']","['Clue', 'Monopoly']","[-0.15, 0.5]","[0.15, 0.5]",1,1,,,,,,,,,0,2,2,2,0,3,3,0,,,,,,,,,,,,,,,,,,,,,,,,,,,,,,,,,,,,,,,,,,,,,,,,,,,,,,,384.0515895360004,None,384.0515895360004,None,384.0515895360004,None,m,0,0.6472025330003817,385.5863791369993,None,385.5863791369993,None,385.5863791369993,None,386.28473659500014,None,386.28473659500014,None,386.28473659500014,None,386.28473659500014,None,,,,,,,,,,,,,,,,,,,,,,,,,,,,,,,,,,,,,,,,,,,,001,33,2020_Jan_30_1101,spring_faces,3.1.5,60.12314458541963,
condition files/Stage1_1.xlsx,,T4,B3,m,"['c', 'm']","['Clue', 'Monopoly']","[-0.15, 0.5]","[0.15, 0.5]",1,1,,,,,,,,,0,2,2,2,0,4,4,6,,,,,,,,,,,,,,,,,,,,,,,,,,,,,,,,,,,,,,,,,,,,,,,,,,,,,,,388.2515268619991,None,388.2515268619991,None,388.2515268619991,None,c,0,0.5276782149994688,389.78590151299977,None,389.78590151299977,None,389.78590151299977,None,390.3692314460004,None,390.3692314460004,None,390.3692314460004,None,390.3692314460004,None,,,,,,,,,,,,,,,,,,,,,,,,,,,,,,,,,,,,,,,,,,,,001,33,2020_Jan_30_1101,spring_faces,3.1.5,60.12314458541963,
condition files/Stage1_1.xlsx,,B4,T4,m,"['c', 'm']","['Clue', 'Monopoly']","[-0.15, 0.5]","[0.15, 0.5]",1,1,,,,,,,,,0,2,2,2,0,5,5,7,,,,,,,,,,,,,,,,,,,,,,,,,,,,,,,,,,,,,,,,,,,,,,,,,,,,,,,392.33437386699916,None,392.33437386699916,None,392.33437386699916,None,m,1,0.8136855080010719,393.86814578899975,None,393.86814578899975,None,393.86814578899975,None,394.73514593399887,None,394.73514593399887,None,394.73514593399887,None,394.73514593399887,None,,,,,,,,,,,,,,,,,,,,,,,,,,,,,,,,,,,,,,,,,,,,001,33,2020_Jan_30_1101,spring_faces,3.1.5,60.12314458541963,
condition files/Stage1_1.xlsx,,B2,T1,m,"['c', 'm']","['Clue', 'Monopoly']","[-0.15, 0.5]","[0.15, 0.5]",1,1,,,,,,,,,0,2,2,2,0,6,6,2,,,,,,,,,,,,,,,,,,,,,,,,,,,,,,,,,,,,,,,,,,,,,,,,,,,,,,,396.7016567209994,None,396.7016567209994,None,396.7016567209994,None,c,0,1.3577478429997427,398.2359146149993,None,398.2359146149993,None,398.2359146149993,None,399.6515867319995,None,399.6515867319995,None,399.6515867319995,None,399.6515867319995,None,,,,,,,,,,,,,,,,,,,,,,,,,,,,,,,,,,,,,,,,,,,,001,33,2020_Jan_30_1101,spring_faces,3.1.5,60.12314458541963,
condition files/Stage1_1.xlsx,,T2,B2,m,"['c', 'm']","['Clue', 'Monopoly']","[-0.15, 0.5]","[0.15, 0.5]",1,1,,,,,,,,,0,2,2,2,0,7,7,3,,,,,,,,,,,,,,,,,,,,,,,,,,,,,,,,,,,,,,,,,,,,,,,,,,,,,,,401.6183838249999,None,401.6183838249999,None,401.6183838249999,None,c,0,1.2726647059989773,403.1529999149989,None,403.1529999149989,None,403.1529999149989,None,404.4849386909991,None,404.4849386909991,None,404.4849386909991,None,404.4849386909991,None,,,,,,,,,,,,,,,,,,,,,,,,,,,,,,,,,,,,,,,,,,,,001,33,2020_Jan_30_1101,spring_faces,3.1.5,60.12314458541963,
condition files/Stage1_2.xlsx,,T4,B4,m,"['c', 'm']","['Clue', 'Monopoly']","[-0.15, 0.5]","[0.15, 0.5]",1,1,,,,,,,,,0,3,3,3,0,0,0,7,,,,,,,,,,,,,,,,,,,,,,,,,,,,,,,,,,,,,,,,,,,,,,,,,,,,,,,406.4676466870005,None,406.4676466870005,None,406.4676466870005,None,m,1,0.8549643869991996,408.00264025899924,None,408.00264025899924,None,408.00264025899924,None,408.9183017359992,None,408.9183017359992,None,408.9183017359992,None,408.9183017359992,None,,,,,,,,,,,,,,,,,,,,,,,,,,,,,,,,,,,,,,,,,,,,001,33,2020_Jan_30_1101,spring_faces,3.1.5,60.12314458541963,
condition files/Stage1_2.xlsx,,B2,T2,m,"['c', 'm']","['Clue', 'Monopoly']","[-0.15, 0.5]","[0.15, 0.5]",1,1,,,,,,,,,0,3,3,3,0,1,1,3,,,,,,,,,,,,,,,,,,,,,,,,,,,,,,,,,,,,,,,,,,,,,,,,,,,,,,,410.88480543600053,None,410.88480543600053,None,410.88480543600053,None,c,0,1.2395907049995003,412.41805811499944,None,412.41805811499944,None,412.41805811499944,None,413.7176294719993,None,413.7176294719993,None,413.7176294719993,None,413.7176294719993,None,,,,,,,,,,,,,,,,,,,,,,,,,,,,,,,,,,,,,,,,,,,,001,33,2020_Jan_30_1101,spring_faces,3.1.5,60.12314458541963,
condition files/Stage1_2.xlsx,,B1,T1,c,"['c', 'm']","['Clue', 'Monopoly']","[-0.15, 0.5]","[0.15, 0.5]",1,1,,,,,,,,,0,3,3,3,0,2,2,0,,,,,,,,,,,,,,,,,,,,,,,,,,,,,,,,,,,,,,,,,,,,,,,,,,,,,,,415.68456432200037,None,415.68456432200037,None,415.68456432200037,None,m,0,1.2065345860009984,417.2350996519999,None,417.2350996519999,None,417.2350996519999,None,418.5021019699998,None,418.5021019699998,None,418.5021019699998,None,418.5021019699998,None,,,,,,,,,,,,,,,,,,,,,,,,,,,,,,,,,,,,,,,,,,,,001,33,2020_Jan_30_1101,spring_faces,3.1.5,60.12314458541963,
condition files/Stage1_2.xlsx,,B4,T3,c,"['c', 'm']","['Clue', 'Monopoly']","[-0.15, 0.5]","[0.15, 0.5]",1,1,,,,,,,,,0,3,3,3,0,3,3,5,,,,,,,,,,,,,,,,,,,,,,,,,,,,,,,,,,,,,,,,,,,,,,,,,,,,,,,420.4679286729988,None,420.4679286729988,None,420.4679286729988,None,c,1,1.4162216750009975,422.0013477909997,None,422.0013477909997,None,422.0013477909997,None,423.4679857150004,None,423.4679857150004,None,423.4679857150004,None,423.4679857150004,None,,,,,,,,,,,,,,,,,,,,,,,,,,,,,,,,,,,,,,,,,,,,001,33,2020_Jan_30_1101,spring_faces,3.1.5,60.12314458541963,
condition files/Stage1_2.xlsx,,T1,B2,m,"['c', 'm']","['Clue', 'Monopoly']","[-0.15, 0.5]","[0.15, 0.5]",1,1,,,,,,,,,0,3,3,3,0,4,4,2,,,,,,,,,,,,,,,,,,,,,,,,,,,,,,,,,,,,,,,,,,,,,,,,,,,,,,,425.43493980399944,None,425.43493980399944,None,425.43493980399944,None,m,1,1.5845378009998967,426.98498442100026,None,426.98498442100026,None,426.98498442100026,None,428.65146483100034,None,428.65146483100034,None,428.65146483100034,None,428.65146483100034,None,,,,,,,,,,,,,,,,,,,,,,,,,,,,,,,,,,,,,,,,,,,,001,33,2020_Jan_30_1101,spring_faces,3.1.5,60.12314458541963,
condition files/Stage1_2.xlsx,,T3,B3,c,"['c', 'm']","['Clue', 'Monopoly']","[-0.15, 0.5]","[0.15, 0.5]",1,1,,,,,,,,,0,3,3,3,0,5,5,4,,,,,,,,,,,,,,,,,,,,,,,,,,,,,,,,,,,,,,,,,,,,,,,,,,,,,,,430.60100359900025,None,430.60100359900025,None,430.60100359900025,None,m,0,1.858758571999715,432.13490564600033,None,432.13490564600033,None,432.13490564600033,None,434.0521032180004,None,434.0521032180004,None,434.0521032180004,None,434.0521032180004,None,,,,,,,,,,,,,,,,,,,,,,,,,,,,,,,,,,,,,,,,,,,,001,33,2020_Jan_30_1101,spring_faces,3.1.5,60.12314458541963,
condition files/Stage1_2.xlsx,,T2,B1,c,"['c', 'm']","['Clue', 'Monopoly']","[-0.15, 0.5]","[0.15, 0.5]",1,1,,,,,,,,,0,3,3,3,0,6,6,1,,,,,,,,,,,,,,,,,,,,,,,,,,,,,,,,,,,,,,,,,,,,,,,,,,,,,,,436.01831060599943,None,436.01831060599943,None,436.01831060599943,None,m,0,1.129334937000749,437.5523122470004,None,437.5523122470004,None,437.5523122470004,None,438.73493981699903,None,438.73493981699903,None,438.73493981699903,None,438.73493981699903,None,,,,,,,,,,,,,,,,,,,,,,,,,,,,,,,,,,,,,,,,,,,,001,33,2020_Jan_30_1101,spring_faces,3.1.5,60.12314458541963,
condition files/Stage1_2.xlsx,,B3,T4,m,"['c', 'm']","['Clue', 'Monopoly']","[-0.15, 0.5]","[0.15, 0.5]",1,1,,,,,,,,,0,3,3,3,0,7,7,6,,,,,,,,,,,,,,,,,,,,,,,,,,,,,,,,,,,,,,,,,,,,,,,,,,,,,,,440.7015373840004,None,440.7015373840004,None,440.7015373840004,None,m,1,0.8288220140002522,442.2367581549988,None,442.2367581549988,None,442.2367581549988,None,443.1192637309996,None,443.1192637309996,None,443.1192637309996,None,443.1192637309996,None,,,,,,,,,,,,,,,,,,,,,,,,,,,,,,,,,,,,,,,,,,,,001,33,2020_Jan_30_1101,spring_faces,3.1.5,60.12314458541963,
condition files/Stage1_1.xlsx,,B4,T4,m,"['c', 'm']","['Clue', 'Monopoly']","[-0.15, 0.5]","[0.15, 0.5]",1,1,,,,,,,,,0,4,4,4,0,0,0,7,,,,,,,,,,,,,,,,,,,,,,,,,,,,,,,,,,,,,,,,,,,,,,,,,,,,,,,445.1010085119997,None,445.1010085119997,None,445.1010085119997,None,m,1,0.9589504360010324,446.6347197369996,None,446.6347197369996,None,446.6347197369996,None,447.65168730299956,None,447.65168730299956,None,447.65168730299956,None,447.65168730299956,None,,,,,,,,,,,,,,,,,,,,,,,,,,,,,,,,,,,,,,,,,,,,001,33,2020_Jan_30_1101,spring_faces,3.1.5,60.12314458541963,
condition files/Stage1_1.xlsx,,T4,B3,m,"['c', 'm']","['Clue', 'Monopoly']","[-0.15, 0.5]","[0.15, 0.5]",1,1,,,,,,,,,0,4,4,4,0,1,1,6,,,,,,,,,,,,,,,,,,,,,,,,,,,,,,,,,,,,,,,,,,,,,,,,,,,,,,,449.6179614110006,None,449.6179614110006,None,449.6179614110006,None,m,1,0.7139163899992127,451.16775001399947,None,451.16775001399947,None,451.16775001399947,None,451.93490592299895,None,451.93490592299895,None,451.93490592299895,None,451.93490592299895,None,,,,,,,,,,,,,,,,,,,,,,,,,,,,,,,,,,,,,,,,,,,,001,33,2020_Jan_30_1101,spring_faces,3.1.5,60.12314458541963,
condition files/Stage1_1.xlsx,,T1,B1,c,"['c', 'm']","['Clue', 'Monopoly']","[-0.15, 0.5]","[0.15, 0.5]",1,1,,,,,,,,,0,4,4,4,0,2,2,0,,,,,,,,,,,,,,,,,,,,,,,,,,,,,,,,,,,,,,,,,,,,,,,,,,,,,,,453.90154861799965,None,453.90154861799965,None,453.90154861799965,None,c,1,1.2776197599996522,455.4519481499992,None,455.4519481499992,None,455.4519481499992,None,456.80178366899963,None,456.80178366899963,None,456.80178366899963,None,456.80178366899963,None,,,,,,,,,,,,,,,,,,,,,,,,,,,,,,,,,,,,,,,,,,,,001,33,2020_Jan_30_1101,spring_faces,3.1.5,60.12314458541963,
condition files/Stage1_1.xlsx,,T3,B4,c,"['c', 'm']","['Clue', 'Monopoly']","[-0.15, 0.5]","[0.15, 0.5]",1,1,,,,,,,,,0,4,4,4,0,3,3,5,,,,,,,,,,,,,,,,,,,,,,,,,,,,,,,,,,,,,,,,,,,,,,,,,,,,,,,458.7516429690004,None,458.7516429690004,None,458.7516429690004,None,c,1,1.0047189710003295,460.28487877800035,None,460.28487877800035,None,460.28487877800035,None,461.3510552049993,None,461.3510552049993,None,461.3510552049993,None,461.3510552049993,None,,,,,,,,,,,,,,,,,,,,,,,,,,,,,,,,,,,,,,,,,,,,001,33,2020_Jan_30_1101,spring_faces,3.1.5,60.12314458541963,
condition files/Stage1_1.xlsx,,B1,T2,c,"['c', 'm']","['Clue', 'Monopoly']","[-0.15, 0.5]","[0.15, 0.5]",1,1,,,,,,,,,0,4,4,4,0,4,4,1,,,,,,,,,,,,,,,,,,,,,,,,,,,,,,,,,,,,,,,,,,,,,,,,,,,,,,,463.31823709299897,None,463.31823709299897,None,463.31823709299897,None,m,0,0.9333298649999051,464.8681885160004,None,464.8681885160004,None,464.8681885160004,None,465.85148466099963,None,465.85148466099963,None,465.85148466099963,None,465.85148466099963,None,,,,,,,,,,,,,,,,,,,,,,,,,,,,,,,,,,,,,,,,,,,,001,33,2020_Jan_30_1101,spring_faces,3.1.5,60.12314458541963,
condition files/Stage1_1.xlsx,,B3,T3,c,"['c', 'm']","['Clue', 'Monopoly']","[-0.15, 0.5]","[0.15, 0.5]",1,1,,,,,,,,,0,4,4,4,0,5,5,4,,,,,,,,,,,,,,,,,,,,,,,,,,,,,,,,,,,,,,,,,,,,,,,,,,,,,,,467.81823658400026,None,467.81823658400026,None,467.81823658400026,None,c,1,1.1382434370007104,469.35136773500017,None,469.35136773500017,None,469.35136773500017,None,470.55189267700007,None,470.55189267700007,None,470.55189267700007,None,470.55189267700007,None,,,,,,,,,,,,,,,,,,,,,,,,,,,,,,,,,,,,,,,,,,,,001,33,2020_Jan_30_1101,spring_faces,3.1.5,60.12314458541963,
condition files/Stage1_1.xlsx,,T2,B2,m,"['c', 'm']","['Clue', 'Monopoly']","[-0.15, 0.5]","[0.15, 0.5]",1,1,,,,,,,,,0,4,4,4,0,6,6,3,,,,,,,,,,,,,,,,,,,,,,,,,,,,,,,,,,,,,,,,,,,,,,,,,,,,,,,472.5180558869997,None,472.5180558869997,None,472.5180558869997,None,m,1,1.0146483309999894,474.0509408380003,None,474.0509408380003,None,474.0509408380003,None,475.1192399060001,None,475.1192399060001,None,475.1192399060001,None,475.1192399060001,None,,,,,,,,,,,,,,,,,,,,,,,,,,,,,,,,,,,,,,,,,,,,001,33,2020_Jan_30_1101,spring_faces,3.1.5,60.12314458541963,
condition files/Stage1_1.xlsx,,B2,T1,m,"['c', 'm']","['Clue', 'Monopoly']","[-0.15, 0.5]","[0.15, 0.5]",1,1,,,,,,,,,0,4,4,4,0,7,7,2,,,,,,,,,,,,,,,,,,,,,,,,,,,,,,,,,,,,,,,,,,,,,,,,,,,,,,,477.0851275069999,None,477.0851275069999,None,477.0851275069999,None,c,0,1.9348823500004073,478.6186910409997,None,478.6186910409997,None,478.6186910409997,None,480.61803997599964,None,480.61803997599964,None,480.61803997599964,None,480.61803997599964,None,,,,,,,,,,,,,,,,,,,,,,,,,,,,,,,,,,,,,,,,,,,,001,33,2020_Jan_30_1101,spring_faces,3.1.5,60.12314458541963,
condition files/Stage1_2.xlsx,,T2,B1,c,"['c', 'm']","['Clue', 'Monopoly']","[-0.15, 0.5]","[0.15, 0.5]",1,1,,,,,,,,,0,5,5,5,0,0,0,1,,,,,,,,,,,,,,,,,,,,,,,,,,,,,,,,,,,,,,,,,,,,,,,,,,,,,,,482.601541693999,None,482.601541693999,None,482.601541693999,None,m,0,1.3149252799994429,484.1346621270004,None,484.1346621270004,None,484.1346621270004,None,485.50131785600024,None,485.50131785600024,None,485.50131785600024,None,485.50131785600024,None,,,,,,,,,,,,,,,,,,,,,,,,,,,,,,,,,,,,,,,,,,,,001,33,2020_Jan_30_1101,spring_faces,3.1.5,60.12314458541963,
condition files/Stage1_2.xlsx,,B2,T2,m,"['c', 'm']","['Clue', 'Monopoly']","[-0.15, 0.5]","[0.15, 0.5]",1,1,,,,,,,,,0,5,5,5,0,1,1,3,,,,,,,,,,,,,,,,,,,,,,,,,,,,,,,,,,,,,,,,,,,,,,,,,,,,,,,487.4681725289993,None,487.4681725289993,None,487.4681725289993,None,c,0,0.6881086630000937,489.0014721209991,None,489.0014721209991,None,489.0014721209991,None,489.7539035869995,None,489.7539035869995,None,489.7539035869995,None,489.7539035869995,None,,,,,,,,,,,,,,,,,,,,,,,,,,,,,,,,,,,,,,,,,,,,001,33,2020_Jan_30_1101,spring_faces,3.1.5,60.12314458541963,
condition files/Stage1_2.xlsx,,B3,T4,m,"['c', 'm']","['Clue', 'Monopoly']","[-0.15, 0.5]","[0.15, 0.5]",1,1,,,,,,,,,0,5,5,5,0,2,2,6,,,,,,,,,,,,,,,,,,,,,,,,,,,,,,,,,,,,,,,,,,,,,,,,,,,,,,,491.7181568199994,None,491.7181568199994,None,491.7181568199994,None,m,1,0.7738604440000927,493.2517694779999,None,493.2517694779999,None,493.2517694779999,None,494.08488596700045,None,494.08488596700045,None,494.08488596700045,None,494.08488596700045,None,,,,,,,,,,,,,,,,,,,,,,,,,,,,,,,,,,,,,,,,,,,,001,33,2020_Jan_30_1101,spring_faces,3.1.5,60.12314458541963,
condition files/Stage1_2.xlsx,,T4,B4,m,"['c', 'm']","['Clue', 'Monopoly']","[-0.15, 0.5]","[0.15, 0.5]",1,1,,,,,,,,,0,5,5,5,0,3,3,7,,,,,,,,,,,,,,,,,,,,,,,,,,,,,,,,,,,,,,,,,,,,,,,,,,,,,,,496.0515826239989,None,496.0515826239989,None,496.0515826239989,None,m,1,0.9674436780005635,497.5861428619992,None,497.5861428619992,None,497.5861428619992,None,498.61839434600006,None,498.61839434600006,None,498.61839434600006,None,498.61839434600006,None,,,,,,,,,,,,,,,,,,,,,,,,,,,,,,,,,,,,,,,,,,,,001,33,2020_Jan_30_1101,spring_faces,3.1.5,60.12314458541963,
condition files/Stage1_2.xlsx,,B4,T3,c,"['c', 'm']","['Clue', 'Monopoly']","[-0.15, 0.5]","[0.15, 0.5]",1,1,,,,,,,,,0,5,5,5,0,4,4,5,,,,,,,,,,,,,,,,,,,,,,,,,,,,,,,,,,,,,,,,,,,,,,,,,,,,,,,500.5845573450006,None,500.5845573450006,None,500.5845573450006,None,c,1,0.99604139999974,502.1175559410003,None,502.1175559410003,None,502.1175559410003,None,503.1680267209995,None,503.1680267209995,None,503.1680267209995,None,503.1680267209995,None,,,,,,,,,,,,,,,,,,,,,,,,,,,,,,,,,,,,,,,,,,,,001,33,2020_Jan_30_1101,spring_faces,3.1.5,60.12314458541963,
condition files/Stage1_2.xlsx,,B1,T1,c,"['c', 'm']","['Clue', 'Monopoly']","[-0.15, 0.5]","[0.15, 0.5]",1,1,,,,,,,,,0,5,5,5,0,5,5,0,,,,,,,,,,,,,,,,,,,,,,,,,,,,,,,,,,,,,,,,,,,,,,,,,,,,,,,505.1349379410003,None,505.1349379410003,None,505.1349379410003,None,m,0,1.0994190460005484,506.67009228999996,None,506.67009228999996,None,506.67009228999996,None,507.8351095910002,None,507.8351095910002,None,507.8351095910002,None,507.8351095910002,None,,,,,,,,,,,,,,,,,,,,,,,,,,,,,,,,,,,,,,,,,,,,001,33,2020_Jan_30_1101,spring_faces,3.1.5,60.12314458541963,
condition files/Stage1_2.xlsx,,T1,B2,m,"['c', 'm']","['Clue', 'Monopoly']","[-0.15, 0.5]","[0.15, 0.5]",1,1,,,,,,,,,0,5,5,5,0,6,6,2,,,,,,,,,,,,,,,,,,,,,,,,,,,,,,,,,,,,,,,,,,,,,,,,,,,,,,,509.80166828300025,None,509.80166828300025,None,509.80166828300025,None,c,0,1.1059505700013688,511.3516305909998,None,511.3516305909998,None,511.3516305909998,None,512.5212630219994,None,512.5212630219994,None,512.5212630219994,None,512.5212630219994,None,,,,,,,,,,,,,,,,,,,,,,,,,,,,,,,,,,,,,,,,,,,,001,33,2020_Jan_30_1101,spring_faces,3.1.5,60.12314458541963,
condition files/Stage1_2.xlsx,,T3,B3,c,"['c', 'm']","['Clue', 'Monopoly']","[-0.15, 0.5]","[0.15, 0.5]",1,1,,,,,,,,,0,5,5,5,0,7,7,4,,,,,,,,,,,,,,,,,,,,,,,,,,,,,,,,,,,,,,,,,,,,,,,,,,,,,,,514.4849222609992,None,514.4849222609992,None,514.4849222609992,None,c,1,2.055450419000408,516.018152835999,None,516.018152835999,None,516.018152835999,None,518.1344659610004,None,518.1344659610004,None,518.1344659610004,None,518.1344659610004,None,,,,,,,,,,,,,,,,,,,,,,,,,,,,,,,,,,,,,,,,,,,,001,33,2020_Jan_30_1101,spring_faces,3.1.5,60.12314458541963,
condition files/Stage1_1.xlsx,,B4,T4,m,"['c', 'm']","['Clue', 'Monopoly']","[-0.15, 0.5]","[0.15, 0.5]",1,1,,,,,,,,,0,6,6,6,0,0,0,7,,,,,,,,,,,,,,,,,,,,,,,,,,,,,,,,,,,,,,,,,,,,,,,,,,,,,,,520.1185825049997,None,520.1185825049997,None,520.1185825049997,None,m,1,0.9187101379993692,521.6508109949991,None,521.6508109949991,None,521.6508109949991,None,522.6366363799989,None,522.6366363799989,None,522.6366363799989,None,522.6366363799989,None,,,,,,,,,,,,,,,,,,,,,,,,,,,,,,,,,,,,,,,,,,,,001,33,2020_Jan_30_1101,spring_faces,3.1.5,60.12314458541963,
condition files/Stage1_1.xlsx,,T4,B3,m,"['c', 'm']","['Clue', 'Monopoly']","[-0.15, 0.5]","[0.15, 0.5]",1,1,,,,,,,,,0,6,6,6,0,1,1,6,,,,,,,,,,,,,,,,,,,,,,,,,,,,,,,,,,,,,,,,,,,,,,,,,,,,,,,524.6012614319989,None,524.6012614319989,None,524.6012614319989,None,m,1,2.050745652000842,526.1348057849991,None,526.1348057849991,None,526.1348057849991,None,528.2515427660001,None,528.2515427660001,None,528.2515427660001,None,528.2515427660001,None,,,,,,,,,,,,,,,,,,,,,,,,,,,,,,,,,,,,,,,,,,,,001,33,2020_Jan_30_1101,spring_faces,3.1.5,60.12314458541963,
condition files/Stage1_1.xlsx,,T1,B1,c,"['c', 'm']","['Clue', 'Monopoly']","[-0.15, 0.5]","[0.15, 0.5]",1,1,,,,,,,,,0,6,6,6,0,2,2,0,,,,,,,,,,,,,,,,,,,,,,,,,,,,,,,,,,,,,,,,,,,,,,,,,,,,,,,530.218390353999,None,530.218390353999,None,530.218390353999,None,c,1,1.9862476239995885,531.7513394859998,None,531.7513394859998,None,531.7513394859998,None,533.8028971129988,None,533.8028971129988,None,533.8028971129988,None,533.8028971129988,None,,,,,,,,,,,,,,,,,,,,,,,,,,,,,,,,,,,,,,,,,,,,001,33,2020_Jan_30_1101,spring_faces,3.1.5,60.12314458541963,
condition files/Stage1_1.xlsx,,B3,T3,c,"['c', 'm']","['Clue', 'Monopoly']","[-0.15, 0.5]","[0.15, 0.5]",1,1,,,,,,,,,0,6,6,6,0,3,3,4,,,,,,,,,,,,,,,,,,,,,,,,,,,,,,,,,,,,,,,,,,,,,,,,,,,,,,,535.7676075999989,None,535.7676075999989,None,535.7676075999989,None,c,1,1.5374827989999176,537.3041774869998,None,537.3041774869998,None,537.3041774869998,None,538.9012388619994,None,538.9012388619994,None,538.9012388619994,None,538.9012388619994,None,,,,,,,,,,,,,,,,,,,,,,,,,,,,,,,,,,,,,,,,,,,,001,33,2020_Jan_30_1101,spring_faces,3.1.5,60.12314458541963,
condition files/Stage1_1.xlsx,,B1,T2,c,"['c', 'm']","['Clue', 'Monopoly']","[-0.15, 0.5]","[0.15, 0.5]",1,1,,,,,,,,,0,6,6,6,0,4,4,1,,,,,,,,,,,,,,,,,,,,,,,,,,,,,,,,,,,,,,,,,,,,,,,,,,,,,,,540.8679967389999,None,540.8679967389999,None,540.8679967389999,None,c,1,1.8632074589986587,542.4185683300002,None,542.4185683300002,None,542.4185683300002,None,544.3350205890001,None,544.3350205890001,None,544.3350205890001,None,544.3350205890001,None,,,,,,,,,,,,,,,,,,,,,,,,,,,,,,,,,,,,,,,,,,,,001,33,2020_Jan_30_1101,spring_faces,3.1.5,60.12314458541963,
condition files/Stage1_1.xlsx,,T3,B4,c,"['c', 'm']","['Clue', 'Monopoly']","[-0.15, 0.5]","[0.15, 0.5]",1,1,,,,,,,,,0,6,6,6,0,5,5,5,,,,,,,,,,,,,,,,,,,,,,,,,,,,,,,,,,,,,,,,,,,,,,,,,,,,,,,546.3016415780003,None,546.3016415780003,None,546.3016415780003,None,c,1,1.550228595999215,547.8353183679992,None,547.8353183679992,None,547.8353183679992,None,549.4528073929996,None,549.4528073929996,None,549.4528073929996,None,549.4528073929996,None,,,,,,,,,,,,,,,,,,,,,,,,,,,,,,,,,,,,,,,,,,,,001,33,2020_Jan_30_1101,spring_faces,3.1.5,60.12314458541963,
condition files/Stage1_1.xlsx,,B2,T1,m,"['c', 'm']","['Clue', 'Monopoly']","[-0.15, 0.5]","[0.15, 0.5]",1,1,,,,,,,,,0,6,6,6,0,6,6,2,,,,,,,,,,,,,,,,,,,,,,,,,,,,,,,,,,,,,,,,,,,,,,,,,,,,,,,551.4182532199993,None,551.4182532199993,None,551.4182532199993,None,m,1,1.6811783779994585,552.9524047239993,None,552.9524047239993,None,552.9524047239993,None,554.6869051609992,None,554.6869051609992,None,554.6869051609992,None,554.6869051609992,None,,,,,,,,,,,,,,,,,,,,,,,,,,,,,,,,,,,,,,,,,,,,001,33,2020_Jan_30_1101,spring_faces,3.1.5,60.12314458541963,
condition files/Stage1_1.xlsx,,T2,B2,m,"['c', 'm']","['Clue', 'Monopoly']","[-0.15, 0.5]","[0.15, 0.5]",1,1,,,,,,,,,0,6,6,6,0,7,7,3,,,,,,,,,,,,,,,,,,,,,,,,,,,,,,,,,,,,,,,,,,,,,,,,,,,,,,,556.6515186719989,None,556.6515186719989,None,556.6515186719989,None,m,1,1.5207981470011873,558.184795449999,None,558.184795449999,None,558.184795449999,None,559.7682789760001,None,559.7682789760001,None,559.7682789760001,None,559.7682789760001,None,,,,,,,,,,,,,,,,,,,,,,,,,,,,,,,,,,,,,,,,,,,,001,33,2020_Jan_30_1101,spring_faces,3.1.5,60.12314458541963,
condition files/Stage1_2.xlsx,,B1,T1,c,"['c', 'm']","['Clue', 'Monopoly']","[-0.15, 0.5]","[0.15, 0.5]",1,1,,,,,,,,,0,7,7,7,0,0,0,0,,,,,,,,,,,,,,,,,,,,,,,,,,,,,,,,,,,,,,,,,,,,,,,,,,,,,,,561.7516488609999,None,561.7516488609999,None,561.7516488609999,None,c,1,2.2609690299996146,563.2846638909996,None,563.2846638909996,None,563.2846638909996,None,565.6041008569991,None,565.6041008569991,None,565.6041008569991,None,565.6041008569991,None,,,,,,,,,,,,,,,,,,,,,,,,,,,,,,,,,,,,,,,,,,,,001,33,2020_Jan_30_1101,spring_faces,3.1.5,60.12314458541963,
condition files/Stage1_2.xlsx,,B2,T2,m,"['c', 'm']","['Clue', 'Monopoly']","[-0.15, 0.5]","[0.15, 0.5]",1,1,,,,,,,,,0,7,7,7,0,1,1,3,,,,,,,,,,,,,,,,,,,,,,,,,,,,,,,,,,,,,,,,,,,,,,,,,,,,,,,567.5681220320002,None,567.5681220320002,None,567.5681220320002,None,c,0,1.4202873009999166,569.1012857009991,None,569.1012857009991,None,569.1012857009991,None,570.586031593999,None,570.586031593999,None,570.586031593999,None,570.586031593999,None,,,,,,,,,,,,,,,,,,,,,,,,,,,,,,,,,,,,,,,,,,,,001,33,2020_Jan_30_1101,spring_faces,3.1.5,60.12314458541963,
condition files/Stage1_2.xlsx,,B4,T3,c,"['c', 'm']","['Clue', 'Monopoly']","[-0.15, 0.5]","[0.15, 0.5]",1,1,,,,,,,,,0,7,7,7,0,2,2,5,,,,,,,,,,,,,,,,,,,,,,,,,,,,,,,,,,,,,,,,,,,,,,,,,,,,,,,572.5517282599994,None,572.5517282599994,None,572.5517282599994,None,c,1,1.7655087570001342,574.0840771459989,None,574.0840771459989,None,574.0840771459989,None,575.9014061830003,None,575.9014061830003,None,575.9014061830003,None,575.9014061830003,None,,,,,,,,,,,,,,,,,,,,,,,,,,,,,,,,,,,,,,,,,,,,001,33,2020_Jan_30_1101,spring_faces,3.1.5,60.12314458541963,
condition files/Stage1_2.xlsx,,B3,T4,m,"['c', 'm']","['Clue', 'Monopoly']","[-0.15, 0.5]","[0.15, 0.5]",1,1,,,,,,,,,0,7,7,7,0,3,3,6,,,,,,,,,,,,,,,,,,,,,,,,,,,,,,,,,,,,,,,,,,,,,,,,,,,,,,,577.8677423079989,None,577.8677423079989,None,577.8677423079989,None,m,1,0.6557447499999398,579.401841474999,None,579.401841474999,None,579.401841474999,None,580.1201629449988,None,580.1201629449988,None,580.1201629449988,None,580.1201629449988,None,,,,,,,,,,,,,,,,,,,,,,,,,,,,,,,,,,,,,,,,,,,,001,33,2020_Jan_30_1101,spring_faces,3.1.5,60.12314458541963,
condition files/Stage1_2.xlsx,,T4,B4,m,"['c', 'm']","['Clue', 'Monopoly']","[-0.15, 0.5]","[0.15, 0.5]",1,1,,,,,,,,,0,7,7,7,0,4,4,7,,,,,,,,,,,,,,,,,,,,,,,,,,,,,,,,,,,,,,,,,,,,,,,,,,,,,,,582.0848883229992,None,582.0848883229992,None,582.0848883229992,None,m,1,0.7413373089984816,583.6202546749992,None,583.6202546749992,None,583.6202546749992,None,584.4184002419988,None,584.4184002419988,None,584.4184002419988,None,584.4184002419988,None,,,,,,,,,,,,,,,,,,,,,,,,,,,,,,,,,,,,,,,,,,,,001,33,2020_Jan_30_1101,spring_faces,3.1.5,60.12314458541963,
condition files/Stage1_2.xlsx,,T2,B1,c,"['c', 'm']","['Clue', 'Monopoly']","[-0.15, 0.5]","[0.15, 0.5]",1,1,,,,,,,,,0,7,7,7,0,5,5,1,,,,,,,,,,,,,,,,,,,,,,,,,,,,,,,,,,,,,,,,,,,,,,,,,,,,,,,586.3847128059988,None,586.3847128059988,None,586.3847128059988,None,m,0,1.754456651999135,587.9191232029989,None,587.9191232029989,None,587.9191232029989,None,589.737464668,None,589.737464668,None,589.737464668,None,589.737464668,None,,,,,,,,,,,,,,,,,,,,,,,,,,,,,,,,,,,,,,,,,,,,001,33,2020_Jan_30_1101,spring_faces,3.1.5,60.12314458541963,
condition files/Stage1_2.xlsx,,T3,B3,c,"['c', 'm']","['Clue', 'Monopoly']","[-0.15, 0.5]","[0.15, 0.5]",1,1,,,,,,,,,0,7,7,7,0,6,6,4,,,,,,,,,,,,,,,,,,,,,,,,,,,,,,,,,,,,,,,,,,,,,,,,,,,,,,,591.7015906329998,None,591.7015906329998,None,591.7015906329998,None,c,1,1.7506676069988316,593.2348815209989,None,593.2348815209989,None,593.2348815209989,None,595.0517627869995,None,595.0517627869995,None,595.0517627869995,None,595.0517627869995,None,,,,,,,,,,,,,,,,,,,,,,,,,,,,,,,,,,,,,,,,,,,,001,33,2020_Jan_30_1101,spring_faces,3.1.5,60.12314458541963,
condition files/Stage1_2.xlsx,,T1,B2,m,"['c', 'm']","['Clue', 'Monopoly']","[-0.15, 0.5]","[0.15, 0.5]",1,1,,,,,,,,,0,7,7,7,0,7,7,2,,,,,,,,,,,,,,,,,,,,,,,,,,,,,,,,,,,,,,,,,,,,,,,,,,,,,,,597.0176497510001,None,597.0176497510001,None,597.0176497510001,None,c,0,1.3294641039992712,598.5521310639997,None,598.5521310639997,None,598.5521310639997,None,599.9346740299989,None,599.9346740299989,None,599.9346740299989,None,599.9346740299989,None,,,,,,,,,,,,,,,,,,,,,,,,,,,,,,,,,,,,,,,,,,,,001,33,2020_Jan_30_1101,spring_faces,3.1.5,60.12314458541963,
condition files/Stage1_1.xlsx,,B4,T4,m,"['c', 'm']","['Clue', 'Monopoly']","[-0.15, 0.5]","[0.15, 0.5]",1,1,,,,,,,,,0,8,8,8,0,0,0,7,,,,,,,,,,,,,,,,,,,,,,,,,,,,,,,,,,,,,,,,,,,,,,,,,,,,,,,601.9186981530002,None,601.9186981530002,None,601.9186981530002,None,m,1,0.9262029029996484,603.4514512410005,None,603.4514512410005,None,603.4514512410005,None,604.4343741550001,None,604.4343741550001,None,604.4343741550001,None,604.4343741550001,None,,,,,,,,,,,,,,,,,,,,,,,,,,,,,,,,,,,,,,,,,,,,001,33,2020_Jan_30_1101,spring_faces,3.1.5,60.12314458541963,
condition files/Stage1_1.xlsx,,B1,T2,c,"['c', 'm']","['Clue', 'Monopoly']","[-0.15, 0.5]","[0.15, 0.5]",1,1,,,,,,,,,0,8,8,8,0,1,1,1,,,,,,,,,,,,,,,,,,,,,,,,,,,,,,,,,,,,,,,,,,,,,,,,,,,,,,,606.4015122050005,None,606.4015122050005,None,606.4015122050005,None,c,1,1.6904608170007123,607.9351844579996,None,607.9351844579996,None,607.9351844579996,None,609.685310416,None,609.685310416,None,609.685310416,None,609.685310416,None,,,,,,,,,,,,,,,,,,,,,,,,,,,,,,,,,,,,,,,,,,,,001,33,2020_Jan_30_1101,spring_faces,3.1.5,60.12314458541963,
condition files/Stage1_1.xlsx,,T3,B4,c,"['c', 'm']","['Clue', 'Monopoly']","[-0.15, 0.5]","[0.15, 0.5]",1,1,,,,,,,,,0,8,8,8,0,2,2,5,,,,,,,,,,,,,,,,,,,,,,,,,,,,,,,,,,,,,,,,,,,,,,,,,,,,,,,611.6509455340001,None,611.6509455340001,None,611.6509455340001,None,c,1,1.5772879059986735,613.1843297430005,None,613.1843297430005,None,613.1843297430005,None,614.8187565799999,None,614.8187565799999,None,614.8187565799999,None,614.8187565799999,None,,,,,,,,,,,,,,,,,,,,,,,,,,,,,,,,,,,,,,,,,,,,001,33,2020_Jan_30_1101,spring_faces,3.1.5,60.12314458541963,
condition files/Stage1_1.xlsx,,T4,B3,m,"['c', 'm']","['Clue', 'Monopoly']","[-0.15, 0.5]","[0.15, 0.5]",1,1,,,,,,,,,0,8,8,8,0,3,3,6,,,,,,,,,,,,,,,,,,,,,,,,,,,,,,,,,,,,,,,,,,,,,,,,,,,,,,,616.7849644950002,None,616.7849644950002,None,616.7849644950002,None,m,1,0.9394525670013536,618.3182170929995,None,618.3182170929995,None,618.3182170929995,None,619.3203968029993,None,619.3203968029993,None,619.3203968029993,None,619.3203968029993,None,,,,,,,,,,,,,,,,,,,,,,,,,,,,,,,,,,,,,,,,,,,,001,33,2020_Jan_30_1101,spring_faces,3.1.5,60.12314458541963,
condition files/Stage1_1.xlsx,,T1,B1,c,"['c', 'm']","['Clue', 'Monopoly']","[-0.15, 0.5]","[0.15, 0.5]",1,1,,,,,,,,,0,8,8,8,0,4,4,0,,,,,,,,,,,,,,,,,,,,,,,,,,,,,,,,,,,,,,,,,,,,,,,,,,,,,,,621.2850792339996,None,621.2850792339996,None,621.2850792339996,None,c,1,2.3575339960007113,622.8201215489989,None,622.8201215489989,None,622.8201215489989,None,625.2369326150001,None,625.2369326150001,None,625.2369326150001,None,625.2369326150001,None,,,,,,,,,,,,,,,,,,,,,,,,,,,,,,,,,,,,,,,,,,,,001,33,2020_Jan_30_1101,spring_faces,3.1.5,60.12314458541963,
condition files/Stage1_1.xlsx,,B2,T1,m,"['c', 'm']","['Clue', 'Monopoly']","[-0.15, 0.5]","[0.15, 0.5]",1,1,,,,,,,,,0,8,8,8,0,5,5,2,,,,,,,,,,,,,,,,,,,,,,,,,,,,,,,,,,,,,,,,,,,,,,,,,,,,,,,627.2015784100004,None,627.2015784100004,None,627.2015784100004,None,c,0,1.38417138099976,628.7374296929993,None,628.7374296929993,None,628.7374296929993,None,630.2014334590003,None,630.2014334590003,None,630.2014334590003,None,630.2014334590003,None,,,,,,,,,,,,,,,,,,,,,,,,,,,,,,,,,,,,,,,,,,,,001,33,2020_Jan_30_1101,spring_faces,3.1.5,60.12314458541963,
condition files/Stage1_1.xlsx,,B3,T3,c,"['c', 'm']","['Clue', 'Monopoly']","[-0.15, 0.5]","[0.15, 0.5]",1,1,,,,,,,,,0,8,8,8,0,6,6,4,,,,,,,,,,,,,,,,,,,,,,,,,,,,,,,,,,,,,,,,,,,,,,,,,,,,,,,632.1519134209993,None,632.1519134209993,None,632.1519134209993,None,c,1,1.3471094500000618,633.686482133,None,633.686482133,None,633.686482133,None,635.084610553,None,635.084610553,None,635.084610553,None,635.084610553,None,,,,,,,,,,,,,,,,,,,,,,,,,,,,,,,,,,,,,,,,,,,,001,33,2020_Jan_30_1101,spring_faces,3.1.5,60.12314458541963,
condition files/Stage1_1.xlsx,,T2,B2,m,"['c', 'm']","['Clue', 'Monopoly']","[-0.15, 0.5]","[0.15, 0.5]",1,1,,,,,,,,,0,8,8,8,0,7,7,3,,,,,,,,,,,,,,,,,,,,,,,,,,,,,,,,,,,,,,,,,,,,,,,,,,,,,,,637.0517118589996,None,637.0517118589996,None,637.0517118589996,None,c,0,2.8160839320007653,638.5855140610001,None,638.5855140610001,None,638.5855140610001,None,641.4542064569996,None,641.4542064569996,None,641.4542064569996,None,641.4542064569996,None,,,,,,,,,,,,,,,,,,,,,,,,,,,,,,,,,,,,,,,,,,,,001,33,2020_Jan_30_1101,spring_faces,3.1.5,60.12314458541963,
condition files/Stage1_2.xlsx,,T1,B2,m,"['c', 'm']","['Clue', 'Monopoly']","[-0.15, 0.5]","[0.15, 0.5]",1,1,,,,,,,,,0,9,9,9,0,0,0,2,,,,,,,,,,,,,,,,,,,,,,,,,,,,,,,,,,,,,,,,,,,,,,,,,,,,,,,643.4350349729993,None,643.4350349729993,None,643.4350349729993,None,c,0,1.3770737099985126,644.9845582229991,None,644.9845582229991,None,644.9845582229991,None,646.4185716489992,None,646.4185716489992,None,646.4185716489992,None,646.4185716489992,None,,,,,,,,,,,,,,,,,,,,,,,,,,,,,,,,,,,,,,,,,,,,001,33,2020_Jan_30_1101,spring_faces,3.1.5,60.12314458541963,
condition files/Stage1_2.xlsx,,B3,T4,m,"['c', 'm']","['Clue', 'Monopoly']","[-0.15, 0.5]","[0.15, 0.5]",1,1,,,,,,,,,0,9,9,9,0,1,1,6,,,,,,,,,,,,,,,,,,,,,,,,,,,,,,,,,,,,,,,,,,,,,,,,,,,,,,,648.3847087289996,None,648.3847087289996,None,648.3847087289996,None,m,1,0.71428070300135,649.9352893079995,None,649.9352893079995,None,649.9352893079995,None,650.7015582570002,None,650.7015582570002,None,650.7015582570002,None,650.7015582570002,None,,,,,,,,,,,,,,,,,,,,,,,,,,,,,,,,,,,,,,,,,,,,001,33,2020_Jan_30_1101,spring_faces,3.1.5,60.12314458541963,
condition files/Stage1_2.xlsx,,T4,B4,m,"['c', 'm']","['Clue', 'Monopoly']","[-0.15, 0.5]","[0.15, 0.5]",1,1,,,,,,,,,0,9,9,9,0,2,2,7,,,,,,,,,,,,,,,,,,,,,,,,,,,,,,,,,,,,,,,,,,,,,,,,,,,,,,,652.667874531,None,652.667874531,None,652.667874531,None,m,1,0.8135048750009446,654.2040841500002,None,654.2040841500002,None,654.2040841500002,None,655.0683831819988,None,655.0683831819988,None,655.0683831819988,None,655.0683831819988,None,,,,,,,,,,,,,,,,,,,,,,,,,,,,,,,,,,,,,,,,,,,,001,33,2020_Jan_30_1101,spring_faces,3.1.5,60.12314458541963,
condition files/Stage1_2.xlsx,,B2,T2,m,"['c', 'm']","['Clue', 'Monopoly']","[-0.15, 0.5]","[0.15, 0.5]",1,1,,,,,,,,,0,9,9,9,0,3,3,3,,,,,,,,,,,,,,,,,,,,,,,,,,,,,,,,,,,,,,,,,,,,,,,,,,,,,,,657.0350341419999,None,657.0350341419999,None,657.0350341419999,None,c,0,1.1049320909987728,658.568678013,None,658.568678013,None,658.568678013,None,659.735013169,None,659.735013169,None,659.735013169,None,659.735013169,None,,,,,,,,,,,,,,,,,,,,,,,,,,,,,,,,,,,,,,,,,,,,001,33,2020_Jan_30_1101,spring_faces,3.1.5,60.12314458541963,
condition files/Stage1_2.xlsx,,T3,B3,c,"['c', 'm']","['Clue', 'Monopoly']","[-0.15, 0.5]","[0.15, 0.5]",1,1,,,,,,,,,0,9,9,9,0,4,4,4,,,,,,,,,,,,,,,,,,,,,,,,,,,,,,,,,,,,,,,,,,,,,,,,,,,,,,,661.7016766090001,None,661.7016766090001,None,661.7016766090001,None,c,1,1.3346748000003572,663.2348394050005,None,663.2348394050005,None,663.2348394050005,None,664.6362127299999,None,664.6362127299999,None,664.6362127299999,None,664.6362127299999,None,,,,,,,,,,,,,,,,,,,,,,,,,,,,,,,,,,,,,,,,,,,,001,33,2020_Jan_30_1101,spring_faces,3.1.5,60.12314458541963,
condition files/Stage1_2.xlsx,,T2,B1,c,"['c', 'm']","['Clue', 'Monopoly']","[-0.15, 0.5]","[0.15, 0.5]",1,1,,,,,,,,,0,9,9,9,0,5,5,1,,,,,,,,,,,,,,,,,,,,,,,,,,,,,,,,,,,,,,,,,,,,,,,,,,,,,,,666.6010003699994,None,666.6010003699994,None,666.6010003699994,None,c,1,1.185821474999102,668.1517580309992,None,668.1517580309992,None,668.1517580309992,None,669.4010612530001,None,669.4010612530001,None,669.4010612530001,None,669.4010612530001,None,,,,,,,,,,,,,,,,,,,,,,,,,,,,,,,,,,,,,,,,,,,,001,33,2020_Jan_30_1101,spring_faces,3.1.5,60.12314458541963,
condition files/Stage1_2.xlsx,,B1,T1,c,"['c', 'm']","['Clue', 'Monopoly']","[-0.15, 0.5]","[0.15, 0.5]",1,1,,,,,,,,,0,9,9,9,0,6,6,0,,,,,,,,,,,,,,,,,,,,,,,,,,,,,,,,,,,,,,,,,,,,,,,,,,,,,,,671.3681891790002,None,671.3681891790002,None,671.3681891790002,None,c,1,1.1886131880000903,672.9009789449992,None,672.9009789449992,None,672.9009789449992,None,674.1518829109991,None,674.1518829109991,None,674.1518829109991,None,674.1518829109991,None,,,,,,,,,,,,,,,,,,,,,,,,,,,,,,,,,,,,,,,,,,,,001,33,2020_Jan_30_1101,spring_faces,3.1.5,60.12314458541963,
condition files/Stage1_2.xlsx,,B4,T3,c,"['c', 'm']","['Clue', 'Monopoly']","[-0.15, 0.5]","[0.15, 0.5]",1,1,,,,,,,,,0,9,9,9,0,7,7,5,,,,,,,,,,,,,,,,,,,,,,,,,,,,,,,,,,,,,,,,,,,,,,,,,,,,,,,676.1177490619993,None,676.1177490619993,None,676.1177490619993,None,c,1,1.1582338650005113,677.6514267559996,None,677.6514267559996,None,677.6514267559996,None,678.8684925369998,None,678.8684925369998,None,678.8684925369998,None,678.8684925369998,None,,,,,,,,,,,,,,,,,,,,,,,,,,,,,,,,,,,,,,,,,,,,001,33,2020_Jan_30_1101,spring_faces,3.1.5,60.12314458541963,
condition files/Stage1_1.xlsx,,B4,T4,m,"['c', 'm']","['Clue', 'Monopoly']","[-0.15, 0.5]","[0.15, 0.5]",1,1,,,,,,,,,0,10,10,10,0,0,0,7,,,,,,,,,,,,,,,,,,,,,,,,,,,,,,,,,,,,,,,,,,,,,,,,,,,,,,,680.8521335629994,None,680.8521335629994,None,680.8521335629994,None,m,1,0.8407433270003821,682.3849134600005,None,682.3849134600005,None,682.3849134600005,None,683.2857142379999,None,683.2857142379999,None,683.2857142379999,None,683.2857142379999,None,,,,,,,,,,,,,,,,,,,,,,,,,,,,,,,,,,,,,,,,,,,,001,33,2020_Jan_30_1101,spring_faces,3.1.5,60.12314458541963,
condition files/Stage1_1.xlsx,,B1,T2,c,"['c', 'm']","['Clue', 'Monopoly']","[-0.15, 0.5]","[0.15, 0.5]",1,1,,,,,,,,,0,10,10,10,0,1,1,1,,,,,,,,,,,,,,,,,,,,,,,,,,,,,,,,,,,,,,,,,,,,,,,,,,,,,,,685.2516441579992,None,685.2516441579992,None,685.2516441579992,None,c,1,1.8491138899989892,686.7844775479989,None,686.7844775479989,None,686.7844775479989,None,688.6854980669996,None,688.6854980669996,None,688.6854980669996,None,688.6854980669996,None,,,,,,,,,,,,,,,,,,,,,,,,,,,,,,,,,,,,,,,,,,,,001,33,2020_Jan_30_1101,spring_faces,3.1.5,60.12314458541963,
condition files/Stage1_1.xlsx,,B3,T3,c,"['c', 'm']","['Clue', 'Monopoly']","[-0.15, 0.5]","[0.15, 0.5]",1,1,,,,,,,,,0,10,10,10,0,2,2,4,,,,,,,,,,,,,,,,,,,,,,,,,,,,,,,,,,,,,,,,,,,,,,,,,,,,,,,690.6515727699989,None,690.6515727699989,None,690.6515727699989,None,c,1,1.1041890709984727,692.1853501219994,None,692.1853501219994,None,692.1853501219994,None,693.3519104099996,None,693.3519104099996,None,693.3519104099996,None,693.3519104099996,None,,,,,,,,,,,,,,,,,,,,,,,,,,,,,,,,,,,,,,,,,,,,001,33,2020_Jan_30_1101,spring_faces,3.1.5,60.12314458541963,
condition files/Stage1_1.xlsx,,T4,B3,m,"['c', 'm']","['Clue', 'Monopoly']","[-0.15, 0.5]","[0.15, 0.5]",1,1,,,,,,,,,0,10,10,10,0,3,3,6,,,,,,,,,,,,,,,,,,,,,,,,,,,,,,,,,,,,,,,,,,,,,,,,,,,,,,,695.3177458219998,None,695.3177458219998,None,695.3177458219998,None,m,1,1.732949594999809,696.8686250169994,None,696.8686250169994,None,696.8686250169994,None,698.6677709489995,None,698.6677709489995,None,698.6677709489995,None,698.6677709489995,None,,,,,,,,,,,,,,,,,,,,,,,,,,,,,,,,,,,,,,,,,,,,001,33,2020_Jan_30_1101,spring_faces,3.1.5,60.12314458541963,
condition files/Stage1_1.xlsx,,T1,B1,c,"['c', 'm']","['Clue', 'Monopoly']","[-0.15, 0.5]","[0.15, 0.5]",1,1,,,,,,,,,0,10,10,10,0,4,4,0,,,,,,,,,,,,,,,,,,,,,,,,,,,,,,,,,,,,,,,,,,,,,,,,,,,,,,,700.6182835050004,None,700.6182835050004,None,700.6182835050004,None,c,1,1.3598991250000836,702.1536867989998,None,702.1536867989998,None,702.1536867989998,None,703.5848769690001,None,703.5848769690001,None,703.5848769690001,None,703.5848769690001,None,,,,,,,,,,,,,,,,,,,,,,,,,,,,,,,,,,,,,,,,,,,,001,33,2020_Jan_30_1101,spring_faces,3.1.5,60.12314458541963,
condition files/Stage1_1.xlsx,,B2,T1,m,"['c', 'm']","['Clue', 'Monopoly']","[-0.15, 0.5]","[0.15, 0.5]",1,1,,,,,,,,,0,10,10,10,0,5,5,2,,,,,,,,,,,,,,,,,,,,,,,,,,,,,,,,,,,,,,,,,,,,,,,,,,,,,,,705.5344929059993,None,705.5344929059993,None,705.5344929059993,None,m,1,2.076808505000372,707.084727301999,None,707.084727301999,None,707.084727301999,None,709.2199481909993,None,709.2199481909993,None,709.2199481909993,None,709.2199481909993,None,,,,,,,,,,,,,,,,,,,,,,,,,,,,,,,,,,,,,,,,,,,,001,33,2020_Jan_30_1101,spring_faces,3.1.5,60.12314458541963,
condition files/Stage1_1.xlsx,,T2,B2,m,"['c', 'm']","['Clue', 'Monopoly']","[-0.15, 0.5]","[0.15, 0.5]",1,1,,,,,,,,,0,10,10,10,0,6,6,3,,,,,,,,,,,,,,,,,,,,,,,,,,,,,,,,,,,,,,,,,,,,,,,,,,,,,,,711.1845886989995,None,711.1845886989995,None,711.1845886989995,None,m,1,0.9547345480004878,712.7348463139988,None,712.7348463139988,None,712.7348463139988,None,713.7518719899999,None,713.7518719899999,None,713.7518719899999,None,713.7518719899999,None,,,,,,,,,,,,,,,,,,,,,,,,,,,,,,,,,,,,,,,,,,,,001,33,2020_Jan_30_1101,spring_faces,3.1.5,60.12314458541963,
condition files/Stage1_1.xlsx,,T3,B4,c,"['c', 'm']","['Clue', 'Monopoly']","[-0.15, 0.5]","[0.15, 0.5]",1,1,,,,,,,,,0,10,10,10,0,7,7,5,,,,,,,,,,,,,,,,,,,,,,,,,,,,,,,,,,,,,,,,,,,,,,,,,,,,,,,715.7183490970001,None,715.7183490970001,None,715.7183490970001,None,c,1,1.4628273519992945,717.2507408359997,None,717.2507408359997,None,717.2507408359997,None,718.7681025309994,None,718.7681025309994,None,718.7681025309994,None,718.7681025309994,None,,,,,,,,,,,,,,,,,,,,,,,,,,,,,,,,,,,,,,,,,,,,001,33,2020_Jan_30_1101,spring_faces,3.1.5,60.12314458541963,
condition files/Stage1_2.xlsx,,B4,T3,c,"['c', 'm']","['Clue', 'Monopoly']","[-0.15, 0.5]","[0.15, 0.5]",1,1,,,,,,,,,0,11,11,11,0,0,0,5,,,,,,,,,,,,,,,,,,,,,,,,,,,,,,,,,,,,,,,,,,,,,,,,,,,,,,,720.7512741049995,None,720.7512741049995,None,720.7512741049995,None,c,1,0.8444770719997905,722.2850582859992,None,722.2850582859992,None,722.2850582859992,None,723.1850428029993,None,723.1850428029993,None,723.1850428029993,None,723.1850428029993,None,,,,,,,,,,,,,,,,,,,,,,,,,,,,,,,,,,,,,,,,,,,,001,33,2020_Jan_30_1101,spring_faces,3.1.5,60.12314458541963,
condition files/Stage1_2.xlsx,,T3,B3,c,"['c', 'm']","['Clue', 'Monopoly']","[-0.15, 0.5]","[0.15, 0.5]",1,1,,,,,,,,,0,11,11,11,0,1,1,4,,,,,,,,,,,,,,,,,,,,,,,,,,,,,,,,,,,,,,,,,,,,,,,,,,,,,,,725.1515252930003,None,725.1515252930003,None,725.1515252930003,None,c,1,1.228180407999389,726.685367488999,None,726.685367488999,None,726.685367488999,None,727.9682875729995,None,727.9682875729995,None,727.9682875729995,None,727.9682875729995,None,,,,,,,,,,,,,,,,,,,,,,,,,,,,,,,,,,,,,,,,,,,,001,33,2020_Jan_30_1101,spring_faces,3.1.5,60.12314458541963,
condition files/Stage1_2.xlsx,,T4,B4,m,"['c', 'm']","['Clue', 'Monopoly']","[-0.15, 0.5]","[0.15, 0.5]",1,1,,,,,,,,,0,11,11,11,0,2,2,7,,,,,,,,,,,,,,,,,,,,,,,,,,,,,,,,,,,,,,,,,,,,,,,,,,,,,,,729.934888533,None,729.934888533,None,729.934888533,None,m,1,0.7013832749998983,731.4681567249991,None,731.4681567249991,None,731.4681567249991,None,732.2517391919991,None,732.2517391919991,None,732.2517391919991,None,732.2517391919991,None,,,,,,,,,,,,,,,,,,,,,,,,,,,,,,,,,,,,,,,,,,,,001,33,2020_Jan_30_1101,spring_faces,3.1.5,60.12314458541963,
condition files/Stage1_2.xlsx,,B1,T1,c,"['c', 'm']","['Clue', 'Monopoly']","[-0.15, 0.5]","[0.15, 0.5]",1,1,,,,,,,,,0,11,11,11,0,3,3,0,,,,,,,,,,,,,,,,,,,,,,,,,,,,,,,,,,,,,,,,,,,,,,,,,,,,,,,734.2016611769996,None,734.2016611769996,None,734.2016611769996,None,c,1,0.8822496080010751,735.7353464890002,None,735.7353464890002,None,735.7353464890002,None,736.6853418649989,None,736.6853418649989,None,736.6853418649989,None,736.6853418649989,None,,,,,,,,,,,,,,,,,,,,,,,,,,,,,,,,,,,,,,,,,,,,001,33,2020_Jan_30_1101,spring_faces,3.1.5,60.12314458541963,
condition files/Stage1_2.xlsx,,T1,B2,m,"['c', 'm']","['Clue', 'Monopoly']","[-0.15, 0.5]","[0.15, 0.5]",1,1,,,,,,,,,0,11,11,11,0,4,4,2,,,,,,,,,,,,,,,,,,,,,,,,,,,,,,,,,,,,,,,,,,,,,,,,,,,,,,,738.634902709,None,738.634902709,None,738.634902709,None,m,1,1.1046709319998627,740.1689386149992,None,740.1689386149992,None,740.1689386149992,None,741.335187875,None,741.335187875,None,741.335187875,None,741.335187875,None,,,,,,,,,,,,,,,,,,,,,,,,,,,,,,,,,,,,,,,,,,,,001,33,2020_Jan_30_1101,spring_faces,3.1.5,60.12314458541963,
condition files/Stage1_2.xlsx,,B2,T2,m,"['c', 'm']","['Clue', 'Monopoly']","[-0.15, 0.5]","[0.15, 0.5]",1,1,,,,,,,,,0,11,11,11,0,5,5,3,,,,,,,,,,,,,,,,,,,,,,,,,,,,,,,,,,,,,,,,,,,,,,,,,,,,,,,743.3015239839988,None,743.3015239839988,None,743.3015239839988,None,m,1,0.8551173509986256,744.834492422,None,744.834492422,None,744.834492422,None,745.751446287999,None,745.751446287999,None,745.751446287999,None,745.751446287999,None,,,,,,,,,,,,,,,,,,,,,,,,,,,,,,,,,,,,,,,,,,,,001,33,2020_Jan_30_1101,spring_faces,3.1.5,60.12314458541963,
condition files/Stage1_2.xlsx,,T2,B1,c,"['c', 'm']","['Clue', 'Monopoly']","[-0.15, 0.5]","[0.15, 0.5]",1,1,,,,,,,,,0,11,11,11,0,6,6,1,,,,,,,,,,,,,,,,,,,,,,,,,,,,,,,,,,,,,,,,,,,,,,,,,,,,,,,747.718182098999,None,747.718182098999,None,747.718182098999,None,c,1,1.1418512700001884,749.2677986889994,None,749.2677986889994,None,749.2677986889994,None,750.4845635900001,None,750.4845635900001,None,750.4845635900001,None,750.4845635900001,None,,,,,,,,,,,,,,,,,,,,,,,,,,,,,,,,,,,,,,,,,,,,001,33,2020_Jan_30_1101,spring_faces,3.1.5,60.12314458541963,
condition files/Stage1_2.xlsx,,B3,T4,m,"['c', 'm']","['Clue', 'Monopoly']","[-0.15, 0.5]","[0.15, 0.5]",1,1,,,,,,,,,0,11,11,11,0,7,7,6,,,,,,,,,,,,,,,,,,,,,,,,,,,,,,,,,,,,,,,,,,,,,,,,,,,,,,,752.4349456649998,None,752.4349456649998,None,752.4349456649998,None,m,1,0.774899436000851,753.9707702579999,None,753.9707702579999,None,753.9707702579999,None,754.8025816819991,None,754.8025816819991,None,754.8025816819991,None,754.8025816819991,None,,,,,,,,,,,,,,,,,,,,,,,,,,,,,,,,,,,,,,,,,,,,001,33,2020_Jan_30_1101,spring_faces,3.1.5,60.12314458541963,
,,,,,,,,,,,,,,,,,,,,,,,,,,,,,,,,,,,,,,,,,,,,,,,,,,,,,,,,,,,,,,,,,,,,,,,,,,,,,,,,,,,,,,,,,,,,,,,,,,,,,,,,,,,,,,,,756.7850871909995,None,space,2.544660620000286,761.7849008049998,None,,,,,,,,,,,,,,,,,,,,,,,,,,,,,,001,33,2020_Jan_30_1101,spring_faces,3.1.5,60.12314458541963,
condition files/Stage2_1.xlsx,,T3,B3,s,"['s', 'r']","['Stratego', 'Risk']","[-0.15, 0.5]","[0.15, 0.5]",1,1,,,,,,,,,,,,,,,,,0,0,0,0,0,0,0,4,,,,,,,,,,,,,,,,,,,,,,,,,,,,,,,,,,,,,,,,,,,,,,,764.385192623,None,764.385192623,None,764.385192623,None,r,0,1.73987088299873,765.9018006719998,None,765.9018006719998,None,765.9018006719998,None,767.7039511909989,None,767.7039511909989,None,767.7039511909989,None,767.7039511909989,None,,,,,,,,,,,,,,,761.7849008049998,None,,,,,,,,,,,,,,,,,,,,,,,,,,,,001,33,2020_Jan_30_1101,spring_faces,3.1.5,60.12314458541963,
condition files/Stage2_1.xlsx,,T1,B1,s,"['s', 'r']","['Stratego', 'Risk']","[-0.15, 0.5]","[0.15, 0.5]",1,1,,,,,,,,,,,,,,,,,0,0,0,0,0,1,1,2,,,,,,,,,,,,,,,,,,,,,,,,,,,,,,,,,,,,,,,,,,,,,,,769.6681513749991,None,769.6681513749991,None,769.6681513749991,None,r,0,1.0471233169992047,771.2024717240001,None,771.2024717240001,None,771.2024717240001,None,772.3016503340004,None,772.3016503340004,None,772.3016503340004,None,772.3016503340004,None,,,,,,,,,,,,,,,,,,,,,,,,,,,,,,,,,,,,,,,,,,,,001,33,2020_Jan_30_1101,spring_faces,3.1.5,60.12314458541963,
condition files/Stage2_1.xlsx,,B4,T4,r,"['s', 'r']","['Stratego', 'Risk']","[-0.15, 0.5]","[0.15, 0.5]",1,1,,,,,,,,,,,,,,,,,0,0,0,0,0,2,2,5,,,,,,,,,,,,,,,,,,,,,,,,,,,,,,,,,,,,,,,,,,,,,,,774.2677338929989,None,774.2677338929989,None,774.2677338929989,None,r,1,0.6555335280008876,775.802129918,None,775.802129918,None,775.802129918,None,776.5205119250004,None,776.5205119250004,None,776.5205119250004,None,776.5205119250004,None,,,,,,,,,,,,,,,,,,,,,,,,,,,,,,,,,,,,,,,,,,,,001,33,2020_Jan_30_1101,spring_faces,3.1.5,60.12314458541963,
condition files/Stage2_1.xlsx,,T5,B5,s,"['s', 'r']","['Stratego', 'Risk']","[-0.15, 0.5]","[0.15, 0.5]",1,1,,,,,,,,,,,,,,,,,0,0,0,0,0,3,3,0,,,,,,,,,,,,,,,,,,,,,,,,,,,,,,,,,,,,,,,,,,,,,,,778.4849194639992,None,778.4849194639992,None,778.4849194639992,None,s,1,0.7881068679998862,780.0695611399988,None,780.0695611399988,None,780.0695611399988,None,780.9188306289998,None,780.9188306289998,None,780.9188306289998,None,780.9188306289998,None,,,,,,,,,,,,,,,,,,,,,,,,,,,,,,,,,,,,,,,,,,,,001,33,2020_Jan_30_1101,spring_faces,3.1.5,60.12314458541963,
condition files/Stage2_1.xlsx,,B6,T6,r,"['s', 'r']","['Stratego', 'Risk']","[-0.15, 0.5]","[0.15, 0.5]",1,1,,,,,,,,,,,,,,,,,0,0,0,0,0,4,4,1,,,,,,,,,,,,,,,,,,,,,,,,,,,,,,,,,,,,,,,,,,,,,,,782.8849035410003,None,782.8849035410003,None,782.8849035410003,None,r,1,1.0467593809989921,784.4188310909994,None,784.4188310909994,None,784.4188310909994,None,785.5174340939993,None,785.5174340939993,None,785.5174340939993,None,785.5174340939993,None,,,,,,,,,,,,,,,,,,,,,,,,,,,,,,,,,,,,,,,,,,,,001,33,2020_Jan_30_1101,spring_faces,3.1.5,60.12314458541963,
condition files/Stage2_1.xlsx,,B2,T2,r,"['s', 'r']","['Stratego', 'Risk']","[-0.15, 0.5]","[0.15, 0.5]",1,1,,,,,,,,,,,,,,,,,0,0,0,0,0,5,5,3,,,,,,,,,,,,,,,,,,,,,,,,,,,,,,,,,,,,,,,,,,,,,,,787.4849158739999,None,787.4849158739999,None,787.4849158739999,None,s,0,1.1675314469994191,789.0180137980005,None,789.0180137980005,None,789.0180137980005,None,790.2519251779995,None,790.2519251779995,None,790.2519251779995,None,790.2519251779995,None,,,,,,,,,,,,,,,,,,,,,,,,,,,,,,,,,,,,,,,,,,,,001,33,2020_Jan_30_1101,spring_faces,3.1.5,60.12314458541963,
condition files/Stage2_2.xlsx,,B3,T3,s,"['s', 'r']","['Stratego', 'Risk']","[-0.15, 0.5]","[0.15, 0.5]",1,1,,,,,,,,,,,,,,,,,0,1,1,1,0,0,0,4,,,,,,,,,,,,,,,,,,,,,,,,,,,,,,,,,,,,,,,,,,,,,,,792.2348811159991,None,792.2348811159991,None,792.2348811159991,None,r,0,0.9456002549995901,793.7679757869992,None,793.7679757869992,None,793.7679757869992,None,794.7695394099992,None,794.7695394099992,None,794.7695394099992,None,794.7695394099992,None,,,,,,,,,,,,,,,,,,,,,,,,,,,,,,,,,,,,,,,,,,,,001,33,2020_Jan_30_1101,spring_faces,3.1.5,60.12314458541963,
condition files/Stage2_2.xlsx,,T6,B6,r,"['s', 'r']","['Stratego', 'Risk']","[-0.15, 0.5]","[0.15, 0.5]",1,1,,,,,,,,,,,,,,,,,0,1,1,1,0,1,1,1,,,,,,,,,,,,,,,,,,,,,,,,,,,,,,,,,,,,,,,,,,,,,,,796.7348503009998,None,796.7348503009998,None,796.7348503009998,None,s,0,1.2595905599991966,798.2700010789995,None,798.2700010789995,None,798.2700010789995,None,799.601836885,None,799.601836885,None,799.601836885,None,799.601836885,None,,,,,,,,,,,,,,,,,,,,,,,,,,,,,,,,,,,,,,,,,,,,001,33,2020_Jan_30_1101,spring_faces,3.1.5,60.12314458541963,
condition files/Stage2_2.xlsx,,B5,T5,s,"['s', 'r']","['Stratego', 'Risk']","[-0.15, 0.5]","[0.15, 0.5]",1,1,,,,,,,,,,,,,,,,,0,1,1,1,0,2,2,0,,,,,,,,,,,,,,,,,,,,,,,,,,,,,,,,,,,,,,,,,,,,,,,801.5514387200001,None,801.5514387200001,None,801.5514387200001,None,s,1,1.708568431000458,803.0850969499988,None,803.0850969499988,None,803.0850969499988,None,804.8524162609992,None,804.8524162609992,None,804.8524162609992,None,804.8524162609992,None,,,,,,,,,,,,,,,,,,,,,,,,,,,,,,,,,,,,,,,,,,,,001,33,2020_Jan_30_1101,spring_faces,3.1.5,60.12314458541963,
condition files/Stage2_2.xlsx,,T2,B2,r,"['s', 'r']","['Stratego', 'Risk']","[-0.15, 0.5]","[0.15, 0.5]",1,1,,,,,,,,,,,,,,,,,0,1,1,1,0,3,3,3,,,,,,,,,,,,,,,,,,,,,,,,,,,,,,,,,,,,,,,,,,,,,,,806.8184520180002,None,806.8184520180002,None,806.8184520180002,None,r,1,1.4658558949995495,808.3677212459988,None,808.3677212459988,None,808.3677212459988,None,809.8873018189988,None,809.8873018189988,None,809.8873018189988,None,809.8873018189988,None,,,,,,,,,,,,,,,,,,,,,,,,,,,,,,,,,,,,,,,,,,,,001,33,2020_Jan_30_1101,spring_faces,3.1.5,60.12314458541963,
condition files/Stage2_2.xlsx,,B1,T1,s,"['s', 'r']","['Stratego', 'Risk']","[-0.15, 0.5]","[0.15, 0.5]",1,1,,,,,,,,,,,,,,,,,0,1,1,1,0,4,4,2,,,,,,,,,,,,,,,,,,,,,,,,,,,,,,,,,,,,,,,,,,,,,,,811.8515682689995,None,811.8515682689995,None,811.8515682689995,None,s,1,1.1844678220004425,813.385104039,None,813.385104039,None,813.385104039,None,814.6516865969988,None,814.6516865969988,None,814.6516865969988,None,814.6516865969988,None,,,,,,,,,,,,,,,,,,,,,,,,,,,,,,,,,,,,,,,,,,,,001,33,2020_Jan_30_1101,spring_faces,3.1.5,60.12314458541963,
condition files/Stage2_2.xlsx,,T4,B4,r,"['s', 'r']","['Stratego', 'Risk']","[-0.15, 0.5]","[0.15, 0.5]",1,1,,,,,,,,,,,,,,,,,0,1,1,1,0,5,5,5,,,,,,,,,,,,,,,,,,,,,,,,,,,,,,,,,,,,,,,,,,,,,,,816.601667125,None,816.601667125,None,816.601667125,None,r,1,1.0094762759999867,818.1361801330004,None,818.1361801330004,None,818.1361801330004,None,819.203397461999,None,819.203397461999,None,819.203397461999,None,819.203397461999,None,,,,,,,,,,,,,,,,,,,,,,,,,,,,,,,,,,,,,,,,,,,,001,33,2020_Jan_30_1101,spring_faces,3.1.5,60.12314458541963,
condition files/Stage2_1.xlsx,,B4,T4,r,"['s', 'r']","['Stratego', 'Risk']","[-0.15, 0.5]","[0.15, 0.5]",1,1,,,,,,,,,,,,,,,,,0,2,2,2,0,0,0,5,,,,,,,,,,,,,,,,,,,,,,,,,,,,,,,,,,,,,,,,,,,,,,,821.1847977460002,None,821.1847977460002,None,821.1847977460002,None,r,1,0.763268322998556,822.718431674999,None,822.718431674999,None,822.718431674999,None,823.5346069539992,None,823.5346069539992,None,823.5346069539992,None,823.5346069539992,None,,,,,,,,,,,,,,,,,,,,,,,,,,,,,,,,,,,,,,,,,,,,001,33,2020_Jan_30_1101,spring_faces,3.1.5,60.12314458541963,
condition files/Stage2_1.xlsx,,T1,B1,s,"['s', 'r']","['Stratego', 'Risk']","[-0.15, 0.5]","[0.15, 0.5]",1,1,,,,,,,,,,,,,,,,,0,2,2,2,0,1,1,2,,,,,,,,,,,,,,,,,,,,,,,,,,,,,,,,,,,,,,,,,,,,,,,825.5014915039992,None,825.5014915039992,None,825.5014915039992,None,s,1,0.8135091479998664,827.0520552670005,None,827.0520552670005,None,827.0520552670005,None,827.9352422769989,None,827.9352422769989,None,827.9352422769989,None,827.9352422769989,None,,,,,,,,,,,,,,,,,,,,,,,,,,,,,,,,,,,,,,,,,,,,001,33,2020_Jan_30_1101,spring_faces,3.1.5,60.12314458541963,
condition files/Stage2_1.xlsx,,B2,T2,r,"['s', 'r']","['Stratego', 'Risk']","[-0.15, 0.5]","[0.15, 0.5]",1,1,,,,,,,,,,,,,,,,,0,2,2,2,0,2,2,3,,,,,,,,,,,,,,,,,,,,,,,,,,,,,,,,,,,,,,,,,,,,,,,829.8844618869989,None,829.8844618869989,None,829.8844618869989,None,r,1,1.407694083000024,831.4179739319989,None,831.4179739319989,None,831.4179739319989,None,832.8860973110004,None,832.8860973110004,None,832.8860973110004,None,832.8860973110004,None,,,,,,,,,,,,,,,,,,,,,,,,,,,,,,,,,,,,,,,,,,,,001,33,2020_Jan_30_1101,spring_faces,3.1.5,60.12314458541963,
condition files/Stage2_1.xlsx,,T5,B5,s,"['s', 'r']","['Stratego', 'Risk']","[-0.15, 0.5]","[0.15, 0.5]",1,1,,,,,,,,,,,,,,,,,0,2,2,2,0,3,3,0,,,,,,,,,,,,,,,,,,,,,,,,,,,,,,,,,,,,,,,,,,,,,,,834.8516053679996,None,834.8516053679996,None,834.8516053679996,None,s,1,1.5426297199992405,836.3869384329992,None,836.3869384329992,None,836.3869384329992,None,837.986801830999,None,837.986801830999,None,837.986801830999,None,837.986801830999,None,,,,,,,,,,,,,,,,,,,,,,,,,,,,,,,,,,,,,,,,,,,,001,33,2020_Jan_30_1101,spring_faces,3.1.5,60.12314458541963,
condition files/Stage2_1.xlsx,,B6,T6,r,"['s', 'r']","['Stratego', 'Risk']","[-0.15, 0.5]","[0.15, 0.5]",1,1,,,,,,,,,,,,,,,,,0,2,2,2,0,4,4,1,,,,,,,,,,,,,,,,,,,,,,,,,,,,,,,,,,,,,,,,,,,,,,,839.9510414710003,None,839.9510414710003,None,839.9510414710003,None,r,1,1.3411426450002182,841.4845321119992,None,841.4845321119992,None,841.4845321119992,None,842.8843379609989,None,842.8843379609989,None,842.8843379609989,None,842.8843379609989,None,,,,,,,,,,,,,,,,,,,,,,,,,,,,,,,,,,,,,,,,,,,,001,33,2020_Jan_30_1101,spring_faces,3.1.5,60.12314458541963,
condition files/Stage2_1.xlsx,,T3,B3,s,"['s', 'r']","['Stratego', 'Risk']","[-0.15, 0.5]","[0.15, 0.5]",1,1,,,,,,,,,,,,,,,,,0,2,2,2,0,5,5,4,,,,,,,,,,,,,,,,,,,,,,,,,,,,,,,,,,,,,,,,,,,,,,,844.8511743300005,None,844.8511743300005,None,844.8511743300005,None,r,0,2.456291766000504,846.4013469090005,None,846.4013469090005,None,846.4013469090005,None,848.9179420380005,None,848.9179420380005,None,848.9179420380005,None,848.9179420380005,None,,,,,,,,,,,,,,,,,,,,,,,,,,,,,,,,,,,,,,,,,,,,001,33,2020_Jan_30_1101,spring_faces,3.1.5,60.12314458541963,
condition files/Stage2_2.xlsx,,T2,B2,r,"['s', 'r']","['Stratego', 'Risk']","[-0.15, 0.5]","[0.15, 0.5]",1,1,,,,,,,,,,,,,,,,,0,3,3,3,0,0,0,3,,,,,,,,,,,,,,,,,,,,,,,,,,,,,,,,,,,,,,,,,,,,,,,850.9014019759998,None,850.9014019759998,None,850.9014019759998,None,r,1,1.0787084830008098,852.4348838669994,None,852.4348838669994,None,852.4348838669994,None,853.5695032129988,None,853.5695032129988,None,853.5695032129988,None,853.5695032129988,None,,,,,,,,,,,,,,,,,,,,,,,,,,,,,,,,,,,,,,,,,,,,001,33,2020_Jan_30_1101,spring_faces,3.1.5,60.12314458541963,
condition files/Stage2_2.xlsx,,T4,B4,r,"['s', 'r']","['Stratego', 'Risk']","[-0.15, 0.5]","[0.15, 0.5]",1,1,,,,,,,,,,,,,,,,,0,3,3,3,0,1,1,5,,,,,,,,,,,,,,,,,,,,,,,,,,,,,,,,,,,,,,,,,,,,,,,855.5348748699998,None,855.5348748699998,None,855.5348748699998,None,r,1,0.8936929589999636,857.0679475859997,None,857.0679475859997,None,857.0679475859997,None,858.0186339100001,None,858.0186339100001,None,858.0186339100001,None,858.0186339100001,None,,,,,,,,,,,,,,,,,,,,,,,,,,,,,,,,,,,,,,,,,,,,001,33,2020_Jan_30_1101,spring_faces,3.1.5,60.12314458541963,
condition files/Stage2_2.xlsx,,B5,T5,s,"['s', 'r']","['Stratego', 'Risk']","[-0.15, 0.5]","[0.15, 0.5]",1,1,,,,,,,,,,,,,,,,,0,3,3,3,0,2,2,0,,,,,,,,,,,,,,,,,,,,,,,,,,,,,,,,,,,,,,,,,,,,,,,859.9849624469989,None,859.9849624469989,None,859.9849624469989,None,s,1,0.8888596189990494,861.5208174039999,None,861.5208174039999,None,861.5208174039999,None,862.4698130109991,None,862.4698130109991,None,862.4698130109991,None,862.4698130109991,None,,,,,,,,,,,,,,,,,,,,,,,,,,,,,,,,,,,,,,,,,,,,001,33,2020_Jan_30_1101,spring_faces,3.1.5,60.12314458541963,
condition files/Stage2_2.xlsx,,B3,T3,s,"['s', 'r']","['Stratego', 'Risk']","[-0.15, 0.5]","[0.15, 0.5]",1,1,,,,,,,,,,,,,,,,,0,3,3,3,0,3,3,4,,,,,,,,,,,,,,,,,,,,,,,,,,,,,,,,,,,,,,,,,,,,,,,864.4349592489998,None,864.4349592489998,None,864.4349592489998,None,s,1,1.0815954680001596,865.9680040539988,None,865.9680040539988,None,865.9680040539988,None,867.1017190729999,None,867.1017190729999,None,867.1017190729999,None,867.1017190729999,None,,,,,,,,,,,,,,,,,,,,,,,,,,,,,,,,,,,,,,,,,,,,001,33,2020_Jan_30_1101,spring_faces,3.1.5,60.12314458541963,
condition files/Stage2_2.xlsx,,B1,T1,s,"['s', 'r']","['Stratego', 'Risk']","[-0.15, 0.5]","[0.15, 0.5]",1,1,,,,,,,,,,,,,,,,,0,3,3,3,0,4,4,2,,,,,,,,,,,,,,,,,,,,,,,,,,,,,,,,,,,,,,,,,,,,,,,869.0685060769993,None,869.0685060769993,None,869.0685060769993,None,s,1,1.3912704720005422,870.6023855530002,None,870.6023855530002,None,870.6023855530002,None,872.0513777729993,None,872.0513777729993,None,872.0513777729993,None,872.0513777729993,None,,,,,,,,,,,,,,,,,,,,,,,,,,,,,,,,,,,,,,,,,,,,001,33,2020_Jan_30_1101,spring_faces,3.1.5,60.12314458541963,
condition files/Stage2_2.xlsx,,T6,B6,r,"['s', 'r']","['Stratego', 'Risk']","[-0.15, 0.5]","[0.15, 0.5]",1,1,,,,,,,,,,,,,,,,,0,3,3,3,0,5,5,1,,,,,,,,,,,,,,,,,,,,,,,,,,,,,,,,,,,,,,,,,,,,,,,874.0181506629997,None,874.0181506629997,None,874.0181506629997,None,r,1,1.1290605690010125,875.5526498349991,None,875.5526498349991,None,875.5526498349991,None,876.7345759219988,None,876.7345759219988,None,876.7345759219988,None,876.7345759219988,None,,,,,,,,,,,,,,,,,,,,,,,,,,,,,,,,,,,,,,,,,,,,001,33,2020_Jan_30_1101,spring_faces,3.1.5,60.12314458541963,
condition files/Stage2_1.xlsx,,B6,T6,r,"['s', 'r']","['Stratego', 'Risk']","[-0.15, 0.5]","[0.15, 0.5]",1,1,,,,,,,,,,,,,,,,,0,4,4,4,0,0,0,1,,,,,,,,,,,,,,,,,,,,,,,,,,,,,,,,,,,,,,,,,,,,,,,878.7185831059996,None,878.7185831059996,None,878.7185831059996,None,r,1,0.8930757210000593,880.2525974830005,None,880.2525974830005,None,880.2525974830005,None,881.2015896659996,None,881.2015896659996,None,881.2015896659996,None,881.2015896659996,None,,,,,,,,,,,,,,,,,,,,,,,,,,,,,,,,,,,,,,,,,,,,001,33,2020_Jan_30_1101,spring_faces,3.1.5,60.12314458541963,
condition files/Stage2_1.xlsx,,T5,B5,s,"['s', 'r']","['Stratego', 'Risk']","[-0.15, 0.5]","[0.15, 0.5]",1,1,,,,,,,,,,,,,,,,,0,4,4,4,0,1,1,0,,,,,,,,,,,,,,,,,,,,,,,,,,,,,,,,,,,,,,,,,,,,,,,883.1682547639994,None,883.1682547639994,None,883.1682547639994,None,s,1,1.1313042829988262,884.7022845459996,None,884.7022845459996,None,884.7022845459996,None,885.8870562119992,None,885.8870562119992,None,885.8870562119992,None,885.8870562119992,None,,,,,,,,,,,,,,,,,,,,,,,,,,,,,,,,,,,,,,,,,,,,001,33,2020_Jan_30_1101,spring_faces,3.1.5,60.12314458541963,
condition files/Stage2_1.xlsx,,B4,T4,r,"['s', 'r']","['Stratego', 'Risk']","[-0.15, 0.5]","[0.15, 0.5]",1,1,,,,,,,,,,,,,,,,,0,4,4,4,0,2,2,5,,,,,,,,,,,,,,,,,,,,,,,,,,,,,,,,,,,,,,,,,,,,,,,887.8510058319989,None,887.8510058319989,None,887.8510058319989,None,r,1,1.393164462999266,889.3845097969988,None,889.3845097969988,None,889.3845097969988,None,890.8354012039999,None,890.8354012039999,None,890.8354012039999,None,890.8354012039999,None,,,,,,,,,,,,,,,,,,,,,,,,,,,,,,,,,,,,,,,,,,,,001,33,2020_Jan_30_1101,spring_faces,3.1.5,60.12314458541963,
