condsFile,subStage,cue1,cue2,correct,responseKeys,responseNames,cue1Position,cue2Position,cue1Opacity,cue2Opacity,stageLoop0.thisRepN,stageLoop0.thisTrialN,stageLoop0.thisN,stageLoop0.thisIndex,blockLoop0.thisRepN,blockLoop0.thisTrialN,blockLoop0.thisN,blockLoop0.thisIndex,stage1Loop.thisRepN,stage1Loop.thisTrialN,stage1Loop.thisN,stage1Loop.thisIndex,blockLoop1.thisRepN,blockLoop1.thisTrialN,blockLoop1.thisN,blockLoop1.thisIndex,stage2Loop.thisRepN,stage2Loop.thisTrialN,stage2Loop.thisN,stage2Loop.thisIndex,blockLoop2.thisRepN,blockLoop2.thisTrialN,blockLoop2.thisN,blockLoop2.thisIndex,testLoop.thisRepN,testLoop.thisTrialN,testLoop.thisN,testLoop.thisIndex,blockLoopTest.thisRepN,blockLoopTest.thisTrialN,blockLoopTest.thisN,blockLoopTest.thisIndex,cuePics,id_instr_text.started,id_instr_text.stopped,space_to_continue_2.started,space_to_continue_2.stopped,end_instructions_resp_3.keys,end_instructions_resp_3.rt,end_instructions_resp_3.started,end_instructions_resp_3.stopped,id_input_instr.started,id_input_instr.stopped,id_input_rect.started,id_input_rect.stopped,id_input_resp.keys,id_input_resp.rt,id_input_resp.started,id_input_resp.stopped,sonaID,id_input_text.started,id_input_text.stopped,final_text.started,final_text.stopped,instructions.started,instructions.stopped,end_instructions_resp.keys,end_instructions_resp.rt,end_instructions_resp.started,end_instructions_resp.stopped,space_to_continue.started,space_to_continue.stopped,instructions_stage0.started,instructions_stage0.stopped,end_instructions_resp_stage0.keys,end_instructions_resp_stage0.rt,end_instructions_resp_stage0.started,end_instructions_resp_stage0.stopped,space_to_continue_stage0.started,space_to_continue_stage0.stopped,text.started,text.stopped,resp_text1.started,resp_text1.stopped,resp_text2.started,resp_text2.stopped,trial_resp.keys,trial_resp.corr,trial_resp.rt,trial_resp.started,trial_resp.stopped,cue1Image.started,cue1Image.stopped,cue2Image.started,cue2Image.stopped,cue1Image_fb.started,cue1Image_fb.stopped,cue2Image_fb.started,cue2Image_fb.stopped,fb_text_answer.started,fb_text_answer.stopped,feedback_image.started,feedback_image.stopped,instructions_stage1.started,instructions_stage1.stopped,end_instructions_resp_stage1.keys,end_instructions_resp_stage1.rt,end_instructions_resp_stage1.started,end_instructions_resp_stage1.stopped,space_to_continue_stage1.started,space_to_continue_stage1.stopped,instructions_2.started,instructions_2.stopped,end_instructions_resp_2.keys,end_instructions_resp_2.rt,end_instructions_resp_2.started,end_instructions_resp_2.stopped,press_space_to_continue_stage2.started,press_space_to_continue_stage2.stopped,instructions_testStage1.started,instructions_testStage1.stopped,end_instructions_resp_test1.keys,end_instructions_resp_test1.rt,end_instructions_resp_test1.started,end_instructions_resp_test1.stopped,press_space_to_continue_test1.started,press_space_to_continue_test1.stopped,cue1Image_testChoice.started,cue1Image_testChoice.stopped,cue2Image_testChoice.started,cue2Image_testChoice.stopped,test_resp.keys,test_resp.corr,test_resp.rt,test_resp.started,test_resp.stopped,cue1Image_testConf.started,cue1Image_testConf.stopped,cue2Image_testConf.started,cue2Image_testConf.stopped,conf_reminder.started,conf_reminder.stopped,conf_rating.response,conf_rating.rt,conf_rating.started,conf_rating.stopped,session,participant,date,expName,psychopyVersion,frameRate,
,,,,,,,,,,,,,,,,,,,,,,,,,,,,,,,,,,,,,,,,,,,"{'none': 'pictures/20M_AN_C.png', 'alpha': 'pictures/SHINEd_pear.png', 'beta': 'pictures/SHINEd_apple.png', 'theta': 'pictures/SHINEd_pepper.png', 'phi': 'pictures/SHINEd_melon.png', 'T1': 'pictures/34M_AN_C.png', 'T2': 'pictures/23M_AN_C.png', 'T3': 'pictures/38M_AN_C.png', 'T4': 'pictures/31M_AN_C.png', 'T5': 'pictures/25M_AN_C.png', 'T6': 'pictures/20M_AN_C.png', 'B1': 'pictures/33M_NE_C.png', 'B2': 'pictures/36M_NE_C.png', 'B3': 'pictures/26M_NE_C.png', 'B4': 'pictures/37M_NE_C.png', 'B5': 'pictures/22M_NE_C.png', 'B6': 'pictures/32M_NE_C.png'}",8.071520035000503,None,13.072108189999199,None,space,5.875232151998716,13.072108189999199,None,,,,,,,,,,,,,,,,,,,,,,,,,,,,,,,,,,,,,,,,,,,,,,,,,,,,,,,,,,,,,,,,,,,,,,,,,,,,,,,,,,,,,,,,,,,,,,,,001,34,2020_Jan_30_1130,spring_faces,3.1.5,60.02598476884033,
,,,,,,,,,,,,,,,,,,,,,,,,,,,,,,,,,,,,,,,,,,,,,,,,,,,,19.323115160999805,None,19.323115160999805,None,"['1', '0', '0', '1', 'r', 'e', 'n', 'o', 't', 'backspace', '1', '0', '0', '1', 'r', 'e', 'n', 'o', 'r']","[6.95218487800048, 7.272186621999936, 13.688198068999554, 13.848168706001161, 17.96017421900069, 18.10419578100118, 22.504188446000626, 22.728158338999492, 23.064175299999988, 23.848249728000155, 28.920178571999713, 29.224244107999766, 29.608251347999612, 29.800154360000306, 30.61612319699998, 30.712389039999834, 31.752198131000114, 32.12017801699949, 32.34415447900028]",19.323115160999805,None,,,,,,,,,,,,,,,,,,,,,,,,,,,,,,,,,,,,,,,,,,,,,,,,,,,,,,,,,,,,,,,,,,,,,,,,,,,,,,,,,,,,,,,,001,34,2020_Jan_30_1130,spring_faces,3.1.5,60.02598476884033,
,,,,,,,,,,,,,,,,,,,,,,,,,,,,,,,,,,,,,,,,,,,,,,,,,,,,,,,,,,,,1001renor,19.323115160999805,None,19.323115160999805,None,56.73905669299893,None,space,0.29646483000033186,61.738950733999445,None,,,,,,,,,,,,,,,,,,,,,,,,,,,,,,,,,,,,,,,,,,,,,,,,,,,,,,,,,,,,,,,,,,,,,,,,,,,,,001,34,2020_Jan_30_1130,spring_faces,3.1.5,60.02598476884033,
,,,,,,,,,,,,,,,,,,,,,,,,,,,,,,,,,,,,,,,,,,,,,,,,,,,,,,,,,,,,,,,,,,,,,,,61.738950733999445,None,62.072567510000226,None,space,1.2831239080005616,67.07217745100024,None,,,,,,,,,,,,,,,,,,,,,,,,,,,,,,,,,,,,,,,,,,,,,,,,,,,,,,,,,,,,,,,,,,,,,001,34,2020_Jan_30_1130,spring_faces,3.1.5,60.02598476884033,
condition files/Stage0a.xlsx,0a,alpha,none,h,"['h', 'g']","['Chess', 'Go']","[0, 0.5]","[0, 0]",1,0,0,0,0,0,0,0,0,0,,,,,,,,,,,,,,,,,,,,,,,,,,,,,,,,,,,,,,,,,,,,,,,,,,,,,,,,,,,,,67.07217745100024,None,68.43916224599889,None,68.43916224599889,None,68.43916224599889,None,h,1,3.0542610399988916,69.98901562199899,None,69.98901562199899,None,69.98901562199899,None,73.1220416039996,None,73.1220416039996,None,73.1220416039996,None,73.1220416039996,None,,,,,,,,,,,,,,,,,,,,,,,,,,,,,,,,,,,,,,,,,,,,001,34,2020_Jan_30_1130,spring_faces,3.1.5,60.02598476884033,
condition files/Stage0a.xlsx,0a,beta,none,g,"['h', 'g']","['Chess', 'Go']","[0, 0.5]","[0, 0]",1,0,0,0,0,0,0,1,1,1,,,,,,,,,,,,,,,,,,,,,,,,,,,,,,,,,,,,,,,,,,,,,,,,,,,,,,,,,,,,,,,75.07202319099997,None,75.07202319099997,None,75.07202319099997,None,g,1,0.7580613480004104,76.60529929699987,None,76.60529929699987,None,76.60529929699987,None,77.42204011899958,None,77.42204011899958,None,77.42204011899958,None,77.42204011899958,None,,,,,,,,,,,,,,,,,,,,,,,,,,,,,,,,,,,,,,,,,,,,001,34,2020_Jan_30_1130,spring_faces,3.1.5,60.02598476884033,
condition files/Stage0a.xlsx,0a,alpha,none,h,"['h', 'g']","['Chess', 'Go']","[0, 0.5]","[0, 0]",1,0,0,1,1,1,0,0,0,0,,,,,,,,,,,,,,,,,,,,,,,,,,,,,,,,,,,,,,,,,,,,,,,,,,,,,,,,,,,,,,,79.40562138799942,None,79.40562138799942,None,79.40562138799942,None,h,1,0.4560623270008364,80.93917340699954,None,80.93917340699954,None,80.93917340699954,None,81.45481155000016,None,81.45481155000016,None,81.45481155000016,None,81.45481155000016,None,,,,,,,,,,,,,,,,,,,,,,,,,,,,,,,,,,,,,,,,,,,,001,34,2020_Jan_30_1130,spring_faces,3.1.5,60.02598476884033,
condition files/Stage0a.xlsx,0a,beta,none,g,"['h', 'g']","['Chess', 'Go']","[0, 0.5]","[0, 0]",1,0,0,1,1,1,0,1,1,1,,,,,,,,,,,,,,,,,,,,,,,,,,,,,,,,,,,,,,,,,,,,,,,,,,,,,,,,,,,,,,,83.42256967100002,None,83.42256967100002,None,83.42256967100002,None,g,1,0.5838664630009589,84.9553711690005,None,84.9553711690005,None,84.9553711690005,None,85.60568059999969,None,85.60568059999969,None,85.60568059999969,None,85.60568059999969,None,,,,,,,,,,,,,,,,,,,,,,,,,,,,,,,,,,,,,,,,,,,,001,34,2020_Jan_30_1130,spring_faces,3.1.5,60.02598476884033,
condition files/Stage0a.xlsx,0a,alpha,none,h,"['h', 'g']","['Chess', 'Go']","[0, 0.5]","[0, 0]",1,0,0,2,2,2,0,0,0,0,,,,,,,,,,,,,,,,,,,,,,,,,,,,,,,,,,,,,,,,,,,,,,,,,,,,,,,,,,,,,,,87.58873156700065,None,87.58873156700065,None,87.58873156700065,None,h,1,0.6569992569984606,89.12235137800053,None,89.12235137800053,None,89.12235137800053,None,89.83862723200036,None,89.83862723200036,None,89.83862723200036,None,89.83862723200036,None,,,,,,,,,,,,,,,,,,,,,,,,,,,,,,,,,,,,,,,,,,,,001,34,2020_Jan_30_1130,spring_faces,3.1.5,60.02598476884033,
condition files/Stage0a.xlsx,0a,beta,none,g,"['h', 'g']","['Chess', 'Go']","[0, 0.5]","[0, 0]",1,0,0,2,2,2,0,1,1,1,,,,,,,,,,,,,,,,,,,,,,,,,,,,,,,,,,,,,,,,,,,,,,,,,,,,,,,,,,,,,,,91.80536827799915,None,91.80536827799915,None,91.80536827799915,None,g,1,0.8406372780009406,93.33872713399978,None,93.33872713399978,None,93.33872713399978,None,94.23923763099992,None,94.23923763099992,None,94.23923763099992,None,94.23923763099992,None,,,,,,,,,,,,,,,,,,,,,,,,,,,,,,,,,,,,,,,,,,,,001,34,2020_Jan_30_1130,spring_faces,3.1.5,60.02598476884033,
condition files/Stage0a.xlsx,0a,alpha,none,h,"['h', 'g']","['Chess', 'Go']","[0, 0.5]","[0, 0]",1,0,0,3,3,3,0,0,0,0,,,,,,,,,,,,,,,,,,,,,,,,,,,,,,,,,,,,,,,,,,,,,,,,,,,,,,,,,,,,,,,96.2216614329991,None,96.2216614329991,None,96.2216614329991,None,h,1,0.5039343170010397,97.75537780999912,None,97.75537780999912,None,97.75537780999912,None,98.3224713999989,None,98.3224713999989,None,98.3224713999989,None,98.3224713999989,None,,,,,,,,,,,,,,,,,,,,,,,,,,,,,,,,,,,,,,,,,,,,001,34,2020_Jan_30_1130,spring_faces,3.1.5,60.02598476884033,
condition files/Stage0a.xlsx,0a,beta,none,g,"['h', 'g']","['Chess', 'Go']","[0, 0.5]","[0, 0]",1,0,0,3,3,3,0,1,1,1,,,,,,,,,,,,,,,,,,,,,,,,,,,,,,,,,,,,,,,,,,,,,,,,,,,,,,,,,,,,,,,100.28890258699903,None,100.28890258699903,None,100.28890258699903,None,g,1,0.46895249400040484,101.82233732399982,None,101.82233732399982,None,101.82233732399982,None,102.35535913700005,None,102.35535913700005,None,102.35535913700005,None,102.35535913700005,None,,,,,,,,,,,,,,,,,,,,,,,,,,,,,,,,,,,,,,,,,,,,001,34,2020_Jan_30_1130,spring_faces,3.1.5,60.02598476884033,
condition files/Stage0a.xlsx,0a,alpha,none,h,"['h', 'g']","['Chess', 'Go']","[0, 0.5]","[0, 0]",1,0,0,4,4,4,0,0,0,0,,,,,,,,,,,,,,,,,,,,,,,,,,,,,,,,,,,,,,,,,,,,,,,,,,,,,,,,,,,,,,,104.33891570699961,None,104.33891570699961,None,104.33891570699961,None,h,1,0.5147862160010845,105.87248429799911,None,105.87248429799911,None,105.87248429799911,None,106.43863418900037,None,106.43863418900037,None,106.43863418900037,None,106.43863418900037,None,,,,,,,,,,,,,,,,,,,,,,,,,,,,,,,,,,,,,,,,,,,,001,34,2020_Jan_30_1130,spring_faces,3.1.5,60.02598476884033,
condition files/Stage0a.xlsx,0a,beta,none,g,"['h', 'g']","['Chess', 'Go']","[0, 0.5]","[0, 0]",1,0,0,4,4,4,0,1,1,1,,,,,,,,,,,,,,,,,,,,,,,,,,,,,,,,,,,,,,,,,,,,,,,,,,,,,,,,,,,,,,,108.40532250599972,None,108.40532250599972,None,108.40532250599972,None,g,1,0.5118420789985976,109.93940615400061,None,109.93940615400061,None,109.93940615400061,None,110.5052514809995,None,110.5052514809995,None,110.5052514809995,None,110.5052514809995,None,,,,,,,,,,,,,,,,,,,,,,,,,,,,,,,,,,,,,,,,,,,,001,34,2020_Jan_30_1130,spring_faces,3.1.5,60.02598476884033,
condition files/Stage0a.xlsx,0a,alpha,none,h,"['h', 'g']","['Chess', 'Go']","[0, 0.5]","[0, 0]",1,0,0,5,5,5,0,0,0,0,,,,,,,,,,,,,,,,,,,,,,,,,,,,,,,,,,,,,,,,,,,,,,,,,,,,,,,,,,,,,,,112.48853202200007,None,112.48853202200007,None,112.48853202200007,None,h,1,0.6050148039994383,114.02227232699988,None,114.02227232699988,None,114.02227232699988,None,114.68913735099886,None,114.68913735099886,None,114.68913735099886,None,114.68913735099886,None,,,,,,,,,,,,,,,,,,,,,,,,,,,,,,,,,,,,,,,,,,,,001,34,2020_Jan_30_1130,spring_faces,3.1.5,60.02598476884033,
condition files/Stage0a.xlsx,0a,beta,none,g,"['h', 'g']","['Chess', 'Go']","[0, 0.5]","[0, 0]",1,0,0,5,5,5,0,1,1,1,,,,,,,,,,,,,,,,,,,,,,,,,,,,,,,,,,,,,,,,,,,,,,,,,,,,,,,,,,,,,,,116.65534323099928,None,116.65534323099928,None,116.65534323099928,None,g,1,0.9022191599997313,118.18906199099911,None,118.18906199099911,None,118.18906199099911,None,119.15561267500016,None,119.15561267500016,None,119.15561267500016,None,119.15561267500016,None,,,,,,,,,,,,,,,,,,,,,,,,,,,,,,,,,,,,,,,,,,,,001,34,2020_Jan_30_1130,spring_faces,3.1.5,60.02598476884033,
condition files/Stage0b_1.xlsx,0b,alpha,none,h,"['h', 'g']","['Chess', 'Go']","[-0.15, 0.5]","[0.15, 0.5]",1,0,0,6,6,6,0,0,0,0,,,,,,,,,,,,,,,,,,,,,,,,,,,,,,,,,,,,,,,,,,,,,,,,,,,,,,,,,,,,,,,121.13903149900034,None,121.13903149900034,None,121.13903149900034,None,h,1,0.5470598720003181,122.67216379999991,None,122.67216379999991,None,122.67216379999991,None,123.27186736899966,None,123.27186736899966,None,123.27186736899966,None,123.27186736899966,None,,,,,,,,,,,,,,,,,,,,,,,,,,,,,,,,,,,,,,,,,,,,001,34,2020_Jan_30_1130,spring_faces,3.1.5,60.02598476884033,
condition files/Stage0b_1.xlsx,0b,none,beta,g,"['h', 'g']","['Chess', 'Go']","[-0.15, 0.5]","[0.15, 0.5]",0,1,0,6,6,6,0,1,1,1,,,,,,,,,,,,,,,,,,,,,,,,,,,,,,,,,,,,,,,,,,,,,,,,,,,,,,,,,,,,,,,125.23876483300046,None,125.23876483300046,None,125.23876483300046,None,g,1,0.5741347389994189,126.78921274999993,None,126.78921274999993,None,126.78921274999993,None,127.42776641300043,None,127.42776641300043,None,127.42776641300043,None,127.42776641300043,None,,,,,,,,,,,,,,,,,,,,,,,,,,,,,,,,,,,,,,,,,,,,001,34,2020_Jan_30_1130,spring_faces,3.1.5,60.02598476884033,
condition files/Stage0b_2.xlsx,0b,none,alpha,h,"['h', 'g']","['Chess', 'Go']","[-0.15, 0.5]","[0.15, 0.5]",0,1,0,7,7,7,0,0,0,0,,,,,,,,,,,,,,,,,,,,,,,,,,,,,,,,,,,,,,,,,,,,,,,,,,,,,,,,,,,,,,,129.4059228999995,None,129.4059228999995,None,129.4059228999995,None,h,1,0.4884519059996819,130.93886505099908,None,130.93886505099908,None,130.93886505099908,None,131.48874158299986,None,131.48874158299986,None,131.48874158299986,None,131.48874158299986,None,,,,,,,,,,,,,,,,,,,,,,,,,,,,,,,,,,,,,,,,,,,,001,34,2020_Jan_30_1130,spring_faces,3.1.5,60.02598476884033,
condition files/Stage0b_2.xlsx,0b,beta,none,g,"['h', 'g']","['Chess', 'Go']","[-0.15, 0.5]","[0.15, 0.5]",1,0,0,7,7,7,0,1,1,1,,,,,,,,,,,,,,,,,,,,,,,,,,,,,,,,,,,,,,,,,,,,,,,,,,,,,,,,,,,,,,,133.4553603129989,None,133.4553603129989,None,133.4553603129989,None,g,1,0.7098010259996954,135.00547655099945,None,135.00547655099945,None,135.00547655099945,None,135.78920708700025,None,135.78920708700025,None,135.78920708700025,None,135.78920708700025,None,,,,,,,,,,,,,,,,,,,,,,,,,,,,,,,,,,,,,,,,,,,,001,34,2020_Jan_30_1130,spring_faces,3.1.5,60.02598476884033,
condition files/Stage0b_1.xlsx,0b,alpha,none,h,"['h', 'g']","['Chess', 'Go']","[-0.15, 0.5]","[0.15, 0.5]",1,0,0,8,8,8,0,0,0,0,,,,,,,,,,,,,,,,,,,,,,,,,,,,,,,,,,,,,,,,,,,,,,,,,,,,,,,,,,,,,,,137.7555363979991,None,137.7555363979991,None,137.7555363979991,None,h,1,0.6188266099998145,139.2724575049997,None,139.2724575049997,None,139.2724575049997,None,139.95560939799907,None,139.95560939799907,None,139.95560939799907,None,139.95560939799907,None,,,,,,,,,,,,,,,,,,,,,,,,,,,,,,,,,,,,,,,,,,,,001,34,2020_Jan_30_1130,spring_faces,3.1.5,60.02598476884033,
condition files/Stage0b_1.xlsx,0b,none,beta,g,"['h', 'g']","['Chess', 'Go']","[-0.15, 0.5]","[0.15, 0.5]",0,1,0,8,8,8,0,1,1,1,,,,,,,,,,,,,,,,,,,,,,,,,,,,,,,,,,,,,,,,,,,,,,,,,,,,,,,,,,,,,,,141.92145061299925,None,141.92145061299925,None,141.92145061299925,None,g,1,0.36807633499847725,143.45920495599967,None,143.45920495599967,None,143.45920495599967,None,143.8926059639998,None,143.8926059639998,None,143.8926059639998,None,143.8926059639998,None,,,,,,,,,,,,,,,,,,,,,,,,,,,,,,,,,,,,,,,,,,,,001,34,2020_Jan_30_1130,spring_faces,3.1.5,60.02598476884033,
condition files/Stage0b_2.xlsx,0b,beta,none,g,"['h', 'g']","['Chess', 'Go']","[-0.15, 0.5]","[0.15, 0.5]",1,0,0,9,9,9,0,0,0,1,,,,,,,,,,,,,,,,,,,,,,,,,,,,,,,,,,,,,,,,,,,,,,,,,,,,,,,,,,,,,,,145.87238541599982,None,145.87238541599982,None,145.87238541599982,None,g,1,0.7256262820010306,147.38966011899902,None,147.38966011899902,None,147.38966011899902,None,148.17228340399924,None,148.17228340399924,None,148.17228340399924,None,148.17228340399924,None,,,,,,,,,,,,,,,,,,,,,,,,,,,,,,,,,,,,,,,,,,,,001,34,2020_Jan_30_1130,spring_faces,3.1.5,60.02598476884033,
condition files/Stage0b_2.xlsx,0b,none,alpha,h,"['h', 'g']","['Chess', 'Go']","[-0.15, 0.5]","[0.15, 0.5]",0,1,0,9,9,9,0,1,1,0,,,,,,,,,,,,,,,,,,,,,,,,,,,,,,,,,,,,,,,,,,,,,,,,,,,,,,,,,,,,,,,150.1380031589997,None,150.1380031589997,None,150.1380031589997,None,h,1,0.5040981359998113,151.6752672629991,None,151.6752672629991,None,151.6752672629991,None,152.2407008680002,None,152.2407008680002,None,152.2407008680002,None,152.2407008680002,None,,,,,,,,,,,,,,,,,,,,,,,,,,,,,,,,,,,,,,,,,,,,001,34,2020_Jan_30_1130,spring_faces,3.1.5,60.02598476884033,
condition files/Stage0b_1.xlsx,0b,alpha,none,h,"['h', 'g']","['Chess', 'Go']","[-0.15, 0.5]","[0.15, 0.5]",1,0,0,10,10,10,0,0,0,0,,,,,,,,,,,,,,,,,,,,,,,,,,,,,,,,,,,,,,,,,,,,,,,,,,,,,,,,,,,,,,,154.22203636599988,None,154.22203636599988,None,154.22203636599988,None,h,1,0.7079571310005122,155.7593277899996,None,155.7593277899996,None,155.7593277899996,None,156.5218813749998,None,156.5218813749998,None,156.5218813749998,None,156.5218813749998,None,,,,,,,,,,,,,,,,,,,,,,,,,,,,,,,,,,,,,,,,,,,,001,34,2020_Jan_30_1130,spring_faces,3.1.5,60.02598476884033,
condition files/Stage0b_1.xlsx,0b,none,beta,g,"['h', 'g']","['Chess', 'Go']","[-0.15, 0.5]","[0.15, 0.5]",0,1,0,10,10,10,0,1,1,1,,,,,,,,,,,,,,,,,,,,,,,,,,,,,,,,,,,,,,,,,,,,,,,,,,,,,,,,,,,,,,,158.4887688689996,None,158.4887688689996,None,158.4887688689996,None,g,1,0.6039307530008955,160.0233755320005,None,160.0233755320005,None,160.0233755320005,None,160.68875227999888,None,160.68875227999888,None,160.68875227999888,None,160.68875227999888,None,,,,,,,,,,,,,,,,,,,,,,,,,,,,,,,,,,,,,,,,,,,,001,34,2020_Jan_30_1130,spring_faces,3.1.5,60.02598476884033,
condition files/Stage0b_2.xlsx,0b,none,alpha,h,"['h', 'g']","['Chess', 'Go']","[-0.15, 0.5]","[0.15, 0.5]",0,1,0,11,11,11,0,0,0,0,,,,,,,,,,,,,,,,,,,,,,,,,,,,,,,,,,,,,,,,,,,,,,,,,,,,,,,,,,,,,,,162.67264272799912,None,162.67264272799912,None,162.67264272799912,None,h,1,0.5656632090012863,164.20563932299956,None,164.20563932299956,None,164.20563932299956,None,164.82246750599916,None,164.82246750599916,None,164.82246750599916,None,164.82246750599916,None,,,,,,,,,,,,,,,,,,,,,,,,,,,,,,,,,,,,,,,,,,,,001,34,2020_Jan_30_1130,spring_faces,3.1.5,60.02598476884033,
condition files/Stage0b_2.xlsx,0b,beta,none,g,"['h', 'g']","['Chess', 'Go']","[-0.15, 0.5]","[0.15, 0.5]",1,0,0,11,11,11,0,1,1,1,,,,,,,,,,,,,,,,,,,,,,,,,,,,,,,,,,,,,,,,,,,,,,,,,,,,,,,,,,,,,,,166.78867084900048,None,166.78867084900048,None,166.78867084900048,None,g,1,0.7043352509990655,168.3389594300006,None,168.3389594300006,None,168.3389594300006,None,169.12213327999962,None,169.12213327999962,None,169.12213327999962,None,169.12213327999962,None,,,,,,,,,,,,,,,,,,,,,,,,,,,,,,,,,,,,,,,,,,,,001,34,2020_Jan_30_1130,spring_faces,3.1.5,60.02598476884033,
condition files/Stage0c_1.xlsx,0c,phi,beta,g,"['h', 'g']","['Chess', 'Go']","[-0.15, 0.5]","[0.15, 0.5]",1,1,0,12,12,12,0,0,0,3,,,,,,,,,,,,,,,,,,,,,,,,,,,,,,,,,,,,,,,,,,,,,,,,,,,,,,,,,,,,,,,171.08893294600057,None,171.08893294600057,None,171.08893294600057,None,h,0,2.0692100359992764,172.62207847900027,None,172.62207847900027,None,172.62207847900027,None,174.74447512900042,None,174.74447512900042,None,174.74447512900042,None,174.74447512900042,None,,,,,,,,,,,,,,,,,,,,,,,,,,,,,,,,,,,,,,,,,,,,001,34,2020_Jan_30_1130,spring_faces,3.1.5,60.02598476884033,
condition files/Stage0c_1.xlsx,0c,beta,theta,g,"['h', 'g']","['Chess', 'Go']","[-0.15, 0.5]","[0.15, 0.5]",1,1,0,12,12,12,0,1,1,2,,,,,,,,,,,,,,,,,,,,,,,,,,,,,,,,,,,,,,,,,,,,,,,,,,,,,,,,,,,,,,,176.7220826119992,None,176.7220826119992,None,176.7220826119992,None,g,1,0.9955371809992357,178.2556991299989,None,178.2556991299989,None,178.2556991299989,None,179.30551248699885,None,179.30551248699885,None,179.30551248699885,None,179.30551248699885,None,,,,,,,,,,,,,,,,,,,,,,,,,,,,,,,,,,,,,,,,,,,,001,34,2020_Jan_30_1130,spring_faces,3.1.5,60.02598476884033,
condition files/Stage0c_1.xlsx,0c,alpha,phi,h,"['h', 'g']","['Chess', 'Go']","[-0.15, 0.5]","[0.15, 0.5]",1,1,0,12,12,12,0,2,2,1,,,,,,,,,,,,,,,,,,,,,,,,,,,,,,,,,,,,,,,,,,,,,,,,,,,,,,,,,,,,,,,181.27159401800054,None,181.27159401800054,None,181.27159401800054,None,h,1,0.9415554699990025,182.8056626609996,None,182.8056626609996,None,182.8056626609996,None,183.8058657649999,None,183.8058657649999,None,183.8058657649999,None,183.8058657649999,None,,,,,,,,,,,,,,,,,,,,,,,,,,,,,,,,,,,,,,,,,,,,001,34,2020_Jan_30_1130,spring_faces,3.1.5,60.02598476884033,
condition files/Stage0c_1.xlsx,0c,theta,alpha,h,"['h', 'g']","['Chess', 'Go']","[-0.15, 0.5]","[0.15, 0.5]",1,1,0,12,12,12,0,3,3,0,,,,,,,,,,,,,,,,,,,,,,,,,,,,,,,,,,,,,,,,,,,,,,,,,,,,,,,,,,,,,,,185.77211057599925,None,185.77211057599925,None,185.77211057599925,None,h,1,0.8417332760000136,187.30561117899924,None,187.30561117899924,None,187.30561117899924,None,188.20497271599925,None,188.20497271599925,None,188.20497271599925,None,188.20497271599925,None,,,,,,,,,,,,,,,,,,,,,,,,,,,,,,,,,,,,,,,,,,,,001,34,2020_Jan_30_1130,spring_faces,3.1.5,60.02598476884033,
condition files/Stage0c_2.xlsx,0c,beta,phi,g,"['h', 'g']","['Chess', 'Go']","[-0.15, 0.5]","[0.15, 0.5]",1,1,0,13,13,13,0,0,0,3,,,,,,,,,,,,,,,,,,,,,,,,,,,,,,,,,,,,,,,,,,,,,,,,,,,,,,,,,,,,,,,190.18892030200004,None,190.18892030200004,None,190.18892030200004,None,g,1,0.553694860998803,191.72160019299918,None,191.72160019299918,None,191.72160019299918,None,192.33887106200018,None,192.33887106200018,None,192.33887106200018,None,192.33887106200018,None,,,,,,,,,,,,,,,,,,,,,,,,,,,,,,,,,,,,,,,,,,,,001,34,2020_Jan_30_1130,spring_faces,3.1.5,60.02598476884033,
condition files/Stage0c_2.xlsx,0c,phi,alpha,h,"['h', 'g']","['Chess', 'Go']","[-0.15, 0.5]","[0.15, 0.5]",1,1,0,13,13,13,0,1,1,1,,,,,,,,,,,,,,,,,,,,,,,,,,,,,,,,,,,,,,,,,,,,,,,,,,,,,,,,,,,,,,,194.30537464500048,None,194.30537464500048,None,194.30537464500048,None,h,1,0.7242819999992207,195.83906482100065,None,195.83906482100065,None,195.83906482100065,None,196.62201615999948,None,196.62201615999948,None,196.62201615999948,None,196.62201615999948,None,,,,,,,,,,,,,,,,,,,,,,,,,,,,,,,,,,,,,,,,,,,,001,34,2020_Jan_30_1130,spring_faces,3.1.5,60.02598476884033,
condition files/Stage0c_2.xlsx,0c,alpha,theta,h,"['h', 'g']","['Chess', 'Go']","[-0.15, 0.5]","[0.15, 0.5]",1,1,0,13,13,13,0,2,2,0,,,,,,,,,,,,,,,,,,,,,,,,,,,,,,,,,,,,,,,,,,,,,,,,,,,,,,,,,,,,,,,198.58827987400036,None,198.58827987400036,None,198.58827987400036,None,h,1,0.7929919300004258,200.12227414399968,None,200.12227414399968,None,200.12227414399968,None,200.95638462900024,None,200.95638462900024,None,200.95638462900024,None,200.95638462900024,None,,,,,,,,,,,,,,,,,,,,,,,,,,,,,,,,,,,,,,,,,,,,001,34,2020_Jan_30_1130,spring_faces,3.1.5,60.02598476884033,
condition files/Stage0c_2.xlsx,0c,theta,beta,g,"['h', 'g']","['Chess', 'Go']","[-0.15, 0.5]","[0.15, 0.5]",1,1,0,13,13,13,0,3,3,2,,,,,,,,,,,,,,,,,,,,,,,,,,,,,,,,,,,,,,,,,,,,,,,,,,,,,,,,,,,,,,,202.93799674500042,None,202.93799674500042,None,202.93799674500042,None,g,1,0.6990332219993434,204.47224696000012,None,204.47224696000012,None,204.47224696000012,None,205.22171439399972,None,205.22171439399972,None,205.22171439399972,None,205.22171439399972,None,,,,,,,,,,,,,,,,,,,,,,,,,,,,,,,,,,,,,,,,,,,,001,34,2020_Jan_30_1130,spring_faces,3.1.5,60.02598476884033,
condition files/Stage0c_1.xlsx,0c,alpha,phi,h,"['h', 'g']","['Chess', 'Go']","[-0.15, 0.5]","[0.15, 0.5]",1,1,0,14,14,14,0,0,0,1,,,,,,,,,,,,,,,,,,,,,,,,,,,,,,,,,,,,,,,,,,,,,,,,,,,,,,,,,,,,,,,207.2057777150003,None,207.2057777150003,None,207.2057777150003,None,h,1,0.608167942998989,208.7391912439998,None,208.7391912439998,None,208.7391912439998,None,209.40560330799963,None,209.40560330799963,None,209.40560330799963,None,209.40560330799963,None,,,,,,,,,,,,,,,,,,,,,,,,,,,,,,,,,,,,,,,,,,,,001,34,2020_Jan_30_1130,spring_faces,3.1.5,60.02598476884033,
condition files/Stage0c_1.xlsx,0c,phi,beta,g,"['h', 'g']","['Chess', 'Go']","[-0.15, 0.5]","[0.15, 0.5]",1,1,0,14,14,14,0,1,1,3,,,,,,,,,,,,,,,,,,,,,,,,,,,,,,,,,,,,,,,,,,,,,,,,,,,,,,,,,,,,,,,211.37135537199902,None,211.37135537199902,None,211.37135537199902,None,g,1,0.7938015999989148,212.90553872599958,None,212.90553872599958,None,212.90553872599958,None,213.75571082100032,None,213.75571082100032,None,213.75571082100032,None,213.75571082100032,None,,,,,,,,,,,,,,,,,,,,,,,,,,,,,,,,,,,,,,,,,,,,001,34,2020_Jan_30_1130,spring_faces,3.1.5,60.02598476884033,
condition files/Stage0c_1.xlsx,0c,beta,theta,g,"['h', 'g']","['Chess', 'Go']","[-0.15, 0.5]","[0.15, 0.5]",1,1,0,14,14,14,0,2,2,2,,,,,,,,,,,,,,,,,,,,,,,,,,,,,,,,,,,,,,,,,,,,,,,,,,,,,,,,,,,,,,,215.72229041500032,None,215.72229041500032,None,215.72229041500032,None,g,1,0.8595692100007,217.25570392400004,None,217.25570392400004,None,217.25570392400004,None,218.15869437999936,None,218.15869437999936,None,218.15869437999936,None,218.15869437999936,None,,,,,,,,,,,,,,,,,,,,,,,,,,,,,,,,,,,,,,,,,,,,001,34,2020_Jan_30_1130,spring_faces,3.1.5,60.02598476884033,
condition files/Stage0c_1.xlsx,0c,theta,alpha,h,"['h', 'g']","['Chess', 'Go']","[-0.15, 0.5]","[0.15, 0.5]",1,1,0,14,14,14,0,3,3,0,,,,,,,,,,,,,,,,,,,,,,,,,,,,,,,,,,,,,,,,,,,,,,,,,,,,,,,,,,,,,,,220.1382033230002,None,220.1382033230002,None,220.1382033230002,None,h,1,0.8276677619996917,221.67168552799922,None,221.67168552799922,None,221.67168552799922,None,222.55581727400022,None,222.55581727400022,None,222.55581727400022,None,222.55581727400022,None,,,,,,,,,,,,,,,,,,,,,,,,,,,,,,,,,,,,,,,,,,,,001,34,2020_Jan_30_1130,spring_faces,3.1.5,60.02598476884033,
condition files/Stage0c_2.xlsx,0c,phi,alpha,h,"['h', 'g']","['Chess', 'Go']","[-0.15, 0.5]","[0.15, 0.5]",1,1,0,15,15,15,0,0,0,1,,,,,,,,,,,,,,,,,,,,,,,,,,,,,,,,,,,,,,,,,,,,,,,,,,,,,,,,,,,,,,,224.53893115499886,None,224.53893115499886,None,224.53893115499886,None,h,1,0.5070277189988701,226.07232638799906,None,226.07232638799906,None,226.07232638799906,None,226.62248804800038,None,226.62248804800038,None,226.62248804800038,None,226.62248804800038,None,,,,,,,,,,,,,,,,,,,,,,,,,,,,,,,,,,,,,,,,,,,,001,34,2020_Jan_30_1130,spring_faces,3.1.5,60.02598476884033,
condition files/Stage0c_2.xlsx,0c,beta,phi,g,"['h', 'g']","['Chess', 'Go']","[-0.15, 0.5]","[0.15, 0.5]",1,1,0,15,15,15,0,1,1,3,,,,,,,,,,,,,,,,,,,,,,,,,,,,,,,,,,,,,,,,,,,,,,,,,,,,,,,,,,,,,,,228.60544475999995,None,228.60544475999995,None,228.60544475999995,None,g,1,0.5685995559997536,230.13868424099928,None,230.13868424099928,None,230.13868424099928,None,230.7722652859993,None,230.7722652859993,None,230.7722652859993,None,230.7722652859993,None,,,,,,,,,,,,,,,,,,,,,,,,,,,,,,,,,,,,,,,,,,,,001,34,2020_Jan_30_1130,spring_faces,3.1.5,60.02598476884033,
condition files/Stage0c_2.xlsx,0c,theta,beta,g,"['h', 'g']","['Chess', 'Go']","[-0.15, 0.5]","[0.15, 0.5]",1,1,0,15,15,15,0,2,2,2,,,,,,,,,,,,,,,,,,,,,,,,,,,,,,,,,,,,,,,,,,,,,,,,,,,,,,,,,,,,,,,232.73877442999947,None,232.73877442999947,None,232.73877442999947,None,g,1,0.6430779130005249,234.27219531899937,None,234.27219531899937,None,234.27219531899937,None,234.95554635900044,None,234.95554635900044,None,234.95554635900044,None,234.95554635900044,None,,,,,,,,,,,,,,,,,,,,,,,,,,,,,,,,,,,,,,,,,,,,001,34,2020_Jan_30_1130,spring_faces,3.1.5,60.02598476884033,
condition files/Stage0c_2.xlsx,0c,alpha,theta,h,"['h', 'g']","['Chess', 'Go']","[-0.15, 0.5]","[0.15, 0.5]",1,1,0,15,15,15,0,3,3,0,,,,,,,,,,,,,,,,,,,,,,,,,,,,,,,,,,,,,,,,,,,,,,,,,,,,,,,,,,,,,,,236.93824191199928,None,236.93824191199928,None,236.93824191199928,None,h,1,0.8749637979999534,238.47238376699897,None,238.47238376699897,None,238.47238376699897,None,239.4050435049994,None,239.4050435049994,None,239.4050435049994,None,239.4050435049994,None,,,,,,,,,,,,,,,,,,,,,,,,,,,,,,,,,,,,,,,,,,,,001,34,2020_Jan_30_1130,spring_faces,3.1.5,60.02598476884033,
condition files/Stage0c_1.xlsx,0c,alpha,phi,h,"['h', 'g']","['Chess', 'Go']","[-0.15, 0.5]","[0.15, 0.5]",1,1,0,16,16,16,0,0,0,1,,,,,,,,,,,,,,,,,,,,,,,,,,,,,,,,,,,,,,,,,,,,,,,,,,,,,,,,,,,,,,,241.38869481800066,None,241.38869481800066,None,241.38869481800066,None,h,1,0.5530291340000986,242.92226953499994,None,242.92226953499994,None,242.92226953499994,None,243.5220857509994,None,243.5220857509994,None,243.5220857509994,None,243.5220857509994,None,,,,,,,,,,,,,,,,,,,,,,,,,,,,,,,,,,,,,,,,,,,,001,34,2020_Jan_30_1130,spring_faces,3.1.5,60.02598476884033,
condition files/Stage0c_1.xlsx,0c,phi,beta,g,"['h', 'g']","['Chess', 'Go']","[-0.15, 0.5]","[0.15, 0.5]",1,1,0,16,16,16,0,1,1,3,,,,,,,,,,,,,,,,,,,,,,,,,,,,,,,,,,,,,,,,,,,,,,,,,,,,,,,,,,,,,,,245.50534300399886,None,245.50534300399886,None,245.50534300399886,None,g,1,0.42033189999892784,247.03896148700005,None,247.03896148700005,None,247.03896148700005,None,247.5223223110006,None,247.5223223110006,None,247.5223223110006,None,247.5223223110006,None,,,,,,,,,,,,,,,,,,,,,,,,,,,,,,,,,,,,,,,,,,,,001,34,2020_Jan_30_1130,spring_faces,3.1.5,60.02598476884033,
condition files/Stage0c_1.xlsx,0c,beta,theta,g,"['h', 'g']","['Chess', 'Go']","[-0.15, 0.5]","[0.15, 0.5]",1,1,0,16,16,16,0,2,2,2,,,,,,,,,,,,,,,,,,,,,,,,,,,,,,,,,,,,,,,,,,,,,,,,,,,,,,,,,,,,,,,249.48868527800005,None,249.48868527800005,None,249.48868527800005,None,g,1,0.5331689840004401,251.02210115199887,None,251.02210115199887,None,251.02210115199887,None,251.59041102099945,None,251.59041102099945,None,251.59041102099945,None,251.59041102099945,None,,,,,,,,,,,,,,,,,,,,,,,,,,,,,,,,,,,,,,,,,,,,001,34,2020_Jan_30_1130,spring_faces,3.1.5,60.02598476884033,
condition files/Stage0c_1.xlsx,0c,theta,alpha,h,"['h', 'g']","['Chess', 'Go']","[-0.15, 0.5]","[0.15, 0.5]",1,1,0,16,16,16,0,3,3,0,,,,,,,,,,,,,,,,,,,,,,,,,,,,,,,,,,,,,,,,,,,,,,,,,,,,,,,,,,,,,,,253.57213611099905,None,253.57213611099905,None,253.57213611099905,None,h,1,0.5939863050007261,255.1053579599993,None,255.1053579599993,None,255.1053579599993,None,255.75571843499893,None,255.75571843499893,None,255.75571843499893,None,255.75571843499893,None,,,,,,,,,,,,,,,,,,,,,,,,,,,,,,,,,,,,,,,,,,,,001,34,2020_Jan_30_1130,spring_faces,3.1.5,60.02598476884033,
condition files/Stage0c_2.xlsx,0c,beta,phi,g,"['h', 'g']","['Chess', 'Go']","[-0.15, 0.5]","[0.15, 0.5]",1,1,0,17,17,17,0,0,0,3,,,,,,,,,,,,,,,,,,,,,,,,,,,,,,,,,,,,,,,,,,,,,,,,,,,,,,,,,,,,,,,257.73864402099935,None,257.73864402099935,None,257.73864402099935,None,g,1,0.45925858999908087,259.2720950969997,None,259.2720950969997,None,259.2720950969997,None,259.7883273749994,None,259.7883273749994,None,259.7883273749994,None,259.7883273749994,None,,,,,,,,,,,,,,,,,,,,,,,,,,,,,,,,,,,,,,,,,,,,001,34,2020_Jan_30_1130,spring_faces,3.1.5,60.02598476884033,
condition files/Stage0c_2.xlsx,0c,phi,alpha,h,"['h', 'g']","['Chess', 'Go']","[-0.15, 0.5]","[0.15, 0.5]",1,1,0,17,17,17,0,1,1,1,,,,,,,,,,,,,,,,,,,,,,,,,,,,,,,,,,,,,,,,,,,,,,,,,,,,,,,,,,,,,,,261.7553815810006,None,261.7553815810006,None,261.7553815810006,None,h,1,1.049958441999479,263.2892929179998,None,263.2892929179998,None,263.2892929179998,None,264.4058289730001,None,264.4058289730001,None,264.4058289730001,None,264.4058289730001,None,,,,,,,,,,,,,,,,,,,,,,,,,,,,,,,,,,,,,,,,,,,,001,34,2020_Jan_30_1130,spring_faces,3.1.5,60.02598476884033,
condition files/Stage0c_2.xlsx,0c,alpha,theta,h,"['h', 'g']","['Chess', 'Go']","[-0.15, 0.5]","[0.15, 0.5]",1,1,0,17,17,17,0,2,2,0,,,,,,,,,,,,,,,,,,,,,,,,,,,,,,,,,,,,,,,,,,,,,,,,,,,,,,,,,,,,,,,266.37200723299975,None,266.37200723299975,None,266.37200723299975,None,h,1,1.0095536889984942,267.9057182809993,None,267.9057182809993,None,267.9057182809993,None,268.9569771759998,None,268.9569771759998,None,268.9569771759998,None,268.9569771759998,None,,,,,,,,,,,,,,,,,,,,,,,,,,,,,,,,,,,,,,,,,,,,001,34,2020_Jan_30_1130,spring_faces,3.1.5,60.02598476884033,
condition files/Stage0c_2.xlsx,0c,theta,beta,g,"['h', 'g']","['Chess', 'Go']","[-0.15, 0.5]","[0.15, 0.5]",1,1,0,17,17,17,0,3,3,2,,,,,,,,,,,,,,,,,,,,,,,,,,,,,,,,,,,,,,,,,,,,,,,,,,,,,,,,,,,,,,,270.93906773600065,None,270.93906773600065,None,270.93906773600065,None,g,1,0.7475695699995413,272.4717124149993,None,272.4717124149993,None,272.4717124149993,None,273.27242251200005,None,273.27242251200005,None,273.27242251200005,None,273.27242251200005,None,,,,,,,,,,,,,,,,,,,,,,,,,,,,,,,,,,,,,,,,,,,,001,34,2020_Jan_30_1130,spring_faces,3.1.5,60.02598476884033,
,,,,,,,,,,,,,,,,,,,,,,,,,,,,,,,,,,,,,,,,,,,,,,,,,,,,,,,,,,,,,,,,,,,,,,,,,,,,,,,,,,,,,,,,,,,,,,,,,,,,,,,,275.25577765699927,None,space,0.8198215539996454,280.2554880129992,None,,,,,,,,,,,,,,,,,,,,,,,,,,,,,,,,,,,,,,001,34,2020_Jan_30_1130,spring_faces,3.1.5,60.02598476884033,
condition files/Stage1_1.xlsx,,B2,T1,m,"['c', 'm']","['Clue', 'Monopoly']","[-0.15, 0.5]","[0.15, 0.5]",1,1,,,,,,,,,0,0,0,0,0,0,0,2,,,,,,,,,,,,,,,,,,,,,,,,,,,,,,,,,,,,,,,,,,,,,,,,,,,,,,,281.1389574149998,None,281.1389574149998,None,281.1389574149998,None,c,0,2.2728971090000414,282.7224665899994,None,282.7224665899994,None,282.7224665899994,None,285.07217467100054,None,285.07217467100054,None,285.07217467100054,None,285.07217467100054,None,,,,,,,280.2554880129992,None,,,,,,,,,,,,,,,,,,,,,,,,,,,,,,,,,,,,001,34,2020_Jan_30_1130,spring_faces,3.1.5,60.02598476884033,
condition files/Stage1_1.xlsx,,T2,B2,m,"['c', 'm']","['Clue', 'Monopoly']","[-0.15, 0.5]","[0.15, 0.5]",1,1,,,,,,,,,0,0,0,0,0,1,1,3,,,,,,,,,,,,,,,,,,,,,,,,,,,,,,,,,,,,,,,,,,,,,,,,,,,,,,,287.022066472,None,287.022066472,None,287.022066472,None,c,0,0.6633209729989176,288.57219632299893,None,288.57219632299893,None,288.57219632299893,None,289.28906619699956,None,289.28906619699956,None,289.28906619699956,None,289.28906619699956,None,,,,,,,,,,,,,,,,,,,,,,,,,,,,,,,,,,,,,,,,,,,,001,34,2020_Jan_30_1130,spring_faces,3.1.5,60.02598476884033,
condition files/Stage1_1.xlsx,,B3,T3,c,"['c', 'm']","['Clue', 'Monopoly']","[-0.15, 0.5]","[0.15, 0.5]",1,1,,,,,,,,,0,0,0,0,0,2,2,4,,,,,,,,,,,,,,,,,,,,,,,,,,,,,,,,,,,,,,,,,,,,,,,,,,,,,,,291.2550864219993,None,291.2550864219993,None,291.2550864219993,None,c,1,1.326389638999899,292.80489001599926,None,292.80489001599926,None,292.80489001599926,None,294.20507218199964,None,294.20507218199964,None,294.20507218199964,None,294.20507218199964,None,,,,,,,,,,,,,,,,,,,,,,,,,,,,,,,,,,,,,,,,,,,,001,34,2020_Jan_30_1130,spring_faces,3.1.5,60.02598476884033,
condition files/Stage1_1.xlsx,,T4,B3,m,"['c', 'm']","['Clue', 'Monopoly']","[-0.15, 0.5]","[0.15, 0.5]",1,1,,,,,,,,,0,0,0,0,0,3,3,6,,,,,,,,,,,,,,,,,,,,,,,,,,,,,,,,,,,,,,,,,,,,,,,,,,,,,,,296.15506046299924,None,296.15506046299924,None,296.15506046299924,None,c,0,1.4655959840001742,297.7056829689991,None,297.7056829689991,None,297.7056829689991,None,299.2391037439993,None,299.2391037439993,None,299.2391037439993,None,299.2391037439993,None,,,,,,,,,,,,,,,,,,,,,,,,,,,,,,,,,,,,,,,,,,,,001,34,2020_Jan_30_1130,spring_faces,3.1.5,60.02598476884033,
condition files/Stage1_1.xlsx,,T1,B1,c,"['c', 'm']","['Clue', 'Monopoly']","[-0.15, 0.5]","[0.15, 0.5]",1,1,,,,,,,,,0,0,0,0,0,4,4,0,,,,,,,,,,,,,,,,,,,,,,,,,,,,,,,,,,,,,,,,,,,,,,,,,,,,,,,301.1889201239992,None,301.1889201239992,None,301.1889201239992,None,m,0,0.976210582000931,302.7390412709992,None,302.7390412709992,None,302.7390412709992,None,303.77232975399966,None,303.77232975399966,None,303.77232975399966,None,303.77232975399966,None,,,,,,,,,,,,,,,,,,,,,,,,,,,,,,,,,,,,,,,,,,,,001,34,2020_Jan_30_1130,spring_faces,3.1.5,60.02598476884033,
condition files/Stage1_1.xlsx,,B4,T4,m,"['c', 'm']","['Clue', 'Monopoly']","[-0.15, 0.5]","[0.15, 0.5]",1,1,,,,,,,,,0,0,0,0,0,5,5,7,,,,,,,,,,,,,,,,,,,,,,,,,,,,,,,,,,,,,,,,,,,,,,,,,,,,,,,305.7382891220004,None,305.7382891220004,None,305.7382891220004,None,m,1,1.6263080429998809,307.2889454929991,None,307.2889454929991,None,307.2889454929991,None,308.9890452790005,None,308.9890452790005,None,308.9890452790005,None,308.9890452790005,None,,,,,,,,,,,,,,,,,,,,,,,,,,,,,,,,,,,,,,,,,,,,001,34,2020_Jan_30_1130,spring_faces,3.1.5,60.02598476884033,
condition files/Stage1_1.xlsx,,B1,T2,c,"['c', 'm']","['Clue', 'Monopoly']","[-0.15, 0.5]","[0.15, 0.5]",1,1,,,,,,,,,0,0,0,0,0,6,6,1,,,,,,,,,,,,,,,,,,,,,,,,,,,,,,,,,,,,,,,,,,,,,,,,,,,,,,,310.9385472869999,None,310.9385472869999,None,310.9385472869999,None,m,0,1.609381886999472,312.4738770929998,None,312.4738770929998,None,312.4738770929998,None,314.139730814999,None,314.139730814999,None,314.139730814999,None,314.139730814999,None,,,,,,,,,,,,,,,,,,,,,,,,,,,,,,,,,,,,,,,,,,,,001,34,2020_Jan_30_1130,spring_faces,3.1.5,60.02598476884033,
condition files/Stage1_1.xlsx,,T3,B4,c,"['c', 'm']","['Clue', 'Monopoly']","[-0.15, 0.5]","[0.15, 0.5]",1,1,,,,,,,,,0,0,0,0,0,7,7,5,,,,,,,,,,,,,,,,,,,,,,,,,,,,,,,,,,,,,,,,,,,,,,,,,,,,,,,316.1052445490004,None,316.1052445490004,None,316.1052445490004,None,m,0,1.1164630420007597,317.6547935569997,None,317.6547935569997,None,317.6547935569997,None,318.8216777460002,None,318.8216777460002,None,318.8216777460002,None,318.8216777460002,None,,,,,,,,,,,,,,,,,,,,,,,,,,,,,,,,,,,,,,,,,,,,001,34,2020_Jan_30_1130,spring_faces,3.1.5,60.02598476884033,
condition files/Stage1_2.xlsx,,B2,T2,m,"['c', 'm']","['Clue', 'Monopoly']","[-0.15, 0.5]","[0.15, 0.5]",1,1,,,,,,,,,0,1,1,1,0,0,0,3,,,,,,,,,,,,,,,,,,,,,,,,,,,,,,,,,,,,,,,,,,,,,,,,,,,,,,,320.8053697619998,None,320.8053697619998,None,320.8053697619998,None,c,0,1.4556858920004743,322.35558371499974,None,322.35558371499974,None,322.35558371499974,None,323.8746618240002,None,323.8746618240002,None,323.8746618240002,None,323.8746618240002,None,,,,,,,,,,,,,,,,,,,,,,,,,,,,,,,,,,,,,,,,,,,,001,34,2020_Jan_30_1130,spring_faces,3.1.5,60.02598476884033,
condition files/Stage1_2.xlsx,,T4,B4,m,"['c', 'm']","['Clue', 'Monopoly']","[-0.15, 0.5]","[0.15, 0.5]",1,1,,,,,,,,,0,1,1,1,0,1,1,7,,,,,,,,,,,,,,,,,,,,,,,,,,,,,,,,,,,,,,,,,,,,,,,,,,,,,,,325.83850203600014,None,325.83850203600014,None,325.83850203600014,None,c,0,1.6059840489997441,327.38926467300007,None,327.38926467300007,None,327.38926467300007,None,329.0719220689989,None,329.0719220689989,None,329.0719220689989,None,329.0719220689989,None,,,,,,,,,,,,,,,,,,,,,,,,,,,,,,,,,,,,,,,,,,,,001,34,2020_Jan_30_1130,spring_faces,3.1.5,60.02598476884033,
condition files/Stage1_2.xlsx,,T2,B1,c,"['c', 'm']","['Clue', 'Monopoly']","[-0.15, 0.5]","[0.15, 0.5]",1,1,,,,,,,,,0,1,1,1,0,2,2,1,,,,,,,,,,,,,,,,,,,,,,,,,,,,,,,,,,,,,,,,,,,,,,,,,,,,,,,331.02169655800026,None,331.02169655800026,None,331.02169655800026,None,c,1,1.367283760000646,332.5719062150001,None,332.5719062150001,None,332.5719062150001,None,334.00545749499906,None,334.00545749499906,None,334.00545749499906,None,334.00545749499906,None,,,,,,,,,,,,,,,,,,,,,,,,,,,,,,,,,,,,,,,,,,,,001,34,2020_Jan_30_1130,spring_faces,3.1.5,60.02598476884033,
condition files/Stage1_2.xlsx,,T3,B3,c,"['c', 'm']","['Clue', 'Monopoly']","[-0.15, 0.5]","[0.15, 0.5]",1,1,,,,,,,,,0,1,1,1,0,3,3,4,,,,,,,,,,,,,,,,,,,,,,,,,,,,,,,,,,,,,,,,,,,,,,,,,,,,,,,335.97178390800036,None,335.97178390800036,None,335.97178390800036,None,c,1,1.648999017999813,337.50623208400066,None,337.50623208400066,None,337.50623208400066,None,339.2221833580006,None,339.2221833580006,None,339.2221833580006,None,339.2221833580006,None,,,,,,,,,,,,,,,,,,,,,,,,,,,,,,,,,,,,,,,,,,,,001,34,2020_Jan_30_1130,spring_faces,3.1.5,60.02598476884033,
condition files/Stage1_2.xlsx,,B3,T4,m,"['c', 'm']","['Clue', 'Monopoly']","[-0.15, 0.5]","[0.15, 0.5]",1,1,,,,,,,,,0,1,1,1,0,4,4,6,,,,,,,,,,,,,,,,,,,,,,,,,,,,,,,,,,,,,,,,,,,,,,,,,,,,,,,341.1884750019999,None,341.1884750019999,None,341.1884750019999,None,m,1,1.7282623770006467,342.7230175099994,None,342.7230175099994,None,342.7230175099994,None,344.5224829710005,None,344.5224829710005,None,344.5224829710005,None,344.5224829710005,None,,,,,,,,,,,,,,,,,,,,,,,,,,,,,,,,,,,,,,,,,,,,001,34,2020_Jan_30_1130,spring_faces,3.1.5,60.02598476884033,
condition files/Stage1_2.xlsx,,B1,T1,c,"['c', 'm']","['Clue', 'Monopoly']","[-0.15, 0.5]","[0.15, 0.5]",1,1,,,,,,,,,0,1,1,1,0,5,5,0,,,,,,,,,,,,,,,,,,,,,,,,,,,,,,,,,,,,,,,,,,,,,,,,,,,,,,,346.47129433100054,None,346.47129433100054,None,346.47129433100054,None,c,1,0.8782417719994555,348.0050724070006,None,348.0050724070006,None,348.0050724070006,None,348.955646254999,None,348.955646254999,None,348.955646254999,None,348.955646254999,None,,,,,,,,,,,,,,,,,,,,,,,,,,,,,,,,,,,,,,,,,,,,001,34,2020_Jan_30_1130,spring_faces,3.1.5,60.02598476884033,
condition files/Stage1_2.xlsx,,B4,T3,c,"['c', 'm']","['Clue', 'Monopoly']","[-0.15, 0.5]","[0.15, 0.5]",1,1,,,,,,,,,0,1,1,1,0,6,6,5,,,,,,,,,,,,,,,,,,,,,,,,,,,,,,,,,,,,,,,,,,,,,,,,,,,,,,,350.9055333840006,None,350.9055333840006,None,350.9055333840006,None,c,1,1.8844585249989905,352.4547986180005,None,352.4547986180005,None,352.4547986180005,None,354.40551390399924,None,354.40551390399924,None,354.40551390399924,None,354.40551390399924,None,,,,,,,,,,,,,,,,,,,,,,,,,,,,,,,,,,,,,,,,,,,,001,34,2020_Jan_30_1130,spring_faces,3.1.5,60.02598476884033,
condition files/Stage1_2.xlsx,,T1,B2,m,"['c', 'm']","['Clue', 'Monopoly']","[-0.15, 0.5]","[0.15, 0.5]",1,1,,,,,,,,,0,1,1,1,0,7,7,2,,,,,,,,,,,,,,,,,,,,,,,,,,,,,,,,,,,,,,,,,,,,,,,,,,,,,,,356.37190062300033,None,356.37190062300033,None,356.37190062300033,None,m,1,1.329845108999507,357.9054681859998,None,357.9054681859998,None,357.9054681859998,None,359.2903836969999,None,359.2903836969999,None,359.2903836969999,None,359.2903836969999,None,,,,,,,,,,,,,,,,,,,,,,,,,,,,,,,,,,,,,,,,,,,,001,34,2020_Jan_30_1130,spring_faces,3.1.5,60.02598476884033,
condition files/Stage1_1.xlsx,,B1,T2,c,"['c', 'm']","['Clue', 'Monopoly']","[-0.15, 0.5]","[0.15, 0.5]",1,1,,,,,,,,,0,2,2,2,0,0,0,1,,,,,,,,,,,,,,,,,,,,,,,,,,,,,,,,,,,,,,,,,,,,,,,,,,,,,,,361.27236516099947,None,361.27236516099947,None,361.27236516099947,None,c,1,0.8599016359985399,362.80734790399947,None,362.80734790399947,None,362.80734790399947,None,363.7387360649991,None,363.7387360649991,None,363.7387360649991,None,363.7387360649991,None,,,,,,,,,,,,,,,,,,,,,,,,,,,,,,,,,,,,,,,,,,,,001,34,2020_Jan_30_1130,spring_faces,3.1.5,60.02598476884033,
condition files/Stage1_1.xlsx,,B3,T3,c,"['c', 'm']","['Clue', 'Monopoly']","[-0.15, 0.5]","[0.15, 0.5]",1,1,,,,,,,,,0,2,2,2,0,1,1,4,,,,,,,,,,,,,,,,,,,,,,,,,,,,,,,,,,,,,,,,,,,,,,,,,,,,,,,365.688523109,None,365.688523109,None,365.688523109,None,m,0,1.3246906409985968,367.23866252399966,None,367.23866252399966,None,367.23866252399966,None,368.6217036479993,None,368.6217036479993,None,368.6217036479993,None,368.6217036479993,None,,,,,,,,,,,,,,,,,,,,,,,,,,,,,,,,,,,,,,,,,,,,001,34,2020_Jan_30_1130,spring_faces,3.1.5,60.02598476884033,
condition files/Stage1_1.xlsx,,B4,T4,m,"['c', 'm']","['Clue', 'Monopoly']","[-0.15, 0.5]","[0.15, 0.5]",1,1,,,,,,,,,0,2,2,2,0,2,2,7,,,,,,,,,,,,,,,,,,,,,,,,,,,,,,,,,,,,,,,,,,,,,,,,,,,,,,,370.5881841600003,None,370.5881841600003,None,370.5881841600003,None,c,0,1.5271255759998894,372.1241341879995,None,372.1241341879995,None,372.1241341879995,None,373.7222643410005,None,373.7222643410005,None,373.7222643410005,None,373.7222643410005,None,,,,,,,,,,,,,,,,,,,,,,,,,,,,,,,,,,,,,,,,,,,,001,34,2020_Jan_30_1130,spring_faces,3.1.5,60.02598476884033,
condition files/Stage1_1.xlsx,,T4,B3,m,"['c', 'm']","['Clue', 'Monopoly']","[-0.15, 0.5]","[0.15, 0.5]",1,1,,,,,,,,,0,2,2,2,0,3,3,6,,,,,,,,,,,,,,,,,,,,,,,,,,,,,,,,,,,,,,,,,,,,,,,,,,,,,,,375.671761530999,None,375.671761530999,None,375.671761530999,None,m,1,1.3725169640001695,377.20685227099966,None,377.20685227099966,None,377.20685227099966,None,378.63898803899974,None,378.63898803899974,None,378.63898803899974,None,378.63898803899974,None,,,,,,,,,,,,,,,,,,,,,,,,,,,,,,,,,,,,,,,,,,,,001,34,2020_Jan_30_1130,spring_faces,3.1.5,60.02598476884033,
condition files/Stage1_1.xlsx,,T3,B4,c,"['c', 'm']","['Clue', 'Monopoly']","[-0.15, 0.5]","[0.15, 0.5]",1,1,,,,,,,,,0,2,2,2,0,4,4,5,,,,,,,,,,,,,,,,,,,,,,,,,,,,,,,,,,,,,,,,,,,,,,,,,,,,,,,380.6048824829995,None,380.6048824829995,None,380.6048824829995,None,c,1,1.2388696849993721,382.1404888119996,None,382.1404888119996,None,382.1404888119996,None,383.4556166879993,None,383.4556166879993,None,383.4556166879993,None,383.4556166879993,None,,,,,,,,,,,,,,,,,,,,,,,,,,,,,,,,,,,,,,,,,,,,001,34,2020_Jan_30_1130,spring_faces,3.1.5,60.02598476884033,
condition files/Stage1_1.xlsx,,T1,B1,c,"['c', 'm']","['Clue', 'Monopoly']","[-0.15, 0.5]","[0.15, 0.5]",1,1,,,,,,,,,0,2,2,2,0,5,5,0,,,,,,,,,,,,,,,,,,,,,,,,,,,,,,,,,,,,,,,,,,,,,,,,,,,,,,,385.40497852800036,None,385.40497852800036,None,385.40497852800036,None,c,1,0.5679166349982552,386.9393436099999,None,386.9393436099999,None,386.9393436099999,None,387.57228712399956,None,387.57228712399956,None,387.57228712399956,None,387.57228712399956,None,,,,,,,,,,,,,,,,,,,,,,,,,,,,,,,,,,,,,,,,,,,,001,34,2020_Jan_30_1130,spring_faces,3.1.5,60.02598476884033,
condition files/Stage1_1.xlsx,,T2,B2,m,"['c', 'm']","['Clue', 'Monopoly']","[-0.15, 0.5]","[0.15, 0.5]",1,1,,,,,,,,,0,2,2,2,0,6,6,3,,,,,,,,,,,,,,,,,,,,,,,,,,,,,,,,,,,,,,,,,,,,,,,,,,,,,,,389.5383098990005,None,389.5383098990005,None,389.5383098990005,None,m,1,1.315442550001535,391.07184874700033,None,391.07184874700033,None,391.07184874700033,None,392.4415886679999,None,392.4415886679999,None,392.4415886679999,None,392.4415886679999,None,,,,,,,,,,,,,,,,,,,,,,,,,,,,,,,,,,,,,,,,,,,,001,34,2020_Jan_30_1130,spring_faces,3.1.5,60.02598476884033,
condition files/Stage1_1.xlsx,,B2,T1,m,"['c', 'm']","['Clue', 'Monopoly']","[-0.15, 0.5]","[0.15, 0.5]",1,1,,,,,,,,,0,2,2,2,0,7,7,2,,,,,,,,,,,,,,,,,,,,,,,,,,,,,,,,,,,,,,,,,,,,,,,,,,,,,,,394.40578367499984,None,394.40578367499984,None,394.40578367499984,None,m,1,1.1686891539993667,395.9385698499991,None,395.9385698499991,None,395.9385698499991,None,397.17251928299993,None,397.17251928299993,None,397.17251928299993,None,397.17251928299993,None,,,,,,,,,,,,,,,,,,,,,,,,,,,,,,,,,,,,,,,,,,,,001,34,2020_Jan_30_1130,spring_faces,3.1.5,60.02598476884033,
condition files/Stage1_2.xlsx,,B3,T4,m,"['c', 'm']","['Clue', 'Monopoly']","[-0.15, 0.5]","[0.15, 0.5]",1,1,,,,,,,,,0,3,3,3,0,0,0,6,,,,,,,,,,,,,,,,,,,,,,,,,,,,,,,,,,,,,,,,,,,,,,,,,,,,,,,399.1556651179999,None,399.1556651179999,None,399.1556651179999,None,c,0,1.9223901979985385,400.6889771339993,None,400.6889771339993,None,400.6889771339993,None,402.67219487200055,None,402.67219487200055,None,402.67219487200055,None,402.67219487200055,None,,,,,,,,,,,,,,,,,,,,,,,,,,,,,,,,,,,,,,,,,,,,001,34,2020_Jan_30_1130,spring_faces,3.1.5,60.02598476884033,
condition files/Stage1_2.xlsx,,B4,T3,c,"['c', 'm']","['Clue', 'Monopoly']","[-0.15, 0.5]","[0.15, 0.5]",1,1,,,,,,,,,0,3,3,3,0,1,1,5,,,,,,,,,,,,,,,,,,,,,,,,,,,,,,,,,,,,,,,,,,,,,,,,,,,,,,,404.63794013699953,None,404.63794013699953,None,404.63794013699953,None,c,1,1.892595134999283,406.1746565939993,None,406.1746565939993,None,406.1746565939993,None,408.12469627800056,None,408.12469627800056,None,408.12469627800056,None,408.12469627800056,None,,,,,,,,,,,,,,,,,,,,,,,,,,,,,,,,,,,,,,,,,,,,001,34,2020_Jan_30_1130,spring_faces,3.1.5,60.02598476884033,
condition files/Stage1_2.xlsx,,T3,B3,c,"['c', 'm']","['Clue', 'Monopoly']","[-0.15, 0.5]","[0.15, 0.5]",1,1,,,,,,,,,0,3,3,3,0,2,2,4,,,,,,,,,,,,,,,,,,,,,,,,,,,,,,,,,,,,,,,,,,,,,,,,,,,,,,,410.0888042309998,None,410.0888042309998,None,410.0888042309998,None,c,1,0.7007149230012146,411.63854198399895,None,411.63854198399895,None,411.63854198399895,None,412.40568894100034,None,412.40568894100034,None,412.40568894100034,None,412.40568894100034,None,,,,,,,,,,,,,,,,,,,,,,,,,,,,,,,,,,,,,,,,,,,,001,34,2020_Jan_30_1130,spring_faces,3.1.5,60.02598476884033,
condition files/Stage1_2.xlsx,,B2,T2,m,"['c', 'm']","['Clue', 'Monopoly']","[-0.15, 0.5]","[0.15, 0.5]",1,1,,,,,,,,,0,3,3,3,0,3,3,3,,,,,,,,,,,,,,,,,,,,,,,,,,,,,,,,,,,,,,,,,,,,,,,,,,,,,,,414.37159868100025,None,414.37159868100025,None,414.37159868100025,None,m,1,1.0890422820011736,415.9223079359999,None,415.9223079359999,None,415.9223079359999,None,417.07355636899956,None,417.07355636899956,None,417.07355636899956,None,417.07355636899956,None,,,,,,,,,,,,,,,,,,,,,,,,,,,,,,,,,,,,,,,,,,,,001,34,2020_Jan_30_1130,spring_faces,3.1.5,60.02598476884033,
condition files/Stage1_2.xlsx,,B1,T1,c,"['c', 'm']","['Clue', 'Monopoly']","[-0.15, 0.5]","[0.15, 0.5]",1,1,,,,,,,,,0,3,3,3,0,4,4,0,,,,,,,,,,,,,,,,,,,,,,,,,,,,,,,,,,,,,,,,,,,,,,,,,,,,,,,419.03870165899934,None,419.03870165899934,None,419.03870165899934,None,c,1,0.9672661399999924,420.571992055,None,420.571992055,None,420.571992055,None,421.60581856799945,None,421.60581856799945,None,421.60581856799945,None,421.60581856799945,None,,,,,,,,,,,,,,,,,,,,,,,,,,,,,,,,,,,,,,,,,,,,001,34,2020_Jan_30_1130,spring_faces,3.1.5,60.02598476884033,
condition files/Stage1_2.xlsx,,T4,B4,m,"['c', 'm']","['Clue', 'Monopoly']","[-0.15, 0.5]","[0.15, 0.5]",1,1,,,,,,,,,0,3,3,3,0,5,5,7,,,,,,,,,,,,,,,,,,,,,,,,,,,,,,,,,,,,,,,,,,,,,,,,,,,,,,,423.5720272870003,None,423.5720272870003,None,423.5720272870003,None,m,1,1.4557923440006562,425.1075768409992,None,425.1075768409992,None,425.1075768409992,None,426.63847184899896,None,426.63847184899896,None,426.63847184899896,None,426.63847184899896,None,,,,,,,,,,,,,,,,,,,,,,,,,,,,,,,,,,,,,,,,,,,,001,34,2020_Jan_30_1130,spring_faces,3.1.5,60.02598476884033,
condition files/Stage1_2.xlsx,,T1,B2,m,"['c', 'm']","['Clue', 'Monopoly']","[-0.15, 0.5]","[0.15, 0.5]",1,1,,,,,,,,,0,3,3,3,0,6,6,2,,,,,,,,,,,,,,,,,,,,,,,,,,,,,,,,,,,,,,,,,,,,,,,,,,,,,,,428.5888786760006,None,428.5888786760006,None,428.5888786760006,None,c,0,0.9843110399997386,430.1229449429993,None,430.1229449429993,None,430.1229449429993,None,431.1723392139993,None,431.1723392139993,None,431.1723392139993,None,431.1723392139993,None,,,,,,,,,,,,,,,,,,,,,,,,,,,,,,,,,,,,,,,,,,,,001,34,2020_Jan_30_1130,spring_faces,3.1.5,60.02598476884033,
condition files/Stage1_2.xlsx,,T2,B1,c,"['c', 'm']","['Clue', 'Monopoly']","[-0.15, 0.5]","[0.15, 0.5]",1,1,,,,,,,,,0,3,3,3,0,7,7,1,,,,,,,,,,,,,,,,,,,,,,,,,,,,,,,,,,,,,,,,,,,,,,,,,,,,,,,433.13814142999945,None,433.13814142999945,None,433.13814142999945,None,c,1,0.8180422299992642,434.68924870999945,None,434.68924870999945,None,434.68924870999945,None,435.57421695300036,None,435.57421695300036,None,435.57421695300036,None,435.57421695300036,None,,,,,,,,,,,,,,,,,,,,,,,,,,,,,,,,,,,,,,,,,,,,001,34,2020_Jan_30_1130,spring_faces,3.1.5,60.02598476884033,
condition files/Stage1_1.xlsx,,T2,B2,m,"['c', 'm']","['Clue', 'Monopoly']","[-0.15, 0.5]","[0.15, 0.5]",1,1,,,,,,,,,0,4,4,4,0,0,0,3,,,,,,,,,,,,,,,,,,,,,,,,,,,,,,,,,,,,,,,,,,,,,,,,,,,,,,,437.5556375739998,None,437.5556375739998,None,437.5556375739998,None,m,1,1.2803272750006727,439.0909832920006,None,439.0909832920006,None,439.0909832920006,None,440.439003907999,None,440.439003907999,None,440.439003907999,None,440.439003907999,None,,,,,,,,,,,,,,,,,,,,,,,,,,,,,,,,,,,,,,,,,,,,001,34,2020_Jan_30_1130,spring_faces,3.1.5,60.02598476884033,
condition files/Stage1_1.xlsx,,B2,T1,m,"['c', 'm']","['Clue', 'Monopoly']","[-0.15, 0.5]","[0.15, 0.5]",1,1,,,,,,,,,0,4,4,4,0,1,1,2,,,,,,,,,,,,,,,,,,,,,,,,,,,,,,,,,,,,,,,,,,,,,,,,,,,,,,,442.38896637700054,None,442.38896637700054,None,442.38896637700054,None,m,1,1.1528382190008415,443.9384471079993,None,443.9384471079993,None,443.9384471079993,None,445.15502792000007,None,445.15502792000007,None,445.15502792000007,None,445.15502792000007,None,,,,,,,,,,,,,,,,,,,,,,,,,,,,,,,,,,,,,,,,,,,,001,34,2020_Jan_30_1130,spring_faces,3.1.5,60.02598476884033,
condition files/Stage1_1.xlsx,,T4,B3,m,"['c', 'm']","['Clue', 'Monopoly']","[-0.15, 0.5]","[0.15, 0.5]",1,1,,,,,,,,,0,4,4,4,0,2,2,6,,,,,,,,,,,,,,,,,,,,,,,,,,,,,,,,,,,,,,,,,,,,,,,,,,,,,,,447.1217316410002,None,447.1217316410002,None,447.1217316410002,None,c,0,0.8348722589998943,448.6564263330001,None,448.6564263330001,None,448.6564263330001,None,449.55580135499986,None,449.55580135499986,None,449.55580135499986,None,449.55580135499986,None,,,,,,,,,,,,,,,,,,,,,,,,,,,,,,,,,,,,,,,,,,,,001,34,2020_Jan_30_1130,spring_faces,3.1.5,60.02598476884033,
condition files/Stage1_1.xlsx,,B4,T4,m,"['c', 'm']","['Clue', 'Monopoly']","[-0.15, 0.5]","[0.15, 0.5]",1,1,,,,,,,,,0,4,4,4,0,3,3,7,,,,,,,,,,,,,,,,,,,,,,,,,,,,,,,,,,,,,,,,,,,,,,,,,,,,,,,451.5220039679989,None,451.5220039679989,None,451.5220039679989,None,m,1,1.2839283680004883,453.0553488450005,None,453.0553488450005,None,453.0553488450005,None,454.38863923200006,None,454.38863923200006,None,454.38863923200006,None,454.38863923200006,None,,,,,,,,,,,,,,,,,,,,,,,,,,,,,,,,,,,,,,,,,,,,001,34,2020_Jan_30_1130,spring_faces,3.1.5,60.02598476884033,
condition files/Stage1_1.xlsx,,B1,T2,c,"['c', 'm']","['Clue', 'Monopoly']","[-0.15, 0.5]","[0.15, 0.5]",1,1,,,,,,,,,0,4,4,4,0,4,4,1,,,,,,,,,,,,,,,,,,,,,,,,,,,,,,,,,,,,,,,,,,,,,,,,,,,,,,,456.3555819659996,None,456.3555819659996,None,456.3555819659996,None,m,0,1.2176955440008896,457.88960368100015,None,457.88960368100015,None,457.88960368100015,None,459.1750422690002,None,459.1750422690002,None,459.1750422690002,None,459.1750422690002,None,,,,,,,,,,,,,,,,,,,,,,,,,,,,,,,,,,,,,,,,,,,,001,34,2020_Jan_30_1130,spring_faces,3.1.5,60.02598476884033,
condition files/Stage1_1.xlsx,,B3,T3,c,"['c', 'm']","['Clue', 'Monopoly']","[-0.15, 0.5]","[0.15, 0.5]",1,1,,,,,,,,,0,4,4,4,0,5,5,4,,,,,,,,,,,,,,,,,,,,,,,,,,,,,,,,,,,,,,,,,,,,,,,,,,,,,,,461.13889512199967,None,461.13889512199967,None,461.13889512199967,None,c,1,1.3143460640003468,462.67295504699905,None,462.67295504699905,None,462.67295504699905,None,464.0387536870003,None,464.0387536870003,None,464.0387536870003,None,464.0387536870003,None,,,,,,,,,,,,,,,,,,,,,,,,,,,,,,,,,,,,,,,,,,,,001,34,2020_Jan_30_1130,spring_faces,3.1.5,60.02598476884033,
condition files/Stage1_1.xlsx,,T1,B1,c,"['c', 'm']","['Clue', 'Monopoly']","[-0.15, 0.5]","[0.15, 0.5]",1,1,,,,,,,,,0,4,4,4,0,6,6,0,,,,,,,,,,,,,,,,,,,,,,,,,,,,,,,,,,,,,,,,,,,,,,,,,,,,,,,466.0056227009991,None,466.0056227009991,None,466.0056227009991,None,c,1,0.9607662070011429,467.5385972949989,None,467.5385972949989,None,467.5385972949989,None,468.5555098749992,None,468.5555098749992,None,468.5555098749992,None,468.5555098749992,None,,,,,,,,,,,,,,,,,,,,,,,,,,,,,,,,,,,,,,,,,,,,001,34,2020_Jan_30_1130,spring_faces,3.1.5,60.02598476884033,
condition files/Stage1_1.xlsx,,T3,B4,c,"['c', 'm']","['Clue', 'Monopoly']","[-0.15, 0.5]","[0.15, 0.5]",1,1,,,,,,,,,0,4,4,4,0,7,7,5,,,,,,,,,,,,,,,,,,,,,,,,,,,,,,,,,,,,,,,,,,,,,,,,,,,,,,,470.5223453710005,None,470.5223453710005,None,470.5223453710005,None,c,1,0.667893195999568,472.05538505500044,None,472.05538505500044,None,472.05538505500044,None,472.7893294330006,None,472.7893294330006,None,472.7893294330006,None,472.7893294330006,None,,,,,,,,,,,,,,,,,,,,,,,,,,,,,,,,,,,,,,,,,,,,001,34,2020_Jan_30_1130,spring_faces,3.1.5,60.02598476884033,
condition files/Stage1_2.xlsx,,T3,B3,c,"['c', 'm']","['Clue', 'Monopoly']","[-0.15, 0.5]","[0.15, 0.5]",1,1,,,,,,,,,0,5,5,5,0,0,0,4,,,,,,,,,,,,,,,,,,,,,,,,,,,,,,,,,,,,,,,,,,,,,,,,,,,,,,,474.77230375399995,None,474.77230375399995,None,474.77230375399995,None,c,1,1.0395664469997428,476.30781457800003,None,476.30781457800003,None,476.30781457800003,None,477.4056631429994,None,477.4056631429994,None,477.4056631429994,None,477.4056631429994,None,,,,,,,,,,,,,,,,,,,,,,,,,,,,,,,,,,,,,,,,,,,,001,34,2020_Jan_30_1130,spring_faces,3.1.5,60.02598476884033,
condition files/Stage1_2.xlsx,,T1,B2,m,"['c', 'm']","['Clue', 'Monopoly']","[-0.15, 0.5]","[0.15, 0.5]",1,1,,,,,,,,,0,5,5,5,0,1,1,2,,,,,,,,,,,,,,,,,,,,,,,,,,,,,,,,,,,,,,,,,,,,,,,,,,,,,,,479.37201079700026,None,479.37201079700026,None,479.37201079700026,None,m,1,1.289648224001212,480.90572540599896,None,480.90572540599896,None,480.90572540599896,None,482.2584067200005,None,482.2584067200005,None,482.2584067200005,None,482.2584067200005,None,,,,,,,,,,,,,,,,,,,,,,,,,,,,,,,,,,,,,,,,,,,,001,34,2020_Jan_30_1130,spring_faces,3.1.5,60.02598476884033,
condition files/Stage1_2.xlsx,,T2,B1,c,"['c', 'm']","['Clue', 'Monopoly']","[-0.15, 0.5]","[0.15, 0.5]",1,1,,,,,,,,,0,5,5,5,0,2,2,1,,,,,,,,,,,,,,,,,,,,,,,,,,,,,,,,,,,,,,,,,,,,,,,,,,,,,,,484.2220780379994,None,484.2220780379994,None,484.2220780379994,None,c,1,1.366987641000378,485.7562805289999,None,485.7562805289999,None,485.7562805289999,None,487.19082773300033,None,487.19082773300033,None,487.19082773300033,None,487.19082773300033,None,,,,,,,,,,,,,,,,,,,,,,,,,,,,,,,,,,,,,,,,,,,,001,34,2020_Jan_30_1130,spring_faces,3.1.5,60.02598476884033,
condition files/Stage1_2.xlsx,,B4,T3,c,"['c', 'm']","['Clue', 'Monopoly']","[-0.15, 0.5]","[0.15, 0.5]",1,1,,,,,,,,,0,5,5,5,0,3,3,5,,,,,,,,,,,,,,,,,,,,,,,,,,,,,,,,,,,,,,,,,,,,,,,,,,,,,,,489.15505423799914,None,489.15505423799914,None,489.15505423799914,None,c,1,0.7055238689990802,490.7057621799995,None,490.7057621799995,None,490.7057621799995,None,491.472037006999,None,491.472037006999,None,491.472037006999,None,491.472037006999,None,,,,,,,,,,,,,,,,,,,,,,,,,,,,,,,,,,,,,,,,,,,,001,34,2020_Jan_30_1130,spring_faces,3.1.5,60.02598476884033,
condition files/Stage1_2.xlsx,,T4,B4,m,"['c', 'm']","['Clue', 'Monopoly']","[-0.15, 0.5]","[0.15, 0.5]",1,1,,,,,,,,,0,5,5,5,0,4,4,7,,,,,,,,,,,,,,,,,,,,,,,,,,,,,,,,,,,,,,,,,,,,,,,,,,,,,,,493.43881712300026,None,493.43881712300026,None,493.43881712300026,None,m,1,0.902484899999763,494.98880955499953,None,494.98880955499953,None,494.98880955499953,None,495.9572365620006,None,495.9572365620006,None,495.9572365620006,None,495.9572365620006,None,,,,,,,,,,,,,,,,,,,,,,,,,,,,,,,,,,,,,,,,,,,,001,34,2020_Jan_30_1130,spring_faces,3.1.5,60.02598476884033,
condition files/Stage1_2.xlsx,,B3,T4,m,"['c', 'm']","['Clue', 'Monopoly']","[-0.15, 0.5]","[0.15, 0.5]",1,1,,,,,,,,,0,5,5,5,0,5,5,6,,,,,,,,,,,,,,,,,,,,,,,,,,,,,,,,,,,,,,,,,,,,,,,,,,,,,,,497.9220099459999,None,497.9220099459999,None,497.9220099459999,None,m,1,0.8176763449991995,499.45763522999914,None,499.45763522999914,None,499.45763522999914,None,500.3394779779992,None,500.3394779779992,None,500.3394779779992,None,500.3394779779992,None,,,,,,,,,,,,,,,,,,,,,,,,,,,,,,,,,,,,,,,,,,,,001,34,2020_Jan_30_1130,spring_faces,3.1.5,60.02598476884033,
condition files/Stage1_2.xlsx,,B1,T1,c,"['c', 'm']","['Clue', 'Monopoly']","[-0.15, 0.5]","[0.15, 0.5]",1,1,,,,,,,,,0,5,5,5,0,6,6,0,,,,,,,,,,,,,,,,,,,,,,,,,,,,,,,,,,,,,,,,,,,,,,,,,,,,,,,502.3054218920006,None,502.3054218920006,None,502.3054218920006,None,c,1,1.4754769020000822,503.83977278599923,None,503.83977278599923,None,503.83977278599923,None,505.3722009279991,None,505.3722009279991,None,505.3722009279991,None,505.3722009279991,None,,,,,,,,,,,,,,,,,,,,,,,,,,,,,,,,,,,,,,,,,,,,001,34,2020_Jan_30_1130,spring_faces,3.1.5,60.02598476884033,
condition files/Stage1_2.xlsx,,B2,T2,m,"['c', 'm']","['Clue', 'Monopoly']","[-0.15, 0.5]","[0.15, 0.5]",1,1,,,,,,,,,0,5,5,5,0,7,7,3,,,,,,,,,,,,,,,,,,,,,,,,,,,,,,,,,,,,,,,,,,,,,,,,,,,,,,,507.33846566600005,None,507.33846566600005,None,507.33846566600005,None,m,1,1.5291805540000496,508.874114704,None,508.874114704,None,508.874114704,None,510.4559824299995,None,510.4559824299995,None,510.4559824299995,None,510.4559824299995,None,,,,,,,,,,,,,,,,,,,,,,,,,,,,,,,,,,,,,,,,,,,,001,34,2020_Jan_30_1130,spring_faces,3.1.5,60.02598476884033,
condition files/Stage1_1.xlsx,,B4,T4,m,"['c', 'm']","['Clue', 'Monopoly']","[-0.15, 0.5]","[0.15, 0.5]",1,1,,,,,,,,,0,6,6,6,0,0,0,7,,,,,,,,,,,,,,,,,,,,,,,,,,,,,,,,,,,,,,,,,,,,,,,,,,,,,,,512.4389319040001,None,512.4389319040001,None,512.4389319040001,None,m,1,1.87003996599924,513.989267478999,None,513.989267478999,None,513.989267478999,None,515.9223140319991,None,515.9223140319991,None,515.9223140319991,None,515.9223140319991,None,,,,,,,,,,,,,,,,,,,,,,,,,,,,,,,,,,,,,,,,,,,,001,34,2020_Jan_30_1130,spring_faces,3.1.5,60.02598476884033,
condition files/Stage1_1.xlsx,,B3,T3,c,"['c', 'm']","['Clue', 'Monopoly']","[-0.15, 0.5]","[0.15, 0.5]",1,1,,,,,,,,,0,6,6,6,0,1,1,4,,,,,,,,,,,,,,,,,,,,,,,,,,,,,,,,,,,,,,,,,,,,,,,,,,,,,,,517.8887211509991,None,517.8887211509991,None,517.8887211509991,None,c,1,0.884008607999931,519.4232956939995,None,519.4232956939995,None,519.4232956939995,None,520.3715955989992,None,520.3715955989992,None,520.3715955989992,None,520.3715955989992,None,,,,,,,,,,,,,,,,,,,,,,,,,,,,,,,,,,,,,,,,,,,,001,34,2020_Jan_30_1130,spring_faces,3.1.5,60.02598476884033,
condition files/Stage1_1.xlsx,,T4,B3,m,"['c', 'm']","['Clue', 'Monopoly']","[-0.15, 0.5]","[0.15, 0.5]",1,1,,,,,,,,,0,6,6,6,0,2,2,6,,,,,,,,,,,,,,,,,,,,,,,,,,,,,,,,,,,,,,,,,,,,,,,,,,,,,,,522.3384438960002,None,522.3384438960002,None,522.3384438960002,None,m,1,1.776730185998531,523.8745371370005,None,523.8745371370005,None,523.8745371370005,None,525.7070917620003,None,525.7070917620003,None,525.7070917620003,None,525.7070917620003,None,,,,,,,,,,,,,,,,,,,,,,,,,,,,,,,,,,,,,,,,,,,,001,34,2020_Jan_30_1130,spring_faces,3.1.5,60.02598476884033,
condition files/Stage1_1.xlsx,,B2,T1,m,"['c', 'm']","['Clue', 'Monopoly']","[-0.15, 0.5]","[0.15, 0.5]",1,1,,,,,,,,,0,6,6,6,0,3,3,2,,,,,,,,,,,,,,,,,,,,,,,,,,,,,,,,,,,,,,,,,,,,,,,,,,,,,,,527.6723650639997,None,527.6723650639997,None,527.6723650639997,None,m,1,1.9172875870008284,529.22194322,None,529.22194322,None,529.22194322,None,531.205339864,None,531.205339864,None,531.205339864,None,531.205339864,None,,,,,,,,,,,,,,,,,,,,,,,,,,,,,,,,,,,,,,,,,,,,001,34,2020_Jan_30_1130,spring_faces,3.1.5,60.02598476884033,
condition files/Stage1_1.xlsx,,B1,T2,c,"['c', 'm']","['Clue', 'Monopoly']","[-0.15, 0.5]","[0.15, 0.5]",1,1,,,,,,,,,0,6,6,6,0,4,4,1,,,,,,,,,,,,,,,,,,,,,,,,,,,,,,,,,,,,,,,,,,,,,,,,,,,,,,,533.1716316700004,None,533.1716316700004,None,533.1716316700004,None,c,1,0.8979463810010202,534.7053604720004,None,534.7053604720004,None,534.7053604720004,None,535.6569579200004,None,535.6569579200004,None,535.6569579200004,None,535.6569579200004,None,,,,,,,,,,,,,,,,,,,,,,,,,,,,,,,,,,,,,,,,,,,,001,34,2020_Jan_30_1130,spring_faces,3.1.5,60.02598476884033,
condition files/Stage1_1.xlsx,,T1,B1,c,"['c', 'm']","['Clue', 'Monopoly']","[-0.15, 0.5]","[0.15, 0.5]",1,1,,,,,,,,,0,6,6,6,0,5,5,0,,,,,,,,,,,,,,,,,,,,,,,,,,,,,,,,,,,,,,,,,,,,,,,,,,,,,,,537.6215830050005,None,537.6215830050005,None,537.6215830050005,None,c,1,0.9275978879995819,539.1556728069991,None,539.1556728069991,None,539.1556728069991,None,540.1384494609993,None,540.1384494609993,None,540.1384494609993,None,540.1384494609993,None,,,,,,,,,,,,,,,,,,,,,,,,,,,,,,,,,,,,,,,,,,,,001,34,2020_Jan_30_1130,spring_faces,3.1.5,60.02598476884033,
condition files/Stage1_1.xlsx,,T3,B4,c,"['c', 'm']","['Clue', 'Monopoly']","[-0.15, 0.5]","[0.15, 0.5]",1,1,,,,,,,,,0,6,6,6,0,6,6,5,,,,,,,,,,,,,,,,,,,,,,,,,,,,,,,,,,,,,,,,,,,,,,,,,,,,,,,542.1048956390005,None,542.1048956390005,None,542.1048956390005,None,c,1,0.8909084659990185,543.6404699499999,None,543.6404699499999,None,543.6404699499999,None,544.5892055789991,None,544.5892055789991,None,544.5892055789991,None,544.5892055789991,None,,,,,,,,,,,,,,,,,,,,,,,,,,,,,,,,,,,,,,,,,,,,001,34,2020_Jan_30_1130,spring_faces,3.1.5,60.02598476884033,
condition files/Stage1_1.xlsx,,T2,B2,m,"['c', 'm']","['Clue', 'Monopoly']","[-0.15, 0.5]","[0.15, 0.5]",1,1,,,,,,,,,0,6,6,6,0,7,7,3,,,,,,,,,,,,,,,,,,,,,,,,,,,,,,,,,,,,,,,,,,,,,,,,,,,,,,,546.5549290309991,None,546.5549290309991,None,546.5549290309991,None,m,1,1.0181800159989507,548.0891263789999,None,548.0891263789999,None,548.0891263789999,None,549.1734281629997,None,549.1734281629997,None,549.1734281629997,None,549.1734281629997,None,,,,,,,,,,,,,,,,,,,,,,,,,,,,,,,,,,,,,,,,,,,,001,34,2020_Jan_30_1130,spring_faces,3.1.5,60.02598476884033,
condition files/Stage1_2.xlsx,,B4,T3,c,"['c', 'm']","['Clue', 'Monopoly']","[-0.15, 0.5]","[0.15, 0.5]",1,1,,,,,,,,,0,7,7,7,0,0,0,5,,,,,,,,,,,,,,,,,,,,,,,,,,,,,,,,,,,,,,,,,,,,,,,,,,,,,,,551.1559969680002,None,551.1559969680002,None,551.1559969680002,None,c,1,0.8667231070012349,552.6885896109998,None,552.6885896109998,None,552.6885896109998,None,553.6073091109993,None,553.6073091109993,None,553.6073091109993,None,553.6073091109993,None,,,,,,,,,,,,,,,,,,,,,,,,,,,,,,,,,,,,,,,,,,,,001,34,2020_Jan_30_1130,spring_faces,3.1.5,60.02598476884033,
condition files/Stage1_2.xlsx,,T1,B2,m,"['c', 'm']","['Clue', 'Monopoly']","[-0.15, 0.5]","[0.15, 0.5]",1,1,,,,,,,,,0,7,7,7,0,1,1,2,,,,,,,,,,,,,,,,,,,,,,,,,,,,,,,,,,,,,,,,,,,,,,,,,,,,,,,555.5720263709991,None,555.5720263709991,None,555.5720263709991,None,m,1,1.217935917999057,557.1053084390005,None,557.1053084390005,None,557.1053084390005,None,558.4059664020006,None,558.4059664020006,None,558.4059664020006,None,558.4059664020006,None,,,,,,,,,,,,,,,,,,,,,,,,,,,,,,,,,,,,,,,,,,,,001,34,2020_Jan_30_1130,spring_faces,3.1.5,60.02598476884033,
condition files/Stage1_2.xlsx,,T3,B3,c,"['c', 'm']","['Clue', 'Monopoly']","[-0.15, 0.5]","[0.15, 0.5]",1,1,,,,,,,,,0,7,7,7,0,2,2,4,,,,,,,,,,,,,,,,,,,,,,,,,,,,,,,,,,,,,,,,,,,,,,,,,,,,,,,560.3550842730001,None,560.3550842730001,None,560.3550842730001,None,c,1,1.1368679700008215,561.8904620190006,None,561.8904620190006,None,561.8904620190006,None,563.0890999290004,None,563.0890999290004,None,563.0890999290004,None,563.0890999290004,None,,,,,,,,,,,,,,,,,,,,,,,,,,,,,,,,,,,,,,,,,,,,001,34,2020_Jan_30_1130,spring_faces,3.1.5,60.02598476884033,
condition files/Stage1_2.xlsx,,T2,B1,c,"['c', 'm']","['Clue', 'Monopoly']","[-0.15, 0.5]","[0.15, 0.5]",1,1,,,,,,,,,0,7,7,7,0,3,3,1,,,,,,,,,,,,,,,,,,,,,,,,,,,,,,,,,,,,,,,,,,,,,,,,,,,,,,,565.0554382819992,None,565.0554382819992,None,565.0554382819992,None,c,1,1.2380615430010948,566.5892585849997,None,566.5892585849997,None,566.5892585849997,None,567.8888802950005,None,567.8888802950005,None,567.8888802950005,None,567.8888802950005,None,,,,,,,,,,,,,,,,,,,,,,,,,,,,,,,,,,,,,,,,,,,,001,34,2020_Jan_30_1130,spring_faces,3.1.5,60.02598476884033,
condition files/Stage1_2.xlsx,,B3,T4,m,"['c', 'm']","['Clue', 'Monopoly']","[-0.15, 0.5]","[0.15, 0.5]",1,1,,,,,,,,,0,7,7,7,0,4,4,6,,,,,,,,,,,,,,,,,,,,,,,,,,,,,,,,,,,,,,,,,,,,,,,,,,,,,,,569.8549778510005,None,569.8549778510005,None,569.8549778510005,None,m,1,1.1240240490005817,571.391255564,None,571.391255564,None,571.391255564,None,572.5886348570002,None,572.5886348570002,None,572.5886348570002,None,572.5886348570002,None,,,,,,,,,,,,,,,,,,,,,,,,,,,,,,,,,,,,,,,,,,,,001,34,2020_Jan_30_1130,spring_faces,3.1.5,60.02598476884033,
condition files/Stage1_2.xlsx,,T4,B4,m,"['c', 'm']","['Clue', 'Monopoly']","[-0.15, 0.5]","[0.15, 0.5]",1,1,,,,,,,,,0,7,7,7,0,5,5,7,,,,,,,,,,,,,,,,,,,,,,,,,,,,,,,,,,,,,,,,,,,,,,,,,,,,,,,574.5388783019989,None,574.5388783019989,None,574.5388783019989,None,m,1,0.9528176859985251,576.0744932710004,None,576.0744932710004,None,576.0744932710004,None,577.0889375810002,None,577.0889375810002,None,577.0889375810002,None,577.0889375810002,None,,,,,,,,,,,,,,,,,,,,,,,,,,,,,,,,,,,,,,,,,,,,001,34,2020_Jan_30_1130,spring_faces,3.1.5,60.02598476884033,
condition files/Stage1_2.xlsx,,B1,T1,c,"['c', 'm']","['Clue', 'Monopoly']","[-0.15, 0.5]","[0.15, 0.5]",1,1,,,,,,,,,0,7,7,7,0,6,6,0,,,,,,,,,,,,,,,,,,,,,,,,,,,,,,,,,,,,,,,,,,,,,,,,,,,,,,,579.0553770059996,None,579.0553770059996,None,579.0553770059996,None,c,1,0.7402074390010966,580.5911731809992,None,580.5911731809992,None,580.5911731809992,None,581.389387457999,None,581.389387457999,None,581.389387457999,None,581.389387457999,None,,,,,,,,,,,,,,,,,,,,,,,,,,,,,,,,,,,,,,,,,,,,001,34,2020_Jan_30_1130,spring_faces,3.1.5,60.02598476884033,
condition files/Stage1_2.xlsx,,B2,T2,m,"['c', 'm']","['Clue', 'Monopoly']","[-0.15, 0.5]","[0.15, 0.5]",1,1,,,,,,,,,0,7,7,7,0,7,7,3,,,,,,,,,,,,,,,,,,,,,,,,,,,,,,,,,,,,,,,,,,,,,,,,,,,,,,,583.3548945389994,None,583.3548945389994,None,583.3548945389994,None,m,1,0.8887079120013368,584.8906703150005,None,584.8906703150005,None,584.8906703150005,None,585.855313226999,None,585.855313226999,None,585.855313226999,None,585.855313226999,None,,,,,,,,,,,,,,,,,,,,,,,,,,,,,,,,,,,,,,,,,,,,001,34,2020_Jan_30_1130,spring_faces,3.1.5,60.02598476884033,
condition files/Stage1_1.xlsx,,T4,B3,m,"['c', 'm']","['Clue', 'Monopoly']","[-0.15, 0.5]","[0.15, 0.5]",1,1,,,,,,,,,0,8,8,8,0,0,0,6,,,,,,,,,,,,,,,,,,,,,,,,,,,,,,,,,,,,,,,,,,,,,,,,,,,,,,,587.8216697970001,None,587.8216697970001,None,587.8216697970001,None,m,1,1.062453018999804,589.3568578199993,None,589.3568578199993,None,589.3568578199993,None,590.4720675909994,None,590.4720675909994,None,590.4720675909994,None,590.4720675909994,None,,,,,,,,,,,,,,,,,,,,,,,,,,,,,,,,,,,,,,,,,,,,001,34,2020_Jan_30_1130,spring_faces,3.1.5,60.02598476884033,
condition files/Stage1_1.xlsx,,B3,T3,c,"['c', 'm']","['Clue', 'Monopoly']","[-0.15, 0.5]","[0.15, 0.5]",1,1,,,,,,,,,0,8,8,8,0,1,1,4,,,,,,,,,,,,,,,,,,,,,,,,,,,,,,,,,,,,,,,,,,,,,,,,,,,,,,,592.4382352579996,None,592.4382352579996,None,592.4382352579996,None,c,1,0.6863220169998385,593.9729971500001,None,593.9729971500001,None,593.9729971500001,None,594.7389735779998,None,594.7389735779998,None,594.7389735779998,None,594.7389735779998,None,,,,,,,,,,,,,,,,,,,,,,,,,,,,,,,,,,,,,,,,,,,,001,34,2020_Jan_30_1130,spring_faces,3.1.5,60.02598476884033,
condition files/Stage1_1.xlsx,,T1,B1,c,"['c', 'm']","['Clue', 'Monopoly']","[-0.15, 0.5]","[0.15, 0.5]",1,1,,,,,,,,,0,8,8,8,0,2,2,0,,,,,,,,,,,,,,,,,,,,,,,,,,,,,,,,,,,,,,,,,,,,,,,,,,,,,,,596.6884877960001,None,596.6884877960001,None,596.6884877960001,None,c,1,1.0760821330004546,598.239189639,None,598.239189639,None,598.239189639,None,599.3724243289998,None,599.3724243289998,None,599.3724243289998,None,599.3724243289998,None,,,,,,,,,,,,,,,,,,,,,,,,,,,,,,,,,,,,,,,,,,,,001,34,2020_Jan_30_1130,spring_faces,3.1.5,60.02598476884033,
condition files/Stage1_1.xlsx,,B4,T4,m,"['c', 'm']","['Clue', 'Monopoly']","[-0.15, 0.5]","[0.15, 0.5]",1,1,,,,,,,,,0,8,8,8,0,3,3,7,,,,,,,,,,,,,,,,,,,,,,,,,,,,,,,,,,,,,,,,,,,,,,,,,,,,,,,601.3382297980006,None,601.3382297980006,None,601.3382297980006,None,m,1,1.4830715829994006,602.872228704,None,602.872228704,None,602.872228704,None,604.4223014609997,None,604.4223014609997,None,604.4223014609997,None,604.4223014609997,None,,,,,,,,,,,,,,,,,,,,,,,,,,,,,,,,,,,,,,,,,,,,001,34,2020_Jan_30_1130,spring_faces,3.1.5,60.02598476884033,
condition files/Stage1_1.xlsx,,B1,T2,c,"['c', 'm']","['Clue', 'Monopoly']","[-0.15, 0.5]","[0.15, 0.5]",1,1,,,,,,,,,0,8,8,8,0,4,4,1,,,,,,,,,,,,,,,,,,,,,,,,,,,,,,,,,,,,,,,,,,,,,,,,,,,,,,,606.3723435390002,None,606.3723435390002,None,606.3723435390002,None,c,1,1.008881924999514,607.9063711489998,None,607.9063711489998,None,607.9063711489998,None,608.9720668659993,None,608.9720668659993,None,608.9720668659993,None,608.9720668659993,None,,,,,,,,,,,,,,,,,,,,,,,,,,,,,,,,,,,,,,,,,,,,001,34,2020_Jan_30_1130,spring_faces,3.1.5,60.02598476884033,
condition files/Stage1_1.xlsx,,B2,T1,m,"['c', 'm']","['Clue', 'Monopoly']","[-0.15, 0.5]","[0.15, 0.5]",1,1,,,,,,,,,0,8,8,8,0,5,5,2,,,,,,,,,,,,,,,,,,,,,,,,,,,,,,,,,,,,,,,,,,,,,,,,,,,,,,,610.9386126919999,None,610.9386126919999,None,610.9386126919999,None,m,1,1.2899713959996006,612.4893836329993,None,612.4893836329993,None,612.4893836329993,None,613.8391521739995,None,613.8391521739995,None,613.8391521739995,None,613.8391521739995,None,,,,,,,,,,,,,,,,,,,,,,,,,,,,,,,,,,,,,,,,,,,,001,34,2020_Jan_30_1130,spring_faces,3.1.5,60.02598476884033,
condition files/Stage1_1.xlsx,,T2,B2,m,"['c', 'm']","['Clue', 'Monopoly']","[-0.15, 0.5]","[0.15, 0.5]",1,1,,,,,,,,,0,8,8,8,0,6,6,3,,,,,,,,,,,,,,,,,,,,,,,,,,,,,,,,,,,,,,,,,,,,,,,,,,,,,,,615.8054740469997,None,615.8054740469997,None,615.8054740469997,None,m,1,1.176134578001438,617.3552144589994,None,617.3552144589994,None,617.3552144589994,None,618.5886309399993,None,618.5886309399993,None,618.5886309399993,None,618.5886309399993,None,,,,,,,,,,,,,,,,,,,,,,,,,,,,,,,,,,,,,,,,,,,,001,34,2020_Jan_30_1130,spring_faces,3.1.5,60.02598476884033,
condition files/Stage1_1.xlsx,,T3,B4,c,"['c', 'm']","['Clue', 'Monopoly']","[-0.15, 0.5]","[0.15, 0.5]",1,1,,,,,,,,,0,8,8,8,0,7,7,5,,,,,,,,,,,,,,,,,,,,,,,,,,,,,,,,,,,,,,,,,,,,,,,,,,,,,,,620.5553480809995,None,620.5553480809995,None,620.5553480809995,None,c,1,1.0010388739992777,622.0902141930001,None,622.0902141930001,None,622.0902141930001,None,623.1578211929991,None,623.1578211929991,None,623.1578211929991,None,623.1578211929991,None,,,,,,,,,,,,,,,,,,,,,,,,,,,,,,,,,,,,,,,,,,,,001,34,2020_Jan_30_1130,spring_faces,3.1.5,60.02598476884033,
condition files/Stage1_2.xlsx,,B4,T3,c,"['c', 'm']","['Clue', 'Monopoly']","[-0.15, 0.5]","[0.15, 0.5]",1,1,,,,,,,,,0,9,9,9,0,0,0,5,,,,,,,,,,,,,,,,,,,,,,,,,,,,,,,,,,,,,,,,,,,,,,,,,,,,,,,625.1388233569996,None,625.1388233569996,None,625.1388233569996,None,c,1,1.0905146439999953,626.6728680239994,None,626.6728680239994,None,626.6728680239994,None,627.8221750379998,None,627.8221750379998,None,627.8221750379998,None,627.8221750379998,None,,,,,,,,,,,,,,,,,,,,,,,,,,,,,,,,,,,,,,,,,,,,001,34,2020_Jan_30_1130,spring_faces,3.1.5,60.02598476884033,
condition files/Stage1_2.xlsx,,T1,B2,m,"['c', 'm']","['Clue', 'Monopoly']","[-0.15, 0.5]","[0.15, 0.5]",1,1,,,,,,,,,0,9,9,9,0,1,1,2,,,,,,,,,,,,,,,,,,,,,,,,,,,,,,,,,,,,,,,,,,,,,,,,,,,,,,,629.788712824,None,629.788712824,None,629.788712824,None,m,1,2.0567042710008536,631.3226724800006,None,631.3226724800006,None,631.3226724800006,None,633.4408980360004,None,633.4408980360004,None,633.4408980360004,None,633.4408980360004,None,,,,,,,,,,,,,,,,,,,,,,,,,,,,,,,,,,,,,,,,,,,,001,34,2020_Jan_30_1130,spring_faces,3.1.5,60.02598476884033,
condition files/Stage1_2.xlsx,,B3,T4,m,"['c', 'm']","['Clue', 'Monopoly']","[-0.15, 0.5]","[0.15, 0.5]",1,1,,,,,,,,,0,9,9,9,0,2,2,6,,,,,,,,,,,,,,,,,,,,,,,,,,,,,,,,,,,,,,,,,,,,,,,,,,,,,,,635.4055367279998,None,635.4055367279998,None,635.4055367279998,None,m,1,1.720076039999185,636.9552138569998,None,636.9552138569998,None,636.9552138569998,None,638.7391884209992,None,638.7391884209992,None,638.7391884209992,None,638.7391884209992,None,,,,,,,,,,,,,,,,,,,,,,,,,,,,,,,,,,,,,,,,,,,,001,34,2020_Jan_30_1130,spring_faces,3.1.5,60.02598476884033,
condition files/Stage1_2.xlsx,,T2,B1,c,"['c', 'm']","['Clue', 'Monopoly']","[-0.15, 0.5]","[0.15, 0.5]",1,1,,,,,,,,,0,9,9,9,0,3,3,1,,,,,,,,,,,,,,,,,,,,,,,,,,,,,,,,,,,,,,,,,,,,,,,,,,,,,,,640.7059415170006,None,640.7059415170006,None,640.7059415170006,None,c,1,0.7885563380004896,642.2387649890006,None,642.2387649890006,None,642.2387649890006,None,643.0897321470002,None,643.0897321470002,None,643.0897321470002,None,643.0897321470002,None,,,,,,,,,,,,,,,,,,,,,,,,,,,,,,,,,,,,,,,,,,,,001,34,2020_Jan_30_1130,spring_faces,3.1.5,60.02598476884033,
condition files/Stage1_2.xlsx,,T4,B4,m,"['c', 'm']","['Clue', 'Monopoly']","[-0.15, 0.5]","[0.15, 0.5]",1,1,,,,,,,,,0,9,9,9,0,4,4,7,,,,,,,,,,,,,,,,,,,,,,,,,,,,,,,,,,,,,,,,,,,,,,,,,,,,,,,645.0551506020001,None,645.0551506020001,None,645.0551506020001,None,m,1,1.1251072980012395,646.5901921539989,None,646.5901921539989,None,646.5901921539989,None,647.7731173350003,None,647.7731173350003,None,647.7731173350003,None,647.7731173350003,None,,,,,,,,,,,,,,,,,,,,,,,,,,,,,,,,,,,,,,,,,,,,001,34,2020_Jan_30_1130,spring_faces,3.1.5,60.02598476884033,
condition files/Stage1_2.xlsx,,B1,T1,c,"['c', 'm']","['Clue', 'Monopoly']","[-0.15, 0.5]","[0.15, 0.5]",1,1,,,,,,,,,0,9,9,9,0,5,5,0,,,,,,,,,,,,,,,,,,,,,,,,,,,,,,,,,,,,,,,,,,,,,,,,,,,,,,,649.7388259830004,None,649.7388259830004,None,649.7388259830004,None,c,1,0.8751633740012039,651.2722162230002,None,651.2722162230002,None,651.2722162230002,None,652.2065933180002,None,652.2065933180002,None,652.2065933180002,None,652.2065933180002,None,,,,,,,,,,,,,,,,,,,,,,,,,,,,,,,,,,,,,,,,,,,,001,34,2020_Jan_30_1130,spring_faces,3.1.5,60.02598476884033,
condition files/Stage1_2.xlsx,,T3,B3,c,"['c', 'm']","['Clue', 'Monopoly']","[-0.15, 0.5]","[0.15, 0.5]",1,1,,,,,,,,,0,9,9,9,0,6,6,4,,,,,,,,,,,,,,,,,,,,,,,,,,,,,,,,,,,,,,,,,,,,,,,,,,,,,,,654.1719885290004,None,654.1719885290004,None,654.1719885290004,None,c,1,1.0966553329999442,655.7066510660006,None,655.7066510660006,None,655.7066510660006,None,656.8556394629995,None,656.8556394629995,None,656.8556394629995,None,656.8556394629995,None,,,,,,,,,,,,,,,,,,,,,,,,,,,,,,,,,,,,,,,,,,,,001,34,2020_Jan_30_1130,spring_faces,3.1.5,60.02598476884033,
condition files/Stage1_2.xlsx,,B2,T2,m,"['c', 'm']","['Clue', 'Monopoly']","[-0.15, 0.5]","[0.15, 0.5]",1,1,,,,,,,,,0,9,9,9,0,7,7,3,,,,,,,,,,,,,,,,,,,,,,,,,,,,,,,,,,,,,,,,,,,,,,,,,,,,,,,658.8220045449998,None,658.8220045449998,None,658.8220045449998,None,m,1,1.0863609009993525,660.3569624560005,None,660.3569624560005,None,660.3569624560005,None,661.5224974970006,None,661.5224974970006,None,661.5224974970006,None,661.5224974970006,None,,,,,,,,,,,,,,,,,,,,,,,,,,,,,,,,,,,,,,,,,,,,001,34,2020_Jan_30_1130,spring_faces,3.1.5,60.02598476884033,
condition files/Stage1_1.xlsx,,B1,T2,c,"['c', 'm']","['Clue', 'Monopoly']","[-0.15, 0.5]","[0.15, 0.5]",1,1,,,,,,,,,0,10,10,10,0,0,0,1,,,,,,,,,,,,,,,,,,,,,,,,,,,,,,,,,,,,,,,,,,,,,,,,,,,,,,,663.4893011479999,None,663.4893011479999,None,663.4893011479999,None,c,1,0.7409661890014831,665.0224161249989,None,665.0224161249989,None,665.0224161249989,None,665.8233503110005,None,665.8233503110005,None,665.8233503110005,None,665.8233503110005,None,,,,,,,,,,,,,,,,,,,,,,,,,,,,,,,,,,,,,,,,,,,,001,34,2020_Jan_30_1130,spring_faces,3.1.5,60.02598476884033,
condition files/Stage1_1.xlsx,,B4,T4,m,"['c', 'm']","['Clue', 'Monopoly']","[-0.15, 0.5]","[0.15, 0.5]",1,1,,,,,,,,,0,10,10,10,0,1,1,7,,,,,,,,,,,,,,,,,,,,,,,,,,,,,,,,,,,,,,,,,,,,,,,,,,,,,,,667.7886924270006,None,667.7886924270006,None,667.7886924270006,None,m,1,1.9279021170004853,669.3234044349992,None,669.3234044349992,None,669.3234044349992,None,671.3216966309992,None,671.3216966309992,None,671.3216966309992,None,671.3216966309992,None,,,,,,,,,,,,,,,,,,,,,,,,,,,,,,,,,,,,,,,,,,,,001,34,2020_Jan_30_1130,spring_faces,3.1.5,60.02598476884033,
condition files/Stage1_1.xlsx,,T2,B2,m,"['c', 'm']","['Clue', 'Monopoly']","[-0.15, 0.5]","[0.15, 0.5]",1,1,,,,,,,,,0,10,10,10,0,2,2,3,,,,,,,,,,,,,,,,,,,,,,,,,,,,,,,,,,,,,,,,,,,,,,,,,,,,,,,673.2718962130002,None,673.2718962130002,None,673.2718962130002,None,m,1,0.9896357500001614,674.8216811809998,None,674.8216811809998,None,674.8216811809998,None,675.8723162909992,None,675.8723162909992,None,675.8723162909992,None,675.8723162909992,None,,,,,,,,,,,,,,,,,,,,,,,,,,,,,,,,,,,,,,,,,,,,001,34,2020_Jan_30_1130,spring_faces,3.1.5,60.02598476884033,
condition files/Stage1_1.xlsx,,B3,T3,c,"['c', 'm']","['Clue', 'Monopoly']","[-0.15, 0.5]","[0.15, 0.5]",1,1,,,,,,,,,0,10,10,10,0,3,3,4,,,,,,,,,,,,,,,,,,,,,,,,,,,,,,,,,,,,,,,,,,,,,,,,,,,,,,,677.8381767999999,None,677.8381767999999,None,677.8381767999999,None,c,1,1.078426860000036,679.3888189499994,None,679.3888189499994,None,679.3888189499994,None,680.5221708190002,None,680.5221708190002,None,680.5221708190002,None,680.5221708190002,None,,,,,,,,,,,,,,,,,,,,,,,,,,,,,,,,,,,,,,,,,,,,001,34,2020_Jan_30_1130,spring_faces,3.1.5,60.02598476884033,
condition files/Stage1_1.xlsx,,B2,T1,m,"['c', 'm']","['Clue', 'Monopoly']","[-0.15, 0.5]","[0.15, 0.5]",1,1,,,,,,,,,0,10,10,10,0,4,4,2,,,,,,,,,,,,,,,,,,,,,,,,,,,,,,,,,,,,,,,,,,,,,,,,,,,,,,,682.488776541999,None,682.488776541999,None,682.488776541999,None,m,1,2.187359204999666,684.0240100829997,None,684.0240100829997,None,684.0240100829997,None,686.2726052790003,None,686.2726052790003,None,686.2726052790003,None,686.2726052790003,None,,,,,,,,,,,,,,,,,,,,,,,,,,,,,,,,,,,,,,,,,,,,001,34,2020_Jan_30_1130,spring_faces,3.1.5,60.02598476884033,
condition files/Stage1_1.xlsx,,T3,B4,c,"['c', 'm']","['Clue', 'Monopoly']","[-0.15, 0.5]","[0.15, 0.5]",1,1,,,,,,,,,0,10,10,10,0,5,5,5,,,,,,,,,,,,,,,,,,,,,,,,,,,,,,,,,,,,,,,,,,,,,,,,,,,,,,,688.2386902119997,None,688.2386902119997,None,688.2386902119997,None,c,1,1.1742514409997966,689.7890945769996,None,689.7890945769996,None,689.7890945769996,None,691.0234076719989,None,691.0234076719989,None,691.0234076719989,None,691.0234076719989,None,,,,,,,,,,,,,,,,,,,,,,,,,,,,,,,,,,,,,,,,,,,,001,34,2020_Jan_30_1130,spring_faces,3.1.5,60.02598476884033,
condition files/Stage1_1.xlsx,,T1,B1,c,"['c', 'm']","['Clue', 'Monopoly']","[-0.15, 0.5]","[0.15, 0.5]",1,1,,,,,,,,,0,10,10,10,0,6,6,0,,,,,,,,,,,,,,,,,,,,,,,,,,,,,,,,,,,,,,,,,,,,,,,,,,,,,,,692.9887182980001,None,692.9887182980001,None,692.9887182980001,None,c,1,0.9689904269998806,694.522323964,None,694.522323964,None,694.522323964,None,695.5553961999994,None,695.5553961999994,None,695.5553961999994,None,695.5553961999994,None,,,,,,,,,,,,,,,,,,,,,,,,,,,,,,,,,,,,,,,,,,,,001,34,2020_Jan_30_1130,spring_faces,3.1.5,60.02598476884033,
condition files/Stage1_1.xlsx,,T4,B3,m,"['c', 'm']","['Clue', 'Monopoly']","[-0.15, 0.5]","[0.15, 0.5]",1,1,,,,,,,,,0,10,10,10,0,7,7,6,,,,,,,,,,,,,,,,,,,,,,,,,,,,,,,,,,,,,,,,,,,,,,,,,,,,,,,697.5220965329991,None,697.5220965329991,None,697.5220965329991,None,m,1,0.9459039400007896,699.0574187660004,None,699.0574187660004,None,699.0574187660004,None,700.0559772689994,None,700.0559772689994,None,700.0559772689994,None,700.0559772689994,None,,,,,,,,,,,,,,,,,,,,,,,,,,,,,,,,,,,,,,,,,,,,001,34,2020_Jan_30_1130,spring_faces,3.1.5,60.02598476884033,
condition files/Stage1_2.xlsx,,T1,B2,m,"['c', 'm']","['Clue', 'Monopoly']","[-0.15, 0.5]","[0.15, 0.5]",1,1,,,,,,,,,0,11,11,11,0,0,0,2,,,,,,,,,,,,,,,,,,,,,,,,,,,,,,,,,,,,,,,,,,,,,,,,,,,,,,,702.0386096099992,None,702.0386096099992,None,702.0386096099992,None,m,1,1.422392772999956,703.5889222879996,None,703.5889222879996,None,703.5889222879996,None,705.0720484379999,None,705.0720484379999,None,705.0720484379999,None,705.0720484379999,None,,,,,,,,,,,,,,,,,,,,,,,,,,,,,,,,,,,,,,,,,,,,001,34,2020_Jan_30_1130,spring_faces,3.1.5,60.02598476884033,
condition files/Stage1_2.xlsx,,T4,B4,m,"['c', 'm']","['Clue', 'Monopoly']","[-0.15, 0.5]","[0.15, 0.5]",1,1,,,,,,,,,0,11,11,11,0,1,1,7,,,,,,,,,,,,,,,,,,,,,,,,,,,,,,,,,,,,,,,,,,,,,,,,,,,,,,,707.0384907819989,None,707.0384907819989,None,707.0384907819989,None,m,1,1.3019352900009835,708.5733803909989,None,708.5733803909989,None,708.5733803909989,None,709.9388354399998,None,709.9388354399998,None,709.9388354399998,None,709.9388354399998,None,,,,,,,,,,,,,,,,,,,,,,,,,,,,,,,,,,,,,,,,,,,,001,34,2020_Jan_30_1130,spring_faces,3.1.5,60.02598476884033,
condition files/Stage1_2.xlsx,,T2,B1,c,"['c', 'm']","['Clue', 'Monopoly']","[-0.15, 0.5]","[0.15, 0.5]",1,1,,,,,,,,,0,11,11,11,0,2,2,1,,,,,,,,,,,,,,,,,,,,,,,,,,,,,,,,,,,,,,,,,,,,,,,,,,,,,,,711.9053518719993,None,711.9053518719993,None,711.9053518719993,None,c,1,0.8837247239989665,713.4555167369999,None,713.4555167369999,None,713.4555167369999,None,714.4058217929996,None,714.4058217929996,None,714.4058217929996,None,714.4058217929996,None,,,,,,,,,,,,,,,,,,,,,,,,,,,,,,,,,,,,,,,,,,,,001,34,2020_Jan_30_1130,spring_faces,3.1.5,60.02598476884033,
condition files/Stage1_2.xlsx,,B3,T4,m,"['c', 'm']","['Clue', 'Monopoly']","[-0.15, 0.5]","[0.15, 0.5]",1,1,,,,,,,,,0,11,11,11,0,3,3,6,,,,,,,,,,,,,,,,,,,,,,,,,,,,,,,,,,,,,,,,,,,,,,,,,,,,,,,716.3721018609995,None,716.3721018609995,None,716.3721018609995,None,m,1,0.7700974880008289,717.9052261670004,None,717.9052261670004,None,717.9052261670004,None,718.7415178150004,None,718.7415178150004,None,718.7415178150004,None,718.7415178150004,None,,,,,,,,,,,,,,,,,,,,,,,,,,,,,,,,,,,,,,,,,,,,001,34,2020_Jan_30_1130,spring_faces,3.1.5,60.02598476884033,
condition files/Stage1_2.xlsx,,B2,T2,m,"['c', 'm']","['Clue', 'Monopoly']","[-0.15, 0.5]","[0.15, 0.5]",1,1,,,,,,,,,0,11,11,11,0,4,4,3,,,,,,,,,,,,,,,,,,,,,,,,,,,,,,,,,,,,,,,,,,,,,,,,,,,,,,,720.7052871479991,None,720.7052871479991,None,720.7052871479991,None,m,1,1.0272800230013672,722.2399729890003,None,722.2399729890003,None,722.2399729890003,None,723.321636065999,None,723.321636065999,None,723.321636065999,None,723.321636065999,None,,,,,,,,,,,,,,,,,,,,,,,,,,,,,,,,,,,,,,,,,,,,001,34,2020_Jan_30_1130,spring_faces,3.1.5,60.02598476884033,
condition files/Stage1_2.xlsx,,T3,B3,c,"['c', 'm']","['Clue', 'Monopoly']","[-0.15, 0.5]","[0.15, 0.5]",1,1,,,,,,,,,0,11,11,11,0,5,5,4,,,,,,,,,,,,,,,,,,,,,,,,,,,,,,,,,,,,,,,,,,,,,,,,,,,,,,,725.288130949999,None,725.288130949999,None,725.288130949999,None,c,1,1.1957570359991223,726.8235262889993,None,726.8235262889993,None,726.8235262889993,None,728.074984027,None,728.074984027,None,728.074984027,None,728.074984027,None,,,,,,,,,,,,,,,,,,,,,,,,,,,,,,,,,,,,,,,,,,,,001,34,2020_Jan_30_1130,spring_faces,3.1.5,60.02598476884033,
condition files/Stage1_2.xlsx,,B1,T1,c,"['c', 'm']","['Clue', 'Monopoly']","[-0.15, 0.5]","[0.15, 0.5]",1,1,,,,,,,,,0,11,11,11,0,6,6,0,,,,,,,,,,,,,,,,,,,,,,,,,,,,,,,,,,,,,,,,,,,,,,,,,,,,,,,730.038672224,None,730.038672224,None,730.038672224,None,c,1,1.32615464599985,731.5891529660003,None,731.5891529660003,None,731.5891529660003,None,732.9723460459991,None,732.9723460459991,None,732.9723460459991,None,732.9723460459991,None,,,,,,,,,,,,,,,,,,,,,,,,,,,,,,,,,,,,,,,,,,,,001,34,2020_Jan_30_1130,spring_faces,3.1.5,60.02598476884033,
condition files/Stage1_2.xlsx,,B4,T3,c,"['c', 'm']","['Clue', 'Monopoly']","[-0.15, 0.5]","[0.15, 0.5]",1,1,,,,,,,,,0,11,11,11,0,7,7,5,,,,,,,,,,,,,,,,,,,,,,,,,,,,,,,,,,,,,,,,,,,,,,,,,,,,,,,734.9387798589996,None,734.9387798589996,None,734.9387798589996,None,c,1,1.4507621199991263,736.4724976670004,None,736.4724976670004,None,736.4724976670004,None,737.9885644759997,None,737.9885644759997,None,737.9885644759997,None,737.9885644759997,None,,,,,,,,,,,,,,,,,,,,,,,,,,,,,,,,,,,,,,,,,,,,001,34,2020_Jan_30_1130,spring_faces,3.1.5,60.02598476884033,
,,,,,,,,,,,,,,,,,,,,,,,,,,,,,,,,,,,,,,,,,,,,,,,,,,,,,,,,,,,,,,,,,,,,,,,,,,,,,,,,,,,,,,,,,,,,,,,,,,,,,,,,,,,,,,,,739.9724746150005,None,space,5.031139053000516,744.9721729140001,None,,,,,,,,,,,,,,,,,,,,,,,,,,,,,,001,34,2020_Jan_30_1130,spring_faces,3.1.5,60.02598476884033,
condition files/Stage2_1.xlsx,,B6,T6,r,"['s', 'r']","['Stratego', 'Risk']","[-0.15, 0.5]","[0.15, 0.5]",1,1,,,,,,,,,,,,,,,,,0,0,0,0,0,0,0,1,,,,,,,,,,,,,,,,,,,,,,,,,,,,,,,,,,,,,,,,,,,,,,,750.0554194309989,None,750.0554194309989,None,750.0554194309989,None,r,1,1.2789502230007201,751.5723632730005,None,751.5723632730005,None,751.5723632730005,None,752.9224350290006,None,752.9224350290006,None,752.9224350290006,None,752.9224350290006,None,,,,,,,,,,,,,,,744.9721729140001,None,,,,,,,,,,,,,,,,,,,,,,,,,,,,001,34,2020_Jan_30_1130,spring_faces,3.1.5,60.02598476884033,
condition files/Stage2_1.xlsx,,T3,B3,s,"['s', 'r']","['Stratego', 'Risk']","[-0.15, 0.5]","[0.15, 0.5]",1,1,,,,,,,,,,,,,,,,,0,0,0,0,0,1,1,4,,,,,,,,,,,,,,,,,,,,,,,,,,,,,,,,,,,,,,,,,,,,,,,754.8714326909994,None,754.8714326909994,None,754.8714326909994,None,s,1,1.038012463999621,756.4053064260006,None,756.4053064260006,None,756.4053064260006,None,757.5065371809997,None,757.5065371809997,None,757.5065371809997,None,757.5065371809997,None,,,,,,,,,,,,,,,,,,,,,,,,,,,,,,,,,,,,,,,,,,,,001,34,2020_Jan_30_1130,spring_faces,3.1.5,60.02598476884033,
condition files/Stage2_1.xlsx,,B4,T4,r,"['s', 'r']","['Stratego', 'Risk']","[-0.15, 0.5]","[0.15, 0.5]",1,1,,,,,,,,,,,,,,,,,0,0,0,0,0,2,2,5,,,,,,,,,,,,,,,,,,,,,,,,,,,,,,,,,,,,,,,,,,,,,,,759.4721203440004,None,759.4721203440004,None,759.4721203440004,None,r,1,1.285177277000912,761.0061420889997,None,761.0061420889997,None,761.0061420889997,None,762.3578782179993,None,762.3578782179993,None,762.3578782179993,None,762.3578782179993,None,,,,,,,,,,,,,,,,,,,,,,,,,,,,,,,,,,,,,,,,,,,,001,34,2020_Jan_30_1130,spring_faces,3.1.5,60.02598476884033,
condition files/Stage2_1.xlsx,,T1,B1,s,"['s', 'r']","['Stratego', 'Risk']","[-0.15, 0.5]","[0.15, 0.5]",1,1,,,,,,,,,,,,,,,,,0,0,0,0,0,3,3,2,,,,,,,,,,,,,,,,,,,,,,,,,,,,,,,,,,,,,,,,,,,,,,,764.3221788459996,None,764.3221788459996,None,764.3221788459996,None,s,1,0.7550820889991883,765.8562788149993,None,765.8562788149993,None,765.8562788149993,None,766.6744650309993,None,766.6744650309993,None,766.6744650309993,None,766.6744650309993,None,,,,,,,,,,,,,,,,,,,,,,,,,,,,,,,,,,,,,,,,,,,,001,34,2020_Jan_30_1130,spring_faces,3.1.5,60.02598476884033,
condition files/Stage2_1.xlsx,,B2,T2,r,"['s', 'r']","['Stratego', 'Risk']","[-0.15, 0.5]","[0.15, 0.5]",1,1,,,,,,,,,,,,,,,,,0,0,0,0,0,4,4,3,,,,,,,,,,,,,,,,,,,,,,,,,,,,,,,,,,,,,,,,,,,,,,,768.6385268220001,None,768.6385268220001,None,768.6385268220001,None,r,1,1.2861386699987634,770.1731828409993,None,770.1731828409993,None,770.1731828409993,None,771.5227954740003,None,771.5227954740003,None,771.5227954740003,None,771.5227954740003,None,,,,,,,,,,,,,,,,,,,,,,,,,,,,,,,,,,,,,,,,,,,,001,34,2020_Jan_30_1130,spring_faces,3.1.5,60.02598476884033,
condition files/Stage2_1.xlsx,,T5,B5,s,"['s', 'r']","['Stratego', 'Risk']","[-0.15, 0.5]","[0.15, 0.5]",1,1,,,,,,,,,,,,,,,,,0,0,0,0,0,5,5,0,,,,,,,,,,,,,,,,,,,,,,,,,,,,,,,,,,,,,,,,,,,,,,,773.4887686309994,None,773.4887686309994,None,773.4887686309994,None,s,1,1.3303419240000949,775.0889631930004,None,775.0889631930004,None,775.0889631930004,None,776.472934501,None,776.472934501,None,776.472934501,None,776.472934501,None,,,,,,,,,,,,,,,,,,,,,,,,,,,,,,,,,,,,,,,,,,,,001,34,2020_Jan_30_1130,spring_faces,3.1.5,60.02598476884033,
condition files/Stage2_2.xlsx,,B5,T5,s,"['s', 'r']","['Stratego', 'Risk']","[-0.15, 0.5]","[0.15, 0.5]",1,1,,,,,,,,,,,,,,,,,0,1,1,1,0,0,0,0,,,,,,,,,,,,,,,,,,,,,,,,,,,,,,,,,,,,,,,,,,,,,,,778.4554370160004,None,778.4554370160004,None,778.4554370160004,None,s,1,1.0053786209991813,780.0059834799995,None,780.0059834799995,None,780.0059834799995,None,781.0721277289995,None,781.0721277289995,None,781.0721277289995,None,781.0721277289995,None,,,,,,,,,,,,,,,,,,,,,,,,,,,,,,,,,,,,,,,,,,,,001,34,2020_Jan_30_1130,spring_faces,3.1.5,60.02598476884033,
condition files/Stage2_2.xlsx,,T6,B6,r,"['s', 'r']","['Stratego', 'Risk']","[-0.15, 0.5]","[0.15, 0.5]",1,1,,,,,,,,,,,,,,,,,0,1,1,1,0,1,1,1,,,,,,,,,,,,,,,,,,,,,,,,,,,,,,,,,,,,,,,,,,,,,,,783.0390575540005,None,783.0390575540005,None,783.0390575540005,None,s,0,1.4621720619998086,784.5890821800003,None,784.5890821800003,None,784.5890821800003,None,786.122117416,None,786.122117416,None,786.122117416,None,786.122117416,None,,,,,,,,,,,,,,,,,,,,,,,,,,,,,,,,,,,,,,,,,,,,001,34,2020_Jan_30_1130,spring_faces,3.1.5,60.02598476884033,
condition files/Stage2_2.xlsx,,B1,T1,s,"['s', 'r']","['Stratego', 'Risk']","[-0.15, 0.5]","[0.15, 0.5]",1,1,,,,,,,,,,,,,,,,,0,1,1,1,0,2,2,2,,,,,,,,,,,,,,,,,,,,,,,,,,,,,,,,,,,,,,,,,,,,,,,788.0714727680006,None,788.0714727680006,None,788.0714727680006,None,s,1,1.1177836809984,789.6054766140005,None,789.6054766140005,None,789.6054766140005,None,790.7911402259997,None,790.7911402259997,None,790.7911402259997,None,790.7911402259997,None,,,,,,,,,,,,,,,,,,,,,,,,,,,,,,,,,,,,,,,,,,,,001,34,2020_Jan_30_1130,spring_faces,3.1.5,60.02598476884033,
condition files/Stage2_2.xlsx,,T2,B2,r,"['s', 'r']","['Stratego', 'Risk']","[-0.15, 0.5]","[0.15, 0.5]",1,1,,,,,,,,,,,,,,,,,0,1,1,1,0,3,3,3,,,,,,,,,,,,,,,,,,,,,,,,,,,,,,,,,,,,,,,,,,,,,,,792.7553821709989,None,792.7553821709989,None,792.7553821709989,None,r,1,0.7858855920003407,794.3054185250003,None,794.3054185250003,None,794.3054185250003,None,795.1726094549995,None,795.1726094549995,None,795.1726094549995,None,795.1726094549995,None,,,,,,,,,,,,,,,,,,,,,,,,,,,,,,,,,,,,,,,,,,,,001,34,2020_Jan_30_1130,spring_faces,3.1.5,60.02598476884033,
condition files/Stage2_2.xlsx,,B3,T3,s,"['s', 'r']","['Stratego', 'Risk']","[-0.15, 0.5]","[0.15, 0.5]",1,1,,,,,,,,,,,,,,,,,0,1,1,1,0,4,4,4,,,,,,,,,,,,,,,,,,,,,,,,,,,,,,,,,,,,,,,,,,,,,,,797.122102071,None,797.122102071,None,797.122102071,None,r,0,1.3475133709998772,798.6558437490003,None,798.6558437490003,None,798.6558437490003,None,800.0724699719995,None,800.0724699719995,None,800.0724699719995,None,800.0724699719995,None,,,,,,,,,,,,,,,,,,,,,,,,,,,,,,,,,,,,,,,,,,,,001,34,2020_Jan_30_1130,spring_faces,3.1.5,60.02598476884033,
condition files/Stage2_2.xlsx,,T4,B4,r,"['s', 'r']","['Stratego', 'Risk']","[-0.15, 0.5]","[0.15, 0.5]",1,1,,,,,,,,,,,,,,,,,0,1,1,1,0,5,5,5,,,,,,,,,,,,,,,,,,,,,,,,,,,,,,,,,,,,,,,,,,,,,,,802.0223731509996,None,802.0223731509996,None,802.0223731509996,None,s,0,1.5675570989988046,803.5717294679998,None,803.5717294679998,None,803.5717294679998,None,805.2054379820001,None,805.2054379820001,None,805.2054379820001,None,805.2054379820001,None,,,,,,,,,,,,,,,,,,,,,,,,,,,,,,,,,,,,,,,,,,,,001,34,2020_Jan_30_1130,spring_faces,3.1.5,60.02598476884033,
condition files/Stage2_1.xlsx,,B2,T2,r,"['s', 'r']","['Stratego', 'Risk']","[-0.15, 0.5]","[0.15, 0.5]",1,1,,,,,,,,,,,,,,,,,0,2,2,2,0,0,0,3,,,,,,,,,,,,,,,,,,,,,,,,,,,,,,,,,,,,,,,,,,,,,,,807.1894281589994,None,807.1894281589994,None,807.1894281589994,None,r,1,2.2237833569997747,808.7235993519989,None,808.7235993519989,None,808.7235993519989,None,811.0051343739997,None,811.0051343739997,None,811.0051343739997,None,811.0051343739997,None,,,,,,,,,,,,,,,,,,,,,,,,,,,,,,,,,,,,,,,,,,,,001,34,2020_Jan_30_1130,spring_faces,3.1.5,60.02598476884033,
condition files/Stage2_1.xlsx,,B4,T4,r,"['s', 'r']","['Stratego', 'Risk']","[-0.15, 0.5]","[0.15, 0.5]",1,1,,,,,,,,,,,,,,,,,0,2,2,2,0,1,1,5,,,,,,,,,,,,,,,,,,,,,,,,,,,,,,,,,,,,,,,,,,,,,,,812.9720304629991,None,812.9720304629991,None,812.9720304629991,None,r,1,0.8087897290006367,814.5064495080005,None,814.5064495080005,None,814.5064495080005,None,815.3716580629989,None,815.3716580629989,None,815.3716580629989,None,815.3716580629989,None,,,,,,,,,,,,,,,,,,,,,,,,,,,,,,,,,,,,,,,,,,,,001,34,2020_Jan_30_1130,spring_faces,3.1.5,60.02598476884033,
condition files/Stage2_1.xlsx,,T3,B3,s,"['s', 'r']","['Stratego', 'Risk']","[-0.15, 0.5]","[0.15, 0.5]",1,1,,,,,,,,,,,,,,,,,0,2,2,2,0,2,2,4,,,,,,,,,,,,,,,,,,,,,,,,,,,,,,,,,,,,,,,,,,,,,,,817.3383779939995,None,817.3383779939995,None,817.3383779939995,None,s,1,1.4652283989998978,818.8740557870005,None,818.8740557870005,None,818.8740557870005,None,820.4055401810001,None,820.4055401810001,None,820.4055401810001,None,820.4055401810001,None,,,,,,,,,,,,,,,,,,,,,,,,,,,,,,,,,,,,,,,,,,,,001,34,2020_Jan_30_1130,spring_faces,3.1.5,60.02598476884033,
condition files/Stage2_1.xlsx,,T1,B1,s,"['s', 'r']","['Stratego', 'Risk']","[-0.15, 0.5]","[0.15, 0.5]",1,1,,,,,,,,,,,,,,,,,0,2,2,2,0,3,3,2,,,,,,,,,,,,,,,,,,,,,,,,,,,,,,,,,,,,,,,,,,,,,,,822.3717866520001,None,822.3717866520001,None,822.3717866520001,None,s,1,1.1693600290000177,823.9059503099998,None,823.9059503099998,None,823.9059503099998,None,825.1390243959995,None,825.1390243959995,None,825.1390243959995,None,825.1390243959995,None,,,,,,,,,,,,,,,,,,,,,,,,,,,,,,,,,,,,,,,,,,,,001,34,2020_Jan_30_1130,spring_faces,3.1.5,60.02598476884033,
condition files/Stage2_1.xlsx,,B6,T6,r,"['s', 'r']","['Stratego', 'Risk']","[-0.15, 0.5]","[0.15, 0.5]",1,1,,,,,,,,,,,,,,,,,0,2,2,2,0,4,4,1,,,,,,,,,,,,,,,,,,,,,,,,,,,,,,,,,,,,,,,,,,,,,,,827.1053517929995,None,827.1053517929995,None,827.1053517929995,None,s,0,1.3482125330010604,828.6390934709998,None,828.6390934709998,None,828.6390934709998,None,830.0390194209995,None,830.0390194209995,None,830.0390194209995,None,830.0390194209995,None,,,,,,,,,,,,,,,,,,,,,,,,,,,,,,,,,,,,,,,,,,,,001,34,2020_Jan_30_1130,spring_faces,3.1.5,60.02598476884033,
condition files/Stage2_1.xlsx,,T5,B5,s,"['s', 'r']","['Stratego', 'Risk']","[-0.15, 0.5]","[0.15, 0.5]",1,1,,,,,,,,,,,,,,,,,0,2,2,2,0,5,5,0,,,,,,,,,,,,,,,,,,,,,,,,,,,,,,,,,,,,,,,,,,,,,,,832.0054038620001,None,832.0054038620001,None,832.0054038620001,None,r,0,1.280045871000766,833.5392622790005,None,833.5392622790005,None,833.5392622790005,None,834.8719407650005,None,834.8719407650005,None,834.8719407650005,None,834.8719407650005,None,,,,,,,,,,,,,,,,,,,,,,,,,,,,,,,,,,,,,,,,,,,,001,34,2020_Jan_30_1130,spring_faces,3.1.5,60.02598476884033,
condition files/Stage2_2.xlsx,,T2,B2,r,"['s', 'r']","['Stratego', 'Risk']","[-0.15, 0.5]","[0.15, 0.5]",1,1,,,,,,,,,,,,,,,,,0,3,3,3,0,0,0,3,,,,,,,,,,,,,,,,,,,,,,,,,,,,,,,,,,,,,,,,,,,,,,,836.8556885960006,None,836.8556885960006,None,836.8556885960006,None,r,1,1.5005815740005346,838.3907383499991,None,838.3907383499991,None,838.3907383499991,None,839.957408278,None,839.957408278,None,839.957408278,None,839.957408278,None,,,,,,,,,,,,,,,,,,,,,,,,,,,,,,,,,,,,,,,,,,,,001,34,2020_Jan_30_1130,spring_faces,3.1.5,60.02598476884033,
condition files/Stage2_2.xlsx,,B1,T1,s,"['s', 'r']","['Stratego', 'Risk']","[-0.15, 0.5]","[0.15, 0.5]",1,1,,,,,,,,,,,,,,,,,0,3,3,3,0,1,1,2,,,,,,,,,,,,,,,,,,,,,,,,,,,,,,,,,,,,,,,,,,,,,,,841.9217850789992,None,841.9217850789992,None,841.9217850789992,None,r,0,0.6116510660012864,843.471611695999,None,843.471611695999,None,843.471611695999,None,844.1392944910003,None,844.1392944910003,None,844.1392944910003,None,844.1392944910003,None,,,,,,,,,,,,,,,,,,,,,,,,,,,,,,,,,,,,,,,,,,,,001,34,2020_Jan_30_1130,spring_faces,3.1.5,60.02598476884033,
condition files/Stage2_2.xlsx,,B3,T3,s,"['s', 'r']","['Stratego', 'Risk']","[-0.15, 0.5]","[0.15, 0.5]",1,1,,,,,,,,,,,,,,,,,0,3,3,3,0,2,2,4,,,,,,,,,,,,,,,,,,,,,,,,,,,,,,,,,,,,,,,,,,,,,,,846.104999059,None,846.104999059,None,846.104999059,None,r,0,0.9730168730002333,847.6383402989995,None,847.6383402989995,None,847.6383402989995,None,848.6720986319997,None,848.6720986319997,None,848.6720986319997,None,848.6720986319997,None,,,,,,,,,,,,,,,,,,,,,,,,,,,,,,,,,,,,,,,,,,,,001,34,2020_Jan_30_1130,spring_faces,3.1.5,60.02598476884033,
condition files/Stage2_2.xlsx,,T6,B6,r,"['s', 'r']","['Stratego', 'Risk']","[-0.15, 0.5]","[0.15, 0.5]",1,1,,,,,,,,,,,,,,,,,0,3,3,3,0,3,3,1,,,,,,,,,,,,,,,,,,,,,,,,,,,,,,,,,,,,,,,,,,,,,,,850.6390792990005,None,850.6390792990005,None,850.6390792990005,None,r,1,1.332768706999559,852.1745498239998,None,852.1745498239998,None,852.1745498239998,None,853.573302802999,None,853.573302802999,None,853.573302802999,None,853.573302802999,None,,,,,,,,,,,,,,,,,,,,,,,,,,,,,,,,,,,,,,,,,,,,001,34,2020_Jan_30_1130,spring_faces,3.1.5,60.02598476884033,
condition files/Stage2_2.xlsx,,T4,B4,r,"['s', 'r']","['Stratego', 'Risk']","[-0.15, 0.5]","[0.15, 0.5]",1,1,,,,,,,,,,,,,,,,,0,3,3,3,0,4,4,5,,,,,,,,,,,,,,,,,,,,,,,,,,,,,,,,,,,,,,,,,,,,,,,855.5388026950004,None,855.5388026950004,None,855.5388026950004,None,r,1,1.1382644590012205,857.089037452999,None,857.089037452999,None,857.089037452999,None,858.2889788089997,None,858.2889788089997,None,858.2889788089997,None,858.2889788089997,None,,,,,,,,,,,,,,,,,,,,,,,,,,,,,,,,,,,,,,,,,,,,001,34,2020_Jan_30_1130,spring_faces,3.1.5,60.02598476884033,
condition files/Stage2_2.xlsx,,B5,T5,s,"['s', 'r']","['Stratego', 'Risk']","[-0.15, 0.5]","[0.15, 0.5]",1,1,,,,,,,,,,,,,,,,,0,3,3,3,0,5,5,0,,,,,,,,,,,,,,,,,,,,,,,,,,,,,,,,,,,,,,,,,,,,,,,860.2554163080003,None,860.2554163080003,None,860.2554163080003,None,s,1,1.029516334998334,861.8058055170004,None,861.8058055170004,None,861.8058055170004,None,862.889829972999,None,862.889829972999,None,862.889829972999,None,862.889829972999,None,,,,,,,,,,,,,,,,,,,,,,,,,,,,,,,,,,,,,,,,,,,,001,34,2020_Jan_30_1130,spring_faces,3.1.5,60.02598476884033,
condition files/Stage2_1.xlsx,,B4,T4,r,"['s', 'r']","['Stratego', 'Risk']","[-0.15, 0.5]","[0.15, 0.5]",1,1,,,,,,,,,,,,,,,,,0,4,4,4,0,0,0,5,,,,,,,,,,,,,,,,,,,,,,,,,,,,,,,,,,,,,,,,,,,,,,,864.8724303399995,None,864.8724303399995,None,864.8724303399995,None,r,1,1.8998707589998958,866.4074498949994,None,866.4074498949994,None,866.4074498949994,None,868.3738974539992,None,868.3738974539992,None,868.3738974539992,None,868.3738974539992,None,,,,,,,,,,,,,,,,,,,,,,,,,,,,,,,,,,,,,,,,,,,,001,34,2020_Jan_30_1130,spring_faces,3.1.5,60.02598476884033,
condition files/Stage2_1.xlsx,,B2,T2,r,"['s', 'r']","['Stratego', 'Risk']","[-0.15, 0.5]","[0.15, 0.5]",1,1,,,,,,,,,,,,,,,,,0,4,4,4,0,1,1,3,,,,,,,,,,,,,,,,,,,,,,,,,,,,,,,,,,,,,,,,,,,,,,,870.3387747719989,None,870.3387747719989,None,870.3387747719989,None,r,1,1.297769115999472,871.8735435849994,None,871.8735435849994,None,871.8735435849994,None,873.2223259189996,None,873.2223259189996,None,873.2223259189996,None,873.2223259189996,None,,,,,,,,,,,,,,,,,,,,,,,,,,,,,,,,,,,,,,,,,,,,001,34,2020_Jan_30_1130,spring_faces,3.1.5,60.02598476884033,
condition files/Stage2_1.xlsx,,T3,B3,s,"['s', 'r']","['Stratego', 'Risk']","[-0.15, 0.5]","[0.15, 0.5]",1,1,,,,,,,,,,,,,,,,,0,4,4,4,0,2,2,4,,,,,,,,,,,,,,,,,,,,,,,,,,,,,,,,,,,,,,,,,,,,,,,875.1886895570005,None,875.1886895570005,None,875.1886895570005,None,s,1,1.1043951969986665,876.7229412899997,None,876.7229412899997,None,876.7229412899997,None,877.8892737839997,None,877.8892737839997,None,877.8892737839997,None,877.8892737839997,None,,,,,,,,,,,,,,,,,,,,,,,,,,,,,,,,,,,,,,,,,,,,001,34,2020_Jan_30_1130,spring_faces,3.1.5,60.02598476884033,
