condsFile,subStage,cue1,cue2,correct,responseKeys,responseNames,cue1Position,cue2Position,cue1Opacity,cue2Opacity,stageLoop0.thisRepN,stageLoop0.thisTrialN,stageLoop0.thisN,stageLoop0.thisIndex,blockLoop0.thisRepN,blockLoop0.thisTrialN,blockLoop0.thisN,blockLoop0.thisIndex,stage1Loop.thisRepN,stage1Loop.thisTrialN,stage1Loop.thisN,stage1Loop.thisIndex,blockLoop1.thisRepN,blockLoop1.thisTrialN,blockLoop1.thisN,blockLoop1.thisIndex,stage2Loop.thisRepN,stage2Loop.thisTrialN,stage2Loop.thisN,stage2Loop.thisIndex,blockLoop2.thisRepN,blockLoop2.thisTrialN,blockLoop2.thisN,blockLoop2.thisIndex,testLoop.thisRepN,testLoop.thisTrialN,testLoop.thisN,testLoop.thisIndex,blockLoopTest.thisRepN,blockLoopTest.thisTrialN,blockLoopTest.thisN,blockLoopTest.thisIndex,cuePics,id_instr_text.started,id_instr_text.stopped,space_to_continue_2.started,space_to_continue_2.stopped,end_instructions_resp_3.keys,end_instructions_resp_3.rt,end_instructions_resp_3.started,end_instructions_resp_3.stopped,id_input_instr.started,id_input_instr.stopped,id_input_rect.started,id_input_rect.stopped,id_input_resp.keys,id_input_resp.rt,id_input_resp.started,id_input_resp.stopped,sonaID,id_input_text.started,id_input_text.stopped,final_text.started,final_text.stopped,instructions.started,instructions.stopped,end_instructions_resp.keys,end_instructions_resp.rt,end_instructions_resp.started,end_instructions_resp.stopped,space_to_continue.started,space_to_continue.stopped,instructions_stage0.started,instructions_stage0.stopped,end_instructions_resp_stage0.keys,end_instructions_resp_stage0.rt,end_instructions_resp_stage0.started,end_instructions_resp_stage0.stopped,space_to_continue_stage0.started,space_to_continue_stage0.stopped,text.started,text.stopped,resp_text1.started,resp_text1.stopped,resp_text2.started,resp_text2.stopped,trial_resp.keys,trial_resp.corr,trial_resp.rt,trial_resp.started,trial_resp.stopped,cue1Image.started,cue1Image.stopped,cue2Image.started,cue2Image.stopped,cue1Image_fb.started,cue1Image_fb.stopped,cue2Image_fb.started,cue2Image_fb.stopped,fb_text_answer.started,fb_text_answer.stopped,feedback_image.started,feedback_image.stopped,instructions_stage1.started,instructions_stage1.stopped,end_instructions_resp_stage1.keys,end_instructions_resp_stage1.rt,end_instructions_resp_stage1.started,end_instructions_resp_stage1.stopped,space_to_continue_stage1.started,space_to_continue_stage1.stopped,instructions_2.started,instructions_2.stopped,end_instructions_resp_2.keys,end_instructions_resp_2.rt,end_instructions_resp_2.started,end_instructions_resp_2.stopped,press_space_to_continue_stage2.started,press_space_to_continue_stage2.stopped,instructions_testStage1.started,instructions_testStage1.stopped,end_instructions_resp_test1.keys,end_instructions_resp_test1.rt,end_instructions_resp_test1.started,end_instructions_resp_test1.stopped,press_space_to_continue_test1.started,press_space_to_continue_test1.stopped,cue1Image_testChoice.started,cue1Image_testChoice.stopped,cue2Image_testChoice.started,cue2Image_testChoice.stopped,test_resp.keys,test_resp.corr,test_resp.rt,test_resp.started,test_resp.stopped,cue1Image_testConf.started,cue1Image_testConf.stopped,cue2Image_testConf.started,cue2Image_testConf.stopped,conf_reminder.started,conf_reminder.stopped,conf_rating.response,conf_rating.rt,conf_rating.started,conf_rating.stopped,session,participant,date,expName,psychopyVersion,frameRate,
,,,,,,,,,,,,,,,,,,,,,,,,,,,,,,,,,,,,,,,,,,,"{'none': 'pictures/20M_AN_C.png', 'alpha': 'pictures/SHINEd_apple.png', 'beta': 'pictures/SHINEd_melon.png', 'theta': 'pictures/SHINEd_pear.png', 'phi': 'pictures/SHINEd_pepper.png', 'T1': 'pictures/34M_AN_C.png', 'T2': 'pictures/26M_AN_C.png', 'T3': 'pictures/32M_AN_C.png', 'T4': 'pictures/33M_AN_C.png', 'T5': 'pictures/23M_AN_C.png', 'T6': 'pictures/38M_AN_C.png', 'B1': 'pictures/20M_NE_C.png', 'B2': 'pictures/36M_NE_C.png', 'B3': 'pictures/25M_NE_C.png', 'B4': 'pictures/31M_NE_C.png', 'B5': 'pictures/22M_NE_C.png', 'B6': 'pictures/37M_NE_C.png'}",12.554500910999195,None,17.53752316899954,None,space,22.328918148999946,17.53752316899954,None,,,,,,,,,,,,,,,,,,,,,,,,,,,,,,,,,,,,,,,,,,,,,,,,,,,,,,,,,,,,,,,,,,,,,,,,,,,,,,,,,,,,,,,,,,,,,,,,001,36,2020_Jan_30_1154,spring_faces,3.1.5,60.1305767944869,
,,,,,,,,,,,,,,,,,,,,,,,,,,,,,,,,,,,,,,,,,,,,,,,,,,,,40.23880601199926,None,40.23880601199926,None,"['0', '1', '2', '7', 't', 'r', 'backspace', 'backspace', 't', 'r', 'backspace', 'backspace', 't', 'r', 'c', 'e', 'n']","[15.259622584999306, 15.64360795399989, 21.53164635199937, 22.011651430999336, 27.29163447799874, 27.995643924999968, 29.419649015999312, 29.64362112100025, 30.683615353998903, 31.05165499099894, 31.787663986999178, 32.60365880899917, 33.659637494998606, 34.52371564900022, 39.43566611099959, 39.723707667999406, 40.2516499379999]",40.23880601199926,None,,,,,,,,,,,,,,,,,,,,,,,,,,,,,,,,,,,,,,,,,,,,,,,,,,,,,,,,,,,,,,,,,,,,,,,,,,,,,,,,,,,,,,,,001,36,2020_Jan_30_1154,spring_faces,3.1.5,60.1305767944869,
,,,,,,,,,,,,,,,,,,,,,,,,,,,,,,,,,,,,,,,,,,,,,,,,,,,,,,,,,,,,0127trcen,40.23880601199926,None,40.23880601199926,None,85.57107516799988,None,space,3.824006241000461,90.57051971100009,None,,,,,,,,,,,,,,,,,,,,,,,,,,,,,,,,,,,,,,,,,,,,,,,,,,,,,,,,,,,,,,,,,,,,,,,,,,,,,001,36,2020_Jan_30_1154,spring_faces,3.1.5,60.1305767944869,
,,,,,,,,,,,,,,,,,,,,,,,,,,,,,,,,,,,,,,,,,,,,,,,,,,,,,,,,,,,,,,,,,,,,,,,90.57051971100009,None,94.43726914699982,None,space,9.101575732000128,99.42082232299981,None,,,,,,,,,,,,,,,,,,,,,,,,,,,,,,,,,,,,,,,,,,,,,,,,,,,,,,,,,,,,,,,,,,,,,001,36,2020_Jan_30_1154,spring_faces,3.1.5,60.1305767944869,
condition files/Stage0a.xlsx,0a,alpha,none,h,"['h', 'g']","['Chess', 'Go']","[0, 0.5]","[0, 0]",1,0,0,0,0,0,0,0,0,0,,,,,,,,,,,,,,,,,,,,,,,,,,,,,,,,,,,,,,,,,,,,,,,,,,,,,,,,,,,,,99.42082232299981,None,108.58751058899907,None,108.58751058899907,None,108.58751058899907,None,h,1,13.024152013000275,110.15433789400049,None,110.15433789400049,None,110.15433789400049,None,123.2544280839993,None,123.2544280839993,None,123.2544280839993,None,123.2544280839993,None,,,,,,,,,,,,,,,,,,,,,,,,,,,,,,,,,,,,,,,,,,,,001,36,2020_Jan_30_1154,spring_faces,3.1.5,60.1305767944869,
condition files/Stage0a.xlsx,0a,beta,none,g,"['h', 'g']","['Chess', 'Go']","[0, 0.5]","[0, 0]",1,0,0,0,0,0,0,1,1,1,,,,,,,,,,,,,,,,,,,,,,,,,,,,,,,,,,,,,,,,,,,,,,,,,,,,,,,,,,,,,,,125.20361671799947,None,125.20361671799947,None,125.20361671799947,None,g,1,1.3524113439998473,126.75403551899944,None,126.75403551899944,None,126.75403551899944,None,128.17161114999908,None,128.17161114999908,None,128.17161114999908,None,128.17161114999908,None,,,,,,,,,,,,,,,,,,,,,,,,,,,,,,,,,,,,,,,,,,,,001,36,2020_Jan_30_1154,spring_faces,3.1.5,60.1305767944869,
condition files/Stage0a.xlsx,0a,alpha,none,h,"['h', 'g']","['Chess', 'Go']","[0, 0.5]","[0, 0]",1,0,0,1,1,1,0,0,0,0,,,,,,,,,,,,,,,,,,,,,,,,,,,,,,,,,,,,,,,,,,,,,,,,,,,,,,,,,,,,,,,130.15385213700029,None,130.15385213700029,None,130.15385213700029,None,h,1,0.722782955999719,131.68766716000027,None,131.68766716000027,None,131.68766716000027,None,132.47018166399903,None,132.47018166399903,None,132.47018166399903,None,132.47018166399903,None,,,,,,,,,,,,,,,,,,,,,,,,,,,,,,,,,,,,,,,,,,,,001,36,2020_Jan_30_1154,spring_faces,3.1.5,60.1305767944869,
condition files/Stage0a.xlsx,0a,beta,none,g,"['h', 'g']","['Chess', 'Go']","[0, 0.5]","[0, 0]",1,0,0,1,1,1,0,1,1,1,,,,,,,,,,,,,,,,,,,,,,,,,,,,,,,,,,,,,,,,,,,,,,,,,,,,,,,,,,,,,,,134.4372872339991,None,134.4372872339991,None,134.4372872339991,None,g,1,0.6479831879987614,135.97047075699993,None,135.97047075699993,None,135.97047075699993,None,136.67076764800004,None,136.67076764800004,None,136.67076764800004,None,136.67076764800004,None,,,,,,,,,,,,,,,,,,,,,,,,,,,,,,,,,,,,,,,,,,,,001,36,2020_Jan_30_1154,spring_faces,3.1.5,60.1305767944869,
condition files/Stage0a.xlsx,0a,alpha,none,h,"['h', 'g']","['Chess', 'Go']","[0, 0.5]","[0, 0]",1,0,0,2,2,2,0,0,0,0,,,,,,,,,,,,,,,,,,,,,,,,,,,,,,,,,,,,,,,,,,,,,,,,,,,,,,,,,,,,,,,138.65406115000042,None,138.65406115000042,None,138.65406115000042,None,h,1,0.9749566439986666,140.18756957999904,None,140.18756957999904,None,140.18756957999904,None,141.220726431,None,141.220726431,None,141.220726431,None,141.220726431,None,,,,,,,,,,,,,,,,,,,,,,,,,,,,,,,,,,,,,,,,,,,,001,36,2020_Jan_30_1154,spring_faces,3.1.5,60.1305767944869,
condition files/Stage0a.xlsx,0a,beta,none,g,"['h', 'g']","['Chess', 'Go']","[0, 0.5]","[0, 0]",1,0,0,2,2,2,0,1,1,1,,,,,,,,,,,,,,,,,,,,,,,,,,,,,,,,,,,,,,,,,,,,,,,,,,,,,,,,,,,,,,,143.18729231999896,None,143.18729231999896,None,143.18729231999896,None,g,1,0.9061493680001149,144.72032308599955,None,144.72032308599955,None,144.72032308599955,None,145.686696363,None,145.686696363,None,145.686696363,None,145.686696363,None,,,,,,,,,,,,,,,,,,,,,,,,,,,,,,,,,,,,,,,,,,,,001,36,2020_Jan_30_1154,spring_faces,3.1.5,60.1305767944869,
condition files/Stage0a.xlsx,0a,alpha,none,h,"['h', 'g']","['Chess', 'Go']","[0, 0.5]","[0, 0]",1,0,0,3,3,3,0,0,0,0,,,,,,,,,,,,,,,,,,,,,,,,,,,,,,,,,,,,,,,,,,,,,,,,,,,,,,,,,,,,,,,147.67091575799896,None,147.67091575799896,None,147.67091575799896,None,h,1,0.6138824520003254,149.20455551099985,None,149.20455551099985,None,149.20455551099985,None,149.86997067799894,None,149.86997067799894,None,149.86997067799894,None,149.86997067799894,None,,,,,,,,,,,,,,,,,,,,,,,,,,,,,,,,,,,,,,,,,,,,001,36,2020_Jan_30_1154,spring_faces,3.1.5,60.1305767944869,
condition files/Stage0a.xlsx,0a,beta,none,g,"['h', 'g']","['Chess', 'Go']","[0, 0.5]","[0, 0]",1,0,0,3,3,3,0,1,1,1,,,,,,,,,,,,,,,,,,,,,,,,,,,,,,,,,,,,,,,,,,,,,,,,,,,,,,,,,,,,,,,151.83715802000006,None,151.83715802000006,None,151.83715802000006,None,g,1,0.5271847450003406,153.3712426179991,None,153.3712426179991,None,153.3712426179991,None,153.9540311389992,None,153.9540311389992,None,153.9540311389992,None,153.9540311389992,None,,,,,,,,,,,,,,,,,,,,,,,,,,,,,,,,,,,,,,,,,,,,001,36,2020_Jan_30_1154,spring_faces,3.1.5,60.1305767944869,
condition files/Stage0a.xlsx,0a,beta,none,g,"['h', 'g']","['Chess', 'Go']","[0, 0.5]","[0, 0]",1,0,0,4,4,4,0,0,0,1,,,,,,,,,,,,,,,,,,,,,,,,,,,,,,,,,,,,,,,,,,,,,,,,,,,,,,,,,,,,,,,155.93673113799923,None,155.93673113799923,None,155.93673113799923,None,h,0,0.3959516380000423,157.4705113179989,None,157.4705113179989,None,157.4705113179989,None,157.92020154499914,None,157.92020154499914,None,157.92020154499914,None,157.92020154499914,None,,,,,,,,,,,,,,,,,,,,,,,,,,,,,,,,,,,,,,,,,,,,001,36,2020_Jan_30_1154,spring_faces,3.1.5,60.1305767944869,
condition files/Stage0a.xlsx,0a,alpha,none,h,"['h', 'g']","['Chess', 'Go']","[0, 0.5]","[0, 0]",1,0,0,4,4,4,0,1,1,0,,,,,,,,,,,,,,,,,,,,,,,,,,,,,,,,,,,,,,,,,,,,,,,,,,,,,,,,,,,,,,,159.88737755799957,None,159.88737755799957,None,159.88737755799957,None,h,1,0.6222225670007901,161.4202314920003,None,161.4202314920003,None,161.4202314920003,None,162.1033470179991,None,162.1033470179991,None,162.1033470179991,None,162.1033470179991,None,,,,,,,,,,,,,,,,,,,,,,,,,,,,,,,,,,,,,,,,,,,,001,36,2020_Jan_30_1154,spring_faces,3.1.5,60.1305767944869,
condition files/Stage0a.xlsx,0a,alpha,none,h,"['h', 'g']","['Chess', 'Go']","[0, 0.5]","[0, 0]",1,0,0,5,5,5,0,0,0,0,,,,,,,,,,,,,,,,,,,,,,,,,,,,,,,,,,,,,,,,,,,,,,,,,,,,,,,,,,,,,,,164.0870702609991,None,164.0870702609991,None,164.0870702609991,None,h,1,0.6787419409993163,165.60370752900053,None,165.60370752900053,None,165.60370752900053,None,166.33762937499887,None,166.33762937499887,None,166.33762937499887,None,166.33762937499887,None,,,,,,,,,,,,,,,,,,,,,,,,,,,,,,,,,,,,,,,,,,,,001,36,2020_Jan_30_1154,spring_faces,3.1.5,60.1305767944869,
condition files/Stage0a.xlsx,0a,beta,none,g,"['h', 'g']","['Chess', 'Go']","[0, 0.5]","[0, 0]",1,0,0,5,5,5,0,1,1,1,,,,,,,,,,,,,,,,,,,,,,,,,,,,,,,,,,,,,,,,,,,,,,,,,,,,,,,,,,,,,,,168.3032859390005,None,168.3032859390005,None,168.3032859390005,None,g,1,0.6209656020000693,169.83748898799968,None,169.83748898799968,None,169.83748898799968,None,170.5209854829991,None,170.5209854829991,None,170.5209854829991,None,170.5209854829991,None,,,,,,,,,,,,,,,,,,,,,,,,,,,,,,,,,,,,,,,,,,,,001,36,2020_Jan_30_1154,spring_faces,3.1.5,60.1305767944869,
condition files/Stage0b_1.xlsx,0b,alpha,none,h,"['h', 'g']","['Chess', 'Go']","[-0.15, 0.5]","[0.15, 0.5]",1,0,0,6,6,6,0,0,0,0,,,,,,,,,,,,,,,,,,,,,,,,,,,,,,,,,,,,,,,,,,,,,,,,,,,,,,,,,,,,,,,172.5044487209998,None,172.5044487209998,None,172.5044487209998,None,h,1,0.7569054439991305,174.05354785599957,None,174.05354785599957,None,174.05354785599957,None,174.87048487299944,None,174.87048487299944,None,174.87048487299944,None,174.87048487299944,None,,,,,,,,,,,,,,,,,,,,,,,,,,,,,,,,,,,,,,,,,,,,001,36,2020_Jan_30_1154,spring_faces,3.1.5,60.1305767944869,
condition files/Stage0b_1.xlsx,0b,none,beta,g,"['h', 'g']","['Chess', 'Go']","[-0.15, 0.5]","[0.15, 0.5]",0,1,0,6,6,6,0,1,1,1,,,,,,,,,,,,,,,,,,,,,,,,,,,,,,,,,,,,,,,,,,,,,,,,,,,,,,,,,,,,,,,176.83725502199923,None,176.83725502199923,None,176.83725502199923,None,g,1,0.7746037540000543,178.38788458399904,None,178.38788458399904,None,178.38788458399904,None,179.22616917400046,None,179.22616917400046,None,179.22616917400046,None,179.22616917400046,None,,,,,,,,,,,,,,,,,,,,,,,,,,,,,,,,,,,,,,,,,,,,001,36,2020_Jan_30_1154,spring_faces,3.1.5,60.1305767944869,
condition files/Stage0b_2.xlsx,0b,beta,none,g,"['h', 'g']","['Chess', 'Go']","[-0.15, 0.5]","[0.15, 0.5]",1,0,0,7,7,7,0,0,0,1,,,,,,,,,,,,,,,,,,,,,,,,,,,,,,,,,,,,,,,,,,,,,,,,,,,,,,,,,,,,,,,181.20349450100002,None,181.20349450100002,None,181.20349450100002,None,g,1,0.632080681001753,182.7543253799995,None,182.7543253799995,None,182.7543253799995,None,183.43763489699995,None,183.43763489699995,None,183.43763489699995,None,183.43763489699995,None,,,,,,,,,,,,,,,,,,,,,,,,,,,,,,,,,,,,,,,,,,,,001,36,2020_Jan_30_1154,spring_faces,3.1.5,60.1305767944869,
condition files/Stage0b_2.xlsx,0b,none,alpha,h,"['h', 'g']","['Chess', 'Go']","[-0.15, 0.5]","[0.15, 0.5]",0,1,0,7,7,7,0,1,1,0,,,,,,,,,,,,,,,,,,,,,,,,,,,,,,,,,,,,,,,,,,,,,,,,,,,,,,,,,,,,,,,185.40386068899898,None,185.40386068899898,None,185.40386068899898,None,h,1,1.1494802699999127,186.9409798910001,None,186.9409798910001,None,186.9409798910001,None,188.1540025260001,None,188.1540025260001,None,188.1540025260001,None,188.1540025260001,None,,,,,,,,,,,,,,,,,,,,,,,,,,,,,,,,,,,,,,,,,,,,001,36,2020_Jan_30_1154,spring_faces,3.1.5,60.1305767944869,
condition files/Stage0b_1.xlsx,0b,none,beta,g,"['h', 'g']","['Chess', 'Go']","[-0.15, 0.5]","[0.15, 0.5]",0,1,0,8,8,8,0,0,0,1,,,,,,,,,,,,,,,,,,,,,,,,,,,,,,,,,,,,,,,,,,,,,,,,,,,,,,,,,,,,,,,190.1370736709996,None,190.1370736709996,None,190.1370736709996,None,g,1,0.691281909999816,191.671232359,None,191.671232359,None,191.671232359,None,192.4206229350002,None,192.4206229350002,None,192.4206229350002,None,192.4206229350002,None,,,,,,,,,,,,,,,,,,,,,,,,,,,,,,,,,,,,,,,,,,,,001,36,2020_Jan_30_1154,spring_faces,3.1.5,60.1305767944869,
condition files/Stage0b_1.xlsx,0b,alpha,none,h,"['h', 'g']","['Chess', 'Go']","[-0.15, 0.5]","[0.15, 0.5]",1,0,0,8,8,8,0,1,1,0,,,,,,,,,,,,,,,,,,,,,,,,,,,,,,,,,,,,,,,,,,,,,,,,,,,,,,,,,,,,,,,194.3873090649995,None,194.3873090649995,None,194.3873090649995,None,h,1,0.7126785529999324,195.93773102199884,None,195.93773102199884,None,195.93773102199884,None,196.70847938299994,None,196.70847938299994,None,196.70847938299994,None,196.70847938299994,None,,,,,,,,,,,,,,,,,,,,,,,,,,,,,,,,,,,,,,,,,,,,001,36,2020_Jan_30_1154,spring_faces,3.1.5,60.1305767944869,
condition files/Stage0b_2.xlsx,0b,none,alpha,h,"['h', 'g']","['Chess', 'Go']","[-0.15, 0.5]","[0.15, 0.5]",0,1,0,9,9,9,0,0,0,0,,,,,,,,,,,,,,,,,,,,,,,,,,,,,,,,,,,,,,,,,,,,,,,,,,,,,,,,,,,,,,,198.687584669,None,198.687584669,None,198.687584669,None,h,1,0.7764075600007345,200.22605999199914,None,200.22605999199914,None,200.22605999199914,None,201.05414378499881,None,201.05414378499881,None,201.05414378499881,None,201.05414378499881,None,,,,,,,,,,,,,,,,,,,,,,,,,,,,,,,,,,,,,,,,,,,,001,36,2020_Jan_30_1154,spring_faces,3.1.5,60.1305767944869,
condition files/Stage0b_2.xlsx,0b,beta,none,g,"['h', 'g']","['Chess', 'Go']","[-0.15, 0.5]","[0.15, 0.5]",1,0,0,9,9,9,0,1,1,1,,,,,,,,,,,,,,,,,,,,,,,,,,,,,,,,,,,,,,,,,,,,,,,,,,,,,,,,,,,,,,,203.02023345499947,None,203.02023345499947,None,203.02023345499947,None,g,1,0.6556833530012227,204.57077900500008,None,204.57077900500008,None,204.57077900500008,None,205.28689603800012,None,205.28689603800012,None,205.28689603800012,None,205.28689603800012,None,,,,,,,,,,,,,,,,,,,,,,,,,,,,,,,,,,,,,,,,,,,,001,36,2020_Jan_30_1154,spring_faces,3.1.5,60.1305767944869,
condition files/Stage0b_1.xlsx,0b,alpha,none,h,"['h', 'g']","['Chess', 'Go']","[-0.15, 0.5]","[0.15, 0.5]",1,0,0,10,10,10,0,0,0,0,,,,,,,,,,,,,,,,,,,,,,,,,,,,,,,,,,,,,,,,,,,,,,,,,,,,,,,,,,,,,,,207.27076282000053,None,207.27076282000053,None,207.27076282000053,None,h,1,0.7266076760006399,208.80384417799905,None,208.80384417799905,None,208.80384417799905,None,209.5871256499995,None,209.5871256499995,None,209.5871256499995,None,209.5871256499995,None,,,,,,,,,,,,,,,,,,,,,,,,,,,,,,,,,,,,,,,,,,,,001,36,2020_Jan_30_1154,spring_faces,3.1.5,60.1305767944869,
condition files/Stage0b_1.xlsx,0b,none,beta,g,"['h', 'g']","['Chess', 'Go']","[-0.15, 0.5]","[0.15, 0.5]",0,1,0,10,10,10,0,1,1,1,,,,,,,,,,,,,,,,,,,,,,,,,,,,,,,,,,,,,,,,,,,,,,,,,,,,,,,,,,,,,,,211.5538399929992,None,211.5538399929992,None,211.5538399929992,None,g,1,0.6179787780001789,213.10443852999924,None,213.10443852999924,None,213.10443852999924,None,213.79225489199962,None,213.79225489199962,None,213.79225489199962,None,213.79225489199962,None,,,,,,,,,,,,,,,,,,,,,,,,,,,,,,,,,,,,,,,,,,,,001,36,2020_Jan_30_1154,spring_faces,3.1.5,60.1305767944869,
condition files/Stage0b_2.xlsx,0b,beta,none,g,"['h', 'g']","['Chess', 'Go']","[-0.15, 0.5]","[0.15, 0.5]",1,0,0,11,11,11,0,0,0,1,,,,,,,,,,,,,,,,,,,,,,,,,,,,,,,,,,,,,,,,,,,,,,,,,,,,,,,,,,,,,,,215.7711802449994,None,215.7711802449994,None,215.7711802449994,None,g,1,0.6068842650001898,217.30764315799934,None,217.30764315799934,None,217.30764315799934,None,217.97091627400005,None,217.97091627400005,None,217.97091627400005,None,217.97091627400005,None,,,,,,,,,,,,,,,,,,,,,,,,,,,,,,,,,,,,,,,,,,,,001,36,2020_Jan_30_1154,spring_faces,3.1.5,60.1305767944869,
condition files/Stage0b_2.xlsx,0b,none,alpha,h,"['h', 'g']","['Chess', 'Go']","[-0.15, 0.5]","[0.15, 0.5]",0,1,0,11,11,11,0,1,1,0,,,,,,,,,,,,,,,,,,,,,,,,,,,,,,,,,,,,,,,,,,,,,,,,,,,,,,,,,,,,,,,219.93719341299948,None,219.93719341299948,None,219.93719341299948,None,h,1,0.8108376379987021,221.4875916609999,None,221.4875916609999,None,221.4875916609999,None,222.35900088000017,None,222.35900088000017,None,222.35900088000017,None,222.35900088000017,None,,,,,,,,,,,,,,,,,,,,,,,,,,,,,,,,,,,,,,,,,,,,001,36,2020_Jan_30_1154,spring_faces,3.1.5,60.1305767944869,
condition files/Stage0c_1.xlsx,0c,theta,alpha,h,"['h', 'g']","['Chess', 'Go']","[-0.15, 0.5]","[0.15, 0.5]",1,1,0,12,12,12,0,0,0,0,,,,,,,,,,,,,,,,,,,,,,,,,,,,,,,,,,,,,,,,,,,,,,,,,,,,,,,,,,,,,,,224.33765994900023,None,224.33765994900023,None,224.33765994900023,None,h,1,4.31556700299916,225.87087341000006,None,225.87087341000006,None,225.87087341000006,None,230.23692190200018,None,230.23692190200018,None,230.23692190200018,None,230.23692190200018,None,,,,,,,,,,,,,,,,,,,,,,,,,,,,,,,,,,,,,,,,,,,,001,36,2020_Jan_30_1154,spring_faces,3.1.5,60.1305767944869,
condition files/Stage0c_1.xlsx,0c,beta,theta,g,"['h', 'g']","['Chess', 'Go']","[-0.15, 0.5]","[0.15, 0.5]",1,1,0,12,12,12,0,1,1,2,,,,,,,,,,,,,,,,,,,,,,,,,,,,,,,,,,,,,,,,,,,,,,,,,,,,,,,,,,,,,,,232.20395938100046,None,232.20395938100046,None,232.20395938100046,None,g,1,1.8728357149993826,233.73761001300045,None,233.73761001300045,None,233.73761001300045,None,235.67051230799916,None,235.67051230799916,None,235.67051230799916,None,235.67051230799916,None,,,,,,,,,,,,,,,,,,,,,,,,,,,,,,,,,,,,,,,,,,,,001,36,2020_Jan_30_1154,spring_faces,3.1.5,60.1305767944869,
condition files/Stage0c_1.xlsx,0c,phi,beta,g,"['h', 'g']","['Chess', 'Go']","[-0.15, 0.5]","[0.15, 0.5]",1,1,0,12,12,12,0,2,2,3,,,,,,,,,,,,,,,,,,,,,,,,,,,,,,,,,,,,,,,,,,,,,,,,,,,,,,,,,,,,,,,237.63740704500015,None,237.63740704500015,None,237.63740704500015,None,g,1,1.5121657750005397,239.17028398299954,None,239.17028398299954,None,239.17028398299954,None,240.73681813499934,None,240.73681813499934,None,240.73681813499934,None,240.73681813499934,None,,,,,,,,,,,,,,,,,,,,,,,,,,,,,,,,,,,,,,,,,,,,001,36,2020_Jan_30_1154,spring_faces,3.1.5,60.1305767944869,
condition files/Stage0c_1.xlsx,0c,alpha,phi,h,"['h', 'g']","['Chess', 'Go']","[-0.15, 0.5]","[0.15, 0.5]",1,1,0,12,12,12,0,3,3,1,,,,,,,,,,,,,,,,,,,,,,,,,,,,,,,,,,,,,,,,,,,,,,,,,,,,,,,,,,,,,,,242.7039407680004,None,242.7039407680004,None,242.7039407680004,None,h,1,1.5649352340005862,244.2375034050001,None,244.2375034050001,None,244.2375034050001,None,245.85440397300044,None,245.85440397300044,None,245.85440397300044,None,245.85440397300044,None,,,,,,,,,,,,,,,,,,,,,,,,,,,,,,,,,,,,,,,,,,,,001,36,2020_Jan_30_1154,spring_faces,3.1.5,60.1305767944869,
condition files/Stage0c_2.xlsx,0c,theta,beta,g,"['h', 'g']","['Chess', 'Go']","[-0.15, 0.5]","[0.15, 0.5]",1,1,0,13,13,13,0,0,0,2,,,,,,,,,,,,,,,,,,,,,,,,,,,,,,,,,,,,,,,,,,,,,,,,,,,,,,,,,,,,,,,247.8375718749994,None,247.8375718749994,None,247.8375718749994,None,g,1,1.7437530200004403,249.37076498999886,None,249.37076498999886,None,249.37076498999886,None,251.17072172699955,None,251.17072172699955,None,251.17072172699955,None,251.17072172699955,None,,,,,,,,,,,,,,,,,,,,,,,,,,,,,,,,,,,,,,,,,,,,001,36,2020_Jan_30_1154,spring_faces,3.1.5,60.1305767944869,
condition files/Stage0c_2.xlsx,0c,phi,alpha,h,"['h', 'g']","['Chess', 'Go']","[-0.15, 0.5]","[0.15, 0.5]",1,1,0,13,13,13,0,1,1,1,,,,,,,,,,,,,,,,,,,,,,,,,,,,,,,,,,,,,,,,,,,,,,,,,,,,,,,,,,,,,,,253.13760755699877,None,253.13760755699877,None,253.13760755699877,None,h,1,1.4355302380008652,254.6709092330002,None,254.6709092330002,None,254.6709092330002,None,256.17022861499936,None,256.17022861499936,None,256.17022861499936,None,256.17022861499936,None,,,,,,,,,,,,,,,,,,,,,,,,,,,,,,,,,,,,,,,,,,,,001,36,2020_Jan_30_1154,spring_faces,3.1.5,60.1305767944869,
condition files/Stage0c_2.xlsx,0c,beta,phi,g,"['h', 'g']","['Chess', 'Go']","[-0.15, 0.5]","[0.15, 0.5]",1,1,0,13,13,13,0,2,2,3,,,,,,,,,,,,,,,,,,,,,,,,,,,,,,,,,,,,,,,,,,,,,,,,,,,,,,,,,,,,,,,258.1374371009988,None,258.1374371009988,None,258.1374371009988,None,g,1,5.6037107430001925,259.6707409039991,None,259.6707409039991,None,259.6707409039991,None,265.3374985289993,None,265.3374985289993,None,265.3374985289993,None,265.3374985289993,None,,,,,,,,,,,,,,,,,,,,,,,,,,,,,,,,,,,,,,,,,,,,001,36,2020_Jan_30_1154,spring_faces,3.1.5,60.1305767944869,
condition files/Stage0c_2.xlsx,0c,alpha,theta,h,"['h', 'g']","['Chess', 'Go']","[-0.15, 0.5]","[0.15, 0.5]",1,1,0,13,13,13,0,3,3,0,,,,,,,,,,,,,,,,,,,,,,,,,,,,,,,,,,,,,,,,,,,,,,,,,,,,,,,,,,,,,,,267.3039271130001,None,267.3039271130001,None,267.3039271130001,None,h,1,0.9489174589998584,268.8375017819999,None,268.8375017819999,None,268.8375017819999,None,269.83707648400014,None,269.83707648400014,None,269.83707648400014,None,269.83707648400014,None,,,,,,,,,,,,,,,,,,,,,,,,,,,,,,,,,,,,,,,,,,,,001,36,2020_Jan_30_1154,spring_faces,3.1.5,60.1305767944869,
condition files/Stage0c_1.xlsx,0c,alpha,phi,h,"['h', 'g']","['Chess', 'Go']","[-0.15, 0.5]","[0.15, 0.5]",1,1,0,14,14,14,0,0,0,1,,,,,,,,,,,,,,,,,,,,,,,,,,,,,,,,,,,,,,,,,,,,,,,,,,,,,,,,,,,,,,,271.8208266929996,None,271.8208266929996,None,271.8208266929996,None,h,1,0.9766696070000762,273.35376767100024,None,273.35376767100024,None,273.35376767100024,None,274.37261358899923,None,274.37261358899923,None,274.37261358899923,None,274.37261358899923,None,,,,,,,,,,,,,,,,,,,,,,,,,,,,,,,,,,,,,,,,,,,,001,36,2020_Jan_30_1154,spring_faces,3.1.5,60.1305767944869,
condition files/Stage0c_1.xlsx,0c,phi,beta,g,"['h', 'g']","['Chess', 'Go']","[-0.15, 0.5]","[0.15, 0.5]",1,1,0,14,14,14,0,1,1,3,,,,,,,,,,,,,,,,,,,,,,,,,,,,,,,,,,,,,,,,,,,,,,,,,,,,,,,,,,,,,,,276.3541481609991,None,276.3541481609991,None,276.3541481609991,None,g,1,1.066685146999589,277.8877318249997,None,277.8877318249997,None,277.8877318249997,None,279.0206200649991,None,279.0206200649991,None,279.0206200649991,None,279.0206200649991,None,,,,,,,,,,,,,,,,,,,,,,,,,,,,,,,,,,,,,,,,,,,,001,36,2020_Jan_30_1154,spring_faces,3.1.5,60.1305767944869,
condition files/Stage0c_1.xlsx,0c,theta,alpha,h,"['h', 'g']","['Chess', 'Go']","[-0.15, 0.5]","[0.15, 0.5]",1,1,0,14,14,14,0,2,2,0,,,,,,,,,,,,,,,,,,,,,,,,,,,,,,,,,,,,,,,,,,,,,,,,,,,,,,,,,,,,,,,280.98659580099957,None,280.98659580099957,None,280.98659580099957,None,h,1,0.993463969000004,282.5210379879991,None,282.5210379879991,None,282.5210379879991,None,283.57028786499905,None,283.57028786499905,None,283.57028786499905,None,283.57028786499905,None,,,,,,,,,,,,,,,,,,,,,,,,,,,,,,,,,,,,,,,,,,,,001,36,2020_Jan_30_1154,spring_faces,3.1.5,60.1305767944869,
condition files/Stage0c_1.xlsx,0c,beta,theta,g,"['h', 'g']","['Chess', 'Go']","[-0.15, 0.5]","[0.15, 0.5]",1,1,0,14,14,14,0,3,3,2,,,,,,,,,,,,,,,,,,,,,,,,,,,,,,,,,,,,,,,,,,,,,,,,,,,,,,,,,,,,,,,285.53763660500044,None,285.53763660500044,None,285.53763660500044,None,g,1,0.5556087189997925,287.0708443679996,None,287.0708443679996,None,287.0708443679996,None,287.6875810250003,None,287.6875810250003,None,287.6875810250003,None,287.6875810250003,None,,,,,,,,,,,,,,,,,,,,,,,,,,,,,,,,,,,,,,,,,,,,001,36,2020_Jan_30_1154,spring_faces,3.1.5,60.1305767944869,
condition files/Stage0c_2.xlsx,0c,beta,phi,g,"['h', 'g']","['Chess', 'Go']","[-0.15, 0.5]","[0.15, 0.5]",1,1,0,15,15,15,0,0,0,3,,,,,,,,,,,,,,,,,,,,,,,,,,,,,,,,,,,,,,,,,,,,,,,,,,,,,,,,,,,,,,,289.67093633199875,None,289.67093633199875,None,289.67093633199875,None,g,1,0.4540648050005984,291.2044000139995,None,291.2044000139995,None,291.2044000139995,None,291.70396072199947,None,291.70396072199947,None,291.70396072199947,None,291.70396072199947,None,,,,,,,,,,,,,,,,,,,,,,,,,,,,,,,,,,,,,,,,,,,,001,36,2020_Jan_30_1154,spring_faces,3.1.5,60.1305767944869,
condition files/Stage0c_2.xlsx,0c,theta,beta,g,"['h', 'g']","['Chess', 'Go']","[-0.15, 0.5]","[0.15, 0.5]",1,1,0,15,15,15,0,1,1,2,,,,,,,,,,,,,,,,,,,,,,,,,,,,,,,,,,,,,,,,,,,,,,,,,,,,,,,,,,,,,,,293.68678331499905,None,293.68678331499905,None,293.68678331499905,None,g,1,1.0453807239991875,295.22102341400023,None,295.22102341400023,None,295.22102341400023,None,296.3058021019988,None,296.3058021019988,None,296.3058021019988,None,296.3058021019988,None,,,,,,,,,,,,,,,,,,,,,,,,,,,,,,,,,,,,,,,,,,,,001,36,2020_Jan_30_1154,spring_faces,3.1.5,60.1305767944869,
condition files/Stage0c_2.xlsx,0c,alpha,theta,h,"['h', 'g']","['Chess', 'Go']","[-0.15, 0.5]","[0.15, 0.5]",1,1,0,15,15,15,0,2,2,0,,,,,,,,,,,,,,,,,,,,,,,,,,,,,,,,,,,,,,,,,,,,,,,,,,,,,,,,,,,,,,,298.28701471800014,None,298.28701471800014,None,298.28701471800014,None,h,1,0.7497408350009209,299.82068696699935,None,299.82068696699935,None,299.82068696699935,None,300.6203870569989,None,300.6203870569989,None,300.6203870569989,None,300.6203870569989,None,,,,,,,,,,,,,,,,,,,,,,,,,,,,,,,,,,,,,,,,,,,,001,36,2020_Jan_30_1154,spring_faces,3.1.5,60.1305767944869,
condition files/Stage0c_2.xlsx,0c,phi,alpha,h,"['h', 'g']","['Chess', 'Go']","[-0.15, 0.5]","[0.15, 0.5]",1,1,0,15,15,15,0,3,3,1,,,,,,,,,,,,,,,,,,,,,,,,,,,,,,,,,,,,,,,,,,,,,,,,,,,,,,,,,,,,,,,302.587290554,None,302.587290554,None,302.587290554,None,g,0,1.1056133870006306,304.12083665799946,None,304.12083665799946,None,304.12083665799946,None,305.27140529999997,None,305.27140529999997,None,305.27140529999997,None,305.27140529999997,None,,,,,,,,,,,,,,,,,,,,,,,,,,,,,,,,,,,,,,,,,,,,001,36,2020_Jan_30_1154,spring_faces,3.1.5,60.1305767944869,
condition files/Stage0c_1.xlsx,0c,phi,beta,g,"['h', 'g']","['Chess', 'Go']","[-0.15, 0.5]","[0.15, 0.5]",1,1,0,16,16,16,0,0,0,3,,,,,,,,,,,,,,,,,,,,,,,,,,,,,,,,,,,,,,,,,,,,,,,,,,,,,,,,,,,,,,,307.2709134839988,None,307.2709134839988,None,307.2709134839988,None,g,1,1.0461629330002324,308.8042913320005,None,308.8042913320005,None,308.8042913320005,None,309.9038850799989,None,309.9038850799989,None,309.9038850799989,None,309.9038850799989,None,,,,,,,,,,,,,,,,,,,,,,,,,,,,,,,,,,,,,,,,,,,,001,36,2020_Jan_30_1154,spring_faces,3.1.5,60.1305767944869,
condition files/Stage0c_1.xlsx,0c,theta,alpha,h,"['h', 'g']","['Chess', 'Go']","[-0.15, 0.5]","[0.15, 0.5]",1,1,0,16,16,16,0,1,1,0,,,,,,,,,,,,,,,,,,,,,,,,,,,,,,,,,,,,,,,,,,,,,,,,,,,,,,,,,,,,,,,311.87066983600016,None,311.87066983600016,None,311.87066983600016,None,h,1,1.0382600410011946,313.4041911379991,None,313.4041911379991,None,313.4041911379991,None,314.5040612289995,None,314.5040612289995,None,314.5040612289995,None,314.5040612289995,None,,,,,,,,,,,,,,,,,,,,,,,,,,,,,,,,,,,,,,,,,,,,001,36,2020_Jan_30_1154,spring_faces,3.1.5,60.1305767944869,
condition files/Stage0c_1.xlsx,0c,alpha,phi,h,"['h', 'g']","['Chess', 'Go']","[-0.15, 0.5]","[0.15, 0.5]",1,1,0,16,16,16,0,2,2,1,,,,,,,,,,,,,,,,,,,,,,,,,,,,,,,,,,,,,,,,,,,,,,,,,,,,,,,,,,,,,,,316.47108378099983,None,316.47108378099983,None,316.47108378099983,None,h,1,1.1423904830007814,318.0041197729988,None,318.0041197729988,None,318.0041197729988,None,319.18840863399964,None,319.18840863399964,None,319.18840863399964,None,319.18840863399964,None,,,,,,,,,,,,,,,,,,,,,,,,,,,,,,,,,,,,,,,,,,,,001,36,2020_Jan_30_1154,spring_faces,3.1.5,60.1305767944869,
condition files/Stage0c_1.xlsx,0c,beta,theta,g,"['h', 'g']","['Chess', 'Go']","[-0.15, 0.5]","[0.15, 0.5]",1,1,0,16,16,16,0,3,3,2,,,,,,,,,,,,,,,,,,,,,,,,,,,,,,,,,,,,,,,,,,,,,,,,,,,,,,,,,,,,,,,321.18688865699914,None,321.18688865699914,None,321.18688865699914,None,g,1,0.9223780869997427,322.7040713189999,None,322.7040713189999,None,322.7040713189999,None,323.68719731300007,None,323.68719731300007,None,323.68719731300007,None,323.68719731300007,None,,,,,,,,,,,,,,,,,,,,,,,,,,,,,,,,,,,,,,,,,,,,001,36,2020_Jan_30_1154,spring_faces,3.1.5,60.1305767944869,
condition files/Stage0c_2.xlsx,0c,phi,alpha,h,"['h', 'g']","['Chess', 'Go']","[-0.15, 0.5]","[0.15, 0.5]",1,1,0,17,17,17,0,0,0,1,,,,,,,,,,,,,,,,,,,,,,,,,,,,,,,,,,,,,,,,,,,,,,,,,,,,,,,,,,,,,,,325.73755881299985,None,325.73755881299985,None,325.73755881299985,None,h,1,1.1107679990000179,327.203751129,None,327.203751129,None,327.203751129,None,328.3709300039991,None,328.3709300039991,None,328.3709300039991,None,328.3709300039991,None,,,,,,,,,,,,,,,,,,,,,,,,,,,,,,,,,,,,,,,,,,,,001,36,2020_Jan_30_1154,spring_faces,3.1.5,60.1305767944869,
condition files/Stage0c_2.xlsx,0c,theta,beta,g,"['h', 'g']","['Chess', 'Go']","[-0.15, 0.5]","[0.15, 0.5]",1,1,0,17,17,17,0,1,1,2,,,,,,,,,,,,,,,,,,,,,,,,,,,,,,,,,,,,,,,,,,,,,,,,,,,,,,,,,,,,,,,330.3375658339992,None,330.3375658339992,None,330.3375658339992,None,g,1,0.8282237379989965,331.87020934999964,None,331.87020934999964,None,331.87020934999964,None,332.7540189909996,None,332.7540189909996,None,332.7540189909996,None,332.7540189909996,None,,,,,,,,,,,,,,,,,,,,,,,,,,,,,,,,,,,,,,,,,,,,001,36,2020_Jan_30_1154,spring_faces,3.1.5,60.1305767944869,
condition files/Stage0c_2.xlsx,0c,beta,phi,g,"['h', 'g']","['Chess', 'Go']","[-0.15, 0.5]","[0.15, 0.5]",1,1,0,17,17,17,0,2,2,3,,,,,,,,,,,,,,,,,,,,,,,,,,,,,,,,,,,,,,,,,,,,,,,,,,,,,,,,,,,,,,,334.7201897220002,None,334.7201897220002,None,334.7201897220002,None,g,1,0.8282748120000178,336.25416652400054,None,336.25416652400054,None,336.25416652400054,None,337.12226191300033,None,337.12226191300033,None,337.12226191300033,None,337.12226191300033,None,,,,,,,,,,,,,,,,,,,,,,,,,,,,,,,,,,,,,,,,,,,,001,36,2020_Jan_30_1154,spring_faces,3.1.5,60.1305767944869,
condition files/Stage0c_2.xlsx,0c,alpha,theta,h,"['h', 'g']","['Chess', 'Go']","[-0.15, 0.5]","[0.15, 0.5]",1,1,0,17,17,17,0,3,3,0,,,,,,,,,,,,,,,,,,,,,,,,,,,,,,,,,,,,,,,,,,,,,,,,,,,,,,,,,,,,,,,339.1041447259995,None,339.1041447259995,None,339.1041447259995,None,h,1,1.1812127760003932,340.6372271780001,None,340.6372271780001,None,340.6372271780001,None,341.8709210039997,None,341.8709210039997,None,341.8709210039997,None,341.8709210039997,None,,,,,,,,,,,,,,,,,,,,,,,,,,,,,,,,,,,,,,,,,,,,001,36,2020_Jan_30_1154,spring_faces,3.1.5,60.1305767944869,
,,,,,,,,,,,,,,,,,,,,,,,,,,,,,,,,,,,,,,,,,,,,,,,,,,,,,,,,,,,,,,,,,,,,,,,,,,,,,,,,,,,,,,,,,,,,,,,,,,,,,,,,343.85420913599955,None,space,3.5562817320005706,348.85424981899996,None,,,,,,,,,,,,,,,,,,,,,,,,,,,,,,,,,,,,,,001,36,2020_Jan_30_1154,spring_faces,3.1.5,60.1305767944869,
condition files/Stage1_1.xlsx,,B4,T4,m,"['c', 'm']","['Clue', 'Monopoly']","[-0.15, 0.5]","[0.15, 0.5]",1,1,,,,,,,,,0,0,0,0,0,0,0,7,,,,,,,,,,,,,,,,,,,,,,,,,,,,,,,,,,,,,,,,,,,,,,,,,,,,,,,352.4707794699989,None,352.4707794699989,None,352.4707794699989,None,c,0,2.67594533600095,354.054480458999,None,354.054480458999,None,354.054480458999,None,356.8039935939996,None,356.8039935939996,None,356.8039935939996,None,356.8039935939996,None,,,,,,,348.85424981899996,None,,,,,,,,,,,,,,,,,,,,,,,,,,,,,,,,,,,,001,36,2020_Jan_30_1154,spring_faces,3.1.5,60.1305767944869,
condition files/Stage1_1.xlsx,,T2,B2,m,"['c', 'm']","['Clue', 'Monopoly']","[-0.15, 0.5]","[0.15, 0.5]",1,1,,,,,,,,,0,0,0,0,0,1,1,3,,,,,,,,,,,,,,,,,,,,,,,,,,,,,,,,,,,,,,,,,,,,,,,,,,,,,,,358.7539097379995,None,358.7539097379995,None,358.7539097379995,None,c,0,0.7131871689998661,360.3372782690003,None,360.3372782690003,None,360.3372782690003,None,361.10379732,None,361.10379732,None,361.10379732,None,361.10379732,None,,,,,,,,,,,,,,,,,,,,,,,,,,,,,,,,,,,,,,,,,,,,001,36,2020_Jan_30_1154,spring_faces,3.1.5,60.1305767944869,
condition files/Stage1_1.xlsx,,T4,B3,m,"['c', 'm']","['Clue', 'Monopoly']","[-0.15, 0.5]","[0.15, 0.5]",1,1,,,,,,,,,0,0,0,0,0,2,2,6,,,,,,,,,,,,,,,,,,,,,,,,,,,,,,,,,,,,,,,,,,,,,,,,,,,,,,,363.07057319999876,None,363.07057319999876,None,363.07057319999876,None,m,1,0.9416255230007664,364.620888079,None,364.620888079,None,364.620888079,None,365.62080170899935,None,365.62080170899935,None,365.62080170899935,None,365.62080170899935,None,,,,,,,,,,,,,,,,,,,,,,,,,,,,,,,,,,,,,,,,,,,,001,36,2020_Jan_30_1154,spring_faces,3.1.5,60.1305767944869,
condition files/Stage1_1.xlsx,,B1,T2,c,"['c', 'm']","['Clue', 'Monopoly']","[-0.15, 0.5]","[0.15, 0.5]",1,1,,,,,,,,,0,0,0,0,0,3,3,1,,,,,,,,,,,,,,,,,,,,,,,,,,,,,,,,,,,,,,,,,,,,,,,,,,,,,,,367.58684209999956,None,367.58684209999956,None,367.58684209999956,None,c,1,0.7444370169996546,369.1540091099996,None,369.1540091099996,None,369.1540091099996,None,369.97095095700024,None,369.97095095700024,None,369.97095095700024,None,369.97095095700024,None,,,,,,,,,,,,,,,,,,,,,,,,,,,,,,,,,,,,,,,,,,,,001,36,2020_Jan_30_1154,spring_faces,3.1.5,60.1305767944869,
condition files/Stage1_1.xlsx,,B3,T3,c,"['c', 'm']","['Clue', 'Monopoly']","[-0.15, 0.5]","[0.15, 0.5]",1,1,,,,,,,,,0,0,0,0,0,4,4,4,,,,,,,,,,,,,,,,,,,,,,,,,,,,,,,,,,,,,,,,,,,,,,,,,,,,,,,371.9204605819996,None,371.9204605819996,None,371.9204605819996,None,m,0,0.6189838059999602,373.4874540889996,None,373.4874540889996,None,373.4874540889996,None,374.1703377869999,None,374.1703377869999,None,374.1703377869999,None,374.1703377869999,None,,,,,,,,,,,,,,,,,,,,,,,,,,,,,,,,,,,,,,,,,,,,001,36,2020_Jan_30_1154,spring_faces,3.1.5,60.1305767944869,
condition files/Stage1_1.xlsx,,T3,B4,c,"['c', 'm']","['Clue', 'Monopoly']","[-0.15, 0.5]","[0.15, 0.5]",1,1,,,,,,,,,0,0,0,0,0,5,5,5,,,,,,,,,,,,,,,,,,,,,,,,,,,,,,,,,,,,,,,,,,,,,,,,,,,,,,,376.13671397100006,None,376.13671397100006,None,376.13671397100006,None,c,1,3.3313591450005333,377.6870778659995,None,377.6870778659995,None,377.6870778659995,None,381.0710598269998,None,381.0710598269998,None,381.0710598269998,None,381.0710598269998,None,,,,,,,,,,,,,,,,,,,,,,,,,,,,,,,,,,,,,,,,,,,,001,36,2020_Jan_30_1154,spring_faces,3.1.5,60.1305767944869,
condition files/Stage1_1.xlsx,,T1,B1,c,"['c', 'm']","['Clue', 'Monopoly']","[-0.15, 0.5]","[0.15, 0.5]",1,1,,,,,,,,,0,0,0,0,0,6,6,0,,,,,,,,,,,,,,,,,,,,,,,,,,,,,,,,,,,,,,,,,,,,,,,,,,,,,,,383.036926757999,None,383.036926757999,None,383.036926757999,None,m,0,0.6381479720002972,384.5723673430002,None,384.5723673430002,None,384.5723673430002,None,385.2707745049993,None,385.2707745049993,None,385.2707745049993,None,385.2707745049993,None,,,,,,,,,,,,,,,,,,,,,,,,,,,,,,,,,,,,,,,,,,,,001,36,2020_Jan_30_1154,spring_faces,3.1.5,60.1305767944869,
condition files/Stage1_1.xlsx,,B2,T1,m,"['c', 'm']","['Clue', 'Monopoly']","[-0.15, 0.5]","[0.15, 0.5]",1,1,,,,,,,,,0,0,0,0,0,7,7,2,,,,,,,,,,,,,,,,,,,,,,,,,,,,,,,,,,,,,,,,,,,,,,,,,,,,,,,387.23737512799926,None,387.23737512799926,None,387.23737512799926,None,m,1,1.1435823270003311,388.77094220599975,None,388.77094220599975,None,388.77094220599975,None,389.9724534649995,None,389.9724534649995,None,389.9724534649995,None,389.9724534649995,None,,,,,,,,,,,,,,,,,,,,,,,,,,,,,,,,,,,,,,,,,,,,001,36,2020_Jan_30_1154,spring_faces,3.1.5,60.1305767944869,
condition files/Stage1_2.xlsx,,B4,T3,c,"['c', 'm']","['Clue', 'Monopoly']","[-0.15, 0.5]","[0.15, 0.5]",1,1,,,,,,,,,0,1,1,1,0,0,0,5,,,,,,,,,,,,,,,,,,,,,,,,,,,,,,,,,,,,,,,,,,,,,,,,,,,,,,,391.95385785299914,None,391.95385785299914,None,391.95385785299914,None,c,1,1.3701085159991635,393.5043505379999,None,393.5043505379999,None,393.5043505379999,None,394.9377181439995,None,394.9377181439995,None,394.9377181439995,None,394.9377181439995,None,,,,,,,,,,,,,,,,,,,,,,,,,,,,,,,,,,,,,,,,,,,,001,36,2020_Jan_30_1154,spring_faces,3.1.5,60.1305767944869,
condition files/Stage1_2.xlsx,,T1,B2,m,"['c', 'm']","['Clue', 'Monopoly']","[-0.15, 0.5]","[0.15, 0.5]",1,1,,,,,,,,,0,1,1,1,0,1,1,2,,,,,,,,,,,,,,,,,,,,,,,,,,,,,,,,,,,,,,,,,,,,,,,,,,,,,,,396.9034352969993,None,396.9034352969993,None,396.9034352969993,None,c,0,1.093343027998344,398.4371102209989,None,398.4371102209989,None,398.4371102209989,None,399.5901071569988,None,399.5901071569988,None,399.5901071569988,None,399.5901071569988,None,,,,,,,,,,,,,,,,,,,,,,,,,,,,,,,,,,,,,,,,,,,,001,36,2020_Jan_30_1154,spring_faces,3.1.5,60.1305767944869,
condition files/Stage1_2.xlsx,,T2,B1,c,"['c', 'm']","['Clue', 'Monopoly']","[-0.15, 0.5]","[0.15, 0.5]",1,1,,,,,,,,,0,1,1,1,0,2,2,1,,,,,,,,,,,,,,,,,,,,,,,,,,,,,,,,,,,,,,,,,,,,,,,,,,,,,,,401.5532859679988,None,401.5532859679988,None,401.5532859679988,None,m,0,1.4187869710003724,403.0876772749998,None,403.0876772749998,None,403.0876772749998,None,404.57249199299986,None,404.57249199299986,None,404.57249199299986,None,404.57249199299986,None,,,,,,,,,,,,,,,,,,,,,,,,,,,,,,,,,,,,,,,,,,,,001,36,2020_Jan_30_1154,spring_faces,3.1.5,60.1305767944869,
condition files/Stage1_2.xlsx,,B3,T4,m,"['c', 'm']","['Clue', 'Monopoly']","[-0.15, 0.5]","[0.15, 0.5]",1,1,,,,,,,,,0,1,1,1,0,3,3,6,,,,,,,,,,,,,,,,,,,,,,,,,,,,,,,,,,,,,,,,,,,,,,,,,,,,,,,406.53755070899933,None,406.53755070899933,None,406.53755070899933,None,c,0,1.4109714070000337,408.07144692600014,None,408.07144692600014,None,408.07144692600014,None,409.538771780999,None,409.538771780999,None,409.538771780999,None,409.538771780999,None,,,,,,,,,,,,,,,,,,,,,,,,,,,,,,,,,,,,,,,,,,,,001,36,2020_Jan_30_1154,spring_faces,3.1.5,60.1305767944869,
condition files/Stage1_2.xlsx,,B1,T1,c,"['c', 'm']","['Clue', 'Monopoly']","[-0.15, 0.5]","[0.15, 0.5]",1,1,,,,,,,,,0,1,1,1,0,4,4,0,,,,,,,,,,,,,,,,,,,,,,,,,,,,,,,,,,,,,,,,,,,,,,,,,,,,,,,411.5035781579991,None,411.5035781579991,None,411.5035781579991,None,m,0,1.804400959999839,413.0540408960005,None,413.0540408960005,None,413.0540408960005,None,414.9225020419999,None,414.9225020419999,None,414.9225020419999,None,414.9225020419999,None,,,,,,,,,,,,,,,,,,,,,,,,,,,,,,,,,,,,,,,,,,,,001,36,2020_Jan_30_1154,spring_faces,3.1.5,60.1305767944869,
condition files/Stage1_2.xlsx,,B2,T2,m,"['c', 'm']","['Clue', 'Monopoly']","[-0.15, 0.5]","[0.15, 0.5]",1,1,,,,,,,,,0,1,1,1,0,5,5,3,,,,,,,,,,,,,,,,,,,,,,,,,,,,,,,,,,,,,,,,,,,,,,,,,,,,,,,416.8869583069991,None,416.8869583069991,None,416.8869583069991,None,m,1,1.189651483000489,418.43679084500036,None,418.43679084500036,None,418.43679084500036,None,419.70418914499896,None,419.70418914499896,None,419.70418914499896,None,419.70418914499896,None,,,,,,,,,,,,,,,,,,,,,,,,,,,,,,,,,,,,,,,,,,,,001,36,2020_Jan_30_1154,spring_faces,3.1.5,60.1305767944869,
condition files/Stage1_2.xlsx,,T4,B4,m,"['c', 'm']","['Clue', 'Monopoly']","[-0.15, 0.5]","[0.15, 0.5]",1,1,,,,,,,,,0,1,1,1,0,6,6,7,,,,,,,,,,,,,,,,,,,,,,,,,,,,,,,,,,,,,,,,,,,,,,,,,,,,,,,421.653889059,None,421.653889059,None,421.653889059,None,m,1,1.2861103329996695,423.18835438899987,None,423.18835438899987,None,423.18835438899987,None,424.5378039110001,None,424.5378039110001,None,424.5378039110001,None,424.5378039110001,None,,,,,,,,,,,,,,,,,,,,,,,,,,,,,,,,,,,,,,,,,,,,001,36,2020_Jan_30_1154,spring_faces,3.1.5,60.1305767944869,
condition files/Stage1_2.xlsx,,T3,B3,c,"['c', 'm']","['Clue', 'Monopoly']","[-0.15, 0.5]","[0.15, 0.5]",1,1,,,,,,,,,0,1,1,1,0,7,7,4,,,,,,,,,,,,,,,,,,,,,,,,,,,,,,,,,,,,,,,,,,,,,,,,,,,,,,,426.5039178579991,None,426.5039178579991,None,426.5039178579991,None,m,0,0.9319824060003157,428.05445275700004,None,428.05445275700004,None,428.05445275700004,None,429.05424936000054,None,429.05424936000054,None,429.05424936000054,None,429.05424936000054,None,,,,,,,,,,,,,,,,,,,,,,,,,,,,,,,,,,,,,,,,,,,,001,36,2020_Jan_30_1154,spring_faces,3.1.5,60.1305767944869,
condition files/Stage1_1.xlsx,,B2,T1,m,"['c', 'm']","['Clue', 'Monopoly']","[-0.15, 0.5]","[0.15, 0.5]",1,1,,,,,,,,,0,2,2,2,0,0,0,2,,,,,,,,,,,,,,,,,,,,,,,,,,,,,,,,,,,,,,,,,,,,,,,,,,,,,,,431.02054687999953,None,431.02054687999953,None,431.02054687999953,None,m,1,1.3918731419998949,432.57064954499947,None,432.57064954499947,None,432.57064954499947,None,434.0229735920002,None,434.0229735920002,None,434.0229735920002,None,434.0229735920002,None,,,,,,,,,,,,,,,,,,,,,,,,,,,,,,,,,,,,,,,,,,,,001,36,2020_Jan_30_1154,spring_faces,3.1.5,60.1305767944869,
condition files/Stage1_1.xlsx,,T2,B2,m,"['c', 'm']","['Clue', 'Monopoly']","[-0.15, 0.5]","[0.15, 0.5]",1,1,,,,,,,,,0,2,2,2,0,1,1,3,,,,,,,,,,,,,,,,,,,,,,,,,,,,,,,,,,,,,,,,,,,,,,,,,,,,,,,435.9872188139998,None,435.9872188139998,None,435.9872188139998,None,c,0,1.224088341999959,437.5224514649999,None,437.5224514649999,None,437.5224514649999,None,438.8034991610002,None,438.8034991610002,None,438.8034991610002,None,438.8034991610002,None,,,,,,,,,,,,,,,,,,,,,,,,,,,,,,,,,,,,,,,,,,,,001,36,2020_Jan_30_1154,spring_faces,3.1.5,60.1305767944869,
condition files/Stage1_1.xlsx,,B1,T2,c,"['c', 'm']","['Clue', 'Monopoly']","[-0.15, 0.5]","[0.15, 0.5]",1,1,,,,,,,,,0,2,2,2,0,2,2,1,,,,,,,,,,,,,,,,,,,,,,,,,,,,,,,,,,,,,,,,,,,,,,,,,,,,,,,440.77067376099876,None,440.77067376099876,None,440.77067376099876,None,c,1,0.6164523540010123,442.3060139609988,None,442.3060139609988,None,442.3060139609988,None,443.00462729299943,None,443.00462729299943,None,443.00462729299943,None,443.00462729299943,None,,,,,,,,,,,,,,,,,,,,,,,,,,,,,,,,,,,,,,,,,,,,001,36,2020_Jan_30_1154,spring_faces,3.1.5,60.1305767944869,
condition files/Stage1_1.xlsx,,T3,B4,c,"['c', 'm']","['Clue', 'Monopoly']","[-0.15, 0.5]","[0.15, 0.5]",1,1,,,,,,,,,0,2,2,2,0,3,3,5,,,,,,,,,,,,,,,,,,,,,,,,,,,,,,,,,,,,,,,,,,,,,,,,,,,,,,,444.9538808879988,None,444.9538808879988,None,444.9538808879988,None,c,1,0.784884045000581,446.4895793100004,None,446.4895793100004,None,446.4895793100004,None,447.3376028170005,None,447.3376028170005,None,447.3376028170005,None,447.3376028170005,None,,,,,,,,,,,,,,,,,,,,,,,,,,,,,,,,,,,,,,,,,,,,001,36,2020_Jan_30_1154,spring_faces,3.1.5,60.1305767944869,
condition files/Stage1_1.xlsx,,T1,B1,c,"['c', 'm']","['Clue', 'Monopoly']","[-0.15, 0.5]","[0.15, 0.5]",1,1,,,,,,,,,0,2,2,2,0,4,4,0,,,,,,,,,,,,,,,,,,,,,,,,,,,,,,,,,,,,,,,,,,,,,,,,,,,,,,,449.3040399900001,None,449.3040399900001,None,449.3040399900001,None,c,1,0.7404505239992432,450.8380810509989,None,450.8380810509989,None,450.8380810509989,None,451.63762403299916,None,451.63762403299916,None,451.63762403299916,None,451.63762403299916,None,,,,,,,,,,,,,,,,,,,,,,,,,,,,,,,,,,,,,,,,,,,,001,36,2020_Jan_30_1154,spring_faces,3.1.5,60.1305767944869,
condition files/Stage1_1.xlsx,,T4,B3,m,"['c', 'm']","['Clue', 'Monopoly']","[-0.15, 0.5]","[0.15, 0.5]",1,1,,,,,,,,,0,2,2,2,0,5,5,6,,,,,,,,,,,,,,,,,,,,,,,,,,,,,,,,,,,,,,,,,,,,,,,,,,,,,,,453.6035379749992,None,453.6035379749992,None,453.6035379749992,None,m,1,0.8561576049996802,455.15430099399964,None,455.15430099399964,None,455.15430099399964,None,456.0718995009993,None,456.0718995009993,None,456.0718995009993,None,456.0718995009993,None,,,,,,,,,,,,,,,,,,,,,,,,,,,,,,,,,,,,,,,,,,,,001,36,2020_Jan_30_1154,spring_faces,3.1.5,60.1305767944869,
condition files/Stage1_1.xlsx,,B4,T4,m,"['c', 'm']","['Clue', 'Monopoly']","[-0.15, 0.5]","[0.15, 0.5]",1,1,,,,,,,,,0,2,2,2,0,6,6,7,,,,,,,,,,,,,,,,,,,,,,,,,,,,,,,,,,,,,,,,,,,,,,,,,,,,,,,458.0372092130001,None,458.0372092130001,None,458.0372092130001,None,m,1,0.7757488499992178,459.57078488499974,None,459.57078488499974,None,459.57078488499974,None,460.404296187,None,460.404296187,None,460.404296187,None,460.404296187,None,,,,,,,,,,,,,,,,,,,,,,,,,,,,,,,,,,,,,,,,,,,,001,36,2020_Jan_30_1154,spring_faces,3.1.5,60.1305767944869,
condition files/Stage1_1.xlsx,,B3,T3,c,"['c', 'm']","['Clue', 'Monopoly']","[-0.15, 0.5]","[0.15, 0.5]",1,1,,,,,,,,,0,2,2,2,0,7,7,4,,,,,,,,,,,,,,,,,,,,,,,,,,,,,,,,,,,,,,,,,,,,,,,,,,,,,,,462.3705066379989,None,462.3705066379989,None,462.3705066379989,None,c,1,1.096447932000956,463.9060175939994,None,463.9060175939994,None,463.9060175939994,None,465.07039820799946,None,465.07039820799946,None,465.07039820799946,None,465.07039820799946,None,,,,,,,,,,,,,,,,,,,,,,,,,,,,,,,,,,,,,,,,,,,,001,36,2020_Jan_30_1154,spring_faces,3.1.5,60.1305767944869,
condition files/Stage1_2.xlsx,,T4,B4,m,"['c', 'm']","['Clue', 'Monopoly']","[-0.15, 0.5]","[0.15, 0.5]",1,1,,,,,,,,,0,3,3,3,0,0,0,7,,,,,,,,,,,,,,,,,,,,,,,,,,,,,,,,,,,,,,,,,,,,,,,,,,,,,,,467.03769275299965,None,467.03769275299965,None,467.03769275299965,None,m,1,0.9444852840006206,468.57003742599954,None,468.57003742599954,None,468.57003742599954,None,469.5721920979995,None,469.5721920979995,None,469.5721920979995,None,469.5721920979995,None,,,,,,,,,,,,,,,,,,,,,,,,,,,,,,,,,,,,,,,,,,,,001,36,2020_Jan_30_1154,spring_faces,3.1.5,60.1305767944869,
condition files/Stage1_2.xlsx,,T3,B3,c,"['c', 'm']","['Clue', 'Monopoly']","[-0.15, 0.5]","[0.15, 0.5]",1,1,,,,,,,,,0,3,3,3,0,1,1,4,,,,,,,,,,,,,,,,,,,,,,,,,,,,,,,,,,,,,,,,,,,,,,,,,,,,,,,471.53730163,None,471.53730163,None,471.53730163,None,c,1,0.7308839889992669,473.08756213299966,None,473.08756213299966,None,473.08756213299966,None,473.8730368910001,None,473.8730368910001,None,473.8730368910001,None,473.8730368910001,None,,,,,,,,,,,,,,,,,,,,,,,,,,,,,,,,,,,,,,,,,,,,001,36,2020_Jan_30_1154,spring_faces,3.1.5,60.1305767944869,
condition files/Stage1_2.xlsx,,B3,T4,m,"['c', 'm']","['Clue', 'Monopoly']","[-0.15, 0.5]","[0.15, 0.5]",1,1,,,,,,,,,0,3,3,3,0,2,2,6,,,,,,,,,,,,,,,,,,,,,,,,,,,,,,,,,,,,,,,,,,,,,,,,,,,,,,,475.8375517980003,None,475.8375517980003,None,475.8375517980003,None,m,1,1.0233116510007676,477.3712250640001,None,477.3712250640001,None,477.3712250640001,None,478.45621574100005,None,478.45621574100005,None,478.45621574100005,None,478.45621574100005,None,,,,,,,,,,,,,,,,,,,,,,,,,,,,,,,,,,,,,,,,,,,,001,36,2020_Jan_30_1154,spring_faces,3.1.5,60.1305767944869,
condition files/Stage1_2.xlsx,,B2,T2,m,"['c', 'm']","['Clue', 'Monopoly']","[-0.15, 0.5]","[0.15, 0.5]",1,1,,,,,,,,,0,3,3,3,0,3,3,3,,,,,,,,,,,,,,,,,,,,,,,,,,,,,,,,,,,,,,,,,,,,,,,,,,,,,,,480.42000184399876,None,480.42000184399876,None,480.42000184399876,None,m,1,0.951122985999973,481.9553403239988,None,481.9553403239988,None,481.9553403239988,None,482.971094515,None,482.971094515,None,482.971094515,None,482.971094515,None,,,,,,,,,,,,,,,,,,,,,,,,,,,,,,,,,,,,,,,,,,,,001,36,2020_Jan_30_1154,spring_faces,3.1.5,60.1305767944869,
condition files/Stage1_2.xlsx,,T2,B1,c,"['c', 'm']","['Clue', 'Monopoly']","[-0.15, 0.5]","[0.15, 0.5]",1,1,,,,,,,,,0,3,3,3,0,4,4,1,,,,,,,,,,,,,,,,,,,,,,,,,,,,,,,,,,,,,,,,,,,,,,,,,,,,,,,484.9368177289998,None,484.9368177289998,None,484.9368177289998,None,c,1,0.4031495140006882,486.48730479500045,None,486.48730479500045,None,486.48730479500045,None,486.95492632700007,None,486.95492632700007,None,486.95492632700007,None,486.95492632700007,None,,,,,,,,,,,,,,,,,,,,,,,,,,,,,,,,,,,,,,,,,,,,001,36,2020_Jan_30_1154,spring_faces,3.1.5,60.1305767944869,
condition files/Stage1_2.xlsx,,B4,T3,c,"['c', 'm']","['Clue', 'Monopoly']","[-0.15, 0.5]","[0.15, 0.5]",1,1,,,,,,,,,0,3,3,3,0,5,5,5,,,,,,,,,,,,,,,,,,,,,,,,,,,,,,,,,,,,,,,,,,,,,,,,,,,,,,,488.9207055429997,None,488.9207055429997,None,488.9207055429997,None,c,1,0.8355406600003334,490.4709130709998,None,490.4709130709998,None,490.4709130709998,None,491.37108964099934,None,491.37108964099934,None,491.37108964099934,None,491.37108964099934,None,,,,,,,,,,,,,,,,,,,,,,,,,,,,,,,,,,,,,,,,,,,,001,36,2020_Jan_30_1154,spring_faces,3.1.5,60.1305767944869,
condition files/Stage1_2.xlsx,,B1,T1,c,"['c', 'm']","['Clue', 'Monopoly']","[-0.15, 0.5]","[0.15, 0.5]",1,1,,,,,,,,,0,3,3,3,0,6,6,0,,,,,,,,,,,,,,,,,,,,,,,,,,,,,,,,,,,,,,,,,,,,,,,,,,,,,,,493.33731761499985,None,493.33731761499985,None,493.33731761499985,None,c,1,0.5475133830004779,494.88694643300005,None,494.88694643300005,None,494.88694643300005,None,495.48750757000016,None,495.48750757000016,None,495.48750757000016,None,495.48750757000016,None,,,,,,,,,,,,,,,,,,,,,,,,,,,,,,,,,,,,,,,,,,,,001,36,2020_Jan_30_1154,spring_faces,3.1.5,60.1305767944869,
condition files/Stage1_2.xlsx,,T1,B2,m,"['c', 'm']","['Clue', 'Monopoly']","[-0.15, 0.5]","[0.15, 0.5]",1,1,,,,,,,,,0,3,3,3,0,7,7,2,,,,,,,,,,,,,,,,,,,,,,,,,,,,,,,,,,,,,,,,,,,,,,,,,,,,,,,497.4539712049991,None,497.4539712049991,None,497.4539712049991,None,m,1,1.2785363610000786,499.00392627600013,None,499.00392627600013,None,499.00392627600013,None,500.33800181900006,None,500.33800181900006,None,500.33800181900006,None,500.33800181900006,None,,,,,,,,,,,,,,,,,,,,,,,,,,,,,,,,,,,,,,,,,,,,001,36,2020_Jan_30_1154,spring_faces,3.1.5,60.1305767944869,
condition files/Stage1_1.xlsx,,T1,B1,c,"['c', 'm']","['Clue', 'Monopoly']","[-0.15, 0.5]","[0.15, 0.5]",1,1,,,,,,,,,0,4,4,4,0,0,0,0,,,,,,,,,,,,,,,,,,,,,,,,,,,,,,,,,,,,,,,,,,,,,,,,,,,,,,,502.3204907349991,None,502.3204907349991,None,502.3204907349991,None,c,1,0.7624344729993027,503.8560374619992,None,503.8560374619992,None,503.8560374619992,None,504.6875646890003,None,504.6875646890003,None,504.6875646890003,None,504.6875646890003,None,,,,,,,,,,,,,,,,,,,,,,,,,,,,,,,,,,,,,,,,,,,,001,36,2020_Jan_30_1154,spring_faces,3.1.5,60.1305767944869,
condition files/Stage1_1.xlsx,,B1,T2,c,"['c', 'm']","['Clue', 'Monopoly']","[-0.15, 0.5]","[0.15, 0.5]",1,1,,,,,,,,,0,4,4,4,0,1,1,1,,,,,,,,,,,,,,,,,,,,,,,,,,,,,,,,,,,,,,,,,,,,,,,,,,,,,,,506.6369236390001,None,506.6369236390001,None,506.6369236390001,None,c,1,0.9422000520007714,508.1723249129991,None,508.1723249129991,None,508.1723249129991,None,509.17092518000027,None,509.17092518000027,None,509.17092518000027,None,509.17092518000027,None,,,,,,,,,,,,,,,,,,,,,,,,,,,,,,,,,,,,,,,,,,,,001,36,2020_Jan_30_1154,spring_faces,3.1.5,60.1305767944869,
condition files/Stage1_1.xlsx,,T2,B2,m,"['c', 'm']","['Clue', 'Monopoly']","[-0.15, 0.5]","[0.15, 0.5]",1,1,,,,,,,,,0,4,4,4,0,2,2,3,,,,,,,,,,,,,,,,,,,,,,,,,,,,,,,,,,,,,,,,,,,,,,,,,,,,,,,511.1371935070001,None,511.1371935070001,None,511.1371935070001,None,m,1,0.7470430829998804,512.687373892999,None,512.687373892999,None,512.687373892999,None,513.5041959150003,None,513.5041959150003,None,513.5041959150003,None,513.5041959150003,None,,,,,,,,,,,,,,,,,,,,,,,,,,,,,,,,,,,,,,,,,,,,001,36,2020_Jan_30_1154,spring_faces,3.1.5,60.1305767944869,
condition files/Stage1_1.xlsx,,B2,T1,m,"['c', 'm']","['Clue', 'Monopoly']","[-0.15, 0.5]","[0.15, 0.5]",1,1,,,,,,,,,0,4,4,4,0,3,3,2,,,,,,,,,,,,,,,,,,,,,,,,,,,,,,,,,,,,,,,,,,,,,,,,,,,,,,,515.4538828219993,None,515.4538828219993,None,515.4538828219993,None,m,1,0.9094216110006528,516.9890296819995,None,516.9890296819995,None,516.9890296819995,None,517.9541625990005,None,517.9541625990005,None,517.9541625990005,None,517.9541625990005,None,,,,,,,,,,,,,,,,,,,,,,,,,,,,,,,,,,,,,,,,,,,,001,36,2020_Jan_30_1154,spring_faces,3.1.5,60.1305767944869,
condition files/Stage1_1.xlsx,,B4,T4,m,"['c', 'm']","['Clue', 'Monopoly']","[-0.15, 0.5]","[0.15, 0.5]",1,1,,,,,,,,,0,4,4,4,0,4,4,7,,,,,,,,,,,,,,,,,,,,,,,,,,,,,,,,,,,,,,,,,,,,,,,,,,,,,,,519.9199919919993,None,519.9199919919993,None,519.9199919919993,None,m,1,0.7811143050003011,521.4533366380001,None,521.4533366380001,None,521.4533366380001,None,522.2876773489988,None,522.2876773489988,None,522.2876773489988,None,522.2876773489988,None,,,,,,,,,,,,,,,,,,,,,,,,,,,,,,,,,,,,,,,,,,,,001,36,2020_Jan_30_1154,spring_faces,3.1.5,60.1305767944869,
condition files/Stage1_1.xlsx,,B3,T3,c,"['c', 'm']","['Clue', 'Monopoly']","[-0.15, 0.5]","[0.15, 0.5]",1,1,,,,,,,,,0,4,4,4,0,5,5,4,,,,,,,,,,,,,,,,,,,,,,,,,,,,,,,,,,,,,,,,,,,,,,,,,,,,,,,524.2535926820001,None,524.2535926820001,None,524.2535926820001,None,c,1,0.9905234749985539,525.8039424580002,None,525.8039424580002,None,525.8039424580002,None,526.8708461530005,None,526.8708461530005,None,526.8708461530005,None,526.8708461530005,None,,,,,,,,,,,,,,,,,,,,,,,,,,,,,,,,,,,,,,,,,,,,001,36,2020_Jan_30_1154,spring_faces,3.1.5,60.1305767944869,
condition files/Stage1_1.xlsx,,T4,B3,m,"['c', 'm']","['Clue', 'Monopoly']","[-0.15, 0.5]","[0.15, 0.5]",1,1,,,,,,,,,0,4,4,4,0,6,6,6,,,,,,,,,,,,,,,,,,,,,,,,,,,,,,,,,,,,,,,,,,,,,,,,,,,,,,,528.8206092189994,None,528.8206092189994,None,528.8206092189994,None,m,1,0.6171148419998644,530.353337868999,None,530.353337868999,None,530.353337868999,None,531.037607324999,None,531.037607324999,None,531.037607324999,None,531.037607324999,None,,,,,,,,,,,,,,,,,,,,,,,,,,,,,,,,,,,,,,,,,,,,001,36,2020_Jan_30_1154,spring_faces,3.1.5,60.1305767944869,
condition files/Stage1_1.xlsx,,T3,B4,c,"['c', 'm']","['Clue', 'Monopoly']","[-0.15, 0.5]","[0.15, 0.5]",1,1,,,,,,,,,0,4,4,4,0,7,7,5,,,,,,,,,,,,,,,,,,,,,,,,,,,,,,,,,,,,,,,,,,,,,,,,,,,,,,,532.987332142,None,532.987332142,None,532.987332142,None,c,1,0.68829575899872,534.522242351999,None,534.522242351999,None,534.522242351999,None,535.2704619010001,None,535.2704619010001,None,535.2704619010001,None,535.2704619010001,None,,,,,,,,,,,,,,,,,,,,,,,,,,,,,,,,,,,,,,,,,,,,001,36,2020_Jan_30_1154,spring_faces,3.1.5,60.1305767944869,
condition files/Stage1_2.xlsx,,T3,B3,c,"['c', 'm']","['Clue', 'Monopoly']","[-0.15, 0.5]","[0.15, 0.5]",1,1,,,,,,,,,0,5,5,5,0,0,0,4,,,,,,,,,,,,,,,,,,,,,,,,,,,,,,,,,,,,,,,,,,,,,,,,,,,,,,,537.254008156,None,537.254008156,None,537.254008156,None,c,1,0.7903426399989257,538.8041708159999,None,538.8041708159999,None,538.8041708159999,None,539.6538615019999,None,539.6538615019999,None,539.6538615019999,None,539.6538615019999,None,,,,,,,,,,,,,,,,,,,,,,,,,,,,,,,,,,,,,,,,,,,,001,36,2020_Jan_30_1154,spring_faces,3.1.5,60.1305767944869,
condition files/Stage1_2.xlsx,,T2,B1,c,"['c', 'm']","['Clue', 'Monopoly']","[-0.15, 0.5]","[0.15, 0.5]",1,1,,,,,,,,,0,5,5,5,0,1,1,1,,,,,,,,,,,,,,,,,,,,,,,,,,,,,,,,,,,,,,,,,,,,,,,,,,,,,,,541.6200087939997,None,541.6200087939997,None,541.6200087939997,None,c,1,1.0314678489994549,543.1549912440005,None,543.1549912440005,None,543.1549912440005,None,544.2374719710006,None,544.2374719710006,None,544.2374719710006,None,544.2374719710006,None,,,,,,,,,,,,,,,,,,,,,,,,,,,,,,,,,,,,,,,,,,,,001,36,2020_Jan_30_1154,spring_faces,3.1.5,60.1305767944869,
condition files/Stage1_2.xlsx,,B4,T3,c,"['c', 'm']","['Clue', 'Monopoly']","[-0.15, 0.5]","[0.15, 0.5]",1,1,,,,,,,,,0,5,5,5,0,2,2,5,,,,,,,,,,,,,,,,,,,,,,,,,,,,,,,,,,,,,,,,,,,,,,,,,,,,,,,546.2041161779998,None,546.2041161779998,None,546.2041161779998,None,c,1,1.1050589259994013,547.7534050459999,None,547.7534050459999,None,547.7534050459999,None,548.921104383,None,548.921104383,None,548.921104383,None,548.921104383,None,,,,,,,,,,,,,,,,,,,,,,,,,,,,,,,,,,,,,,,,,,,,001,36,2020_Jan_30_1154,spring_faces,3.1.5,60.1305767944869,
condition files/Stage1_2.xlsx,,B2,T2,m,"['c', 'm']","['Clue', 'Monopoly']","[-0.15, 0.5]","[0.15, 0.5]",1,1,,,,,,,,,0,5,5,5,0,3,3,3,,,,,,,,,,,,,,,,,,,,,,,,,,,,,,,,,,,,,,,,,,,,,,,,,,,,,,,550.886975428999,None,550.886975428999,None,550.886975428999,None,m,1,1.140800739000042,552.4377060019997,None,552.4377060019997,None,552.4377060019997,None,553.6541768899988,None,553.6541768899988,None,553.6541768899988,None,553.6541768899988,None,,,,,,,,,,,,,,,,,,,,,,,,,,,,,,,,,,,,,,,,,,,,001,36,2020_Jan_30_1154,spring_faces,3.1.5,60.1305767944869,
condition files/Stage1_2.xlsx,,B1,T1,c,"['c', 'm']","['Clue', 'Monopoly']","[-0.15, 0.5]","[0.15, 0.5]",1,1,,,,,,,,,0,5,5,5,0,4,4,0,,,,,,,,,,,,,,,,,,,,,,,,,,,,,,,,,,,,,,,,,,,,,,,,,,,,,,,555.6040184599988,None,555.6040184599988,None,555.6040184599988,None,c,1,0.7271894410005189,557.1392903779997,None,557.1392903779997,None,557.1392903779997,None,557.9226076489995,None,557.9226076489995,None,557.9226076489995,None,557.9226076489995,None,,,,,,,,,,,,,,,,,,,,,,,,,,,,,,,,,,,,,,,,,,,,001,36,2020_Jan_30_1154,spring_faces,3.1.5,60.1305767944869,
condition files/Stage1_2.xlsx,,B3,T4,m,"['c', 'm']","['Clue', 'Monopoly']","[-0.15, 0.5]","[0.15, 0.5]",1,1,,,,,,,,,0,5,5,5,0,5,5,6,,,,,,,,,,,,,,,,,,,,,,,,,,,,,,,,,,,,,,,,,,,,,,,,,,,,,,,559.8868859159993,None,559.8868859159993,None,559.8868859159993,None,m,1,1.3731716700003744,561.4213600419989,None,561.4213600419989,None,561.4213600419989,None,562.8537245759999,None,562.8537245759999,None,562.8537245759999,None,562.8537245759999,None,,,,,,,,,,,,,,,,,,,,,,,,,,,,,,,,,,,,,,,,,,,,001,36,2020_Jan_30_1154,spring_faces,3.1.5,60.1305767944869,
condition files/Stage1_2.xlsx,,T4,B4,m,"['c', 'm']","['Clue', 'Monopoly']","[-0.15, 0.5]","[0.15, 0.5]",1,1,,,,,,,,,0,5,5,5,0,6,6,7,,,,,,,,,,,,,,,,,,,,,,,,,,,,,,,,,,,,,,,,,,,,,,,,,,,,,,,564.8204837310004,None,564.8204837310004,None,564.8204837310004,None,m,1,1.0007742329999019,566.3536872639997,None,566.3536872639997,None,566.3536872639997,None,567.4038563049999,None,567.4038563049999,None,567.4038563049999,None,567.4038563049999,None,,,,,,,,,,,,,,,,,,,,,,,,,,,,,,,,,,,,,,,,,,,,001,36,2020_Jan_30_1154,spring_faces,3.1.5,60.1305767944869,
condition files/Stage1_2.xlsx,,T1,B2,m,"['c', 'm']","['Clue', 'Monopoly']","[-0.15, 0.5]","[0.15, 0.5]",1,1,,,,,,,,,0,5,5,5,0,7,7,2,,,,,,,,,,,,,,,,,,,,,,,,,,,,,,,,,,,,,,,,,,,,,,,,,,,,,,,569.3706086980001,None,569.3706086980001,None,569.3706086980001,None,m,1,0.9463974899990717,570.9200587489995,None,570.9200587489995,None,570.9200587489995,None,571.9208238430001,None,571.9208238430001,None,571.9208238430001,None,571.9208238430001,None,,,,,,,,,,,,,,,,,,,,,,,,,,,,,,,,,,,,,,,,,,,,001,36,2020_Jan_30_1154,spring_faces,3.1.5,60.1305767944869,
condition files/Stage1_1.xlsx,,T1,B1,c,"['c', 'm']","['Clue', 'Monopoly']","[-0.15, 0.5]","[0.15, 0.5]",1,1,,,,,,,,,0,6,6,6,0,0,0,0,,,,,,,,,,,,,,,,,,,,,,,,,,,,,,,,,,,,,,,,,,,,,,,,,,,,,,,573.9042735869989,None,573.9042735869989,None,573.9042735869989,None,c,1,0.3789483349992224,575.4395211319988,None,575.4395211319988,None,575.4395211319988,None,575.871597075,None,575.871597075,None,575.871597075,None,575.871597075,None,,,,,,,,,,,,,,,,,,,,,,,,,,,,,,,,,,,,,,,,,,,,001,36,2020_Jan_30_1154,spring_faces,3.1.5,60.1305767944869,
condition files/Stage1_1.xlsx,,B1,T2,c,"['c', 'm']","['Clue', 'Monopoly']","[-0.15, 0.5]","[0.15, 0.5]",1,1,,,,,,,,,0,6,6,6,0,1,1,1,,,,,,,,,,,,,,,,,,,,,,,,,,,,,,,,,,,,,,,,,,,,,,,,,,,,,,,577.8364556470005,None,577.8364556470005,None,577.8364556470005,None,c,1,0.9109180529994774,579.3875185769994,None,579.3875185769994,None,579.3875185769994,None,580.3539935529989,None,580.3539935529989,None,580.3539935529989,None,580.3539935529989,None,,,,,,,,,,,,,,,,,,,,,,,,,,,,,,,,,,,,,,,,,,,,001,36,2020_Jan_30_1154,spring_faces,3.1.5,60.1305767944869,
condition files/Stage1_1.xlsx,,B2,T1,m,"['c', 'm']","['Clue', 'Monopoly']","[-0.15, 0.5]","[0.15, 0.5]",1,1,,,,,,,,,0,6,6,6,0,2,2,2,,,,,,,,,,,,,,,,,,,,,,,,,,,,,,,,,,,,,,,,,,,,,,,,,,,,,,,582.3207542870005,None,582.3207542870005,None,582.3207542870005,None,m,1,0.858730234000177,583.855793965,None,583.855793965,None,583.855793965,None,584.7872670369998,None,584.7872670369998,None,584.7872670369998,None,584.7872670369998,None,,,,,,,,,,,,,,,,,,,,,,,,,,,,,,,,,,,,,,,,,,,,001,36,2020_Jan_30_1154,spring_faces,3.1.5,60.1305767944869,
condition files/Stage1_1.xlsx,,B4,T4,m,"['c', 'm']","['Clue', 'Monopoly']","[-0.15, 0.5]","[0.15, 0.5]",1,1,,,,,,,,,0,6,6,6,0,3,3,7,,,,,,,,,,,,,,,,,,,,,,,,,,,,,,,,,,,,,,,,,,,,,,,,,,,,,,,586.7374429520005,None,586.7374429520005,None,586.7374429520005,None,m,1,0.9390161640003498,588.2715200149996,None,588.2715200149996,None,588.2715200149996,None,589.2710054309991,None,589.2710054309991,None,589.2710054309991,None,589.2710054309991,None,,,,,,,,,,,,,,,,,,,,,,,,,,,,,,,,,,,,,,,,,,,,001,36,2020_Jan_30_1154,spring_faces,3.1.5,60.1305767944869,
condition files/Stage1_1.xlsx,,T3,B4,c,"['c', 'm']","['Clue', 'Monopoly']","[-0.15, 0.5]","[0.15, 0.5]",1,1,,,,,,,,,0,6,6,6,0,4,4,5,,,,,,,,,,,,,,,,,,,,,,,,,,,,,,,,,,,,,,,,,,,,,,,,,,,,,,,591.2374362699993,None,591.2374362699993,None,591.2374362699993,None,c,1,0.8549659740001516,592.7874883269997,None,592.7874883269997,None,592.7874883269997,None,593.7037561590005,None,593.7037561590005,None,593.7037561590005,None,593.7037561590005,None,,,,,,,,,,,,,,,,,,,,,,,,,,,,,,,,,,,,,,,,,,,,001,36,2020_Jan_30_1154,spring_faces,3.1.5,60.1305767944869,
condition files/Stage1_1.xlsx,,T2,B2,m,"['c', 'm']","['Clue', 'Monopoly']","[-0.15, 0.5]","[0.15, 0.5]",1,1,,,,,,,,,0,6,6,6,0,5,5,3,,,,,,,,,,,,,,,,,,,,,,,,,,,,,,,,,,,,,,,,,,,,,,,,,,,,,,,595.6707392869994,None,595.6707392869994,None,595.6707392869994,None,m,1,0.8688322479993076,597.2056406600004,None,597.2056406600004,None,597.2056406600004,None,598.140218954999,None,598.140218954999,None,598.140218954999,None,598.140218954999,None,,,,,,,,,,,,,,,,,,,,,,,,,,,,,,,,,,,,,,,,,,,,001,36,2020_Jan_30_1154,spring_faces,3.1.5,60.1305767944869,
condition files/Stage1_1.xlsx,,T4,B3,m,"['c', 'm']","['Clue', 'Monopoly']","[-0.15, 0.5]","[0.15, 0.5]",1,1,,,,,,,,,0,6,6,6,0,6,6,6,,,,,,,,,,,,,,,,,,,,,,,,,,,,,,,,,,,,,,,,,,,,,,,,,,,,,,,600.1038898490006,None,600.1038898490006,None,600.1038898490006,None,m,1,0.9006534979998833,601.6537549559998,None,601.6537549559998,None,601.6537549559998,None,602.6208278270005,None,602.6208278270005,None,602.6208278270005,None,602.6208278270005,None,,,,,,,,,,,,,,,,,,,,,,,,,,,,,,,,,,,,,,,,,,,,001,36,2020_Jan_30_1154,spring_faces,3.1.5,60.1305767944869,
condition files/Stage1_1.xlsx,,B3,T3,c,"['c', 'm']","['Clue', 'Monopoly']","[-0.15, 0.5]","[0.15, 0.5]",1,1,,,,,,,,,0,6,6,6,0,7,7,4,,,,,,,,,,,,,,,,,,,,,,,,,,,,,,,,,,,,,,,,,,,,,,,,,,,,,,,604.5872871259999,None,604.5872871259999,None,604.5872871259999,None,c,1,1.0570223659997282,606.1374932170002,None,606.1374932170002,None,606.1374932170002,None,607.2707471909998,None,607.2707471909998,None,607.2707471909998,None,607.2707471909998,None,,,,,,,,,,,,,,,,,,,,,,,,,,,,,,,,,,,,,,,,,,,,001,36,2020_Jan_30_1154,spring_faces,3.1.5,60.1305767944869,
condition files/Stage1_2.xlsx,,T4,B4,m,"['c', 'm']","['Clue', 'Monopoly']","[-0.15, 0.5]","[0.15, 0.5]",1,1,,,,,,,,,0,7,7,7,0,0,0,7,,,,,,,,,,,,,,,,,,,,,,,,,,,,,,,,,,,,,,,,,,,,,,,,,,,,,,,609.2371574640001,None,609.2371574640001,None,609.2371574640001,None,m,1,1.9912349450005422,610.771308464,None,610.771308464,None,610.771308464,None,612.821477251,None,612.821477251,None,612.821477251,None,612.821477251,None,,,,,,,,,,,,,,,,,,,,,,,,,,,,,,,,,,,,,,,,,,,,001,36,2020_Jan_30_1154,spring_faces,3.1.5,60.1305767944869,
condition files/Stage1_2.xlsx,,B2,T2,m,"['c', 'm']","['Clue', 'Monopoly']","[-0.15, 0.5]","[0.15, 0.5]",1,1,,,,,,,,,0,7,7,7,0,1,1,3,,,,,,,,,,,,,,,,,,,,,,,,,,,,,,,,,,,,,,,,,,,,,,,,,,,,,,,614.7873344669988,None,614.7873344669988,None,614.7873344669988,None,m,1,0.8415848779986845,616.3369351969995,None,616.3369351969995,None,616.3369351969995,None,617.2370571079991,None,617.2370571079991,None,617.2370571079991,None,617.2370571079991,None,,,,,,,,,,,,,,,,,,,,,,,,,,,,,,,,,,,,,,,,,,,,001,36,2020_Jan_30_1154,spring_faces,3.1.5,60.1305767944869,
condition files/Stage1_2.xlsx,,B3,T4,m,"['c', 'm']","['Clue', 'Monopoly']","[-0.15, 0.5]","[0.15, 0.5]",1,1,,,,,,,,,0,7,7,7,0,2,2,6,,,,,,,,,,,,,,,,,,,,,,,,,,,,,,,,,,,,,,,,,,,,,,,,,,,,,,,619.2032868610004,None,619.2032868610004,None,619.2032868610004,None,m,1,1.112811574999796,620.7376615569992,None,620.7376615569992,None,620.7376615569992,None,621.904473442999,None,621.904473442999,None,621.904473442999,None,621.904473442999,None,,,,,,,,,,,,,,,,,,,,,,,,,,,,,,,,,,,,,,,,,,,,001,36,2020_Jan_30_1154,spring_faces,3.1.5,60.1305767944869,
condition files/Stage1_2.xlsx,,T2,B1,c,"['c', 'm']","['Clue', 'Monopoly']","[-0.15, 0.5]","[0.15, 0.5]",1,1,,,,,,,,,0,7,7,7,0,3,3,1,,,,,,,,,,,,,,,,,,,,,,,,,,,,,,,,,,,,,,,,,,,,,,,,,,,,,,,623.8708286700003,None,623.8708286700003,None,623.8708286700003,None,c,1,1.0213944879997143,625.4210686719998,None,625.4210686719998,None,625.4210686719998,None,626.5065808689997,None,626.5065808689997,None,626.5065808689997,None,626.5065808689997,None,,,,,,,,,,,,,,,,,,,,,,,,,,,,,,,,,,,,,,,,,,,,001,36,2020_Jan_30_1154,spring_faces,3.1.5,60.1305767944869,
condition files/Stage1_2.xlsx,,T3,B3,c,"['c', 'm']","['Clue', 'Monopoly']","[-0.15, 0.5]","[0.15, 0.5]",1,1,,,,,,,,,0,7,7,7,0,4,4,4,,,,,,,,,,,,,,,,,,,,,,,,,,,,,,,,,,,,,,,,,,,,,,,,,,,,,,,628.470033833999,None,628.470033833999,None,628.470033833999,None,c,1,0.8373603050004021,630.0051034190001,None,630.0051034190001,None,630.0051034190001,None,630.9038530889993,None,630.9038530889993,None,630.9038530889993,None,630.9038530889993,None,,,,,,,,,,,,,,,,,,,,,,,,,,,,,,,,,,,,,,,,,,,,001,36,2020_Jan_30_1154,spring_faces,3.1.5,60.1305767944869,
condition files/Stage1_2.xlsx,,B4,T3,c,"['c', 'm']","['Clue', 'Monopoly']","[-0.15, 0.5]","[0.15, 0.5]",1,1,,,,,,,,,0,7,7,7,0,5,5,5,,,,,,,,,,,,,,,,,,,,,,,,,,,,,,,,,,,,,,,,,,,,,,,,,,,,,,,632.8705930510005,None,632.8705930510005,None,632.8705930510005,None,c,1,0.8862636630001361,634.4201849229994,None,634.4201849229994,None,634.4201849229994,None,635.3710214459988,None,635.3710214459988,None,635.3710214459988,None,635.3710214459988,None,,,,,,,,,,,,,,,,,,,,,,,,,,,,,,,,,,,,,,,,,,,,001,36,2020_Jan_30_1154,spring_faces,3.1.5,60.1305767944869,
condition files/Stage1_2.xlsx,,B1,T1,c,"['c', 'm']","['Clue', 'Monopoly']","[-0.15, 0.5]","[0.15, 0.5]",1,1,,,,,,,,,0,7,7,7,0,6,6,0,,,,,,,,,,,,,,,,,,,,,,,,,,,,,,,,,,,,,,,,,,,,,,,,,,,,,,,637.3375721510001,None,637.3375721510001,None,637.3375721510001,None,c,1,0.7554329039994627,638.8869865180004,None,638.8869865180004,None,638.8869865180004,None,639.7037669700003,None,639.7037669700003,None,639.7037669700003,None,639.7037669700003,None,,,,,,,,,,,,,,,,,,,,,,,,,,,,,,,,,,,,,,,,,,,,001,36,2020_Jan_30_1154,spring_faces,3.1.5,60.1305767944869,
condition files/Stage1_2.xlsx,,T1,B2,m,"['c', 'm']","['Clue', 'Monopoly']","[-0.15, 0.5]","[0.15, 0.5]",1,1,,,,,,,,,0,7,7,7,0,7,7,2,,,,,,,,,,,,,,,,,,,,,,,,,,,,,,,,,,,,,,,,,,,,,,,,,,,,,,,641.670645061,None,641.670645061,None,641.670645061,None,m,1,1.0928595149998728,643.2055781649997,None,643.2055781649997,None,643.2055781649997,None,644.3708932749996,None,644.3708932749996,None,644.3708932749996,None,644.3708932749996,None,,,,,,,,,,,,,,,,,,,,,,,,,,,,,,,,,,,,,,,,,,,,001,36,2020_Jan_30_1154,spring_faces,3.1.5,60.1305767944869,
condition files/Stage1_1.xlsx,,B2,T1,m,"['c', 'm']","['Clue', 'Monopoly']","[-0.15, 0.5]","[0.15, 0.5]",1,1,,,,,,,,,0,8,8,8,0,0,0,2,,,,,,,,,,,,,,,,,,,,,,,,,,,,,,,,,,,,,,,,,,,,,,,,,,,,,,,646.3376578570005,None,646.3376578570005,None,646.3376578570005,None,m,1,0.7956796190010209,647.886759863999,None,647.886759863999,None,647.886759863999,None,648.7371390930002,None,648.7371390930002,None,648.7371390930002,None,648.7371390930002,None,,,,,,,,,,,,,,,,,,,,,,,,,,,,,,,,,,,,,,,,,,,,001,36,2020_Jan_30_1154,spring_faces,3.1.5,60.1305767944869,
condition files/Stage1_1.xlsx,,B4,T4,m,"['c', 'm']","['Clue', 'Monopoly']","[-0.15, 0.5]","[0.15, 0.5]",1,1,,,,,,,,,0,8,8,8,0,1,1,7,,,,,,,,,,,,,,,,,,,,,,,,,,,,,,,,,,,,,,,,,,,,,,,,,,,,,,,650.703833132,None,650.703833132,None,650.703833132,None,m,1,0.7488711369987868,652.2375949059988,None,652.2375949059988,None,652.2375949059988,None,653.0377501900002,None,653.0377501900002,None,653.0377501900002,None,653.0377501900002,None,,,,,,,,,,,,,,,,,,,,,,,,,,,,,,,,,,,,,,,,,,,,001,36,2020_Jan_30_1154,spring_faces,3.1.5,60.1305767944869,
condition files/Stage1_1.xlsx,,B1,T2,c,"['c', 'm']","['Clue', 'Monopoly']","[-0.15, 0.5]","[0.15, 0.5]",1,1,,,,,,,,,0,8,8,8,0,2,2,1,,,,,,,,,,,,,,,,,,,,,,,,,,,,,,,,,,,,,,,,,,,,,,,,,,,,,,,655.0039471580003,None,655.0039471580003,None,655.0039471580003,None,c,1,0.6573624779994134,656.5371769630001,None,656.5371769630001,None,656.5371769630001,None,657.256320257,None,657.256320257,None,657.256320257,None,657.256320257,None,,,,,,,,,,,,,,,,,,,,,,,,,,,,,,,,,,,,,,,,,,,,001,36,2020_Jan_30_1154,spring_faces,3.1.5,60.1305767944869,
condition files/Stage1_1.xlsx,,B3,T3,c,"['c', 'm']","['Clue', 'Monopoly']","[-0.15, 0.5]","[0.15, 0.5]",1,1,,,,,,,,,0,8,8,8,0,3,3,4,,,,,,,,,,,,,,,,,,,,,,,,,,,,,,,,,,,,,,,,,,,,,,,,,,,,,,,659.220406344999,None,659.220406344999,None,659.220406344999,None,m,0,1.1746925190000184,660.7557660389994,None,660.7557660389994,None,660.7557660389994,None,661.9885298440004,None,661.9885298440004,None,661.9885298440004,None,661.9885298440004,None,,,,,,,,,,,,,,,,,,,,,,,,,,,,,,,,,,,,,,,,,,,,001,36,2020_Jan_30_1154,spring_faces,3.1.5,60.1305767944869,
condition files/Stage1_1.xlsx,,T4,B3,m,"['c', 'm']","['Clue', 'Monopoly']","[-0.15, 0.5]","[0.15, 0.5]",1,1,,,,,,,,,0,8,8,8,0,4,4,6,,,,,,,,,,,,,,,,,,,,,,,,,,,,,,,,,,,,,,,,,,,,,,,,,,,,,,,663.9535465879999,None,663.9535465879999,None,663.9535465879999,None,m,1,0.8266904200008867,665.487845624999,None,665.487845624999,None,665.487845624999,None,666.3705495189988,None,666.3705495189988,None,666.3705495189988,None,666.3705495189988,None,,,,,,,,,,,,,,,,,,,,,,,,,,,,,,,,,,,,,,,,,,,,001,36,2020_Jan_30_1154,spring_faces,3.1.5,60.1305767944869,
condition files/Stage1_1.xlsx,,T2,B2,m,"['c', 'm']","['Clue', 'Monopoly']","[-0.15, 0.5]","[0.15, 0.5]",1,1,,,,,,,,,0,8,8,8,0,5,5,3,,,,,,,,,,,,,,,,,,,,,,,,,,,,,,,,,,,,,,,,,,,,,,,,,,,,,,,668.3372221909995,None,668.3372221909995,None,668.3372221909995,None,m,1,0.5876597529986611,669.8708121319996,None,669.8708121319996,None,669.8708121319996,None,670.5208989059993,None,670.5208989059993,None,670.5208989059993,None,670.5208989059993,None,,,,,,,,,,,,,,,,,,,,,,,,,,,,,,,,,,,,,,,,,,,,001,36,2020_Jan_30_1154,spring_faces,3.1.5,60.1305767944869,
condition files/Stage1_1.xlsx,,T3,B4,c,"['c', 'm']","['Clue', 'Monopoly']","[-0.15, 0.5]","[0.15, 0.5]",1,1,,,,,,,,,0,8,8,8,0,6,6,5,,,,,,,,,,,,,,,,,,,,,,,,,,,,,,,,,,,,,,,,,,,,,,,,,,,,,,,672.4866958330003,None,672.4866958330003,None,672.4866958330003,None,c,1,0.8540047940005024,674.0204694659988,None,674.0204694659988,None,674.0204694659988,None,674.9538239390004,None,674.9538239390004,None,674.9538239390004,None,674.9538239390004,None,,,,,,,,,,,,,,,,,,,,,,,,,,,,,,,,,,,,,,,,,,,,001,36,2020_Jan_30_1154,spring_faces,3.1.5,60.1305767944869,
condition files/Stage1_1.xlsx,,T1,B1,c,"['c', 'm']","['Clue', 'Monopoly']","[-0.15, 0.5]","[0.15, 0.5]",1,1,,,,,,,,,0,8,8,8,0,7,7,0,,,,,,,,,,,,,,,,,,,,,,,,,,,,,,,,,,,,,,,,,,,,,,,,,,,,,,,676.904015664999,None,676.904015664999,None,676.904015664999,None,c,1,0.8682725789985852,678.4541794630004,None,678.4541794630004,None,678.4541794630004,None,679.3868449889997,None,679.3868449889997,None,679.3868449889997,None,679.3868449889997,None,,,,,,,,,,,,,,,,,,,,,,,,,,,,,,,,,,,,,,,,,,,,001,36,2020_Jan_30_1154,spring_faces,3.1.5,60.1305767944869,
condition files/Stage1_2.xlsx,,B1,T1,c,"['c', 'm']","['Clue', 'Monopoly']","[-0.15, 0.5]","[0.15, 0.5]",1,1,,,,,,,,,0,9,9,9,0,0,0,0,,,,,,,,,,,,,,,,,,,,,,,,,,,,,,,,,,,,,,,,,,,,,,,,,,,,,,,681.3708305830005,None,681.3708305830005,None,681.3708305830005,None,c,1,0.8496255410009326,682.9208345959996,None,682.9208345959996,None,682.9208345959996,None,683.8208461960003,None,683.8208461960003,None,683.8208461960003,None,683.8208461960003,None,,,,,,,,,,,,,,,,,,,,,,,,,,,,,,,,,,,,,,,,,,,,001,36,2020_Jan_30_1154,spring_faces,3.1.5,60.1305767944869,
condition files/Stage1_2.xlsx,,T4,B4,m,"['c', 'm']","['Clue', 'Monopoly']","[-0.15, 0.5]","[0.15, 0.5]",1,1,,,,,,,,,0,9,9,9,0,1,1,7,,,,,,,,,,,,,,,,,,,,,,,,,,,,,,,,,,,,,,,,,,,,,,,,,,,,,,,685.7865775819992,None,685.7865775819992,None,685.7865775819992,None,m,1,0.8957094509987655,687.3227497280004,None,687.3227497280004,None,687.3227497280004,None,688.2703692619998,None,688.2703692619998,None,688.2703692619998,None,688.2703692619998,None,,,,,,,,,,,,,,,,,,,,,,,,,,,,,,,,,,,,,,,,,,,,001,36,2020_Jan_30_1154,spring_faces,3.1.5,60.1305767944869,
condition files/Stage1_2.xlsx,,T2,B1,c,"['c', 'm']","['Clue', 'Monopoly']","[-0.15, 0.5]","[0.15, 0.5]",1,1,,,,,,,,,0,9,9,9,0,2,2,1,,,,,,,,,,,,,,,,,,,,,,,,,,,,,,,,,,,,,,,,,,,,,,,,,,,,,,,690.2373633530005,None,690.2373633530005,None,690.2373633530005,None,c,1,0.6536806939984672,691.7727930500005,None,691.7727930500005,None,691.7727930500005,None,692.4888758699999,None,692.4888758699999,None,692.4888758699999,None,692.4888758699999,None,,,,,,,,,,,,,,,,,,,,,,,,,,,,,,,,,,,,,,,,,,,,001,36,2020_Jan_30_1154,spring_faces,3.1.5,60.1305767944869,
condition files/Stage1_2.xlsx,,T1,B2,m,"['c', 'm']","['Clue', 'Monopoly']","[-0.15, 0.5]","[0.15, 0.5]",1,1,,,,,,,,,0,9,9,9,0,3,3,2,,,,,,,,,,,,,,,,,,,,,,,,,,,,,,,,,,,,,,,,,,,,,,,,,,,,,,,694.4532291479991,None,694.4532291479991,None,694.4532291479991,None,m,1,1.0299370160009857,695.9885291339997,None,695.9885291339997,None,695.9885291339997,None,697.0730673609996,None,697.0730673609996,None,697.0730673609996,None,697.0730673609996,None,,,,,,,,,,,,,,,,,,,,,,,,,,,,,,,,,,,,,,,,,,,,001,36,2020_Jan_30_1154,spring_faces,3.1.5,60.1305767944869,
condition files/Stage1_2.xlsx,,T3,B3,c,"['c', 'm']","['Clue', 'Monopoly']","[-0.15, 0.5]","[0.15, 0.5]",1,1,,,,,,,,,0,9,9,9,0,4,4,4,,,,,,,,,,,,,,,,,,,,,,,,,,,,,,,,,,,,,,,,,,,,,,,,,,,,,,,699.0373114929989,None,699.0373114929989,None,699.0373114929989,None,c,1,1.8548473730006663,700.5876159559994,None,700.5876159559994,None,700.5876159559994,None,702.5204025559997,None,702.5204025559997,None,702.5204025559997,None,702.5204025559997,None,,,,,,,,,,,,,,,,,,,,,,,,,,,,,,,,,,,,,,,,,,,,001,36,2020_Jan_30_1154,spring_faces,3.1.5,60.1305767944869,
condition files/Stage1_2.xlsx,,B4,T3,c,"['c', 'm']","['Clue', 'Monopoly']","[-0.15, 0.5]","[0.15, 0.5]",1,1,,,,,,,,,0,9,9,9,0,5,5,5,,,,,,,,,,,,,,,,,,,,,,,,,,,,,,,,,,,,,,,,,,,,,,,,,,,,,,,704.4706027539996,None,704.4706027539996,None,704.4706027539996,None,m,0,0.6127588089984783,706.0056972530001,None,706.0056972530001,None,706.0056972530001,None,706.6707338849992,None,706.6707338849992,None,706.6707338849992,None,706.6707338849992,None,,,,,,,,,,,,,,,,,,,,,,,,,,,,,,,,,,,,,,,,,,,,001,36,2020_Jan_30_1154,spring_faces,3.1.5,60.1305767944869,
condition files/Stage1_2.xlsx,,B2,T2,m,"['c', 'm']","['Clue', 'Monopoly']","[-0.15, 0.5]","[0.15, 0.5]",1,1,,,,,,,,,0,9,9,9,0,6,6,3,,,,,,,,,,,,,,,,,,,,,,,,,,,,,,,,,,,,,,,,,,,,,,,,,,,,,,,708.6366902739992,None,708.6366902739992,None,708.6366902739992,None,m,1,0.8132336059989029,710.173222772999,None,710.173222772999,None,710.173222772999,None,711.0542007219992,None,711.0542007219992,None,711.0542007219992,None,711.0542007219992,None,,,,,,,,,,,,,,,,,,,,,,,,,,,,,,,,,,,,,,,,,,,,001,36,2020_Jan_30_1154,spring_faces,3.1.5,60.1305767944869,
condition files/Stage1_2.xlsx,,B3,T4,m,"['c', 'm']","['Clue', 'Monopoly']","[-0.15, 0.5]","[0.15, 0.5]",1,1,,,,,,,,,0,9,9,9,0,7,7,6,,,,,,,,,,,,,,,,,,,,,,,,,,,,,,,,,,,,,,,,,,,,,,,,,,,,,,,713.0033648019999,None,713.0033648019999,None,713.0033648019999,None,m,1,0.704042108000067,714.5384272840001,None,714.5384272840001,None,714.5384272840001,None,715.3041517749989,None,715.3041517749989,None,715.3041517749989,None,715.3041517749989,None,,,,,,,,,,,,,,,,,,,,,,,,,,,,,,,,,,,,,,,,,,,,001,36,2020_Jan_30_1154,spring_faces,3.1.5,60.1305767944869,
condition files/Stage1_1.xlsx,,T1,B1,c,"['c', 'm']","['Clue', 'Monopoly']","[-0.15, 0.5]","[0.15, 0.5]",1,1,,,,,,,,,0,10,10,10,0,0,0,0,,,,,,,,,,,,,,,,,,,,,,,,,,,,,,,,,,,,,,,,,,,,,,,,,,,,,,,717.2868495559997,None,717.2868495559997,None,717.2868495559997,None,c,1,0.8698027329992328,718.8206788850002,None,718.8206788850002,None,718.8206788850002,None,719.7556913709996,None,719.7556913709996,None,719.7556913709996,None,719.7556913709996,None,,,,,,,,,,,,,,,,,,,,,,,,,,,,,,,,,,,,,,,,,,,,001,36,2020_Jan_30_1154,spring_faces,3.1.5,60.1305767944869,
condition files/Stage1_1.xlsx,,B2,T1,m,"['c', 'm']","['Clue', 'Monopoly']","[-0.15, 0.5]","[0.15, 0.5]",1,1,,,,,,,,,0,10,10,10,0,1,1,2,,,,,,,,,,,,,,,,,,,,,,,,,,,,,,,,,,,,,,,,,,,,,,,,,,,,,,,721.7208363350001,None,721.7208363350001,None,721.7208363350001,None,m,1,1.0115536979992612,723.2708665890004,None,723.2708665890004,None,723.2708665890004,None,724.337594143999,None,724.337594143999,None,724.337594143999,None,724.337594143999,None,,,,,,,,,,,,,,,,,,,,,,,,,,,,,,,,,,,,,,,,,,,,001,36,2020_Jan_30_1154,spring_faces,3.1.5,60.1305767944869,
condition files/Stage1_1.xlsx,,B1,T2,c,"['c', 'm']","['Clue', 'Monopoly']","[-0.15, 0.5]","[0.15, 0.5]",1,1,,,,,,,,,0,10,10,10,0,2,2,1,,,,,,,,,,,,,,,,,,,,,,,,,,,,,,,,,,,,,,,,,,,,,,,,,,,,,,,726.3040933150005,None,726.3040933150005,None,726.3040933150005,None,c,1,0.76453690299968,727.8379224969995,None,727.8379224969995,None,727.8379224969995,None,728.6553788990004,None,728.6553788990004,None,728.6553788990004,None,728.6553788990004,None,,,,,,,,,,,,,,,,,,,,,,,,,,,,,,,,,,,,,,,,,,,,001,36,2020_Jan_30_1154,spring_faces,3.1.5,60.1305767944869,
condition files/Stage1_1.xlsx,,T2,B2,m,"['c', 'm']","['Clue', 'Monopoly']","[-0.15, 0.5]","[0.15, 0.5]",1,1,,,,,,,,,0,10,10,10,0,3,3,3,,,,,,,,,,,,,,,,,,,,,,,,,,,,,,,,,,,,,,,,,,,,,,,,,,,,,,,730.6207002760002,None,730.6207002760002,None,730.6207002760002,None,m,1,0.7988724669994554,732.1555361709998,None,732.1555361709998,None,732.1555361709998,None,733.0228206459997,None,733.0228206459997,None,733.0228206459997,None,733.0228206459997,None,,,,,,,,,,,,,,,,,,,,,,,,,,,,,,,,,,,,,,,,,,,,001,36,2020_Jan_30_1154,spring_faces,3.1.5,60.1305767944869,
condition files/Stage1_1.xlsx,,B3,T3,c,"['c', 'm']","['Clue', 'Monopoly']","[-0.15, 0.5]","[0.15, 0.5]",1,1,,,,,,,,,0,10,10,10,0,4,4,4,,,,,,,,,,,,,,,,,,,,,,,,,,,,,,,,,,,,,,,,,,,,,,,,,,,,,,,734.9873310539988,None,734.9873310539988,None,734.9873310539988,None,c,1,0.8809790790000989,736.537489495,None,736.537489495,None,736.537489495,None,737.4877681849994,None,737.4877681849994,None,737.4877681849994,None,737.4877681849994,None,,,,,,,,,,,,,,,,,,,,,,,,,,,,,,,,,,,,,,,,,,,,001,36,2020_Jan_30_1154,spring_faces,3.1.5,60.1305767944869,
condition files/Stage1_1.xlsx,,T3,B4,c,"['c', 'm']","['Clue', 'Monopoly']","[-0.15, 0.5]","[0.15, 0.5]",1,1,,,,,,,,,0,10,10,10,0,5,5,5,,,,,,,,,,,,,,,,,,,,,,,,,,,,,,,,,,,,,,,,,,,,,,,,,,,,,,,739.4371639519995,None,739.4371639519995,None,739.4371639519995,None,c,1,1.1670863529998314,740.9873323800002,None,740.9873323800002,None,740.9873323800002,None,742.2209577699996,None,742.2209577699996,None,742.2209577699996,None,742.2209577699996,None,,,,,,,,,,,,,,,,,,,,,,,,,,,,,,,,,,,,,,,,,,,,001,36,2020_Jan_30_1154,spring_faces,3.1.5,60.1305767944869,
condition files/Stage1_1.xlsx,,T4,B3,m,"['c', 'm']","['Clue', 'Monopoly']","[-0.15, 0.5]","[0.15, 0.5]",1,1,,,,,,,,,0,10,10,10,0,6,6,6,,,,,,,,,,,,,,,,,,,,,,,,,,,,,,,,,,,,,,,,,,,,,,,,,,,,,,,744.1869672609992,None,744.1869672609992,None,744.1869672609992,None,m,1,0.5118723790001241,745.7225738830002,None,745.7225738830002,None,745.7225738830002,None,746.2881058599996,None,746.2881058599996,None,746.2881058599996,None,746.2881058599996,None,,,,,,,,,,,,,,,,,,,,,,,,,,,,,,,,,,,,,,,,,,,,001,36,2020_Jan_30_1154,spring_faces,3.1.5,60.1305767944869,
condition files/Stage1_1.xlsx,,B4,T4,m,"['c', 'm']","['Clue', 'Monopoly']","[-0.15, 0.5]","[0.15, 0.5]",1,1,,,,,,,,,0,10,10,10,0,7,7,7,,,,,,,,,,,,,,,,,,,,,,,,,,,,,,,,,,,,,,,,,,,,,,,,,,,,,,,748.253579356,None,748.253579356,None,748.253579356,None,m,1,0.6228860020000866,749.7876567509993,None,749.7876567509993,None,749.7876567509993,None,750.4707060729997,None,750.4707060729997,None,750.4707060729997,None,750.4707060729997,None,,,,,,,,,,,,,,,,,,,,,,,,,,,,,,,,,,,,,,,,,,,,001,36,2020_Jan_30_1154,spring_faces,3.1.5,60.1305767944869,
condition files/Stage1_2.xlsx,,T2,B1,c,"['c', 'm']","['Clue', 'Monopoly']","[-0.15, 0.5]","[0.15, 0.5]",1,1,,,,,,,,,0,11,11,11,0,0,0,1,,,,,,,,,,,,,,,,,,,,,,,,,,,,,,,,,,,,,,,,,,,,,,,,,,,,,,,752.4542139679997,None,752.4542139679997,None,752.4542139679997,None,c,1,0.6770572169989464,753.989420983,None,753.989420983,None,753.989420983,None,754.7374808299992,None,754.7374808299992,None,754.7374808299992,None,754.7374808299992,None,,,,,,,,,,,,,,,,,,,,,,,,,,,,,,,,,,,,,,,,,,,,001,36,2020_Jan_30_1154,spring_faces,3.1.5,60.1305767944869,
condition files/Stage1_2.xlsx,,B4,T3,c,"['c', 'm']","['Clue', 'Monopoly']","[-0.15, 0.5]","[0.15, 0.5]",1,1,,,,,,,,,0,11,11,11,0,1,1,5,,,,,,,,,,,,,,,,,,,,,,,,,,,,,,,,,,,,,,,,,,,,,,,,,,,,,,,756.6873713160003,None,756.6873713160003,None,756.6873713160003,None,c,1,0.9239639200004603,758.2225739299993,None,758.2225739299993,None,758.2225739299993,None,759.2037920559997,None,759.2037920559997,None,759.2037920559997,None,759.2037920559997,None,,,,,,,,,,,,,,,,,,,,,,,,,,,,,,,,,,,,,,,,,,,,001,36,2020_Jan_30_1154,spring_faces,3.1.5,60.1305767944869,
condition files/Stage1_2.xlsx,,B1,T1,c,"['c', 'm']","['Clue', 'Monopoly']","[-0.15, 0.5]","[0.15, 0.5]",1,1,,,,,,,,,0,11,11,11,0,2,2,0,,,,,,,,,,,,,,,,,,,,,,,,,,,,,,,,,,,,,,,,,,,,,,,,,,,,,,,761.1702074080004,None,761.1702074080004,None,761.1702074080004,None,c,1,0.6976432100000238,762.7208008879988,None,762.7208008879988,None,762.7208008879988,None,763.4707344999988,None,763.4707344999988,None,763.4707344999988,None,763.4707344999988,None,,,,,,,,,,,,,,,,,,,,,,,,,,,,,,,,,,,,,,,,,,,,001,36,2020_Jan_30_1154,spring_faces,3.1.5,60.1305767944869,
condition files/Stage1_2.xlsx,,B3,T4,m,"['c', 'm']","['Clue', 'Monopoly']","[-0.15, 0.5]","[0.15, 0.5]",1,1,,,,,,,,,0,11,11,11,0,3,3,6,,,,,,,,,,,,,,,,,,,,,,,,,,,,,,,,,,,,,,,,,,,,,,,,,,,,,,,765.4372831599994,None,765.4372831599994,None,765.4372831599994,None,m,1,0.7655540149989974,766.9728639770001,None,766.9728639770001,None,766.9728639770001,None,767.8059133669994,None,767.8059133669994,None,767.8059133669994,None,767.8059133669994,None,,,,,,,,,,,,,,,,,,,,,,,,,,,,,,,,,,,,,,,,,,,,001,36,2020_Jan_30_1154,spring_faces,3.1.5,60.1305767944869,
condition files/Stage1_2.xlsx,,B2,T2,m,"['c', 'm']","['Clue', 'Monopoly']","[-0.15, 0.5]","[0.15, 0.5]",1,1,,,,,,,,,0,11,11,11,0,4,4,3,,,,,,,,,,,,,,,,,,,,,,,,,,,,,,,,,,,,,,,,,,,,,,,,,,,,,,,769.7702225060002,None,769.7702225060002,None,769.7702225060002,None,m,1,0.6735861310007749,771.3209300529998,None,771.3209300529998,None,771.3209300529998,None,772.0542381129999,None,772.0542381129999,None,772.0542381129999,None,772.0542381129999,None,,,,,,,,,,,,,,,,,,,,,,,,,,,,,,,,,,,,,,,,,,,,001,36,2020_Jan_30_1154,spring_faces,3.1.5,60.1305767944869,
condition files/Stage1_2.xlsx,,T3,B3,c,"['c', 'm']","['Clue', 'Monopoly']","[-0.15, 0.5]","[0.15, 0.5]",1,1,,,,,,,,,0,11,11,11,0,5,5,4,,,,,,,,,,,,,,,,,,,,,,,,,,,,,,,,,,,,,,,,,,,,,,,,,,,,,,,774.0205814749988,None,774.0205814749988,None,774.0205814749988,None,c,1,1.1585543999990477,775.555982242,None,775.555982242,None,775.555982242,None,776.7722524519995,None,776.7722524519995,None,776.7722524519995,None,776.7722524519995,None,,,,,,,,,,,,,,,,,,,,,,,,,,,,,,,,,,,,,,,,,,,,001,36,2020_Jan_30_1154,spring_faces,3.1.5,60.1305767944869,
condition files/Stage1_2.xlsx,,T1,B2,m,"['c', 'm']","['Clue', 'Monopoly']","[-0.15, 0.5]","[0.15, 0.5]",1,1,,,,,,,,,0,11,11,11,0,6,6,2,,,,,,,,,,,,,,,,,,,,,,,,,,,,,,,,,,,,,,,,,,,,,,,,,,,,,,,778.7373807200001,None,778.7373807200001,None,778.7373807200001,None,m,1,0.8419996869997703,780.2725258419996,None,780.2725258419996,None,780.2725258419996,None,781.1720931740001,None,781.1720931740001,None,781.1720931740001,None,781.1720931740001,None,,,,,,,,,,,,,,,,,,,,,,,,,,,,,,,,,,,,,,,,,,,,001,36,2020_Jan_30_1154,spring_faces,3.1.5,60.1305767944869,
condition files/Stage1_2.xlsx,,T4,B4,m,"['c', 'm']","['Clue', 'Monopoly']","[-0.15, 0.5]","[0.15, 0.5]",1,1,,,,,,,,,0,11,11,11,0,7,7,7,,,,,,,,,,,,,,,,,,,,,,,,,,,,,,,,,,,,,,,,,,,,,,,,,,,,,,,783.137138266,None,783.137138266,None,783.137138266,None,m,1,0.9543249190010101,784.6721800649993,None,784.6721800649993,None,784.6721800649993,None,785.6875143300003,None,785.6875143300003,None,785.6875143300003,None,785.6875143300003,None,,,,,,,,,,,,,,,,,,,,,,,,,,,,,,,,,,,,,,,,,,,,001,36,2020_Jan_30_1154,spring_faces,3.1.5,60.1305767944869,
,,,,,,,,,,,,,,,,,,,,,,,,,,,,,,,,,,,,,,,,,,,,,,,,,,,,,,,,,,,,,,,,,,,,,,,,,,,,,,,,,,,,,,,,,,,,,,,,,,,,,,,,,,,,,,,,787.6710146160003,None,space,5.787763107000501,792.6707143839994,None,,,,,,,,,,,,,,,,,,,,,,,,,,,,,,001,36,2020_Jan_30_1154,spring_faces,3.1.5,60.1305767944869,
condition files/Stage2_1.xlsx,,B4,T4,r,"['s', 'r']","['Stratego', 'Risk']","[-0.15, 0.5]","[0.15, 0.5]",1,1,,,,,,,,,,,,,,,,,0,0,0,0,0,0,0,5,,,,,,,,,,,,,,,,,,,,,,,,,,,,,,,,,,,,,,,,,,,,,,,798.520732736999,None,798.520732736999,None,798.520732736999,None,s,0,0.9013971380009025,800.0370266760001,None,800.0370266760001,None,800.0370266760001,None,801.0060045239989,None,801.0060045239989,None,801.0060045239989,None,801.0060045239989,None,,,,,,,,,,,,,,,792.6707143839994,None,,,,,,,,,,,,,,,,,,,,,,,,,,,,001,36,2020_Jan_30_1154,spring_faces,3.1.5,60.1305767944869,
condition files/Stage2_1.xlsx,,T5,B5,s,"['s', 'r']","['Stratego', 'Risk']","[-0.15, 0.5]","[0.15, 0.5]",1,1,,,,,,,,,,,,,,,,,0,0,0,0,0,1,1,0,,,,,,,,,,,,,,,,,,,,,,,,,,,,,,,,,,,,,,,,,,,,,,,802.9705636609997,None,802.9705636609997,None,802.9705636609997,None,s,1,0.7055326070003503,804.5050097999992,None,804.5050097999992,None,804.5050097999992,None,805.2724673449993,None,805.2724673449993,None,805.2724673449993,None,805.2724673449993,None,,,,,,,,,,,,,,,,,,,,,,,,,,,,,,,,,,,,,,,,,,,,001,36,2020_Jan_30_1154,spring_faces,3.1.5,60.1305767944869,
condition files/Stage2_1.xlsx,,T1,B1,s,"['s', 'r']","['Stratego', 'Risk']","[-0.15, 0.5]","[0.15, 0.5]",1,1,,,,,,,,,,,,,,,,,0,0,0,0,0,2,2,2,,,,,,,,,,,,,,,,,,,,,,,,,,,,,,,,,,,,,,,,,,,,,,,807.2369713509997,None,807.2369713509997,None,807.2369713509997,None,r,0,0.6948704610003915,808.7875540650002,None,808.7875540650002,None,808.7875540650002,None,809.5374668519999,None,809.5374668519999,None,809.5374668519999,None,809.5374668519999,None,,,,,,,,,,,,,,,,,,,,,,,,,,,,,,,,,,,,,,,,,,,,001,36,2020_Jan_30_1154,spring_faces,3.1.5,60.1305767944869,
condition files/Stage2_1.xlsx,,T3,B3,s,"['s', 'r']","['Stratego', 'Risk']","[-0.15, 0.5]","[0.15, 0.5]",1,1,,,,,,,,,,,,,,,,,0,0,0,0,0,3,3,4,,,,,,,,,,,,,,,,,,,,,,,,,,,,,,,,,,,,,,,,,,,,,,,811.5038821830003,None,811.5038821830003,None,811.5038821830003,None,s,1,1.4522861950008519,813.0541749900003,None,813.0541749900003,None,813.0541749900003,None,814.5702471989989,None,814.5702471989989,None,814.5702471989989,None,814.5702471989989,None,,,,,,,,,,,,,,,,,,,,,,,,,,,,,,,,,,,,,,,,,,,,001,36,2020_Jan_30_1154,spring_faces,3.1.5,60.1305767944869,
condition files/Stage2_1.xlsx,,B2,T2,r,"['s', 'r']","['Stratego', 'Risk']","[-0.15, 0.5]","[0.15, 0.5]",1,1,,,,,,,,,,,,,,,,,0,0,0,0,0,4,4,3,,,,,,,,,,,,,,,,,,,,,,,,,,,,,,,,,,,,,,,,,,,,,,,816.537384583,None,816.537384583,None,816.537384583,None,r,1,0.9151341979995777,818.0873150089992,None,818.0873150089992,None,818.0873150089992,None,819.0568826649996,None,819.0568826649996,None,819.0568826649996,None,819.0568826649996,None,,,,,,,,,,,,,,,,,,,,,,,,,,,,,,,,,,,,,,,,,,,,001,36,2020_Jan_30_1154,spring_faces,3.1.5,60.1305767944869,
condition files/Stage2_1.xlsx,,B6,T6,r,"['s', 'r']","['Stratego', 'Risk']","[-0.15, 0.5]","[0.15, 0.5]",1,1,,,,,,,,,,,,,,,,,0,0,0,0,0,5,5,1,,,,,,,,,,,,,,,,,,,,,,,,,,,,,,,,,,,,,,,,,,,,,,,821.0209340009987,None,821.0209340009987,None,821.0209340009987,None,s,0,0.7524077969992504,822.5540601939992,None,822.5540601939992,None,822.5540601939992,None,823.3701438600001,None,823.3701438600001,None,823.3701438600001,None,823.3701438600001,None,,,,,,,,,,,,,,,,,,,,,,,,,,,,,,,,,,,,,,,,,,,,001,36,2020_Jan_30_1154,spring_faces,3.1.5,60.1305767944869,
condition files/Stage2_2.xlsx,,B5,T5,s,"['s', 'r']","['Stratego', 'Risk']","[-0.15, 0.5]","[0.15, 0.5]",1,1,,,,,,,,,,,,,,,,,0,1,1,1,0,0,0,0,,,,,,,,,,,,,,,,,,,,,,,,,,,,,,,,,,,,,,,,,,,,,,,825.3536306289989,None,825.3536306289989,None,825.3536306289989,None,s,1,0.7862964500000089,826.9041747779993,None,826.9041747779993,None,826.9041747779993,None,827.7536613489992,None,827.7536613489992,None,827.7536613489992,None,827.7536613489992,None,,,,,,,,,,,,,,,,,,,,,,,,,,,,,,,,,,,,,,,,,,,,001,36,2020_Jan_30_1154,spring_faces,3.1.5,60.1305767944869,
condition files/Stage2_2.xlsx,,T6,B6,r,"['s', 'r']","['Stratego', 'Risk']","[-0.15, 0.5]","[0.15, 0.5]",1,1,,,,,,,,,,,,,,,,,0,1,1,1,0,1,1,1,,,,,,,,,,,,,,,,,,,,,,,,,,,,,,,,,,,,,,,,,,,,,,,829.7205703889995,None,829.7205703889995,None,829.7205703889995,None,r,1,1.074929427000825,831.2555334850003,None,831.2555334850003,None,831.2555334850003,None,832.3885801420001,None,832.3885801420001,None,832.3885801420001,None,832.3885801420001,None,,,,,,,,,,,,,,,,,,,,,,,,,,,,,,,,,,,,,,,,,,,,001,36,2020_Jan_30_1154,spring_faces,3.1.5,60.1305767944869,
condition files/Stage2_2.xlsx,,T2,B2,r,"['s', 'r']","['Stratego', 'Risk']","[-0.15, 0.5]","[0.15, 0.5]",1,1,,,,,,,,,,,,,,,,,0,1,1,1,0,2,2,3,,,,,,,,,,,,,,,,,,,,,,,,,,,,,,,,,,,,,,,,,,,,,,,834.3532507010004,None,834.3532507010004,None,834.3532507010004,None,r,1,0.7147176020007464,835.8877488050002,None,835.8877488050002,None,835.8877488050002,None,836.6536902299995,None,836.6536902299995,None,836.6536902299995,None,836.6536902299995,None,,,,,,,,,,,,,,,,,,,,,,,,,,,,,,,,,,,,,,,,,,,,001,36,2020_Jan_30_1154,spring_faces,3.1.5,60.1305767944869,
condition files/Stage2_2.xlsx,,T4,B4,r,"['s', 'r']","['Stratego', 'Risk']","[-0.15, 0.5]","[0.15, 0.5]",1,1,,,,,,,,,,,,,,,,,0,1,1,1,0,3,3,5,,,,,,,,,,,,,,,,,,,,,,,,,,,,,,,,,,,,,,,,,,,,,,,838.6207156090004,None,838.6207156090004,None,838.6207156090004,None,r,1,0.9915861659992515,840.1549573659995,None,840.1549573659995,None,840.1549573659995,None,841.2035491949991,None,841.2035491949991,None,841.2035491949991,None,841.2035491949991,None,,,,,,,,,,,,,,,,,,,,,,,,,,,,,,,,,,,,,,,,,,,,001,36,2020_Jan_30_1154,spring_faces,3.1.5,60.1305767944869,
condition files/Stage2_2.xlsx,,B3,T3,s,"['s', 'r']","['Stratego', 'Risk']","[-0.15, 0.5]","[0.15, 0.5]",1,1,,,,,,,,,,,,,,,,,0,1,1,1,0,4,4,4,,,,,,,,,,,,,,,,,,,,,,,,,,,,,,,,,,,,,,,,,,,,,,,843.170601623,None,843.170601623,None,843.170601623,None,s,1,0.6336506679999729,844.720756454999,None,844.720756454999,None,844.720756454999,None,845.4214311739997,None,845.4214311739997,None,845.4214311739997,None,845.4214311739997,None,,,,,,,,,,,,,,,,,,,,,,,,,,,,,,,,,,,,,,,,,,,,001,36,2020_Jan_30_1154,spring_faces,3.1.5,60.1305767944869,
condition files/Stage2_2.xlsx,,B1,T1,s,"['s', 'r']","['Stratego', 'Risk']","[-0.15, 0.5]","[0.15, 0.5]",1,1,,,,,,,,,,,,,,,,,0,1,1,1,0,5,5,2,,,,,,,,,,,,,,,,,,,,,,,,,,,,,,,,,,,,,,,,,,,,,,,847.386936375,None,847.386936375,None,847.386936375,None,s,1,0.8017998230006924,848.9206509739997,None,848.9206509739997,None,848.9206509739997,None,849.7873363319995,None,849.7873363319995,None,849.7873363319995,None,849.7873363319995,None,,,,,,,,,,,,,,,,,,,,,,,,,,,,,,,,,,,,,,,,,,,,001,36,2020_Jan_30_1154,spring_faces,3.1.5,60.1305767944869,
condition files/Stage2_1.xlsx,,B6,T6,r,"['s', 'r']","['Stratego', 'Risk']","[-0.15, 0.5]","[0.15, 0.5]",1,1,,,,,,,,,,,,,,,,,0,2,2,2,0,0,0,1,,,,,,,,,,,,,,,,,,,,,,,,,,,,,,,,,,,,,,,,,,,,,,,851.770540345,None,851.770540345,None,851.770540345,None,s,0,0.7047294719995989,853.3057992089998,None,853.3057992089998,None,853.3057992089998,None,854.0721824619995,None,854.0721824619995,None,854.0721824619995,None,854.0721824619995,None,,,,,,,,,,,,,,,,,,,,,,,,,,,,,,,,,,,,,,,,,,,,001,36,2020_Jan_30_1154,spring_faces,3.1.5,60.1305767944869,
condition files/Stage2_1.xlsx,,T3,B3,s,"['s', 'r']","['Stratego', 'Risk']","[-0.15, 0.5]","[0.15, 0.5]",1,1,,,,,,,,,,,,,,,,,0,2,2,2,0,1,1,4,,,,,,,,,,,,,,,,,,,,,,,,,,,,,,,,,,,,,,,,,,,,,,,856.0375477559992,None,856.0375477559992,None,856.0375477559992,None,s,1,0.6299963309993473,857.5724708519992,None,857.5724708519992,None,857.5724708519992,None,858.2559607759995,None,858.2559607759995,None,858.2559607759995,None,858.2559607759995,None,,,,,,,,,,,,,,,,,,,,,,,,,,,,,,,,,,,,,,,,,,,,001,36,2020_Jan_30_1154,spring_faces,3.1.5,60.1305767944869,
condition files/Stage2_1.xlsx,,T5,B5,s,"['s', 'r']","['Stratego', 'Risk']","[-0.15, 0.5]","[0.15, 0.5]",1,1,,,,,,,,,,,,,,,,,0,2,2,2,0,2,2,0,,,,,,,,,,,,,,,,,,,,,,,,,,,,,,,,,,,,,,,,,,,,,,,860.2201303309994,None,860.2201303309994,None,860.2201303309994,None,r,0,1.071279603000221,861.7711948140004,None,861.7711948140004,None,861.7711948140004,None,862.9037048609989,None,862.9037048609989,None,862.9037048609989,None,862.9037048609989,None,,,,,,,,,,,,,,,,,,,,,,,,,,,,,,,,,,,,,,,,,,,,001,36,2020_Jan_30_1154,spring_faces,3.1.5,60.1305767944869,
condition files/Stage2_1.xlsx,,B4,T4,r,"['s', 'r']","['Stratego', 'Risk']","[-0.15, 0.5]","[0.15, 0.5]",1,1,,,,,,,,,,,,,,,,,0,2,2,2,0,3,3,5,,,,,,,,,,,,,,,,,,,,,,,,,,,,,,,,,,,,,,,,,,,,,,,864.8705534910005,None,864.8705534910005,None,864.8705534910005,None,r,1,0.6617350939995958,866.4047478329994,None,866.4047478329994,None,866.4047478329994,None,867.1226098480001,None,867.1226098480001,None,867.1226098480001,None,867.1226098480001,None,,,,,,,,,,,,,,,,,,,,,,,,,,,,,,,,,,,,,,,,,,,,001,36,2020_Jan_30_1154,spring_faces,3.1.5,60.1305767944869,
condition files/Stage2_1.xlsx,,T1,B1,s,"['s', 'r']","['Stratego', 'Risk']","[-0.15, 0.5]","[0.15, 0.5]",1,1,,,,,,,,,,,,,,,,,0,2,2,2,0,4,4,2,,,,,,,,,,,,,,,,,,,,,,,,,,,,,,,,,,,,,,,,,,,,,,,869.0869500440003,None,869.0869500440003,None,869.0869500440003,None,s,1,0.8441696609988867,870.6222597279993,None,870.6222597279993,None,870.6222597279993,None,871.5219737659991,None,871.5219737659991,None,871.5219737659991,None,871.5219737659991,None,,,,,,,,,,,,,,,,,,,,,,,,,,,,,,,,,,,,,,,,,,,,001,36,2020_Jan_30_1154,spring_faces,3.1.5,60.1305767944869,
condition files/Stage2_1.xlsx,,B2,T2,r,"['s', 'r']","['Stratego', 'Risk']","[-0.15, 0.5]","[0.15, 0.5]",1,1,,,,,,,,,,,,,,,,,0,2,2,2,0,5,5,3,,,,,,,,,,,,,,,,,,,,,,,,,,,,,,,,,,,,,,,,,,,,,,,873.4873633400002,None,873.4873633400002,None,873.4873633400002,None,r,1,0.5077184479996504,875.0227397580002,None,875.0227397580002,None,875.0227397580002,None,875.6042002939994,None,875.6042002939994,None,875.6042002939994,None,875.6042002939994,None,,,,,,,,,,,,,,,,,,,,,,,,,,,,,,,,,,,,,,,,,,,,001,36,2020_Jan_30_1154,spring_faces,3.1.5,60.1305767944869,
condition files/Stage2_2.xlsx,,B1,T1,s,"['s', 'r']","['Stratego', 'Risk']","[-0.15, 0.5]","[0.15, 0.5]",1,1,,,,,,,,,,,,,,,,,0,3,3,3,0,0,0,2,,,,,,,,,,,,,,,,,,,,,,,,,,,,,,,,,,,,,,,,,,,,,,,877.5710272779997,None,877.5710272779997,None,877.5710272779997,None,s,1,0.6977136810000957,879.1207476740001,None,879.1207476740001,None,879.1207476740001,None,879.8874623769989,None,879.8874623769989,None,879.8874623769989,None,879.8874623769989,None,,,,,,,,,,,,,,,,,,,,,,,,,,,,,,,,,,,,,,,,,,,,001,36,2020_Jan_30_1154,spring_faces,3.1.5,60.1305767944869,
condition files/Stage2_2.xlsx,,B3,T3,s,"['s', 'r']","['Stratego', 'Risk']","[-0.15, 0.5]","[0.15, 0.5]",1,1,,,,,,,,,,,,,,,,,0,3,3,3,0,1,1,4,,,,,,,,,,,,,,,,,,,,,,,,,,,,,,,,,,,,,,,,,,,,,,,881.8371945969993,None,881.8371945969993,None,881.8371945969993,None,s,1,1.2789339659993857,883.3875199689992,None,883.3875199689992,None,883.3875199689992,None,884.7209425749988,None,884.7209425749988,None,884.7209425749988,None,884.7209425749988,None,,,,,,,,,,,,,,,,,,,,,,,,,,,,,,,,,,,,,,,,,,,,001,36,2020_Jan_30_1154,spring_faces,3.1.5,60.1305767944869,
condition files/Stage2_2.xlsx,,B5,T5,s,"['s', 'r']","['Stratego', 'Risk']","[-0.15, 0.5]","[0.15, 0.5]",1,1,,,,,,,,,,,,,,,,,0,3,3,3,0,2,2,0,,,,,,,,,,,,,,,,,,,,,,,,,,,,,,,,,,,,,,,,,,,,,,,886.6871690449989,None,886.6871690449989,None,886.6871690449989,None,s,1,1.3247583259999374,888.2217949709993,None,888.2217949709993,None,888.2217949709993,None,889.603929515999,None,889.603929515999,None,889.603929515999,None,889.603929515999,None,,,,,,,,,,,,,,,,,,,,,,,,,,,,,,,,,,,,,,,,,,,,001,36,2020_Jan_30_1154,spring_faces,3.1.5,60.1305767944869,
condition files/Stage2_2.xlsx,,T2,B2,r,"['s', 'r']","['Stratego', 'Risk']","[-0.15, 0.5]","[0.15, 0.5]",1,1,,,,,,,,,,,,,,,,,0,3,3,3,0,3,3,3,,,,,,,,,,,,,,,,,,,,,,,,,,,,,,,,,,,,,,,,,,,,,,,891.5706450509988,None,891.5706450509988,None,891.5706450509988,None,r,1,0.8898297289997572,893.1206969779996,None,893.1206969779996,None,893.1206969779996,None,894.0870975750004,None,894.0870975750004,None,894.0870975750004,None,894.0870975750004,None,,,,,,,,,,,,,,,,,,,,,,,,,,,,,,,,,,,,,,,,,,,,001,36,2020_Jan_30_1154,spring_faces,3.1.5,60.1305767944869,
condition files/Stage2_2.xlsx,,T4,B4,r,"['s', 'r']","['Stratego', 'Risk']","[-0.15, 0.5]","[0.15, 0.5]",1,1,,,,,,,,,,,,,,,,,0,3,3,3,0,4,4,5,,,,,,,,,,,,,,,,,,,,,,,,,,,,,,,,,,,,,,,,,,,,,,,896.037227806999,None,896.037227806999,None,896.037227806999,None,r,1,0.5678314540000429,897.570614454,None,897.570614454,None,897.570614454,None,898.2040036039998,None,898.2040036039998,None,898.2040036039998,None,898.2040036039998,None,,,,,,,,,,,,,,,,,,,,,,,,,,,,,,,,,,,,,,,,,,,,001,36,2020_Jan_30_1154,spring_faces,3.1.5,60.1305767944869,
condition files/Stage2_2.xlsx,,T6,B6,r,"['s', 'r']","['Stratego', 'Risk']","[-0.15, 0.5]","[0.15, 0.5]",1,1,,,,,,,,,,,,,,,,,0,3,3,3,0,5,5,1,,,,,,,,,,,,,,,,,,,,,,,,,,,,,,,,,,,,,,,,,,,,,,,900.1702743869992,None,900.1702743869992,None,900.1702743869992,None,r,1,0.9134996480006521,901.7209537199997,None,901.7209537199997,None,901.7209537199997,None,902.6876846449995,None,902.6876846449995,None,902.6876846449995,None,902.6876846449995,None,,,,,,,,,,,,,,,,,,,,,,,,,,,,,,,,,,,,,,,,,,,,001,36,2020_Jan_30_1154,spring_faces,3.1.5,60.1305767944869,
condition files/Stage2_1.xlsx,,T5,B5,s,"['s', 'r']","['Stratego', 'Risk']","[-0.15, 0.5]","[0.15, 0.5]",1,1,,,,,,,,,,,,,,,,,0,4,4,4,0,0,0,0,,,,,,,,,,,,,,,,,,,,,,,,,,,,,,,,,,,,,,,,,,,,,,,904.6702895929993,None,904.6702895929993,None,904.6702895929993,None,r,0,0.5583489860000554,906.2041857099994,None,906.2041857099994,None,906.2041857099994,None,906.8207733119998,None,906.8207733119998,None,906.8207733119998,None,906.8207733119998,None,,,,,,,,,,,,,,,,,,,,,,,,,,,,,,,,,,,,,,,,,,,,001,36,2020_Jan_30_1154,spring_faces,3.1.5,60.1305767944869,
condition files/Stage2_1.xlsx,,T1,B1,s,"['s', 'r']","['Stratego', 'Risk']","[-0.15, 0.5]","[0.15, 0.5]",1,1,,,,,,,,,,,,,,,,,0,4,4,4,0,1,1,2,,,,,,,,,,,,,,,,,,,,,,,,,,,,,,,,,,,,,,,,,,,,,,,908.7872221130001,None,908.7872221130001,None,908.7872221130001,None,s,1,1.0328437799998937,910.3215869269989,None,910.3215869269989,None,910.3215869269989,None,911.4209404680005,None,911.4209404680005,None,911.4209404680005,None,911.4209404680005,None,,,,,,,,,,,,,,,,,,,,,,,,,,,,,,,,,,,,,,,,,,,,001,36,2020_Jan_30_1154,spring_faces,3.1.5,60.1305767944869,
condition files/Stage2_1.xlsx,,B4,T4,r,"['s', 'r']","['Stratego', 'Risk']","[-0.15, 0.5]","[0.15, 0.5]",1,1,,,,,,,,,,,,,,,,,0,4,4,4,0,2,2,5,,,,,,,,,,,,,,,,,,,,,,,,,,,,,,,,,,,,,,,,,,,,,,,913.3872376500003,None,913.3872376500003,None,913.3872376500003,None,r,1,0.6893642920003913,914.9211815199997,None,914.9211815199997,None,914.9211815199997,None,915.6718374920001,None,915.6718374920001,None,915.6718374920001,None,915.6718374920001,None,,,,,,,,,,,,,,,,,,,,,,,,,,,,,,,,,,,,,,,,,,,,001,36,2020_Jan_30_1154,spring_faces,3.1.5,60.1305767944869,
condition files/Stage2_1.xlsx,,T3,B3,s,"['s', 'r']","['Stratego', 'Risk']","[-0.15, 0.5]","[0.15, 0.5]",1,1,,,,,,,,,,,,,,,,,0,4,4,4,0,3,3,4,,,,,,,,,,,,,,,,,,,,,,,,,,,,,,,,,,,,,,,,,,,,,,,917.6369132420004,None,917.6369132420004,None,917.6369132420004,None,s,1,1.1750740400002542,919.1874485179997,None,919.1874485179997,None,919.1874485179997,None,920.4375330439998,None,920.4375330439998,None,920.4375330439998,None,920.4375330439998,None,,,,,,,,,,,,,,,,,,,,,,,,,,,,,,,,,,,,,,,,,,,,001,36,2020_Jan_30_1154,spring_faces,3.1.5,60.1305767944869,
