condsFile,subStage,cue1,cue2,correct,responseKeys,responseNames,cue1Position,cue2Position,cue1Opacity,cue2Opacity,stageLoop0.thisRepN,stageLoop0.thisTrialN,stageLoop0.thisN,stageLoop0.thisIndex,blockLoop0.thisRepN,blockLoop0.thisTrialN,blockLoop0.thisN,blockLoop0.thisIndex,stage1Loop.thisRepN,stage1Loop.thisTrialN,stage1Loop.thisN,stage1Loop.thisIndex,blockLoop1.thisRepN,blockLoop1.thisTrialN,blockLoop1.thisN,blockLoop1.thisIndex,stage2Loop.thisRepN,stage2Loop.thisTrialN,stage2Loop.thisN,stage2Loop.thisIndex,blockLoop2.thisRepN,blockLoop2.thisTrialN,blockLoop2.thisN,blockLoop2.thisIndex,testLoop.thisRepN,testLoop.thisTrialN,testLoop.thisN,testLoop.thisIndex,blockLoopTest.thisRepN,blockLoopTest.thisTrialN,blockLoopTest.thisN,blockLoopTest.thisIndex,cuePics,id_instr_text.started,id_instr_text.stopped,space_to_continue_2.started,space_to_continue_2.stopped,end_instructions_resp_3.keys,end_instructions_resp_3.rt,end_instructions_resp_3.started,end_instructions_resp_3.stopped,id_input_instr.started,id_input_instr.stopped,id_input_rect.started,id_input_rect.stopped,id_input_resp.keys,id_input_resp.rt,id_input_resp.started,id_input_resp.stopped,sonaID,id_input_text.started,id_input_text.stopped,final_text.started,final_text.stopped,instructions.started,instructions.stopped,end_instructions_resp.keys,end_instructions_resp.rt,end_instructions_resp.started,end_instructions_resp.stopped,space_to_continue.started,space_to_continue.stopped,instructions_stage0.started,instructions_stage0.stopped,end_instructions_resp_stage0.keys,end_instructions_resp_stage0.rt,end_instructions_resp_stage0.started,end_instructions_resp_stage0.stopped,space_to_continue_stage0.started,space_to_continue_stage0.stopped,text.started,text.stopped,resp_text1.started,resp_text1.stopped,resp_text2.started,resp_text2.stopped,trial_resp.keys,trial_resp.corr,trial_resp.rt,trial_resp.started,trial_resp.stopped,cue1Image.started,cue1Image.stopped,cue2Image.started,cue2Image.stopped,cue1Image_fb.started,cue1Image_fb.stopped,cue2Image_fb.started,cue2Image_fb.stopped,fb_text_answer.started,fb_text_answer.stopped,feedback_image.started,feedback_image.stopped,instructions_stage1.started,instructions_stage1.stopped,end_instructions_resp_stage1.keys,end_instructions_resp_stage1.rt,end_instructions_resp_stage1.started,end_instructions_resp_stage1.stopped,space_to_continue_stage1.started,space_to_continue_stage1.stopped,instructions_2.started,instructions_2.stopped,end_instructions_resp_2.keys,end_instructions_resp_2.rt,end_instructions_resp_2.started,end_instructions_resp_2.stopped,press_space_to_continue_stage2.started,press_space_to_continue_stage2.stopped,instructions_testStage1.started,instructions_testStage1.stopped,end_instructions_resp_test1.keys,end_instructions_resp_test1.rt,end_instructions_resp_test1.started,end_instructions_resp_test1.stopped,press_space_to_continue_test1.started,press_space_to_continue_test1.stopped,cue1Image_testChoice.started,cue1Image_testChoice.stopped,cue2Image_testChoice.started,cue2Image_testChoice.stopped,test_resp.keys,test_resp.corr,test_resp.rt,test_resp.started,test_resp.stopped,cue1Image_testConf.started,cue1Image_testConf.stopped,cue2Image_testConf.started,cue2Image_testConf.stopped,conf_reminder.started,conf_reminder.stopped,conf_rating.response,conf_rating.rt,conf_rating.started,conf_rating.stopped,session,participant,date,expName,psychopyVersion,frameRate,
,,,,,,,,,,,,,,,,,,,,,,,,,,,,,,,,,,,,,,,,,,,"{'none': 'pictures/20M_AN_C.png', 'alpha': 'pictures/SHINEd_pepper.png', 'beta': 'pictures/SHINEd_melon.png', 'theta': 'pictures/SHINEd_apple.png', 'phi': 'pictures/SHINEd_pear.png', 'T1': 'pictures/33M_AN_C.png', 'T2': 'pictures/23M_AN_C.png', 'T3': 'pictures/25M_AN_C.png', 'T4': 'pictures/31M_AN_C.png', 'T5': 'pictures/36M_AN_C.png', 'T6': 'pictures/37M_AN_C.png', 'B1': 'pictures/32M_NE_C.png', 'B2': 'pictures/26M_NE_C.png', 'B3': 'pictures/20M_NE_C.png', 'B4': 'pictures/22M_NE_C.png', 'B5': 'pictures/34M_NE_C.png', 'B6': 'pictures/38M_NE_C.png'}",15.453990894999151,None,20.437808429998768,None,space,109.44513548400028,20.437808429998768,None,,,,,,,,,,,,,,,,,,,,,,,,,,,,,,,,,,,,,,,,,,,,,,,,,,,,,,,,,,,,,,,,,,,,,,,,,,,,,,,,,,,,,,,,,,,,,,,,001,38,2020_Jan_30_1216,spring_faces,3.1.5,60.10132458253232,
,,,,,,,,,,,,,,,,,,,,,,,,,,,,,,,,,,,,,,,,,,,,,,,,,,,,130.28741631699995,None,130.28741631699995,None,"['backspace', 'm', 'a', 'backspace', 'backspace', '0', '3', '2', '0', 'm', 'a', 'g', 'r', 'e']","[57.59557032700104, 66.18757584600098, 67.57956095200097, 68.65152353099984, 69.06752113699986, 72.63550559800024, 74.15557546700074, 74.49161214600099, 74.98754641600135, 76.5875475770008, 76.85962660699988, 82.50758248100101, 82.76375067300069, 82.89158126900111]",130.28741631699995,None,,,,,,,,,,,,,,,,,,,,,,,,,,,,,,,,,,,,,,,,,,,,,,,,,,,,,,,,,,,,,,,,,,,,,,,,,,,,,,,,,,,,,,,,001,38,2020_Jan_30_1216,spring_faces,3.1.5,60.10132458253232,
,,,,,,,,,,,,,,,,,,,,,,,,,,,,,,,,,,,,,,,,,,,,,,,,,,,,,,,,,,,,0320magre,130.28741631699995,None,130.28741631699995,None,218.25474304099953,None,space,2.9484707990013703,223.25453659099912,None,,,,,,,,,,,,,,,,,,,,,,,,,,,,,,,,,,,,,,,,,,,,,,,,,,,,,,,,,,,,,,,,,,,,,,,,,,,,,001,38,2020_Jan_30_1216,spring_faces,3.1.5,60.10132458253232,
,,,,,,,,,,,,,,,,,,,,,,,,,,,,,,,,,,,,,,,,,,,,,,,,,,,,,,,,,,,,,,,,,,,,,,,223.25453659099912,None,226.23791463999987,None,space,1.669910358999914,231.22108050799943,None,,,,,,,,,,,,,,,,,,,,,,,,,,,,,,,,,,,,,,,,,,,,,,,,,,,,,,,,,,,,,,,,,,,,,001,38,2020_Jan_30_1216,spring_faces,3.1.5,60.10132458253232,
condition files/Stage0a.xlsx,0a,beta,none,g,"['h', 'g']","['Chess', 'Go']","[0, 0.5]","[0, 0]",1,0,0,0,0,0,0,0,0,1,,,,,,,,,,,,,,,,,,,,,,,,,,,,,,,,,,,,,,,,,,,,,,,,,,,,,,,,,,,,,231.22108050799943,None,232.95433460799904,None,232.95433460799904,None,232.95433460799904,None,g,1,2.737140952000118,234.53785579399846,None,234.53785579399846,None,234.53785579399846,None,237.35455191799883,None,237.35455191799883,None,237.35455191799883,None,237.35455191799883,None,,,,,,,,,,,,,,,,,,,,,,,,,,,,,,,,,,,,,,,,,,,,001,38,2020_Jan_30_1216,spring_faces,3.1.5,60.10132458253232,
condition files/Stage0a.xlsx,0a,alpha,none,h,"['h', 'g']","['Chess', 'Go']","[0, 0.5]","[0, 0]",1,0,0,0,0,0,0,1,1,0,,,,,,,,,,,,,,,,,,,,,,,,,,,,,,,,,,,,,,,,,,,,,,,,,,,,,,,,,,,,,,,239.3043618929987,None,239.3043618929987,None,239.3043618929987,None,g,0,2.9637431470000593,240.83924751099948,None,240.83924751099948,None,240.83924751099948,None,243.85395376499946,None,243.85395376499946,None,243.85395376499946,None,243.85395376499946,None,,,,,,,,,,,,,,,,,,,,,,,,,,,,,,,,,,,,,,,,,,,,001,38,2020_Jan_30_1216,spring_faces,3.1.5,60.10132458253232,
condition files/Stage0a.xlsx,0a,beta,none,g,"['h', 'g']","['Chess', 'Go']","[0, 0.5]","[0, 0]",1,0,0,1,1,1,0,0,0,1,,,,,,,,,,,,,,,,,,,,,,,,,,,,,,,,,,,,,,,,,,,,,,,,,,,,,,,,,,,,,,,245.83809814699998,None,245.83809814699998,None,245.83809814699998,None,g,1,1.1038527480013727,247.37114041599852,None,247.37114041599852,None,247.37114041599852,None,248.53770793999865,None,248.53770793999865,None,248.53770793999865,None,248.53770793999865,None,,,,,,,,,,,,,,,,,,,,,,,,,,,,,,,,,,,,,,,,,,,,001,38,2020_Jan_30_1216,spring_faces,3.1.5,60.10132458253232,
condition files/Stage0a.xlsx,0a,alpha,none,h,"['h', 'g']","['Chess', 'Go']","[0, 0.5]","[0, 0]",1,0,0,1,1,1,0,1,1,0,,,,,,,,,,,,,,,,,,,,,,,,,,,,,,,,,,,,,,,,,,,,,,,,,,,,,,,,,,,,,,,250.50431311799912,None,250.50431311799912,None,250.50431311799912,None,h,1,0.4372656850009662,252.03773935299978,None,252.03773935299978,None,252.03773935299978,None,252.5376032789991,None,252.5376032789991,None,252.5376032789991,None,252.5376032789991,None,,,,,,,,,,,,,,,,,,,,,,,,,,,,,,,,,,,,,,,,,,,,001,38,2020_Jan_30_1216,spring_faces,3.1.5,60.10132458253232,
condition files/Stage0a.xlsx,0a,alpha,none,h,"['h', 'g']","['Chess', 'Go']","[0, 0.5]","[0, 0]",1,0,0,2,2,2,0,0,0,0,,,,,,,,,,,,,,,,,,,,,,,,,,,,,,,,,,,,,,,,,,,,,,,,,,,,,,,,,,,,,,,254.52118535199952,None,254.52118535199952,None,254.52118535199952,None,h,1,0.5488606260005326,256.05411996699877,None,256.05411996699877,None,256.05411996699877,None,256.6544847360001,None,256.6544847360001,None,256.6544847360001,None,256.6544847360001,None,,,,,,,,,,,,,,,,,,,,,,,,,,,,,,,,,,,,,,,,,,,,001,38,2020_Jan_30_1216,spring_faces,3.1.5,60.10132458253232,
condition files/Stage0a.xlsx,0a,beta,none,g,"['h', 'g']","['Chess', 'Go']","[0, 0.5]","[0, 0]",1,0,0,2,2,2,0,1,1,1,,,,,,,,,,,,,,,,,,,,,,,,,,,,,,,,,,,,,,,,,,,,,,,,,,,,,,,,,,,,,,,258.620862578,None,258.620862578,None,258.620862578,None,g,1,0.7364124350006023,260.15459590499995,None,260.15459590499995,None,260.15459590499995,None,260.953553112,None,260.953553112,None,260.953553112,None,260.953553112,None,,,,,,,,,,,,,,,,,,,,,,,,,,,,,,,,,,,,,,,,,,,,001,38,2020_Jan_30_1216,spring_faces,3.1.5,60.10132458253232,
condition files/Stage0a.xlsx,0a,beta,none,g,"['h', 'g']","['Chess', 'Go']","[0, 0.5]","[0, 0]",1,0,0,3,3,3,0,0,0,1,,,,,,,,,,,,,,,,,,,,,,,,,,,,,,,,,,,,,,,,,,,,,,,,,,,,,,,,,,,,,,,262.93760035599917,None,262.93760035599917,None,262.93760035599917,None,g,1,0.7398924209992401,264.471157349999,None,264.471157349999,None,264.471157349999,None,265.2710876909987,None,265.2710876909987,None,265.2710876909987,None,265.2710876909987,None,,,,,,,,,,,,,,,,,,,,,,,,,,,,,,,,,,,,,,,,,,,,001,38,2020_Jan_30_1216,spring_faces,3.1.5,60.10132458253232,
condition files/Stage0a.xlsx,0a,alpha,none,h,"['h', 'g']","['Chess', 'Go']","[0, 0.5]","[0, 0]",1,0,0,3,3,3,0,1,1,0,,,,,,,,,,,,,,,,,,,,,,,,,,,,,,,,,,,,,,,,,,,,,,,,,,,,,,,,,,,,,,,267.2369348059983,None,267.2369348059983,None,267.2369348059983,None,h,1,0.4237207739988662,268.77131371699943,None,268.77131371699943,None,268.77131371699943,None,269.2542314429993,None,269.2542314429993,None,269.2542314429993,None,269.2542314429993,None,,,,,,,,,,,,,,,,,,,,,,,,,,,,,,,,,,,,,,,,,,,,001,38,2020_Jan_30_1216,spring_faces,3.1.5,60.10132458253232,
condition files/Stage0a.xlsx,0a,beta,none,g,"['h', 'g']","['Chess', 'Go']","[0, 0.5]","[0, 0]",1,0,0,4,4,4,0,0,0,1,,,,,,,,,,,,,,,,,,,,,,,,,,,,,,,,,,,,,,,,,,,,,,,,,,,,,,,,,,,,,,,271.23786557999847,None,271.23786557999847,None,271.23786557999847,None,g,1,0.4560464040005172,272.77095644699875,None,272.77095644699875,None,272.77095644699875,None,273.28793140199923,None,273.28793140199923,None,273.28793140199923,None,273.28793140199923,None,,,,,,,,,,,,,,,,,,,,,,,,,,,,,,,,,,,,,,,,,,,,001,38,2020_Jan_30_1216,spring_faces,3.1.5,60.10132458253232,
condition files/Stage0a.xlsx,0a,alpha,none,h,"['h', 'g']","['Chess', 'Go']","[0, 0.5]","[0, 0]",1,0,0,4,4,4,0,1,1,0,,,,,,,,,,,,,,,,,,,,,,,,,,,,,,,,,,,,,,,,,,,,,,,,,,,,,,,,,,,,,,,275.2544155679989,None,275.2544155679989,None,275.2544155679989,None,h,1,0.727218387000903,276.7878046809983,None,276.7878046809983,None,276.7878046809983,None,277.5714254309987,None,277.5714254309987,None,277.5714254309987,None,277.5714254309987,None,,,,,,,,,,,,,,,,,,,,,,,,,,,,,,,,,,,,,,,,,,,,001,38,2020_Jan_30_1216,spring_faces,3.1.5,60.10132458253232,
condition files/Stage0a.xlsx,0a,alpha,none,h,"['h', 'g']","['Chess', 'Go']","[0, 0.5]","[0, 0]",1,0,0,5,5,5,0,0,0,0,,,,,,,,,,,,,,,,,,,,,,,,,,,,,,,,,,,,,,,,,,,,,,,,,,,,,,,,,,,,,,,279.5544942329998,None,279.5544942329998,None,279.5544942329998,None,h,1,0.4596380719995068,281.0874307269987,None,281.0874307269987,None,281.0874307269987,None,281.6044755039984,None,281.6044755039984,None,281.6044755039984,None,281.6044755039984,None,,,,,,,,,,,,,,,,,,,,,,,,,,,,,,,,,,,,,,,,,,,,001,38,2020_Jan_30_1216,spring_faces,3.1.5,60.10132458253232,
condition files/Stage0a.xlsx,0a,beta,none,g,"['h', 'g']","['Chess', 'Go']","[0, 0.5]","[0, 0]",1,0,0,5,5,5,0,1,1,1,,,,,,,,,,,,,,,,,,,,,,,,,,,,,,,,,,,,,,,,,,,,,,,,,,,,,,,,,,,,,,,283.5709183659983,None,283.5709183659983,None,283.5709183659983,None,g,1,0.3624142810003832,285.10452814999917,None,285.10452814999917,None,285.10452814999917,None,285.5208660119988,None,285.5208660119988,None,285.5208660119988,None,285.5208660119988,None,,,,,,,,,,,,,,,,,,,,,,,,,,,,,,,,,,,,,,,,,,,,001,38,2020_Jan_30_1216,spring_faces,3.1.5,60.10132458253232,
condition files/Stage0b_1.xlsx,0b,none,beta,g,"['h', 'g']","['Chess', 'Go']","[-0.15, 0.5]","[0.15, 0.5]",0,1,0,6,6,6,0,0,0,1,,,,,,,,,,,,,,,,,,,,,,,,,,,,,,,,,,,,,,,,,,,,,,,,,,,,,,,,,,,,,,,287.5045506079987,None,287.5045506079987,None,287.5045506079987,None,g,1,0.6042713249989902,289.0546647259998,None,289.0546647259998,None,289.0546647259998,None,289.7210455589993,None,289.7210455589993,None,289.7210455589993,None,289.7210455589993,None,,,,,,,,,,,,,,,,,,,,,,,,,,,,,,,,,,,,,,,,,,,,001,38,2020_Jan_30_1216,spring_faces,3.1.5,60.10132458253232,
condition files/Stage0b_1.xlsx,0b,alpha,none,h,"['h', 'g']","['Chess', 'Go']","[-0.15, 0.5]","[0.15, 0.5]",1,0,0,6,6,6,0,1,1,0,,,,,,,,,,,,,,,,,,,,,,,,,,,,,,,,,,,,,,,,,,,,,,,,,,,,,,,,,,,,,,,291.6876457139988,None,291.6876457139988,None,291.6876457139988,None,h,1,0.4687315650007804,293.2382468039996,None,293.2382468039996,None,293.2382468039996,None,293.7711525579998,None,293.7711525579998,None,293.7711525579998,None,293.7711525579998,None,,,,,,,,,,,,,,,,,,,,,,,,,,,,,,,,,,,,,,,,,,,,001,38,2020_Jan_30_1216,spring_faces,3.1.5,60.10132458253232,
condition files/Stage0b_2.xlsx,0b,beta,none,g,"['h', 'g']","['Chess', 'Go']","[-0.15, 0.5]","[0.15, 0.5]",1,0,0,7,7,7,0,0,0,1,,,,,,,,,,,,,,,,,,,,,,,,,,,,,,,,,,,,,,,,,,,,,,,,,,,,,,,,,,,,,,,295.7546940439988,None,295.7546940439988,None,295.7546940439988,None,g,1,0.4676520969987905,297.28729218599983,None,297.28729218599983,None,297.28729218599983,None,297.82125965499836,None,297.82125965499836,None,297.82125965499836,None,297.82125965499836,None,,,,,,,,,,,,,,,,,,,,,,,,,,,,,,,,,,,,,,,,,,,,001,38,2020_Jan_30_1216,spring_faces,3.1.5,60.10132458253232,
condition files/Stage0b_2.xlsx,0b,none,alpha,h,"['h', 'g']","['Chess', 'Go']","[-0.15, 0.5]","[0.15, 0.5]",0,1,0,7,7,7,0,1,1,0,,,,,,,,,,,,,,,,,,,,,,,,,,,,,,,,,,,,,,,,,,,,,,,,,,,,,,,,,,,,,,,299.78752529399935,None,299.78752529399935,None,299.78752529399935,None,h,1,0.4650779870007682,301.33790732599846,None,301.33790732599846,None,301.33790732599846,None,301.8705191019999,None,301.8705191019999,None,301.8705191019999,None,301.8705191019999,None,,,,,,,,,,,,,,,,,,,,,,,,,,,,,,,,,,,,,,,,,,,,001,38,2020_Jan_30_1216,spring_faces,3.1.5,60.10132458253232,
condition files/Stage0b_1.xlsx,0b,none,beta,g,"['h', 'g']","['Chess', 'Go']","[-0.15, 0.5]","[0.15, 0.5]",0,1,0,8,8,8,0,0,0,1,,,,,,,,,,,,,,,,,,,,,,,,,,,,,,,,,,,,,,,,,,,,,,,,,,,,,,,,,,,,,,,303.83764500100006,None,303.83764500100006,None,303.83764500100006,None,g,1,0.43225420199996734,305.37074647699956,None,305.37074647699956,None,305.37074647699956,None,305.8540293719998,None,305.8540293719998,None,305.8540293719998,None,305.8540293719998,None,,,,,,,,,,,,,,,,,,,,,,,,,,,,,,,,,,,,,,,,,,,,001,38,2020_Jan_30_1216,spring_faces,3.1.5,60.10132458253232,
condition files/Stage0b_1.xlsx,0b,alpha,none,h,"['h', 'g']","['Chess', 'Go']","[-0.15, 0.5]","[0.15, 0.5]",1,0,0,8,8,8,0,1,1,0,,,,,,,,,,,,,,,,,,,,,,,,,,,,,,,,,,,,,,,,,,,,,,,,,,,,,,,,,,,,,,,307.82099871399987,None,307.82099871399987,None,307.82099871399987,None,h,1,0.37925037999957567,309.35967176199847,None,309.35967176199847,None,309.35967176199847,None,309.80922529799864,None,309.80922529799864,None,309.80922529799864,None,309.80922529799864,None,,,,,,,,,,,,,,,,,,,,,,,,,,,,,,,,,,,,,,,,,,,,001,38,2020_Jan_30_1216,spring_faces,3.1.5,60.10132458253232,
condition files/Stage0b_2.xlsx,0b,none,alpha,h,"['h', 'g']","['Chess', 'Go']","[-0.15, 0.5]","[0.15, 0.5]",0,1,0,9,9,9,0,0,0,0,,,,,,,,,,,,,,,,,,,,,,,,,,,,,,,,,,,,,,,,,,,,,,,,,,,,,,,,,,,,,,,311.7880756689992,None,311.7880756689992,None,311.7880756689992,None,h,1,0.5593605949998164,313.32363139099834,None,313.32363139099834,None,313.32363139099834,None,313.937528167,None,313.937528167,None,313.937528167,None,313.937528167,None,,,,,,,,,,,,,,,,,,,,,,,,,,,,,,,,,,,,,,,,,,,,001,38,2020_Jan_30_1216,spring_faces,3.1.5,60.10132458253232,
condition files/Stage0b_2.xlsx,0b,beta,none,g,"['h', 'g']","['Chess', 'Go']","[-0.15, 0.5]","[0.15, 0.5]",1,0,0,9,9,9,0,1,1,1,,,,,,,,,,,,,,,,,,,,,,,,,,,,,,,,,,,,,,,,,,,,,,,,,,,,,,,,,,,,,,,315.9043165109997,None,315.9043165109997,None,315.9043165109997,None,g,1,0.60146981500111,317.44153800499953,None,317.44153800499953,None,317.44153800499953,None,318.10553936499855,None,318.10553936499855,None,318.10553936499855,None,318.10553936499855,None,,,,,,,,,,,,,,,,,,,,,,,,,,,,,,,,,,,,,,,,,,,,001,38,2020_Jan_30_1216,spring_faces,3.1.5,60.10132458253232,
condition files/Stage0b_1.xlsx,0b,alpha,none,h,"['h', 'g']","['Chess', 'Go']","[-0.15, 0.5]","[0.15, 0.5]",1,0,0,10,10,10,0,0,0,0,,,,,,,,,,,,,,,,,,,,,,,,,,,,,,,,,,,,,,,,,,,,,,,,,,,,,,,,,,,,,,,320.08791416999884,None,320.08791416999884,None,320.08791416999884,None,h,1,0.5664748589988449,321.62048776999836,None,321.62048776999836,None,321.62048776999836,None,322.2383335349987,None,322.2383335349987,None,322.2383335349987,None,322.2383335349987,None,,,,,,,,,,,,,,,,,,,,,,,,,,,,,,,,,,,,,,,,,,,,001,38,2020_Jan_30_1216,spring_faces,3.1.5,60.10132458253232,
condition files/Stage0b_1.xlsx,0b,none,beta,g,"['h', 'g']","['Chess', 'Go']","[-0.15, 0.5]","[0.15, 0.5]",0,1,0,10,10,10,0,1,1,1,,,,,,,,,,,,,,,,,,,,,,,,,,,,,,,,,,,,,,,,,,,,,,,,,,,,,,,,,,,,,,,324.20446156899925,None,324.20446156899925,None,324.20446156899925,None,g,1,0.6517097559990361,325.74331124999844,None,325.74331124999844,None,325.74331124999844,None,326.4581476529984,None,326.4581476529984,None,326.4581476529984,None,326.4581476529984,None,,,,,,,,,,,,,,,,,,,,,,,,,,,,,,,,,,,,,,,,,,,,001,38,2020_Jan_30_1216,spring_faces,3.1.5,60.10132458253232,
condition files/Stage0b_2.xlsx,0b,beta,none,g,"['h', 'g']","['Chess', 'Go']","[-0.15, 0.5]","[0.15, 0.5]",1,0,0,11,11,11,0,0,0,1,,,,,,,,,,,,,,,,,,,,,,,,,,,,,,,,,,,,,,,,,,,,,,,,,,,,,,,,,,,,,,,328.4376026589998,None,328.4376026589998,None,328.4376026589998,None,g,1,0.7428343359988503,329.9722181449997,None,329.9722181449997,None,329.9722181449997,None,330.77123909799957,None,330.77123909799957,None,330.77123909799957,None,330.77123909799957,None,,,,,,,,,,,,,,,,,,,,,,,,,,,,,,,,,,,,,,,,,,,,001,38,2020_Jan_30_1216,spring_faces,3.1.5,60.10132458253232,
condition files/Stage0b_2.xlsx,0b,none,alpha,h,"['h', 'g']","['Chess', 'Go']","[-0.15, 0.5]","[0.15, 0.5]",0,1,0,11,11,11,0,1,1,0,,,,,,,,,,,,,,,,,,,,,,,,,,,,,,,,,,,,,,,,,,,,,,,,,,,,,,,,,,,,,,,332.7376636379995,None,332.7376636379995,None,332.7376636379995,None,h,1,0.4925720269984595,334.270439635,None,334.270439635,None,334.270439635,None,334.8226448279984,None,334.8226448279984,None,334.8226448279984,None,334.8226448279984,None,,,,,,,,,,,,,,,,,,,,,,,,,,,,,,,,,,,,,,,,,,,,001,38,2020_Jan_30_1216,spring_faces,3.1.5,60.10132458253232,
condition files/Stage0c_1.xlsx,0c,theta,alpha,h,"['h', 'g']","['Chess', 'Go']","[-0.15, 0.5]","[0.15, 0.5]",1,1,0,12,12,12,0,0,0,0,,,,,,,,,,,,,,,,,,,,,,,,,,,,,,,,,,,,,,,,,,,,,,,,,,,,,,,,,,,,,,,336.8040678969992,None,336.8040678969992,None,336.8040678969992,None,h,1,1.2732202959996357,338.33777280199865,None,338.33777280199865,None,338.33777280199865,None,339.670597884,None,339.670597884,None,339.670597884,None,339.670597884,None,,,,,,,,,,,,,,,,,,,,,,,,,,,,,,,,,,,,,,,,,,,,001,38,2020_Jan_30_1216,spring_faces,3.1.5,60.10132458253232,
condition files/Stage0c_1.xlsx,0c,alpha,phi,h,"['h', 'g']","['Chess', 'Go']","[-0.15, 0.5]","[0.15, 0.5]",1,1,0,12,12,12,0,1,1,1,,,,,,,,,,,,,,,,,,,,,,,,,,,,,,,,,,,,,,,,,,,,,,,,,,,,,,,,,,,,,,,341.63758736899945,None,341.63758736899945,None,341.63758736899945,None,h,1,1.1121094110003469,343.170880018999,None,343.170880018999,None,343.170880018999,None,344.3371558809995,None,344.3371558809995,None,344.3371558809995,None,344.3371558809995,None,,,,,,,,,,,,,,,,,,,,,,,,,,,,,,,,,,,,,,,,,,,,001,38,2020_Jan_30_1216,spring_faces,3.1.5,60.10132458253232,
condition files/Stage0c_1.xlsx,0c,beta,theta,g,"['h', 'g']","['Chess', 'Go']","[-0.15, 0.5]","[0.15, 0.5]",1,1,0,12,12,12,0,2,2,2,,,,,,,,,,,,,,,,,,,,,,,,,,,,,,,,,,,,,,,,,,,,,,,,,,,,,,,,,,,,,,,346.30416061100004,None,346.30416061100004,None,346.30416061100004,None,g,1,0.5252700439996261,347.8377436819992,None,347.8377436819992,None,347.8377436819992,None,348.42143862599914,None,348.42143862599914,None,348.42143862599914,None,348.42143862599914,None,,,,,,,,,,,,,,,,,,,,,,,,,,,,,,,,,,,,,,,,,,,,001,38,2020_Jan_30_1216,spring_faces,3.1.5,60.10132458253232,
condition files/Stage0c_1.xlsx,0c,phi,beta,g,"['h', 'g']","['Chess', 'Go']","[-0.15, 0.5]","[0.15, 0.5]",1,1,0,12,12,12,0,3,3,3,,,,,,,,,,,,,,,,,,,,,,,,,,,,,,,,,,,,,,,,,,,,,,,,,,,,,,,,,,,,,,,350.3875992939993,None,350.3875992939993,None,350.3875992939993,None,g,1,0.8258514770004695,351.92120492199865,None,351.92120492199865,None,351.92120492199865,None,352.80448179999985,None,352.80448179999985,None,352.80448179999985,None,352.80448179999985,None,,,,,,,,,,,,,,,,,,,,,,,,,,,,,,,,,,,,,,,,,,,,001,38,2020_Jan_30_1216,spring_faces,3.1.5,60.10132458253232,
condition files/Stage0c_2.xlsx,0c,beta,phi,g,"['h', 'g']","['Chess', 'Go']","[-0.15, 0.5]","[0.15, 0.5]",1,1,0,13,13,13,0,0,0,3,,,,,,,,,,,,,,,,,,,,,,,,,,,,,,,,,,,,,,,,,,,,,,,,,,,,,,,,,,,,,,,354.7879365969984,None,354.7879365969984,None,354.7879365969984,None,g,1,0.9216913700001896,356.32131483299963,None,356.32131483299963,None,356.32131483299963,None,357.2897505279998,None,357.2897505279998,None,357.2897505279998,None,357.2897505279998,None,,,,,,,,,,,,,,,,,,,,,,,,,,,,,,,,,,,,,,,,,,,,001,38,2020_Jan_30_1216,spring_faces,3.1.5,60.10132458253232,
condition files/Stage0c_2.xlsx,0c,phi,alpha,h,"['h', 'g']","['Chess', 'Go']","[-0.15, 0.5]","[0.15, 0.5]",1,1,0,13,13,13,0,1,1,1,,,,,,,,,,,,,,,,,,,,,,,,,,,,,,,,,,,,,,,,,,,,,,,,,,,,,,,,,,,,,,,359.2709919249992,None,359.2709919249992,None,359.2709919249992,None,h,1,1.1105796129995724,360.80444627199904,None,360.80444627199904,None,360.80444627199904,None,361.9712350509999,None,361.9712350509999,None,361.9712350509999,None,361.9712350509999,None,,,,,,,,,,,,,,,,,,,,,,,,,,,,,,,,,,,,,,,,,,,,001,38,2020_Jan_30_1216,spring_faces,3.1.5,60.10132458253232,
condition files/Stage0c_2.xlsx,0c,theta,beta,g,"['h', 'g']","['Chess', 'Go']","[-0.15, 0.5]","[0.15, 0.5]",1,1,0,13,13,13,0,2,2,2,,,,,,,,,,,,,,,,,,,,,,,,,,,,,,,,,,,,,,,,,,,,,,,,,,,,,,,,,,,,,,,363.9369767899989,None,363.9369767899989,None,363.9369767899989,None,h,0,0.6998420210002223,365.47118855699955,None,365.47118855699955,None,365.47118855699955,None,366.2211280619995,None,366.2211280619995,None,366.2211280619995,None,366.2211280619995,None,,,,,,,,,,,,,,,,,,,,,,,,,,,,,,,,,,,,,,,,,,,,001,38,2020_Jan_30_1216,spring_faces,3.1.5,60.10132458253232,
condition files/Stage0c_2.xlsx,0c,alpha,theta,h,"['h', 'g']","['Chess', 'Go']","[-0.15, 0.5]","[0.15, 0.5]",1,1,0,13,13,13,0,3,3,0,,,,,,,,,,,,,,,,,,,,,,,,,,,,,,,,,,,,,,,,,,,,,,,,,,,,,,,,,,,,,,,368.18757752999954,None,368.18757752999954,None,368.18757752999954,None,h,1,0.8505236579985649,369.720497798,None,369.720497798,None,369.720497798,None,370.6211952219983,None,370.6211952219983,None,370.6211952219983,None,370.6211952219983,None,,,,,,,,,,,,,,,,,,,,,,,,,,,,,,,,,,,,,,,,,,,,001,38,2020_Jan_30_1216,spring_faces,3.1.5,60.10132458253232,
condition files/Stage0c_1.xlsx,0c,alpha,phi,h,"['h', 'g']","['Chess', 'Go']","[-0.15, 0.5]","[0.15, 0.5]",1,1,0,14,14,14,0,0,0,1,,,,,,,,,,,,,,,,,,,,,,,,,,,,,,,,,,,,,,,,,,,,,,,,,,,,,,,,,,,,,,,372.60449576299834,None,372.60449576299834,None,372.60449576299834,None,h,1,0.9930888710005092,374.1379339059986,None,374.1379339059986,None,374.1379339059986,None,375.17288161399847,None,375.17288161399847,None,375.17288161399847,None,375.17288161399847,None,,,,,,,,,,,,,,,,,,,,,,,,,,,,,,,,,,,,,,,,,,,,001,38,2020_Jan_30_1216,spring_faces,3.1.5,60.10132458253232,
condition files/Stage0c_1.xlsx,0c,phi,beta,g,"['h', 'g']","['Chess', 'Go']","[-0.15, 0.5]","[0.15, 0.5]",1,1,0,14,14,14,0,1,1,3,,,,,,,,,,,,,,,,,,,,,,,,,,,,,,,,,,,,,,,,,,,,,,,,,,,,,,,,,,,,,,,377.1540288339984,None,377.1540288339984,None,377.1540288339984,None,g,1,1.2433357690006233,378.6876813029994,None,378.6876813029994,None,378.6876813029994,None,379.98801814499893,None,379.98801814499893,None,379.98801814499893,None,379.98801814499893,None,,,,,,,,,,,,,,,,,,,,,,,,,,,,,,,,,,,,,,,,,,,,001,38,2020_Jan_30_1216,spring_faces,3.1.5,60.10132458253232,
condition files/Stage0c_1.xlsx,0c,beta,theta,g,"['h', 'g']","['Chess', 'Go']","[-0.15, 0.5]","[0.15, 0.5]",1,1,0,14,14,14,0,2,2,2,,,,,,,,,,,,,,,,,,,,,,,,,,,,,,,,,,,,,,,,,,,,,,,,,,,,,,,,,,,,,,,381.954319172999,None,381.954319172999,None,381.954319172999,None,g,1,0.8272992969996267,383.487746720999,None,383.487746720999,None,383.487746720999,None,384.35606498999914,None,384.35606498999914,None,384.35606498999914,None,384.35606498999914,None,,,,,,,,,,,,,,,,,,,,,,,,,,,,,,,,,,,,,,,,,,,,001,38,2020_Jan_30_1216,spring_faces,3.1.5,60.10132458253232,
condition files/Stage0c_1.xlsx,0c,theta,alpha,h,"['h', 'g']","['Chess', 'Go']","[-0.15, 0.5]","[0.15, 0.5]",1,1,0,14,14,14,0,3,3,0,,,,,,,,,,,,,,,,,,,,,,,,,,,,,,,,,,,,,,,,,,,,,,,,,,,,,,,,,,,,,,,386.33690515499984,None,386.33690515499984,None,386.33690515499984,None,h,1,0.5878195960012818,387.871182203,None,387.871182203,None,387.871182203,None,388.5206214259997,None,388.5206214259997,None,388.5206214259997,None,388.5206214259997,None,,,,,,,,,,,,,,,,,,,,,,,,,,,,,,,,,,,,,,,,,,,,001,38,2020_Jan_30_1216,spring_faces,3.1.5,60.10132458253232,
condition files/Stage0c_2.xlsx,0c,alpha,theta,h,"['h', 'g']","['Chess', 'Go']","[-0.15, 0.5]","[0.15, 0.5]",1,1,0,15,15,15,0,0,0,0,,,,,,,,,,,,,,,,,,,,,,,,,,,,,,,,,,,,,,,,,,,,,,,,,,,,,,,,,,,,,,,390.50478536899936,None,390.50478536899936,None,390.50478536899936,None,h,1,0.9336932540009002,392.02125326999885,None,392.02125326999885,None,392.02125326999885,None,393.0039392969993,None,393.0039392969993,None,393.0039392969993,None,393.0039392969993,None,,,,,,,,,,,,,,,,,,,,,,,,,,,,,,,,,,,,,,,,,,,,001,38,2020_Jan_30_1216,spring_faces,3.1.5,60.10132458253232,
condition files/Stage0c_2.xlsx,0c,beta,phi,g,"['h', 'g']","['Chess', 'Go']","[-0.15, 0.5]","[0.15, 0.5]",1,1,0,15,15,15,0,1,1,3,,,,,,,,,,,,,,,,,,,,,,,,,,,,,,,,,,,,,,,,,,,,,,,,,,,,,,,,,,,,,,,394.9874917319994,None,394.9874917319994,None,394.9874917319994,None,g,1,0.4976702149997436,396.5213085309988,None,396.5213085309988,None,396.5213085309988,None,397.07124546399973,None,397.07124546399973,None,397.07124546399973,None,397.07124546399973,None,,,,,,,,,,,,,,,,,,,,,,,,,,,,,,,,,,,,,,,,,,,,001,38,2020_Jan_30_1216,spring_faces,3.1.5,60.10132458253232,
condition files/Stage0c_2.xlsx,0c,phi,alpha,h,"['h', 'g']","['Chess', 'Go']","[-0.15, 0.5]","[0.15, 0.5]",1,1,0,15,15,15,0,2,2,1,,,,,,,,,,,,,,,,,,,,,,,,,,,,,,,,,,,,,,,,,,,,,,,,,,,,,,,,,,,,,,,399.03706117,None,399.03706117,None,399.03706117,None,h,1,0.5759651739990659,400.57111139599874,None,400.57111139599874,None,400.57111139599874,None,401.2045772040001,None,401.2045772040001,None,401.2045772040001,None,401.2045772040001,None,,,,,,,,,,,,,,,,,,,,,,,,,,,,,,,,,,,,,,,,,,,,001,38,2020_Jan_30_1216,spring_faces,3.1.5,60.10132458253232,
condition files/Stage0c_2.xlsx,0c,theta,beta,g,"['h', 'g']","['Chess', 'Go']","[-0.15, 0.5]","[0.15, 0.5]",1,1,0,15,15,15,0,3,3,2,,,,,,,,,,,,,,,,,,,,,,,,,,,,,,,,,,,,,,,,,,,,,,,,,,,,,,,,,,,,,,,403.1709209309993,None,403.1709209309993,None,403.1709209309993,None,g,1,0.7144104290000541,404.7045535749985,None,404.7045535749985,None,404.7045535749985,None,405.4712551829998,None,405.4712551829998,None,405.4712551829998,None,405.4712551829998,None,,,,,,,,,,,,,,,,,,,,,,,,,,,,,,,,,,,,,,,,,,,,001,38,2020_Jan_30_1216,spring_faces,3.1.5,60.10132458253232,
condition files/Stage0c_1.xlsx,0c,alpha,phi,h,"['h', 'g']","['Chess', 'Go']","[-0.15, 0.5]","[0.15, 0.5]",1,1,0,16,16,16,0,0,0,1,,,,,,,,,,,,,,,,,,,,,,,,,,,,,,,,,,,,,,,,,,,,,,,,,,,,,,,,,,,,,,,407.454340368,None,407.454340368,None,407.454340368,None,h,1,0.7512751650010614,408.9876743419991,None,408.9876743419991,None,408.9876743419991,None,409.80455184699895,None,409.80455184699895,None,409.80455184699895,None,409.80455184699895,None,,,,,,,,,,,,,,,,,,,,,,,,,,,,,,,,,,,,,,,,,,,,001,38,2020_Jan_30_1216,spring_faces,3.1.5,60.10132458253232,
condition files/Stage0c_1.xlsx,0c,phi,beta,g,"['h', 'g']","['Chess', 'Go']","[-0.15, 0.5]","[0.15, 0.5]",1,1,0,16,16,16,0,1,1,3,,,,,,,,,,,,,,,,,,,,,,,,,,,,,,,,,,,,,,,,,,,,,,,,,,,,,,,,,,,,,,,411.77110854999955,None,411.77110854999955,None,411.77110854999955,None,g,1,0.5784641630016267,413.3045211239987,None,413.3045211239987,None,413.3045211239987,None,413.93787828399945,None,413.93787828399945,None,413.93787828399945,None,413.93787828399945,None,,,,,,,,,,,,,,,,,,,,,,,,,,,,,,,,,,,,,,,,,,,,001,38,2020_Jan_30_1216,spring_faces,3.1.5,60.10132458253232,
condition files/Stage0c_1.xlsx,0c,theta,alpha,h,"['h', 'g']","['Chess', 'Go']","[-0.15, 0.5]","[0.15, 0.5]",1,1,0,16,16,16,0,2,2,0,,,,,,,,,,,,,,,,,,,,,,,,,,,,,,,,,,,,,,,,,,,,,,,,,,,,,,,,,,,,,,,415.90461413999947,None,415.90461413999947,None,415.90461413999947,None,h,1,0.8773464639998565,417.4377025119993,None,417.4377025119993,None,417.4377025119993,None,418.37128605699945,None,418.37128605699945,None,418.37128605699945,None,418.37128605699945,None,,,,,,,,,,,,,,,,,,,,,,,,,,,,,,,,,,,,,,,,,,,,001,38,2020_Jan_30_1216,spring_faces,3.1.5,60.10132458253232,
condition files/Stage0c_1.xlsx,0c,beta,theta,g,"['h', 'g']","['Chess', 'Go']","[-0.15, 0.5]","[0.15, 0.5]",1,1,0,16,16,16,0,3,3,2,,,,,,,,,,,,,,,,,,,,,,,,,,,,,,,,,,,,,,,,,,,,,,,,,,,,,,,,,,,,,,,420.3375461979995,None,420.3375461979995,None,420.3375461979995,None,g,1,0.971879180000542,421.87110941299943,None,421.87110941299943,None,421.87110941299943,None,422.90452800299863,None,422.90452800299863,None,422.90452800299863,None,422.90452800299863,None,,,,,,,,,,,,,,,,,,,,,,,,,,,,,,,,,,,,,,,,,,,,001,38,2020_Jan_30_1216,spring_faces,3.1.5,60.10132458253232,
condition files/Stage0c_2.xlsx,0c,phi,alpha,h,"['h', 'g']","['Chess', 'Go']","[-0.15, 0.5]","[0.15, 0.5]",1,1,0,17,17,17,0,0,0,1,,,,,,,,,,,,,,,,,,,,,,,,,,,,,,,,,,,,,,,,,,,,,,,,,,,,,,,,,,,,,,,424.88794974199845,None,424.88794974199845,None,424.88794974199845,None,h,1,0.4856986179984233,426.4213115879993,None,426.4213115879993,None,426.4213115879993,None,426.971410574999,None,426.971410574999,None,426.971410574999,None,426.971410574999,None,,,,,,,,,,,,,,,,,,,,,,,,,,,,,,,,,,,,,,,,,,,,001,38,2020_Jan_30_1216,spring_faces,3.1.5,60.10132458253232,
condition files/Stage0c_2.xlsx,0c,beta,phi,g,"['h', 'g']","['Chess', 'Go']","[-0.15, 0.5]","[0.15, 0.5]",1,1,0,17,17,17,0,1,1,3,,,,,,,,,,,,,,,,,,,,,,,,,,,,,,,,,,,,,,,,,,,,,,,,,,,,,,,,,,,,,,,428.9375494379983,None,428.9375494379983,None,428.9375494379983,None,g,1,0.4365192909990583,430.4704616789986,None,430.4704616789986,None,430.4704616789986,None,430.97113907999847,None,430.97113907999847,None,430.97113907999847,None,430.97113907999847,None,,,,,,,,,,,,,,,,,,,,,,,,,,,,,,,,,,,,,,,,,,,,001,38,2020_Jan_30_1216,spring_faces,3.1.5,60.10132458253232,
condition files/Stage0c_2.xlsx,0c,alpha,theta,h,"['h', 'g']","['Chess', 'Go']","[-0.15, 0.5]","[0.15, 0.5]",1,1,0,17,17,17,0,2,2,0,,,,,,,,,,,,,,,,,,,,,,,,,,,,,,,,,,,,,,,,,,,,,,,,,,,,,,,,,,,,,,,432.9375850619999,None,432.9375850619999,None,432.9375850619999,None,h,1,0.7877650540012837,434.4712289759991,None,434.4712289759991,None,434.4712289759991,None,435.3206552719985,None,435.3206552719985,None,435.3206552719985,None,435.3206552719985,None,,,,,,,,,,,,,,,,,,,,,,,,,,,,,,,,,,,,,,,,,,,,001,38,2020_Jan_30_1216,spring_faces,3.1.5,60.10132458253232,
condition files/Stage0c_2.xlsx,0c,theta,beta,g,"['h', 'g']","['Chess', 'Go']","[-0.15, 0.5]","[0.15, 0.5]",1,1,0,17,17,17,0,3,3,2,,,,,,,,,,,,,,,,,,,,,,,,,,,,,,,,,,,,,,,,,,,,,,,,,,,,,,,,,,,,,,,437.2876307859988,None,437.2876307859988,None,437.2876307859988,None,g,1,0.5976255170007789,438.82136381300006,None,438.82136381300006,None,438.82136381300006,None,439.4711907000001,None,439.4711907000001,None,439.4711907000001,None,439.4711907000001,None,,,,,,,,,,,,,,,,,,,,,,,,,,,,,,,,,,,,,,,,,,,,001,38,2020_Jan_30_1216,spring_faces,3.1.5,60.10132458253232,
,,,,,,,,,,,,,,,,,,,,,,,,,,,,,,,,,,,,,,,,,,,,,,,,,,,,,,,,,,,,,,,,,,,,,,,,,,,,,,,,,,,,,,,,,,,,,,,,,,,,,,,,441.45469256899923,None,space,4.132740565000859,446.4542785629983,None,,,,,,,,,,,,,,,,,,,,,,,,,,,,,,,,,,,,,,001,38,2020_Jan_30_1216,spring_faces,3.1.5,60.10132458253232,
condition files/Stage1_1.xlsx,,T3,B4,c,"['c', 'm']","['Clue', 'Monopoly']","[-0.15, 0.5]","[0.15, 0.5]",1,1,,,,,,,,,0,0,0,0,0,0,0,5,,,,,,,,,,,,,,,,,,,,,,,,,,,,,,,,,,,,,,,,,,,,,,,,,,,,,,,450.63727197999833,None,450.63727197999833,None,450.63727197999833,None,c,1,1.3599234299999807,452.1711088189986,None,452.1711088189986,None,452.1711088189986,None,453.60480302699943,None,453.60480302699943,None,453.60480302699943,None,453.60480302699943,None,,,,,,,446.4542785629983,None,,,,,,,,,,,,,,,,,,,,,,,,,,,,,,,,,,,,001,38,2020_Jan_30_1216,spring_faces,3.1.5,60.10132458253232,
condition files/Stage1_1.xlsx,,T1,B1,c,"['c', 'm']","['Clue', 'Monopoly']","[-0.15, 0.5]","[0.15, 0.5]",1,1,,,,,,,,,0,0,0,0,0,1,1,0,,,,,,,,,,,,,,,,,,,,,,,,,,,,,,,,,,,,,,,,,,,,,,,,,,,,,,,455.5545983009997,None,455.5545983009997,None,455.5545983009997,None,m,0,1.0351405430010345,457.0878466710001,None,457.0878466710001,None,457.0878466710001,None,458.1878647679987,None,458.1878647679987,None,458.1878647679987,None,458.1878647679987,None,,,,,,,,,,,,,,,,,,,,,,,,,,,,,,,,,,,,,,,,,,,,001,38,2020_Jan_30_1216,spring_faces,3.1.5,60.10132458253232,
condition files/Stage1_1.xlsx,,B2,T1,m,"['c', 'm']","['Clue', 'Monopoly']","[-0.15, 0.5]","[0.15, 0.5]",1,1,,,,,,,,,0,0,0,0,0,2,2,2,,,,,,,,,,,,,,,,,,,,,,,,,,,,,,,,,,,,,,,,,,,,,,,,,,,,,,,460.153973384,None,460.153973384,None,460.153973384,None,c,0,1.329334481000842,461.68965637699876,None,461.68965637699876,None,461.68965637699876,None,463.07213434299956,None,463.07213434299956,None,463.07213434299956,None,463.07213434299956,None,,,,,,,,,,,,,,,,,,,,,,,,,,,,,,,,,,,,,,,,,,,,001,38,2020_Jan_30_1216,spring_faces,3.1.5,60.10132458253232,
condition files/Stage1_1.xlsx,,B3,T3,c,"['c', 'm']","['Clue', 'Monopoly']","[-0.15, 0.5]","[0.15, 0.5]",1,1,,,,,,,,,0,0,0,0,0,3,3,4,,,,,,,,,,,,,,,,,,,,,,,,,,,,,,,,,,,,,,,,,,,,,,,,,,,,,,,465.03763416699985,None,465.03763416699985,None,465.03763416699985,None,m,0,1.375956961999691,466.57114248499965,None,466.57114248499965,None,466.57114248499965,None,468.00728270499894,None,468.00728270499894,None,468.00728270499894,None,468.00728270499894,None,,,,,,,,,,,,,,,,,,,,,,,,,,,,,,,,,,,,,,,,,,,,001,38,2020_Jan_30_1216,spring_faces,3.1.5,60.10132458253232,
condition files/Stage1_1.xlsx,,T4,B3,m,"['c', 'm']","['Clue', 'Monopoly']","[-0.15, 0.5]","[0.15, 0.5]",1,1,,,,,,,,,0,0,0,0,0,4,4,6,,,,,,,,,,,,,,,,,,,,,,,,,,,,,,,,,,,,,,,,,,,,,,,,,,,,,,,469.9709569079987,None,469.9709569079987,None,469.9709569079987,None,m,1,1.1139635199997429,471.52100044799954,None,471.52100044799954,None,471.52100044799954,None,472.6902379139992,None,472.6902379139992,None,472.6902379139992,None,472.6902379139992,None,,,,,,,,,,,,,,,,,,,,,,,,,,,,,,,,,,,,,,,,,,,,001,38,2020_Jan_30_1216,spring_faces,3.1.5,60.10132458253232,
condition files/Stage1_1.xlsx,,B1,T2,c,"['c', 'm']","['Clue', 'Monopoly']","[-0.15, 0.5]","[0.15, 0.5]",1,1,,,,,,,,,0,0,0,0,0,5,5,1,,,,,,,,,,,,,,,,,,,,,,,,,,,,,,,,,,,,,,,,,,,,,,,,,,,,,,,474.654306724,None,474.654306724,None,474.654306724,None,c,1,1.24378237000019,476.23915889699856,None,476.23915889699856,None,476.23915889699856,None,477.5380486939994,None,477.5380486939994,None,477.5380486939994,None,477.5380486939994,None,,,,,,,,,,,,,,,,,,,,,,,,,,,,,,,,,,,,,,,,,,,,001,38,2020_Jan_30_1216,spring_faces,3.1.5,60.10132458253232,
condition files/Stage1_1.xlsx,,B4,T4,m,"['c', 'm']","['Clue', 'Monopoly']","[-0.15, 0.5]","[0.15, 0.5]",1,1,,,,,,,,,0,0,0,0,0,6,6,7,,,,,,,,,,,,,,,,,,,,,,,,,,,,,,,,,,,,,,,,,,,,,,,,,,,,,,,479.5042956189991,None,479.5042956189991,None,479.5042956189991,None,m,1,1.213369667999359,481.03765002199907,None,481.03765002199907,None,481.03765002199907,None,482.30415091399846,None,482.30415091399846,None,482.30415091399846,None,482.30415091399846,None,,,,,,,,,,,,,,,,,,,,,,,,,,,,,,,,,,,,,,,,,,,,001,38,2020_Jan_30_1216,spring_faces,3.1.5,60.10132458253232,
condition files/Stage1_1.xlsx,,T2,B2,m,"['c', 'm']","['Clue', 'Monopoly']","[-0.15, 0.5]","[0.15, 0.5]",1,1,,,,,,,,,0,0,0,0,0,7,7,3,,,,,,,,,,,,,,,,,,,,,,,,,,,,,,,,,,,,,,,,,,,,,,,,,,,,,,,484.27110537799854,None,484.27110537799854,None,484.27110537799854,None,c,0,1.0067138340000383,485.80430532899845,None,485.80430532899845,None,485.80430532899845,None,486.8714423019992,None,486.8714423019992,None,486.8714423019992,None,486.8714423019992,None,,,,,,,,,,,,,,,,,,,,,,,,,,,,,,,,,,,,,,,,,,,,001,38,2020_Jan_30_1216,spring_faces,3.1.5,60.10132458253232,
condition files/Stage1_2.xlsx,,B3,T4,m,"['c', 'm']","['Clue', 'Monopoly']","[-0.15, 0.5]","[0.15, 0.5]",1,1,,,,,,,,,0,1,1,1,0,0,0,6,,,,,,,,,,,,,,,,,,,,,,,,,,,,,,,,,,,,,,,,,,,,,,,,,,,,,,,488.85462617699886,None,488.85462617699886,None,488.85462617699886,None,m,1,1.7168880709996301,490.3901167599997,None,490.3901167599997,None,490.3901167599997,None,492.17123907099995,None,492.17123907099995,None,492.17123907099995,None,492.17123907099995,None,,,,,,,,,,,,,,,,,,,,,,,,,,,,,,,,,,,,,,,,,,,,001,38,2020_Jan_30_1216,spring_faces,3.1.5,60.10132458253232,
condition files/Stage1_2.xlsx,,B2,T2,m,"['c', 'm']","['Clue', 'Monopoly']","[-0.15, 0.5]","[0.15, 0.5]",1,1,,,,,,,,,0,1,1,1,0,1,1,3,,,,,,,,,,,,,,,,,,,,,,,,,,,,,,,,,,,,,,,,,,,,,,,,,,,,,,,494.1376120059995,None,494.1376120059995,None,494.1376120059995,None,m,1,0.7716527329994278,495.67135452599905,None,495.67135452599905,None,495.67135452599905,None,496.5047587329991,None,496.5047587329991,None,496.5047587329991,None,496.5047587329991,None,,,,,,,,,,,,,,,,,,,,,,,,,,,,,,,,,,,,,,,,,,,,001,38,2020_Jan_30_1216,spring_faces,3.1.5,60.10132458253232,
condition files/Stage1_2.xlsx,,B1,T1,c,"['c', 'm']","['Clue', 'Monopoly']","[-0.15, 0.5]","[0.15, 0.5]",1,1,,,,,,,,,0,1,1,1,0,2,2,0,,,,,,,,,,,,,,,,,,,,,,,,,,,,,,,,,,,,,,,,,,,,,,,,,,,,,,,498.47091994699986,None,498.47091994699986,None,498.47091994699986,None,c,1,0.9495530000003782,500.00538888999836,None,500.00538888999836,None,500.00538888999836,None,501.03792207199876,None,501.03792207199876,None,501.03792207199876,None,501.03792207199876,None,,,,,,,,,,,,,,,,,,,,,,,,,,,,,,,,,,,,,,,,,,,,001,38,2020_Jan_30_1216,spring_faces,3.1.5,60.10132458253232,
condition files/Stage1_2.xlsx,,T2,B1,c,"['c', 'm']","['Clue', 'Monopoly']","[-0.15, 0.5]","[0.15, 0.5]",1,1,,,,,,,,,0,1,1,1,0,3,3,1,,,,,,,,,,,,,,,,,,,,,,,,,,,,,,,,,,,,,,,,,,,,,,,,,,,,,,,502.9876531919999,None,502.9876531919999,None,502.9876531919999,None,m,0,0.8492608550004661,504.53773992899914,None,504.53773992899914,None,504.53773992899914,None,505.43728407599883,None,505.43728407599883,None,505.43728407599883,None,505.43728407599883,None,,,,,,,,,,,,,,,,,,,,,,,,,,,,,,,,,,,,,,,,,,,,001,38,2020_Jan_30_1216,spring_faces,3.1.5,60.10132458253232,
condition files/Stage1_2.xlsx,,B4,T3,c,"['c', 'm']","['Clue', 'Monopoly']","[-0.15, 0.5]","[0.15, 0.5]",1,1,,,,,,,,,0,1,1,1,0,4,4,5,,,,,,,,,,,,,,,,,,,,,,,,,,,,,,,,,,,,,,,,,,,,,,,,,,,,,,,507.4043095319994,None,507.4043095319994,None,507.4043095319994,None,c,1,0.9924897509990842,508.954561216,None,508.954561216,None,508.954561216,None,510.0045804169986,None,510.0045804169986,None,510.0045804169986,None,510.0045804169986,None,,,,,,,,,,,,,,,,,,,,,,,,,,,,,,,,,,,,,,,,,,,,001,38,2020_Jan_30_1216,spring_faces,3.1.5,60.10132458253232,
condition files/Stage1_2.xlsx,,T4,B4,m,"['c', 'm']","['Clue', 'Monopoly']","[-0.15, 0.5]","[0.15, 0.5]",1,1,,,,,,,,,0,1,1,1,0,5,5,7,,,,,,,,,,,,,,,,,,,,,,,,,,,,,,,,,,,,,,,,,,,,,,,,,,,,,,,511.97109131899924,None,511.97109131899924,None,511.97109131899924,None,m,1,1.6083398619994114,513.5067163699987,None,513.5067163699987,None,513.5067163699987,None,515.1720511929998,None,515.1720511929998,None,515.1720511929998,None,515.1720511929998,None,,,,,,,,,,,,,,,,,,,,,,,,,,,,,,,,,,,,,,,,,,,,001,38,2020_Jan_30_1216,spring_faces,3.1.5,60.10132458253232,
condition files/Stage1_2.xlsx,,T3,B3,c,"['c', 'm']","['Clue', 'Monopoly']","[-0.15, 0.5]","[0.15, 0.5]",1,1,,,,,,,,,0,1,1,1,0,6,6,4,,,,,,,,,,,,,,,,,,,,,,,,,,,,,,,,,,,,,,,,,,,,,,,,,,,,,,,517.1376168579991,None,517.1376168579991,None,517.1376168579991,None,c,1,0.9709554910004954,518.6880451389989,None,518.6880451389989,None,518.6880451389989,None,519.7227923229984,None,519.7227923229984,None,519.7227923229984,None,519.7227923229984,None,,,,,,,,,,,,,,,,,,,,,,,,,,,,,,,,,,,,,,,,,,,,001,38,2020_Jan_30_1216,spring_faces,3.1.5,60.10132458253232,
condition files/Stage1_2.xlsx,,T1,B2,m,"['c', 'm']","['Clue', 'Monopoly']","[-0.15, 0.5]","[0.15, 0.5]",1,1,,,,,,,,,0,1,1,1,0,7,7,2,,,,,,,,,,,,,,,,,,,,,,,,,,,,,,,,,,,,,,,,,,,,,,,,,,,,,,,521.6875791449984,None,521.6875791449984,None,521.6875791449984,None,m,1,0.9484873359997437,523.2225203589987,None,523.2225203589987,None,523.2225203589987,None,524.2228921629994,None,524.2228921629994,None,524.2228921629994,None,524.2228921629994,None,,,,,,,,,,,,,,,,,,,,,,,,,,,,,,,,,,,,,,,,,,,,001,38,2020_Jan_30_1216,spring_faces,3.1.5,60.10132458253232,
condition files/Stage1_1.xlsx,,B1,T2,c,"['c', 'm']","['Clue', 'Monopoly']","[-0.15, 0.5]","[0.15, 0.5]",1,1,,,,,,,,,0,2,2,2,0,0,0,1,,,,,,,,,,,,,,,,,,,,,,,,,,,,,,,,,,,,,,,,,,,,,,,,,,,,,,,526.2046513689984,None,526.2046513689984,None,526.2046513689984,None,m,0,1.1834072829988145,527.739584297,None,527.739584297,None,527.739584297,None,528.9880435889991,None,528.9880435889991,None,528.9880435889991,None,528.9880435889991,None,,,,,,,,,,,,,,,,,,,,,,,,,,,,,,,,,,,,,,,,,,,,001,38,2020_Jan_30_1216,spring_faces,3.1.5,60.10132458253232,
condition files/Stage1_1.xlsx,,T4,B3,m,"['c', 'm']","['Clue', 'Monopoly']","[-0.15, 0.5]","[0.15, 0.5]",1,1,,,,,,,,,0,2,2,2,0,1,1,6,,,,,,,,,,,,,,,,,,,,,,,,,,,,,,,,,,,,,,,,,,,,,,,,,,,,,,,530.9541521269985,None,530.9541521269985,None,530.9541521269985,None,m,1,0.979415998001059,532.4875377079989,None,532.4875377079989,None,532.4875377079989,None,533.5229723099983,None,533.5229723099983,None,533.5229723099983,None,533.5229723099983,None,,,,,,,,,,,,,,,,,,,,,,,,,,,,,,,,,,,,,,,,,,,,001,38,2020_Jan_30_1216,spring_faces,3.1.5,60.10132458253232,
condition files/Stage1_1.xlsx,,B3,T3,c,"['c', 'm']","['Clue', 'Monopoly']","[-0.15, 0.5]","[0.15, 0.5]",1,1,,,,,,,,,0,2,2,2,0,2,2,4,,,,,,,,,,,,,,,,,,,,,,,,,,,,,,,,,,,,,,,,,,,,,,,,,,,,,,,535.4869707049984,None,535.4869707049984,None,535.4869707049984,None,c,1,1.0223076279999077,537.020682385999,None,537.020682385999,None,537.020682385999,None,538.1065840189985,None,538.1065840189985,None,538.1065840189985,None,538.1065840189985,None,,,,,,,,,,,,,,,,,,,,,,,,,,,,,,,,,,,,,,,,,,,,001,38,2020_Jan_30_1216,spring_faces,3.1.5,60.10132458253232,
condition files/Stage1_1.xlsx,,T1,B1,c,"['c', 'm']","['Clue', 'Monopoly']","[-0.15, 0.5]","[0.15, 0.5]",1,1,,,,,,,,,0,2,2,2,0,3,3,0,,,,,,,,,,,,,,,,,,,,,,,,,,,,,,,,,,,,,,,,,,,,,,,,,,,,,,,540.0709974149995,None,540.0709974149995,None,540.0709974149995,None,m,0,0.9984470130002592,541.6045588759989,None,541.6045588759989,None,541.6045588759989,None,542.6541644489989,None,542.6541644489989,None,542.6541644489989,None,542.6541644489989,None,,,,,,,,,,,,,,,,,,,,,,,,,,,,,,,,,,,,,,,,,,,,001,38,2020_Jan_30_1216,spring_faces,3.1.5,60.10132458253232,
condition files/Stage1_1.xlsx,,B2,T1,m,"['c', 'm']","['Clue', 'Monopoly']","[-0.15, 0.5]","[0.15, 0.5]",1,1,,,,,,,,,0,2,2,2,0,4,4,2,,,,,,,,,,,,,,,,,,,,,,,,,,,,,,,,,,,,,,,,,,,,,,,,,,,,,,,544.6210017489993,None,544.6210017489993,None,544.6210017489993,None,m,1,0.8305253299986362,546.1564710349994,None,546.1564710349994,None,546.1564710349994,None,547.0402011429996,None,547.0402011429996,None,547.0402011429996,None,547.0402011429996,None,,,,,,,,,,,,,,,,,,,,,,,,,,,,,,,,,,,,,,,,,,,,001,38,2020_Jan_30_1216,spring_faces,3.1.5,60.10132458253232,
condition files/Stage1_1.xlsx,,T2,B2,m,"['c', 'm']","['Clue', 'Monopoly']","[-0.15, 0.5]","[0.15, 0.5]",1,1,,,,,,,,,0,2,2,2,0,5,5,3,,,,,,,,,,,,,,,,,,,,,,,,,,,,,,,,,,,,,,,,,,,,,,,,,,,,,,,549.0043381469986,None,549.0043381469986,None,549.0043381469986,None,m,1,1.2013463610001054,550.537644475,None,550.537644475,None,550.537644475,None,551.8045989489983,None,551.8045989489983,None,551.8045989489983,None,551.8045989489983,None,,,,,,,,,,,,,,,,,,,,,,,,,,,,,,,,,,,,,,,,,,,,001,38,2020_Jan_30_1216,spring_faces,3.1.5,60.10132458253232,
condition files/Stage1_1.xlsx,,B4,T4,m,"['c', 'm']","['Clue', 'Monopoly']","[-0.15, 0.5]","[0.15, 0.5]",1,1,,,,,,,,,0,2,2,2,0,6,6,7,,,,,,,,,,,,,,,,,,,,,,,,,,,,,,,,,,,,,,,,,,,,,,,,,,,,,,,553.7708525599992,None,553.7708525599992,None,553.7708525599992,None,c,0,1.0109204799991858,555.3040968649984,None,555.3040968649984,None,555.3040968649984,None,556.3713483469983,None,556.3713483469983,None,556.3713483469983,None,556.3713483469983,None,,,,,,,,,,,,,,,,,,,,,,,,,,,,,,,,,,,,,,,,,,,,001,38,2020_Jan_30_1216,spring_faces,3.1.5,60.10132458253232,
condition files/Stage1_1.xlsx,,T3,B4,c,"['c', 'm']","['Clue', 'Monopoly']","[-0.15, 0.5]","[0.15, 0.5]",1,1,,,,,,,,,0,2,2,2,0,7,7,5,,,,,,,,,,,,,,,,,,,,,,,,,,,,,,,,,,,,,,,,,,,,,,,,,,,,,,,558.3376099359994,None,558.3376099359994,None,558.3376099359994,None,c,1,1.2601427939989662,559.8708702849999,None,559.8708702849999,None,559.8708702849999,None,561.203857905999,None,561.203857905999,None,561.203857905999,None,561.203857905999,None,,,,,,,,,,,,,,,,,,,,,,,,,,,,,,,,,,,,,,,,,,,,001,38,2020_Jan_30_1216,spring_faces,3.1.5,60.10132458253232,
condition files/Stage1_2.xlsx,,B3,T4,m,"['c', 'm']","['Clue', 'Monopoly']","[-0.15, 0.5]","[0.15, 0.5]",1,1,,,,,,,,,0,3,3,3,0,0,0,6,,,,,,,,,,,,,,,,,,,,,,,,,,,,,,,,,,,,,,,,,,,,,,,,,,,,,,,563.1711387639989,None,563.1711387639989,None,563.1711387639989,None,m,1,1.2894712470006198,564.7055840919984,None,564.7055840919984,None,564.7055840919984,None,566.0565641539997,None,566.0565641539997,None,566.0565641539997,None,566.0565641539997,None,,,,,,,,,,,,,,,,,,,,,,,,,,,,,,,,,,,,,,,,,,,,001,38,2020_Jan_30_1216,spring_faces,3.1.5,60.10132458253232,
condition files/Stage1_2.xlsx,,T1,B2,m,"['c', 'm']","['Clue', 'Monopoly']","[-0.15, 0.5]","[0.15, 0.5]",1,1,,,,,,,,,0,3,3,3,0,1,1,2,,,,,,,,,,,,,,,,,,,,,,,,,,,,,,,,,,,,,,,,,,,,,,,,,,,,,,,568.0210635839994,None,568.0210635839994,None,568.0210635839994,None,m,1,1.0648739120006212,569.5540996609998,None,569.5540996609998,None,569.5540996609998,None,570.6709893089992,None,570.6709893089992,None,570.6709893089992,None,570.6709893089992,None,,,,,,,,,,,,,,,,,,,,,,,,,,,,,,,,,,,,,,,,,,,,001,38,2020_Jan_30_1216,spring_faces,3.1.5,60.10132458253232,
condition files/Stage1_2.xlsx,,B4,T3,c,"['c', 'm']","['Clue', 'Monopoly']","[-0.15, 0.5]","[0.15, 0.5]",1,1,,,,,,,,,0,3,3,3,0,2,2,5,,,,,,,,,,,,,,,,,,,,,,,,,,,,,,,,,,,,,,,,,,,,,,,,,,,,,,,572.6376969559988,None,572.6376969559988,None,572.6376969559988,None,c,1,1.2963324400006968,574.1706376879993,None,574.1706376879993,None,574.1706376879993,None,575.5233712009995,None,575.5233712009995,None,575.5233712009995,None,575.5233712009995,None,,,,,,,,,,,,,,,,,,,,,,,,,,,,,,,,,,,,,,,,,,,,001,38,2020_Jan_30_1216,spring_faces,3.1.5,60.10132458253232,
condition files/Stage1_2.xlsx,,T4,B4,m,"['c', 'm']","['Clue', 'Monopoly']","[-0.15, 0.5]","[0.15, 0.5]",1,1,,,,,,,,,0,3,3,3,0,3,3,7,,,,,,,,,,,,,,,,,,,,,,,,,,,,,,,,,,,,,,,,,,,,,,,,,,,,,,,577.4871272569999,None,577.4871272569999,None,577.4871272569999,None,m,1,1.3393616299999849,579.0236856709998,None,579.0236856709998,None,579.0236856709998,None,580.4225552279986,None,580.4225552279986,None,580.4225552279986,None,580.4225552279986,None,,,,,,,,,,,,,,,,,,,,,,,,,,,,,,,,,,,,,,,,,,,,001,38,2020_Jan_30_1216,spring_faces,3.1.5,60.10132458253232,
condition files/Stage1_2.xlsx,,B1,T1,c,"['c', 'm']","['Clue', 'Monopoly']","[-0.15, 0.5]","[0.15, 0.5]",1,1,,,,,,,,,0,3,3,3,0,4,4,0,,,,,,,,,,,,,,,,,,,,,,,,,,,,,,,,,,,,,,,,,,,,,,,,,,,,,,,582.387362264999,None,582.387362264999,None,582.387362264999,None,c,1,0.8560363710003003,583.9230159669987,None,583.9230159669987,None,583.9230159669987,None,584.8397784129993,None,584.8397784129993,None,584.8397784129993,None,584.8397784129993,None,,,,,,,,,,,,,,,,,,,,,,,,,,,,,,,,,,,,,,,,,,,,001,38,2020_Jan_30_1216,spring_faces,3.1.5,60.10132458253232,
condition files/Stage1_2.xlsx,,B2,T2,m,"['c', 'm']","['Clue', 'Monopoly']","[-0.15, 0.5]","[0.15, 0.5]",1,1,,,,,,,,,0,3,3,3,0,5,5,3,,,,,,,,,,,,,,,,,,,,,,,,,,,,,,,,,,,,,,,,,,,,,,,,,,,,,,,586.8046484419992,None,586.8046484419992,None,586.8046484419992,None,m,1,0.6646184440014622,588.3383878959994,None,588.3383878959994,None,588.3383878959994,None,589.056576772,None,589.056576772,None,589.056576772,None,589.056576772,None,,,,,,,,,,,,,,,,,,,,,,,,,,,,,,,,,,,,,,,,,,,,001,38,2020_Jan_30_1216,spring_faces,3.1.5,60.10132458253232,
condition files/Stage1_2.xlsx,,T3,B3,c,"['c', 'm']","['Clue', 'Monopoly']","[-0.15, 0.5]","[0.15, 0.5]",1,1,,,,,,,,,0,3,3,3,0,6,6,4,,,,,,,,,,,,,,,,,,,,,,,,,,,,,,,,,,,,,,,,,,,,,,,,,,,,,,,591.0207993089989,None,591.0207993089989,None,591.0207993089989,None,c,1,0.9435752790013794,592.5714450879987,None,592.5714450879987,None,592.5714450879987,None,593.5878540329995,None,593.5878540329995,None,593.5878540329995,None,593.5878540329995,None,,,,,,,,,,,,,,,,,,,,,,,,,,,,,,,,,,,,,,,,,,,,001,38,2020_Jan_30_1216,spring_faces,3.1.5,60.10132458253232,
condition files/Stage1_2.xlsx,,T2,B1,c,"['c', 'm']","['Clue', 'Monopoly']","[-0.15, 0.5]","[0.15, 0.5]",1,1,,,,,,,,,0,3,3,3,0,7,7,1,,,,,,,,,,,,,,,,,,,,,,,,,,,,,,,,,,,,,,,,,,,,,,,,,,,,,,,595.53694344,None,595.53694344,None,595.53694344,None,c,1,1.2281003370007966,597.0708521739998,None,597.0708521739998,None,597.0708521739998,None,598.3545498079984,None,598.3545498079984,None,598.3545498079984,None,598.3545498079984,None,,,,,,,,,,,,,,,,,,,,,,,,,,,,,,,,,,,,,,,,,,,,001,38,2020_Jan_30_1216,spring_faces,3.1.5,60.10132458253232,
condition files/Stage1_1.xlsx,,T3,B4,c,"['c', 'm']","['Clue', 'Monopoly']","[-0.15, 0.5]","[0.15, 0.5]",1,1,,,,,,,,,0,4,4,4,0,0,0,5,,,,,,,,,,,,,,,,,,,,,,,,,,,,,,,,,,,,,,,,,,,,,,,,,,,,,,,600.3378743249996,None,600.3378743249996,None,600.3378743249996,None,c,1,0.811105464999855,601.8878436259984,None,601.8878436259984,None,601.8878436259984,None,602.7544086779999,None,602.7544086779999,None,602.7544086779999,None,602.7544086779999,None,,,,,,,,,,,,,,,,,,,,,,,,,,,,,,,,,,,,,,,,,,,,001,38,2020_Jan_30_1216,spring_faces,3.1.5,60.10132458253232,
condition files/Stage1_1.xlsx,,T4,B3,m,"['c', 'm']","['Clue', 'Monopoly']","[-0.15, 0.5]","[0.15, 0.5]",1,1,,,,,,,,,0,4,4,4,0,1,1,6,,,,,,,,,,,,,,,,,,,,,,,,,,,,,,,,,,,,,,,,,,,,,,,,,,,,,,,604.7209391899996,None,604.7209391899996,None,604.7209391899996,None,m,1,0.7316641299985349,606.2553527529999,None,606.2553527529999,None,606.2553527529999,None,607.0541950099996,None,607.0541950099996,None,607.0541950099996,None,607.0541950099996,None,,,,,,,,,,,,,,,,,,,,,,,,,,,,,,,,,,,,,,,,,,,,001,38,2020_Jan_30_1216,spring_faces,3.1.5,60.10132458253232,
condition files/Stage1_1.xlsx,,B1,T2,c,"['c', 'm']","['Clue', 'Monopoly']","[-0.15, 0.5]","[0.15, 0.5]",1,1,,,,,,,,,0,4,4,4,0,2,2,1,,,,,,,,,,,,,,,,,,,,,,,,,,,,,,,,,,,,,,,,,,,,,,,,,,,,,,,609.0043805349997,None,609.0043805349997,None,609.0043805349997,None,c,1,1.2638692000000447,610.5391450419993,None,610.5391450419993,None,610.5391450419993,None,611.8544194059996,None,611.8544194059996,None,611.8544194059996,None,611.8544194059996,None,,,,,,,,,,,,,,,,,,,,,,,,,,,,,,,,,,,,,,,,,,,,001,38,2020_Jan_30_1216,spring_faces,3.1.5,60.10132458253232,
condition files/Stage1_1.xlsx,,T1,B1,c,"['c', 'm']","['Clue', 'Monopoly']","[-0.15, 0.5]","[0.15, 0.5]",1,1,,,,,,,,,0,4,4,4,0,3,3,0,,,,,,,,,,,,,,,,,,,,,,,,,,,,,,,,,,,,,,,,,,,,,,,,,,,,,,,613.8207732849987,None,613.8207732849987,None,613.8207732849987,None,c,1,1.3931033419994492,615.3539609159998,None,615.3539609159998,None,615.3539609159998,None,616.8046487669999,None,616.8046487669999,None,616.8046487669999,None,616.8046487669999,None,,,,,,,,,,,,,,,,,,,,,,,,,,,,,,,,,,,,,,,,,,,,001,38,2020_Jan_30_1216,spring_faces,3.1.5,60.10132458253232,
condition files/Stage1_1.xlsx,,B3,T3,c,"['c', 'm']","['Clue', 'Monopoly']","[-0.15, 0.5]","[0.15, 0.5]",1,1,,,,,,,,,0,4,4,4,0,4,4,4,,,,,,,,,,,,,,,,,,,,,,,,,,,,,,,,,,,,,,,,,,,,,,,,,,,,,,,618.7710407750001,None,618.7710407750001,None,618.7710407750001,None,c,1,1.114448717000414,620.3045450419995,None,620.3045450419995,None,620.3045450419995,None,621.4707829719991,None,621.4707829719991,None,621.4707829719991,None,621.4707829719991,None,,,,,,,,,,,,,,,,,,,,,,,,,,,,,,,,,,,,,,,,,,,,001,38,2020_Jan_30_1216,spring_faces,3.1.5,60.10132458253232,
condition files/Stage1_1.xlsx,,B2,T1,m,"['c', 'm']","['Clue', 'Monopoly']","[-0.15, 0.5]","[0.15, 0.5]",1,1,,,,,,,,,0,4,4,4,0,5,5,2,,,,,,,,,,,,,,,,,,,,,,,,,,,,,,,,,,,,,,,,,,,,,,,,,,,,,,,623.4376453069999,None,623.4376453069999,None,623.4376453069999,None,m,1,0.7199807799988776,624.9710104059996,None,624.9710104059996,None,624.9710104059996,None,625.7545251809988,None,625.7545251809988,None,625.7545251809988,None,625.7545251809988,None,,,,,,,,,,,,,,,,,,,,,,,,,,,,,,,,,,,,,,,,,,,,001,38,2020_Jan_30_1216,spring_faces,3.1.5,60.10132458253232,
condition files/Stage1_1.xlsx,,T2,B2,m,"['c', 'm']","['Clue', 'Monopoly']","[-0.15, 0.5]","[0.15, 0.5]",1,1,,,,,,,,,0,4,4,4,0,6,6,3,,,,,,,,,,,,,,,,,,,,,,,,,,,,,,,,,,,,,,,,,,,,,,,,,,,,,,,627.7213490489994,None,627.7213490489994,None,627.7213490489994,None,m,1,0.7886458140001196,629.2543443049999,None,629.2543443049999,None,629.2543443049999,None,630.10446185,None,630.10446185,None,630.10446185,None,630.10446185,None,,,,,,,,,,,,,,,,,,,,,,,,,,,,,,,,,,,,,,,,,,,,001,38,2020_Jan_30_1216,spring_faces,3.1.5,60.10132458253232,
condition files/Stage1_1.xlsx,,B4,T4,m,"['c', 'm']","['Clue', 'Monopoly']","[-0.15, 0.5]","[0.15, 0.5]",1,1,,,,,,,,,0,4,4,4,0,7,7,7,,,,,,,,,,,,,,,,,,,,,,,,,,,,,,,,,,,,,,,,,,,,,,,,,,,,,,,632.0705270029994,None,632.0705270029994,None,632.0705270029994,None,m,1,1.2703742850007984,633.6046395949998,None,633.6046395949998,None,633.6046395949998,None,634.9379404579995,None,634.9379404579995,None,634.9379404579995,None,634.9379404579995,None,,,,,,,,,,,,,,,,,,,,,,,,,,,,,,,,,,,,,,,,,,,,001,38,2020_Jan_30_1216,spring_faces,3.1.5,60.10132458253232,
condition files/Stage1_2.xlsx,,B4,T3,c,"['c', 'm']","['Clue', 'Monopoly']","[-0.15, 0.5]","[0.15, 0.5]",1,1,,,,,,,,,0,5,5,5,0,0,0,5,,,,,,,,,,,,,,,,,,,,,,,,,,,,,,,,,,,,,,,,,,,,,,,,,,,,,,,636.9212392459995,None,636.9212392459995,None,636.9212392459995,None,c,1,0.9327240670008905,638.4542228139999,None,638.4542228139999,None,638.4542228139999,None,639.4382197429986,None,639.4382197429986,None,639.4382197429986,None,639.4382197429986,None,,,,,,,,,,,,,,,,,,,,,,,,,,,,,,,,,,,,,,,,,,,,001,38,2020_Jan_30_1216,spring_faces,3.1.5,60.10132458253232,
condition files/Stage1_2.xlsx,,B2,T2,m,"['c', 'm']","['Clue', 'Monopoly']","[-0.15, 0.5]","[0.15, 0.5]",1,1,,,,,,,,,0,5,5,5,0,1,1,3,,,,,,,,,,,,,,,,,,,,,,,,,,,,,,,,,,,,,,,,,,,,,,,,,,,,,,,641.4044226949991,None,641.4044226949991,None,641.4044226949991,None,m,1,0.8787516869997489,642.9402409629984,None,642.9402409629984,None,642.9402409629984,None,643.8722836559991,None,643.8722836559991,None,643.8722836559991,None,643.8722836559991,None,,,,,,,,,,,,,,,,,,,,,,,,,,,,,,,,,,,,,,,,,,,,001,38,2020_Jan_30_1216,spring_faces,3.1.5,60.10132458253232,
condition files/Stage1_2.xlsx,,B1,T1,c,"['c', 'm']","['Clue', 'Monopoly']","[-0.15, 0.5]","[0.15, 0.5]",1,1,,,,,,,,,0,5,5,5,0,2,2,0,,,,,,,,,,,,,,,,,,,,,,,,,,,,,,,,,,,,,,,,,,,,,,,,,,,,,,,645.8372303460001,None,645.8372303460001,None,645.8372303460001,None,c,1,0.7838551619988721,647.3711185009997,None,647.3711185009997,None,647.3711185009997,None,648.2207711629999,None,648.2207711629999,None,648.2207711629999,None,648.2207711629999,None,,,,,,,,,,,,,,,,,,,,,,,,,,,,,,,,,,,,,,,,,,,,001,38,2020_Jan_30_1216,spring_faces,3.1.5,60.10132458253232,
condition files/Stage1_2.xlsx,,B3,T4,m,"['c', 'm']","['Clue', 'Monopoly']","[-0.15, 0.5]","[0.15, 0.5]",1,1,,,,,,,,,0,5,5,5,0,3,3,6,,,,,,,,,,,,,,,,,,,,,,,,,,,,,,,,,,,,,,,,,,,,,,,,,,,,,,,650.1870328079985,None,650.1870328079985,None,650.1870328079985,None,m,1,1.138019415000599,651.7209949029984,None,651.7209949029984,None,651.7209949029984,None,652.9234788379999,None,652.9234788379999,None,652.9234788379999,None,652.9234788379999,None,,,,,,,,,,,,,,,,,,,,,,,,,,,,,,,,,,,,,,,,,,,,001,38,2020_Jan_30_1216,spring_faces,3.1.5,60.10132458253232,
condition files/Stage1_2.xlsx,,T1,B2,m,"['c', 'm']","['Clue', 'Monopoly']","[-0.15, 0.5]","[0.15, 0.5]",1,1,,,,,,,,,0,5,5,5,0,4,4,2,,,,,,,,,,,,,,,,,,,,,,,,,,,,,,,,,,,,,,,,,,,,,,,,,,,,,,,654.8875748769988,None,654.8875748769988,None,654.8875748769988,None,m,1,0.9819248610001523,656.4210348589986,None,656.4210348589986,None,656.4210348589986,None,657.454704365,None,657.454704365,None,657.454704365,None,657.454704365,None,,,,,,,,,,,,,,,,,,,,,,,,,,,,,,,,,,,,,,,,,,,,001,38,2020_Jan_30_1216,spring_faces,3.1.5,60.10132458253232,
condition files/Stage1_2.xlsx,,T4,B4,m,"['c', 'm']","['Clue', 'Monopoly']","[-0.15, 0.5]","[0.15, 0.5]",1,1,,,,,,,,,0,5,5,5,0,5,5,7,,,,,,,,,,,,,,,,,,,,,,,,,,,,,,,,,,,,,,,,,,,,,,,,,,,,,,,659.420279987,None,659.420279987,None,659.420279987,None,m,1,0.9764745560005395,660.9545422779993,None,660.9545422779993,None,660.9545422779993,None,661.9880298559983,None,661.9880298559983,None,661.9880298559983,None,661.9880298559983,None,,,,,,,,,,,,,,,,,,,,,,,,,,,,,,,,,,,,,,,,,,,,001,38,2020_Jan_30_1216,spring_faces,3.1.5,60.10132458253232,
condition files/Stage1_2.xlsx,,T3,B3,c,"['c', 'm']","['Clue', 'Monopoly']","[-0.15, 0.5]","[0.15, 0.5]",1,1,,,,,,,,,0,5,5,5,0,6,6,4,,,,,,,,,,,,,,,,,,,,,,,,,,,,,,,,,,,,,,,,,,,,,,,,,,,,,,,663.9541777399991,None,663.9541777399991,None,663.9541777399991,None,c,1,0.9231834580004943,665.487856370999,None,665.487856370999,None,665.487856370999,None,666.473123193,None,666.473123193,None,666.473123193,None,666.473123193,None,,,,,,,,,,,,,,,,,,,,,,,,,,,,,,,,,,,,,,,,,,,,001,38,2020_Jan_30_1216,spring_faces,3.1.5,60.10132458253232,
condition files/Stage1_2.xlsx,,T2,B1,c,"['c', 'm']","['Clue', 'Monopoly']","[-0.15, 0.5]","[0.15, 0.5]",1,1,,,,,,,,,0,5,5,5,0,7,7,1,,,,,,,,,,,,,,,,,,,,,,,,,,,,,,,,,,,,,,,,,,,,,,,,,,,,,,,668.437472742,None,668.437472742,None,668.437472742,None,c,1,1.4321678380001686,669.9708452749983,None,669.9708452749983,None,669.9708452749983,None,671.4545797689989,None,671.4545797689989,None,671.4545797689989,None,671.4545797689989,None,,,,,,,,,,,,,,,,,,,,,,,,,,,,,,,,,,,,,,,,,,,,001,38,2020_Jan_30_1216,spring_faces,3.1.5,60.10132458253232,
condition files/Stage1_1.xlsx,,B3,T3,c,"['c', 'm']","['Clue', 'Monopoly']","[-0.15, 0.5]","[0.15, 0.5]",1,1,,,,,,,,,0,6,6,6,0,0,0,4,,,,,,,,,,,,,,,,,,,,,,,,,,,,,,,,,,,,,,,,,,,,,,,,,,,,,,,673.4381438669989,None,673.4381438669989,None,673.4381438669989,None,c,1,0.7515464409989363,674.971446947,None,674.971446947,None,674.971446947,None,675.7875694239992,None,675.7875694239992,None,675.7875694239992,None,675.7875694239992,None,,,,,,,,,,,,,,,,,,,,,,,,,,,,,,,,,,,,,,,,,,,,001,38,2020_Jan_30_1216,spring_faces,3.1.5,60.10132458253232,
condition files/Stage1_1.xlsx,,B1,T2,c,"['c', 'm']","['Clue', 'Monopoly']","[-0.15, 0.5]","[0.15, 0.5]",1,1,,,,,,,,,0,6,6,6,0,1,1,1,,,,,,,,,,,,,,,,,,,,,,,,,,,,,,,,,,,,,,,,,,,,,,,,,,,,,,,677.7540944409993,None,677.7540944409993,None,677.7540944409993,None,c,1,1.1384648030016251,679.3045232479999,None,679.3045232479999,None,679.3045232479999,None,680.5050005949997,None,680.5050005949997,None,680.5050005949997,None,680.5050005949997,None,,,,,,,,,,,,,,,,,,,,,,,,,,,,,,,,,,,,,,,,,,,,001,38,2020_Jan_30_1216,spring_faces,3.1.5,60.10132458253232,
condition files/Stage1_1.xlsx,,B4,T4,m,"['c', 'm']","['Clue', 'Monopoly']","[-0.15, 0.5]","[0.15, 0.5]",1,1,,,,,,,,,0,6,6,6,0,2,2,7,,,,,,,,,,,,,,,,,,,,,,,,,,,,,,,,,,,,,,,,,,,,,,,,,,,,,,,682.4710397869985,None,682.4710397869985,None,682.4710397869985,None,m,1,1.0630057389989815,684.0039836939995,None,684.0039836939995,None,684.0039836939995,None,685.1219449329983,None,685.1219449329983,None,685.1219449329983,None,685.1219449329983,None,,,,,,,,,,,,,,,,,,,,,,,,,,,,,,,,,,,,,,,,,,,,001,38,2020_Jan_30_1216,spring_faces,3.1.5,60.10132458253232,
condition files/Stage1_1.xlsx,,T3,B4,c,"['c', 'm']","['Clue', 'Monopoly']","[-0.15, 0.5]","[0.15, 0.5]",1,1,,,,,,,,,0,6,6,6,0,3,3,5,,,,,,,,,,,,,,,,,,,,,,,,,,,,,,,,,,,,,,,,,,,,,,,,,,,,,,,687.0873150049993,None,687.0873150049993,None,687.0873150049993,None,c,1,1.1017569649993675,688.6212248889988,None,688.6212248889988,None,688.6212248889988,None,689.7899610289987,None,689.7899610289987,None,689.7899610289987,None,689.7899610289987,None,,,,,,,,,,,,,,,,,,,,,,,,,,,,,,,,,,,,,,,,,,,,001,38,2020_Jan_30_1216,spring_faces,3.1.5,60.10132458253232,
condition files/Stage1_1.xlsx,,B2,T1,m,"['c', 'm']","['Clue', 'Monopoly']","[-0.15, 0.5]","[0.15, 0.5]",1,1,,,,,,,,,0,6,6,6,0,4,4,2,,,,,,,,,,,,,,,,,,,,,,,,,,,,,,,,,,,,,,,,,,,,,,,,,,,,,,,691.7538171819997,None,691.7538171819997,None,691.7538171819997,None,m,1,0.8833040360004816,693.2877011009987,None,693.2877011009987,None,693.2877011009987,None,694.2374629739988,None,694.2374629739988,None,694.2374629739988,None,694.2374629739988,None,,,,,,,,,,,,,,,,,,,,,,,,,,,,,,,,,,,,,,,,,,,,001,38,2020_Jan_30_1216,spring_faces,3.1.5,60.10132458253232,
condition files/Stage1_1.xlsx,,T1,B1,c,"['c', 'm']","['Clue', 'Monopoly']","[-0.15, 0.5]","[0.15, 0.5]",1,1,,,,,,,,,0,6,6,6,0,5,5,0,,,,,,,,,,,,,,,,,,,,,,,,,,,,,,,,,,,,,,,,,,,,,,,,,,,,,,,696.1874899729992,None,696.1874899729992,None,696.1874899729992,None,c,1,1.185812278999947,697.7212070369987,None,697.7212070369987,None,697.7212070369987,None,698.9738854779989,None,698.9738854779989,None,698.9738854779989,None,698.9738854779989,None,,,,,,,,,,,,,,,,,,,,,,,,,,,,,,,,,,,,,,,,,,,,001,38,2020_Jan_30_1216,spring_faces,3.1.5,60.10132458253232,
condition files/Stage1_1.xlsx,,T4,B3,m,"['c', 'm']","['Clue', 'Monopoly']","[-0.15, 0.5]","[0.15, 0.5]",1,1,,,,,,,,,0,6,6,6,0,6,6,6,,,,,,,,,,,,,,,,,,,,,,,,,,,,,,,,,,,,,,,,,,,,,,,,,,,,,,,700.9376357609999,None,700.9376357609999,None,700.9376357609999,None,m,1,1.1718000000000757,702.4712150889991,None,702.4712150889991,None,702.4712150889991,None,703.7051146629983,None,703.7051146629983,None,703.7051146629983,None,703.7051146629983,None,,,,,,,,,,,,,,,,,,,,,,,,,,,,,,,,,,,,,,,,,,,,001,38,2020_Jan_30_1216,spring_faces,3.1.5,60.10132458253232,
condition files/Stage1_1.xlsx,,T2,B2,m,"['c', 'm']","['Clue', 'Monopoly']","[-0.15, 0.5]","[0.15, 0.5]",1,1,,,,,,,,,0,6,6,6,0,7,7,3,,,,,,,,,,,,,,,,,,,,,,,,,,,,,,,,,,,,,,,,,,,,,,,,,,,,,,,705.6710408249983,None,705.6710408249983,None,705.6710408249983,None,m,1,1.1735100530004274,707.2215248129996,None,707.2215248129996,None,707.2215248129996,None,708.4542893629987,None,708.4542893629987,None,708.4542893629987,None,708.4542893629987,None,,,,,,,,,,,,,,,,,,,,,,,,,,,,,,,,,,,,,,,,,,,,001,38,2020_Jan_30_1216,spring_faces,3.1.5,60.10132458253232,
condition files/Stage1_2.xlsx,,T2,B1,c,"['c', 'm']","['Clue', 'Monopoly']","[-0.15, 0.5]","[0.15, 0.5]",1,1,,,,,,,,,0,7,7,7,0,0,0,1,,,,,,,,,,,,,,,,,,,,,,,,,,,,,,,,,,,,,,,,,,,,,,,,,,,,,,,710.4377139769986,None,710.4377139769986,None,710.4377139769986,None,c,1,0.9991460029996233,711.9878717089996,None,711.9878717089996,None,711.9878717089996,None,713.0545913939986,None,713.0545913939986,None,713.0545913939986,None,713.0545913939986,None,,,,,,,,,,,,,,,,,,,,,,,,,,,,,,,,,,,,,,,,,,,,001,38,2020_Jan_30_1216,spring_faces,3.1.5,60.10132458253232,
condition files/Stage1_2.xlsx,,B4,T3,c,"['c', 'm']","['Clue', 'Monopoly']","[-0.15, 0.5]","[0.15, 0.5]",1,1,,,,,,,,,0,7,7,7,0,1,1,5,,,,,,,,,,,,,,,,,,,,,,,,,,,,,,,,,,,,,,,,,,,,,,,,,,,,,,,715.0043814289984,None,715.0043814289984,None,715.0043814289984,None,c,1,1.2810760520005715,716.5538842659989,None,716.5538842659989,None,716.5538842659989,None,717.8872993799996,None,717.8872993799996,None,717.8872993799996,None,717.8872993799996,None,,,,,,,,,,,,,,,,,,,,,,,,,,,,,,,,,,,,,,,,,,,,001,38,2020_Jan_30_1216,spring_faces,3.1.5,60.10132458253232,
condition files/Stage1_2.xlsx,,B1,T1,c,"['c', 'm']","['Clue', 'Monopoly']","[-0.15, 0.5]","[0.15, 0.5]",1,1,,,,,,,,,0,7,7,7,0,2,2,0,,,,,,,,,,,,,,,,,,,,,,,,,,,,,,,,,,,,,,,,,,,,,,,,,,,,,,,719.854544505999,None,719.854544505999,None,719.854544505999,None,c,1,0.9270105799987505,721.3880458229996,None,721.3880458229996,None,721.3880458229996,None,722.3712475799985,None,722.3712475799985,None,722.3712475799985,None,722.3712475799985,None,,,,,,,,,,,,,,,,,,,,,,,,,,,,,,,,,,,,,,,,,,,,001,38,2020_Jan_30_1216,spring_faces,3.1.5,60.10132458253232,
condition files/Stage1_2.xlsx,,T1,B2,m,"['c', 'm']","['Clue', 'Monopoly']","[-0.15, 0.5]","[0.15, 0.5]",1,1,,,,,,,,,0,7,7,7,0,3,3,2,,,,,,,,,,,,,,,,,,,,,,,,,,,,,,,,,,,,,,,,,,,,,,,,,,,,,,,724.3368189809989,None,724.3368189809989,None,724.3368189809989,None,m,1,0.7474314930004766,725.8715459259984,None,725.8715459259984,None,725.8715459259984,None,726.6881432619994,None,726.6881432619994,None,726.6881432619994,None,726.6881432619994,None,,,,,,,,,,,,,,,,,,,,,,,,,,,,,,,,,,,,,,,,,,,,001,38,2020_Jan_30_1216,spring_faces,3.1.5,60.10132458253232,
condition files/Stage1_2.xlsx,,B2,T2,m,"['c', 'm']","['Clue', 'Monopoly']","[-0.15, 0.5]","[0.15, 0.5]",1,1,,,,,,,,,0,7,7,7,0,4,4,3,,,,,,,,,,,,,,,,,,,,,,,,,,,,,,,,,,,,,,,,,,,,,,,,,,,,,,,728.6373772379993,None,728.6373772379993,None,728.6373772379993,None,m,1,0.8800759429996106,730.1709421279993,None,730.1709421279993,None,730.1709421279993,None,731.104763927,None,731.104763927,None,731.104763927,None,731.104763927,None,,,,,,,,,,,,,,,,,,,,,,,,,,,,,,,,,,,,,,,,,,,,001,38,2020_Jan_30_1216,spring_faces,3.1.5,60.10132458253232,
condition files/Stage1_2.xlsx,,T4,B4,m,"['c', 'm']","['Clue', 'Monopoly']","[-0.15, 0.5]","[0.15, 0.5]",1,1,,,,,,,,,0,7,7,7,0,5,5,7,,,,,,,,,,,,,,,,,,,,,,,,,,,,,,,,,,,,,,,,,,,,,,,,,,,,,,,733.0711064159987,None,733.0711064159987,None,733.0711064159987,None,m,1,0.7823773989985057,734.6046410569998,None,734.6046410569998,None,734.6046410569998,None,735.4378547669985,None,735.4378547669985,None,735.4378547669985,None,735.4378547669985,None,,,,,,,,,,,,,,,,,,,,,,,,,,,,,,,,,,,,,,,,,,,,001,38,2020_Jan_30_1216,spring_faces,3.1.5,60.10132458253232,
condition files/Stage1_2.xlsx,,T3,B3,c,"['c', 'm']","['Clue', 'Monopoly']","[-0.15, 0.5]","[0.15, 0.5]",1,1,,,,,,,,,0,7,7,7,0,6,6,4,,,,,,,,,,,,,,,,,,,,,,,,,,,,,,,,,,,,,,,,,,,,,,,,,,,,,,,737.4039943529988,None,737.4039943529988,None,737.4039943529988,None,c,1,0.8003544399998646,738.9385845950001,None,738.9385845950001,None,738.9385845950001,None,739.8040729199984,None,739.8040729199984,None,739.8040729199984,None,739.8040729199984,None,,,,,,,,,,,,,,,,,,,,,,,,,,,,,,,,,,,,,,,,,,,,001,38,2020_Jan_30_1216,spring_faces,3.1.5,60.10132458253232,
condition files/Stage1_2.xlsx,,B3,T4,m,"['c', 'm']","['Clue', 'Monopoly']","[-0.15, 0.5]","[0.15, 0.5]",1,1,,,,,,,,,0,7,7,7,0,7,7,6,,,,,,,,,,,,,,,,,,,,,,,,,,,,,,,,,,,,,,,,,,,,,,,,,,,,,,,741.770645265,None,741.770645265,None,741.770645265,None,m,1,0.7223317590014631,743.3046746629989,None,743.3046746629989,None,743.3046746629989,None,744.1047653959995,None,744.1047653959995,None,744.1047653959995,None,744.1047653959995,None,,,,,,,,,,,,,,,,,,,,,,,,,,,,,,,,,,,,,,,,,,,,001,38,2020_Jan_30_1216,spring_faces,3.1.5,60.10132458253232,
condition files/Stage1_1.xlsx,,B3,T3,c,"['c', 'm']","['Clue', 'Monopoly']","[-0.15, 0.5]","[0.15, 0.5]",1,1,,,,,,,,,0,8,8,8,0,0,0,4,,,,,,,,,,,,,,,,,,,,,,,,,,,,,,,,,,,,,,,,,,,,,,,,,,,,,,,746.070774890999,None,746.070774890999,None,746.070774890999,None,c,1,0.822864487001425,747.6041608029991,None,747.6041608029991,None,747.6041608029991,None,748.4875710899996,None,748.4875710899996,None,748.4875710899996,None,748.4875710899996,None,,,,,,,,,,,,,,,,,,,,,,,,,,,,,,,,,,,,,,,,,,,,001,38,2020_Jan_30_1216,spring_faces,3.1.5,60.10132458253232,
condition files/Stage1_1.xlsx,,T3,B4,c,"['c', 'm']","['Clue', 'Monopoly']","[-0.15, 0.5]","[0.15, 0.5]",1,1,,,,,,,,,0,8,8,8,0,1,1,5,,,,,,,,,,,,,,,,,,,,,,,,,,,,,,,,,,,,,,,,,,,,,,,,,,,,,,,750.4542278339995,None,750.4542278339995,None,750.4542278339995,None,c,1,0.9354655759998423,751.9875035409987,None,751.9875035409987,None,751.9875035409987,None,752.9877131689991,None,752.9877131689991,None,752.9877131689991,None,752.9877131689991,None,,,,,,,,,,,,,,,,,,,,,,,,,,,,,,,,,,,,,,,,,,,,001,38,2020_Jan_30_1216,spring_faces,3.1.5,60.10132458253232,
condition files/Stage1_1.xlsx,,T1,B1,c,"['c', 'm']","['Clue', 'Monopoly']","[-0.15, 0.5]","[0.15, 0.5]",1,1,,,,,,,,,0,8,8,8,0,2,2,0,,,,,,,,,,,,,,,,,,,,,,,,,,,,,,,,,,,,,,,,,,,,,,,,,,,,,,,754.9543399019985,None,754.9543399019985,None,754.9543399019985,None,c,1,2.0010749610009952,756.4899242319989,None,756.4899242319989,None,756.4899242319989,None,758.5545732929986,None,758.5545732929986,None,758.5545732929986,None,758.5545732929986,None,,,,,,,,,,,,,,,,,,,,,,,,,,,,,,,,,,,,,,,,,,,,001,38,2020_Jan_30_1216,spring_faces,3.1.5,60.10132458253232,
condition files/Stage1_1.xlsx,,B2,T1,m,"['c', 'm']","['Clue', 'Monopoly']","[-0.15, 0.5]","[0.15, 0.5]",1,1,,,,,,,,,0,8,8,8,0,3,3,2,,,,,,,,,,,,,,,,,,,,,,,,,,,,,,,,,,,,,,,,,,,,,,,,,,,,,,,760.5208970979984,None,760.5208970979984,None,760.5208970979984,None,m,1,0.9488466729999345,762.0541417709992,None,762.0541417709992,None,762.0541417709992,None,763.0547266419999,None,763.0547266419999,None,763.0547266419999,None,763.0547266419999,None,,,,,,,,,,,,,,,,,,,,,,,,,,,,,,,,,,,,,,,,,,,,001,38,2020_Jan_30_1216,spring_faces,3.1.5,60.10132458253232,
condition files/Stage1_1.xlsx,,B1,T2,c,"['c', 'm']","['Clue', 'Monopoly']","[-0.15, 0.5]","[0.15, 0.5]",1,1,,,,,,,,,0,8,8,8,0,4,4,1,,,,,,,,,,,,,,,,,,,,,,,,,,,,,,,,,,,,,,,,,,,,,,,,,,,,,,,765.0207738109984,None,765.0207738109984,None,765.0207738109984,None,c,1,0.9133112720010104,766.553678061,None,766.553678061,None,766.553678061,None,767.5219298429984,None,767.5219298429984,None,767.5219298429984,None,767.5219298429984,None,,,,,,,,,,,,,,,,,,,,,,,,,,,,,,,,,,,,,,,,,,,,001,38,2020_Jan_30_1216,spring_faces,3.1.5,60.10132458253232,
condition files/Stage1_1.xlsx,,T2,B2,m,"['c', 'm']","['Clue', 'Monopoly']","[-0.15, 0.5]","[0.15, 0.5]",1,1,,,,,,,,,0,8,8,8,0,5,5,3,,,,,,,,,,,,,,,,,,,,,,,,,,,,,,,,,,,,,,,,,,,,,,,,,,,,,,,769.4876641759984,None,769.4876641759984,None,769.4876641759984,None,m,1,0.6998759380003321,771.0231233149989,None,771.0231233149989,None,771.0231233149989,None,771.790255246,None,771.790255246,None,771.790255246,None,771.790255246,None,,,,,,,,,,,,,,,,,,,,,,,,,,,,,,,,,,,,,,,,,,,,001,38,2020_Jan_30_1216,spring_faces,3.1.5,60.10132458253232,
condition files/Stage1_1.xlsx,,B4,T4,m,"['c', 'm']","['Clue', 'Monopoly']","[-0.15, 0.5]","[0.15, 0.5]",1,1,,,,,,,,,0,8,8,8,0,6,6,7,,,,,,,,,,,,,,,,,,,,,,,,,,,,,,,,,,,,,,,,,,,,,,,,,,,,,,,773.7543370629992,None,773.7543370629992,None,773.7543370629992,None,m,1,1.3296173849994375,775.2893839909993,None,775.2893839909993,None,775.2893839909993,None,776.6710377569998,None,776.6710377569998,None,776.6710377569998,None,776.6710377569998,None,,,,,,,,,,,,,,,,,,,,,,,,,,,,,,,,,,,,,,,,,,,,001,38,2020_Jan_30_1216,spring_faces,3.1.5,60.10132458253232,
condition files/Stage1_1.xlsx,,T4,B3,m,"['c', 'm']","['Clue', 'Monopoly']","[-0.15, 0.5]","[0.15, 0.5]",1,1,,,,,,,,,0,8,8,8,0,7,7,6,,,,,,,,,,,,,,,,,,,,,,,,,,,,,,,,,,,,,,,,,,,,,,,,,,,,,,,778.6372373369995,None,778.6372373369995,None,778.6372373369995,None,m,1,0.7520767440000782,780.1709035079984,None,780.1709035079984,None,780.1709035079984,None,780.9881359809988,None,780.9881359809988,None,780.9881359809988,None,780.9881359809988,None,,,,,,,,,,,,,,,,,,,,,,,,,,,,,,,,,,,,,,,,,,,,001,38,2020_Jan_30_1216,spring_faces,3.1.5,60.10132458253232,
condition files/Stage1_2.xlsx,,T4,B4,m,"['c', 'm']","['Clue', 'Monopoly']","[-0.15, 0.5]","[0.15, 0.5]",1,1,,,,,,,,,0,9,9,9,0,0,0,7,,,,,,,,,,,,,,,,,,,,,,,,,,,,,,,,,,,,,,,,,,,,,,,,,,,,,,,782.9713220979993,None,782.9713220979993,None,782.9713220979993,None,m,1,0.6586367060008342,784.5044243289994,None,784.5044243289994,None,784.5044243289994,None,785.2212579319985,None,785.2212579319985,None,785.2212579319985,None,785.2212579319985,None,,,,,,,,,,,,,,,,,,,,,,,,,,,,,,,,,,,,,,,,,,,,001,38,2020_Jan_30_1216,spring_faces,3.1.5,60.10132458253232,
condition files/Stage1_2.xlsx,,T2,B1,c,"['c', 'm']","['Clue', 'Monopoly']","[-0.15, 0.5]","[0.15, 0.5]",1,1,,,,,,,,,0,9,9,9,0,1,1,1,,,,,,,,,,,,,,,,,,,,,,,,,,,,,,,,,,,,,,,,,,,,,,,,,,,,,,,787.1869033059993,None,787.1869033059993,None,787.1869033059993,None,c,1,1.161224712999683,788.737703892999,None,788.737703892999,None,788.737703892999,None,789.9552641249993,None,789.9552641249993,None,789.9552641249993,None,789.9552641249993,None,,,,,,,,,,,,,,,,,,,,,,,,,,,,,,,,,,,,,,,,,,,,001,38,2020_Jan_30_1216,spring_faces,3.1.5,60.10132458253232,
condition files/Stage1_2.xlsx,,B4,T3,c,"['c', 'm']","['Clue', 'Monopoly']","[-0.15, 0.5]","[0.15, 0.5]",1,1,,,,,,,,,0,9,9,9,0,2,2,5,,,,,,,,,,,,,,,,,,,,,,,,,,,,,,,,,,,,,,,,,,,,,,,,,,,,,,,791.920359533,None,791.920359533,None,791.920359533,None,c,1,0.9728166380009498,793.4542212910001,None,793.4542212910001,None,793.4542212910001,None,794.4881648579994,None,794.4881648579994,None,794.4881648579994,None,794.4881648579994,None,,,,,,,,,,,,,,,,,,,,,,,,,,,,,,,,,,,,,,,,,,,,001,38,2020_Jan_30_1216,spring_faces,3.1.5,60.10132458253232,
condition files/Stage1_2.xlsx,,T3,B3,c,"['c', 'm']","['Clue', 'Monopoly']","[-0.15, 0.5]","[0.15, 0.5]",1,1,,,,,,,,,0,9,9,9,0,3,3,4,,,,,,,,,,,,,,,,,,,,,,,,,,,,,,,,,,,,,,,,,,,,,,,,,,,,,,,796.454251191999,None,796.454251191999,None,796.454251191999,None,c,1,1.0638445879994833,797.9873205649983,None,797.9873205649983,None,797.9873205649983,None,799.104123105999,None,799.104123105999,None,799.104123105999,None,799.104123105999,None,,,,,,,,,,,,,,,,,,,,,,,,,,,,,,,,,,,,,,,,,,,,001,38,2020_Jan_30_1216,spring_faces,3.1.5,60.10132458253232,
condition files/Stage1_2.xlsx,,B3,T4,m,"['c', 'm']","['Clue', 'Monopoly']","[-0.15, 0.5]","[0.15, 0.5]",1,1,,,,,,,,,0,9,9,9,0,4,4,6,,,,,,,,,,,,,,,,,,,,,,,,,,,,,,,,,,,,,,,,,,,,,,,,,,,,,,,801.0705302759998,None,801.0705302759998,None,801.0705302759998,None,m,1,0.9749830969994946,802.6040741259985,None,802.6040741259985,None,802.6040741259985,None,803.6397937999991,None,803.6397937999991,None,803.6397937999991,None,803.6397937999991,None,,,,,,,,,,,,,,,,,,,,,,,,,,,,,,,,,,,,,,,,,,,,001,38,2020_Jan_30_1216,spring_faces,3.1.5,60.10132458253232,
condition files/Stage1_2.xlsx,,B2,T2,m,"['c', 'm']","['Clue', 'Monopoly']","[-0.15, 0.5]","[0.15, 0.5]",1,1,,,,,,,,,0,9,9,9,0,5,5,3,,,,,,,,,,,,,,,,,,,,,,,,,,,,,,,,,,,,,,,,,,,,,,,,,,,,,,,805.604330094,None,805.604330094,None,805.604330094,None,m,1,0.6151129709996894,807.1398348019993,None,807.1398348019993,None,807.1398348019993,None,807.8212590189996,None,807.8212590189996,None,807.8212590189996,None,807.8212590189996,None,,,,,,,,,,,,,,,,,,,,,,,,,,,,,,,,,,,,,,,,,,,,001,38,2020_Jan_30_1216,spring_faces,3.1.5,60.10132458253232,
condition files/Stage1_2.xlsx,,B1,T1,c,"['c', 'm']","['Clue', 'Monopoly']","[-0.15, 0.5]","[0.15, 0.5]",1,1,,,,,,,,,0,9,9,9,0,6,6,0,,,,,,,,,,,,,,,,,,,,,,,,,,,,,,,,,,,,,,,,,,,,,,,,,,,,,,,809.7876239149991,None,809.7876239149991,None,809.7876239149991,None,c,1,0.6420282580002095,811.3210306909987,None,811.3210306909987,None,811.3210306909987,None,812.0206463309987,None,812.0206463309987,None,812.0206463309987,None,812.0206463309987,None,,,,,,,,,,,,,,,,,,,,,,,,,,,,,,,,,,,,,,,,,,,,001,38,2020_Jan_30_1216,spring_faces,3.1.5,60.10132458253232,
condition files/Stage1_2.xlsx,,T1,B2,m,"['c', 'm']","['Clue', 'Monopoly']","[-0.15, 0.5]","[0.15, 0.5]",1,1,,,,,,,,,0,9,9,9,0,7,7,2,,,,,,,,,,,,,,,,,,,,,,,,,,,,,,,,,,,,,,,,,,,,,,,,,,,,,,,813.987936517,None,813.987936517,None,813.987936517,None,m,1,0.7459319700010383,815.5210712689986,None,815.5210712689986,None,815.5210712689986,None,816.3220193299985,None,816.3220193299985,None,816.3220193299985,None,816.3220193299985,None,,,,,,,,,,,,,,,,,,,,,,,,,,,,,,,,,,,,,,,,,,,,001,38,2020_Jan_30_1216,spring_faces,3.1.5,60.10132458253232,
condition files/Stage1_1.xlsx,,B1,T2,c,"['c', 'm']","['Clue', 'Monopoly']","[-0.15, 0.5]","[0.15, 0.5]",1,1,,,,,,,,,0,10,10,10,0,0,0,1,,,,,,,,,,,,,,,,,,,,,,,,,,,,,,,,,,,,,,,,,,,,,,,,,,,,,,,818.3045654369998,None,818.3045654369998,None,818.3045654369998,None,c,1,1.0375054400010413,819.8375203219985,None,819.8375203219985,None,819.8375203219985,None,820.9377211269984,None,820.9377211269984,None,820.9377211269984,None,820.9377211269984,None,,,,,,,,,,,,,,,,,,,,,,,,,,,,,,,,,,,,,,,,,,,,001,38,2020_Jan_30_1216,spring_faces,3.1.5,60.10132458253232,
condition files/Stage1_1.xlsx,,T4,B3,m,"['c', 'm']","['Clue', 'Monopoly']","[-0.15, 0.5]","[0.15, 0.5]",1,1,,,,,,,,,0,10,10,10,0,1,1,6,,,,,,,,,,,,,,,,,,,,,,,,,,,,,,,,,,,,,,,,,,,,,,,,,,,,,,,822.9043485679995,None,822.9043485679995,None,822.9043485679995,None,m,1,0.7092552359990805,824.4378461469987,None,824.4378461469987,None,824.4378461469987,None,825.2212701139997,None,825.2212701139997,None,825.2212701139997,None,825.2212701139997,None,,,,,,,,,,,,,,,,,,,,,,,,,,,,,,,,,,,,,,,,,,,,001,38,2020_Jan_30_1216,spring_faces,3.1.5,60.10132458253232,
condition files/Stage1_1.xlsx,,T1,B1,c,"['c', 'm']","['Clue', 'Monopoly']","[-0.15, 0.5]","[0.15, 0.5]",1,1,,,,,,,,,0,10,10,10,0,2,2,0,,,,,,,,,,,,,,,,,,,,,,,,,,,,,,,,,,,,,,,,,,,,,,,,,,,,,,,827.1710574469998,None,827.1710574469998,None,827.1710574469998,None,c,1,1.019253889000538,828.703730874,None,828.703730874,None,828.703730874,None,829.8039307159997,None,829.8039307159997,None,829.8039307159997,None,829.8039307159997,None,,,,,,,,,,,,,,,,,,,,,,,,,,,,,,,,,,,,,,,,,,,,001,38,2020_Jan_30_1216,spring_faces,3.1.5,60.10132458253232,
condition files/Stage1_1.xlsx,,T3,B4,c,"['c', 'm']","['Clue', 'Monopoly']","[-0.15, 0.5]","[0.15, 0.5]",1,1,,,,,,,,,0,10,10,10,0,3,3,5,,,,,,,,,,,,,,,,,,,,,,,,,,,,,,,,,,,,,,,,,,,,,,,,,,,,,,,831.754305986,None,831.754305986,None,831.754305986,None,c,1,1.280875491000188,833.2901408749985,None,833.2901408749985,None,833.2901408749985,None,834.6214831669986,None,834.6214831669986,None,834.6214831669986,None,834.6214831669986,None,,,,,,,,,,,,,,,,,,,,,,,,,,,,,,,,,,,,,,,,,,,,001,38,2020_Jan_30_1216,spring_faces,3.1.5,60.10132458253232,
condition files/Stage1_1.xlsx,,T2,B2,m,"['c', 'm']","['Clue', 'Monopoly']","[-0.15, 0.5]","[0.15, 0.5]",1,1,,,,,,,,,0,10,10,10,0,4,4,3,,,,,,,,,,,,,,,,,,,,,,,,,,,,,,,,,,,,,,,,,,,,,,,,,,,,,,,836.5872189889997,None,836.5872189889997,None,836.5872189889997,None,m,1,0.9139375849990756,838.1209788409997,None,838.1209788409997,None,838.1209788409997,None,839.1045473710001,None,839.1045473710001,None,839.1045473710001,None,839.1045473710001,None,,,,,,,,,,,,,,,,,,,,,,,,,,,,,,,,,,,,,,,,,,,,001,38,2020_Jan_30_1216,spring_faces,3.1.5,60.10132458253232,
condition files/Stage1_1.xlsx,,B3,T3,c,"['c', 'm']","['Clue', 'Monopoly']","[-0.15, 0.5]","[0.15, 0.5]",1,1,,,,,,,,,0,10,10,10,0,5,5,4,,,,,,,,,,,,,,,,,,,,,,,,,,,,,,,,,,,,,,,,,,,,,,,,,,,,,,,841.0543379749997,None,841.0543379749997,None,841.0543379749997,None,c,1,0.8132126199998311,842.5897999419994,None,842.5897999419994,None,842.5897999419994,None,843.4568051649985,None,843.4568051649985,None,843.4568051649985,None,843.4568051649985,None,,,,,,,,,,,,,,,,,,,,,,,,,,,,,,,,,,,,,,,,,,,,001,38,2020_Jan_30_1216,spring_faces,3.1.5,60.10132458253232,
condition files/Stage1_1.xlsx,,B4,T4,m,"['c', 'm']","['Clue', 'Monopoly']","[-0.15, 0.5]","[0.15, 0.5]",1,1,,,,,,,,,0,10,10,10,0,6,6,7,,,,,,,,,,,,,,,,,,,,,,,,,,,,,,,,,,,,,,,,,,,,,,,,,,,,,,,845.4210524169994,None,845.4210524169994,None,845.4210524169994,None,m,1,0.6724118000001909,846.9546394259996,None,846.9546394259996,None,846.9546394259996,None,847.7043355869992,None,847.7043355869992,None,847.7043355869992,None,847.7043355869992,None,,,,,,,,,,,,,,,,,,,,,,,,,,,,,,,,,,,,,,,,,,,,001,38,2020_Jan_30_1216,spring_faces,3.1.5,60.10132458253232,
condition files/Stage1_1.xlsx,,B2,T1,m,"['c', 'm']","['Clue', 'Monopoly']","[-0.15, 0.5]","[0.15, 0.5]",1,1,,,,,,,,,0,10,10,10,0,7,7,2,,,,,,,,,,,,,,,,,,,,,,,,,,,,,,,,,,,,,,,,,,,,,,,,,,,,,,,849.6536509409998,None,849.6536509409998,None,849.6536509409998,None,m,1,0.9038199459992029,851.1872064569998,None,851.1872064569998,None,851.1872064569998,None,852.1545504529986,None,852.1545504529986,None,852.1545504529986,None,852.1545504529986,None,,,,,,,,,,,,,,,,,,,,,,,,,,,,,,,,,,,,,,,,,,,,001,38,2020_Jan_30_1216,spring_faces,3.1.5,60.10132458253232,
condition files/Stage1_2.xlsx,,B3,T4,m,"['c', 'm']","['Clue', 'Monopoly']","[-0.15, 0.5]","[0.15, 0.5]",1,1,,,,,,,,,0,11,11,11,0,0,0,6,,,,,,,,,,,,,,,,,,,,,,,,,,,,,,,,,,,,,,,,,,,,,,,,,,,,,,,854.1380690789993,None,854.1380690789993,None,854.1380690789993,None,m,1,1.5708981649986526,855.6720987829995,None,855.6720987829995,None,855.6720987829995,None,857.3044439689984,None,857.3044439689984,None,857.3044439689984,None,857.3044439689984,None,,,,,,,,,,,,,,,,,,,,,,,,,,,,,,,,,,,,,,,,,,,,001,38,2020_Jan_30_1216,spring_faces,3.1.5,60.10132458253232,
condition files/Stage1_2.xlsx,,T4,B4,m,"['c', 'm']","['Clue', 'Monopoly']","[-0.15, 0.5]","[0.15, 0.5]",1,1,,,,,,,,,0,11,11,11,0,1,1,7,,,,,,,,,,,,,,,,,,,,,,,,,,,,,,,,,,,,,,,,,,,,,,,,,,,,,,,859.2710820569991,None,859.2710820569991,None,859.2710820569991,None,m,1,0.8067601490001834,860.8041955069984,None,860.8041955069984,None,860.8041955069984,None,861.6712564159989,None,861.6712564159989,None,861.6712564159989,None,861.6712564159989,None,,,,,,,,,,,,,,,,,,,,,,,,,,,,,,,,,,,,,,,,,,,,001,38,2020_Jan_30_1216,spring_faces,3.1.5,60.10132458253232,
condition files/Stage1_2.xlsx,,T2,B1,c,"['c', 'm']","['Clue', 'Monopoly']","[-0.15, 0.5]","[0.15, 0.5]",1,1,,,,,,,,,0,11,11,11,0,2,2,1,,,,,,,,,,,,,,,,,,,,,,,,,,,,,,,,,,,,,,,,,,,,,,,,,,,,,,,863.6373768099984,None,863.6373768099984,None,863.6373768099984,None,c,1,0.919831710998551,865.1711935629992,None,865.1711935629992,None,865.1711935629992,None,866.1541571629987,None,866.1541571629987,None,866.1541571629987,None,866.1541571629987,None,,,,,,,,,,,,,,,,,,,,,,,,,,,,,,,,,,,,,,,,,,,,001,38,2020_Jan_30_1216,spring_faces,3.1.5,60.10132458253232,
condition files/Stage1_2.xlsx,,T3,B3,c,"['c', 'm']","['Clue', 'Monopoly']","[-0.15, 0.5]","[0.15, 0.5]",1,1,,,,,,,,,0,11,11,11,0,3,3,4,,,,,,,,,,,,,,,,,,,,,,,,,,,,,,,,,,,,,,,,,,,,,,,,,,,,,,,868.1207395309993,None,868.1207395309993,None,868.1207395309993,None,c,1,1.3008411789996899,869.6541057209997,None,869.6541057209997,None,869.6541057209997,None,871.0206027099994,None,871.0206027099994,None,871.0206027099994,None,871.0206027099994,None,,,,,,,,,,,,,,,,,,,,,,,,,,,,,,,,,,,,,,,,,,,,001,38,2020_Jan_30_1216,spring_faces,3.1.5,60.10132458253232,
condition files/Stage1_2.xlsx,,B4,T3,c,"['c', 'm']","['Clue', 'Monopoly']","[-0.15, 0.5]","[0.15, 0.5]",1,1,,,,,,,,,0,11,11,11,0,4,4,5,,,,,,,,,,,,,,,,,,,,,,,,,,,,,,,,,,,,,,,,,,,,,,,,,,,,,,,872.9876067519999,None,872.9876067519999,None,872.9876067519999,None,c,1,0.9771083519990498,874.5379338169987,None,874.5379338169987,None,874.5379338169987,None,875.5712590089988,None,875.5712590089988,None,875.5712590089988,None,875.5712590089988,None,,,,,,,,,,,,,,,,,,,,,,,,,,,,,,,,,,,,,,,,,,,,001,38,2020_Jan_30_1216,spring_faces,3.1.5,60.10132458253232,
condition files/Stage1_2.xlsx,,T1,B2,m,"['c', 'm']","['Clue', 'Monopoly']","[-0.15, 0.5]","[0.15, 0.5]",1,1,,,,,,,,,0,11,11,11,0,5,5,2,,,,,,,,,,,,,,,,,,,,,,,,,,,,,,,,,,,,,,,,,,,,,,,,,,,,,,,877.537215684999,None,877.537215684999,None,877.537215684999,None,m,1,0.6676573980003013,879.0713060509988,None,879.0713060509988,None,879.0713060509988,None,879.8211760259983,None,879.8211760259983,None,879.8211760259983,None,879.8211760259983,None,,,,,,,,,,,,,,,,,,,,,,,,,,,,,,,,,,,,,,,,,,,,001,38,2020_Jan_30_1216,spring_faces,3.1.5,60.10132458253232,
condition files/Stage1_2.xlsx,,B1,T1,c,"['c', 'm']","['Clue', 'Monopoly']","[-0.15, 0.5]","[0.15, 0.5]",1,1,,,,,,,,,0,11,11,11,0,6,6,0,,,,,,,,,,,,,,,,,,,,,,,,,,,,,,,,,,,,,,,,,,,,,,,,,,,,,,,881.7710060249992,None,881.7710060249992,None,881.7710060249992,None,c,1,0.7548290049999196,883.3041965399989,None,883.3041965399989,None,883.3041965399989,None,884.1208455749984,None,884.1208455749984,None,884.1208455749984,None,884.1208455749984,None,,,,,,,,,,,,,,,,,,,,,,,,,,,,,,,,,,,,,,,,,,,,001,38,2020_Jan_30_1216,spring_faces,3.1.5,60.10132458253232,
condition files/Stage1_2.xlsx,,B2,T2,m,"['c', 'm']","['Clue', 'Monopoly']","[-0.15, 0.5]","[0.15, 0.5]",1,1,,,,,,,,,0,11,11,11,0,7,7,3,,,,,,,,,,,,,,,,,,,,,,,,,,,,,,,,,,,,,,,,,,,,,,,,,,,,,,,886.0877947249992,None,886.0877947249992,None,886.0877947249992,None,m,1,0.7101725909997185,887.6208654899983,None,887.6208654899983,None,887.6208654899983,None,888.4044283269996,None,888.4044283269996,None,888.4044283269996,None,888.4044283269996,None,,,,,,,,,,,,,,,,,,,,,,,,,,,,,,,,,,,,,,,,,,,,001,38,2020_Jan_30_1216,spring_faces,3.1.5,60.10132458253232,
,,,,,,,,,,,,,,,,,,,,,,,,,,,,,,,,,,,,,,,,,,,,,,,,,,,,,,,,,,,,,,,,,,,,,,,,,,,,,,,,,,,,,,,,,,,,,,,,,,,,,,,,,,,,,,,,890.3710828049989,None,space,6.575937204001093,895.3711535139992,None,,,,,,,,,,,,,,,,,,,,,,,,,,,,,,001,38,2020_Jan_30_1216,spring_faces,3.1.5,60.10132458253232,
condition files/Stage2_1.xlsx,,B6,T6,r,"['s', 'r']","['Stratego', 'Risk']","[-0.15, 0.5]","[0.15, 0.5]",1,1,,,,,,,,,,,,,,,,,0,0,0,0,0,0,0,1,,,,,,,,,,,,,,,,,,,,,,,,,,,,,,,,,,,,,,,,,,,,,,,902.0047802749996,None,902.0047802749996,None,902.0047802749996,None,s,0,1.2909045630003675,903.5041507059996,None,903.5041507059996,None,903.5041507059996,None,904.8558005739997,None,904.8558005739997,None,904.8558005739997,None,904.8558005739997,None,,,,,,,,,,,,,,,895.3711535139992,None,,,,,,,,,,,,,,,,,,,,,,,,,,,,001,38,2020_Jan_30_1216,spring_faces,3.1.5,60.10132458253232,
condition files/Stage2_1.xlsx,,B2,T2,r,"['s', 'r']","['Stratego', 'Risk']","[-0.15, 0.5]","[0.15, 0.5]",1,1,,,,,,,,,,,,,,,,,0,0,0,0,0,1,1,3,,,,,,,,,,,,,,,,,,,,,,,,,,,,,,,,,,,,,,,,,,,,,,,906.8206821799995,None,906.8206821799995,None,906.8206821799995,None,r,1,1.0327051330004906,908.3542928039988,None,908.3542928039988,None,908.3542928039988,None,909.437511054999,None,909.437511054999,None,909.437511054999,None,909.437511054999,None,,,,,,,,,,,,,,,,,,,,,,,,,,,,,,,,,,,,,,,,,,,,001,38,2020_Jan_30_1216,spring_faces,3.1.5,60.10132458253232,
condition files/Stage2_1.xlsx,,T1,B1,s,"['s', 'r']","['Stratego', 'Risk']","[-0.15, 0.5]","[0.15, 0.5]",1,1,,,,,,,,,,,,,,,,,0,0,0,0,0,2,2,2,,,,,,,,,,,,,,,,,,,,,,,,,,,,,,,,,,,,,,,,,,,,,,,911.4047280709983,None,911.4047280709983,None,911.4047280709983,None,r,0,1.1193451569997706,912.9396817199995,None,912.9396817199995,None,912.9396817199995,None,914.120827495999,None,914.120827495999,None,914.120827495999,None,914.120827495999,None,,,,,,,,,,,,,,,,,,,,,,,,,,,,,,,,,,,,,,,,,,,,001,38,2020_Jan_30_1216,spring_faces,3.1.5,60.10132458253232,
condition files/Stage2_1.xlsx,,B4,T4,r,"['s', 'r']","['Stratego', 'Risk']","[-0.15, 0.5]","[0.15, 0.5]",1,1,,,,,,,,,,,,,,,,,0,0,0,0,0,3,3,5,,,,,,,,,,,,,,,,,,,,,,,,,,,,,,,,,,,,,,,,,,,,,,,916.0876436479994,None,916.0876436479994,None,916.0876436479994,None,s,0,1.3176977200000692,917.6212688259984,None,917.6212688259984,None,917.6212688259984,None,919.0041341159995,None,919.0041341159995,None,919.0041341159995,None,919.0041341159995,None,,,,,,,,,,,,,,,,,,,,,,,,,,,,,,,,,,,,,,,,,,,,001,38,2020_Jan_30_1216,spring_faces,3.1.5,60.10132458253232,
condition files/Stage2_1.xlsx,,T5,B5,s,"['s', 'r']","['Stratego', 'Risk']","[-0.15, 0.5]","[0.15, 0.5]",1,1,,,,,,,,,,,,,,,,,0,0,0,0,0,4,4,0,,,,,,,,,,,,,,,,,,,,,,,,,,,,,,,,,,,,,,,,,,,,,,,920.971005546,None,920.971005546,None,920.971005546,None,r,0,1.2156604479987436,922.5713262819991,None,922.5713262819991,None,922.5713262819991,None,923.8384015069987,None,923.8384015069987,None,923.8384015069987,None,923.8384015069987,None,,,,,,,,,,,,,,,,,,,,,,,,,,,,,,,,,,,,,,,,,,,,001,38,2020_Jan_30_1216,spring_faces,3.1.5,60.10132458253232,
condition files/Stage2_1.xlsx,,T3,B3,s,"['s', 'r']","['Stratego', 'Risk']","[-0.15, 0.5]","[0.15, 0.5]",1,1,,,,,,,,,,,,,,,,,0,0,0,0,0,5,5,4,,,,,,,,,,,,,,,,,,,,,,,,,,,,,,,,,,,,,,,,,,,,,,,925.8036935109994,None,925.8036935109994,None,925.8036935109994,None,r,0,0.8161430729996937,927.3548658739983,None,927.3548658739983,None,927.3548658739983,None,928.2212697549985,None,928.2212697549985,None,928.2212697549985,None,928.2212697549985,None,,,,,,,,,,,,,,,,,,,,,,,,,,,,,,,,,,,,,,,,,,,,001,38,2020_Jan_30_1216,spring_faces,3.1.5,60.10132458253232,
condition files/Stage2_2.xlsx,,B1,T1,s,"['s', 'r']","['Stratego', 'Risk']","[-0.15, 0.5]","[0.15, 0.5]",1,1,,,,,,,,,,,,,,,,,0,1,1,1,0,0,0,2,,,,,,,,,,,,,,,,,,,,,,,,,,,,,,,,,,,,,,,,,,,,,,,930.2045227619983,None,930.2045227619983,None,930.2045227619983,None,s,1,1.2009293420014728,931.7380216309994,None,931.7380216309994,None,931.7380216309994,None,933.0043643699992,None,933.0043643699992,None,933.0043643699992,None,933.0043643699992,None,,,,,,,,,,,,,,,,,,,,,,,,,,,,,,,,,,,,,,,,,,,,001,38,2020_Jan_30_1216,spring_faces,3.1.5,60.10132458253232,
condition files/Stage2_2.xlsx,,B5,T5,s,"['s', 'r']","['Stratego', 'Risk']","[-0.15, 0.5]","[0.15, 0.5]",1,1,,,,,,,,,,,,,,,,,0,1,1,1,0,1,1,0,,,,,,,,,,,,,,,,,,,,,,,,,,,,,,,,,,,,,,,,,,,,,,,934.9702747229985,None,934.9702747229985,None,934.9702747229985,None,r,0,1.2507086990008247,936.5042590399989,None,936.5042590399989,None,936.5042590399989,None,937.8211220919984,None,937.8211220919984,None,937.8211220919984,None,937.8211220919984,None,,,,,,,,,,,,,,,,,,,,,,,,,,,,,,,,,,,,,,,,,,,,001,38,2020_Jan_30_1216,spring_faces,3.1.5,60.10132458253232,
condition files/Stage2_2.xlsx,,B3,T3,s,"['s', 'r']","['Stratego', 'Risk']","[-0.15, 0.5]","[0.15, 0.5]",1,1,,,,,,,,,,,,,,,,,0,1,1,1,0,2,2,4,,,,,,,,,,,,,,,,,,,,,,,,,,,,,,,,,,,,,,,,,,,,,,,939.7881535910001,None,939.7881535910001,None,939.7881535910001,None,s,1,1.2799286690005829,941.3230935920001,None,941.3230935920001,None,941.3230935920001,None,942.6546545869987,None,942.6546545869987,None,942.6546545869987,None,942.6546545869987,None,,,,,,,,,,,,,,,,,,,,,,,,,,,,,,,,,,,,,,,,,,,,001,38,2020_Jan_30_1216,spring_faces,3.1.5,60.10132458253232,
condition files/Stage2_2.xlsx,,T6,B6,r,"['s', 'r']","['Stratego', 'Risk']","[-0.15, 0.5]","[0.15, 0.5]",1,1,,,,,,,,,,,,,,,,,0,1,1,1,0,3,3,1,,,,,,,,,,,,,,,,,,,,,,,,,,,,,,,,,,,,,,,,,,,,,,,944.621221768999,None,944.621221768999,None,944.621221768999,None,r,1,1.248192969998854,946.154818252,None,946.154818252,None,946.154818252,None,947.4569246539995,None,947.4569246539995,None,947.4569246539995,None,947.4569246539995,None,,,,,,,,,,,,,,,,,,,,,,,,,,,,,,,,,,,,,,,,,,,,001,38,2020_Jan_30_1216,spring_faces,3.1.5,60.10132458253232,
condition files/Stage2_2.xlsx,,T4,B4,r,"['s', 'r']","['Stratego', 'Risk']","[-0.15, 0.5]","[0.15, 0.5]",1,1,,,,,,,,,,,,,,,,,0,1,1,1,0,4,4,5,,,,,,,,,,,,,,,,,,,,,,,,,,,,,,,,,,,,,,,,,,,,,,,949.4209855089994,None,949.4209855089994,None,949.4209855089994,None,r,1,1.34326719299861,950.9556944919987,None,950.9556944919987,None,950.9556944919987,None,952.3543399559985,None,952.3543399559985,None,952.3543399559985,None,952.3543399559985,None,,,,,,,,,,,,,,,,,,,,,,,,,,,,,,,,,,,,,,,,,,,,001,38,2020_Jan_30_1216,spring_faces,3.1.5,60.10132458253232,
condition files/Stage2_2.xlsx,,T2,B2,r,"['s', 'r']","['Stratego', 'Risk']","[-0.15, 0.5]","[0.15, 0.5]",1,1,,,,,,,,,,,,,,,,,0,1,1,1,0,5,5,3,,,,,,,,,,,,,,,,,,,,,,,,,,,,,,,,,,,,,,,,,,,,,,,954.3209606259989,None,954.3209606259989,None,954.3209606259989,None,s,0,1.7248084910006583,955.8542514969995,None,955.8542514969995,None,955.8542514969995,None,957.6373026249985,None,957.6373026249985,None,957.6373026249985,None,957.6373026249985,None,,,,,,,,,,,,,,,,,,,,,,,,,,,,,,,,,,,,,,,,,,,,001,38,2020_Jan_30_1216,spring_faces,3.1.5,60.10132458253232,
condition files/Stage2_1.xlsx,,B4,T4,r,"['s', 'r']","['Stratego', 'Risk']","[-0.15, 0.5]","[0.15, 0.5]",1,1,,,,,,,,,,,,,,,,,0,2,2,2,0,0,0,5,,,,,,,,,,,,,,,,,,,,,,,,,,,,,,,,,,,,,,,,,,,,,,,959.6212853439993,None,959.6212853439993,None,959.6212853439993,None,r,1,1.6091110349989322,961.1539599669995,None,961.1539599669995,None,961.1539599669995,None,962.8206644679994,None,962.8206644679994,None,962.8206644679994,None,962.8206644679994,None,,,,,,,,,,,,,,,,,,,,,,,,,,,,,,,,,,,,,,,,,,,,001,38,2020_Jan_30_1216,spring_faces,3.1.5,60.10132458253232,
condition files/Stage2_1.xlsx,,B2,T2,r,"['s', 'r']","['Stratego', 'Risk']","[-0.15, 0.5]","[0.15, 0.5]",1,1,,,,,,,,,,,,,,,,,0,2,2,2,0,1,1,3,,,,,,,,,,,,,,,,,,,,,,,,,,,,,,,,,,,,,,,,,,,,,,,964.7880308929998,None,964.7880308929998,None,964.7880308929998,None,r,1,1.7696562049986824,966.3213450639996,None,966.3213450639996,None,966.3213450639996,None,968.1547692579989,None,968.1547692579989,None,968.1547692579989,None,968.1547692579989,None,,,,,,,,,,,,,,,,,,,,,,,,,,,,,,,,,,,,,,,,,,,,001,38,2020_Jan_30_1216,spring_faces,3.1.5,60.10132458253232,
condition files/Stage2_1.xlsx,,T1,B1,s,"['s', 'r']","['Stratego', 'Risk']","[-0.15, 0.5]","[0.15, 0.5]",1,1,,,,,,,,,,,,,,,,,0,2,2,2,0,2,2,2,,,,,,,,,,,,,,,,,,,,,,,,,,,,,,,,,,,,,,,,,,,,,,,970.1209331909995,None,970.1209331909995,None,970.1209331909995,None,s,1,1.5250754930002586,971.6539663289986,None,971.6539663289986,None,971.6539663289986,None,973.2389143299988,None,973.2389143299988,None,973.2389143299988,None,973.2389143299988,None,,,,,,,,,,,,,,,,,,,,,,,,,,,,,,,,,,,,,,,,,,,,001,38,2020_Jan_30_1216,spring_faces,3.1.5,60.10132458253232,
condition files/Stage2_1.xlsx,,T3,B3,s,"['s', 'r']","['Stratego', 'Risk']","[-0.15, 0.5]","[0.15, 0.5]",1,1,,,,,,,,,,,,,,,,,0,2,2,2,0,3,3,4,,,,,,,,,,,,,,,,,,,,,,,,,,,,,,,,,,,,,,,,,,,,,,,975.2043334449991,None,975.2043334449991,None,975.2043334449991,None,s,1,2.0565875510001206,976.7544455269999,None,976.7544455269999,None,976.7544455269999,None,978.8711582489996,None,978.8711582489996,None,978.8711582489996,None,978.8711582489996,None,,,,,,,,,,,,,,,,,,,,,,,,,,,,,,,,,,,,,,,,,,,,001,38,2020_Jan_30_1216,spring_faces,3.1.5,60.10132458253232,
condition files/Stage2_1.xlsx,,T5,B5,s,"['s', 'r']","['Stratego', 'Risk']","[-0.15, 0.5]","[0.15, 0.5]",1,1,,,,,,,,,,,,,,,,,0,2,2,2,0,4,4,0,,,,,,,,,,,,,,,,,,,,,,,,,,,,,,,,,,,,,,,,,,,,,,,980.8373634719992,None,980.8373634719992,None,980.8373634719992,None,r,0,1.3037367979995906,982.3712738049999,None,982.3712738049999,None,982.3712738049999,None,983.7378414619998,None,983.7378414619998,None,983.7378414619998,None,983.7378414619998,None,,,,,,,,,,,,,,,,,,,,,,,,,,,,,,,,,,,,,,,,,,,,001,38,2020_Jan_30_1216,spring_faces,3.1.5,60.10132458253232,
condition files/Stage2_1.xlsx,,B6,T6,r,"['s', 'r']","['Stratego', 'Risk']","[-0.15, 0.5]","[0.15, 0.5]",1,1,,,,,,,,,,,,,,,,,0,2,2,2,0,5,5,1,,,,,,,,,,,,,,,,,,,,,,,,,,,,,,,,,,,,,,,,,,,,,,,985.703913075,None,985.703913075,None,985.703913075,None,r,1,0.9659354200011876,987.2370708729995,None,987.2370708729995,None,987.2370708729995,None,988.2565590319991,None,988.2565590319991,None,988.2565590319991,None,988.2565590319991,None,,,,,,,,,,,,,,,,,,,,,,,,,,,,,,,,,,,,,,,,,,,,001,38,2020_Jan_30_1216,spring_faces,3.1.5,60.10132458253232,
condition files/Stage2_2.xlsx,,T4,B4,r,"['s', 'r']","['Stratego', 'Risk']","[-0.15, 0.5]","[0.15, 0.5]",1,1,,,,,,,,,,,,,,,,,0,3,3,3,0,0,0,5,,,,,,,,,,,,,,,,,,,,,,,,,,,,,,,,,,,,,,,,,,,,,,,990.237801923,None,990.237801923,None,990.237801923,None,r,1,1.4081603289996565,991.7708935179999,None,991.7708935179999,None,991.7708935179999,None,993.237831127999,None,993.237831127999,None,993.237831127999,None,993.237831127999,None,,,,,,,,,,,,,,,,,,,,,,,,,,,,,,,,,,,,,,,,,,,,001,38,2020_Jan_30_1216,spring_faces,3.1.5,60.10132458253232,
condition files/Stage2_2.xlsx,,T2,B2,r,"['s', 'r']","['Stratego', 'Risk']","[-0.15, 0.5]","[0.15, 0.5]",1,1,,,,,,,,,,,,,,,,,0,3,3,3,0,1,1,3,,,,,,,,,,,,,,,,,,,,,,,,,,,,,,,,,,,,,,,,,,,,,,,995.2044229869989,None,995.2044229869989,None,995.2044229869989,None,s,0,0.9209457409997412,996.7380667130001,None,996.7380667130001,None,996.7380667130001,None,997.7208854289984,None,997.7208854289984,None,997.7208854289984,None,997.7208854289984,None,,,,,,,,,,,,,,,,,,,,,,,,,,,,,,,,,,,,,,,,,,,,001,38,2020_Jan_30_1216,spring_faces,3.1.5,60.10132458253232,
condition files/Stage2_2.xlsx,,B5,T5,s,"['s', 'r']","['Stratego', 'Risk']","[-0.15, 0.5]","[0.15, 0.5]",1,1,,,,,,,,,,,,,,,,,0,3,3,3,0,2,2,0,,,,,,,,,,,,,,,,,,,,,,,,,,,,,,,,,,,,,,,,,,,,,,,999.6875659779998,None,999.6875659779998,None,999.6875659779998,None,r,0,1.526277654000296,1001.2208069009994,None,1001.2208069009994,None,1001.2208069009994,None,1002.8046961939999,None,1002.8046961939999,None,1002.8046961939999,None,1002.8046961939999,None,,,,,,,,,,,,,,,,,,,,,,,,,,,,,,,,,,,,,,,,,,,,001,38,2020_Jan_30_1216,spring_faces,3.1.5,60.10132458253232,
condition files/Stage2_2.xlsx,,B3,T3,s,"['s', 'r']","['Stratego', 'Risk']","[-0.15, 0.5]","[0.15, 0.5]",1,1,,,,,,,,,,,,,,,,,0,3,3,3,0,3,3,4,,,,,,,,,,,,,,,,,,,,,,,,,,,,,,,,,,,,,,,,,,,,,,,1004.7709657159994,None,1004.7709657159994,None,1004.7709657159994,None,r,0,1.4819955109996954,1006.3210102289995,None,1006.3210102289995,None,1006.3210102289995,None,1007.8544396699999,None,1007.8544396699999,None,1007.8544396699999,None,1007.8544396699999,None,,,,,,,,,,,,,,,,,,,,,,,,,,,,,,,,,,,,,,,,,,,,001,38,2020_Jan_30_1216,spring_faces,3.1.5,60.10132458253232,
condition files/Stage2_2.xlsx,,T6,B6,r,"['s', 'r']","['Stratego', 'Risk']","[-0.15, 0.5]","[0.15, 0.5]",1,1,,,,,,,,,,,,,,,,,0,3,3,3,0,4,4,1,,,,,,,,,,,,,,,,,,,,,,,,,,,,,,,,,,,,,,,,,,,,,,,1009.8210007439993,None,1009.8210007439993,None,1009.8210007439993,None,r,1,1.1037462410004082,1011.3712636849996,None,1011.3712636849996,None,1011.3712636849996,None,1012.5379903919984,None,1012.5379903919984,None,1012.5379903919984,None,1012.5379903919984,None,,,,,,,,,,,,,,,,,,,,,,,,,,,,,,,,,,,,,,,,,,,,001,38,2020_Jan_30_1216,spring_faces,3.1.5,60.10132458253232,
condition files/Stage2_2.xlsx,,B1,T1,s,"['s', 'r']","['Stratego', 'Risk']","[-0.15, 0.5]","[0.15, 0.5]",1,1,,,,,,,,,,,,,,,,,0,3,3,3,0,5,5,2,,,,,,,,,,,,,,,,,,,,,,,,,,,,,,,,,,,,,,,,,,,,,,,1014.5044059789998,None,1014.5044059789998,None,1014.5044059789998,None,s,1,1.1709023490002437,1016.0401705479999,None,1016.0401705479999,None,1016.0401705479999,None,1017.2880330849985,None,1017.2880330849985,None,1017.2880330849985,None,1017.2880330849985,None,,,,,,,,,,,,,,,,,,,,,,,,,,,,,,,,,,,,,,,,,,,,001,38,2020_Jan_30_1216,spring_faces,3.1.5,60.10132458253232,
condition files/Stage2_1.xlsx,,B6,T6,r,"['s', 'r']","['Stratego', 'Risk']","[-0.15, 0.5]","[0.15, 0.5]",1,1,,,,,,,,,,,,,,,,,0,4,4,4,0,0,0,1,,,,,,,,,,,,,,,,,,,,,,,,,,,,,,,,,,,,,,,,,,,,,,,1019.2545025559994,None,1019.2545025559994,None,1019.2545025559994,None,r,1,0.9030620339999587,1020.7878980149999,None,1020.7878980149999,None,1020.7878980149999,None,1021.771298013,None,1021.771298013,None,1021.771298013,None,1021.771298013,None,,,,,,,,,,,,,,,,,,,,,,,,,,,,,,,,,,,,,,,,,,,,001,38,2020_Jan_30_1216,spring_faces,3.1.5,60.10132458253232,
condition files/Stage2_1.xlsx,,T1,B1,s,"['s', 'r']","['Stratego', 'Risk']","[-0.15, 0.5]","[0.15, 0.5]",1,1,,,,,,,,,,,,,,,,,0,4,4,4,0,1,1,2,,,,,,,,,,,,,,,,,,,,,,,,,,,,,,,,,,,,,,,,,,,,,,,1023.7210295869991,None,1023.7210295869991,None,1023.7210295869991,None,s,1,1.253433154999584,1025.253584279999,None,1025.253584279999,None,1025.253584279999,None,1026.571232758999,None,1026.571232758999,None,1026.571232758999,None,1026.571232758999,None,,,,,,,,,,,,,,,,,,,,,,,,,,,,,,,,,,,,,,,,,,,,001,38,2020_Jan_30_1216,spring_faces,3.1.5,60.10132458253232,
condition files/Stage2_1.xlsx,,T3,B3,s,"['s', 'r']","['Stratego', 'Risk']","[-0.15, 0.5]","[0.15, 0.5]",1,1,,,,,,,,,,,,,,,,,0,4,4,4,0,2,2,4,,,,,,,,,,,,,,,,,,,,,,,,,,,,,,,,,,,,,,,,,,,,,,,1028.537587687999,None,1028.537587687999,None,1028.537587687999,None,s,1,1.2037978550015396,1030.0872113449987,None,1030.0872113449987,None,1030.0872113449987,None,1031.3545339439988,None,1031.3545339439988,None,1031.3545339439988,None,1031.3545339439988,None,,,,,,,,,,,,,,,,,,,,,,,,,,,,,,,,,,,,,,,,,,,,001,38,2020_Jan_30_1216,spring_faces,3.1.5,60.10132458253232,
condition files/Stage2_1.xlsx,,B4,T4,r,"['s', 'r']","['Stratego', 'Risk']","[-0.15, 0.5]","[0.15, 0.5]",1,1,,,,,,,,,,,,,,,,,0,4,4,4,0,3,3,5,,,,,,,,,,,,,,,,,,,,,,,,,,,,,,,,,,,,,,,,,,,,,,,1033.3207710589995,None,1033.3207710589995,None,1033.3207710589995,None,r,1,1.0451521639988641,1034.8538161899996,None,1034.8538161899996,None,1034.8538161899996,None,1035.955915569999,None,1035.955915569999,None,1035.955915569999,None,1035.955915569999,None,,,,,,,,,,,,,,,,,,,,,,,,,,,,,,,,,,,,,,,,,,,,001,38,2020_Jan_30_1216,spring_faces,3.1.5,60.10132458253232,
