condsFile,subStage,cue1,cue2,correct,responseKeys,responseNames,cue1Position,cue2Position,cue1Opacity,cue2Opacity,stageLoop0.thisRepN,stageLoop0.thisTrialN,stageLoop0.thisN,stageLoop0.thisIndex,blockLoop0.thisRepN,blockLoop0.thisTrialN,blockLoop0.thisN,blockLoop0.thisIndex,stage1Loop.thisRepN,stage1Loop.thisTrialN,stage1Loop.thisN,stage1Loop.thisIndex,blockLoop1.thisRepN,blockLoop1.thisTrialN,blockLoop1.thisN,blockLoop1.thisIndex,stage2Loop.thisRepN,stage2Loop.thisTrialN,stage2Loop.thisN,stage2Loop.thisIndex,blockLoop2.thisRepN,blockLoop2.thisTrialN,blockLoop2.thisN,blockLoop2.thisIndex,cuePics,id_instr_text.started,id_instr_text.stopped,space_to_continue_2.started,space_to_continue_2.stopped,end_instructions_resp_3.keys,end_instructions_resp_3.rt,end_instructions_resp_3.started,end_instructions_resp_3.stopped,id_input_instr.started,id_input_instr.stopped,id_input_rect.started,id_input_rect.stopped,id_input_resp.keys,id_input_resp.rt,id_input_resp.started,id_input_resp.stopped,sonaID,id_input_text.started,id_input_text.stopped,final_text.started,final_text.stopped,instructions.started,instructions.stopped,end_instructions_resp.keys,end_instructions_resp.rt,end_instructions_resp.started,end_instructions_resp.stopped,space_to_continue.started,space_to_continue.stopped,instructions_stage0.started,instructions_stage0.stopped,end_instructions_resp_stage0.keys,end_instructions_resp_stage0.rt,end_instructions_resp_stage0.started,end_instructions_resp_stage0.stopped,space_to_continue_stage0.started,space_to_continue_stage0.stopped,text.started,text.stopped,resp_text1.started,resp_text1.stopped,resp_text2.started,resp_text2.stopped,trial_resp.keys,trial_resp.corr,trial_resp.rt,trial_resp.started,trial_resp.stopped,cue1Image.started,cue1Image.stopped,cue2Image.started,cue2Image.stopped,cue1Image_fb.started,cue1Image_fb.stopped,cue2Image_fb.started,cue2Image_fb.stopped,fb_text_answer.started,fb_text_answer.stopped,feedback_image.started,feedback_image.stopped,instructions_stage1.started,instructions_stage1.stopped,end_instructions_resp_stage1.keys,end_instructions_resp_stage1.rt,end_instructions_resp_stage1.started,end_instructions_resp_stage1.stopped,space_to_continue_stage1.started,space_to_continue_stage1.stopped,instructions_2.started,instructions_2.stopped,end_instructions_resp_2.keys,end_instructions_resp_2.rt,end_instructions_resp_2.started,end_instructions_resp_2.stopped,press_space_to_continue_stage2.started,press_space_to_continue_stage2.stopped,session,participant,date,expName,psychopyVersion,frameRate,
,,,,,,,,,,,,,,,,,,,,,,,,,,,,,,,,,,,"{'none': 'pictures/20M_AN_C.png', 'alpha': 'pictures/SHINEd_pepper.png', 'beta': 'pictures/SHINEd_apple.png', 'theta': 'pictures/SHINEd_melon.png', 'phi': 'pictures/SHINEd_pear.png', 'T1': 'pictures/31M_AN_C.png', 'T2': 'pictures/22M_AN_C.png', 'T3': 'pictures/33M_AN_C.png', 'T4': 'pictures/20M_AN_C.png', 'T5': 'pictures/32M_AN_C.png', 'T6': 'pictures/36M_AN_C.png', 'B1': 'pictures/25M_NE_C.png', 'B2': 'pictures/38M_NE_C.png', 'B3': 'pictures/34M_NE_C.png', 'B4': 'pictures/26M_NE_C.png', 'B5': 'pictures/37M_NE_C.png', 'B6': 'pictures/23M_NE_C.png'}",7.716862936002144,None,12.69997051899918,None,space,16.53733614399971,12.69997051899918,None,,,,,,,,,,,,,,,,,,,,,,,,,,,,,,,,,,,,,,,,,,,,,,,,,,,,,,,,,,,,,,,,,,,,,001,41,2020_Jan_30_1316,spring_faces,3.1.5,60.01188007262941,
,,,,,,,,,,,,,,,,,,,,,,,,,,,,,,,,,,,,,,,,,,,,29.650075903999095,None,29.650075903999095,None,"['1', '0', '0', '2', 'v', 'e', 'c', 'h', 'e', 'backspace', '1', '0', '0', '2', 'v', 'e', 'c', 'h', 'e', 'backspace', '1', '0', '0', '2', 'v', 'e', 'c', 'h', 'backspace', 'r', 'e']","[6.787191209001321, 7.1392339109988825, 10.723146754000481, 10.97921734099873, 13.747203124999942, 14.035155006000423, 17.795153330000176, 18.0511802789988, 18.3552120509994, 21.34727112800101, 27.667179955999018, 27.923209127999144, 31.23515499199857, 32.2752606009999, 34.483218492998276, 34.73922851599855, 39.15521636400081, 39.459272929998406, 39.68318790799822, 43.52327371800129, 46.86715120000008, 47.10727551599848, 47.955219357001624, 48.259278935998736, 54.2432321640008, 54.48320728800172, 59.17120283699842, 59.55521915999998, 60.46717530800015, 60.80320294400008, 61.107268952000595]",29.650075903999095,None,,,,,,,,,,,,,,,,,,,,,,,,,,,,,,,,,,,,,,,,,,,,,,,,,,,,,,,,,,,,,001,41,2020_Jan_30_1316,spring_faces,3.1.5,60.01188007262941,
,,,,,,,,,,,,,,,,,,,,,,,,,,,,,,,,,,,,,,,,,,,,,,,,,,,,1002vecre,29.650075903999095,None,29.650075903999095,None,95.83359831599955,None,space,0.804040653998527,100.83325262699873,None,,,,,,,,,,,,,,,,,,,,,,,,,,,,,,,,,,,,,,,,,,,,,,,,,,001,41,2020_Jan_30_1316,spring_faces,3.1.5,60.01188007262941,
,,,,,,,,,,,,,,,,,,,,,,,,,,,,,,,,,,,,,,,,,,,,,,,,,,,,,,,,,,,,,,,100.83325262699873,None,101.68339722599922,None,space,5.465692028999911,106.68359933900138,None,,,,,,,,,,,,,,,,,,,,,,,,,,,,,,,,,,,,,,,,,,001,41,2020_Jan_30_1316,spring_faces,3.1.5,60.01188007262941,
condition files/Stage0a.xlsx,0a,alpha,none,h,"['h', 'g']","['Chess', 'Go']","[0, 0.5]","[0, 0]",1,0,0,0,0,0,0,0,0,0,,,,,,,,,,,,,,,,,,,,,,,,,,,,,,,,,,,,,,,,,,,,,,,,,,,,,106.68359933900138,None,112.20027880400085,None,112.20027880400085,None,112.20027880400085,None,h,1,3.4057171829990693,113.78357616799985,None,113.78357616799985,None,113.78357616799985,None,117.26675150099982,None,117.26675150099982,None,117.26675150099982,None,117.26675150099982,None,,,,,,,,,,,,,,,,,001,41,2020_Jan_30_1316,spring_faces,3.1.5,60.01188007262941,
condition files/Stage0a.xlsx,0a,beta,none,g,"['h', 'g']","['Chess', 'Go']","[0, 0.5]","[0, 0]",1,0,0,0,0,0,0,1,1,1,,,,,,,,,,,,,,,,,,,,,,,,,,,,,,,,,,,,,,,,,,,,,,,,,,,,,,,119.21642979700118,None,119.21642979700118,None,119.21642979700118,None,g,1,1.3344355539993558,120.76680990300156,None,120.76680990300156,None,120.76680990300156,None,122.16886606499975,None,122.16886606499975,None,122.16886606499975,None,122.16886606499975,None,,,,,,,,,,,,,,,,,001,41,2020_Jan_30_1316,spring_faces,3.1.5,60.01188007262941,
condition files/Stage0a.xlsx,0a,alpha,none,h,"['h', 'g']","['Chess', 'Go']","[0, 0.5]","[0, 0]",1,0,0,1,1,1,0,0,0,0,,,,,,,,,,,,,,,,,,,,,,,,,,,,,,,,,,,,,,,,,,,,,,,,,,,,,,,124.1495408769988,None,124.1495408769988,None,124.1495408769988,None,h,1,0.5941549240014865,125.68320606199995,None,125.68320606199995,None,125.68320606199995,None,126.33324652100055,None,126.33324652100055,None,126.33324652100055,None,126.33324652100055,None,,,,,,,,,,,,,,,,,001,41,2020_Jan_30_1316,spring_faces,3.1.5,60.01188007262941,
condition files/Stage0a.xlsx,0a,beta,none,g,"['h', 'g']","['Chess', 'Go']","[0, 0.5]","[0, 0]",1,0,0,1,1,1,0,1,1,1,,,,,,,,,,,,,,,,,,,,,,,,,,,,,,,,,,,,,,,,,,,,,,,,,,,,,,,128.29987659900144,None,128.29987659900144,None,128.29987659900144,None,g,1,0.7962820190005004,129.8329627560015,None,129.8329627560015,None,129.8329627560015,None,130.68322593799894,None,130.68322593799894,None,130.68322593799894,None,130.68322593799894,None,,,,,,,,,,,,,,,,,001,41,2020_Jan_30_1316,spring_faces,3.1.5,60.01188007262941,
condition files/Stage0a.xlsx,0a,beta,none,g,"['h', 'g']","['Chess', 'Go']","[0, 0.5]","[0, 0]",1,0,0,2,2,2,0,0,0,1,,,,,,,,,,,,,,,,,,,,,,,,,,,,,,,,,,,,,,,,,,,,,,,,,,,,,,,132.6670599329991,None,132.6670599329991,None,132.6670599329991,None,g,1,1.8537410880016978,134.1995743510015,None,134.1995743510015,None,134.1995743510015,None,136.11722135600212,None,136.11722135600212,None,136.11722135600212,None,136.11722135600212,None,,,,,,,,,,,,,,,,,001,41,2020_Jan_30_1316,spring_faces,3.1.5,60.01188007262941,
condition files/Stage0a.xlsx,0a,alpha,none,h,"['h', 'g']","['Chess', 'Go']","[0, 0.5]","[0, 0]",1,0,0,2,2,2,0,1,1,0,,,,,,,,,,,,,,,,,,,,,,,,,,,,,,,,,,,,,,,,,,,,,,,,,,,,,,,138.08319970899902,None,138.08319970899902,None,138.08319970899902,None,h,1,0.7568490939993353,139.6164481429987,None,139.6164481429987,None,139.6164481429987,None,140.43285017900052,None,140.43285017900052,None,140.43285017900052,None,140.43285017900052,None,,,,,,,,,,,,,,,,,001,41,2020_Jan_30_1316,spring_faces,3.1.5,60.01188007262941,
condition files/Stage0a.xlsx,0a,alpha,none,h,"['h', 'g']","['Chess', 'Go']","[0, 0.5]","[0, 0]",1,0,0,3,3,3,0,0,0,0,,,,,,,,,,,,,,,,,,,,,,,,,,,,,,,,,,,,,,,,,,,,,,,,,,,,,,,142.4169314230021,None,142.4169314230021,None,142.4169314230021,None,h,1,0.727452720002475,143.94990448799945,None,143.94990448799945,None,143.94990448799945,None,144.73346273900097,None,144.73346273900097,None,144.73346273900097,None,144.73346273900097,None,,,,,,,,,,,,,,,,,001,41,2020_Jan_30_1316,spring_faces,3.1.5,60.01188007262941,
condition files/Stage0a.xlsx,0a,beta,none,g,"['h', 'g']","['Chess', 'Go']","[0, 0.5]","[0, 0]",1,0,0,3,3,3,0,1,1,1,,,,,,,,,,,,,,,,,,,,,,,,,,,,,,,,,,,,,,,,,,,,,,,,,,,,,,,146.6998978260017,None,146.6998978260017,None,146.6998978260017,None,g,1,0.41151719999834313,148.2337868550021,None,148.2337868550021,None,148.2337868550021,None,148.69908312199914,None,148.69908312199914,None,148.69908312199914,None,148.69908312199914,None,,,,,,,,,,,,,,,,,001,41,2020_Jan_30_1316,spring_faces,3.1.5,60.01188007262941,
condition files/Stage0a.xlsx,0a,beta,none,g,"['h', 'g']","['Chess', 'Go']","[0, 0.5]","[0, 0]",1,0,0,4,4,4,0,0,0,1,,,,,,,,,,,,,,,,,,,,,,,,,,,,,,,,,,,,,,,,,,,,,,,,,,,,,,,150.6831218490006,None,150.6831218490006,None,150.6831218490006,None,g,1,0.8924463809998997,152.21691978799936,None,152.21691978799936,None,152.21691978799936,None,153.16692338999928,None,153.16692338999928,None,153.16692338999928,None,153.16692338999928,None,,,,,,,,,,,,,,,,,001,41,2020_Jan_30_1316,spring_faces,3.1.5,60.01188007262941,
condition files/Stage0a.xlsx,0a,alpha,none,h,"['h', 'g']","['Chess', 'Go']","[0, 0.5]","[0, 0]",1,0,0,4,4,4,0,1,1,0,,,,,,,,,,,,,,,,,,,,,,,,,,,,,,,,,,,,,,,,,,,,,,,,,,,,,,,155.13323476699952,None,155.13323476699952,None,155.13323476699952,None,h,1,0.9227590330010571,156.6665394519987,None,156.6665394519987,None,156.6665394519987,None,157.6502818500012,None,157.6502818500012,None,157.6502818500012,None,157.6502818500012,None,,,,,,,,,,,,,,,,,001,41,2020_Jan_30_1316,spring_faces,3.1.5,60.01188007262941,
condition files/Stage0a.xlsx,0a,alpha,none,h,"['h', 'g']","['Chess', 'Go']","[0, 0.5]","[0, 0]",1,0,0,5,5,5,0,0,0,0,,,,,,,,,,,,,,,,,,,,,,,,,,,,,,,,,,,,,,,,,,,,,,,,,,,,,,,159.63286184499884,None,159.63286184499884,None,159.63286184499884,None,h,1,0.8863180870030192,161.1669839890019,None,161.1669839890019,None,161.1669839890019,None,162.11721538599886,None,162.11721538599886,None,162.11721538599886,None,162.11721538599886,None,,,,,,,,,,,,,,,,,001,41,2020_Jan_30_1316,spring_faces,3.1.5,60.01188007262941,
condition files/Stage0a.xlsx,0a,beta,none,g,"['h', 'g']","['Chess', 'Go']","[0, 0.5]","[0, 0]",1,0,0,5,5,5,0,1,1,1,,,,,,,,,,,,,,,,,,,,,,,,,,,,,,,,,,,,,,,,,,,,,,,,,,,,,,,164.08328874200015,None,164.08328874200015,None,164.08328874200015,None,g,1,0.4848450249992311,165.6164039860014,None,165.6164039860014,None,165.6164039860014,None,166.16653834099998,None,166.16653834099998,None,166.16653834099998,None,166.16653834099998,None,,,,,,,,,,,,,,,,,001,41,2020_Jan_30_1316,spring_faces,3.1.5,60.01188007262941,
condition files/Stage0b_1.xlsx,0b,none,beta,g,"['h', 'g']","['Chess', 'Go']","[-0.15, 0.5]","[0.15, 0.5]",0,1,0,6,6,6,0,0,0,1,,,,,,,,,,,,,,,,,,,,,,,,,,,,,,,,,,,,,,,,,,,,,,,,,,,,,,,168.15016550099972,None,168.15016550099972,None,168.15016550099972,None,g,1,0.8013980340001581,169.69985410699883,None,169.69985410699883,None,169.69985410699883,None,170.56680839900218,None,170.56680839900218,None,170.56680839900218,None,170.56680839900218,None,,,,,,,,,,,,,,,,,001,41,2020_Jan_30_1316,spring_faces,3.1.5,60.01188007262941,
condition files/Stage0b_1.xlsx,0b,alpha,none,h,"['h', 'g']","['Chess', 'Go']","[-0.15, 0.5]","[0.15, 0.5]",1,0,0,6,6,6,0,1,1,0,,,,,,,,,,,,,,,,,,,,,,,,,,,,,,,,,,,,,,,,,,,,,,,,,,,,,,,172.53338009800063,None,172.53338009800063,None,172.53338009800063,None,h,1,0.6422087279970583,174.08315109700197,None,174.08315109700197,None,174.08315109700197,None,174.78606861699882,None,174.78606861699882,None,174.78606861699882,None,174.78606861699882,None,,,,,,,,,,,,,,,,,001,41,2020_Jan_30_1316,spring_faces,3.1.5,60.01188007262941,
condition files/Stage0b_2.xlsx,0b,beta,none,g,"['h', 'g']","['Chess', 'Go']","[-0.15, 0.5]","[0.15, 0.5]",1,0,0,7,7,7,0,0,0,1,,,,,,,,,,,,,,,,,,,,,,,,,,,,,,,,,,,,,,,,,,,,,,,,,,,,,,,176.76595097600148,None,176.76595097600148,None,176.76595097600148,None,g,1,0.7458020779995422,178.29953817600108,None,178.29953817600108,None,178.29953817600108,None,179.1002051860014,None,179.1002051860014,None,179.1002051860014,None,179.1002051860014,None,,,,,,,,,,,,,,,,,001,41,2020_Jan_30_1316,spring_faces,3.1.5,60.01188007262941,
condition files/Stage0b_2.xlsx,0b,none,alpha,h,"['h', 'g']","['Chess', 'Go']","[-0.15, 0.5]","[0.15, 0.5]",0,1,0,7,7,7,0,1,1,0,,,,,,,,,,,,,,,,,,,,,,,,,,,,,,,,,,,,,,,,,,,,,,,,,,,,,,,181.0664011580011,None,181.0664011580011,None,181.0664011580011,None,h,1,1.1805195990018547,182.61676362800063,None,182.61676362800063,None,182.61676362800063,None,183.85434372300006,None,183.85434372300006,None,183.85434372300006,None,183.85434372300006,None,,,,,,,,,,,,,,,,,001,41,2020_Jan_30_1316,spring_faces,3.1.5,60.01188007262941,
condition files/Stage0b_1.xlsx,0b,alpha,none,h,"['h', 'g']","['Chess', 'Go']","[-0.15, 0.5]","[0.15, 0.5]",1,0,0,8,8,8,0,0,0,0,,,,,,,,,,,,,,,,,,,,,,,,,,,,,,,,,,,,,,,,,,,,,,,,,,,,,,,185.8327932550019,None,185.8327932550019,None,185.8327932550019,None,g,0,0.5372316159991897,187.37214089600093,None,187.37214089600093,None,187.37214089600093,None,187.96702162200017,None,187.96702162200017,None,187.96702162200017,None,187.96702162200017,None,,,,,,,,,,,,,,,,,001,41,2020_Jan_30_1316,spring_faces,3.1.5,60.01188007262941,
condition files/Stage0b_1.xlsx,0b,none,beta,g,"['h', 'g']","['Chess', 'Go']","[-0.15, 0.5]","[0.15, 0.5]",0,1,0,8,8,8,0,1,1,1,,,,,,,,,,,,,,,,,,,,,,,,,,,,,,,,,,,,,,,,,,,,,,,,,,,,,,,189.93329707000157,None,189.93329707000157,None,189.93329707000157,None,g,1,0.44056750100207864,191.46879222699863,None,191.46879222699863,None,191.46879222699863,None,191.9834316560009,None,191.9834316560009,None,191.9834316560009,None,191.9834316560009,None,,,,,,,,,,,,,,,,,001,41,2020_Jan_30_1316,spring_faces,3.1.5,60.01188007262941,
condition files/Stage0b_2.xlsx,0b,beta,none,g,"['h', 'g']","['Chess', 'Go']","[-0.15, 0.5]","[0.15, 0.5]",1,0,0,9,9,9,0,0,0,1,,,,,,,,,,,,,,,,,,,,,,,,,,,,,,,,,,,,,,,,,,,,,,,,,,,,,,,193.95035929699952,None,193.95035929699952,None,193.95035929699952,None,g,1,0.6294986210014031,195.48772713899962,None,195.48772713899962,None,195.48772713899962,None,196.18341281299945,None,196.18341281299945,None,196.18341281299945,None,196.18341281299945,None,,,,,,,,,,,,,,,,,001,41,2020_Jan_30_1316,spring_faces,3.1.5,60.01188007262941,
condition files/Stage0b_2.xlsx,0b,none,alpha,h,"['h', 'g']","['Chess', 'Go']","[-0.15, 0.5]","[0.15, 0.5]",0,1,0,9,9,9,0,1,1,0,,,,,,,,,,,,,,,,,,,,,,,,,,,,,,,,,,,,,,,,,,,,,,,,,,,,,,,198.15001238900004,None,198.15001238900004,None,198.15001238900004,None,h,1,0.5433874779992038,199.68587776799905,None,199.68587776799905,None,199.68587776799905,None,200.28460176999943,None,200.28460176999943,None,200.28460176999943,None,200.28460176999943,None,,,,,,,,,,,,,,,,,001,41,2020_Jan_30_1316,spring_faces,3.1.5,60.01188007262941,
condition files/Stage0b_1.xlsx,0b,alpha,none,h,"['h', 'g']","['Chess', 'Go']","[-0.15, 0.5]","[0.15, 0.5]",1,0,0,10,10,10,0,0,0,0,,,,,,,,,,,,,,,,,,,,,,,,,,,,,,,,,,,,,,,,,,,,,,,,,,,,,,,202.26698900400152,None,202.26698900400152,None,202.26698900400152,None,h,1,0.6505651780025801,203.80275892200007,None,203.80275892200007,None,203.80275892200007,None,204.51685297899894,None,204.51685297899894,None,204.51685297899894,None,204.51685297899894,None,,,,,,,,,,,,,,,,,001,41,2020_Jan_30_1316,spring_faces,3.1.5,60.01188007262941,
condition files/Stage0b_1.xlsx,0b,none,beta,g,"['h', 'g']","['Chess', 'Go']","[-0.15, 0.5]","[0.15, 0.5]",0,1,0,10,10,10,0,1,1,1,,,,,,,,,,,,,,,,,,,,,,,,,,,,,,,,,,,,,,,,,,,,,,,,,,,,,,,206.4833841389991,None,206.4833841389991,None,206.4833841389991,None,g,1,0.35327969799982384,208.0200736299994,None,208.0200736299994,None,208.0200736299994,None,208.43387124299988,None,208.43387124299988,None,208.43387124299988,None,208.43387124299988,None,,,,,,,,,,,,,,,,,001,41,2020_Jan_30_1316,spring_faces,3.1.5,60.01188007262941,
condition files/Stage0b_2.xlsx,0b,none,alpha,h,"['h', 'g']","['Chess', 'Go']","[-0.15, 0.5]","[0.15, 0.5]",0,1,0,11,11,11,0,0,0,0,,,,,,,,,,,,,,,,,,,,,,,,,,,,,,,,,,,,,,,,,,,,,,,,,,,,,,,210.4162649159989,None,210.4162649159989,None,210.4162649159989,None,h,1,1.223008872999344,211.9502935060009,None,211.9502935060009,None,211.9502935060009,None,213.2334419280014,None,213.2334419280014,None,213.2334419280014,None,213.2334419280014,None,,,,,,,,,,,,,,,,,001,41,2020_Jan_30_1316,spring_faces,3.1.5,60.01188007262941,
condition files/Stage0b_2.xlsx,0b,beta,none,g,"['h', 'g']","['Chess', 'Go']","[-0.15, 0.5]","[0.15, 0.5]",1,0,0,11,11,11,0,1,1,1,,,,,,,,,,,,,,,,,,,,,,,,,,,,,,,,,,,,,,,,,,,,,,,,,,,,,,,215.19991716400182,None,215.19991716400182,None,215.19991716400182,None,g,1,0.7117151089987601,216.74956265299988,None,216.74956265299988,None,216.74956265299988,None,217.52133311700163,None,217.52133311700163,None,217.52133311700163,None,217.52133311700163,None,,,,,,,,,,,,,,,,,001,41,2020_Jan_30_1316,spring_faces,3.1.5,60.01188007262941,
condition files/Stage0c_1.xlsx,0c,beta,theta,g,"['h', 'g']","['Chess', 'Go']","[-0.15, 0.5]","[0.15, 0.5]",1,1,0,12,12,12,0,0,0,2,,,,,,,,,,,,,,,,,,,,,,,,,,,,,,,,,,,,,,,,,,,,,,,,,,,,,,,219.49969531100214,None,219.49969531100214,None,219.49969531100214,None,g,1,1.9482109479977225,221.03308505300083,None,221.03308505300083,None,221.03308505300083,None,223.03329582199876,None,223.03329582199876,None,223.03329582199876,None,223.03329582199876,None,,,,,,,,,,,,,,,,,001,41,2020_Jan_30_1316,spring_faces,3.1.5,60.01188007262941,
condition files/Stage0c_1.xlsx,0c,theta,alpha,h,"['h', 'g']","['Chess', 'Go']","[-0.15, 0.5]","[0.15, 0.5]",1,1,0,12,12,12,0,1,1,0,,,,,,,,,,,,,,,,,,,,,,,,,,,,,,,,,,,,,,,,,,,,,,,,,,,,,,,225.0000626809997,None,225.0000626809997,None,225.0000626809997,None,h,1,1.184004504000768,226.53326024200214,None,226.53326024200214,None,226.53326024200214,None,227.78357366199998,None,227.78357366199998,None,227.78357366199998,None,227.78357366199998,None,,,,,,,,,,,,,,,,,001,41,2020_Jan_30_1316,spring_faces,3.1.5,60.01188007262941,
condition files/Stage0c_1.xlsx,0c,alpha,phi,h,"['h', 'g']","['Chess', 'Go']","[-0.15, 0.5]","[0.15, 0.5]",1,1,0,12,12,12,0,2,2,1,,,,,,,,,,,,,,,,,,,,,,,,,,,,,,,,,,,,,,,,,,,,,,,,,,,,,,,229.75037685400093,None,229.75037685400093,None,229.75037685400093,None,h,1,1.1064857210003538,231.2827478950021,None,231.2827478950021,None,231.2827478950021,None,232.4502882150009,None,232.4502882150009,None,232.4502882150009,None,232.4502882150009,None,,,,,,,,,,,,,,,,,001,41,2020_Jan_30_1316,spring_faces,3.1.5,60.01188007262941,
condition files/Stage0c_1.xlsx,0c,phi,beta,g,"['h', 'g']","['Chess', 'Go']","[-0.15, 0.5]","[0.15, 0.5]",1,1,0,12,12,12,0,3,3,3,,,,,,,,,,,,,,,,,,,,,,,,,,,,,,,,,,,,,,,,,,,,,,,,,,,,,,,234.41654796399962,None,234.41654796399962,None,234.41654796399962,None,g,1,0.5510472079986357,235.95021237400215,None,235.95021237400215,None,235.95021237400215,None,236.56906605400218,None,236.56906605400218,None,236.56906605400218,None,236.56906605400218,None,,,,,,,,,,,,,,,,,001,41,2020_Jan_30_1316,spring_faces,3.1.5,60.01188007262941,
condition files/Stage0c_2.xlsx,0c,alpha,theta,h,"['h', 'g']","['Chess', 'Go']","[-0.15, 0.5]","[0.15, 0.5]",1,1,0,13,13,13,0,0,0,0,,,,,,,,,,,,,,,,,,,,,,,,,,,,,,,,,,,,,,,,,,,,,,,,,,,,,,,238.55040382399966,None,238.55040382399966,None,238.55040382399966,None,h,1,0.91386968200095,240.08344477799983,None,240.08344477799983,None,240.08344477799983,None,241.05028817499988,None,241.05028817499988,None,241.05028817499988,None,241.05028817499988,None,,,,,,,,,,,,,,,,,001,41,2020_Jan_30_1316,spring_faces,3.1.5,60.01188007262941,
condition files/Stage0c_2.xlsx,0c,beta,phi,g,"['h', 'g']","['Chess', 'Go']","[-0.15, 0.5]","[0.15, 0.5]",1,1,0,13,13,13,0,1,1,3,,,,,,,,,,,,,,,,,,,,,,,,,,,,,,,,,,,,,,,,,,,,,,,,,,,,,,,243.01638946800085,None,243.01638946800085,None,243.01638946800085,None,g,1,0.9590060269983951,244.55033135399935,None,244.55033135399935,None,244.55033135399935,None,245.5678329370021,None,245.5678329370021,None,245.5678329370021,None,245.5678329370021,None,,,,,,,,,,,,,,,,,001,41,2020_Jan_30_1316,spring_faces,3.1.5,60.01188007262941,
condition files/Stage0c_2.xlsx,0c,theta,beta,g,"['h', 'g']","['Chess', 'Go']","[-0.15, 0.5]","[0.15, 0.5]",1,1,0,13,13,13,0,2,2,2,,,,,,,,,,,,,,,,,,,,,,,,,,,,,,,,,,,,,,,,,,,,,,,,,,,,,,,247.53301834900049,None,247.53301834900049,None,247.53301834900049,None,g,1,0.9712016299999959,249.066103166002,None,249.066103166002,None,249.066103166002,None,250.08319892500003,None,250.08319892500003,None,250.08319892500003,None,250.08319892500003,None,,,,,,,,,,,,,,,,,001,41,2020_Jan_30_1316,spring_faces,3.1.5,60.01188007262941,
condition files/Stage0c_2.xlsx,0c,phi,alpha,h,"['h', 'g']","['Chess', 'Go']","[-0.15, 0.5]","[0.15, 0.5]",1,1,0,13,13,13,0,3,3,1,,,,,,,,,,,,,,,,,,,,,,,,,,,,,,,,,,,,,,,,,,,,,,,,,,,,,,,252.06660258400007,None,252.06660258400007,None,252.06660258400007,None,h,1,0.9332359750005708,253.6000947749999,None,253.6000947749999,None,253.6000947749999,None,254.5836628750003,None,254.5836628750003,None,254.5836628750003,None,254.5836628750003,None,,,,,,,,,,,,,,,,,001,41,2020_Jan_30_1316,spring_faces,3.1.5,60.01188007262941,
condition files/Stage0c_1.xlsx,0c,phi,beta,g,"['h', 'g']","['Chess', 'Go']","[-0.15, 0.5]","[0.15, 0.5]",1,1,0,14,14,14,0,0,0,3,,,,,,,,,,,,,,,,,,,,,,,,,,,,,,,,,,,,,,,,,,,,,,,,,,,,,,,256.5662665990021,None,256.5662665990021,None,256.5662665990021,None,g,1,0.8972029559990915,258.10009060599987,None,258.10009060599987,None,258.10009060599987,None,259.05013687700193,None,259.05013687700193,None,259.05013687700193,None,259.05013687700193,None,,,,,,,,,,,,,,,,,001,41,2020_Jan_30_1316,spring_faces,3.1.5,60.01188007262941,
condition files/Stage0c_1.xlsx,0c,beta,theta,g,"['h', 'g']","['Chess', 'Go']","[-0.15, 0.5]","[0.15, 0.5]",1,1,0,14,14,14,0,1,1,2,,,,,,,,,,,,,,,,,,,,,,,,,,,,,,,,,,,,,,,,,,,,,,,,,,,,,,,261.0157063990009,None,261.0157063990009,None,261.0157063990009,None,g,1,0.9279774620008538,262.54938011099875,None,262.54938011099875,None,262.54938011099875,None,263.518353296,None,263.518353296,None,263.518353296,None,263.518353296,None,,,,,,,,,,,,,,,,,001,41,2020_Jan_30_1316,spring_faces,3.1.5,60.01188007262941,
condition files/Stage0c_1.xlsx,0c,theta,alpha,h,"['h', 'g']","['Chess', 'Go']","[-0.15, 0.5]","[0.15, 0.5]",1,1,0,14,14,14,0,2,2,0,,,,,,,,,,,,,,,,,,,,,,,,,,,,,,,,,,,,,,,,,,,,,,,,,,,,,,,265.50041099100054,None,265.50041099100054,None,265.50041099100054,None,h,1,0.9236582720004662,267.0336729430019,None,267.0336729430019,None,267.0336729430019,None,268.01679773100113,None,268.01679773100113,None,268.01679773100113,None,268.01679773100113,None,,,,,,,,,,,,,,,,,001,41,2020_Jan_30_1316,spring_faces,3.1.5,60.01188007262941,
condition files/Stage0c_1.xlsx,0c,alpha,phi,h,"['h', 'g']","['Chess', 'Go']","[-0.15, 0.5]","[0.15, 0.5]",1,1,0,14,14,14,0,3,3,1,,,,,,,,,,,,,,,,,,,,,,,,,,,,,,,,,,,,,,,,,,,,,,,,,,,,,,,270.00016424000205,None,270.00016424000205,None,270.00016424000205,None,h,1,1.3044960609986447,271.5167911239987,None,271.5167911239987,None,271.5167911239987,None,272.8685341519995,None,272.8685341519995,None,272.8685341519995,None,272.8685341519995,None,,,,,,,,,,,,,,,,,001,41,2020_Jan_30_1316,spring_faces,3.1.5,60.01188007262941,
condition files/Stage0c_2.xlsx,0c,theta,beta,g,"['h', 'g']","['Chess', 'Go']","[-0.15, 0.5]","[0.15, 0.5]",1,1,0,15,15,15,0,0,0,2,,,,,,,,,,,,,,,,,,,,,,,,,,,,,,,,,,,,,,,,,,,,,,,,,,,,,,,274.8664846499996,None,274.8664846499996,None,274.8664846499996,None,g,1,0.5493650450007408,276.3999479769991,None,276.3999479769991,None,276.3999479769991,None,276.9996281720014,None,276.9996281720014,None,276.9996281720014,None,276.9996281720014,None,,,,,,,,,,,,,,,,,001,41,2020_Jan_30_1316,spring_faces,3.1.5,60.01188007262941,
condition files/Stage0c_2.xlsx,0c,phi,alpha,h,"['h', 'g']","['Chess', 'Go']","[-0.15, 0.5]","[0.15, 0.5]",1,1,0,15,15,15,0,1,1,1,,,,,,,,,,,,,,,,,,,,,,,,,,,,,,,,,,,,,,,,,,,,,,,,,,,,,,,278.9665641819993,None,278.9665641819993,None,278.9665641819993,None,h,1,1.4258909670024877,280.49945503300114,None,280.49945503300114,None,280.49945503300114,None,281.98324651200164,None,281.98324651200164,None,281.98324651200164,None,281.98324651200164,None,,,,,,,,,,,,,,,,,001,41,2020_Jan_30_1316,spring_faces,3.1.5,60.01188007262941,
condition files/Stage0c_2.xlsx,0c,alpha,theta,h,"['h', 'g']","['Chess', 'Go']","[-0.15, 0.5]","[0.15, 0.5]",1,1,0,15,15,15,0,2,2,0,,,,,,,,,,,,,,,,,,,,,,,,,,,,,,,,,,,,,,,,,,,,,,,,,,,,,,,283.9500156460017,None,283.9500156460017,None,283.9500156460017,None,h,1,0.6658433900011005,285.4834436429992,None,285.4834436429992,None,285.4834436429992,None,286.18549055900075,None,286.18549055900075,None,286.18549055900075,None,286.18549055900075,None,,,,,,,,,,,,,,,,,001,41,2020_Jan_30_1316,spring_faces,3.1.5,60.01188007262941,
condition files/Stage0c_2.xlsx,0c,beta,phi,g,"['h', 'g']","['Chess', 'Go']","[-0.15, 0.5]","[0.15, 0.5]",1,1,0,15,15,15,0,3,3,3,,,,,,,,,,,,,,,,,,,,,,,,,,,,,,,,,,,,,,,,,,,,,,,,,,,,,,,288.1667080340012,None,288.1667080340012,None,288.1667080340012,None,g,1,0.6091177759990387,289.70023478499934,None,289.70023478499934,None,289.70023478499934,None,290.3664099250018,None,290.3664099250018,None,290.3664099250018,None,290.3664099250018,None,,,,,,,,,,,,,,,,,001,41,2020_Jan_30_1316,spring_faces,3.1.5,60.01188007262941,
condition files/Stage0c_1.xlsx,0c,beta,theta,g,"['h', 'g']","['Chess', 'Go']","[-0.15, 0.5]","[0.15, 0.5]",1,1,0,16,16,16,0,0,0,2,,,,,,,,,,,,,,,,,,,,,,,,,,,,,,,,,,,,,,,,,,,,,,,,,,,,,,,292.3502683520019,None,292.3502683520019,None,292.3502683520019,None,g,1,1.482293209002819,293.8829943109995,None,293.8829943109995,None,293.8829943109995,None,295.4024606130006,None,295.4024606130006,None,295.4024606130006,None,295.4024606130006,None,,,,,,,,,,,,,,,,,001,41,2020_Jan_30_1316,spring_faces,3.1.5,60.01188007262941,
condition files/Stage0c_1.xlsx,0c,theta,alpha,h,"['h', 'g']","['Chess', 'Go']","[-0.15, 0.5]","[0.15, 0.5]",1,1,0,16,16,16,0,1,1,0,,,,,,,,,,,,,,,,,,,,,,,,,,,,,,,,,,,,,,,,,,,,,,,,,,,,,,,297.3831488319993,None,297.3831488319993,None,297.3831488319993,None,h,1,1.2487496120011201,298.9165458440002,None,298.9165458440002,None,298.9165458440002,None,300.21597640099935,None,300.21597640099935,None,300.21597640099935,None,300.21597640099935,None,,,,,,,,,,,,,,,,,001,41,2020_Jan_30_1316,spring_faces,3.1.5,60.01188007262941,
condition files/Stage0c_1.xlsx,0c,phi,beta,g,"['h', 'g']","['Chess', 'Go']","[-0.15, 0.5]","[0.15, 0.5]",1,1,0,16,16,16,0,2,2,3,,,,,,,,,,,,,,,,,,,,,,,,,,,,,,,,,,,,,,,,,,,,,,,,,,,,,,,302.1830064329988,None,302.1830064329988,None,302.1830064329988,None,g,1,0.8004083070009074,303.7168527790018,None,303.7168527790018,None,303.7168527790018,None,304.58355737700185,None,304.58355737700185,None,304.58355737700185,None,304.58355737700185,None,,,,,,,,,,,,,,,,,001,41,2020_Jan_30_1316,spring_faces,3.1.5,60.01188007262941,
condition files/Stage0c_1.xlsx,0c,alpha,phi,h,"['h', 'g']","['Chess', 'Go']","[-0.15, 0.5]","[0.15, 0.5]",1,1,0,16,16,16,0,3,3,1,,,,,,,,,,,,,,,,,,,,,,,,,,,,,,,,,,,,,,,,,,,,,,,,,,,,,,,306.5669608569988,None,306.5669608569988,None,306.5669608569988,None,h,1,0.7857991969976865,308.083489233999,None,308.083489233999,None,308.083489233999,None,308.93343611900127,None,308.93343611900127,None,308.93343611900127,None,308.93343611900127,None,,,,,,,,,,,,,,,,,001,41,2020_Jan_30_1316,spring_faces,3.1.5,60.01188007262941,
condition files/Stage0c_2.xlsx,0c,beta,phi,g,"['h', 'g']","['Chess', 'Go']","[-0.15, 0.5]","[0.15, 0.5]",1,1,0,17,17,17,0,0,0,3,,,,,,,,,,,,,,,,,,,,,,,,,,,,,,,,,,,,,,,,,,,,,,,,,,,,,,,310.91662683400136,None,310.91662683400136,None,310.91662683400136,None,g,1,0.6751692229991022,312.45019673099887,None,312.45019673099887,None,312.45019673099887,None,313.18319176799923,None,313.18319176799923,None,313.18319176799923,None,313.18319176799923,None,,,,,,,,,,,,,,,,,001,41,2020_Jan_30_1316,spring_faces,3.1.5,60.01188007262941,
condition files/Stage0c_2.xlsx,0c,phi,alpha,h,"['h', 'g']","['Chess', 'Go']","[-0.15, 0.5]","[0.15, 0.5]",1,1,0,17,17,17,0,1,1,1,,,,,,,,,,,,,,,,,,,,,,,,,,,,,,,,,,,,,,,,,,,,,,,,,,,,,,,315.1497638469991,None,315.1497638469991,None,315.1497638469991,None,h,1,0.9538965589999862,316.6833904180021,None,316.6833904180021,None,316.6833904180021,None,317.69943369799876,None,317.69943369799876,None,317.69943369799876,None,317.69943369799876,None,,,,,,,,,,,,,,,,,001,41,2020_Jan_30_1316,spring_faces,3.1.5,60.01188007262941,
condition files/Stage0c_2.xlsx,0c,alpha,theta,h,"['h', 'g']","['Chess', 'Go']","[-0.15, 0.5]","[0.15, 0.5]",1,1,0,17,17,17,0,2,2,0,,,,,,,,,,,,,,,,,,,,,,,,,,,,,,,,,,,,,,,,,,,,,,,,,,,,,,,319.66653678999864,None,319.66653678999864,None,319.66653678999864,None,h,1,0.6614321970009769,321.1998607230016,None,321.1998607230016,None,321.1998607230016,None,321.90151830800096,None,321.90151830800096,None,321.90151830800096,None,321.90151830800096,None,,,,,,,,,,,,,,,,,001,41,2020_Jan_30_1316,spring_faces,3.1.5,60.01188007262941,
condition files/Stage0c_2.xlsx,0c,theta,beta,g,"['h', 'g']","['Chess', 'Go']","[-0.15, 0.5]","[0.15, 0.5]",1,1,0,17,17,17,0,3,3,2,,,,,,,,,,,,,,,,,,,,,,,,,,,,,,,,,,,,,,,,,,,,,,,,,,,,,,,323.88271264300056,None,323.88271264300056,None,323.88271264300056,None,g,1,0.620583263997105,325.4167185890001,None,325.4167185890001,None,325.4167185890001,None,326.1000966069987,None,326.1000966069987,None,326.1000966069987,None,326.1000966069987,None,,,,,,,,,,,,,,,,,001,41,2020_Jan_30_1316,spring_faces,3.1.5,60.01188007262941,
,,,,,,,,,,,,,,,,,,,,,,,,,,,,,,,,,,,,,,,,,,,,,,,,,,,,,,,,,,,,,,,,,,,,,,,,,,,,,,,,,,,,,,,,,,,,,,,,328.0834541709992,None,space,0.8900753689995327,333.08330176600066,None,,,,,,,,,,,001,41,2020_Jan_30_1316,spring_faces,3.1.5,60.01188007262941,
condition files/Stage1_1.xlsx,,B2,T1,m,"['c', 'm']","['Clue', 'Monopoly']","[-0.15, 0.5]","[0.15, 0.5]",1,1,,,,,,,,,0,0,0,0,0,0,0,2,,,,,,,,,,,,,,,,,,,,,,,,,,,,,,,,,,,,,,,,,,,,,,,334.03279756700067,None,334.03279756700067,None,334.03279756700067,None,c,0,1.5877359119986068,335.6335656980009,None,335.6335656980009,None,335.6335656980009,None,337.2993994089993,None,337.2993994089993,None,337.2993994089993,None,337.2993994089993,None,,,,,,,333.08330176600066,None,,,,,,,,,001,41,2020_Jan_30_1316,spring_faces,3.1.5,60.01188007262941,
condition files/Stage1_1.xlsx,,B3,T3,c,"['c', 'm']","['Clue', 'Monopoly']","[-0.15, 0.5]","[0.15, 0.5]",1,1,,,,,,,,,0,0,0,0,0,1,1,4,,,,,,,,,,,,,,,,,,,,,,,,,,,,,,,,,,,,,,,,,,,,,,,339.2499612920001,None,339.2499612920001,None,339.2499612920001,None,c,1,0.7564822509993974,340.8168840360013,None,340.8168840360013,None,340.8168840360013,None,341.6335499470006,None,341.6335499470006,None,341.6335499470006,None,341.6335499470006,None,,,,,,,,,,,,,,,,,001,41,2020_Jan_30_1316,spring_faces,3.1.5,60.01188007262941,
condition files/Stage1_1.xlsx,,T2,B2,m,"['c', 'm']","['Clue', 'Monopoly']","[-0.15, 0.5]","[0.15, 0.5]",1,1,,,,,,,,,0,0,0,0,0,2,2,3,,,,,,,,,,,,,,,,,,,,,,,,,,,,,,,,,,,,,,,,,,,,,,,343.59991089699906,None,343.59991089699906,None,343.59991089699906,None,m,1,0.45364408699970227,345.18366331200014,None,345.18366331200014,None,345.18366331200014,None,345.70187269899907,None,345.70187269899907,None,345.70187269899907,None,345.70187269899907,None,,,,,,,,,,,,,,,,,001,41,2020_Jan_30_1316,spring_faces,3.1.5,60.01188007262941,
condition files/Stage1_1.xlsx,,B1,T2,c,"['c', 'm']","['Clue', 'Monopoly']","[-0.15, 0.5]","[0.15, 0.5]",1,1,,,,,,,,,0,0,0,0,0,3,3,1,,,,,,,,,,,,,,,,,,,,,,,,,,,,,,,,,,,,,,,,,,,,,,,347.66656528300155,None,347.66656528300155,None,347.66656528300155,None,c,1,1.5245229449974431,349.21683234300144,None,349.21683234300144,None,349.21683234300144,None,350.81630695700005,None,350.81630695700005,None,350.81630695700005,None,350.81630695700005,None,,,,,,,,,,,,,,,,,001,41,2020_Jan_30_1316,spring_faces,3.1.5,60.01188007262941,
condition files/Stage1_1.xlsx,,T4,B3,m,"['c', 'm']","['Clue', 'Monopoly']","[-0.15, 0.5]","[0.15, 0.5]",1,1,,,,,,,,,0,0,0,0,0,4,4,6,,,,,,,,,,,,,,,,,,,,,,,,,,,,,,,,,,,,,,,,,,,,,,,352.7666710929989,None,352.7666710929989,None,352.7666710929989,None,m,1,2.296843545002048,354.31661867,None,354.31661867,None,354.31661867,None,356.66886992500076,None,356.66886992500076,None,356.66886992500076,None,356.66886992500076,None,,,,,,,,,,,,,,,,,001,41,2020_Jan_30_1316,spring_faces,3.1.5,60.01188007262941,
condition files/Stage1_1.xlsx,,T1,B1,c,"['c', 'm']","['Clue', 'Monopoly']","[-0.15, 0.5]","[0.15, 0.5]",1,1,,,,,,,,,0,0,0,0,0,5,5,0,,,,,,,,,,,,,,,,,,,,,,,,,,,,,,,,,,,,,,,,,,,,,,,358.63323051000043,None,358.63323051000043,None,358.63323051000043,None,c,1,1.5009566289991199,360.16836647400123,None,360.16836647400123,None,360.16836647400123,None,361.7339346560002,None,361.7339346560002,None,361.7339346560002,None,361.7339346560002,None,,,,,,,,,,,,,,,,,001,41,2020_Jan_30_1316,spring_faces,3.1.5,60.01188007262941,
condition files/Stage1_1.xlsx,,T3,B4,c,"['c', 'm']","['Clue', 'Monopoly']","[-0.15, 0.5]","[0.15, 0.5]",1,1,,,,,,,,,0,0,0,0,0,6,6,5,,,,,,,,,,,,,,,,,,,,,,,,,,,,,,,,,,,,,,,,,,,,,,,363.69959170400034,None,363.69959170400034,None,363.69959170400034,None,m,0,1.073970511002699,365.28338969200195,None,365.28338969200195,None,365.28338969200195,None,366.41678714500085,None,366.41678714500085,None,366.41678714500085,None,366.41678714500085,None,,,,,,,,,,,,,,,,,001,41,2020_Jan_30_1316,spring_faces,3.1.5,60.01188007262941,
condition files/Stage1_1.xlsx,,B4,T4,m,"['c', 'm']","['Clue', 'Monopoly']","[-0.15, 0.5]","[0.15, 0.5]",1,1,,,,,,,,,0,0,0,0,0,7,7,7,,,,,,,,,,,,,,,,,,,,,,,,,,,,,,,,,,,,,,,,,,,,,,,368.3826317150015,None,368.3826317150015,None,368.3826317150015,None,c,0,0.886683600001561,369.9186387260015,None,369.9186387260015,None,369.9186387260015,None,370.86811484899954,None,370.86811484899954,None,370.86811484899954,None,370.86811484899954,None,,,,,,,,,,,,,,,,,001,41,2020_Jan_30_1316,spring_faces,3.1.5,60.01188007262941,
condition files/Stage1_2.xlsx,,T4,B4,m,"['c', 'm']","['Clue', 'Monopoly']","[-0.15, 0.5]","[0.15, 0.5]",1,1,,,,,,,,,0,1,1,1,0,0,0,7,,,,,,,,,,,,,,,,,,,,,,,,,,,,,,,,,,,,,,,,,,,,,,,372.850226726001,None,372.850226726001,None,372.850226726001,None,m,1,0.9172769840006367,374.38400916200044,None,374.38400916200044,None,374.38400916200044,None,375.36717150700133,None,375.36717150700133,None,375.36717150700133,None,375.36717150700133,None,,,,,,,,,,,,,,,,,001,41,2020_Jan_30_1316,spring_faces,3.1.5,60.01188007262941,
condition files/Stage1_2.xlsx,,T1,B2,m,"['c', 'm']","['Clue', 'Monopoly']","[-0.15, 0.5]","[0.15, 0.5]",1,1,,,,,,,,,0,1,1,1,0,1,1,2,,,,,,,,,,,,,,,,,,,,,,,,,,,,,,,,,,,,,,,,,,,,,,,377.33330184900115,None,377.33330184900115,None,377.33330184900115,None,m,1,1.5700973579987476,378.88320552000005,None,378.88320552000005,None,378.88320552000005,None,380.516575343001,None,380.516575343001,None,380.516575343001,None,380.516575343001,None,,,,,,,,,,,,,,,,,001,41,2020_Jan_30_1316,spring_faces,3.1.5,60.01188007262941,
condition files/Stage1_2.xlsx,,B4,T3,c,"['c', 'm']","['Clue', 'Monopoly']","[-0.15, 0.5]","[0.15, 0.5]",1,1,,,,,,,,,0,1,1,1,0,2,2,5,,,,,,,,,,,,,,,,,,,,,,,,,,,,,,,,,,,,,,,,,,,,,,,382.4832607979988,None,382.4832607979988,None,382.4832607979988,None,m,0,0.9318286900015664,384.0334543860008,None,384.0334543860008,None,384.0334543860008,None,385.0183865250001,None,385.0183865250001,None,385.0183865250001,None,385.0183865250001,None,,,,,,,,,,,,,,,,,001,41,2020_Jan_30_1316,spring_faces,3.1.5,60.01188007262941,
condition files/Stage1_2.xlsx,,T3,B3,c,"['c', 'm']","['Clue', 'Monopoly']","[-0.15, 0.5]","[0.15, 0.5]",1,1,,,,,,,,,0,1,1,1,0,3,3,4,,,,,,,,,,,,,,,,,,,,,,,,,,,,,,,,,,,,,,,,,,,,,,,386.98346223200133,None,386.98346223200133,None,386.98346223200133,None,c,1,0.7363831589973415,388.5169273069987,None,388.5169273069987,None,388.5169273069987,None,389.3167148229986,None,389.3167148229986,None,389.3167148229986,None,389.3167148229986,None,,,,,,,,,,,,,,,,,001,41,2020_Jan_30_1316,spring_faces,3.1.5,60.01188007262941,
condition files/Stage1_2.xlsx,,T2,B1,c,"['c', 'm']","['Clue', 'Monopoly']","[-0.15, 0.5]","[0.15, 0.5]",1,1,,,,,,,,,0,1,1,1,0,4,4,1,,,,,,,,,,,,,,,,,,,,,,,,,,,,,,,,,,,,,,,,,,,,,,,391.28325792800024,None,391.28325792800024,None,391.28325792800024,None,c,1,1.2664974850013095,392.81881508399965,None,392.81881508399965,None,392.81881508399965,None,394.14970746200197,None,394.14970746200197,None,394.14970746200197,None,394.14970746200197,None,,,,,,,,,,,,,,,,,001,41,2020_Jan_30_1316,spring_faces,3.1.5,60.01188007262941,
condition files/Stage1_2.xlsx,,B1,T1,c,"['c', 'm']","['Clue', 'Monopoly']","[-0.15, 0.5]","[0.15, 0.5]",1,1,,,,,,,,,0,1,1,1,0,5,5,0,,,,,,,,,,,,,,,,,,,,,,,,,,,,,,,,,,,,,,,,,,,,,,,396.11668289500085,None,396.11668289500085,None,396.11668289500085,None,m,0,1.2983367720007664,397.6509674209992,None,397.6509674209992,None,397.6509674209992,None,399.00167116800003,None,399.00167116800003,None,399.00167116800003,None,399.00167116800003,None,,,,,,,,,,,,,,,,,001,41,2020_Jan_30_1316,spring_faces,3.1.5,60.01188007262941,
condition files/Stage1_2.xlsx,,B2,T2,m,"['c', 'm']","['Clue', 'Monopoly']","[-0.15, 0.5]","[0.15, 0.5]",1,1,,,,,,,,,0,1,1,1,0,6,6,3,,,,,,,,,,,,,,,,,,,,,,,,,,,,,,,,,,,,,,,,,,,,,,,400.9667618320018,None,400.9667618320018,None,400.9667618320018,None,c,0,1.137615805000678,402.49970066400056,None,402.49970066400056,None,402.49970066400056,None,403.7010233130022,None,403.7010233130022,None,403.7010233130022,None,403.7010233130022,None,,,,,,,,,,,,,,,,,001,41,2020_Jan_30_1316,spring_faces,3.1.5,60.01188007262941,
condition files/Stage1_2.xlsx,,B3,T4,m,"['c', 'm']","['Clue', 'Monopoly']","[-0.15, 0.5]","[0.15, 0.5]",1,1,,,,,,,,,0,1,1,1,0,7,7,6,,,,,,,,,,,,,,,,,,,,,,,,,,,,,,,,,,,,,,,,,,,,,,,405.66568382100013,None,405.66568382100013,None,405.66568382100013,None,c,0,0.6606074890005402,407.2167533920001,None,407.2167533920001,None,407.2167533920001,None,407.93322489500133,None,407.93322489500133,None,407.93322489500133,None,407.93322489500133,None,,,,,,,,,,,,,,,,,001,41,2020_Jan_30_1316,spring_faces,3.1.5,60.01188007262941,
condition files/Stage1_1.xlsx,,T4,B3,m,"['c', 'm']","['Clue', 'Monopoly']","[-0.15, 0.5]","[0.15, 0.5]",1,1,,,,,,,,,0,2,2,2,0,0,0,6,,,,,,,,,,,,,,,,,,,,,,,,,,,,,,,,,,,,,,,,,,,,,,,409.916685553002,None,409.916685553002,None,409.916685553002,None,m,1,0.7633051939992583,411.4501718540014,None,411.4501718540014,None,411.4501718540014,None,412.26685183000154,None,412.26685183000154,None,412.26685183000154,None,412.26685183000154,None,,,,,,,,,,,,,,,,,001,41,2020_Jan_30_1316,spring_faces,3.1.5,60.01188007262941,
condition files/Stage1_1.xlsx,,T2,B2,m,"['c', 'm']","['Clue', 'Monopoly']","[-0.15, 0.5]","[0.15, 0.5]",1,1,,,,,,,,,0,2,2,2,0,1,1,3,,,,,,,,,,,,,,,,,,,,,,,,,,,,,,,,,,,,,,,,,,,,,,,414.23311595700216,None,414.23311595700216,None,414.23311595700216,None,c,0,1.2952136609965237,415.7660617830006,None,415.7660617830006,None,415.7660617830006,None,417.1167205490019,None,417.1167205490019,None,417.1167205490019,None,417.1167205490019,None,,,,,,,,,,,,,,,,,001,41,2020_Jan_30_1316,spring_faces,3.1.5,60.01188007262941,
condition files/Stage1_1.xlsx,,B1,T2,c,"['c', 'm']","['Clue', 'Monopoly']","[-0.15, 0.5]","[0.15, 0.5]",1,1,,,,,,,,,0,2,2,2,0,2,2,1,,,,,,,,,,,,,,,,,,,,,,,,,,,,,,,,,,,,,,,,,,,,,,,419.08369356800176,None,419.08369356800176,None,419.08369356800176,None,c,1,1.6126587229991856,420.6166537040008,None,420.6166537040008,None,420.6166537040008,None,422.2846207629991,None,422.2846207629991,None,422.2846207629991,None,422.2846207629991,None,,,,,,,,,,,,,,,,,001,41,2020_Jan_30_1316,spring_faces,3.1.5,60.01188007262941,
condition files/Stage1_1.xlsx,,B2,T1,m,"['c', 'm']","['Clue', 'Monopoly']","[-0.15, 0.5]","[0.15, 0.5]",1,1,,,,,,,,,0,2,2,2,0,3,3,2,,,,,,,,,,,,,,,,,,,,,,,,,,,,,,,,,,,,,,,,,,,,,,,424.25003074399865,None,424.25003074399865,None,424.25003074399865,None,m,1,1.75602176999746,425.7853497950018,None,425.7853497950018,None,425.7853497950018,None,427.60114381699896,None,427.60114381699896,None,427.60114381699896,None,427.60114381699896,None,,,,,,,,,,,,,,,,,001,41,2020_Jan_30_1316,spring_faces,3.1.5,60.01188007262941,
condition files/Stage1_1.xlsx,,B3,T3,c,"['c', 'm']","['Clue', 'Monopoly']","[-0.15, 0.5]","[0.15, 0.5]",1,1,,,,,,,,,0,2,2,2,0,4,4,4,,,,,,,,,,,,,,,,,,,,,,,,,,,,,,,,,,,,,,,,,,,,,,,429.5663566080002,None,429.5663566080002,None,429.5663566080002,None,c,1,0.8724866489974374,431.1168582889986,None,431.1168582889986,None,431.1168582889986,None,432.05057354900055,None,432.05057354900055,None,432.05057354900055,None,432.05057354900055,None,,,,,,,,,,,,,,,,,001,41,2020_Jan_30_1316,spring_faces,3.1.5,60.01188007262941,
condition files/Stage1_1.xlsx,,T1,B1,c,"['c', 'm']","['Clue', 'Monopoly']","[-0.15, 0.5]","[0.15, 0.5]",1,1,,,,,,,,,0,2,2,2,0,5,5,0,,,,,,,,,,,,,,,,,,,,,,,,,,,,,,,,,,,,,,,,,,,,,,,434.01655041900085,None,434.01655041900085,None,434.01655041900085,None,c,1,1.1250030099981814,435.5523736979994,None,435.5523736979994,None,435.5523736979994,None,436.7331058689997,None,436.7331058689997,None,436.7331058689997,None,436.7331058689997,None,,,,,,,,,,,,,,,,,001,41,2020_Jan_30_1316,spring_faces,3.1.5,60.01188007262941,
condition files/Stage1_1.xlsx,,T3,B4,c,"['c', 'm']","['Clue', 'Monopoly']","[-0.15, 0.5]","[0.15, 0.5]",1,1,,,,,,,,,0,2,2,2,0,6,6,5,,,,,,,,,,,,,,,,,,,,,,,,,,,,,,,,,,,,,,,,,,,,,,,438.70002805900003,None,438.70002805900003,None,438.70002805900003,None,c,1,0.8908089510005084,440.23455173299953,None,440.23455173299953,None,440.23455173299953,None,441.1834183339997,None,441.1834183339997,None,441.1834183339997,None,441.1834183339997,None,,,,,,,,,,,,,,,,,001,41,2020_Jan_30_1316,spring_faces,3.1.5,60.01188007262941,
condition files/Stage1_1.xlsx,,B4,T4,m,"['c', 'm']","['Clue', 'Monopoly']","[-0.15, 0.5]","[0.15, 0.5]",1,1,,,,,,,,,0,2,2,2,0,7,7,7,,,,,,,,,,,,,,,,,,,,,,,,,,,,,,,,,,,,,,,,,,,,,,,443.1493192279995,None,443.1493192279995,None,443.1493192279995,None,c,0,0.7118229970001266,444.68548456200006,None,444.68548456200006,None,444.68548456200006,None,445.4529232040004,None,445.4529232040004,None,445.4529232040004,None,445.4529232040004,None,,,,,,,,,,,,,,,,,001,41,2020_Jan_30_1316,spring_faces,3.1.5,60.01188007262941,
condition files/Stage1_2.xlsx,,B2,T2,m,"['c', 'm']","['Clue', 'Monopoly']","[-0.15, 0.5]","[0.15, 0.5]",1,1,,,,,,,,,0,3,3,3,0,0,0,3,,,,,,,,,,,,,,,,,,,,,,,,,,,,,,,,,,,,,,,,,,,,,,,447.4337019100021,None,447.4337019100021,None,447.4337019100021,None,m,1,0.5909301479987334,448.9664538290017,None,448.9664538290017,None,448.9664538290017,None,449.61677946599957,None,449.61677946599957,None,449.61677946599957,None,449.61677946599957,None,,,,,,,,,,,,,,,,,001,41,2020_Jan_30_1316,spring_faces,3.1.5,60.01188007262941,
condition files/Stage1_2.xlsx,,T4,B4,m,"['c', 'm']","['Clue', 'Monopoly']","[-0.15, 0.5]","[0.15, 0.5]",1,1,,,,,,,,,0,3,3,3,0,1,1,7,,,,,,,,,,,,,,,,,,,,,,,,,,,,,,,,,,,,,,,,,,,,,,,451.58248465200086,None,451.58248465200086,None,451.58248465200086,None,m,1,0.904417272999126,453.1169101180021,None,453.1169101180021,None,453.1169101180021,None,454.08342091099985,None,454.08342091099985,None,454.08342091099985,None,454.08342091099985,None,,,,,,,,,,,,,,,,,001,41,2020_Jan_30_1316,spring_faces,3.1.5,60.01188007262941,
condition files/Stage1_2.xlsx,,B1,T1,c,"['c', 'm']","['Clue', 'Monopoly']","[-0.15, 0.5]","[0.15, 0.5]",1,1,,,,,,,,,0,3,3,3,0,2,2,0,,,,,,,,,,,,,,,,,,,,,,,,,,,,,,,,,,,,,,,,,,,,,,,456.04987140400044,None,456.04987140400044,None,456.04987140400044,None,c,1,1.4773726499988697,457.5839010080017,None,457.5839010080017,None,457.5839010080017,None,459.1185892290014,None,459.1185892290014,None,459.1185892290014,None,459.1185892290014,None,,,,,,,,,,,,,,,,,001,41,2020_Jan_30_1316,spring_faces,3.1.5,60.01188007262941,
condition files/Stage1_2.xlsx,,B4,T3,c,"['c', 'm']","['Clue', 'Monopoly']","[-0.15, 0.5]","[0.15, 0.5]",1,1,,,,,,,,,0,3,3,3,0,3,3,5,,,,,,,,,,,,,,,,,,,,,,,,,,,,,,,,,,,,,,,,,,,,,,,461.0835138120019,None,461.0835138120019,None,461.0835138120019,None,c,1,1.0526761140026792,462.61663701400175,None,462.61663701400175,None,462.61663701400175,None,463.7334752240022,None,463.7334752240022,None,463.7334752240022,None,463.7334752240022,None,,,,,,,,,,,,,,,,,001,41,2020_Jan_30_1316,spring_faces,3.1.5,60.01188007262941,
condition files/Stage1_2.xlsx,,T2,B1,c,"['c', 'm']","['Clue', 'Monopoly']","[-0.15, 0.5]","[0.15, 0.5]",1,1,,,,,,,,,0,3,3,3,0,4,4,1,,,,,,,,,,,,,,,,,,,,,,,,,,,,,,,,,,,,,,,,,,,,,,,465.69934829400154,None,465.69934829400154,None,465.69934829400154,None,m,0,1.2351045879986486,467.2501601389995,None,467.2501601389995,None,467.2501601389995,None,468.549477468001,None,468.549477468001,None,468.549477468001,None,468.549477468001,None,,,,,,,,,,,,,,,,,001,41,2020_Jan_30_1316,spring_faces,3.1.5,60.01188007262941,
condition files/Stage1_2.xlsx,,T1,B2,m,"['c', 'm']","['Clue', 'Monopoly']","[-0.15, 0.5]","[0.15, 0.5]",1,1,,,,,,,,,0,3,3,3,0,5,5,2,,,,,,,,,,,,,,,,,,,,,,,,,,,,,,,,,,,,,,,,,,,,,,,470.51659573100187,None,470.51659573100187,None,470.51659573100187,None,m,1,1.0744251020005322,472.05095137399985,None,472.05095137399985,None,472.05095137399985,None,473.1836075700012,None,473.1836075700012,None,473.1836075700012,None,473.1836075700012,None,,,,,,,,,,,,,,,,,001,41,2020_Jan_30_1316,spring_faces,3.1.5,60.01188007262941,
condition files/Stage1_2.xlsx,,B3,T4,m,"['c', 'm']","['Clue', 'Monopoly']","[-0.15, 0.5]","[0.15, 0.5]",1,1,,,,,,,,,0,3,3,3,0,6,6,6,,,,,,,,,,,,,,,,,,,,,,,,,,,,,,,,,,,,,,,,,,,,,,,475.14935352999964,None,475.14935352999964,None,475.14935352999964,None,m,1,1.6724761869991198,476.68490452100013,None,476.68490452100013,None,476.68490452100013,None,478.41683781900065,None,478.41683781900065,None,478.41683781900065,None,478.41683781900065,None,,,,,,,,,,,,,,,,,001,41,2020_Jan_30_1316,spring_faces,3.1.5,60.01188007262941,
condition files/Stage1_2.xlsx,,T3,B3,c,"['c', 'm']","['Clue', 'Monopoly']","[-0.15, 0.5]","[0.15, 0.5]",1,1,,,,,,,,,0,3,3,3,0,7,7,4,,,,,,,,,,,,,,,,,,,,,,,,,,,,,,,,,,,,,,,,,,,,,,,480.3832808299994,None,480.3832808299994,None,480.3832808299994,None,c,1,0.6652016469997761,481.9161082460014,None,481.9161082460014,None,481.9161082460014,None,482.6332223370009,None,482.6332223370009,None,482.6332223370009,None,482.6332223370009,None,,,,,,,,,,,,,,,,,001,41,2020_Jan_30_1316,spring_faces,3.1.5,60.01188007262941,
condition files/Stage1_1.xlsx,,B3,T3,c,"['c', 'm']","['Clue', 'Monopoly']","[-0.15, 0.5]","[0.15, 0.5]",1,1,,,,,,,,,0,4,4,4,0,0,0,4,,,,,,,,,,,,,,,,,,,,,,,,,,,,,,,,,,,,,,,,,,,,,,,484.61704320900026,None,484.61704320900026,None,484.61704320900026,None,c,1,1.0219556340016425,486.1514168930007,None,486.1514168930007,None,486.1514168930007,None,487.2333245830014,None,487.2333245830014,None,487.2333245830014,None,487.2333245830014,None,,,,,,,,,,,,,,,,,001,41,2020_Jan_30_1316,spring_faces,3.1.5,60.01188007262941,
condition files/Stage1_1.xlsx,,T3,B4,c,"['c', 'm']","['Clue', 'Monopoly']","[-0.15, 0.5]","[0.15, 0.5]",1,1,,,,,,,,,0,4,4,4,0,1,1,5,,,,,,,,,,,,,,,,,,,,,,,,,,,,,,,,,,,,,,,,,,,,,,,489.1997765180022,None,489.1997765180022,None,489.1997765180022,None,c,1,1.3983979479999107,490.7349108269991,None,490.7349108269991,None,490.7349108269991,None,492.1834045700016,None,492.1834045700016,None,492.1834045700016,None,492.1834045700016,None,,,,,,,,,,,,,,,,,001,41,2020_Jan_30_1316,spring_faces,3.1.5,60.01188007262941,
condition files/Stage1_1.xlsx,,T1,B1,c,"['c', 'm']","['Clue', 'Monopoly']","[-0.15, 0.5]","[0.15, 0.5]",1,1,,,,,,,,,0,4,4,4,0,2,2,0,,,,,,,,,,,,,,,,,,,,,,,,,,,,,,,,,,,,,,,,,,,,,,,494.150371882999,None,494.150371882999,None,494.150371882999,None,m,0,1.0900941389991203,495.683277807002,None,495.683277807002,None,495.683277807002,None,496.8334529490021,None,496.8334529490021,None,496.8334529490021,None,496.8334529490021,None,,,,,,,,,,,,,,,,,001,41,2020_Jan_30_1316,spring_faces,3.1.5,60.01188007262941,
condition files/Stage1_1.xlsx,,B2,T1,m,"['c', 'm']","['Clue', 'Monopoly']","[-0.15, 0.5]","[0.15, 0.5]",1,1,,,,,,,,,0,4,4,4,0,3,3,2,,,,,,,,,,,,,,,,,,,,,,,,,,,,,,,,,,,,,,,,,,,,,,,498.7995886300014,None,498.7995886300014,None,498.7995886300014,None,m,1,0.6644991869980004,500.3327899020005,None,500.3327899020005,None,500.3327899020005,None,501.0525977899997,None,501.0525977899997,None,501.0525977899997,None,501.0525977899997,None,,,,,,,,,,,,,,,,,001,41,2020_Jan_30_1316,spring_faces,3.1.5,60.01188007262941,
condition files/Stage1_1.xlsx,,B1,T2,c,"['c', 'm']","['Clue', 'Monopoly']","[-0.15, 0.5]","[0.15, 0.5]",1,1,,,,,,,,,0,4,4,4,0,4,4,1,,,,,,,,,,,,,,,,,,,,,,,,,,,,,,,,,,,,,,,,,,,,,,,503.01608596400183,None,503.01608596400183,None,503.01608596400183,None,m,0,1.4392424799989385,504.5500719570009,None,504.5500719570009,None,504.5500719570009,None,506.05022333799934,None,506.05022333799934,None,506.05022333799934,None,506.05022333799934,None,,,,,,,,,,,,,,,,,001,41,2020_Jan_30_1316,spring_faces,3.1.5,60.01188007262941,
condition files/Stage1_1.xlsx,,T2,B2,m,"['c', 'm']","['Clue', 'Monopoly']","[-0.15, 0.5]","[0.15, 0.5]",1,1,,,,,,,,,0,4,4,4,0,5,5,3,,,,,,,,,,,,,,,,,,,,,,,,,,,,,,,,,,,,,,,,,,,,,,,508.01657886500107,None,508.01657886500107,None,508.01657886500107,None,m,1,0.759352384997328,509.5500270529992,None,509.5500270529992,None,509.5500270529992,None,510.36719635999907,None,510.36719635999907,None,510.36719635999907,None,510.36719635999907,None,,,,,,,,,,,,,,,,,001,41,2020_Jan_30_1316,spring_faces,3.1.5,60.01188007262941,
condition files/Stage1_1.xlsx,,B4,T4,m,"['c', 'm']","['Clue', 'Monopoly']","[-0.15, 0.5]","[0.15, 0.5]",1,1,,,,,,,,,0,4,4,4,0,6,6,7,,,,,,,,,,,,,,,,,,,,,,,,,,,,,,,,,,,,,,,,,,,,,,,512.333271861,None,512.333271861,None,512.333271861,None,c,0,1.0818575039993448,513.8674516069987,None,513.8674516069987,None,513.8674516069987,None,515.0001599339994,None,515.0001599339994,None,515.0001599339994,None,515.0001599339994,None,,,,,,,,,,,,,,,,,001,41,2020_Jan_30_1316,spring_faces,3.1.5,60.01188007262941,
condition files/Stage1_1.xlsx,,T4,B3,m,"['c', 'm']","['Clue', 'Monopoly']","[-0.15, 0.5]","[0.15, 0.5]",1,1,,,,,,,,,0,4,4,4,0,7,7,6,,,,,,,,,,,,,,,,,,,,,,,,,,,,,,,,,,,,,,,,,,,,,,,516.9663721830002,None,516.9663721830002,None,516.9663721830002,None,c,0,1.9676173080006265,518.5016918049987,None,518.5016918049987,None,518.5016918049987,None,520.5333110220017,None,520.5333110220017,None,520.5333110220017,None,520.5333110220017,None,,,,,,,,,,,,,,,,,001,41,2020_Jan_30_1316,spring_faces,3.1.5,60.01188007262941,
condition files/Stage1_2.xlsx,,B2,T2,m,"['c', 'm']","['Clue', 'Monopoly']","[-0.15, 0.5]","[0.15, 0.5]",1,1,,,,,,,,,0,5,5,5,0,0,0,3,,,,,,,,,,,,,,,,,,,,,,,,,,,,,,,,,,,,,,,,,,,,,,,522.5169143480016,None,522.5169143480016,None,522.5169143480016,None,m,1,1.9543966669989459,524.0669140690006,None,524.0669140690006,None,524.0669140690006,None,526.083183581999,None,526.083183581999,None,526.083183581999,None,526.083183581999,None,,,,,,,,,,,,,,,,,001,41,2020_Jan_30_1316,spring_faces,3.1.5,60.01188007262941,
condition files/Stage1_2.xlsx,,T1,B2,m,"['c', 'm']","['Clue', 'Monopoly']","[-0.15, 0.5]","[0.15, 0.5]",1,1,,,,,,,,,0,5,5,5,0,1,1,2,,,,,,,,,,,,,,,,,,,,,,,,,,,,,,,,,,,,,,,,,,,,,,,528.049882268002,None,528.049882268002,None,528.049882268002,None,m,1,0.7412077070002852,529.6001472690004,None,529.6001472690004,None,529.6001472690004,None,530.4001320850002,None,530.4001320850002,None,530.4001320850002,None,530.4001320850002,None,,,,,,,,,,,,,,,,,001,41,2020_Jan_30_1316,spring_faces,3.1.5,60.01188007262941,
condition files/Stage1_2.xlsx,,T4,B4,m,"['c', 'm']","['Clue', 'Monopoly']","[-0.15, 0.5]","[0.15, 0.5]",1,1,,,,,,,,,0,5,5,5,0,2,2,7,,,,,,,,,,,,,,,,,,,,,,,,,,,,,,,,,,,,,,,,,,,,,,,532.3666927890008,None,532.3666927890008,None,532.3666927890008,None,c,0,1.4323609349994513,533.9009041190002,None,533.9009041190002,None,533.9009041190002,None,535.3831715250017,None,535.3831715250017,None,535.3831715250017,None,535.3831715250017,None,,,,,,,,,,,,,,,,,001,41,2020_Jan_30_1316,spring_faces,3.1.5,60.01188007262941,
condition files/Stage1_2.xlsx,,B1,T1,c,"['c', 'm']","['Clue', 'Monopoly']","[-0.15, 0.5]","[0.15, 0.5]",1,1,,,,,,,,,0,5,5,5,0,3,3,0,,,,,,,,,,,,,,,,,,,,,,,,,,,,,,,,,,,,,,,,,,,,,,,537.3496156450019,None,537.3496156450019,None,537.3496156450019,None,m,0,1.2320745950019045,538.8851771100017,None,538.8851771100017,None,538.8851771100017,None,540.1830559190021,None,540.1830559190021,None,540.1830559190021,None,540.1830559190021,None,,,,,,,,,,,,,,,,,001,41,2020_Jan_30_1316,spring_faces,3.1.5,60.01188007262941,
condition files/Stage1_2.xlsx,,B3,T4,m,"['c', 'm']","['Clue', 'Monopoly']","[-0.15, 0.5]","[0.15, 0.5]",1,1,,,,,,,,,0,5,5,5,0,4,4,6,,,,,,,,,,,,,,,,,,,,,,,,,,,,,,,,,,,,,,,,,,,,,,,542.1495657240011,None,542.1495657240011,None,542.1495657240011,None,c,0,1.1372452790019452,543.7000523940005,None,543.7000523940005,None,543.7000523940005,None,544.9163269269993,None,544.9163269269993,None,544.9163269269993,None,544.9163269269993,None,,,,,,,,,,,,,,,,,001,41,2020_Jan_30_1316,spring_faces,3.1.5,60.01188007262941,
condition files/Stage1_2.xlsx,,B4,T3,c,"['c', 'm']","['Clue', 'Monopoly']","[-0.15, 0.5]","[0.15, 0.5]",1,1,,,,,,,,,0,5,5,5,0,5,5,5,,,,,,,,,,,,,,,,,,,,,,,,,,,,,,,,,,,,,,,,,,,,,,,546.8660424520021,None,546.8660424520021,None,546.8660424520021,None,c,1,1.0450473509990843,548.4002145779996,None,548.4002145779996,None,548.4002145779996,None,549.5007056550021,None,549.5007056550021,None,549.5007056550021,None,549.5007056550021,None,,,,,,,,,,,,,,,,,001,41,2020_Jan_30_1316,spring_faces,3.1.5,60.01188007262941,
condition files/Stage1_2.xlsx,,T3,B3,c,"['c', 'm']","['Clue', 'Monopoly']","[-0.15, 0.5]","[0.15, 0.5]",1,1,,,,,,,,,0,5,5,5,0,6,6,4,,,,,,,,,,,,,,,,,,,,,,,,,,,,,,,,,,,,,,,,,,,,,,,551.4660553950016,None,551.4660553950016,None,551.4660553950016,None,m,0,1.5646336320023693,553.0166524140004,None,553.0166524140004,None,553.0166524140004,None,554.6332555480003,None,554.6332555480003,None,554.6332555480003,None,554.6332555480003,None,,,,,,,,,,,,,,,,,001,41,2020_Jan_30_1316,spring_faces,3.1.5,60.01188007262941,
condition files/Stage1_2.xlsx,,T2,B1,c,"['c', 'm']","['Clue', 'Monopoly']","[-0.15, 0.5]","[0.15, 0.5]",1,1,,,,,,,,,0,5,5,5,0,7,7,1,,,,,,,,,,,,,,,,,,,,,,,,,,,,,,,,,,,,,,,,,,,,,,,556.5999206289998,None,556.5999206289998,None,556.5999206289998,None,c,1,1.0071133799974632,558.1342348760008,None,558.1342348760008,None,558.1342348760008,None,559.2002179670017,None,559.2002179670017,None,559.2002179670017,None,559.2002179670017,None,,,,,,,,,,,,,,,,,001,41,2020_Jan_30_1316,spring_faces,3.1.5,60.01188007262941,
condition files/Stage1_1.xlsx,,T3,B4,c,"['c', 'm']","['Clue', 'Monopoly']","[-0.15, 0.5]","[0.15, 0.5]",1,1,,,,,,,,,0,6,6,6,0,0,0,5,,,,,,,,,,,,,,,,,,,,,,,,,,,,,,,,,,,,,,,,,,,,,,,561.1835896320008,None,561.1835896320008,None,561.1835896320008,None,c,1,1.7994190359968343,562.7178465750003,None,562.7178465750003,None,562.7178465750003,None,564.5835454750013,None,564.5835454750013,None,564.5835454750013,None,564.5835454750013,None,,,,,,,,,,,,,,,,,001,41,2020_Jan_30_1316,spring_faces,3.1.5,60.01188007262941,
condition files/Stage1_1.xlsx,,B3,T3,c,"['c', 'm']","['Clue', 'Monopoly']","[-0.15, 0.5]","[0.15, 0.5]",1,1,,,,,,,,,0,6,6,6,0,1,1,4,,,,,,,,,,,,,,,,,,,,,,,,,,,,,,,,,,,,,,,,,,,,,,,566.5499003309997,None,566.5499003309997,None,566.5499003309997,None,c,1,1.440953998000623,568.0844281089994,None,568.0844281089994,None,568.0844281089994,None,569.5832073730016,None,569.5832073730016,None,569.5832073730016,None,569.5832073730016,None,,,,,,,,,,,,,,,,,001,41,2020_Jan_30_1316,spring_faces,3.1.5,60.01188007262941,
condition files/Stage1_1.xlsx,,B4,T4,m,"['c', 'm']","['Clue', 'Monopoly']","[-0.15, 0.5]","[0.15, 0.5]",1,1,,,,,,,,,0,6,6,6,0,2,2,7,,,,,,,,,,,,,,,,,,,,,,,,,,,,,,,,,,,,,,,,,,,,,,,571.5495905710013,None,571.5495905710013,None,571.5495905710013,None,m,1,1.3209022310002183,573.1004073090007,None,573.1004073090007,None,573.1004073090007,None,574.5002695389994,None,574.5002695389994,None,574.5002695389994,None,574.5002695389994,None,,,,,,,,,,,,,,,,,001,41,2020_Jan_30_1316,spring_faces,3.1.5,60.01188007262941,
condition files/Stage1_1.xlsx,,T4,B3,m,"['c', 'm']","['Clue', 'Monopoly']","[-0.15, 0.5]","[0.15, 0.5]",1,1,,,,,,,,,0,6,6,6,0,3,3,6,,,,,,,,,,,,,,,,,,,,,,,,,,,,,,,,,,,,,,,,,,,,,,,576.4499328929996,None,576.4499328929996,None,576.4499328929996,None,m,1,0.7743208809988573,577.9830565820012,None,577.9830565820012,None,577.9830565820012,None,578.816299913,None,578.816299913,None,578.816299913,None,578.816299913,None,,,,,,,,,,,,,,,,,001,41,2020_Jan_30_1316,spring_faces,3.1.5,60.01188007262941,
condition files/Stage1_1.xlsx,,B1,T2,c,"['c', 'm']","['Clue', 'Monopoly']","[-0.15, 0.5]","[0.15, 0.5]",1,1,,,,,,,,,0,6,6,6,0,4,4,1,,,,,,,,,,,,,,,,,,,,,,,,,,,,,,,,,,,,,,,,,,,,,,,580.7833256580016,None,580.7833256580016,None,580.7833256580016,None,m,0,1.5118538909991912,582.3174230799996,None,582.3174230799996,None,582.3174230799996,None,583.8846884980012,None,583.8846884980012,None,583.8846884980012,None,583.8846884980012,None,,,,,,,,,,,,,,,,,001,41,2020_Jan_30_1316,spring_faces,3.1.5,60.01188007262941,
condition files/Stage1_1.xlsx,,T2,B2,m,"['c', 'm']","['Clue', 'Monopoly']","[-0.15, 0.5]","[0.15, 0.5]",1,1,,,,,,,,,0,6,6,6,0,5,5,3,,,,,,,,,,,,,,,,,,,,,,,,,,,,,,,,,,,,,,,,,,,,,,,585.850036885,None,585.850036885,None,585.850036885,None,m,1,0.9732532740017632,587.3841233950006,None,587.3841233950006,None,587.3841233950006,None,588.4187223529989,None,588.4187223529989,None,588.4187223529989,None,588.4187223529989,None,,,,,,,,,,,,,,,,,001,41,2020_Jan_30_1316,spring_faces,3.1.5,60.01188007262941,
condition files/Stage1_1.xlsx,,T1,B1,c,"['c', 'm']","['Clue', 'Monopoly']","[-0.15, 0.5]","[0.15, 0.5]",1,1,,,,,,,,,0,6,6,6,0,6,6,0,,,,,,,,,,,,,,,,,,,,,,,,,,,,,,,,,,,,,,,,,,,,,,,590.3833852909993,None,590.3833852909993,None,590.3833852909993,None,c,1,0.8882544339976448,591.9330396139994,None,591.9330396139994,None,591.9330396139994,None,592.8848255320008,None,592.8848255320008,None,592.8848255320008,None,592.8848255320008,None,,,,,,,,,,,,,,,,,001,41,2020_Jan_30_1316,spring_faces,3.1.5,60.01188007262941,
condition files/Stage1_1.xlsx,,B2,T1,m,"['c', 'm']","['Clue', 'Monopoly']","[-0.15, 0.5]","[0.15, 0.5]",1,1,,,,,,,,,0,6,6,6,0,7,7,2,,,,,,,,,,,,,,,,,,,,,,,,,,,,,,,,,,,,,,,,,,,,,,,594.8502916700018,None,594.8502916700018,None,594.8502916700018,None,m,1,1.0133884280003258,596.383924992002,None,596.383924992002,None,596.383924992002,None,597.452304942999,None,597.452304942999,None,597.452304942999,None,597.452304942999,None,,,,,,,,,,,,,,,,,001,41,2020_Jan_30_1316,spring_faces,3.1.5,60.01188007262941,
condition files/Stage1_2.xlsx,,T4,B4,m,"['c', 'm']","['Clue', 'Monopoly']","[-0.15, 0.5]","[0.15, 0.5]",1,1,,,,,,,,,0,7,7,7,0,0,0,7,,,,,,,,,,,,,,,,,,,,,,,,,,,,,,,,,,,,,,,,,,,,,,,599.4332634439997,None,599.4332634439997,None,599.4332634439997,None,m,1,1.4533194139985426,600.9680085660002,None,600.9680085660002,None,600.9680085660002,None,602.4852005700013,None,602.4852005700013,None,602.4852005700013,None,602.4852005700013,None,,,,,,,,,,,,,,,,,001,41,2020_Jan_30_1316,spring_faces,3.1.5,60.01188007262941,
condition files/Stage1_2.xlsx,,B1,T1,c,"['c', 'm']","['Clue', 'Monopoly']","[-0.15, 0.5]","[0.15, 0.5]",1,1,,,,,,,,,0,7,7,7,0,1,1,0,,,,,,,,,,,,,,,,,,,,,,,,,,,,,,,,,,,,,,,,,,,,,,,604.4499621750001,None,604.4499621750001,None,604.4499621750001,None,c,1,0.9165798649992212,605.984703418002,None,605.984703418002,None,605.984703418002,None,606.9687886840002,None,606.9687886840002,None,606.9687886840002,None,606.9687886840002,None,,,,,,,,,,,,,,,,,001,41,2020_Jan_30_1316,spring_faces,3.1.5,60.01188007262941,
condition files/Stage1_2.xlsx,,T3,B3,c,"['c', 'm']","['Clue', 'Monopoly']","[-0.15, 0.5]","[0.15, 0.5]",1,1,,,,,,,,,0,7,7,7,0,2,2,4,,,,,,,,,,,,,,,,,,,,,,,,,,,,,,,,,,,,,,,,,,,,,,,608.9326673600008,None,608.9326673600008,None,608.9326673600008,None,c,1,1.1857832070018048,610.4675348550008,None,610.4675348550008,None,610.4675348550008,None,611.7167163410013,None,611.7167163410013,None,611.7167163410013,None,611.7167163410013,None,,,,,,,,,,,,,,,,,001,41,2020_Jan_30_1316,spring_faces,3.1.5,60.01188007262941,
condition files/Stage1_2.xlsx,,B3,T4,m,"['c', 'm']","['Clue', 'Monopoly']","[-0.15, 0.5]","[0.15, 0.5]",1,1,,,,,,,,,0,7,7,7,0,3,3,6,,,,,,,,,,,,,,,,,,,,,,,,,,,,,,,,,,,,,,,,,,,,,,,613.6832863560012,None,613.6832863560012,None,613.6832863560012,None,m,1,1.139124624998658,615.2182202069998,None,615.2182202069998,None,615.2182202069998,None,616.4197717499992,None,616.4197717499992,None,616.4197717499992,None,616.4197717499992,None,,,,,,,,,,,,,,,,,001,41,2020_Jan_30_1316,spring_faces,3.1.5,60.01188007262941,
condition files/Stage1_2.xlsx,,T2,B1,c,"['c', 'm']","['Clue', 'Monopoly']","[-0.15, 0.5]","[0.15, 0.5]",1,1,,,,,,,,,0,7,7,7,0,4,4,1,,,,,,,,,,,,,,,,,,,,,,,,,,,,,,,,,,,,,,,,,,,,,,,618.3832179099991,None,618.3832179099991,None,618.3832179099991,None,m,0,0.8562751219978963,619.917084359,None,619.917084359,None,619.917084359,None,620.8356604520013,None,620.8356604520013,None,620.8356604520013,None,620.8356604520013,None,,,,,,,,,,,,,,,,,001,41,2020_Jan_30_1316,spring_faces,3.1.5,60.01188007262941,
condition files/Stage1_2.xlsx,,B2,T2,m,"['c', 'm']","['Clue', 'Monopoly']","[-0.15, 0.5]","[0.15, 0.5]",1,1,,,,,,,,,0,7,7,7,0,5,5,3,,,,,,,,,,,,,,,,,,,,,,,,,,,,,,,,,,,,,,,,,,,,,,,622.7996742610012,None,622.7996742610012,None,622.7996742610012,None,m,1,0.6293842560007761,624.3359260990001,None,624.3359260990001,None,624.3359260990001,None,625.0174595200006,None,625.0174595200006,None,625.0174595200006,None,625.0174595200006,None,,,,,,,,,,,,,,,,,001,41,2020_Jan_30_1316,spring_faces,3.1.5,60.01188007262941,
condition files/Stage1_2.xlsx,,T1,B2,m,"['c', 'm']","['Clue', 'Monopoly']","[-0.15, 0.5]","[0.15, 0.5]",1,1,,,,,,,,,0,7,7,7,0,6,6,2,,,,,,,,,,,,,,,,,,,,,,,,,,,,,,,,,,,,,,,,,,,,,,,626.9833213929996,None,626.9833213929996,None,626.9833213929996,None,m,1,1.0220274819985207,628.5193638429992,None,628.5193638429992,None,628.5193638429992,None,629.6000959699995,None,629.6000959699995,None,629.6000959699995,None,629.6000959699995,None,,,,,,,,,,,,,,,,,001,41,2020_Jan_30_1316,spring_faces,3.1.5,60.01188007262941,
condition files/Stage1_2.xlsx,,B4,T3,c,"['c', 'm']","['Clue', 'Monopoly']","[-0.15, 0.5]","[0.15, 0.5]",1,1,,,,,,,,,0,7,7,7,0,7,7,5,,,,,,,,,,,,,,,,,,,,,,,,,,,,,,,,,,,,,,,,,,,,,,,631.5667075290003,None,631.5667075290003,None,631.5667075290003,None,c,1,0.8245078399995691,633.1008749450011,None,633.1008749450011,None,633.1008749450011,None,633.9834261729993,None,633.9834261729993,None,633.9834261729993,None,633.9834261729993,None,,,,,,,,,,,,,,,,,001,41,2020_Jan_30_1316,spring_faces,3.1.5,60.01188007262941,
condition files/Stage1_1.xlsx,,B2,T1,m,"['c', 'm']","['Clue', 'Monopoly']","[-0.15, 0.5]","[0.15, 0.5]",1,1,,,,,,,,,0,8,8,8,0,0,0,2,,,,,,,,,,,,,,,,,,,,,,,,,,,,,,,,,,,,,,,,,,,,,,,635.9665442469995,None,635.9665442469995,None,635.9665442469995,None,m,1,0.6808948500001861,637.5004278269989,None,637.5004278269989,None,637.5004278269989,None,638.2498585350004,None,638.2498585350004,None,638.2498585350004,None,638.2498585350004,None,,,,,,,,,,,,,,,,,001,41,2020_Jan_30_1316,spring_faces,3.1.5,60.01188007262941,
condition files/Stage1_1.xlsx,,T1,B1,c,"['c', 'm']","['Clue', 'Monopoly']","[-0.15, 0.5]","[0.15, 0.5]",1,1,,,,,,,,,0,8,8,8,0,1,1,0,,,,,,,,,,,,,,,,,,,,,,,,,,,,,,,,,,,,,,,,,,,,,,,640.1999300810021,None,640.1999300810021,None,640.1999300810021,None,c,1,1.055574432000867,641.7497144869994,None,641.7497144869994,None,641.7497144869994,None,642.883448089,None,642.883448089,None,642.883448089,None,642.883448089,None,,,,,,,,,,,,,,,,,001,41,2020_Jan_30_1316,spring_faces,3.1.5,60.01188007262941,
condition files/Stage1_1.xlsx,,B1,T2,c,"['c', 'm']","['Clue', 'Monopoly']","[-0.15, 0.5]","[0.15, 0.5]",1,1,,,,,,,,,0,8,8,8,0,2,2,1,,,,,,,,,,,,,,,,,,,,,,,,,,,,,,,,,,,,,,,,,,,,,,,644.8334358159991,None,644.8334358159991,None,644.8334358159991,None,c,1,1.0608744330020272,646.368450304999,None,646.368450304999,None,646.368450304999,None,647.4834619390022,None,647.4834619390022,None,647.4834619390022,None,647.4834619390022,None,,,,,,,,,,,,,,,,,001,41,2020_Jan_30_1316,spring_faces,3.1.5,60.01188007262941,
condition files/Stage1_1.xlsx,,B3,T3,c,"['c', 'm']","['Clue', 'Monopoly']","[-0.15, 0.5]","[0.15, 0.5]",1,1,,,,,,,,,0,8,8,8,0,3,3,4,,,,,,,,,,,,,,,,,,,,,,,,,,,,,,,,,,,,,,,,,,,,,,,649.4496639809986,None,649.4496639809986,None,649.4496639809986,None,c,1,0.9092333230000804,650.9841112840004,None,650.9841112840004,None,650.9841112840004,None,651.9503276860014,None,651.9503276860014,None,651.9503276860014,None,651.9503276860014,None,,,,,,,,,,,,,,,,,001,41,2020_Jan_30_1316,spring_faces,3.1.5,60.01188007262941,
condition files/Stage1_1.xlsx,,B4,T4,m,"['c', 'm']","['Clue', 'Monopoly']","[-0.15, 0.5]","[0.15, 0.5]",1,1,,,,,,,,,0,8,8,8,0,4,4,7,,,,,,,,,,,,,,,,,,,,,,,,,,,,,,,,,,,,,,,,,,,,,,,653.9166111630002,None,653.9166111630002,None,653.9166111630002,None,m,1,0.9224811189997126,655.4668791799995,None,655.4668791799995,None,655.4668791799995,None,656.4665524180018,None,656.4665524180018,None,656.4665524180018,None,656.4665524180018,None,,,,,,,,,,,,,,,,,001,41,2020_Jan_30_1316,spring_faces,3.1.5,60.01188007262941,
condition files/Stage1_1.xlsx,,T3,B4,c,"['c', 'm']","['Clue', 'Monopoly']","[-0.15, 0.5]","[0.15, 0.5]",1,1,,,,,,,,,0,8,8,8,0,5,5,5,,,,,,,,,,,,,,,,,,,,,,,,,,,,,,,,,,,,,,,,,,,,,,,658.4162954480016,None,658.4162954480016,None,658.4162954480016,None,c,1,0.8547429220016056,659.966552842001,None,659.966552842001,None,659.966552842001,None,660.9001199359991,None,660.9001199359991,None,660.9001199359991,None,660.9001199359991,None,,,,,,,,,,,,,,,,,001,41,2020_Jan_30_1316,spring_faces,3.1.5,60.01188007262941,
condition files/Stage1_1.xlsx,,T2,B2,m,"['c', 'm']","['Clue', 'Monopoly']","[-0.15, 0.5]","[0.15, 0.5]",1,1,,,,,,,,,0,8,8,8,0,6,6,3,,,,,,,,,,,,,,,,,,,,,,,,,,,,,,,,,,,,,,,,,,,,,,,662.8501793350006,None,662.8501793350006,None,662.8501793350006,None,m,1,0.66172011800154,664.3836081279987,None,664.3836081279987,None,664.3836081279987,None,665.1168948910017,None,665.1168948910017,None,665.1168948910017,None,665.1168948910017,None,,,,,,,,,,,,,,,,,001,41,2020_Jan_30_1316,spring_faces,3.1.5,60.01188007262941,
condition files/Stage1_1.xlsx,,T4,B3,m,"['c', 'm']","['Clue', 'Monopoly']","[-0.15, 0.5]","[0.15, 0.5]",1,1,,,,,,,,,0,8,8,8,0,7,7,6,,,,,,,,,,,,,,,,,,,,,,,,,,,,,,,,,,,,,,,,,,,,,,,667.0661490470011,None,667.0661490470011,None,667.0661490470011,None,m,1,0.9393294949986739,668.6020717790016,None,668.6020717790016,None,668.6020717790016,None,669.5998789619989,None,669.5998789619989,None,669.5998789619989,None,669.5998789619989,None,,,,,,,,,,,,,,,,,001,41,2020_Jan_30_1316,spring_faces,3.1.5,60.01188007262941,
condition files/Stage1_2.xlsx,,B2,T2,m,"['c', 'm']","['Clue', 'Monopoly']","[-0.15, 0.5]","[0.15, 0.5]",1,1,,,,,,,,,0,9,9,9,0,0,0,3,,,,,,,,,,,,,,,,,,,,,,,,,,,,,,,,,,,,,,,,,,,,,,,671.5833951560016,None,671.5833951560016,None,671.5833951560016,None,m,1,0.7749605409990181,673.1183805120017,None,673.1183805120017,None,673.1183805120017,None,673.9495045820004,None,673.9495045820004,None,673.9495045820004,None,673.9495045820004,None,,,,,,,,,,,,,,,,,001,41,2020_Jan_30_1316,spring_faces,3.1.5,60.01188007262941,
condition files/Stage1_2.xlsx,,B4,T3,c,"['c', 'm']","['Clue', 'Monopoly']","[-0.15, 0.5]","[0.15, 0.5]",1,1,,,,,,,,,0,9,9,9,0,1,1,5,,,,,,,,,,,,,,,,,,,,,,,,,,,,,,,,,,,,,,,,,,,,,,,675.9162393020015,None,675.9162393020015,None,675.9162393020015,None,c,1,1.8838640249996388,677.4494336450007,None,677.4494336450007,None,677.4494336450007,None,679.4001518299992,None,679.4001518299992,None,679.4001518299992,None,679.4001518299992,None,,,,,,,,,,,,,,,,,001,41,2020_Jan_30_1316,spring_faces,3.1.5,60.01188007262941,
condition files/Stage1_2.xlsx,,T1,B2,m,"['c', 'm']","['Clue', 'Monopoly']","[-0.15, 0.5]","[0.15, 0.5]",1,1,,,,,,,,,0,9,9,9,0,2,2,2,,,,,,,,,,,,,,,,,,,,,,,,,,,,,,,,,,,,,,,,,,,,,,,681.3502791819992,None,681.3502791819992,None,681.3502791819992,None,m,1,1.0247796709991235,682.884595522999,None,682.884595522999,None,682.884595522999,None,683.9671027799995,None,683.9671027799995,None,683.9671027799995,None,683.9671027799995,None,,,,,,,,,,,,,,,,,001,41,2020_Jan_30_1316,spring_faces,3.1.5,60.01188007262941,
condition files/Stage1_2.xlsx,,T2,B1,c,"['c', 'm']","['Clue', 'Monopoly']","[-0.15, 0.5]","[0.15, 0.5]",1,1,,,,,,,,,0,9,9,9,0,3,3,1,,,,,,,,,,,,,,,,,,,,,,,,,,,,,,,,,,,,,,,,,,,,,,,685.933278061002,None,685.933278061002,None,685.933278061002,None,c,1,0.9042105680018722,687.4691672270019,None,687.4691672270019,None,687.4691672270019,None,688.4502970149988,None,688.4502970149988,None,688.4502970149988,None,688.4502970149988,None,,,,,,,,,,,,,,,,,001,41,2020_Jan_30_1316,spring_faces,3.1.5,60.01188007262941,
condition files/Stage1_2.xlsx,,B1,T1,c,"['c', 'm']","['Clue', 'Monopoly']","[-0.15, 0.5]","[0.15, 0.5]",1,1,,,,,,,,,0,9,9,9,0,4,4,0,,,,,,,,,,,,,,,,,,,,,,,,,,,,,,,,,,,,,,,,,,,,,,,690.3998800070003,None,690.3998800070003,None,690.3998800070003,None,c,1,1.0304711409989977,691.93483844,None,691.93483844,None,691.93483844,None,693.016782450999,None,693.016782450999,None,693.016782450999,None,693.016782450999,None,,,,,,,,,,,,,,,,,001,41,2020_Jan_30_1316,spring_faces,3.1.5,60.01188007262941,
condition files/Stage1_2.xlsx,,T3,B3,c,"['c', 'm']","['Clue', 'Monopoly']","[-0.15, 0.5]","[0.15, 0.5]",1,1,,,,,,,,,0,9,9,9,0,5,5,4,,,,,,,,,,,,,,,,,,,,,,,,,,,,,,,,,,,,,,,,,,,,,,,694.9829658039998,None,694.9829658039998,None,694.9829658039998,None,c,1,0.8473437300017395,696.533946765001,None,696.533946765001,None,696.533946765001,None,697.4330353170008,None,697.4330353170008,None,697.4330353170008,None,697.4330353170008,None,,,,,,,,,,,,,,,,,001,41,2020_Jan_30_1316,spring_faces,3.1.5,60.01188007262941,
condition files/Stage1_2.xlsx,,B3,T4,m,"['c', 'm']","['Clue', 'Monopoly']","[-0.15, 0.5]","[0.15, 0.5]",1,1,,,,,,,,,0,9,9,9,0,6,6,6,,,,,,,,,,,,,,,,,,,,,,,,,,,,,,,,,,,,,,,,,,,,,,,699.3994019790007,None,699.3994019790007,None,699.3994019790007,None,m,1,0.7995126470013929,700.9497853540015,None,700.9497853540015,None,700.9497853540015,None,701.8164887230014,None,701.8164887230014,None,701.8164887230014,None,701.8164887230014,None,,,,,,,,,,,,,,,,,001,41,2020_Jan_30_1316,spring_faces,3.1.5,60.01188007262941,
condition files/Stage1_2.xlsx,,T4,B4,m,"['c', 'm']","['Clue', 'Monopoly']","[-0.15, 0.5]","[0.15, 0.5]",1,1,,,,,,,,,0,9,9,9,0,7,7,7,,,,,,,,,,,,,,,,,,,,,,,,,,,,,,,,,,,,,,,,,,,,,,,703.7668652620014,None,703.7668652620014,None,703.7668652620014,None,m,1,0.8480308180005522,705.3012833749999,None,705.3012833749999,None,705.3012833749999,None,706.2001476190017,None,706.2001476190017,None,706.2001476190017,None,706.2001476190017,None,,,,,,,,,,,,,,,,,001,41,2020_Jan_30_1316,spring_faces,3.1.5,60.01188007262941,
condition files/Stage1_1.xlsx,,B4,T4,m,"['c', 'm']","['Clue', 'Monopoly']","[-0.15, 0.5]","[0.15, 0.5]",1,1,,,,,,,,,0,10,10,10,0,0,0,7,,,,,,,,,,,,,,,,,,,,,,,,,,,,,,,,,,,,,,,,,,,,,,,708.1835601780003,None,708.1835601780003,None,708.1835601780003,None,m,1,0.7678307949972805,709.733426564002,None,709.733426564002,None,709.733426564002,None,710.5665507129997,None,710.5665507129997,None,710.5665507129997,None,710.5665507129997,None,,,,,,,,,,,,,,,,,001,41,2020_Jan_30_1316,spring_faces,3.1.5,60.01188007262941,
condition files/Stage1_1.xlsx,,B3,T3,c,"['c', 'm']","['Clue', 'Monopoly']","[-0.15, 0.5]","[0.15, 0.5]",1,1,,,,,,,,,0,10,10,10,0,1,1,4,,,,,,,,,,,,,,,,,,,,,,,,,,,,,,,,,,,,,,,,,,,,,,,712.5332840100018,None,712.5332840100018,None,712.5332840100018,None,c,1,0.9137462159997085,714.0835500479989,None,714.0835500479989,None,714.0835500479989,None,715.0503337890004,None,715.0503337890004,None,715.0503337890004,None,715.0503337890004,None,,,,,,,,,,,,,,,,,001,41,2020_Jan_30_1316,spring_faces,3.1.5,60.01188007262941,
condition files/Stage1_1.xlsx,,T3,B4,c,"['c', 'm']","['Clue', 'Monopoly']","[-0.15, 0.5]","[0.15, 0.5]",1,1,,,,,,,,,0,10,10,10,0,2,2,5,,,,,,,,,,,,,,,,,,,,,,,,,,,,,,,,,,,,,,,,,,,,,,,717.0166037830022,None,717.0166037830022,None,717.0166037830022,None,c,1,0.8935445189999882,718.5517200870017,None,718.5517200870017,None,718.5517200870017,None,719.5001371580001,None,719.5001371580001,None,719.5001371580001,None,719.5001371580001,None,,,,,,,,,,,,,,,,,001,41,2020_Jan_30_1316,spring_faces,3.1.5,60.01188007262941,
condition files/Stage1_1.xlsx,,T2,B2,m,"['c', 'm']","['Clue', 'Monopoly']","[-0.15, 0.5]","[0.15, 0.5]",1,1,,,,,,,,,0,10,10,10,0,3,3,3,,,,,,,,,,,,,,,,,,,,,,,,,,,,,,,,,,,,,,,,,,,,,,,721.4667693289994,None,721.4667693289994,None,721.4667693289994,None,m,1,0.9083648129999347,723.000874712001,None,723.000874712001,None,723.000874712001,None,723.9834100510016,None,723.9834100510016,None,723.9834100510016,None,723.9834100510016,None,,,,,,,,,,,,,,,,,001,41,2020_Jan_30_1316,spring_faces,3.1.5,60.01188007262941,
condition files/Stage1_1.xlsx,,B2,T1,m,"['c', 'm']","['Clue', 'Monopoly']","[-0.15, 0.5]","[0.15, 0.5]",1,1,,,,,,,,,0,10,10,10,0,4,4,2,,,,,,,,,,,,,,,,,,,,,,,,,,,,,,,,,,,,,,,,,,,,,,,725.9332581150011,None,725.9332581150011,None,725.9332581150011,None,m,1,0.7468513040003018,727.4664645369994,None,727.4664645369994,None,727.4664645369994,None,728.2670828209993,None,728.2670828209993,None,728.2670828209993,None,728.2670828209993,None,,,,,,,,,,,,,,,,,001,41,2020_Jan_30_1316,spring_faces,3.1.5,60.01188007262941,
condition files/Stage1_1.xlsx,,B1,T2,c,"['c', 'm']","['Clue', 'Monopoly']","[-0.15, 0.5]","[0.15, 0.5]",1,1,,,,,,,,,0,10,10,10,0,5,5,1,,,,,,,,,,,,,,,,,,,,,,,,,,,,,,,,,,,,,,,,,,,,,,,730.233419766002,None,730.233419766002,None,730.233419766002,None,c,1,1.9817337519998546,731.7675679150016,None,731.7675679150016,None,731.7675679150016,None,733.8002988260014,None,733.8002988260014,None,733.8002988260014,None,733.8002988260014,None,,,,,,,,,,,,,,,,,001,41,2020_Jan_30_1316,spring_faces,3.1.5,60.01188007262941,
condition files/Stage1_1.xlsx,,T1,B1,c,"['c', 'm']","['Clue', 'Monopoly']","[-0.15, 0.5]","[0.15, 0.5]",1,1,,,,,,,,,0,10,10,10,0,6,6,0,,,,,,,,,,,,,,,,,,,,,,,,,,,,,,,,,,,,,,,,,,,,,,,735.766535019,None,735.766535019,None,735.766535019,None,c,1,0.9451774039989687,737.3001072020015,None,737.3001072020015,None,737.3001072020015,None,738.3001739479987,None,738.3001739479987,None,738.3001739479987,None,738.3001739479987,None,,,,,,,,,,,,,,,,,001,41,2020_Jan_30_1316,spring_faces,3.1.5,60.01188007262941,
condition files/Stage1_1.xlsx,,T4,B3,m,"['c', 'm']","['Clue', 'Monopoly']","[-0.15, 0.5]","[0.15, 0.5]",1,1,,,,,,,,,0,10,10,10,0,7,7,6,,,,,,,,,,,,,,,,,,,,,,,,,,,,,,,,,,,,,,,,,,,,,,,740.2666259809994,None,740.2666259809994,None,740.2666259809994,None,m,1,0.9095528899997589,741.7998189620012,None,741.7998189620012,None,741.7998189620012,None,742.768533773,None,742.768533773,None,742.768533773,None,742.768533773,None,,,,,,,,,,,,,,,,,001,41,2020_Jan_30_1316,spring_faces,3.1.5,60.01188007262941,
condition files/Stage1_2.xlsx,,B2,T2,m,"['c', 'm']","['Clue', 'Monopoly']","[-0.15, 0.5]","[0.15, 0.5]",1,1,,,,,,,,,0,11,11,11,0,0,0,3,,,,,,,,,,,,,,,,,,,,,,,,,,,,,,,,,,,,,,,,,,,,,,,744.7500575869999,None,744.7500575869999,None,744.7500575869999,None,m,1,0.8085710579980514,746.2847955600009,None,746.2847955600009,None,746.2847955600009,None,747.150378221002,None,747.150378221002,None,747.150378221002,None,747.150378221002,None,,,,,,,,,,,,,,,,,001,41,2020_Jan_30_1316,spring_faces,3.1.5,60.01188007262941,
condition files/Stage1_2.xlsx,,T2,B1,c,"['c', 'm']","['Clue', 'Monopoly']","[-0.15, 0.5]","[0.15, 0.5]",1,1,,,,,,,,,0,11,11,11,0,1,1,1,,,,,,,,,,,,,,,,,,,,,,,,,,,,,,,,,,,,,,,,,,,,,,,749.1166420000009,None,749.1166420000009,None,749.1166420000009,None,c,1,0.8430826990006608,750.6502751869994,None,750.6502751869994,None,750.6502751869994,None,751.5502825430012,None,751.5502825430012,None,751.5502825430012,None,751.5502825430012,None,,,,,,,,,,,,,,,,,001,41,2020_Jan_30_1316,spring_faces,3.1.5,60.01188007262941,
condition files/Stage1_2.xlsx,,B1,T1,c,"['c', 'm']","['Clue', 'Monopoly']","[-0.15, 0.5]","[0.15, 0.5]",1,1,,,,,,,,,0,11,11,11,0,2,2,0,,,,,,,,,,,,,,,,,,,,,,,,,,,,,,,,,,,,,,,,,,,,,,,753.5166485959999,None,753.5166485959999,None,753.5166485959999,None,c,1,0.7145255249997717,755.0667699600017,None,755.0667699600017,None,755.0667699600017,None,755.833494581002,None,755.833494581002,None,755.833494581002,None,755.833494581002,None,,,,,,,,,,,,,,,,,001,41,2020_Jan_30_1316,spring_faces,3.1.5,60.01188007262941,
condition files/Stage1_2.xlsx,,B4,T3,c,"['c', 'm']","['Clue', 'Monopoly']","[-0.15, 0.5]","[0.15, 0.5]",1,1,,,,,,,,,0,11,11,11,0,3,3,5,,,,,,,,,,,,,,,,,,,,,,,,,,,,,,,,,,,,,,,,,,,,,,,757.799966458002,None,757.799966458002,None,757.799966458002,None,c,1,1.1198031989988522,759.3335211910016,None,759.3335211910016,None,759.3335211910016,None,760.5168549100017,None,760.5168549100017,None,760.5168549100017,None,760.5168549100017,None,,,,,,,,,,,,,,,,,001,41,2020_Jan_30_1316,spring_faces,3.1.5,60.01188007262941,
condition files/Stage1_2.xlsx,,B3,T4,m,"['c', 'm']","['Clue', 'Monopoly']","[-0.15, 0.5]","[0.15, 0.5]",1,1,,,,,,,,,0,11,11,11,0,4,4,6,,,,,,,,,,,,,,,,,,,,,,,,,,,,,,,,,,,,,,,,,,,,,,,762.4829293570001,None,762.4829293570001,None,762.4829293570001,None,m,1,0.916761160002352,764.0165586260009,None,764.0165586260009,None,764.0165586260009,None,765.0002912550008,None,765.0002912550008,None,765.0002912550008,None,765.0002912550008,None,,,,,,,,,,,,,,,,,001,41,2020_Jan_30_1316,spring_faces,3.1.5,60.01188007262941,
condition files/Stage1_2.xlsx,,T1,B2,m,"['c', 'm']","['Clue', 'Monopoly']","[-0.15, 0.5]","[0.15, 0.5]",1,1,,,,,,,,,0,11,11,11,0,5,5,2,,,,,,,,,,,,,,,,,,,,,,,,,,,,,,,,,,,,,,,,,,,,,,,766.9494503300011,None,766.9494503300011,None,766.9494503300011,None,m,1,0.6901588420005282,768.4832268300015,None,768.4832268300015,None,768.4832268300015,None,769.2330671070013,None,769.2330671070013,None,769.2330671070013,None,769.2330671070013,None,,,,,,,,,,,,,,,,,001,41,2020_Jan_30_1316,spring_faces,3.1.5,60.01188007262941,
condition files/Stage1_2.xlsx,,T3,B3,c,"['c', 'm']","['Clue', 'Monopoly']","[-0.15, 0.5]","[0.15, 0.5]",1,1,,,,,,,,,0,11,11,11,0,6,6,4,,,,,,,,,,,,,,,,,,,,,,,,,,,,,,,,,,,,,,,,,,,,,,,771.1999269740008,None,771.1999269740008,None,771.1999269740008,None,c,1,0.6137120810017223,772.7355988700001,None,772.7355988700001,None,772.7355988700001,None,773.4163911190008,None,773.4163911190008,None,773.4163911190008,None,773.4163911190008,None,,,,,,,,,,,,,,,,,001,41,2020_Jan_30_1316,spring_faces,3.1.5,60.01188007262941,
condition files/Stage1_2.xlsx,,T4,B4,m,"['c', 'm']","['Clue', 'Monopoly']","[-0.15, 0.5]","[0.15, 0.5]",1,1,,,,,,,,,0,11,11,11,0,7,7,7,,,,,,,,,,,,,,,,,,,,,,,,,,,,,,,,,,,,,,,,,,,,,,,775.366585918,None,775.366585918,None,775.366585918,None,m,1,0.6729762349968951,776.9163947170018,None,776.9163947170018,None,776.9163947170018,None,777.666350260999,None,777.666350260999,None,777.666350260999,None,777.666350260999,None,,,,,,,,,,,,,,,,,001,41,2020_Jan_30_1316,spring_faces,3.1.5,60.01188007262941,
,,,,,,,,,,,,,,,,,,,,,,,,,,,,,,,,,,,,,,,,,,,,,,,,,,,,,,,,,,,,,,,,,,,,,,,,,,,,,,,,,,,,,,,,,,,,,,,,,,,,,,,,779.6334140979998,None,space,2.8440543539982173,784.6333473980012,None,,,001,41,2020_Jan_30_1316,spring_faces,3.1.5,60.01188007262941,
condition files/Stage2_1.xlsx,,B6,T6,r,"['s', 'r']","['Stratego', 'Risk']","[-0.15, 0.5]","[0.15, 0.5]",1,1,,,,,,,,,,,,,,,,,0,0,0,0,0,0,0,1,,,,,,,,,,,,,,,,,,,,,,,,,,,,,,,,,,,,,,,787.5334462819992,None,787.5334462819992,None,787.5334462819992,None,s,0,1.418199021001783,789.0990958129987,None,789.0990958129987,None,789.0990958129987,None,790.5832089050018,None,790.5832089050018,None,790.5832089050018,None,790.5832089050018,None,,,,,,,,,,,,,,,784.6333473980012,None,001,41,2020_Jan_30_1316,spring_faces,3.1.5,60.01188007262941,
condition files/Stage2_1.xlsx,,T1,B1,s,"['s', 'r']","['Stratego', 'Risk']","[-0.15, 0.5]","[0.15, 0.5]",1,1,,,,,,,,,,,,,,,,,0,0,0,0,0,1,1,2,,,,,,,,,,,,,,,,,,,,,,,,,,,,,,,,,,,,,,,792.5497171579991,None,792.5497171579991,None,792.5497171579991,None,s,1,1.2493358829997305,794.0839792449988,None,794.0839792449988,None,794.0839792449988,None,795.3860382679995,None,795.3860382679995,None,795.3860382679995,None,795.3860382679995,None,,,,,,,,,,,,,,,,,001,41,2020_Jan_30_1316,spring_faces,3.1.5,60.01188007262941,
condition files/Stage2_1.xlsx,,B4,T4,r,"['s', 'r']","['Stratego', 'Risk']","[-0.15, 0.5]","[0.15, 0.5]",1,1,,,,,,,,,,,,,,,,,0,0,0,0,0,2,2,5,,,,,,,,,,,,,,,,,,,,,,,,,,,,,,,,,,,,,,,797.3493872660001,None,797.3493872660001,None,797.3493872660001,None,r,1,1.1035722159977013,798.8858079640013,None,798.8858079640013,None,798.8858079640013,None,800.0668048459993,None,800.0668048459993,None,800.0668048459993,None,800.0668048459993,None,,,,,,,,,,,,,,,,,001,41,2020_Jan_30_1316,spring_faces,3.1.5,60.01188007262941,
,,,,,,,,,,,,,,,,,,,,,,,,,,,,,,,,,,,,,,,,,,,,,,,,,,,,,,,,,,,,,,,,,,,,,,,,,802.0166472519995,None,802.0166472519995,None,802.0166472519995,None,s,1,2.198996195998916,803.5503200790008,None,803.5503200790008,None,803.5503200790008,None,,,,,,,,,,,,,,,,,,,,,,,,,,,,,,,
