condsFile,subStage,cue1,cue2,correct,responseKeys,responseNames,cue1Position,cue2Position,cue1Opacity,cue2Opacity,stageLoop0.thisRepN,stageLoop0.thisTrialN,stageLoop0.thisN,stageLoop0.thisIndex,blockLoop0.thisRepN,blockLoop0.thisTrialN,blockLoop0.thisN,blockLoop0.thisIndex,stage1Loop.thisRepN,stage1Loop.thisTrialN,stage1Loop.thisN,stage1Loop.thisIndex,blockLoop1.thisRepN,blockLoop1.thisTrialN,blockLoop1.thisN,blockLoop1.thisIndex,stage2Loop.thisRepN,stage2Loop.thisTrialN,stage2Loop.thisN,stage2Loop.thisIndex,blockLoop2.thisRepN,blockLoop2.thisTrialN,blockLoop2.thisN,blockLoop2.thisIndex,testLoop.thisRepN,testLoop.thisTrialN,testLoop.thisN,testLoop.thisIndex,blockLoopTest.thisRepN,blockLoopTest.thisTrialN,blockLoopTest.thisN,blockLoopTest.thisIndex,cuePics,id_instr_text.started,id_instr_text.stopped,space_to_continue_2.started,space_to_continue_2.stopped,end_instructions_resp_3.keys,end_instructions_resp_3.rt,end_instructions_resp_3.started,end_instructions_resp_3.stopped,id_input_instr.started,id_input_instr.stopped,id_input_rect.started,id_input_rect.stopped,id_input_resp.keys,id_input_resp.rt,id_input_resp.started,id_input_resp.stopped,sonaID,id_input_text.started,id_input_text.stopped,final_text.started,final_text.stopped,instructions.started,instructions.stopped,end_instructions_resp.keys,end_instructions_resp.rt,end_instructions_resp.started,end_instructions_resp.stopped,space_to_continue.started,space_to_continue.stopped,instructions_stage0.started,instructions_stage0.stopped,end_instructions_resp_stage0.keys,end_instructions_resp_stage0.rt,end_instructions_resp_stage0.started,end_instructions_resp_stage0.stopped,space_to_continue_stage0.started,space_to_continue_stage0.stopped,text.started,text.stopped,resp_text1.started,resp_text1.stopped,resp_text2.started,resp_text2.stopped,trial_resp.keys,trial_resp.corr,trial_resp.rt,trial_resp.started,trial_resp.stopped,cue1Image.started,cue1Image.stopped,cue2Image.started,cue2Image.stopped,cue1Image_fb.started,cue1Image_fb.stopped,cue2Image_fb.started,cue2Image_fb.stopped,fb_text_answer.started,fb_text_answer.stopped,feedback_image.started,feedback_image.stopped,instructions_stage1.started,instructions_stage1.stopped,end_instructions_resp_stage1.keys,end_instructions_resp_stage1.rt,end_instructions_resp_stage1.started,end_instructions_resp_stage1.stopped,space_to_continue_stage1.started,space_to_continue_stage1.stopped,instructions_2.started,instructions_2.stopped,end_instructions_resp_2.keys,end_instructions_resp_2.rt,end_instructions_resp_2.started,end_instructions_resp_2.stopped,press_space_to_continue_stage2.started,press_space_to_continue_stage2.stopped,instructions_testStage1.started,instructions_testStage1.stopped,end_instructions_resp_test1.keys,end_instructions_resp_test1.rt,end_instructions_resp_test1.started,end_instructions_resp_test1.stopped,press_space_to_continue_test1.started,press_space_to_continue_test1.stopped,cue1Image_testChoice.started,cue1Image_testChoice.stopped,cue2Image_testChoice.started,cue2Image_testChoice.stopped,test_resp.keys,test_resp.corr,test_resp.rt,test_resp.started,test_resp.stopped,cue1Image_testConf.started,cue1Image_testConf.stopped,cue2Image_testConf.started,cue2Image_testConf.stopped,conf_reminder.started,conf_reminder.stopped,conf_rating.response,conf_rating.rt,conf_rating.started,conf_rating.stopped,session,participant,date,expName,psychopyVersion,frameRate,
,,,,,,,,,,,,,,,,,,,,,,,,,,,,,,,,,,,,,,,,,,,"{'none': 'pictures/20M_AN_C.png', 'alpha': 'pictures/SHINEd_melon.png', 'beta': 'pictures/SHINEd_pear.png', 'theta': 'pictures/SHINEd_pepper.png', 'phi': 'pictures/SHINEd_apple.png', 'T1': 'pictures/33M_AN_C.png', 'T2': 'pictures/26M_AN_C.png', 'T3': 'pictures/22M_AN_C.png', 'T4': 'pictures/38M_AN_C.png', 'T5': 'pictures/25M_AN_C.png', 'T6': 'pictures/37M_AN_C.png', 'B1': 'pictures/36M_NE_C.png', 'B2': 'pictures/31M_NE_C.png', 'B3': 'pictures/23M_NE_C.png', 'B4': 'pictures/20M_NE_C.png', 'B5': 'pictures/34M_NE_C.png', 'B6': 'pictures/32M_NE_C.png'}",11.633217958999012,None,16.632986634998815,None,space,76.61533567299921,16.632986634998815,None,,,,,,,,,,,,,,,,,,,,,,,,,,,,,,,,,,,,,,,,,,,,,,,,,,,,,,,,,,,,,,,,,,,,,,,,,,,,,,,,,,,,,,,,,,,,,,,,001,44,2020_Jan_30_1359,spring_faces,3.1.5,60.01650862053313,
,,,,,,,,,,,,,,,,,,,,,,,,,,,,,,,,,,,,,,,,,,,,,,,,,,,,93.61594947900085,None,93.61594947900085,None,"['0', '3', '0', '3', 'k', 'i', 'l', 'y', 'd']","[6.5603826440019475, 6.88062252200325, 10.000365242001862, 10.304393704001996, 14.320389057000284, 16.080492637000134, 18.40038813400315, 18.800369599000987, 19.04039845400257]",93.61594947900085,None,,,,,,,,,,,,,,,,,,,,,,,,,,,,,,,,,,,,,,,,,,,,,,,,,,,,,,,,,,,,,,,,,,,,,,,,,,,,,,,,,,,,,,,,001,44,2020_Jan_30_1359,spring_faces,3.1.5,60.01650862053313,
,,,,,,,,,,,,,,,,,,,,,,,,,,,,,,,,,,,,,,,,,,,,,,,,,,,,,,,,,,,,0303kilyd,93.61594947900085,None,93.61594947900085,None,117.7331095820009,None,space,1.4111713219972444,122.7331275510005,None,,,,,,,,,,,,,,,,,,,,,,,,,,,,,,,,,,,,,,,,,,,,,,,,,,,,,,,,,,,,,,,,,,,,,,,,,,,,,001,44,2020_Jan_30_1359,spring_faces,3.1.5,60.01650862053313,
,,,,,,,,,,,,,,,,,,,,,,,,,,,,,,,,,,,,,,,,,,,,,,,,,,,,,,,,,,,,,,,,,,,,,,,122.7331275510005,None,124.18319225099913,None,space,0.8009114689994021,129.18337100200006,None,,,,,,,,,,,,,,,,,,,,,,,,,,,,,,,,,,,,,,,,,,,,,,,,,,,,,,,,,,,,,,,,,,,,,001,44,2020_Jan_30_1359,spring_faces,3.1.5,60.01650862053313,
condition files/Stage0a.xlsx,0a,alpha,none,h,"['h', 'g']","['Chess', 'Go']","[0, 0.5]","[0, 0]",1,0,0,0,0,0,0,0,0,0,,,,,,,,,,,,,,,,,,,,,,,,,,,,,,,,,,,,,,,,,,,,,,,,,,,,,,,,,,,,,129.18337100200006,None,130.05004022600042,None,130.05004022600042,None,130.05004022600042,None,h,1,5.354782820002583,131.7495572500011,None,131.7495572500011,None,131.7495572500011,None,137.18249935100175,None,137.18249935100175,None,137.18249935100175,None,137.18249935100175,None,,,,,,,,,,,,,,,,,,,,,,,,,,,,,,,,,,,,,,,,,,,,001,44,2020_Jan_30_1359,spring_faces,3.1.5,60.01650862053313,
condition files/Stage0a.xlsx,0a,beta,none,g,"['h', 'g']","['Chess', 'Go']","[0, 0.5]","[0, 0]",1,0,0,0,0,0,0,1,1,1,,,,,,,,,,,,,,,,,,,,,,,,,,,,,,,,,,,,,,,,,,,,,,,,,,,,,,,,,,,,,,,139.13301030599905,None,139.13301030599905,None,139.13301030599905,None,g,1,1.9089426239988825,140.66739747199972,None,140.66739747199972,None,140.66739747199972,None,142.63298291500178,None,142.63298291500178,None,142.63298291500178,None,142.63298291500178,None,,,,,,,,,,,,,,,,,,,,,,,,,,,,,,,,,,,,,,,,,,,,001,44,2020_Jan_30_1359,spring_faces,3.1.5,60.01650862053313,
condition files/Stage0a.xlsx,0a,beta,none,g,"['h', 'g']","['Chess', 'Go']","[0, 0.5]","[0, 0]",1,0,0,1,1,1,0,0,0,1,,,,,,,,,,,,,,,,,,,,,,,,,,,,,,,,,,,,,,,,,,,,,,,,,,,,,,,,,,,,,,,144.6162548809989,None,144.6162548809989,None,144.6162548809989,None,g,1,1.050293910997425,146.15000193400192,None,146.15000193400192,None,146.15000193400192,None,147.26649767799972,None,147.26649767799972,None,147.26649767799972,None,147.26649767799972,None,,,,,,,,,,,,,,,,,,,,,,,,,,,,,,,,,,,,,,,,,,,,001,44,2020_Jan_30_1359,spring_faces,3.1.5,60.01650862053313,
condition files/Stage0a.xlsx,0a,alpha,none,h,"['h', 'g']","['Chess', 'Go']","[0, 0.5]","[0, 0]",1,0,0,1,1,1,0,1,1,0,,,,,,,,,,,,,,,,,,,,,,,,,,,,,,,,,,,,,,,,,,,,,,,,,,,,,,,,,,,,,,,149.23293517799902,None,149.23293517799902,None,149.23293517799902,None,h,1,1.0576905039997655,150.76668611599962,None,150.76668611599962,None,150.76668611599962,None,151.882547702,None,151.882547702,None,151.882547702,None,151.882547702,None,,,,,,,,,,,,,,,,,,,,,,,,,,,,,,,,,,,,,,,,,,,,001,44,2020_Jan_30_1359,spring_faces,3.1.5,60.01650862053313,
condition files/Stage0a.xlsx,0a,beta,none,g,"['h', 'g']","['Chess', 'Go']","[0, 0.5]","[0, 0]",1,0,0,2,2,2,0,0,0,1,,,,,,,,,,,,,,,,,,,,,,,,,,,,,,,,,,,,,,,,,,,,,,,,,,,,,,,,,,,,,,,153.8665177440016,None,153.8665177440016,None,153.8665177440016,None,g,1,0.7770293180001318,155.39928275800048,None,155.39928275800048,None,155.39928275800048,None,156.23303985500024,None,156.23303985500024,None,156.23303985500024,None,156.23303985500024,None,,,,,,,,,,,,,,,,,,,,,,,,,,,,,,,,,,,,,,,,,,,,001,44,2020_Jan_30_1359,spring_faces,3.1.5,60.01650862053313,
condition files/Stage0a.xlsx,0a,alpha,none,h,"['h', 'g']","['Chess', 'Go']","[0, 0.5]","[0, 0]",1,0,0,2,2,2,0,1,1,0,,,,,,,,,,,,,,,,,,,,,,,,,,,,,,,,,,,,,,,,,,,,,,,,,,,,,,,,,,,,,,,158.19921529800195,None,158.19921529800195,None,158.19921529800195,None,h,1,0.9872236039991549,159.7330963380009,None,159.7330963380009,None,159.7330963380009,None,160.78268822300015,None,160.78268822300015,None,160.78268822300015,None,160.78268822300015,None,,,,,,,,,,,,,,,,,,,,,,,,,,,,,,,,,,,,,,,,,,,,001,44,2020_Jan_30_1359,spring_faces,3.1.5,60.01650862053313,
condition files/Stage0a.xlsx,0a,beta,none,g,"['h', 'g']","['Chess', 'Go']","[0, 0.5]","[0, 0]",1,0,0,3,3,3,0,0,0,1,,,,,,,,,,,,,,,,,,,,,,,,,,,,,,,,,,,,,,,,,,,,,,,,,,,,,,,,,,,,,,,162.7664259439989,None,162.7664259439989,None,162.7664259439989,None,g,1,0.8690841910029121,164.28324248699937,None,164.28324248699937,None,164.28324248699937,None,165.2164917070004,None,165.2164917070004,None,165.2164917070004,None,165.2164917070004,None,,,,,,,,,,,,,,,,,,,,,,,,,,,,,,,,,,,,,,,,,,,,001,44,2020_Jan_30_1359,spring_faces,3.1.5,60.01650862053313,
condition files/Stage0a.xlsx,0a,alpha,none,h,"['h', 'g']","['Chess', 'Go']","[0, 0.5]","[0, 0]",1,0,0,3,3,3,0,1,1,0,,,,,,,,,,,,,,,,,,,,,,,,,,,,,,,,,,,,,,,,,,,,,,,,,,,,,,,,,,,,,,,167.1829819830018,None,167.1829819830018,None,167.1829819830018,None,h,1,0.8997865109995473,168.71652187899963,None,168.71652187899963,None,168.71652187899963,None,169.6661838660002,None,169.6661838660002,None,169.6661838660002,None,169.6661838660002,None,,,,,,,,,,,,,,,,,,,,,,,,,,,,,,,,,,,,,,,,,,,,001,44,2020_Jan_30_1359,spring_faces,3.1.5,60.01650862053313,
condition files/Stage0a.xlsx,0a,beta,none,g,"['h', 'g']","['Chess', 'Go']","[0, 0.5]","[0, 0]",1,0,0,4,4,4,0,0,0,1,,,,,,,,,,,,,,,,,,,,,,,,,,,,,,,,,,,,,,,,,,,,,,,,,,,,,,,,,,,,,,,171.6494624219995,None,171.6494624219995,None,171.6494624219995,None,g,1,1.1214960690012958,173.18284906999907,None,173.18284906999907,None,173.18284906999907,None,174.36619884299944,None,174.36619884299944,None,174.36619884299944,None,174.36619884299944,None,,,,,,,,,,,,,,,,,,,,,,,,,,,,,,,,,,,,,,,,,,,,001,44,2020_Jan_30_1359,spring_faces,3.1.5,60.01650862053313,
condition files/Stage0a.xlsx,0a,alpha,none,h,"['h', 'g']","['Chess', 'Go']","[0, 0.5]","[0, 0]",1,0,0,4,4,4,0,1,1,0,,,,,,,,,,,,,,,,,,,,,,,,,,,,,,,,,,,,,,,,,,,,,,,,,,,,,,,,,,,,,,,176.33305317600025,None,176.33305317600025,None,176.33305317600025,None,h,1,0.7096865370003798,177.8666238199985,None,177.8666238199985,None,177.8666238199985,None,178.63535684499948,None,178.63535684499948,None,178.63535684499948,None,178.63535684499948,None,,,,,,,,,,,,,,,,,,,,,,,,,,,,,,,,,,,,,,,,,,,,001,44,2020_Jan_30_1359,spring_faces,3.1.5,60.01650862053313,
condition files/Stage0a.xlsx,0a,alpha,none,h,"['h', 'g']","['Chess', 'Go']","[0, 0.5]","[0, 0]",1,0,0,5,5,5,0,0,0,0,,,,,,,,,,,,,,,,,,,,,,,,,,,,,,,,,,,,,,,,,,,,,,,,,,,,,,,,,,,,,,,180.6160238090015,None,180.6160238090015,None,180.6160238090015,None,h,1,2.746481304999179,182.14984733000165,None,182.14984733000165,None,182.14984733000165,None,184.95007379399976,None,184.95007379399976,None,184.95007379399976,None,184.95007379399976,None,,,,,,,,,,,,,,,,,,,,,,,,,,,,,,,,,,,,,,,,,,,,001,44,2020_Jan_30_1359,spring_faces,3.1.5,60.01650862053313,
condition files/Stage0a.xlsx,0a,beta,none,g,"['h', 'g']","['Chess', 'Go']","[0, 0.5]","[0, 0]",1,0,0,5,5,5,0,1,1,1,,,,,,,,,,,,,,,,,,,,,,,,,,,,,,,,,,,,,,,,,,,,,,,,,,,,,,,,,,,,,,,186.91651520400046,None,186.91651520400046,None,186.91651520400046,None,g,1,0.7024731969977438,188.44985103400177,None,188.44985103400177,None,188.44985103400177,None,189.21626611000102,None,189.21626611000102,None,189.21626611000102,None,189.21626611000102,None,,,,,,,,,,,,,,,,,,,,,,,,,,,,,,,,,,,,,,,,,,,,001,44,2020_Jan_30_1359,spring_faces,3.1.5,60.01650862053313,
condition files/Stage0b_1.xlsx,0b,none,beta,g,"['h', 'g']","['Chess', 'Go']","[-0.15, 0.5]","[0.15, 0.5]",0,1,0,6,6,6,0,0,0,1,,,,,,,,,,,,,,,,,,,,,,,,,,,,,,,,,,,,,,,,,,,,,,,,,,,,,,,,,,,,,,,191.19985469699895,None,191.19985469699895,None,191.19985469699895,None,g,1,1.3784984400008398,192.7497766339984,None,192.7497766339984,None,192.7497766339984,None,194.18410967100135,None,194.18410967100135,None,194.18410967100135,None,194.18410967100135,None,,,,,,,,,,,,,,,,,,,,,,,,,,,,,,,,,,,,,,,,,,,,001,44,2020_Jan_30_1359,spring_faces,3.1.5,60.01650862053313,
condition files/Stage0b_1.xlsx,0b,alpha,none,h,"['h', 'g']","['Chess', 'Go']","[-0.15, 0.5]","[0.15, 0.5]",1,0,0,6,6,6,0,1,1,0,,,,,,,,,,,,,,,,,,,,,,,,,,,,,,,,,,,,,,,,,,,,,,,,,,,,,,,,,,,,,,,196.14973962500153,None,196.14973962500153,None,196.14973962500153,None,h,1,0.617172770002071,197.68715849300133,None,197.68715849300133,None,197.68715849300133,None,198.37115676300164,None,198.37115676300164,None,198.37115676300164,None,198.37115676300164,None,,,,,,,,,,,,,,,,,,,,,,,,,,,,,,,,,,,,,,,,,,,,001,44,2020_Jan_30_1359,spring_faces,3.1.5,60.01650862053313,
condition files/Stage0b_2.xlsx,0b,beta,none,g,"['h', 'g']","['Chess', 'Go']","[-0.15, 0.5]","[0.15, 0.5]",1,0,0,7,7,7,0,0,0,1,,,,,,,,,,,,,,,,,,,,,,,,,,,,,,,,,,,,,,,,,,,,,,,,,,,,,,,,,,,,,,,200.3492539809995,None,200.3492539809995,None,200.3492539809995,None,g,1,0.6453315630024008,201.88301776799926,None,201.88301776799926,None,201.88301776799926,None,202.58333475700056,None,202.58333475700056,None,202.58333475700056,None,202.58333475700056,None,,,,,,,,,,,,,,,,,,,,,,,,,,,,,,,,,,,,,,,,,,,,001,44,2020_Jan_30_1359,spring_faces,3.1.5,60.01650862053313,
condition files/Stage0b_2.xlsx,0b,none,alpha,h,"['h', 'g']","['Chess', 'Go']","[-0.15, 0.5]","[0.15, 0.5]",0,1,0,7,7,7,0,1,1,0,,,,,,,,,,,,,,,,,,,,,,,,,,,,,,,,,,,,,,,,,,,,,,,,,,,,,,,,,,,,,,,204.54944403099944,None,204.54944403099944,None,204.54944403099944,None,h,1,0.7002436850016238,206.10004786100035,None,206.10004786100035,None,206.10004786100035,None,206.86660138500156,None,206.86660138500156,None,206.86660138500156,None,206.86660138500156,None,,,,,,,,,,,,,,,,,,,,,,,,,,,,,,,,,,,,,,,,,,,,001,44,2020_Jan_30_1359,spring_faces,3.1.5,60.01650862053313,
condition files/Stage0b_1.xlsx,0b,none,beta,g,"['h', 'g']","['Chess', 'Go']","[-0.15, 0.5]","[0.15, 0.5]",0,1,0,8,8,8,0,0,0,1,,,,,,,,,,,,,,,,,,,,,,,,,,,,,,,,,,,,,,,,,,,,,,,,,,,,,,,,,,,,,,,208.84982722999848,None,208.84982722999848,None,208.84982722999848,None,g,1,0.7534796569998434,210.3828483090001,None,210.3828483090001,None,210.3828483090001,None,211.199664183001,None,211.199664183001,None,211.199664183001,None,211.199664183001,None,,,,,,,,,,,,,,,,,,,,,,,,,,,,,,,,,,,,,,,,,,,,001,44,2020_Jan_30_1359,spring_faces,3.1.5,60.01650862053313,
condition files/Stage0b_1.xlsx,0b,alpha,none,h,"['h', 'g']","['Chess', 'Go']","[-0.15, 0.5]","[0.15, 0.5]",1,0,0,8,8,8,0,1,1,0,,,,,,,,,,,,,,,,,,,,,,,,,,,,,,,,,,,,,,,,,,,,,,,,,,,,,,,,,,,,,,,213.16629018800086,None,213.16629018800086,None,213.16629018800086,None,h,1,0.6597342630011553,214.71658041800038,None,214.71658041800038,None,214.71658041800038,None,215.43758884999988,None,215.43758884999988,None,215.43758884999988,None,215.43758884999988,None,,,,,,,,,,,,,,,,,,,,,,,,,,,,,,,,,,,,,,,,,,,,001,44,2020_Jan_30_1359,spring_faces,3.1.5,60.01650862053313,
condition files/Stage0b_2.xlsx,0b,none,alpha,h,"['h', 'g']","['Chess', 'Go']","[-0.15, 0.5]","[0.15, 0.5]",0,1,0,9,9,9,0,0,0,0,,,,,,,,,,,,,,,,,,,,,,,,,,,,,,,,,,,,,,,,,,,,,,,,,,,,,,,,,,,,,,,217.41627747000166,None,217.41627747000166,None,217.41627747000166,None,h,1,0.6312470079974446,218.9530492390004,None,218.9530492390004,None,218.9530492390004,None,219.64981963899845,None,219.64981963899845,None,219.64981963899845,None,219.64981963899845,None,,,,,,,,,,,,,,,,,,,,,,,,,,,,,,,,,,,,,,,,,,,,001,44,2020_Jan_30_1359,spring_faces,3.1.5,60.01650862053313,
condition files/Stage0b_2.xlsx,0b,beta,none,g,"['h', 'g']","['Chess', 'Go']","[-0.15, 0.5]","[0.15, 0.5]",1,0,0,9,9,9,0,1,1,1,,,,,,,,,,,,,,,,,,,,,,,,,,,,,,,,,,,,,,,,,,,,,,,,,,,,,,,,,,,,,,,221.61667880900131,None,221.61667880900131,None,221.61667880900131,None,g,1,0.7021908940005233,223.1541086239995,None,223.1541086239995,None,223.1541086239995,None,223.91789235300166,None,223.91789235300166,None,223.91789235300166,None,223.91789235300166,None,,,,,,,,,,,,,,,,,,,,,,,,,,,,,,,,,,,,,,,,,,,,001,44,2020_Jan_30_1359,spring_faces,3.1.5,60.01650862053313,
condition files/Stage0b_1.xlsx,0b,none,beta,g,"['h', 'g']","['Chess', 'Go']","[-0.15, 0.5]","[0.15, 0.5]",0,1,0,10,10,10,0,0,0,1,,,,,,,,,,,,,,,,,,,,,,,,,,,,,,,,,,,,,,,,,,,,,,,,,,,,,,,,,,,,,,,225.90016411499892,None,225.90016411499892,None,225.90016411499892,None,h,0,0.5503656230030174,227.44994052499896,None,227.44994052499896,None,227.44994052499896,None,228.09979038000165,None,228.09979038000165,None,228.09979038000165,None,228.09979038000165,None,,,,,,,,,,,,,,,,,,,,,,,,,,,,,,,,,,,,,,,,,,,,001,44,2020_Jan_30_1359,spring_faces,3.1.5,60.01650862053313,
condition files/Stage0b_1.xlsx,0b,alpha,none,h,"['h', 'g']","['Chess', 'Go']","[-0.15, 0.5]","[0.15, 0.5]",1,0,0,10,10,10,0,1,1,0,,,,,,,,,,,,,,,,,,,,,,,,,,,,,,,,,,,,,,,,,,,,,,,,,,,,,,,,,,,,,,,230.01633049700104,None,230.01633049700104,None,230.01633049700104,None,h,1,1.2338212959984958,231.5504656000012,None,231.5504656000012,None,231.5504656000012,None,232.8513708499995,None,232.8513708499995,None,232.8513708499995,None,232.8513708499995,None,,,,,,,,,,,,,,,,,,,,,,,,,,,,,,,,,,,,,,,,,,,,001,44,2020_Jan_30_1359,spring_faces,3.1.5,60.01650862053313,
condition files/Stage0b_2.xlsx,0b,beta,none,g,"['h', 'g']","['Chess', 'Go']","[-0.15, 0.5]","[0.15, 0.5]",1,0,0,11,11,11,0,0,0,1,,,,,,,,,,,,,,,,,,,,,,,,,,,,,,,,,,,,,,,,,,,,,,,,,,,,,,,,,,,,,,,234.8332596170003,None,234.8332596170003,None,234.8332596170003,None,g,1,0.6738935609973851,236.3664966610013,None,236.3664966610013,None,236.3664966610013,None,237.0993992529984,None,237.0993992529984,None,237.0993992529984,None,237.0993992529984,None,,,,,,,,,,,,,,,,,,,,,,,,,,,,,,,,,,,,,,,,,,,,001,44,2020_Jan_30_1359,spring_faces,3.1.5,60.01650862053313,
condition files/Stage0b_2.xlsx,0b,none,alpha,h,"['h', 'g']","['Chess', 'Go']","[-0.15, 0.5]","[0.15, 0.5]",0,1,0,11,11,11,0,1,1,0,,,,,,,,,,,,,,,,,,,,,,,,,,,,,,,,,,,,,,,,,,,,,,,,,,,,,,,,,,,,,,,239.06628000199998,None,239.06628000199998,None,239.06628000199998,None,h,1,0.8376709410003969,240.60272358600196,None,240.60272358600196,None,240.60272358600196,None,241.5160546549996,None,241.5160546549996,None,241.5160546549996,None,241.5160546549996,None,,,,,,,,,,,,,,,,,,,,,,,,,,,,,,,,,,,,,,,,,,,,001,44,2020_Jan_30_1359,spring_faces,3.1.5,60.01650862053313,
condition files/Stage0c_1.xlsx,0c,phi,beta,g,"['h', 'g']","['Chess', 'Go']","[-0.15, 0.5]","[0.15, 0.5]",1,1,0,12,12,12,0,0,0,3,,,,,,,,,,,,,,,,,,,,,,,,,,,,,,,,,,,,,,,,,,,,,,,,,,,,,,,,,,,,,,,243.48320494899963,None,243.48320494899963,None,243.48320494899963,None,g,1,3.031727306002722,245.01659572300196,None,245.01659572300196,None,245.01659572300196,None,248.09931846200197,None,248.09931846200197,None,248.09931846200197,None,248.09931846200197,None,,,,,,,,,,,,,,,,,,,,,,,,,,,,,,,,,,,,,,,,,,,,001,44,2020_Jan_30_1359,spring_faces,3.1.5,60.01650862053313,
condition files/Stage0c_1.xlsx,0c,theta,alpha,h,"['h', 'g']","['Chess', 'Go']","[-0.15, 0.5]","[0.15, 0.5]",1,1,0,12,12,12,0,1,1,0,,,,,,,,,,,,,,,,,,,,,,,,,,,,,,,,,,,,,,,,,,,,,,,,,,,,,,,,,,,,,,,250.06625923799947,None,250.06625923799947,None,250.06625923799947,None,h,1,3.6002160790012567,251.60005132199876,None,251.60005132199876,None,251.60005132199876,None,255.266539070999,None,255.266539070999,None,255.266539070999,None,255.266539070999,None,,,,,,,,,,,,,,,,,,,,,,,,,,,,,,,,,,,,,,,,,,,,001,44,2020_Jan_30_1359,spring_faces,3.1.5,60.01650862053313,
condition files/Stage0c_1.xlsx,0c,beta,theta,g,"['h', 'g']","['Chess', 'Go']","[-0.15, 0.5]","[0.15, 0.5]",1,1,0,12,12,12,0,2,2,2,,,,,,,,,,,,,,,,,,,,,,,,,,,,,,,,,,,,,,,,,,,,,,,,,,,,,,,,,,,,,,,257.2324261700014,None,257.2324261700014,None,257.2324261700014,None,g,1,1.2343715239985613,258.76591682100116,None,258.76591682100116,None,258.76591682100116,None,260.0664899309995,None,260.0664899309995,None,260.0664899309995,None,260.0664899309995,None,,,,,,,,,,,,,,,,,,,,,,,,,,,,,,,,,,,,,,,,,,,,001,44,2020_Jan_30_1359,spring_faces,3.1.5,60.01650862053313,
condition files/Stage0c_1.xlsx,0c,alpha,phi,h,"['h', 'g']","['Chess', 'Go']","[-0.15, 0.5]","[0.15, 0.5]",1,1,0,12,12,12,0,3,3,1,,,,,,,,,,,,,,,,,,,,,,,,,,,,,,,,,,,,,,,,,,,,,,,,,,,,,,,,,,,,,,,262.0330236230002,None,262.0330236230002,None,262.0330236230002,None,h,1,2.7857581680000294,263.5665616660008,None,263.5665616660008,None,263.5665616660008,None,266.41632165400006,None,266.41632165400006,None,266.41632165400006,None,266.41632165400006,None,,,,,,,,,,,,,,,,,,,,,,,,,,,,,,,,,,,,,,,,,,,,001,44,2020_Jan_30_1359,spring_faces,3.1.5,60.01650862053313,
condition files/Stage0c_2.xlsx,0c,beta,phi,g,"['h', 'g']","['Chess', 'Go']","[-0.15, 0.5]","[0.15, 0.5]",1,1,0,13,13,13,0,0,0,3,,,,,,,,,,,,,,,,,,,,,,,,,,,,,,,,,,,,,,,,,,,,,,,,,,,,,,,,,,,,,,,268.3993031889986,None,268.3993031889986,None,268.3993031889986,None,g,1,1.1710804030008148,269.93325232200004,None,269.93325232200004,None,269.93325232200004,None,271.16589262699927,None,271.16589262699927,None,271.16589262699927,None,271.16589262699927,None,,,,,,,,,,,,,,,,,,,,,,,,,,,,,,,,,,,,,,,,,,,,001,44,2020_Jan_30_1359,spring_faces,3.1.5,60.01650862053313,
condition files/Stage0c_2.xlsx,0c,phi,alpha,h,"['h', 'g']","['Chess', 'Go']","[-0.15, 0.5]","[0.15, 0.5]",1,1,0,13,13,13,0,1,1,1,,,,,,,,,,,,,,,,,,,,,,,,,,,,,,,,,,,,,,,,,,,,,,,,,,,,,,,,,,,,,,,273.13305079600104,None,273.13305079600104,None,273.13305079600104,None,h,1,1.6857392379970406,274.66657295099867,None,274.66657295099867,None,274.66657295099867,None,276.4167483300007,None,276.4167483300007,None,276.4167483300007,None,276.4167483300007,None,,,,,,,,,,,,,,,,,,,,,,,,,,,,,,,,,,,,,,,,,,,,001,44,2020_Jan_30_1359,spring_faces,3.1.5,60.01650862053313,
condition files/Stage0c_2.xlsx,0c,alpha,theta,h,"['h', 'g']","['Chess', 'Go']","[-0.15, 0.5]","[0.15, 0.5]",1,1,0,13,13,13,0,2,2,0,,,,,,,,,,,,,,,,,,,,,,,,,,,,,,,,,,,,,,,,,,,,,,,,,,,,,,,,,,,,,,,278.3830134410018,None,278.3830134410018,None,278.3830134410018,None,h,1,1.3317293240033905,279.91659302500193,None,279.91659302500193,None,279.91659302500193,None,281.2842255680007,None,281.2842255680007,None,281.2842255680007,None,281.2842255680007,None,,,,,,,,,,,,,,,,,,,,,,,,,,,,,,,,,,,,,,,,,,,,001,44,2020_Jan_30_1359,spring_faces,3.1.5,60.01650862053313,
condition files/Stage0c_2.xlsx,0c,theta,beta,g,"['h', 'g']","['Chess', 'Go']","[-0.15, 0.5]","[0.15, 0.5]",1,1,0,13,13,13,0,3,3,2,,,,,,,,,,,,,,,,,,,,,,,,,,,,,,,,,,,,,,,,,,,,,,,,,,,,,,,,,,,,,,,283.26635008000085,None,283.26635008000085,None,283.26635008000085,None,g,1,2.1285271609995107,284.7997895990011,None,284.7997895990011,None,284.7997895990011,None,286.98355341700153,None,286.98355341700153,None,286.98355341700153,None,286.98355341700153,None,,,,,,,,,,,,,,,,,,,,,,,,,,,,,,,,,,,,,,,,,,,,001,44,2020_Jan_30_1359,spring_faces,3.1.5,60.01650862053313,
condition files/Stage0c_1.xlsx,0c,phi,beta,g,"['h', 'g']","['Chess', 'Go']","[-0.15, 0.5]","[0.15, 0.5]",1,1,0,14,14,14,0,0,0,3,,,,,,,,,,,,,,,,,,,,,,,,,,,,,,,,,,,,,,,,,,,,,,,,,,,,,,,,,,,,,,,288.96599574100037,None,288.96599574100037,None,288.96599574100037,None,g,1,0.9721807400019316,290.50014919300156,None,290.50014919300156,None,290.50014919300156,None,291.51867803999994,None,291.51867803999994,None,291.51867803999994,None,291.51867803999994,None,,,,,,,,,,,,,,,,,,,,,,,,,,,,,,,,,,,,,,,,,,,,001,44,2020_Jan_30_1359,spring_faces,3.1.5,60.01650862053313,
condition files/Stage0c_1.xlsx,0c,theta,alpha,h,"['h', 'g']","['Chess', 'Go']","[-0.15, 0.5]","[0.15, 0.5]",1,1,0,14,14,14,0,1,1,0,,,,,,,,,,,,,,,,,,,,,,,,,,,,,,,,,,,,,,,,,,,,,,,,,,,,,,,,,,,,,,,293.49965055199937,None,293.49965055199937,None,293.49965055199937,None,h,1,0.855095414997777,295.03322735300026,None,295.03322735300026,None,295.03322735300026,None,295.9499252079986,None,295.9499252079986,None,295.9499252079986,None,295.9499252079986,None,,,,,,,,,,,,,,,,,,,,,,,,,,,,,,,,,,,,,,,,,,,,001,44,2020_Jan_30_1359,spring_faces,3.1.5,60.01650862053313,
condition files/Stage0c_1.xlsx,0c,alpha,phi,h,"['h', 'g']","['Chess', 'Go']","[-0.15, 0.5]","[0.15, 0.5]",1,1,0,14,14,14,0,2,2,1,,,,,,,,,,,,,,,,,,,,,,,,,,,,,,,,,,,,,,,,,,,,,,,,,,,,,,,,,,,,,,,297.9162519570018,None,297.9162519570018,None,297.9162519570018,None,h,1,1.0624348349992943,299.4498825949995,None,299.4498825949995,None,299.4498825949995,None,300.55087032699885,None,300.55087032699885,None,300.55087032699885,None,300.55087032699885,None,,,,,,,,,,,,,,,,,,,,,,,,,,,,,,,,,,,,,,,,,,,,001,44,2020_Jan_30_1359,spring_faces,3.1.5,60.01650862053313,
condition files/Stage0c_1.xlsx,0c,beta,theta,g,"['h', 'g']","['Chess', 'Go']","[-0.15, 0.5]","[0.15, 0.5]",1,1,0,14,14,14,0,3,3,2,,,,,,,,,,,,,,,,,,,,,,,,,,,,,,,,,,,,,,,,,,,,,,,,,,,,,,,,,,,,,,,302.5327174260019,None,302.5327174260019,None,302.5327174260019,None,h,0,2.2858002790017053,304.06651707700075,None,304.06651707700075,None,304.06651707700075,None,306.41609215100107,None,306.41609215100107,None,306.41609215100107,None,306.41609215100107,None,,,,,,,,,,,,,,,,,,,,,,,,,,,,,,,,,,,,,,,,,,,,001,44,2020_Jan_30_1359,spring_faces,3.1.5,60.01650862053313,
condition files/Stage0c_2.xlsx,0c,phi,alpha,h,"['h', 'g']","['Chess', 'Go']","[-0.15, 0.5]","[0.15, 0.5]",1,1,0,15,15,15,0,0,0,1,,,,,,,,,,,,,,,,,,,,,,,,,,,,,,,,,,,,,,,,,,,,,,,,,,,,,,,,,,,,,,,308.3996059909987,None,308.3996059909987,None,308.3996059909987,None,h,1,1.2675180769983854,309.93277918400054,None,309.93277918400054,None,309.93277918400054,None,311.26653010299924,None,311.26653010299924,None,311.26653010299924,None,311.26653010299924,None,,,,,,,,,,,,,,,,,,,,,,,,,,,,,,,,,,,,,,,,,,,,001,44,2020_Jan_30_1359,spring_faces,3.1.5,60.01650862053313,
condition files/Stage0c_2.xlsx,0c,alpha,theta,h,"['h', 'g']","['Chess', 'Go']","[-0.15, 0.5]","[0.15, 0.5]",1,1,0,15,15,15,0,1,1,0,,,,,,,,,,,,,,,,,,,,,,,,,,,,,,,,,,,,,,,,,,,,,,,,,,,,,,,,,,,,,,,313.2329735730018,None,313.2329735730018,None,313.2329735730018,None,h,1,1.96982561799814,314.7665047299997,None,314.7665047299997,None,314.7665047299997,None,316.78249554099966,None,316.78249554099966,None,316.78249554099966,None,316.78249554099966,None,,,,,,,,,,,,,,,,,,,,,,,,,,,,,,,,,,,,,,,,,,,,001,44,2020_Jan_30_1359,spring_faces,3.1.5,60.01650862053313,
condition files/Stage0c_2.xlsx,0c,theta,beta,g,"['h', 'g']","['Chess', 'Go']","[-0.15, 0.5]","[0.15, 0.5]",1,1,0,15,15,15,0,2,2,2,,,,,,,,,,,,,,,,,,,,,,,,,,,,,,,,,,,,,,,,,,,,,,,,,,,,,,,,,,,,,,,318.76634149500023,None,318.76634149500023,None,318.76634149500023,None,g,1,1.9245459379999375,320.2998277980005,None,320.2998277980005,None,320.2998277980005,None,322.2832144169988,None,322.2832144169988,None,322.2832144169988,None,322.2832144169988,None,,,,,,,,,,,,,,,,,,,,,,,,,,,,,,,,,,,,,,,,,,,,001,44,2020_Jan_30_1359,spring_faces,3.1.5,60.01650862053313,
condition files/Stage0c_2.xlsx,0c,beta,phi,g,"['h', 'g']","['Chess', 'Go']","[-0.15, 0.5]","[0.15, 0.5]",1,1,0,15,15,15,0,3,3,3,,,,,,,,,,,,,,,,,,,,,,,,,,,,,,,,,,,,,,,,,,,,,,,,,,,,,,,,,,,,,,,324.24936531300045,None,324.24936531300045,None,324.24936531300045,None,g,1,5.273283264999918,325.78310877699914,None,325.78310877699914,None,325.78310877699914,None,331.0995627000011,None,331.0995627000011,None,331.0995627000011,None,331.0995627000011,None,,,,,,,,,,,,,,,,,,,,,,,,,,,,,,,,,,,,,,,,,,,,001,44,2020_Jan_30_1359,spring_faces,3.1.5,60.01650862053313,
condition files/Stage0c_1.xlsx,0c,beta,theta,g,"['h', 'g']","['Chess', 'Go']","[-0.15, 0.5]","[0.15, 0.5]",1,1,0,16,16,16,0,0,0,2,,,,,,,,,,,,,,,,,,,,,,,,,,,,,,,,,,,,,,,,,,,,,,,,,,,,,,,,,,,,,,,333.0999017139984,None,333.0999017139984,None,333.0999017139984,None,g,1,2.4072155920002842,334.63317841800017,None,334.63317841800017,None,334.63317841800017,None,337.0836337440014,None,337.0836337440014,None,337.0836337440014,None,337.0836337440014,None,,,,,,,,,,,,,,,,,,,,,,,,,,,,,,,,,,,,,,,,,,,,001,44,2020_Jan_30_1359,spring_faces,3.1.5,60.01650862053313,
condition files/Stage0c_1.xlsx,0c,alpha,phi,h,"['h', 'g']","['Chess', 'Go']","[-0.15, 0.5]","[0.15, 0.5]",1,1,0,16,16,16,0,1,1,1,,,,,,,,,,,,,,,,,,,,,,,,,,,,,,,,,,,,,,,,,,,,,,,,,,,,,,,,,,,,,,,339.06642020399886,None,339.06642020399886,None,339.06642020399886,None,h,1,1.4163617519989202,340.5999158529994,None,340.5999158529994,None,340.5999158529994,None,342.06633112000054,None,342.06633112000054,None,342.06633112000054,None,342.06633112000054,None,,,,,,,,,,,,,,,,,,,,,,,,,,,,,,,,,,,,,,,,,,,,001,44,2020_Jan_30_1359,spring_faces,3.1.5,60.01650862053313,
condition files/Stage0c_1.xlsx,0c,phi,beta,g,"['h', 'g']","['Chess', 'Go']","[-0.15, 0.5]","[0.15, 0.5]",1,1,0,16,16,16,0,2,2,3,,,,,,,,,,,,,,,,,,,,,,,,,,,,,,,,,,,,,,,,,,,,,,,,,,,,,,,,,,,,,,,344.0330394260018,None,344.0330394260018,None,344.0330394260018,None,g,1,1.3936137310010963,345.56678163200195,None,345.56678163200195,None,345.56678163200195,None,347.0160421569999,None,347.0160421569999,None,347.0160421569999,None,347.0160421569999,None,,,,,,,,,,,,,,,,,,,,,,,,,,,,,,,,,,,,,,,,,,,,001,44,2020_Jan_30_1359,spring_faces,3.1.5,60.01650862053313,
condition files/Stage0c_1.xlsx,0c,theta,alpha,h,"['h', 'g']","['Chess', 'Go']","[-0.15, 0.5]","[0.15, 0.5]",1,1,0,16,16,16,0,3,3,0,,,,,,,,,,,,,,,,,,,,,,,,,,,,,,,,,,,,,,,,,,,,,,,,,,,,,,,,,,,,,,,348.9830244479999,None,348.9830244479999,None,348.9830244479999,None,h,1,1.2596893100017041,350.51662818000113,None,350.51662818000113,None,350.51662818000113,None,351.83295524300047,None,351.83295524300047,None,351.83295524300047,None,351.83295524300047,None,,,,,,,,,,,,,,,,,,,,,,,,,,,,,,,,,,,,,,,,,,,,001,44,2020_Jan_30_1359,spring_faces,3.1.5,60.01650862053313,
condition files/Stage0c_2.xlsx,0c,alpha,theta,h,"['h', 'g']","['Chess', 'Go']","[-0.15, 0.5]","[0.15, 0.5]",1,1,0,17,17,17,0,0,0,0,,,,,,,,,,,,,,,,,,,,,,,,,,,,,,,,,,,,,,,,,,,,,,,,,,,,,,,,,,,,,,,353.8168665759986,None,353.8168665759986,None,353.8168665759986,None,h,1,1.2103951940007391,355.3500069180009,None,355.3500069180009,None,355.3500069180009,None,356.60157194800195,None,356.60157194800195,None,356.60157194800195,None,356.60157194800195,None,,,,,,,,,,,,,,,,,,,,,,,,,,,,,,,,,,,,,,,,,,,,001,44,2020_Jan_30_1359,spring_faces,3.1.5,60.01650862053313,
condition files/Stage0c_2.xlsx,0c,theta,beta,g,"['h', 'g']","['Chess', 'Go']","[-0.15, 0.5]","[0.15, 0.5]",1,1,0,17,17,17,0,1,1,2,,,,,,,,,,,,,,,,,,,,,,,,,,,,,,,,,,,,,,,,,,,,,,,,,,,,,,,,,,,,,,,358.58298526,None,358.58298526,None,358.58298526,None,h,0,2.667741916000523,360.1165403390005,None,360.1165403390005,None,360.1165403390005,None,362.8494207090007,None,362.8494207090007,None,362.8494207090007,None,362.8494207090007,None,,,,,,,,,,,,,,,,,,,,,,,,,,,,,,,,,,,,,,,,,,,,001,44,2020_Jan_30_1359,spring_faces,3.1.5,60.01650862053313,
condition files/Stage0c_2.xlsx,0c,phi,alpha,h,"['h', 'g']","['Chess', 'Go']","[-0.15, 0.5]","[0.15, 0.5]",1,1,0,17,17,17,0,2,2,1,,,,,,,,,,,,,,,,,,,,,,,,,,,,,,,,,,,,,,,,,,,,,,,,,,,,,,,,,,,,,,,364.8164754749996,None,364.8164754749996,None,364.8164754749996,None,h,1,1.1864910930016777,366.3498299240018,None,366.3498299240018,None,366.3498299240018,None,367.59986696000124,None,367.59986696000124,None,367.59986696000124,None,367.59986696000124,None,,,,,,,,,,,,,,,,,,,,,,,,,,,,,,,,,,,,,,,,,,,,001,44,2020_Jan_30_1359,spring_faces,3.1.5,60.01650862053313,
condition files/Stage0c_2.xlsx,0c,beta,phi,g,"['h', 'g']","['Chess', 'Go']","[-0.15, 0.5]","[0.15, 0.5]",1,1,0,17,17,17,0,3,3,3,,,,,,,,,,,,,,,,,,,,,,,,,,,,,,,,,,,,,,,,,,,,,,,,,,,,,,,,,,,,,,,369.56661928700123,None,369.56661928700123,None,369.56661928700123,None,g,1,2.62848933100031,371.0998390780005,None,371.0998390780005,None,371.0998390780005,None,373.7832666969989,None,373.7832666969989,None,373.7832666969989,None,373.7832666969989,None,,,,,,,,,,,,,,,,,,,,,,,,,,,,,,,,,,,,,,,,,,,,001,44,2020_Jan_30_1359,spring_faces,3.1.5,60.01650862053313,
,,,,,,,,,,,,,,,,,,,,,,,,,,,,,,,,,,,,,,,,,,,,,,,,,,,,,,,,,,,,,,,,,,,,,,,,,,,,,,,,,,,,,,,,,,,,,,,,,,,,,,,,375.7665349320014,None,space,3.217892476997804,380.7663953459996,None,,,,,,,,,,,,,,,,,,,,,,,,,,,,,,,,,,,,,,001,44,2020_Jan_30_1359,spring_faces,3.1.5,60.01650862053313,
condition files/Stage1_1.xlsx,,B3,T3,c,"['c', 'm']","['Clue', 'Monopoly']","[-0.15, 0.5]","[0.15, 0.5]",1,1,,,,,,,,,0,0,0,0,0,0,0,4,,,,,,,,,,,,,,,,,,,,,,,,,,,,,,,,,,,,,,,,,,,,,,,,,,,,,,,384.09940765099964,None,384.09940765099964,None,384.09940765099964,None,m,0,4.833040199999232,385.5832870459999,None,385.5832870459999,None,385.5832870459999,None,390.4831212659992,None,390.4831212659992,None,390.4831212659992,None,390.4831212659992,None,,,,,,,380.7663953459996,None,,,,,,,,,,,,,,,,,,,,,,,,,,,,,,,,,,,,001,44,2020_Jan_30_1359,spring_faces,3.1.5,60.01650862053313,
condition files/Stage1_1.xlsx,,T4,B3,m,"['c', 'm']","['Clue', 'Monopoly']","[-0.15, 0.5]","[0.15, 0.5]",1,1,,,,,,,,,0,0,0,0,0,1,1,6,,,,,,,,,,,,,,,,,,,,,,,,,,,,,,,,,,,,,,,,,,,,,,,,,,,,,,,392.4330558949987,None,392.4330558949987,None,392.4330558949987,None,c,0,3.074202547999448,393.96620390599855,None,393.96620390599855,None,393.96620390599855,None,397.1166119059999,None,397.1166119059999,None,397.1166119059999,None,397.1166119059999,None,,,,,,,,,,,,,,,,,,,,,,,,,,,,,,,,,,,,,,,,,,,,001,44,2020_Jan_30_1359,spring_faces,3.1.5,60.01650862053313,
condition files/Stage1_1.xlsx,,T3,B4,c,"['c', 'm']","['Clue', 'Monopoly']","[-0.15, 0.5]","[0.15, 0.5]",1,1,,,,,,,,,0,0,0,0,0,2,2,5,,,,,,,,,,,,,,,,,,,,,,,,,,,,,,,,,,,,,,,,,,,,,,,,,,,,,,,399.0657285749985,None,399.0657285749985,None,399.0657285749985,None,m,0,1.560595866998483,400.599849713999,None,400.599849713999,None,400.599849713999,None,402.21613091499967,None,402.21613091499967,None,402.21613091499967,None,402.21613091499967,None,,,,,,,,,,,,,,,,,,,,,,,,,,,,,,,,,,,,,,,,,,,,001,44,2020_Jan_30_1359,spring_faces,3.1.5,60.01650862053313,
condition files/Stage1_1.xlsx,,B2,T1,m,"['c', 'm']","['Clue', 'Monopoly']","[-0.15, 0.5]","[0.15, 0.5]",1,1,,,,,,,,,0,0,0,0,0,3,3,2,,,,,,,,,,,,,,,,,,,,,,,,,,,,,,,,,,,,,,,,,,,,,,,,,,,,,,,404.1836355230007,None,404.1836355230007,None,404.1836355230007,None,m,1,2.9539437839994207,405.76638030200047,None,405.76638030200047,None,405.76638030200047,None,408.7831810429998,None,408.7831810429998,None,408.7831810429998,None,408.7831810429998,None,,,,,,,,,,,,,,,,,,,,,,,,,,,,,,,,,,,,,,,,,,,,001,44,2020_Jan_30_1359,spring_faces,3.1.5,60.01650862053313,
condition files/Stage1_1.xlsx,,B1,T2,c,"['c', 'm']","['Clue', 'Monopoly']","[-0.15, 0.5]","[0.15, 0.5]",1,1,,,,,,,,,0,0,0,0,0,4,4,1,,,,,,,,,,,,,,,,,,,,,,,,,,,,,,,,,,,,,,,,,,,,,,,,,,,,,,,410.74974846199984,None,410.74974846199984,None,410.74974846199984,None,m,0,1.0452991240017582,412.2829874909985,None,412.2829874909985,None,412.2829874909985,None,413.3859655699998,None,413.3859655699998,None,413.3859655699998,None,413.3859655699998,None,,,,,,,,,,,,,,,,,,,,,,,,,,,,,,,,,,,,,,,,,,,,001,44,2020_Jan_30_1359,spring_faces,3.1.5,60.01650862053313,
condition files/Stage1_1.xlsx,,T1,B1,c,"['c', 'm']","['Clue', 'Monopoly']","[-0.15, 0.5]","[0.15, 0.5]",1,1,,,,,,,,,0,0,0,0,0,5,5,0,,,,,,,,,,,,,,,,,,,,,,,,,,,,,,,,,,,,,,,,,,,,,,,,,,,,,,,415.34988255999997,None,415.34988255999997,None,415.34988255999997,None,m,0,0.9080714340016129,416.88433082900156,None,416.88433082900156,None,416.88433082900156,None,417.84987029400145,None,417.84987029400145,None,417.84987029400145,None,417.84987029400145,None,,,,,,,,,,,,,,,,,,,,,,,,,,,,,,,,,,,,,,,,,,,,001,44,2020_Jan_30_1359,spring_faces,3.1.5,60.01650862053313,
condition files/Stage1_1.xlsx,,T2,B2,m,"['c', 'm']","['Clue', 'Monopoly']","[-0.15, 0.5]","[0.15, 0.5]",1,1,,,,,,,,,0,0,0,0,0,6,6,3,,,,,,,,,,,,,,,,,,,,,,,,,,,,,,,,,,,,,,,,,,,,,,,,,,,,,,,419.8164622229997,None,419.8164622229997,None,419.8164622229997,None,c,0,2.7624773229981656,421.3498690339984,None,421.3498690339984,None,421.3498690339984,None,424.16778805300055,None,424.16778805300055,None,424.16778805300055,None,424.16778805300055,None,,,,,,,,,,,,,,,,,,,,,,,,,,,,,,,,,,,,,,,,,,,,001,44,2020_Jan_30_1359,spring_faces,3.1.5,60.01650862053313,
condition files/Stage1_1.xlsx,,B4,T4,m,"['c', 'm']","['Clue', 'Monopoly']","[-0.15, 0.5]","[0.15, 0.5]",1,1,,,,,,,,,0,0,0,0,0,7,7,7,,,,,,,,,,,,,,,,,,,,,,,,,,,,,,,,,,,,,,,,,,,,,,,,,,,,,,,426.13315163199877,None,426.13315163199877,None,426.13315163199877,None,m,1,1.9330660599989642,427.6672297309997,None,427.6672297309997,None,427.6672297309997,None,429.666546045999,None,429.666546045999,None,429.666546045999,None,429.666546045999,None,,,,,,,,,,,,,,,,,,,,,,,,,,,,,,,,,,,,,,,,,,,,001,44,2020_Jan_30_1359,spring_faces,3.1.5,60.01650862053313,
condition files/Stage1_2.xlsx,,T3,B3,c,"['c', 'm']","['Clue', 'Monopoly']","[-0.15, 0.5]","[0.15, 0.5]",1,1,,,,,,,,,0,1,1,1,0,0,0,4,,,,,,,,,,,,,,,,,,,,,,,,,,,,,,,,,,,,,,,,,,,,,,,,,,,,,,,431.64967487299873,None,431.64967487299873,None,431.64967487299873,None,c,1,2.2567092270001012,433.1996888169997,None,433.1996888169997,None,433.1996888169997,None,435.5182822120005,None,435.5182822120005,None,435.5182822120005,None,435.5182822120005,None,,,,,,,,,,,,,,,,,,,,,,,,,,,,,,,,,,,,,,,,,,,,001,44,2020_Jan_30_1359,spring_faces,3.1.5,60.01650862053313,
condition files/Stage1_2.xlsx,,T4,B4,m,"['c', 'm']","['Clue', 'Monopoly']","[-0.15, 0.5]","[0.15, 0.5]",1,1,,,,,,,,,0,1,1,1,0,1,1,7,,,,,,,,,,,,,,,,,,,,,,,,,,,,,,,,,,,,,,,,,,,,,,,,,,,,,,,437.48294201300087,None,437.48294201300087,None,437.48294201300087,None,m,1,1.3195100440025271,439.016821145,None,439.016821145,None,439.016821145,None,440.4004171609995,None,440.4004171609995,None,440.4004171609995,None,440.4004171609995,None,,,,,,,,,,,,,,,,,,,,,,,,,,,,,,,,,,,,,,,,,,,,001,44,2020_Jan_30_1359,spring_faces,3.1.5,60.01650862053313,
condition files/Stage1_2.xlsx,,T1,B2,m,"['c', 'm']","['Clue', 'Monopoly']","[-0.15, 0.5]","[0.15, 0.5]",1,1,,,,,,,,,0,1,1,1,0,2,2,2,,,,,,,,,,,,,,,,,,,,,,,,,,,,,,,,,,,,,,,,,,,,,,,,,,,,,,,442.36635638699954,None,442.36635638699954,None,442.36635638699954,None,c,0,1.6683748409996042,443.8999417119994,None,443.8999417119994,None,443.8999417119994,None,445.6330914630016,None,445.6330914630016,None,445.6330914630016,None,445.6330914630016,None,,,,,,,,,,,,,,,,,,,,,,,,,,,,,,,,,,,,,,,,,,,,001,44,2020_Jan_30_1359,spring_faces,3.1.5,60.01650862053313,
condition files/Stage1_2.xlsx,,B4,T3,c,"['c', 'm']","['Clue', 'Monopoly']","[-0.15, 0.5]","[0.15, 0.5]",1,1,,,,,,,,,0,1,1,1,0,3,3,5,,,,,,,,,,,,,,,,,,,,,,,,,,,,,,,,,,,,,,,,,,,,,,,,,,,,,,,447.5997680770015,None,447.5997680770015,None,447.5997680770015,None,m,0,1.7623245470022084,449.1499972099991,None,449.1499972099991,None,449.1499972099991,None,450.983471689,None,450.983471689,None,450.983471689,None,450.983471689,None,,,,,,,,,,,,,,,,,,,,,,,,,,,,,,,,,,,,,,,,,,,,001,44,2020_Jan_30_1359,spring_faces,3.1.5,60.01650862053313,
condition files/Stage1_2.xlsx,,B1,T1,c,"['c', 'm']","['Clue', 'Monopoly']","[-0.15, 0.5]","[0.15, 0.5]",1,1,,,,,,,,,0,1,1,1,0,4,4,0,,,,,,,,,,,,,,,,,,,,,,,,,,,,,,,,,,,,,,,,,,,,,,,,,,,,,,,452.93269755599977,None,452.93269755599977,None,452.93269755599977,None,c,1,1.3716156150003371,454.4687863670006,None,454.4687863670006,None,454.4687863670006,None,455.89986861700163,None,455.89986861700163,None,455.89986861700163,None,455.89986861700163,None,,,,,,,,,,,,,,,,,,,,,,,,,,,,,,,,,,,,,,,,,,,,001,44,2020_Jan_30_1359,spring_faces,3.1.5,60.01650862053313,
condition files/Stage1_2.xlsx,,B2,T2,m,"['c', 'm']","['Clue', 'Monopoly']","[-0.15, 0.5]","[0.15, 0.5]",1,1,,,,,,,,,0,1,1,1,0,5,5,3,,,,,,,,,,,,,,,,,,,,,,,,,,,,,,,,,,,,,,,,,,,,,,,,,,,,,,,457.86592636500063,None,457.86592636500063,None,457.86592636500063,None,m,1,1.4956720109985326,459.416645289999,None,459.416645289999,None,459.416645289999,None,460.96760786600134,None,460.96760786600134,None,460.96760786600134,None,460.96760786600134,None,,,,,,,,,,,,,,,,,,,,,,,,,,,,,,,,,,,,,,,,,,,,001,44,2020_Jan_30_1359,spring_faces,3.1.5,60.01650862053313,
condition files/Stage1_2.xlsx,,B3,T4,m,"['c', 'm']","['Clue', 'Monopoly']","[-0.15, 0.5]","[0.15, 0.5]",1,1,,,,,,,,,0,1,1,1,0,6,6,6,,,,,,,,,,,,,,,,,,,,,,,,,,,,,,,,,,,,,,,,,,,,,,,,,,,,,,,462.9330097509992,None,462.9330097509992,None,462.9330097509992,None,c,0,1.4051000609979383,464.48322011300115,None,464.48322011300115,None,464.48322011300115,None,465.94990159699955,None,465.94990159699955,None,465.94990159699955,None,465.94990159699955,None,,,,,,,,,,,,,,,,,,,,,,,,,,,,,,,,,,,,,,,,,,,,001,44,2020_Jan_30_1359,spring_faces,3.1.5,60.01650862053313,
condition files/Stage1_2.xlsx,,T2,B1,c,"['c', 'm']","['Clue', 'Monopoly']","[-0.15, 0.5]","[0.15, 0.5]",1,1,,,,,,,,,0,1,1,1,0,7,7,1,,,,,,,,,,,,,,,,,,,,,,,,,,,,,,,,,,,,,,,,,,,,,,,,,,,,,,,467.91624149700147,None,467.91624149700147,None,467.91624149700147,None,c,1,1.3338744530010445,469.45040062000044,None,469.45040062000044,None,469.45040062000044,None,470.85216026800117,None,470.85216026800117,None,470.85216026800117,None,470.85216026800117,None,,,,,,,,,,,,,,,,,,,,,,,,,,,,,,,,,,,,,,,,,,,,001,44,2020_Jan_30_1359,spring_faces,3.1.5,60.01650862053313,
condition files/Stage1_1.xlsx,,T2,B2,m,"['c', 'm']","['Clue', 'Monopoly']","[-0.15, 0.5]","[0.15, 0.5]",1,1,,,,,,,,,0,2,2,2,0,0,0,3,,,,,,,,,,,,,,,,,,,,,,,,,,,,,,,,,,,,,,,,,,,,,,,,,,,,,,,472.832997513,None,472.832997513,None,472.832997513,None,c,0,0.9614176920003956,474.38287959100126,None,474.38287959100126,None,474.38287959100126,None,475.4017157439994,None,475.4017157439994,None,475.4017157439994,None,475.4017157439994,None,,,,,,,,,,,,,,,,,,,,,,,,,,,,,,,,,,,,,,,,,,,,001,44,2020_Jan_30_1359,spring_faces,3.1.5,60.01650862053313,
condition files/Stage1_1.xlsx,,B3,T3,c,"['c', 'm']","['Clue', 'Monopoly']","[-0.15, 0.5]","[0.15, 0.5]",1,1,,,,,,,,,0,2,2,2,0,1,1,4,,,,,,,,,,,,,,,,,,,,,,,,,,,,,,,,,,,,,,,,,,,,,,,,,,,,,,,477.36627526899974,None,477.36627526899974,None,477.36627526899974,None,c,1,2.139532960998622,478.9168074480003,None,478.9168074480003,None,478.9168074480003,None,481.11891921200004,None,481.11891921200004,None,481.11891921200004,None,481.11891921200004,None,,,,,,,,,,,,,,,,,,,,,,,,,,,,,,,,,,,,,,,,,,,,001,44,2020_Jan_30_1359,spring_faces,3.1.5,60.01650862053313,
condition files/Stage1_1.xlsx,,T4,B3,m,"['c', 'm']","['Clue', 'Monopoly']","[-0.15, 0.5]","[0.15, 0.5]",1,1,,,,,,,,,0,2,2,2,0,2,2,6,,,,,,,,,,,,,,,,,,,,,,,,,,,,,,,,,,,,,,,,,,,,,,,,,,,,,,,483.08296267400146,None,483.08296267400146,None,483.08296267400146,None,m,1,1.1118410410017532,484.6164489139992,None,484.6164489139992,None,484.6164489139992,None,485.7851905210009,None,485.7851905210009,None,485.7851905210009,None,485.7851905210009,None,,,,,,,,,,,,,,,,,,,,,,,,,,,,,,,,,,,,,,,,,,,,001,44,2020_Jan_30_1359,spring_faces,3.1.5,60.01650862053313,
condition files/Stage1_1.xlsx,,T1,B1,c,"['c', 'm']","['Clue', 'Monopoly']","[-0.15, 0.5]","[0.15, 0.5]",1,1,,,,,,,,,0,2,2,2,0,3,3,0,,,,,,,,,,,,,,,,,,,,,,,,,,,,,,,,,,,,,,,,,,,,,,,,,,,,,,,487.7499868970008,None,487.7499868970008,None,487.7499868970008,None,m,0,2.652453239999886,489.2998640149999,None,489.2998640149999,None,489.2998640149999,None,492.01764493800147,None,492.01764493800147,None,492.01764493800147,None,492.01764493800147,None,,,,,,,,,,,,,,,,,,,,,,,,,,,,,,,,,,,,,,,,,,,,001,44,2020_Jan_30_1359,spring_faces,3.1.5,60.01650862053313,
condition files/Stage1_1.xlsx,,T3,B4,c,"['c', 'm']","['Clue', 'Monopoly']","[-0.15, 0.5]","[0.15, 0.5]",1,1,,,,,,,,,0,2,2,2,0,4,4,5,,,,,,,,,,,,,,,,,,,,,,,,,,,,,,,,,,,,,,,,,,,,,,,,,,,,,,,493.98343364800166,None,493.98343364800166,None,493.98343364800166,None,c,1,1.235091057002137,495.51724968599956,None,495.51724968599956,None,495.51724968599956,None,496.8160176800011,None,496.8160176800011,None,496.8160176800011,None,496.8160176800011,None,,,,,,,,,,,,,,,,,,,,,,,,,,,,,,,,,,,,,,,,,,,,001,44,2020_Jan_30_1359,spring_faces,3.1.5,60.01650862053313,
condition files/Stage1_1.xlsx,,B2,T1,m,"['c', 'm']","['Clue', 'Monopoly']","[-0.15, 0.5]","[0.15, 0.5]",1,1,,,,,,,,,0,2,2,2,0,5,5,2,,,,,,,,,,,,,,,,,,,,,,,,,,,,,,,,,,,,,,,,,,,,,,,,,,,,,,,498.78322878900144,None,498.78322878900144,None,498.78322878900144,None,m,1,1.4926888159970986,500.31570043800093,None,500.31570043800093,None,500.31570043800093,None,501.8670009289999,None,501.8670009289999,None,501.8670009289999,None,501.8670009289999,None,,,,,,,,,,,,,,,,,,,,,,,,,,,,,,,,,,,,,,,,,,,,001,44,2020_Jan_30_1359,spring_faces,3.1.5,60.01650862053313,
condition files/Stage1_1.xlsx,,B1,T2,c,"['c', 'm']","['Clue', 'Monopoly']","[-0.15, 0.5]","[0.15, 0.5]",1,1,,,,,,,,,0,2,2,2,0,6,6,1,,,,,,,,,,,,,,,,,,,,,,,,,,,,,,,,,,,,,,,,,,,,,,,,,,,,,,,503.83310882099977,None,503.83310882099977,None,503.83310882099977,None,m,0,1.353763314000389,505.382495722999,None,505.382495722999,None,505.382495722999,None,506.8012082339992,None,506.8012082339992,None,506.8012082339992,None,506.8012082339992,None,,,,,,,,,,,,,,,,,,,,,,,,,,,,,,,,,,,,,,,,,,,,001,44,2020_Jan_30_1359,spring_faces,3.1.5,60.01650862053313,
condition files/Stage1_1.xlsx,,B4,T4,m,"['c', 'm']","['Clue', 'Monopoly']","[-0.15, 0.5]","[0.15, 0.5]",1,1,,,,,,,,,0,2,2,2,0,7,7,7,,,,,,,,,,,,,,,,,,,,,,,,,,,,,,,,,,,,,,,,,,,,,,,,,,,,,,,508.7661996909992,None,508.7661996909992,None,508.7661996909992,None,c,0,1.909415996997268,510.2989823140015,None,510.2989823140015,None,510.2989823140015,None,512.2831945840007,None,512.2831945840007,None,512.2831945840007,None,512.2831945840007,None,,,,,,,,,,,,,,,,,,,,,,,,,,,,,,,,,,,,,,,,,,,,001,44,2020_Jan_30_1359,spring_faces,3.1.5,60.01650862053313,
condition files/Stage1_2.xlsx,,B3,T4,m,"['c', 'm']","['Clue', 'Monopoly']","[-0.15, 0.5]","[0.15, 0.5]",1,1,,,,,,,,,0,3,3,3,0,0,0,6,,,,,,,,,,,,,,,,,,,,,,,,,,,,,,,,,,,,,,,,,,,,,,,,,,,,,,,514.2499269200016,None,514.2499269200016,None,514.2499269200016,None,m,1,0.713314390002779,515.7833002129992,None,515.7833002129992,None,515.7833002129992,None,516.5495089110009,None,516.5495089110009,None,516.5495089110009,None,516.5495089110009,None,,,,,,,,,,,,,,,,,,,,,,,,,,,,,,,,,,,,,,,,,,,,001,44,2020_Jan_30_1359,spring_faces,3.1.5,60.01650862053313,
condition files/Stage1_2.xlsx,,T4,B4,m,"['c', 'm']","['Clue', 'Monopoly']","[-0.15, 0.5]","[0.15, 0.5]",1,1,,,,,,,,,0,3,3,3,0,1,1,7,,,,,,,,,,,,,,,,,,,,,,,,,,,,,,,,,,,,,,,,,,,,,,,,,,,,,,,518.5164112579987,None,518.5164112579987,None,518.5164112579987,None,c,0,1.293797567999718,520.066591013001,None,520.066591013001,None,520.066591013001,None,521.4165749489985,None,521.4165749489985,None,521.4165749489985,None,521.4165749489985,None,,,,,,,,,,,,,,,,,,,,,,,,,,,,,,,,,,,,,,,,,,,,001,44,2020_Jan_30_1359,spring_faces,3.1.5,60.01650862053313,
condition files/Stage1_2.xlsx,,B1,T1,c,"['c', 'm']","['Clue', 'Monopoly']","[-0.15, 0.5]","[0.15, 0.5]",1,1,,,,,,,,,0,3,3,3,0,2,2,0,,,,,,,,,,,,,,,,,,,,,,,,,,,,,,,,,,,,,,,,,,,,,,,,,,,,,,,523.3830024140007,None,523.3830024140007,None,523.3830024140007,None,m,0,4.651683192001656,524.9166675609995,None,524.9166675609995,None,524.9166675609995,None,529.635366505001,None,529.635366505001,None,529.635366505001,None,529.635366505001,None,,,,,,,,,,,,,,,,,,,,,,,,,,,,,,,,,,,,,,,,,,,,001,44,2020_Jan_30_1359,spring_faces,3.1.5,60.01650862053313,
condition files/Stage1_2.xlsx,,T2,B1,c,"['c', 'm']","['Clue', 'Monopoly']","[-0.15, 0.5]","[0.15, 0.5]",1,1,,,,,,,,,0,3,3,3,0,3,3,1,,,,,,,,,,,,,,,,,,,,,,,,,,,,,,,,,,,,,,,,,,,,,,,,,,,,,,,531.5996901639992,None,531.5996901639992,None,531.5996901639992,None,c,1,1.875192622999748,533.133217114002,None,533.133217114002,None,533.133217114002,None,535.0660414939994,None,535.0660414939994,None,535.0660414939994,None,535.0660414939994,None,,,,,,,,,,,,,,,,,,,,,,,,,,,,,,,,,,,,,,,,,,,,001,44,2020_Jan_30_1359,spring_faces,3.1.5,60.01650862053313,
condition files/Stage1_2.xlsx,,T1,B2,m,"['c', 'm']","['Clue', 'Monopoly']","[-0.15, 0.5]","[0.15, 0.5]",1,1,,,,,,,,,0,3,3,3,0,4,4,2,,,,,,,,,,,,,,,,,,,,,,,,,,,,,,,,,,,,,,,,,,,,,,,,,,,,,,,537.0330271570019,None,537.0330271570019,None,537.0330271570019,None,m,1,1.4338358169989078,538.5664715810017,None,538.5664715810017,None,538.5664715810017,None,540.066128546001,None,540.066128546001,None,540.066128546001,None,540.066128546001,None,,,,,,,,,,,,,,,,,,,,,,,,,,,,,,,,,,,,,,,,,,,,001,44,2020_Jan_30_1359,spring_faces,3.1.5,60.01650862053313,
condition files/Stage1_2.xlsx,,T3,B3,c,"['c', 'm']","['Clue', 'Monopoly']","[-0.15, 0.5]","[0.15, 0.5]",1,1,,,,,,,,,0,3,3,3,0,5,5,4,,,,,,,,,,,,,,,,,,,,,,,,,,,,,,,,,,,,,,,,,,,,,,,,,,,,,,,542.032641935999,None,542.032641935999,None,542.032641935999,None,c,1,1.1689304950014048,543.5833876540019,None,543.5833876540019,None,543.5833876540019,None,544.8182016850005,None,544.8182016850005,None,544.8182016850005,None,544.8182016850005,None,,,,,,,,,,,,,,,,,,,,,,,,,,,,,,,,,,,,,,,,,,,,001,44,2020_Jan_30_1359,spring_faces,3.1.5,60.01650862053313,
condition files/Stage1_2.xlsx,,B4,T3,c,"['c', 'm']","['Clue', 'Monopoly']","[-0.15, 0.5]","[0.15, 0.5]",1,1,,,,,,,,,0,3,3,3,0,6,6,5,,,,,,,,,,,,,,,,,,,,,,,,,,,,,,,,,,,,,,,,,,,,,,,,,,,,,,,546.7832276289992,None,546.7832276289992,None,546.7832276289992,None,m,0,2.291806703000475,548.3325721200017,None,548.3325721200017,None,548.3325721200017,None,550.6826629360003,None,550.6826629360003,None,550.6826629360003,None,550.6826629360003,None,,,,,,,,,,,,,,,,,,,,,,,,,,,,,,,,,,,,,,,,,,,,001,44,2020_Jan_30_1359,spring_faces,3.1.5,60.01650862053313,
condition files/Stage1_2.xlsx,,B2,T2,m,"['c', 'm']","['Clue', 'Monopoly']","[-0.15, 0.5]","[0.15, 0.5]",1,1,,,,,,,,,0,3,3,3,0,7,7,3,,,,,,,,,,,,,,,,,,,,,,,,,,,,,,,,,,,,,,,,,,,,,,,,,,,,,,,552.6497592470005,None,552.6497592470005,None,552.6497592470005,None,c,0,1.1607227029999194,554.1996579740007,None,554.1996579740007,None,554.1996579740007,None,555.417743435999,None,555.417743435999,None,555.417743435999,None,555.417743435999,None,,,,,,,,,,,,,,,,,,,,,,,,,,,,,,,,,,,,,,,,,,,,001,44,2020_Jan_30_1359,spring_faces,3.1.5,60.01650862053313,
condition files/Stage1_1.xlsx,,B3,T3,c,"['c', 'm']","['Clue', 'Monopoly']","[-0.15, 0.5]","[0.15, 0.5]",1,1,,,,,,,,,0,4,4,4,0,0,0,4,,,,,,,,,,,,,,,,,,,,,,,,,,,,,,,,,,,,,,,,,,,,,,,,,,,,,,,557.3997799940007,None,557.3997799940007,None,557.3997799940007,None,c,1,1.1619264159999148,558.9344217430007,None,558.9344217430007,None,558.9344217430007,None,560.1500829460019,None,560.1500829460019,None,560.1500829460019,None,560.1500829460019,None,,,,,,,,,,,,,,,,,,,,,,,,,,,,,,,,,,,,,,,,,,,,001,44,2020_Jan_30_1359,spring_faces,3.1.5,60.01650862053313,
condition files/Stage1_1.xlsx,,T2,B2,m,"['c', 'm']","['Clue', 'Monopoly']","[-0.15, 0.5]","[0.15, 0.5]",1,1,,,,,,,,,0,4,4,4,0,1,1,3,,,,,,,,,,,,,,,,,,,,,,,,,,,,,,,,,,,,,,,,,,,,,,,,,,,,,,,562.1162651550003,None,562.1162651550003,None,562.1162651550003,None,m,1,1.4205646139998862,563.6518373479994,None,563.6518373479994,None,563.6518373479994,None,565.149950821,None,565.149950821,None,565.149950821,None,565.149950821,None,,,,,,,,,,,,,,,,,,,,,,,,,,,,,,,,,,,,,,,,,,,,001,44,2020_Jan_30_1359,spring_faces,3.1.5,60.01650862053313,
condition files/Stage1_1.xlsx,,T1,B1,c,"['c', 'm']","['Clue', 'Monopoly']","[-0.15, 0.5]","[0.15, 0.5]",1,1,,,,,,,,,0,4,4,4,0,2,2,0,,,,,,,,,,,,,,,,,,,,,,,,,,,,,,,,,,,,,,,,,,,,,,,,,,,,,,,567.0994073699985,None,567.0994073699985,None,567.0994073699985,None,c,1,1.2542495899979258,568.6340950010017,None,568.6340950010017,None,568.6340950010017,None,569.9500501719995,None,569.9500501719995,None,569.9500501719995,None,569.9500501719995,None,,,,,,,,,,,,,,,,,,,,,,,,,,,,,,,,,,,,,,,,,,,,001,44,2020_Jan_30_1359,spring_faces,3.1.5,60.01650862053313,
condition files/Stage1_1.xlsx,,T4,B3,m,"['c', 'm']","['Clue', 'Monopoly']","[-0.15, 0.5]","[0.15, 0.5]",1,1,,,,,,,,,0,4,4,4,0,3,3,6,,,,,,,,,,,,,,,,,,,,,,,,,,,,,,,,,,,,,,,,,,,,,,,,,,,,,,,571.9164426110001,None,571.9164426110001,None,571.9164426110001,None,m,1,1.4602211810015433,573.4521188850013,None,573.4521188850013,None,573.4521188850013,None,574.9832035949985,None,574.9832035949985,None,574.9832035949985,None,574.9832035949985,None,,,,,,,,,,,,,,,,,,,,,,,,,,,,,,,,,,,,,,,,,,,,001,44,2020_Jan_30_1359,spring_faces,3.1.5,60.01650862053313,
condition files/Stage1_1.xlsx,,T3,B4,c,"['c', 'm']","['Clue', 'Monopoly']","[-0.15, 0.5]","[0.15, 0.5]",1,1,,,,,,,,,0,4,4,4,0,4,4,5,,,,,,,,,,,,,,,,,,,,,,,,,,,,,,,,,,,,,,,,,,,,,,,,,,,,,,,576.9331264960019,None,576.9331264960019,None,576.9331264960019,None,c,1,0.8777295630025037,578.4826698709985,None,578.4826698709985,None,578.4826698709985,None,579.4188890010009,None,579.4188890010009,None,579.4188890010009,None,579.4188890010009,None,,,,,,,,,,,,,,,,,,,,,,,,,,,,,,,,,,,,,,,,,,,,001,44,2020_Jan_30_1359,spring_faces,3.1.5,60.01650862053313,
condition files/Stage1_1.xlsx,,B4,T4,m,"['c', 'm']","['Clue', 'Monopoly']","[-0.15, 0.5]","[0.15, 0.5]",1,1,,,,,,,,,0,4,4,4,0,5,5,7,,,,,,,,,,,,,,,,,,,,,,,,,,,,,,,,,,,,,,,,,,,,,,,,,,,,,,,581.3830913620004,None,581.3830913620004,None,581.3830913620004,None,m,1,1.0998500130008324,582.9164844869993,None,582.9164844869993,None,582.9164844869993,None,584.0690124979992,None,584.0690124979992,None,584.0690124979992,None,584.0690124979992,None,,,,,,,,,,,,,,,,,,,,,,,,,,,,,,,,,,,,,,,,,,,,001,44,2020_Jan_30_1359,spring_faces,3.1.5,60.01650862053313,
condition files/Stage1_1.xlsx,,B2,T1,m,"['c', 'm']","['Clue', 'Monopoly']","[-0.15, 0.5]","[0.15, 0.5]",1,1,,,,,,,,,0,4,4,4,0,6,6,2,,,,,,,,,,,,,,,,,,,,,,,,,,,,,,,,,,,,,,,,,,,,,,,,,,,,,,,586.0330436240001,None,586.0330436240001,None,586.0330436240001,None,c,0,1.1221384720010974,587.5662079870017,None,587.5662079870017,None,587.5662079870017,None,588.7498737440001,None,588.7498737440001,None,588.7498737440001,None,588.7498737440001,None,,,,,,,,,,,,,,,,,,,,,,,,,,,,,,,,,,,,,,,,,,,,001,44,2020_Jan_30_1359,spring_faces,3.1.5,60.01650862053313,
condition files/Stage1_1.xlsx,,B1,T2,c,"['c', 'm']","['Clue', 'Monopoly']","[-0.15, 0.5]","[0.15, 0.5]",1,1,,,,,,,,,0,4,4,4,0,7,7,1,,,,,,,,,,,,,,,,,,,,,,,,,,,,,,,,,,,,,,,,,,,,,,,,,,,,,,,590.7162688669996,None,590.7162688669996,None,590.7162688669996,None,c,1,1.8623826999973971,592.249961952999,None,592.249961952999,None,592.249961952999,None,594.1832790580011,None,594.1832790580011,None,594.1832790580011,None,594.1832790580011,None,,,,,,,,,,,,,,,,,,,,,,,,,,,,,,,,,,,,,,,,,,,,001,44,2020_Jan_30_1359,spring_faces,3.1.5,60.01650862053313,
condition files/Stage1_2.xlsx,,B3,T4,m,"['c', 'm']","['Clue', 'Monopoly']","[-0.15, 0.5]","[0.15, 0.5]",1,1,,,,,,,,,0,5,5,5,0,0,0,6,,,,,,,,,,,,,,,,,,,,,,,,,,,,,,,,,,,,,,,,,,,,,,,,,,,,,,,596.1502373980002,None,596.1502373980002,None,596.1502373980002,None,m,1,1.7241647990013007,597.700232534,None,597.700232534,None,597.700232534,None,599.4859058340007,None,599.4859058340007,None,599.4859058340007,None,599.4859058340007,None,,,,,,,,,,,,,,,,,,,,,,,,,,,,,,,,,,,,,,,,,,,,001,44,2020_Jan_30_1359,spring_faces,3.1.5,60.01650862053313,
condition files/Stage1_2.xlsx,,T2,B1,c,"['c', 'm']","['Clue', 'Monopoly']","[-0.15, 0.5]","[0.15, 0.5]",1,1,,,,,,,,,0,5,5,5,0,1,1,1,,,,,,,,,,,,,,,,,,,,,,,,,,,,,,,,,,,,,,,,,,,,,,,,,,,,,,,601.449598604002,None,601.449598604002,None,601.449598604002,None,c,1,1.0644264340007794,602.9998855429985,None,602.9998855429985,None,602.9998855429985,None,604.1332184150015,None,604.1332184150015,None,604.1332184150015,None,604.1332184150015,None,,,,,,,,,,,,,,,,,,,,,,,,,,,,,,,,,,,,,,,,,,,,001,44,2020_Jan_30_1359,spring_faces,3.1.5,60.01650862053313,
condition files/Stage1_2.xlsx,,T3,B3,c,"['c', 'm']","['Clue', 'Monopoly']","[-0.15, 0.5]","[0.15, 0.5]",1,1,,,,,,,,,0,5,5,5,0,2,2,4,,,,,,,,,,,,,,,,,,,,,,,,,,,,,,,,,,,,,,,,,,,,,,,,,,,,,,,606.0832362350011,None,606.0832362350011,None,606.0832362350011,None,m,0,1.9026493300007132,607.6336692490004,None,607.6336692490004,None,607.6336692490004,None,609.6000794200008,None,609.6000794200008,None,609.6000794200008,None,609.6000794200008,None,,,,,,,,,,,,,,,,,,,,,,,,,,,,,,,,,,,,,,,,,,,,001,44,2020_Jan_30_1359,spring_faces,3.1.5,60.01650862053313,
condition files/Stage1_2.xlsx,,B1,T1,c,"['c', 'm']","['Clue', 'Monopoly']","[-0.15, 0.5]","[0.15, 0.5]",1,1,,,,,,,,,0,5,5,5,0,3,3,0,,,,,,,,,,,,,,,,,,,,,,,,,,,,,,,,,,,,,,,,,,,,,,,,,,,,,,,611.5662089379985,None,611.5662089379985,None,611.5662089379985,None,c,1,0.9156099840001843,613.1167014150014,None,613.1167014150014,None,613.1167014150014,None,614.0833005070017,None,614.0833005070017,None,614.0833005070017,None,614.0833005070017,None,,,,,,,,,,,,,,,,,,,,,,,,,,,,,,,,,,,,,,,,,,,,001,44,2020_Jan_30_1359,spring_faces,3.1.5,60.01650862053313,
condition files/Stage1_2.xlsx,,T4,B4,m,"['c', 'm']","['Clue', 'Monopoly']","[-0.15, 0.5]","[0.15, 0.5]",1,1,,,,,,,,,0,5,5,5,0,4,4,7,,,,,,,,,,,,,,,,,,,,,,,,,,,,,,,,,,,,,,,,,,,,,,,,,,,,,,,616.0494906620006,None,616.0494906620006,None,616.0494906620006,None,m,1,1.281419276001543,617.5829192609999,None,617.5829192609999,None,617.5829192609999,None,618.9189881909988,None,618.9189881909988,None,618.9189881909988,None,618.9189881909988,None,,,,,,,,,,,,,,,,,,,,,,,,,,,,,,,,,,,,,,,,,,,,001,44,2020_Jan_30_1359,spring_faces,3.1.5,60.01650862053313,
condition files/Stage1_2.xlsx,,T1,B2,m,"['c', 'm']","['Clue', 'Monopoly']","[-0.15, 0.5]","[0.15, 0.5]",1,1,,,,,,,,,0,5,5,5,0,5,5,2,,,,,,,,,,,,,,,,,,,,,,,,,,,,,,,,,,,,,,,,,,,,,,,,,,,,,,,620.8829699570015,None,620.8829699570015,None,620.8829699570015,None,c,0,1.1837489959980303,622.4165406680004,None,622.4165406680004,None,622.4165406680004,None,623.6667280530019,None,623.6667280530019,None,623.6667280530019,None,623.6667280530019,None,,,,,,,,,,,,,,,,,,,,,,,,,,,,,,,,,,,,,,,,,,,,001,44,2020_Jan_30_1359,spring_faces,3.1.5,60.01650862053313,
condition files/Stage1_2.xlsx,,B4,T3,c,"['c', 'm']","['Clue', 'Monopoly']","[-0.15, 0.5]","[0.15, 0.5]",1,1,,,,,,,,,0,5,5,5,0,6,6,5,,,,,,,,,,,,,,,,,,,,,,,,,,,,,,,,,,,,,,,,,,,,,,,,,,,,,,,625.6330074120015,None,625.6330074120015,None,625.6330074120015,None,m,0,3.6336340279995056,627.166639731,None,627.166639731,None,627.166639731,None,630.8671313679988,None,630.8671313679988,None,630.8671313679988,None,630.8671313679988,None,,,,,,,,,,,,,,,,,,,,,,,,,,,,,,,,,,,,,,,,,,,,001,44,2020_Jan_30_1359,spring_faces,3.1.5,60.01650862053313,
condition files/Stage1_2.xlsx,,B2,T2,m,"['c', 'm']","['Clue', 'Monopoly']","[-0.15, 0.5]","[0.15, 0.5]",1,1,,,,,,,,,0,5,5,5,0,7,7,3,,,,,,,,,,,,,,,,,,,,,,,,,,,,,,,,,,,,,,,,,,,,,,,,,,,,,,,632.8326964219996,None,632.8326964219996,None,632.8326964219996,None,c,0,1.7618750569999975,634.3664780949985,None,634.3664780949985,None,634.3664780949985,None,636.184847206001,None,636.184847206001,None,636.184847206001,None,636.184847206001,None,,,,,,,,,,,,,,,,,,,,,,,,,,,,,,,,,,,,,,,,,,,,001,44,2020_Jan_30_1359,spring_faces,3.1.5,60.01650862053313,
condition files/Stage1_1.xlsx,,T4,B3,m,"['c', 'm']","['Clue', 'Monopoly']","[-0.15, 0.5]","[0.15, 0.5]",1,1,,,,,,,,,0,6,6,6,0,0,0,6,,,,,,,,,,,,,,,,,,,,,,,,,,,,,,,,,,,,,,,,,,,,,,,,,,,,,,,638.1659807889991,None,638.1659807889991,None,638.1659807889991,None,m,1,1.0356645920001029,639.7166710080019,None,639.7166710080019,None,639.7166710080019,None,640.8165684919986,None,640.8165684919986,None,640.8165684919986,None,640.8165684919986,None,,,,,,,,,,,,,,,,,,,,,,,,,,,,,,,,,,,,,,,,,,,,001,44,2020_Jan_30_1359,spring_faces,3.1.5,60.01650862053313,
condition files/Stage1_1.xlsx,,T3,B4,c,"['c', 'm']","['Clue', 'Monopoly']","[-0.15, 0.5]","[0.15, 0.5]",1,1,,,,,,,,,0,6,6,6,0,1,1,5,,,,,,,,,,,,,,,,,,,,,,,,,,,,,,,,,,,,,,,,,,,,,,,,,,,,,,,642.7829471240002,None,642.7829471240002,None,642.7829471240002,None,c,1,2.37207265699908,644.3162771999996,None,644.3162771999996,None,644.3162771999996,None,646.7664289620006,None,646.7664289620006,None,646.7664289620006,None,646.7664289620006,None,,,,,,,,,,,,,,,,,,,,,,,,,,,,,,,,,,,,,,,,,,,,001,44,2020_Jan_30_1359,spring_faces,3.1.5,60.01650862053313,
condition files/Stage1_1.xlsx,,B2,T1,m,"['c', 'm']","['Clue', 'Monopoly']","[-0.15, 0.5]","[0.15, 0.5]",1,1,,,,,,,,,0,6,6,6,0,2,2,2,,,,,,,,,,,,,,,,,,,,,,,,,,,,,,,,,,,,,,,,,,,,,,,,,,,,,,,648.7160560750017,None,648.7160560750017,None,648.7160560750017,None,m,1,1.0788684059989464,650.2494261259999,None,650.2494261259999,None,650.2494261259999,None,651.3845923529989,None,651.3845923529989,None,651.3845923529989,None,651.3845923529989,None,,,,,,,,,,,,,,,,,,,,,,,,,,,,,,,,,,,,,,,,,,,,001,44,2020_Jan_30_1359,spring_faces,3.1.5,60.01650862053313,
condition files/Stage1_1.xlsx,,T2,B2,m,"['c', 'm']","['Clue', 'Monopoly']","[-0.15, 0.5]","[0.15, 0.5]",1,1,,,,,,,,,0,6,6,6,0,3,3,3,,,,,,,,,,,,,,,,,,,,,,,,,,,,,,,,,,,,,,,,,,,,,,,,,,,,,,,653.3497284449986,None,653.3497284449986,None,653.3497284449986,None,c,0,1.4370399470026314,654.8992877609999,None,654.8992877609999,None,654.8992877609999,None,656.3998333199997,None,656.3998333199997,None,656.3998333199997,None,656.3998333199997,None,,,,,,,,,,,,,,,,,,,,,,,,,,,,,,,,,,,,,,,,,,,,001,44,2020_Jan_30_1359,spring_faces,3.1.5,60.01650862053313,
condition files/Stage1_1.xlsx,,T1,B1,c,"['c', 'm']","['Clue', 'Monopoly']","[-0.15, 0.5]","[0.15, 0.5]",1,1,,,,,,,,,0,6,6,6,0,4,4,0,,,,,,,,,,,,,,,,,,,,,,,,,,,,,,,,,,,,,,,,,,,,,,,,,,,,,,,658.3663339480008,None,658.3663339480008,None,658.3663339480008,None,m,0,1.5882259499994689,659.9001168870018,None,659.9001168870018,None,659.9001168870018,None,661.5513270759984,None,661.5513270759984,None,661.5513270759984,None,661.5513270759984,None,,,,,,,,,,,,,,,,,,,,,,,,,,,,,,,,,,,,,,,,,,,,001,44,2020_Jan_30_1359,spring_faces,3.1.5,60.01650862053313,
condition files/Stage1_1.xlsx,,B4,T4,m,"['c', 'm']","['Clue', 'Monopoly']","[-0.15, 0.5]","[0.15, 0.5]",1,1,,,,,,,,,0,6,6,6,0,5,5,7,,,,,,,,,,,,,,,,,,,,,,,,,,,,,,,,,,,,,,,,,,,,,,,,,,,,,,,663.5162463310007,None,663.5162463310007,None,663.5162463310007,None,m,1,2.213882616000774,665.0504529870013,None,665.0504529870013,None,665.0504529870013,None,667.3165029500014,None,667.3165029500014,None,667.3165029500014,None,667.3165029500014,None,,,,,,,,,,,,,,,,,,,,,,,,,,,,,,,,,,,,,,,,,,,,001,44,2020_Jan_30_1359,spring_faces,3.1.5,60.01650862053313,
condition files/Stage1_1.xlsx,,B1,T2,c,"['c', 'm']","['Clue', 'Monopoly']","[-0.15, 0.5]","[0.15, 0.5]",1,1,,,,,,,,,0,6,6,6,0,6,6,1,,,,,,,,,,,,,,,,,,,,,,,,,,,,,,,,,,,,,,,,,,,,,,,,,,,,,,,669.2830018979985,None,669.2830018979985,None,669.2830018979985,None,c,1,1.9026209250005195,670.8177262009995,None,670.8177262009995,None,670.8177262009995,None,672.7856803670002,None,672.7856803670002,None,672.7856803670002,None,672.7856803670002,None,,,,,,,,,,,,,,,,,,,,,,,,,,,,,,,,,,,,,,,,,,,,001,44,2020_Jan_30_1359,spring_faces,3.1.5,60.01650862053313,
condition files/Stage1_1.xlsx,,B3,T3,c,"['c', 'm']","['Clue', 'Monopoly']","[-0.15, 0.5]","[0.15, 0.5]",1,1,,,,,,,,,0,6,6,6,0,7,7,4,,,,,,,,,,,,,,,,,,,,,,,,,,,,,,,,,,,,,,,,,,,,,,,,,,,,,,,674.749769050999,None,674.749769050999,None,674.749769050999,None,m,0,1.7657018499994592,676.2826354880017,None,676.2826354880017,None,676.2826354880017,None,678.0999223260005,None,678.0999223260005,None,678.0999223260005,None,678.0999223260005,None,,,,,,,,,,,,,,,,,,,,,,,,,,,,,,,,,,,,,,,,,,,,001,44,2020_Jan_30_1359,spring_faces,3.1.5,60.01650862053313,
condition files/Stage1_2.xlsx,,T4,B4,m,"['c', 'm']","['Clue', 'Monopoly']","[-0.15, 0.5]","[0.15, 0.5]",1,1,,,,,,,,,0,7,7,7,0,0,0,7,,,,,,,,,,,,,,,,,,,,,,,,,,,,,,,,,,,,,,,,,,,,,,,,,,,,,,,680.0835243680012,None,680.0835243680012,None,680.0835243680012,None,m,1,1.1339270719981869,681.6184254910004,None,681.6184254910004,None,681.6184254910004,None,682.8192746390014,None,682.8192746390014,None,682.8192746390014,None,682.8192746390014,None,,,,,,,,,,,,,,,,,,,,,,,,,,,,,,,,,,,,,,,,,,,,001,44,2020_Jan_30_1359,spring_faces,3.1.5,60.01650862053313,
condition files/Stage1_2.xlsx,,B3,T4,m,"['c', 'm']","['Clue', 'Monopoly']","[-0.15, 0.5]","[0.15, 0.5]",1,1,,,,,,,,,0,7,7,7,0,1,1,6,,,,,,,,,,,,,,,,,,,,,,,,,,,,,,,,,,,,,,,,,,,,,,,,,,,,,,,684.7830129510003,None,684.7830129510003,None,684.7830129510003,None,c,0,1.5080090230003407,686.3164029069994,None,686.3164029069994,None,686.3164029069994,None,687.882997050001,None,687.882997050001,None,687.882997050001,None,687.882997050001,None,,,,,,,,,,,,,,,,,,,,,,,,,,,,,,,,,,,,,,,,,,,,001,44,2020_Jan_30_1359,spring_faces,3.1.5,60.01650862053313,
condition files/Stage1_2.xlsx,,T1,B2,m,"['c', 'm']","['Clue', 'Monopoly']","[-0.15, 0.5]","[0.15, 0.5]",1,1,,,,,,,,,0,7,7,7,0,2,2,2,,,,,,,,,,,,,,,,,,,,,,,,,,,,,,,,,,,,,,,,,,,,,,,,,,,,,,,689.849341101999,None,689.849341101999,None,689.849341101999,None,m,1,3.8477831019990845,691.3845450840017,None,691.3845450840017,None,691.3845450840017,None,695.283288016999,None,695.283288016999,None,695.283288016999,None,695.283288016999,None,,,,,,,,,,,,,,,,,,,,,,,,,,,,,,,,,,,,,,,,,,,,001,44,2020_Jan_30_1359,spring_faces,3.1.5,60.01650862053313,
condition files/Stage1_2.xlsx,,B4,T3,c,"['c', 'm']","['Clue', 'Monopoly']","[-0.15, 0.5]","[0.15, 0.5]",1,1,,,,,,,,,0,7,7,7,0,3,3,5,,,,,,,,,,,,,,,,,,,,,,,,,,,,,,,,,,,,,,,,,,,,,,,,,,,,,,,697.2491309329998,None,697.2491309329998,None,697.2491309329998,None,c,1,2.590809072000411,698.7855204279986,None,698.7855204279986,None,698.7855204279986,None,701.435729623001,None,701.435729623001,None,701.435729623001,None,701.435729623001,None,,,,,,,,,,,,,,,,,,,,,,,,,,,,,,,,,,,,,,,,,,,,001,44,2020_Jan_30_1359,spring_faces,3.1.5,60.01650862053313,
condition files/Stage1_2.xlsx,,B2,T2,m,"['c', 'm']","['Clue', 'Monopoly']","[-0.15, 0.5]","[0.15, 0.5]",1,1,,,,,,,,,0,7,7,7,0,4,4,3,,,,,,,,,,,,,,,,,,,,,,,,,,,,,,,,,,,,,,,,,,,,,,,,,,,,,,,703.3997456670004,None,703.3997456670004,None,703.3997456670004,None,m,1,1.4818183069983206,704.9345246679986,None,704.9345246679986,None,704.9345246679986,None,706.4825454169986,None,706.4825454169986,None,706.4825454169986,None,706.4825454169986,None,,,,,,,,,,,,,,,,,,,,,,,,,,,,,,,,,,,,,,,,,,,,001,44,2020_Jan_30_1359,spring_faces,3.1.5,60.01650862053313,
condition files/Stage1_2.xlsx,,T3,B3,c,"['c', 'm']","['Clue', 'Monopoly']","[-0.15, 0.5]","[0.15, 0.5]",1,1,,,,,,,,,0,7,7,7,0,5,5,4,,,,,,,,,,,,,,,,,,,,,,,,,,,,,,,,,,,,,,,,,,,,,,,,,,,,,,,708.433145949999,None,708.433145949999,None,708.433145949999,None,m,0,3.233675833002053,709.9826426340005,None,709.9826426340005,None,709.9826426340005,None,713.2828707289991,None,713.2828707289991,None,713.2828707289991,None,713.2828707289991,None,,,,,,,,,,,,,,,,,,,,,,,,,,,,,,,,,,,,,,,,,,,,001,44,2020_Jan_30_1359,spring_faces,3.1.5,60.01650862053313,
condition files/Stage1_2.xlsx,,B1,T1,c,"['c', 'm']","['Clue', 'Monopoly']","[-0.15, 0.5]","[0.15, 0.5]",1,1,,,,,,,,,0,7,7,7,0,6,6,0,,,,,,,,,,,,,,,,,,,,,,,,,,,,,,,,,,,,,,,,,,,,,,,,,,,,,,,715.2324259339985,None,715.2324259339985,None,715.2324259339985,None,c,1,1.6022610300024098,716.7660828240005,None,716.7660828240005,None,716.7660828240005,None,718.4333404169993,None,718.4333404169993,None,718.4333404169993,None,718.4333404169993,None,,,,,,,,,,,,,,,,,,,,,,,,,,,,,,,,,,,,,,,,,,,,001,44,2020_Jan_30_1359,spring_faces,3.1.5,60.01650862053313,
condition files/Stage1_2.xlsx,,T2,B1,c,"['c', 'm']","['Clue', 'Monopoly']","[-0.15, 0.5]","[0.15, 0.5]",1,1,,,,,,,,,0,7,7,7,0,7,7,1,,,,,,,,,,,,,,,,,,,,,,,,,,,,,,,,,,,,,,,,,,,,,,,,,,,,,,,720.3996269470008,None,720.3996269470008,None,720.3996269470008,None,m,0,1.3296013850012969,721.9347341739995,None,721.9347341739995,None,721.9347341739995,None,723.3166288829998,None,723.3166288829998,None,723.3166288829998,None,723.3166288829998,None,,,,,,,,,,,,,,,,,,,,,,,,,,,,,,,,,,,,,,,,,,,,001,44,2020_Jan_30_1359,spring_faces,3.1.5,60.01650862053313,
condition files/Stage1_1.xlsx,,B4,T4,m,"['c', 'm']","['Clue', 'Monopoly']","[-0.15, 0.5]","[0.15, 0.5]",1,1,,,,,,,,,0,8,8,8,0,0,0,7,,,,,,,,,,,,,,,,,,,,,,,,,,,,,,,,,,,,,,,,,,,,,,,,,,,,,,,725.2998768450016,None,725.2998768450016,None,725.2998768450016,None,m,1,2.2540616679980303,726.8342998629996,None,726.8342998629996,None,726.8342998629996,None,729.1507536130011,None,729.1507536130011,None,729.1507536130011,None,729.1507536130011,None,,,,,,,,,,,,,,,,,,,,,,,,,,,,,,,,,,,,,,,,,,,,001,44,2020_Jan_30_1359,spring_faces,3.1.5,60.01650862053313,
condition files/Stage1_1.xlsx,,T2,B2,m,"['c', 'm']","['Clue', 'Monopoly']","[-0.15, 0.5]","[0.15, 0.5]",1,1,,,,,,,,,0,8,8,8,0,1,1,3,,,,,,,,,,,,,,,,,,,,,,,,,,,,,,,,,,,,,,,,,,,,,,,,,,,,,,,731.1157720650008,None,731.1157720650008,None,731.1157720650008,None,c,0,1.5420727989985608,732.6503417019994,None,732.6503417019994,None,732.6503417019994,None,734.2501613249988,None,734.2501613249988,None,734.2501613249988,None,734.2501613249988,None,,,,,,,,,,,,,,,,,,,,,,,,,,,,,,,,,,,,,,,,,,,,001,44,2020_Jan_30_1359,spring_faces,3.1.5,60.01650862053313,
condition files/Stage1_1.xlsx,,T4,B3,m,"['c', 'm']","['Clue', 'Monopoly']","[-0.15, 0.5]","[0.15, 0.5]",1,1,,,,,,,,,0,8,8,8,0,2,2,6,,,,,,,,,,,,,,,,,,,,,,,,,,,,,,,,,,,,,,,,,,,,,,,,,,,,,,,736.2163895420017,None,736.2163895420017,None,736.2163895420017,None,m,1,1.1762217930008774,737.7520828900015,None,737.7520828900015,None,737.7520828900015,None,738.9832430499991,None,738.9832430499991,None,738.9832430499991,None,738.9832430499991,None,,,,,,,,,,,,,,,,,,,,,,,,,,,,,,,,,,,,,,,,,,,,001,44,2020_Jan_30_1359,spring_faces,3.1.5,60.01650862053313,
condition files/Stage1_1.xlsx,,B2,T1,m,"['c', 'm']","['Clue', 'Monopoly']","[-0.15, 0.5]","[0.15, 0.5]",1,1,,,,,,,,,0,8,8,8,0,3,3,2,,,,,,,,,,,,,,,,,,,,,,,,,,,,,,,,,,,,,,,,,,,,,,,,,,,,,,,740.9499318769995,None,740.9499318769995,None,740.9499318769995,None,m,1,1.5485928220005007,742.483748685001,None,742.483748685001,None,742.483748685001,None,744.0834248499996,None,744.0834248499996,None,744.0834248499996,None,744.0834248499996,None,,,,,,,,,,,,,,,,,,,,,,,,,,,,,,,,,,,,,,,,,,,,001,44,2020_Jan_30_1359,spring_faces,3.1.5,60.01650862053313,
condition files/Stage1_1.xlsx,,T1,B1,c,"['c', 'm']","['Clue', 'Monopoly']","[-0.15, 0.5]","[0.15, 0.5]",1,1,,,,,,,,,0,8,8,8,0,4,4,0,,,,,,,,,,,,,,,,,,,,,,,,,,,,,,,,,,,,,,,,,,,,,,,,,,,,,,,746.0498069099995,None,746.0498069099995,None,746.0498069099995,None,m,0,1.5845194100002118,747.5838231019989,None,747.5838231019989,None,747.5838231019989,None,749.2332121590007,None,749.2332121590007,None,749.2332121590007,None,749.2332121590007,None,,,,,,,,,,,,,,,,,,,,,,,,,,,,,,,,,,,,,,,,,,,,001,44,2020_Jan_30_1359,spring_faces,3.1.5,60.01650862053313,
condition files/Stage1_1.xlsx,,T3,B4,c,"['c', 'm']","['Clue', 'Monopoly']","[-0.15, 0.5]","[0.15, 0.5]",1,1,,,,,,,,,0,8,8,8,0,5,5,5,,,,,,,,,,,,,,,,,,,,,,,,,,,,,,,,,,,,,,,,,,,,,,,,,,,,,,,751.1993279829985,None,751.1993279829985,None,751.1993279829985,None,c,1,1.6509436929991352,752.7493399990017,None,752.7493399990017,None,752.7493399990017,None,754.4659756030014,None,754.4659756030014,None,754.4659756030014,None,754.4659756030014,None,,,,,,,,,,,,,,,,,,,,,,,,,,,,,,,,,,,,,,,,,,,,001,44,2020_Jan_30_1359,spring_faces,3.1.5,60.01650862053313,
condition files/Stage1_1.xlsx,,B3,T3,c,"['c', 'm']","['Clue', 'Monopoly']","[-0.15, 0.5]","[0.15, 0.5]",1,1,,,,,,,,,0,8,8,8,0,6,6,4,,,,,,,,,,,,,,,,,,,,,,,,,,,,,,,,,,,,,,,,,,,,,,,,,,,,,,,756.4326775090012,None,756.4326775090012,None,756.4326775090012,None,m,0,1.8414219289988978,757.966992214002,None,757.966992214002,None,757.966992214002,None,759.8665822719995,None,759.8665822719995,None,759.8665822719995,None,759.8665822719995,None,,,,,,,,,,,,,,,,,,,,,,,,,,,,,,,,,,,,,,,,,,,,001,44,2020_Jan_30_1359,spring_faces,3.1.5,60.01650862053313,
condition files/Stage1_1.xlsx,,B1,T2,c,"['c', 'm']","['Clue', 'Monopoly']","[-0.15, 0.5]","[0.15, 0.5]",1,1,,,,,,,,,0,8,8,8,0,7,7,1,,,,,,,,,,,,,,,,,,,,,,,,,,,,,,,,,,,,,,,,,,,,,,,,,,,,,,,761.8332700850005,None,761.8332700850005,None,761.8332700850005,None,m,0,1.4325038620008854,763.367793338999,None,763.367793338999,None,763.367793338999,None,764.8666578150005,None,764.8666578150005,None,764.8666578150005,None,764.8666578150005,None,,,,,,,,,,,,,,,,,,,,,,,,,,,,,,,,,,,,,,,,,,,,001,44,2020_Jan_30_1359,spring_faces,3.1.5,60.01650862053313,
condition files/Stage1_2.xlsx,,B3,T4,m,"['c', 'm']","['Clue', 'Monopoly']","[-0.15, 0.5]","[0.15, 0.5]",1,1,,,,,,,,,0,9,9,9,0,0,0,6,,,,,,,,,,,,,,,,,,,,,,,,,,,,,,,,,,,,,,,,,,,,,,,,,,,,,,,766.849766416999,None,766.849766416999,None,766.849766416999,None,c,0,0.8495244299992919,768.3828247329984,None,768.3828247329984,None,768.3828247329984,None,769.2842329420018,None,769.2842329420018,None,769.2842329420018,None,769.2842329420018,None,,,,,,,,,,,,,,,,,,,,,,,,,,,,,,,,,,,,,,,,,,,,001,44,2020_Jan_30_1359,spring_faces,3.1.5,60.01650862053313,
condition files/Stage1_2.xlsx,,T2,B1,c,"['c', 'm']","['Clue', 'Monopoly']","[-0.15, 0.5]","[0.15, 0.5]",1,1,,,,,,,,,0,9,9,9,0,1,1,1,,,,,,,,,,,,,,,,,,,,,,,,,,,,,,,,,,,,,,,,,,,,,,,,,,,,,,,771.2501079319991,None,771.2501079319991,None,771.2501079319991,None,m,0,2.8175067760021193,772.7828337749997,None,772.7828337749997,None,772.7828337749997,None,775.6663551849997,None,775.6663551849997,None,775.6663551849997,None,775.6663551849997,None,,,,,,,,,,,,,,,,,,,,,,,,,,,,,,,,,,,,,,,,,,,,001,44,2020_Jan_30_1359,spring_faces,3.1.5,60.01650862053313,
condition files/Stage1_2.xlsx,,B4,T3,c,"['c', 'm']","['Clue', 'Monopoly']","[-0.15, 0.5]","[0.15, 0.5]",1,1,,,,,,,,,0,9,9,9,0,2,2,5,,,,,,,,,,,,,,,,,,,,,,,,,,,,,,,,,,,,,,,,,,,,,,,,,,,,,,,777.616290973001,None,777.616290973001,None,777.616290973001,None,c,1,0.9294214900000952,779.1509199909997,None,779.1509199909997,None,779.1509199909997,None,780.1332761750018,None,780.1332761750018,None,780.1332761750018,None,780.1332761750018,None,,,,,,,,,,,,,,,,,,,,,,,,,,,,,,,,,,,,,,,,,,,,001,44,2020_Jan_30_1359,spring_faces,3.1.5,60.01650862053313,
condition files/Stage1_2.xlsx,,B1,T1,c,"['c', 'm']","['Clue', 'Monopoly']","[-0.15, 0.5]","[0.15, 0.5]",1,1,,,,,,,,,0,9,9,9,0,3,3,0,,,,,,,,,,,,,,,,,,,,,,,,,,,,,,,,,,,,,,,,,,,,,,,,,,,,,,,782.0994895699987,None,782.0994895699987,None,782.0994895699987,None,c,1,2.127063111998723,783.6333580630017,None,783.6333580630017,None,783.6333580630017,None,785.8166170379991,None,785.8166170379991,None,785.8166170379991,None,785.8166170379991,None,,,,,,,,,,,,,,,,,,,,,,,,,,,,,,,,,,,,,,,,,,,,001,44,2020_Jan_30_1359,spring_faces,3.1.5,60.01650862053313,
condition files/Stage1_2.xlsx,,T3,B3,c,"['c', 'm']","['Clue', 'Monopoly']","[-0.15, 0.5]","[0.15, 0.5]",1,1,,,,,,,,,0,9,9,9,0,4,4,4,,,,,,,,,,,,,,,,,,,,,,,,,,,,,,,,,,,,,,,,,,,,,,,,,,,,,,,787.7830619810011,None,787.7830619810011,None,787.7830619810011,None,c,1,1.4179701850007405,789.3183982109986,None,789.3183982109986,None,789.3183982109986,None,790.7999336089997,None,790.7999336089997,None,790.7999336089997,None,790.7999336089997,None,,,,,,,,,,,,,,,,,,,,,,,,,,,,,,,,,,,,,,,,,,,,001,44,2020_Jan_30_1359,spring_faces,3.1.5,60.01650862053313,
condition files/Stage1_2.xlsx,,T1,B2,m,"['c', 'm']","['Clue', 'Monopoly']","[-0.15, 0.5]","[0.15, 0.5]",1,1,,,,,,,,,0,9,9,9,0,5,5,2,,,,,,,,,,,,,,,,,,,,,,,,,,,,,,,,,,,,,,,,,,,,,,,,,,,,,,,792.7657715649984,None,792.7657715649984,None,792.7657715649984,None,m,1,2.7881793600026867,794.3001498150006,None,794.3001498150006,None,794.3001498150006,None,797.1511627979999,None,797.1511627979999,None,797.1511627979999,None,797.1511627979999,None,,,,,,,,,,,,,,,,,,,,,,,,,,,,,,,,,,,,,,,,,,,,001,44,2020_Jan_30_1359,spring_faces,3.1.5,60.01650862053313,
condition files/Stage1_2.xlsx,,T4,B4,m,"['c', 'm']","['Clue', 'Monopoly']","[-0.15, 0.5]","[0.15, 0.5]",1,1,,,,,,,,,0,9,9,9,0,6,6,7,,,,,,,,,,,,,,,,,,,,,,,,,,,,,,,,,,,,,,,,,,,,,,,,,,,,,,,799.1160955939995,None,799.1160955939995,None,799.1160955939995,None,m,1,3.380272980997688,800.6520602960009,None,800.6520602960009,None,800.6520602960009,None,804.0832884180018,None,804.0832884180018,None,804.0832884180018,None,804.0832884180018,None,,,,,,,,,,,,,,,,,,,,,,,,,,,,,,,,,,,,,,,,,,,,001,44,2020_Jan_30_1359,spring_faces,3.1.5,60.01650862053313,
condition files/Stage1_2.xlsx,,B2,T2,m,"['c', 'm']","['Clue', 'Monopoly']","[-0.15, 0.5]","[0.15, 0.5]",1,1,,,,,,,,,0,9,9,9,0,7,7,3,,,,,,,,,,,,,,,,,,,,,,,,,,,,,,,,,,,,,,,,,,,,,,,,,,,,,,,806.0498105639999,None,806.0498105639999,None,806.0498105639999,None,c,0,2.785510986002919,807.5828382489999,None,807.5828382489999,None,807.5828382489999,None,810.4330493449997,None,810.4330493449997,None,810.4330493449997,None,810.4330493449997,None,,,,,,,,,,,,,,,,,,,,,,,,,,,,,,,,,,,,,,,,,,,,001,44,2020_Jan_30_1359,spring_faces,3.1.5,60.01650862053313,
condition files/Stage1_1.xlsx,,B1,T2,c,"['c', 'm']","['Clue', 'Monopoly']","[-0.15, 0.5]","[0.15, 0.5]",1,1,,,,,,,,,0,10,10,10,0,0,0,1,,,,,,,,,,,,,,,,,,,,,,,,,,,,,,,,,,,,,,,,,,,,,,,,,,,,,,,812.4170687469996,None,812.4170687469996,None,812.4170687469996,None,c,1,2.0015680069991504,813.9667813209999,None,813.9667813209999,None,813.9667813209999,None,816.0499907539997,None,816.0499907539997,None,816.0499907539997,None,816.0499907539997,None,,,,,,,,,,,,,,,,,,,,,,,,,,,,,,,,,,,,,,,,,,,,001,44,2020_Jan_30_1359,spring_faces,3.1.5,60.01650862053313,
condition files/Stage1_1.xlsx,,T4,B3,m,"['c', 'm']","['Clue', 'Monopoly']","[-0.15, 0.5]","[0.15, 0.5]",1,1,,,,,,,,,0,10,10,10,0,1,1,6,,,,,,,,,,,,,,,,,,,,,,,,,,,,,,,,,,,,,,,,,,,,,,,,,,,,,,,817.9996228359996,None,817.9996228359996,None,817.9996228359996,None,m,1,0.9953787970007397,819.5329236370017,None,819.5329236370017,None,819.5329236370017,None,820.5827726630014,None,820.5827726630014,None,820.5827726630014,None,820.5827726630014,None,,,,,,,,,,,,,,,,,,,,,,,,,,,,,,,,,,,,,,,,,,,,001,44,2020_Jan_30_1359,spring_faces,3.1.5,60.01650862053313,
condition files/Stage1_1.xlsx,,B2,T1,m,"['c', 'm']","['Clue', 'Monopoly']","[-0.15, 0.5]","[0.15, 0.5]",1,1,,,,,,,,,0,10,10,10,0,2,2,2,,,,,,,,,,,,,,,,,,,,,,,,,,,,,,,,,,,,,,,,,,,,,,,,,,,,,,,822.549747273999,None,822.549747273999,None,822.549747273999,None,c,0,1.181763331998809,824.0825569609988,None,824.0825569609988,None,824.0825569609988,None,825.316497308002,None,825.316497308002,None,825.316497308002,None,825.316497308002,None,,,,,,,,,,,,,,,,,,,,,,,,,,,,,,,,,,,,,,,,,,,,001,44,2020_Jan_30_1359,spring_faces,3.1.5,60.01650862053313,
condition files/Stage1_1.xlsx,,T2,B2,m,"['c', 'm']","['Clue', 'Monopoly']","[-0.15, 0.5]","[0.15, 0.5]",1,1,,,,,,,,,0,10,10,10,0,3,3,3,,,,,,,,,,,,,,,,,,,,,,,,,,,,,,,,,,,,,,,,,,,,,,,,,,,,,,,827.2834620460017,None,827.2834620460017,None,827.2834620460017,None,c,0,1.3595779030001722,828.8167297209984,None,828.8167297209984,None,828.8167297209984,None,830.2328174969989,None,830.2328174969989,None,830.2328174969989,None,830.2328174969989,None,,,,,,,,,,,,,,,,,,,,,,,,,,,,,,,,,,,,,,,,,,,,001,44,2020_Jan_30_1359,spring_faces,3.1.5,60.01650862053313,
condition files/Stage1_1.xlsx,,B4,T4,m,"['c', 'm']","['Clue', 'Monopoly']","[-0.15, 0.5]","[0.15, 0.5]",1,1,,,,,,,,,0,10,10,10,0,4,4,7,,,,,,,,,,,,,,,,,,,,,,,,,,,,,,,,,,,,,,,,,,,,,,,,,,,,,,,832.1995439089987,None,832.1995439089987,None,832.1995439089987,None,m,1,1.2426239679989521,833.7337588350019,None,833.7337588350019,None,833.7337588350019,None,835.0331270989991,None,835.0331270989991,None,835.0331270989991,None,835.0331270989991,None,,,,,,,,,,,,,,,,,,,,,,,,,,,,,,,,,,,,,,,,,,,,001,44,2020_Jan_30_1359,spring_faces,3.1.5,60.01650862053313,
condition files/Stage1_1.xlsx,,T1,B1,c,"['c', 'm']","['Clue', 'Monopoly']","[-0.15, 0.5]","[0.15, 0.5]",1,1,,,,,,,,,0,10,10,10,0,5,5,0,,,,,,,,,,,,,,,,,,,,,,,,,,,,,,,,,,,,,,,,,,,,,,,,,,,,,,,836.9995529359985,None,836.9995529359985,None,836.9995529359985,None,c,1,0.9688331010002003,838.5355175650002,None,838.5355175650002,None,838.5355175650002,None,839.565845694,None,839.565845694,None,839.565845694,None,839.565845694,None,,,,,,,,,,,,,,,,,,,,,,,,,,,,,,,,,,,,,,,,,,,,001,44,2020_Jan_30_1359,spring_faces,3.1.5,60.01650862053313,
condition files/Stage1_1.xlsx,,B3,T3,c,"['c', 'm']","['Clue', 'Monopoly']","[-0.15, 0.5]","[0.15, 0.5]",1,1,,,,,,,,,0,10,10,10,0,6,6,4,,,,,,,,,,,,,,,,,,,,,,,,,,,,,,,,,,,,,,,,,,,,,,,,,,,,,,,841.5330619490014,None,841.5330619490014,None,841.5330619490014,None,m,0,1.7020064229982381,843.0662764279987,None,843.0662764279987,None,843.0662764279987,None,844.8333087940009,None,844.8333087940009,None,844.8333087940009,None,844.8333087940009,None,,,,,,,,,,,,,,,,,,,,,,,,,,,,,,,,,,,,,,,,,,,,001,44,2020_Jan_30_1359,spring_faces,3.1.5,60.01650862053313,
condition files/Stage1_1.xlsx,,T3,B4,c,"['c', 'm']","['Clue', 'Monopoly']","[-0.15, 0.5]","[0.15, 0.5]",1,1,,,,,,,,,0,10,10,10,0,7,7,5,,,,,,,,,,,,,,,,,,,,,,,,,,,,,,,,,,,,,,,,,,,,,,,,,,,,,,,846.7997811230016,None,846.7997811230016,None,846.7997811230016,None,c,1,2.0831197740008065,848.3332194870018,None,848.3332194870018,None,848.3332194870018,None,850.466636915,None,850.466636915,None,850.466636915,None,850.466636915,None,,,,,,,,,,,,,,,,,,,,,,,,,,,,,,,,,,,,,,,,,,,,001,44,2020_Jan_30_1359,spring_faces,3.1.5,60.01650862053313,
condition files/Stage1_2.xlsx,,T1,B2,m,"['c', 'm']","['Clue', 'Monopoly']","[-0.15, 0.5]","[0.15, 0.5]",1,1,,,,,,,,,0,11,11,11,0,0,0,2,,,,,,,,,,,,,,,,,,,,,,,,,,,,,,,,,,,,,,,,,,,,,,,,,,,,,,,852.4499250590015,None,852.4499250590015,None,852.4499250590015,None,c,0,2.833510693999415,853.9828334619997,None,853.9828334619997,None,853.9828334619997,None,856.8675650229998,None,856.8675650229998,None,856.8675650229998,None,856.8675650229998,None,,,,,,,,,,,,,,,,,,,,,,,,,,,,,,,,,,,,,,,,,,,,001,44,2020_Jan_30_1359,spring_faces,3.1.5,60.01650862053313,
condition files/Stage1_2.xlsx,,T4,B4,m,"['c', 'm']","['Clue', 'Monopoly']","[-0.15, 0.5]","[0.15, 0.5]",1,1,,,,,,,,,0,11,11,11,0,1,1,7,,,,,,,,,,,,,,,,,,,,,,,,,,,,,,,,,,,,,,,,,,,,,,,,,,,,,,,858.8330230280008,None,858.8330230280008,None,858.8330230280008,None,m,1,0.8168103120005981,860.3674797140011,None,860.3674797140011,None,860.3674797140011,None,861.2497438790015,None,861.2497438790015,None,861.2497438790015,None,861.2497438790015,None,,,,,,,,,,,,,,,,,,,,,,,,,,,,,,,,,,,,,,,,,,,,001,44,2020_Jan_30_1359,spring_faces,3.1.5,60.01650862053313,
condition files/Stage1_2.xlsx,,B2,T2,m,"['c', 'm']","['Clue', 'Monopoly']","[-0.15, 0.5]","[0.15, 0.5]",1,1,,,,,,,,,0,11,11,11,0,2,2,3,,,,,,,,,,,,,,,,,,,,,,,,,,,,,,,,,,,,,,,,,,,,,,,,,,,,,,,863.2160583190016,None,863.2160583190016,None,863.2160583190016,None,m,1,2.434409435998532,864.7498807000011,None,864.7498807000011,None,864.7498807000011,None,867.2496550010001,None,867.2496550010001,None,867.2496550010001,None,867.2496550010001,None,,,,,,,,,,,,,,,,,,,,,,,,,,,,,,,,,,,,,,,,,,,,001,44,2020_Jan_30_1359,spring_faces,3.1.5,60.01650862053313,
condition files/Stage1_2.xlsx,,T2,B1,c,"['c', 'm']","['Clue', 'Monopoly']","[-0.15, 0.5]","[0.15, 0.5]",1,1,,,,,,,,,0,11,11,11,0,3,3,1,,,,,,,,,,,,,,,,,,,,,,,,,,,,,,,,,,,,,,,,,,,,,,,,,,,,,,,869.2160063180017,None,869.2160063180017,None,869.2160063180017,None,c,1,1.7302575729991077,870.766336648001,None,870.766336648001,None,870.766336648001,None,872.5664958950001,None,872.5664958950001,None,872.5664958950001,None,872.5664958950001,None,,,,,,,,,,,,,,,,,,,,,,,,,,,,,,,,,,,,,,,,,,,,001,44,2020_Jan_30_1359,spring_faces,3.1.5,60.01650862053313,
condition files/Stage1_2.xlsx,,B4,T3,c,"['c', 'm']","['Clue', 'Monopoly']","[-0.15, 0.5]","[0.15, 0.5]",1,1,,,,,,,,,0,11,11,11,0,4,4,5,,,,,,,,,,,,,,,,,,,,,,,,,,,,,,,,,,,,,,,,,,,,,,,,,,,,,,,874.5165878560001,None,874.5165878560001,None,874.5165878560001,None,m,0,2.2387911019977764,876.049555419002,None,876.049555419002,None,876.049555419002,None,878.3500104640007,None,878.3500104640007,None,878.3500104640007,None,878.3500104640007,None,,,,,,,,,,,,,,,,,,,,,,,,,,,,,,,,,,,,,,,,,,,,001,44,2020_Jan_30_1359,spring_faces,3.1.5,60.01650862053313,
condition files/Stage1_2.xlsx,,T3,B3,c,"['c', 'm']","['Clue', 'Monopoly']","[-0.15, 0.5]","[0.15, 0.5]",1,1,,,,,,,,,0,11,11,11,0,5,5,4,,,,,,,,,,,,,,,,,,,,,,,,,,,,,,,,,,,,,,,,,,,,,,,,,,,,,,,880.3163401579986,None,880.3163401579986,None,880.3163401579986,None,c,1,1.4309473560024344,881.8493855980014,None,881.8493855980014,None,881.8493855980014,None,883.3332818829986,None,883.3332818829986,None,883.3332818829986,None,883.3332818829986,None,,,,,,,,,,,,,,,,,,,,,,,,,,,,,,,,,,,,,,,,,,,,001,44,2020_Jan_30_1359,spring_faces,3.1.5,60.01650862053313,
condition files/Stage1_2.xlsx,,B1,T1,c,"['c', 'm']","['Clue', 'Monopoly']","[-0.15, 0.5]","[0.15, 0.5]",1,1,,,,,,,,,0,11,11,11,0,6,6,0,,,,,,,,,,,,,,,,,,,,,,,,,,,,,,,,,,,,,,,,,,,,,,,,,,,,,,,885.2991178599987,None,885.2991178599987,None,885.2991178599987,None,m,0,2.014312348997919,886.8500140460019,None,886.8500140460019,None,886.8500140460019,None,888.9166205709989,None,888.9166205709989,None,888.9166205709989,None,888.9166205709989,None,,,,,,,,,,,,,,,,,,,,,,,,,,,,,,,,,,,,,,,,,,,,001,44,2020_Jan_30_1359,spring_faces,3.1.5,60.01650862053313,
condition files/Stage1_2.xlsx,,B3,T4,m,"['c', 'm']","['Clue', 'Monopoly']","[-0.15, 0.5]","[0.15, 0.5]",1,1,,,,,,,,,0,11,11,11,0,7,7,6,,,,,,,,,,,,,,,,,,,,,,,,,,,,,,,,,,,,,,,,,,,,,,,,,,,,,,,890.8830910010001,None,890.8830910010001,None,890.8830910010001,None,m,1,0.8803348459987319,892.416150893001,None,892.416150893001,None,892.416150893001,None,893.3489199110008,None,893.3489199110008,None,893.3489199110008,None,893.3489199110008,None,,,,,,,,,,,,,,,,,,,,,,,,,,,,,,,,,,,,,,,,,,,,001,44,2020_Jan_30_1359,spring_faces,3.1.5,60.01650862053313,
,,,,,,,,,,,,,,,,,,,,,,,,,,,,,,,,,,,,,,,,,,,,,,,,,,,,,,,,,,,,,,,,,,,,,,,,,,,,,,,,,,,,,,,,,,,,,,,,,,,,,,,,,,,,,,,,895.3332503499987,None,space,7.394988195002952,900.3333199900007,None,,,,,,,,,,,,,,,,,,,,,,,,,,,,,,001,44,2020_Jan_30_1359,spring_faces,3.1.5,60.01650862053313,
condition files/Stage2_1.xlsx,,T1,B1,s,"['s', 'r']","['Stratego', 'Risk']","[-0.15, 0.5]","[0.15, 0.5]",1,1,,,,,,,,,,,,,,,,,0,0,0,0,0,0,0,2,,,,,,,,,,,,,,,,,,,,,,,,,,,,,,,,,,,,,,,,,,,,,,,907.7833509459997,None,907.7833509459997,None,907.7833509459997,None,s,1,1.1955395599979965,909.316809158001,None,909.316809158001,None,909.316809158001,None,910.5689414049994,None,910.5689414049994,None,910.5689414049994,None,910.5689414049994,None,,,,,,,,,,,,,,,900.3333199900007,None,,,,,,,,,,,,,,,,,,,,,,,,,,,,001,44,2020_Jan_30_1359,spring_faces,3.1.5,60.01650862053313,
condition files/Stage2_1.xlsx,,B2,T2,r,"['s', 'r']","['Stratego', 'Risk']","[-0.15, 0.5]","[0.15, 0.5]",1,1,,,,,,,,,,,,,,,,,0,0,0,0,0,1,1,3,,,,,,,,,,,,,,,,,,,,,,,,,,,,,,,,,,,,,,,,,,,,,,,912.533263526002,None,912.533263526002,None,912.533263526002,None,r,1,0.6524942770010966,914.0678584300003,None,914.0678584300003,None,914.0678584300003,None,914.7999182730018,None,914.7999182730018,None,914.7999182730018,None,914.7999182730018,None,,,,,,,,,,,,,,,,,,,,,,,,,,,,,,,,,,,,,,,,,,,,001,44,2020_Jan_30_1359,spring_faces,3.1.5,60.01650862053313,
condition files/Stage2_1.xlsx,,B4,T4,r,"['s', 'r']","['Stratego', 'Risk']","[-0.15, 0.5]","[0.15, 0.5]",1,1,,,,,,,,,,,,,,,,,0,0,0,0,0,2,2,5,,,,,,,,,,,,,,,,,,,,,,,,,,,,,,,,,,,,,,,,,,,,,,,916.7496262400018,None,916.7496262400018,None,916.7496262400018,None,s,0,1.7495137920013804,918.2828283320014,None,918.2828283320014,None,918.2828283320014,None,920.0826181379998,None,920.0826181379998,None,920.0826181379998,None,920.0826181379998,None,,,,,,,,,,,,,,,,,,,,,,,,,,,,,,,,,,,,,,,,,,,,001,44,2020_Jan_30_1359,spring_faces,3.1.5,60.01650862053313,
condition files/Stage2_1.xlsx,,T5,B5,s,"['s', 'r']","['Stratego', 'Risk']","[-0.15, 0.5]","[0.15, 0.5]",1,1,,,,,,,,,,,,,,,,,0,0,0,0,0,3,3,0,,,,,,,,,,,,,,,,,,,,,,,,,,,,,,,,,,,,,,,,,,,,,,,922.0496725240009,None,922.0496725240009,None,922.0496725240009,None,r,0,1.3909254779973708,923.6494730480008,None,923.6494730480008,None,923.6494730480008,None,925.099606025,None,925.099606025,None,925.099606025,None,925.099606025,None,,,,,,,,,,,,,,,,,,,,,,,,,,,,,,,,,,,,,,,,,,,,001,44,2020_Jan_30_1359,spring_faces,3.1.5,60.01650862053313,
condition files/Stage2_1.xlsx,,B6,T6,r,"['s', 'r']","['Stratego', 'Risk']","[-0.15, 0.5]","[0.15, 0.5]",1,1,,,,,,,,,,,,,,,,,0,0,0,0,0,4,4,1,,,,,,,,,,,,,,,,,,,,,,,,,,,,,,,,,,,,,,,,,,,,,,,927.0665234830012,None,927.0665234830012,None,927.0665234830012,None,s,0,1.5609957990018302,928.5994244739995,None,928.5994244739995,None,928.5994244739995,None,930.2181740420019,None,930.2181740420019,None,930.2181740420019,None,930.2181740420019,None,,,,,,,,,,,,,,,,,,,,,,,,,,,,,,,,,,,,,,,,,,,,001,44,2020_Jan_30_1359,spring_faces,3.1.5,60.01650862053313,
condition files/Stage2_1.xlsx,,T3,B3,s,"['s', 'r']","['Stratego', 'Risk']","[-0.15, 0.5]","[0.15, 0.5]",1,1,,,,,,,,,,,,,,,,,0,0,0,0,0,5,5,4,,,,,,,,,,,,,,,,,,,,,,,,,,,,,,,,,,,,,,,,,,,,,,,932.183054006,None,932.183054006,None,932.183054006,None,r,0,1.595170214000973,933.7331339830016,None,933.7331339830016,None,933.7331339830016,None,935.3859416650012,None,935.3859416650012,None,935.3859416650012,None,935.3859416650012,None,,,,,,,,,,,,,,,,,,,,,,,,,,,,,,,,,,,,,,,,,,,,001,44,2020_Jan_30_1359,spring_faces,3.1.5,60.01650862053313,
condition files/Stage2_2.xlsx,,T4,B4,r,"['s', 'r']","['Stratego', 'Risk']","[-0.15, 0.5]","[0.15, 0.5]",1,1,,,,,,,,,,,,,,,,,0,1,1,1,0,0,0,5,,,,,,,,,,,,,,,,,,,,,,,,,,,,,,,,,,,,,,,,,,,,,,,937.4008923680012,None,937.4008923680012,None,937.4008923680012,None,s,0,0.8281272899985197,938.9001904750003,None,938.9001904750003,None,938.9001904750003,None,939.7838281949989,None,939.7838281949989,None,939.7838281949989,None,939.7838281949989,None,,,,,,,,,,,,,,,,,,,,,,,,,,,,,,,,,,,,,,,,,,,,001,44,2020_Jan_30_1359,spring_faces,3.1.5,60.01650862053313,
condition files/Stage2_2.xlsx,,T2,B2,r,"['s', 'r']","['Stratego', 'Risk']","[-0.15, 0.5]","[0.15, 0.5]",1,1,,,,,,,,,,,,,,,,,0,1,1,1,0,1,1,3,,,,,,,,,,,,,,,,,,,,,,,,,,,,,,,,,,,,,,,,,,,,,,,941.749471436,None,941.749471436,None,941.749471436,None,r,1,0.4612159789976431,943.2991908539989,None,943.2991908539989,None,943.2991908539989,None,943.8168437470013,None,943.8168437470013,None,943.8168437470013,None,943.8168437470013,None,,,,,,,,,,,,,,,,,,,,,,,,,,,,,,,,,,,,,,,,,,,,001,44,2020_Jan_30_1359,spring_faces,3.1.5,60.01650862053313,
condition files/Stage2_2.xlsx,,B3,T3,s,"['s', 'r']","['Stratego', 'Risk']","[-0.15, 0.5]","[0.15, 0.5]",1,1,,,,,,,,,,,,,,,,,0,1,1,1,0,2,2,4,,,,,,,,,,,,,,,,,,,,,,,,,,,,,,,,,,,,,,,,,,,,,,,945.7834039289992,None,945.7834039289992,None,945.7834039289992,None,r,0,0.4755730479992053,947.316841322001,None,947.316841322001,None,947.316841322001,None,947.8501931120009,None,947.8501931120009,None,947.8501931120009,None,947.8501931120009,None,,,,,,,,,,,,,,,,,,,,,,,,,,,,,,,,,,,,,,,,,,,,001,44,2020_Jan_30_1359,spring_faces,3.1.5,60.01650862053313,
condition files/Stage2_2.xlsx,,B5,T5,s,"['s', 'r']","['Stratego', 'Risk']","[-0.15, 0.5]","[0.15, 0.5]",1,1,,,,,,,,,,,,,,,,,0,1,1,1,0,3,3,0,,,,,,,,,,,,,,,,,,,,,,,,,,,,,,,,,,,,,,,,,,,,,,,949.8163646210014,None,949.8163646210014,None,949.8163646210014,None,s,1,1.4337381920013286,951.3665648249989,None,951.3665648249989,None,951.3665648249989,None,952.8667441780017,None,952.8667441780017,None,952.8667441780017,None,952.8667441780017,None,,,,,,,,,,,,,,,,,,,,,,,,,,,,,,,,,,,,,,,,,,,,001,44,2020_Jan_30_1359,spring_faces,3.1.5,60.01650862053313,
condition files/Stage2_2.xlsx,,T6,B6,r,"['s', 'r']","['Stratego', 'Risk']","[-0.15, 0.5]","[0.15, 0.5]",1,1,,,,,,,,,,,,,,,,,0,1,1,1,0,4,4,1,,,,,,,,,,,,,,,,,,,,,,,,,,,,,,,,,,,,,,,,,,,,,,,954.8331468770011,None,954.8331468770011,None,954.8331468770011,None,s,0,0.8496508809985244,956.3826872370009,None,956.3826872370009,None,956.3826872370009,None,957.2999437180006,None,957.2999437180006,None,957.2999437180006,None,957.2999437180006,None,,,,,,,,,,,,,,,,,,,,,,,,,,,,,,,,,,,,,,,,,,,,001,44,2020_Jan_30_1359,spring_faces,3.1.5,60.01650862053313,
condition files/Stage2_2.xlsx,,B1,T1,s,"['s', 'r']","['Stratego', 'Risk']","[-0.15, 0.5]","[0.15, 0.5]",1,1,,,,,,,,,,,,,,,,,0,1,1,1,0,5,5,2,,,,,,,,,,,,,,,,,,,,,,,,,,,,,,,,,,,,,,,,,,,,,,,959.2497702030014,None,959.2497702030014,None,959.2497702030014,None,s,1,0.7858070129987027,960.7825421060006,None,960.7825421060006,None,960.7825421060006,None,961.6328206139988,None,961.6328206139988,None,961.6328206139988,None,961.6328206139988,None,,,,,,,,,,,,,,,,,,,,,,,,,,,,,,,,,,,,,,,,,,,,001,44,2020_Jan_30_1359,spring_faces,3.1.5,60.01650862053313,
condition files/Stage2_1.xlsx,,T5,B5,s,"['s', 'r']","['Stratego', 'Risk']","[-0.15, 0.5]","[0.15, 0.5]",1,1,,,,,,,,,,,,,,,,,0,2,2,2,0,0,0,0,,,,,,,,,,,,,,,,,,,,,,,,,,,,,,,,,,,,,,,,,,,,,,,963.6165562120004,None,963.6165562120004,None,963.6165562120004,None,r,0,0.4348806960006186,965.1494505010014,None,965.1494505010014,None,965.1494505010014,None,965.6498643119994,None,965.6498643119994,None,965.6498643119994,None,965.6498643119994,None,,,,,,,,,,,,,,,,,,,,,,,,,,,,,,,,,,,,,,,,,,,,001,44,2020_Jan_30_1359,spring_faces,3.1.5,60.01650862053313,
condition files/Stage2_1.xlsx,,B6,T6,r,"['s', 'r']","['Stratego', 'Risk']","[-0.15, 0.5]","[0.15, 0.5]",1,1,,,,,,,,,,,,,,,,,0,2,2,2,0,1,1,1,,,,,,,,,,,,,,,,,,,,,,,,,,,,,,,,,,,,,,,,,,,,,,,967.6158045929988,None,967.6158045929988,None,967.6158045929988,None,s,0,0.9290172910004912,969.1513230970013,None,969.1513230970013,None,969.1513230970013,None,970.1333835430014,None,970.1333835430014,None,970.1333835430014,None,970.1333835430014,None,,,,,,,,,,,,,,,,,,,,,,,,,,,,,,,,,,,,,,,,,,,,001,44,2020_Jan_30_1359,spring_faces,3.1.5,60.01650862053313,
condition files/Stage2_1.xlsx,,T1,B1,s,"['s', 'r']","['Stratego', 'Risk']","[-0.15, 0.5]","[0.15, 0.5]",1,1,,,,,,,,,,,,,,,,,0,2,2,2,0,2,2,2,,,,,,,,,,,,,,,,,,,,,,,,,,,,,,,,,,,,,,,,,,,,,,,972.0998359980003,None,972.0998359980003,None,972.0998359980003,None,r,0,1.0554067190023488,973.6329457669999,None,973.6329457669999,None,973.6329457669999,None,974.7518339390008,None,974.7518339390008,None,974.7518339390008,None,974.7518339390008,None,,,,,,,,,,,,,,,,,,,,,,,,,,,,,,,,,,,,,,,,,,,,001,44,2020_Jan_30_1359,spring_faces,3.1.5,60.01650862053313,
condition files/Stage2_1.xlsx,,B4,T4,r,"['s', 'r']","['Stratego', 'Risk']","[-0.15, 0.5]","[0.15, 0.5]",1,1,,,,,,,,,,,,,,,,,0,2,2,2,0,3,3,5,,,,,,,,,,,,,,,,,,,,,,,,,,,,,,,,,,,,,,,,,,,,,,,976.7157569080009,None,976.7157569080009,None,976.7157569080009,None,s,0,0.6283912649996637,978.2519531530015,None,978.2519531530015,None,978.2519531530015,None,978.9335468829995,None,978.9335468829995,None,978.9335468829995,None,978.9335468829995,None,,,,,,,,,,,,,,,,,,,,,,,,,,,,,,,,,,,,,,,,,,,,001,44,2020_Jan_30_1359,spring_faces,3.1.5,60.01650862053313,
condition files/Stage2_1.xlsx,,T3,B3,s,"['s', 'r']","['Stratego', 'Risk']","[-0.15, 0.5]","[0.15, 0.5]",1,1,,,,,,,,,,,,,,,,,0,2,2,2,0,4,4,4,,,,,,,,,,,,,,,,,,,,,,,,,,,,,,,,,,,,,,,,,,,,,,,980.8993656439998,None,980.8993656439998,None,980.8993656439998,None,r,0,0.8290819989997544,982.4352641510013,None,982.4352641510013,None,982.4352641510013,None,983.3191699890012,None,983.3191699890012,None,983.3191699890012,None,983.3191699890012,None,,,,,,,,,,,,,,,,,,,,,,,,,,,,,,,,,,,,,,,,,,,,001,44,2020_Jan_30_1359,spring_faces,3.1.5,60.01650862053313,
condition files/Stage2_1.xlsx,,B2,T2,r,"['s', 'r']","['Stratego', 'Risk']","[-0.15, 0.5]","[0.15, 0.5]",1,1,,,,,,,,,,,,,,,,,0,2,2,2,0,5,5,3,,,,,,,,,,,,,,,,,,,,,,,,,,,,,,,,,,,,,,,,,,,,,,,985.283060785001,None,985.283060785001,None,985.283060785001,None,s,0,0.35079496699836454,986.8335088970016,None,986.8335088970016,None,986.8335088970016,None,987.2663126059997,None,987.2663126059997,None,987.2663126059997,None,987.2663126059997,None,,,,,,,,,,,,,,,,,,,,,,,,,,,,,,,,,,,,,,,,,,,,001,44,2020_Jan_30_1359,spring_faces,3.1.5,60.01650862053313,
condition files/Stage2_2.xlsx,,T6,B6,r,"['s', 'r']","['Stratego', 'Risk']","[-0.15, 0.5]","[0.15, 0.5]",1,1,,,,,,,,,,,,,,,,,0,3,3,3,0,0,0,1,,,,,,,,,,,,,,,,,,,,,,,,,,,,,,,,,,,,,,,,,,,,,,,989.2327490319985,None,989.2327490319985,None,989.2327490319985,None,s,0,0.6413558230015042,990.7830843250013,None,990.7830843250013,None,990.7830843250013,None,991.4835804380018,None,991.4835804380018,None,991.4835804380018,None,991.4835804380018,None,,,,,,,,,,,,,,,,,,,,,,,,,,,,,,,,,,,,,,,,,,,,001,44,2020_Jan_30_1359,spring_faces,3.1.5,60.01650862053313,
condition files/Stage2_2.xlsx,,T2,B2,r,"['s', 'r']","['Stratego', 'Risk']","[-0.15, 0.5]","[0.15, 0.5]",1,1,,,,,,,,,,,,,,,,,0,3,3,3,0,1,1,3,,,,,,,,,,,,,,,,,,,,,,,,,,,,,,,,,,,,,,,,,,,,,,,993.4497436290003,None,993.4497436290003,None,993.4497436290003,None,r,1,0.3757052780019876,994.9847095770019,None,994.9847095770019,None,994.9847095770019,None,995.4163536320011,None,995.4163536320011,None,995.4163536320011,None,995.4163536320011,None,,,,,,,,,,,,,,,,,,,,,,,,,,,,,,,,,,,,,,,,,,,,001,44,2020_Jan_30_1359,spring_faces,3.1.5,60.01650862053313,
condition files/Stage2_2.xlsx,,B3,T3,s,"['s', 'r']","['Stratego', 'Risk']","[-0.15, 0.5]","[0.15, 0.5]",1,1,,,,,,,,,,,,,,,,,0,3,3,3,0,2,2,4,,,,,,,,,,,,,,,,,,,,,,,,,,,,,,,,,,,,,,,,,,,,,,,997.3830875989988,None,997.3830875989988,None,997.3830875989988,None,s,1,0.4101408989990887,998.9181971979997,None,998.9181971979997,None,998.9181971979997,None,999.3856179959985,None,999.3856179959985,None,999.3856179959985,None,999.3856179959985,None,,,,,,,,,,,,,,,,,,,,,,,,,,,,,,,,,,,,,,,,,,,,001,44,2020_Jan_30_1359,spring_faces,3.1.5,60.01650862053313,
condition files/Stage2_2.xlsx,,B1,T1,s,"['s', 'r']","['Stratego', 'Risk']","[-0.15, 0.5]","[0.15, 0.5]",1,1,,,,,,,,,,,,,,,,,0,3,3,3,0,3,3,2,,,,,,,,,,,,,,,,,,,,,,,,,,,,,,,,,,,,,,,,,,,,,,,1001.3498762119998,None,1001.3498762119998,None,1001.3498762119998,None,s,1,1.0189914559996396,1002.8853507620006,None,1002.8853507620006,None,1002.8853507620006,None,1003.9658722599997,None,1003.9658722599997,None,1003.9658722599997,None,1003.9658722599997,None,,,,,,,,,,,,,,,,,,,,,,,,,,,,,,,,,,,,,,,,,,,,001,44,2020_Jan_30_1359,spring_faces,3.1.5,60.01650862053313,
condition files/Stage2_2.xlsx,,B5,T5,s,"['s', 'r']","['Stratego', 'Risk']","[-0.15, 0.5]","[0.15, 0.5]",1,1,,,,,,,,,,,,,,,,,0,3,3,3,0,4,4,0,,,,,,,,,,,,,,,,,,,,,,,,,,,,,,,,,,,,,,,,,,,,,,,1005.932963244999,None,1005.932963244999,None,1005.932963244999,None,s,1,0.4056108080003469,1007.482737530001,None,1007.482737530001,None,1007.482737530001,None,1007.9497956730011,None,1007.9497956730011,None,1007.9497956730011,None,1007.9497956730011,None,,,,,,,,,,,,,,,,,,,,,,,,,,,,,,,,,,,,,,,,,,,,001,44,2020_Jan_30_1359,spring_faces,3.1.5,60.01650862053313,
condition files/Stage2_2.xlsx,,T4,B4,r,"['s', 'r']","['Stratego', 'Risk']","[-0.15, 0.5]","[0.15, 0.5]",1,1,,,,,,,,,,,,,,,,,0,3,3,3,0,5,5,5,,,,,,,,,,,,,,,,,,,,,,,,,,,,,,,,,,,,,,,,,,,,,,,1009.9164153160018,None,1009.9164153160018,None,1009.9164153160018,None,r,1,0.27890445700177224,1011.4494306999986,None,1011.4494306999986,None,1011.4494306999986,None,1011.7835424660007,None,1011.7835424660007,None,1011.7835424660007,None,1011.7835424660007,None,,,,,,,,,,,,,,,,,,,,,,,,,,,,,,,,,,,,,,,,,,,,001,44,2020_Jan_30_1359,spring_faces,3.1.5,60.01650862053313,
condition files/Stage2_1.xlsx,,B4,T4,r,"['s', 'r']","['Stratego', 'Risk']","[-0.15, 0.5]","[0.15, 0.5]",1,1,,,,,,,,,,,,,,,,,0,4,4,4,0,0,0,5,,,,,,,,,,,,,,,,,,,,,,,,,,,,,,,,,,,,,,,,,,,,,,,1013.7669539449998,None,1013.7669539449998,None,1013.7669539449998,None,s,0,0.3324742590011738,1015.2998799310008,None,1015.2998799310008,None,1015.2998799310008,None,1015.6835756949986,None,1015.6835756949986,None,1015.6835756949986,None,1015.6835756949986,None,,,,,,,,,,,,,,,,,,,,,,,,,,,,,,,,,,,,,,,,,,,,001,44,2020_Jan_30_1359,spring_faces,3.1.5,60.01650862053313,
condition files/Stage2_1.xlsx,,T5,B5,s,"['s', 'r']","['Stratego', 'Risk']","[-0.15, 0.5]","[0.15, 0.5]",1,1,,,,,,,,,,,,,,,,,0,4,4,4,0,1,1,0,,,,,,,,,,,,,,,,,,,,,,,,,,,,,,,,,,,,,,,,,,,,,,,1017.6497421169988,None,1017.6497421169988,None,1017.6497421169988,None,r,0,1.2948050160011917,1019.1855344350006,None,1019.1855344350006,None,1019.1855344350006,None,1020.5339758219998,None,1020.5339758219998,None,1020.5339758219998,None,1020.5339758219998,None,,,,,,,,,,,,,,,,,,,,,,,,,,,,,,,,,,,,,,,,,,,,001,44,2020_Jan_30_1359,spring_faces,3.1.5,60.01650862053313,
condition files/Stage2_1.xlsx,,T1,B1,s,"['s', 'r']","['Stratego', 'Risk']","[-0.15, 0.5]","[0.15, 0.5]",1,1,,,,,,,,,,,,,,,,,0,4,4,4,0,2,2,2,,,,,,,,,,,,,,,,,,,,,,,,,,,,,,,,,,,,,,,,,,,,,,,1022.4997301129988,None,1022.4997301129988,None,1022.4997301129988,None,r,0,0.2876605550009117,1024.0327054490008,None,1024.0327054490008,None,1024.0327054490008,None,1024.383204261001,None,1024.383204261001,None,1024.383204261001,None,1024.383204261001,None,,,,,,,,,,,,,,,,,,,,,,,,,,,,,,,,,,,,,,,,,,,,001,44,2020_Jan_30_1359,spring_faces,3.1.5,60.01650862053313,
condition files/Stage2_1.xlsx,,B2,T2,r,"['s', 'r']","['Stratego', 'Risk']","[-0.15, 0.5]","[0.15, 0.5]",1,1,,,,,,,,,,,,,,,,,0,4,4,4,0,3,3,3,,,,,,,,,,,,,,,,,,,,,,,,,,,,,,,,,,,,,,,,,,,,,,,1026.3496121460012,None,1026.3496121460012,None,1026.3496121460012,None,r,1,0.39007987099830643,1027.8822884469992,None,1027.8822884469992,None,1027.8822884469992,None,1028.350016933,None,1028.350016933,None,1028.350016933,None,1028.350016933,None,,,,,,,,,,,,,,,,,,,,,,,,,,,,,,,,,,,,,,,,,,,,001,44,2020_Jan_30_1359,spring_faces,3.1.5,60.01650862053313,
