condsFile,subStage,cue1,cue2,correct,responseKeys,responseNames,cue1Position,cue2Position,cue1Opacity,cue2Opacity,stageLoop0.thisRepN,stageLoop0.thisTrialN,stageLoop0.thisN,stageLoop0.thisIndex,blockLoop0.thisRepN,blockLoop0.thisTrialN,blockLoop0.thisN,blockLoop0.thisIndex,stage1Loop.thisRepN,stage1Loop.thisTrialN,stage1Loop.thisN,stage1Loop.thisIndex,blockLoop1.thisRepN,blockLoop1.thisTrialN,blockLoop1.thisN,blockLoop1.thisIndex,stage2Loop.thisRepN,stage2Loop.thisTrialN,stage2Loop.thisN,stage2Loop.thisIndex,blockLoop2.thisRepN,blockLoop2.thisTrialN,blockLoop2.thisN,blockLoop2.thisIndex,testLoop.thisRepN,testLoop.thisTrialN,testLoop.thisN,testLoop.thisIndex,blockLoopTest.thisRepN,blockLoopTest.thisTrialN,blockLoopTest.thisN,blockLoopTest.thisIndex,cuePics,id_instr_text.started,id_instr_text.stopped,space_to_continue_2.started,space_to_continue_2.stopped,end_instructions_resp_3.keys,end_instructions_resp_3.rt,end_instructions_resp_3.started,end_instructions_resp_3.stopped,id_input_instr.started,id_input_instr.stopped,id_input_rect.started,id_input_rect.stopped,id_input_resp.keys,id_input_resp.rt,id_input_resp.started,id_input_resp.stopped,sonaID,id_input_text.started,id_input_text.stopped,final_text.started,final_text.stopped,instructions.started,instructions.stopped,end_instructions_resp.keys,end_instructions_resp.rt,end_instructions_resp.started,end_instructions_resp.stopped,space_to_continue.started,space_to_continue.stopped,instructions_stage0.started,instructions_stage0.stopped,end_instructions_resp_stage0.keys,end_instructions_resp_stage0.rt,end_instructions_resp_stage0.started,end_instructions_resp_stage0.stopped,space_to_continue_stage0.started,space_to_continue_stage0.stopped,text.started,text.stopped,resp_text1.started,resp_text1.stopped,resp_text2.started,resp_text2.stopped,trial_resp.keys,trial_resp.corr,trial_resp.rt,trial_resp.started,trial_resp.stopped,cue1Image.started,cue1Image.stopped,cue2Image.started,cue2Image.stopped,cue1Image_fb.started,cue1Image_fb.stopped,cue2Image_fb.started,cue2Image_fb.stopped,fb_text_answer.started,fb_text_answer.stopped,feedback_image.started,feedback_image.stopped,instructions_stage1.started,instructions_stage1.stopped,end_instructions_resp_stage1.keys,end_instructions_resp_stage1.rt,end_instructions_resp_stage1.started,end_instructions_resp_stage1.stopped,space_to_continue_stage1.started,space_to_continue_stage1.stopped,instructions_2.started,instructions_2.stopped,end_instructions_resp_2.keys,end_instructions_resp_2.rt,end_instructions_resp_2.started,end_instructions_resp_2.stopped,press_space_to_continue_stage2.started,press_space_to_continue_stage2.stopped,instructions_testStage1.started,instructions_testStage1.stopped,end_instructions_resp_test1.keys,end_instructions_resp_test1.rt,end_instructions_resp_test1.started,end_instructions_resp_test1.stopped,press_space_to_continue_test1.started,press_space_to_continue_test1.stopped,cue1Image_testChoice.started,cue1Image_testChoice.stopped,cue2Image_testChoice.started,cue2Image_testChoice.stopped,test_resp.keys,test_resp.corr,test_resp.rt,test_resp.started,test_resp.stopped,cue1Image_testConf.started,cue1Image_testConf.stopped,cue2Image_testConf.started,cue2Image_testConf.stopped,conf_reminder.started,conf_reminder.stopped,conf_rating.response,conf_rating.rt,conf_rating.started,conf_rating.stopped,session,participant,date,expName,psychopyVersion,frameRate,
,,,,,,,,,,,,,,,,,,,,,,,,,,,,,,,,,,,,,,,,,,,"{'none': 'pictures/20M_AN_C.png', 'alpha': 'pictures/SHINEd_pear.png', 'beta': 'pictures/SHINEd_melon.png', 'theta': 'pictures/SHINEd_apple.png', 'phi': 'pictures/SHINEd_pepper.png', 'T1': 'pictures/38M_AN_C.png', 'T2': 'pictures/33M_AN_C.png', 'T3': 'pictures/22M_AN_C.png', 'T4': 'pictures/31M_AN_C.png', 'T5': 'pictures/20M_AN_C.png', 'T6': 'pictures/26M_AN_C.png', 'B1': 'pictures/37M_NE_C.png', 'B2': 'pictures/23M_NE_C.png', 'B3': 'pictures/25M_NE_C.png', 'B4': 'pictures/36M_NE_C.png', 'B5': 'pictures/32M_NE_C.png', 'B6': 'pictures/34M_NE_C.png'}",13.049924921997444,None,18.04946369299796,None,space,39.45592389399826,18.04946369299796,None,,,,,,,,,,,,,,,,,,,,,,,,,,,,,,,,,,,,,,,,,,,,,,,,,,,,,,,,,,,,,,,,,,,,,,,,,,,,,,,,,,,,,,,,,,,,,,,,001,45,2020_Jan_30_1403,spring_faces,3.1.5,60.2430792589955,
,,,,,,,,,,,,,,,,,,,,,,,,,,,,,,,,,,,,,,,,,,,,,,,,,,,,57.88381322499845,None,57.88381322499845,None,"['1', '2', '0', '8', 'j', 'u', 'c', 'o', 'r']","[28.021593509998638, 28.213578115999553, 32.069588145001035, 32.29357146899929, 38.22957623000184, 38.3735688529996, 41.989627210001345, 42.19757523199951, 42.40558982999937]",57.88381322499845,None,,,,,,,,,,,,,,,,,,,,,,,,,,,,,,,,,,,,,,,,,,,,,,,,,,,,,,,,,,,,,,,,,,,,,,,,,,,,,,,,,,,,,,,,001,45,2020_Jan_30_1403,spring_faces,3.1.5,60.2430792589955,
,,,,,,,,,,,,,,,,,,,,,,,,,,,,,,,,,,,,,,,,,,,,,,,,,,,,,,,,,,,,1208jucor,57.88381322499845,None,57.88381322499845,None,105.3663179369978,None,space,3.5551035230018897,110.36629830399761,None,,,,,,,,,,,,,,,,,,,,,,,,,,,,,,,,,,,,,,,,,,,,,,,,,,,,,,,,,,,,,,,,,,,,,,,,,,,,,001,45,2020_Jan_30_1403,spring_faces,3.1.5,60.2430792589955,
,,,,,,,,,,,,,,,,,,,,,,,,,,,,,,,,,,,,,,,,,,,,,,,,,,,,,,,,,,,,,,,,,,,,,,,110.36629830399761,None,113.96662968300006,None,space,7.003761590000067,118.94964265799717,None,,,,,,,,,,,,,,,,,,,,,,,,,,,,,,,,,,,,,,,,,,,,,,,,,,,,,,,,,,,,,,,,,,,,,001,45,2020_Jan_30_1403,spring_faces,3.1.5,60.2430792589955,
condition files/Stage0a.xlsx,0a,beta,none,g,"['h', 'g']","['Chess', 'Go']","[0, 0.5]","[0, 0]",1,0,0,0,0,0,0,0,0,1,,,,,,,,,,,,,,,,,,,,,,,,,,,,,,,,,,,,,,,,,,,,,,,,,,,,,,,,,,,,,118.94964265799717,None,126.04948091199913,None,126.04948091199913,None,126.04948091199913,None,g,1,1.9866477529976692,127.58275112499905,None,127.58275112499905,None,127.58275112499905,None,129.64975506299743,None,129.64975506299743,None,129.64975506299743,None,129.64975506299743,None,,,,,,,,,,,,,,,,,,,,,,,,,,,,,,,,,,,,,,,,,,,,001,45,2020_Jan_30_1403,spring_faces,3.1.5,60.2430792589955,
condition files/Stage0a.xlsx,0a,alpha,none,h,"['h', 'g']","['Chess', 'Go']","[0, 0.5]","[0, 0]",1,0,0,0,0,0,0,1,1,0,,,,,,,,,,,,,,,,,,,,,,,,,,,,,,,,,,,,,,,,,,,,,,,,,,,,,,,,,,,,,,,131.59946777399819,None,131.59946777399819,None,131.59946777399819,None,h,1,1.0743098330021894,133.13506741799938,None,133.13506741799938,None,133.13506741799938,None,134.26786008499766,None,134.26786008499766,None,134.26786008499766,None,134.26786008499766,None,,,,,,,,,,,,,,,,,,,,,,,,,,,,,,,,,,,,,,,,,,,,001,45,2020_Jan_30_1403,spring_faces,3.1.5,60.2430792589955,
condition files/Stage0a.xlsx,0a,beta,none,g,"['h', 'g']","['Chess', 'Go']","[0, 0.5]","[0, 0]",1,0,0,1,1,1,0,0,0,1,,,,,,,,,,,,,,,,,,,,,,,,,,,,,,,,,,,,,,,,,,,,,,,,,,,,,,,,,,,,,,,136.2491421880004,None,136.2491421880004,None,136.2491421880004,None,g,1,0.7142061359991203,137.7831804649977,None,137.7831804649977,None,137.7831804649977,None,138.5493926449999,None,138.5493926449999,None,138.5493926449999,None,138.5493926449999,None,,,,,,,,,,,,,,,,,,,,,,,,,,,,,,,,,,,,,,,,,,,,001,45,2020_Jan_30_1403,spring_faces,3.1.5,60.2430792589955,
condition files/Stage0a.xlsx,0a,alpha,none,h,"['h', 'g']","['Chess', 'Go']","[0, 0.5]","[0, 0]",1,0,0,1,1,1,0,1,1,0,,,,,,,,,,,,,,,,,,,,,,,,,,,,,,,,,,,,,,,,,,,,,,,,,,,,,,,,,,,,,,,140.51610534499923,None,140.51610534499923,None,140.51610534499923,None,h,1,0.767274453999562,142.05007441199996,None,142.05007441199996,None,142.05007441199996,None,142.88231080399783,None,142.88231080399783,None,142.88231080399783,None,142.88231080399783,None,,,,,,,,,,,,,,,,,,,,,,,,,,,,,,,,,,,,,,,,,,,,001,45,2020_Jan_30_1403,spring_faces,3.1.5,60.2430792589955,
condition files/Stage0a.xlsx,0a,beta,none,g,"['h', 'g']","['Chess', 'Go']","[0, 0.5]","[0, 0]",1,0,0,2,2,2,0,0,0,1,,,,,,,,,,,,,,,,,,,,,,,,,,,,,,,,,,,,,,,,,,,,,,,,,,,,,,,,,,,,,,,144.86659851699733,None,144.86659851699733,None,144.86659851699733,None,g,1,0.7542903539979307,146.3991273779975,None,146.3991273779975,None,146.3991273779975,None,147.21612640799867,None,147.21612640799867,None,147.21612640799867,None,147.21612640799867,None,,,,,,,,,,,,,,,,,,,,,,,,,,,,,,,,,,,,,,,,,,,,001,45,2020_Jan_30_1403,spring_faces,3.1.5,60.2430792589955,
condition files/Stage0a.xlsx,0a,alpha,none,h,"['h', 'g']","['Chess', 'Go']","[0, 0.5]","[0, 0]",1,0,0,2,2,2,0,1,1,0,,,,,,,,,,,,,,,,,,,,,,,,,,,,,,,,,,,,,,,,,,,,,,,,,,,,,,,,,,,,,,,149.18248101199788,None,149.18248101199788,None,149.18248101199788,None,h,1,0.692950111002574,150.71643059000053,None,150.71643059000053,None,150.71643059000053,None,151.4660256499992,None,151.4660256499992,None,151.4660256499992,None,151.4660256499992,None,,,,,,,,,,,,,,,,,,,,,,,,,,,,,,,,,,,,,,,,,,,,001,45,2020_Jan_30_1403,spring_faces,3.1.5,60.2430792589955,
condition files/Stage0a.xlsx,0a,beta,none,g,"['h', 'g']","['Chess', 'Go']","[0, 0.5]","[0, 0]",1,0,0,3,3,3,0,0,0,1,,,,,,,,,,,,,,,,,,,,,,,,,,,,,,,,,,,,,,,,,,,,,,,,,,,,,,,,,,,,,,,153.44962712099732,None,153.44962712099732,None,153.44962712099732,None,g,1,0.6027250120023382,154.98268573599853,None,154.98268573599853,None,154.98268573599853,None,155.6497653919978,None,155.6497653919978,None,155.6497653919978,None,155.6497653919978,None,,,,,,,,,,,,,,,,,,,,,,,,,,,,,,,,,,,,,,,,,,,,001,45,2020_Jan_30_1403,spring_faces,3.1.5,60.2430792589955,
condition files/Stage0a.xlsx,0a,alpha,none,h,"['h', 'g']","['Chess', 'Go']","[0, 0.5]","[0, 0]",1,0,0,3,3,3,0,1,1,0,,,,,,,,,,,,,,,,,,,,,,,,,,,,,,,,,,,,,,,,,,,,,,,,,,,,,,,,,,,,,,,157.61624437099817,None,157.61624437099817,None,157.61624437099817,None,h,1,0.5463737570025842,159.15102455799934,None,159.15102455799934,None,159.15102455799934,None,159.74907981899742,None,159.74907981899742,None,159.74907981899742,None,159.74907981899742,None,,,,,,,,,,,,,,,,,,,,,,,,,,,,,,,,,,,,,,,,,,,,001,45,2020_Jan_30_1403,spring_faces,3.1.5,60.2430792589955,
condition files/Stage0a.xlsx,0a,alpha,none,h,"['h', 'g']","['Chess', 'Go']","[0, 0.5]","[0, 0]",1,0,0,4,4,4,0,0,0,0,,,,,,,,,,,,,,,,,,,,,,,,,,,,,,,,,,,,,,,,,,,,,,,,,,,,,,,,,,,,,,,161.73308424399875,None,161.73308424399875,None,161.73308424399875,None,h,1,0.6868749620007293,163.2665218580005,None,163.2665218580005,None,163.2665218580005,None,164.015815155999,None,164.015815155999,None,164.015815155999,None,164.015815155999,None,,,,,,,,,,,,,,,,,,,,,,,,,,,,,,,,,,,,,,,,,,,,001,45,2020_Jan_30_1403,spring_faces,3.1.5,60.2430792589955,
condition files/Stage0a.xlsx,0a,beta,none,g,"['h', 'g']","['Chess', 'Go']","[0, 0.5]","[0, 0]",1,0,0,4,4,4,0,1,1,1,,,,,,,,,,,,,,,,,,,,,,,,,,,,,,,,,,,,,,,,,,,,,,,,,,,,,,,,,,,,,,,165.98289483699773,None,165.98289483699773,None,165.98289483699773,None,g,1,0.5807889810021152,167.51658837599825,None,167.51658837599825,None,167.51658837599825,None,168.15061594399958,None,168.15061594399958,None,168.15061594399958,None,168.15061594399958,None,,,,,,,,,,,,,,,,,,,,,,,,,,,,,,,,,,,,,,,,,,,,001,45,2020_Jan_30_1403,spring_faces,3.1.5,60.2430792589955,
condition files/Stage0a.xlsx,0a,beta,none,g,"['h', 'g']","['Chess', 'Go']","[0, 0.5]","[0, 0]",1,0,0,5,5,5,0,0,0,1,,,,,,,,,,,,,,,,,,,,,,,,,,,,,,,,,,,,,,,,,,,,,,,,,,,,,,,,,,,,,,,170.1334011229992,None,170.1334011229992,None,170.1334011229992,None,g,1,0.6849945459980518,171.6684114549971,None,171.6684114549971,None,171.6684114549971,None,172.41663060099745,None,172.41663060099745,None,172.41663060099745,None,172.41663060099745,None,,,,,,,,,,,,,,,,,,,,,,,,,,,,,,,,,,,,,,,,,,,,001,45,2020_Jan_30_1403,spring_faces,3.1.5,60.2430792589955,
condition files/Stage0a.xlsx,0a,alpha,none,h,"['h', 'g']","['Chess', 'Go']","[0, 0.5]","[0, 0]",1,0,0,5,5,5,0,1,1,0,,,,,,,,,,,,,,,,,,,,,,,,,,,,,,,,,,,,,,,,,,,,,,,,,,,,,,,,,,,,,,,174.38288121999722,None,174.38288121999722,None,174.38288121999722,None,h,1,0.5970002309986739,175.9163717400006,None,175.9163717400006,None,175.9163717400006,None,176.56581320400073,None,176.56581320400073,None,176.56581320400073,None,176.56581320400073,None,,,,,,,,,,,,,,,,,,,,,,,,,,,,,,,,,,,,,,,,,,,,001,45,2020_Jan_30_1403,spring_faces,3.1.5,60.2430792589955,
condition files/Stage0b_1.xlsx,0b,alpha,none,h,"['h', 'g']","['Chess', 'Go']","[-0.15, 0.5]","[0.15, 0.5]",1,0,0,6,6,6,0,0,0,0,,,,,,,,,,,,,,,,,,,,,,,,,,,,,,,,,,,,,,,,,,,,,,,,,,,,,,,,,,,,,,,178.54987633400015,None,178.54987633400015,None,178.54987633400015,None,h,1,0.7659308090005652,180.0834558159986,None,180.0834558159986,None,180.0834558159986,None,180.89980221899896,None,180.89980221899896,None,180.89980221899896,None,180.89980221899896,None,,,,,,,,,,,,,,,,,,,,,,,,,,,,,,,,,,,,,,,,,,,,001,45,2020_Jan_30_1403,spring_faces,3.1.5,60.2430792589955,
condition files/Stage0b_1.xlsx,0b,none,beta,g,"['h', 'g']","['Chess', 'Go']","[-0.15, 0.5]","[0.15, 0.5]",0,1,0,6,6,6,0,1,1,1,,,,,,,,,,,,,,,,,,,,,,,,,,,,,,,,,,,,,,,,,,,,,,,,,,,,,,,,,,,,,,,182.86621206999916,None,182.86621206999916,None,182.86621206999916,None,h,0,0.44949150400134386,184.41587536799852,None,184.41587536799852,None,184.41587536799852,None,184.92180271599864,None,184.92180271599864,None,184.92180271599864,None,184.92180271599864,None,,,,,,,,,,,,,,,,,,,,,,,,,,,,,,,,,,,,,,,,,,,,001,45,2020_Jan_30_1403,spring_faces,3.1.5,60.2430792589955,
condition files/Stage0b_2.xlsx,0b,none,alpha,h,"['h', 'g']","['Chess', 'Go']","[-0.15, 0.5]","[0.15, 0.5]",0,1,0,7,7,7,0,0,0,0,,,,,,,,,,,,,,,,,,,,,,,,,,,,,,,,,,,,,,,,,,,,,,,,,,,,,,,,,,,,,,,186.89991489100066,None,186.89991489100066,None,186.89991489100066,None,h,1,1.104819131000113,188.43259482299982,None,188.43259482299982,None,188.43259482299982,None,189.59989656299877,None,189.59989656299877,None,189.59989656299877,None,189.59989656299877,None,,,,,,,,,,,,,,,,,,,,,,,,,,,,,,,,,,,,,,,,,,,,001,45,2020_Jan_30_1403,spring_faces,3.1.5,60.2430792589955,
condition files/Stage0b_2.xlsx,0b,beta,none,g,"['h', 'g']","['Chess', 'Go']","[-0.15, 0.5]","[0.15, 0.5]",1,0,0,7,7,7,0,1,1,1,,,,,,,,,,,,,,,,,,,,,,,,,,,,,,,,,,,,,,,,,,,,,,,,,,,,,,,,,,,,,,,191.56612173800022,None,191.56612173800022,None,191.56612173800022,None,g,1,0.7726995500015619,193.11663522699746,None,193.11663522699746,None,193.11663522699746,None,193.95462059800047,None,193.95462059800047,None,193.95462059800047,None,193.95462059800047,None,,,,,,,,,,,,,,,,,,,,,,,,,,,,,,,,,,,,,,,,,,,,001,45,2020_Jan_30_1403,spring_faces,3.1.5,60.2430792589955,
condition files/Stage0b_1.xlsx,0b,none,beta,g,"['h', 'g']","['Chess', 'Go']","[-0.15, 0.5]","[0.15, 0.5]",0,1,0,8,8,8,0,0,0,1,,,,,,,,,,,,,,,,,,,,,,,,,,,,,,,,,,,,,,,,,,,,,,,,,,,,,,,,,,,,,,,195.93326256999717,None,195.93326256999717,None,195.93326256999717,None,g,1,0.6586290419982106,197.47075840899925,None,197.47075840899925,None,197.47075840899925,None,198.1831021149992,None,198.1831021149992,None,198.1831021149992,None,198.1831021149992,None,,,,,,,,,,,,,,,,,,,,,,,,,,,,,,,,,,,,,,,,,,,,001,45,2020_Jan_30_1403,spring_faces,3.1.5,60.2430792589955,
condition files/Stage0b_1.xlsx,0b,alpha,none,h,"['h', 'g']","['Chess', 'Go']","[-0.15, 0.5]","[0.15, 0.5]",1,0,0,8,8,8,0,1,1,0,,,,,,,,,,,,,,,,,,,,,,,,,,,,,,,,,,,,,,,,,,,,,,,,,,,,,,,,,,,,,,,200.14948094399733,None,200.14948094399733,None,200.14948094399733,None,h,1,0.7975873129980755,201.6998506489981,None,201.6998506489981,None,201.6998506489981,None,202.5515726079975,None,202.5515726079975,None,202.5515726079975,None,202.5515726079975,None,,,,,,,,,,,,,,,,,,,,,,,,,,,,,,,,,,,,,,,,,,,,001,45,2020_Jan_30_1403,spring_faces,3.1.5,60.2430792589955,
condition files/Stage0b_2.xlsx,0b,none,alpha,h,"['h', 'g']","['Chess', 'Go']","[-0.15, 0.5]","[0.15, 0.5]",0,1,0,9,9,9,0,0,0,0,,,,,,,,,,,,,,,,,,,,,,,,,,,,,,,,,,,,,,,,,,,,,,,,,,,,,,,,,,,,,,,204.5326531690007,None,204.5326531690007,None,204.5326531690007,None,h,1,1.005721066998376,206.06774286499785,None,206.06774286499785,None,206.06774286499785,None,207.1330832450003,None,207.1330832450003,None,207.1330832450003,None,207.1330832450003,None,,,,,,,,,,,,,,,,,,,,,,,,,,,,,,,,,,,,,,,,,,,,001,45,2020_Jan_30_1403,spring_faces,3.1.5,60.2430792589955,
condition files/Stage0b_2.xlsx,0b,beta,none,g,"['h', 'g']","['Chess', 'Go']","[-0.15, 0.5]","[0.15, 0.5]",1,0,0,9,9,9,0,1,1,1,,,,,,,,,,,,,,,,,,,,,,,,,,,,,,,,,,,,,,,,,,,,,,,,,,,,,,,,,,,,,,,209.09946827399835,None,209.09946827399835,None,209.09946827399835,None,g,1,0.8547677150017989,210.63461024299977,None,210.63461024299977,None,210.63461024299977,None,211.55046949700045,None,211.55046949700045,None,211.55046949700045,None,211.55046949700045,None,,,,,,,,,,,,,,,,,,,,,,,,,,,,,,,,,,,,,,,,,,,,001,45,2020_Jan_30_1403,spring_faces,3.1.5,60.2430792589955,
condition files/Stage0b_1.xlsx,0b,none,beta,g,"['h', 'g']","['Chess', 'Go']","[-0.15, 0.5]","[0.15, 0.5]",0,1,0,10,10,10,0,0,0,1,,,,,,,,,,,,,,,,,,,,,,,,,,,,,,,,,,,,,,,,,,,,,,,,,,,,,,,,,,,,,,,213.5332341079993,None,213.5332341079993,None,213.5332341079993,None,g,1,0.6919882510010211,215.06935734599756,None,215.06935734599756,None,215.06935734599756,None,215.81681117699918,None,215.81681117699918,None,215.81681117699918,None,215.81681117699918,None,,,,,,,,,,,,,,,,,,,,,,,,,,,,,,,,,,,,,,,,,,,,001,45,2020_Jan_30_1403,spring_faces,3.1.5,60.2430792589955,
condition files/Stage0b_1.xlsx,0b,alpha,none,h,"['h', 'g']","['Chess', 'Go']","[-0.15, 0.5]","[0.15, 0.5]",1,0,0,10,10,10,0,1,1,0,,,,,,,,,,,,,,,,,,,,,,,,,,,,,,,,,,,,,,,,,,,,,,,,,,,,,,,,,,,,,,,217.78283823699894,None,217.78283823699894,None,217.78283823699894,None,h,1,0.6967152139986865,219.3206054509974,None,219.3206054509974,None,219.3206054509974,None,220.0869390359985,None,220.0869390359985,None,220.0869390359985,None,220.0869390359985,None,,,,,,,,,,,,,,,,,,,,,,,,,,,,,,,,,,,,,,,,,,,,001,45,2020_Jan_30_1403,spring_faces,3.1.5,60.2430792589955,
condition files/Stage0b_2.xlsx,0b,none,alpha,h,"['h', 'g']","['Chess', 'Go']","[-0.15, 0.5]","[0.15, 0.5]",0,1,0,11,11,11,0,0,0,0,,,,,,,,,,,,,,,,,,,,,,,,,,,,,,,,,,,,,,,,,,,,,,,,,,,,,,,,,,,,,,,222.06634162899718,None,222.06634162899718,None,222.06634162899718,None,h,1,0.7199428359999729,223.6014586249985,None,223.6014586249985,None,223.6014586249985,None,224.3830634650003,None,224.3830634650003,None,224.3830634650003,None,224.3830634650003,None,,,,,,,,,,,,,,,,,,,,,,,,,,,,,,,,,,,,,,,,,,,,001,45,2020_Jan_30_1403,spring_faces,3.1.5,60.2430792589955,
condition files/Stage0b_2.xlsx,0b,beta,none,g,"['h', 'g']","['Chess', 'Go']","[-0.15, 0.5]","[0.15, 0.5]",1,0,0,11,11,11,0,1,1,1,,,,,,,,,,,,,,,,,,,,,,,,,,,,,,,,,,,,,,,,,,,,,,,,,,,,,,,,,,,,,,,226.34930066699962,None,226.34930066699962,None,226.34930066699962,None,g,1,0.8048971079988405,227.8844572229973,None,227.8844572229973,None,227.8844572229973,None,228.751295828999,None,228.751295828999,None,228.751295828999,None,228.751295828999,None,,,,,,,,,,,,,,,,,,,,,,,,,,,,,,,,,,,,,,,,,,,,001,45,2020_Jan_30_1403,spring_faces,3.1.5,60.2430792589955,
condition files/Stage0c_1.xlsx,0c,alpha,phi,h,"['h', 'g']","['Chess', 'Go']","[-0.15, 0.5]","[0.15, 0.5]",1,1,0,12,12,12,0,0,0,1,,,,,,,,,,,,,,,,,,,,,,,,,,,,,,,,,,,,,,,,,,,,,,,,,,,,,,,,,,,,,,,230.73308319699936,None,230.73308319699936,None,230.73308319699936,None,h,1,1.8637276189983822,232.26580836299763,None,232.26580836299763,None,232.26580836299763,None,234.18284332099938,None,234.18284332099938,None,234.18284332099938,None,234.18284332099938,None,,,,,,,,,,,,,,,,,,,,,,,,,,,,,,,,,,,,,,,,,,,,001,45,2020_Jan_30_1403,spring_faces,3.1.5,60.2430792589955,
condition files/Stage0c_1.xlsx,0c,beta,theta,g,"['h', 'g']","['Chess', 'Go']","[-0.15, 0.5]","[0.15, 0.5]",1,1,0,12,12,12,0,1,1,2,,,,,,,,,,,,,,,,,,,,,,,,,,,,,,,,,,,,,,,,,,,,,,,,,,,,,,,,,,,,,,,236.14945218699722,None,236.14945218699722,None,236.14945218699722,None,g,1,0.7342889400024433,237.68306976099848,None,237.68306976099848,None,237.68306976099848,None,238.48274223899716,None,238.48274223899716,None,238.48274223899716,None,238.48274223899716,None,,,,,,,,,,,,,,,,,,,,,,,,,,,,,,,,,,,,,,,,,,,,001,45,2020_Jan_30_1403,spring_faces,3.1.5,60.2430792589955,
condition files/Stage0c_1.xlsx,0c,phi,beta,g,"['h', 'g']","['Chess', 'Go']","[-0.15, 0.5]","[0.15, 0.5]",1,1,0,12,12,12,0,2,2,3,,,,,,,,,,,,,,,,,,,,,,,,,,,,,,,,,,,,,,,,,,,,,,,,,,,,,,,,,,,,,,,240.4497552139983,None,240.4497552139983,None,240.4497552139983,None,g,1,1.2343264060000365,241.9830282829971,None,241.9830282829971,None,241.9830282829971,None,243.28320003099725,None,243.28320003099725,None,243.28320003099725,None,243.28320003099725,None,,,,,,,,,,,,,,,,,,,,,,,,,,,,,,,,,,,,,,,,,,,,001,45,2020_Jan_30_1403,spring_faces,3.1.5,60.2430792589955,
condition files/Stage0c_1.xlsx,0c,theta,alpha,h,"['h', 'g']","['Chess', 'Go']","[-0.15, 0.5]","[0.15, 0.5]",1,1,0,12,12,12,0,3,3,0,,,,,,,,,,,,,,,,,,,,,,,,,,,,,,,,,,,,,,,,,,,,,,,,,,,,,,,,,,,,,,,245.24913325399757,None,245.24913325399757,None,245.24913325399757,None,h,1,0.6583508050025557,246.78309669100054,None,246.78309669100054,None,246.78309669100054,None,247.49990375599737,None,247.49990375599737,None,247.49990375599737,None,247.49990375599737,None,,,,,,,,,,,,,,,,,,,,,,,,,,,,,,,,,,,,,,,,,,,,001,45,2020_Jan_30_1403,spring_faces,3.1.5,60.2430792589955,
condition files/Stage0c_2.xlsx,0c,phi,alpha,h,"['h', 'g']","['Chess', 'Go']","[-0.15, 0.5]","[0.15, 0.5]",1,1,0,13,13,13,0,0,0,1,,,,,,,,,,,,,,,,,,,,,,,,,,,,,,,,,,,,,,,,,,,,,,,,,,,,,,,,,,,,,,,249.48244521599918,None,249.48244521599918,None,249.48244521599918,None,h,1,0.8252747310034465,251.0161722640005,None,251.0161722640005,None,251.0161722640005,None,251.88450132599974,None,251.88450132599974,None,251.88450132599974,None,251.88450132599974,None,,,,,,,,,,,,,,,,,,,,,,,,,,,,,,,,,,,,,,,,,,,,001,45,2020_Jan_30_1403,spring_faces,3.1.5,60.2430792589955,
condition files/Stage0c_2.xlsx,0c,alpha,theta,h,"['h', 'g']","['Chess', 'Go']","[-0.15, 0.5]","[0.15, 0.5]",1,1,0,13,13,13,0,1,1,0,,,,,,,,,,,,,,,,,,,,,,,,,,,,,,,,,,,,,,,,,,,,,,,,,,,,,,,,,,,,,,,253.86612623499968,None,253.86612623499968,None,253.86612623499968,None,g,0,0.9057689100009156,255.3996151020001,None,255.3996151020001,None,255.3996151020001,None,256.34961941899746,None,256.34961941899746,None,256.34961941899746,None,256.34961941899746,None,,,,,,,,,,,,,,,,,,,,,,,,,,,,,,,,,,,,,,,,,,,,001,45,2020_Jan_30_1403,spring_faces,3.1.5,60.2430792589955,
condition files/Stage0c_2.xlsx,0c,theta,beta,g,"['h', 'g']","['Chess', 'Go']","[-0.15, 0.5]","[0.15, 0.5]",1,1,0,13,13,13,0,2,2,2,,,,,,,,,,,,,,,,,,,,,,,,,,,,,,,,,,,,,,,,,,,,,,,,,,,,,,,,,,,,,,,258.33251228699737,None,258.33251228699737,None,258.33251228699737,None,g,1,0.8388818599996739,259.8665053240002,None,259.8665053240002,None,259.8665053240002,None,260.76640399700045,None,260.76640399700045,None,260.76640399700045,None,260.76640399700045,None,,,,,,,,,,,,,,,,,,,,,,,,,,,,,,,,,,,,,,,,,,,,001,45,2020_Jan_30_1403,spring_faces,3.1.5,60.2430792589955,
condition files/Stage0c_2.xlsx,0c,beta,phi,g,"['h', 'g']","['Chess', 'Go']","[-0.15, 0.5]","[0.15, 0.5]",1,1,0,13,13,13,0,3,3,3,,,,,,,,,,,,,,,,,,,,,,,,,,,,,,,,,,,,,,,,,,,,,,,,,,,,,,,,,,,,,,,262.7327947889971,None,262.7327947889971,None,262.7327947889971,None,g,1,0.9669394179982191,264.2664071299987,None,264.2664071299987,None,264.2664071299987,None,265.28245983399756,None,265.28245983399756,None,265.28245983399756,None,265.28245983399756,None,,,,,,,,,,,,,,,,,,,,,,,,,,,,,,,,,,,,,,,,,,,,001,45,2020_Jan_30_1403,spring_faces,3.1.5,60.2430792589955,
condition files/Stage0c_1.xlsx,0c,phi,beta,g,"['h', 'g']","['Chess', 'Go']","[-0.15, 0.5]","[0.15, 0.5]",1,1,0,14,14,14,0,0,0,3,,,,,,,,,,,,,,,,,,,,,,,,,,,,,,,,,,,,,,,,,,,,,,,,,,,,,,,,,,,,,,,267.2828743729988,None,267.2828743729988,None,267.2828743729988,None,g,1,0.9453491249987565,268.8160260859986,None,268.8160260859986,None,268.8160260859986,None,269.80125267999756,None,269.80125267999756,None,269.80125267999756,None,269.80125267999756,None,,,,,,,,,,,,,,,,,,,,,,,,,,,,,,,,,,,,,,,,,,,,001,45,2020_Jan_30_1403,spring_faces,3.1.5,60.2430792589955,
condition files/Stage0c_1.xlsx,0c,alpha,phi,h,"['h', 'g']","['Chess', 'Go']","[-0.15, 0.5]","[0.15, 0.5]",1,1,0,14,14,14,0,1,1,1,,,,,,,,,,,,,,,,,,,,,,,,,,,,,,,,,,,,,,,,,,,,,,,,,,,,,,,,,,,,,,,271.78276451299826,None,271.78276451299826,None,271.78276451299826,None,h,1,1.0369219610001892,273.31646390199967,None,273.31646390199967,None,273.31646390199967,None,274.4165784760007,None,274.4165784760007,None,274.4165784760007,None,274.4165784760007,None,,,,,,,,,,,,,,,,,,,,,,,,,,,,,,,,,,,,,,,,,,,,001,45,2020_Jan_30_1403,spring_faces,3.1.5,60.2430792589955,
condition files/Stage0c_1.xlsx,0c,theta,alpha,h,"['h', 'g']","['Chess', 'Go']","[-0.15, 0.5]","[0.15, 0.5]",1,1,0,14,14,14,0,2,2,0,,,,,,,,,,,,,,,,,,,,,,,,,,,,,,,,,,,,,,,,,,,,,,,,,,,,,,,,,,,,,,,276.38288190299863,None,276.38288190299863,None,276.38288190299863,None,h,1,0.933361703002447,277.91601823199744,None,277.91601823199744,None,277.91601823199744,None,278.88468724300037,None,278.88468724300037,None,278.88468724300037,None,278.88468724300037,None,,,,,,,,,,,,,,,,,,,,,,,,,,,,,,,,,,,,,,,,,,,,001,45,2020_Jan_30_1403,spring_faces,3.1.5,60.2430792589955,
condition files/Stage0c_1.xlsx,0c,beta,theta,g,"['h', 'g']","['Chess', 'Go']","[-0.15, 0.5]","[0.15, 0.5]",1,1,0,14,14,14,0,3,3,2,,,,,,,,,,,,,,,,,,,,,,,,,,,,,,,,,,,,,,,,,,,,,,,,,,,,,,,,,,,,,,,280.86610664699765,None,280.86610664699765,None,280.86610664699765,None,g,1,1.0575025849975646,282.3999438739993,None,282.3999438739993,None,282.3999438739993,None,283.51579864799714,None,283.51579864799714,None,283.51579864799714,None,283.51579864799714,None,,,,,,,,,,,,,,,,,,,,,,,,,,,,,,,,,,,,,,,,,,,,001,45,2020_Jan_30_1403,spring_faces,3.1.5,60.2430792589955,
condition files/Stage0c_2.xlsx,0c,beta,phi,g,"['h', 'g']","['Chess', 'Go']","[-0.15, 0.5]","[0.15, 0.5]",1,1,0,15,15,15,0,0,0,3,,,,,,,,,,,,,,,,,,,,,,,,,,,,,,,,,,,,,,,,,,,,,,,,,,,,,,,,,,,,,,,285.4991001239978,None,285.4991001239978,None,285.4991001239978,None,g,1,1.176344503001019,287.0330375470003,None,287.0330375470003,None,287.0330375470003,None,288.250648109999,None,288.250648109999,None,288.250648109999,None,288.250648109999,None,,,,,,,,,,,,,,,,,,,,,,,,,,,,,,,,,,,,,,,,,,,,001,45,2020_Jan_30_1403,spring_faces,3.1.5,60.2430792589955,
condition files/Stage0c_2.xlsx,0c,alpha,theta,h,"['h', 'g']","['Chess', 'Go']","[-0.15, 0.5]","[0.15, 0.5]",1,1,0,15,15,15,0,1,1,0,,,,,,,,,,,,,,,,,,,,,,,,,,,,,,,,,,,,,,,,,,,,,,,,,,,,,,,,,,,,,,,290.2329385169978,None,290.2329385169978,None,290.2329385169978,None,h,1,0.9066408660000889,291.76674016999823,None,291.76674016999823,None,291.76674016999823,None,292.7329995180007,None,292.7329995180007,None,292.7329995180007,None,292.7329995180007,None,,,,,,,,,,,,,,,,,,,,,,,,,,,,,,,,,,,,,,,,,,,,001,45,2020_Jan_30_1403,spring_faces,3.1.5,60.2430792589955,
condition files/Stage0c_2.xlsx,0c,theta,beta,g,"['h', 'g']","['Chess', 'Go']","[-0.15, 0.5]","[0.15, 0.5]",1,1,0,15,15,15,0,2,2,2,,,,,,,,,,,,,,,,,,,,,,,,,,,,,,,,,,,,,,,,,,,,,,,,,,,,,,,,,,,,,,,294.6994559509985,None,294.6994559509985,None,294.6994559509985,None,g,1,0.824035751997144,296.23341267199794,None,296.23341267199794,None,296.23341267199794,None,297.11678793899773,None,297.11678793899773,None,297.11678793899773,None,297.11678793899773,None,,,,,,,,,,,,,,,,,,,,,,,,,,,,,,,,,,,,,,,,,,,,001,45,2020_Jan_30_1403,spring_faces,3.1.5,60.2430792589955,
condition files/Stage0c_2.xlsx,0c,phi,alpha,h,"['h', 'g']","['Chess', 'Go']","[-0.15, 0.5]","[0.15, 0.5]",1,1,0,15,15,15,0,3,3,1,,,,,,,,,,,,,,,,,,,,,,,,,,,,,,,,,,,,,,,,,,,,,,,,,,,,,,,,,,,,,,,299.0828044279988,None,299.0828044279988,None,299.0828044279988,None,h,1,0.9698238220007624,300.6156281090007,None,300.6156281090007,None,300.6156281090007,None,301.64978718400016,None,301.64978718400016,None,301.64978718400016,None,301.64978718400016,None,,,,,,,,,,,,,,,,,,,,,,,,,,,,,,,,,,,,,,,,,,,,001,45,2020_Jan_30_1403,spring_faces,3.1.5,60.2430792589955,
condition files/Stage0c_1.xlsx,0c,phi,beta,g,"['h', 'g']","['Chess', 'Go']","[-0.15, 0.5]","[0.15, 0.5]",1,1,0,16,16,16,0,0,0,3,,,,,,,,,,,,,,,,,,,,,,,,,,,,,,,,,,,,,,,,,,,,,,,,,,,,,,,,,,,,,,,303.6327251929979,None,303.6327251929979,None,303.6327251929979,None,g,1,1.2515544310008409,305.16576292699756,None,305.16576292699756,None,305.16576292699756,None,306.4830422999985,None,306.4830422999985,None,306.4830422999985,None,306.4830422999985,None,,,,,,,,,,,,,,,,,,,,,,,,,,,,,,,,,,,,,,,,,,,,001,45,2020_Jan_30_1403,spring_faces,3.1.5,60.2430792589955,
condition files/Stage0c_1.xlsx,0c,beta,theta,g,"['h', 'g']","['Chess', 'Go']","[-0.15, 0.5]","[0.15, 0.5]",1,1,0,16,16,16,0,1,1,2,,,,,,,,,,,,,,,,,,,,,,,,,,,,,,,,,,,,,,,,,,,,,,,,,,,,,,,,,,,,,,,308.44960249299766,None,308.44960249299766,None,308.44960249299766,None,g,1,1.1868188150001515,309.9825682189985,None,309.9825682189985,None,309.9825682189985,None,311.21608143499907,None,311.21608143499907,None,311.21608143499907,None,311.21608143499907,None,,,,,,,,,,,,,,,,,,,,,,,,,,,,,,,,,,,,,,,,,,,,001,45,2020_Jan_30_1403,spring_faces,3.1.5,60.2430792589955,
condition files/Stage0c_1.xlsx,0c,alpha,phi,h,"['h', 'g']","['Chess', 'Go']","[-0.15, 0.5]","[0.15, 0.5]",1,1,0,16,16,16,0,2,2,1,,,,,,,,,,,,,,,,,,,,,,,,,,,,,,,,,,,,,,,,,,,,,,,,,,,,,,,,,,,,,,,313.19946543399783,None,313.19946543399783,None,313.19946543399783,None,h,1,0.7561604059992533,314.73322366799766,None,314.73322366799766,None,314.73322366799766,None,315.5493426389985,None,315.5493426389985,None,315.5493426389985,None,315.5493426389985,None,,,,,,,,,,,,,,,,,,,,,,,,,,,,,,,,,,,,,,,,,,,,001,45,2020_Jan_30_1403,spring_faces,3.1.5,60.2430792589955,
condition files/Stage0c_1.xlsx,0c,theta,alpha,h,"['h', 'g']","['Chess', 'Go']","[-0.15, 0.5]","[0.15, 0.5]",1,1,0,16,16,16,0,3,3,0,,,,,,,,,,,,,,,,,,,,,,,,,,,,,,,,,,,,,,,,,,,,,,,,,,,,,,,,,,,,,,,317.5162939559996,None,317.5162939559996,None,317.5162939559996,None,h,1,0.9841416150011355,319.0492010300004,None,319.0492010300004,None,319.0492010300004,None,320.08256435300063,None,320.08256435300063,None,320.08256435300063,None,320.08256435300063,None,,,,,,,,,,,,,,,,,,,,,,,,,,,,,,,,,,,,,,,,,,,,001,45,2020_Jan_30_1403,spring_faces,3.1.5,60.2430792589955,
condition files/Stage0c_2.xlsx,0c,alpha,theta,h,"['h', 'g']","['Chess', 'Go']","[-0.15, 0.5]","[0.15, 0.5]",1,1,0,17,17,17,0,0,0,0,,,,,,,,,,,,,,,,,,,,,,,,,,,,,,,,,,,,,,,,,,,,,,,,,,,,,,,,,,,,,,,322.08295407100013,None,322.08295407100013,None,322.08295407100013,None,h,1,1.4089868900009606,323.6164711040001,None,323.6164711040001,None,323.6164711040001,None,325.06832638999913,None,325.06832638999913,None,325.06832638999913,None,325.06832638999913,None,,,,,,,,,,,,,,,,,,,,,,,,,,,,,,,,,,,,,,,,,,,,001,45,2020_Jan_30_1403,spring_faces,3.1.5,60.2430792589955,
condition files/Stage0c_2.xlsx,0c,theta,beta,g,"['h', 'g']","['Chess', 'Go']","[-0.15, 0.5]","[0.15, 0.5]",1,1,0,17,17,17,0,1,1,2,,,,,,,,,,,,,,,,,,,,,,,,,,,,,,,,,,,,,,,,,,,,,,,,,,,,,,,,,,,,,,,327.048771234,None,327.048771234,None,327.048771234,None,g,1,1.0023268140030268,328.58305305799877,None,328.58305305799877,None,328.58305305799877,None,329.6500036010002,None,329.6500036010002,None,329.6500036010002,None,329.6500036010002,None,,,,,,,,,,,,,,,,,,,,,,,,,,,,,,,,,,,,,,,,,,,,001,45,2020_Jan_30_1403,spring_faces,3.1.5,60.2430792589955,
condition files/Stage0c_2.xlsx,0c,beta,phi,g,"['h', 'g']","['Chess', 'Go']","[-0.15, 0.5]","[0.15, 0.5]",1,1,0,17,17,17,0,2,2,3,,,,,,,,,,,,,,,,,,,,,,,,,,,,,,,,,,,,,,,,,,,,,,,,,,,,,,,,,,,,,,,331.6158229879984,None,331.6158229879984,None,331.6158229879984,None,g,1,2.5316585290020157,333.14971946199876,None,333.14971946199876,None,333.14971946199876,None,335.71778339400043,None,335.71778339400043,None,335.71778339400043,None,335.71778339400043,None,,,,,,,,,,,,,,,,,,,,,,,,,,,,,,,,,,,,,,,,,,,,001,45,2020_Jan_30_1403,spring_faces,3.1.5,60.2430792589955,
condition files/Stage0c_2.xlsx,0c,phi,alpha,h,"['h', 'g']","['Chess', 'Go']","[-0.15, 0.5]","[0.15, 0.5]",1,1,0,17,17,17,0,3,3,1,,,,,,,,,,,,,,,,,,,,,,,,,,,,,,,,,,,,,,,,,,,,,,,,,,,,,,,,,,,,,,,337.69983344499997,None,337.69983344499997,None,337.69983344499997,None,h,1,0.768494430998544,339.23285301099895,None,339.23285301099895,None,339.23285301099895,None,340.0664963300005,None,340.0664963300005,None,340.0664963300005,None,340.0664963300005,None,,,,,,,,,,,,,,,,,,,,,,,,,,,,,,,,,,,,,,,,,,,,001,45,2020_Jan_30_1403,spring_faces,3.1.5,60.2430792589955,
,,,,,,,,,,,,,,,,,,,,,,,,,,,,,,,,,,,,,,,,,,,,,,,,,,,,,,,,,,,,,,,,,,,,,,,,,,,,,,,,,,,,,,,,,,,,,,,,,,,,,,,,342.0497043840005,None,space,0.9835704580000311,347.0497786119995,None,,,,,,,,,,,,,,,,,,,,,,,,,,,,,,,,,,,,,,001,45,2020_Jan_30_1403,spring_faces,3.1.5,60.2430792589955,
condition files/Stage1_1.xlsx,,T4,B3,m,"['c', 'm']","['Clue', 'Monopoly']","[-0.15, 0.5]","[0.15, 0.5]",1,1,,,,,,,,,0,0,0,0,0,0,0,6,,,,,,,,,,,,,,,,,,,,,,,,,,,,,,,,,,,,,,,,,,,,,,,,,,,,,,,348.10001806999935,None,348.10001806999935,None,348.10001806999935,None,c,0,1.3920263200016052,349.63342645599914,None,349.63342645599914,None,349.63342645599914,None,351.11649394899723,None,351.11649394899723,None,351.11649394899723,None,351.11649394899723,None,,,,,,,347.0497786119995,None,,,,,,,,,,,,,,,,,,,,,,,,,,,,,,,,,,,,001,45,2020_Jan_30_1403,spring_faces,3.1.5,60.2430792589955,
condition files/Stage1_1.xlsx,,B4,T4,m,"['c', 'm']","['Clue', 'Monopoly']","[-0.15, 0.5]","[0.15, 0.5]",1,1,,,,,,,,,0,0,0,0,0,1,1,7,,,,,,,,,,,,,,,,,,,,,,,,,,,,,,,,,,,,,,,,,,,,,,,,,,,,,,,353.04942341700007,None,353.04942341700007,None,353.04942341700007,None,m,1,1.4497159230013494,354.5996579879975,None,354.5996579879975,None,354.5996579879975,None,356.1000870559983,None,356.1000870559983,None,356.1000870559983,None,356.1000870559983,None,,,,,,,,,,,,,,,,,,,,,,,,,,,,,,,,,,,,,,,,,,,,001,45,2020_Jan_30_1403,spring_faces,3.1.5,60.2430792589955,
condition files/Stage1_1.xlsx,,T1,B1,c,"['c', 'm']","['Clue', 'Monopoly']","[-0.15, 0.5]","[0.15, 0.5]",1,1,,,,,,,,,0,0,0,0,0,2,2,0,,,,,,,,,,,,,,,,,,,,,,,,,,,,,,,,,,,,,,,,,,,,,,,,,,,,,,,358.066205187999,None,358.066205187999,None,358.066205187999,None,c,1,1.0096418819994142,359.5997488180001,None,359.5997488180001,None,359.5997488180001,None,360.6681406030002,None,360.6681406030002,None,360.6681406030002,None,360.6681406030002,None,,,,,,,,,,,,,,,,,,,,,,,,,,,,,,,,,,,,,,,,,,,,001,45,2020_Jan_30_1403,spring_faces,3.1.5,60.2430792589955,
condition files/Stage1_1.xlsx,,B1,T2,c,"['c', 'm']","['Clue', 'Monopoly']","[-0.15, 0.5]","[0.15, 0.5]",1,1,,,,,,,,,0,0,0,0,0,3,3,1,,,,,,,,,,,,,,,,,,,,,,,,,,,,,,,,,,,,,,,,,,,,,,,,,,,,,,,362.63253188399904,None,362.63253188399904,None,362.63253188399904,None,c,1,0.8582566590011993,364.1672141199997,None,364.1672141199997,None,364.1672141199997,None,365.0825855559997,None,365.0825855559997,None,365.0825855559997,None,365.0825855559997,None,,,,,,,,,,,,,,,,,,,,,,,,,,,,,,,,,,,,,,,,,,,,001,45,2020_Jan_30_1403,spring_faces,3.1.5,60.2430792589955,
condition files/Stage1_1.xlsx,,B3,T3,c,"['c', 'm']","['Clue', 'Monopoly']","[-0.15, 0.5]","[0.15, 0.5]",1,1,,,,,,,,,0,0,0,0,0,4,4,4,,,,,,,,,,,,,,,,,,,,,,,,,,,,,,,,,,,,,,,,,,,,,,,,,,,,,,,367.0492348089974,None,367.0492348089974,None,367.0492348089974,None,c,1,1.3857795190015167,368.58362362299886,None,368.58362362299886,None,368.58362362299886,None,370.033105180999,None,370.033105180999,None,370.033105180999,None,370.033105180999,None,,,,,,,,,,,,,,,,,,,,,,,,,,,,,,,,,,,,,,,,,,,,001,45,2020_Jan_30_1403,spring_faces,3.1.5,60.2430792589955,
condition files/Stage1_1.xlsx,,B2,T1,m,"['c', 'm']","['Clue', 'Monopoly']","[-0.15, 0.5]","[0.15, 0.5]",1,1,,,,,,,,,0,0,0,0,0,5,5,2,,,,,,,,,,,,,,,,,,,,,,,,,,,,,,,,,,,,,,,,,,,,,,,,,,,,,,,371.99944603699987,None,371.99944603699987,None,371.99944603699987,None,m,1,1.3783116879967565,373.5830825640005,None,373.5830825640005,None,373.5830825640005,None,375.0327999769979,None,375.0327999769979,None,375.0327999769979,None,375.0327999769979,None,,,,,,,,,,,,,,,,,,,,,,,,,,,,,,,,,,,,,,,,,,,,001,45,2020_Jan_30_1403,spring_faces,3.1.5,60.2430792589955,
condition files/Stage1_1.xlsx,,T2,B2,m,"['c', 'm']","['Clue', 'Monopoly']","[-0.15, 0.5]","[0.15, 0.5]",1,1,,,,,,,,,0,0,0,0,0,6,6,3,,,,,,,,,,,,,,,,,,,,,,,,,,,,,,,,,,,,,,,,,,,,,,,,,,,,,,,376.98255503399923,None,376.98255503399923,None,376.98255503399923,None,c,0,2.6209751320020587,378.5163824880001,None,378.5163824880001,None,378.5163824880001,None,381.1996594230004,None,381.1996594230004,None,381.1996594230004,None,381.1996594230004,None,,,,,,,,,,,,,,,,,,,,,,,,,,,,,,,,,,,,,,,,,,,,001,45,2020_Jan_30_1403,spring_faces,3.1.5,60.2430792589955,
condition files/Stage1_1.xlsx,,T3,B4,c,"['c', 'm']","['Clue', 'Monopoly']","[-0.15, 0.5]","[0.15, 0.5]",1,1,,,,,,,,,0,0,0,0,0,7,7,5,,,,,,,,,,,,,,,,,,,,,,,,,,,,,,,,,,,,,,,,,,,,,,,,,,,,,,,383.1661805099975,None,383.1661805099975,None,383.1661805099975,None,c,1,2.374134678997507,384.69932900300046,None,384.69932900300046,None,384.69932900300046,None,387.1333839759973,None,387.1333839759973,None,387.1333839759973,None,387.1333839759973,None,,,,,,,,,,,,,,,,,,,,,,,,,,,,,,,,,,,,,,,,,,,,001,45,2020_Jan_30_1403,spring_faces,3.1.5,60.2430792589955,
condition files/Stage1_2.xlsx,,B3,T4,m,"['c', 'm']","['Clue', 'Monopoly']","[-0.15, 0.5]","[0.15, 0.5]",1,1,,,,,,,,,0,1,1,1,0,0,0,6,,,,,,,,,,,,,,,,,,,,,,,,,,,,,,,,,,,,,,,,,,,,,,,,,,,,,,,389.1159365509993,None,389.1159365509993,None,389.1159365509993,None,m,1,0.855138918999728,390.6662710479977,None,390.6662710479977,None,390.6662710479977,None,391.58547441799965,None,391.58547441799965,None,391.58547441799965,None,391.58547441799965,None,,,,,,,,,,,,,,,,,,,,,,,,,,,,,,,,,,,,,,,,,,,,001,45,2020_Jan_30_1403,spring_faces,3.1.5,60.2430792589955,
condition files/Stage1_2.xlsx,,B2,T2,m,"['c', 'm']","['Clue', 'Monopoly']","[-0.15, 0.5]","[0.15, 0.5]",1,1,,,,,,,,,0,1,1,1,0,1,1,3,,,,,,,,,,,,,,,,,,,,,,,,,,,,,,,,,,,,,,,,,,,,,,,,,,,,,,,393.54961384499984,None,393.54961384499984,None,393.54961384499984,None,m,1,1.6859812130023784,395.0834271959975,None,395.0834271959975,None,395.0834271959975,None,396.8331690999985,None,396.8331690999985,None,396.8331690999985,None,396.8331690999985,None,,,,,,,,,,,,,,,,,,,,,,,,,,,,,,,,,,,,,,,,,,,,001,45,2020_Jan_30_1403,spring_faces,3.1.5,60.2430792589955,
condition files/Stage1_2.xlsx,,B4,T3,c,"['c', 'm']","['Clue', 'Monopoly']","[-0.15, 0.5]","[0.15, 0.5]",1,1,,,,,,,,,0,1,1,1,0,2,2,5,,,,,,,,,,,,,,,,,,,,,,,,,,,,,,,,,,,,,,,,,,,,,,,,,,,,,,,398.79923756199787,None,398.79923756199787,None,398.79923756199787,None,c,1,0.8501829319975513,400.33521450499757,None,400.33521450499757,None,400.33521450499757,None,401.25201081699925,None,401.25201081699925,None,401.25201081699925,None,401.25201081699925,None,,,,,,,,,,,,,,,,,,,,,,,,,,,,,,,,,,,,,,,,,,,,001,45,2020_Jan_30_1403,spring_faces,3.1.5,60.2430792589955,
condition files/Stage1_2.xlsx,,T3,B3,c,"['c', 'm']","['Clue', 'Monopoly']","[-0.15, 0.5]","[0.15, 0.5]",1,1,,,,,,,,,0,1,1,1,0,3,3,4,,,,,,,,,,,,,,,,,,,,,,,,,,,,,,,,,,,,,,,,,,,,,,,,,,,,,,,403.21618852900065,None,403.21618852900065,None,403.21618852900065,None,c,1,1.026640320000297,404.7668054869973,None,404.7668054869973,None,404.7668054869973,None,405.84973801699743,None,405.84973801699743,None,405.84973801699743,None,405.84973801699743,None,,,,,,,,,,,,,,,,,,,,,,,,,,,,,,,,,,,,,,,,,,,,001,45,2020_Jan_30_1403,spring_faces,3.1.5,60.2430792589955,
condition files/Stage1_2.xlsx,,T1,B2,m,"['c', 'm']","['Clue', 'Monopoly']","[-0.15, 0.5]","[0.15, 0.5]",1,1,,,,,,,,,0,1,1,1,0,4,4,2,,,,,,,,,,,,,,,,,,,,,,,,,,,,,,,,,,,,,,,,,,,,,,,,,,,,,,,407.81635594699765,None,407.81635594699765,None,407.81635594699765,None,m,1,1.498124513997027,409.3512847460006,None,409.3512847460006,None,409.3512847460006,None,410.91648503800025,None,410.91648503800025,None,410.91648503800025,None,410.91648503800025,None,,,,,,,,,,,,,,,,,,,,,,,,,,,,,,,,,,,,,,,,,,,,001,45,2020_Jan_30_1403,spring_faces,3.1.5,60.2430792589955,
condition files/Stage1_2.xlsx,,T2,B1,c,"['c', 'm']","['Clue', 'Monopoly']","[-0.15, 0.5]","[0.15, 0.5]",1,1,,,,,,,,,0,1,1,1,0,5,5,1,,,,,,,,,,,,,,,,,,,,,,,,,,,,,,,,,,,,,,,,,,,,,,,,,,,,,,,412.86622086900024,None,412.86622086900024,None,412.86622086900024,None,m,0,1.008412382001552,414.40097828099897,None,414.40097828099897,None,414.40097828099897,None,415.46754242799943,None,415.46754242799943,None,415.46754242799943,None,415.46754242799943,None,,,,,,,,,,,,,,,,,,,,,,,,,,,,,,,,,,,,,,,,,,,,001,45,2020_Jan_30_1403,spring_faces,3.1.5,60.2430792589955,
condition files/Stage1_2.xlsx,,T4,B4,m,"['c', 'm']","['Clue', 'Monopoly']","[-0.15, 0.5]","[0.15, 0.5]",1,1,,,,,,,,,0,1,1,1,0,6,6,7,,,,,,,,,,,,,,,,,,,,,,,,,,,,,,,,,,,,,,,,,,,,,,,,,,,,,,,417.4326225609984,None,417.4326225609984,None,417.4326225609984,None,m,1,0.7782206709998718,418.98310841700004,None,418.98310841700004,None,418.98310841700004,None,419.8331783779977,None,419.8331783779977,None,419.8331783779977,None,419.8331783779977,None,,,,,,,,,,,,,,,,,,,,,,,,,,,,,,,,,,,,,,,,,,,,001,45,2020_Jan_30_1403,spring_faces,3.1.5,60.2430792589955,
condition files/Stage1_2.xlsx,,B1,T1,c,"['c', 'm']","['Clue', 'Monopoly']","[-0.15, 0.5]","[0.15, 0.5]",1,1,,,,,,,,,0,1,1,1,0,7,7,0,,,,,,,,,,,,,,,,,,,,,,,,,,,,,,,,,,,,,,,,,,,,,,,,,,,,,,,421.78287422799986,None,421.78287422799986,None,421.78287422799986,None,m,0,0.7333526500005974,423.3160445479989,None,423.3160445479989,None,423.3160445479989,None,424.10037171399745,None,424.10037171399745,None,424.10037171399745,None,424.10037171399745,None,,,,,,,,,,,,,,,,,,,,,,,,,,,,,,,,,,,,,,,,,,,,001,45,2020_Jan_30_1403,spring_faces,3.1.5,60.2430792589955,
condition files/Stage1_1.xlsx,,B2,T1,m,"['c', 'm']","['Clue', 'Monopoly']","[-0.15, 0.5]","[0.15, 0.5]",1,1,,,,,,,,,0,2,2,2,0,0,0,2,,,,,,,,,,,,,,,,,,,,,,,,,,,,,,,,,,,,,,,,,,,,,,,,,,,,,,,426.08249290299864,None,426.08249290299864,None,426.08249290299864,None,m,1,0.9913754959998187,427.61801857799946,None,427.61801857799946,None,427.61801857799946,None,428.66657495099935,None,428.66657495099935,None,428.66657495099935,None,428.66657495099935,None,,,,,,,,,,,,,,,,,,,,,,,,,,,,,,,,,,,,,,,,,,,,001,45,2020_Jan_30_1403,spring_faces,3.1.5,60.2430792589955,
condition files/Stage1_1.xlsx,,B4,T4,m,"['c', 'm']","['Clue', 'Monopoly']","[-0.15, 0.5]","[0.15, 0.5]",1,1,,,,,,,,,0,2,2,2,0,1,1,7,,,,,,,,,,,,,,,,,,,,,,,,,,,,,,,,,,,,,,,,,,,,,,,,,,,,,,,430.63214123799844,None,430.63214123799844,None,430.63214123799844,None,m,1,0.7129737229988677,432.1684241369985,None,432.1684241369985,None,432.1684241369985,None,432.9332248289975,None,432.9332248289975,None,432.9332248289975,None,432.9332248289975,None,,,,,,,,,,,,,,,,,,,,,,,,,,,,,,,,,,,,,,,,,,,,001,45,2020_Jan_30_1403,spring_faces,3.1.5,60.2430792589955,
condition files/Stage1_1.xlsx,,T1,B1,c,"['c', 'm']","['Clue', 'Monopoly']","[-0.15, 0.5]","[0.15, 0.5]",1,1,,,,,,,,,0,2,2,2,0,2,2,0,,,,,,,,,,,,,,,,,,,,,,,,,,,,,,,,,,,,,,,,,,,,,,,,,,,,,,,434.8992288749978,None,434.8992288749978,None,434.8992288749978,None,c,1,1.248614046999137,436.43278365899823,None,436.43278365899823,None,436.43278365899823,None,437.7342746719987,None,437.7342746719987,None,437.7342746719987,None,437.7342746719987,None,,,,,,,,,,,,,,,,,,,,,,,,,,,,,,,,,,,,,,,,,,,,001,45,2020_Jan_30_1403,spring_faces,3.1.5,60.2430792589955,
condition files/Stage1_1.xlsx,,T4,B3,m,"['c', 'm']","['Clue', 'Monopoly']","[-0.15, 0.5]","[0.15, 0.5]",1,1,,,,,,,,,0,2,2,2,0,3,3,6,,,,,,,,,,,,,,,,,,,,,,,,,,,,,,,,,,,,,,,,,,,,,,,,,,,,,,,439.69966064599794,None,439.69966064599794,None,439.69966064599794,None,m,1,1.6799615109994193,441.2496137499984,None,441.2496137499984,None,441.2496137499984,None,442.9841927609996,None,442.9841927609996,None,442.9841927609996,None,442.9841927609996,None,,,,,,,,,,,,,,,,,,,,,,,,,,,,,,,,,,,,,,,,,,,,001,45,2020_Jan_30_1403,spring_faces,3.1.5,60.2430792589955,
condition files/Stage1_1.xlsx,,T2,B2,m,"['c', 'm']","['Clue', 'Monopoly']","[-0.15, 0.5]","[0.15, 0.5]",1,1,,,,,,,,,0,2,2,2,0,4,4,3,,,,,,,,,,,,,,,,,,,,,,,,,,,,,,,,,,,,,,,,,,,,,,,,,,,,,,,444.94917123399864,None,444.94917123399864,None,444.94917123399864,None,m,1,1.950473143999261,446.482878507999,None,446.482878507999,None,446.482878507999,None,448.49916137000037,None,448.49916137000037,None,448.49916137000037,None,448.49916137000037,None,,,,,,,,,,,,,,,,,,,,,,,,,,,,,,,,,,,,,,,,,,,,001,45,2020_Jan_30_1403,spring_faces,3.1.5,60.2430792589955,
condition files/Stage1_1.xlsx,,B3,T3,c,"['c', 'm']","['Clue', 'Monopoly']","[-0.15, 0.5]","[0.15, 0.5]",1,1,,,,,,,,,0,2,2,2,0,5,5,4,,,,,,,,,,,,,,,,,,,,,,,,,,,,,,,,,,,,,,,,,,,,,,,,,,,,,,,450.46618147499976,None,450.46618147499976,None,450.46618147499976,None,m,0,1.8410143920009432,452.01643776499986,None,452.01643776499986,None,452.01643776499986,None,453.9163527769997,None,453.9163527769997,None,453.9163527769997,None,453.9163527769997,None,,,,,,,,,,,,,,,,,,,,,,,,,,,,,,,,,,,,,,,,,,,,001,45,2020_Jan_30_1403,spring_faces,3.1.5,60.2430792589955,
condition files/Stage1_1.xlsx,,T3,B4,c,"['c', 'm']","['Clue', 'Monopoly']","[-0.15, 0.5]","[0.15, 0.5]",1,1,,,,,,,,,0,2,2,2,0,6,6,5,,,,,,,,,,,,,,,,,,,,,,,,,,,,,,,,,,,,,,,,,,,,,,,,,,,,,,,455.8827740880006,None,455.8827740880006,None,455.8827740880006,None,c,1,0.7448083570016024,457.41656505399806,None,457.41656505399806,None,457.41656505399806,None,458.2168267979978,None,458.2168267979978,None,458.2168267979978,None,458.2168267979978,None,,,,,,,,,,,,,,,,,,,,,,,,,,,,,,,,,,,,,,,,,,,,001,45,2020_Jan_30_1403,spring_faces,3.1.5,60.2430792589955,
condition files/Stage1_1.xlsx,,B1,T2,c,"['c', 'm']","['Clue', 'Monopoly']","[-0.15, 0.5]","[0.15, 0.5]",1,1,,,,,,,,,0,2,2,2,0,7,7,1,,,,,,,,,,,,,,,,,,,,,,,,,,,,,,,,,,,,,,,,,,,,,,,,,,,,,,,460.18250451899803,None,460.18250451899803,None,460.18250451899803,None,m,0,1.0213207509987114,461.71609603199977,None,461.71609603199977,None,461.71609603199977,None,462.79978097799903,None,462.79978097799903,None,462.79978097799903,None,462.79978097799903,None,,,,,,,,,,,,,,,,,,,,,,,,,,,,,,,,,,,,,,,,,,,,001,45,2020_Jan_30_1403,spring_faces,3.1.5,60.2430792589955,
condition files/Stage1_2.xlsx,,B3,T4,m,"['c', 'm']","['Clue', 'Monopoly']","[-0.15, 0.5]","[0.15, 0.5]",1,1,,,,,,,,,0,3,3,3,0,0,0,6,,,,,,,,,,,,,,,,,,,,,,,,,,,,,,,,,,,,,,,,,,,,,,,,,,,,,,,464.7825967559984,None,464.7825967559984,None,464.7825967559984,None,m,1,0.9492502590001095,466.3161532939994,None,466.3161532939994,None,466.3161532939994,None,467.31818307199865,None,467.31818307199865,None,467.31818307199865,None,467.31818307199865,None,,,,,,,,,,,,,,,,,,,,,,,,,,,,,,,,,,,,,,,,,,,,001,45,2020_Jan_30_1403,spring_faces,3.1.5,60.2430792589955,
condition files/Stage1_2.xlsx,,T4,B4,m,"['c', 'm']","['Clue', 'Monopoly']","[-0.15, 0.5]","[0.15, 0.5]",1,1,,,,,,,,,0,3,3,3,0,1,1,7,,,,,,,,,,,,,,,,,,,,,,,,,,,,,,,,,,,,,,,,,,,,,,,,,,,,,,,469.28204019999976,None,469.28204019999976,None,469.28204019999976,None,m,1,0.7348161990012159,470.818596273999,None,470.818596273999,None,470.818596273999,None,471.6163767149992,None,471.6163767149992,None,471.6163767149992,None,471.6163767149992,None,,,,,,,,,,,,,,,,,,,,,,,,,,,,,,,,,,,,,,,,,,,,001,45,2020_Jan_30_1403,spring_faces,3.1.5,60.2430792589955,
condition files/Stage1_2.xlsx,,T1,B2,m,"['c', 'm']","['Clue', 'Monopoly']","[-0.15, 0.5]","[0.15, 0.5]",1,1,,,,,,,,,0,3,3,3,0,2,2,2,,,,,,,,,,,,,,,,,,,,,,,,,,,,,,,,,,,,,,,,,,,,,,,,,,,,,,,473.58277371099757,None,473.58277371099757,None,473.58277371099757,None,m,1,1.84481008000148,475.1166217579994,None,475.1166217579994,None,475.1166217579994,None,477.01647058099843,None,477.01647058099843,None,477.01647058099843,None,477.01647058099843,None,,,,,,,,,,,,,,,,,,,,,,,,,,,,,,,,,,,,,,,,,,,,001,45,2020_Jan_30_1403,spring_faces,3.1.5,60.2430792589955,
condition files/Stage1_2.xlsx,,B2,T2,m,"['c', 'm']","['Clue', 'Monopoly']","[-0.15, 0.5]","[0.15, 0.5]",1,1,,,,,,,,,0,3,3,3,0,3,3,3,,,,,,,,,,,,,,,,,,,,,,,,,,,,,,,,,,,,,,,,,,,,,,,,,,,,,,,478.9828404619984,None,478.9828404619984,None,478.9828404619984,None,m,1,1.4204364559991518,480.5169771639994,None,480.5169771639994,None,480.5169771639994,None,481.99921037499735,None,481.99921037499735,None,481.99921037499735,None,481.99921037499735,None,,,,,,,,,,,,,,,,,,,,,,,,,,,,,,,,,,,,,,,,,,,,001,45,2020_Jan_30_1403,spring_faces,3.1.5,60.2430792589955,
condition files/Stage1_2.xlsx,,T2,B1,c,"['c', 'm']","['Clue', 'Monopoly']","[-0.15, 0.5]","[0.15, 0.5]",1,1,,,,,,,,,0,3,3,3,0,4,4,1,,,,,,,,,,,,,,,,,,,,,,,,,,,,,,,,,,,,,,,,,,,,,,,,,,,,,,,483.9661984049999,None,483.9661984049999,None,483.9661984049999,None,c,1,0.9981354199990164,485.4992206329989,None,485.4992206329989,None,485.4992206329989,None,486.54939615499825,None,486.54939615499825,None,486.54939615499825,None,486.54939615499825,None,,,,,,,,,,,,,,,,,,,,,,,,,,,,,,,,,,,,,,,,,,,,001,45,2020_Jan_30_1403,spring_faces,3.1.5,60.2430792589955,
condition files/Stage1_2.xlsx,,B4,T3,c,"['c', 'm']","['Clue', 'Monopoly']","[-0.15, 0.5]","[0.15, 0.5]",1,1,,,,,,,,,0,3,3,3,0,5,5,5,,,,,,,,,,,,,,,,,,,,,,,,,,,,,,,,,,,,,,,,,,,,,,,,,,,,,,,488.5162101669994,None,488.5162101669994,None,488.5162101669994,None,c,1,1.4229582490006578,490.06642204799937,None,490.06642204799937,None,490.06642204799937,None,491.5494400759999,None,491.5494400759999,None,491.5494400759999,None,491.5494400759999,None,,,,,,,,,,,,,,,,,,,,,,,,,,,,,,,,,,,,,,,,,,,,001,45,2020_Jan_30_1403,spring_faces,3.1.5,60.2430792589955,
condition files/Stage1_2.xlsx,,B1,T1,c,"['c', 'm']","['Clue', 'Monopoly']","[-0.15, 0.5]","[0.15, 0.5]",1,1,,,,,,,,,0,3,3,3,0,6,6,0,,,,,,,,,,,,,,,,,,,,,,,,,,,,,,,,,,,,,,,,,,,,,,,,,,,,,,,493.5160501249993,None,493.5160501249993,None,493.5160501249993,None,m,0,0.9028619320015423,495.0665228809994,None,495.0665228809994,None,495.0665228809994,None,496.0333194859995,None,496.0333194859995,None,496.0333194859995,None,496.0333194859995,None,,,,,,,,,,,,,,,,,,,,,,,,,,,,,,,,,,,,,,,,,,,,001,45,2020_Jan_30_1403,spring_faces,3.1.5,60.2430792589955,
condition files/Stage1_2.xlsx,,T3,B3,c,"['c', 'm']","['Clue', 'Monopoly']","[-0.15, 0.5]","[0.15, 0.5]",1,1,,,,,,,,,0,3,3,3,0,7,7,4,,,,,,,,,,,,,,,,,,,,,,,,,,,,,,,,,,,,,,,,,,,,,,,,,,,,,,,497.9998465209974,None,497.9998465209974,None,497.9998465209974,None,c,1,1.604142692998721,499.5332759209996,None,499.5332759209996,None,499.5332759209996,None,501.2000345749984,None,501.2000345749984,None,501.2000345749984,None,501.2000345749984,None,,,,,,,,,,,,,,,,,,,,,,,,,,,,,,,,,,,,,,,,,,,,001,45,2020_Jan_30_1403,spring_faces,3.1.5,60.2430792589955,
condition files/Stage1_1.xlsx,,T4,B3,m,"['c', 'm']","['Clue', 'Monopoly']","[-0.15, 0.5]","[0.15, 0.5]",1,1,,,,,,,,,0,4,4,4,0,0,0,6,,,,,,,,,,,,,,,,,,,,,,,,,,,,,,,,,,,,,,,,,,,,,,,,,,,,,,,503.1825252239978,None,503.1825252239978,None,503.1825252239978,None,m,1,0.8841211610015307,504.7172920599987,None,504.7172920599987,None,504.7172920599987,None,505.6831715849985,None,505.6831715849985,None,505.6831715849985,None,505.6831715849985,None,,,,,,,,,,,,,,,,,,,,,,,,,,,,,,,,,,,,,,,,,,,,001,45,2020_Jan_30_1403,spring_faces,3.1.5,60.2430792589955,
condition files/Stage1_1.xlsx,,T2,B2,m,"['c', 'm']","['Clue', 'Monopoly']","[-0.15, 0.5]","[0.15, 0.5]",1,1,,,,,,,,,0,4,4,4,0,1,1,3,,,,,,,,,,,,,,,,,,,,,,,,,,,,,,,,,,,,,,,,,,,,,,,,,,,,,,,507.6323469710005,None,507.6323469710005,None,507.6323469710005,None,m,1,2.674394082998333,509.18306568799744,None,509.18306568799744,None,509.18306568799744,None,511.9157815309991,None,511.9157815309991,None,511.9157815309991,None,511.9157815309991,None,,,,,,,,,,,,,,,,,,,,,,,,,,,,,,,,,,,,,,,,,,,,001,45,2020_Jan_30_1403,spring_faces,3.1.5,60.2430792589955,
condition files/Stage1_1.xlsx,,B3,T3,c,"['c', 'm']","['Clue', 'Monopoly']","[-0.15, 0.5]","[0.15, 0.5]",1,1,,,,,,,,,0,4,4,4,0,2,2,4,,,,,,,,,,,,,,,,,,,,,,,,,,,,,,,,,,,,,,,,,,,,,,,,,,,,,,,513.8829646239974,None,513.8829646239974,None,513.8829646239974,None,c,1,1.239171389999683,515.4182998949982,None,515.4182998949982,None,515.4182998949982,None,516.716498668,None,516.716498668,None,516.716498668,None,516.716498668,None,,,,,,,,,,,,,,,,,,,,,,,,,,,,,,,,,,,,,,,,,,,,001,45,2020_Jan_30_1403,spring_faces,3.1.5,60.2430792589955,
condition files/Stage1_1.xlsx,,T1,B1,c,"['c', 'm']","['Clue', 'Monopoly']","[-0.15, 0.5]","[0.15, 0.5]",1,1,,,,,,,,,0,4,4,4,0,3,3,0,,,,,,,,,,,,,,,,,,,,,,,,,,,,,,,,,,,,,,,,,,,,,,,,,,,,,,,518.6824757670001,None,518.6824757670001,None,518.6824757670001,None,c,1,1.3040760769981716,520.217331541,None,520.217331541,None,520.217331541,None,521.5832086679984,None,521.5832086679984,None,521.5832086679984,None,521.5832086679984,None,,,,,,,,,,,,,,,,,,,,,,,,,,,,,,,,,,,,,,,,,,,,001,45,2020_Jan_30_1403,spring_faces,3.1.5,60.2430792589955,
condition files/Stage1_1.xlsx,,B4,T4,m,"['c', 'm']","['Clue', 'Monopoly']","[-0.15, 0.5]","[0.15, 0.5]",1,1,,,,,,,,,0,4,4,4,0,4,4,7,,,,,,,,,,,,,,,,,,,,,,,,,,,,,,,,,,,,,,,,,,,,,,,,,,,,,,,523.5498798299996,None,523.5498798299996,None,523.5498798299996,None,m,1,0.6607062039984157,525.0846655459973,None,525.0846655459973,None,525.0846655459973,None,525.8013015949982,None,525.8013015949982,None,525.8013015949982,None,525.8013015949982,None,,,,,,,,,,,,,,,,,,,,,,,,,,,,,,,,,,,,,,,,,,,,001,45,2020_Jan_30_1403,spring_faces,3.1.5,60.2430792589955,
condition files/Stage1_1.xlsx,,B1,T2,c,"['c', 'm']","['Clue', 'Monopoly']","[-0.15, 0.5]","[0.15, 0.5]",1,1,,,,,,,,,0,4,4,4,0,5,5,1,,,,,,,,,,,,,,,,,,,,,,,,,,,,,,,,,,,,,,,,,,,,,,,,,,,,,,,527.7664738130006,None,527.7664738130006,None,527.7664738130006,None,c,1,2.7008906789997127,529.3164403919982,None,529.3164403919982,None,529.3164403919982,None,532.082661477998,None,532.082661477998,None,532.082661477998,None,532.082661477998,None,,,,,,,,,,,,,,,,,,,,,,,,,,,,,,,,,,,,,,,,,,,,001,45,2020_Jan_30_1403,spring_faces,3.1.5,60.2430792589955,
condition files/Stage1_1.xlsx,,T3,B4,c,"['c', 'm']","['Clue', 'Monopoly']","[-0.15, 0.5]","[0.15, 0.5]",1,1,,,,,,,,,0,4,4,4,0,6,6,5,,,,,,,,,,,,,,,,,,,,,,,,,,,,,,,,,,,,,,,,,,,,,,,,,,,,,,,534.0490885919971,None,534.0490885919971,None,534.0490885919971,None,c,1,0.8987746769998921,535.5826226440004,None,535.5826226440004,None,535.5826226440004,None,536.5332835810004,None,536.5332835810004,None,536.5332835810004,None,536.5332835810004,None,,,,,,,,,,,,,,,,,,,,,,,,,,,,,,,,,,,,,,,,,,,,001,45,2020_Jan_30_1403,spring_faces,3.1.5,60.2430792589955,
condition files/Stage1_1.xlsx,,B2,T1,m,"['c', 'm']","['Clue', 'Monopoly']","[-0.15, 0.5]","[0.15, 0.5]",1,1,,,,,,,,,0,4,4,4,0,7,7,2,,,,,,,,,,,,,,,,,,,,,,,,,,,,,,,,,,,,,,,,,,,,,,,,,,,,,,,538.4991963339999,None,538.4991963339999,None,538.4991963339999,None,m,1,0.7367410470033064,540.0326768419982,None,540.0326768419982,None,540.0326768419982,None,540.8326890869976,None,540.8326890869976,None,540.8326890869976,None,540.8326890869976,None,,,,,,,,,,,,,,,,,,,,,,,,,,,,,,,,,,,,,,,,,,,,001,45,2020_Jan_30_1403,spring_faces,3.1.5,60.2430792589955,
condition files/Stage1_2.xlsx,,T1,B2,m,"['c', 'm']","['Clue', 'Monopoly']","[-0.15, 0.5]","[0.15, 0.5]",1,1,,,,,,,,,0,5,5,5,0,0,0,2,,,,,,,,,,,,,,,,,,,,,,,,,,,,,,,,,,,,,,,,,,,,,,,,,,,,,,,542.8165725029976,None,542.8165725029976,None,542.8165725029976,None,m,1,1.2516351490012312,544.3497735799974,None,544.3497735799974,None,544.3497735799974,None,545.6663025140006,None,545.6663025140006,None,545.6663025140006,None,545.6663025140006,None,,,,,,,,,,,,,,,,,,,,,,,,,,,,,,,,,,,,,,,,,,,,001,45,2020_Jan_30_1403,spring_faces,3.1.5,60.2430792589955,
condition files/Stage1_2.xlsx,,T4,B4,m,"['c', 'm']","['Clue', 'Monopoly']","[-0.15, 0.5]","[0.15, 0.5]",1,1,,,,,,,,,0,5,5,5,0,1,1,7,,,,,,,,,,,,,,,,,,,,,,,,,,,,,,,,,,,,,,,,,,,,,,,,,,,,,,,547.6329051779976,None,547.6329051779976,None,547.6329051779976,None,m,1,0.946207125998626,549.1833836410005,None,549.1833836410005,None,549.1833836410005,None,550.1829021599988,None,550.1829021599988,None,550.1829021599988,None,550.1829021599988,None,,,,,,,,,,,,,,,,,,,,,,,,,,,,,,,,,,,,,,,,,,,,001,45,2020_Jan_30_1403,spring_faces,3.1.5,60.2430792589955,
condition files/Stage1_2.xlsx,,B1,T1,c,"['c', 'm']","['Clue', 'Monopoly']","[-0.15, 0.5]","[0.15, 0.5]",1,1,,,,,,,,,0,5,5,5,0,2,2,0,,,,,,,,,,,,,,,,,,,,,,,,,,,,,,,,,,,,,,,,,,,,,,,,,,,,,,,552.1489485269994,None,552.1489485269994,None,552.1489485269994,None,c,1,1.2767109039996285,553.6846360300005,None,553.6846360300005,None,553.6846360300005,None,555.0160972949998,None,555.0160972949998,None,555.0160972949998,None,555.0160972949998,None,,,,,,,,,,,,,,,,,,,,,,,,,,,,,,,,,,,,,,,,,,,,001,45,2020_Jan_30_1403,spring_faces,3.1.5,60.2430792589955,
condition files/Stage1_2.xlsx,,B4,T3,c,"['c', 'm']","['Clue', 'Monopoly']","[-0.15, 0.5]","[0.15, 0.5]",1,1,,,,,,,,,0,5,5,5,0,3,3,5,,,,,,,,,,,,,,,,,,,,,,,,,,,,,,,,,,,,,,,,,,,,,,,,,,,,,,,556.9823322550001,None,556.9823322550001,None,556.9823322550001,None,c,1,1.7250437299990153,558.5164265370004,None,558.5164265370004,None,558.5164265370004,None,560.2993985229987,None,560.2993985229987,None,560.2993985229987,None,560.2993985229987,None,,,,,,,,,,,,,,,,,,,,,,,,,,,,,,,,,,,,,,,,,,,,001,45,2020_Jan_30_1403,spring_faces,3.1.5,60.2430792589955,
condition files/Stage1_2.xlsx,,T3,B3,c,"['c', 'm']","['Clue', 'Monopoly']","[-0.15, 0.5]","[0.15, 0.5]",1,1,,,,,,,,,0,5,5,5,0,4,4,4,,,,,,,,,,,,,,,,,,,,,,,,,,,,,,,,,,,,,,,,,,,,,,,,,,,,,,,562.2661781919996,None,562.2661781919996,None,562.2661781919996,None,c,1,1.62502570200013,563.8164309290005,None,563.8164309290005,None,563.8164309290005,None,565.4994261829997,None,565.4994261829997,None,565.4994261829997,None,565.4994261829997,None,,,,,,,,,,,,,,,,,,,,,,,,,,,,,,,,,,,,,,,,,,,,001,45,2020_Jan_30_1403,spring_faces,3.1.5,60.2430792589955,
condition files/Stage1_2.xlsx,,B2,T2,m,"['c', 'm']","['Clue', 'Monopoly']","[-0.15, 0.5]","[0.15, 0.5]",1,1,,,,,,,,,0,5,5,5,0,5,5,3,,,,,,,,,,,,,,,,,,,,,,,,,,,,,,,,,,,,,,,,,,,,,,,,,,,,,,,567.465931535,None,567.465931535,None,567.465931535,None,c,0,1.3691225990005478,569.0162703789974,None,569.0162703789974,None,569.0162703789974,None,570.4508631190001,None,570.4508631190001,None,570.4508631190001,None,570.4508631190001,None,,,,,,,,,,,,,,,,,,,,,,,,,,,,,,,,,,,,,,,,,,,,001,45,2020_Jan_30_1403,spring_faces,3.1.5,60.2430792589955,
condition files/Stage1_2.xlsx,,T2,B1,c,"['c', 'm']","['Clue', 'Monopoly']","[-0.15, 0.5]","[0.15, 0.5]",1,1,,,,,,,,,0,5,5,5,0,6,6,1,,,,,,,,,,,,,,,,,,,,,,,,,,,,,,,,,,,,,,,,,,,,,,,,,,,,,,,572.4162570049994,None,572.4162570049994,None,572.4162570049994,None,c,1,0.9942474880008376,573.9511183369978,None,573.9511183369978,None,573.9511183369978,None,574.9999421020002,None,574.9999421020002,None,574.9999421020002,None,574.9999421020002,None,,,,,,,,,,,,,,,,,,,,,,,,,,,,,,,,,,,,,,,,,,,,001,45,2020_Jan_30_1403,spring_faces,3.1.5,60.2430792589955,
condition files/Stage1_2.xlsx,,B3,T4,m,"['c', 'm']","['Clue', 'Monopoly']","[-0.15, 0.5]","[0.15, 0.5]",1,1,,,,,,,,,0,5,5,5,0,7,7,6,,,,,,,,,,,,,,,,,,,,,,,,,,,,,,,,,,,,,,,,,,,,,,,,,,,,,,,576.9658619469992,None,576.9658619469992,None,576.9658619469992,None,m,1,0.6691317759978119,578.5002805119984,None,578.5002805119984,None,578.5002805119984,None,579.2337837489977,None,579.2337837489977,None,579.2337837489977,None,579.2337837489977,None,,,,,,,,,,,,,,,,,,,,,,,,,,,,,,,,,,,,,,,,,,,,001,45,2020_Jan_30_1403,spring_faces,3.1.5,60.2430792589955,
condition files/Stage1_1.xlsx,,B3,T3,c,"['c', 'm']","['Clue', 'Monopoly']","[-0.15, 0.5]","[0.15, 0.5]",1,1,,,,,,,,,0,6,6,6,0,0,0,4,,,,,,,,,,,,,,,,,,,,,,,,,,,,,,,,,,,,,,,,,,,,,,,,,,,,,,,581.2163967429988,None,581.2163967429988,None,581.2163967429988,None,c,1,1.3640246969989676,582.7493903639988,None,582.7493903639988,None,582.7493903639988,None,584.1660758079997,None,584.1660758079997,None,584.1660758079997,None,584.1660758079997,None,,,,,,,,,,,,,,,,,,,,,,,,,,,,,,,,,,,,,,,,,,,,001,45,2020_Jan_30_1403,spring_faces,3.1.5,60.2430792589955,
condition files/Stage1_1.xlsx,,T2,B2,m,"['c', 'm']","['Clue', 'Monopoly']","[-0.15, 0.5]","[0.15, 0.5]",1,1,,,,,,,,,0,6,6,6,0,1,1,3,,,,,,,,,,,,,,,,,,,,,,,,,,,,,,,,,,,,,,,,,,,,,,,,,,,,,,,586.1321784119973,None,586.1321784119973,None,586.1321784119973,None,m,1,1.6151034760005132,587.6663001880006,None,587.6663001880006,None,587.6663001880006,None,589.3499166059992,None,589.3499166059992,None,589.3499166059992,None,589.3499166059992,None,,,,,,,,,,,,,,,,,,,,,,,,,,,,,,,,,,,,,,,,,,,,001,45,2020_Jan_30_1403,spring_faces,3.1.5,60.2430792589955,
condition files/Stage1_1.xlsx,,B1,T2,c,"['c', 'm']","['Clue', 'Monopoly']","[-0.15, 0.5]","[0.15, 0.5]",1,1,,,,,,,,,0,6,6,6,0,2,2,1,,,,,,,,,,,,,,,,,,,,,,,,,,,,,,,,,,,,,,,,,,,,,,,,,,,,,,,591.2990272280003,None,591.2990272280003,None,591.2990272280003,None,c,1,1.055170485000417,592.850165582,None,592.850165582,None,592.850165582,None,593.9663672979987,None,593.9663672979987,None,593.9663672979987,None,593.9663672979987,None,,,,,,,,,,,,,,,,,,,,,,,,,,,,,,,,,,,,,,,,,,,,001,45,2020_Jan_30_1403,spring_faces,3.1.5,60.2430792589955,
condition files/Stage1_1.xlsx,,B4,T4,m,"['c', 'm']","['Clue', 'Monopoly']","[-0.15, 0.5]","[0.15, 0.5]",1,1,,,,,,,,,0,6,6,6,0,3,3,7,,,,,,,,,,,,,,,,,,,,,,,,,,,,,,,,,,,,,,,,,,,,,,,,,,,,,,,595.9331950769993,None,595.9331950769993,None,595.9331950769993,None,m,1,0.7095904130001145,597.4677795919997,None,597.4677795919997,None,597.4677795919997,None,598.233378738998,None,598.233378738998,None,598.233378738998,None,598.233378738998,None,,,,,,,,,,,,,,,,,,,,,,,,,,,,,,,,,,,,,,,,,,,,001,45,2020_Jan_30_1403,spring_faces,3.1.5,60.2430792589955,
condition files/Stage1_1.xlsx,,T4,B3,m,"['c', 'm']","['Clue', 'Monopoly']","[-0.15, 0.5]","[0.15, 0.5]",1,1,,,,,,,,,0,6,6,6,0,4,4,6,,,,,,,,,,,,,,,,,,,,,,,,,,,,,,,,,,,,,,,,,,,,,,,,,,,,,,,600.1994979539995,None,600.1994979539995,None,600.1994979539995,None,m,1,0.7803980709977623,601.7329997989982,None,601.7329997989982,None,601.7329997989982,None,602.5679714289981,None,602.5679714289981,None,602.5679714289981,None,602.5679714289981,None,,,,,,,,,,,,,,,,,,,,,,,,,,,,,,,,,,,,,,,,,,,,001,45,2020_Jan_30_1403,spring_faces,3.1.5,60.2430792589955,
condition files/Stage1_1.xlsx,,T3,B4,c,"['c', 'm']","['Clue', 'Monopoly']","[-0.15, 0.5]","[0.15, 0.5]",1,1,,,,,,,,,0,6,6,6,0,5,5,5,,,,,,,,,,,,,,,,,,,,,,,,,,,,,,,,,,,,,,,,,,,,,,,,,,,,,,,604.5329385919977,None,604.5329385919977,None,604.5329385919977,None,c,1,1.1654955119993247,606.0678983879989,None,606.0678983879989,None,606.0678983879989,None,607.2996088019972,None,607.2996088019972,None,607.2996088019972,None,607.2996088019972,None,,,,,,,,,,,,,,,,,,,,,,,,,,,,,,,,,,,,,,,,,,,,001,45,2020_Jan_30_1403,spring_faces,3.1.5,60.2430792589955,
condition files/Stage1_1.xlsx,,B2,T1,m,"['c', 'm']","['Clue', 'Monopoly']","[-0.15, 0.5]","[0.15, 0.5]",1,1,,,,,,,,,0,6,6,6,0,6,6,2,,,,,,,,,,,,,,,,,,,,,,,,,,,,,,,,,,,,,,,,,,,,,,,,,,,,,,,609.2494952589986,None,609.2494952589986,None,609.2494952589986,None,m,1,1.2175261309967027,610.7998138330004,None,610.7998138330004,None,610.7998138330004,None,612.0997789979992,None,612.0997789979992,None,612.0997789979992,None,612.0997789979992,None,,,,,,,,,,,,,,,,,,,,,,,,,,,,,,,,,,,,,,,,,,,,001,45,2020_Jan_30_1403,spring_faces,3.1.5,60.2430792589955,
condition files/Stage1_1.xlsx,,T1,B1,c,"['c', 'm']","['Clue', 'Monopoly']","[-0.15, 0.5]","[0.15, 0.5]",1,1,,,,,,,,,0,6,6,6,0,7,7,0,,,,,,,,,,,,,,,,,,,,,,,,,,,,,,,,,,,,,,,,,,,,,,,,,,,,,,,614.0494901429993,None,614.0494901429993,None,614.0494901429993,None,c,1,1.0086755379998067,615.5847873849998,None,615.5847873849998,None,615.5847873849998,None,616.6662330479994,None,616.6662330479994,None,616.6662330479994,None,616.6662330479994,None,,,,,,,,,,,,,,,,,,,,,,,,,,,,,,,,,,,,,,,,,,,,001,45,2020_Jan_30_1403,spring_faces,3.1.5,60.2430792589955,
condition files/Stage1_2.xlsx,,T4,B4,m,"['c', 'm']","['Clue', 'Monopoly']","[-0.15, 0.5]","[0.15, 0.5]",1,1,,,,,,,,,0,7,7,7,0,0,0,7,,,,,,,,,,,,,,,,,,,,,,,,,,,,,,,,,,,,,,,,,,,,,,,,,,,,,,,618.6332223559984,None,618.6332223559984,None,618.6332223559984,None,m,1,0.8260957450002024,620.1832693689976,None,620.1832693689976,None,620.1832693689976,None,621.0827286459971,None,621.0827286459971,None,621.0827286459971,None,621.0827286459971,None,,,,,,,,,,,,,,,,,,,,,,,,,,,,,,,,,,,,,,,,,,,,001,45,2020_Jan_30_1403,spring_faces,3.1.5,60.2430792589955,
condition files/Stage1_2.xlsx,,T2,B1,c,"['c', 'm']","['Clue', 'Monopoly']","[-0.15, 0.5]","[0.15, 0.5]",1,1,,,,,,,,,0,7,7,7,0,1,1,1,,,,,,,,,,,,,,,,,,,,,,,,,,,,,,,,,,,,,,,,,,,,,,,,,,,,,,,623.0328812999978,None,623.0328812999978,None,623.0328812999978,None,c,1,1.3697456819973013,624.5836513739996,None,624.5836513739996,None,624.5836513739996,None,626.0190620520007,None,626.0190620520007,None,626.0190620520007,None,626.0190620520007,None,,,,,,,,,,,,,,,,,,,,,,,,,,,,,,,,,,,,,,,,,,,,001,45,2020_Jan_30_1403,spring_faces,3.1.5,60.2430792589955,
condition files/Stage1_2.xlsx,,B3,T4,m,"['c', 'm']","['Clue', 'Monopoly']","[-0.15, 0.5]","[0.15, 0.5]",1,1,,,,,,,,,0,7,7,7,0,2,2,6,,,,,,,,,,,,,,,,,,,,,,,,,,,,,,,,,,,,,,,,,,,,,,,,,,,,,,,627.9828805969992,None,627.9828805969992,None,627.9828805969992,None,m,1,0.9963654649982345,629.5170411679974,None,629.5170411679974,None,629.5170411679974,None,630.5830145649998,None,630.5830145649998,None,630.5830145649998,None,630.5830145649998,None,,,,,,,,,,,,,,,,,,,,,,,,,,,,,,,,,,,,,,,,,,,,001,45,2020_Jan_30_1403,spring_faces,3.1.5,60.2430792589955,
condition files/Stage1_2.xlsx,,T3,B3,c,"['c', 'm']","['Clue', 'Monopoly']","[-0.15, 0.5]","[0.15, 0.5]",1,1,,,,,,,,,0,7,7,7,0,3,3,4,,,,,,,,,,,,,,,,,,,,,,,,,,,,,,,,,,,,,,,,,,,,,,,,,,,,,,,632.5328098059981,None,632.5328098059981,None,632.5328098059981,None,c,1,1.1499258699986967,634.0674547259987,None,634.0674547259987,None,634.0674547259987,None,635.2997524229977,None,635.2997524229977,None,635.2997524229977,None,635.2997524229977,None,,,,,,,,,,,,,,,,,,,,,,,,,,,,,,,,,,,,,,,,,,,,001,45,2020_Jan_30_1403,spring_faces,3.1.5,60.2430792589955,
condition files/Stage1_2.xlsx,,T1,B2,m,"['c', 'm']","['Clue', 'Monopoly']","[-0.15, 0.5]","[0.15, 0.5]",1,1,,,,,,,,,0,7,7,7,0,4,4,2,,,,,,,,,,,,,,,,,,,,,,,,,,,,,,,,,,,,,,,,,,,,,,,,,,,,,,,637.2491769879998,None,637.2491769879998,None,637.2491769879998,None,m,1,1.4418342400022084,638.7996199929985,None,638.7996199929985,None,638.7996199929985,None,640.3156841679993,None,640.3156841679993,None,640.3156841679993,None,640.3156841679993,None,,,,,,,,,,,,,,,,,,,,,,,,,,,,,,,,,,,,,,,,,,,,001,45,2020_Jan_30_1403,spring_faces,3.1.5,60.2430792589955,
condition files/Stage1_2.xlsx,,B1,T1,c,"['c', 'm']","['Clue', 'Monopoly']","[-0.15, 0.5]","[0.15, 0.5]",1,1,,,,,,,,,0,7,7,7,0,5,5,0,,,,,,,,,,,,,,,,,,,,,,,,,,,,,,,,,,,,,,,,,,,,,,,,,,,,,,,642.2658386359981,None,642.2658386359981,None,642.2658386359981,None,c,1,0.8080972409989045,643.8013101469987,None,643.8013101469987,None,643.8013101469987,None,644.683108543999,None,644.683108543999,None,644.683108543999,None,644.683108543999,None,,,,,,,,,,,,,,,,,,,,,,,,,,,,,,,,,,,,,,,,,,,,001,45,2020_Jan_30_1403,spring_faces,3.1.5,60.2430792589955,
condition files/Stage1_2.xlsx,,B2,T2,m,"['c', 'm']","['Clue', 'Monopoly']","[-0.15, 0.5]","[0.15, 0.5]",1,1,,,,,,,,,0,7,7,7,0,6,6,3,,,,,,,,,,,,,,,,,,,,,,,,,,,,,,,,,,,,,,,,,,,,,,,,,,,,,,,646.6327048819985,None,646.6327048819985,None,646.6327048819985,None,m,1,1.5788161499986018,648.1825509429982,None,648.1825509429982,None,648.1825509429982,None,649.817291927,None,649.817291927,None,649.817291927,None,649.817291927,None,,,,,,,,,,,,,,,,,,,,,,,,,,,,,,,,,,,,,,,,,,,,001,45,2020_Jan_30_1403,spring_faces,3.1.5,60.2430792589955,
condition files/Stage1_2.xlsx,,B4,T3,c,"['c', 'm']","['Clue', 'Monopoly']","[-0.15, 0.5]","[0.15, 0.5]",1,1,,,,,,,,,0,7,7,7,0,7,7,5,,,,,,,,,,,,,,,,,,,,,,,,,,,,,,,,,,,,,,,,,,,,,,,,,,,,,,,651.7826362199994,None,651.7826362199994,None,651.7826362199994,None,c,1,0.9566798249979911,653.3327781320004,None,653.3327781320004,None,653.3327781320004,None,654.350032282,None,654.350032282,None,654.350032282,None,654.350032282,None,,,,,,,,,,,,,,,,,,,,,,,,,,,,,,,,,,,,,,,,,,,,001,45,2020_Jan_30_1403,spring_faces,3.1.5,60.2430792589955,
condition files/Stage1_1.xlsx,,T2,B2,m,"['c', 'm']","['Clue', 'Monopoly']","[-0.15, 0.5]","[0.15, 0.5]",1,1,,,,,,,,,0,8,8,8,0,0,0,3,,,,,,,,,,,,,,,,,,,,,,,,,,,,,,,,,,,,,,,,,,,,,,,,,,,,,,,656.3331702649994,None,656.3331702649994,None,656.3331702649994,None,m,1,1.8299841289990582,657.8674242399975,None,657.8674242399975,None,657.8674242399975,None,659.7660106859985,None,659.7660106859985,None,659.7660106859985,None,659.7660106859985,None,,,,,,,,,,,,,,,,,,,,,,,,,,,,,,,,,,,,,,,,,,,,001,45,2020_Jan_30_1403,spring_faces,3.1.5,60.2430792589955,
condition files/Stage1_1.xlsx,,B1,T2,c,"['c', 'm']","['Clue', 'Monopoly']","[-0.15, 0.5]","[0.15, 0.5]",1,1,,,,,,,,,0,8,8,8,0,1,1,1,,,,,,,,,,,,,,,,,,,,,,,,,,,,,,,,,,,,,,,,,,,,,,,,,,,,,,,661.716530679998,None,661.716530679998,None,661.716530679998,None,c,1,0.7678614569995261,663.2494821910004,None,663.2494821910004,None,663.2494821910004,None,664.0999994999984,None,664.0999994999984,None,664.0999994999984,None,664.0999994999984,None,,,,,,,,,,,,,,,,,,,,,,,,,,,,,,,,,,,,,,,,,,,,001,45,2020_Jan_30_1403,spring_faces,3.1.5,60.2430792589955,
condition files/Stage1_1.xlsx,,B3,T3,c,"['c', 'm']","['Clue', 'Monopoly']","[-0.15, 0.5]","[0.15, 0.5]",1,1,,,,,,,,,0,8,8,8,0,2,2,4,,,,,,,,,,,,,,,,,,,,,,,,,,,,,,,,,,,,,,,,,,,,,,,,,,,,,,,666.0492124669981,None,666.0492124669981,None,666.0492124669981,None,c,1,0.9141744970002037,667.5832374159982,None,667.5832374159982,None,667.5832374159982,None,668.5496692050001,None,668.5496692050001,None,668.5496692050001,None,668.5496692050001,None,,,,,,,,,,,,,,,,,,,,,,,,,,,,,,,,,,,,,,,,,,,,001,45,2020_Jan_30_1403,spring_faces,3.1.5,60.2430792589955,
condition files/Stage1_1.xlsx,,B2,T1,m,"['c', 'm']","['Clue', 'Monopoly']","[-0.15, 0.5]","[0.15, 0.5]",1,1,,,,,,,,,0,8,8,8,0,3,3,2,,,,,,,,,,,,,,,,,,,,,,,,,,,,,,,,,,,,,,,,,,,,,,,,,,,,,,,670.5161056399993,None,670.5161056399993,None,670.5161056399993,None,m,1,1.1360464390018024,672.0493536670001,None,672.0493536670001,None,672.0493536670001,None,673.2524526999987,None,673.2524526999987,None,673.2524526999987,None,673.2524526999987,None,,,,,,,,,,,,,,,,,,,,,,,,,,,,,,,,,,,,,,,,,,,,001,45,2020_Jan_30_1403,spring_faces,3.1.5,60.2430792589955,
condition files/Stage1_1.xlsx,,T3,B4,c,"['c', 'm']","['Clue', 'Monopoly']","[-0.15, 0.5]","[0.15, 0.5]",1,1,,,,,,,,,0,8,8,8,0,4,4,5,,,,,,,,,,,,,,,,,,,,,,,,,,,,,,,,,,,,,,,,,,,,,,,,,,,,,,,675.2161954629992,None,675.2161954629992,None,675.2161954629992,None,c,1,1.0432204709977668,676.7661615599973,None,676.7661615599973,None,676.7661615599973,None,677.8687941179996,None,677.8687941179996,None,677.8687941179996,None,677.8687941179996,None,,,,,,,,,,,,,,,,,,,,,,,,,,,,,,,,,,,,,,,,,,,,001,45,2020_Jan_30_1403,spring_faces,3.1.5,60.2430792589955,
condition files/Stage1_1.xlsx,,T4,B3,m,"['c', 'm']","['Clue', 'Monopoly']","[-0.15, 0.5]","[0.15, 0.5]",1,1,,,,,,,,,0,8,8,8,0,5,5,6,,,,,,,,,,,,,,,,,,,,,,,,,,,,,,,,,,,,,,,,,,,,,,,,,,,,,,,679.8327919129988,None,679.8327919129988,None,679.8327919129988,None,m,1,0.7464992549976159,681.3668818229999,None,681.3668818229999,None,681.3668818229999,None,682.1829080949974,None,682.1829080949974,None,682.1829080949974,None,682.1829080949974,None,,,,,,,,,,,,,,,,,,,,,,,,,,,,,,,,,,,,,,,,,,,,001,45,2020_Jan_30_1403,spring_faces,3.1.5,60.2430792589955,
condition files/Stage1_1.xlsx,,T1,B1,c,"['c', 'm']","['Clue', 'Monopoly']","[-0.15, 0.5]","[0.15, 0.5]",1,1,,,,,,,,,0,8,8,8,0,6,6,0,,,,,,,,,,,,,,,,,,,,,,,,,,,,,,,,,,,,,,,,,,,,,,,,,,,,,,,684.1329878569995,None,684.1329878569995,None,684.1329878569995,None,c,1,1.2633169010005076,685.666159638,None,685.666159638,None,685.666159638,None,686.9830305929972,None,686.9830305929972,None,686.9830305929972,None,686.9830305929972,None,,,,,,,,,,,,,,,,,,,,,,,,,,,,,,,,,,,,,,,,,,,,001,45,2020_Jan_30_1403,spring_faces,3.1.5,60.2430792589955,
condition files/Stage1_1.xlsx,,B4,T4,m,"['c', 'm']","['Clue', 'Monopoly']","[-0.15, 0.5]","[0.15, 0.5]",1,1,,,,,,,,,0,8,8,8,0,7,7,7,,,,,,,,,,,,,,,,,,,,,,,,,,,,,,,,,,,,,,,,,,,,,,,,,,,,,,,688.9489831840001,None,688.9489831840001,None,688.9489831840001,None,m,1,0.813594543000363,690.4838111889985,None,690.4838111889985,None,690.4838111889985,None,691.350713863998,None,691.350713863998,None,691.350713863998,None,691.350713863998,None,,,,,,,,,,,,,,,,,,,,,,,,,,,,,,,,,,,,,,,,,,,,001,45,2020_Jan_30_1403,spring_faces,3.1.5,60.2430792589955,
condition files/Stage1_2.xlsx,,T1,B2,m,"['c', 'm']","['Clue', 'Monopoly']","[-0.15, 0.5]","[0.15, 0.5]",1,1,,,,,,,,,0,9,9,9,0,0,0,2,,,,,,,,,,,,,,,,,,,,,,,,,,,,,,,,,,,,,,,,,,,,,,,,,,,,,,,693.3324152549976,None,693.3324152549976,None,693.3324152549976,None,m,1,1.4051167350007745,694.8683451659999,None,694.8683451659999,None,694.8683451659999,None,696.3326665450004,None,696.3326665450004,None,696.3326665450004,None,696.3326665450004,None,,,,,,,,,,,,,,,,,,,,,,,,,,,,,,,,,,,,,,,,,,,,001,45,2020_Jan_30_1403,spring_faces,3.1.5,60.2430792589955,
condition files/Stage1_2.xlsx,,T4,B4,m,"['c', 'm']","['Clue', 'Monopoly']","[-0.15, 0.5]","[0.15, 0.5]",1,1,,,,,,,,,0,9,9,9,0,1,1,7,,,,,,,,,,,,,,,,,,,,,,,,,,,,,,,,,,,,,,,,,,,,,,,,,,,,,,,698.2994911309979,None,698.2994911309979,None,698.2994911309979,None,m,1,0.8860847310024837,699.8353257739982,None,699.8353257739982,None,699.8353257739982,None,700.783146941998,None,700.783146941998,None,700.783146941998,None,700.783146941998,None,,,,,,,,,,,,,,,,,,,,,,,,,,,,,,,,,,,,,,,,,,,,001,45,2020_Jan_30_1403,spring_faces,3.1.5,60.2430792589955,
condition files/Stage1_2.xlsx,,T3,B3,c,"['c', 'm']","['Clue', 'Monopoly']","[-0.15, 0.5]","[0.15, 0.5]",1,1,,,,,,,,,0,9,9,9,0,2,2,4,,,,,,,,,,,,,,,,,,,,,,,,,,,,,,,,,,,,,,,,,,,,,,,,,,,,,,,702.7494468289988,None,702.7494468289988,None,702.7494468289988,None,c,1,0.7575264309998602,704.2839400789999,None,704.2839400789999,None,704.2839400789999,None,705.1162121109992,None,705.1162121109992,None,705.1162121109992,None,705.1162121109992,None,,,,,,,,,,,,,,,,,,,,,,,,,,,,,,,,,,,,,,,,,,,,001,45,2020_Jan_30_1403,spring_faces,3.1.5,60.2430792589955,
condition files/Stage1_2.xlsx,,B1,T1,c,"['c', 'm']","['Clue', 'Monopoly']","[-0.15, 0.5]","[0.15, 0.5]",1,1,,,,,,,,,0,9,9,9,0,3,3,0,,,,,,,,,,,,,,,,,,,,,,,,,,,,,,,,,,,,,,,,,,,,,,,,,,,,,,,707.0658966720002,None,707.0658966720002,None,707.0658966720002,None,c,1,0.9037102729998878,708.601755112999,None,708.601755112999,None,708.601755112999,None,709.5659521300004,None,709.5659521300004,None,709.5659521300004,None,709.5659521300004,None,,,,,,,,,,,,,,,,,,,,,,,,,,,,,,,,,,,,,,,,,,,,001,45,2020_Jan_30_1403,spring_faces,3.1.5,60.2430792589955,
condition files/Stage1_2.xlsx,,B3,T4,m,"['c', 'm']","['Clue', 'Monopoly']","[-0.15, 0.5]","[0.15, 0.5]",1,1,,,,,,,,,0,9,9,9,0,4,4,6,,,,,,,,,,,,,,,,,,,,,,,,,,,,,,,,,,,,,,,,,,,,,,,,,,,,,,,711.5328094599972,None,711.5328094599972,None,711.5328094599972,None,m,1,0.8861866539991752,713.083214514998,None,713.083214514998,None,713.083214514998,None,714.0347353590005,None,714.0347353590005,None,714.0347353590005,None,714.0347353590005,None,,,,,,,,,,,,,,,,,,,,,,,,,,,,,,,,,,,,,,,,,,,,001,45,2020_Jan_30_1403,spring_faces,3.1.5,60.2430792589955,
condition files/Stage1_2.xlsx,,T2,B1,c,"['c', 'm']","['Clue', 'Monopoly']","[-0.15, 0.5]","[0.15, 0.5]",1,1,,,,,,,,,0,9,9,9,0,5,5,1,,,,,,,,,,,,,,,,,,,,,,,,,,,,,,,,,,,,,,,,,,,,,,,,,,,,,,,715.9995412379976,None,715.9995412379976,None,715.9995412379976,None,c,1,1.0273796170004061,717.5499756739991,None,717.5499756739991,None,717.5499756739991,None,718.6346895959978,None,718.6346895959978,None,718.6346895959978,None,718.6346895959978,None,,,,,,,,,,,,,,,,,,,,,,,,,,,,,,,,,,,,,,,,,,,,001,45,2020_Jan_30_1403,spring_faces,3.1.5,60.2430792589955,
condition files/Stage1_2.xlsx,,B2,T2,m,"['c', 'm']","['Clue', 'Monopoly']","[-0.15, 0.5]","[0.15, 0.5]",1,1,,,,,,,,,0,9,9,9,0,6,6,3,,,,,,,,,,,,,,,,,,,,,,,,,,,,,,,,,,,,,,,,,,,,,,,,,,,,,,,720.5993842549979,None,720.5993842549979,None,720.5993842549979,None,m,1,1.307622401000117,722.1498340029975,None,722.1498340029975,None,722.1498340029975,None,723.5187173060003,None,723.5187173060003,None,723.5187173060003,None,723.5187173060003,None,,,,,,,,,,,,,,,,,,,,,,,,,,,,,,,,,,,,,,,,,,,,001,45,2020_Jan_30_1403,spring_faces,3.1.5,60.2430792589955,
condition files/Stage1_2.xlsx,,B4,T3,c,"['c', 'm']","['Clue', 'Monopoly']","[-0.15, 0.5]","[0.15, 0.5]",1,1,,,,,,,,,0,9,9,9,0,7,7,5,,,,,,,,,,,,,,,,,,,,,,,,,,,,,,,,,,,,,,,,,,,,,,,,,,,,,,,725.4824121709971,None,725.4824121709971,None,725.4824121709971,None,c,1,1.2245539440009452,727.032905439999,None,727.032905439999,None,727.032905439999,None,728.3324468489991,None,728.3324468489991,None,728.3324468489991,None,728.3324468489991,None,,,,,,,,,,,,,,,,,,,,,,,,,,,,,,,,,,,,,,,,,,,,001,45,2020_Jan_30_1403,spring_faces,3.1.5,60.2430792589955,
condition files/Stage1_1.xlsx,,T1,B1,c,"['c', 'm']","['Clue', 'Monopoly']","[-0.15, 0.5]","[0.15, 0.5]",1,1,,,,,,,,,0,10,10,10,0,0,0,0,,,,,,,,,,,,,,,,,,,,,,,,,,,,,,,,,,,,,,,,,,,,,,,,,,,,,,,730.2995476010001,None,730.2995476010001,None,730.2995476010001,None,c,1,1.7831023590006225,731.8342707379998,None,731.8342707379998,None,731.8342707379998,None,733.6830309359975,None,733.6830309359975,None,733.6830309359975,None,733.6830309359975,None,,,,,,,,,,,,,,,,,,,,,,,,,,,,,,,,,,,,,,,,,,,,001,45,2020_Jan_30_1403,spring_faces,3.1.5,60.2430792589955,
condition files/Stage1_1.xlsx,,B3,T3,c,"['c', 'm']","['Clue', 'Monopoly']","[-0.15, 0.5]","[0.15, 0.5]",1,1,,,,,,,,,0,10,10,10,0,1,1,4,,,,,,,,,,,,,,,,,,,,,,,,,,,,,,,,,,,,,,,,,,,,,,,,,,,,,,,735.6495159499973,None,735.6495159499973,None,735.6495159499973,None,c,1,1.2969348869992245,737.1844760959975,None,737.1844760959975,None,737.1844760959975,None,738.5331532469972,None,738.5331532469972,None,738.5331532469972,None,738.5331532469972,None,,,,,,,,,,,,,,,,,,,,,,,,,,,,,,,,,,,,,,,,,,,,001,45,2020_Jan_30_1403,spring_faces,3.1.5,60.2430792589955,
condition files/Stage1_1.xlsx,,T4,B3,m,"['c', 'm']","['Clue', 'Monopoly']","[-0.15, 0.5]","[0.15, 0.5]",1,1,,,,,,,,,0,10,10,10,0,2,2,6,,,,,,,,,,,,,,,,,,,,,,,,,,,,,,,,,,,,,,,,,,,,,,,,,,,,,,,740.4996441469993,None,740.4996441469993,None,740.4996441469993,None,m,1,1.1197914779986604,742.0336290119994,None,742.0336290119994,None,742.0336290119994,None,743.2330130379996,None,743.2330130379996,None,743.2330130379996,None,743.2330130379996,None,,,,,,,,,,,,,,,,,,,,,,,,,,,,,,,,,,,,,,,,,,,,001,45,2020_Jan_30_1403,spring_faces,3.1.5,60.2430792589955,
condition files/Stage1_1.xlsx,,B4,T4,m,"['c', 'm']","['Clue', 'Monopoly']","[-0.15, 0.5]","[0.15, 0.5]",1,1,,,,,,,,,0,10,10,10,0,3,3,7,,,,,,,,,,,,,,,,,,,,,,,,,,,,,,,,,,,,,,,,,,,,,,,,,,,,,,,745.1827974179978,None,745.1827974179978,None,745.1827974179978,None,m,1,1.1552101989982475,746.7182602699977,None,746.7182602699977,None,746.7182602699977,None,747.9327743600006,None,747.9327743600006,None,747.9327743600006,None,747.9327743600006,None,,,,,,,,,,,,,,,,,,,,,,,,,,,,,,,,,,,,,,,,,,,,001,45,2020_Jan_30_1403,spring_faces,3.1.5,60.2430792589955,
condition files/Stage1_1.xlsx,,T3,B4,c,"['c', 'm']","['Clue', 'Monopoly']","[-0.15, 0.5]","[0.15, 0.5]",1,1,,,,,,,,,0,10,10,10,0,4,4,5,,,,,,,,,,,,,,,,,,,,,,,,,,,,,,,,,,,,,,,,,,,,,,,,,,,,,,,749.8991894009996,None,749.8991894009996,None,749.8991894009996,None,c,1,1.0796700030005013,751.4499155949998,None,751.4499155949998,None,751.4499155949998,None,752.5846066929989,None,752.5846066929989,None,752.5846066929989,None,752.5846066929989,None,,,,,,,,,,,,,,,,,,,,,,,,,,,,,,,,,,,,,,,,,,,,001,45,2020_Jan_30_1403,spring_faces,3.1.5,60.2430792589955,
condition files/Stage1_1.xlsx,,B2,T1,m,"['c', 'm']","['Clue', 'Monopoly']","[-0.15, 0.5]","[0.15, 0.5]",1,1,,,,,,,,,0,10,10,10,0,5,5,2,,,,,,,,,,,,,,,,,,,,,,,,,,,,,,,,,,,,,,,,,,,,,,,,,,,,,,,754.5492835799996,None,754.5492835799996,None,754.5492835799996,None,m,1,0.7972741369994765,756.0841362270003,None,756.0841362270003,None,756.0841362270003,None,756.9341799129979,None,756.9341799129979,None,756.9341799129979,None,756.9341799129979,None,,,,,,,,,,,,,,,,,,,,,,,,,,,,,,,,,,,,,,,,,,,,001,45,2020_Jan_30_1403,spring_faces,3.1.5,60.2430792589955,
condition files/Stage1_1.xlsx,,B1,T2,c,"['c', 'm']","['Clue', 'Monopoly']","[-0.15, 0.5]","[0.15, 0.5]",1,1,,,,,,,,,0,10,10,10,0,6,6,1,,,,,,,,,,,,,,,,,,,,,,,,,,,,,,,,,,,,,,,,,,,,,,,,,,,,,,,758.899422388,None,758.899422388,None,758.899422388,None,c,1,1.4238852339985897,760.4495763689993,None,760.4495763689993,None,760.4495763689993,None,761.9332815339985,None,761.9332815339985,None,761.9332815339985,None,761.9332815339985,None,,,,,,,,,,,,,,,,,,,,,,,,,,,,,,,,,,,,,,,,,,,,001,45,2020_Jan_30_1403,spring_faces,3.1.5,60.2430792589955,
condition files/Stage1_1.xlsx,,T2,B2,m,"['c', 'm']","['Clue', 'Monopoly']","[-0.15, 0.5]","[0.15, 0.5]",1,1,,,,,,,,,0,10,10,10,0,7,7,3,,,,,,,,,,,,,,,,,,,,,,,,,,,,,,,,,,,,,,,,,,,,,,,,,,,,,,,763.899693858999,None,763.899693858999,None,763.899693858999,None,m,1,1.8488983750030457,765.4325058329996,None,765.4325058329996,None,765.4325058329996,None,767.3353280599986,None,767.3353280599986,None,767.3353280599986,None,767.3353280599986,None,,,,,,,,,,,,,,,,,,,,,,,,,,,,,,,,,,,,,,,,,,,,001,45,2020_Jan_30_1403,spring_faces,3.1.5,60.2430792589955,
condition files/Stage1_2.xlsx,,B2,T2,m,"['c', 'm']","['Clue', 'Monopoly']","[-0.15, 0.5]","[0.15, 0.5]",1,1,,,,,,,,,0,11,11,11,0,0,0,3,,,,,,,,,,,,,,,,,,,,,,,,,,,,,,,,,,,,,,,,,,,,,,,,,,,,,,,769.3161801440001,None,769.3161801440001,None,769.3161801440001,None,m,1,1.4236038480012212,770.8658680959998,None,770.8658680959998,None,770.8658680959998,None,772.3498601280007,None,772.3498601280007,None,772.3498601280007,None,772.3498601280007,None,,,,,,,,,,,,,,,,,,,,,,,,,,,,,,,,,,,,,,,,,,,,001,45,2020_Jan_30_1403,spring_faces,3.1.5,60.2430792589955,
condition files/Stage1_2.xlsx,,B4,T3,c,"['c', 'm']","['Clue', 'Monopoly']","[-0.15, 0.5]","[0.15, 0.5]",1,1,,,,,,,,,0,11,11,11,0,1,1,5,,,,,,,,,,,,,,,,,,,,,,,,,,,,,,,,,,,,,,,,,,,,,,,,,,,,,,,774.3154023049974,None,774.3154023049974,None,774.3154023049974,None,c,1,1.2240173859972856,775.8494621969985,None,775.8494621969985,None,775.8494621969985,None,777.1498070679991,None,777.1498070679991,None,777.1498070679991,None,777.1498070679991,None,,,,,,,,,,,,,,,,,,,,,,,,,,,,,,,,,,,,,,,,,,,,001,45,2020_Jan_30_1403,spring_faces,3.1.5,60.2430792589955,
condition files/Stage1_2.xlsx,,B1,T1,c,"['c', 'm']","['Clue', 'Monopoly']","[-0.15, 0.5]","[0.15, 0.5]",1,1,,,,,,,,,0,11,11,11,0,2,2,0,,,,,,,,,,,,,,,,,,,,,,,,,,,,,,,,,,,,,,,,,,,,,,,,,,,,,,,779.0994874110002,None,779.0994874110002,None,779.0994874110002,None,c,1,1.320707926999603,780.6326913199991,None,780.6326913199991,None,780.6326913199991,None,782.0163526910001,None,782.0163526910001,None,782.0163526910001,None,782.0163526910001,None,,,,,,,,,,,,,,,,,,,,,,,,,,,,,,,,,,,,,,,,,,,,001,45,2020_Jan_30_1403,spring_faces,3.1.5,60.2430792589955,
condition files/Stage1_2.xlsx,,T3,B3,c,"['c', 'm']","['Clue', 'Monopoly']","[-0.15, 0.5]","[0.15, 0.5]",1,1,,,,,,,,,0,11,11,11,0,3,3,4,,,,,,,,,,,,,,,,,,,,,,,,,,,,,,,,,,,,,,,,,,,,,,,,,,,,,,,783.9828255779976,None,783.9828255779976,None,783.9828255779976,None,c,1,1.2850646090009832,785.5163493479995,None,785.5163493479995,None,785.5163493479995,None,786.8663328580005,None,786.8663328580005,None,786.8663328580005,None,786.8663328580005,None,,,,,,,,,,,,,,,,,,,,,,,,,,,,,,,,,,,,,,,,,,,,001,45,2020_Jan_30_1403,spring_faces,3.1.5,60.2430792589955,
condition files/Stage1_2.xlsx,,B3,T4,m,"['c', 'm']","['Clue', 'Monopoly']","[-0.15, 0.5]","[0.15, 0.5]",1,1,,,,,,,,,0,11,11,11,0,4,4,6,,,,,,,,,,,,,,,,,,,,,,,,,,,,,,,,,,,,,,,,,,,,,,,,,,,,,,,788.8326562519978,None,788.8326562519978,None,788.8326562519978,None,m,1,0.9778154250016087,790.3835313349991,None,790.3835313349991,None,790.3835313349991,None,791.4179219809994,None,791.4179219809994,None,791.4179219809994,None,791.4179219809994,None,,,,,,,,,,,,,,,,,,,,,,,,,,,,,,,,,,,,,,,,,,,,001,45,2020_Jan_30_1403,spring_faces,3.1.5,60.2430792589955,
condition files/Stage1_2.xlsx,,T2,B1,c,"['c', 'm']","['Clue', 'Monopoly']","[-0.15, 0.5]","[0.15, 0.5]",1,1,,,,,,,,,0,11,11,11,0,5,5,1,,,,,,,,,,,,,,,,,,,,,,,,,,,,,,,,,,,,,,,,,,,,,,,,,,,,,,,793.3825383859985,None,793.3825383859985,None,793.3825383859985,None,c,1,0.9549844600005599,794.9184934589975,None,794.9184934589975,None,794.9184934589975,None,795.9501881159995,None,795.9501881159995,None,795.9501881159995,None,795.9501881159995,None,,,,,,,,,,,,,,,,,,,,,,,,,,,,,,,,,,,,,,,,,,,,001,45,2020_Jan_30_1403,spring_faces,3.1.5,60.2430792589955,
condition files/Stage1_2.xlsx,,T1,B2,m,"['c', 'm']","['Clue', 'Monopoly']","[-0.15, 0.5]","[0.15, 0.5]",1,1,,,,,,,,,0,11,11,11,0,6,6,2,,,,,,,,,,,,,,,,,,,,,,,,,,,,,,,,,,,,,,,,,,,,,,,,,,,,,,,797.8996924309977,None,797.8996924309977,None,797.8996924309977,None,m,1,1.2559227579986327,799.4335179160007,None,799.4335179160007,None,799.4335179160007,None,800.7507531999981,None,800.7507531999981,None,800.7507531999981,None,800.7507531999981,None,,,,,,,,,,,,,,,,,,,,,,,,,,,,,,,,,,,,,,,,,,,,001,45,2020_Jan_30_1403,spring_faces,3.1.5,60.2430792589955,
condition files/Stage1_2.xlsx,,T4,B4,m,"['c', 'm']","['Clue', 'Monopoly']","[-0.15, 0.5]","[0.15, 0.5]",1,1,,,,,,,,,0,11,11,11,0,7,7,7,,,,,,,,,,,,,,,,,,,,,,,,,,,,,,,,,,,,,,,,,,,,,,,,,,,,,,,802.7160424659996,None,802.7160424659996,None,802.7160424659996,None,m,1,0.838644014998863,804.2508389619979,None,804.2508389619979,None,804.2508389619979,None,805.1492989100007,None,805.1492989100007,None,805.1492989100007,None,805.1492989100007,None,,,,,,,,,,,,,,,,,,,,,,,,,,,,,,,,,,,,,,,,,,,,001,45,2020_Jan_30_1403,spring_faces,3.1.5,60.2430792589955,
,,,,,,,,,,,,,,,,,,,,,,,,,,,,,,,,,,,,,,,,,,,,,,,,,,,,,,,,,,,,,,,,,,,,,,,,,,,,,,,,,,,,,,,,,,,,,,,,,,,,,,,,,,,,,,,,807.1331045900006,None,space,7.004343393000454,812.1331205639981,None,,,,,,,,,,,,,,,,,,,,,,,,,,,,,,001,45,2020_Jan_30_1403,spring_faces,3.1.5,60.2430792589955,
condition files/Stage2_1.xlsx,,T5,B5,s,"['s', 'r']","['Stratego', 'Risk']","[-0.15, 0.5]","[0.15, 0.5]",1,1,,,,,,,,,,,,,,,,,0,0,0,0,0,0,0,0,,,,,,,,,,,,,,,,,,,,,,,,,,,,,,,,,,,,,,,,,,,,,,,819.1995923789982,None,819.1995923789982,None,819.1995923789982,None,s,1,1.8603436679986771,820.7331248379996,None,820.7331248379996,None,820.7331248379996,None,822.6664777900005,None,822.6664777900005,None,822.6664777900005,None,822.6664777900005,None,,,,,,,,,,,,,,,812.1331205639981,None,,,,,,,,,,,,,,,,,,,,,,,,,,,,001,45,2020_Jan_30_1403,spring_faces,3.1.5,60.2430792589955,
condition files/Stage2_1.xlsx,,B2,T2,r,"['s', 'r']","['Stratego', 'Risk']","[-0.15, 0.5]","[0.15, 0.5]",1,1,,,,,,,,,,,,,,,,,0,0,0,0,0,1,1,3,,,,,,,,,,,,,,,,,,,,,,,,,,,,,,,,,,,,,,,,,,,,,,,824.6161919139995,None,824.6161919139995,None,824.6161919139995,None,r,1,1.2114455590017315,826.1659153439978,None,826.1659153439978,None,826.1659153439978,None,827.4490873719988,None,827.4490873719988,None,827.4490873719988,None,827.4490873719988,None,,,,,,,,,,,,,,,,,,,,,,,,,,,,,,,,,,,,,,,,,,,,001,45,2020_Jan_30_1403,spring_faces,3.1.5,60.2430792589955,
condition files/Stage2_1.xlsx,,B4,T4,r,"['s', 'r']","['Stratego', 'Risk']","[-0.15, 0.5]","[0.15, 0.5]",1,1,,,,,,,,,,,,,,,,,0,0,0,0,0,2,2,5,,,,,,,,,,,,,,,,,,,,,,,,,,,,,,,,,,,,,,,,,,,,,,,829.3998744749988,None,829.3998744749988,None,829.3998744749988,None,r,1,1.21160249100285,830.9497670489982,None,830.9497670489982,None,830.9497670489982,None,832.2164826570006,None,832.2164826570006,None,832.2164826570006,None,832.2164826570006,None,,,,,,,,,,,,,,,,,,,,,,,,,,,,,,,,,,,,,,,,,,,,001,45,2020_Jan_30_1403,spring_faces,3.1.5,60.2430792589955,
condition files/Stage2_1.xlsx,,B6,T6,r,"['s', 'r']","['Stratego', 'Risk']","[-0.15, 0.5]","[0.15, 0.5]",1,1,,,,,,,,,,,,,,,,,0,0,0,0,0,3,3,1,,,,,,,,,,,,,,,,,,,,,,,,,,,,,,,,,,,,,,,,,,,,,,,834.1827930509971,None,834.1827930509971,None,834.1827930509971,None,s,0,1.1002081840015308,835.733158518,None,835.733158518,None,835.733158518,None,836.9000742349999,None,836.9000742349999,None,836.9000742349999,None,836.9000742349999,None,,,,,,,,,,,,,,,,,,,,,,,,,,,,,,,,,,,,,,,,,,,,001,45,2020_Jan_30_1403,spring_faces,3.1.5,60.2430792589955,
condition files/Stage2_1.xlsx,,T1,B1,s,"['s', 'r']","['Stratego', 'Risk']","[-0.15, 0.5]","[0.15, 0.5]",1,1,,,,,,,,,,,,,,,,,0,0,0,0,0,4,4,2,,,,,,,,,,,,,,,,,,,,,,,,,,,,,,,,,,,,,,,,,,,,,,,838.8661923229993,None,838.8661923229993,None,838.8661923229993,None,s,1,1.4250729460000002,840.4004176169983,None,840.4004176169983,None,840.4004176169983,None,841.8839446479979,None,841.8839446479979,None,841.8839446479979,None,841.8839446479979,None,,,,,,,,,,,,,,,,,,,,,,,,,,,,,,,,,,,,,,,,,,,,001,45,2020_Jan_30_1403,spring_faces,3.1.5,60.2430792589955,
condition files/Stage2_1.xlsx,,T3,B3,s,"['s', 'r']","['Stratego', 'Risk']","[-0.15, 0.5]","[0.15, 0.5]",1,1,,,,,,,,,,,,,,,,,0,0,0,0,0,5,5,4,,,,,,,,,,,,,,,,,,,,,,,,,,,,,,,,,,,,,,,,,,,,,,,843.8493286329976,None,843.8493286329976,None,843.8493286329976,None,r,0,1.2102500859982683,845.3832138819998,None,845.3832138819998,None,845.3832138819998,None,846.6499592809996,None,846.6499592809996,None,846.6499592809996,None,846.6499592809996,None,,,,,,,,,,,,,,,,,,,,,,,,,,,,,,,,,,,,,,,,,,,,001,45,2020_Jan_30_1403,spring_faces,3.1.5,60.2430792589955,
condition files/Stage2_2.xlsx,,T4,B4,r,"['s', 'r']","['Stratego', 'Risk']","[-0.15, 0.5]","[0.15, 0.5]",1,1,,,,,,,,,,,,,,,,,0,1,1,1,0,0,0,5,,,,,,,,,,,,,,,,,,,,,,,,,,,,,,,,,,,,,,,,,,,,,,,848.6329214430007,None,848.6329214430007,None,848.6329214430007,None,r,1,1.1146766749989183,850.1667362160006,None,850.1667362160006,None,850.1667362160006,None,851.3335677600007,None,851.3335677600007,None,851.3335677600007,None,851.3335677600007,None,,,,,,,,,,,,,,,,,,,,,,,,,,,,,,,,,,,,,,,,,,,,001,45,2020_Jan_30_1403,spring_faces,3.1.5,60.2430792589955,
condition files/Stage2_2.xlsx,,B3,T3,s,"['s', 'r']","['Stratego', 'Risk']","[-0.15, 0.5]","[0.15, 0.5]",1,1,,,,,,,,,,,,,,,,,0,1,1,1,0,1,1,4,,,,,,,,,,,,,,,,,,,,,,,,,,,,,,,,,,,,,,,,,,,,,,,853.2998068710003,None,853.2998068710003,None,853.2998068710003,None,s,1,1.4865578409990121,854.8348693400003,None,854.8348693400003,None,854.8348693400003,None,856.383053278998,None,856.383053278998,None,856.383053278998,None,856.383053278998,None,,,,,,,,,,,,,,,,,,,,,,,,,,,,,,,,,,,,,,,,,,,,001,45,2020_Jan_30_1403,spring_faces,3.1.5,60.2430792589955,
condition files/Stage2_2.xlsx,,T6,B6,r,"['s', 'r']","['Stratego', 'Risk']","[-0.15, 0.5]","[0.15, 0.5]",1,1,,,,,,,,,,,,,,,,,0,1,1,1,0,2,2,1,,,,,,,,,,,,,,,,,,,,,,,,,,,,,,,,,,,,,,,,,,,,,,,858.3494918629985,None,858.3494918629985,None,858.3494918629985,None,r,1,1.7980825710001227,859.8833292380004,None,859.8833292380004,None,859.8833292380004,None,861.7496246159972,None,861.7496246159972,None,861.7496246159972,None,861.7496246159972,None,,,,,,,,,,,,,,,,,,,,,,,,,,,,,,,,,,,,,,,,,,,,001,45,2020_Jan_30_1403,spring_faces,3.1.5,60.2430792589955,
condition files/Stage2_2.xlsx,,B1,T1,s,"['s', 'r']","['Stratego', 'Risk']","[-0.15, 0.5]","[0.15, 0.5]",1,1,,,,,,,,,,,,,,,,,0,1,1,1,0,3,3,2,,,,,,,,,,,,,,,,,,,,,,,,,,,,,,,,,,,,,,,,,,,,,,,863.6995712759999,None,863.6995712759999,None,863.6995712759999,None,s,1,1.0402715349991922,865.2332049689976,None,865.2332049689976,None,865.2332049689976,None,866.3334209130007,None,866.3334209130007,None,866.3334209130007,None,866.3334209130007,None,,,,,,,,,,,,,,,,,,,,,,,,,,,,,,,,,,,,,,,,,,,,001,45,2020_Jan_30_1403,spring_faces,3.1.5,60.2430792589955,
condition files/Stage2_2.xlsx,,T2,B2,r,"['s', 'r']","['Stratego', 'Risk']","[-0.15, 0.5]","[0.15, 0.5]",1,1,,,,,,,,,,,,,,,,,0,1,1,1,0,4,4,3,,,,,,,,,,,,,,,,,,,,,,,,,,,,,,,,,,,,,,,,,,,,,,,868.2989936169979,None,868.2989936169979,None,868.2989936169979,None,r,1,1.0968024249996233,869.832722187999,None,869.832722187999,None,869.832722187999,None,870.9839932039977,None,870.9839932039977,None,870.9839932039977,None,870.9839932039977,None,,,,,,,,,,,,,,,,,,,,,,,,,,,,,,,,,,,,,,,,,,,,001,45,2020_Jan_30_1403,spring_faces,3.1.5,60.2430792589955,
condition files/Stage2_2.xlsx,,B5,T5,s,"['s', 'r']","['Stratego', 'Risk']","[-0.15, 0.5]","[0.15, 0.5]",1,1,,,,,,,,,,,,,,,,,0,1,1,1,0,5,5,0,,,,,,,,,,,,,,,,,,,,,,,,,,,,,,,,,,,,,,,,,,,,,,,872.949510694998,None,872.949510694998,None,872.949510694998,None,s,1,1.5022998559979897,874.4990955369976,None,874.4990955369976,None,874.4990955369976,None,876.067299219998,None,876.067299219998,None,876.067299219998,None,876.067299219998,None,,,,,,,,,,,,,,,,,,,,,,,,,,,,,,,,,,,,,,,,,,,,001,45,2020_Jan_30_1403,spring_faces,3.1.5,60.2430792589955,
condition files/Stage2_1.xlsx,,T1,B1,s,"['s', 'r']","['Stratego', 'Risk']","[-0.15, 0.5]","[0.15, 0.5]",1,1,,,,,,,,,,,,,,,,,0,2,2,2,0,0,0,2,,,,,,,,,,,,,,,,,,,,,,,,,,,,,,,,,,,,,,,,,,,,,,,878.0498232319987,None,878.0498232319987,None,878.0498232319987,None,s,1,2.561830796999857,879.5835877669997,None,879.5835877669997,None,879.5835877669997,None,882.1992403999975,None,882.1992403999975,None,882.1992403999975,None,882.1992403999975,None,,,,,,,,,,,,,,,,,,,,,,,,,,,,,,,,,,,,,,,,,,,,001,45,2020_Jan_30_1403,spring_faces,3.1.5,60.2430792589955,
condition files/Stage2_1.xlsx,,B4,T4,r,"['s', 'r']","['Stratego', 'Risk']","[-0.15, 0.5]","[0.15, 0.5]",1,1,,,,,,,,,,,,,,,,,0,2,2,2,0,1,1,5,,,,,,,,,,,,,,,,,,,,,,,,,,,,,,,,,,,,,,,,,,,,,,,884.1662034779984,None,884.1662034779984,None,884.1662034779984,None,r,1,0.6673879490008403,885.7020359929993,None,885.7020359929993,None,885.7020359929993,None,886.4341607629976,None,886.4341607629976,None,886.4341607629976,None,886.4341607629976,None,,,,,,,,,,,,,,,,,,,,,,,,,,,,,,,,,,,,,,,,,,,,001,45,2020_Jan_30_1403,spring_faces,3.1.5,60.2430792589955,
condition files/Stage2_1.xlsx,,B2,T2,r,"['s', 'r']","['Stratego', 'Risk']","[-0.15, 0.5]","[0.15, 0.5]",1,1,,,,,,,,,,,,,,,,,0,2,2,2,0,2,2,3,,,,,,,,,,,,,,,,,,,,,,,,,,,,,,,,,,,,,,,,,,,,,,,888.3994782709997,None,888.3994782709997,None,888.3994782709997,None,r,1,0.8353714359982405,889.9340470399984,None,889.9340470399984,None,889.9340470399984,None,890.8331730099999,None,890.8331730099999,None,890.8331730099999,None,890.8331730099999,None,,,,,,,,,,,,,,,,,,,,,,,,,,,,,,,,,,,,,,,,,,,,001,45,2020_Jan_30_1403,spring_faces,3.1.5,60.2430792589955,
condition files/Stage2_1.xlsx,,T3,B3,s,"['s', 'r']","['Stratego', 'Risk']","[-0.15, 0.5]","[0.15, 0.5]",1,1,,,,,,,,,,,,,,,,,0,2,2,2,0,3,3,4,,,,,,,,,,,,,,,,,,,,,,,,,,,,,,,,,,,,,,,,,,,,,,,892.7991205359976,None,892.7991205359976,None,892.7991205359976,None,s,1,0.8688734179995663,894.3325429559991,None,894.3325429559991,None,894.3325429559991,None,895.2832098929975,None,895.2832098929975,None,895.2832098929975,None,895.2832098929975,None,,,,,,,,,,,,,,,,,,,,,,,,,,,,,,,,,,,,,,,,,,,,001,45,2020_Jan_30_1403,spring_faces,3.1.5,60.2430792589955,
condition files/Stage2_1.xlsx,,T5,B5,s,"['s', 'r']","['Stratego', 'Risk']","[-0.15, 0.5]","[0.15, 0.5]",1,1,,,,,,,,,,,,,,,,,0,2,2,2,0,4,4,0,,,,,,,,,,,,,,,,,,,,,,,,,,,,,,,,,,,,,,,,,,,,,,,897.2328512889981,None,897.2328512889981,None,897.2328512889981,None,r,0,2.1468567090014403,898.766548869,None,898.766548869,None,898.766548869,None,900.9663978129975,None,900.9663978129975,None,900.9663978129975,None,900.9663978129975,None,,,,,,,,,,,,,,,,,,,,,,,,,,,,,,,,,,,,,,,,,,,,001,45,2020_Jan_30_1403,spring_faces,3.1.5,60.2430792589955,
condition files/Stage2_1.xlsx,,B6,T6,r,"['s', 'r']","['Stratego', 'Risk']","[-0.15, 0.5]","[0.15, 0.5]",1,1,,,,,,,,,,,,,,,,,0,2,2,2,0,5,5,1,,,,,,,,,,,,,,,,,,,,,,,,,,,,,,,,,,,,,,,,,,,,,,,902.9328724169973,None,902.9328724169973,None,902.9328724169973,None,r,1,0.8944722919986816,904.4668663960001,None,904.4668663960001,None,904.4668663960001,None,905.4191322389997,None,905.4191322389997,None,905.4191322389997,None,905.4191322389997,None,,,,,,,,,,,,,,,,,,,,,,,,,,,,,,,,,,,,,,,,,,,,001,45,2020_Jan_30_1403,spring_faces,3.1.5,60.2430792589955,
condition files/Stage2_2.xlsx,,T4,B4,r,"['s', 'r']","['Stratego', 'Risk']","[-0.15, 0.5]","[0.15, 0.5]",1,1,,,,,,,,,,,,,,,,,0,3,3,3,0,0,0,5,,,,,,,,,,,,,,,,,,,,,,,,,,,,,,,,,,,,,,,,,,,,,,,907.3991913889986,None,907.3991913889986,None,907.3991913889986,None,r,1,0.9727764970011776,908.9326988930006,None,908.9326988930006,None,908.9326988930006,None,909.9657611999974,None,909.9657611999974,None,909.9657611999974,None,909.9657611999974,None,,,,,,,,,,,,,,,,,,,,,,,,,,,,,,,,,,,,,,,,,,,,001,45,2020_Jan_30_1403,spring_faces,3.1.5,60.2430792589955,
condition files/Stage2_2.xlsx,,B3,T3,s,"['s', 'r']","['Stratego', 'Risk']","[-0.15, 0.5]","[0.15, 0.5]",1,1,,,,,,,,,,,,,,,,,0,3,3,3,0,1,1,4,,,,,,,,,,,,,,,,,,,,,,,,,,,,,,,,,,,,,,,,,,,,,,,911.9329172959988,None,911.9329172959988,None,911.9329172959988,None,r,0,2.5672138589980023,913.4661437279974,None,913.4661437279974,None,913.4661437279974,None,916.1007870479989,None,916.1007870479989,None,916.1007870479989,None,916.1007870479989,None,,,,,,,,,,,,,,,,,,,,,,,,,,,,,,,,,,,,,,,,,,,,001,45,2020_Jan_30_1403,spring_faces,3.1.5,60.2430792589955,
condition files/Stage2_2.xlsx,,B5,T5,s,"['s', 'r']","['Stratego', 'Risk']","[-0.15, 0.5]","[0.15, 0.5]",1,1,,,,,,,,,,,,,,,,,0,3,3,3,0,2,2,0,,,,,,,,,,,,,,,,,,,,,,,,,,,,,,,,,,,,,,,,,,,,,,,918.0657444479984,None,918.0657444479984,None,918.0657444479984,None,s,1,0.9119035389994679,919.6015047929977,None,919.6015047929977,None,919.6015047929977,None,920.5661281479988,None,920.5661281479988,None,920.5661281479988,None,920.5661281479988,None,,,,,,,,,,,,,,,,,,,,,,,,,,,,,,,,,,,,,,,,,,,,001,45,2020_Jan_30_1403,spring_faces,3.1.5,60.2430792589955,
condition files/Stage2_2.xlsx,,B1,T1,s,"['s', 'r']","['Stratego', 'Risk']","[-0.15, 0.5]","[0.15, 0.5]",1,1,,,,,,,,,,,,,,,,,0,3,3,3,0,3,3,2,,,,,,,,,,,,,,,,,,,,,,,,,,,,,,,,,,,,,,,,,,,,,,,922.5328303019996,None,922.5328303019996,None,922.5328303019996,None,s,1,0.9584971120020782,924.0669863069998,None,924.0669863069998,None,924.0669863069998,None,925.0833980120005,None,925.0833980120005,None,925.0833980120005,None,925.0833980120005,None,,,,,,,,,,,,,,,,,,,,,,,,,,,,,,,,,,,,,,,,,,,,001,45,2020_Jan_30_1403,spring_faces,3.1.5,60.2430792589955,
condition files/Stage2_2.xlsx,,T6,B6,r,"['s', 'r']","['Stratego', 'Risk']","[-0.15, 0.5]","[0.15, 0.5]",1,1,,,,,,,,,,,,,,,,,0,3,3,3,0,4,4,1,,,,,,,,,,,,,,,,,,,,,,,,,,,,,,,,,,,,,,,,,,,,,,,927.049579702998,None,927.049579702998,None,927.049579702998,None,r,1,0.7626917400011735,928.5827370309999,None,928.5827370309999,None,928.5827370309999,None,929.4158880139985,None,929.4158880139985,None,929.4158880139985,None,929.4158880139985,None,,,,,,,,,,,,,,,,,,,,,,,,,,,,,,,,,,,,,,,,,,,,001,45,2020_Jan_30_1403,spring_faces,3.1.5,60.2430792589955,
condition files/Stage2_2.xlsx,,T2,B2,r,"['s', 'r']","['Stratego', 'Risk']","[-0.15, 0.5]","[0.15, 0.5]",1,1,,,,,,,,,,,,,,,,,0,3,3,3,0,5,5,3,,,,,,,,,,,,,,,,,,,,,,,,,,,,,,,,,,,,,,,,,,,,,,,931.3661966979998,None,931.3661966979998,None,931.3661966979998,None,r,1,2.540969565001433,932.9005124190007,None,932.9005124190007,None,932.9005124190007,None,935.4999084119991,None,935.4999084119991,None,935.4999084119991,None,935.4999084119991,None,,,,,,,,,,,,,,,,,,,,,,,,,,,,,,,,,,,,,,,,,,,,001,45,2020_Jan_30_1403,spring_faces,3.1.5,60.2430792589955,
condition files/Stage2_1.xlsx,,B6,T6,r,"['s', 'r']","['Stratego', 'Risk']","[-0.15, 0.5]","[0.15, 0.5]",1,1,,,,,,,,,,,,,,,,,0,4,4,4,0,0,0,1,,,,,,,,,,,,,,,,,,,,,,,,,,,,,,,,,,,,,,,,,,,,,,,937.4830829569983,None,937.4830829569983,None,937.4830829569983,None,r,1,0.968954969997867,939.0164625479993,None,939.0164625479993,None,939.0164625479993,None,940.0494860349972,None,940.0494860349972,None,940.0494860349972,None,940.0494860349972,None,,,,,,,,,,,,,,,,,,,,,,,,,,,,,,,,,,,,,,,,,,,,001,45,2020_Jan_30_1403,spring_faces,3.1.5,60.2430792589955,
condition files/Stage2_1.xlsx,,T3,B3,s,"['s', 'r']","['Stratego', 'Risk']","[-0.15, 0.5]","[0.15, 0.5]",1,1,,,,,,,,,,,,,,,,,0,4,4,4,0,1,1,4,,,,,,,,,,,,,,,,,,,,,,,,,,,,,,,,,,,,,,,,,,,,,,,942.0161459519986,None,942.0161459519986,None,942.0161459519986,None,r,0,1.0596994859988627,943.5496999559982,None,943.5496999559982,None,943.5496999559982,None,944.667215084999,None,944.667215084999,None,944.667215084999,None,944.667215084999,None,,,,,,,,,,,,,,,,,,,,,,,,,,,,,,,,,,,,,,,,,,,,001,45,2020_Jan_30_1403,spring_faces,3.1.5,60.2430792589955,
condition files/Stage2_1.xlsx,,B4,T4,r,"['s', 'r']","['Stratego', 'Risk']","[-0.15, 0.5]","[0.15, 0.5]",1,1,,,,,,,,,,,,,,,,,0,4,4,4,0,2,2,5,,,,,,,,,,,,,,,,,,,,,,,,,,,,,,,,,,,,,,,,,,,,,,,946.6321987299998,None,946.6321987299998,None,946.6321987299998,None,r,1,0.792838589000894,948.1685339689975,None,948.1685339689975,None,948.1685339689975,None,949.0190784869992,None,949.0190784869992,None,949.0190784869992,None,949.0190784869992,None,,,,,,,,,,,,,,,,,,,,,,,,,,,,,,,,,,,,,,,,,,,,001,45,2020_Jan_30_1403,spring_faces,3.1.5,60.2430792589955,
condition files/Stage2_1.xlsx,,B2,T2,r,"['s', 'r']","['Stratego', 'Risk']","[-0.15, 0.5]","[0.15, 0.5]",1,1,,,,,,,,,,,,,,,,,0,4,4,4,0,3,3,3,,,,,,,,,,,,,,,,,,,,,,,,,,,,,,,,,,,,,,,,,,,,,,,950.9830781059973,None,950.9830781059973,None,950.9830781059973,None,r,1,1.6771781319985166,952.5162857649993,None,952.5162857649993,None,952.5162857649993,None,954.249891995998,None,954.249891995998,None,954.249891995998,None,954.249891995998,None,,,,,,,,,,,,,,,,,,,,,,,,,,,,,,,,,,,,,,,,,,,,001,45,2020_Jan_30_1403,spring_faces,3.1.5,60.2430792589955,
