condsFile,subStage,cue1,cue2,correct,responseKeys,responseNames,cue1Position,cue2Position,cue1Opacity,cue2Opacity,stageLoop0.thisRepN,stageLoop0.thisTrialN,stageLoop0.thisN,stageLoop0.thisIndex,blockLoop0.thisRepN,blockLoop0.thisTrialN,blockLoop0.thisN,blockLoop0.thisIndex,stage1Loop.thisRepN,stage1Loop.thisTrialN,stage1Loop.thisN,stage1Loop.thisIndex,blockLoop1.thisRepN,blockLoop1.thisTrialN,blockLoop1.thisN,blockLoop1.thisIndex,stage2Loop.thisRepN,stage2Loop.thisTrialN,stage2Loop.thisN,stage2Loop.thisIndex,blockLoop2.thisRepN,blockLoop2.thisTrialN,blockLoop2.thisN,blockLoop2.thisIndex,testLoop.thisRepN,testLoop.thisTrialN,testLoop.thisN,testLoop.thisIndex,blockLoopTest.thisRepN,blockLoopTest.thisTrialN,blockLoopTest.thisN,blockLoopTest.thisIndex,cuePics,id_instr_text.started,id_instr_text.stopped,space_to_continue_2.started,space_to_continue_2.stopped,end_instructions_resp_3.keys,end_instructions_resp_3.rt,end_instructions_resp_3.started,end_instructions_resp_3.stopped,id_input_instr.started,id_input_instr.stopped,id_input_rect.started,id_input_rect.stopped,id_input_resp.keys,id_input_resp.rt,id_input_resp.started,id_input_resp.stopped,sonaID,id_input_text.started,id_input_text.stopped,final_text.started,final_text.stopped,instructions.started,instructions.stopped,end_instructions_resp.keys,end_instructions_resp.rt,end_instructions_resp.started,end_instructions_resp.stopped,space_to_continue.started,space_to_continue.stopped,instructions_stage0.started,instructions_stage0.stopped,end_instructions_resp_stage0.keys,end_instructions_resp_stage0.rt,end_instructions_resp_stage0.started,end_instructions_resp_stage0.stopped,space_to_continue_stage0.started,space_to_continue_stage0.stopped,text.started,text.stopped,resp_text1.started,resp_text1.stopped,resp_text2.started,resp_text2.stopped,trial_resp.keys,trial_resp.corr,trial_resp.rt,trial_resp.started,trial_resp.stopped,cue1Image.started,cue1Image.stopped,cue2Image.started,cue2Image.stopped,cue1Image_fb.started,cue1Image_fb.stopped,cue2Image_fb.started,cue2Image_fb.stopped,fb_text_answer.started,fb_text_answer.stopped,feedback_image.started,feedback_image.stopped,instructions_stage1.started,instructions_stage1.stopped,end_instructions_resp_stage1.keys,end_instructions_resp_stage1.rt,end_instructions_resp_stage1.started,end_instructions_resp_stage1.stopped,space_to_continue_stage1.started,space_to_continue_stage1.stopped,instructions_2.started,instructions_2.stopped,end_instructions_resp_2.keys,end_instructions_resp_2.rt,end_instructions_resp_2.started,end_instructions_resp_2.stopped,press_space_to_continue_stage2.started,press_space_to_continue_stage2.stopped,instructions_testStage1.started,instructions_testStage1.stopped,end_instructions_resp_test1.keys,end_instructions_resp_test1.rt,end_instructions_resp_test1.started,end_instructions_resp_test1.stopped,press_space_to_continue_test1.started,press_space_to_continue_test1.stopped,cue1Image_testChoice.started,cue1Image_testChoice.stopped,cue2Image_testChoice.started,cue2Image_testChoice.stopped,test_resp.keys,test_resp.corr,test_resp.rt,test_resp.started,test_resp.stopped,cue1Image_testConf.started,cue1Image_testConf.stopped,cue2Image_testConf.started,cue2Image_testConf.stopped,conf_reminder.started,conf_reminder.stopped,conf_rating.response,conf_rating.rt,conf_rating.started,conf_rating.stopped,session,participant,date,expName,psychopyVersion,frameRate,
,,,,,,,,,,,,,,,,,,,,,,,,,,,,,,,,,,,,,,,,,,,"{'none': 'pictures/20M_AN_C.png', 'alpha': 'pictures/SHINEd_apple.png', 'beta': 'pictures/SHINEd_pepper.png', 'theta': 'pictures/SHINEd_pear.png', 'phi': 'pictures/SHINEd_melon.png', 'T1': 'pictures/31M_AN_C.png', 'T2': 'pictures/23M_AN_C.png', 'T3': 'pictures/37M_AN_C.png', 'T4': 'pictures/36M_AN_C.png', 'T5': 'pictures/34M_AN_C.png', 'T6': 'pictures/38M_AN_C.png', 'B1': 'pictures/25M_NE_C.png', 'B2': 'pictures/26M_NE_C.png', 'B3': 'pictures/33M_NE_C.png', 'B4': 'pictures/20M_NE_C.png', 'B5': 'pictures/32M_NE_C.png', 'B6': 'pictures/22M_NE_C.png'}",29.794029104999936,None,34.77763172200139,None,space,53.90570616900004,34.77763172200139,None,,,,,,,,,,,,,,,,,,,,,,,,,,,,,,,,,,,,,,,,,,,,,,,,,,,,,,,,,,,,,,,,,,,,,,,,,,,,,,,,,,,,,,,,,,,,,,,,001,48,2020_Jan_30_1453,spring_faces,3.1.5,60.04360702960793,
,,,,,,,,,,,,,,,,,,,,,,,,,,,,,,,,,,,,,,,,,,,,,,,,,,,,89.06082053100181,None,89.06082053100181,None,"['1', '0', '0', '4', 'k', 'a', 's', 'h', 'a']","[31.222555693002505, 31.54259992000152, 41.798554087999946, 42.15049979000105, 47.174591017999774, 47.526586313000735, 51.75048039600006, 51.974585541000124, 52.15050100699955]",89.06082053100181,None,,,,,,,,,,,,,,,,,,,,,,,,,,,,,,,,,,,,,,,,,,,,,,,,,,,,,,,,,,,,,,,,,,,,,,,,,,,,,,,,,,,,,,,,001,48,2020_Jan_30_1453,spring_faces,3.1.5,60.04360702960793,
,,,,,,,,,,,,,,,,,,,,,,,,,,,,,,,,,,,,,,,,,,,,,,,,,,,,,,,,,,,,1004kasha,89.06082053100181,None,89.06082053100181,None,146.29377239799942,None,space,2.5574011060016346,151.2939952710003,None,,,,,,,,,,,,,,,,,,,,,,,,,,,,,,,,,,,,,,,,,,,,,,,,,,,,,,,,,,,,,,,,,,,,,,,,,,,,,001,48,2020_Jan_30_1453,spring_faces,3.1.5,60.04360702960793,
,,,,,,,,,,,,,,,,,,,,,,,,,,,,,,,,,,,,,,,,,,,,,,,,,,,,,,,,,,,,,,,,,,,,,,,151.2939952710003,None,153.89368953200028,None,space,5.132930394000141,158.89443754600143,None,,,,,,,,,,,,,,,,,,,,,,,,,,,,,,,,,,,,,,,,,,,,,,,,,,,,,,,,,,,,,,,,,,,,,001,48,2020_Jan_30_1453,spring_faces,3.1.5,60.04360702960793,
condition files/Stage0a.xlsx,0a,alpha,none,h,"['h', 'g']","['Chess', 'Go']","[0, 0.5]","[0, 0]",1,0,0,0,0,0,0,0,0,0,,,,,,,,,,,,,,,,,,,,,,,,,,,,,,,,,,,,,,,,,,,,,,,,,,,,,,,,,,,,,158.89443754600143,None,164.0769340879997,None,164.0769340879997,None,164.0769340879997,None,g,0,1.3425883630006865,165.66083272800097,None,165.66083272800097,None,165.66083272800097,None,167.07697452499997,None,167.07697452499997,None,167.07697452499997,None,167.07697452499997,None,,,,,,,,,,,,,,,,,,,,,,,,,,,,,,,,,,,,,,,,,,,,001,48,2020_Jan_30_1453,spring_faces,3.1.5,60.04360702960793,
condition files/Stage0a.xlsx,0a,beta,none,g,"['h', 'g']","['Chess', 'Go']","[0, 0.5]","[0, 0]",1,0,0,0,0,0,0,1,1,1,,,,,,,,,,,,,,,,,,,,,,,,,,,,,,,,,,,,,,,,,,,,,,,,,,,,,,,,,,,,,,,169.0272191469994,None,169.0272191469994,None,169.0272191469994,None,h,0,1.3215646450007625,170.57779885299897,None,170.57779885299897,None,170.57779885299897,None,171.95980705400143,None,171.95980705400143,None,171.95980705400143,None,171.95980705400143,None,,,,,,,,,,,,,,,,,,,,,,,,,,,,,,,,,,,,,,,,,,,,001,48,2020_Jan_30_1453,spring_faces,3.1.5,60.04360702960793,
condition files/Stage0a.xlsx,0a,alpha,none,h,"['h', 'g']","['Chess', 'Go']","[0, 0.5]","[0, 0]",1,0,0,1,1,1,0,0,0,0,,,,,,,,,,,,,,,,,,,,,,,,,,,,,,,,,,,,,,,,,,,,,,,,,,,,,,,,,,,,,,,173.9441327050008,None,173.9441327050008,None,173.9441327050008,None,h,1,1.7987269640034356,175.46060873399983,None,175.46060873399983,None,175.46060873399983,None,177.31083788099932,None,177.31083788099932,None,177.31083788099932,None,177.31083788099932,None,,,,,,,,,,,,,,,,,,,,,,,,,,,,,,,,,,,,,,,,,,,,001,48,2020_Jan_30_1453,spring_faces,3.1.5,60.04360702960793,
condition files/Stage0a.xlsx,0a,beta,none,g,"['h', 'g']","['Chess', 'Go']","[0, 0.5]","[0, 0]",1,0,0,1,1,1,0,1,1,1,,,,,,,,,,,,,,,,,,,,,,,,,,,,,,,,,,,,,,,,,,,,,,,,,,,,,,,,,,,,,,,179.27725926700077,None,179.27725926700077,None,179.27725926700077,None,g,1,0.46446337000088533,180.8108766510013,None,180.8108766510013,None,180.8108766510013,None,181.3271736280003,None,181.3271736280003,None,181.3271736280003,None,181.3271736280003,None,,,,,,,,,,,,,,,,,,,,,,,,,,,,,,,,,,,,,,,,,,,,001,48,2020_Jan_30_1453,spring_faces,3.1.5,60.04360702960793,
condition files/Stage0a.xlsx,0a,alpha,none,h,"['h', 'g']","['Chess', 'Go']","[0, 0.5]","[0, 0]",1,0,0,2,2,2,0,0,0,0,,,,,,,,,,,,,,,,,,,,,,,,,,,,,,,,,,,,,,,,,,,,,,,,,,,,,,,,,,,,,,,183.31048130899944,None,183.31048130899944,None,183.31048130899944,None,h,1,1.2469474190002074,184.8443773500003,None,184.8443773500003,None,184.8443773500003,None,186.14425163499982,None,186.14425163499982,None,186.14425163499982,None,186.14425163499982,None,,,,,,,,,,,,,,,,,,,,,,,,,,,,,,,,,,,,,,,,,,,,001,48,2020_Jan_30_1453,spring_faces,3.1.5,60.04360702960793,
condition files/Stage0a.xlsx,0a,beta,none,g,"['h', 'g']","['Chess', 'Go']","[0, 0.5]","[0, 0]",1,0,0,2,2,2,0,1,1,1,,,,,,,,,,,,,,,,,,,,,,,,,,,,,,,,,,,,,,,,,,,,,,,,,,,,,,,,,,,,,,,188.1101470950016,None,188.1101470950016,None,188.1101470950016,None,g,1,0.43149724100294407,189.64384210299977,None,189.64384210299977,None,189.64384210299977,None,190.12751755200225,None,190.12751755200225,None,190.12751755200225,None,190.12751755200225,None,,,,,,,,,,,,,,,,,,,,,,,,,,,,,,,,,,,,,,,,,,,,001,48,2020_Jan_30_1453,spring_faces,3.1.5,60.04360702960793,
condition files/Stage0a.xlsx,0a,beta,none,g,"['h', 'g']","['Chess', 'Go']","[0, 0.5]","[0, 0]",1,0,0,3,3,3,0,0,0,1,,,,,,,,,,,,,,,,,,,,,,,,,,,,,,,,,,,,,,,,,,,,,,,,,,,,,,,,,,,,,,,192.11104835900187,None,192.11104835900187,None,192.11104835900187,None,g,1,0.8781065310031408,193.6452066999991,None,193.6452066999991,None,193.6452066999991,None,194.57774360999974,None,194.57774360999974,None,194.57774360999974,None,194.57774360999974,None,,,,,,,,,,,,,,,,,,,,,,,,,,,,,,,,,,,,,,,,,,,,001,48,2020_Jan_30_1453,spring_faces,3.1.5,60.04360702960793,
condition files/Stage0a.xlsx,0a,alpha,none,h,"['h', 'g']","['Chess', 'Go']","[0, 0.5]","[0, 0]",1,0,0,3,3,3,0,1,1,0,,,,,,,,,,,,,,,,,,,,,,,,,,,,,,,,,,,,,,,,,,,,,,,,,,,,,,,,,,,,,,,196.54375508500016,None,196.54375508500016,None,196.54375508500016,None,h,1,1.182397132000915,198.0769373889998,None,198.0769373889998,None,198.0769373889998,None,199.31058407800083,None,199.31058407800083,None,199.31058407800083,None,199.31058407800083,None,,,,,,,,,,,,,,,,,,,,,,,,,,,,,,,,,,,,,,,,,,,,001,48,2020_Jan_30_1453,spring_faces,3.1.5,60.04360702960793,
condition files/Stage0a.xlsx,0a,alpha,none,h,"['h', 'g']","['Chess', 'Go']","[0, 0.5]","[0, 0]",1,0,0,4,4,4,0,0,0,0,,,,,,,,,,,,,,,,,,,,,,,,,,,,,,,,,,,,,,,,,,,,,,,,,,,,,,,,,,,,,,,201.2943655759991,None,201.2943655759991,None,201.2943655759991,None,h,1,1.663435238002421,202.82789953099928,None,202.82789953099928,None,202.82789953099928,None,204.54456060099983,None,204.54456060099983,None,204.54456060099983,None,204.54456060099983,None,,,,,,,,,,,,,,,,,,,,,,,,,,,,,,,,,,,,,,,,,,,,001,48,2020_Jan_30_1453,spring_faces,3.1.5,60.04360702960793,
condition files/Stage0a.xlsx,0a,beta,none,g,"['h', 'g']","['Chess', 'Go']","[0, 0.5]","[0, 0]",1,0,0,4,4,4,0,1,1,1,,,,,,,,,,,,,,,,,,,,,,,,,,,,,,,,,,,,,,,,,,,,,,,,,,,,,,,,,,,,,,,206.51075891800065,None,206.51075891800065,None,206.51075891800065,None,g,1,0.7034106160026568,208.04396856300082,None,208.04396856300082,None,208.04396856300082,None,208.81037450700023,None,208.81037450700023,None,208.81037450700023,None,208.81037450700023,None,,,,,,,,,,,,,,,,,,,,,,,,,,,,,,,,,,,,,,,,,,,,001,48,2020_Jan_30_1453,spring_faces,3.1.5,60.04360702960793,
condition files/Stage0a.xlsx,0a,alpha,none,h,"['h', 'g']","['Chess', 'Go']","[0, 0.5]","[0, 0]",1,0,0,5,5,5,0,0,0,0,,,,,,,,,,,,,,,,,,,,,,,,,,,,,,,,,,,,,,,,,,,,,,,,,,,,,,,,,,,,,,,210.7944677359992,None,210.7944677359992,None,210.7944677359992,None,h,1,0.8204024719998415,212.32697219200054,None,212.32697219200054,None,212.32697219200054,None,213.2112747530009,None,213.2112747530009,None,213.2112747530009,None,213.2112747530009,None,,,,,,,,,,,,,,,,,,,,,,,,,,,,,,,,,,,,,,,,,,,,001,48,2020_Jan_30_1453,spring_faces,3.1.5,60.04360702960793,
condition files/Stage0a.xlsx,0a,beta,none,g,"['h', 'g']","['Chess', 'Go']","[0, 0.5]","[0, 0]",1,0,0,5,5,5,0,1,1,1,,,,,,,,,,,,,,,,,,,,,,,,,,,,,,,,,,,,,,,,,,,,,,,,,,,,,,,,,,,,,,,215.17718597299972,None,215.17718597299972,None,215.17718597299972,None,g,1,1.1243775480033946,216.7110028290008,None,216.7110028290008,None,216.7110028290008,None,217.8939959240015,None,217.8939959240015,None,217.8939959240015,None,217.8939959240015,None,,,,,,,,,,,,,,,,,,,,,,,,,,,,,,,,,,,,,,,,,,,,001,48,2020_Jan_30_1453,spring_faces,3.1.5,60.04360702960793,
condition files/Stage0b_1.xlsx,0b,alpha,none,h,"['h', 'g']","['Chess', 'Go']","[-0.15, 0.5]","[0.15, 0.5]",1,0,0,6,6,6,0,0,0,0,,,,,,,,,,,,,,,,,,,,,,,,,,,,,,,,,,,,,,,,,,,,,,,,,,,,,,,,,,,,,,,219.87719981900227,None,219.87719981900227,None,219.87719981900227,None,g,0,1.0642211630001839,221.41112609500124,None,221.41112609500124,None,221.41112609500124,None,222.527305333002,None,222.527305333002,None,222.527305333002,None,222.527305333002,None,,,,,,,,,,,,,,,,,,,,,,,,,,,,,,,,,,,,,,,,,,,,001,48,2020_Jan_30_1453,spring_faces,3.1.5,60.04360702960793,
condition files/Stage0b_1.xlsx,0b,none,beta,g,"['h', 'g']","['Chess', 'Go']","[-0.15, 0.5]","[0.15, 0.5]",0,1,0,6,6,6,0,1,1,1,,,,,,,,,,,,,,,,,,,,,,,,,,,,,,,,,,,,,,,,,,,,,,,,,,,,,,,,,,,,,,,224.49384617300166,None,224.49384617300166,None,224.49384617300166,None,h,0,0.4790796559973387,226.04425763700056,None,226.04425763700056,None,226.04425763700056,None,226.58285887400052,None,226.58285887400052,None,226.58285887400052,None,226.58285887400052,None,,,,,,,,,,,,,,,,,,,,,,,,,,,,,,,,,,,,,,,,,,,,001,48,2020_Jan_30_1453,spring_faces,3.1.5,60.04360702960793,
condition files/Stage0b_2.xlsx,0b,none,alpha,h,"['h', 'g']","['Chess', 'Go']","[-0.15, 0.5]","[0.15, 0.5]",0,1,0,7,7,7,0,0,0,0,,,,,,,,,,,,,,,,,,,,,,,,,,,,,,,,,,,,,,,,,,,,,,,,,,,,,,,,,,,,,,,228.5609562009995,None,228.5609562009995,None,228.5609562009995,None,h,1,1.7411365139996633,230.09426999300194,None,230.09426999300194,None,230.09426999300194,None,231.89427313499982,None,231.89427313499982,None,231.89427313499982,None,231.89427313499982,None,,,,,,,,,,,,,,,,,,,,,,,,,,,,,,,,,,,,,,,,,,,,001,48,2020_Jan_30_1453,spring_faces,3.1.5,60.04360702960793,
condition files/Stage0b_2.xlsx,0b,beta,none,g,"['h', 'g']","['Chess', 'Go']","[-0.15, 0.5]","[0.15, 0.5]",1,0,0,7,7,7,0,1,1,1,,,,,,,,,,,,,,,,,,,,,,,,,,,,,,,,,,,,,,,,,,,,,,,,,,,,,,,,,,,,,,,233.86060716800057,None,233.86060716800057,None,233.86060716800057,None,g,1,0.6958426989986037,235.41168444900177,None,235.41168444900177,None,235.41168444900177,None,236.16478777299926,None,236.16478777299926,None,236.16478777299926,None,236.16478777299926,None,,,,,,,,,,,,,,,,,,,,,,,,,,,,,,,,,,,,,,,,,,,,001,48,2020_Jan_30_1453,spring_faces,3.1.5,60.04360702960793,
condition files/Stage0b_1.xlsx,0b,none,beta,g,"['h', 'g']","['Chess', 'Go']","[-0.15, 0.5]","[0.15, 0.5]",0,1,0,8,8,8,0,0,0,1,,,,,,,,,,,,,,,,,,,,,,,,,,,,,,,,,,,,,,,,,,,,,,,,,,,,,,,,,,,,,,,238.14424349100227,None,238.14424349100227,None,238.14424349100227,None,g,1,1.610252717997355,239.68110123400038,None,239.68110123400038,None,239.68110123400038,None,241.344538071,None,241.344538071,None,241.344538071,None,241.344538071,None,,,,,,,,,,,,,,,,,,,,,,,,,,,,,,,,,,,,,,,,,,,,001,48,2020_Jan_30_1453,spring_faces,3.1.5,60.04360702960793,
condition files/Stage0b_1.xlsx,0b,alpha,none,h,"['h', 'g']","['Chess', 'Go']","[-0.15, 0.5]","[0.15, 0.5]",1,0,0,8,8,8,0,1,1,0,,,,,,,,,,,,,,,,,,,,,,,,,,,,,,,,,,,,,,,,,,,,,,,,,,,,,,,,,,,,,,,243.31054818800112,None,243.31054818800112,None,243.31054818800112,None,h,1,0.7503539489989635,244.8449516260007,None,244.8449516260007,None,244.8449516260007,None,245.66228647599928,None,245.66228647599928,None,245.66228647599928,None,245.66228647599928,None,,,,,,,,,,,,,,,,,,,,,,,,,,,,,,,,,,,,,,,,,,,,001,48,2020_Jan_30_1453,spring_faces,3.1.5,60.04360702960793,
condition files/Stage0b_2.xlsx,0b,beta,none,g,"['h', 'g']","['Chess', 'Go']","[-0.15, 0.5]","[0.15, 0.5]",1,0,0,9,9,9,0,0,0,1,,,,,,,,,,,,,,,,,,,,,,,,,,,,,,,,,,,,,,,,,,,,,,,,,,,,,,,,,,,,,,,247.64427711000098,None,247.64427711000098,None,247.64427711000098,None,g,1,1.4582087880007748,249.1770628000013,None,249.1770628000013,None,249.1770628000013,None,250.6939980370007,None,250.6939980370007,None,250.6939980370007,None,250.6939980370007,None,,,,,,,,,,,,,,,,,,,,,,,,,,,,,,,,,,,,,,,,,,,,001,48,2020_Jan_30_1453,spring_faces,3.1.5,60.04360702960793,
condition files/Stage0b_2.xlsx,0b,none,alpha,h,"['h', 'g']","['Chess', 'Go']","[-0.15, 0.5]","[0.15, 0.5]",0,1,0,9,9,9,0,1,1,0,,,,,,,,,,,,,,,,,,,,,,,,,,,,,,,,,,,,,,,,,,,,,,,,,,,,,,,,,,,,,,,252.66015111900197,None,252.66015111900197,None,252.66015111900197,None,h,1,0.39241377700091107,254.2109905690013,None,254.2109905690013,None,254.2109905690013,None,254.66512676899947,None,254.66512676899947,None,254.66512676899947,None,254.66512676899947,None,,,,,,,,,,,,,,,,,,,,,,,,,,,,,,,,,,,,,,,,,,,,001,48,2020_Jan_30_1453,spring_faces,3.1.5,60.04360702960793,
condition files/Stage0b_1.xlsx,0b,none,beta,g,"['h', 'g']","['Chess', 'Go']","[-0.15, 0.5]","[0.15, 0.5]",0,1,0,10,10,10,0,0,0,1,,,,,,,,,,,,,,,,,,,,,,,,,,,,,,,,,,,,,,,,,,,,,,,,,,,,,,,,,,,,,,,256.6442970060016,None,256.6442970060016,None,256.6442970060016,None,h,0,1.1934779690018331,258.1779224480015,None,258.1779224480015,None,258.1779224480015,None,259.4271516059998,None,259.4271516059998,None,259.4271516059998,None,259.4271516059998,None,,,,,,,,,,,,,,,,,,,,,,,,,,,,,,,,,,,,,,,,,,,,001,48,2020_Jan_30_1453,spring_faces,3.1.5,60.04360702960793,
condition files/Stage0b_1.xlsx,0b,alpha,none,h,"['h', 'g']","['Chess', 'Go']","[-0.15, 0.5]","[0.15, 0.5]",1,0,0,10,10,10,0,1,1,0,,,,,,,,,,,,,,,,,,,,,,,,,,,,,,,,,,,,,,,,,,,,,,,,,,,,,,,,,,,,,,,261.3933848790002,None,261.3933848790002,None,261.3933848790002,None,h,1,1.1312445000003208,262.9440870069993,None,262.9440870069993,None,262.9440870069993,None,264.13245006000216,None,264.13245006000216,None,264.13245006000216,None,264.13245006000216,None,,,,,,,,,,,,,,,,,,,,,,,,,,,,,,,,,,,,,,,,,,,,001,48,2020_Jan_30_1453,spring_faces,3.1.5,60.04360702960793,
condition files/Stage0b_2.xlsx,0b,none,alpha,h,"['h', 'g']","['Chess', 'Go']","[-0.15, 0.5]","[0.15, 0.5]",0,1,0,11,11,11,0,0,0,0,,,,,,,,,,,,,,,,,,,,,,,,,,,,,,,,,,,,,,,,,,,,,,,,,,,,,,,,,,,,,,,266.1110105869993,None,266.1110105869993,None,266.1110105869993,None,h,1,0.9105597260022478,267.6608309350013,None,267.6608309350013,None,267.6608309350013,None,268.6285398100008,None,268.6285398100008,None,268.6285398100008,None,268.6285398100008,None,,,,,,,,,,,,,,,,,,,,,,,,,,,,,,,,,,,,,,,,,,,,001,48,2020_Jan_30_1453,spring_faces,3.1.5,60.04360702960793,
condition files/Stage0b_2.xlsx,0b,beta,none,g,"['h', 'g']","['Chess', 'Go']","[-0.15, 0.5]","[0.15, 0.5]",1,0,0,11,11,11,0,1,1,1,,,,,,,,,,,,,,,,,,,,,,,,,,,,,,,,,,,,,,,,,,,,,,,,,,,,,,,,,,,,,,,270.5941307590001,None,270.5941307590001,None,270.5941307590001,None,g,1,1.480808378000802,272.1305124640021,None,272.1305124640021,None,272.1305124640021,None,273.6793968460006,None,273.6793968460006,None,273.6793968460006,None,273.6793968460006,None,,,,,,,,,,,,,,,,,,,,,,,,,,,,,,,,,,,,,,,,,,,,001,48,2020_Jan_30_1453,spring_faces,3.1.5,60.04360702960793,
condition files/Stage0c_1.xlsx,0c,alpha,phi,h,"['h', 'g']","['Chess', 'Go']","[-0.15, 0.5]","[0.15, 0.5]",1,1,0,12,12,12,0,0,0,1,,,,,,,,,,,,,,,,,,,,,,,,,,,,,,,,,,,,,,,,,,,,,,,,,,,,,,,,,,,,,,,275.6607041919997,None,275.6607041919997,None,275.6607041919997,None,h,1,4.096968322999601,277.19436548500016,None,277.19436548500016,None,277.19436548500016,None,281.343945315999,None,281.343945315999,None,281.343945315999,None,281.343945315999,None,,,,,,,,,,,,,,,,,,,,,,,,,,,,,,,,,,,,,,,,,,,,001,48,2020_Jan_30_1453,spring_faces,3.1.5,60.04360702960793,
condition files/Stage0c_1.xlsx,0c,theta,alpha,h,"['h', 'g']","['Chess', 'Go']","[-0.15, 0.5]","[0.15, 0.5]",1,1,0,12,12,12,0,1,1,0,,,,,,,,,,,,,,,,,,,,,,,,,,,,,,,,,,,,,,,,,,,,,,,,,,,,,,,,,,,,,,,283.3106420799995,None,283.3106420799995,None,283.3106420799995,None,h,1,1.8394144119993143,284.8439622730002,None,284.8439622730002,None,284.8439622730002,None,286.7441876369994,None,286.7441876369994,None,286.7441876369994,None,286.7441876369994,None,,,,,,,,,,,,,,,,,,,,,,,,,,,,,,,,,,,,,,,,,,,,001,48,2020_Jan_30_1453,spring_faces,3.1.5,60.04360702960793,
condition files/Stage0c_1.xlsx,0c,phi,beta,g,"['h', 'g']","['Chess', 'Go']","[-0.15, 0.5]","[0.15, 0.5]",1,1,0,12,12,12,0,2,2,3,,,,,,,,,,,,,,,,,,,,,,,,,,,,,,,,,,,,,,,,,,,,,,,,,,,,,,,,,,,,,,,288.71060751000186,None,288.71060751000186,None,288.71060751000186,None,g,1,3.0629875199992966,290.24438188600107,None,290.24438188600107,None,290.24438188600107,None,293.3605859240015,None,293.3605859240015,None,293.3605859240015,None,293.3605859240015,None,,,,,,,,,,,,,,,,,,,,,,,,,,,,,,,,,,,,,,,,,,,,001,48,2020_Jan_30_1453,spring_faces,3.1.5,60.04360702960793,
condition files/Stage0c_1.xlsx,0c,beta,theta,g,"['h', 'g']","['Chess', 'Go']","[-0.15, 0.5]","[0.15, 0.5]",1,1,0,12,12,12,0,3,3,2,,,,,,,,,,,,,,,,,,,,,,,,,,,,,,,,,,,,,,,,,,,,,,,,,,,,,,,,,,,,,,,295.3442599629998,None,295.3442599629998,None,295.3442599629998,None,g,1,0.9585689930027002,296.860827288001,None,296.860827288001,None,296.860827288001,None,297.8778664640013,None,297.8778664640013,None,297.8778664640013,None,297.8778664640013,None,,,,,,,,,,,,,,,,,,,,,,,,,,,,,,,,,,,,,,,,,,,,001,48,2020_Jan_30_1453,spring_faces,3.1.5,60.04360702960793,
condition files/Stage0c_2.xlsx,0c,phi,alpha,h,"['h', 'g']","['Chess', 'Go']","[-0.15, 0.5]","[0.15, 0.5]",1,1,0,13,13,13,0,0,0,1,,,,,,,,,,,,,,,,,,,,,,,,,,,,,,,,,,,,,,,,,,,,,,,,,,,,,,,,,,,,,,,299.8609244460022,None,299.8609244460022,None,299.8609244460022,None,h,1,0.905156069999066,301.3942261500015,None,301.3942261500015,None,301.3942261500015,None,302.3608817780005,None,302.3608817780005,None,302.3608817780005,None,302.3608817780005,None,,,,,,,,,,,,,,,,,,,,,,,,,,,,,,,,,,,,,,,,,,,,001,48,2020_Jan_30_1453,spring_faces,3.1.5,60.04360702960793,
condition files/Stage0c_2.xlsx,0c,alpha,theta,h,"['h', 'g']","['Chess', 'Go']","[-0.15, 0.5]","[0.15, 0.5]",1,1,0,13,13,13,0,1,1,0,,,,,,,,,,,,,,,,,,,,,,,,,,,,,,,,,,,,,,,,,,,,,,,,,,,,,,,,,,,,,,,304.3273912930017,None,304.3273912930017,None,304.3273912930017,None,h,1,1.1104164270000183,305.8609795880002,None,305.8609795880002,None,305.8609795880002,None,307.0120520620003,None,307.0120520620003,None,307.0120520620003,None,307.0120520620003,None,,,,,,,,,,,,,,,,,,,,,,,,,,,,,,,,,,,,,,,,,,,,001,48,2020_Jan_30_1453,spring_faces,3.1.5,60.04360702960793,
condition files/Stage0c_2.xlsx,0c,theta,beta,g,"['h', 'g']","['Chess', 'Go']","[-0.15, 0.5]","[0.15, 0.5]",1,1,0,13,13,13,0,2,2,2,,,,,,,,,,,,,,,,,,,,,,,,,,,,,,,,,,,,,,,,,,,,,,,,,,,,,,,,,,,,,,,308.99396507799975,None,308.99396507799975,None,308.99396507799975,None,g,1,0.9876977300009457,310.5276679160015,None,310.5276679160015,None,310.5276679160015,None,311.5777122319996,None,311.5777122319996,None,311.5777122319996,None,311.5777122319996,None,,,,,,,,,,,,,,,,,,,,,,,,,,,,,,,,,,,,,,,,,,,,001,48,2020_Jan_30_1453,spring_faces,3.1.5,60.04360702960793,
condition files/Stage0c_2.xlsx,0c,beta,phi,g,"['h', 'g']","['Chess', 'Go']","[-0.15, 0.5]","[0.15, 0.5]",1,1,0,13,13,13,0,3,3,3,,,,,,,,,,,,,,,,,,,,,,,,,,,,,,,,,,,,,,,,,,,,,,,,,,,,,,,,,,,,,,,313.5438166519998,None,313.5438166519998,None,313.5438166519998,None,g,1,1.8617526400012139,315.07760064600006,None,315.07760064600006,None,315.07760064600006,None,316.97956306999913,None,316.97956306999913,None,316.97956306999913,None,316.97956306999913,None,,,,,,,,,,,,,,,,,,,,,,,,,,,,,,,,,,,,,,,,,,,,001,48,2020_Jan_30_1453,spring_faces,3.1.5,60.04360702960793,
condition files/Stage0c_1.xlsx,0c,theta,alpha,h,"['h', 'g']","['Chess', 'Go']","[-0.15, 0.5]","[0.15, 0.5]",1,1,0,14,14,14,0,0,0,0,,,,,,,,,,,,,,,,,,,,,,,,,,,,,,,,,,,,,,,,,,,,,,,,,,,,,,,,,,,,,,,318.9774502210021,None,318.9774502210021,None,318.9774502210021,None,h,1,1.436590099001478,320.5107962889997,None,320.5107962889997,None,320.5107962889997,None,322.0109654830012,None,322.0109654830012,None,322.0109654830012,None,322.0109654830012,None,,,,,,,,,,,,,,,,,,,,,,,,,,,,,,,,,,,,,,,,,,,,001,48,2020_Jan_30_1453,spring_faces,3.1.5,60.04360702960793,
condition files/Stage0c_1.xlsx,0c,beta,theta,g,"['h', 'g']","['Chess', 'Go']","[-0.15, 0.5]","[0.15, 0.5]",1,1,0,14,14,14,0,1,1,2,,,,,,,,,,,,,,,,,,,,,,,,,,,,,,,,,,,,,,,,,,,,,,,,,,,,,,,,,,,,,,,323.9770693690007,None,323.9770693690007,None,323.9770693690007,None,g,1,1.6365316929986875,325.51081315400006,None,325.51081315400006,None,325.51081315400006,None,327.21056671300175,None,327.21056671300175,None,327.21056671300175,None,327.21056671300175,None,,,,,,,,,,,,,,,,,,,,,,,,,,,,,,,,,,,,,,,,,,,,001,48,2020_Jan_30_1453,spring_faces,3.1.5,60.04360702960793,
condition files/Stage0c_1.xlsx,0c,phi,beta,g,"['h', 'g']","['Chess', 'Go']","[-0.15, 0.5]","[0.15, 0.5]",1,1,0,14,14,14,0,2,2,3,,,,,,,,,,,,,,,,,,,,,,,,,,,,,,,,,,,,,,,,,,,,,,,,,,,,,,,,,,,,,,,329.1772995930005,None,329.1772995930005,None,329.1772995930005,None,g,1,1.4926660169985553,330.7107508150002,None,330.7107508150002,None,330.7107508150002,None,332.26116160699894,None,332.26116160699894,None,332.26116160699894,None,332.26116160699894,None,,,,,,,,,,,,,,,,,,,,,,,,,,,,,,,,,,,,,,,,,,,,001,48,2020_Jan_30_1453,spring_faces,3.1.5,60.04360702960793,
condition files/Stage0c_1.xlsx,0c,alpha,phi,h,"['h', 'g']","['Chess', 'Go']","[-0.15, 0.5]","[0.15, 0.5]",1,1,0,14,14,14,0,3,3,1,,,,,,,,,,,,,,,,,,,,,,,,,,,,,,,,,,,,,,,,,,,,,,,,,,,,,,,,,,,,,,,334.22730196799967,None,334.22730196799967,None,334.22730196799967,None,g,0,1.4342893510001886,335.76102128799903,None,335.76102128799903,None,335.76102128799903,None,337.2601757550001,None,337.2601757550001,None,337.2601757550001,None,337.2601757550001,None,,,,,,,,,,,,,,,,,,,,,,,,,,,,,,,,,,,,,,,,,,,,001,48,2020_Jan_30_1453,spring_faces,3.1.5,60.04360702960793,
condition files/Stage0c_2.xlsx,0c,phi,alpha,h,"['h', 'g']","['Chess', 'Go']","[-0.15, 0.5]","[0.15, 0.5]",1,1,0,15,15,15,0,0,0,1,,,,,,,,,,,,,,,,,,,,,,,,,,,,,,,,,,,,,,,,,,,,,,,,,,,,,,,,,,,,,,,339.2610758240007,None,339.2610758240007,None,339.2610758240007,None,h,1,0.9140523109999776,340.77730363500086,None,340.77730363500086,None,340.77730363500086,None,341.73007730099926,None,341.73007730099926,None,341.73007730099926,None,341.73007730099926,None,,,,,,,,,,,,,,,,,,,,,,,,,,,,,,,,,,,,,,,,,,,,001,48,2020_Jan_30_1453,spring_faces,3.1.5,60.04360702960793,
condition files/Stage0c_2.xlsx,0c,beta,phi,g,"['h', 'g']","['Chess', 'Go']","[-0.15, 0.5]","[0.15, 0.5]",1,1,0,15,15,15,0,1,1,3,,,,,,,,,,,,,,,,,,,,,,,,,,,,,,,,,,,,,,,,,,,,,,,,,,,,,,,,,,,,,,,343.7105954100007,None,343.7105954100007,None,343.7105954100007,None,g,1,0.7992822070009424,345.2440886910008,None,345.2440886910008,None,345.2440886910008,None,346.09356094100076,None,346.09356094100076,None,346.09356094100076,None,346.09356094100076,None,,,,,,,,,,,,,,,,,,,,,,,,,,,,,,,,,,,,,,,,,,,,001,48,2020_Jan_30_1453,spring_faces,3.1.5,60.04360702960793,
condition files/Stage0c_2.xlsx,0c,theta,beta,g,"['h', 'g']","['Chess', 'Go']","[-0.15, 0.5]","[0.15, 0.5]",1,1,0,15,15,15,0,2,2,2,,,,,,,,,,,,,,,,,,,,,,,,,,,,,,,,,,,,,,,,,,,,,,,,,,,,,,,,,,,,,,,348.0603783660008,None,348.0603783660008,None,348.0603783660008,None,g,1,1.40910561200144,349.5942984150024,None,349.5942984150024,None,349.5942984150024,None,351.0454686990015,None,351.0454686990015,None,351.0454686990015,None,351.0454686990015,None,,,,,,,,,,,,,,,,,,,,,,,,,,,,,,,,,,,,,,,,,,,,001,48,2020_Jan_30_1453,spring_faces,3.1.5,60.04360702960793,
condition files/Stage0c_2.xlsx,0c,alpha,theta,h,"['h', 'g']","['Chess', 'Go']","[-0.15, 0.5]","[0.15, 0.5]",1,1,0,15,15,15,0,3,3,0,,,,,,,,,,,,,,,,,,,,,,,,,,,,,,,,,,,,,,,,,,,,,,,,,,,,,,,,,,,,,,,353.02710406900223,None,353.02710406900223,None,353.02710406900223,None,h,1,1.114586119998421,354.5607557430012,None,354.5607557430012,None,354.5607557430012,None,355.7276576030017,None,355.7276576030017,None,355.7276576030017,None,355.7276576030017,None,,,,,,,,,,,,,,,,,,,,,,,,,,,,,,,,,,,,,,,,,,,,001,48,2020_Jan_30_1453,spring_faces,3.1.5,60.04360702960793,
condition files/Stage0c_1.xlsx,0c,theta,alpha,h,"['h', 'g']","['Chess', 'Go']","[-0.15, 0.5]","[0.15, 0.5]",1,1,0,16,16,16,0,0,0,0,,,,,,,,,,,,,,,,,,,,,,,,,,,,,,,,,,,,,,,,,,,,,,,,,,,,,,,,,,,,,,,357.71062819000144,None,357.71062819000144,None,357.71062819000144,None,h,1,1.2636458740016678,359.24387780500183,None,359.24387780500183,None,359.24387780500183,None,360.54674663699916,None,360.54674663699916,None,360.54674663699916,None,360.54674663699916,None,,,,,,,,,,,,,,,,,,,,,,,,,,,,,,,,,,,,,,,,,,,,001,48,2020_Jan_30_1453,spring_faces,3.1.5,60.04360702960793,
condition files/Stage0c_1.xlsx,0c,alpha,phi,h,"['h', 'g']","['Chess', 'Go']","[-0.15, 0.5]","[0.15, 0.5]",1,1,0,16,16,16,0,1,1,1,,,,,,,,,,,,,,,,,,,,,,,,,,,,,,,,,,,,,,,,,,,,,,,,,,,,,,,,,,,,,,,362.52729361100137,None,362.52729361100137,None,362.52729361100137,None,h,1,1.35855934799838,364.06083747999946,None,364.06083747999946,None,364.06083747999946,None,365.46205851800187,None,365.46205851800187,None,365.46205851800187,None,365.46205851800187,None,,,,,,,,,,,,,,,,,,,,,,,,,,,,,,,,,,,,,,,,,,,,001,48,2020_Jan_30_1453,spring_faces,3.1.5,60.04360702960793,
condition files/Stage0c_1.xlsx,0c,phi,beta,g,"['h', 'g']","['Chess', 'Go']","[-0.15, 0.5]","[0.15, 0.5]",1,1,0,16,16,16,0,2,2,3,,,,,,,,,,,,,,,,,,,,,,,,,,,,,,,,,,,,,,,,,,,,,,,,,,,,,,,,,,,,,,,367.4437254170007,None,367.4437254170007,None,367.4437254170007,None,g,1,1.0495363689988153,368.97783918999994,None,368.97783918999994,None,368.97783918999994,None,370.077589894001,None,370.077589894001,None,370.077589894001,None,370.077589894001,None,,,,,,,,,,,,,,,,,,,,,,,,,,,,,,,,,,,,,,,,,,,,001,48,2020_Jan_30_1453,spring_faces,3.1.5,60.04360702960793,
condition files/Stage0c_1.xlsx,0c,beta,theta,g,"['h', 'g']","['Chess', 'Go']","[-0.15, 0.5]","[0.15, 0.5]",1,1,0,16,16,16,0,3,3,2,,,,,,,,,,,,,,,,,,,,,,,,,,,,,,,,,,,,,,,,,,,,,,,,,,,,,,,,,,,,,,,372.04378702900067,None,372.04378702900067,None,372.04378702900067,None,g,1,1.0742191489989636,373.57706775599945,None,373.57706775599945,None,373.57706775599945,None,374.71007133199964,None,374.71007133199964,None,374.71007133199964,None,374.71007133199964,None,,,,,,,,,,,,,,,,,,,,,,,,,,,,,,,,,,,,,,,,,,,,001,48,2020_Jan_30_1453,spring_faces,3.1.5,60.04360702960793,
condition files/Stage0c_2.xlsx,0c,beta,phi,g,"['h', 'g']","['Chess', 'Go']","[-0.15, 0.5]","[0.15, 0.5]",1,1,0,17,17,17,0,0,0,3,,,,,,,,,,,,,,,,,,,,,,,,,,,,,,,,,,,,,,,,,,,,,,,,,,,,,,,,,,,,,,,376.69423756499964,None,376.69423756499964,None,376.69423756499964,None,g,1,0.7436772479995852,378.22766527099884,None,378.22766527099884,None,378.22766527099884,None,379.01341617300204,None,379.01341617300204,None,379.01341617300204,None,379.01341617300204,None,,,,,,,,,,,,,,,,,,,,,,,,,,,,,,,,,,,,,,,,,,,,001,48,2020_Jan_30_1453,spring_faces,3.1.5,60.04360702960793,
condition files/Stage0c_2.xlsx,0c,phi,alpha,h,"['h', 'g']","['Chess', 'Go']","[-0.15, 0.5]","[0.15, 0.5]",1,1,0,17,17,17,0,1,1,1,,,,,,,,,,,,,,,,,,,,,,,,,,,,,,,,,,,,,,,,,,,,,,,,,,,,,,,,,,,,,,,380.99427016200207,None,380.99427016200207,None,380.99427016200207,None,h,1,1.1158578650029085,382.5275153520015,None,382.5275153520015,None,382.5275153520015,None,383.6943789620018,None,383.6943789620018,None,383.6943789620018,None,383.6943789620018,None,,,,,,,,,,,,,,,,,,,,,,,,,,,,,,,,,,,,,,,,,,,,001,48,2020_Jan_30_1453,spring_faces,3.1.5,60.04360702960793,
condition files/Stage0c_2.xlsx,0c,theta,beta,g,"['h', 'g']","['Chess', 'Go']","[-0.15, 0.5]","[0.15, 0.5]",1,1,0,17,17,17,0,2,2,2,,,,,,,,,,,,,,,,,,,,,,,,,,,,,,,,,,,,,,,,,,,,,,,,,,,,,,,,,,,,,,,385.66074553400176,None,385.66074553400176,None,385.66074553400176,None,g,1,1.3296327399984875,387.19364370900075,None,387.19364370900075,None,387.19364370900075,None,388.5776050099994,None,388.5776050099994,None,388.5776050099994,None,388.5776050099994,None,,,,,,,,,,,,,,,,,,,,,,,,,,,,,,,,,,,,,,,,,,,,001,48,2020_Jan_30_1453,spring_faces,3.1.5,60.04360702960793,
condition files/Stage0c_2.xlsx,0c,alpha,theta,h,"['h', 'g']","['Chess', 'Go']","[-0.15, 0.5]","[0.15, 0.5]",1,1,0,17,17,17,0,3,3,0,,,,,,,,,,,,,,,,,,,,,,,,,,,,,,,,,,,,,,,,,,,,,,,,,,,,,,,,,,,,,,,390.5439003749998,None,390.5439003749998,None,390.5439003749998,None,h,1,1.2776337750001403,392.0776902280013,None,392.0776902280013,None,392.0776902280013,None,393.4119621730024,None,393.4119621730024,None,393.4119621730024,None,393.4119621730024,None,,,,,,,,,,,,,,,,,,,,,,,,,,,,,,,,,,,,,,,,,,,,001,48,2020_Jan_30_1453,spring_faces,3.1.5,60.04360702960793,
,,,,,,,,,,,,,,,,,,,,,,,,,,,,,,,,,,,,,,,,,,,,,,,,,,,,,,,,,,,,,,,,,,,,,,,,,,,,,,,,,,,,,,,,,,,,,,,,,,,,,,,,395.39424808900003,None,space,2.0493445889987925,400.3940468360015,None,,,,,,,,,,,,,,,,,,,,,,,,,,,,,,,,,,,,,,001,48,2020_Jan_30_1453,spring_faces,3.1.5,60.04360702960793,
condition files/Stage1_1.xlsx,,B2,T1,m,"['c', 'm']","['Clue', 'Monopoly']","[-0.15, 0.5]","[0.15, 0.5]",1,1,,,,,,,,,0,0,0,0,0,0,0,2,,,,,,,,,,,,,,,,,,,,,,,,,,,,,,,,,,,,,,,,,,,,,,,,,,,,,,,402.49418885400155,None,402.49418885400155,None,402.49418885400155,None,c,0,2.799812198998552,404.02757173899954,None,404.02757173899954,None,404.02757173899954,None,406.91108939699916,None,406.91108939699916,None,406.91108939699916,None,406.91108939699916,None,,,,,,,400.3940468360015,None,,,,,,,,,,,,,,,,,,,,,,,,,,,,,,,,,,,,001,48,2020_Jan_30_1453,spring_faces,3.1.5,60.04360702960793,
condition files/Stage1_1.xlsx,,B1,T2,c,"['c', 'm']","['Clue', 'Monopoly']","[-0.15, 0.5]","[0.15, 0.5]",1,1,,,,,,,,,0,0,0,0,0,1,1,1,,,,,,,,,,,,,,,,,,,,,,,,,,,,,,,,,,,,,,,,,,,,,,,,,,,,,,,408.843589215001,None,408.843589215001,None,408.843589215001,None,c,1,1.2811559270012367,410.39416837799945,None,410.39416837799945,None,410.39416837799945,None,411.7441066880019,None,411.7441066880019,None,411.7441066880019,None,411.7441066880019,None,,,,,,,,,,,,,,,,,,,,,,,,,,,,,,,,,,,,,,,,,,,,001,48,2020_Jan_30_1453,spring_faces,3.1.5,60.04360702960793,
condition files/Stage1_1.xlsx,,T4,B3,m,"['c', 'm']","['Clue', 'Monopoly']","[-0.15, 0.5]","[0.15, 0.5]",1,1,,,,,,,,,0,0,0,0,0,2,2,6,,,,,,,,,,,,,,,,,,,,,,,,,,,,,,,,,,,,,,,,,,,,,,,,,,,,,,,413.6942696690021,None,413.6942696690021,None,413.6942696690021,None,m,1,0.9893673110018426,415.29399838300014,None,415.29399838300014,None,415.29399838300014,None,416.34391818400036,None,416.34391818400036,None,416.34391818400036,None,416.34391818400036,None,,,,,,,,,,,,,,,,,,,,,,,,,,,,,,,,,,,,,,,,,,,,001,48,2020_Jan_30_1453,spring_faces,3.1.5,60.04360702960793,
condition files/Stage1_1.xlsx,,B4,T4,m,"['c', 'm']","['Clue', 'Monopoly']","[-0.15, 0.5]","[0.15, 0.5]",1,1,,,,,,,,,0,0,0,0,0,3,3,7,,,,,,,,,,,,,,,,,,,,,,,,,,,,,,,,,,,,,,,,,,,,,,,,,,,,,,,418.31066173,None,418.31066173,None,418.31066173,None,m,1,0.8716362600025604,419.84374138400017,None,419.84374138400017,None,419.84374138400017,None,420.7775803860022,None,420.7775803860022,None,420.7775803860022,None,420.7775803860022,None,,,,,,,,,,,,,,,,,,,,,,,,,,,,,,,,,,,,,,,,,,,,001,48,2020_Jan_30_1453,spring_faces,3.1.5,60.04360702960793,
condition files/Stage1_1.xlsx,,T1,B1,c,"['c', 'm']","['Clue', 'Monopoly']","[-0.15, 0.5]","[0.15, 0.5]",1,1,,,,,,,,,0,0,0,0,0,4,4,0,,,,,,,,,,,,,,,,,,,,,,,,,,,,,,,,,,,,,,,,,,,,,,,,,,,,,,,422.7443911049995,None,422.7443911049995,None,422.7443911049995,None,c,1,0.8363560929974483,424.27902039400215,None,424.27902039400215,None,424.27902039400215,None,425.1940719519989,None,425.1940719519989,None,425.1940719519989,None,425.1940719519989,None,,,,,,,,,,,,,,,,,,,,,,,,,,,,,,,,,,,,,,,,,,,,001,48,2020_Jan_30_1453,spring_faces,3.1.5,60.04360702960793,
condition files/Stage1_1.xlsx,,B3,T3,c,"['c', 'm']","['Clue', 'Monopoly']","[-0.15, 0.5]","[0.15, 0.5]",1,1,,,,,,,,,0,0,0,0,0,5,5,4,,,,,,,,,,,,,,,,,,,,,,,,,,,,,,,,,,,,,,,,,,,,,,,,,,,,,,,427.14397416499924,None,427.14397416499924,None,427.14397416499924,None,m,0,1.0593613589990127,428.7280308340014,None,428.7280308340014,None,428.7280308340014,None,429.84447641899897,None,429.84447641899897,None,429.84447641899897,None,429.84447641899897,None,,,,,,,,,,,,,,,,,,,,,,,,,,,,,,,,,,,,,,,,,,,,001,48,2020_Jan_30_1453,spring_faces,3.1.5,60.04360702960793,
condition files/Stage1_1.xlsx,,T2,B2,m,"['c', 'm']","['Clue', 'Monopoly']","[-0.15, 0.5]","[0.15, 0.5]",1,1,,,,,,,,,0,0,0,0,0,6,6,3,,,,,,,,,,,,,,,,,,,,,,,,,,,,,,,,,,,,,,,,,,,,,,,,,,,,,,,431.8107544689992,None,431.8107544689992,None,431.8107544689992,None,m,1,1.5790327110007638,433.3442813799993,None,433.3442813799993,None,433.3442813799993,None,434.97977309899943,None,434.97977309899943,None,434.97977309899943,None,434.97977309899943,None,,,,,,,,,,,,,,,,,,,,,,,,,,,,,,,,,,,,,,,,,,,,001,48,2020_Jan_30_1453,spring_faces,3.1.5,60.04360702960793,
condition files/Stage1_1.xlsx,,T3,B4,c,"['c', 'm']","['Clue', 'Monopoly']","[-0.15, 0.5]","[0.15, 0.5]",1,1,,,,,,,,,0,0,0,0,0,7,7,5,,,,,,,,,,,,,,,,,,,,,,,,,,,,,,,,,,,,,,,,,,,,,,,,,,,,,,,436.9439482199996,None,436.9439482199996,None,436.9439482199996,None,m,0,0.7972931010008324,438.478068446002,None,438.478068446002,None,438.478068446002,None,439.32811426899934,None,439.32811426899934,None,439.32811426899934,None,439.32811426899934,None,,,,,,,,,,,,,,,,,,,,,,,,,,,,,,,,,,,,,,,,,,,,001,48,2020_Jan_30_1453,spring_faces,3.1.5,60.04360702960793,
condition files/Stage1_2.xlsx,,B2,T2,m,"['c', 'm']","['Clue', 'Monopoly']","[-0.15, 0.5]","[0.15, 0.5]",1,1,,,,,,,,,0,1,1,1,0,0,0,3,,,,,,,,,,,,,,,,,,,,,,,,,,,,,,,,,,,,,,,,,,,,,,,,,,,,,,,441.3106446919992,None,441.3106446919992,None,441.3106446919992,None,m,1,1.1824113160000707,442.8609662630006,None,442.8609662630006,None,442.8609662630006,None,444.11046284199983,None,444.11046284199983,None,444.11046284199983,None,444.11046284199983,None,,,,,,,,,,,,,,,,,,,,,,,,,,,,,,,,,,,,,,,,,,,,001,48,2020_Jan_30_1453,spring_faces,3.1.5,60.04360702960793,
condition files/Stage1_2.xlsx,,B1,T1,c,"['c', 'm']","['Clue', 'Monopoly']","[-0.15, 0.5]","[0.15, 0.5]",1,1,,,,,,,,,0,1,1,1,0,1,1,0,,,,,,,,,,,,,,,,,,,,,,,,,,,,,,,,,,,,,,,,,,,,,,,,,,,,,,,446.0601023550007,None,446.0601023550007,None,446.0601023550007,None,c,1,1.088045635002345,447.5953417259989,None,447.5953417259989,None,447.5953417259989,None,448.7452502550004,None,448.7452502550004,None,448.7452502550004,None,448.7452502550004,None,,,,,,,,,,,,,,,,,,,,,,,,,,,,,,,,,,,,,,,,,,,,001,48,2020_Jan_30_1453,spring_faces,3.1.5,60.04360702960793,
condition files/Stage1_2.xlsx,,T4,B4,m,"['c', 'm']","['Clue', 'Monopoly']","[-0.15, 0.5]","[0.15, 0.5]",1,1,,,,,,,,,0,1,1,1,0,2,2,7,,,,,,,,,,,,,,,,,,,,,,,,,,,,,,,,,,,,,,,,,,,,,,,,,,,,,,,450.71042356199905,None,450.71042356199905,None,450.71042356199905,None,c,0,0.9342398230000981,452.2451178830015,None,452.2451178830015,None,452.2451178830015,None,453.24627698900076,None,453.24627698900076,None,453.24627698900076,None,453.24627698900076,None,,,,,,,,,,,,,,,,,,,,,,,,,,,,,,,,,,,,,,,,,,,,001,48,2020_Jan_30_1453,spring_faces,3.1.5,60.04360702960793,
condition files/Stage1_2.xlsx,,T2,B1,c,"['c', 'm']","['Clue', 'Monopoly']","[-0.15, 0.5]","[0.15, 0.5]",1,1,,,,,,,,,0,1,1,1,0,3,3,1,,,,,,,,,,,,,,,,,,,,,,,,,,,,,,,,,,,,,,,,,,,,,,,,,,,,,,,455.2111161159992,None,455.2111161159992,None,455.2111161159992,None,m,0,1.266834583999298,456.7604811550009,None,456.7604811550009,None,456.7604811550009,None,458.08028712899977,None,458.08028712899977,None,458.08028712899977,None,458.08028712899977,None,,,,,,,,,,,,,,,,,,,,,,,,,,,,,,,,,,,,,,,,,,,,001,48,2020_Jan_30_1453,spring_faces,3.1.5,60.04360702960793,
condition files/Stage1_2.xlsx,,T1,B2,m,"['c', 'm']","['Clue', 'Monopoly']","[-0.15, 0.5]","[0.15, 0.5]",1,1,,,,,,,,,0,1,1,1,0,4,4,2,,,,,,,,,,,,,,,,,,,,,,,,,,,,,,,,,,,,,,,,,,,,,,,,,,,,,,,460.0439336080017,None,460.0439336080017,None,460.0439336080017,None,m,1,1.3455158940014371,461.59383405300105,None,461.59383405300105,None,461.59383405300105,None,463.01122456600206,None,463.01122456600206,None,463.01122456600206,None,463.01122456600206,None,,,,,,,,,,,,,,,,,,,,,,,,,,,,,,,,,,,,,,,,,,,,001,48,2020_Jan_30_1453,spring_faces,3.1.5,60.04360702960793,
condition files/Stage1_2.xlsx,,T3,B3,c,"['c', 'm']","['Clue', 'Monopoly']","[-0.15, 0.5]","[0.15, 0.5]",1,1,,,,,,,,,0,1,1,1,0,5,5,4,,,,,,,,,,,,,,,,,,,,,,,,,,,,,,,,,,,,,,,,,,,,,,,,,,,,,,,464.9606796529988,None,464.9606796529988,None,464.9606796529988,None,c,1,0.8918239810009254,466.4955679250015,None,466.4955679250015,None,466.4955679250015,None,467.46095848299956,None,467.46095848299956,None,467.46095848299956,None,467.46095848299956,None,,,,,,,,,,,,,,,,,,,,,,,,,,,,,,,,,,,,,,,,,,,,001,48,2020_Jan_30_1453,spring_faces,3.1.5,60.04360702960793,
condition files/Stage1_2.xlsx,,B4,T3,c,"['c', 'm']","['Clue', 'Monopoly']","[-0.15, 0.5]","[0.15, 0.5]",1,1,,,,,,,,,0,1,1,1,0,6,6,5,,,,,,,,,,,,,,,,,,,,,,,,,,,,,,,,,,,,,,,,,,,,,,,,,,,,,,,469.4106927819994,None,469.4106927819994,None,469.4106927819994,None,m,0,1.7702060020019417,470.945180712999,None,470.945180712999,None,470.945180712999,None,472.77757630199994,None,472.77757630199994,None,472.77757630199994,None,472.77757630199994,None,,,,,,,,,,,,,,,,,,,,,,,,,,,,,,,,,,,,,,,,,,,,001,48,2020_Jan_30_1453,spring_faces,3.1.5,60.04360702960793,
condition files/Stage1_2.xlsx,,B3,T4,m,"['c', 'm']","['Clue', 'Monopoly']","[-0.15, 0.5]","[0.15, 0.5]",1,1,,,,,,,,,0,1,1,1,0,7,7,6,,,,,,,,,,,,,,,,,,,,,,,,,,,,,,,,,,,,,,,,,,,,,,,,,,,,,,,474.7443359800018,None,474.7443359800018,None,474.7443359800018,None,c,0,0.9490342540011625,476.294330662,None,476.294330662,None,476.294330662,None,477.29594456999985,None,477.29594456999985,None,477.29594456999985,None,477.29594456999985,None,,,,,,,,,,,,,,,,,,,,,,,,,,,,,,,,,,,,,,,,,,,,001,48,2020_Jan_30_1453,spring_faces,3.1.5,60.04360702960793,
condition files/Stage1_1.xlsx,,B4,T4,m,"['c', 'm']","['Clue', 'Monopoly']","[-0.15, 0.5]","[0.15, 0.5]",1,1,,,,,,,,,0,2,2,2,0,0,0,7,,,,,,,,,,,,,,,,,,,,,,,,,,,,,,,,,,,,,,,,,,,,,,,,,,,,,,,479.277642371002,None,479.277642371002,None,479.277642371002,None,m,1,0.9765096010014531,480.81091530699996,None,480.81091530699996,None,480.81091530699996,None,481.8441718360009,None,481.8441718360009,None,481.8441718360009,None,481.8441718360009,None,,,,,,,,,,,,,,,,,,,,,,,,,,,,,,,,,,,,,,,,,,,,001,48,2020_Jan_30_1453,spring_faces,3.1.5,60.04360702960793,
condition files/Stage1_1.xlsx,,T4,B3,m,"['c', 'm']","['Clue', 'Monopoly']","[-0.15, 0.5]","[0.15, 0.5]",1,1,,,,,,,,,0,2,2,2,0,1,1,6,,,,,,,,,,,,,,,,,,,,,,,,,,,,,,,,,,,,,,,,,,,,,,,,,,,,,,,483.8106049250018,None,483.8106049250018,None,483.8106049250018,None,c,0,1.547436752000067,485.34390739599985,None,485.34390739599985,None,485.34390739599985,None,486.9443402950019,None,486.9443402950019,None,486.9443402950019,None,486.9443402950019,None,,,,,,,,,,,,,,,,,,,,,,,,,,,,,,,,,,,,,,,,,,,,001,48,2020_Jan_30_1453,spring_faces,3.1.5,60.04360702960793,
condition files/Stage1_1.xlsx,,T1,B1,c,"['c', 'm']","['Clue', 'Monopoly']","[-0.15, 0.5]","[0.15, 0.5]",1,1,,,,,,,,,0,2,2,2,0,2,2,0,,,,,,,,,,,,,,,,,,,,,,,,,,,,,,,,,,,,,,,,,,,,,,,,,,,,,,,488.91061799300223,None,488.91061799300223,None,488.91061799300223,None,c,1,0.7501862619974418,490.4611209399991,None,490.4611209399991,None,490.4611209399991,None,491.2771716009993,None,491.2771716009993,None,491.2771716009993,None,491.2771716009993,None,,,,,,,,,,,,,,,,,,,,,,,,,,,,,,,,,,,,,,,,,,,,001,48,2020_Jan_30_1453,spring_faces,3.1.5,60.04360702960793,
condition files/Stage1_1.xlsx,,T3,B4,c,"['c', 'm']","['Clue', 'Monopoly']","[-0.15, 0.5]","[0.15, 0.5]",1,1,,,,,,,,,0,2,2,2,0,3,3,5,,,,,,,,,,,,,,,,,,,,,,,,,,,,,,,,,,,,,,,,,,,,,,,,,,,,,,,493.2270248970017,None,493.2270248970017,None,493.2270248970017,None,c,1,1.457803220997448,494.77758350899967,None,494.77758350899967,None,494.77758350899967,None,496.29406736999954,None,496.29406736999954,None,496.29406736999954,None,496.29406736999954,None,,,,,,,,,,,,,,,,,,,,,,,,,,,,,,,,,,,,,,,,,,,,001,48,2020_Jan_30_1453,spring_faces,3.1.5,60.04360702960793,
condition files/Stage1_1.xlsx,,B1,T2,c,"['c', 'm']","['Clue', 'Monopoly']","[-0.15, 0.5]","[0.15, 0.5]",1,1,,,,,,,,,0,2,2,2,0,4,4,1,,,,,,,,,,,,,,,,,,,,,,,,,,,,,,,,,,,,,,,,,,,,,,,,,,,,,,,498.2602153400003,None,498.2602153400003,None,498.2602153400003,None,m,0,0.9998721039992233,499.7954373780012,None,499.7954373780012,None,499.7954373780012,None,500.86090232300194,None,500.86090232300194,None,500.86090232300194,None,500.86090232300194,None,,,,,,,,,,,,,,,,,,,,,,,,,,,,,,,,,,,,,,,,,,,,001,48,2020_Jan_30_1453,spring_faces,3.1.5,60.04360702960793,
condition files/Stage1_1.xlsx,,T2,B2,m,"['c', 'm']","['Clue', 'Monopoly']","[-0.15, 0.5]","[0.15, 0.5]",1,1,,,,,,,,,0,2,2,2,0,5,5,3,,,,,,,,,,,,,,,,,,,,,,,,,,,,,,,,,,,,,,,,,,,,,,,,,,,,,,,502.8269030949996,None,502.8269030949996,None,502.8269030949996,None,c,0,0.6736302459976287,504.361783356002,None,504.361783356002,None,504.361783356002,None,505.1103297720001,None,505.1103297720001,None,505.1103297720001,None,505.1103297720001,None,,,,,,,,,,,,,,,,,,,,,,,,,,,,,,,,,,,,,,,,,,,,001,48,2020_Jan_30_1453,spring_faces,3.1.5,60.04360702960793,
condition files/Stage1_1.xlsx,,B3,T3,c,"['c', 'm']","['Clue', 'Monopoly']","[-0.15, 0.5]","[0.15, 0.5]",1,1,,,,,,,,,0,2,2,2,0,6,6,4,,,,,,,,,,,,,,,,,,,,,,,,,,,,,,,,,,,,,,,,,,,,,,,,,,,,,,,507.0607779540005,None,507.0607779540005,None,507.0607779540005,None,c,1,0.6327055359979568,508.5946627779995,None,508.5946627779995,None,508.5946627779995,None,509.2784292659999,None,509.2784292659999,None,509.2784292659999,None,509.2784292659999,None,,,,,,,,,,,,,,,,,,,,,,,,,,,,,,,,,,,,,,,,,,,,001,48,2020_Jan_30_1453,spring_faces,3.1.5,60.04360702960793,
condition files/Stage1_1.xlsx,,B2,T1,m,"['c', 'm']","['Clue', 'Monopoly']","[-0.15, 0.5]","[0.15, 0.5]",1,1,,,,,,,,,0,2,2,2,0,7,7,2,,,,,,,,,,,,,,,,,,,,,,,,,,,,,,,,,,,,,,,,,,,,,,,,,,,,,,,511.2439134430024,None,511.2439134430024,None,511.2439134430024,None,m,1,0.8328728609994869,512.7944960960012,None,512.7944960960012,None,512.7944960960012,None,513.694397932999,None,513.694397932999,None,513.694397932999,None,513.694397932999,None,,,,,,,,,,,,,,,,,,,,,,,,,,,,,,,,,,,,,,,,,,,,001,48,2020_Jan_30_1453,spring_faces,3.1.5,60.04360702960793,
condition files/Stage1_2.xlsx,,T2,B1,c,"['c', 'm']","['Clue', 'Monopoly']","[-0.15, 0.5]","[0.15, 0.5]",1,1,,,,,,,,,0,3,3,3,0,0,0,1,,,,,,,,,,,,,,,,,,,,,,,,,,,,,,,,,,,,,,,,,,,,,,,,,,,,,,,515.6610255939995,None,515.6610255939995,None,515.6610255939995,None,m,0,0.7999228819971904,517.1953827860016,None,517.1953827860016,None,517.1953827860016,None,518.0625159150004,None,518.0625159150004,None,518.0625159150004,None,518.0625159150004,None,,,,,,,,,,,,,,,,,,,,,,,,,,,,,,,,,,,,,,,,,,,,001,48,2020_Jan_30_1453,spring_faces,3.1.5,60.04360702960793,
condition files/Stage1_2.xlsx,,T3,B3,c,"['c', 'm']","['Clue', 'Monopoly']","[-0.15, 0.5]","[0.15, 0.5]",1,1,,,,,,,,,0,3,3,3,0,1,1,4,,,,,,,,,,,,,,,,,,,,,,,,,,,,,,,,,,,,,,,,,,,,,,,,,,,,,,,520.0274588800021,None,520.0274588800021,None,520.0274588800021,None,m,0,0.7066414699984307,521.5606712490007,None,521.5606712490007,None,521.5606712490007,None,522.3271086659988,None,522.3271086659988,None,522.3271086659988,None,522.3271086659988,None,,,,,,,,,,,,,,,,,,,,,,,,,,,,,,,,,,,,,,,,,,,,001,48,2020_Jan_30_1453,spring_faces,3.1.5,60.04360702960793,
condition files/Stage1_2.xlsx,,B4,T3,c,"['c', 'm']","['Clue', 'Monopoly']","[-0.15, 0.5]","[0.15, 0.5]",1,1,,,,,,,,,0,3,3,3,0,2,2,5,,,,,,,,,,,,,,,,,,,,,,,,,,,,,,,,,,,,,,,,,,,,,,,,,,,,,,,524.2937779849999,None,524.2937779849999,None,524.2937779849999,None,c,1,0.7594839740013413,525.8439270830022,None,525.8439270830022,None,525.8439270830022,None,526.6604780550006,None,526.6604780550006,None,526.6604780550006,None,526.6604780550006,None,,,,,,,,,,,,,,,,,,,,,,,,,,,,,,,,,,,,,,,,,,,,001,48,2020_Jan_30_1453,spring_faces,3.1.5,60.04360702960793,
condition files/Stage1_2.xlsx,,B2,T2,m,"['c', 'm']","['Clue', 'Monopoly']","[-0.15, 0.5]","[0.15, 0.5]",1,1,,,,,,,,,0,3,3,3,0,3,3,3,,,,,,,,,,,,,,,,,,,,,,,,,,,,,,,,,,,,,,,,,,,,,,,,,,,,,,,528.6271571969992,None,528.6271571969992,None,528.6271571969992,None,c,0,0.8253430820004724,530.1620756609991,None,530.1620756609991,None,530.1620756609991,None,531.0612474660011,None,531.0612474660011,None,531.0612474660011,None,531.0612474660011,None,,,,,,,,,,,,,,,,,,,,,,,,,,,,,,,,,,,,,,,,,,,,001,48,2020_Jan_30_1453,spring_faces,3.1.5,60.04360702960793,
condition files/Stage1_2.xlsx,,B3,T4,m,"['c', 'm']","['Clue', 'Monopoly']","[-0.15, 0.5]","[0.15, 0.5]",1,1,,,,,,,,,0,3,3,3,0,4,4,6,,,,,,,,,,,,,,,,,,,,,,,,,,,,,,,,,,,,,,,,,,,,,,,,,,,,,,,533.009982497002,None,533.009982497002,None,533.009982497002,None,c,0,1.1790873700010707,534.5602149240003,None,534.5602149240003,None,534.5602149240003,None,535.7937632230023,None,535.7937632230023,None,535.7937632230023,None,535.7937632230023,None,,,,,,,,,,,,,,,,,,,,,,,,,,,,,,,,,,,,,,,,,,,,001,48,2020_Jan_30_1453,spring_faces,3.1.5,60.04360702960793,
condition files/Stage1_2.xlsx,,T4,B4,m,"['c', 'm']","['Clue', 'Monopoly']","[-0.15, 0.5]","[0.15, 0.5]",1,1,,,,,,,,,0,3,3,3,0,5,5,7,,,,,,,,,,,,,,,,,,,,,,,,,,,,,,,,,,,,,,,,,,,,,,,,,,,,,,,537.7603825410006,None,537.7603825410006,None,537.7603825410006,None,m,1,1.0530702760006534,539.2943116360002,None,539.2943116360002,None,539.2943116360002,None,540.4105994099991,None,540.4105994099991,None,540.4105994099991,None,540.4105994099991,None,,,,,,,,,,,,,,,,,,,,,,,,,,,,,,,,,,,,,,,,,,,,001,48,2020_Jan_30_1453,spring_faces,3.1.5,60.04360702960793,
condition files/Stage1_2.xlsx,,B1,T1,c,"['c', 'm']","['Clue', 'Monopoly']","[-0.15, 0.5]","[0.15, 0.5]",1,1,,,,,,,,,0,3,3,3,0,6,6,0,,,,,,,,,,,,,,,,,,,,,,,,,,,,,,,,,,,,,,,,,,,,,,,,,,,,,,,542.3771773039989,None,542.3771773039989,None,542.3771773039989,None,c,1,0.9164991689976887,543.9108915409997,None,543.9108915409997,None,543.9108915409997,None,544.8789333900022,None,544.8789333900022,None,544.8789333900022,None,544.8789333900022,None,,,,,,,,,,,,,,,,,,,,,,,,,,,,,,,,,,,,,,,,,,,,001,48,2020_Jan_30_1453,spring_faces,3.1.5,60.04360702960793,
condition files/Stage1_2.xlsx,,T1,B2,m,"['c', 'm']","['Clue', 'Monopoly']","[-0.15, 0.5]","[0.15, 0.5]",1,1,,,,,,,,,0,3,3,3,0,7,7,2,,,,,,,,,,,,,,,,,,,,,,,,,,,,,,,,,,,,,,,,,,,,,,,,,,,,,,,546.8438713960022,None,546.8438713960022,None,546.8438713960022,None,c,0,1.4419696340009978,548.3774491820004,None,548.3774491820004,None,548.3774491820004,None,549.894009063999,None,549.894009063999,None,549.894009063999,None,549.894009063999,None,,,,,,,,,,,,,,,,,,,,,,,,,,,,,,,,,,,,,,,,,,,,001,48,2020_Jan_30_1453,spring_faces,3.1.5,60.04360702960793,
condition files/Stage1_1.xlsx,,B3,T3,c,"['c', 'm']","['Clue', 'Monopoly']","[-0.15, 0.5]","[0.15, 0.5]",1,1,,,,,,,,,0,4,4,4,0,0,0,4,,,,,,,,,,,,,,,,,,,,,,,,,,,,,,,,,,,,,,,,,,,,,,,,,,,,,,,551.8606885100016,None,551.8606885100016,None,551.8606885100016,None,c,1,0.873176439999952,553.3941663530022,None,553.3941663530022,None,553.3941663530022,None,554.3299210190016,None,554.3299210190016,None,554.3299210190016,None,554.3299210190016,None,,,,,,,,,,,,,,,,,,,,,,,,,,,,,,,,,,,,,,,,,,,,001,48,2020_Jan_30_1453,spring_faces,3.1.5,60.04360702960793,
condition files/Stage1_1.xlsx,,B2,T1,m,"['c', 'm']","['Clue', 'Monopoly']","[-0.15, 0.5]","[0.15, 0.5]",1,1,,,,,,,,,0,4,4,4,0,1,1,2,,,,,,,,,,,,,,,,,,,,,,,,,,,,,,,,,,,,,,,,,,,,,,,,,,,,,,,556.2940093290017,None,556.2940093290017,None,556.2940093290017,None,m,1,0.4232088790013222,557.8441707390011,None,557.8441707390011,None,557.8441707390011,None,558.3440103130015,None,558.3440103130015,None,558.3440103130015,None,558.3440103130015,None,,,,,,,,,,,,,,,,,,,,,,,,,,,,,,,,,,,,,,,,,,,,001,48,2020_Jan_30_1453,spring_faces,3.1.5,60.04360702960793,
condition files/Stage1_1.xlsx,,T1,B1,c,"['c', 'm']","['Clue', 'Monopoly']","[-0.15, 0.5]","[0.15, 0.5]",1,1,,,,,,,,,0,4,4,4,0,2,2,0,,,,,,,,,,,,,,,,,,,,,,,,,,,,,,,,,,,,,,,,,,,,,,,,,,,,,,,560.2939333470022,None,560.2939333470022,None,560.2939333470022,None,c,1,0.7588813250004023,561.8445316819998,None,561.8445316819998,None,561.8445316819998,None,562.6775294959989,None,562.6775294959989,None,562.6775294959989,None,562.6775294959989,None,,,,,,,,,,,,,,,,,,,,,,,,,,,,,,,,,,,,,,,,,,,,001,48,2020_Jan_30_1453,spring_faces,3.1.5,60.04360702960793,
condition files/Stage1_1.xlsx,,T4,B3,m,"['c', 'm']","['Clue', 'Monopoly']","[-0.15, 0.5]","[0.15, 0.5]",1,1,,,,,,,,,0,4,4,4,0,3,3,6,,,,,,,,,,,,,,,,,,,,,,,,,,,,,,,,,,,,,,,,,,,,,,,,,,,,,,,564.6272870630019,None,564.6272870630019,None,564.6272870630019,None,m,1,0.5865249380003661,566.1608569259988,None,566.1608569259988,None,566.1608569259988,None,566.810589085002,None,566.810589085002,None,566.810589085002,None,566.810589085002,None,,,,,,,,,,,,,,,,,,,,,,,,,,,,,,,,,,,,,,,,,,,,001,48,2020_Jan_30_1453,spring_faces,3.1.5,60.04360702960793,
condition files/Stage1_1.xlsx,,T2,B2,m,"['c', 'm']","['Clue', 'Monopoly']","[-0.15, 0.5]","[0.15, 0.5]",1,1,,,,,,,,,0,4,4,4,0,4,4,3,,,,,,,,,,,,,,,,,,,,,,,,,,,,,,,,,,,,,,,,,,,,,,,,,,,,,,,568.7774669909995,None,568.7774669909995,None,568.7774669909995,None,c,0,0.4530601630031015,570.3102962449993,None,570.3102962449993,None,570.3102962449993,None,570.8273726320003,None,570.8273726320003,None,570.8273726320003,None,570.8273726320003,None,,,,,,,,,,,,,,,,,,,,,,,,,,,,,,,,,,,,,,,,,,,,001,48,2020_Jan_30_1453,spring_faces,3.1.5,60.04360702960793,
condition files/Stage1_1.xlsx,,B1,T2,c,"['c', 'm']","['Clue', 'Monopoly']","[-0.15, 0.5]","[0.15, 0.5]",1,1,,,,,,,,,0,4,4,4,0,5,5,1,,,,,,,,,,,,,,,,,,,,,,,,,,,,,,,,,,,,,,,,,,,,,,,,,,,,,,,572.7939030599991,None,572.7939030599991,None,572.7939030599991,None,c,1,0.32237542199800373,574.3290386580011,None,574.3290386580011,None,574.3290386580011,None,574.7275236000023,None,574.7275236000023,None,574.7275236000023,None,574.7275236000023,None,,,,,,,,,,,,,,,,,,,,,,,,,,,,,,,,,,,,,,,,,,,,001,48,2020_Jan_30_1453,spring_faces,3.1.5,60.04360702960793,
condition files/Stage1_1.xlsx,,T3,B4,c,"['c', 'm']","['Clue', 'Monopoly']","[-0.15, 0.5]","[0.15, 0.5]",1,1,,,,,,,,,0,4,4,4,0,6,6,5,,,,,,,,,,,,,,,,,,,,,,,,,,,,,,,,,,,,,,,,,,,,,,,,,,,,,,,576.6773339079991,None,576.6773339079991,None,576.6773339079991,None,m,0,0.230053366998618,578.2133358230021,None,578.2133358230021,None,578.2133358230021,None,578.4940771290021,None,578.4940771290021,None,578.4940771290021,None,578.4940771290021,None,,,,,,,,,,,,,,,,,,,,,,,,,,,,,,,,,,,,,,,,,,,,001,48,2020_Jan_30_1453,spring_faces,3.1.5,60.04360702960793,
condition files/Stage1_1.xlsx,,B4,T4,m,"['c', 'm']","['Clue', 'Monopoly']","[-0.15, 0.5]","[0.15, 0.5]",1,1,,,,,,,,,0,4,4,4,0,7,7,7,,,,,,,,,,,,,,,,,,,,,,,,,,,,,,,,,,,,,,,,,,,,,,,,,,,,,,,580.4605822470003,None,580.4605822470003,None,580.4605822470003,None,c,0,0.5770024109988299,582.0104029470021,None,582.0104029470021,None,582.0104029470021,None,582.660918894002,None,582.660918894002,None,582.660918894002,None,582.660918894002,None,,,,,,,,,,,,,,,,,,,,,,,,,,,,,,,,,,,,,,,,,,,,001,48,2020_Jan_30_1453,spring_faces,3.1.5,60.04360702960793,
condition files/Stage1_2.xlsx,,T4,B4,m,"['c', 'm']","['Clue', 'Monopoly']","[-0.15, 0.5]","[0.15, 0.5]",1,1,,,,,,,,,0,5,5,5,0,0,0,7,,,,,,,,,,,,,,,,,,,,,,,,,,,,,,,,,,,,,,,,,,,,,,,,,,,,,,,584.6275202350007,None,584.6275202350007,None,584.6275202350007,None,m,1,0.3943038709985558,586.1610056120007,None,586.1610056120007,None,586.1610056120007,None,586.6111858430013,None,586.6111858430013,None,586.6111858430013,None,586.6111858430013,None,,,,,,,,,,,,,,,,,,,,,,,,,,,,,,,,,,,,,,,,,,,,001,48,2020_Jan_30_1453,spring_faces,3.1.5,60.04360702960793,
condition files/Stage1_2.xlsx,,T2,B1,c,"['c', 'm']","['Clue', 'Monopoly']","[-0.15, 0.5]","[0.15, 0.5]",1,1,,,,,,,,,0,5,5,5,0,1,1,1,,,,,,,,,,,,,,,,,,,,,,,,,,,,,,,,,,,,,,,,,,,,,,,,,,,,,,,588.5772907560022,None,588.5772907560022,None,588.5772907560022,None,c,1,0.7315040579997003,590.1118838770017,None,590.1118838770017,None,590.1118838770017,None,590.8960252979996,None,590.8960252979996,None,590.8960252979996,None,590.8960252979996,None,,,,,,,,,,,,,,,,,,,,,,,,,,,,,,,,,,,,,,,,,,,,001,48,2020_Jan_30_1453,spring_faces,3.1.5,60.04360702960793,
condition files/Stage1_2.xlsx,,T3,B3,c,"['c', 'm']","['Clue', 'Monopoly']","[-0.15, 0.5]","[0.15, 0.5]",1,1,,,,,,,,,0,5,5,5,0,2,2,4,,,,,,,,,,,,,,,,,,,,,,,,,,,,,,,,,,,,,,,,,,,,,,,,,,,,,,,592.8610216790003,None,592.8610216790003,None,592.8610216790003,None,c,1,0.6724967720001587,594.3949175960006,None,594.3949175960006,None,594.3949175960006,None,595.1280850149997,None,595.1280850149997,None,595.1280850149997,None,595.1280850149997,None,,,,,,,,,,,,,,,,,,,,,,,,,,,,,,,,,,,,,,,,,,,,001,48,2020_Jan_30_1453,spring_faces,3.1.5,60.04360702960793,
condition files/Stage1_2.xlsx,,B4,T3,c,"['c', 'm']","['Clue', 'Monopoly']","[-0.15, 0.5]","[0.15, 0.5]",1,1,,,,,,,,,0,5,5,5,0,3,3,5,,,,,,,,,,,,,,,,,,,,,,,,,,,,,,,,,,,,,,,,,,,,,,,,,,,,,,,597.0936753200003,None,597.0936753200003,None,597.0936753200003,None,c,1,0.856331893002789,598.6270223270003,None,598.6270223270003,None,598.6270223270003,None,599.543599118002,None,599.543599118002,None,599.543599118002,None,599.543599118002,None,,,,,,,,,,,,,,,,,,,,,,,,,,,,,,,,,,,,,,,,,,,,001,48,2020_Jan_30_1453,spring_faces,3.1.5,60.04360702960793,
condition files/Stage1_2.xlsx,,B2,T2,m,"['c', 'm']","['Clue', 'Monopoly']","[-0.15, 0.5]","[0.15, 0.5]",1,1,,,,,,,,,0,5,5,5,0,4,4,3,,,,,,,,,,,,,,,,,,,,,,,,,,,,,,,,,,,,,,,,,,,,,,,,,,,,,,,601.5104859400017,None,601.5104859400017,None,601.5104859400017,None,m,1,0.48660058599853073,603.0447889490024,None,603.0447889490024,None,603.0447889490024,None,603.5943321560007,None,603.5943321560007,None,603.5943321560007,None,603.5943321560007,None,,,,,,,,,,,,,,,,,,,,,,,,,,,,,,,,,,,,,,,,,,,,001,48,2020_Jan_30_1453,spring_faces,3.1.5,60.04360702960793,
condition files/Stage1_2.xlsx,,B3,T4,m,"['c', 'm']","['Clue', 'Monopoly']","[-0.15, 0.5]","[0.15, 0.5]",1,1,,,,,,,,,0,5,5,5,0,5,5,6,,,,,,,,,,,,,,,,,,,,,,,,,,,,,,,,,,,,,,,,,,,,,,,,,,,,,,,605.560655412999,None,605.560655412999,None,605.560655412999,None,c,0,0.8215321489988128,607.0938530290005,None,607.0938530290005,None,607.0938530290005,None,607.9776106050012,None,607.9776106050012,None,607.9776106050012,None,607.9776106050012,None,,,,,,,,,,,,,,,,,,,,,,,,,,,,,,,,,,,,,,,,,,,,001,48,2020_Jan_30_1453,spring_faces,3.1.5,60.04360702960793,
condition files/Stage1_2.xlsx,,B1,T1,c,"['c', 'm']","['Clue', 'Monopoly']","[-0.15, 0.5]","[0.15, 0.5]",1,1,,,,,,,,,0,5,5,5,0,6,6,0,,,,,,,,,,,,,,,,,,,,,,,,,,,,,,,,,,,,,,,,,,,,,,,,,,,,,,,609.9439607490021,None,609.9439607490021,None,609.9439607490021,None,m,0,0.7570997360016918,611.4783195540003,None,611.4783195540003,None,611.4783195540003,None,612.2952416150001,None,612.2952416150001,None,612.2952416150001,None,612.2952416150001,None,,,,,,,,,,,,,,,,,,,,,,,,,,,,,,,,,,,,,,,,,,,,001,48,2020_Jan_30_1453,spring_faces,3.1.5,60.04360702960793,
condition files/Stage1_2.xlsx,,T1,B2,m,"['c', 'm']","['Clue', 'Monopoly']","[-0.15, 0.5]","[0.15, 0.5]",1,1,,,,,,,,,0,5,5,5,0,7,7,2,,,,,,,,,,,,,,,,,,,,,,,,,,,,,,,,,,,,,,,,,,,,,,,,,,,,,,,614.2609596820002,None,614.2609596820002,None,614.2609596820002,None,m,1,0.5365311809982813,615.8108396710013,None,615.8108396710013,None,615.8108396710013,None,616.4120057319997,None,616.4120057319997,None,616.4120057319997,None,616.4120057319997,None,,,,,,,,,,,,,,,,,,,,,,,,,,,,,,,,,,,,,,,,,,,,001,48,2020_Jan_30_1453,spring_faces,3.1.5,60.04360702960793,
condition files/Stage1_1.xlsx,,T3,B4,c,"['c', 'm']","['Clue', 'Monopoly']","[-0.15, 0.5]","[0.15, 0.5]",1,1,,,,,,,,,0,6,6,6,0,0,0,5,,,,,,,,,,,,,,,,,,,,,,,,,,,,,,,,,,,,,,,,,,,,,,,,,,,,,,,618.3937842039995,None,618.3937842039995,None,618.3937842039995,None,c,1,0.61210866699912,619.9272736259991,None,619.9272736259991,None,619.9272736259991,None,620.5969742810012,None,620.5969742810012,None,620.5969742810012,None,620.5969742810012,None,,,,,,,,,,,,,,,,,,,,,,,,,,,,,,,,,,,,,,,,,,,,001,48,2020_Jan_30_1453,spring_faces,3.1.5,60.04360702960793,
condition files/Stage1_1.xlsx,,B2,T1,m,"['c', 'm']","['Clue', 'Monopoly']","[-0.15, 0.5]","[0.15, 0.5]",1,1,,,,,,,,,0,6,6,6,0,1,1,2,,,,,,,,,,,,,,,,,,,,,,,,,,,,,,,,,,,,,,,,,,,,,,,,,,,,,,,622.5605713830009,None,622.5605713830009,None,622.5605713830009,None,c,0,1.0523775319998094,624.110984834002,None,624.110984834002,None,624.110984834002,None,625.2296197760006,None,625.2296197760006,None,625.2296197760006,None,625.2296197760006,None,,,,,,,,,,,,,,,,,,,,,,,,,,,,,,,,,,,,,,,,,,,,001,48,2020_Jan_30_1453,spring_faces,3.1.5,60.04360702960793,
condition files/Stage1_1.xlsx,,B3,T3,c,"['c', 'm']","['Clue', 'Monopoly']","[-0.15, 0.5]","[0.15, 0.5]",1,1,,,,,,,,,0,6,6,6,0,2,2,4,,,,,,,,,,,,,,,,,,,,,,,,,,,,,,,,,,,,,,,,,,,,,,,,,,,,,,,627.1939756470019,None,627.1939756470019,None,627.1939756470019,None,c,1,0.7550027559991577,628.7443667680018,None,628.7443667680018,None,628.7443667680018,None,629.5630873320006,None,629.5630873320006,None,629.5630873320006,None,629.5630873320006,None,,,,,,,,,,,,,,,,,,,,,,,,,,,,,,,,,,,,,,,,,,,,001,48,2020_Jan_30_1453,spring_faces,3.1.5,60.04360702960793,
condition files/Stage1_1.xlsx,,T2,B2,m,"['c', 'm']","['Clue', 'Monopoly']","[-0.15, 0.5]","[0.15, 0.5]",1,1,,,,,,,,,0,6,6,6,0,3,3,3,,,,,,,,,,,,,,,,,,,,,,,,,,,,,,,,,,,,,,,,,,,,,,,,,,,,,,,631.527854562999,None,631.527854562999,None,631.527854562999,None,m,1,0.5509562909974193,633.0603470749993,None,633.0603470749993,None,633.0603470749993,None,633.6941075060022,None,633.6941075060022,None,633.6941075060022,None,633.6941075060022,None,,,,,,,,,,,,,,,,,,,,,,,,,,,,,,,,,,,,,,,,,,,,001,48,2020_Jan_30_1453,spring_faces,3.1.5,60.04360702960793,
condition files/Stage1_1.xlsx,,B4,T4,m,"['c', 'm']","['Clue', 'Monopoly']","[-0.15, 0.5]","[0.15, 0.5]",1,1,,,,,,,,,0,6,6,6,0,4,4,7,,,,,,,,,,,,,,,,,,,,,,,,,,,,,,,,,,,,,,,,,,,,,,,,,,,,,,,635.6437502400004,None,635.6437502400004,None,635.6437502400004,None,m,1,0.8007799510014593,637.1785747220019,None,637.1785747220019,None,637.1785747220019,None,638.0435111690022,None,638.0435111690022,None,638.0435111690022,None,638.0435111690022,None,,,,,,,,,,,,,,,,,,,,,,,,,,,,,,,,,,,,,,,,,,,,001,48,2020_Jan_30_1453,spring_faces,3.1.5,60.04360702960793,
condition files/Stage1_1.xlsx,,T1,B1,c,"['c', 'm']","['Clue', 'Monopoly']","[-0.15, 0.5]","[0.15, 0.5]",1,1,,,,,,,,,0,6,6,6,0,5,5,0,,,,,,,,,,,,,,,,,,,,,,,,,,,,,,,,,,,,,,,,,,,,,,,,,,,,,,,640.0109080780021,None,640.0109080780021,None,640.0109080780021,None,m,0,0.4663146989987581,641.5609567070023,None,641.5609567070023,None,641.5609567070023,None,642.0936244129989,None,642.0936244129989,None,642.0936244129989,None,642.0936244129989,None,,,,,,,,,,,,,,,,,,,,,,,,,,,,,,,,,,,,,,,,,,,,001,48,2020_Jan_30_1453,spring_faces,3.1.5,60.04360702960793,
condition files/Stage1_1.xlsx,,B1,T2,c,"['c', 'm']","['Clue', 'Monopoly']","[-0.15, 0.5]","[0.15, 0.5]",1,1,,,,,,,,,0,6,6,6,0,6,6,1,,,,,,,,,,,,,,,,,,,,,,,,,,,,,,,,,,,,,,,,,,,,,,,,,,,,,,,644.0439366579994,None,644.0439366579994,None,644.0439366579994,None,c,1,0.689299518999178,645.5940318870016,None,645.5940318870016,None,645.5940318870016,None,646.3441737499998,None,646.3441737499998,None,646.3441737499998,None,646.3441737499998,None,,,,,,,,,,,,,,,,,,,,,,,,,,,,,,,,,,,,,,,,,,,,001,48,2020_Jan_30_1453,spring_faces,3.1.5,60.04360702960793,
condition files/Stage1_1.xlsx,,T4,B3,m,"['c', 'm']","['Clue', 'Monopoly']","[-0.15, 0.5]","[0.15, 0.5]",1,1,,,,,,,,,0,6,6,6,0,7,7,6,,,,,,,,,,,,,,,,,,,,,,,,,,,,,,,,,,,,,,,,,,,,,,,,,,,,,,,648.3107775179997,None,648.3107775179997,None,648.3107775179997,None,c,0,0.8860665089996473,649.8613040769997,None,649.8613040769997,None,649.8613040769997,None,650.8109908600018,None,650.8109908600018,None,650.8109908600018,None,650.8109908600018,None,,,,,,,,,,,,,,,,,,,,,,,,,,,,,,,,,,,,,,,,,,,,001,48,2020_Jan_30_1453,spring_faces,3.1.5,60.04360702960793,
condition files/Stage1_2.xlsx,,B4,T3,c,"['c', 'm']","['Clue', 'Monopoly']","[-0.15, 0.5]","[0.15, 0.5]",1,1,,,,,,,,,0,7,7,7,0,0,0,5,,,,,,,,,,,,,,,,,,,,,,,,,,,,,,,,,,,,,,,,,,,,,,,,,,,,,,,652.7938365570008,None,652.7938365570008,None,652.7938365570008,None,m,0,0.48323850499946275,654.3441078270007,None,654.3441078270007,None,654.3441078270007,None,654.8802495769996,None,654.8802495769996,None,654.8802495769996,None,654.8802495769996,None,,,,,,,,,,,,,,,,,,,,,,,,,,,,,,,,,,,,,,,,,,,,001,48,2020_Jan_30_1453,spring_faces,3.1.5,60.04360702960793,
condition files/Stage1_2.xlsx,,T3,B3,c,"['c', 'm']","['Clue', 'Monopoly']","[-0.15, 0.5]","[0.15, 0.5]",1,1,,,,,,,,,0,7,7,7,0,1,1,4,,,,,,,,,,,,,,,,,,,,,,,,,,,,,,,,,,,,,,,,,,,,,,,,,,,,,,,656.843476031001,None,656.843476031001,None,656.843476031001,None,c,1,0.5456034749986429,658.3777504050013,None,658.3777504050013,None,658.3777504050013,None,658.9770277339994,None,658.9770277339994,None,658.9770277339994,None,658.9770277339994,None,,,,,,,,,,,,,,,,,,,,,,,,,,,,,,,,,,,,,,,,,,,,001,48,2020_Jan_30_1453,spring_faces,3.1.5,60.04360702960793,
condition files/Stage1_2.xlsx,,B1,T1,c,"['c', 'm']","['Clue', 'Monopoly']","[-0.15, 0.5]","[0.15, 0.5]",1,1,,,,,,,,,0,7,7,7,0,2,2,0,,,,,,,,,,,,,,,,,,,,,,,,,,,,,,,,,,,,,,,,,,,,,,,,,,,,,,,660.9443311390023,None,660.9443311390023,None,660.9443311390023,None,m,0,0.9570423059994937,662.4943585010005,None,662.4943585010005,None,662.4943585010005,None,663.5112438239994,None,663.5112438239994,None,663.5112438239994,None,663.5112438239994,None,,,,,,,,,,,,,,,,,,,,,,,,,,,,,,,,,,,,,,,,,,,,001,48,2020_Jan_30_1453,spring_faces,3.1.5,60.04360702960793,
condition files/Stage1_2.xlsx,,B3,T4,m,"['c', 'm']","['Clue', 'Monopoly']","[-0.15, 0.5]","[0.15, 0.5]",1,1,,,,,,,,,0,7,7,7,0,3,3,6,,,,,,,,,,,,,,,,,,,,,,,,,,,,,,,,,,,,,,,,,,,,,,,,,,,,,,,665.4772668229998,None,665.4772668229998,None,665.4772668229998,None,c,0,0.9523014059996058,667.0269965490006,None,667.0269965490006,None,667.0269965490006,None,668.060439036999,None,668.060439036999,None,668.060439036999,None,668.060439036999,None,,,,,,,,,,,,,,,,,,,,,,,,,,,,,,,,,,,,,,,,,,,,001,48,2020_Jan_30_1453,spring_faces,3.1.5,60.04360702960793,
condition files/Stage1_2.xlsx,,T2,B1,c,"['c', 'm']","['Clue', 'Monopoly']","[-0.15, 0.5]","[0.15, 0.5]",1,1,,,,,,,,,0,7,7,7,0,4,4,1,,,,,,,,,,,,,,,,,,,,,,,,,,,,,,,,,,,,,,,,,,,,,,,,,,,,,,,670.0102859840008,None,670.0102859840008,None,670.0102859840008,None,c,1,0.6252381310005148,671.5461822450015,None,671.5461822450015,None,671.5461822450015,None,672.2443020030005,None,672.2443020030005,None,672.2443020030005,None,672.2443020030005,None,,,,,,,,,,,,,,,,,,,,,,,,,,,,,,,,,,,,,,,,,,,,001,48,2020_Jan_30_1453,spring_faces,3.1.5,60.04360702960793,
condition files/Stage1_2.xlsx,,B2,T2,m,"['c', 'm']","['Clue', 'Monopoly']","[-0.15, 0.5]","[0.15, 0.5]",1,1,,,,,,,,,0,7,7,7,0,5,5,3,,,,,,,,,,,,,,,,,,,,,,,,,,,,,,,,,,,,,,,,,,,,,,,,,,,,,,,674.1933417990003,None,674.1933417990003,None,674.1933417990003,None,m,1,0.6674241420005274,675.7438762640013,None,675.7438762640013,None,675.7438762640013,None,676.4944490599992,None,676.4944490599992,None,676.4944490599992,None,676.4944490599992,None,,,,,,,,,,,,,,,,,,,,,,,,,,,,,,,,,,,,,,,,,,,,001,48,2020_Jan_30_1453,spring_faces,3.1.5,60.04360702960793,
condition files/Stage1_2.xlsx,,T4,B4,m,"['c', 'm']","['Clue', 'Monopoly']","[-0.15, 0.5]","[0.15, 0.5]",1,1,,,,,,,,,0,7,7,7,0,6,6,7,,,,,,,,,,,,,,,,,,,,,,,,,,,,,,,,,,,,,,,,,,,,,,,,,,,,,,,678.4440110719988,None,678.4440110719988,None,678.4440110719988,None,c,0,0.67322032499942,679.9781917319997,None,679.9781917319997,None,679.9781917319997,None,680.7109235600001,None,680.7109235600001,None,680.7109235600001,None,680.7109235600001,None,,,,,,,,,,,,,,,,,,,,,,,,,,,,,,,,,,,,,,,,,,,,001,48,2020_Jan_30_1453,spring_faces,3.1.5,60.04360702960793,
condition files/Stage1_2.xlsx,,T1,B2,m,"['c', 'm']","['Clue', 'Monopoly']","[-0.15, 0.5]","[0.15, 0.5]",1,1,,,,,,,,,0,7,7,7,0,7,7,2,,,,,,,,,,,,,,,,,,,,,,,,,,,,,,,,,,,,,,,,,,,,,,,,,,,,,,,682.6773450649998,None,682.6773450649998,None,682.6773450649998,None,m,1,0.9197861250031565,684.2276383530007,None,684.2276383530007,None,684.2276383530007,None,685.210705739999,None,685.210705739999,None,685.210705739999,None,685.210705739999,None,,,,,,,,,,,,,,,,,,,,,,,,,,,,,,,,,,,,,,,,,,,,001,48,2020_Jan_30_1453,spring_faces,3.1.5,60.04360702960793,
condition files/Stage1_1.xlsx,,B1,T2,c,"['c', 'm']","['Clue', 'Monopoly']","[-0.15, 0.5]","[0.15, 0.5]",1,1,,,,,,,,,0,8,8,8,0,0,0,1,,,,,,,,,,,,,,,,,,,,,,,,,,,,,,,,,,,,,,,,,,,,,,,,,,,,,,,687.1943622569997,None,687.1943622569997,None,687.1943622569997,None,c,1,0.7875407909996284,688.7278596880024,None,688.7278596880024,None,688.7278596880024,None,689.5785304310011,None,689.5785304310011,None,689.5785304310011,None,689.5785304310011,None,,,,,,,,,,,,,,,,,,,,,,,,,,,,,,,,,,,,,,,,,,,,001,48,2020_Jan_30_1453,spring_faces,3.1.5,60.04360702960793,
condition files/Stage1_1.xlsx,,T3,B4,c,"['c', 'm']","['Clue', 'Monopoly']","[-0.15, 0.5]","[0.15, 0.5]",1,1,,,,,,,,,0,8,8,8,0,1,1,5,,,,,,,,,,,,,,,,,,,,,,,,,,,,,,,,,,,,,,,,,,,,,,,,,,,,,,,691.5433232319992,None,691.5433232319992,None,691.5433232319992,None,c,1,0.7890410699983477,693.078376772999,None,693.078376772999,None,693.078376772999,None,693.9270896019989,None,693.9270896019989,None,693.9270896019989,None,693.9270896019989,None,,,,,,,,,,,,,,,,,,,,,,,,,,,,,,,,,,,,,,,,,,,,001,48,2020_Jan_30_1453,spring_faces,3.1.5,60.04360702960793,
condition files/Stage1_1.xlsx,,B3,T3,c,"['c', 'm']","['Clue', 'Monopoly']","[-0.15, 0.5]","[0.15, 0.5]",1,1,,,,,,,,,0,8,8,8,0,2,2,4,,,,,,,,,,,,,,,,,,,,,,,,,,,,,,,,,,,,,,,,,,,,,,,,,,,,,,,695.8944753899996,None,695.8944753899996,None,695.8944753899996,None,m,0,0.7600951000022178,697.4273010690013,None,697.4273010690013,None,697.4273010690013,None,698.2443311210009,None,698.2443311210009,None,698.2443311210009,None,698.2443311210009,None,,,,,,,,,,,,,,,,,,,,,,,,,,,,,,,,,,,,,,,,,,,,001,48,2020_Jan_30_1453,spring_faces,3.1.5,60.04360702960793,
condition files/Stage1_1.xlsx,,B4,T4,m,"['c', 'm']","['Clue', 'Monopoly']","[-0.15, 0.5]","[0.15, 0.5]",1,1,,,,,,,,,0,8,8,8,0,3,3,7,,,,,,,,,,,,,,,,,,,,,,,,,,,,,,,,,,,,,,,,,,,,,,,,,,,,,,,700.2100178799992,None,700.2100178799992,None,700.2100178799992,None,c,0,0.7627260069966724,701.7446375799991,None,701.7446375799991,None,701.7446375799991,None,702.577850427002,None,702.577850427002,None,702.577850427002,None,702.577850427002,None,,,,,,,,,,,,,,,,,,,,,,,,,,,,,,,,,,,,,,,,,,,,001,48,2020_Jan_30_1453,spring_faces,3.1.5,60.04360702960793,
condition files/Stage1_1.xlsx,,T4,B3,m,"['c', 'm']","['Clue', 'Monopoly']","[-0.15, 0.5]","[0.15, 0.5]",1,1,,,,,,,,,0,8,8,8,0,4,4,6,,,,,,,,,,,,,,,,,,,,,,,,,,,,,,,,,,,,,,,,,,,,,,,,,,,,,,,704.5273115279997,None,704.5273115279997,None,704.5273115279997,None,m,1,1.213755921999109,706.0775742340011,None,706.0775742340011,None,706.0775742340011,None,707.3438088479998,None,707.3438088479998,None,707.3438088479998,None,707.3438088479998,None,,,,,,,,,,,,,,,,,,,,,,,,,,,,,,,,,,,,,,,,,,,,001,48,2020_Jan_30_1453,spring_faces,3.1.5,60.04360702960793,
condition files/Stage1_1.xlsx,,B2,T1,m,"['c', 'm']","['Clue', 'Monopoly']","[-0.15, 0.5]","[0.15, 0.5]",1,1,,,,,,,,,0,8,8,8,0,5,5,2,,,,,,,,,,,,,,,,,,,,,,,,,,,,,,,,,,,,,,,,,,,,,,,,,,,,,,,709.3100578500016,None,709.3100578500016,None,709.3100578500016,None,c,0,0.6384742650006956,710.8608897049999,None,710.8608897049999,None,710.8608897049999,None,711.5606645810003,None,711.5606645810003,None,711.5606645810003,None,711.5606645810003,None,,,,,,,,,,,,,,,,,,,,,,,,,,,,,,,,,,,,,,,,,,,,001,48,2020_Jan_30_1453,spring_faces,3.1.5,60.04360702960793,
condition files/Stage1_1.xlsx,,T1,B1,c,"['c', 'm']","['Clue', 'Monopoly']","[-0.15, 0.5]","[0.15, 0.5]",1,1,,,,,,,,,0,8,8,8,0,6,6,0,,,,,,,,,,,,,,,,,,,,,,,,,,,,,,,,,,,,,,,,,,,,,,,,,,,,,,,713.527336733001,None,713.527336733001,None,713.527336733001,None,m,0,0.4058127809985308,715.0775678419996,None,715.0775678419996,None,715.0775678419996,None,715.5453767559993,None,715.5453767559993,None,715.5453767559993,None,715.5453767559993,None,,,,,,,,,,,,,,,,,,,,,,,,,,,,,,,,,,,,,,,,,,,,001,48,2020_Jan_30_1453,spring_faces,3.1.5,60.04360702960793,
condition files/Stage1_1.xlsx,,T2,B2,m,"['c', 'm']","['Clue', 'Monopoly']","[-0.15, 0.5]","[0.15, 0.5]",1,1,,,,,,,,,0,8,8,8,0,7,7,3,,,,,,,,,,,,,,,,,,,,,,,,,,,,,,,,,,,,,,,,,,,,,,,,,,,,,,,717.5107706529998,None,717.5107706529998,None,717.5107706529998,None,c,0,0.45552218499869923,719.0438454120012,None,719.0438454120012,None,719.0438454120012,None,719.5612434909999,None,719.5612434909999,None,719.5612434909999,None,719.5612434909999,None,,,,,,,,,,,,,,,,,,,,,,,,,,,,,,,,,,,,,,,,,,,,001,48,2020_Jan_30_1453,spring_faces,3.1.5,60.04360702960793,
condition files/Stage1_2.xlsx,,T4,B4,m,"['c', 'm']","['Clue', 'Monopoly']","[-0.15, 0.5]","[0.15, 0.5]",1,1,,,,,,,,,0,9,9,9,0,0,0,7,,,,,,,,,,,,,,,,,,,,,,,,,,,,,,,,,,,,,,,,,,,,,,,,,,,,,,,721.5441486970012,None,721.5441486970012,None,721.5441486970012,None,m,1,0.2920521980013291,723.0793762680005,None,723.0793762680005,None,723.0793762680005,None,723.4269215089989,None,723.4269215089989,None,723.4269215089989,None,723.4269215089989,None,,,,,,,,,,,,,,,,,,,,,,,,,,,,,,,,,,,,,,,,,,,,001,48,2020_Jan_30_1453,spring_faces,3.1.5,60.04360702960793,
condition files/Stage1_2.xlsx,,B4,T3,c,"['c', 'm']","['Clue', 'Monopoly']","[-0.15, 0.5]","[0.15, 0.5]",1,1,,,,,,,,,0,9,9,9,0,1,1,5,,,,,,,,,,,,,,,,,,,,,,,,,,,,,,,,,,,,,,,,,,,,,,,,,,,,,,,725.393638952999,None,725.393638952999,None,725.393638952999,None,m,0,0.4587116689981485,726.9287081270013,None,726.9287081270013,None,726.9287081270013,None,727.4607363210016,None,727.4607363210016,None,727.4607363210016,None,727.4607363210016,None,,,,,,,,,,,,,,,,,,,,,,,,,,,,,,,,,,,,,,,,,,,,001,48,2020_Jan_30_1453,spring_faces,3.1.5,60.04360702960793,
condition files/Stage1_2.xlsx,,T3,B3,c,"['c', 'm']","['Clue', 'Monopoly']","[-0.15, 0.5]","[0.15, 0.5]",1,1,,,,,,,,,0,9,9,9,0,2,2,4,,,,,,,,,,,,,,,,,,,,,,,,,,,,,,,,,,,,,,,,,,,,,,,,,,,,,,,729.4106757260015,None,729.4106757260015,None,729.4106757260015,None,c,1,0.4595713050002814,730.9438763569997,None,730.9438763569997,None,730.9438763569997,None,731.4602716430018,None,731.4602716430018,None,731.4602716430018,None,731.4602716430018,None,,,,,,,,,,,,,,,,,,,,,,,,,,,,,,,,,,,,,,,,,,,,001,48,2020_Jan_30_1453,spring_faces,3.1.5,60.04360702960793,
condition files/Stage1_2.xlsx,,T2,B1,c,"['c', 'm']","['Clue', 'Monopoly']","[-0.15, 0.5]","[0.15, 0.5]",1,1,,,,,,,,,0,9,9,9,0,3,3,1,,,,,,,,,,,,,,,,,,,,,,,,,,,,,,,,,,,,,,,,,,,,,,,,,,,,,,,733.427450670999,None,733.427450670999,None,733.427450670999,None,m,0,0.3922632629983127,734.9630378729998,None,734.9630378729998,None,734.9630378729998,None,735.4113987960009,None,735.4113987960009,None,735.4113987960009,None,735.4113987960009,None,,,,,,,,,,,,,,,,,,,,,,,,,,,,,,,,,,,,,,,,,,,,001,48,2020_Jan_30_1453,spring_faces,3.1.5,60.04360702960793,
condition files/Stage1_2.xlsx,,B2,T2,m,"['c', 'm']","['Clue', 'Monopoly']","[-0.15, 0.5]","[0.15, 0.5]",1,1,,,,,,,,,0,9,9,9,0,4,4,3,,,,,,,,,,,,,,,,,,,,,,,,,,,,,,,,,,,,,,,,,,,,,,,,,,,,,,,737.3773856690023,None,737.3773856690023,None,737.3773856690023,None,c,0,0.6040434669994283,738.911345888002,None,738.911345888002,None,738.911345888002,None,739.5795661330012,None,739.5795661330012,None,739.5795661330012,None,739.5795661330012,None,,,,,,,,,,,,,,,,,,,,,,,,,,,,,,,,,,,,,,,,,,,,001,48,2020_Jan_30_1453,spring_faces,3.1.5,60.04360702960793,
condition files/Stage1_2.xlsx,,B3,T4,m,"['c', 'm']","['Clue', 'Monopoly']","[-0.15, 0.5]","[0.15, 0.5]",1,1,,,,,,,,,0,9,9,9,0,5,5,6,,,,,,,,,,,,,,,,,,,,,,,,,,,,,,,,,,,,,,,,,,,,,,,,,,,,,,,741.5441143110002,None,741.5441143110002,None,741.5441143110002,None,c,0,0.6776902460005658,743.0936553680003,None,743.0936553680003,None,743.0936553680003,None,743.8274152510021,None,743.8274152510021,None,743.8274152510021,None,743.8274152510021,None,,,,,,,,,,,,,,,,,,,,,,,,,,,,,,,,,,,,,,,,,,,,001,48,2020_Jan_30_1453,spring_faces,3.1.5,60.04360702960793,
condition files/Stage1_2.xlsx,,T1,B2,m,"['c', 'm']","['Clue', 'Monopoly']","[-0.15, 0.5]","[0.15, 0.5]",1,1,,,,,,,,,0,9,9,9,0,6,6,2,,,,,,,,,,,,,,,,,,,,,,,,,,,,,,,,,,,,,,,,,,,,,,,,,,,,,,,745.7939762070018,None,745.7939762070018,None,745.7939762070018,None,m,1,0.5392394049995346,747.3281116520011,None,747.3281116520011,None,747.3281116520011,None,747.9272584940009,None,747.9272584940009,None,747.9272584940009,None,747.9272584940009,None,,,,,,,,,,,,,,,,,,,,,,,,,,,,,,,,,,,,,,,,,,,,001,48,2020_Jan_30_1453,spring_faces,3.1.5,60.04360702960793,
condition files/Stage1_2.xlsx,,B1,T1,c,"['c', 'm']","['Clue', 'Monopoly']","[-0.15, 0.5]","[0.15, 0.5]",1,1,,,,,,,,,0,9,9,9,0,7,7,0,,,,,,,,,,,,,,,,,,,,,,,,,,,,,,,,,,,,,,,,,,,,,,,,,,,,,,,749.8945351820003,None,749.8945351820003,None,749.8945351820003,None,c,1,0.5028943580000487,751.4444736110017,None,751.4444736110017,None,751.4444736110017,None,752.0128388990015,None,752.0128388990015,None,752.0128388990015,None,752.0128388990015,None,,,,,,,,,,,,,,,,,,,,,,,,,,,,,,,,,,,,,,,,,,,,001,48,2020_Jan_30_1453,spring_faces,3.1.5,60.04360702960793,
condition files/Stage1_1.xlsx,,B2,T1,m,"['c', 'm']","['Clue', 'Monopoly']","[-0.15, 0.5]","[0.15, 0.5]",1,1,,,,,,,,,0,10,10,10,0,0,0,2,,,,,,,,,,,,,,,,,,,,,,,,,,,,,,,,,,,,,,,,,,,,,,,,,,,,,,,753.994389558,None,753.994389558,None,753.994389558,None,m,1,0.5642928219967871,755.5270646499994,None,755.5270646499994,None,755.5270646499994,None,756.1460250599994,None,756.1460250599994,None,756.1460250599994,None,756.1460250599994,None,,,,,,,,,,,,,,,,,,,,,,,,,,,,,,,,,,,,,,,,,,,,001,48,2020_Jan_30_1453,spring_faces,3.1.5,60.04360702960793,
condition files/Stage1_1.xlsx,,T4,B3,m,"['c', 'm']","['Clue', 'Monopoly']","[-0.15, 0.5]","[0.15, 0.5]",1,1,,,,,,,,,0,10,10,10,0,1,1,6,,,,,,,,,,,,,,,,,,,,,,,,,,,,,,,,,,,,,,,,,,,,,,,,,,,,,,,758.1108895750003,None,758.1108895750003,None,758.1108895750003,None,c,0,0.6701725870007067,759.6452117020017,None,759.6452117020017,None,759.6452117020017,None,760.3776297309996,None,760.3776297309996,None,760.3776297309996,None,760.3776297309996,None,,,,,,,,,,,,,,,,,,,,,,,,,,,,,,,,,,,,,,,,,,,,001,48,2020_Jan_30_1453,spring_faces,3.1.5,60.04360702960793,
condition files/Stage1_1.xlsx,,T1,B1,c,"['c', 'm']","['Clue', 'Monopoly']","[-0.15, 0.5]","[0.15, 0.5]",1,1,,,,,,,,,0,10,10,10,0,2,2,0,,,,,,,,,,,,,,,,,,,,,,,,,,,,,,,,,,,,,,,,,,,,,,,,,,,,,,,762.3439958240015,None,762.3439958240015,None,762.3439958240015,None,m,0,0.7090845980019367,763.8943458989997,None,763.8943458989997,None,763.8943458989997,None,764.6616614630002,None,764.6616614630002,None,764.6616614630002,None,764.6616614630002,None,,,,,,,,,,,,,,,,,,,,,,,,,,,,,,,,,,,,,,,,,,,,001,48,2020_Jan_30_1453,spring_faces,3.1.5,60.04360702960793,
condition files/Stage1_1.xlsx,,T3,B4,c,"['c', 'm']","['Clue', 'Monopoly']","[-0.15, 0.5]","[0.15, 0.5]",1,1,,,,,,,,,0,10,10,10,0,3,3,5,,,,,,,,,,,,,,,,,,,,,,,,,,,,,,,,,,,,,,,,,,,,,,,,,,,,,,,766.6276191620018,None,766.6276191620018,None,766.6276191620018,None,c,1,0.5536382300015248,768.1777350390003,None,768.1777350390003,None,768.1777350390003,None,768.7946302420023,None,768.7946302420023,None,768.7946302420023,None,768.7946302420023,None,,,,,,,,,,,,,,,,,,,,,,,,,,,,,,,,,,,,,,,,,,,,001,48,2020_Jan_30_1453,spring_faces,3.1.5,60.04360702960793,
condition files/Stage1_1.xlsx,,B4,T4,m,"['c', 'm']","['Clue', 'Monopoly']","[-0.15, 0.5]","[0.15, 0.5]",1,1,,,,,,,,,0,10,10,10,0,4,4,7,,,,,,,,,,,,,,,,,,,,,,,,,,,,,,,,,,,,,,,,,,,,,,,,,,,,,,,770.7606778699992,None,770.7606778699992,None,770.7606778699992,None,m,1,0.6432911360025173,772.2960273230019,None,772.2960273230019,None,772.2960273230019,None,772.9945719300013,None,772.9945719300013,None,772.9945719300013,None,772.9945719300013,None,,,,,,,,,,,,,,,,,,,,,,,,,,,,,,,,,,,,,,,,,,,,001,48,2020_Jan_30_1453,spring_faces,3.1.5,60.04360702960793,
condition files/Stage1_1.xlsx,,T2,B2,m,"['c', 'm']","['Clue', 'Monopoly']","[-0.15, 0.5]","[0.15, 0.5]",1,1,,,,,,,,,0,10,10,10,0,5,5,3,,,,,,,,,,,,,,,,,,,,,,,,,,,,,,,,,,,,,,,,,,,,,,,,,,,,,,,774.9606932230017,None,774.9606932230017,None,774.9606932230017,None,m,1,0.7493558679998387,776.4940423340013,None,776.4940423340013,None,776.4940423340013,None,777.2942366110001,None,777.2942366110001,None,777.2942366110001,None,777.2942366110001,None,,,,,,,,,,,,,,,,,,,,,,,,,,,,,,,,,,,,,,,,,,,,001,48,2020_Jan_30_1453,spring_faces,3.1.5,60.04360702960793,
condition files/Stage1_1.xlsx,,B3,T3,c,"['c', 'm']","['Clue', 'Monopoly']","[-0.15, 0.5]","[0.15, 0.5]",1,1,,,,,,,,,0,10,10,10,0,6,6,4,,,,,,,,,,,,,,,,,,,,,,,,,,,,,,,,,,,,,,,,,,,,,,,,,,,,,,,779.2606566409995,None,779.2606566409995,None,779.2606566409995,None,c,1,0.7193268410010205,780.796056141,None,780.796056141,None,780.796056141,None,781.5776926870021,None,781.5776926870021,None,781.5776926870021,None,781.5776926870021,None,,,,,,,,,,,,,,,,,,,,,,,,,,,,,,,,,,,,,,,,,,,,001,48,2020_Jan_30_1453,spring_faces,3.1.5,60.04360702960793,
condition files/Stage1_1.xlsx,,B1,T2,c,"['c', 'm']","['Clue', 'Monopoly']","[-0.15, 0.5]","[0.15, 0.5]",1,1,,,,,,,,,0,10,10,10,0,7,7,1,,,,,,,,,,,,,,,,,,,,,,,,,,,,,,,,,,,,,,,,,,,,,,,,,,,,,,,783.5435360279989,None,783.5435360279989,None,783.5435360279989,None,c,1,1.8618687620000856,785.0775041859997,None,785.0775041859997,None,785.0775041859997,None,786.9936832370004,None,786.9936832370004,None,786.9936832370004,None,786.9936832370004,None,,,,,,,,,,,,,,,,,,,,,,,,,,,,,,,,,,,,,,,,,,,,001,48,2020_Jan_30_1453,spring_faces,3.1.5,60.04360702960793,
condition files/Stage1_2.xlsx,,B4,T3,c,"['c', 'm']","['Clue', 'Monopoly']","[-0.15, 0.5]","[0.15, 0.5]",1,1,,,,,,,,,0,11,11,11,0,0,0,5,,,,,,,,,,,,,,,,,,,,,,,,,,,,,,,,,,,,,,,,,,,,,,,,,,,,,,,788.9772717289998,None,788.9772717289998,None,788.9772717289998,None,m,0,0.810261997001362,790.5130675370019,None,790.5130675370019,None,790.5130675370019,None,791.3767756570014,None,791.3767756570014,None,791.3767756570014,None,791.3767756570014,None,,,,,,,,,,,,,,,,,,,,,,,,,,,,,,,,,,,,,,,,,,,,001,48,2020_Jan_30_1453,spring_faces,3.1.5,60.04360702960793,
condition files/Stage1_2.xlsx,,T1,B2,m,"['c', 'm']","['Clue', 'Monopoly']","[-0.15, 0.5]","[0.15, 0.5]",1,1,,,,,,,,,0,11,11,11,0,1,1,2,,,,,,,,,,,,,,,,,,,,,,,,,,,,,,,,,,,,,,,,,,,,,,,,,,,,,,,793.343641194002,None,793.343641194002,None,793.343641194002,None,m,1,0.782313236999471,794.8770766779999,None,794.8770766779999,None,794.8770766779999,None,795.7108459570009,None,795.7108459570009,None,795.7108459570009,None,795.7108459570009,None,,,,,,,,,,,,,,,,,,,,,,,,,,,,,,,,,,,,,,,,,,,,001,48,2020_Jan_30_1453,spring_faces,3.1.5,60.04360702960793,
condition files/Stage1_2.xlsx,,B2,T2,m,"['c', 'm']","['Clue', 'Monopoly']","[-0.15, 0.5]","[0.15, 0.5]",1,1,,,,,,,,,0,11,11,11,0,2,2,3,,,,,,,,,,,,,,,,,,,,,,,,,,,,,,,,,,,,,,,,,,,,,,,,,,,,,,,797.6772167480012,None,797.6772167480012,None,797.6772167480012,None,m,1,0.5604087249994336,799.2109062630007,None,799.2109062630007,None,799.2109062630007,None,799.8277153119998,None,799.8277153119998,None,799.8277153119998,None,799.8277153119998,None,,,,,,,,,,,,,,,,,,,,,,,,,,,,,,,,,,,,,,,,,,,,001,48,2020_Jan_30_1453,spring_faces,3.1.5,60.04360702960793,
condition files/Stage1_2.xlsx,,B3,T4,m,"['c', 'm']","['Clue', 'Monopoly']","[-0.15, 0.5]","[0.15, 0.5]",1,1,,,,,,,,,0,11,11,11,0,3,3,6,,,,,,,,,,,,,,,,,,,,,,,,,,,,,,,,,,,,,,,,,,,,,,,,,,,,,,,801.7935007460001,None,801.7935007460001,None,801.7935007460001,None,c,0,0.8103857509995578,803.3289353530017,None,803.3289353530017,None,803.3289353530017,None,804.1937967369995,None,804.1937967369995,None,804.1937967369995,None,804.1937967369995,None,,,,,,,,,,,,,,,,,,,,,,,,,,,,,,,,,,,,,,,,,,,,001,48,2020_Jan_30_1453,spring_faces,3.1.5,60.04360702960793,
condition files/Stage1_2.xlsx,,T3,B3,c,"['c', 'm']","['Clue', 'Monopoly']","[-0.15, 0.5]","[0.15, 0.5]",1,1,,,,,,,,,0,11,11,11,0,4,4,4,,,,,,,,,,,,,,,,,,,,,,,,,,,,,,,,,,,,,,,,,,,,,,,,,,,,,,,806.1603882279996,None,806.1603882279996,None,806.1603882279996,None,c,1,0.7965136210004857,807.7108710870016,None,807.7108710870016,None,807.7108710870016,None,808.5628000510005,None,808.5628000510005,None,808.5628000510005,None,808.5628000510005,None,,,,,,,,,,,,,,,,,,,,,,,,,,,,,,,,,,,,,,,,,,,,001,48,2020_Jan_30_1453,spring_faces,3.1.5,60.04360702960793,
condition files/Stage1_2.xlsx,,T2,B1,c,"['c', 'm']","['Clue', 'Monopoly']","[-0.15, 0.5]","[0.15, 0.5]",1,1,,,,,,,,,0,11,11,11,0,5,5,1,,,,,,,,,,,,,,,,,,,,,,,,,,,,,,,,,,,,,,,,,,,,,,,,,,,,,,,810.5272093250023,None,810.5272093250023,None,810.5272093250023,None,c,1,0.9736268470005598,812.0777805340003,None,812.0777805340003,None,812.0777805340003,None,813.1104158810012,None,813.1104158810012,None,813.1104158810012,None,813.1104158810012,None,,,,,,,,,,,,,,,,,,,,,,,,,,,,,,,,,,,,,,,,,,,,001,48,2020_Jan_30_1453,spring_faces,3.1.5,60.04360702960793,
condition files/Stage1_2.xlsx,,T4,B4,m,"['c', 'm']","['Clue', 'Monopoly']","[-0.15, 0.5]","[0.15, 0.5]",1,1,,,,,,,,,0,11,11,11,0,6,6,7,,,,,,,,,,,,,,,,,,,,,,,,,,,,,,,,,,,,,,,,,,,,,,,,,,,,,,,815.077326720002,None,815.077326720002,None,815.077326720002,None,m,1,0.7753439860025537,816.6120573850021,None,816.6120573850021,None,816.6120573850021,None,817.4461162410007,None,817.4461162410007,None,817.4461162410007,None,817.4461162410007,None,,,,,,,,,,,,,,,,,,,,,,,,,,,,,,,,,,,,,,,,,,,,001,48,2020_Jan_30_1453,spring_faces,3.1.5,60.04360702960793,
condition files/Stage1_2.xlsx,,B1,T1,c,"['c', 'm']","['Clue', 'Monopoly']","[-0.15, 0.5]","[0.15, 0.5]",1,1,,,,,,,,,0,11,11,11,0,7,7,0,,,,,,,,,,,,,,,,,,,,,,,,,,,,,,,,,,,,,,,,,,,,,,,,,,,,,,,819.4102526759998,None,819.4102526759998,None,819.4102526759998,None,c,1,0.6339721609983826,820.9613241820007,None,820.9613241820007,None,820.9613241820007,None,821.6776566469998,None,821.6776566469998,None,821.6776566469998,None,821.6776566469998,None,,,,,,,,,,,,,,,,,,,,,,,,,,,,,,,,,,,,,,,,,,,,001,48,2020_Jan_30_1453,spring_faces,3.1.5,60.04360702960793,
,,,,,,,,,,,,,,,,,,,,,,,,,,,,,,,,,,,,,,,,,,,,,,,,,,,,,,,,,,,,,,,,,,,,,,,,,,,,,,,,,,,,,,,,,,,,,,,,,,,,,,,,,,,,,,,,823.6441631109992,None,space,4.2790504269978555,828.6443181030008,None,,,,,,,,,,,,,,,,,,,,,,,,,,,,,,001,48,2020_Jan_30_1453,spring_faces,3.1.5,60.04360702960793,
condition files/Stage2_1.xlsx,,T5,B5,s,"['s', 'r']","['Stratego', 'Risk']","[-0.15, 0.5]","[0.15, 0.5]",1,1,,,,,,,,,,,,,,,,,0,0,0,0,0,0,0,0,,,,,,,,,,,,,,,,,,,,,,,,,,,,,,,,,,,,,,,,,,,,,,,832.9777849269994,None,832.9777849269994,None,832.9777849269994,None,s,1,0.8283687330003886,834.5109647070021,None,834.5109647070021,None,834.5109647070021,None,835.4110839280002,None,835.4110839280002,None,835.4110839280002,None,835.4110839280002,None,,,,,,,,,,,,,,,828.6443181030008,None,,,,,,,,,,,,,,,,,,,,,,,,,,,,001,48,2020_Jan_30_1453,spring_faces,3.1.5,60.04360702960793,
condition files/Stage2_1.xlsx,,B6,T6,r,"['s', 'r']","['Stratego', 'Risk']","[-0.15, 0.5]","[0.15, 0.5]",1,1,,,,,,,,,,,,,,,,,0,0,0,0,0,1,1,1,,,,,,,,,,,,,,,,,,,,,,,,,,,,,,,,,,,,,,,,,,,,,,,837.3603566439997,None,837.3603566439997,None,837.3603566439997,None,r,1,0.572426421000273,838.9109529470006,None,838.9109529470006,None,838.9109529470006,None,839.5611535940006,None,839.5611535940006,None,839.5611535940006,None,839.5611535940006,None,,,,,,,,,,,,,,,,,,,,,,,,,,,,,,,,,,,,,,,,,,,,001,48,2020_Jan_30_1453,spring_faces,3.1.5,60.04360702960793,
condition files/Stage2_1.xlsx,,B4,T4,r,"['s', 'r']","['Stratego', 'Risk']","[-0.15, 0.5]","[0.15, 0.5]",1,1,,,,,,,,,,,,,,,,,0,0,0,0,0,2,2,5,,,,,,,,,,,,,,,,,,,,,,,,,,,,,,,,,,,,,,,,,,,,,,,841.5106318170001,None,841.5106318170001,None,841.5106318170001,None,r,1,0.7100812810022035,843.0452395169996,None,843.0452395169996,None,843.0452395169996,None,843.8109645160002,None,843.8109645160002,None,843.8109645160002,None,843.8109645160002,None,,,,,,,,,,,,,,,,,,,,,,,,,,,,,,,,,,,,,,,,,,,,001,48,2020_Jan_30_1453,spring_faces,3.1.5,60.04360702960793,
condition files/Stage2_1.xlsx,,B2,T2,r,"['s', 'r']","['Stratego', 'Risk']","[-0.15, 0.5]","[0.15, 0.5]",1,1,,,,,,,,,,,,,,,,,0,0,0,0,0,3,3,3,,,,,,,,,,,,,,,,,,,,,,,,,,,,,,,,,,,,,,,,,,,,,,,845.7769671040005,None,845.7769671040005,None,845.7769671040005,None,r,1,0.668826891000208,847.3105371740021,None,847.3105371740021,None,847.3105371740021,None,848.0442947299998,None,848.0442947299998,None,848.0442947299998,None,848.0442947299998,None,,,,,,,,,,,,,,,,,,,,,,,,,,,,,,,,,,,,,,,,,,,,001,48,2020_Jan_30_1453,spring_faces,3.1.5,60.04360702960793,
condition files/Stage2_1.xlsx,,T1,B1,s,"['s', 'r']","['Stratego', 'Risk']","[-0.15, 0.5]","[0.15, 0.5]",1,1,,,,,,,,,,,,,,,,,0,0,0,0,0,4,4,2,,,,,,,,,,,,,,,,,,,,,,,,,,,,,,,,,,,,,,,,,,,,,,,850.0103044650023,None,850.0103044650023,None,850.0103044650023,None,r,0,0.7383669290029502,851.5610004420014,None,851.5610004420014,None,851.5610004420014,None,852.3609213990021,None,852.3609213990021,None,852.3609213990021,None,852.3609213990021,None,,,,,,,,,,,,,,,,,,,,,,,,,,,,,,,,,,,,,,,,,,,,001,48,2020_Jan_30_1453,spring_faces,3.1.5,60.04360702960793,
condition files/Stage2_1.xlsx,,T3,B3,s,"['s', 'r']","['Stratego', 'Risk']","[-0.15, 0.5]","[0.15, 0.5]",1,1,,,,,,,,,,,,,,,,,0,0,0,0,0,5,5,4,,,,,,,,,,,,,,,,,,,,,,,,,,,,,,,,,,,,,,,,,,,,,,,854.3272893520007,None,854.3272893520007,None,854.3272893520007,None,s,1,0.34309899199797655,855.8603326260018,None,855.8603326260018,None,855.8603326260018,None,856.2611453099998,None,856.2611453099998,None,856.2611453099998,None,856.2611453099998,None,,,,,,,,,,,,,,,,,,,,,,,,,,,,,,,,,,,,,,,,,,,,001,48,2020_Jan_30_1453,spring_faces,3.1.5,60.04360702960793,
condition files/Stage2_2.xlsx,,B5,T5,s,"['s', 'r']","['Stratego', 'Risk']","[-0.15, 0.5]","[0.15, 0.5]",1,1,,,,,,,,,,,,,,,,,0,1,1,1,0,0,0,0,,,,,,,,,,,,,,,,,,,,,,,,,,,,,,,,,,,,,,,,,,,,,,,858.2440832780012,None,858.2440832780012,None,858.2440832780012,None,r,0,0.5208879620004154,859.7944923690011,None,859.7944923690011,None,859.7944923690011,None,860.3775877280023,None,860.3775877280023,None,860.3775877280023,None,860.3775877280023,None,,,,,,,,,,,,,,,,,,,,,,,,,,,,,,,,,,,,,,,,,,,,001,48,2020_Jan_30_1453,spring_faces,3.1.5,60.04360702960793,
condition files/Stage2_2.xlsx,,B1,T1,s,"['s', 'r']","['Stratego', 'Risk']","[-0.15, 0.5]","[0.15, 0.5]",1,1,,,,,,,,,,,,,,,,,0,1,1,1,0,1,1,2,,,,,,,,,,,,,,,,,,,,,,,,,,,,,,,,,,,,,,,,,,,,,,,862.3442931870013,None,862.3442931870013,None,862.3442931870013,None,s,1,1.0595552619997761,863.8798206130014,None,863.8798206130014,None,863.8798206130014,None,864.9938533250024,None,864.9938533250024,None,864.9938533250024,None,864.9938533250024,None,,,,,,,,,,,,,,,,,,,,,,,,,,,,,,,,,,,,,,,,,,,,001,48,2020_Jan_30_1453,spring_faces,3.1.5,60.04360702960793,
condition files/Stage2_2.xlsx,,B3,T3,s,"['s', 'r']","['Stratego', 'Risk']","[-0.15, 0.5]","[0.15, 0.5]",1,1,,,,,,,,,,,,,,,,,0,1,1,1,0,2,2,4,,,,,,,,,,,,,,,,,,,,,,,,,,,,,,,,,,,,,,,,,,,,,,,866.9603946300012,None,866.9603946300012,None,866.9603946300012,None,s,1,0.9389653430007456,868.4964410339999,None,868.4964410339999,None,868.4964410339999,None,869.493164088999,None,869.493164088999,None,869.493164088999,None,869.493164088999,None,,,,,,,,,,,,,,,,,,,,,,,,,,,,,,,,,,,,,,,,,,,,001,48,2020_Jan_30_1453,spring_faces,3.1.5,60.04360702960793,
condition files/Stage2_2.xlsx,,T6,B6,r,"['s', 'r']","['Stratego', 'Risk']","[-0.15, 0.5]","[0.15, 0.5]",1,1,,,,,,,,,,,,,,,,,0,1,1,1,0,3,3,1,,,,,,,,,,,,,,,,,,,,,,,,,,,,,,,,,,,,,,,,,,,,,,,871.4606968190019,None,871.4606968190019,None,871.4606968190019,None,s,0,0.8881773130015063,873.0111995080006,None,873.0111995080006,None,873.0111995080006,None,873.9607868470011,None,873.9607868470011,None,873.9607868470011,None,873.9607868470011,None,,,,,,,,,,,,,,,,,,,,,,,,,,,,,,,,,,,,,,,,,,,,001,48,2020_Jan_30_1453,spring_faces,3.1.5,60.04360702960793,
condition files/Stage2_2.xlsx,,T2,B2,r,"['s', 'r']","['Stratego', 'Risk']","[-0.15, 0.5]","[0.15, 0.5]",1,1,,,,,,,,,,,,,,,,,0,1,1,1,0,4,4,3,,,,,,,,,,,,,,,,,,,,,,,,,,,,,,,,,,,,,,,,,,,,,,,875.9278600559992,None,875.9278600559992,None,875.9278600559992,None,r,1,0.6943973640009062,877.4769521689996,None,877.4769521689996,None,877.4769521689996,None,878.2279502720012,None,878.2279502720012,None,878.2279502720012,None,878.2279502720012,None,,,,,,,,,,,,,,,,,,,,,,,,,,,,,,,,,,,,,,,,,,,,001,48,2020_Jan_30_1453,spring_faces,3.1.5,60.04360702960793,
condition files/Stage2_2.xlsx,,T4,B4,r,"['s', 'r']","['Stratego', 'Risk']","[-0.15, 0.5]","[0.15, 0.5]",1,1,,,,,,,,,,,,,,,,,0,1,1,1,0,5,5,5,,,,,,,,,,,,,,,,,,,,,,,,,,,,,,,,,,,,,,,,,,,,,,,880.193961494002,None,880.193961494002,None,880.193961494002,None,s,0,0.7616863980001654,881.7296646319992,None,881.7296646319992,None,881.7296646319992,None,882.5435669290018,None,882.5435669290018,None,882.5435669290018,None,882.5435669290018,None,,,,,,,,,,,,,,,,,,,,,,,,,,,,,,,,,,,,,,,,,,,,001,48,2020_Jan_30_1453,spring_faces,3.1.5,60.04360702960793,
condition files/Stage2_1.xlsx,,B4,T4,r,"['s', 'r']","['Stratego', 'Risk']","[-0.15, 0.5]","[0.15, 0.5]",1,1,,,,,,,,,,,,,,,,,0,2,2,2,0,0,0,5,,,,,,,,,,,,,,,,,,,,,,,,,,,,,,,,,,,,,,,,,,,,,,,884.5274695709995,None,884.5274695709995,None,884.5274695709995,None,s,0,0.6376200649974635,886.0777635420018,None,886.0777635420018,None,886.0777635420018,None,886.7768896650014,None,886.7768896650014,None,886.7768896650014,None,886.7768896650014,None,,,,,,,,,,,,,,,,,,,,,,,,,,,,,,,,,,,,,,,,,,,,001,48,2020_Jan_30_1453,spring_faces,3.1.5,60.04360702960793,
condition files/Stage2_1.xlsx,,T1,B1,s,"['s', 'r']","['Stratego', 'Risk']","[-0.15, 0.5]","[0.15, 0.5]",1,1,,,,,,,,,,,,,,,,,0,2,2,2,0,1,1,2,,,,,,,,,,,,,,,,,,,,,,,,,,,,,,,,,,,,,,,,,,,,,,,888.7438568979996,None,888.7438568979996,None,888.7438568979996,None,r,0,0.9643043910000415,890.2790960710008,None,890.2790960710008,None,890.2790960710008,None,891.311197048999,None,891.311197048999,None,891.311197048999,None,891.311197048999,None,,,,,,,,,,,,,,,,,,,,,,,,,,,,,,,,,,,,,,,,,,,,001,48,2020_Jan_30_1453,spring_faces,3.1.5,60.04360702960793,
condition files/Stage2_1.xlsx,,B2,T2,r,"['s', 'r']","['Stratego', 'Risk']","[-0.15, 0.5]","[0.15, 0.5]",1,1,,,,,,,,,,,,,,,,,0,2,2,2,0,2,2,3,,,,,,,,,,,,,,,,,,,,,,,,,,,,,,,,,,,,,,,,,,,,,,,893.2603846500024,None,893.2603846500024,None,893.2603846500024,None,s,0,0.43233062899889774,894.8110542460017,None,894.8110542460017,None,894.8110542460017,None,895.3109829579989,None,895.3109829579989,None,895.3109829579989,None,895.3109829579989,None,,,,,,,,,,,,,,,,,,,,,,,,,,,,,,,,,,,,,,,,,,,,001,48,2020_Jan_30_1453,spring_faces,3.1.5,60.04360702960793,
condition files/Stage2_1.xlsx,,B6,T6,r,"['s', 'r']","['Stratego', 'Risk']","[-0.15, 0.5]","[0.15, 0.5]",1,1,,,,,,,,,,,,,,,,,0,2,2,2,0,3,3,1,,,,,,,,,,,,,,,,,,,,,,,,,,,,,,,,,,,,,,,,,,,,,,,897.2604921589991,None,897.2604921589991,None,897.2604921589991,None,r,1,0.44924521899883985,898.7941490849989,None,898.7941490849989,None,898.7941490849989,None,899.2938601070018,None,899.2938601070018,None,899.2938601070018,None,899.2938601070018,None,,,,,,,,,,,,,,,,,,,,,,,,,,,,,,,,,,,,,,,,,,,,001,48,2020_Jan_30_1453,spring_faces,3.1.5,60.04360702960793,
condition files/Stage2_1.xlsx,,T3,B3,s,"['s', 'r']","['Stratego', 'Risk']","[-0.15, 0.5]","[0.15, 0.5]",1,1,,,,,,,,,,,,,,,,,0,2,2,2,0,4,4,4,,,,,,,,,,,,,,,,,,,,,,,,,,,,,,,,,,,,,,,,,,,,,,,901.2604003820015,None,901.2604003820015,None,901.2604003820015,None,s,1,0.6892182119991048,902.794170961999,None,902.794170961999,None,902.794170961999,None,903.5454061620003,None,903.5454061620003,None,903.5454061620003,None,903.5454061620003,None,,,,,,,,,,,,,,,,,,,,,,,,,,,,,,,,,,,,,,,,,,,,001,48,2020_Jan_30_1453,spring_faces,3.1.5,60.04360702960793,
condition files/Stage2_1.xlsx,,T5,B5,s,"['s', 'r']","['Stratego', 'Risk']","[-0.15, 0.5]","[0.15, 0.5]",1,1,,,,,,,,,,,,,,,,,0,2,2,2,0,5,5,0,,,,,,,,,,,,,,,,,,,,,,,,,,,,,,,,,,,,,,,,,,,,,,,905.5106438290022,None,905.5106438290022,None,905.5106438290022,None,s,1,0.7572148799990828,907.046221405999,None,907.046221405999,None,907.046221405999,None,907.8605013369997,None,907.8605013369997,None,907.8605013369997,None,907.8605013369997,None,,,,,,,,,,,,,,,,,,,,,,,,,,,,,,,,,,,,,,,,,,,,001,48,2020_Jan_30_1453,spring_faces,3.1.5,60.04360702960793,
condition files/Stage2_2.xlsx,,T6,B6,r,"['s', 'r']","['Stratego', 'Risk']","[-0.15, 0.5]","[0.15, 0.5]",1,1,,,,,,,,,,,,,,,,,0,3,3,3,0,0,0,1,,,,,,,,,,,,,,,,,,,,,,,,,,,,,,,,,,,,,,,,,,,,,,,909.8440398480016,None,909.8440398480016,None,909.8440398480016,None,s,0,1.0338500760008174,911.3774694660024,None,911.3774694660024,None,911.3774694660024,None,912.4785139769992,None,912.4785139769992,None,912.4785139769992,None,912.4785139769992,None,,,,,,,,,,,,,,,,,,,,,,,,,,,,,,,,,,,,,,,,,,,,001,48,2020_Jan_30_1453,spring_faces,3.1.5,60.04360702960793,
condition files/Stage2_2.xlsx,,T4,B4,r,"['s', 'r']","['Stratego', 'Risk']","[-0.15, 0.5]","[0.15, 0.5]",1,1,,,,,,,,,,,,,,,,,0,3,3,3,0,1,1,5,,,,,,,,,,,,,,,,,,,,,,,,,,,,,,,,,,,,,,,,,,,,,,,914.4445315459998,None,914.4445315459998,None,914.4445315459998,None,r,1,0.38567661399792996,915.977665937,None,915.977665937,None,915.977665937,None,916.4271172539993,None,916.4271172539993,None,916.4271172539993,None,916.4271172539993,None,,,,,,,,,,,,,,,,,,,,,,,,,,,,,,,,,,,,,,,,,,,,001,48,2020_Jan_30_1453,spring_faces,3.1.5,60.04360702960793,
condition files/Stage2_2.xlsx,,B5,T5,s,"['s', 'r']","['Stratego', 'Risk']","[-0.15, 0.5]","[0.15, 0.5]",1,1,,,,,,,,,,,,,,,,,0,3,3,3,0,2,2,0,,,,,,,,,,,,,,,,,,,,,,,,,,,,,,,,,,,,,,,,,,,,,,,918.3941271440017,None,918.3941271440017,None,918.3941271440017,None,r,0,0.8352685119971284,919.9281131310017,None,919.9281131310017,None,919.9281131310017,None,920.8296517939998,None,920.8296517939998,None,920.8296517939998,None,920.8296517939998,None,,,,,,,,,,,,,,,,,,,,,,,,,,,,,,,,,,,,,,,,,,,,001,48,2020_Jan_30_1453,spring_faces,3.1.5,60.04360702960793,
condition files/Stage2_2.xlsx,,B1,T1,s,"['s', 'r']","['Stratego', 'Risk']","[-0.15, 0.5]","[0.15, 0.5]",1,1,,,,,,,,,,,,,,,,,0,3,3,3,0,3,3,2,,,,,,,,,,,,,,,,,,,,,,,,,,,,,,,,,,,,,,,,,,,,,,,922.794013564002,None,922.794013564002,None,922.794013564002,None,s,1,0.30752442900120514,924.3438713840005,None,924.3438713840005,None,924.3438713840005,None,924.7106440300013,None,924.7106440300013,None,924.7106440300013,None,924.7106440300013,None,,,,,,,,,,,,,,,,,,,,,,,,,,,,,,,,,,,,,,,,,,,,001,48,2020_Jan_30_1453,spring_faces,3.1.5,60.04360702960793,
condition files/Stage2_2.xlsx,,T2,B2,r,"['s', 'r']","['Stratego', 'Risk']","[-0.15, 0.5]","[0.15, 0.5]",1,1,,,,,,,,,,,,,,,,,0,3,3,3,0,4,4,3,,,,,,,,,,,,,,,,,,,,,,,,,,,,,,,,,,,,,,,,,,,,,,,926.677090797999,None,926.677090797999,None,926.677090797999,None,r,1,0.6800051600002917,928.2275670420022,None,928.2275670420022,None,928.2275670420022,None,928.9778006849992,None,928.9778006849992,None,928.9778006849992,None,928.9778006849992,None,,,,,,,,,,,,,,,,,,,,,,,,,,,,,,,,,,,,,,,,,,,,001,48,2020_Jan_30_1453,spring_faces,3.1.5,60.04360702960793,
condition files/Stage2_2.xlsx,,B3,T3,s,"['s', 'r']","['Stratego', 'Risk']","[-0.15, 0.5]","[0.15, 0.5]",1,1,,,,,,,,,,,,,,,,,0,3,3,3,0,5,5,4,,,,,,,,,,,,,,,,,,,,,,,,,,,,,,,,,,,,,,,,,,,,,,,930.927071164002,None,930.927071164002,None,930.927071164002,None,s,1,0.9581867349988897,932.4612479980024,None,932.4612479980024,None,932.4612479980024,None,933.4942817740011,None,933.4942817740011,None,933.4942817740011,None,933.4942817740011,None,,,,,,,,,,,,,,,,,,,,,,,,,,,,,,,,,,,,,,,,,,,,001,48,2020_Jan_30_1453,spring_faces,3.1.5,60.04360702960793,
condition files/Stage2_1.xlsx,,T5,B5,s,"['s', 'r']","['Stratego', 'Risk']","[-0.15, 0.5]","[0.15, 0.5]",1,1,,,,,,,,,,,,,,,,,0,4,4,4,0,0,0,0,,,,,,,,,,,,,,,,,,,,,,,,,,,,,,,,,,,,,,,,,,,,,,,935.4605245530001,None,935.4605245530001,None,935.4605245530001,None,r,0,0.6324368589994265,937.0109545420019,None,937.0109545420019,None,937.0109545420019,None,937.6943597130012,None,937.6943597130012,None,937.6943597130012,None,937.6943597130012,None,,,,,,,,,,,,,,,,,,,,,,,,,,,,,,,,,,,,,,,,,,,,001,48,2020_Jan_30_1453,spring_faces,3.1.5,60.04360702960793,
condition files/Stage2_1.xlsx,,T1,B1,s,"['s', 'r']","['Stratego', 'Risk']","[-0.15, 0.5]","[0.15, 0.5]",1,1,,,,,,,,,,,,,,,,,0,4,4,4,0,1,1,2,,,,,,,,,,,,,,,,,,,,,,,,,,,,,,,,,,,,,,,,,,,,,,,939.6602775970023,None,939.6602775970023,None,939.6602775970023,None,s,1,0.3686200930023915,941.2107324429999,None,941.2107324429999,None,941.2107324429999,None,941.644243048002,None,941.644243048002,None,941.644243048002,None,941.644243048002,None,,,,,,,,,,,,,,,,,,,,,,,,,,,,,,,,,,,,,,,,,,,,001,48,2020_Jan_30_1453,spring_faces,3.1.5,60.04360702960793,
condition files/Stage2_1.xlsx,,B6,T6,r,"['s', 'r']","['Stratego', 'Risk']","[-0.15, 0.5]","[0.15, 0.5]",1,1,,,,,,,,,,,,,,,,,0,4,4,4,0,2,2,1,,,,,,,,,,,,,,,,,,,,,,,,,,,,,,,,,,,,,,,,,,,,,,,943.6106365730011,None,943.6106365730011,None,943.6106365730011,None,r,1,0.275367209000251,945.1440551070009,None,945.1440551070009,None,945.1440551070009,None,945.4780839020023,None,945.4780839020023,None,945.4780839020023,None,945.4780839020023,None,,,,,,,,,,,,,,,,,,,,,,,,,,,,,,,,,,,,,,,,,,,,001,48,2020_Jan_30_1453,spring_faces,3.1.5,60.04360702960793,
condition files/Stage2_1.xlsx,,T3,B3,s,"['s', 'r']","['Stratego', 'Risk']","[-0.15, 0.5]","[0.15, 0.5]",1,1,,,,,,,,,,,,,,,,,0,4,4,4,0,3,3,4,,,,,,,,,,,,,,,,,,,,,,,,,,,,,,,,,,,,,,,,,,,,,,,947.4440821370008,None,947.4440821370008,None,947.4440821370008,None,s,1,0.44012066399955074,948.9793061119999,None,948.9793061119999,None,948.9793061119999,None,949.4942312589992,None,949.4942312589992,None,949.4942312589992,None,949.4942312589992,None,,,,,,,,,,,,,,,,,,,,,,,,,,,,,,,,,,,,,,,,,,,,001,48,2020_Jan_30_1453,spring_faces,3.1.5,60.04360702960793,
