condsFile,subStage,cue1,cue2,correct,responseKeys,responseNames,cue1Position,cue2Position,cue1Opacity,cue2Opacity,stageLoop0.thisRepN,stageLoop0.thisTrialN,stageLoop0.thisN,stageLoop0.thisIndex,blockLoop0.thisRepN,blockLoop0.thisTrialN,blockLoop0.thisN,blockLoop0.thisIndex,stage1Loop.thisRepN,stage1Loop.thisTrialN,stage1Loop.thisN,stage1Loop.thisIndex,blockLoop1.thisRepN,blockLoop1.thisTrialN,blockLoop1.thisN,blockLoop1.thisIndex,stage2Loop.thisRepN,stage2Loop.thisTrialN,stage2Loop.thisN,stage2Loop.thisIndex,blockLoop2.thisRepN,blockLoop2.thisTrialN,blockLoop2.thisN,blockLoop2.thisIndex,testLoop.thisRepN,testLoop.thisTrialN,testLoop.thisN,testLoop.thisIndex,blockLoopTest.thisRepN,blockLoopTest.thisTrialN,blockLoopTest.thisN,blockLoopTest.thisIndex,cuePics,id_instr_text.started,id_instr_text.stopped,space_to_continue_2.started,space_to_continue_2.stopped,end_instructions_resp_3.keys,end_instructions_resp_3.rt,end_instructions_resp_3.started,end_instructions_resp_3.stopped,id_input_instr.started,id_input_instr.stopped,id_input_rect.started,id_input_rect.stopped,id_input_resp.keys,id_input_resp.rt,id_input_resp.started,id_input_resp.stopped,sonaID,id_input_text.started,id_input_text.stopped,final_text.started,final_text.stopped,instructions.started,instructions.stopped,end_instructions_resp.keys,end_instructions_resp.rt,end_instructions_resp.started,end_instructions_resp.stopped,space_to_continue.started,space_to_continue.stopped,instructions_stage0.started,instructions_stage0.stopped,end_instructions_resp_stage0.keys,end_instructions_resp_stage0.rt,end_instructions_resp_stage0.started,end_instructions_resp_stage0.stopped,space_to_continue_stage0.started,space_to_continue_stage0.stopped,text.started,text.stopped,resp_text1.started,resp_text1.stopped,resp_text2.started,resp_text2.stopped,trial_resp.keys,trial_resp.corr,trial_resp.rt,trial_resp.started,trial_resp.stopped,cue1Image.started,cue1Image.stopped,cue2Image.started,cue2Image.stopped,cue1Image_fb.started,cue1Image_fb.stopped,cue2Image_fb.started,cue2Image_fb.stopped,fb_text_answer.started,fb_text_answer.stopped,feedback_image.started,feedback_image.stopped,instructions_stage1.started,instructions_stage1.stopped,end_instructions_resp_stage1.keys,end_instructions_resp_stage1.rt,end_instructions_resp_stage1.started,end_instructions_resp_stage1.stopped,space_to_continue_stage1.started,space_to_continue_stage1.stopped,instructions_2.started,instructions_2.stopped,end_instructions_resp_2.keys,end_instructions_resp_2.rt,end_instructions_resp_2.started,end_instructions_resp_2.stopped,press_space_to_continue_stage2.started,press_space_to_continue_stage2.stopped,instructions_testStage1.started,instructions_testStage1.stopped,end_instructions_resp_test1.keys,end_instructions_resp_test1.rt,end_instructions_resp_test1.started,end_instructions_resp_test1.stopped,press_space_to_continue_test1.started,press_space_to_continue_test1.stopped,cue1Image_testChoice.started,cue1Image_testChoice.stopped,cue2Image_testChoice.started,cue2Image_testChoice.stopped,test_resp.keys,test_resp.corr,test_resp.rt,test_resp.started,test_resp.stopped,cue1Image_testConf.started,cue1Image_testConf.stopped,cue2Image_testConf.started,cue2Image_testConf.stopped,conf_reminder.started,conf_reminder.stopped,conf_rating.response,conf_rating.rt,conf_rating.started,conf_rating.stopped,session,participant,date,expName,psychopyVersion,frameRate,
,,,,,,,,,,,,,,,,,,,,,,,,,,,,,,,,,,,,,,,,,,,"{'none': 'pictures/20M_AN_C.png', 'alpha': 'pictures/SHINEd_melon.png', 'beta': 'pictures/SHINEd_pear.png', 'theta': 'pictures/SHINEd_apple.png', 'phi': 'pictures/SHINEd_pepper.png', 'T1': 'pictures/22M_AN_C.png', 'T2': 'pictures/37M_AN_C.png', 'T3': 'pictures/23M_AN_C.png', 'T4': 'pictures/36M_AN_C.png', 'T5': 'pictures/20M_AN_C.png', 'T6': 'pictures/32M_AN_C.png', 'B1': 'pictures/33M_NE_C.png', 'B2': 'pictures/38M_NE_C.png', 'B3': 'pictures/25M_NE_C.png', 'B4': 'pictures/26M_NE_C.png', 'B5': 'pictures/31M_NE_C.png', 'B6': 'pictures/34M_NE_C.png'}",12.401263423998898,None,17.40147250699738,None,space,1176.7094760950022,17.40147250699738,None,,,,,,,,,,,,,,,,,,,,,,,,,,,,,,,,,,,,,,,,,,,,,,,,,,,,,,,,,,,,,,,,,,,,,,,,,,,,,,,,,,,,,,,,,,,,,,,,001,49,2020_Jan_30_1506,spring_faces,3.1.5,59.883314008501124,
,,,,,,,,,,,,,,,,,,,,,,,,,,,,,,,,,,,,,,,,,,,,,,,,,,,,1194.4869572359967,None,1194.4869572359967,None,"['0', '3', '1', '9', 'j', 'e', 'v', 'm', 's', 'backspace', '0', '3', '1', '9', 'j', 'e', 'v', 'a', 'i']","[23.543929979001405, 23.928075767002156, 26.903939859003003, 27.127928260000772, 43.14392532600323, 43.81589498500034, 48.50393216700104, 48.727881070000876, 48.93593794700064, 51.751988130003156, 57.063921262000804, 58.071939856003155, 59.2879396640019, 60.00794918199972, 60.53594036400318, 61.14393065600234, 61.86392423500001, 62.31192339700283, 62.647944645999814]",1194.4869572359967,None,,,,,,,,,,,,,,,,,,,,,,,,,,,,,,,,,,,,,,,,,,,,,,,,,,,,,,,,,,,,,,,,,,,,,,,,,,,,,,,,,,,,,,,,001,49,2020_Jan_30_1506,spring_faces,3.1.5,59.883314008501124,
,,,,,,,,,,,,,,,,,,,,,,,,,,,,,,,,,,,,,,,,,,,,,,,,,,,,,,,,,,,,0319jevai,1194.4869572359967,None,1194.4869572359967,None,1262.202174449998,None,space,3.94923161800034,1267.201654261,None,,,,,,,,,,,,,,,,,,,,,,,,,,,,,,,,,,,,,,,,,,,,,,,,,,,,,,,,,,,,,,,,,,,,,,,,,,,,,001,49,2020_Jan_30_1506,spring_faces,3.1.5,59.883314008501124,
,,,,,,,,,,,,,,,,,,,,,,,,,,,,,,,,,,,,,,,,,,,,,,,,,,,,,,,,,,,,,,,,,,,,,,,1267.201654261,None,1271.1852998139984,None,space,7.2380569690030825,1276.1848323219965,None,,,,,,,,,,,,,,,,,,,,,,,,,,,,,,,,,,,,,,,,,,,,,,,,,,,,,,,,,,,,,,,,,,,,,001,49,2020_Jan_30_1506,spring_faces,3.1.5,59.883314008501124,
condition files/Stage0a.xlsx,0a,alpha,none,h,"['h', 'g']","['Chess', 'Go']","[0, 0.5]","[0, 0]",1,0,0,0,0,0,0,0,0,0,,,,,,,,,,,,,,,,,,,,,,,,,,,,,,,,,,,,,,,,,,,,,,,,,,,,,,,,,,,,,1276.1848323219965,None,1283.4848186249983,None,1283.4848186249983,None,1283.4848186249983,None,g,0,4.5945027509987995,1285.0683624099984,None,1285.0683624099984,None,1285.0683624099984,None,1289.734871757999,None,1289.734871757999,None,1289.734871757999,None,1289.734871757999,None,,,,,,,,,,,,,,,,,,,,,,,,,,,,,,,,,,,,,,,,,,,,001,49,2020_Jan_30_1506,spring_faces,3.1.5,59.883314008501124,
condition files/Stage0a.xlsx,0a,beta,none,g,"['h', 'g']","['Chess', 'Go']","[0, 0.5]","[0, 0]",1,0,0,0,0,0,0,1,1,1,,,,,,,,,,,,,,,,,,,,,,,,,,,,,,,,,,,,,,,,,,,,,,,,,,,,,,,,,,,,,,,1291.6839407869993,None,1291.6839407869993,None,1291.6839407869993,None,h,0,1.787812673002918,1293.235066164998,None,1293.235066164998,None,1293.235066164998,None,1295.0848715219981,None,1295.0848715219981,None,1295.0848715219981,None,1295.0848715219981,None,,,,,,,,,,,,,,,,,,,,,,,,,,,,,,,,,,,,,,,,,,,,001,49,2020_Jan_30_1506,spring_faces,3.1.5,59.883314008501124,
condition files/Stage0a.xlsx,0a,beta,none,g,"['h', 'g']","['Chess', 'Go']","[0, 0.5]","[0, 0]",1,0,0,1,1,1,0,0,0,1,,,,,,,,,,,,,,,,,,,,,,,,,,,,,,,,,,,,,,,,,,,,,,,,,,,,,,,,,,,,,,,1297.0675924519965,None,1297.0675924519965,None,1297.0675924519965,None,h,0,0.1819327869998233,1298.6009305529988,None,1298.6009305529988,None,1298.6009305529988,None,1298.834431733998,None,1298.834431733998,None,1298.834431733998,None,1298.834431733998,None,,,,,,,,,,,,,,,,,,,,,,,,,,,,,,,,,,,,,,,,,,,,001,49,2020_Jan_30_1506,spring_faces,3.1.5,59.883314008501124,
condition files/Stage0a.xlsx,0a,alpha,none,h,"['h', 'g']","['Chess', 'Go']","[0, 0.5]","[0, 0]",1,0,0,1,1,1,0,1,1,0,,,,,,,,,,,,,,,,,,,,,,,,,,,,,,,,,,,,,,,,,,,,,,,,,,,,,,,,,,,,,,,1300.801564600999,None,1300.801564600999,None,1300.801564600999,None,h,1,2.735871449000115,1302.3349981079991,None,1302.3349981079991,None,1302.3349981079991,None,1305.1349403669992,None,1305.1349403669992,None,1305.1349403669992,None,1305.1349403669992,None,,,,,,,,,,,,,,,,,,,,,,,,,,,,,,,,,,,,,,,,,,,,001,49,2020_Jan_30_1506,spring_faces,3.1.5,59.883314008501124,
condition files/Stage0a.xlsx,0a,alpha,none,h,"['h', 'g']","['Chess', 'Go']","[0, 0.5]","[0, 0]",1,0,0,2,2,2,0,0,0,0,,,,,,,,,,,,,,,,,,,,,,,,,,,,,,,,,,,,,,,,,,,,,,,,,,,,,,,,,,,,,,,1307.1187713709987,None,1307.1187713709987,None,1307.1187713709987,None,h,1,1.3472206180013018,1308.6516498109995,None,1308.6516498109995,None,1308.6516498109995,None,1310.0519588149982,None,1310.0519588149982,None,1310.0519588149982,None,1310.0519588149982,None,,,,,,,,,,,,,,,,,,,,,,,,,,,,,,,,,,,,,,,,,,,,001,49,2020_Jan_30_1506,spring_faces,3.1.5,59.883314008501124,
condition files/Stage0a.xlsx,0a,beta,none,g,"['h', 'g']","['Chess', 'Go']","[0, 0.5]","[0, 0]",1,0,0,2,2,2,0,1,1,1,,,,,,,,,,,,,,,,,,,,,,,,,,,,,,,,,,,,,,,,,,,,,,,,,,,,,,,,,,,,,,,1312.0182314889971,None,1312.0182314889971,None,1312.0182314889971,None,g,1,0.8794824639990111,1313.5513814119986,None,1313.5513814119986,None,1313.5513814119986,None,1314.484777333997,None,1314.484777333997,None,1314.484777333997,None,1314.484777333997,None,,,,,,,,,,,,,,,,,,,,,,,,,,,,,,,,,,,,,,,,,,,,001,49,2020_Jan_30_1506,spring_faces,3.1.5,59.883314008501124,
condition files/Stage0a.xlsx,0a,beta,none,g,"['h', 'g']","['Chess', 'Go']","[0, 0.5]","[0, 0]",1,0,0,3,3,3,0,0,0,1,,,,,,,,,,,,,,,,,,,,,,,,,,,,,,,,,,,,,,,,,,,,,,,,,,,,,,,,,,,,,,,1316.4677869719999,None,1316.4677869719999,None,1316.4677869719999,None,g,1,1.2294051339995349,1318.0014367689982,None,1318.0014367689982,None,1318.0014367689982,None,1319.285228075998,None,1319.285228075998,None,1319.285228075998,None,1319.285228075998,None,,,,,,,,,,,,,,,,,,,,,,,,,,,,,,,,,,,,,,,,,,,,001,49,2020_Jan_30_1506,spring_faces,3.1.5,59.883314008501124,
condition files/Stage0a.xlsx,0a,alpha,none,h,"['h', 'g']","['Chess', 'Go']","[0, 0.5]","[0, 0]",1,0,0,3,3,3,0,1,1,0,,,,,,,,,,,,,,,,,,,,,,,,,,,,,,,,,,,,,,,,,,,,,,,,,,,,,,,,,,,,,,,1321.2516075739986,None,1321.2516075739986,None,1321.2516075739986,None,h,1,1.3581274030002533,1322.784680462999,None,1322.784680462999,None,1322.784680462999,None,1324.2019471039966,None,1324.2019471039966,None,1324.2019471039966,None,1324.2019471039966,None,,,,,,,,,,,,,,,,,,,,,,,,,,,,,,,,,,,,,,,,,,,,001,49,2020_Jan_30_1506,spring_faces,3.1.5,59.883314008501124,
condition files/Stage0a.xlsx,0a,alpha,none,h,"['h', 'g']","['Chess', 'Go']","[0, 0.5]","[0, 0]",1,0,0,4,4,4,0,0,0,0,,,,,,,,,,,,,,,,,,,,,,,,,,,,,,,,,,,,,,,,,,,,,,,,,,,,,,,,,,,,,,,1326.1851306539975,None,1326.1851306539975,None,1326.1851306539975,None,h,1,0.8403435910004191,1327.7185868689994,None,1327.7185868689994,None,1327.7185868689994,None,1328.6182414389987,None,1328.6182414389987,None,1328.6182414389987,None,1328.6182414389987,None,,,,,,,,,,,,,,,,,,,,,,,,,,,,,,,,,,,,,,,,,,,,001,49,2020_Jan_30_1506,spring_faces,3.1.5,59.883314008501124,
condition files/Stage0a.xlsx,0a,beta,none,g,"['h', 'g']","['Chess', 'Go']","[0, 0.5]","[0, 0]",1,0,0,4,4,4,0,1,1,1,,,,,,,,,,,,,,,,,,,,,,,,,,,,,,,,,,,,,,,,,,,,,,,,,,,,,,,,,,,,,,,1330.5841616669968,None,1330.5841616669968,None,1330.5841616669968,None,g,1,0.9366264020027302,1332.1182445859995,None,1332.1182445859995,None,1332.1182445859995,None,1333.1182823319978,None,1333.1182823319978,None,1333.1182823319978,None,1333.1182823319978,None,,,,,,,,,,,,,,,,,,,,,,,,,,,,,,,,,,,,,,,,,,,,001,49,2020_Jan_30_1506,spring_faces,3.1.5,59.883314008501124,
condition files/Stage0a.xlsx,0a,alpha,none,h,"['h', 'g']","['Chess', 'Go']","[0, 0.5]","[0, 0]",1,0,0,5,5,5,0,0,0,0,,,,,,,,,,,,,,,,,,,,,,,,,,,,,,,,,,,,,,,,,,,,,,,,,,,,,,,,,,,,,,,1335.1012546959973,None,1335.1012546959973,None,1335.1012546959973,None,h,1,0.9484655269989162,1336.6344202159999,None,1336.6344202159999,None,1336.6344202159999,None,1337.6354045229964,None,1337.6354045229964,None,1337.6354045229964,None,1337.6354045229964,None,,,,,,,,,,,,,,,,,,,,,,,,,,,,,,,,,,,,,,,,,,,,001,49,2020_Jan_30_1506,spring_faces,3.1.5,59.883314008501124,
condition files/Stage0a.xlsx,0a,beta,none,g,"['h', 'g']","['Chess', 'Go']","[0, 0.5]","[0, 0]",1,0,0,5,5,5,0,1,1,1,,,,,,,,,,,,,,,,,,,,,,,,,,,,,,,,,,,,,,,,,,,,,,,,,,,,,,,,,,,,,,,1339.6015401309996,None,1339.6015401309996,None,1339.6015401309996,None,g,1,0.7997737629993935,1341.1350929359978,None,1341.1350929359978,None,1341.1350929359978,None,1341.9848468829987,None,1341.9848468829987,None,1341.9848468829987,None,1341.9848468829987,None,,,,,,,,,,,,,,,,,,,,,,,,,,,,,,,,,,,,,,,,,,,,001,49,2020_Jan_30_1506,spring_faces,3.1.5,59.883314008501124,
condition files/Stage0b_1.xlsx,0b,none,beta,g,"['h', 'g']","['Chess', 'Go']","[-0.15, 0.5]","[0.15, 0.5]",0,1,0,6,6,6,0,0,0,1,,,,,,,,,,,,,,,,,,,,,,,,,,,,,,,,,,,,,,,,,,,,,,,,,,,,,,,,,,,,,,,1343.968352642998,None,1343.968352642998,None,1343.968352642998,None,g,1,0.8163656659999106,1345.5185121529976,None,1345.5185121529976,None,1345.5185121529976,None,1346.3858230989972,None,1346.3858230989972,None,1346.3858230989972,None,1346.3858230989972,None,,,,,,,,,,,,,,,,,,,,,,,,,,,,,,,,,,,,,,,,,,,,001,49,2020_Jan_30_1506,spring_faces,3.1.5,59.883314008501124,
condition files/Stage0b_1.xlsx,0b,alpha,none,h,"['h', 'g']","['Chess', 'Go']","[-0.15, 0.5]","[0.15, 0.5]",1,0,0,6,6,6,0,1,1,0,,,,,,,,,,,,,,,,,,,,,,,,,,,,,,,,,,,,,,,,,,,,,,,,,,,,,,,,,,,,,,,1348.3516593899985,None,1348.3516593899985,None,1348.3516593899985,None,h,1,0.620399584997358,1349.8905078959979,None,1349.8905078959979,None,1349.8905078959979,None,1350.5688994559969,None,1350.5688994559969,None,1350.5688994559969,None,1350.5688994559969,None,,,,,,,,,,,,,,,,,,,,,,,,,,,,,,,,,,,,,,,,,,,,001,49,2020_Jan_30_1506,spring_faces,3.1.5,59.883314008501124,
condition files/Stage0b_2.xlsx,0b,beta,none,g,"['h', 'g']","['Chess', 'Go']","[-0.15, 0.5]","[0.15, 0.5]",1,0,0,7,7,7,0,0,0,1,,,,,,,,,,,,,,,,,,,,,,,,,,,,,,,,,,,,,,,,,,,,,,,,,,,,,,,,,,,,,,,1352.5511828599992,None,1352.5511828599992,None,1352.5511828599992,None,g,1,0.8097823539974343,1354.085085666,None,1354.085085666,None,1354.085085666,None,1354.9513538609972,None,1354.9513538609972,None,1354.9513538609972,None,1354.9513538609972,None,,,,,,,,,,,,,,,,,,,,,,,,,,,,,,,,,,,,,,,,,,,,001,49,2020_Jan_30_1506,spring_faces,3.1.5,59.883314008501124,
condition files/Stage0b_2.xlsx,0b,none,alpha,h,"['h', 'g']","['Chess', 'Go']","[-0.15, 0.5]","[0.15, 0.5]",0,1,0,7,7,7,0,1,1,0,,,,,,,,,,,,,,,,,,,,,,,,,,,,,,,,,,,,,,,,,,,,,,,,,,,,,,,,,,,,,,,1356.9181415139974,None,1356.9181415139974,None,1356.9181415139974,None,h,1,0.8080792000000656,1358.4547874879972,None,1358.4547874879972,None,1358.4547874879972,None,1359.3229063979998,None,1359.3229063979998,None,1359.3229063979998,None,1359.3229063979998,None,,,,,,,,,,,,,,,,,,,,,,,,,,,,,,,,,,,,,,,,,,,,001,49,2020_Jan_30_1506,spring_faces,3.1.5,59.883314008501124,
condition files/Stage0b_1.xlsx,0b,alpha,none,h,"['h', 'g']","['Chess', 'Go']","[-0.15, 0.5]","[0.15, 0.5]",1,0,0,8,8,8,0,0,0,0,,,,,,,,,,,,,,,,,,,,,,,,,,,,,,,,,,,,,,,,,,,,,,,,,,,,,,,,,,,,,,,1361.3010887309974,None,1361.3010887309974,None,1361.3010887309974,None,h,1,0.6173099519983225,1362.8375838579996,None,1362.8375838579996,None,1362.8375838579996,None,1363.5183754799982,None,1363.5183754799982,None,1363.5183754799982,None,1363.5183754799982,None,,,,,,,,,,,,,,,,,,,,,,,,,,,,,,,,,,,,,,,,,,,,001,49,2020_Jan_30_1506,spring_faces,3.1.5,59.883314008501124,
condition files/Stage0b_1.xlsx,0b,none,beta,g,"['h', 'g']","['Chess', 'Go']","[-0.15, 0.5]","[0.15, 0.5]",0,1,0,8,8,8,0,1,1,1,,,,,,,,,,,,,,,,,,,,,,,,,,,,,,,,,,,,,,,,,,,,,,,,,,,,,,,,,,,,,,,1365.4847848559984,None,1365.4847848559984,None,1365.4847848559984,None,g,1,0.8996029689988063,1367.035264741,None,1367.035264741,None,1367.035264741,None,1367.9870318329995,None,1367.9870318329995,None,1367.9870318329995,None,1367.9870318329995,None,,,,,,,,,,,,,,,,,,,,,,,,,,,,,,,,,,,,,,,,,,,,001,49,2020_Jan_30_1506,spring_faces,3.1.5,59.883314008501124,
condition files/Stage0b_2.xlsx,0b,beta,none,g,"['h', 'g']","['Chess', 'Go']","[-0.15, 0.5]","[0.15, 0.5]",1,0,0,9,9,9,0,0,0,1,,,,,,,,,,,,,,,,,,,,,,,,,,,,,,,,,,,,,,,,,,,,,,,,,,,,,,,,,,,,,,,1369.9683829969981,None,1369.9683829969981,None,1369.9683829969981,None,g,1,0.814445899999555,1371.5043823549968,None,1371.5043823549968,None,1371.5043823549968,None,1372.3849529419967,None,1372.3849529419967,None,1372.3849529419967,None,1372.3849529419967,None,,,,,,,,,,,,,,,,,,,,,,,,,,,,,,,,,,,,,,,,,,,,001,49,2020_Jan_30_1506,spring_faces,3.1.5,59.883314008501124,
condition files/Stage0b_2.xlsx,0b,none,alpha,h,"['h', 'g']","['Chess', 'Go']","[-0.15, 0.5]","[0.15, 0.5]",0,1,0,9,9,9,0,1,1,0,,,,,,,,,,,,,,,,,,,,,,,,,,,,,,,,,,,,,,,,,,,,,,,,,,,,,,,,,,,,,,,1374.3516987429975,None,1374.3516987429975,None,1374.3516987429975,None,h,1,0.7541077150017372,1375.8847886719996,None,1375.8847886719996,None,1375.8847886719996,None,1376.7186741629994,None,1376.7186741629994,None,1376.7186741629994,None,1376.7186741629994,None,,,,,,,,,,,,,,,,,,,,,,,,,,,,,,,,,,,,,,,,,,,,001,49,2020_Jan_30_1506,spring_faces,3.1.5,59.883314008501124,
condition files/Stage0b_1.xlsx,0b,none,beta,g,"['h', 'g']","['Chess', 'Go']","[-0.15, 0.5]","[0.15, 0.5]",0,1,0,10,10,10,0,0,0,1,,,,,,,,,,,,,,,,,,,,,,,,,,,,,,,,,,,,,,,,,,,,,,,,,,,,,,,,,,,,,,,1378.6851461869992,None,1378.6851461869992,None,1378.6851461869992,None,g,1,0.756768066999939,1380.2181155199978,None,1380.2181155199978,None,1380.2181155199978,None,1381.0372213299997,None,1381.0372213299997,None,1381.0372213299997,None,1381.0372213299997,None,,,,,,,,,,,,,,,,,,,,,,,,,,,,,,,,,,,,,,,,,,,,001,49,2020_Jan_30_1506,spring_faces,3.1.5,59.883314008501124,
condition files/Stage0b_1.xlsx,0b,alpha,none,h,"['h', 'g']","['Chess', 'Go']","[-0.15, 0.5]","[0.15, 0.5]",1,0,0,10,10,10,0,1,1,0,,,,,,,,,,,,,,,,,,,,,,,,,,,,,,,,,,,,,,,,,,,,,,,,,,,,,,,,,,,,,,,1383.0014899449998,None,1383.0014899449998,None,1383.0014899449998,None,h,1,0.7911399599979632,1384.5517870999975,None,1384.5517870999975,None,1384.5517870999975,None,1385.4053699499964,None,1385.4053699499964,None,1385.4053699499964,None,1385.4053699499964,None,,,,,,,,,,,,,,,,,,,,,,,,,,,,,,,,,,,,,,,,,,,,001,49,2020_Jan_30_1506,spring_faces,3.1.5,59.883314008501124,
condition files/Stage0b_2.xlsx,0b,none,alpha,h,"['h', 'g']","['Chess', 'Go']","[-0.15, 0.5]","[0.15, 0.5]",0,1,0,11,11,11,0,0,0,0,,,,,,,,,,,,,,,,,,,,,,,,,,,,,,,,,,,,,,,,,,,,,,,,,,,,,,,,,,,,,,,1387.385143394,None,1387.385143394,None,1387.385143394,None,h,1,0.6448269880020234,1388.9220454159986,None,1388.9220454159986,None,1388.9220454159986,None,1389.6183811049996,None,1389.6183811049996,None,1389.6183811049996,None,1389.6183811049996,None,,,,,,,,,,,,,,,,,,,,,,,,,,,,,,,,,,,,,,,,,,,,001,49,2020_Jan_30_1506,spring_faces,3.1.5,59.883314008501124,
condition files/Stage0b_2.xlsx,0b,beta,none,g,"['h', 'g']","['Chess', 'Go']","[-0.15, 0.5]","[0.15, 0.5]",1,0,0,11,11,11,0,1,1,1,,,,,,,,,,,,,,,,,,,,,,,,,,,,,,,,,,,,,,,,,,,,,,,,,,,,,,,,,,,,,,,1391.5849335309977,None,1391.5849335309977,None,1391.5849335309977,None,g,1,0.8127606250018289,1393.1221241549974,None,1393.1221241549974,None,1393.1221241549974,None,1393.9869571029994,None,1393.9869571029994,None,1393.9869571029994,None,1393.9869571029994,None,,,,,,,,,,,,,,,,,,,,,,,,,,,,,,,,,,,,,,,,,,,,001,49,2020_Jan_30_1506,spring_faces,3.1.5,59.883314008501124,
condition files/Stage0c_1.xlsx,0c,alpha,phi,h,"['h', 'g']","['Chess', 'Go']","[-0.15, 0.5]","[0.15, 0.5]",1,1,0,12,12,12,0,0,0,1,,,,,,,,,,,,,,,,,,,,,,,,,,,,,,,,,,,,,,,,,,,,,,,,,,,,,,,,,,,,,,,1395.9684017439977,None,1395.9684017439977,None,1395.9684017439977,None,h,1,2.497160258000804,1397.5017151569991,None,1397.5017151569991,None,1397.5017151569991,None,1400.0511303779967,None,1400.0511303779967,None,1400.0511303779967,None,1400.0511303779967,None,,,,,,,,,,,,,,,,,,,,,,,,,,,,,,,,,,,,,,,,,,,,001,49,2020_Jan_30_1506,spring_faces,3.1.5,59.883314008501124,
condition files/Stage0c_1.xlsx,0c,theta,alpha,h,"['h', 'g']","['Chess', 'Go']","[-0.15, 0.5]","[0.15, 0.5]",1,1,0,12,12,12,0,1,1,0,,,,,,,,,,,,,,,,,,,,,,,,,,,,,,,,,,,,,,,,,,,,,,,,,,,,,,,,,,,,,,,1402.0181572479996,None,1402.0181572479996,None,1402.0181572479996,None,h,1,0.7835900700010825,1403.551288363,None,1403.551288363,None,1403.551288363,None,1404.3851974539975,None,1404.3851974539975,None,1404.3851974539975,None,1404.3851974539975,None,,,,,,,,,,,,,,,,,,,,,,,,,,,,,,,,,,,,,,,,,,,,001,49,2020_Jan_30_1506,spring_faces,3.1.5,59.883314008501124,
condition files/Stage0c_1.xlsx,0c,phi,beta,g,"['h', 'g']","['Chess', 'Go']","[-0.15, 0.5]","[0.15, 0.5]",1,1,0,12,12,12,0,2,2,3,,,,,,,,,,,,,,,,,,,,,,,,,,,,,,,,,,,,,,,,,,,,,,,,,,,,,,,,,,,,,,,1406.351612399998,None,1406.351612399998,None,1406.351612399998,None,g,1,0.8343924199980393,1407.884453704999,None,1407.884453704999,None,1407.884453704999,None,1408.785125254999,None,1408.785125254999,None,1408.785125254999,None,1408.785125254999,None,,,,,,,,,,,,,,,,,,,,,,,,,,,,,,,,,,,,,,,,,,,,001,49,2020_Jan_30_1506,spring_faces,3.1.5,59.883314008501124,
condition files/Stage0c_1.xlsx,0c,beta,theta,g,"['h', 'g']","['Chess', 'Go']","[-0.15, 0.5]","[0.15, 0.5]",1,1,0,12,12,12,0,3,3,2,,,,,,,,,,,,,,,,,,,,,,,,,,,,,,,,,,,,,,,,,,,,,,,,,,,,,,,,,,,,,,,1410.7516857269984,None,1410.7516857269984,None,1410.7516857269984,None,g,1,1.2662061170012748,1412.2846633489971,None,1412.2846633489971,None,1412.2846633489971,None,1413.5869923209975,None,1413.5869923209975,None,1413.5869923209975,None,1413.5869923209975,None,,,,,,,,,,,,,,,,,,,,,,,,,,,,,,,,,,,,,,,,,,,,001,49,2020_Jan_30_1506,spring_faces,3.1.5,59.883314008501124,
condition files/Stage0c_2.xlsx,0c,theta,beta,g,"['h', 'g']","['Chess', 'Go']","[-0.15, 0.5]","[0.15, 0.5]",1,1,0,13,13,13,0,0,0,2,,,,,,,,,,,,,,,,,,,,,,,,,,,,,,,,,,,,,,,,,,,,,,,,,,,,,,,,,,,,,,,1415.5853441779982,None,1415.5853441779982,None,1415.5853441779982,None,h,0,0.6884281759994337,1417.1184480849988,None,1417.1184480849988,None,1417.1184480849988,None,1417.8523009499986,None,1417.8523009499986,None,1417.8523009499986,None,1417.8523009499986,None,,,,,,,,,,,,,,,,,,,,,,,,,,,,,,,,,,,,,,,,,,,,001,49,2020_Jan_30_1506,spring_faces,3.1.5,59.883314008501124,
condition files/Stage0c_2.xlsx,0c,phi,alpha,h,"['h', 'g']","['Chess', 'Go']","[-0.15, 0.5]","[0.15, 0.5]",1,1,0,13,13,13,0,1,1,1,,,,,,,,,,,,,,,,,,,,,,,,,,,,,,,,,,,,,,,,,,,,,,,,,,,,,,,,,,,,,,,1419.8346104949997,None,1419.8346104949997,None,1419.8346104949997,None,h,1,0.8229833260011219,1421.3678896079982,None,1421.3678896079982,None,1421.3678896079982,None,1422.2514088889984,None,1422.2514088889984,None,1422.2514088889984,None,1422.2514088889984,None,,,,,,,,,,,,,,,,,,,,,,,,,,,,,,,,,,,,,,,,,,,,001,49,2020_Jan_30_1506,spring_faces,3.1.5,59.883314008501124,
condition files/Stage0c_2.xlsx,0c,alpha,theta,h,"['h', 'g']","['Chess', 'Go']","[-0.15, 0.5]","[0.15, 0.5]",1,1,0,13,13,13,0,2,2,0,,,,,,,,,,,,,,,,,,,,,,,,,,,,,,,,,,,,,,,,,,,,,,,,,,,,,,,,,,,,,,,1424.218145052997,None,1424.218145052997,None,1424.218145052997,None,h,1,0.9030985329991381,1425.7517702499972,None,1425.7517702499972,None,1425.7517702499972,None,1426.703584469,None,1426.703584469,None,1426.703584469,None,1426.703584469,None,,,,,,,,,,,,,,,,,,,,,,,,,,,,,,,,,,,,,,,,,,,,001,49,2020_Jan_30_1506,spring_faces,3.1.5,59.883314008501124,
condition files/Stage0c_2.xlsx,0c,beta,phi,g,"['h', 'g']","['Chess', 'Go']","[-0.15, 0.5]","[0.15, 0.5]",1,1,0,13,13,13,0,3,3,3,,,,,,,,,,,,,,,,,,,,,,,,,,,,,,,,,,,,,,,,,,,,,,,,,,,,,,,,,,,,,,,1428.6848033739989,None,1428.6848033739989,None,1428.6848033739989,None,g,1,0.8206894629984163,1430.2181897019982,None,1430.2181897019982,None,1430.2181897019982,None,1431.1016762079998,None,1431.1016762079998,None,1431.1016762079998,None,1431.1016762079998,None,,,,,,,,,,,,,,,,,,,,,,,,,,,,,,,,,,,,,,,,,,,,001,49,2020_Jan_30_1506,spring_faces,3.1.5,59.883314008501124,
condition files/Stage0c_1.xlsx,0c,phi,beta,g,"['h', 'g']","['Chess', 'Go']","[-0.15, 0.5]","[0.15, 0.5]",1,1,0,14,14,14,0,0,0,3,,,,,,,,,,,,,,,,,,,,,,,,,,,,,,,,,,,,,,,,,,,,,,,,,,,,,,,,,,,,,,,1433.0847251609994,None,1433.0847251609994,None,1433.0847251609994,None,g,1,1.5407760050002253,1434.6181684649964,None,1434.6181684649964,None,1434.6181684649964,None,1436.2036779359987,None,1436.2036779359987,None,1436.2036779359987,None,1436.2036779359987,None,,,,,,,,,,,,,,,,,,,,,,,,,,,,,,,,,,,,,,,,,,,,001,49,2020_Jan_30_1506,spring_faces,3.1.5,59.883314008501124,
condition files/Stage0c_1.xlsx,0c,theta,alpha,h,"['h', 'g']","['Chess', 'Go']","[-0.15, 0.5]","[0.15, 0.5]",1,1,0,14,14,14,0,1,1,0,,,,,,,,,,,,,,,,,,,,,,,,,,,,,,,,,,,,,,,,,,,,,,,,,,,,,,,,,,,,,,,1438.1847868079967,None,1438.1847868079967,None,1438.1847868079967,None,h,1,0.6807552579994081,1439.7180971849994,None,1439.7180971849994,None,1439.7180971849994,None,1440.4517435709968,None,1440.4517435709968,None,1440.4517435709968,None,1440.4517435709968,None,,,,,,,,,,,,,,,,,,,,,,,,,,,,,,,,,,,,,,,,,,,,001,49,2020_Jan_30_1506,spring_faces,3.1.5,59.883314008501124,
condition files/Stage0c_1.xlsx,0c,alpha,phi,h,"['h', 'g']","['Chess', 'Go']","[-0.15, 0.5]","[0.15, 0.5]",1,1,0,14,14,14,0,2,2,1,,,,,,,,,,,,,,,,,,,,,,,,,,,,,,,,,,,,,,,,,,,,,,,,,,,,,,,,,,,,,,,1442.417857223998,None,1442.417857223998,None,1442.417857223998,None,h,1,1.215148601000692,1443.9517182959971,None,1443.9517182959971,None,1443.9517182959971,None,1445.2030779869965,None,1445.2030779869965,None,1445.2030779869965,None,1445.2030779869965,None,,,,,,,,,,,,,,,,,,,,,,,,,,,,,,,,,,,,,,,,,,,,001,49,2020_Jan_30_1506,spring_faces,3.1.5,59.883314008501124,
condition files/Stage0c_1.xlsx,0c,beta,theta,g,"['h', 'g']","['Chess', 'Go']","[-0.15, 0.5]","[0.15, 0.5]",1,1,0,14,14,14,0,3,3,2,,,,,,,,,,,,,,,,,,,,,,,,,,,,,,,,,,,,,,,,,,,,,,,,,,,,,,,,,,,,,,,1447.184775239999,None,1447.184775239999,None,1447.184775239999,None,g,1,0.6888043330000073,1448.7181506709967,None,1448.7181506709967,None,1448.7181506709967,None,1449.469529173999,None,1449.469529173999,None,1449.469529173999,None,1449.469529173999,None,,,,,,,,,,,,,,,,,,,,,,,,,,,,,,,,,,,,,,,,,,,,001,49,2020_Jan_30_1506,spring_faces,3.1.5,59.883314008501124,
condition files/Stage0c_2.xlsx,0c,beta,phi,g,"['h', 'g']","['Chess', 'Go']","[-0.15, 0.5]","[0.15, 0.5]",1,1,0,15,15,15,0,0,0,3,,,,,,,,,,,,,,,,,,,,,,,,,,,,,,,,,,,,,,,,,,,,,,,,,,,,,,,,,,,,,,,1451.4515741119976,None,1451.4515741119976,None,1451.4515741119976,None,g,1,0.8053213069979392,1452.985562304999,None,1452.985562304999,None,1452.985562304999,None,1453.8364565049997,None,1453.8364565049997,None,1453.8364565049997,None,1453.8364565049997,None,,,,,,,,,,,,,,,,,,,,,,,,,,,,,,,,,,,,,,,,,,,,001,49,2020_Jan_30_1506,spring_faces,3.1.5,59.883314008501124,
condition files/Stage0c_2.xlsx,0c,theta,beta,g,"['h', 'g']","['Chess', 'Go']","[-0.15, 0.5]","[0.15, 0.5]",1,1,0,15,15,15,0,1,1,2,,,,,,,,,,,,,,,,,,,,,,,,,,,,,,,,,,,,,,,,,,,,,,,,,,,,,,,,,,,,,,,1455.8182120359997,None,1455.8182120359997,None,1455.8182120359997,None,g,1,0.6472995300027833,1457.3515665469968,None,1457.3515665469968,None,1457.3515665469968,None,1458.0366849819984,None,1458.0366849819984,None,1458.0366849819984,None,1458.0366849819984,None,,,,,,,,,,,,,,,,,,,,,,,,,,,,,,,,,,,,,,,,,,,,001,49,2020_Jan_30_1506,spring_faces,3.1.5,59.883314008501124,
condition files/Stage0c_2.xlsx,0c,phi,alpha,h,"['h', 'g']","['Chess', 'Go']","[-0.15, 0.5]","[0.15, 0.5]",1,1,0,15,15,15,0,2,2,1,,,,,,,,,,,,,,,,,,,,,,,,,,,,,,,,,,,,,,,,,,,,,,,,,,,,,,,,,,,,,,,1460.0182231929975,None,1460.0182231929975,None,1460.0182231929975,None,h,1,0.5592999430009513,1461.551629346999,None,1461.551629346999,None,1461.551629346999,None,1462.1676161959986,None,1462.1676161959986,None,1462.1676161959986,None,1462.1676161959986,None,,,,,,,,,,,,,,,,,,,,,,,,,,,,,,,,,,,,,,,,,,,,001,49,2020_Jan_30_1506,spring_faces,3.1.5,59.883314008501124,
condition files/Stage0c_2.xlsx,0c,alpha,theta,h,"['h', 'g']","['Chess', 'Go']","[-0.15, 0.5]","[0.15, 0.5]",1,1,0,15,15,15,0,3,3,0,,,,,,,,,,,,,,,,,,,,,,,,,,,,,,,,,,,,,,,,,,,,,,,,,,,,,,,,,,,,,,,1464.1343967169996,None,1464.1343967169996,None,1464.1343967169996,None,h,1,0.8106308249989524,1465.6683144699964,None,1465.6683144699964,None,1465.6683144699964,None,1466.5198007689978,None,1466.5198007689978,None,1466.5198007689978,None,1466.5198007689978,None,,,,,,,,,,,,,,,,,,,,,,,,,,,,,,,,,,,,,,,,,,,,001,49,2020_Jan_30_1506,spring_faces,3.1.5,59.883314008501124,
condition files/Stage0c_1.xlsx,0c,theta,alpha,h,"['h', 'g']","['Chess', 'Go']","[-0.15, 0.5]","[0.15, 0.5]",1,1,0,16,16,16,0,0,0,0,,,,,,,,,,,,,,,,,,,,,,,,,,,,,,,,,,,,,,,,,,,,,,,,,,,,,,,,,,,,,,,1468.5185905869985,None,1468.5185905869985,None,1468.5185905869985,None,h,1,0.8592623169970466,1470.0516836699971,None,1470.0516836699971,None,1470.0516836699971,None,1470.952665075998,None,1470.952665075998,None,1470.952665075998,None,1470.952665075998,None,,,,,,,,,,,,,,,,,,,,,,,,,,,,,,,,,,,,,,,,,,,,001,49,2020_Jan_30_1506,spring_faces,3.1.5,59.883314008501124,
condition files/Stage0c_1.xlsx,0c,phi,beta,g,"['h', 'g']","['Chess', 'Go']","[-0.15, 0.5]","[0.15, 0.5]",1,1,0,16,16,16,0,1,1,3,,,,,,,,,,,,,,,,,,,,,,,,,,,,,,,,,,,,,,,,,,,,,,,,,,,,,,,,,,,,,,,1472.9348455129984,None,1472.9348455129984,None,1472.9348455129984,None,g,1,0.8741526769990742,1474.4687831019983,None,1474.4687831019983,None,1474.4687831019983,None,1475.401763853999,None,1475.401763853999,None,1475.401763853999,None,1475.401763853999,None,,,,,,,,,,,,,,,,,,,,,,,,,,,,,,,,,,,,,,,,,,,,001,49,2020_Jan_30_1506,spring_faces,3.1.5,59.883314008501124,
condition files/Stage0c_1.xlsx,0c,beta,theta,g,"['h', 'g']","['Chess', 'Go']","[-0.15, 0.5]","[0.15, 0.5]",1,1,0,16,16,16,0,2,2,2,,,,,,,,,,,,,,,,,,,,,,,,,,,,,,,,,,,,,,,,,,,,,,,,,,,,,,,,,,,,,,,1477.3678007659983,None,1477.3678007659983,None,1477.3678007659983,None,g,1,0.8737674229996628,1478.9010456469987,None,1478.9010456469987,None,1478.9010456469987,None,1479.8193754409986,None,1479.8193754409986,None,1479.8193754409986,None,1479.8193754409986,None,,,,,,,,,,,,,,,,,,,,,,,,,,,,,,,,,,,,,,,,,,,,001,49,2020_Jan_30_1506,spring_faces,3.1.5,59.883314008501124,
condition files/Stage0c_1.xlsx,0c,alpha,phi,h,"['h', 'g']","['Chess', 'Go']","[-0.15, 0.5]","[0.15, 0.5]",1,1,0,16,16,16,0,3,3,1,,,,,,,,,,,,,,,,,,,,,,,,,,,,,,,,,,,,,,,,,,,,,,,,,,,,,,,,,,,,,,,1481.801098691998,None,1481.801098691998,None,1481.801098691998,None,h,1,0.8723934170011489,1483.3344898609976,None,1483.3344898609976,None,1483.3344898609976,None,1484.2705271749983,None,1484.2705271749983,None,1484.2705271749983,None,1484.2705271749983,None,,,,,,,,,,,,,,,,,,,,,,,,,,,,,,,,,,,,,,,,,,,,001,49,2020_Jan_30_1506,spring_faces,3.1.5,59.883314008501124,
condition files/Stage0c_2.xlsx,0c,alpha,theta,h,"['h', 'g']","['Chess', 'Go']","[-0.15, 0.5]","[0.15, 0.5]",1,1,0,17,17,17,0,0,0,0,,,,,,,,,,,,,,,,,,,,,,,,,,,,,,,,,,,,,,,,,,,,,,,,,,,,,,,,,,,,,,,1486.2515460379982,None,1486.2515460379982,None,1486.2515460379982,None,h,1,0.6472488969993719,1487.7676275489976,None,1487.7676275489976,None,1487.7676275489976,None,1488.4536931619987,None,1488.4536931619987,None,1488.4536931619987,None,1488.4536931619987,None,,,,,,,,,,,,,,,,,,,,,,,,,,,,,,,,,,,,,,,,,,,,001,49,2020_Jan_30_1506,spring_faces,3.1.5,59.883314008501124,
condition files/Stage0c_2.xlsx,0c,theta,beta,g,"['h', 'g']","['Chess', 'Go']","[-0.15, 0.5]","[0.15, 0.5]",1,1,0,17,17,17,0,1,1,2,,,,,,,,,,,,,,,,,,,,,,,,,,,,,,,,,,,,,,,,,,,,,,,,,,,,,,,,,,,,,,,1490.434794552999,None,1490.434794552999,None,1490.434794552999,None,g,1,0.7504035720012325,1491.9684391409974,None,1491.9684391409974,None,1491.9684391409974,None,1492.7851083759997,None,1492.7851083759997,None,1492.7851083759997,None,1492.7851083759997,None,,,,,,,,,,,,,,,,,,,,,,,,,,,,,,,,,,,,,,,,,,,,001,49,2020_Jan_30_1506,spring_faces,3.1.5,59.883314008501124,
condition files/Stage0c_2.xlsx,0c,beta,phi,g,"['h', 'g']","['Chess', 'Go']","[-0.15, 0.5]","[0.15, 0.5]",1,1,0,17,17,17,0,2,2,3,,,,,,,,,,,,,,,,,,,,,,,,,,,,,,,,,,,,,,,,,,,,,,,,,,,,,,,,,,,,,,,1494.7510934659986,None,1494.7510934659986,None,1494.7510934659986,None,g,1,1.13789962899682,1496.284973081998,None,1496.284973081998,None,1496.284973081998,None,1497.468624981997,None,1497.468624981997,None,1497.468624981997,None,1497.468624981997,None,,,,,,,,,,,,,,,,,,,,,,,,,,,,,,,,,,,,,,,,,,,,001,49,2020_Jan_30_1506,spring_faces,3.1.5,59.883314008501124,
condition files/Stage0c_2.xlsx,0c,phi,alpha,h,"['h', 'g']","['Chess', 'Go']","[-0.15, 0.5]","[0.15, 0.5]",1,1,0,17,17,17,0,3,3,1,,,,,,,,,,,,,,,,,,,,,,,,,,,,,,,,,,,,,,,,,,,,,,,,,,,,,,,,,,,,,,,1499.4515330779977,None,1499.4515330779977,None,1499.4515330779977,None,h,1,0.7580749620028655,1500.9848599769975,None,1500.9848599769975,None,1500.9848599769975,None,1501.8017229489997,None,1501.8017229489997,None,1501.8017229489997,None,1501.8017229489997,None,,,,,,,,,,,,,,,,,,,,,,,,,,,,,,,,,,,,,,,,,,,,001,49,2020_Jan_30_1506,spring_faces,3.1.5,59.883314008501124,
,,,,,,,,,,,,,,,,,,,,,,,,,,,,,,,,,,,,,,,,,,,,,,,,,,,,,,,,,,,,,,,,,,,,,,,,,,,,,,,,,,,,,,,,,,,,,,,,,,,,,,,,1503.7850718759983,None,space,6.189962478001689,1508.784988239997,None,,,,,,,,,,,,,,,,,,,,,,,,,,,,,,,,,,,,,,001,49,2020_Jan_30_1506,spring_faces,3.1.5,59.883314008501124,
condition files/Stage1_1.xlsx,,B2,T1,m,"['c', 'm']","['Clue', 'Monopoly']","[-0.15, 0.5]","[0.15, 0.5]",1,1,,,,,,,,,0,0,0,0,0,0,0,2,,,,,,,,,,,,,,,,,,,,,,,,,,,,,,,,,,,,,,,,,,,,,,,,,,,,,,,1515.0849712409981,None,1515.0849712409981,None,1515.0849712409981,None,m,1,2.2946778219993575,1516.5681981589987,None,1516.5681981589987,None,1516.5681981589987,None,1518.9351434769997,None,1518.9351434769997,None,1518.9351434769997,None,1518.9351434769997,None,,,,,,,1508.784988239997,None,,,,,,,,,,,,,,,,,,,,,,,,,,,,,,,,,,,,001,49,2020_Jan_30_1506,spring_faces,3.1.5,59.883314008501124,
condition files/Stage1_1.xlsx,,B3,T3,c,"['c', 'm']","['Clue', 'Monopoly']","[-0.15, 0.5]","[0.15, 0.5]",1,1,,,,,,,,,0,0,0,0,0,1,1,4,,,,,,,,,,,,,,,,,,,,,,,,,,,,,,,,,,,,,,,,,,,,,,,,,,,,,,,1520.8848027099993,None,1520.8848027099993,None,1520.8848027099993,None,m,0,1.706954119999864,1522.4199995309973,None,1522.4199995309973,None,1522.4199995309973,None,1524.1866348999974,None,1524.1866348999974,None,1524.1866348999974,None,1524.1866348999974,None,,,,,,,,,,,,,,,,,,,,,,,,,,,,,,,,,,,,,,,,,,,,001,49,2020_Jan_30_1506,spring_faces,3.1.5,59.883314008501124,
condition files/Stage1_1.xlsx,,T2,B2,m,"['c', 'm']","['Clue', 'Monopoly']","[-0.15, 0.5]","[0.15, 0.5]",1,1,,,,,,,,,0,0,0,0,0,2,2,3,,,,,,,,,,,,,,,,,,,,,,,,,,,,,,,,,,,,,,,,,,,,,,,,,,,,,,,1526.1516746039997,None,1526.1516746039997,None,1526.1516746039997,None,m,1,1.2417686059998232,1527.701029934,None,1527.701029934,None,1527.701029934,None,1529.0022665789984,None,1529.0022665789984,None,1529.0022665789984,None,1529.0022665789984,None,,,,,,,,,,,,,,,,,,,,,,,,,,,,,,,,,,,,,,,,,,,,001,49,2020_Jan_30_1506,spring_faces,3.1.5,59.883314008501124,
condition files/Stage1_1.xlsx,,B4,T4,m,"['c', 'm']","['Clue', 'Monopoly']","[-0.15, 0.5]","[0.15, 0.5]",1,1,,,,,,,,,0,0,0,0,0,3,3,7,,,,,,,,,,,,,,,,,,,,,,,,,,,,,,,,,,,,,,,,,,,,,,,,,,,,,,,1530.9681777909973,None,1530.9681777909973,None,1530.9681777909973,None,m,1,1.400520968996716,1532.5183000269972,None,1532.5183000269972,None,1532.5183000269972,None,1533.9852360489967,None,1533.9852360489967,None,1533.9852360489967,None,1533.9852360489967,None,,,,,,,,,,,,,,,,,,,,,,,,,,,,,,,,,,,,,,,,,,,,001,49,2020_Jan_30_1506,spring_faces,3.1.5,59.883314008501124,
condition files/Stage1_1.xlsx,,T3,B4,c,"['c', 'm']","['Clue', 'Monopoly']","[-0.15, 0.5]","[0.15, 0.5]",1,1,,,,,,,,,0,0,0,0,0,4,4,5,,,,,,,,,,,,,,,,,,,,,,,,,,,,,,,,,,,,,,,,,,,,,,,,,,,,,,,1535.9509890079971,None,1535.9509890079971,None,1535.9509890079971,None,m,0,1.3763228120005806,1537.4865685229997,None,1537.4865685229997,None,1537.4865685229997,None,1538.9353169469978,None,1538.9353169469978,None,1538.9353169469978,None,1538.9353169469978,None,,,,,,,,,,,,,,,,,,,,,,,,,,,,,,,,,,,,,,,,,,,,001,49,2020_Jan_30_1506,spring_faces,3.1.5,59.883314008501124,
condition files/Stage1_1.xlsx,,T4,B3,m,"['c', 'm']","['Clue', 'Monopoly']","[-0.15, 0.5]","[0.15, 0.5]",1,1,,,,,,,,,0,0,0,0,0,5,5,6,,,,,,,,,,,,,,,,,,,,,,,,,,,,,,,,,,,,,,,,,,,,,,,,,,,,,,,1540.885013805997,None,1540.885013805997,None,1540.885013805997,None,m,1,1.3874911029997747,1542.4194127269984,None,1542.4194127269984,None,1542.4194127269984,None,1543.8693532399993,None,1543.8693532399993,None,1543.8693532399993,None,1543.8693532399993,None,,,,,,,,,,,,,,,,,,,,,,,,,,,,,,,,,,,,,,,,,,,,001,49,2020_Jan_30_1506,spring_faces,3.1.5,59.883314008501124,
condition files/Stage1_1.xlsx,,T1,B1,c,"['c', 'm']","['Clue', 'Monopoly']","[-0.15, 0.5]","[0.15, 0.5]",1,1,,,,,,,,,0,0,0,0,0,6,6,0,,,,,,,,,,,,,,,,,,,,,,,,,,,,,,,,,,,,,,,,,,,,,,,,,,,,,,,1545.8348723259987,None,1545.8348723259987,None,1545.8348723259987,None,c,1,1.7646837639986188,1547.4181795259974,None,1547.4181795259974,None,1547.4181795259974,None,1549.237346089998,None,1549.237346089998,None,1549.237346089998,None,1549.237346089998,None,,,,,,,,,,,,,,,,,,,,,,,,,,,,,,,,,,,,,,,,,,,,001,49,2020_Jan_30_1506,spring_faces,3.1.5,59.883314008501124,
condition files/Stage1_1.xlsx,,B1,T2,c,"['c', 'm']","['Clue', 'Monopoly']","[-0.15, 0.5]","[0.15, 0.5]",1,1,,,,,,,,,0,0,0,0,0,7,7,1,,,,,,,,,,,,,,,,,,,,,,,,,,,,,,,,,,,,,,,,,,,,,,,,,,,,,,,1551.2015090749992,None,1551.2015090749992,None,1551.2015090749992,None,m,0,2.46308350000254,1552.7358022749977,None,1552.7358022749977,None,1552.7358022749977,None,1555.2517607959999,None,1555.2517607959999,None,1555.2517607959999,None,1555.2517607959999,None,,,,,,,,,,,,,,,,,,,,,,,,,,,,,,,,,,,,,,,,,,,,001,49,2020_Jan_30_1506,spring_faces,3.1.5,59.883314008501124,
condition files/Stage1_2.xlsx,,T3,B3,c,"['c', 'm']","['Clue', 'Monopoly']","[-0.15, 0.5]","[0.15, 0.5]",1,1,,,,,,,,,0,1,1,1,0,0,0,4,,,,,,,,,,,,,,,,,,,,,,,,,,,,,,,,,,,,,,,,,,,,,,,,,,,,,,,1557.2350250799973,None,1557.2350250799973,None,1557.2350250799973,None,m,0,2.4618767899992235,1558.7850081599972,None,1558.7850081599972,None,1558.7850081599972,None,1561.3009843089967,None,1561.3009843089967,None,1561.3009843089967,None,1561.3009843089967,None,,,,,,,,,,,,,,,,,,,,,,,,,,,,,,,,,,,,,,,,,,,,001,49,2020_Jan_30_1506,spring_faces,3.1.5,59.883314008501124,
condition files/Stage1_2.xlsx,,B3,T4,m,"['c', 'm']","['Clue', 'Monopoly']","[-0.15, 0.5]","[0.15, 0.5]",1,1,,,,,,,,,0,1,1,1,0,1,1,6,,,,,,,,,,,,,,,,,,,,,,,,,,,,,,,,,,,,,,,,,,,,,,,,,,,,,,,1563.2685009999987,None,1563.2685009999987,None,1563.2685009999987,None,c,0,1.0847486060010851,1564.818070895999,None,1564.818070895999,None,1564.818070895999,None,1565.9845352909979,None,1565.9845352909979,None,1565.9845352909979,None,1565.9845352909979,None,,,,,,,,,,,,,,,,,,,,,,,,,,,,,,,,,,,,,,,,,,,,001,49,2020_Jan_30_1506,spring_faces,3.1.5,59.883314008501124,
condition files/Stage1_2.xlsx,,T1,B2,m,"['c', 'm']","['Clue', 'Monopoly']","[-0.15, 0.5]","[0.15, 0.5]",1,1,,,,,,,,,0,1,1,1,0,2,2,2,,,,,,,,,,,,,,,,,,,,,,,,,,,,,,,,,,,,,,,,,,,,,,,,,,,,,,,1567.9352766489974,None,1567.9352766489974,None,1567.9352766489974,None,m,1,0.9142230809993634,1569.4846438429995,None,1569.4846438429995,None,1569.4846438429995,None,1570.4516859429968,None,1570.4516859429968,None,1570.4516859429968,None,1570.4516859429968,None,,,,,,,,,,,,,,,,,,,,,,,,,,,,,,,,,,,,,,,,,,,,001,49,2020_Jan_30_1506,spring_faces,3.1.5,59.883314008501124,
condition files/Stage1_2.xlsx,,T4,B4,m,"['c', 'm']","['Clue', 'Monopoly']","[-0.15, 0.5]","[0.15, 0.5]",1,1,,,,,,,,,0,1,1,1,0,3,3,7,,,,,,,,,,,,,,,,,,,,,,,,,,,,,,,,,,,,,,,,,,,,,,,,,,,,,,,1572.4183236559984,None,1572.4183236559984,None,1572.4183236559984,None,m,1,1.502763734999462,1573.968110220998,None,1573.968110220998,None,1573.968110220998,None,1575.5350609949965,None,1575.5350609949965,None,1575.5350609949965,None,1575.5350609949965,None,,,,,,,,,,,,,,,,,,,,,,,,,,,,,,,,,,,,,,,,,,,,001,49,2020_Jan_30_1506,spring_faces,3.1.5,59.883314008501124,
condition files/Stage1_2.xlsx,,B4,T3,c,"['c', 'm']","['Clue', 'Monopoly']","[-0.15, 0.5]","[0.15, 0.5]",1,1,,,,,,,,,0,1,1,1,0,4,4,5,,,,,,,,,,,,,,,,,,,,,,,,,,,,,,,,,,,,,,,,,,,,,,,,,,,,,,,1577.5014596449982,None,1577.5014596449982,None,1577.5014596449982,None,c,1,1.6026484059984796,1579.036250281999,None,1579.036250281999,None,1579.036250281999,None,1580.7034433409972,None,1580.7034433409972,None,1580.7034433409972,None,1580.7034433409972,None,,,,,,,,,,,,,,,,,,,,,,,,,,,,,,,,,,,,,,,,,,,,001,49,2020_Jan_30_1506,spring_faces,3.1.5,59.883314008501124,
condition files/Stage1_2.xlsx,,B2,T2,m,"['c', 'm']","['Clue', 'Monopoly']","[-0.15, 0.5]","[0.15, 0.5]",1,1,,,,,,,,,0,1,1,1,0,5,5,3,,,,,,,,,,,,,,,,,,,,,,,,,,,,,,,,,,,,,,,,,,,,,,,,,,,,,,,1582.6679454089972,None,1582.6679454089972,None,1582.6679454089972,None,c,0,2.229949956999917,1584.2009093829984,None,1584.2009093829984,None,1584.2009093829984,None,1586.5010409209972,None,1586.5010409209972,None,1586.5010409209972,None,1586.5010409209972,None,,,,,,,,,,,,,,,,,,,,,,,,,,,,,,,,,,,,,,,,,,,,001,49,2020_Jan_30_1506,spring_faces,3.1.5,59.883314008501124,
condition files/Stage1_2.xlsx,,T2,B1,c,"['c', 'm']","['Clue', 'Monopoly']","[-0.15, 0.5]","[0.15, 0.5]",1,1,,,,,,,,,0,1,1,1,0,6,6,1,,,,,,,,,,,,,,,,,,,,,,,,,,,,,,,,,,,,,,,,,,,,,,,,,,,,,,,1588.4509837099977,None,1588.4509837099977,None,1588.4509837099977,None,c,1,2.987676756998553,1589.9872803379985,None,1589.9872803379985,None,1589.9872803379985,None,1593.035545650997,None,1593.035545650997,None,1593.035545650997,None,1593.035545650997,None,,,,,,,,,,,,,,,,,,,,,,,,,,,,,,,,,,,,,,,,,,,,001,49,2020_Jan_30_1506,spring_faces,3.1.5,59.883314008501124,
condition files/Stage1_2.xlsx,,B1,T1,c,"['c', 'm']","['Clue', 'Monopoly']","[-0.15, 0.5]","[0.15, 0.5]",1,1,,,,,,,,,0,1,1,1,0,7,7,0,,,,,,,,,,,,,,,,,,,,,,,,,,,,,,,,,,,,,,,,,,,,,,,,,,,,,,,1595.0014943279966,None,1595.0014943279966,None,1595.0014943279966,None,c,1,2.151295632997062,1596.5355951549973,None,1596.5355951549973,None,1596.5355951549973,None,1598.7517900519997,None,1598.7517900519997,None,1598.7517900519997,None,1598.7517900519997,None,,,,,,,,,,,,,,,,,,,,,,,,,,,,,,,,,,,,,,,,,,,,001,49,2020_Jan_30_1506,spring_faces,3.1.5,59.883314008501124,
condition files/Stage1_1.xlsx,,B4,T4,m,"['c', 'm']","['Clue', 'Monopoly']","[-0.15, 0.5]","[0.15, 0.5]",1,1,,,,,,,,,0,2,2,2,0,0,0,7,,,,,,,,,,,,,,,,,,,,,,,,,,,,,,,,,,,,,,,,,,,,,,,,,,,,,,,1600.7353350659978,None,1600.7353350659978,None,1600.7353350659978,None,m,1,1.1061587199983478,1602.2847163259976,None,1602.2847163259976,None,1602.2847163259976,None,1603.453892231999,None,1603.453892231999,None,1603.453892231999,None,1603.453892231999,None,,,,,,,,,,,,,,,,,,,,,,,,,,,,,,,,,,,,,,,,,,,,001,49,2020_Jan_30_1506,spring_faces,3.1.5,59.883314008501124,
condition files/Stage1_1.xlsx,,T2,B2,m,"['c', 'm']","['Clue', 'Monopoly']","[-0.15, 0.5]","[0.15, 0.5]",1,1,,,,,,,,,0,2,2,2,0,1,1,3,,,,,,,,,,,,,,,,,,,,,,,,,,,,,,,,,,,,,,,,,,,,,,,,,,,,,,,1605.4183198779974,None,1605.4183198779974,None,1605.4183198779974,None,m,1,1.3023187030012195,1606.9525777889976,None,1606.9525777889976,None,1606.9525777889976,None,1608.318474058,None,1608.318474058,None,1608.318474058,None,1608.318474058,None,,,,,,,,,,,,,,,,,,,,,,,,,,,,,,,,,,,,,,,,,,,,001,49,2020_Jan_30_1506,spring_faces,3.1.5,59.883314008501124,
condition files/Stage1_1.xlsx,,B2,T1,m,"['c', 'm']","['Clue', 'Monopoly']","[-0.15, 0.5]","[0.15, 0.5]",1,1,,,,,,,,,0,2,2,2,0,2,2,2,,,,,,,,,,,,,,,,,,,,,,,,,,,,,,,,,,,,,,,,,,,,,,,,,,,,,,,1610.285035675999,None,1610.285035675999,None,1610.285035675999,None,m,1,1.3327219079983479,1611.8181249899972,None,1611.8181249899972,None,1611.8181249899972,None,1613.201568264998,None,1613.201568264998,None,1613.201568264998,None,1613.201568264998,None,,,,,,,,,,,,,,,,,,,,,,,,,,,,,,,,,,,,,,,,,,,,001,49,2020_Jan_30_1506,spring_faces,3.1.5,59.883314008501124,
condition files/Stage1_1.xlsx,,T1,B1,c,"['c', 'm']","['Clue', 'Monopoly']","[-0.15, 0.5]","[0.15, 0.5]",1,1,,,,,,,,,0,2,2,2,0,3,3,0,,,,,,,,,,,,,,,,,,,,,,,,,,,,,,,,,,,,,,,,,,,,,,,,,,,,,,,1615.1678580339976,None,1615.1678580339976,None,1615.1678580339976,None,c,1,1.3615150899968285,1616.701318258998,None,1616.701318258998,None,1616.701318258998,None,1618.1198834819988,None,1618.1198834819988,None,1618.1198834819988,None,1618.1198834819988,None,,,,,,,,,,,,,,,,,,,,,,,,,,,,,,,,,,,,,,,,,,,,001,49,2020_Jan_30_1506,spring_faces,3.1.5,59.883314008501124,
condition files/Stage1_1.xlsx,,B3,T3,c,"['c', 'm']","['Clue', 'Monopoly']","[-0.15, 0.5]","[0.15, 0.5]",1,1,,,,,,,,,0,2,2,2,0,4,4,4,,,,,,,,,,,,,,,,,,,,,,,,,,,,,,,,,,,,,,,,,,,,,,,,,,,,,,,1620.0849292269995,None,1620.0849292269995,None,1620.0849292269995,None,c,1,1.8663861649984028,1621.6204708489968,None,1621.6204708489968,None,1621.6204708489968,None,1623.5518594389978,None,1623.5518594389978,None,1623.5518594389978,None,1623.5518594389978,None,,,,,,,,,,,,,,,,,,,,,,,,,,,,,,,,,,,,,,,,,,,,001,49,2020_Jan_30_1506,spring_faces,3.1.5,59.883314008501124,
condition files/Stage1_1.xlsx,,T4,B3,m,"['c', 'm']","['Clue', 'Monopoly']","[-0.15, 0.5]","[0.15, 0.5]",1,1,,,,,,,,,0,2,2,2,0,5,5,6,,,,,,,,,,,,,,,,,,,,,,,,,,,,,,,,,,,,,,,,,,,,,,,,,,,,,,,1625.5181902489967,None,1625.5181902489967,None,1625.5181902489967,None,c,0,1.1698891240012017,1627.0530152409992,None,1627.0530152409992,None,1627.0530152409992,None,1628.2875192919964,None,1628.2875192919964,None,1628.2875192919964,None,1628.2875192919964,None,,,,,,,,,,,,,,,,,,,,,,,,,,,,,,,,,,,,,,,,,,,,001,49,2020_Jan_30_1506,spring_faces,3.1.5,59.883314008501124,
condition files/Stage1_1.xlsx,,T3,B4,c,"['c', 'm']","['Clue', 'Monopoly']","[-0.15, 0.5]","[0.15, 0.5]",1,1,,,,,,,,,0,2,2,2,0,6,6,5,,,,,,,,,,,,,,,,,,,,,,,,,,,,,,,,,,,,,,,,,,,,,,,,,,,,,,,1630.2515342249972,None,1630.2515342249972,None,1630.2515342249972,None,m,0,1.2367698990019562,1631.7861351599968,None,1631.7861351599968,None,1631.7861351599968,None,1633.0879388629983,None,1633.0879388629983,None,1633.0879388629983,None,1633.0879388629983,None,,,,,,,,,,,,,,,,,,,,,,,,,,,,,,,,,,,,,,,,,,,,001,49,2020_Jan_30_1506,spring_faces,3.1.5,59.883314008501124,
condition files/Stage1_1.xlsx,,B1,T2,c,"['c', 'm']","['Clue', 'Monopoly']","[-0.15, 0.5]","[0.15, 0.5]",1,1,,,,,,,,,0,2,2,2,0,7,7,1,,,,,,,,,,,,,,,,,,,,,,,,,,,,,,,,,,,,,,,,,,,,,,,,,,,,,,,1635.0510897749991,None,1635.0510897749991,None,1635.0510897749991,None,c,1,2.7573336839996045,1636.585594199998,None,1636.585594199998,None,1636.585594199998,None,1639.4019314399993,None,1639.4019314399993,None,1639.4019314399993,None,1639.4019314399993,None,,,,,,,,,,,,,,,,,,,,,,,,,,,,,,,,,,,,,,,,,,,,001,49,2020_Jan_30_1506,spring_faces,3.1.5,59.883314008501124,
condition files/Stage1_2.xlsx,,B2,T2,m,"['c', 'm']","['Clue', 'Monopoly']","[-0.15, 0.5]","[0.15, 0.5]",1,1,,,,,,,,,0,3,3,3,0,0,0,3,,,,,,,,,,,,,,,,,,,,,,,,,,,,,,,,,,,,,,,,,,,,,,,,,,,,,,,1641.3848581589991,None,1641.3848581589991,None,1641.3848581589991,None,m,1,0.9984589050000068,1642.920388729999,None,1642.920388729999,None,1642.920388729999,None,1644.0016202319966,None,1644.0016202319966,None,1644.0016202319966,None,1644.0016202319966,None,,,,,,,,,,,,,,,,,,,,,,,,,,,,,,,,,,,,,,,,,,,,001,49,2020_Jan_30_1506,spring_faces,3.1.5,59.883314008501124,
condition files/Stage1_2.xlsx,,T3,B3,c,"['c', 'm']","['Clue', 'Monopoly']","[-0.15, 0.5]","[0.15, 0.5]",1,1,,,,,,,,,0,3,3,3,0,1,1,4,,,,,,,,,,,,,,,,,,,,,,,,,,,,,,,,,,,,,,,,,,,,,,,,,,,,,,,1645.9515429099993,None,1645.9515429099993,None,1645.9515429099993,None,m,0,2.3834098070001346,1647.4874785139982,None,1647.4874785139982,None,1647.4874785139982,None,1649.9515978309973,None,1649.9515978309973,None,1649.9515978309973,None,1649.9515978309973,None,,,,,,,,,,,,,,,,,,,,,,,,,,,,,,,,,,,,,,,,,,,,001,49,2020_Jan_30_1506,spring_faces,3.1.5,59.883314008501124,
condition files/Stage1_2.xlsx,,B4,T3,c,"['c', 'm']","['Clue', 'Monopoly']","[-0.15, 0.5]","[0.15, 0.5]",1,1,,,,,,,,,0,3,3,3,0,2,2,5,,,,,,,,,,,,,,,,,,,,,,,,,,,,,,,,,,,,,,,,,,,,,,,,,,,,,,,1651.9014960779969,None,1651.9014960779969,None,1651.9014960779969,None,c,1,1.3783531699991727,1653.436748537999,None,1653.436748537999,None,1653.436748537999,None,1654.8683873339978,None,1654.8683873339978,None,1654.8683873339978,None,1654.8683873339978,None,,,,,,,,,,,,,,,,,,,,,,,,,,,,,,,,,,,,,,,,,,,,001,49,2020_Jan_30_1506,spring_faces,3.1.5,59.883314008501124,
condition files/Stage1_2.xlsx,,B1,T1,c,"['c', 'm']","['Clue', 'Monopoly']","[-0.15, 0.5]","[0.15, 0.5]",1,1,,,,,,,,,0,3,3,3,0,3,3,0,,,,,,,,,,,,,,,,,,,,,,,,,,,,,,,,,,,,,,,,,,,,,,,,,,,,,,,1656.834356321997,None,1656.834356321997,None,1656.834356321997,None,c,1,1.022231990002183,1658.3846679939998,None,1658.3846679939998,None,1658.3846679939998,None,1659.4682495989982,None,1659.4682495989982,None,1659.4682495989982,None,1659.4682495989982,None,,,,,,,,,,,,,,,,,,,,,,,,,,,,,,,,,,,,,,,,,,,,001,49,2020_Jan_30_1506,spring_faces,3.1.5,59.883314008501124,
condition files/Stage1_2.xlsx,,B3,T4,m,"['c', 'm']","['Clue', 'Monopoly']","[-0.15, 0.5]","[0.15, 0.5]",1,1,,,,,,,,,0,3,3,3,0,4,4,6,,,,,,,,,,,,,,,,,,,,,,,,,,,,,,,,,,,,,,,,,,,,,,,,,,,,,,,1661.434853969,None,1661.434853969,None,1661.434853969,None,c,0,1.7163442150012997,1662.9705524629971,None,1662.9705524629971,None,1662.9705524629971,None,1664.754184063997,None,1664.754184063997,None,1664.754184063997,None,1664.754184063997,None,,,,,,,,,,,,,,,,,,,,,,,,,,,,,,,,,,,,,,,,,,,,001,49,2020_Jan_30_1506,spring_faces,3.1.5,59.883314008501124,
condition files/Stage1_2.xlsx,,T4,B4,m,"['c', 'm']","['Clue', 'Monopoly']","[-0.15, 0.5]","[0.15, 0.5]",1,1,,,,,,,,,0,3,3,3,0,5,5,7,,,,,,,,,,,,,,,,,,,,,,,,,,,,,,,,,,,,,,,,,,,,,,,,,,,,,,,1666.7181939129987,None,1666.7181939129987,None,1666.7181939129987,None,c,0,1.2035232929993072,1668.251377354998,None,1668.251377354998,None,1668.251377354998,None,1669.5182071189993,None,1669.5182071189993,None,1669.5182071189993,None,1669.5182071189993,None,,,,,,,,,,,,,,,,,,,,,,,,,,,,,,,,,,,,,,,,,,,,001,49,2020_Jan_30_1506,spring_faces,3.1.5,59.883314008501124,
condition files/Stage1_2.xlsx,,T2,B1,c,"['c', 'm']","['Clue', 'Monopoly']","[-0.15, 0.5]","[0.15, 0.5]",1,1,,,,,,,,,0,3,3,3,0,6,6,1,,,,,,,,,,,,,,,,,,,,,,,,,,,,,,,,,,,,,,,,,,,,,,,,,,,,,,,1671.484632847998,None,1671.484632847998,None,1671.484632847998,None,c,1,0.9962463890005893,1673.0187613739981,None,1673.0187613739981,None,1673.0187613739981,None,1674.0698986319985,None,1674.0698986319985,None,1674.0698986319985,None,1674.0698986319985,None,,,,,,,,,,,,,,,,,,,,,,,,,,,,,,,,,,,,,,,,,,,,001,49,2020_Jan_30_1506,spring_faces,3.1.5,59.883314008501124,
condition files/Stage1_2.xlsx,,T1,B2,m,"['c', 'm']","['Clue', 'Monopoly']","[-0.15, 0.5]","[0.15, 0.5]",1,1,,,,,,,,,0,3,3,3,0,7,7,2,,,,,,,,,,,,,,,,,,,,,,,,,,,,,,,,,,,,,,,,,,,,,,,,,,,,,,,1676.0348485769973,None,1676.0348485769973,None,1676.0348485769973,None,m,1,3.5658011000014085,1677.5850809939984,None,1677.5850809939984,None,1677.5850809939984,None,1681.2019559009968,None,1681.2019559009968,None,1681.2019559009968,None,1681.2019559009968,None,,,,,,,,,,,,,,,,,,,,,,,,,,,,,,,,,,,,,,,,,,,,001,49,2020_Jan_30_1506,spring_faces,3.1.5,59.883314008501124,
condition files/Stage1_1.xlsx,,T1,B1,c,"['c', 'm']","['Clue', 'Monopoly']","[-0.15, 0.5]","[0.15, 0.5]",1,1,,,,,,,,,0,4,4,4,0,0,0,0,,,,,,,,,,,,,,,,,,,,,,,,,,,,,,,,,,,,,,,,,,,,,,,,,,,,,,,1683.1849670879965,None,1683.1849670879965,None,1683.1849670879965,None,c,1,2.256332188997476,1684.7186341509987,None,1684.7186341509987,None,1684.7186341509987,None,1687.0518257969998,None,1687.0518257969998,None,1687.0518257969998,None,1687.0518257969998,None,,,,,,,,,,,,,,,,,,,,,,,,,,,,,,,,,,,,,,,,,,,,001,49,2020_Jan_30_1506,spring_faces,3.1.5,59.883314008501124,
condition files/Stage1_1.xlsx,,T4,B3,m,"['c', 'm']","['Clue', 'Monopoly']","[-0.15, 0.5]","[0.15, 0.5]",1,1,,,,,,,,,0,4,4,4,0,1,1,6,,,,,,,,,,,,,,,,,,,,,,,,,,,,,,,,,,,,,,,,,,,,,,,,,,,,,,,1689.000804209998,None,1689.000804209998,None,1689.000804209998,None,m,1,1.3506467160004831,1690.5362407249995,None,1690.5362407249995,None,1690.5362407249995,None,1691.9542129819965,None,1691.9542129819965,None,1691.9542129819965,None,1691.9542129819965,None,,,,,,,,,,,,,,,,,,,,,,,,,,,,,,,,,,,,,,,,,,,,001,49,2020_Jan_30_1506,spring_faces,3.1.5,59.883314008501124,
condition files/Stage1_1.xlsx,,B3,T3,c,"['c', 'm']","['Clue', 'Monopoly']","[-0.15, 0.5]","[0.15, 0.5]",1,1,,,,,,,,,0,4,4,4,0,2,2,4,,,,,,,,,,,,,,,,,,,,,,,,,,,,,,,,,,,,,,,,,,,,,,,,,,,,,,,1693.9181559949975,None,1693.9181559949975,None,1693.9181559949975,None,m,0,1.3626560509983392,1695.4521999379976,None,1695.4521999379976,None,1695.4521999379976,None,1696.8711240989978,None,1696.8711240989978,None,1696.8711240989978,None,1696.8711240989978,None,,,,,,,,,,,,,,,,,,,,,,,,,,,,,,,,,,,,,,,,,,,,001,49,2020_Jan_30_1506,spring_faces,3.1.5,59.883314008501124,
condition files/Stage1_1.xlsx,,B4,T4,m,"['c', 'm']","['Clue', 'Monopoly']","[-0.15, 0.5]","[0.15, 0.5]",1,1,,,,,,,,,0,4,4,4,0,3,3,7,,,,,,,,,,,,,,,,,,,,,,,,,,,,,,,,,,,,,,,,,,,,,,,,,,,,,,,1698.8345330409975,None,1698.8345330409975,None,1698.8345330409975,None,m,1,1.0210113499997533,1700.3699380349972,None,1700.3699380349972,None,1700.3699380349972,None,1701.467821774997,None,1701.467821774997,None,1701.467821774997,None,1701.467821774997,None,,,,,,,,,,,,,,,,,,,,,,,,,,,,,,,,,,,,,,,,,,,,001,49,2020_Jan_30_1506,spring_faces,3.1.5,59.883314008501124,
condition files/Stage1_1.xlsx,,T3,B4,c,"['c', 'm']","['Clue', 'Monopoly']","[-0.15, 0.5]","[0.15, 0.5]",1,1,,,,,,,,,0,4,4,4,0,4,4,5,,,,,,,,,,,,,,,,,,,,,,,,,,,,,,,,,,,,,,,,,,,,,,,,,,,,,,,1703.4181096909997,None,1703.4181096909997,None,1703.4181096909997,None,m,0,1.1266943289992923,1704.952273687999,None,1704.952273687999,None,1704.952273687999,None,1706.151806730999,None,1706.151806730999,None,1706.151806730999,None,1706.151806730999,None,,,,,,,,,,,,,,,,,,,,,,,,,,,,,,,,,,,,,,,,,,,,001,49,2020_Jan_30_1506,spring_faces,3.1.5,59.883314008501124,
condition files/Stage1_1.xlsx,,B2,T1,m,"['c', 'm']","['Clue', 'Monopoly']","[-0.15, 0.5]","[0.15, 0.5]",1,1,,,,,,,,,0,4,4,4,0,5,5,2,,,,,,,,,,,,,,,,,,,,,,,,,,,,,,,,,,,,,,,,,,,,,,,,,,,,,,,1708.1016941379967,None,1708.1016941379967,None,1708.1016941379967,None,m,1,1.3230612680017657,1709.651883145998,None,1709.651883145998,None,1709.651883145998,None,1711.051578642997,None,1711.051578642997,None,1711.051578642997,None,1711.051578642997,None,,,,,,,,,,,,,,,,,,,,,,,,,,,,,,,,,,,,,,,,,,,,001,49,2020_Jan_30_1506,spring_faces,3.1.5,59.883314008501124,
condition files/Stage1_1.xlsx,,B1,T2,c,"['c', 'm']","['Clue', 'Monopoly']","[-0.15, 0.5]","[0.15, 0.5]",1,1,,,,,,,,,0,4,4,4,0,6,6,1,,,,,,,,,,,,,,,,,,,,,,,,,,,,,,,,,,,,,,,,,,,,,,,,,,,,,,,1713.0009159069996,None,1713.0009159069996,None,1713.0009159069996,None,c,1,0.8078377609999734,1714.5351225609993,None,1714.5351225609993,None,1714.5351225609993,None,1715.418375923,None,1715.418375923,None,1715.418375923,None,1715.418375923,None,,,,,,,,,,,,,,,,,,,,,,,,,,,,,,,,,,,,,,,,,,,,001,49,2020_Jan_30_1506,spring_faces,3.1.5,59.883314008501124,
condition files/Stage1_1.xlsx,,T2,B2,m,"['c', 'm']","['Clue', 'Monopoly']","[-0.15, 0.5]","[0.15, 0.5]",1,1,,,,,,,,,0,4,4,4,0,7,7,3,,,,,,,,,,,,,,,,,,,,,,,,,,,,,,,,,,,,,,,,,,,,,,,,,,,,,,,1717.3676396289993,None,1717.3676396289993,None,1717.3676396289993,None,m,1,0.9683920130009938,1718.9184398419966,None,1718.9184398419966,None,1718.9184398419966,None,1719.968637277998,None,1719.968637277998,None,1719.968637277998,None,1719.968637277998,None,,,,,,,,,,,,,,,,,,,,,,,,,,,,,,,,,,,,,,,,,,,,001,49,2020_Jan_30_1506,spring_faces,3.1.5,59.883314008501124,
condition files/Stage1_2.xlsx,,B2,T2,m,"['c', 'm']","['Clue', 'Monopoly']","[-0.15, 0.5]","[0.15, 0.5]",1,1,,,,,,,,,0,5,5,5,0,0,0,3,,,,,,,,,,,,,,,,,,,,,,,,,,,,,,,,,,,,,,,,,,,,,,,,,,,,,,,1721.934800187999,None,1721.934800187999,None,1721.934800187999,None,m,1,0.7853650680008286,1723.4695360869991,None,1723.4695360869991,None,1723.4695360869991,None,1724.3182212129977,None,1724.3182212129977,None,1724.3182212129977,None,1724.3182212129977,None,,,,,,,,,,,,,,,,,,,,,,,,,,,,,,,,,,,,,,,,,,,,001,49,2020_Jan_30_1506,spring_faces,3.1.5,59.883314008501124,
condition files/Stage1_2.xlsx,,T3,B3,c,"['c', 'm']","['Clue', 'Monopoly']","[-0.15, 0.5]","[0.15, 0.5]",1,1,,,,,,,,,0,5,5,5,0,1,1,4,,,,,,,,,,,,,,,,,,,,,,,,,,,,,,,,,,,,,,,,,,,,,,,,,,,,,,,1726.2848511389966,None,1726.2848511389966,None,1726.2848511389966,None,m,0,1.5392225519972271,1727.8197469459992,None,1727.8197469459992,None,1727.8197469459992,None,1729.4347378709972,None,1729.4347378709972,None,1729.4347378709972,None,1729.4347378709972,None,,,,,,,,,,,,,,,,,,,,,,,,,,,,,,,,,,,,,,,,,,,,001,49,2020_Jan_30_1506,spring_faces,3.1.5,59.883314008501124,
condition files/Stage1_2.xlsx,,B3,T4,m,"['c', 'm']","['Clue', 'Monopoly']","[-0.15, 0.5]","[0.15, 0.5]",1,1,,,,,,,,,0,5,5,5,0,2,2,6,,,,,,,,,,,,,,,,,,,,,,,,,,,,,,,,,,,,,,,,,,,,,,,,,,,,,,,1731.3843593339989,None,1731.3843593339989,None,1731.3843593339989,None,m,1,1.9593450719985412,1732.9196210989976,None,1732.9196210989976,None,1732.9196210989976,None,1734.951777416998,None,1734.951777416998,None,1734.951777416998,None,1734.951777416998,None,,,,,,,,,,,,,,,,,,,,,,,,,,,,,,,,,,,,,,,,,,,,001,49,2020_Jan_30_1506,spring_faces,3.1.5,59.883314008501124,
condition files/Stage1_2.xlsx,,T4,B4,m,"['c', 'm']","['Clue', 'Monopoly']","[-0.15, 0.5]","[0.15, 0.5]",1,1,,,,,,,,,0,5,5,5,0,3,3,7,,,,,,,,,,,,,,,,,,,,,,,,,,,,,,,,,,,,,,,,,,,,,,,,,,,,,,,1736.9014936039966,None,1736.9014936039966,None,1736.9014936039966,None,c,0,1.2107599830014806,1738.4361386059973,None,1738.4361386059973,None,1738.4361386059973,None,1739.7017202959978,None,1739.7017202959978,None,1739.7017202959978,None,1739.7017202959978,None,,,,,,,,,,,,,,,,,,,,,,,,,,,,,,,,,,,,,,,,,,,,001,49,2020_Jan_30_1506,spring_faces,3.1.5,59.883314008501124,
condition files/Stage1_2.xlsx,,T1,B2,m,"['c', 'm']","['Clue', 'Monopoly']","[-0.15, 0.5]","[0.15, 0.5]",1,1,,,,,,,,,0,5,5,5,0,4,4,2,,,,,,,,,,,,,,,,,,,,,,,,,,,,,,,,,,,,,,,,,,,,,,,,,,,,,,,1741.6683122549985,None,1741.6683122549985,None,1741.6683122549985,None,m,1,0.7163429040010669,1743.2025155439987,None,1743.2025155439987,None,1743.2025155439987,None,1743.9850683789991,None,1743.9850683789991,None,1743.9850683789991,None,1743.9850683789991,None,,,,,,,,,,,,,,,,,,,,,,,,,,,,,,,,,,,,,,,,,,,,001,49,2020_Jan_30_1506,spring_faces,3.1.5,59.883314008501124,
condition files/Stage1_2.xlsx,,B4,T3,c,"['c', 'm']","['Clue', 'Monopoly']","[-0.15, 0.5]","[0.15, 0.5]",1,1,,,,,,,,,0,5,5,5,0,5,5,5,,,,,,,,,,,,,,,,,,,,,,,,,,,,,,,,,,,,,,,,,,,,,,,,,,,,,,,1745.9516813249975,None,1745.9516813249975,None,1745.9516813249975,None,c,1,1.7756681390019367,1747.487216821999,None,1747.487216821999,None,1747.487216821999,None,1749.335025141998,None,1749.335025141998,None,1749.335025141998,None,1749.335025141998,None,,,,,,,,,,,,,,,,,,,,,,,,,,,,,,,,,,,,,,,,,,,,001,49,2020_Jan_30_1506,spring_faces,3.1.5,59.883314008501124,
condition files/Stage1_2.xlsx,,T2,B1,c,"['c', 'm']","['Clue', 'Monopoly']","[-0.15, 0.5]","[0.15, 0.5]",1,1,,,,,,,,,0,5,5,5,0,6,6,1,,,,,,,,,,,,,,,,,,,,,,,,,,,,,,,,,,,,,,,,,,,,,,,,,,,,,,,1751.2845336119972,None,1751.2845336119972,None,1751.2845336119972,None,c,1,1.2761806039998191,1752.8347638299965,None,1752.8347638299965,None,1752.8347638299965,None,1754.168266962999,None,1754.168266962999,None,1754.168266962999,None,1754.168266962999,None,,,,,,,,,,,,,,,,,,,,,,,,,,,,,,,,,,,,,,,,,,,,001,49,2020_Jan_30_1506,spring_faces,3.1.5,59.883314008501124,
condition files/Stage1_2.xlsx,,B1,T1,c,"['c', 'm']","['Clue', 'Monopoly']","[-0.15, 0.5]","[0.15, 0.5]",1,1,,,,,,,,,0,5,5,5,0,7,7,0,,,,,,,,,,,,,,,,,,,,,,,,,,,,,,,,,,,,,,,,,,,,,,,,,,,,,,,1756.1348248799986,None,1756.1348248799986,None,1756.1348248799986,None,c,1,0.826829560999613,1757.6680847769967,None,1757.6680847769967,None,1757.6680847769967,None,1758.5517093589988,None,1758.5517093589988,None,1758.5517093589988,None,1758.5517093589988,None,,,,,,,,,,,,,,,,,,,,,,,,,,,,,,,,,,,,,,,,,,,,001,49,2020_Jan_30_1506,spring_faces,3.1.5,59.883314008501124,
condition files/Stage1_1.xlsx,,B2,T1,m,"['c', 'm']","['Clue', 'Monopoly']","[-0.15, 0.5]","[0.15, 0.5]",1,1,,,,,,,,,0,6,6,6,0,0,0,2,,,,,,,,,,,,,,,,,,,,,,,,,,,,,,,,,,,,,,,,,,,,,,,,,,,,,,,1760.5350906459971,None,1760.5350906459971,None,1760.5350906459971,None,m,1,1.0832905280003615,1762.0676099059965,None,1762.0676099059965,None,1762.0676099059965,None,1763.2021201169991,None,1763.2021201169991,None,1763.2021201169991,None,1763.2021201169991,None,,,,,,,,,,,,,,,,,,,,,,,,,,,,,,,,,,,,,,,,,,,,001,49,2020_Jan_30_1506,spring_faces,3.1.5,59.883314008501124,
condition files/Stage1_1.xlsx,,B4,T4,m,"['c', 'm']","['Clue', 'Monopoly']","[-0.15, 0.5]","[0.15, 0.5]",1,1,,,,,,,,,0,6,6,6,0,1,1,7,,,,,,,,,,,,,,,,,,,,,,,,,,,,,,,,,,,,,,,,,,,,,,,,,,,,,,,1765.168151343998,None,1765.168151343998,None,1765.168151343998,None,c,0,1.7118565609998768,1766.703276043998,None,1766.703276043998,None,1766.703276043998,None,1768.4683690089987,None,1768.4683690089987,None,1768.4683690089987,None,1768.4683690089987,None,,,,,,,,,,,,,,,,,,,,,,,,,,,,,,,,,,,,,,,,,,,,001,49,2020_Jan_30_1506,spring_faces,3.1.5,59.883314008501124,
condition files/Stage1_1.xlsx,,T1,B1,c,"['c', 'm']","['Clue', 'Monopoly']","[-0.15, 0.5]","[0.15, 0.5]",1,1,,,,,,,,,0,6,6,6,0,2,2,0,,,,,,,,,,,,,,,,,,,,,,,,,,,,,,,,,,,,,,,,,,,,,,,,,,,,,,,1770.4349532429987,None,1770.4349532429987,None,1770.4349532429987,None,c,1,1.3241751740024483,1771.9706751859994,None,1771.9706751859994,None,1771.9706751859994,None,1773.3542702789964,None,1773.3542702789964,None,1773.3542702789964,None,1773.3542702789964,None,,,,,,,,,,,,,,,,,,,,,,,,,,,,,,,,,,,,,,,,,,,,001,49,2020_Jan_30_1506,spring_faces,3.1.5,59.883314008501124,
condition files/Stage1_1.xlsx,,T4,B3,m,"['c', 'm']","['Clue', 'Monopoly']","[-0.15, 0.5]","[0.15, 0.5]",1,1,,,,,,,,,0,6,6,6,0,3,3,6,,,,,,,,,,,,,,,,,,,,,,,,,,,,,,,,,,,,,,,,,,,,,,,,,,,,,,,1775.3178518219975,None,1775.3178518219975,None,1775.3178518219975,None,m,1,1.977822685999854,1776.853039163998,None,1776.853039163998,None,1776.853039163998,None,1778.9010708529968,None,1778.9010708529968,None,1778.9010708529968,None,1778.9010708529968,None,,,,,,,,,,,,,,,,,,,,,,,,,,,,,,,,,,,,,,,,,,,,001,49,2020_Jan_30_1506,spring_faces,3.1.5,59.883314008501124,
condition files/Stage1_1.xlsx,,B3,T3,c,"['c', 'm']","['Clue', 'Monopoly']","[-0.15, 0.5]","[0.15, 0.5]",1,1,,,,,,,,,0,6,6,6,0,4,4,4,,,,,,,,,,,,,,,,,,,,,,,,,,,,,,,,,,,,,,,,,,,,,,,,,,,,,,,1780.8511061999998,None,1780.8511061999998,None,1780.8511061999998,None,m,0,2.733652160000929,1782.3852026869972,None,1782.3852026869972,None,1782.3852026869972,None,1785.1848599429977,None,1785.1848599429977,None,1785.1848599429977,None,1785.1848599429977,None,,,,,,,,,,,,,,,,,,,,,,,,,,,,,,,,,,,,,,,,,,,,001,49,2020_Jan_30_1506,spring_faces,3.1.5,59.883314008501124,
condition files/Stage1_1.xlsx,,B1,T2,c,"['c', 'm']","['Clue', 'Monopoly']","[-0.15, 0.5]","[0.15, 0.5]",1,1,,,,,,,,,0,6,6,6,0,5,5,1,,,,,,,,,,,,,,,,,,,,,,,,,,,,,,,,,,,,,,,,,,,,,,,,,,,,,,,1787.151655644997,None,1787.151655644997,None,1787.151655644997,None,c,1,0.8167238700007147,1788.686122231,None,1788.686122231,None,1788.686122231,None,1789.5685530429982,None,1789.5685530429982,None,1789.5685530429982,None,1789.5685530429982,None,,,,,,,,,,,,,,,,,,,,,,,,,,,,,,,,,,,,,,,,,,,,001,49,2020_Jan_30_1506,spring_faces,3.1.5,59.883314008501124,
condition files/Stage1_1.xlsx,,T3,B4,c,"['c', 'm']","['Clue', 'Monopoly']","[-0.15, 0.5]","[0.15, 0.5]",1,1,,,,,,,,,0,6,6,6,0,6,6,5,,,,,,,,,,,,,,,,,,,,,,,,,,,,,,,,,,,,,,,,,,,,,,,,,,,,,,,1791.5342463009983,None,1791.5342463009983,None,1791.5342463009983,None,m,0,1.6172963610006263,1793.0695994319976,None,1793.0695994319976,None,1793.0695994319976,None,1794.7521412019996,None,1794.7521412019996,None,1794.7521412019996,None,1794.7521412019996,None,,,,,,,,,,,,,,,,,,,,,,,,,,,,,,,,,,,,,,,,,,,,001,49,2020_Jan_30_1506,spring_faces,3.1.5,59.883314008501124,
condition files/Stage1_1.xlsx,,T2,B2,m,"['c', 'm']","['Clue', 'Monopoly']","[-0.15, 0.5]","[0.15, 0.5]",1,1,,,,,,,,,0,6,6,6,0,7,7,3,,,,,,,,,,,,,,,,,,,,,,,,,,,,,,,,,,,,,,,,,,,,,,,,,,,,,,,1796.7184270809994,None,1796.7184270809994,None,1796.7184270809994,None,m,1,1.4254873300014879,1798.2534879759987,None,1798.2534879759987,None,1798.2534879759987,None,1799.7517921849976,None,1799.7517921849976,None,1799.7517921849976,None,1799.7517921849976,None,,,,,,,,,,,,,,,,,,,,,,,,,,,,,,,,,,,,,,,,,,,,001,49,2020_Jan_30_1506,spring_faces,3.1.5,59.883314008501124,
condition files/Stage1_2.xlsx,,B2,T2,m,"['c', 'm']","['Clue', 'Monopoly']","[-0.15, 0.5]","[0.15, 0.5]",1,1,,,,,,,,,0,7,7,7,0,0,0,3,,,,,,,,,,,,,,,,,,,,,,,,,,,,,,,,,,,,,,,,,,,,,,,,,,,,,,,1801.7182430469984,None,1801.7182430469984,None,1801.7182430469984,None,m,1,0.9059862610010896,1803.2529787799976,None,1803.2529787799976,None,1803.2529787799976,None,1804.2185045829974,None,1804.2185045829974,None,1804.2185045829974,None,1804.2185045829974,None,,,,,,,,,,,,,,,,,,,,,,,,,,,,,,,,,,,,,,,,,,,,001,49,2020_Jan_30_1506,spring_faces,3.1.5,59.883314008501124,
condition files/Stage1_2.xlsx,,B3,T4,m,"['c', 'm']","['Clue', 'Monopoly']","[-0.15, 0.5]","[0.15, 0.5]",1,1,,,,,,,,,0,7,7,7,0,1,1,6,,,,,,,,,,,,,,,,,,,,,,,,,,,,,,,,,,,,,,,,,,,,,,,,,,,,,,,1806.1848628249973,None,1806.1848628249973,None,1806.1848628249973,None,c,0,2.7265474349987926,1807.720344350997,None,1807.720344350997,None,1807.720344350997,None,1810.5022227249974,None,1810.5022227249974,None,1810.5022227249974,None,1810.5022227249974,None,,,,,,,,,,,,,,,,,,,,,,,,,,,,,,,,,,,,,,,,,,,,001,49,2020_Jan_30_1506,spring_faces,3.1.5,59.883314008501124,
condition files/Stage1_2.xlsx,,B4,T3,c,"['c', 'm']","['Clue', 'Monopoly']","[-0.15, 0.5]","[0.15, 0.5]",1,1,,,,,,,,,0,7,7,7,0,2,2,5,,,,,,,,,,,,,,,,,,,,,,,,,,,,,,,,,,,,,,,,,,,,,,,,,,,,,,,1812.4683504099994,None,1812.4683504099994,None,1812.4683504099994,None,c,1,3.2111930529972597,1814.0039041779964,None,1814.0039041779964,None,1814.0039041779964,None,1817.284996516999,None,1817.284996516999,None,1817.284996516999,None,1817.284996516999,None,,,,,,,,,,,,,,,,,,,,,,,,,,,,,,,,,,,,,,,,,,,,001,49,2020_Jan_30_1506,spring_faces,3.1.5,59.883314008501124,
condition files/Stage1_2.xlsx,,B1,T1,c,"['c', 'm']","['Clue', 'Monopoly']","[-0.15, 0.5]","[0.15, 0.5]",1,1,,,,,,,,,0,7,7,7,0,3,3,0,,,,,,,,,,,,,,,,,,,,,,,,,,,,,,,,,,,,,,,,,,,,,,,,,,,,,,,1819.2348586439985,None,1819.2348586439985,None,1819.2348586439985,None,c,1,0.7342363399984606,1820.7686341949993,None,1820.7686341949993,None,1820.7686341949993,None,1821.568153074997,None,1821.568153074997,None,1821.568153074997,None,1821.568153074997,None,,,,,,,,,,,,,,,,,,,,,,,,,,,,,,,,,,,,,,,,,,,,001,49,2020_Jan_30_1506,spring_faces,3.1.5,59.883314008501124,
condition files/Stage1_2.xlsx,,T2,B1,c,"['c', 'm']","['Clue', 'Monopoly']","[-0.15, 0.5]","[0.15, 0.5]",1,1,,,,,,,,,0,7,7,7,0,4,4,1,,,,,,,,,,,,,,,,,,,,,,,,,,,,,,,,,,,,,,,,,,,,,,,,,,,,,,,1823.5349178509969,None,1823.5349178509969,None,1823.5349178509969,None,m,0,1.1380903869976464,1825.0847937479994,None,1825.0847937479994,None,1825.0847937479994,None,1826.2854709659987,None,1826.2854709659987,None,1826.2854709659987,None,1826.2854709659987,None,,,,,,,,,,,,,,,,,,,,,,,,,,,,,,,,,,,,,,,,,,,,001,49,2020_Jan_30_1506,spring_faces,3.1.5,59.883314008501124,
condition files/Stage1_2.xlsx,,T3,B3,c,"['c', 'm']","['Clue', 'Monopoly']","[-0.15, 0.5]","[0.15, 0.5]",1,1,,,,,,,,,0,7,7,7,0,5,5,4,,,,,,,,,,,,,,,,,,,,,,,,,,,,,,,,,,,,,,,,,,,,,,,,,,,,,,,1828.251489254999,None,1828.251489254999,None,1828.251489254999,None,m,0,1.1556616870002472,1829.7872983779998,None,1829.7872983779998,None,1829.7872983779998,None,1831.0011401589982,None,1831.0011401589982,None,1831.0011401589982,None,1831.0011401589982,None,,,,,,,,,,,,,,,,,,,,,,,,,,,,,,,,,,,,,,,,,,,,001,49,2020_Jan_30_1506,spring_faces,3.1.5,59.883314008501124,
condition files/Stage1_2.xlsx,,T1,B2,m,"['c', 'm']","['Clue', 'Monopoly']","[-0.15, 0.5]","[0.15, 0.5]",1,1,,,,,,,,,0,7,7,7,0,6,6,2,,,,,,,,,,,,,,,,,,,,,,,,,,,,,,,,,,,,,,,,,,,,,,,,,,,,,,,1832.968154815997,None,1832.968154815997,None,1832.968154815997,None,m,1,1.5761912850030058,1834.5186603859984,None,1834.5186603859984,None,1834.5186603859984,None,1836.153589436999,None,1836.153589436999,None,1836.153589436999,None,1836.153589436999,None,,,,,,,,,,,,,,,,,,,,,,,,,,,,,,,,,,,,,,,,,,,,001,49,2020_Jan_30_1506,spring_faces,3.1.5,59.883314008501124,
condition files/Stage1_2.xlsx,,T4,B4,m,"['c', 'm']","['Clue', 'Monopoly']","[-0.15, 0.5]","[0.15, 0.5]",1,1,,,,,,,,,0,7,7,7,0,7,7,7,,,,,,,,,,,,,,,,,,,,,,,,,,,,,,,,,,,,,,,,,,,,,,,,,,,,,,,1838.1174932549984,None,1838.1174932549984,None,1838.1174932549984,None,m,1,2.2184317790015484,1839.6684467099985,None,1839.6684467099985,None,1839.6684467099985,None,1841.9515914719996,None,1841.9515914719996,None,1841.9515914719996,None,1841.9515914719996,None,,,,,,,,,,,,,,,,,,,,,,,,,,,,,,,,,,,,,,,,,,,,001,49,2020_Jan_30_1506,spring_faces,3.1.5,59.883314008501124,
condition files/Stage1_1.xlsx,,T1,B1,c,"['c', 'm']","['Clue', 'Monopoly']","[-0.15, 0.5]","[0.15, 0.5]",1,1,,,,,,,,,0,8,8,8,0,0,0,0,,,,,,,,,,,,,,,,,,,,,,,,,,,,,,,,,,,,,,,,,,,,,,,,,,,,,,,1843.9345525659992,None,1843.9345525659992,None,1843.9345525659992,None,c,1,0.7707977070022025,1845.4681104109986,None,1845.4681104109986,None,1845.4681104109986,None,1846.3014715369973,None,1846.3014715369973,None,1846.3014715369973,None,1846.3014715369973,None,,,,,,,,,,,,,,,,,,,,,,,,,,,,,,,,,,,,,,,,,,,,001,49,2020_Jan_30_1506,spring_faces,3.1.5,59.883314008501124,
condition files/Stage1_1.xlsx,,T4,B3,m,"['c', 'm']","['Clue', 'Monopoly']","[-0.15, 0.5]","[0.15, 0.5]",1,1,,,,,,,,,0,8,8,8,0,1,1,6,,,,,,,,,,,,,,,,,,,,,,,,,,,,,,,,,,,,,,,,,,,,,,,,,,,,,,,1848.2675217539982,None,1848.2675217539982,None,1848.2675217539982,None,m,1,2.3410650660007377,1849.8019077369972,None,1849.8019077369972,None,1849.8019077369972,None,1852.2042576159984,None,1852.2042576159984,None,1852.2042576159984,None,1852.2042576159984,None,,,,,,,,,,,,,,,,,,,,,,,,,,,,,,,,,,,,,,,,,,,,001,49,2020_Jan_30_1506,spring_faces,3.1.5,59.883314008501124,
condition files/Stage1_1.xlsx,,B3,T3,c,"['c', 'm']","['Clue', 'Monopoly']","[-0.15, 0.5]","[0.15, 0.5]",1,1,,,,,,,,,0,8,8,8,0,2,2,4,,,,,,,,,,,,,,,,,,,,,,,,,,,,,,,,,,,,,,,,,,,,,,,,,,,,,,,1854.1676371359972,None,1854.1676371359972,None,1854.1676371359972,None,c,1,2.1516840730000695,1855.703224730998,None,1855.703224730998,None,1855.703224730998,None,1857.9350351149988,None,1857.9350351149988,None,1857.9350351149988,None,1857.9350351149988,None,,,,,,,,,,,,,,,,,,,,,,,,,,,,,,,,,,,,,,,,,,,,001,49,2020_Jan_30_1506,spring_faces,3.1.5,59.883314008501124,
condition files/Stage1_1.xlsx,,B4,T4,m,"['c', 'm']","['Clue', 'Monopoly']","[-0.15, 0.5]","[0.15, 0.5]",1,1,,,,,,,,,0,8,8,8,0,3,3,7,,,,,,,,,,,,,,,,,,,,,,,,,,,,,,,,,,,,,,,,,,,,,,,,,,,,,,,1859.884797945997,None,1859.884797945997,None,1859.884797945997,None,c,0,2.3883134799980326,1861.4345783149984,None,1861.4345783149984,None,1861.4345783149984,None,1863.9018863279998,None,1863.9018863279998,None,1863.9018863279998,None,1863.9018863279998,None,,,,,,,,,,,,,,,,,,,,,,,,,,,,,,,,,,,,,,,,,,,,001,49,2020_Jan_30_1506,spring_faces,3.1.5,59.883314008501124,
condition files/Stage1_1.xlsx,,T3,B4,c,"['c', 'm']","['Clue', 'Monopoly']","[-0.15, 0.5]","[0.15, 0.5]",1,1,,,,,,,,,0,8,8,8,0,4,4,5,,,,,,,,,,,,,,,,,,,,,,,,,,,,,,,,,,,,,,,,,,,,,,,,,,,,,,,1865.8515153029985,None,1865.8515153029985,None,1865.8515153029985,None,m,0,1.3966941159997077,1867.3861993109967,None,1867.3861993109967,None,1867.3861993109967,None,1868.8375211859966,None,1868.8375211859966,None,1868.8375211859966,None,1868.8375211859966,None,,,,,,,,,,,,,,,,,,,,,,,,,,,,,,,,,,,,,,,,,,,,001,49,2020_Jan_30_1506,spring_faces,3.1.5,59.883314008501124,
condition files/Stage1_1.xlsx,,B1,T2,c,"['c', 'm']","['Clue', 'Monopoly']","[-0.15, 0.5]","[0.15, 0.5]",1,1,,,,,,,,,0,8,8,8,0,5,5,1,,,,,,,,,,,,,,,,,,,,,,,,,,,,,,,,,,,,,,,,,,,,,,,,,,,,,,,1870.8013179869995,None,1870.8013179869995,None,1870.8013179869995,None,c,1,1.0064130920000025,1872.336559092997,None,1872.336559092997,None,1872.336559092997,None,1873.4018172179967,None,1873.4018172179967,None,1873.4018172179967,None,1873.4018172179967,None,,,,,,,,,,,,,,,,,,,,,,,,,,,,,,,,,,,,,,,,,,,,001,49,2020_Jan_30_1506,spring_faces,3.1.5,59.883314008501124,
condition files/Stage1_1.xlsx,,B2,T1,m,"['c', 'm']","['Clue', 'Monopoly']","[-0.15, 0.5]","[0.15, 0.5]",1,1,,,,,,,,,0,8,8,8,0,6,6,2,,,,,,,,,,,,,,,,,,,,,,,,,,,,,,,,,,,,,,,,,,,,,,,,,,,,,,,1875.3682951979972,None,1875.3682951979972,None,1875.3682951979972,None,m,1,2.215718425999512,1876.9031532689987,None,1876.9031532689987,None,1876.9031532689987,None,1879.1846968039972,None,1879.1846968039972,None,1879.1846968039972,None,1879.1846968039972,None,,,,,,,,,,,,,,,,,,,,,,,,,,,,,,,,,,,,,,,,,,,,001,49,2020_Jan_30_1506,spring_faces,3.1.5,59.883314008501124,
condition files/Stage1_1.xlsx,,T2,B2,m,"['c', 'm']","['Clue', 'Monopoly']","[-0.15, 0.5]","[0.15, 0.5]",1,1,,,,,,,,,0,8,8,8,0,7,7,3,,,,,,,,,,,,,,,,,,,,,,,,,,,,,,,,,,,,,,,,,,,,,,,,,,,,,,,1881.151250949999,None,1881.151250949999,None,1881.151250949999,None,m,1,1.136265569999523,1882.6866415799996,None,1882.6866415799996,None,1882.6866415799996,None,1883.8849685539972,None,1883.8849685539972,None,1883.8849685539972,None,1883.8849685539972,None,,,,,,,,,,,,,,,,,,,,,,,,,,,,,,,,,,,,,,,,,,,,001,49,2020_Jan_30_1506,spring_faces,3.1.5,59.883314008501124,
condition files/Stage1_2.xlsx,,B4,T3,c,"['c', 'm']","['Clue', 'Monopoly']","[-0.15, 0.5]","[0.15, 0.5]",1,1,,,,,,,,,0,9,9,9,0,0,0,5,,,,,,,,,,,,,,,,,,,,,,,,,,,,,,,,,,,,,,,,,,,,,,,,,,,,,,,1885.8679308119972,None,1885.8679308119972,None,1885.8679308119972,None,m,0,1.9072570300013467,1887.4037004699967,None,1887.4037004699967,None,1887.4037004699967,None,1889.3846666919999,None,1889.3846666919999,None,1889.3846666919999,None,1889.3846666919999,None,,,,,,,,,,,,,,,,,,,,,,,,,,,,,,,,,,,,,,,,,,,,001,49,2020_Jan_30_1506,spring_faces,3.1.5,59.883314008501124,
condition files/Stage1_2.xlsx,,T1,B2,m,"['c', 'm']","['Clue', 'Monopoly']","[-0.15, 0.5]","[0.15, 0.5]",1,1,,,,,,,,,0,9,9,9,0,1,1,2,,,,,,,,,,,,,,,,,,,,,,,,,,,,,,,,,,,,,,,,,,,,,,,,,,,,,,,1891.3346675479988,None,1891.3346675479988,None,1891.3346675479988,None,m,1,1.0813672120020783,1892.8695219269975,None,1892.8695219269975,None,1892.8695219269975,None,1894.0034067109991,None,1894.0034067109991,None,1894.0034067109991,None,1894.0034067109991,None,,,,,,,,,,,,,,,,,,,,,,,,,,,,,,,,,,,,,,,,,,,,001,49,2020_Jan_30_1506,spring_faces,3.1.5,59.883314008501124,
condition files/Stage1_2.xlsx,,B1,T1,c,"['c', 'm']","['Clue', 'Monopoly']","[-0.15, 0.5]","[0.15, 0.5]",1,1,,,,,,,,,0,9,9,9,0,2,2,0,,,,,,,,,,,,,,,,,,,,,,,,,,,,,,,,,,,,,,,,,,,,,,,,,,,,,,,1895.9682310929966,None,1895.9682310929966,None,1895.9682310929966,None,c,1,0.8971818959980737,1897.5017114759976,None,1897.5017114759976,None,1897.5017114759976,None,1898.4686309089993,None,1898.4686309089993,None,1898.4686309089993,None,1898.4686309089993,None,,,,,,,,,,,,,,,,,,,,,,,,,,,,,,,,,,,,,,,,,,,,001,49,2020_Jan_30_1506,spring_faces,3.1.5,59.883314008501124,
condition files/Stage1_2.xlsx,,T2,B1,c,"['c', 'm']","['Clue', 'Monopoly']","[-0.15, 0.5]","[0.15, 0.5]",1,1,,,,,,,,,0,9,9,9,0,3,3,1,,,,,,,,,,,,,,,,,,,,,,,,,,,,,,,,,,,,,,,,,,,,,,,,,,,,,,,1900.4183413719984,None,1900.4183413719984,None,1900.4183413719984,None,c,1,1.15064159600297,1901.9681983559967,None,1901.9681983559967,None,1901.9681983559967,None,1903.1851345469986,None,1903.1851345469986,None,1903.1851345469986,None,1903.1851345469986,None,,,,,,,,,,,,,,,,,,,,,,,,,,,,,,,,,,,,,,,,,,,,001,49,2020_Jan_30_1506,spring_faces,3.1.5,59.883314008501124,
condition files/Stage1_2.xlsx,,T3,B3,c,"['c', 'm']","['Clue', 'Monopoly']","[-0.15, 0.5]","[0.15, 0.5]",1,1,,,,,,,,,0,9,9,9,0,4,4,4,,,,,,,,,,,,,,,,,,,,,,,,,,,,,,,,,,,,,,,,,,,,,,,,,,,,,,,1905.1519410989968,None,1905.1519410989968,None,1905.1519410989968,None,c,1,3.7920513520002714,1906.6869212499987,None,1906.6869212499987,None,1906.6869212499987,None,1910.535492867999,None,1910.535492867999,None,1910.535492867999,None,1910.535492867999,None,,,,,,,,,,,,,,,,,,,,,,,,,,,,,,,,,,,,,,,,,,,,001,49,2020_Jan_30_1506,spring_faces,3.1.5,59.883314008501124,
condition files/Stage1_2.xlsx,,T4,B4,m,"['c', 'm']","['Clue', 'Monopoly']","[-0.15, 0.5]","[0.15, 0.5]",1,1,,,,,,,,,0,9,9,9,0,5,5,7,,,,,,,,,,,,,,,,,,,,,,,,,,,,,,,,,,,,,,,,,,,,,,,,,,,,,,,1912.5017514389983,None,1912.5017514389983,None,1912.5017514389983,None,c,0,2.954804331999185,1914.036095042,None,1914.036095042,None,1914.036095042,None,1917.0545165799995,None,1917.0545165799995,None,1917.0545165799995,None,1917.0545165799995,None,,,,,,,,,,,,,,,,,,,,,,,,,,,,,,,,,,,,,,,,,,,,001,49,2020_Jan_30_1506,spring_faces,3.1.5,59.883314008501124,
condition files/Stage1_2.xlsx,,B2,T2,m,"['c', 'm']","['Clue', 'Monopoly']","[-0.15, 0.5]","[0.15, 0.5]",1,1,,,,,,,,,0,9,9,9,0,6,6,3,,,,,,,,,,,,,,,,,,,,,,,,,,,,,,,,,,,,,,,,,,,,,,,,,,,,,,,1919.017892492997,None,1919.017892492997,None,1919.017892492997,None,m,1,1.7013395169997239,1920.5535694949976,None,1920.5535694949976,None,1920.5535694949976,None,1922.318103914,None,1922.318103914,None,1922.318103914,None,1922.318103914,None,,,,,,,,,,,,,,,,,,,,,,,,,,,,,,,,,,,,,,,,,,,,001,49,2020_Jan_30_1506,spring_faces,3.1.5,59.883314008501124,
condition files/Stage1_2.xlsx,,B3,T4,m,"['c', 'm']","['Clue', 'Monopoly']","[-0.15, 0.5]","[0.15, 0.5]",1,1,,,,,,,,,0,9,9,9,0,7,7,6,,,,,,,,,,,,,,,,,,,,,,,,,,,,,,,,,,,,,,,,,,,,,,,,,,,,,,,1924.2847650259973,None,1924.2847650259973,None,1924.2847650259973,None,c,0,2.4185235320001084,1925.8203768469975,None,1925.8203768469975,None,1925.8203768469975,None,1928.3013516939973,None,1928.3013516939973,None,1928.3013516939973,None,1928.3013516939973,None,,,,,,,,,,,,,,,,,,,,,,,,,,,,,,,,,,,,,,,,,,,,001,49,2020_Jan_30_1506,spring_faces,3.1.5,59.883314008501124,
condition files/Stage1_1.xlsx,,B2,T1,m,"['c', 'm']","['Clue', 'Monopoly']","[-0.15, 0.5]","[0.15, 0.5]",1,1,,,,,,,,,0,10,10,10,0,0,0,2,,,,,,,,,,,,,,,,,,,,,,,,,,,,,,,,,,,,,,,,,,,,,,,,,,,,,,,1930.2851292039995,None,1930.2851292039995,None,1930.2851292039995,None,m,1,0.8674819939988083,1931.8193713419969,None,1931.8193713419969,None,1931.8193713419969,None,1932.7513541989974,None,1932.7513541989974,None,1932.7513541989974,None,1932.7513541989974,None,,,,,,,,,,,,,,,,,,,,,,,,,,,,,,,,,,,,,,,,,,,,001,49,2020_Jan_30_1506,spring_faces,3.1.5,59.883314008501124,
condition files/Stage1_1.xlsx,,B4,T4,m,"['c', 'm']","['Clue', 'Monopoly']","[-0.15, 0.5]","[0.15, 0.5]",1,1,,,,,,,,,0,10,10,10,0,1,1,7,,,,,,,,,,,,,,,,,,,,,,,,,,,,,,,,,,,,,,,,,,,,,,,,,,,,,,,1934.7182917499995,None,1934.7182917499995,None,1934.7182917499995,None,m,1,3.4750786340009654,1936.2518890369975,None,1936.2518890369975,None,1936.2518890369975,None,1939.7848199659966,None,1939.7848199659966,None,1939.7848199659966,None,1939.7848199659966,None,,,,,,,,,,,,,,,,,,,,,,,,,,,,,,,,,,,,,,,,,,,,001,49,2020_Jan_30_1506,spring_faces,3.1.5,59.883314008501124,
condition files/Stage1_1.xlsx,,T1,B1,c,"['c', 'm']","['Clue', 'Monopoly']","[-0.15, 0.5]","[0.15, 0.5]",1,1,,,,,,,,,0,10,10,10,0,2,2,0,,,,,,,,,,,,,,,,,,,,,,,,,,,,,,,,,,,,,,,,,,,,,,,,,,,,,,,1941.7516295539972,None,1941.7516295539972,None,1941.7516295539972,None,c,1,1.1609440749998612,1943.285974852999,None,1943.285974852999,None,1943.285974852999,None,1944.5183795169978,None,1944.5183795169978,None,1944.5183795169978,None,1944.5183795169978,None,,,,,,,,,,,,,,,,,,,,,,,,,,,,,,,,,,,,,,,,,,,,001,49,2020_Jan_30_1506,spring_faces,3.1.5,59.883314008501124,
condition files/Stage1_1.xlsx,,T4,B3,m,"['c', 'm']","['Clue', 'Monopoly']","[-0.15, 0.5]","[0.15, 0.5]",1,1,,,,,,,,,0,10,10,10,0,3,3,6,,,,,,,,,,,,,,,,,,,,,,,,,,,,,,,,,,,,,,,,,,,,,,,,,,,,,,,1946.4678245939976,None,1946.4678245939976,None,1946.4678245939976,None,c,0,2.1404808089973812,1948.0184670969975,None,1948.0184670969975,None,1948.0184670969975,None,1950.234331612999,None,1950.234331612999,None,1950.234331612999,None,1950.234331612999,None,,,,,,,,,,,,,,,,,,,,,,,,,,,,,,,,,,,,,,,,,,,,001,49,2020_Jan_30_1506,spring_faces,3.1.5,59.883314008501124,
condition files/Stage1_1.xlsx,,T2,B2,m,"['c', 'm']","['Clue', 'Monopoly']","[-0.15, 0.5]","[0.15, 0.5]",1,1,,,,,,,,,0,10,10,10,0,4,4,3,,,,,,,,,,,,,,,,,,,,,,,,,,,,,,,,,,,,,,,,,,,,,,,,,,,,,,,1952.1844102919968,None,1952.1844102919968,None,1952.1844102919968,None,m,1,0.8558440819979296,1953.7351091419987,None,1953.7351091419987,None,1953.7351091419987,None,1954.6514146789996,None,1954.6514146789996,None,1954.6514146789996,None,1954.6514146789996,None,,,,,,,,,,,,,,,,,,,,,,,,,,,,,,,,,,,,,,,,,,,,001,49,2020_Jan_30_1506,spring_faces,3.1.5,59.883314008501124,
condition files/Stage1_1.xlsx,,T3,B4,c,"['c', 'm']","['Clue', 'Monopoly']","[-0.15, 0.5]","[0.15, 0.5]",1,1,,,,,,,,,0,10,10,10,0,5,5,5,,,,,,,,,,,,,,,,,,,,,,,,,,,,,,,,,,,,,,,,,,,,,,,,,,,,,,,1956.6183767949988,None,1956.6183767949988,None,1956.6183767949988,None,c,1,1.638961910000944,1958.1679205709988,None,1958.1679205709988,None,1958.1679205709988,None,1959.869318776,None,1959.869318776,None,1959.869318776,None,1959.869318776,None,,,,,,,,,,,,,,,,,,,,,,,,,,,,,,,,,,,,,,,,,,,,001,49,2020_Jan_30_1506,spring_faces,3.1.5,59.883314008501124,
condition files/Stage1_1.xlsx,,B1,T2,c,"['c', 'm']","['Clue', 'Monopoly']","[-0.15, 0.5]","[0.15, 0.5]",1,1,,,,,,,,,0,10,10,10,0,6,6,1,,,,,,,,,,,,,,,,,,,,,,,,,,,,,,,,,,,,,,,,,,,,,,,,,,,,,,,1961.835250799999,None,1961.835250799999,None,1961.835250799999,None,c,1,1.1260875669977395,1963.3687966269972,None,1963.3687966269972,None,1963.3687966269972,None,1964.5510400059975,None,1964.5510400059975,None,1964.5510400059975,None,1964.5510400059975,None,,,,,,,,,,,,,,,,,,,,,,,,,,,,,,,,,,,,,,,,,,,,001,49,2020_Jan_30_1506,spring_faces,3.1.5,59.883314008501124,
condition files/Stage1_1.xlsx,,B3,T3,c,"['c', 'm']","['Clue', 'Monopoly']","[-0.15, 0.5]","[0.15, 0.5]",1,1,,,,,,,,,0,10,10,10,0,7,7,4,,,,,,,,,,,,,,,,,,,,,,,,,,,,,,,,,,,,,,,,,,,,,,,,,,,,,,,1966.5183022889978,None,1966.5183022889978,None,1966.5183022889978,None,c,1,4.714316513000085,1968.0685670999992,None,1968.0685670999992,None,1968.0685670999992,None,1972.8350771219993,None,1972.8350771219993,None,1972.8350771219993,None,1972.8350771219993,None,,,,,,,,,,,,,,,,,,,,,,,,,,,,,,,,,,,,,,,,,,,,001,49,2020_Jan_30_1506,spring_faces,3.1.5,59.883314008501124,
condition files/Stage1_2.xlsx,,T4,B4,m,"['c', 'm']","['Clue', 'Monopoly']","[-0.15, 0.5]","[0.15, 0.5]",1,1,,,,,,,,,0,11,11,11,0,0,0,7,,,,,,,,,,,,,,,,,,,,,,,,,,,,,,,,,,,,,,,,,,,,,,,,,,,,,,,1974.818444392,None,1974.818444392,None,1974.818444392,None,m,1,3.326238129000558,1976.3527316859982,None,1976.3527316859982,None,1976.3527316859982,None,1979.7515816969972,None,1979.7515816969972,None,1979.7515816969972,None,1979.7515816969972,None,,,,,,,,,,,,,,,,,,,,,,,,,,,,,,,,,,,,,,,,,,,,001,49,2020_Jan_30_1506,spring_faces,3.1.5,59.883314008501124,
condition files/Stage1_2.xlsx,,B2,T2,m,"['c', 'm']","['Clue', 'Monopoly']","[-0.15, 0.5]","[0.15, 0.5]",1,1,,,,,,,,,0,11,11,11,0,1,1,3,,,,,,,,,,,,,,,,,,,,,,,,,,,,,,,,,,,,,,,,,,,,,,,,,,,,,,,1981.7018313329972,None,1981.7018313329972,None,1981.7018313329972,None,m,1,0.7941721769966534,1983.236733542999,None,1983.236733542999,None,1983.236733542999,None,1984.0852984959965,None,1984.0852984959965,None,1984.0852984959965,None,1984.0852984959965,None,,,,,,,,,,,,,,,,,,,,,,,,,,,,,,,,,,,,,,,,,,,,001,49,2020_Jan_30_1506,spring_faces,3.1.5,59.883314008501124,
condition files/Stage1_2.xlsx,,T2,B1,c,"['c', 'm']","['Clue', 'Monopoly']","[-0.15, 0.5]","[0.15, 0.5]",1,1,,,,,,,,,0,11,11,11,0,2,2,1,,,,,,,,,,,,,,,,,,,,,,,,,,,,,,,,,,,,,,,,,,,,,,,,,,,,,,,1986.0516020729992,None,1986.0516020729992,None,1986.0516020729992,None,c,1,0.9556768110014673,1987.587288464998,None,1987.587288464998,None,1987.587288464998,None,1988.6185900349992,None,1988.6185900349992,None,1988.6185900349992,None,1988.6185900349992,None,,,,,,,,,,,,,,,,,,,,,,,,,,,,,,,,,,,,,,,,,,,,001,49,2020_Jan_30_1506,spring_faces,3.1.5,59.883314008501124,
condition files/Stage1_2.xlsx,,B1,T1,c,"['c', 'm']","['Clue', 'Monopoly']","[-0.15, 0.5]","[0.15, 0.5]",1,1,,,,,,,,,0,11,11,11,0,3,3,0,,,,,,,,,,,,,,,,,,,,,,,,,,,,,,,,,,,,,,,,,,,,,,,,,,,,,,,1990.568269477997,None,1990.568269477997,None,1990.568269477997,None,c,1,0.886879145000421,1992.104034871998,None,1992.104034871998,None,1992.104034871998,None,1993.051933937997,None,1993.051933937997,None,1993.051933937997,None,1993.051933937997,None,,,,,,,,,,,,,,,,,,,,,,,,,,,,,,,,,,,,,,,,,,,,001,49,2020_Jan_30_1506,spring_faces,3.1.5,59.883314008501124,
condition files/Stage1_2.xlsx,,B3,T4,m,"['c', 'm']","['Clue', 'Monopoly']","[-0.15, 0.5]","[0.15, 0.5]",1,1,,,,,,,,,0,11,11,11,0,4,4,6,,,,,,,,,,,,,,,,,,,,,,,,,,,,,,,,,,,,,,,,,,,,,,,,,,,,,,,1995.0181291899971,None,1995.0181291899971,None,1995.0181291899971,None,c,0,1.6864825079974253,1996.5524254019983,None,1996.5524254019983,None,1996.5524254019983,None,1998.3184100549988,None,1998.3184100549988,None,1998.3184100549988,None,1998.3184100549988,None,,,,,,,,,,,,,,,,,,,,,,,,,,,,,,,,,,,,,,,,,,,,001,49,2020_Jan_30_1506,spring_faces,3.1.5,59.883314008501124,
condition files/Stage1_2.xlsx,,B4,T3,c,"['c', 'm']","['Clue', 'Monopoly']","[-0.15, 0.5]","[0.15, 0.5]",1,1,,,,,,,,,0,11,11,11,0,5,5,5,,,,,,,,,,,,,,,,,,,,,,,,,,,,,,,,,,,,,,,,,,,,,,,,,,,,,,,2000.2680638819984,None,2000.2680638819984,None,2000.2680638819984,None,m,0,1.7492293710020022,2001.8016662579976,None,2001.8016662579976,None,2001.8016662579976,None,2003.618107866998,None,2003.618107866998,None,2003.618107866998,None,2003.618107866998,None,,,,,,,,,,,,,,,,,,,,,,,,,,,,,,,,,,,,,,,,,,,,001,49,2020_Jan_30_1506,spring_faces,3.1.5,59.883314008501124,
condition files/Stage1_2.xlsx,,T3,B3,c,"['c', 'm']","['Clue', 'Monopoly']","[-0.15, 0.5]","[0.15, 0.5]",1,1,,,,,,,,,0,11,11,11,0,6,6,4,,,,,,,,,,,,,,,,,,,,,,,,,,,,,,,,,,,,,,,,,,,,,,,,,,,,,,,2005.5679571329965,None,2005.5679571329965,None,2005.5679571329965,None,c,1,1.5052898950016242,2007.1016212529976,None,2007.1016212529976,None,2007.1016212529976,None,2008.6684264359974,None,2008.6684264359974,None,2008.6684264359974,None,2008.6684264359974,None,,,,,,,,,,,,,,,,,,,,,,,,,,,,,,,,,,,,,,,,,,,,001,49,2020_Jan_30_1506,spring_faces,3.1.5,59.883314008501124,
condition files/Stage1_2.xlsx,,T1,B2,m,"['c', 'm']","['Clue', 'Monopoly']","[-0.15, 0.5]","[0.15, 0.5]",1,1,,,,,,,,,0,11,11,11,0,7,7,2,,,,,,,,,,,,,,,,,,,,,,,,,,,,,,,,,,,,,,,,,,,,,,,,,,,,,,,2010.634810304,None,2010.634810304,None,2010.634810304,None,m,1,1.2224261859992112,2012.168532890999,None,2012.168532890999,None,2012.168532890999,None,2013.4521904489993,None,2013.4521904489993,None,2013.4521904489993,None,2013.4521904489993,None,,,,,,,,,,,,,,,,,,,,,,,,,,,,,,,,,,,,,,,,,,,,001,49,2020_Jan_30_1506,spring_faces,3.1.5,59.883314008501124,
,,,,,,,,,,,,,,,,,,,,,,,,,,,,,,,,,,,,,,,,,,,,,,,,,,,,,,,,,,,,,,,,,,,,,,,,,,,,,,,,,,,,,,,,,,,,,,,,,,,,,,,,,,,,,,,,2015.4350734759973,None,space,11.164041453997925,2020.4348493699981,None,,,,,,,,,,,,,,,,,,,,,,,,,,,,,,001,49,2020_Jan_30_1506,spring_faces,3.1.5,59.883314008501124,
condition files/Stage2_1.xlsx,,T3,B3,s,"['s', 'r']","['Stratego', 'Risk']","[-0.15, 0.5]","[0.15, 0.5]",1,1,,,,,,,,,,,,,,,,,0,0,0,0,0,0,0,4,,,,,,,,,,,,,,,,,,,,,,,,,,,,,,,,,,,,,,,,,,,,,,,2031.6510815919974,None,2031.6510815919974,None,2031.6510815919974,None,s,1,3.261934778998693,2033.1849571139974,None,2033.1849571139974,None,2033.1849571139974,None,2036.5181909019993,None,2036.5181909019993,None,2036.5181909019993,None,2036.5181909019993,None,,,,,,,,,,,,,,,2020.4348493699981,None,,,,,,,,,,,,,,,,,,,,,,,,,,,,001,49,2020_Jan_30_1506,spring_faces,3.1.5,59.883314008501124,
condition files/Stage2_1.xlsx,,T5,B5,s,"['s', 'r']","['Stratego', 'Risk']","[-0.15, 0.5]","[0.15, 0.5]",1,1,,,,,,,,,,,,,,,,,0,0,0,0,0,1,1,0,,,,,,,,,,,,,,,,,,,,,,,,,,,,,,,,,,,,,,,,,,,,,,,2038.4681457799998,None,2038.4681457799998,None,2038.4681457799998,None,r,0,1.6136932959998376,2040.0013670199987,None,2040.0013670199987,None,2040.0013670199987,None,2041.6685486179995,None,2041.6685486179995,None,2041.6685486179995,None,2041.6685486179995,None,,,,,,,,,,,,,,,,,,,,,,,,,,,,,,,,,,,,,,,,,,,,001,49,2020_Jan_30_1506,spring_faces,3.1.5,59.883314008501124,
condition files/Stage2_1.xlsx,,B6,T6,r,"['s', 'r']","['Stratego', 'Risk']","[-0.15, 0.5]","[0.15, 0.5]",1,1,,,,,,,,,,,,,,,,,0,0,0,0,0,2,2,1,,,,,,,,,,,,,,,,,,,,,,,,,,,,,,,,,,,,,,,,,,,,,,,2043.634639349999,None,2043.634639349999,None,2043.634639349999,None,r,1,0.5892306640016614,2045.2176499639972,None,2045.2176499639972,None,2045.2176499639972,None,2045.8701954979988,None,2045.8701954979988,None,2045.8701954979988,None,2045.8701954979988,None,,,,,,,,,,,,,,,,,,,,,,,,,,,,,,,,,,,,,,,,,,,,001,49,2020_Jan_30_1506,spring_faces,3.1.5,59.883314008501124,
condition files/Stage2_1.xlsx,,B4,T4,r,"['s', 'r']","['Stratego', 'Risk']","[-0.15, 0.5]","[0.15, 0.5]",1,1,,,,,,,,,,,,,,,,,0,0,0,0,0,3,3,5,,,,,,,,,,,,,,,,,,,,,,,,,,,,,,,,,,,,,,,,,,,,,,,2047.8347158119977,None,2047.8347158119977,None,2047.8347158119977,None,r,1,1.492145290998451,2049.370730282997,None,2049.370730282997,None,2049.370730282997,None,2050.918246705998,None,2050.918246705998,None,2050.918246705998,None,2050.918246705998,None,,,,,,,,,,,,,,,,,,,,,,,,,,,,,,,,,,,,,,,,,,,,001,49,2020_Jan_30_1506,spring_faces,3.1.5,59.883314008501124,
condition files/Stage2_1.xlsx,,T1,B1,s,"['s', 'r']","['Stratego', 'Risk']","[-0.15, 0.5]","[0.15, 0.5]",1,1,,,,,,,,,,,,,,,,,0,0,0,0,0,4,4,2,,,,,,,,,,,,,,,,,,,,,,,,,,,,,,,,,,,,,,,,,,,,,,,2052.8850999519964,None,2052.8850999519964,None,2052.8850999519964,None,s,1,1.7876487460016506,2054.419266220997,None,2054.419266220997,None,2054.419266220997,None,2056.284753412998,None,2056.284753412998,None,2056.284753412998,None,2056.284753412998,None,,,,,,,,,,,,,,,,,,,,,,,,,,,,,,,,,,,,,,,,,,,,001,49,2020_Jan_30_1506,spring_faces,3.1.5,59.883314008501124,
condition files/Stage2_1.xlsx,,B2,T2,r,"['s', 'r']","['Stratego', 'Risk']","[-0.15, 0.5]","[0.15, 0.5]",1,1,,,,,,,,,,,,,,,,,0,0,0,0,0,5,5,3,,,,,,,,,,,,,,,,,,,,,,,,,,,,,,,,,,,,,,,,,,,,,,,2058.234741835997,None,2058.234741835997,None,2058.234741835997,None,r,1,1.844815747001121,2059.7702533719967,None,2059.7702533719967,None,2059.7702533719967,None,2061.684907871997,None,2061.684907871997,None,2061.684907871997,None,2061.684907871997,None,,,,,,,,,,,,,,,,,,,,,,,,,,,,,,,,,,,,,,,,,,,,001,49,2020_Jan_30_1506,spring_faces,3.1.5,59.883314008501124,
condition files/Stage2_2.xlsx,,B5,T5,s,"['s', 'r']","['Stratego', 'Risk']","[-0.15, 0.5]","[0.15, 0.5]",1,1,,,,,,,,,,,,,,,,,0,1,1,1,0,0,0,0,,,,,,,,,,,,,,,,,,,,,,,,,,,,,,,,,,,,,,,,,,,,,,,2063.6511945369966,None,2063.6511945369966,None,2063.6511945369966,None,s,1,1.8059170640008233,2065.185045662998,None,2065.185045662998,None,2065.185045662998,None,2067.0683242289997,None,2067.0683242289997,None,2067.0683242289997,None,2067.0683242289997,None,,,,,,,,,,,,,,,,,,,,,,,,,,,,,,,,,,,,,,,,,,,,001,49,2020_Jan_30_1506,spring_faces,3.1.5,59.883314008501124,
condition files/Stage2_2.xlsx,,T6,B6,r,"['s', 'r']","['Stratego', 'Risk']","[-0.15, 0.5]","[0.15, 0.5]",1,1,,,,,,,,,,,,,,,,,0,1,1,1,0,1,1,1,,,,,,,,,,,,,,,,,,,,,,,,,,,,,,,,,,,,,,,,,,,,,,,2069.0182798489986,None,2069.0182798489986,None,2069.0182798489986,None,s,0,2.4377934399999504,2070.553118200998,None,2070.553118200998,None,2070.553118200998,None,2073.0533878609967,None,2073.0533878609967,None,2073.0533878609967,None,2073.0533878609967,None,,,,,,,,,,,,,,,,,,,,,,,,,,,,,,,,,,,,,,,,,,,,001,49,2020_Jan_30_1506,spring_faces,3.1.5,59.883314008501124,
condition files/Stage2_2.xlsx,,B1,T1,s,"['s', 'r']","['Stratego', 'Risk']","[-0.15, 0.5]","[0.15, 0.5]",1,1,,,,,,,,,,,,,,,,,0,1,1,1,0,2,2,2,,,,,,,,,,,,,,,,,,,,,,,,,,,,,,,,,,,,,,,,,,,,,,,2075.0182359679966,None,2075.0182359679966,None,2075.0182359679966,None,s,1,2.9350299049983732,2076.5518055099965,None,2076.5518055099965,None,2076.5518055099965,None,2079.553879113999,None,2079.553879113999,None,2079.553879113999,None,2079.553879113999,None,,,,,,,,,,,,,,,,,,,,,,,,,,,,,,,,,,,,,,,,,,,,001,49,2020_Jan_30_1506,spring_faces,3.1.5,59.883314008501124,
condition files/Stage2_2.xlsx,,T4,B4,r,"['s', 'r']","['Stratego', 'Risk']","[-0.15, 0.5]","[0.15, 0.5]",1,1,,,,,,,,,,,,,,,,,0,1,1,1,0,3,3,5,,,,,,,,,,,,,,,,,,,,,,,,,,,,,,,,,,,,,,,,,,,,,,,2081.517628354999,None,2081.517628354999,None,2081.517628354999,None,r,1,1.7303859790008573,2083.068492205999,None,2083.068492205999,None,2083.068492205999,None,2084.8687363849967,None,2084.8687363849967,None,2084.8687363849967,None,2084.8687363849967,None,,,,,,,,,,,,,,,,,,,,,,,,,,,,,,,,,,,,,,,,,,,,001,49,2020_Jan_30_1506,spring_faces,3.1.5,59.883314008501124,
condition files/Stage2_2.xlsx,,B3,T3,s,"['s', 'r']","['Stratego', 'Risk']","[-0.15, 0.5]","[0.15, 0.5]",1,1,,,,,,,,,,,,,,,,,0,1,1,1,0,4,4,4,,,,,,,,,,,,,,,,,,,,,,,,,,,,,,,,,,,,,,,,,,,,,,,2086.8183110149985,None,2086.8183110149985,None,2086.8183110149985,None,r,0,2.5892657929980487,2088.353703904999,None,2088.353703904999,None,2088.353703904999,None,2091.0178901319996,None,2091.0178901319996,None,2091.0178901319996,None,2091.0178901319996,None,,,,,,,,,,,,,,,,,,,,,,,,,,,,,,,,,,,,,,,,,,,,001,49,2020_Jan_30_1506,spring_faces,3.1.5,59.883314008501124,
condition files/Stage2_2.xlsx,,T2,B2,r,"['s', 'r']","['Stratego', 'Risk']","[-0.15, 0.5]","[0.15, 0.5]",1,1,,,,,,,,,,,,,,,,,0,1,1,1,0,5,5,3,,,,,,,,,,,,,,,,,,,,,,,,,,,,,,,,,,,,,,,,,,,,,,,2092.9683777539976,None,2092.9683777539976,None,2092.9683777539976,None,s,0,2.9526918070005195,2094.5181973379986,None,2094.5181973379986,None,2094.5181973379986,None,2097.551854944999,None,2097.551854944999,None,2097.551854944999,None,2097.551854944999,None,,,,,,,,,,,,,,,,,,,,,,,,,,,,,,,,,,,,,,,,,,,,001,49,2020_Jan_30_1506,spring_faces,3.1.5,59.883314008501124,
condition files/Stage2_1.xlsx,,T1,B1,s,"['s', 'r']","['Stratego', 'Risk']","[-0.15, 0.5]","[0.15, 0.5]",1,1,,,,,,,,,,,,,,,,,0,2,2,2,0,0,0,2,,,,,,,,,,,,,,,,,,,,,,,,,,,,,,,,,,,,,,,,,,,,,,,2099.5185103759977,None,2099.5185103759977,None,2099.5185103759977,None,s,1,1.3943367740030226,2101.0685575809985,None,2101.0685575809985,None,2101.0685575809985,None,2102.534915299999,None,2102.534915299999,None,2102.534915299999,None,2102.534915299999,None,,,,,,,,,,,,,,,,,,,,,,,,,,,,,,,,,,,,,,,,,,,,001,49,2020_Jan_30_1506,spring_faces,3.1.5,59.883314008501124,
condition files/Stage2_1.xlsx,,B2,T2,r,"['s', 'r']","['Stratego', 'Risk']","[-0.15, 0.5]","[0.15, 0.5]",1,1,,,,,,,,,,,,,,,,,0,2,2,2,0,1,1,3,,,,,,,,,,,,,,,,,,,,,,,,,,,,,,,,,,,,,,,,,,,,,,,2104.484935741999,None,2104.484935741999,None,2104.484935741999,None,r,1,1.2907000619998144,2106.020200064999,None,2106.020200064999,None,2106.020200064999,None,2107.3845083299966,None,2107.3845083299966,None,2107.3845083299966,None,2107.3845083299966,None,,,,,,,,,,,,,,,,,,,,,,,,,,,,,,,,,,,,,,,,,,,,001,49,2020_Jan_30_1506,spring_faces,3.1.5,59.883314008501124,
condition files/Stage2_1.xlsx,,B6,T6,r,"['s', 'r']","['Stratego', 'Risk']","[-0.15, 0.5]","[0.15, 0.5]",1,1,,,,,,,,,,,,,,,,,0,2,2,2,0,2,2,1,,,,,,,,,,,,,,,,,,,,,,,,,,,,,,,,,,,,,,,,,,,,,,,2109.3347443679995,None,2109.3347443679995,None,2109.3347443679995,None,r,1,2.074150540000119,2110.8848090349966,None,2110.8848090349966,None,2110.8848090349966,None,2113.0184166189974,None,2113.0184166189974,None,2113.0184166189974,None,2113.0184166189974,None,,,,,,,,,,,,,,,,,,,,,,,,,,,,,,,,,,,,,,,,,,,,001,49,2020_Jan_30_1506,spring_faces,3.1.5,59.883314008501124,
condition files/Stage2_1.xlsx,,B4,T4,r,"['s', 'r']","['Stratego', 'Risk']","[-0.15, 0.5]","[0.15, 0.5]",1,1,,,,,,,,,,,,,,,,,0,2,2,2,0,3,3,5,,,,,,,,,,,,,,,,,,,,,,,,,,,,,,,,,,,,,,,,,,,,,,,2114.9849659069987,None,2114.9849659069987,None,2114.9849659069987,None,s,0,2.695931797999947,2116.5349194699993,None,2116.5349194699993,None,2116.5349194699993,None,2119.285998105999,None,2119.285998105999,None,2119.285998105999,None,2119.285998105999,None,,,,,,,,,,,,,,,,,,,,,,,,,,,,,,,,,,,,,,,,,,,,001,49,2020_Jan_30_1506,spring_faces,3.1.5,59.883314008501124,
condition files/Stage2_1.xlsx,,T3,B3,s,"['s', 'r']","['Stratego', 'Risk']","[-0.15, 0.5]","[0.15, 0.5]",1,1,,,,,,,,,,,,,,,,,0,2,2,2,0,4,4,4,,,,,,,,,,,,,,,,,,,,,,,,,,,,,,,,,,,,,,,,,,,,,,,2121.2517499059977,None,2121.2517499059977,None,2121.2517499059977,None,r,0,1.7734116649990028,2122.8015429469997,None,2122.8015429469997,None,2122.8015429469997,None,2124.6370431829964,None,2124.6370431829964,None,2124.6370431829964,None,2124.6370431829964,None,,,,,,,,,,,,,,,,,,,,,,,,,,,,,,,,,,,,,,,,,,,,001,49,2020_Jan_30_1506,spring_faces,3.1.5,59.883314008501124,
condition files/Stage2_1.xlsx,,T5,B5,s,"['s', 'r']","['Stratego', 'Risk']","[-0.15, 0.5]","[0.15, 0.5]",1,1,,,,,,,,,,,,,,,,,0,2,2,2,0,5,5,0,,,,,,,,,,,,,,,,,,,,,,,,,,,,,,,,,,,,,,,,,,,,,,,2126.6019601009975,None,2126.6019601009975,None,2126.6019601009975,None,s,1,1.2070354490024329,2128.135928386997,None,2128.135928386997,None,2128.135928386997,None,2129.401537168,None,2129.401537168,None,2129.401537168,None,2129.401537168,None,,,,,,,,,,,,,,,,,,,,,,,,,,,,,,,,,,,,,,,,,,,,001,49,2020_Jan_30_1506,spring_faces,3.1.5,59.883314008501124,
condition files/Stage2_2.xlsx,,B3,T3,s,"['s', 'r']","['Stratego', 'Risk']","[-0.15, 0.5]","[0.15, 0.5]",1,1,,,,,,,,,,,,,,,,,0,3,3,3,0,0,0,4,,,,,,,,,,,,,,,,,,,,,,,,,,,,,,,,,,,,,,,,,,,,,,,2131.385196692998,None,2131.385196692998,None,2131.385196692998,None,s,1,2.854276389000006,2132.9206993559965,None,2132.9206993559965,None,2132.9206993559965,None,2135.834848380997,None,2135.834848380997,None,2135.834848380997,None,2135.834848380997,None,,,,,,,,,,,,,,,,,,,,,,,,,,,,,,,,,,,,,,,,,,,,001,49,2020_Jan_30_1506,spring_faces,3.1.5,59.883314008501124,
condition files/Stage2_2.xlsx,,B1,T1,s,"['s', 'r']","['Stratego', 'Risk']","[-0.15, 0.5]","[0.15, 0.5]",1,1,,,,,,,,,,,,,,,,,0,3,3,3,0,1,1,2,,,,,,,,,,,,,,,,,,,,,,,,,,,,,,,,,,,,,,,,,,,,,,,2137.8014715379977,None,2137.8014715379977,None,2137.8014715379977,None,s,1,2.103397507999034,2139.3355142599976,None,2139.3355142599976,None,2139.3355142599976,None,2141.502070284998,None,2141.502070284998,None,2141.502070284998,None,2141.502070284998,None,,,,,,,,,,,,,,,,,,,,,,,,,,,,,,,,,,,,,,,,,,,,001,49,2020_Jan_30_1506,spring_faces,3.1.5,59.883314008501124,
condition files/Stage2_2.xlsx,,B5,T5,s,"['s', 'r']","['Stratego', 'Risk']","[-0.15, 0.5]","[0.15, 0.5]",1,1,,,,,,,,,,,,,,,,,0,3,3,3,0,2,2,0,,,,,,,,,,,,,,,,,,,,,,,,,,,,,,,,,,,,,,,,,,,,,,,2143.467505266999,None,2143.467505266999,None,2143.467505266999,None,s,1,1.3010332170015317,2145.017809621997,None,2145.017809621997,None,2145.017809621997,None,2146.3850306649983,None,2146.3850306649983,None,2146.3850306649983,None,2146.3850306649983,None,,,,,,,,,,,,,,,,,,,,,,,,,,,,,,,,,,,,,,,,,,,,001,49,2020_Jan_30_1506,spring_faces,3.1.5,59.883314008501124,
condition files/Stage2_2.xlsx,,T2,B2,r,"['s', 'r']","['Stratego', 'Risk']","[-0.15, 0.5]","[0.15, 0.5]",1,1,,,,,,,,,,,,,,,,,0,3,3,3,0,3,3,3,,,,,,,,,,,,,,,,,,,,,,,,,,,,,,,,,,,,,,,,,,,,,,,2148.351565195997,None,2148.351565195997,None,2148.351565195997,None,r,1,2.703517235997424,2149.8874559939977,None,2149.8874559939977,None,2149.8874559939977,None,2152.6685952499975,None,2152.6685952499975,None,2152.6685952499975,None,2152.6685952499975,None,,,,,,,,,,,,,,,,,,,,,,,,,,,,,,,,,,,,,,,,,,,,001,49,2020_Jan_30_1506,spring_faces,3.1.5,59.883314008501124,
condition files/Stage2_2.xlsx,,T6,B6,r,"['s', 'r']","['Stratego', 'Risk']","[-0.15, 0.5]","[0.15, 0.5]",1,1,,,,,,,,,,,,,,,,,0,3,3,3,0,4,4,1,,,,,,,,,,,,,,,,,,,,,,,,,,,,,,,,,,,,,,,,,,,,,,,2154.618192877999,None,2154.618192877999,None,2154.618192877999,None,r,1,1.6704239760001656,2156.168466072999,None,2156.168466072999,None,2156.168466072999,None,2157.901505283,None,2157.901505283,None,2157.901505283,None,2157.901505283,None,,,,,,,,,,,,,,,,,,,,,,,,,,,,,,,,,,,,,,,,,,,,001,49,2020_Jan_30_1506,spring_faces,3.1.5,59.883314008501124,
condition files/Stage2_2.xlsx,,T4,B4,r,"['s', 'r']","['Stratego', 'Risk']","[-0.15, 0.5]","[0.15, 0.5]",1,1,,,,,,,,,,,,,,,,,0,3,3,3,0,5,5,5,,,,,,,,,,,,,,,,,,,,,,,,,,,,,,,,,,,,,,,,,,,,,,,2159.8680251809965,None,2159.8680251809965,None,2159.8680251809965,None,s,0,2.003377396998985,2161.403521742999,None,2161.403521742999,None,2161.403521742999,None,2163.4681991189973,None,2163.4681991189973,None,2163.4681991189973,None,2163.4681991189973,None,,,,,,,,,,,,,,,,,,,,,,,,,,,,,,,,,,,,,,,,,,,,001,49,2020_Jan_30_1506,spring_faces,3.1.5,59.883314008501124,
condition files/Stage2_1.xlsx,,B2,T2,r,"['s', 'r']","['Stratego', 'Risk']","[-0.15, 0.5]","[0.15, 0.5]",1,1,,,,,,,,,,,,,,,,,0,4,4,4,0,0,0,3,,,,,,,,,,,,,,,,,,,,,,,,,,,,,,,,,,,,,,,,,,,,,,,2165.451278332999,None,2165.451278332999,None,2165.451278332999,None,r,1,2.3886315889976686,2166.986342502998,None,2166.986342502998,None,2166.986342502998,None,2169.434750204997,None,2169.434750204997,None,2169.434750204997,None,2169.434750204997,None,,,,,,,,,,,,,,,,,,,,,,,,,,,,,,,,,,,,,,,,,,,,001,49,2020_Jan_30_1506,spring_faces,3.1.5,59.883314008501124,
