condsFile,subStage,cue1,cue2,correct,responseKeys,responseNames,cue1Position,cue2Position,cue1Opacity,cue2Opacity,stageLoop0.thisRepN,stageLoop0.thisTrialN,stageLoop0.thisN,stageLoop0.thisIndex,blockLoop0.thisRepN,blockLoop0.thisTrialN,blockLoop0.thisN,blockLoop0.thisIndex,stage1Loop.thisRepN,stage1Loop.thisTrialN,stage1Loop.thisN,stage1Loop.thisIndex,blockLoop1.thisRepN,blockLoop1.thisTrialN,blockLoop1.thisN,blockLoop1.thisIndex,stage2Loop.thisRepN,stage2Loop.thisTrialN,stage2Loop.thisN,stage2Loop.thisIndex,blockLoop2.thisRepN,blockLoop2.thisTrialN,blockLoop2.thisN,blockLoop2.thisIndex,testLoop.thisRepN,testLoop.thisTrialN,testLoop.thisN,testLoop.thisIndex,blockLoopTest.thisRepN,blockLoopTest.thisTrialN,blockLoopTest.thisN,blockLoopTest.thisIndex,cuePics,id_instr_text.started,id_instr_text.stopped,space_to_continue_2.started,space_to_continue_2.stopped,end_instructions_resp_3.keys,end_instructions_resp_3.rt,end_instructions_resp_3.started,end_instructions_resp_3.stopped,id_input_instr.started,id_input_instr.stopped,id_input_rect.started,id_input_rect.stopped,id_input_resp.keys,id_input_resp.rt,id_input_resp.started,id_input_resp.stopped,sonaID,id_input_text.started,id_input_text.stopped,final_text.started,final_text.stopped,instructions.started,instructions.stopped,end_instructions_resp.keys,end_instructions_resp.rt,end_instructions_resp.started,end_instructions_resp.stopped,space_to_continue.started,space_to_continue.stopped,instructions_stage0.started,instructions_stage0.stopped,end_instructions_resp_stage0.keys,end_instructions_resp_stage0.rt,end_instructions_resp_stage0.started,end_instructions_resp_stage0.stopped,space_to_continue_stage0.started,space_to_continue_stage0.stopped,text.started,text.stopped,resp_text1.started,resp_text1.stopped,resp_text2.started,resp_text2.stopped,trial_resp.keys,trial_resp.corr,trial_resp.rt,trial_resp.started,trial_resp.stopped,cue1Image.started,cue1Image.stopped,cue2Image.started,cue2Image.stopped,cue1Image_fb.started,cue1Image_fb.stopped,cue2Image_fb.started,cue2Image_fb.stopped,fb_text_answer.started,fb_text_answer.stopped,feedback_image.started,feedback_image.stopped,instructions_stage1.started,instructions_stage1.stopped,end_instructions_resp_stage1.keys,end_instructions_resp_stage1.rt,end_instructions_resp_stage1.started,end_instructions_resp_stage1.stopped,space_to_continue_stage1.started,space_to_continue_stage1.stopped,instructions_2.started,instructions_2.stopped,end_instructions_resp_2.keys,end_instructions_resp_2.rt,end_instructions_resp_2.started,end_instructions_resp_2.stopped,press_space_to_continue_stage2.started,press_space_to_continue_stage2.stopped,instructions_testStage1.started,instructions_testStage1.stopped,end_instructions_resp_test1.keys,end_instructions_resp_test1.rt,end_instructions_resp_test1.started,end_instructions_resp_test1.stopped,press_space_to_continue_test1.started,press_space_to_continue_test1.stopped,cue1Image_testChoice.started,cue1Image_testChoice.stopped,cue2Image_testChoice.started,cue2Image_testChoice.stopped,test_resp.keys,test_resp.corr,test_resp.rt,test_resp.started,test_resp.stopped,cue1Image_testConf.started,cue1Image_testConf.stopped,cue2Image_testConf.started,cue2Image_testConf.stopped,conf_reminder.started,conf_reminder.stopped,conf_rating.response,conf_rating.rt,conf_rating.started,conf_rating.stopped,session,participant,date,expName,psychopyVersion,frameRate,
,,,,,,,,,,,,,,,,,,,,,,,,,,,,,,,,,,,,,,,,,,,"{'none': 'pictures/20M_AN_C.png', 'alpha': 'pictures/SHINEd_apple.png', 'beta': 'pictures/SHINEd_melon.png', 'theta': 'pictures/SHINEd_pepper.png', 'phi': 'pictures/SHINEd_pear.png', 'T1': 'pictures/37M_AN_C.png', 'T2': 'pictures/32M_AN_C.png', 'T3': 'pictures/20M_AN_C.png', 'T4': 'pictures/33M_AN_C.png', 'T5': 'pictures/36M_AN_C.png', 'T6': 'pictures/23M_AN_C.png', 'B1': 'pictures/31M_NE_C.png', 'B2': 'pictures/34M_NE_C.png', 'B3': 'pictures/22M_NE_C.png', 'B4': 'pictures/26M_NE_C.png', 'B5': 'pictures/38M_NE_C.png', 'B6': 'pictures/25M_NE_C.png'}",292.5508737910004,None,297.53428844300015,None,space,6.27568603599957,297.53428844300015,None,,,,,,,,,,,,,,,,,,,,,,,,,,,,,,,,,,,,,,,,,,,,,,,,,,,,,,,,,,,,,,,,,,,,,,,,,,,,,,,,,,,,,,,,,,,,,,,,001,4,2020_Jan_28_0956,spring_faces,3.1.5,60.09340522288925,
,,,,,,,,,,,,,,,,,,,,,,,,,,,,,,,,,,,,,,,,,,,,,,,,,,,,304.2013418080005,None,304.2013418080005,None,"['0', '1', '1', '8', 'k', 'e', 'c', 'h', 'e']","[20.760607948000143, 20.88857218999965, 26.10452375800014, 26.424612959000115, 34.05659303199991, 34.264578837000045, 39.832596901000215, 40.04054423300022, 40.28055652300009]",304.2013418080005,None,,,,,,,,,,,,,,,,,,,,,,,,,,,,,,,,,,,,,,,,,,,,,,,,,,,,,,,,,,,,,,,,,,,,,,,,,,,,,,,,,,,,,,,,001,4,2020_Jan_28_0956,spring_faces,3.1.5,60.09340522288925,
,,,,,,,,,,,,,,,,,,,,,,,,,,,,,,,,,,,,,,,,,,,,,,,,,,,,,,,,,,,,0118keche,304.2013418080005,None,304.2013418080005,None,349.5509090020005,None,space,8.539032312000018,354.55093693100025,None,,,,,,,,,,,,,,,,,,,,,,,,,,,,,,,,,,,,,,,,,,,,,,,,,,,,,,,,,,,,,,,,,,,,,,,,,,,,,001,4,2020_Jan_28_0956,spring_faces,3.1.5,60.09340522288925,
,,,,,,,,,,,,,,,,,,,,,,,,,,,,,,,,,,,,,,,,,,,,,,,,,,,,,,,,,,,,,,,,,,,,,,,354.55093693100025,None,363.1340546830006,None,space,9.820225378000032,368.1177088940003,None,,,,,,,,,,,,,,,,,,,,,,,,,,,,,,,,,,,,,,,,,,,,,,,,,,,,,,,,,,,,,,,,,,,,,001,4,2020_Jan_28_0956,spring_faces,3.1.5,60.09340522288925,
condition files/Stage0a.xlsx,0a,alpha,none,h,"['h', 'g']","['Chess', 'Go']","[0, 0.5]","[0, 0]",1,0,0,0,0,0,0,0,0,0,,,,,,,,,,,,,,,,,,,,,,,,,,,,,,,,,,,,,,,,,,,,,,,,,,,,,,,,,,,,,368.1177088940003,None,378.0013965300004,None,378.0013965300004,None,378.0013965300004,None,g,0,1.6173628360002112,379.5845333840007,None,379.5845333840007,None,379.5845333840007,None,381.28468051600066,None,381.28468051600066,None,381.28468051600066,None,381.28468051600066,None,,,,,,,,,,,,,,,,,,,,,,,,,,,,,,,,,,,,,,,,,,,,001,4,2020_Jan_28_0956,spring_faces,3.1.5,60.09340522288925,
condition files/Stage0a.xlsx,0a,beta,none,g,"['h', 'g']","['Chess', 'Go']","[0, 0.5]","[0, 0]",1,0,0,0,0,0,0,1,1,1,,,,,,,,,,,,,,,,,,,,,,,,,,,,,,,,,,,,,,,,,,,,,,,,,,,,,,,,,,,,,,,383.2346549920003,None,383.2346549920003,None,383.2346549920003,None,g,1,1.9051424160006718,384.78479528800017,None,384.78479528800017,None,384.78479528800017,None,386.75065431200073,None,386.75065431200073,None,386.75065431200073,None,386.75065431200073,None,,,,,,,,,,,,,,,,,,,,,,,,,,,,,,,,,,,,,,,,,,,,001,4,2020_Jan_28_0956,spring_faces,3.1.5,60.09340522288925,
condition files/Stage0a.xlsx,0a,alpha,none,h,"['h', 'g']","['Chess', 'Go']","[0, 0.5]","[0, 0]",1,0,0,1,1,1,0,0,0,0,,,,,,,,,,,,,,,,,,,,,,,,,,,,,,,,,,,,,,,,,,,,,,,,,,,,,,,,,,,,,,,388.7346170710007,None,388.7346170710007,None,388.7346170710007,None,h,1,1.0304572410004766,390.2675935920006,None,390.2675935920006,None,390.2675935920006,None,391.35091013300007,None,391.35091013300007,None,391.35091013300007,None,391.35091013300007,None,,,,,,,,,,,,,,,,,,,,,,,,,,,,,,,,,,,,,,,,,,,,001,4,2020_Jan_28_0956,spring_faces,3.1.5,60.09340522288925,
condition files/Stage0a.xlsx,0a,beta,none,g,"['h', 'g']","['Chess', 'Go']","[0, 0.5]","[0, 0]",1,0,0,1,1,1,0,1,1,1,,,,,,,,,,,,,,,,,,,,,,,,,,,,,,,,,,,,,,,,,,,,,,,,,,,,,,,,,,,,,,,393.3178480050001,None,393.3178480050001,None,393.3178480050001,None,g,1,0.9587213599997995,394.8512577300007,None,394.8512577300007,None,394.8512577300007,None,395.86721571700036,None,395.86721571700036,None,395.86721571700036,None,395.86721571700036,None,,,,,,,,,,,,,,,,,,,,,,,,,,,,,,,,,,,,,,,,,,,,001,4,2020_Jan_28_0956,spring_faces,3.1.5,60.09340522288925,
condition files/Stage0a.xlsx,0a,alpha,none,h,"['h', 'g']","['Chess', 'Go']","[0, 0.5]","[0, 0]",1,0,0,2,2,2,0,0,0,0,,,,,,,,,,,,,,,,,,,,,,,,,,,,,,,,,,,,,,,,,,,,,,,,,,,,,,,,,,,,,,,397.85074957800043,None,397.85074957800043,None,397.85074957800043,None,h,1,1.8330760889994053,399.38483229600024,None,399.38483229600024,None,399.38483229600024,None,401.26823937100016,None,401.26823937100016,None,401.26823937100016,None,401.26823937100016,None,,,,,,,,,,,,,,,,,,,,,,,,,,,,,,,,,,,,,,,,,,,,001,4,2020_Jan_28_0956,spring_faces,3.1.5,60.09340522288925,
condition files/Stage0a.xlsx,0a,beta,none,g,"['h', 'g']","['Chess', 'Go']","[0, 0.5]","[0, 0]",1,0,0,2,2,2,0,1,1,1,,,,,,,,,,,,,,,,,,,,,,,,,,,,,,,,,,,,,,,,,,,,,,,,,,,,,,,,,,,,,,,403.23374695800067,None,403.23374695800067,None,403.23374695800067,None,g,1,0.705849381999542,404.78408631799994,None,404.78408631799994,None,404.78408631799994,None,405.55139182200037,None,405.55139182200037,None,405.55139182200037,None,405.55139182200037,None,,,,,,,,,,,,,,,,,,,,,,,,,,,,,,,,,,,,,,,,,,,,001,4,2020_Jan_28_0956,spring_faces,3.1.5,60.09340522288925,
condition files/Stage0a.xlsx,0a,alpha,none,h,"['h', 'g']","['Chess', 'Go']","[0, 0.5]","[0, 0]",1,0,0,3,3,3,0,0,0,0,,,,,,,,,,,,,,,,,,,,,,,,,,,,,,,,,,,,,,,,,,,,,,,,,,,,,,,,,,,,,,,407.5344758250003,None,407.5344758250003,None,407.5344758250003,None,h,1,1.1110491050003475,409.0508769500002,None,409.0508769500002,None,409.0508769500002,None,410.2169466210007,None,410.2169466210007,None,410.2169466210007,None,410.2169466210007,None,,,,,,,,,,,,,,,,,,,,,,,,,,,,,,,,,,,,,,,,,,,,001,4,2020_Jan_28_0956,spring_faces,3.1.5,60.09340522288925,
condition files/Stage0a.xlsx,0a,beta,none,g,"['h', 'g']","['Chess', 'Go']","[0, 0.5]","[0, 0]",1,0,0,3,3,3,0,1,1,1,,,,,,,,,,,,,,,,,,,,,,,,,,,,,,,,,,,,,,,,,,,,,,,,,,,,,,,,,,,,,,,412.1838485369999,None,412.1838485369999,None,412.1838485369999,None,g,1,0.7004150020002271,413.71744894400035,None,413.71744894400035,None,413.71744894400035,None,414.48436542000036,None,414.48436542000036,None,414.48436542000036,None,414.48436542000036,None,,,,,,,,,,,,,,,,,,,,,,,,,,,,,,,,,,,,,,,,,,,,001,4,2020_Jan_28_0956,spring_faces,3.1.5,60.09340522288925,
condition files/Stage0a.xlsx,0a,alpha,none,h,"['h', 'g']","['Chess', 'Go']","[0, 0.5]","[0, 0]",1,0,0,4,4,4,0,0,0,0,,,,,,,,,,,,,,,,,,,,,,,,,,,,,,,,,,,,,,,,,,,,,,,,,,,,,,,,,,,,,,,416.4679415790006,None,416.4679415790006,None,416.4679415790006,None,h,1,0.8482975869992515,418.0016483850004,None,418.0016483850004,None,418.0016483850004,None,418.90120297500016,None,418.90120297500016,None,418.90120297500016,None,418.90120297500016,None,,,,,,,,,,,,,,,,,,,,,,,,,,,,,,,,,,,,,,,,,,,,001,4,2020_Jan_28_0956,spring_faces,3.1.5,60.09340522288925,
condition files/Stage0a.xlsx,0a,beta,none,g,"['h', 'g']","['Chess', 'Go']","[0, 0.5]","[0, 0]",1,0,0,4,4,4,0,1,1,1,,,,,,,,,,,,,,,,,,,,,,,,,,,,,,,,,,,,,,,,,,,,,,,,,,,,,,,,,,,,,,,420.8677715970007,None,420.8677715970007,None,420.8677715970007,None,g,1,0.6571544899998116,422.40074271899994,None,422.40074271899994,None,422.40074271899994,None,423.1173341120002,None,423.1173341120002,None,423.1173341120002,None,423.1173341120002,None,,,,,,,,,,,,,,,,,,,,,,,,,,,,,,,,,,,,,,,,,,,,001,4,2020_Jan_28_0956,spring_faces,3.1.5,60.09340522288925,
condition files/Stage0a.xlsx,0a,beta,none,g,"['h', 'g']","['Chess', 'Go']","[0, 0.5]","[0, 0]",1,0,0,5,5,5,0,0,0,1,,,,,,,,,,,,,,,,,,,,,,,,,,,,,,,,,,,,,,,,,,,,,,,,,,,,,,,,,,,,,,,425.10085864900066,None,425.10085864900066,None,425.10085864900066,None,g,1,1.2389523450001434,426.6349849349999,None,426.6349849349999,None,426.6349849349999,None,427.93434051000077,None,427.93434051000077,None,427.93434051000077,None,427.93434051000077,None,,,,,,,,,,,,,,,,,,,,,,,,,,,,,,,,,,,,,,,,,,,,001,4,2020_Jan_28_0956,spring_faces,3.1.5,60.09340522288925,
condition files/Stage0a.xlsx,0a,alpha,none,h,"['h', 'g']","['Chess', 'Go']","[0, 0.5]","[0, 0]",1,0,0,5,5,5,0,1,1,0,,,,,,,,,,,,,,,,,,,,,,,,,,,,,,,,,,,,,,,,,,,,,,,,,,,,,,,,,,,,,,,429.9010024910003,None,429.9010024910003,None,429.9010024910003,None,h,1,0.7431152059998567,431.4348560180006,None,431.4348560180006,None,431.4348560180006,None,432.2342009470003,None,432.2342009470003,None,432.2342009470003,None,432.2342009470003,None,,,,,,,,,,,,,,,,,,,,,,,,,,,,,,,,,,,,,,,,,,,,001,4,2020_Jan_28_0956,spring_faces,3.1.5,60.09340522288925,
condition files/Stage0b_1.xlsx,0b,none,beta,g,"['h', 'g']","['Chess', 'Go']","[-0.15, 0.5]","[0.15, 0.5]",0,1,0,6,6,6,0,0,0,1,,,,,,,,,,,,,,,,,,,,,,,,,,,,,,,,,,,,,,,,,,,,,,,,,,,,,,,,,,,,,,,434.2181192750004,None,434.2181192750004,None,434.2181192750004,None,g,1,0.7950017169996499,435.7508856080003,None,435.7508856080003,None,435.7508856080003,None,436.61769091600036,None,436.61769091600036,None,436.61769091600036,None,436.61769091600036,None,,,,,,,,,,,,,,,,,,,,,,,,,,,,,,,,,,,,,,,,,,,,001,4,2020_Jan_28_0956,spring_faces,3.1.5,60.09340522288925,
condition files/Stage0b_1.xlsx,0b,alpha,none,h,"['h', 'g']","['Chess', 'Go']","[-0.15, 0.5]","[0.15, 0.5]",1,0,0,6,6,6,0,1,1,0,,,,,,,,,,,,,,,,,,,,,,,,,,,,,,,,,,,,,,,,,,,,,,,,,,,,,,,,,,,,,,,438.5677926520002,None,438.5677926520002,None,438.5677926520002,None,h,1,0.7321129360007035,440.11783004300014,None,440.11783004300014,None,440.11783004300014,None,440.9049065400004,None,440.9049065400004,None,440.9049065400004,None,440.9049065400004,None,,,,,,,,,,,,,,,,,,,,,,,,,,,,,,,,,,,,,,,,,,,,001,4,2020_Jan_28_0956,spring_faces,3.1.5,60.09340522288925,
condition files/Stage0b_2.xlsx,0b,beta,none,g,"['h', 'g']","['Chess', 'Go']","[-0.15, 0.5]","[0.15, 0.5]",1,0,0,7,7,7,0,0,0,1,,,,,,,,,,,,,,,,,,,,,,,,,,,,,,,,,,,,,,,,,,,,,,,,,,,,,,,,,,,,,,,442.8845631240001,None,442.8845631240001,None,442.8845631240001,None,g,1,0.6563999230002082,444.4175356630003,None,444.4175356630003,None,444.4175356630003,None,445.13408866200007,None,445.13408866200007,None,445.13408866200007,None,445.13408866200007,None,,,,,,,,,,,,,,,,,,,,,,,,,,,,,,,,,,,,,,,,,,,,001,4,2020_Jan_28_0956,spring_faces,3.1.5,60.09340522288925,
condition files/Stage0b_2.xlsx,0b,none,alpha,h,"['h', 'g']","['Chess', 'Go']","[-0.15, 0.5]","[0.15, 0.5]",0,1,0,7,7,7,0,1,1,0,,,,,,,,,,,,,,,,,,,,,,,,,,,,,,,,,,,,,,,,,,,,,,,,,,,,,,,,,,,,,,,447.1002932050005,None,447.1002932050005,None,447.1002932050005,None,h,1,0.8065868040002897,448.65130173000034,None,448.65130173000034,None,448.65130173000034,None,449.5350287880001,None,449.5350287880001,None,449.5350287880001,None,449.5350287880001,None,,,,,,,,,,,,,,,,,,,,,,,,,,,,,,,,,,,,,,,,,,,,001,4,2020_Jan_28_0956,spring_faces,3.1.5,60.09340522288925,
condition files/Stage0b_1.xlsx,0b,none,beta,g,"['h', 'g']","['Chess', 'Go']","[-0.15, 0.5]","[0.15, 0.5]",0,1,0,8,8,8,0,0,0,1,,,,,,,,,,,,,,,,,,,,,,,,,,,,,,,,,,,,,,,,,,,,,,,,,,,,,,,,,,,,,,,451.50126046900004,None,451.50126046900004,None,451.50126046900004,None,g,1,0.9354610350001167,453.0344735490007,None,453.0344735490007,None,453.0344735490007,None,454.03406113500023,None,454.03406113500023,None,454.03406113500023,None,454.03406113500023,None,,,,,,,,,,,,,,,,,,,,,,,,,,,,,,,,,,,,,,,,,,,,001,4,2020_Jan_28_0956,spring_faces,3.1.5,60.09340522288925,
condition files/Stage0b_1.xlsx,0b,alpha,none,h,"['h', 'g']","['Chess', 'Go']","[-0.15, 0.5]","[0.15, 0.5]",1,0,0,8,8,8,0,1,1,0,,,,,,,,,,,,,,,,,,,,,,,,,,,,,,,,,,,,,,,,,,,,,,,,,,,,,,,,,,,,,,,456.00065361399993,None,456.00065361399993,None,456.00065361399993,None,h,1,0.6428172440000708,457.55108013600056,None,457.55108013600056,None,457.55108013600056,None,458.2674284479999,None,458.2674284479999,None,458.2674284479999,None,458.2674284479999,None,,,,,,,,,,,,,,,,,,,,,,,,,,,,,,,,,,,,,,,,,,,,001,4,2020_Jan_28_0956,spring_faces,3.1.5,60.09340522288925,
condition files/Stage0b_2.xlsx,0b,none,alpha,h,"['h', 'g']","['Chess', 'Go']","[-0.15, 0.5]","[0.15, 0.5]",0,1,0,9,9,9,0,0,0,0,,,,,,,,,,,,,,,,,,,,,,,,,,,,,,,,,,,,,,,,,,,,,,,,,,,,,,,,,,,,,,,460.2348895670002,None,460.2348895670002,None,460.2348895670002,None,h,1,0.6616680099996302,461.77227238700016,None,461.77227238700016,None,461.77227238700016,None,462.4855511270007,None,462.4855511270007,None,462.4855511270007,None,462.4855511270007,None,,,,,,,,,,,,,,,,,,,,,,,,,,,,,,,,,,,,,,,,,,,,001,4,2020_Jan_28_0956,spring_faces,3.1.5,60.09340522288925,
condition files/Stage0b_2.xlsx,0b,beta,none,g,"['h', 'g']","['Chess', 'Go']","[-0.15, 0.5]","[0.15, 0.5]",1,0,0,9,9,9,0,1,1,1,,,,,,,,,,,,,,,,,,,,,,,,,,,,,,,,,,,,,,,,,,,,,,,,,,,,,,,,,,,,,,,464.4509137770001,None,464.4509137770001,None,464.4509137770001,None,g,1,0.7660916920003729,465.987853738,None,465.987853738,None,465.987853738,None,466.820461456,None,466.820461456,None,466.820461456,None,466.820461456,None,,,,,,,,,,,,,,,,,,,,,,,,,,,,,,,,,,,,,,,,,,,,001,4,2020_Jan_28_0956,spring_faces,3.1.5,60.09340522288925,
condition files/Stage0b_1.xlsx,0b,none,beta,g,"['h', 'g']","['Chess', 'Go']","[-0.15, 0.5]","[0.15, 0.5]",0,1,0,10,10,10,0,0,0,1,,,,,,,,,,,,,,,,,,,,,,,,,,,,,,,,,,,,,,,,,,,,,,,,,,,,,,,,,,,,,,,468.8012446930006,None,468.8012446930006,None,468.8012446930006,None,g,1,0.8640006489995358,470.33788553700015,None,470.33788553700015,None,470.33788553700015,None,471.26755291000063,None,471.26755291000063,None,471.26755291000063,None,471.26755291000063,None,,,,,,,,,,,,,,,,,,,,,,,,,,,,,,,,,,,,,,,,,,,,001,4,2020_Jan_28_0956,spring_faces,3.1.5,60.09340522288925,
condition files/Stage0b_1.xlsx,0b,alpha,none,h,"['h', 'g']","['Chess', 'Go']","[-0.15, 0.5]","[0.15, 0.5]",1,0,0,10,10,10,0,1,1,0,,,,,,,,,,,,,,,,,,,,,,,,,,,,,,,,,,,,,,,,,,,,,,,,,,,,,,,,,,,,,,,473.23422492100053,None,473.23422492100053,None,473.23422492100053,None,h,1,0.6047817720000239,474.7731374980003,None,474.7731374980003,None,474.7731374980003,None,475.4366257620004,None,475.4366257620004,None,475.4366257620004,None,475.4366257620004,None,,,,,,,,,,,,,,,,,,,,,,,,,,,,,,,,,,,,,,,,,,,,001,4,2020_Jan_28_0956,spring_faces,3.1.5,60.09340522288925,
condition files/Stage0b_2.xlsx,0b,none,alpha,h,"['h', 'g']","['Chess', 'Go']","[-0.15, 0.5]","[0.15, 0.5]",0,1,0,11,11,11,0,0,0,0,,,,,,,,,,,,,,,,,,,,,,,,,,,,,,,,,,,,,,,,,,,,,,,,,,,,,,,,,,,,,,,477.41727099500076,None,477.41727099500076,None,477.41727099500076,None,h,1,0.7138800829998218,478.9680192860005,None,478.9680192860005,None,478.9680192860005,None,479.73484541700054,None,479.73484541700054,None,479.73484541700054,None,479.73484541700054,None,,,,,,,,,,,,,,,,,,,,,,,,,,,,,,,,,,,,,,,,,,,,001,4,2020_Jan_28_0956,spring_faces,3.1.5,60.09340522288925,
condition files/Stage0b_2.xlsx,0b,beta,none,g,"['h', 'g']","['Chess', 'Go']","[-0.15, 0.5]","[0.15, 0.5]",1,0,0,11,11,11,0,1,1,1,,,,,,,,,,,,,,,,,,,,,,,,,,,,,,,,,,,,,,,,,,,,,,,,,,,,,,,,,,,,,,,481.7011389190002,None,481.7011389190002,None,481.7011389190002,None,g,1,0.4909797239997715,483.23887717100024,None,483.23887717100024,None,483.23887717100024,None,483.7879970950007,None,483.7879970950007,None,483.7879970950007,None,483.7879970950007,None,,,,,,,,,,,,,,,,,,,,,,,,,,,,,,,,,,,,,,,,,,,,001,4,2020_Jan_28_0956,spring_faces,3.1.5,60.09340522288925,
condition files/Stage0c_1.xlsx,0c,theta,alpha,h,"['h', 'g']","['Chess', 'Go']","[-0.15, 0.5]","[0.15, 0.5]",1,1,0,12,12,12,0,0,0,0,,,,,,,,,,,,,,,,,,,,,,,,,,,,,,,,,,,,,,,,,,,,,,,,,,,,,,,,,,,,,,,485.7680698690001,None,485.7680698690001,None,485.7680698690001,None,h,1,1.916731049000191,487.301206999,None,487.301206999,None,487.301206999,None,489.2670817420003,None,489.2670817420003,None,489.2670817420003,None,489.2670817420003,None,,,,,,,,,,,,,,,,,,,,,,,,,,,,,,,,,,,,,,,,,,,,001,4,2020_Jan_28_0956,spring_faces,3.1.5,60.09340522288925,
condition files/Stage0c_1.xlsx,0c,beta,theta,g,"['h', 'g']","['Chess', 'Go']","[-0.15, 0.5]","[0.15, 0.5]",1,1,0,12,12,12,0,1,1,2,,,,,,,,,,,,,,,,,,,,,,,,,,,,,,,,,,,,,,,,,,,,,,,,,,,,,,,,,,,,,,,491.2341040070005,None,491.2341040070005,None,491.2341040070005,None,g,1,1.2980959380001877,492.7677699320002,None,492.7677699320002,None,492.7677699320002,None,494.11782284499986,None,494.11782284499986,None,494.11782284499986,None,494.11782284499986,None,,,,,,,,,,,,,,,,,,,,,,,,,,,,,,,,,,,,,,,,,,,,001,4,2020_Jan_28_0956,spring_faces,3.1.5,60.09340522288925,
condition files/Stage0c_1.xlsx,0c,phi,beta,g,"['h', 'g']","['Chess', 'Go']","[-0.15, 0.5]","[0.15, 0.5]",1,1,0,12,12,12,0,2,2,3,,,,,,,,,,,,,,,,,,,,,,,,,,,,,,,,,,,,,,,,,,,,,,,,,,,,,,,,,,,,,,,496.08385572299994,None,496.08385572299994,None,496.08385572299994,None,g,1,1.3918396819999543,497.6181254970006,None,497.6181254970006,None,497.6181254970006,None,499.06784649600013,None,499.06784649600013,None,499.06784649600013,None,499.06784649600013,None,,,,,,,,,,,,,,,,,,,,,,,,,,,,,,,,,,,,,,,,,,,,001,4,2020_Jan_28_0956,spring_faces,3.1.5,60.09340522288925,
condition files/Stage0c_1.xlsx,0c,alpha,phi,h,"['h', 'g']","['Chess', 'Go']","[-0.15, 0.5]","[0.15, 0.5]",1,1,0,12,12,12,0,3,3,1,,,,,,,,,,,,,,,,,,,,,,,,,,,,,,,,,,,,,,,,,,,,,,,,,,,,,,,,,,,,,,,501.03452620400003,None,501.03452620400003,None,501.03452620400003,None,h,1,1.3544318909998765,502.56750816800013,None,502.56750816800013,None,502.56750816800013,None,503.98419087300044,None,503.98419087300044,None,503.98419087300044,None,503.98419087300044,None,,,,,,,,,,,,,,,,,,,,,,,,,,,,,,,,,,,,,,,,,,,,001,4,2020_Jan_28_0956,spring_faces,3.1.5,60.09340522288925,
condition files/Stage0c_2.xlsx,0c,theta,beta,g,"['h', 'g']","['Chess', 'Go']","[-0.15, 0.5]","[0.15, 0.5]",1,1,0,13,13,13,0,0,0,2,,,,,,,,,,,,,,,,,,,,,,,,,,,,,,,,,,,,,,,,,,,,,,,,,,,,,,,,,,,,,,,505.9675694340003,None,505.9675694340003,None,505.9675694340003,None,g,1,1.3165471040001648,507.50142364300063,None,507.50142364300063,None,507.50142364300063,None,508.86787755600017,None,508.86787755600017,None,508.86787755600017,None,508.86787755600017,None,,,,,,,,,,,,,,,,,,,,,,,,,,,,,,,,,,,,,,,,,,,,001,4,2020_Jan_28_0956,spring_faces,3.1.5,60.09340522288925,
condition files/Stage0c_2.xlsx,0c,beta,phi,g,"['h', 'g']","['Chess', 'Go']","[-0.15, 0.5]","[0.15, 0.5]",1,1,0,13,13,13,0,1,1,3,,,,,,,,,,,,,,,,,,,,,,,,,,,,,,,,,,,,,,,,,,,,,,,,,,,,,,,,,,,,,,,510.8343720130006,None,510.8343720130006,None,510.8343720130006,None,g,1,1.4904934840005808,512.3674376260005,None,512.3674376260005,None,512.3674376260005,None,513.9030344570001,None,513.9030344570001,None,513.9030344570001,None,513.9030344570001,None,,,,,,,,,,,,,,,,,,,,,,,,,,,,,,,,,,,,,,,,,,,,001,4,2020_Jan_28_0956,spring_faces,3.1.5,60.09340522288925,
condition files/Stage0c_2.xlsx,0c,phi,alpha,h,"['h', 'g']","['Chess', 'Go']","[-0.15, 0.5]","[0.15, 0.5]",1,1,0,13,13,13,0,2,2,1,,,,,,,,,,,,,,,,,,,,,,,,,,,,,,,,,,,,,,,,,,,,,,,,,,,,,,,,,,,,,,,515.8844407820006,None,515.8844407820006,None,515.8844407820006,None,h,1,1.0476419900005567,517.4182721240004,None,517.4182721240004,None,517.4182721240004,None,518.5179460940008,None,518.5179460940008,None,518.5179460940008,None,518.5179460940008,None,,,,,,,,,,,,,,,,,,,,,,,,,,,,,,,,,,,,,,,,,,,,001,4,2020_Jan_28_0956,spring_faces,3.1.5,60.09340522288925,
condition files/Stage0c_2.xlsx,0c,alpha,theta,h,"['h', 'g']","['Chess', 'Go']","[-0.15, 0.5]","[0.15, 0.5]",1,1,0,13,13,13,0,3,3,0,,,,,,,,,,,,,,,,,,,,,,,,,,,,,,,,,,,,,,,,,,,,,,,,,,,,,,,,,,,,,,,520.4842040240001,None,520.4842040240001,None,520.4842040240001,None,h,1,1.5519297580003695,522.017974456,None,522.017974456,None,522.017974456,None,523.6200588010006,None,523.6200588010006,None,523.6200588010006,None,523.6200588010006,None,,,,,,,,,,,,,,,,,,,,,,,,,,,,,,,,,,,,,,,,,,,,001,4,2020_Jan_28_0956,spring_faces,3.1.5,60.09340522288925,
condition files/Stage0c_1.xlsx,0c,theta,alpha,h,"['h', 'g']","['Chess', 'Go']","[-0.15, 0.5]","[0.15, 0.5]",1,1,0,14,14,14,0,0,0,0,,,,,,,,,,,,,,,,,,,,,,,,,,,,,,,,,,,,,,,,,,,,,,,,,,,,,,,,,,,,,,,525.6176857500004,None,525.6176857500004,None,525.6176857500004,None,h,1,0.9948683339998752,527.1510294570007,None,527.1510294570007,None,527.1510294570007,None,528.1877648180007,None,528.1877648180007,None,528.1877648180007,None,528.1877648180007,None,,,,,,,,,,,,,,,,,,,,,,,,,,,,,,,,,,,,,,,,,,,,001,4,2020_Jan_28_0956,spring_faces,3.1.5,60.09340522288925,
condition files/Stage0c_1.xlsx,0c,alpha,phi,h,"['h', 'g']","['Chess', 'Go']","[-0.15, 0.5]","[0.15, 0.5]",1,1,0,14,14,14,0,1,1,1,,,,,,,,,,,,,,,,,,,,,,,,,,,,,,,,,,,,,,,,,,,,,,,,,,,,,,,,,,,,,,,530.1678552350004,None,530.1678552350004,None,530.1678552350004,None,h,1,1.068939930999477,531.700990366,None,531.700990366,None,531.700990366,None,532.8200046660004,None,532.8200046660004,None,532.8200046660004,None,532.8200046660004,None,,,,,,,,,,,,,,,,,,,,,,,,,,,,,,,,,,,,,,,,,,,,001,4,2020_Jan_28_0956,spring_faces,3.1.5,60.09340522288925,
condition files/Stage0c_1.xlsx,0c,phi,beta,g,"['h', 'g']","['Chess', 'Go']","[-0.15, 0.5]","[0.15, 0.5]",1,1,0,14,14,14,0,2,2,3,,,,,,,,,,,,,,,,,,,,,,,,,,,,,,,,,,,,,,,,,,,,,,,,,,,,,,,,,,,,,,,534.8009886160007,None,534.8009886160007,None,534.8009886160007,None,g,1,1.203419431999464,536.3345238239999,None,536.3345238239999,None,536.3345238239999,None,537.6013986570006,None,537.6013986570006,None,537.6013986570006,None,537.6013986570006,None,,,,,,,,,,,,,,,,,,,,,,,,,,,,,,,,,,,,,,,,,,,,001,4,2020_Jan_28_0956,spring_faces,3.1.5,60.09340522288925,
condition files/Stage0c_1.xlsx,0c,beta,theta,g,"['h', 'g']","['Chess', 'Go']","[-0.15, 0.5]","[0.15, 0.5]",1,1,0,14,14,14,0,3,3,2,,,,,,,,,,,,,,,,,,,,,,,,,,,,,,,,,,,,,,,,,,,,,,,,,,,,,,,,,,,,,,,539.5671099609999,None,539.5671099609999,None,539.5671099609999,None,g,1,0.8363043210001706,541.1016265240005,None,541.1016265240005,None,541.1016265240005,None,542.0014451830002,None,542.0014451830002,None,542.0014451830002,None,542.0014451830002,None,,,,,,,,,,,,,,,,,,,,,,,,,,,,,,,,,,,,,,,,,,,,001,4,2020_Jan_28_0956,spring_faces,3.1.5,60.09340522288925,
condition files/Stage0c_2.xlsx,0c,beta,phi,g,"['h', 'g']","['Chess', 'Go']","[-0.15, 0.5]","[0.15, 0.5]",1,1,0,15,15,15,0,0,0,3,,,,,,,,,,,,,,,,,,,,,,,,,,,,,,,,,,,,,,,,,,,,,,,,,,,,,,,,,,,,,,,543.9843004889999,None,543.9843004889999,None,543.9843004889999,None,g,1,0.7879803180003364,545.5179420720006,None,545.5179420720006,None,545.5179420720006,None,546.3533013160004,None,546.3533013160004,None,546.3533013160004,None,546.3533013160004,None,,,,,,,,,,,,,,,,,,,,,,,,,,,,,,,,,,,,,,,,,,,,001,4,2020_Jan_28_0956,spring_faces,3.1.5,60.09340522288925,
condition files/Stage0c_2.xlsx,0c,theta,beta,g,"['h', 'g']","['Chess', 'Go']","[-0.15, 0.5]","[0.15, 0.5]",1,1,0,15,15,15,0,1,1,2,,,,,,,,,,,,,,,,,,,,,,,,,,,,,,,,,,,,,,,,,,,,,,,,,,,,,,,,,,,,,,,548.3342827510005,None,548.3342827510005,None,548.3342827510005,None,g,1,1.078601467000226,549.8672886720005,None,549.8672886720005,None,549.8672886720005,None,550.9868445310003,None,550.9868445310003,None,550.9868445310003,None,550.9868445310003,None,,,,,,,,,,,,,,,,,,,,,,,,,,,,,,,,,,,,,,,,,,,,001,4,2020_Jan_28_0956,spring_faces,3.1.5,60.09340522288925,
condition files/Stage0c_2.xlsx,0c,phi,alpha,h,"['h', 'g']","['Chess', 'Go']","[-0.15, 0.5]","[0.15, 0.5]",1,1,0,15,15,15,0,2,2,1,,,,,,,,,,,,,,,,,,,,,,,,,,,,,,,,,,,,,,,,,,,,,,,,,,,,,,,,,,,,,,,552.9670032480008,None,552.9670032480008,None,552.9670032480008,None,h,1,1.0523090839997167,554.5016245659999,None,554.5016245659999,None,554.5016245659999,None,555.6191848500002,None,555.6191848500002,None,555.6191848500002,None,555.6191848500002,None,,,,,,,,,,,,,,,,,,,,,,,,,,,,,,,,,,,,,,,,,,,,001,4,2020_Jan_28_0956,spring_faces,3.1.5,60.09340522288925,
condition files/Stage0c_2.xlsx,0c,alpha,theta,h,"['h', 'g']","['Chess', 'Go']","[-0.15, 0.5]","[0.15, 0.5]",1,1,0,15,15,15,0,3,3,0,,,,,,,,,,,,,,,,,,,,,,,,,,,,,,,,,,,,,,,,,,,,,,,,,,,,,,,,,,,,,,,557.5843633980003,None,557.5843633980003,None,557.5843633980003,None,h,1,1.0121748090004985,559.1177130400001,None,559.1177130400001,None,559.1177130400001,None,560.170836579,None,560.170836579,None,560.170836579,None,560.170836579,None,,,,,,,,,,,,,,,,,,,,,,,,,,,,,,,,,,,,,,,,,,,,001,4,2020_Jan_28_0956,spring_faces,3.1.5,60.09340522288925,
condition files/Stage0c_1.xlsx,0c,alpha,phi,h,"['h', 'g']","['Chess', 'Go']","[-0.15, 0.5]","[0.15, 0.5]",1,1,0,16,16,16,0,0,0,1,,,,,,,,,,,,,,,,,,,,,,,,,,,,,,,,,,,,,,,,,,,,,,,,,,,,,,,,,,,,,,,562.1678338040001,None,562.1678338040001,None,562.1678338040001,None,h,1,1.020636194999497,563.7013065270003,None,563.7013065270003,None,563.7013065270003,None,564.7705665020003,None,564.7705665020003,None,564.7705665020003,None,564.7705665020003,None,,,,,,,,,,,,,,,,,,,,,,,,,,,,,,,,,,,,,,,,,,,,001,4,2020_Jan_28_0956,spring_faces,3.1.5,60.09340522288925,
condition files/Stage0c_1.xlsx,0c,theta,alpha,h,"['h', 'g']","['Chess', 'Go']","[-0.15, 0.5]","[0.15, 0.5]",1,1,0,16,16,16,0,1,1,0,,,,,,,,,,,,,,,,,,,,,,,,,,,,,,,,,,,,,,,,,,,,,,,,,,,,,,,,,,,,,,,566.7505793160008,None,566.7505793160008,None,566.7505793160008,None,h,1,0.8531947239998772,568.2847492090004,None,568.2847492090004,None,568.2847492090004,None,569.201373162,None,569.201373162,None,569.201373162,None,569.201373162,None,,,,,,,,,,,,,,,,,,,,,,,,,,,,,,,,,,,,,,,,,,,,001,4,2020_Jan_28_0956,spring_faces,3.1.5,60.09340522288925,
condition files/Stage0c_1.xlsx,0c,beta,theta,g,"['h', 'g']","['Chess', 'Go']","[-0.15, 0.5]","[0.15, 0.5]",1,1,0,16,16,16,0,2,2,2,,,,,,,,,,,,,,,,,,,,,,,,,,,,,,,,,,,,,,,,,,,,,,,,,,,,,,,,,,,,,,,571.1676071070005,None,571.1676071070005,None,571.1676071070005,None,g,1,0.501211732000229,572.7006686820005,None,572.7006686820005,None,572.7006686820005,None,573.2678334640004,None,573.2678334640004,None,573.2678334640004,None,573.2678334640004,None,,,,,,,,,,,,,,,,,,,,,,,,,,,,,,,,,,,,,,,,,,,,001,4,2020_Jan_28_0956,spring_faces,3.1.5,60.09340522288925,
condition files/Stage0c_1.xlsx,0c,phi,beta,g,"['h', 'g']","['Chess', 'Go']","[-0.15, 0.5]","[0.15, 0.5]",1,1,0,16,16,16,0,3,3,3,,,,,,,,,,,,,,,,,,,,,,,,,,,,,,,,,,,,,,,,,,,,,,,,,,,,,,,,,,,,,,,575.23405078,None,575.23405078,None,575.23405078,None,g,1,0.9141930550003963,576.7677177260002,None,576.7677177260002,None,576.7677177260002,None,577.7200826580001,None,577.7200826580001,None,577.7200826580001,None,577.7200826580001,None,,,,,,,,,,,,,,,,,,,,,,,,,,,,,,,,,,,,,,,,,,,,001,4,2020_Jan_28_0956,spring_faces,3.1.5,60.09340522288925,
condition files/Stage0c_2.xlsx,0c,beta,phi,g,"['h', 'g']","['Chess', 'Go']","[-0.15, 0.5]","[0.15, 0.5]",1,1,0,17,17,17,0,0,0,3,,,,,,,,,,,,,,,,,,,,,,,,,,,,,,,,,,,,,,,,,,,,,,,,,,,,,,,,,,,,,,,579.7172299800004,None,579.7172299800004,None,579.7172299800004,None,g,1,0.5270707350000521,581.2509454670007,None,581.2509454670007,None,581.2509454670007,None,581.821428534,None,581.821428534,None,581.821428534,None,581.821428534,None,,,,,,,,,,,,,,,,,,,,,,,,,,,,,,,,,,,,,,,,,,,,001,4,2020_Jan_28_0956,spring_faces,3.1.5,60.09340522288925,
condition files/Stage0c_2.xlsx,0c,alpha,theta,h,"['h', 'g']","['Chess', 'Go']","[-0.15, 0.5]","[0.15, 0.5]",1,1,0,17,17,17,0,1,1,0,,,,,,,,,,,,,,,,,,,,,,,,,,,,,,,,,,,,,,,,,,,,,,,,,,,,,,,,,,,,,,,583.8006934670002,None,583.8006934670002,None,583.8006934670002,None,h,1,0.7641013429993109,585.3339226830003,None,585.3339226830003,None,585.3339226830003,None,586.1511891400005,None,586.1511891400005,None,586.1511891400005,None,586.1511891400005,None,,,,,,,,,,,,,,,,,,,,,,,,,,,,,,,,,,,,,,,,,,,,001,4,2020_Jan_28_0956,spring_faces,3.1.5,60.09340522288925,
condition files/Stage0c_2.xlsx,0c,phi,alpha,h,"['h', 'g']","['Chess', 'Go']","[-0.15, 0.5]","[0.15, 0.5]",1,1,0,17,17,17,0,2,2,1,,,,,,,,,,,,,,,,,,,,,,,,,,,,,,,,,,,,,,,,,,,,,,,,,,,,,,,,,,,,,,,588.1177287850005,None,588.1177287850005,None,588.1177287850005,None,h,1,1.214900795000176,589.6510218800004,None,589.6510218800004,None,589.6510218800004,None,590.9034774320007,None,590.9034774320007,None,590.9034774320007,None,590.9034774320007,None,,,,,,,,,,,,,,,,,,,,,,,,,,,,,,,,,,,,,,,,,,,,001,4,2020_Jan_28_0956,spring_faces,3.1.5,60.09340522288925,
condition files/Stage0c_2.xlsx,0c,theta,beta,g,"['h', 'g']","['Chess', 'Go']","[-0.15, 0.5]","[0.15, 0.5]",1,1,0,17,17,17,0,3,3,2,,,,,,,,,,,,,,,,,,,,,,,,,,,,,,,,,,,,,,,,,,,,,,,,,,,,,,,,,,,,,,,592.8840335960003,None,592.8840335960003,None,592.8840335960003,None,g,1,0.8162784090000059,594.4176401240002,None,594.4176401240002,None,594.4176401240002,None,595.2841194960001,None,595.2841194960001,None,595.2841194960001,None,595.2841194960001,None,,,,,,,,,,,,,,,,,,,,,,,,,,,,,,,,,,,,,,,,,,,,001,4,2020_Jan_28_0956,spring_faces,3.1.5,60.09340522288925,
,,,,,,,,,,,,,,,,,,,,,,,,,,,,,,,,,,,,,,,,,,,,,,,,,,,,,,,,,,,,,,,,,,,,,,,,,,,,,,,,,,,,,,,,,,,,,,,,,,,,,,,,597.2680692459999,None,space,4.454144207999889,602.2677954850005,None,,,,,,,,,,,,,,,,,,,,,,,,,,,,,,,,,,,,,,001,4,2020_Jan_28_0956,spring_faces,3.1.5,60.09340522288925,
condition files/Stage1_1.xlsx,,T4,B3,m,"['c', 'm']","['Clue', 'Monopoly']","[-0.15, 0.5]","[0.15, 0.5]",1,1,,,,,,,,,0,0,0,0,0,0,0,6,,,,,,,,,,,,,,,,,,,,,,,,,,,,,,,,,,,,,,,,,,,,,,,,,,,,,,,606.7845390170005,None,606.7845390170005,None,606.7845390170005,None,c,0,1.1698823540000376,608.3840618909999,None,608.3840618909999,None,608.3840618909999,None,609.634147019,None,609.634147019,None,609.634147019,None,609.634147019,None,,,,,,,602.2677954850005,None,,,,,,,,,,,,,,,,,,,,,,,,,,,,,,,,,,,,001,4,2020_Jan_28_0956,spring_faces,3.1.5,60.09340522288925,
condition files/Stage1_1.xlsx,,T2,B2,m,"['c', 'm']","['Clue', 'Monopoly']","[-0.15, 0.5]","[0.15, 0.5]",1,1,,,,,,,,,0,0,0,0,0,1,1,3,,,,,,,,,,,,,,,,,,,,,,,,,,,,,,,,,,,,,,,,,,,,,,,,,,,,,,,611.5840675660002,None,611.5840675660002,None,611.5840675660002,None,c,0,0.7851768290001928,613.1687801180005,None,613.1687801180005,None,613.1687801180005,None,614.0181443070005,None,614.0181443070005,None,614.0181443070005,None,614.0181443070005,None,,,,,,,,,,,,,,,,,,,,,,,,,,,,,,,,,,,,,,,,,,,,001,4,2020_Jan_28_0956,spring_faces,3.1.5,60.09340522288925,
condition files/Stage1_1.xlsx,,B3,T3,c,"['c', 'm']","['Clue', 'Monopoly']","[-0.15, 0.5]","[0.15, 0.5]",1,1,,,,,,,,,0,0,0,0,0,2,2,4,,,,,,,,,,,,,,,,,,,,,,,,,,,,,,,,,,,,,,,,,,,,,,,,,,,,,,,615.9843938290005,None,615.9843938290005,None,615.9843938290005,None,c,1,1.1076593009993303,617.5183146600002,None,617.5183146600002,None,617.5183146600002,None,618.685760974,None,618.685760974,None,618.685760974,None,618.685760974,None,,,,,,,,,,,,,,,,,,,,,,,,,,,,,,,,,,,,,,,,,,,,001,4,2020_Jan_28_0956,spring_faces,3.1.5,60.09340522288925,
condition files/Stage1_1.xlsx,,T1,B1,c,"['c', 'm']","['Clue', 'Monopoly']","[-0.15, 0.5]","[0.15, 0.5]",1,1,,,,,,,,,0,0,0,0,0,3,3,0,,,,,,,,,,,,,,,,,,,,,,,,,,,,,,,,,,,,,,,,,,,,,,,,,,,,,,,620.6504727050005,None,620.6504727050005,None,620.6504727050005,None,m,0,1.6531897260001642,622.2367986360005,None,622.2367986360005,None,622.2367986360005,None,623.9509685580006,None,623.9509685580006,None,623.9509685580006,None,623.9509685580006,None,,,,,,,,,,,,,,,,,,,,,,,,,,,,,,,,,,,,,,,,,,,,001,4,2020_Jan_28_0956,spring_faces,3.1.5,60.09340522288925,
condition files/Stage1_1.xlsx,,B1,T2,c,"['c', 'm']","['Clue', 'Monopoly']","[-0.15, 0.5]","[0.15, 0.5]",1,1,,,,,,,,,0,0,0,0,0,4,4,1,,,,,,,,,,,,,,,,,,,,,,,,,,,,,,,,,,,,,,,,,,,,,,,,,,,,,,,625.9177150020005,None,625.9177150020005,None,625.9177150020005,None,c,1,2.837822999000309,627.468122024,None,627.468122024,None,627.468122024,None,630.3677663360004,None,630.3677663360004,None,630.3677663360004,None,630.3677663360004,None,,,,,,,,,,,,,,,,,,,,,,,,,,,,,,,,,,,,,,,,,,,,001,4,2020_Jan_28_0956,spring_faces,3.1.5,60.09340522288925,
condition files/Stage1_1.xlsx,,B2,T1,m,"['c', 'm']","['Clue', 'Monopoly']","[-0.15, 0.5]","[0.15, 0.5]",1,1,,,,,,,,,0,0,0,0,0,5,5,2,,,,,,,,,,,,,,,,,,,,,,,,,,,,,,,,,,,,,,,,,,,,,,,,,,,,,,,632.3345832710002,None,632.3345832710002,None,632.3345832710002,None,m,1,1.2362105310003244,633.8697348330006,None,633.8697348330006,None,633.8697348330006,None,635.1847448790004,None,635.1847448790004,None,635.1847448790004,None,635.1847448790004,None,,,,,,,,,,,,,,,,,,,,,,,,,,,,,,,,,,,,,,,,,,,,001,4,2020_Jan_28_0956,spring_faces,3.1.5,60.09340522288925,
condition files/Stage1_1.xlsx,,B4,T4,m,"['c', 'm']","['Clue', 'Monopoly']","[-0.15, 0.5]","[0.15, 0.5]",1,1,,,,,,,,,0,0,0,0,0,6,6,7,,,,,,,,,,,,,,,,,,,,,,,,,,,,,,,,,,,,,,,,,,,,,,,,,,,,,,,637.1342633909999,None,637.1342633909999,None,637.1342633909999,None,c,0,1.6685605419997955,638.6693939300003,None,638.6693939300003,None,638.6693939300003,None,640.4006006890004,None,640.4006006890004,None,640.4006006890004,None,640.4006006890004,None,,,,,,,,,,,,,,,,,,,,,,,,,,,,,,,,,,,,,,,,,,,,001,4,2020_Jan_28_0956,spring_faces,3.1.5,60.09340522288925,
condition files/Stage1_1.xlsx,,T3,B4,c,"['c', 'm']","['Clue', 'Monopoly']","[-0.15, 0.5]","[0.15, 0.5]",1,1,,,,,,,,,0,0,0,0,0,7,7,5,,,,,,,,,,,,,,,,,,,,,,,,,,,,,,,,,,,,,,,,,,,,,,,,,,,,,,,642.3676559559999,None,642.3676559559999,None,642.3676559559999,None,c,1,1.0441442139999708,643.9177693090005,None,643.9177693090005,None,643.9177693090005,None,645.0197882080001,None,645.0197882080001,None,645.0197882080001,None,645.0197882080001,None,,,,,,,,,,,,,,,,,,,,,,,,,,,,,,,,,,,,,,,,,,,,001,4,2020_Jan_28_0956,spring_faces,3.1.5,60.09340522288925,
condition files/Stage1_2.xlsx,,T4,B4,m,"['c', 'm']","['Clue', 'Monopoly']","[-0.15, 0.5]","[0.15, 0.5]",1,1,,,,,,,,,0,1,1,1,0,0,0,7,,,,,,,,,,,,,,,,,,,,,,,,,,,,,,,,,,,,,,,,,,,,,,,,,,,,,,,647.0013976640003,None,647.0013976640003,None,647.0013976640003,None,c,0,1.594951089999995,648.5349316840002,None,648.5349316840002,None,648.5349316840002,None,650.201354197,None,650.201354197,None,650.201354197,None,650.201354197,None,,,,,,,,,,,,,,,,,,,,,,,,,,,,,,,,,,,,,,,,,,,,001,4,2020_Jan_28_0956,spring_faces,3.1.5,60.09340522288925,
condition files/Stage1_2.xlsx,,B1,T1,c,"['c', 'm']","['Clue', 'Monopoly']","[-0.15, 0.5]","[0.15, 0.5]",1,1,,,,,,,,,0,1,1,1,0,1,1,0,,,,,,,,,,,,,,,,,,,,,,,,,,,,,,,,,,,,,,,,,,,,,,,,,,,,,,,652.1511499450007,None,652.1511499450007,None,652.1511499450007,None,m,0,2.1724285849995795,653.7015136850005,None,653.7015136850005,None,653.7015136850005,None,655.9353937690003,None,655.9353937690003,None,655.9353937690003,None,655.9353937690003,None,,,,,,,,,,,,,,,,,,,,,,,,,,,,,,,,,,,,,,,,,,,,001,4,2020_Jan_28_0956,spring_faces,3.1.5,60.09340522288925,
condition files/Stage1_2.xlsx,,T1,B2,m,"['c', 'm']","['Clue', 'Monopoly']","[-0.15, 0.5]","[0.15, 0.5]",1,1,,,,,,,,,0,1,1,1,0,2,2,2,,,,,,,,,,,,,,,,,,,,,,,,,,,,,,,,,,,,,,,,,,,,,,,,,,,,,,,657.9005469800004,None,657.9005469800004,None,657.9005469800004,None,c,0,0.9036993439995058,659.4342357530004,None,659.4342357530004,None,659.4342357530004,None,660.4178447600007,None,660.4178447600007,None,660.4178447600007,None,660.4178447600007,None,,,,,,,,,,,,,,,,,,,,,,,,,,,,,,,,,,,,,,,,,,,,001,4,2020_Jan_28_0956,spring_faces,3.1.5,60.09340522288925,
condition files/Stage1_2.xlsx,,B2,T2,m,"['c', 'm']","['Clue', 'Monopoly']","[-0.15, 0.5]","[0.15, 0.5]",1,1,,,,,,,,,0,1,1,1,0,3,3,3,,,,,,,,,,,,,,,,,,,,,,,,,,,,,,,,,,,,,,,,,,,,,,,,,,,,,,,662.3681073030002,None,662.3681073030002,None,662.3681073030002,None,c,0,0.8041504359998726,663.9018134880007,None,663.9018134880007,None,663.9018134880007,None,664.7678833570008,None,664.7678833570008,None,664.7678833570008,None,664.7678833570008,None,,,,,,,,,,,,,,,,,,,,,,,,,,,,,,,,,,,,,,,,,,,,001,4,2020_Jan_28_0956,spring_faces,3.1.5,60.09340522288925,
condition files/Stage1_2.xlsx,,B4,T3,c,"['c', 'm']","['Clue', 'Monopoly']","[-0.15, 0.5]","[0.15, 0.5]",1,1,,,,,,,,,0,1,1,1,0,4,4,5,,,,,,,,,,,,,,,,,,,,,,,,,,,,,,,,,,,,,,,,,,,,,,,,,,,,,,,666.7340096110001,None,666.7340096110001,None,666.7340096110001,None,c,1,0.9493830580004214,668.284559103,None,668.284559103,None,668.284559103,None,669.2855935060006,None,669.2855935060006,None,669.2855935060006,None,669.2855935060006,None,,,,,,,,,,,,,,,,,,,,,,,,,,,,,,,,,,,,,,,,,,,,001,4,2020_Jan_28_0956,spring_faces,3.1.5,60.09340522288925,
condition files/Stage1_2.xlsx,,B3,T4,m,"['c', 'm']","['Clue', 'Monopoly']","[-0.15, 0.5]","[0.15, 0.5]",1,1,,,,,,,,,0,1,1,1,0,5,5,6,,,,,,,,,,,,,,,,,,,,,,,,,,,,,,,,,,,,,,,,,,,,,,,,,,,,,,,671.2508611330004,None,671.2508611330004,None,671.2508611330004,None,m,1,1.0721522920002826,672.7858117619999,None,672.7858117619999,None,672.7858117619999,None,673.9183123050007,None,673.9183123050007,None,673.9183123050007,None,673.9183123050007,None,,,,,,,,,,,,,,,,,,,,,,,,,,,,,,,,,,,,,,,,,,,,001,4,2020_Jan_28_0956,spring_faces,3.1.5,60.09340522288925,
condition files/Stage1_2.xlsx,,T2,B1,c,"['c', 'm']","['Clue', 'Monopoly']","[-0.15, 0.5]","[0.15, 0.5]",1,1,,,,,,,,,0,1,1,1,0,6,6,1,,,,,,,,,,,,,,,,,,,,,,,,,,,,,,,,,,,,,,,,,,,,,,,,,,,,,,,675.8838295180003,None,675.8838295180003,None,675.8838295180003,None,c,1,1.7355512170006477,677.4183780270005,None,677.4183780270005,None,677.4183780270005,None,679.2205900690005,None,679.2205900690005,None,679.2205900690005,None,679.2205900690005,None,,,,,,,,,,,,,,,,,,,,,,,,,,,,,,,,,,,,,,,,,,,,001,4,2020_Jan_28_0956,spring_faces,3.1.5,60.09340522288925,
condition files/Stage1_2.xlsx,,T3,B3,c,"['c', 'm']","['Clue', 'Monopoly']","[-0.15, 0.5]","[0.15, 0.5]",1,1,,,,,,,,,0,1,1,1,0,7,7,4,,,,,,,,,,,,,,,,,,,,,,,,,,,,,,,,,,,,,,,,,,,,,,,,,,,,,,,681.1843021800005,None,681.1843021800005,None,681.1843021800005,None,c,1,1.1224381820002236,682.7195465900004,None,682.7195465900004,None,682.7195465900004,None,683.9010460680001,None,683.9010460680001,None,683.9010460680001,None,683.9010460680001,None,,,,,,,,,,,,,,,,,,,,,,,,,,,,,,,,,,,,,,,,,,,,001,4,2020_Jan_28_0956,spring_faces,3.1.5,60.09340522288925,
condition files/Stage1_1.xlsx,,B3,T3,c,"['c', 'm']","['Clue', 'Monopoly']","[-0.15, 0.5]","[0.15, 0.5]",1,1,,,,,,,,,0,2,2,2,0,0,0,4,,,,,,,,,,,,,,,,,,,,,,,,,,,,,,,,,,,,,,,,,,,,,,,,,,,,,,,685.8846320310004,None,685.8846320310004,None,685.8846320310004,None,m,0,0.7751995930002522,687.4347720180003,None,687.4347720180003,None,687.4347720180003,None,688.2678736990001,None,688.2678736990001,None,688.2678736990001,None,688.2678736990001,None,,,,,,,,,,,,,,,,,,,,,,,,,,,,,,,,,,,,,,,,,,,,001,4,2020_Jan_28_0956,spring_faces,3.1.5,60.09340522288925,
condition files/Stage1_1.xlsx,,T2,B2,m,"['c', 'm']","['Clue', 'Monopoly']","[-0.15, 0.5]","[0.15, 0.5]",1,1,,,,,,,,,0,2,2,2,0,1,1,3,,,,,,,,,,,,,,,,,,,,,,,,,,,,,,,,,,,,,,,,,,,,,,,,,,,,,,,690.2337810700001,None,690.2337810700001,None,690.2337810700001,None,m,1,1.4016867430000275,691.7841929610004,None,691.7841929610004,None,691.7841929610004,None,693.2531273390005,None,693.2531273390005,None,693.2531273390005,None,693.2531273390005,None,,,,,,,,,,,,,,,,,,,,,,,,,,,,,,,,,,,,,,,,,,,,001,4,2020_Jan_28_0956,spring_faces,3.1.5,60.09340522288925,
condition files/Stage1_1.xlsx,,B4,T4,m,"['c', 'm']","['Clue', 'Monopoly']","[-0.15, 0.5]","[0.15, 0.5]",1,1,,,,,,,,,0,2,2,2,0,2,2,7,,,,,,,,,,,,,,,,,,,,,,,,,,,,,,,,,,,,,,,,,,,,,,,,,,,,,,,695.2177667830001,None,695.2177667830001,None,695.2177667830001,None,c,0,1.0258583810000346,696.7680617149999,None,696.7680617149999,None,696.7680617149999,None,697.8514508369999,None,697.8514508369999,None,697.8514508369999,None,697.8514508369999,None,,,,,,,,,,,,,,,,,,,,,,,,,,,,,,,,,,,,,,,,,,,,001,4,2020_Jan_28_0956,spring_faces,3.1.5,60.09340522288925,
condition files/Stage1_1.xlsx,,T4,B3,m,"['c', 'm']","['Clue', 'Monopoly']","[-0.15, 0.5]","[0.15, 0.5]",1,1,,,,,,,,,0,2,2,2,0,3,3,6,,,,,,,,,,,,,,,,,,,,,,,,,,,,,,,,,,,,,,,,,,,,,,,,,,,,,,,699.8169971860007,None,699.8169971860007,None,699.8169971860007,None,c,0,0.9849611929994353,701.3529924270006,None,701.3529924270006,None,701.3529924270006,None,702.4011964170004,None,702.4011964170004,None,702.4011964170004,None,702.4011964170004,None,,,,,,,,,,,,,,,,,,,,,,,,,,,,,,,,,,,,,,,,,,,,001,4,2020_Jan_28_0956,spring_faces,3.1.5,60.09340522288925,
condition files/Stage1_1.xlsx,,B2,T1,m,"['c', 'm']","['Clue', 'Monopoly']","[-0.15, 0.5]","[0.15, 0.5]",1,1,,,,,,,,,0,2,2,2,0,4,4,2,,,,,,,,,,,,,,,,,,,,,,,,,,,,,,,,,,,,,,,,,,,,,,,,,,,,,,,704.3679071670003,None,704.3679071670003,None,704.3679071670003,None,m,1,0.819889860999865,705.9180451830007,None,705.9180451830007,None,705.9180451830007,None,706.8012479019999,None,706.8012479019999,None,706.8012479019999,None,706.8012479019999,None,,,,,,,,,,,,,,,,,,,,,,,,,,,,,,,,,,,,,,,,,,,,001,4,2020_Jan_28_0956,spring_faces,3.1.5,60.09340522288925,
condition files/Stage1_1.xlsx,,B1,T2,c,"['c', 'm']","['Clue', 'Monopoly']","[-0.15, 0.5]","[0.15, 0.5]",1,1,,,,,,,,,0,2,2,2,0,5,5,1,,,,,,,,,,,,,,,,,,,,,,,,,,,,,,,,,,,,,,,,,,,,,,,,,,,,,,,708.7676313030006,None,708.7676313030006,None,708.7676313030006,None,c,1,1.1239797489997727,710.3020101600005,None,710.3020101600005,None,710.3020101600005,None,711.5014913300001,None,711.5014913300001,None,711.5014913300001,None,711.5014913300001,None,,,,,,,,,,,,,,,,,,,,,,,,,,,,,,,,,,,,,,,,,,,,001,4,2020_Jan_28_0956,spring_faces,3.1.5,60.09340522288925,
condition files/Stage1_1.xlsx,,T3,B4,c,"['c', 'm']","['Clue', 'Monopoly']","[-0.15, 0.5]","[0.15, 0.5]",1,1,,,,,,,,,0,2,2,2,0,6,6,5,,,,,,,,,,,,,,,,,,,,,,,,,,,,,,,,,,,,,,,,,,,,,,,,,,,,,,,713.450777561,None,713.450777561,None,713.450777561,None,c,1,0.9685861170000862,714.9853750100001,None,714.9853750100001,None,714.9853750100001,None,716.017949389,None,716.017949389,None,716.017949389,None,716.017949389,None,,,,,,,,,,,,,,,,,,,,,,,,,,,,,,,,,,,,,,,,,,,,001,4,2020_Jan_28_0956,spring_faces,3.1.5,60.09340522288925,
condition files/Stage1_1.xlsx,,T1,B1,c,"['c', 'm']","['Clue', 'Monopoly']","[-0.15, 0.5]","[0.15, 0.5]",1,1,,,,,,,,,0,2,2,2,0,7,7,0,,,,,,,,,,,,,,,,,,,,,,,,,,,,,,,,,,,,,,,,,,,,,,,,,,,,,,,717.984367952,None,717.984367952,None,717.984367952,None,m,0,0.8192156249997424,719.5346950580006,None,719.5346950580006,None,719.5346950580006,None,720.4180491040006,None,720.4180491040006,None,720.4180491040006,None,720.4180491040006,None,,,,,,,,,,,,,,,,,,,,,,,,,,,,,,,,,,,,,,,,,,,,001,4,2020_Jan_28_0956,spring_faces,3.1.5,60.09340522288925,
condition files/Stage1_2.xlsx,,T3,B3,c,"['c', 'm']","['Clue', 'Monopoly']","[-0.15, 0.5]","[0.15, 0.5]",1,1,,,,,,,,,0,3,3,3,0,0,0,4,,,,,,,,,,,,,,,,,,,,,,,,,,,,,,,,,,,,,,,,,,,,,,,,,,,,,,,722.4011520650001,None,722.4011520650001,None,722.4011520650001,None,c,1,1.0597243229995001,723.9341908010001,None,723.9341908010001,None,723.9341908010001,None,725.0512029219999,None,725.0512029219999,None,725.0512029219999,None,725.0512029219999,None,,,,,,,,,,,,,,,,,,,,,,,,,,,,,,,,,,,,,,,,,,,,001,4,2020_Jan_28_0956,spring_faces,3.1.5,60.09340522288925,
condition files/Stage1_2.xlsx,,T1,B2,m,"['c', 'm']","['Clue', 'Monopoly']","[-0.15, 0.5]","[0.15, 0.5]",1,1,,,,,,,,,0,3,3,3,0,1,1,2,,,,,,,,,,,,,,,,,,,,,,,,,,,,,,,,,,,,,,,,,,,,,,,,,,,,,,,727.0176331709999,None,727.0176331709999,None,727.0176331709999,None,m,1,0.6826842869995744,728.5512799710004,None,728.5512799710004,None,728.5512799710004,None,729.2867518920002,None,729.2867518920002,None,729.2867518920002,None,729.2867518920002,None,,,,,,,,,,,,,,,,,,,,,,,,,,,,,,,,,,,,,,,,,,,,001,4,2020_Jan_28_0956,spring_faces,3.1.5,60.09340522288925,
condition files/Stage1_2.xlsx,,B2,T2,m,"['c', 'm']","['Clue', 'Monopoly']","[-0.15, 0.5]","[0.15, 0.5]",1,1,,,,,,,,,0,3,3,3,0,2,2,3,,,,,,,,,,,,,,,,,,,,,,,,,,,,,,,,,,,,,,,,,,,,,,,,,,,,,,,731.2509313410001,None,731.2509313410001,None,731.2509313410001,None,c,0,0.8484636759994828,732.8014635100008,None,732.8014635100008,None,732.8014635100008,None,733.701292883,None,733.701292883,None,733.701292883,None,733.701292883,None,,,,,,,,,,,,,,,,,,,,,,,,,,,,,,,,,,,,,,,,,,,,001,4,2020_Jan_28_0956,spring_faces,3.1.5,60.09340522288925,
condition files/Stage1_2.xlsx,,T4,B4,m,"['c', 'm']","['Clue', 'Monopoly']","[-0.15, 0.5]","[0.15, 0.5]",1,1,,,,,,,,,0,3,3,3,0,3,3,7,,,,,,,,,,,,,,,,,,,,,,,,,,,,,,,,,,,,,,,,,,,,,,,,,,,,,,,735.6677976710007,None,735.6677976710007,None,735.6677976710007,None,m,1,1.8081520089999685,737.2018375940006,None,737.2018375940006,None,737.2018375940006,None,739.0673198130007,None,739.0673198130007,None,739.0673198130007,None,739.0673198130007,None,,,,,,,,,,,,,,,,,,,,,,,,,,,,,,,,,,,,,,,,,,,,001,4,2020_Jan_28_0956,spring_faces,3.1.5,60.09340522288925,
condition files/Stage1_2.xlsx,,B3,T4,m,"['c', 'm']","['Clue', 'Monopoly']","[-0.15, 0.5]","[0.15, 0.5]",1,1,,,,,,,,,0,3,3,3,0,4,4,6,,,,,,,,,,,,,,,,,,,,,,,,,,,,,,,,,,,,,,,,,,,,,,,,,,,,,,,741.0338313010006,None,741.0338313010006,None,741.0338313010006,None,c,0,0.7773894999991171,742.5845654900004,None,742.5845654900004,None,742.5845654900004,None,743.4178059410006,None,743.4178059410006,None,743.4178059410006,None,743.4178059410006,None,,,,,,,,,,,,,,,,,,,,,,,,,,,,,,,,,,,,,,,,,,,,001,4,2020_Jan_28_0956,spring_faces,3.1.5,60.09340522288925,
condition files/Stage1_2.xlsx,,B4,T3,c,"['c', 'm']","['Clue', 'Monopoly']","[-0.15, 0.5]","[0.15, 0.5]",1,1,,,,,,,,,0,3,3,3,0,5,5,5,,,,,,,,,,,,,,,,,,,,,,,,,,,,,,,,,,,,,,,,,,,,,,,,,,,,,,,745.3842169310001,None,745.3842169310001,None,745.3842169310001,None,m,0,1.7873332640001536,746.9346078570006,None,746.9346078570006,None,746.9346078570006,None,748.7847031970005,None,748.7847031970005,None,748.7847031970005,None,748.7847031970005,None,,,,,,,,,,,,,,,,,,,,,,,,,,,,,,,,,,,,,,,,,,,,001,4,2020_Jan_28_0956,spring_faces,3.1.5,60.09340522288925,
condition files/Stage1_2.xlsx,,T2,B1,c,"['c', 'm']","['Clue', 'Monopoly']","[-0.15, 0.5]","[0.15, 0.5]",1,1,,,,,,,,,0,3,3,3,0,6,6,1,,,,,,,,,,,,,,,,,,,,,,,,,,,,,,,,,,,,,,,,,,,,,,,,,,,,,,,750.7506990689999,None,750.7506990689999,None,750.7506990689999,None,m,0,1.0139997769992988,752.2841613350001,None,752.2841613350001,None,752.2841613350001,None,753.3512466930006,None,753.3512466930006,None,753.3512466930006,None,753.3512466930006,None,,,,,,,,,,,,,,,,,,,,,,,,,,,,,,,,,,,,,,,,,,,,001,4,2020_Jan_28_0956,spring_faces,3.1.5,60.09340522288925,
condition files/Stage1_2.xlsx,,B1,T1,c,"['c', 'm']","['Clue', 'Monopoly']","[-0.15, 0.5]","[0.15, 0.5]",1,1,,,,,,,,,0,3,3,3,0,7,7,0,,,,,,,,,,,,,,,,,,,,,,,,,,,,,,,,,,,,,,,,,,,,,,,,,,,,,,,755.3173474300002,None,755.3173474300002,None,755.3173474300002,None,m,0,1.470036460999836,756.8519238110002,None,756.8519238110002,None,756.8519238110002,None,758.3851167810008,None,758.3851167810008,None,758.3851167810008,None,758.3851167810008,None,,,,,,,,,,,,,,,,,,,,,,,,,,,,,,,,,,,,,,,,,,,,001,4,2020_Jan_28_0956,spring_faces,3.1.5,60.09340522288925,
condition files/Stage1_1.xlsx,,B4,T4,m,"['c', 'm']","['Clue', 'Monopoly']","[-0.15, 0.5]","[0.15, 0.5]",1,1,,,,,,,,,0,4,4,4,0,0,0,7,,,,,,,,,,,,,,,,,,,,,,,,,,,,,,,,,,,,,,,,,,,,,,,,,,,,,,,760.3675307350004,None,760.3675307350004,None,760.3675307350004,None,m,1,1.571857117000036,761.9180964650004,None,761.9180964650004,None,761.9180964650004,None,763.5681074710001,None,763.5681074710001,None,763.5681074710001,None,763.5681074710001,None,,,,,,,,,,,,,,,,,,,,,,,,,,,,,,,,,,,,,,,,,,,,001,4,2020_Jan_28_0956,spring_faces,3.1.5,60.09340522288925,
condition files/Stage1_1.xlsx,,T3,B4,c,"['c', 'm']","['Clue', 'Monopoly']","[-0.15, 0.5]","[0.15, 0.5]",1,1,,,,,,,,,0,4,4,4,0,1,1,5,,,,,,,,,,,,,,,,,,,,,,,,,,,,,,,,,,,,,,,,,,,,,,,,,,,,,,,765.517659868,None,765.517659868,None,765.517659868,None,c,1,0.8540624039997056,767.0678722840003,None,767.0678722840003,None,767.0678722840003,None,768.0006296020001,None,768.0006296020001,None,768.0006296020001,None,768.0006296020001,None,,,,,,,,,,,,,,,,,,,,,,,,,,,,,,,,,,,,,,,,,,,,001,4,2020_Jan_28_0956,spring_faces,3.1.5,60.09340522288925,
condition files/Stage1_1.xlsx,,T4,B3,m,"['c', 'm']","['Clue', 'Monopoly']","[-0.15, 0.5]","[0.15, 0.5]",1,1,,,,,,,,,0,4,4,4,0,2,2,6,,,,,,,,,,,,,,,,,,,,,,,,,,,,,,,,,,,,,,,,,,,,,,,,,,,,,,,769.9509876000002,None,769.9509876000002,None,769.9509876000002,None,m,1,1.7808734740001455,771.4850540080006,None,771.4850540080006,None,771.4850540080006,None,773.3205814350003,None,773.3205814350003,None,773.3205814350003,None,773.3205814350003,None,,,,,,,,,,,,,,,,,,,,,,,,,,,,,,,,,,,,,,,,,,,,001,4,2020_Jan_28_0956,spring_faces,3.1.5,60.09340522288925,
condition files/Stage1_1.xlsx,,B1,T2,c,"['c', 'm']","['Clue', 'Monopoly']","[-0.15, 0.5]","[0.15, 0.5]",1,1,,,,,,,,,0,4,4,4,0,3,3,1,,,,,,,,,,,,,,,,,,,,,,,,,,,,,,,,,,,,,,,,,,,,,,,,,,,,,,,775.2843900770004,None,775.2843900770004,None,775.2843900770004,None,c,1,1.3754295090002415,776.8345391460007,None,776.8345391460007,None,776.8345391460007,None,778.2686666970003,None,778.2686666970003,None,778.2686666970003,None,778.2686666970003,None,,,,,,,,,,,,,,,,,,,,,,,,,,,,,,,,,,,,,,,,,,,,001,4,2020_Jan_28_0956,spring_faces,3.1.5,60.09340522288925,
condition files/Stage1_1.xlsx,,T1,B1,c,"['c', 'm']","['Clue', 'Monopoly']","[-0.15, 0.5]","[0.15, 0.5]",1,1,,,,,,,,,0,4,4,4,0,4,4,0,,,,,,,,,,,,,,,,,,,,,,,,,,,,,,,,,,,,,,,,,,,,,,,,,,,,,,,780.2345814770006,None,780.2345814770006,None,780.2345814770006,None,m,0,0.9056523119998019,781.7682633550003,None,781.7682633550003,None,781.7682633550003,None,782.7343559890005,None,782.7343559890005,None,782.7343559890005,None,782.7343559890005,None,,,,,,,,,,,,,,,,,,,,,,,,,,,,,,,,,,,,,,,,,,,,001,4,2020_Jan_28_0956,spring_faces,3.1.5,60.09340522288925,
condition files/Stage1_1.xlsx,,B3,T3,c,"['c', 'm']","['Clue', 'Monopoly']","[-0.15, 0.5]","[0.15, 0.5]",1,1,,,,,,,,,0,4,4,4,0,5,5,4,,,,,,,,,,,,,,,,,,,,,,,,,,,,,,,,,,,,,,,,,,,,,,,,,,,,,,,784.7008770120001,None,784.7008770120001,None,784.7008770120001,None,c,1,1.6237963610001316,786.2341877710005,None,786.2341877710005,None,786.2341877710005,None,787.918027705,None,787.918027705,None,787.918027705,None,787.918027705,None,,,,,,,,,,,,,,,,,,,,,,,,,,,,,,,,,,,,,,,,,,,,001,4,2020_Jan_28_0956,spring_faces,3.1.5,60.09340522288925,
condition files/Stage1_1.xlsx,,B2,T1,m,"['c', 'm']","['Clue', 'Monopoly']","[-0.15, 0.5]","[0.15, 0.5]",1,1,,,,,,,,,0,4,4,4,0,6,6,2,,,,,,,,,,,,,,,,,,,,,,,,,,,,,,,,,,,,,,,,,,,,,,,,,,,,,,,789.8838473320002,None,789.8838473320002,None,789.8838473320002,None,c,0,1.624252247000186,791.41773835,None,791.41773835,None,791.41773835,None,793.103442992,None,793.103442992,None,793.103442992,None,793.103442992,None,,,,,,,,,,,,,,,,,,,,,,,,,,,,,,,,,,,,,,,,,,,,001,4,2020_Jan_28_0956,spring_faces,3.1.5,60.09340522288925,
condition files/Stage1_1.xlsx,,T2,B2,m,"['c', 'm']","['Clue', 'Monopoly']","[-0.15, 0.5]","[0.15, 0.5]",1,1,,,,,,,,,0,4,4,4,0,7,7,3,,,,,,,,,,,,,,,,,,,,,,,,,,,,,,,,,,,,,,,,,,,,,,,,,,,,,,,795.067734968,None,795.067734968,None,795.067734968,None,m,1,2.5199449700003242,796.6179923980008,None,796.6179923980008,None,796.6179923980008,None,799.201268758,None,799.201268758,None,799.201268758,None,799.201268758,None,,,,,,,,,,,,,,,,,,,,,,,,,,,,,,,,,,,,,,,,,,,,001,4,2020_Jan_28_0956,spring_faces,3.1.5,60.09340522288925,
condition files/Stage1_2.xlsx,,B1,T1,c,"['c', 'm']","['Clue', 'Monopoly']","[-0.15, 0.5]","[0.15, 0.5]",1,1,,,,,,,,,0,5,5,5,0,0,0,0,,,,,,,,,,,,,,,,,,,,,,,,,,,,,,,,,,,,,,,,,,,,,,,,,,,,,,,801.1845669869999,None,801.1845669869999,None,801.1845669869999,None,m,0,1.7793050850004875,802.7346230920002,None,802.7346230920002,None,802.7346230920002,None,804.5701708790002,None,804.5701708790002,None,804.5701708790002,None,804.5701708790002,None,,,,,,,,,,,,,,,,,,,,,,,,,,,,,,,,,,,,,,,,,,,,001,4,2020_Jan_28_0956,spring_faces,3.1.5,60.09340522288925,
condition files/Stage1_2.xlsx,,T2,B1,c,"['c', 'm']","['Clue', 'Monopoly']","[-0.15, 0.5]","[0.15, 0.5]",1,1,,,,,,,,,0,5,5,5,0,1,1,1,,,,,,,,,,,,,,,,,,,,,,,,,,,,,,,,,,,,,,,,,,,,,,,,,,,,,,,806.5341435910004,None,806.5341435910004,None,806.5341435910004,None,c,1,0.6533834809997643,808.0845594749999,None,808.0845594749999,None,808.0845594749999,None,808.8006346410002,None,808.8006346410002,None,808.8006346410002,None,808.8006346410002,None,,,,,,,,,,,,,,,,,,,,,,,,,,,,,,,,,,,,,,,,,,,,001,4,2020_Jan_28_0956,spring_faces,3.1.5,60.09340522288925,
condition files/Stage1_2.xlsx,,T4,B4,m,"['c', 'm']","['Clue', 'Monopoly']","[-0.15, 0.5]","[0.15, 0.5]",1,1,,,,,,,,,0,5,5,5,0,2,2,7,,,,,,,,,,,,,,,,,,,,,,,,,,,,,,,,,,,,,,,,,,,,,,,,,,,,,,,810.7676526430005,None,810.7676526430005,None,810.7676526430005,None,c,0,2.051474885999596,812.3024572040003,None,812.3024572040003,None,812.3024572040003,None,814.4190606890006,None,814.4190606890006,None,814.4190606890006,None,814.4190606890006,None,,,,,,,,,,,,,,,,,,,,,,,,,,,,,,,,,,,,,,,,,,,,001,4,2020_Jan_28_0956,spring_faces,3.1.5,60.09340522288925,
condition files/Stage1_2.xlsx,,B3,T4,m,"['c', 'm']","['Clue', 'Monopoly']","[-0.15, 0.5]","[0.15, 0.5]",1,1,,,,,,,,,0,5,5,5,0,3,3,6,,,,,,,,,,,,,,,,,,,,,,,,,,,,,,,,,,,,,,,,,,,,,,,,,,,,,,,816.3842945659999,None,816.3842945659999,None,816.3842945659999,None,m,1,0.7235180820007372,817.9344516410001,None,817.9344516410001,None,817.9344516410001,None,818.7176608710006,None,818.7176608710006,None,818.7176608710006,None,818.7176608710006,None,,,,,,,,,,,,,,,,,,,,,,,,,,,,,,,,,,,,,,,,,,,,001,4,2020_Jan_28_0956,spring_faces,3.1.5,60.09340522288925,
condition files/Stage1_2.xlsx,,T3,B3,c,"['c', 'm']","['Clue', 'Monopoly']","[-0.15, 0.5]","[0.15, 0.5]",1,1,,,,,,,,,0,5,5,5,0,4,4,4,,,,,,,,,,,,,,,,,,,,,,,,,,,,,,,,,,,,,,,,,,,,,,,,,,,,,,,820.6842818140003,None,820.6842818140003,None,820.6842818140003,None,c,1,0.9661683559997982,822.2197273470001,None,822.2197273470001,None,822.2197273470001,None,823.2534158520002,None,823.2534158520002,None,823.2534158520002,None,823.2534158520002,None,,,,,,,,,,,,,,,,,,,,,,,,,,,,,,,,,,,,,,,,,,,,001,4,2020_Jan_28_0956,spring_faces,3.1.5,60.09340522288925,
condition files/Stage1_2.xlsx,,T1,B2,m,"['c', 'm']","['Clue', 'Monopoly']","[-0.15, 0.5]","[0.15, 0.5]",1,1,,,,,,,,,0,5,5,5,0,5,5,2,,,,,,,,,,,,,,,,,,,,,,,,,,,,,,,,,,,,,,,,,,,,,,,,,,,,,,,825.2178732570001,None,825.2178732570001,None,825.2178732570001,None,m,1,2.0662070880007377,826.7677363760004,None,826.7677363760004,None,826.7677363760004,None,828.901561486,None,828.901561486,None,828.901561486,None,828.901561486,None,,,,,,,,,,,,,,,,,,,,,,,,,,,,,,,,,,,,,,,,,,,,001,4,2020_Jan_28_0956,spring_faces,3.1.5,60.09340522288925,
condition files/Stage1_2.xlsx,,B2,T2,m,"['c', 'm']","['Clue', 'Monopoly']","[-0.15, 0.5]","[0.15, 0.5]",1,1,,,,,,,,,0,5,5,5,0,6,6,3,,,,,,,,,,,,,,,,,,,,,,,,,,,,,,,,,,,,,,,,,,,,,,,,,,,,,,,830.8506967250005,None,830.8506967250005,None,830.8506967250005,None,c,0,1.5044621090000874,832.4014730420004,None,832.4014730420004,None,832.4014730420004,None,833.9682609219999,None,833.9682609219999,None,833.9682609219999,None,833.9682609219999,None,,,,,,,,,,,,,,,,,,,,,,,,,,,,,,,,,,,,,,,,,,,,001,4,2020_Jan_28_0956,spring_faces,3.1.5,60.09340522288925,
condition files/Stage1_2.xlsx,,B4,T3,c,"['c', 'm']","['Clue', 'Monopoly']","[-0.15, 0.5]","[0.15, 0.5]",1,1,,,,,,,,,0,5,5,5,0,7,7,5,,,,,,,,,,,,,,,,,,,,,,,,,,,,,,,,,,,,,,,,,,,,,,,,,,,,,,,835.9342326400001,None,835.9342326400001,None,835.9342326400001,None,c,1,0.9335479110004599,837.4683377010006,None,837.4683377010006,None,837.4683377010006,None,838.484541883,None,838.484541883,None,838.484541883,None,838.484541883,None,,,,,,,,,,,,,,,,,,,,,,,,,,,,,,,,,,,,,,,,,,,,001,4,2020_Jan_28_0956,spring_faces,3.1.5,60.09340522288925,
condition files/Stage1_1.xlsx,,T1,B1,c,"['c', 'm']","['Clue', 'Monopoly']","[-0.15, 0.5]","[0.15, 0.5]",1,1,,,,,,,,,0,6,6,6,0,0,0,0,,,,,,,,,,,,,,,,,,,,,,,,,,,,,,,,,,,,,,,,,,,,,,,,,,,,,,,840.4508863260007,None,840.4508863260007,None,840.4508863260007,None,m,0,1.6010931790005998,842.0007955780002,None,842.0007955780002,None,842.0007955780002,None,843.6676947810001,None,843.6676947810001,None,843.6676947810001,None,843.6676947810001,None,,,,,,,,,,,,,,,,,,,,,,,,,,,,,,,,,,,,,,,,,,,,001,4,2020_Jan_28_0956,spring_faces,3.1.5,60.09340522288925,
condition files/Stage1_1.xlsx,,B3,T3,c,"['c', 'm']","['Clue', 'Monopoly']","[-0.15, 0.5]","[0.15, 0.5]",1,1,,,,,,,,,0,6,6,6,0,1,1,4,,,,,,,,,,,,,,,,,,,,,,,,,,,,,,,,,,,,,,,,,,,,,,,,,,,,,,,845.6342684830006,None,845.6342684830006,None,845.6342684830006,None,c,1,0.8479867719997856,847.169894961,None,847.169894961,None,847.169894961,None,848.0674946260006,None,848.0674946260006,None,848.0674946260006,None,848.0674946260006,None,,,,,,,,,,,,,,,,,,,,,,,,,,,,,,,,,,,,,,,,,,,,001,4,2020_Jan_28_0956,spring_faces,3.1.5,60.09340522288925,
condition files/Stage1_1.xlsx,,B2,T1,m,"['c', 'm']","['Clue', 'Monopoly']","[-0.15, 0.5]","[0.15, 0.5]",1,1,,,,,,,,,0,6,6,6,0,2,2,2,,,,,,,,,,,,,,,,,,,,,,,,,,,,,,,,,,,,,,,,,,,,,,,,,,,,,,,850.0340741870004,None,850.0340741870004,None,850.0340741870004,None,c,0,1.6959212519996072,851.5699996310004,None,851.5699996310004,None,851.5699996310004,None,853.3348226610005,None,853.3348226610005,None,853.3348226610005,None,853.3348226610005,None,,,,,,,,,,,,,,,,,,,,,,,,,,,,,,,,,,,,,,,,,,,,001,4,2020_Jan_28_0956,spring_faces,3.1.5,60.09340522288925,
condition files/Stage1_1.xlsx,,T4,B3,m,"['c', 'm']","['Clue', 'Monopoly']","[-0.15, 0.5]","[0.15, 0.5]",1,1,,,,,,,,,0,6,6,6,0,3,3,6,,,,,,,,,,,,,,,,,,,,,,,,,,,,,,,,,,,,,,,,,,,,,,,,,,,,,,,855.2842713790005,None,855.2842713790005,None,855.2842713790005,None,m,1,1.5987847790001979,856.8191868550002,None,856.8191868550002,None,856.8191868550002,None,858.4671813539999,None,858.4671813539999,None,858.4671813539999,None,858.4671813539999,None,,,,,,,,,,,,,,,,,,,,,,,,,,,,,,,,,,,,,,,,,,,,001,4,2020_Jan_28_0956,spring_faces,3.1.5,60.09340522288925,
condition files/Stage1_1.xlsx,,T3,B4,c,"['c', 'm']","['Clue', 'Monopoly']","[-0.15, 0.5]","[0.15, 0.5]",1,1,,,,,,,,,0,6,6,6,0,4,4,5,,,,,,,,,,,,,,,,,,,,,,,,,,,,,,,,,,,,,,,,,,,,,,,,,,,,,,,860.4340822170007,None,860.4340822170007,None,860.4340822170007,None,c,1,0.8485752300002787,861.9693701850001,None,861.9693701850001,None,861.9693701850001,None,862.8846012170006,None,862.8846012170006,None,862.8846012170006,None,862.8846012170006,None,,,,,,,,,,,,,,,,,,,,,,,,,,,,,,,,,,,,,,,,,,,,001,4,2020_Jan_28_0956,spring_faces,3.1.5,60.09340522288925,
condition files/Stage1_1.xlsx,,B4,T4,m,"['c', 'm']","['Clue', 'Monopoly']","[-0.15, 0.5]","[0.15, 0.5]",1,1,,,,,,,,,0,6,6,6,0,5,5,7,,,,,,,,,,,,,,,,,,,,,,,,,,,,,,,,,,,,,,,,,,,,,,,,,,,,,,,864.8338980520002,None,864.8338980520002,None,864.8338980520002,None,c,0,1.6818783709995841,866.3680821380003,None,866.3680821380003,None,866.3680821380003,None,868.1179401950003,None,868.1179401950003,None,868.1179401950003,None,868.1179401950003,None,,,,,,,,,,,,,,,,,,,,,,,,,,,,,,,,,,,,,,,,,,,,001,4,2020_Jan_28_0956,spring_faces,3.1.5,60.09340522288925,
condition files/Stage1_1.xlsx,,B1,T2,c,"['c', 'm']","['Clue', 'Monopoly']","[-0.15, 0.5]","[0.15, 0.5]",1,1,,,,,,,,,0,6,6,6,0,6,6,1,,,,,,,,,,,,,,,,,,,,,,,,,,,,,,,,,,,,,,,,,,,,,,,,,,,,,,,870.067043512,None,870.067043512,None,870.067043512,None,m,0,1.2158880120005051,871.602083711,None,871.602083711,None,871.602083711,None,872.884528601,None,872.884528601,None,872.884528601,None,872.884528601,None,,,,,,,,,,,,,,,,,,,,,,,,,,,,,,,,,,,,,,,,,,,,001,4,2020_Jan_28_0956,spring_faces,3.1.5,60.09340522288925,
condition files/Stage1_1.xlsx,,T2,B2,m,"['c', 'm']","['Clue', 'Monopoly']","[-0.15, 0.5]","[0.15, 0.5]",1,1,,,,,,,,,0,6,6,6,0,7,7,3,,,,,,,,,,,,,,,,,,,,,,,,,,,,,,,,,,,,,,,,,,,,,,,,,,,,,,,874.8338770090004,None,874.8338770090004,None,874.8338770090004,None,m,1,1.8576346749996446,876.3843419909999,None,876.3843419909999,None,876.3843419909999,None,878.3040003120004,None,878.3040003120004,None,878.3040003120004,None,878.3040003120004,None,,,,,,,,,,,,,,,,,,,,,,,,,,,,,,,,,,,,,,,,,,,,001,4,2020_Jan_28_0956,spring_faces,3.1.5,60.09340522288925,
condition files/Stage1_2.xlsx,,T1,B2,m,"['c', 'm']","['Clue', 'Monopoly']","[-0.15, 0.5]","[0.15, 0.5]",1,1,,,,,,,,,0,7,7,7,0,0,0,2,,,,,,,,,,,,,,,,,,,,,,,,,,,,,,,,,,,,,,,,,,,,,,,,,,,,,,,880.284771525,None,880.284771525,None,880.284771525,None,m,1,1.1909861129997807,881.8350011930006,None,881.8350011930006,None,881.8350011930006,None,883.0843460060005,None,883.0843460060005,None,883.0843460060005,None,883.0843460060005,None,,,,,,,,,,,,,,,,,,,,,,,,,,,,,,,,,,,,,,,,,,,,001,4,2020_Jan_28_0956,spring_faces,3.1.5,60.09340522288925,
condition files/Stage1_2.xlsx,,T4,B4,m,"['c', 'm']","['Clue', 'Monopoly']","[-0.15, 0.5]","[0.15, 0.5]",1,1,,,,,,,,,0,7,7,7,0,1,1,7,,,,,,,,,,,,,,,,,,,,,,,,,,,,,,,,,,,,,,,,,,,,,,,,,,,,,,,885.0507074370007,None,885.0507074370007,None,885.0507074370007,None,c,0,2.008960637999735,886.6010173250006,None,886.6010173250006,None,886.6010173250006,None,888.6676969590008,None,888.6676969590008,None,888.6676969590008,None,888.6676969590008,None,,,,,,,,,,,,,,,,,,,,,,,,,,,,,,,,,,,,,,,,,,,,001,4,2020_Jan_28_0956,spring_faces,3.1.5,60.09340522288925,
condition files/Stage1_2.xlsx,,B2,T2,m,"['c', 'm']","['Clue', 'Monopoly']","[-0.15, 0.5]","[0.15, 0.5]",1,1,,,,,,,,,0,7,7,7,0,2,2,3,,,,,,,,,,,,,,,,,,,,,,,,,,,,,,,,,,,,,,,,,,,,,,,,,,,,,,,890.6336899369999,None,890.6336899369999,None,890.6336899369999,None,m,1,1.2093002129995511,892.1686949650002,None,892.1686949650002,None,892.1686949650002,None,893.4343756880007,None,893.4343756880007,None,893.4343756880007,None,893.4343756880007,None,,,,,,,,,,,,,,,,,,,,,,,,,,,,,,,,,,,,,,,,,,,,001,4,2020_Jan_28_0956,spring_faces,3.1.5,60.09340522288925,
condition files/Stage1_2.xlsx,,T2,B1,c,"['c', 'm']","['Clue', 'Monopoly']","[-0.15, 0.5]","[0.15, 0.5]",1,1,,,,,,,,,0,7,7,7,0,3,3,1,,,,,,,,,,,,,,,,,,,,,,,,,,,,,,,,,,,,,,,,,,,,,,,,,,,,,,,895.4005556900001,None,895.4005556900001,None,895.4005556900001,None,m,0,2.5237517109999317,896.9342064660004,None,896.9342064660004,None,896.9342064660004,None,899.5340504020005,None,899.5340504020005,None,899.5340504020005,None,899.5340504020005,None,,,,,,,,,,,,,,,,,,,,,,,,,,,,,,,,,,,,,,,,,,,,001,4,2020_Jan_28_0956,spring_faces,3.1.5,60.09340522288925,
condition files/Stage1_2.xlsx,,B3,T4,m,"['c', 'm']","['Clue', 'Monopoly']","[-0.15, 0.5]","[0.15, 0.5]",1,1,,,,,,,,,0,7,7,7,0,4,4,6,,,,,,,,,,,,,,,,,,,,,,,,,,,,,,,,,,,,,,,,,,,,,,,,,,,,,,,901.4839564570002,None,901.4839564570002,None,901.4839564570002,None,c,0,1.655768210000133,903.0181985590007,None,903.0181985590007,None,903.0181985590007,None,904.7336056590002,None,904.7336056590002,None,904.7336056590002,None,904.7336056590002,None,,,,,,,,,,,,,,,,,,,,,,,,,,,,,,,,,,,,,,,,,,,,001,4,2020_Jan_28_0956,spring_faces,3.1.5,60.09340522288925,
condition files/Stage1_2.xlsx,,B1,T1,c,"['c', 'm']","['Clue', 'Monopoly']","[-0.15, 0.5]","[0.15, 0.5]",1,1,,,,,,,,,0,7,7,7,0,5,5,0,,,,,,,,,,,,,,,,,,,,,,,,,,,,,,,,,,,,,,,,,,,,,,,,,,,,,,,906.7005671650004,None,906.7005671650004,None,906.7005671650004,None,c,1,1.687497169999915,908.2344670800003,None,908.2344670800003,None,908.2344670800003,None,909.9839027220005,None,909.9839027220005,None,909.9839027220005,None,909.9839027220005,None,,,,,,,,,,,,,,,,,,,,,,,,,,,,,,,,,,,,,,,,,,,,001,4,2020_Jan_28_0956,spring_faces,3.1.5,60.09340522288925,
condition files/Stage1_2.xlsx,,B4,T3,c,"['c', 'm']","['Clue', 'Monopoly']","[-0.15, 0.5]","[0.15, 0.5]",1,1,,,,,,,,,0,7,7,7,0,6,6,5,,,,,,,,,,,,,,,,,,,,,,,,,,,,,,,,,,,,,,,,,,,,,,,,,,,,,,,911.9511648010002,None,911.9511648010002,None,911.9511648010002,None,c,1,0.5168790520001494,913.4850085170001,None,913.4850085170001,None,913.4850085170001,None,914.068034416,None,914.068034416,None,914.068034416,None,914.068034416,None,,,,,,,,,,,,,,,,,,,,,,,,,,,,,,,,,,,,,,,,,,,,001,4,2020_Jan_28_0956,spring_faces,3.1.5,60.09340522288925,
condition files/Stage1_2.xlsx,,T3,B3,c,"['c', 'm']","['Clue', 'Monopoly']","[-0.15, 0.5]","[0.15, 0.5]",1,1,,,,,,,,,0,7,7,7,0,7,7,4,,,,,,,,,,,,,,,,,,,,,,,,,,,,,,,,,,,,,,,,,,,,,,,,,,,,,,,916.0343285980007,None,916.0343285980007,None,916.0343285980007,None,c,1,0.721078808999664,917.584853032,None,917.584853032,None,917.584853032,None,918.3677215110001,None,918.3677215110001,None,918.3677215110001,None,918.3677215110001,None,,,,,,,,,,,,,,,,,,,,,,,,,,,,,,,,,,,,,,,,,,,,001,4,2020_Jan_28_0956,spring_faces,3.1.5,60.09340522288925,
condition files/Stage1_1.xlsx,,B4,T4,m,"['c', 'm']","['Clue', 'Monopoly']","[-0.15, 0.5]","[0.15, 0.5]",1,1,,,,,,,,,0,8,8,8,0,0,0,7,,,,,,,,,,,,,,,,,,,,,,,,,,,,,,,,,,,,,,,,,,,,,,,,,,,,,,,920.3512759250007,None,920.3512759250007,None,920.3512759250007,None,m,1,1.4929481890003444,921.9009805390006,None,921.9009805390006,None,921.9009805390006,None,923.4677391640007,None,923.4677391640007,None,923.4677391640007,None,923.4677391640007,None,,,,,,,,,,,,,,,,,,,,,,,,,,,,,,,,,,,,,,,,,,,,001,4,2020_Jan_28_0956,spring_faces,3.1.5,60.09340522288925,
condition files/Stage1_1.xlsx,,T3,B4,c,"['c', 'm']","['Clue', 'Monopoly']","[-0.15, 0.5]","[0.15, 0.5]",1,1,,,,,,,,,0,8,8,8,0,1,1,5,,,,,,,,,,,,,,,,,,,,,,,,,,,,,,,,,,,,,,,,,,,,,,,,,,,,,,,925.4177509890005,None,925.4177509890005,None,925.4177509890005,None,c,1,0.9861060960001851,926.9678096600001,None,926.9678096600001,None,926.9678096600001,None,928.019199499,None,928.019199499,None,928.019199499,None,928.019199499,None,,,,,,,,,,,,,,,,,,,,,,,,,,,,,,,,,,,,,,,,,,,,001,4,2020_Jan_28_0956,spring_faces,3.1.5,60.09340522288925,
condition files/Stage1_1.xlsx,,B3,T3,c,"['c', 'm']","['Clue', 'Monopoly']","[-0.15, 0.5]","[0.15, 0.5]",1,1,,,,,,,,,0,8,8,8,0,2,2,4,,,,,,,,,,,,,,,,,,,,,,,,,,,,,,,,,,,,,,,,,,,,,,,,,,,,,,,929.9843025350001,None,929.9843025350001,None,929.9843025350001,None,c,1,0.9467891200001759,931.519160367,None,931.519160367,None,931.519160367,None,932.5180808280002,None,932.5180808280002,None,932.5180808280002,None,932.5180808280002,None,,,,,,,,,,,,,,,,,,,,,,,,,,,,,,,,,,,,,,,,,,,,001,4,2020_Jan_28_0956,spring_faces,3.1.5,60.09340522288925,
condition files/Stage1_1.xlsx,,T1,B1,c,"['c', 'm']","['Clue', 'Monopoly']","[-0.15, 0.5]","[0.15, 0.5]",1,1,,,,,,,,,0,8,8,8,0,3,3,0,,,,,,,,,,,,,,,,,,,,,,,,,,,,,,,,,,,,,,,,,,,,,,,,,,,,,,,934.4844089779999,None,934.4844089779999,None,934.4844089779999,None,m,0,0.9590240039997298,936.0189478070006,None,936.0189478070006,None,936.0189478070006,None,937.0338869490006,None,937.0338869490006,None,937.0338869490006,None,937.0338869490006,None,,,,,,,,,,,,,,,,,,,,,,,,,,,,,,,,,,,,,,,,,,,,001,4,2020_Jan_28_0956,spring_faces,3.1.5,60.09340522288925,
condition files/Stage1_1.xlsx,,T4,B3,m,"['c', 'm']","['Clue', 'Monopoly']","[-0.15, 0.5]","[0.15, 0.5]",1,1,,,,,,,,,0,8,8,8,0,4,4,6,,,,,,,,,,,,,,,,,,,,,,,,,,,,,,,,,,,,,,,,,,,,,,,,,,,,,,,939.000676179,None,939.000676179,None,939.000676179,None,m,1,0.9238284060002115,940.5341663700001,None,940.5341663700001,None,940.5341663700001,None,941.5202904140006,None,941.5202904140006,None,941.5202904140006,None,941.5202904140006,None,,,,,,,,,,,,,,,,,,,,,,,,,,,,,,,,,,,,,,,,,,,,001,4,2020_Jan_28_0956,spring_faces,3.1.5,60.09340522288925,
condition files/Stage1_1.xlsx,,B1,T2,c,"['c', 'm']","['Clue', 'Monopoly']","[-0.15, 0.5]","[0.15, 0.5]",1,1,,,,,,,,,0,8,8,8,0,5,5,1,,,,,,,,,,,,,,,,,,,,,,,,,,,,,,,,,,,,,,,,,,,,,,,,,,,,,,,943.4838017030006,None,943.4838017030006,None,943.4838017030006,None,c,1,0.5520633030000681,945.0178485790002,None,945.0178485790002,None,945.0178485790002,None,945.6510223519999,None,945.6510223519999,None,945.6510223519999,None,945.6510223519999,None,,,,,,,,,,,,,,,,,,,,,,,,,,,,,,,,,,,,,,,,,,,,001,4,2020_Jan_28_0956,spring_faces,3.1.5,60.09340522288925,
condition files/Stage1_1.xlsx,,B2,T1,m,"['c', 'm']","['Clue', 'Monopoly']","[-0.15, 0.5]","[0.15, 0.5]",1,1,,,,,,,,,0,8,8,8,0,6,6,2,,,,,,,,,,,,,,,,,,,,,,,,,,,,,,,,,,,,,,,,,,,,,,,,,,,,,,,947.6015039470003,None,947.6015039470003,None,947.6015039470003,None,m,1,1.314835263000532,949.1351278860002,None,949.1351278860002,None,949.1351278860002,None,950.502835327,None,950.502835327,None,950.502835327,None,950.502835327,None,,,,,,,,,,,,,,,,,,,,,,,,,,,,,,,,,,,,,,,,,,,,001,4,2020_Jan_28_0956,spring_faces,3.1.5,60.09340522288925,
condition files/Stage1_1.xlsx,,T2,B2,m,"['c', 'm']","['Clue', 'Monopoly']","[-0.15, 0.5]","[0.15, 0.5]",1,1,,,,,,,,,0,8,8,8,0,7,7,3,,,,,,,,,,,,,,,,,,,,,,,,,,,,,,,,,,,,,,,,,,,,,,,,,,,,,,,952.4675723520004,None,952.4675723520004,None,952.4675723520004,None,m,1,0.7690168789995369,954.000930657,None,954.000930657,None,954.000930657,None,954.8340840910005,None,954.8340840910005,None,954.8340840910005,None,954.8340840910005,None,,,,,,,,,,,,,,,,,,,,,,,,,,,,,,,,,,,,,,,,,,,,001,4,2020_Jan_28_0956,spring_faces,3.1.5,60.09340522288925,
condition files/Stage1_2.xlsx,,T1,B2,m,"['c', 'm']","['Clue', 'Monopoly']","[-0.15, 0.5]","[0.15, 0.5]",1,1,,,,,,,,,0,9,9,9,0,0,0,2,,,,,,,,,,,,,,,,,,,,,,,,,,,,,,,,,,,,,,,,,,,,,,,,,,,,,,,956.8176116290006,None,956.8176116290006,None,956.8176116290006,None,m,1,0.7381387790001099,958.367818744,None,958.367818744,None,958.367818744,None,959.1677467700001,None,959.1677467700001,None,959.1677467700001,None,959.1677467700001,None,,,,,,,,,,,,,,,,,,,,,,,,,,,,,,,,,,,,,,,,,,,,001,4,2020_Jan_28_0956,spring_faces,3.1.5,60.09340522288925,
condition files/Stage1_2.xlsx,,T4,B4,m,"['c', 'm']","['Clue', 'Monopoly']","[-0.15, 0.5]","[0.15, 0.5]",1,1,,,,,,,,,0,9,9,9,0,1,1,7,,,,,,,,,,,,,,,,,,,,,,,,,,,,,,,,,,,,,,,,,,,,,,,,,,,,,,,961.1340674319999,None,961.1340674319999,None,961.1340674319999,None,m,1,1.7812707809998756,962.6846645690002,None,962.6846645690002,None,962.6846645690002,None,964.5179727800005,None,964.5179727800005,None,964.5179727800005,None,964.5179727800005,None,,,,,,,,,,,,,,,,,,,,,,,,,,,,,,,,,,,,,,,,,,,,001,4,2020_Jan_28_0956,spring_faces,3.1.5,60.09340522288925,
condition files/Stage1_2.xlsx,,T3,B3,c,"['c', 'm']","['Clue', 'Monopoly']","[-0.15, 0.5]","[0.15, 0.5]",1,1,,,,,,,,,0,9,9,9,0,2,2,4,,,,,,,,,,,,,,,,,,,,,,,,,,,,,,,,,,,,,,,,,,,,,,,,,,,,,,,966.4843141010006,None,966.4843141010006,None,966.4843141010006,None,c,1,0.560404899999412,968.0175940590007,None,968.0175940590007,None,968.0175940590007,None,968.6359906430007,None,968.6359906430007,None,968.6359906430007,None,968.6359906430007,None,,,,,,,,,,,,,,,,,,,,,,,,,,,,,,,,,,,,,,,,,,,,001,4,2020_Jan_28_0956,spring_faces,3.1.5,60.09340522288925,
condition files/Stage1_2.xlsx,,B1,T1,c,"['c', 'm']","['Clue', 'Monopoly']","[-0.15, 0.5]","[0.15, 0.5]",1,1,,,,,,,,,0,9,9,9,0,3,3,0,,,,,,,,,,,,,,,,,,,,,,,,,,,,,,,,,,,,,,,,,,,,,,,,,,,,,,,970.6009638100004,None,970.6009638100004,None,970.6009638100004,None,c,1,0.7471649670005718,972.1507437370001,None,972.1507437370001,None,972.1507437370001,None,972.9505703760005,None,972.9505703760005,None,972.9505703760005,None,972.9505703760005,None,,,,,,,,,,,,,,,,,,,,,,,,,,,,,,,,,,,,,,,,,,,,001,4,2020_Jan_28_0956,spring_faces,3.1.5,60.09340522288925,
condition files/Stage1_2.xlsx,,B3,T4,m,"['c', 'm']","['Clue', 'Monopoly']","[-0.15, 0.5]","[0.15, 0.5]",1,1,,,,,,,,,0,9,9,9,0,4,4,6,,,,,,,,,,,,,,,,,,,,,,,,,,,,,,,,,,,,,,,,,,,,,,,,,,,,,,,974.9176286110005,None,974.9176286110005,None,974.9176286110005,None,m,1,1.054447984000035,976.4515152849999,None,976.4515152849999,None,976.4515152849999,None,977.5685981610004,None,977.5685981610004,None,977.5685981610004,None,977.5685981610004,None,,,,,,,,,,,,,,,,,,,,,,,,,,,,,,,,,,,,,,,,,,,,001,4,2020_Jan_28_0956,spring_faces,3.1.5,60.09340522288925,
condition files/Stage1_2.xlsx,,B2,T2,m,"['c', 'm']","['Clue', 'Monopoly']","[-0.15, 0.5]","[0.15, 0.5]",1,1,,,,,,,,,0,9,9,9,0,5,5,3,,,,,,,,,,,,,,,,,,,,,,,,,,,,,,,,,,,,,,,,,,,,,,,,,,,,,,,979.5344640789999,None,979.5344640789999,None,979.5344640789999,None,m,1,0.8683611610003936,981.0696103670007,None,981.0696103670007,None,981.0696103670007,None,982.0012243310002,None,982.0012243310002,None,982.0012243310002,None,982.0012243310002,None,,,,,,,,,,,,,,,,,,,,,,,,,,,,,,,,,,,,,,,,,,,,001,4,2020_Jan_28_0956,spring_faces,3.1.5,60.09340522288925,
condition files/Stage1_2.xlsx,,B4,T3,c,"['c', 'm']","['Clue', 'Monopoly']","[-0.15, 0.5]","[0.15, 0.5]",1,1,,,,,,,,,0,9,9,9,0,6,6,5,,,,,,,,,,,,,,,,,,,,,,,,,,,,,,,,,,,,,,,,,,,,,,,,,,,,,,,983.9674552420001,None,983.9674552420001,None,983.9674552420001,None,c,1,0.6760408190002636,985.5178921249999,None,985.5178921249999,None,985.5178921249999,None,986.2530396080001,None,986.2530396080001,None,986.2530396080001,None,986.2530396080001,None,,,,,,,,,,,,,,,,,,,,,,,,,,,,,,,,,,,,,,,,,,,,001,4,2020_Jan_28_0956,spring_faces,3.1.5,60.09340522288925,
condition files/Stage1_2.xlsx,,T2,B1,c,"['c', 'm']","['Clue', 'Monopoly']","[-0.15, 0.5]","[0.15, 0.5]",1,1,,,,,,,,,0,9,9,9,0,7,7,1,,,,,,,,,,,,,,,,,,,,,,,,,,,,,,,,,,,,,,,,,,,,,,,,,,,,,,,988.2179284450003,None,988.2179284450003,None,988.2179284450003,None,c,1,1.1765910229996734,989.7533130920001,None,989.7533130920001,None,989.7533130920001,None,990.9845175700002,None,990.9845175700002,None,990.9845175700002,None,990.9845175700002,None,,,,,,,,,,,,,,,,,,,,,,,,,,,,,,,,,,,,,,,,,,,,001,4,2020_Jan_28_0956,spring_faces,3.1.5,60.09340522288925,
condition files/Stage1_1.xlsx,,T1,B1,c,"['c', 'm']","['Clue', 'Monopoly']","[-0.15, 0.5]","[0.15, 0.5]",1,1,,,,,,,,,0,10,10,10,0,0,0,0,,,,,,,,,,,,,,,,,,,,,,,,,,,,,,,,,,,,,,,,,,,,,,,,,,,,,,,992.9680162700006,None,992.9680162700006,None,992.9680162700006,None,c,1,0.8447689710001214,994.5011253120001,None,994.5011253120001,None,994.5011253120001,None,995.4012485420008,None,995.4012485420008,None,995.4012485420008,None,995.4012485420008,None,,,,,,,,,,,,,,,,,,,,,,,,,,,,,,,,,,,,,,,,,,,,001,4,2020_Jan_28_0956,spring_faces,3.1.5,60.09340522288925,
condition files/Stage1_1.xlsx,,T4,B3,m,"['c', 'm']","['Clue', 'Monopoly']","[-0.15, 0.5]","[0.15, 0.5]",1,1,,,,,,,,,0,10,10,10,0,1,1,6,,,,,,,,,,,,,,,,,,,,,,,,,,,,,,,,,,,,,,,,,,,,,,,,,,,,,,,997.3678960140005,None,997.3678960140005,None,997.3678960140005,None,m,1,0.8764059599998291,998.9015795960004,None,998.9015795960004,None,998.9015795960004,None,999.8364431250002,None,999.8364431250002,None,999.8364431250002,None,999.8364431250002,None,,,,,,,,,,,,,,,,,,,,,,,,,,,,,,,,,,,,,,,,,,,,001,4,2020_Jan_28_0956,spring_faces,3.1.5,60.09340522288925,
condition files/Stage1_1.xlsx,,B3,T3,c,"['c', 'm']","['Clue', 'Monopoly']","[-0.15, 0.5]","[0.15, 0.5]",1,1,,,,,,,,,0,10,10,10,0,2,2,4,,,,,,,,,,,,,,,,,,,,,,,,,,,,,,,,,,,,,,,,,,,,,,,,,,,,,,,1001.801035292,None,1001.801035292,None,1001.801035292,None,c,1,1.2426490610005203,1003.3512588829999,None,1003.3512588829999,None,1003.3512588829999,None,1004.6538233950005,None,1004.6538233950005,None,1004.6538233950005,None,1004.6538233950005,None,,,,,,,,,,,,,,,,,,,,,,,,,,,,,,,,,,,,,,,,,,,,001,4,2020_Jan_28_0956,spring_faces,3.1.5,60.09340522288925,
condition files/Stage1_1.xlsx,,T3,B4,c,"['c', 'm']","['Clue', 'Monopoly']","[-0.15, 0.5]","[0.15, 0.5]",1,1,,,,,,,,,0,10,10,10,0,3,3,5,,,,,,,,,,,,,,,,,,,,,,,,,,,,,,,,,,,,,,,,,,,,,,,,,,,,,,,1006.6172426769999,None,1006.6172426769999,None,1006.6172426769999,None,c,1,0.6986984669993035,1008.1672372359999,None,1008.1672372359999,None,1008.1672372359999,None,1008.9178139730002,None,1008.9178139730002,None,1008.9178139730002,None,1008.9178139730002,None,,,,,,,,,,,,,,,,,,,,,,,,,,,,,,,,,,,,,,,,,,,,001,4,2020_Jan_28_0956,spring_faces,3.1.5,60.09340522288925,
condition files/Stage1_1.xlsx,,B4,T4,m,"['c', 'm']","['Clue', 'Monopoly']","[-0.15, 0.5]","[0.15, 0.5]",1,1,,,,,,,,,0,10,10,10,0,4,4,7,,,,,,,,,,,,,,,,,,,,,,,,,,,,,,,,,,,,,,,,,,,,,,,,,,,,,,,1010.8842478670003,None,1010.8842478670003,None,1010.8842478670003,None,m,1,1.0235125259996494,1012.4184853920005,None,1012.4184853920005,None,1012.4184853920005,None,1013.5178708110006,None,1013.5178708110006,None,1013.5178708110006,None,1013.5178708110006,None,,,,,,,,,,,,,,,,,,,,,,,,,,,,,,,,,,,,,,,,,,,,001,4,2020_Jan_28_0956,spring_faces,3.1.5,60.09340522288925,
condition files/Stage1_1.xlsx,,B1,T2,c,"['c', 'm']","['Clue', 'Monopoly']","[-0.15, 0.5]","[0.15, 0.5]",1,1,,,,,,,,,0,10,10,10,0,5,5,1,,,,,,,,,,,,,,,,,,,,,,,,,,,,,,,,,,,,,,,,,,,,,,,,,,,,,,,1015.4676690160004,None,1015.4676690160004,None,1015.4676690160004,None,c,1,1.368914290000248,1017.0010245840003,None,1017.0010245840003,None,1017.0010245840003,None,1018.4511769770006,None,1018.4511769770006,None,1018.4511769770006,None,1018.4511769770006,None,,,,,,,,,,,,,,,,,,,,,,,,,,,,,,,,,,,,,,,,,,,,001,4,2020_Jan_28_0956,spring_faces,3.1.5,60.09340522288925,
condition files/Stage1_1.xlsx,,T2,B2,m,"['c', 'm']","['Clue', 'Monopoly']","[-0.15, 0.5]","[0.15, 0.5]",1,1,,,,,,,,,0,10,10,10,0,6,6,3,,,,,,,,,,,,,,,,,,,,,,,,,,,,,,,,,,,,,,,,,,,,,,,,,,,,,,,1020.4003238040004,None,1020.4003238040004,None,1020.4003238040004,None,m,1,0.9464194339998357,1021.9514211960004,None,1021.9514211960004,None,1021.9514211960004,None,1022.9536023589999,None,1022.9536023589999,None,1022.9536023589999,None,1022.9536023589999,None,,,,,,,,,,,,,,,,,,,,,,,,,,,,,,,,,,,,,,,,,,,,001,4,2020_Jan_28_0956,spring_faces,3.1.5,60.09340522288925,
condition files/Stage1_1.xlsx,,B2,T1,m,"['c', 'm']","['Clue', 'Monopoly']","[-0.15, 0.5]","[0.15, 0.5]",1,1,,,,,,,,,0,10,10,10,0,7,7,2,,,,,,,,,,,,,,,,,,,,,,,,,,,,,,,,,,,,,,,,,,,,,,,,,,,,,,,1024.9177477580006,None,1024.9177477580006,None,1024.9177477580006,None,m,1,1.149039735999395,1026.45286519,None,1026.45286519,None,1026.45286519,None,1027.6678925770002,None,1027.6678925770002,None,1027.6678925770002,None,1027.6678925770002,None,,,,,,,,,,,,,,,,,,,,,,,,,,,,,,,,,,,,,,,,,,,,001,4,2020_Jan_28_0956,spring_faces,3.1.5,60.09340522288925,
condition files/Stage1_2.xlsx,,T4,B4,m,"['c', 'm']","['Clue', 'Monopoly']","[-0.15, 0.5]","[0.15, 0.5]",1,1,,,,,,,,,0,11,11,11,0,0,0,7,,,,,,,,,,,,,,,,,,,,,,,,,,,,,,,,,,,,,,,,,,,,,,,,,,,,,,,1029.6509750660007,None,1029.6509750660007,None,1029.6509750660007,None,m,1,1.8886332559995935,1031.2012486740005,None,1031.2012486740005,None,1031.2012486740005,None,1033.150698431,None,1033.150698431,None,1033.150698431,None,1033.150698431,None,,,,,,,,,,,,,,,,,,,,,,,,,,,,,,,,,,,,,,,,,,,,001,4,2020_Jan_28_0956,spring_faces,3.1.5,60.09340522288925,
condition files/Stage1_2.xlsx,,B1,T1,c,"['c', 'm']","['Clue', 'Monopoly']","[-0.15, 0.5]","[0.15, 0.5]",1,1,,,,,,,,,0,11,11,11,0,1,1,0,,,,,,,,,,,,,,,,,,,,,,,,,,,,,,,,,,,,,,,,,,,,,,,,,,,,,,,1035.117655485,None,1035.117655485,None,1035.117655485,None,c,1,0.7098008439998011,1036.6681839120001,None,1036.6681839120001,None,1036.6681839120001,None,1037.4511968790002,None,1037.4511968790002,None,1037.4511968790002,None,1037.4511968790002,None,,,,,,,,,,,,,,,,,,,,,,,,,,,,,,,,,,,,,,,,,,,,001,4,2020_Jan_28_0956,spring_faces,3.1.5,60.09340522288925,
condition files/Stage1_2.xlsx,,T1,B2,m,"['c', 'm']","['Clue', 'Monopoly']","[-0.15, 0.5]","[0.15, 0.5]",1,1,,,,,,,,,0,11,11,11,0,2,2,2,,,,,,,,,,,,,,,,,,,,,,,,,,,,,,,,,,,,,,,,,,,,,,,,,,,,,,,1039.4010902440004,None,1039.4010902440004,None,1039.4010902440004,None,m,1,0.9548551259995293,1040.935105853,None,1040.935105853,None,1040.935105853,None,1041.9678922440007,None,1041.9678922440007,None,1041.9678922440007,None,1041.9678922440007,None,,,,,,,,,,,,,,,,,,,,,,,,,,,,,,,,,,,,,,,,,,,,001,4,2020_Jan_28_0956,spring_faces,3.1.5,60.09340522288925,
condition files/Stage1_2.xlsx,,B3,T4,m,"['c', 'm']","['Clue', 'Monopoly']","[-0.15, 0.5]","[0.15, 0.5]",1,1,,,,,,,,,0,11,11,11,0,3,3,6,,,,,,,,,,,,,,,,,,,,,,,,,,,,,,,,,,,,,,,,,,,,,,,,,,,,,,,1043.917297766,None,1043.917297766,None,1043.917297766,None,m,1,0.7270070929998838,1045.4509871720002,None,1045.4509871720002,None,1045.4509871720002,None,1046.2345718870001,None,1046.2345718870001,None,1046.2345718870001,None,1046.2345718870001,None,,,,,,,,,,,,,,,,,,,,,,,,,,,,,,,,,,,,,,,,,,,,001,4,2020_Jan_28_0956,spring_faces,3.1.5,60.09340522288925,
condition files/Stage1_2.xlsx,,B4,T3,c,"['c', 'm']","['Clue', 'Monopoly']","[-0.15, 0.5]","[0.15, 0.5]",1,1,,,,,,,,,0,11,11,11,0,4,4,5,,,,,,,,,,,,,,,,,,,,,,,,,,,,,,,,,,,,,,,,,,,,,,,,,,,,,,,1048.2009512570003,None,1048.2009512570003,None,1048.2009512570003,None,c,1,0.5534739409995382,1049.7365035290004,None,1049.7365035290004,None,1049.7365035290004,None,1050.368040378,None,1050.368040378,None,1050.368040378,None,1050.368040378,None,,,,,,,,,,,,,,,,,,,,,,,,,,,,,,,,,,,,,,,,,,,,001,4,2020_Jan_28_0956,spring_faces,3.1.5,60.09340522288925,
condition files/Stage1_2.xlsx,,B2,T2,m,"['c', 'm']","['Clue', 'Monopoly']","[-0.15, 0.5]","[0.15, 0.5]",1,1,,,,,,,,,0,11,11,11,0,5,5,3,,,,,,,,,,,,,,,,,,,,,,,,,,,,,,,,,,,,,,,,,,,,,,,,,,,,,,,1052.317640149,None,1052.317640149,None,1052.317640149,None,m,1,0.7738876180001171,1053.8521091769999,None,1053.8521091769999,None,1053.8521091769999,None,1054.7012473080003,None,1054.7012473080003,None,1054.7012473080003,None,1054.7012473080003,None,,,,,,,,,,,,,,,,,,,,,,,,,,,,,,,,,,,,,,,,,,,,001,4,2020_Jan_28_0956,spring_faces,3.1.5,60.09340522288925,
condition files/Stage1_2.xlsx,,T3,B3,c,"['c', 'm']","['Clue', 'Monopoly']","[-0.15, 0.5]","[0.15, 0.5]",1,1,,,,,,,,,0,11,11,11,0,6,6,4,,,,,,,,,,,,,,,,,,,,,,,,,,,,,,,,,,,,,,,,,,,,,,,,,,,,,,,1056.6508698300004,None,1056.6508698300004,None,1056.6508698300004,None,c,1,0.6177063410004848,1058.1842009440006,None,1058.1842009440006,None,1058.1842009440006,None,1058.884655842,None,1058.884655842,None,1058.884655842,None,1058.884655842,None,,,,,,,,,,,,,,,,,,,,,,,,,,,,,,,,,,,,,,,,,,,,001,4,2020_Jan_28_0956,spring_faces,3.1.5,60.09340522288925,
condition files/Stage1_2.xlsx,,T2,B1,c,"['c', 'm']","['Clue', 'Monopoly']","[-0.15, 0.5]","[0.15, 0.5]",1,1,,,,,,,,,0,11,11,11,0,7,7,1,,,,,,,,,,,,,,,,,,,,,,,,,,,,,,,,,,,,,,,,,,,,,,,,,,,,,,,1060.834530524,None,1060.834530524,None,1060.834530524,None,c,1,1.024970905000373,1062.384858935,None,1062.384858935,None,1062.384858935,None,1063.467258353,None,1063.467258353,None,1063.467258353,None,1063.467258353,None,,,,,,,,,,,,,,,,,,,,,,,,,,,,,,,,,,,,,,,,,,,,001,4,2020_Jan_28_0956,spring_faces,3.1.5,60.09340522288925,
,,,,,,,,,,,,,,,,,,,,,,,,,,,,,,,,,,,,,,,,,,,,,,,,,,,,,,,,,,,,,,,,,,,,,,,,,,,,,,,,,,,,,,,,,,,,,,,,,,,,,,,,,,,,,,,,1065.4511055379999,None,space,18.25516089499979,1070.4508044040003,None,,,,,,,,,,,,,,,,,,,,,,,,,,,,,,001,4,2020_Jan_28_0956,spring_faces,3.1.5,60.09340522288925,
condition files/Stage2_1.xlsx,,B4,T4,r,"['s', 'r']","['Stratego', 'Risk']","[-0.15, 0.5]","[0.15, 0.5]",1,1,,,,,,,,,,,,,,,,,0,0,0,0,0,0,0,5,,,,,,,,,,,,,,,,,,,,,,,,,,,,,,,,,,,,,,,,,,,,,,,1088.7681094990003,None,1088.7681094990003,None,1088.7681094990003,None,s,0,1.1247577100002673,1090.2852461560005,None,1090.2852461560005,None,1090.2852461560005,None,1091.4698875889999,None,1091.4698875889999,None,1091.4698875889999,None,1091.4698875889999,None,,,,,,,,,,,,,,,1070.4508044040003,None,,,,,,,,,,,,,,,,,,,,,,,,,,,,001,4,2020_Jan_28_0956,spring_faces,3.1.5,60.09340522288925,
condition files/Stage2_1.xlsx,,B6,T6,r,"['s', 'r']","['Stratego', 'Risk']","[-0.15, 0.5]","[0.15, 0.5]",1,1,,,,,,,,,,,,,,,,,0,0,0,0,0,1,1,1,,,,,,,,,,,,,,,,,,,,,,,,,,,,,,,,,,,,,,,,,,,,,,,1093.4342121670006,None,1093.4342121670006,None,1093.4342121670006,None,r,1,1.67121195099935,1095.0347255860006,None,1095.0347255860006,None,1095.0347255860006,None,1096.767897236,None,1096.767897236,None,1096.767897236,None,1096.767897236,None,,,,,,,,,,,,,,,,,,,,,,,,,,,,,,,,,,,,,,,,,,,,001,4,2020_Jan_28_0956,spring_faces,3.1.5,60.09340522288925,
condition files/Stage2_1.xlsx,,T5,B5,s,"['s', 'r']","['Stratego', 'Risk']","[-0.15, 0.5]","[0.15, 0.5]",1,1,,,,,,,,,,,,,,,,,0,0,0,0,0,2,2,0,,,,,,,,,,,,,,,,,,,,,,,,,,,,,,,,,,,,,,,,,,,,,,,1098.7343065170007,None,1098.7343065170007,None,1098.7343065170007,None,s,1,0.8053347049999502,1100.2846078680004,None,1100.2846078680004,None,1100.2846078680004,None,1101.1680744140003,None,1101.1680744140003,None,1101.1680744140003,None,1101.1680744140003,None,,,,,,,,,,,,,,,,,,,,,,,,,,,,,,,,,,,,,,,,,,,,001,4,2020_Jan_28_0956,spring_faces,3.1.5,60.09340522288925,
condition files/Stage2_1.xlsx,,B2,T2,r,"['s', 'r']","['Stratego', 'Risk']","[-0.15, 0.5]","[0.15, 0.5]",1,1,,,,,,,,,,,,,,,,,0,0,0,0,0,3,3,3,,,,,,,,,,,,,,,,,,,,,,,,,,,,,,,,,,,,,,,,,,,,,,,1103.1180153290006,None,1103.1180153290006,None,1103.1180153290006,None,r,1,1.3805098989996623,1104.6534404270005,None,1104.6534404270005,None,1104.6534404270005,None,1106.1008950680007,None,1106.1008950680007,None,1106.1008950680007,None,1106.1008950680007,None,,,,,,,,,,,,,,,,,,,,,,,,,,,,,,,,,,,,,,,,,,,,001,4,2020_Jan_28_0956,spring_faces,3.1.5,60.09340522288925,
condition files/Stage2_1.xlsx,,T3,B3,s,"['s', 'r']","['Stratego', 'Risk']","[-0.15, 0.5]","[0.15, 0.5]",1,1,,,,,,,,,,,,,,,,,0,0,0,0,0,4,4,4,,,,,,,,,,,,,,,,,,,,,,,,,,,,,,,,,,,,,,,,,,,,,,,1108.0506050540007,None,1108.0506050540007,None,1108.0506050540007,None,s,1,0.9456555420001678,1109.5842619390005,None,1109.5842619390005,None,1109.5842619390005,None,1110.5865638220002,None,1110.5865638220002,None,1110.5865638220002,None,1110.5865638220002,None,,,,,,,,,,,,,,,,,,,,,,,,,,,,,,,,,,,,,,,,,,,,001,4,2020_Jan_28_0956,spring_faces,3.1.5,60.09340522288925,
condition files/Stage2_1.xlsx,,T1,B1,s,"['s', 'r']","['Stratego', 'Risk']","[-0.15, 0.5]","[0.15, 0.5]",1,1,,,,,,,,,,,,,,,,,0,0,0,0,0,5,5,2,,,,,,,,,,,,,,,,,,,,,,,,,,,,,,,,,,,,,,,,,,,,,,,1112.550457026,None,1112.550457026,None,1112.550457026,None,r,0,0.8125771490003899,1114.101311558,None,1114.101311558,None,1114.101311558,None,1114.9681142620002,None,1114.9681142620002,None,1114.9681142620002,None,1114.9681142620002,None,,,,,,,,,,,,,,,,,,,,,,,,,,,,,,,,,,,,,,,,,,,,001,4,2020_Jan_28_0956,spring_faces,3.1.5,60.09340522288925,
condition files/Stage2_2.xlsx,,T2,B2,r,"['s', 'r']","['Stratego', 'Risk']","[-0.15, 0.5]","[0.15, 0.5]",1,1,,,,,,,,,,,,,,,,,0,1,1,1,0,0,0,3,,,,,,,,,,,,,,,,,,,,,,,,,,,,,,,,,,,,,,,,,,,,,,,1116.9511135040002,None,1116.9511135040002,None,1116.9511135040002,None,s,0,0.9562328310003068,1118.4857617470007,None,1118.4857617470007,None,1118.4857617470007,None,1119.5039770460007,None,1119.5039770460007,None,1119.5039770460007,None,1119.5039770460007,None,,,,,,,,,,,,,,,,,,,,,,,,,,,,,,,,,,,,,,,,,,,,001,4,2020_Jan_28_0956,spring_faces,3.1.5,60.09340522288925,
condition files/Stage2_2.xlsx,,T4,B4,r,"['s', 'r']","['Stratego', 'Risk']","[-0.15, 0.5]","[0.15, 0.5]",1,1,,,,,,,,,,,,,,,,,0,1,1,1,0,1,1,5,,,,,,,,,,,,,,,,,,,,,,,,,,,,,,,,,,,,,,,,,,,,,,,1121.4678977950007,None,1121.4678977950007,None,1121.4678977950007,None,s,0,1.6400238879996323,1123.0179599170006,None,1123.0179599170006,None,1123.0179599170006,None,1124.7175687870003,None,1124.7175687870003,None,1124.7175687870003,None,1124.7175687870003,None,,,,,,,,,,,,,,,,,,,,,,,,,,,,,,,,,,,,,,,,,,,,001,4,2020_Jan_28_0956,spring_faces,3.1.5,60.09340522288925,
condition files/Stage2_2.xlsx,,T6,B6,r,"['s', 'r']","['Stratego', 'Risk']","[-0.15, 0.5]","[0.15, 0.5]",1,1,,,,,,,,,,,,,,,,,0,1,1,1,0,2,2,1,,,,,,,,,,,,,,,,,,,,,,,,,,,,,,,,,,,,,,,,,,,,,,,1126.6839334840006,None,1126.6839334840006,None,1126.6839334840006,None,s,0,1.0153257800002393,1128.2186469710005,None,1128.2186469710005,None,1128.2186469710005,None,1129.284612671,None,1129.284612671,None,1129.284612671,None,1129.284612671,None,,,,,,,,,,,,,,,,,,,,,,,,,,,,,,,,,,,,,,,,,,,,001,4,2020_Jan_28_0956,spring_faces,3.1.5,60.09340522288925,
condition files/Stage2_2.xlsx,,B1,T1,s,"['s', 'r']","['Stratego', 'Risk']","[-0.15, 0.5]","[0.15, 0.5]",1,1,,,,,,,,,,,,,,,,,0,1,1,1,0,3,3,2,,,,,,,,,,,,,,,,,,,,,,,,,,,,,,,,,,,,,,,,,,,,,,,1131.2510138610005,None,1131.2510138610005,None,1131.2510138610005,None,s,1,0.5607911340002829,1132.8011761120006,None,1132.8011761120006,None,1132.8011761120006,None,1133.4346923250005,None,1133.4346923250005,None,1133.4346923250005,None,1133.4346923250005,None,,,,,,,,,,,,,,,,,,,,,,,,,,,,,,,,,,,,,,,,,,,,001,4,2020_Jan_28_0956,spring_faces,3.1.5,60.09340522288925,
condition files/Stage2_2.xlsx,,B3,T3,s,"['s', 'r']","['Stratego', 'Risk']","[-0.15, 0.5]","[0.15, 0.5]",1,1,,,,,,,,,,,,,,,,,0,1,1,1,0,4,4,4,,,,,,,,,,,,,,,,,,,,,,,,,,,,,,,,,,,,,,,,,,,,,,,1135.3843346680005,None,1135.3843346680005,None,1135.3843346680005,None,r,0,0.6352376799995909,1136.9346779320003,None,1136.9346779320003,None,1136.9346779320003,None,1137.6345443210002,None,1137.6345443210002,None,1137.6345443210002,None,1137.6345443210002,None,,,,,,,,,,,,,,,,,,,,,,,,,,,,,,,,,,,,,,,,,,,,001,4,2020_Jan_28_0956,spring_faces,3.1.5,60.09340522288925,
condition files/Stage2_2.xlsx,,B5,T5,s,"['s', 'r']","['Stratego', 'Risk']","[-0.15, 0.5]","[0.15, 0.5]",1,1,,,,,,,,,,,,,,,,,0,1,1,1,0,5,5,0,,,,,,,,,,,,,,,,,,,,,,,,,,,,,,,,,,,,,,,,,,,,,,,1139.6005806550002,None,1139.6005806550002,None,1139.6005806550002,None,s,1,1.571702336999806,1141.134238142,None,1141.134238142,None,1141.134238142,None,1142.7679360250004,None,1142.7679360250004,None,1142.7679360250004,None,1142.7679360250004,None,,,,,,,,,,,,,,,,,,,,,,,,,,,,,,,,,,,,,,,,,,,,001,4,2020_Jan_28_0956,spring_faces,3.1.5,60.09340522288925,
condition files/Stage2_1.xlsx,,B6,T6,r,"['s', 'r']","['Stratego', 'Risk']","[-0.15, 0.5]","[0.15, 0.5]",1,1,,,,,,,,,,,,,,,,,0,2,2,2,0,0,0,1,,,,,,,,,,,,,,,,,,,,,,,,,,,,,,,,,,,,,,,,,,,,,,,1144.7512559650004,None,1144.7512559650004,None,1144.7512559650004,None,r,1,1.0927100099997915,1146.3012211350006,None,1146.3012211350006,None,1146.3012211350006,None,1147.4511308270003,None,1147.4511308270003,None,1147.4511308270003,None,1147.4511308270003,None,,,,,,,,,,,,,,,,,,,,,,,,,,,,,,,,,,,,,,,,,,,,001,4,2020_Jan_28_0956,spring_faces,3.1.5,60.09340522288925,
condition files/Stage2_1.xlsx,,B4,T4,r,"['s', 'r']","['Stratego', 'Risk']","[-0.15, 0.5]","[0.15, 0.5]",1,1,,,,,,,,,,,,,,,,,0,2,2,2,0,1,1,5,,,,,,,,,,,,,,,,,,,,,,,,,,,,,,,,,,,,,,,,,,,,,,,1149.4178705900003,None,1149.4178705900003,None,1149.4178705900003,None,s,0,1.9469254940004248,1150.9511467580005,None,1150.9511467580005,None,1150.9511467580005,None,1152.95109607,None,1152.95109607,None,1152.95109607,None,1152.95109607,None,,,,,,,,,,,,,,,,,,,,,,,,,,,,,,,,,,,,,,,,,,,,001,4,2020_Jan_28_0956,spring_faces,3.1.5,60.09340522288925,
condition files/Stage2_1.xlsx,,B2,T2,r,"['s', 'r']","['Stratego', 'Risk']","[-0.15, 0.5]","[0.15, 0.5]",1,1,,,,,,,,,,,,,,,,,0,2,2,2,0,2,2,3,,,,,,,,,,,,,,,,,,,,,,,,,,,,,,,,,,,,,,,,,,,,,,,1154.9173557530003,None,1154.9173557530003,None,1154.9173557530003,None,r,1,1.070680048000213,1156.451285989,None,1156.451285989,None,1156.451285989,None,1157.5841151020004,None,1157.5841151020004,None,1157.5841151020004,None,1157.5841151020004,None,,,,,,,,,,,,,,,,,,,,,,,,,,,,,,,,,,,,,,,,,,,,001,4,2020_Jan_28_0956,spring_faces,3.1.5,60.09340522288925,
condition files/Stage2_1.xlsx,,T1,B1,s,"['s', 'r']","['Stratego', 'Risk']","[-0.15, 0.5]","[0.15, 0.5]",1,1,,,,,,,,,,,,,,,,,0,2,2,2,0,3,3,2,,,,,,,,,,,,,,,,,,,,,,,,,,,,,,,,,,,,,,,,,,,,,,,1159.5511425390005,None,1159.5511425390005,None,1159.5511425390005,None,s,1,1.0618627040003048,1161.0840524730002,None,1161.0840524730002,None,1161.0840524730002,None,1162.2173228270003,None,1162.2173228270003,None,1162.2173228270003,None,1162.2173228270003,None,,,,,,,,,,,,,,,,,,,,,,,,,,,,,,,,,,,,,,,,,,,,001,4,2020_Jan_28_0956,spring_faces,3.1.5,60.09340522288925,
condition files/Stage2_1.xlsx,,T3,B3,s,"['s', 'r']","['Stratego', 'Risk']","[-0.15, 0.5]","[0.15, 0.5]",1,1,,,,,,,,,,,,,,,,,0,2,2,2,0,4,4,4,,,,,,,,,,,,,,,,,,,,,,,,,,,,,,,,,,,,,,,,,,,,,,,1164.1676368730004,None,1164.1676368730004,None,1164.1676368730004,None,s,1,0.47577153499969427,1165.718143309,None,1165.718143309,None,1165.718143309,None,1166.2509837050002,None,1166.2509837050002,None,1166.2509837050002,None,1166.2509837050002,None,,,,,,,,,,,,,,,,,,,,,,,,,,,,,,,,,,,,,,,,,,,,001,4,2020_Jan_28_0956,spring_faces,3.1.5,60.09340522288925,
condition files/Stage2_1.xlsx,,T5,B5,s,"['s', 'r']","['Stratego', 'Risk']","[-0.15, 0.5]","[0.15, 0.5]",1,1,,,,,,,,,,,,,,,,,0,2,2,2,0,5,5,0,,,,,,,,,,,,,,,,,,,,,,,,,,,,,,,,,,,,,,,,,,,,,,,1168.2176579920006,None,1168.2176579920006,None,1168.2176579920006,None,s,1,1.1466547649997665,1169.751225006,None,1169.751225006,None,1169.751225006,None,1170.951286249,None,1170.951286249,None,1170.951286249,None,1170.951286249,None,,,,,,,,,,,,,,,,,,,,,,,,,,,,,,,,,,,,,,,,,,,,001,4,2020_Jan_28_0956,spring_faces,3.1.5,60.09340522288925,
condition files/Stage2_2.xlsx,,T2,B2,r,"['s', 'r']","['Stratego', 'Risk']","[-0.15, 0.5]","[0.15, 0.5]",1,1,,,,,,,,,,,,,,,,,0,3,3,3,0,0,0,3,,,,,,,,,,,,,,,,,,,,,,,,,,,,,,,,,,,,,,,,,,,,,,,1172.934110921,None,1172.934110921,None,1172.934110921,None,r,1,0.764690394000354,1174.4692848150007,None,1174.4692848150007,None,1174.4692848150007,None,1175.2867947390005,None,1175.2867947390005,None,1175.2867947390005,None,1175.2867947390005,None,,,,,,,,,,,,,,,,,,,,,,,,,,,,,,,,,,,,,,,,,,,,001,4,2020_Jan_28_0956,spring_faces,3.1.5,60.09340522288925,
condition files/Stage2_2.xlsx,,B5,T5,s,"['s', 'r']","['Stratego', 'Risk']","[-0.15, 0.5]","[0.15, 0.5]",1,1,,,,,,,,,,,,,,,,,0,3,3,3,0,1,1,0,,,,,,,,,,,,,,,,,,,,,,,,,,,,,,,,,,,,,,,,,,,,,,,1177.2503346660005,None,1177.2503346660005,None,1177.2503346660005,None,s,1,0.7846110830005273,1178.8012699950004,None,1178.8012699950004,None,1178.8012699950004,None,1179.6516704690002,None,1179.6516704690002,None,1179.6516704690002,None,1179.6516704690002,None,,,,,,,,,,,,,,,,,,,,,,,,,,,,,,,,,,,,,,,,,,,,001,4,2020_Jan_28_0956,spring_faces,3.1.5,60.09340522288925,
condition files/Stage2_2.xlsx,,T4,B4,r,"['s', 'r']","['Stratego', 'Risk']","[-0.15, 0.5]","[0.15, 0.5]",1,1,,,,,,,,,,,,,,,,,0,3,3,3,0,2,2,5,,,,,,,,,,,,,,,,,,,,,,,,,,,,,,,,,,,,,,,,,,,,,,,1181.617484941,None,1181.617484941,None,1181.617484941,None,r,1,1.218098719000409,1183.167794088,None,1183.167794088,None,1183.167794088,None,1184.4679260890007,None,1184.4679260890007,None,1184.4679260890007,None,1184.4679260890007,None,,,,,,,,,,,,,,,,,,,,,,,,,,,,,,,,,,,,,,,,,,,,001,4,2020_Jan_28_0956,spring_faces,3.1.5,60.09340522288925,
condition files/Stage2_2.xlsx,,B1,T1,s,"['s', 'r']","['Stratego', 'Risk']","[-0.15, 0.5]","[0.15, 0.5]",1,1,,,,,,,,,,,,,,,,,0,3,3,3,0,3,3,2,,,,,,,,,,,,,,,,,,,,,,,,,,,,,,,,,,,,,,,,,,,,,,,1186.4175740300007,None,1186.4175740300007,None,1186.4175740300007,None,r,0,1.393223684000077,1187.9526982460002,None,1187.9526982460002,None,1187.9526982460002,None,1189.4174044810006,None,1189.4174044810006,None,1189.4174044810006,None,1189.4174044810006,None,,,,,,,,,,,,,,,,,,,,,,,,,,,,,,,,,,,,,,,,,,,,001,4,2020_Jan_28_0956,spring_faces,3.1.5,60.09340522288925,
condition files/Stage2_2.xlsx,,B3,T3,s,"['s', 'r']","['Stratego', 'Risk']","[-0.15, 0.5]","[0.15, 0.5]",1,1,,,,,,,,,,,,,,,,,0,3,3,3,0,4,4,4,,,,,,,,,,,,,,,,,,,,,,,,,,,,,,,,,,,,,,,,,,,,,,,1191.3676636180007,None,1191.3676636180007,None,1191.3676636180007,None,s,1,0.698402994999924,1192.9034829990005,None,1192.9034829990005,None,1192.9034829990005,None,1193.6677957900001,None,1193.6677957900001,None,1193.6677957900001,None,1193.6677957900001,None,,,,,,,,,,,,,,,,,,,,,,,,,,,,,,,,,,,,,,,,,,,,001,4,2020_Jan_28_0956,spring_faces,3.1.5,60.09340522288925,
condition files/Stage2_2.xlsx,,T6,B6,r,"['s', 'r']","['Stratego', 'Risk']","[-0.15, 0.5]","[0.15, 0.5]",1,1,,,,,,,,,,,,,,,,,0,3,3,3,0,5,5,1,,,,,,,,,,,,,,,,,,,,,,,,,,,,,,,,,,,,,,,,,,,,,,,1195.634124057,None,1195.634124057,None,1195.634124057,None,r,1,1.1055161039994346,1197.184435692,None,1197.184435692,None,1197.184435692,None,1198.3535856060007,None,1198.3535856060007,None,1198.3535856060007,None,1198.3535856060007,None,,,,,,,,,,,,,,,,,,,,,,,,,,,,,,,,,,,,,,,,,,,,001,4,2020_Jan_28_0956,spring_faces,3.1.5,60.09340522288925,
condition files/Stage2_1.xlsx,,B2,T2,r,"['s', 'r']","['Stratego', 'Risk']","[-0.15, 0.5]","[0.15, 0.5]",1,1,,,,,,,,,,,,,,,,,0,4,4,4,0,0,0,3,,,,,,,,,,,,,,,,,,,,,,,,,,,,,,,,,,,,,,,,,,,,,,,1200.3342197470001,None,1200.3342197470001,None,1200.3342197470001,None,r,1,0.9974488799998653,1201.8685037230007,None,1201.8685037230007,None,1201.8685037230007,None,1202.9178465800005,None,1202.9178465800005,None,1202.9178465800005,None,1202.9178465800005,None,,,,,,,,,,,,,,,,,,,,,,,,,,,,,,,,,,,,,,,,,,,,001,4,2020_Jan_28_0956,spring_faces,3.1.5,60.09340522288925,
condition files/Stage2_1.xlsx,,B4,T4,r,"['s', 'r']","['Stratego', 'Risk']","[-0.15, 0.5]","[0.15, 0.5]",1,1,,,,,,,,,,,,,,,,,0,4,4,4,0,1,1,5,,,,,,,,,,,,,,,,,,,,,,,,,,,,,,,,,,,,,,,,,,,,,,,1204.884405635,None,1204.884405635,None,1204.884405635,None,r,1,2.495360218999849,1206.4345723300003,None,1206.4345723300003,None,1206.4345723300003,None,1208.984248488,None,1208.984248488,None,1208.984248488,None,1208.984248488,None,,,,,,,,,,,,,,,,,,,,,,,,,,,,,,,,,,,,,,,,,,,,001,4,2020_Jan_28_0956,spring_faces,3.1.5,60.09340522288925,
condition files/Stage2_1.xlsx,,T1,B1,s,"['s', 'r']","['Stratego', 'Risk']","[-0.15, 0.5]","[0.15, 0.5]",1,1,,,,,,,,,,,,,,,,,0,4,4,4,0,2,2,2,,,,,,,,,,,,,,,,,,,,,,,,,,,,,,,,,,,,,,,,,,,,,,,1210.9510001890003,None,1210.9510001890003,None,1210.9510001890003,None,s,1,0.5727258910001183,1212.5011958280002,None,1212.5011958280002,None,1212.5011958280002,None,1213.1515032930001,None,1213.1515032930001,None,1213.1515032930001,None,1213.1515032930001,None,,,,,,,,,,,,,,,,,,,,,,,,,,,,,,,,,,,,,,,,,,,,001,4,2020_Jan_28_0956,spring_faces,3.1.5,60.09340522288925,
condition files/Stage2_1.xlsx,,T5,B5,s,"['s', 'r']","['Stratego', 'Risk']","[-0.15, 0.5]","[0.15, 0.5]",1,1,,,,,,,,,,,,,,,,,0,4,4,4,0,3,3,0,,,,,,,,,,,,,,,,,,,,,,,,,,,,,,,,,,,,,,,,,,,,,,,1215.1005703480005,None,1215.1005703480005,None,1215.1005703480005,None,s,1,0.48641367799973523,1216.6355622629999,None,1216.6355622629999,None,1216.6355622629999,None,1217.184231284,None,1217.184231284,None,1217.184231284,None,1217.184231284,None,,,,,,,,,,,,,,,,,,,,,,,,,,,,,,,,,,,,,,,,,,,,001,4,2020_Jan_28_0956,spring_faces,3.1.5,60.09340522288925,
condition files/Stage2_1.xlsx,,T3,B3,s,"['s', 'r']","['Stratego', 'Risk']","[-0.15, 0.5]","[0.15, 0.5]",1,1,,,,,,,,,,,,,,,,,0,4,4,4,0,4,4,4,,,,,,,,,,,,,,,,,,,,,,,,,,,,,,,,,,,,,,,,,,,,,,,1219.1511313800002,None,1219.1511313800002,None,1219.1511313800002,None,s,1,0.4853229230002398,1220.7005723860002,None,1220.7005723860002,None,1220.7005723860002,None,1221.2506752489999,None,1221.2506752489999,None,1221.2506752489999,None,1221.2506752489999,None,,,,,,,,,,,,,,,,,,,,,,,,,,,,,,,,,,,,,,,,,,,,001,4,2020_Jan_28_0956,spring_faces,3.1.5,60.09340522288925,
