condsFile,subStage,cue1,cue2,correct,responseKeys,responseNames,cue1Position,cue2Position,cue1Opacity,cue2Opacity,stageLoop0.thisRepN,stageLoop0.thisTrialN,stageLoop0.thisN,stageLoop0.thisIndex,blockLoop0.thisRepN,blockLoop0.thisTrialN,blockLoop0.thisN,blockLoop0.thisIndex,stage1Loop.thisRepN,stage1Loop.thisTrialN,stage1Loop.thisN,stage1Loop.thisIndex,blockLoop1.thisRepN,blockLoop1.thisTrialN,blockLoop1.thisN,blockLoop1.thisIndex,stage2Loop.thisRepN,stage2Loop.thisTrialN,stage2Loop.thisN,stage2Loop.thisIndex,blockLoop2.thisRepN,blockLoop2.thisTrialN,blockLoop2.thisN,blockLoop2.thisIndex,testLoop.thisRepN,testLoop.thisTrialN,testLoop.thisN,testLoop.thisIndex,blockLoopTest.thisRepN,blockLoopTest.thisTrialN,blockLoopTest.thisN,blockLoopTest.thisIndex,cuePics,id_instr_text.started,id_instr_text.stopped,space_to_continue_2.started,space_to_continue_2.stopped,end_instructions_resp_3.keys,end_instructions_resp_3.rt,end_instructions_resp_3.started,end_instructions_resp_3.stopped,id_input_instr.started,id_input_instr.stopped,id_input_rect.started,id_input_rect.stopped,id_input_resp.keys,id_input_resp.rt,id_input_resp.started,id_input_resp.stopped,sonaID,id_input_text.started,id_input_text.stopped,final_text.started,final_text.stopped,instructions.started,instructions.stopped,end_instructions_resp.keys,end_instructions_resp.rt,end_instructions_resp.started,end_instructions_resp.stopped,space_to_continue.started,space_to_continue.stopped,instructions_stage0.started,instructions_stage0.stopped,end_instructions_resp_stage0.keys,end_instructions_resp_stage0.rt,end_instructions_resp_stage0.started,end_instructions_resp_stage0.stopped,space_to_continue_stage0.started,space_to_continue_stage0.stopped,text.started,text.stopped,resp_text1.started,resp_text1.stopped,resp_text2.started,resp_text2.stopped,trial_resp.keys,trial_resp.corr,trial_resp.rt,trial_resp.started,trial_resp.stopped,cue1Image.started,cue1Image.stopped,cue2Image.started,cue2Image.stopped,cue1Image_fb.started,cue1Image_fb.stopped,cue2Image_fb.started,cue2Image_fb.stopped,fb_text_answer.started,fb_text_answer.stopped,feedback_image.started,feedback_image.stopped,instructions_stage1.started,instructions_stage1.stopped,end_instructions_resp_stage1.keys,end_instructions_resp_stage1.rt,end_instructions_resp_stage1.started,end_instructions_resp_stage1.stopped,space_to_continue_stage1.started,space_to_continue_stage1.stopped,instructions_2.started,instructions_2.stopped,end_instructions_resp_2.keys,end_instructions_resp_2.rt,end_instructions_resp_2.started,end_instructions_resp_2.stopped,press_space_to_continue_stage2.started,press_space_to_continue_stage2.stopped,instructions_testStage1.started,instructions_testStage1.stopped,end_instructions_resp_test1.keys,end_instructions_resp_test1.rt,end_instructions_resp_test1.started,end_instructions_resp_test1.stopped,press_space_to_continue_test1.started,press_space_to_continue_test1.stopped,cue1Image_testChoice.started,cue1Image_testChoice.stopped,cue2Image_testChoice.started,cue2Image_testChoice.stopped,test_resp.keys,test_resp.corr,test_resp.rt,test_resp.started,test_resp.stopped,cue1Image_testConf.started,cue1Image_testConf.stopped,cue2Image_testConf.started,cue2Image_testConf.stopped,conf_reminder.started,conf_reminder.stopped,conf_rating.response,conf_rating.rt,conf_rating.started,conf_rating.stopped,session,participant,date,expName,psychopyVersion,frameRate,
,,,,,,,,,,,,,,,,,,,,,,,,,,,,,,,,,,,,,,,,,,,"{'none': 'pictures/20M_AN_C.png', 'alpha': 'pictures/SHINEd_apple.png', 'beta': 'pictures/SHINEd_melon.png', 'theta': 'pictures/SHINEd_pear.png', 'phi': 'pictures/SHINEd_pepper.png', 'T1': 'pictures/31M_AN_C.png', 'T2': 'pictures/26M_AN_C.png', 'T3': 'pictures/22M_AN_C.png', 'T4': 'pictures/36M_AN_C.png', 'T5': 'pictures/25M_AN_C.png', 'T6': 'pictures/33M_AN_C.png', 'B1': 'pictures/37M_NE_C.png', 'B2': 'pictures/20M_NE_C.png', 'B3': 'pictures/32M_NE_C.png', 'B4': 'pictures/38M_NE_C.png', 'B5': 'pictures/34M_NE_C.png', 'B6': 'pictures/23M_NE_C.png'}",16.510745902000053,None,21.494069217998913,None,space,139.10143202100153,21.494069217998913,None,,,,,,,,,,,,,,,,,,,,,,,,,,,,,,,,,,,,,,,,,,,,,,,,,,,,,,,,,,,,,,,,,,,,,,,,,,,,,,,,,,,,,,,,,,,,,,,,001,51,2020_Jan_30_1537,spring_faces,3.2.3,60.06762966360871,
,,,,,,,,,,,,,,,,,,,,,,,,,,,,,,,,,,,,,,,,,,,,,,,,,,,,161.04403174400068,None,161.04403174400068,None,"['0', '8', '1', '6', 'k', 'a', 'm', 'o', 'n']","[10.271520591999433, 10.879551447000267, 16.70349415599776, 17.039527256998554, 22.671524682999006, 23.15146230999744, 27.567459912999766, 27.903489631997218, 28.255523020998226]",161.04403174400068,None,,,,,,,,,,,,,,,,,,,,,,,,,,,,,,,,,,,,,,,,,,,,,,,,,,,,,,,,,,,,,,,,,,,,,,,,,,,,,,,,,,,,,,,,001,51,2020_Jan_30_1537,spring_faces,3.2.3,60.06762966360871,
,,,,,,,,,,,,,,,,,,,,,,,,,,,,,,,,,,,,,,,,,,,,,,,,,,,,,,,,,,,,0816kamon,161.04403174400068,None,161.04403174400068,None,194.36061072499797,None,space,3.6989221750009165,199.36073341299925,None,,,,,,,,,,,,,,,,,,,,,,,,,,,,,,,,,,,,,,,,,,,,,,,,,,,,,,,,,,,,,,,,,,,,,,,,,,,,,001,51,2020_Jan_30_1537,spring_faces,3.2.3,60.06762966360871,
,,,,,,,,,,,,,,,,,,,,,,,,,,,,,,,,,,,,,,,,,,,,,,,,,,,,,,,,,,,,,,,,,,,,,,,199.36073341299925,None,203.07736189500065,None,space,4.710850838000624,208.06072870599746,None,,,,,,,,,,,,,,,,,,,,,,,,,,,,,,,,,,,,,,,,,,,,,,,,,,,,,,,,,,,,,,,,,,,,,001,51,2020_Jan_30_1537,spring_faces,3.2.3,60.06762966360871,
condition files/Stage0a.xlsx,0a,alpha,none,h,"['h', 'g']","['Chess', 'Go']","[0, 0.5]","[0, 0]",1,0,0,0,0,0,0,0,0,0,,,,,,,,,,,,,,,,,,,,,,,,,,,,,,,,,,,,,,,,,,,,,,,,,,,,,,,,,,,,,208.06072870599746,None,212.82739306800067,None,212.82739306800067,None,212.82739306800067,None,h,1,1.608815551000589,214.41079183499824,None,214.41079183499824,None,214.41079183499824,None,216.09408359499866,None,216.09408359499866,None,216.09408359499866,None,216.09408359499866,None,,,,,,,,,,,,,,,,,,,,,,,,,,,,,,,,,,,,,,,,,,,,001,51,2020_Jan_30_1537,spring_faces,3.2.3,60.06762966360871,
condition files/Stage0a.xlsx,0a,beta,none,g,"['h', 'g']","['Chess', 'Go']","[0, 0.5]","[0, 0]",1,0,0,0,0,0,0,1,1,1,,,,,,,,,,,,,,,,,,,,,,,,,,,,,,,,,,,,,,,,,,,,,,,,,,,,,,,,,,,,,,,218.0607850339984,None,218.0607850339984,None,218.0607850339984,None,h,0,1.8173925229966699,219.5940830010004,None,219.5940830010004,None,219.5940830010004,None,221.47731186599776,None,221.47731186599776,None,221.47731186599776,None,221.47731186599776,None,,,,,,,,,,,,,,,,,,,,,,,,,,,,,,,,,,,,,,,,,,,,001,51,2020_Jan_30_1537,spring_faces,3.2.3,60.06762966360871,
condition files/Stage0a.xlsx,0a,beta,none,g,"['h', 'g']","['Chess', 'Go']","[0, 0.5]","[0, 0]",1,0,0,1,1,1,0,0,0,1,,,,,,,,,,,,,,,,,,,,,,,,,,,,,,,,,,,,,,,,,,,,,,,,,,,,,,,,,,,,,,,223.47736706399883,None,223.47736706399883,None,223.47736706399883,None,g,1,0.7688588429991796,225.01066668699787,None,225.01066668699787,None,225.01066668699787,None,225.84402540999872,None,225.84402540999872,None,225.84402540999872,None,225.84402540999872,None,,,,,,,,,,,,,,,,,,,,,,,,,,,,,,,,,,,,,,,,,,,,001,51,2020_Jan_30_1537,spring_faces,3.2.3,60.06762966360871,
condition files/Stage0a.xlsx,0a,alpha,none,h,"['h', 'g']","['Chess', 'Go']","[0, 0.5]","[0, 0]",1,0,0,1,1,1,0,1,1,0,,,,,,,,,,,,,,,,,,,,,,,,,,,,,,,,,,,,,,,,,,,,,,,,,,,,,,,,,,,,,,,227.8274005969979,None,227.8274005969979,None,227.8274005969979,None,h,1,0.49881448300220654,229.36073894899891,None,229.36073894899891,None,229.36073894899891,None,229.92738801499945,None,229.92738801499945,None,229.92738801499945,None,229.92738801499945,None,,,,,,,,,,,,,,,,,,,,,,,,,,,,,,,,,,,,,,,,,,,,001,51,2020_Jan_30_1537,spring_faces,3.2.3,60.06762966360871,
condition files/Stage0a.xlsx,0a,alpha,none,h,"['h', 'g']","['Chess', 'Go']","[0, 0.5]","[0, 0]",1,0,0,2,2,2,0,0,0,0,,,,,,,,,,,,,,,,,,,,,,,,,,,,,,,,,,,,,,,,,,,,,,,,,,,,,,,,,,,,,,,231.91069693999816,None,231.91069693999816,None,231.91069693999816,None,h,1,0.7194378380008857,233.44410255699768,None,233.44410255699768,None,233.44410255699768,None,234.2274204059977,None,234.2274204059977,None,234.2274204059977,None,234.2274204059977,None,,,,,,,,,,,,,,,,,,,,,,,,,,,,,,,,,,,,,,,,,,,,001,51,2020_Jan_30_1537,spring_faces,3.2.3,60.06762966360871,
condition files/Stage0a.xlsx,0a,beta,none,g,"['h', 'g']","['Chess', 'Go']","[0, 0.5]","[0, 0]",1,0,0,2,2,2,0,1,1,1,,,,,,,,,,,,,,,,,,,,,,,,,,,,,,,,,,,,,,,,,,,,,,,,,,,,,,,,,,,,,,,236.210787420001,None,236.210787420001,None,236.210787420001,None,g,1,0.5475300139987667,237.74409142799777,None,237.74409142799777,None,237.74409142799777,None,238.34405059399796,None,238.34405059399796,None,238.34405059399796,None,238.34405059399796,None,,,,,,,,,,,,,,,,,,,,,,,,,,,,,,,,,,,,,,,,,,,,001,51,2020_Jan_30_1537,spring_faces,3.2.3,60.06762966360871,
condition files/Stage0a.xlsx,0a,beta,none,g,"['h', 'g']","['Chess', 'Go']","[0, 0.5]","[0, 0]",1,0,0,3,3,3,0,0,0,1,,,,,,,,,,,,,,,,,,,,,,,,,,,,,,,,,,,,,,,,,,,,,,,,,,,,,,,,,,,,,,,240.3440899470006,None,240.3440899470006,None,240.3440899470006,None,g,1,0.9262962259999767,241.8773508919985,None,241.8773508919985,None,241.8773508919985,None,242.8607559480006,None,242.8607559480006,None,242.8607559480006,None,242.8607559480006,None,,,,,,,,,,,,,,,,,,,,,,,,,,,,,,,,,,,,,,,,,,,,001,51,2020_Jan_30_1537,spring_faces,3.2.3,60.06762966360871,
condition files/Stage0a.xlsx,0a,alpha,none,h,"['h', 'g']","['Chess', 'Go']","[0, 0.5]","[0, 0]",1,0,0,3,3,3,0,1,1,0,,,,,,,,,,,,,,,,,,,,,,,,,,,,,,,,,,,,,,,,,,,,,,,,,,,,,,,,,,,,,,,244.84405389499807,None,244.84405389499807,None,244.84405389499807,None,h,1,0.6180414779992134,246.3774395420005,None,246.3774395420005,None,246.3774395420005,None,247.0774076159978,None,247.0774076159978,None,247.0774076159978,None,247.0774076159978,None,,,,,,,,,,,,,,,,,,,,,,,,,,,,,,,,,,,,,,,,,,,,001,51,2020_Jan_30_1537,spring_faces,3.2.3,60.06762966360871,
condition files/Stage0a.xlsx,0a,alpha,none,h,"['h', 'g']","['Chess', 'Go']","[0, 0.5]","[0, 0]",1,0,0,4,4,4,0,0,0,0,,,,,,,,,,,,,,,,,,,,,,,,,,,,,,,,,,,,,,,,,,,,,,,,,,,,,,,,,,,,,,,249.0607505049993,None,249.0607505049993,None,249.0607505049993,None,h,1,0.7054685819966835,250.5940885429991,None,250.5940885429991,None,250.5940885429991,None,251.36077307899905,None,251.36077307899905,None,251.36077307899905,None,251.36077307899905,None,,,,,,,,,,,,,,,,,,,,,,,,,,,,,,,,,,,,,,,,,,,,001,51,2020_Jan_30_1537,spring_faces,3.2.3,60.06762966360871,
condition files/Stage0a.xlsx,0a,beta,none,g,"['h', 'g']","['Chess', 'Go']","[0, 0.5]","[0, 0]",1,0,0,4,4,4,0,1,1,1,,,,,,,,,,,,,,,,,,,,,,,,,,,,,,,,,,,,,,,,,,,,,,,,,,,,,,,,,,,,,,,253.3440887600009,None,253.3440887600009,None,253.3440887600009,None,g,1,0.5021118619988556,254.87739537699963,None,254.87739537699963,None,254.87739537699963,None,255.46073176299979,None,255.46073176299979,None,255.46073176299979,None,255.46073176299979,None,,,,,,,,,,,,,,,,,,,,,,,,,,,,,,,,,,,,,,,,,,,,001,51,2020_Jan_30_1537,spring_faces,3.2.3,60.06762966360871,
condition files/Stage0a.xlsx,0a,beta,none,g,"['h', 'g']","['Chess', 'Go']","[0, 0.5]","[0, 0]",1,0,0,5,5,5,0,0,0,1,,,,,,,,,,,,,,,,,,,,,,,,,,,,,,,,,,,,,,,,,,,,,,,,,,,,,,,,,,,,,,,257.44401007600027,None,257.44401007600027,None,257.44401007600027,None,g,1,0.5941874130003271,258.9773999120007,None,258.9773999120007,None,258.9773999120007,None,259.62742181299836,None,259.62742181299836,None,259.62742181299836,None,259.62742181299836,None,,,,,,,,,,,,,,,,,,,,,,,,,,,,,,,,,,,,,,,,,,,,001,51,2020_Jan_30_1537,spring_faces,3.2.3,60.06762966360871,
condition files/Stage0a.xlsx,0a,alpha,none,h,"['h', 'g']","['Chess', 'Go']","[0, 0.5]","[0, 0]",1,0,0,5,5,5,0,1,1,0,,,,,,,,,,,,,,,,,,,,,,,,,,,,,,,,,,,,,,,,,,,,,,,,,,,,,,,,,,,,,,,261.6107587959996,None,261.6107587959996,None,261.6107587959996,None,h,1,0.4275589779972506,263.14401540199833,None,263.14401540199833,None,263.14401540199833,None,263.64410335700086,None,263.64410335700086,None,263.64410335700086,None,263.64410335700086,None,,,,,,,,,,,,,,,,,,,,,,,,,,,,,,,,,,,,,,,,,,,,001,51,2020_Jan_30_1537,spring_faces,3.2.3,60.06762966360871,
condition files/Stage0b_1.xlsx,0b,none,beta,g,"['h', 'g']","['Chess', 'Go']","[-0.15, 0.5]","[0.15, 0.5]",0,1,0,6,6,6,0,0,0,1,,,,,,,,,,,,,,,,,,,,,,,,,,,,,,,,,,,,,,,,,,,,,,,,,,,,,,,,,,,,,,,265.62744759499765,None,265.62744759499765,None,265.62744759499765,None,g,1,1.0342200010018132,267.1772860359997,None,267.1772860359997,None,267.1772860359997,None,268.293827573998,None,268.293827573998,None,268.293827573998,None,268.293827573998,None,,,,,,,,,,,,,,,,,,,,,,,,,,,,,,,,,,,,,,,,,,,,001,51,2020_Jan_30_1537,spring_faces,3.2.3,60.06762966360871,
condition files/Stage0b_1.xlsx,0b,alpha,none,h,"['h', 'g']","['Chess', 'Go']","[-0.15, 0.5]","[0.15, 0.5]",1,0,0,6,6,6,0,1,1,0,,,,,,,,,,,,,,,,,,,,,,,,,,,,,,,,,,,,,,,,,,,,,,,,,,,,,,,,,,,,,,,270.2606769569975,None,270.2606769569975,None,270.2606769569975,None,h,1,0.7218048930008081,271.7937582400009,None,271.7937582400009,None,271.7937582400009,None,272.59406479899917,None,272.59406479899917,None,272.59406479899917,None,272.59406479899917,None,,,,,,,,,,,,,,,,,,,,,,,,,,,,,,,,,,,,,,,,,,,,001,51,2020_Jan_30_1537,spring_faces,3.2.3,60.06762966360871,
condition files/Stage0b_2.xlsx,0b,beta,none,g,"['h', 'g']","['Chess', 'Go']","[-0.15, 0.5]","[0.15, 0.5]",1,0,0,7,7,7,0,0,0,1,,,,,,,,,,,,,,,,,,,,,,,,,,,,,,,,,,,,,,,,,,,,,,,,,,,,,,,,,,,,,,,274.5773946849986,None,274.5773946849986,None,274.5773946849986,None,g,1,0.9007449269993231,276.1107370569989,None,276.1107370569989,None,276.1107370569989,None,277.07735282499925,None,277.07735282499925,None,277.07735282499925,None,277.07735282499925,None,,,,,,,,,,,,,,,,,,,,,,,,,,,,,,,,,,,,,,,,,,,,001,51,2020_Jan_30_1537,spring_faces,3.2.3,60.06762966360871,
condition files/Stage0b_2.xlsx,0b,none,alpha,h,"['h', 'g']","['Chess', 'Go']","[-0.15, 0.5]","[0.15, 0.5]",0,1,0,7,7,7,0,1,1,0,,,,,,,,,,,,,,,,,,,,,,,,,,,,,,,,,,,,,,,,,,,,,,,,,,,,,,,,,,,,,,,279.06068110699925,None,279.06068110699925,None,279.06068110699925,None,h,1,0.6574599380001018,280.594102103998,None,280.594102103998,None,280.594102103998,None,281.32740355200076,None,281.32740355200076,None,281.32740355200076,None,281.32740355200076,None,,,,,,,,,,,,,,,,,,,,,,,,,,,,,,,,,,,,,,,,,,,,001,51,2020_Jan_30_1537,spring_faces,3.2.3,60.06762966360871,
condition files/Stage0b_1.xlsx,0b,alpha,none,h,"['h', 'g']","['Chess', 'Go']","[-0.15, 0.5]","[0.15, 0.5]",1,0,0,8,8,8,0,0,0,0,,,,,,,,,,,,,,,,,,,,,,,,,,,,,,,,,,,,,,,,,,,,,,,,,,,,,,,,,,,,,,,283.3107282790006,None,283.3107282790006,None,283.3107282790006,None,h,1,0.7597811250016093,284.8438118720005,None,284.8438118720005,None,284.8438118720005,None,285.6604423360004,None,285.6604423360004,None,285.6604423360004,None,285.6604423360004,None,,,,,,,,,,,,,,,,,,,,,,,,,,,,,,,,,,,,,,,,,,,,001,51,2020_Jan_30_1537,spring_faces,3.2.3,60.06762966360871,
condition files/Stage0b_1.xlsx,0b,none,beta,g,"['h', 'g']","['Chess', 'Go']","[-0.15, 0.5]","[0.15, 0.5]",0,1,0,8,8,8,0,1,1,1,,,,,,,,,,,,,,,,,,,,,,,,,,,,,,,,,,,,,,,,,,,,,,,,,,,,,,,,,,,,,,,287.6440912350008,None,287.6440912350008,None,287.6440912350008,None,g,1,0.6501095359999454,289.17740100899755,None,289.17740100899755,None,289.17740100899755,None,289.894018297,None,289.894018297,None,289.894018297,None,289.894018297,None,,,,,,,,,,,,,,,,,,,,,,,,,,,,,,,,,,,,,,,,,,,,001,51,2020_Jan_30_1537,spring_faces,3.2.3,60.06762966360871,
condition files/Stage0b_2.xlsx,0b,none,alpha,h,"['h', 'g']","['Chess', 'Go']","[-0.15, 0.5]","[0.15, 0.5]",0,1,0,9,9,9,0,0,0,0,,,,,,,,,,,,,,,,,,,,,,,,,,,,,,,,,,,,,,,,,,,,,,,,,,,,,,,,,,,,,,,291.8773472749999,None,291.8773472749999,None,291.8773472749999,None,h,1,0.9127792010003759,293.41073112400045,None,293.41073112400045,None,293.41073112400045,None,294.3940622810005,None,294.3940622810005,None,294.3940622810005,None,294.3940622810005,None,,,,,,,,,,,,,,,,,,,,,,,,,,,,,,,,,,,,,,,,,,,,001,51,2020_Jan_30_1537,spring_faces,3.2.3,60.06762966360871,
condition files/Stage0b_2.xlsx,0b,beta,none,g,"['h', 'g']","['Chess', 'Go']","[-0.15, 0.5]","[0.15, 0.5]",1,0,0,9,9,9,0,1,1,1,,,,,,,,,,,,,,,,,,,,,,,,,,,,,,,,,,,,,,,,,,,,,,,,,,,,,,,,,,,,,,,296.36074358100086,None,296.36074358100086,None,296.36074358100086,None,g,1,0.749823236001248,297.8937543539978,None,297.8937543539978,None,297.8937543539978,None,298.7106530050005,None,298.7106530050005,None,298.7106530050005,None,298.7106530050005,None,,,,,,,,,,,,,,,,,,,,,,,,,,,,,,,,,,,,,,,,,,,,001,51,2020_Jan_30_1537,spring_faces,3.2.3,60.06762966360871,
condition files/Stage0b_1.xlsx,0b,alpha,none,h,"['h', 'g']","['Chess', 'Go']","[-0.15, 0.5]","[0.15, 0.5]",1,0,0,10,10,10,0,0,0,0,,,,,,,,,,,,,,,,,,,,,,,,,,,,,,,,,,,,,,,,,,,,,,,,,,,,,,,,,,,,,,,300.6940619649977,None,300.6940619649977,None,300.6940619649977,None,h,1,1.5201144169986947,302.22740036399773,None,302.22740036399773,None,302.22740036399773,None,303.810753329999,None,303.810753329999,None,303.810753329999,None,303.810753329999,None,,,,,,,,,,,,,,,,,,,,,,,,,,,,,,,,,,,,,,,,,,,,001,51,2020_Jan_30_1537,spring_faces,3.2.3,60.06762966360871,
condition files/Stage0b_1.xlsx,0b,none,beta,g,"['h', 'g']","['Chess', 'Go']","[-0.15, 0.5]","[0.15, 0.5]",0,1,0,10,10,10,0,1,1,1,,,,,,,,,,,,,,,,,,,,,,,,,,,,,,,,,,,,,,,,,,,,,,,,,,,,,,,,,,,,,,,305.7940634890001,None,305.7940634890001,None,305.7940634890001,None,g,1,0.6601890269994328,307.32741922900095,None,307.32741922900095,None,307.32741922900095,None,308.0607648919977,None,308.0607648919977,None,308.0607648919977,None,308.0607648919977,None,,,,,,,,,,,,,,,,,,,,,,,,,,,,,,,,,,,,,,,,,,,,001,51,2020_Jan_30_1537,spring_faces,3.2.3,60.06762966360871,
condition files/Stage0b_2.xlsx,0b,beta,none,g,"['h', 'g']","['Chess', 'Go']","[-0.15, 0.5]","[0.15, 0.5]",1,0,0,11,11,11,0,0,0,1,,,,,,,,,,,,,,,,,,,,,,,,,,,,,,,,,,,,,,,,,,,,,,,,,,,,,,,,,,,,,,,310.04408360600064,None,310.04408360600064,None,310.04408360600064,None,g,1,0.7145510720001766,311.5771135199975,None,311.5771135199975,None,311.5771135199975,None,312.3607519879988,None,312.3607519879988,None,312.3607519879988,None,312.3607519879988,None,,,,,,,,,,,,,,,,,,,,,,,,,,,,,,,,,,,,,,,,,,,,001,51,2020_Jan_30_1537,spring_faces,3.2.3,60.06762966360871,
condition files/Stage0b_2.xlsx,0b,none,alpha,h,"['h', 'g']","['Chess', 'Go']","[-0.15, 0.5]","[0.15, 0.5]",0,1,0,11,11,11,0,1,1,0,,,,,,,,,,,,,,,,,,,,,,,,,,,,,,,,,,,,,,,,,,,,,,,,,,,,,,,,,,,,,,,314.3273799999988,None,314.3273799999988,None,314.3273799999988,None,h,1,0.5588753039992298,315.860715163999,None,315.860715163999,None,315.860715163999,None,316.49398487899816,None,316.49398487899816,None,316.49398487899816,None,316.49398487899816,None,,,,,,,,,,,,,,,,,,,,,,,,,,,,,,,,,,,,,,,,,,,,001,51,2020_Jan_30_1537,spring_faces,3.2.3,60.06762966360871,
condition files/Stage0c_1.xlsx,0c,alpha,phi,h,"['h', 'g']","['Chess', 'Go']","[-0.15, 0.5]","[0.15, 0.5]",1,1,0,12,12,12,0,0,0,1,,,,,,,,,,,,,,,,,,,,,,,,,,,,,,,,,,,,,,,,,,,,,,,,,,,,,,,,,,,,,,,318.4773973810006,None,318.4773973810006,None,318.4773973810006,None,h,1,2.1209106109999993,320.01066150100087,None,320.01066150100087,None,320.01066150100087,None,322.19405659999757,None,322.19405659999757,None,322.19405659999757,None,322.19405659999757,None,,,,,,,,,,,,,,,,,,,,,,,,,,,,,,,,,,,,,,,,,,,,001,51,2020_Jan_30_1537,spring_faces,3.2.3,60.06762966360871,
condition files/Stage0c_1.xlsx,0c,beta,theta,g,"['h', 'g']","['Chess', 'Go']","[-0.15, 0.5]","[0.15, 0.5]",1,1,0,12,12,12,0,1,1,2,,,,,,,,,,,,,,,,,,,,,,,,,,,,,,,,,,,,,,,,,,,,,,,,,,,,,,,,,,,,,,,324.1774257699981,None,324.1774257699981,None,324.1774257699981,None,g,1,1.0288466419988254,325.71073371999955,None,325.71073371999955,None,325.71073371999955,None,326.794051001998,None,326.794051001998,None,326.794051001998,None,326.794051001998,None,,,,,,,,,,,,,,,,,,,,,,,,,,,,,,,,,,,,,,,,,,,,001,51,2020_Jan_30_1537,spring_faces,3.2.3,60.06762966360871,
condition files/Stage0c_1.xlsx,0c,theta,alpha,h,"['h', 'g']","['Chess', 'Go']","[-0.15, 0.5]","[0.15, 0.5]",1,1,0,12,12,12,0,2,2,0,,,,,,,,,,,,,,,,,,,,,,,,,,,,,,,,,,,,,,,,,,,,,,,,,,,,,,,,,,,,,,,328.77742463699906,None,328.77742463699906,None,328.77742463699906,None,h,1,3.052855878999253,330.31069015499816,None,330.31069015499816,None,330.31069015499816,None,333.42741189200024,None,333.42741189200024,None,333.42741189200024,None,333.42741189200024,None,,,,,,,,,,,,,,,,,,,,,,,,,,,,,,,,,,,,,,,,,,,,001,51,2020_Jan_30_1537,spring_faces,3.2.3,60.06762966360871,
condition files/Stage0c_1.xlsx,0c,phi,beta,g,"['h', 'g']","['Chess', 'Go']","[-0.15, 0.5]","[0.15, 0.5]",1,1,0,12,12,12,0,3,3,3,,,,,,,,,,,,,,,,,,,,,,,,,,,,,,,,,,,,,,,,,,,,,,,,,,,,,,,,,,,,,,,335.42739955999787,None,335.42739955999787,None,335.42739955999787,None,g,1,1.3476996479985246,336.9439324550003,None,336.9439324550003,None,336.9439324550003,None,338.34406958199907,None,338.34406958199907,None,338.34406958199907,None,338.34406958199907,None,,,,,,,,,,,,,,,,,,,,,,,,,,,,,,,,,,,,,,,,,,,,001,51,2020_Jan_30_1537,spring_faces,3.2.3,60.06762966360871,
condition files/Stage0c_2.xlsx,0c,alpha,theta,h,"['h', 'g']","['Chess', 'Go']","[-0.15, 0.5]","[0.15, 0.5]",1,1,0,13,13,13,0,0,0,0,,,,,,,,,,,,,,,,,,,,,,,,,,,,,,,,,,,,,,,,,,,,,,,,,,,,,,,,,,,,,,,340.3440749500005,None,340.3440749500005,None,340.3440749500005,None,h,1,1.6461293979991751,341.8774328869986,None,341.8774328869986,None,341.8774328869986,None,343.5774353779998,None,343.5774353779998,None,343.5774353779998,None,343.5774353779998,None,,,,,,,,,,,,,,,,,,,,,,,,,,,,,,,,,,,,,,,,,,,,001,51,2020_Jan_30_1537,spring_faces,3.2.3,60.06762966360871,
condition files/Stage0c_2.xlsx,0c,theta,beta,g,"['h', 'g']","['Chess', 'Go']","[-0.15, 0.5]","[0.15, 0.5]",1,1,0,13,13,13,0,1,1,2,,,,,,,,,,,,,,,,,,,,,,,,,,,,,,,,,,,,,,,,,,,,,,,,,,,,,,,,,,,,,,,345.56075356499787,None,345.56075356499787,None,345.56075356499787,None,g,1,1.0054668960001436,347.09407061899765,None,347.09407061899765,None,347.09407061899765,None,348.1607341679992,None,348.1607341679992,None,348.1607341679992,None,348.1607341679992,None,,,,,,,,,,,,,,,,,,,,,,,,,,,,,,,,,,,,,,,,,,,,001,51,2020_Jan_30_1537,spring_faces,3.2.3,60.06762966360871,
condition files/Stage0c_2.xlsx,0c,phi,alpha,h,"['h', 'g']","['Chess', 'Go']","[-0.15, 0.5]","[0.15, 0.5]",1,1,0,13,13,13,0,2,2,1,,,,,,,,,,,,,,,,,,,,,,,,,,,,,,,,,,,,,,,,,,,,,,,,,,,,,,,,,,,,,,,350.1440962259985,None,350.1440962259985,None,350.1440962259985,None,h,1,1.1432522020004399,351.6603194550007,None,351.6603194550007,None,351.6603194550007,None,352.8607698699998,None,352.8607698699998,None,352.8607698699998,None,352.8607698699998,None,,,,,,,,,,,,,,,,,,,,,,,,,,,,,,,,,,,,,,,,,,,,001,51,2020_Jan_30_1537,spring_faces,3.2.3,60.06762966360871,
condition files/Stage0c_2.xlsx,0c,beta,phi,g,"['h', 'g']","['Chess', 'Go']","[-0.15, 0.5]","[0.15, 0.5]",1,1,0,13,13,13,0,3,3,3,,,,,,,,,,,,,,,,,,,,,,,,,,,,,,,,,,,,,,,,,,,,,,,,,,,,,,,,,,,,,,,354.8440910040008,None,354.8440910040008,None,354.8440910040008,None,g,1,0.970129678997182,356.37740811799813,None,356.37740811799813,None,356.37740811799813,None,357.4107304149984,None,357.4107304149984,None,357.4107304149984,None,357.4107304149984,None,,,,,,,,,,,,,,,,,,,,,,,,,,,,,,,,,,,,,,,,,,,,001,51,2020_Jan_30_1537,spring_faces,3.2.3,60.06762966360871,
condition files/Stage0c_1.xlsx,0c,phi,beta,g,"['h', 'g']","['Chess', 'Go']","[-0.15, 0.5]","[0.15, 0.5]",1,1,0,14,14,14,0,0,0,3,,,,,,,,,,,,,,,,,,,,,,,,,,,,,,,,,,,,,,,,,,,,,,,,,,,,,,,,,,,,,,,359.41075247799745,None,359.41075247799745,None,359.41075247799745,None,g,1,2.323451332998957,360.94409537699903,None,360.94409537699903,None,360.94409537699903,None,363.3274069049985,None,363.3274069049985,None,363.3274069049985,None,363.3274069049985,None,,,,,,,,,,,,,,,,,,,,,,,,,,,,,,,,,,,,,,,,,,,,001,51,2020_Jan_30_1537,spring_faces,3.2.3,60.06762966360871,
condition files/Stage0c_1.xlsx,0c,alpha,phi,h,"['h', 'g']","['Chess', 'Go']","[-0.15, 0.5]","[0.15, 0.5]",1,1,0,14,14,14,0,1,1,1,,,,,,,,,,,,,,,,,,,,,,,,,,,,,,,,,,,,,,,,,,,,,,,,,,,,,,,,,,,,,,,365.3107845630002,None,365.3107845630002,None,365.3107845630002,None,h,1,1.9281486889994994,366.82742558799873,None,366.82742558799873,None,366.82742558799873,None,368.81078769399755,None,368.81078769399755,None,368.81078769399755,None,368.81078769399755,None,,,,,,,,,,,,,,,,,,,,,,,,,,,,,,,,,,,,,,,,,,,,001,51,2020_Jan_30_1537,spring_faces,3.2.3,60.06762966360871,
condition files/Stage0c_1.xlsx,0c,beta,theta,g,"['h', 'g']","['Chess', 'Go']","[-0.15, 0.5]","[0.15, 0.5]",1,1,0,14,14,14,0,2,2,2,,,,,,,,,,,,,,,,,,,,,,,,,,,,,,,,,,,,,,,,,,,,,,,,,,,,,,,,,,,,,,,370.7940892730003,None,370.7940892730003,None,370.7940892730003,None,g,1,0.7490615339993383,372.3105951439975,None,372.3105951439975,None,372.3105951439975,None,373.1106932929979,None,373.1106932929979,None,373.1106932929979,None,373.1106932929979,None,,,,,,,,,,,,,,,,,,,,,,,,,,,,,,,,,,,,,,,,,,,,001,51,2020_Jan_30_1537,spring_faces,3.2.3,60.06762966360871,
condition files/Stage0c_1.xlsx,0c,theta,alpha,h,"['h', 'g']","['Chess', 'Go']","[-0.15, 0.5]","[0.15, 0.5]",1,1,0,14,14,14,0,3,3,0,,,,,,,,,,,,,,,,,,,,,,,,,,,,,,,,,,,,,,,,,,,,,,,,,,,,,,,,,,,,,,,375.0939601739992,None,375.0939601739992,None,375.0939601739992,None,h,1,1.0720591909994255,376.627407177999,None,376.627407177999,None,376.627407177999,None,377.7607341119983,None,377.7607341119983,None,377.7607341119983,None,377.7607341119983,None,,,,,,,,,,,,,,,,,,,,,,,,,,,,,,,,,,,,,,,,,,,,001,51,2020_Jan_30_1537,spring_faces,3.2.3,60.06762966360871,
condition files/Stage0c_2.xlsx,0c,beta,phi,g,"['h', 'g']","['Chess', 'Go']","[-0.15, 0.5]","[0.15, 0.5]",1,1,0,15,15,15,0,0,0,3,,,,,,,,,,,,,,,,,,,,,,,,,,,,,,,,,,,,,,,,,,,,,,,,,,,,,,,,,,,,,,,379.7607717799983,None,379.7607717799983,None,379.7607717799983,None,g,1,3.301394246002019,381.29409865900016,None,381.29409865900016,None,381.29409865900016,None,384.660706450999,None,384.660706450999,None,384.660706450999,None,384.660706450999,None,,,,,,,,,,,,,,,,,,,,,,,,,,,,,,,,,,,,,,,,,,,,001,51,2020_Jan_30_1537,spring_faces,3.2.3,60.06762966360871,
condition files/Stage0c_2.xlsx,0c,alpha,theta,h,"['h', 'g']","['Chess', 'Go']","[-0.15, 0.5]","[0.15, 0.5]",1,1,0,15,15,15,0,1,1,0,,,,,,,,,,,,,,,,,,,,,,,,,,,,,,,,,,,,,,,,,,,,,,,,,,,,,,,,,,,,,,,386.64403528299954,None,386.64403528299954,None,386.64403528299954,None,h,1,1.138134879001882,388.1774046440005,None,388.1774046440005,None,388.1774046440005,None,389.3774006200001,None,389.3774006200001,None,389.3774006200001,None,389.3774006200001,None,,,,,,,,,,,,,,,,,,,,,,,,,,,,,,,,,,,,,,,,,,,,001,51,2020_Jan_30_1537,spring_faces,3.2.3,60.06762966360871,
condition files/Stage0c_2.xlsx,0c,phi,alpha,h,"['h', 'g']","['Chess', 'Go']","[-0.15, 0.5]","[0.15, 0.5]",1,1,0,15,15,15,0,2,2,1,,,,,,,,,,,,,,,,,,,,,,,,,,,,,,,,,,,,,,,,,,,,,,,,,,,,,,,,,,,,,,,391.3607832769994,None,391.3607832769994,None,391.3607832769994,None,h,1,1.158270725998591,392.8772979969981,None,392.8772979969981,None,392.8772979969981,None,394.09407036300036,None,394.09407036300036,None,394.09407036300036,None,394.09407036300036,None,,,,,,,,,,,,,,,,,,,,,,,,,,,,,,,,,,,,,,,,,,,,001,51,2020_Jan_30_1537,spring_faces,3.2.3,60.06762966360871,
condition files/Stage0c_2.xlsx,0c,theta,beta,g,"['h', 'g']","['Chess', 'Go']","[-0.15, 0.5]","[0.15, 0.5]",1,1,0,15,15,15,0,3,3,2,,,,,,,,,,,,,,,,,,,,,,,,,,,,,,,,,,,,,,,,,,,,,,,,,,,,,,,,,,,,,,,396.077454399001,None,396.077454399001,None,396.077454399001,None,g,1,0.7139414049997868,397.5936829130005,None,397.5936829130005,None,397.5936829130005,None,398.36074893600016,None,398.36074893600016,None,398.36074893600016,None,398.36074893600016,None,,,,,,,,,,,,,,,,,,,,,,,,,,,,,,,,,,,,,,,,,,,,001,51,2020_Jan_30_1537,spring_faces,3.2.3,60.06762966360871,
condition files/Stage0c_1.xlsx,0c,phi,beta,g,"['h', 'g']","['Chess', 'Go']","[-0.15, 0.5]","[0.15, 0.5]",1,1,0,16,16,16,0,0,0,3,,,,,,,,,,,,,,,,,,,,,,,,,,,,,,,,,,,,,,,,,,,,,,,,,,,,,,,,,,,,,,,400.3607279639982,None,400.3607279639982,None,400.3607279639982,None,g,1,1.054357319000701,401.8771989550005,None,401.8771989550005,None,401.8771989550005,None,402.99411349599904,None,402.99411349599904,None,402.99411349599904,None,402.99411349599904,None,,,,,,,,,,,,,,,,,,,,,,,,,,,,,,,,,,,,,,,,,,,,001,51,2020_Jan_30_1537,spring_faces,3.2.3,60.06762966360871,
condition files/Stage0c_1.xlsx,0c,beta,theta,g,"['h', 'g']","['Chess', 'Go']","[-0.15, 0.5]","[0.15, 0.5]",1,1,0,16,16,16,0,1,1,2,,,,,,,,,,,,,,,,,,,,,,,,,,,,,,,,,,,,,,,,,,,,,,,,,,,,,,,,,,,,,,,404.97740361400065,None,404.97740361400065,None,404.97740361400065,None,g,1,0.9338918470020872,406.4936195730006,None,406.4936195730006,None,406.4936195730006,None,407.4773803459975,None,407.4773803459975,None,407.4773803459975,None,407.4773803459975,None,,,,,,,,,,,,,,,,,,,,,,,,,,,,,,,,,,,,,,,,,,,,001,51,2020_Jan_30_1537,spring_faces,3.2.3,60.06762966360871,
condition files/Stage0c_1.xlsx,0c,theta,alpha,h,"['h', 'g']","['Chess', 'Go']","[-0.15, 0.5]","[0.15, 0.5]",1,1,0,16,16,16,0,2,2,0,,,,,,,,,,,,,,,,,,,,,,,,,,,,,,,,,,,,,,,,,,,,,,,,,,,,,,,,,,,,,,,409.4606598729988,None,409.4606598729988,None,409.4606598729988,None,h,1,0.5614950130002399,410.9940781389996,None,410.9940781389996,None,410.9940781389996,None,411.61076077399775,None,411.61076077399775,None,411.61076077399775,None,411.61076077399775,None,,,,,,,,,,,,,,,,,,,,,,,,,,,,,,,,,,,,,,,,,,,,001,51,2020_Jan_30_1537,spring_faces,3.2.3,60.06762966360871,
condition files/Stage0c_1.xlsx,0c,alpha,phi,h,"['h', 'g']","['Chess', 'Go']","[-0.15, 0.5]","[0.15, 0.5]",1,1,0,16,16,16,0,3,3,1,,,,,,,,,,,,,,,,,,,,,,,,,,,,,,,,,,,,,,,,,,,,,,,,,,,,,,,,,,,,,,,413.59406142399894,None,413.59406142399894,None,413.59406142399894,None,h,1,0.8122313619969646,415.12736777999817,None,415.12736777999817,None,415.12736777999817,None,415.99407216399777,None,415.99407216399777,None,415.99407216399777,None,415.99407216399777,None,,,,,,,,,,,,,,,,,,,,,,,,,,,,,,,,,,,,,,,,,,,,001,51,2020_Jan_30_1537,spring_faces,3.2.3,60.06762966360871,
condition files/Stage0c_2.xlsx,0c,beta,phi,g,"['h', 'g']","['Chess', 'Go']","[-0.15, 0.5]","[0.15, 0.5]",1,1,0,17,17,17,0,0,0,3,,,,,,,,,,,,,,,,,,,,,,,,,,,,,,,,,,,,,,,,,,,,,,,,,,,,,,,,,,,,,,,417.99411382700055,None,417.99411382700055,None,417.99411382700055,None,g,1,0.7482845669983362,419.52738643499833,None,419.52738643499833,None,419.52738643499833,None,420.3273767649989,None,420.3273767649989,None,420.3273767649989,None,420.3273767649989,None,,,,,,,,,,,,,,,,,,,,,,,,,,,,,,,,,,,,,,,,,,,,001,51,2020_Jan_30_1537,spring_faces,3.2.3,60.06762966360871,
condition files/Stage0c_2.xlsx,0c,alpha,theta,h,"['h', 'g']","['Chess', 'Go']","[-0.15, 0.5]","[0.15, 0.5]",1,1,0,17,17,17,0,1,1,0,,,,,,,,,,,,,,,,,,,,,,,,,,,,,,,,,,,,,,,,,,,,,,,,,,,,,,,,,,,,,,,422.3106486129982,None,422.3106486129982,None,422.3106486129982,None,h,1,1.4235769320002873,423.8439999539987,None,423.8439999539987,None,423.8439999539987,None,425.327431564001,None,425.327431564001,None,425.327431564001,None,425.327431564001,None,,,,,,,,,,,,,,,,,,,,,,,,,,,,,,,,,,,,,,,,,,,,001,51,2020_Jan_30_1537,spring_faces,3.2.3,60.06762966360871,
condition files/Stage0c_2.xlsx,0c,theta,beta,g,"['h', 'g']","['Chess', 'Go']","[-0.15, 0.5]","[0.15, 0.5]",1,1,0,17,17,17,0,2,2,2,,,,,,,,,,,,,,,,,,,,,,,,,,,,,,,,,,,,,,,,,,,,,,,,,,,,,,,,,,,,,,,427.310742286998,None,427.310742286998,None,427.310742286998,None,g,1,1.0315820180003357,428.844077619,None,428.844077619,None,428.844077619,None,429.92739727499793,None,429.92739727499793,None,429.92739727499793,None,429.92739727499793,None,,,,,,,,,,,,,,,,,,,,,,,,,,,,,,,,,,,,,,,,,,,,001,51,2020_Jan_30_1537,spring_faces,3.2.3,60.06762966360871,
condition files/Stage0c_2.xlsx,0c,phi,alpha,h,"['h', 'g']","['Chess', 'Go']","[-0.15, 0.5]","[0.15, 0.5]",1,1,0,17,17,17,0,3,3,1,,,,,,,,,,,,,,,,,,,,,,,,,,,,,,,,,,,,,,,,,,,,,,,,,,,,,,,,,,,,,,,431.91066127500017,None,431.91066127500017,None,431.91066127500017,None,h,1,0.671562775001803,433.4440152749994,None,433.4440152749994,None,433.4440152749994,None,434.17740386399964,None,434.17740386399964,None,434.17740386399964,None,434.17740386399964,None,,,,,,,,,,,,,,,,,,,,,,,,,,,,,,,,,,,,,,,,,,,,001,51,2020_Jan_30_1537,spring_faces,3.2.3,60.06762966360871,
,,,,,,,,,,,,,,,,,,,,,,,,,,,,,,,,,,,,,,,,,,,,,,,,,,,,,,,,,,,,,,,,,,,,,,,,,,,,,,,,,,,,,,,,,,,,,,,,,,,,,,,,436.16074894199846,None,space,5.787447685001098,441.1440890209997,None,,,,,,,,,,,,,,,,,,,,,,,,,,,,,,,,,,,,,,001,51,2020_Jan_30_1537,spring_faces,3.2.3,60.06762966360871,
condition files/Stage1_1.xlsx,,B2,T1,m,"['c', 'm']","['Clue', 'Monopoly']","[-0.15, 0.5]","[0.15, 0.5]",1,1,,,,,,,,,0,0,0,0,0,0,0,2,,,,,,,,,,,,,,,,,,,,,,,,,,,,,,,,,,,,,,,,,,,,,,,,,,,,,,,446.9940871350009,None,446.9940871350009,None,446.9940871350009,None,c,0,1.4601496519971988,448.5274430829995,None,448.5274430829995,None,448.5274430829995,None,450.0773072949996,None,450.0773072949996,None,450.0773072949996,None,450.0773072949996,None,,,,,,,441.1440890209997,None,,,,,,,,,,,,,,,,,,,,,,,,,,,,,,,,,,,,001,51,2020_Jan_30_1537,spring_faces,3.2.3,60.06762966360871,
condition files/Stage1_1.xlsx,,B3,T3,c,"['c', 'm']","['Clue', 'Monopoly']","[-0.15, 0.5]","[0.15, 0.5]",1,1,,,,,,,,,0,0,0,0,0,1,1,4,,,,,,,,,,,,,,,,,,,,,,,,,,,,,,,,,,,,,,,,,,,,,,,,,,,,,,,452.02740388799793,None,452.02740388799793,None,452.02740388799793,None,c,1,1.7708199539993075,453.56072768100057,None,453.56072768100057,None,453.56072768100057,None,455.41073442500056,None,455.41073442500056,None,455.41073442500056,None,455.41073442500056,None,,,,,,,,,,,,,,,,,,,,,,,,,,,,,,,,,,,,,,,,,,,,001,51,2020_Jan_30_1537,spring_faces,3.2.3,60.06762966360871,
condition files/Stage1_1.xlsx,,T3,B4,c,"['c', 'm']","['Clue', 'Monopoly']","[-0.15, 0.5]","[0.15, 0.5]",1,1,,,,,,,,,0,0,0,0,0,2,2,5,,,,,,,,,,,,,,,,,,,,,,,,,,,,,,,,,,,,,,,,,,,,,,,,,,,,,,,457.37743079899883,None,457.37743079899883,None,457.37743079899883,None,c,1,1.5449767620011698,459.21058098999856,None,459.21058098999856,None,459.21058098999856,None,460.81073198399827,None,460.81073198399827,None,460.81073198399827,None,460.81073198399827,None,,,,,,,,,,,,,,,,,,,,,,,,,,,,,,,,,,,,,,,,,,,,001,51,2020_Jan_30_1537,spring_faces,3.2.3,60.06762966360871,
condition files/Stage1_1.xlsx,,T2,B2,m,"['c', 'm']","['Clue', 'Monopoly']","[-0.15, 0.5]","[0.15, 0.5]",1,1,,,,,,,,,0,0,0,0,0,3,3,3,,,,,,,,,,,,,,,,,,,,,,,,,,,,,,,,,,,,,,,,,,,,,,,,,,,,,,,462.7941328720008,None,462.7941328720008,None,462.7941328720008,None,m,1,1.0201814620013465,464.32738333999805,None,464.32738333999805,None,464.32738333999805,None,465.42741706000015,None,465.42741706000015,None,465.42741706000015,None,465.42741706000015,None,,,,,,,,,,,,,,,,,,,,,,,,,,,,,,,,,,,,,,,,,,,,001,51,2020_Jan_30_1537,spring_faces,3.2.3,60.06762966360871,
condition files/Stage1_1.xlsx,,B4,T4,m,"['c', 'm']","['Clue', 'Monopoly']","[-0.15, 0.5]","[0.15, 0.5]",1,1,,,,,,,,,0,0,0,0,0,4,4,7,,,,,,,,,,,,,,,,,,,,,,,,,,,,,,,,,,,,,,,,,,,,,,,,,,,,,,,467.3940906079988,None,467.3940906079988,None,467.3940906079988,None,c,0,1.9881485980004072,468.92740208599935,None,468.92740208599935,None,468.92740208599935,None,470.994093213998,None,470.994093213998,None,470.994093213998,None,470.994093213998,None,,,,,,,,,,,,,,,,,,,,,,,,,,,,,,,,,,,,,,,,,,,,001,51,2020_Jan_30_1537,spring_faces,3.2.3,60.06762966360871,
condition files/Stage1_1.xlsx,,B1,T2,c,"['c', 'm']","['Clue', 'Monopoly']","[-0.15, 0.5]","[0.15, 0.5]",1,1,,,,,,,,,0,0,0,0,0,5,5,1,,,,,,,,,,,,,,,,,,,,,,,,,,,,,,,,,,,,,,,,,,,,,,,,,,,,,,,472.96079353000096,None,472.96079353000096,None,472.96079353000096,None,m,0,1.6214471130006132,474.49409629799993,None,474.49409629799993,None,474.49409629799993,None,476.1940671739976,None,476.1940671739976,None,476.1940671739976,None,476.1940671739976,None,,,,,,,,,,,,,,,,,,,,,,,,,,,,,,,,,,,,,,,,,,,,001,51,2020_Jan_30_1537,spring_faces,3.2.3,60.06762966360871,
condition files/Stage1_1.xlsx,,T4,B3,m,"['c', 'm']","['Clue', 'Monopoly']","[-0.15, 0.5]","[0.15, 0.5]",1,1,,,,,,,,,0,0,0,0,0,6,6,6,,,,,,,,,,,,,,,,,,,,,,,,,,,,,,,,,,,,,,,,,,,,,,,,,,,,,,,478.1607434059988,None,478.1607434059988,None,478.1607434059988,None,m,1,1.781562855001539,479.6940757379998,None,479.6940757379998,None,479.6940757379998,None,481.5440175679978,None,481.5440175679978,None,481.5440175679978,None,481.5440175679978,None,,,,,,,,,,,,,,,,,,,,,,,,,,,,,,,,,,,,,,,,,,,,001,51,2020_Jan_30_1537,spring_faces,3.2.3,60.06762966360871,
condition files/Stage1_1.xlsx,,T1,B1,c,"['c', 'm']","['Clue', 'Monopoly']","[-0.15, 0.5]","[0.15, 0.5]",1,1,,,,,,,,,0,0,0,0,0,7,7,0,,,,,,,,,,,,,,,,,,,,,,,,,,,,,,,,,,,,,,,,,,,,,,,,,,,,,,,483.5106462609983,None,483.5106462609983,None,483.5106462609983,None,m,0,1.9835241450018657,485.0440051660007,None,485.0440051660007,None,485.0440051660007,None,487.09407110399843,None,487.09407110399843,None,487.09407110399843,None,487.09407110399843,None,,,,,,,,,,,,,,,,,,,,,,,,,,,,,,,,,,,,,,,,,,,,001,51,2020_Jan_30_1537,spring_faces,3.2.3,60.06762966360871,
condition files/Stage1_2.xlsx,,B1,T1,c,"['c', 'm']","['Clue', 'Monopoly']","[-0.15, 0.5]","[0.15, 0.5]",1,1,,,,,,,,,0,1,1,1,0,0,0,0,,,,,,,,,,,,,,,,,,,,,,,,,,,,,,,,,,,,,,,,,,,,,,,,,,,,,,,489.0773525219993,None,489.0773525219993,None,489.0773525219993,None,c,1,1.4408665249975456,490.61071986800016,None,490.61071986800016,None,490.61071986800016,None,492.12739772299756,None,492.12739772299756,None,492.12739772299756,None,492.12739772299756,None,,,,,,,,,,,,,,,,,,,,,,,,,,,,,,,,,,,,,,,,,,,,001,51,2020_Jan_30_1537,spring_faces,3.2.3,60.06762966360871,
condition files/Stage1_2.xlsx,,B2,T2,m,"['c', 'm']","['Clue', 'Monopoly']","[-0.15, 0.5]","[0.15, 0.5]",1,1,,,,,,,,,0,1,1,1,0,1,1,3,,,,,,,,,,,,,,,,,,,,,,,,,,,,,,,,,,,,,,,,,,,,,,,,,,,,,,,494.0940753440009,None,494.0940753440009,None,494.0940753440009,None,m,1,0.9041466950002359,495.6274010849993,None,495.6274010849993,None,495.6274010849993,None,496.6107319139992,None,496.6107319139992,None,496.6107319139992,None,496.6107319139992,None,,,,,,,,,,,,,,,,,,,,,,,,,,,,,,,,,,,,,,,,,,,,001,51,2020_Jan_30_1537,spring_faces,3.2.3,60.06762966360871,
condition files/Stage1_2.xlsx,,T4,B4,m,"['c', 'm']","['Clue', 'Monopoly']","[-0.15, 0.5]","[0.15, 0.5]",1,1,,,,,,,,,0,1,1,1,0,2,2,7,,,,,,,,,,,,,,,,,,,,,,,,,,,,,,,,,,,,,,,,,,,,,,,,,,,,,,,498.5774228099981,None,498.5774228099981,None,498.5774228099981,None,c,0,2.0847501380012545,500.11073432299963,None,500.11073432299963,None,500.11073432299963,None,502.2606629799993,None,502.2606629799993,None,502.2606629799993,None,502.2606629799993,None,,,,,,,,,,,,,,,,,,,,,,,,,,,,,,,,,,,,,,,,,,,,001,51,2020_Jan_30_1537,spring_faces,3.2.3,60.06762966360871,
condition files/Stage1_2.xlsx,,T3,B3,c,"['c', 'm']","['Clue', 'Monopoly']","[-0.15, 0.5]","[0.15, 0.5]",1,1,,,,,,,,,0,1,1,1,0,3,3,4,,,,,,,,,,,,,,,,,,,,,,,,,,,,,,,,,,,,,,,,,,,,,,,,,,,,,,,504.24403827100105,None,504.24403827100105,None,504.24403827100105,None,c,1,1.3942786879997584,505.77731543999835,None,505.77731543999835,None,505.77731543999835,None,507.24409213499894,None,507.24409213499894,None,507.24409213499894,None,507.24409213499894,None,,,,,,,,,,,,,,,,,,,,,,,,,,,,,,,,,,,,,,,,,,,,001,51,2020_Jan_30_1537,spring_faces,3.2.3,60.06762966360871,
condition files/Stage1_2.xlsx,,T2,B1,c,"['c', 'm']","['Clue', 'Monopoly']","[-0.15, 0.5]","[0.15, 0.5]",1,1,,,,,,,,,0,1,1,1,0,4,4,1,,,,,,,,,,,,,,,,,,,,,,,,,,,,,,,,,,,,,,,,,,,,,,,,,,,,,,,509.2107773139978,None,509.2107773139978,None,509.2107773139978,None,m,0,1.1155386490027013,510.74410414999875,None,510.74410414999875,None,510.74410414999875,None,511.92738366199774,None,511.92738366199774,None,511.92738366199774,None,511.92738366199774,None,,,,,,,,,,,,,,,,,,,,,,,,,,,,,,,,,,,,,,,,,,,,001,51,2020_Jan_30_1537,spring_faces,3.2.3,60.06762966360871,
condition files/Stage1_2.xlsx,,T1,B2,m,"['c', 'm']","['Clue', 'Monopoly']","[-0.15, 0.5]","[0.15, 0.5]",1,1,,,,,,,,,0,1,1,1,0,5,5,2,,,,,,,,,,,,,,,,,,,,,,,,,,,,,,,,,,,,,,,,,,,,,,,,,,,,,,,513.8940417669983,None,513.8940417669983,None,513.8940417669983,None,m,1,2.000096953001048,515.4274223280008,None,515.4274223280008,None,515.4274223280008,None,517.4940156699995,None,517.4940156699995,None,517.4940156699995,None,517.4940156699995,None,,,,,,,,,,,,,,,,,,,,,,,,,,,,,,,,,,,,,,,,,,,,001,51,2020_Jan_30_1537,spring_faces,3.2.3,60.06762966360871,
condition files/Stage1_2.xlsx,,B3,T4,m,"['c', 'm']","['Clue', 'Monopoly']","[-0.15, 0.5]","[0.15, 0.5]",1,1,,,,,,,,,0,1,1,1,0,6,6,6,,,,,,,,,,,,,,,,,,,,,,,,,,,,,,,,,,,,,,,,,,,,,,,,,,,,,,,519.4606658819976,None,519.4606658819976,None,519.4606658819976,None,m,1,1.7934824539988767,520.9940773749986,None,520.9940773749986,None,520.9940773749986,None,522.8440931229998,None,522.8440931229998,None,522.8440931229998,None,522.8440931229998,None,,,,,,,,,,,,,,,,,,,,,,,,,,,,,,,,,,,,,,,,,,,,001,51,2020_Jan_30_1537,spring_faces,3.2.3,60.06762966360871,
condition files/Stage1_2.xlsx,,B4,T3,c,"['c', 'm']","['Clue', 'Monopoly']","[-0.15, 0.5]","[0.15, 0.5]",1,1,,,,,,,,,0,1,1,1,0,7,7,5,,,,,,,,,,,,,,,,,,,,,,,,,,,,,,,,,,,,,,,,,,,,,,,,,,,,,,,524.8274100620001,None,524.8274100620001,None,524.8274100620001,None,c,1,1.1309127120002813,526.3607329139995,None,526.3607329139995,None,526.3607329139995,None,527.5607497300007,None,527.5607497300007,None,527.5607497300007,None,527.5607497300007,None,,,,,,,,,,,,,,,,,,,,,,,,,,,,,,,,,,,,,,,,,,,,001,51,2020_Jan_30_1537,spring_faces,3.2.3,60.06762966360871,
condition files/Stage1_1.xlsx,,T4,B3,m,"['c', 'm']","['Clue', 'Monopoly']","[-0.15, 0.5]","[0.15, 0.5]",1,1,,,,,,,,,0,2,2,2,0,0,0,6,,,,,,,,,,,,,,,,,,,,,,,,,,,,,,,,,,,,,,,,,,,,,,,,,,,,,,,529.5440651749996,None,529.5440651749996,None,529.5440651749996,None,c,0,1.0541920629984816,531.077376352001,None,531.077376352001,None,531.077376352001,None,532.2107409169985,None,532.2107409169985,None,532.2107409169985,None,532.2107409169985,None,,,,,,,,,,,,,,,,,,,,,,,,,,,,,,,,,,,,,,,,,,,,001,51,2020_Jan_30_1537,spring_faces,3.2.3,60.06762966360871,
condition files/Stage1_1.xlsx,,B1,T2,c,"['c', 'm']","['Clue', 'Monopoly']","[-0.15, 0.5]","[0.15, 0.5]",1,1,,,,,,,,,0,2,2,2,0,1,1,1,,,,,,,,,,,,,,,,,,,,,,,,,,,,,,,,,,,,,,,,,,,,,,,,,,,,,,,534.1774062709992,None,534.1774062709992,None,534.1774062709992,None,m,0,2.164908433001983,535.7107342220006,None,535.7107342220006,None,535.7107342220006,None,537.9440408980008,None,537.9440408980008,None,537.9440408980008,None,537.9440408980008,None,,,,,,,,,,,,,,,,,,,,,,,,,,,,,,,,,,,,,,,,,,,,001,51,2020_Jan_30_1537,spring_faces,3.2.3,60.06762966360871,
condition files/Stage1_1.xlsx,,T3,B4,c,"['c', 'm']","['Clue', 'Monopoly']","[-0.15, 0.5]","[0.15, 0.5]",1,1,,,,,,,,,0,2,2,2,0,2,2,5,,,,,,,,,,,,,,,,,,,,,,,,,,,,,,,,,,,,,,,,,,,,,,,,,,,,,,,539.9107843189995,None,539.9107843189995,None,539.9107843189995,None,c,1,0.9755663239993737,541.4440326779986,None,541.4440326779986,None,541.4440326779986,None,542.4772771429998,None,542.4772771429998,None,542.4772771429998,None,542.4772771429998,None,,,,,,,,,,,,,,,,,,,,,,,,,,,,,,,,,,,,,,,,,,,,001,51,2020_Jan_30_1537,spring_faces,3.2.3,60.06762966360871,
condition files/Stage1_1.xlsx,,B2,T1,m,"['c', 'm']","['Clue', 'Monopoly']","[-0.15, 0.5]","[0.15, 0.5]",1,1,,,,,,,,,0,2,2,2,0,3,3,2,,,,,,,,,,,,,,,,,,,,,,,,,,,,,,,,,,,,,,,,,,,,,,,,,,,,,,,544.4607453799981,None,544.4607453799981,None,544.4607453799981,None,m,1,1.2576278680026007,545.993970088999,None,545.993970088999,None,545.993970088999,None,547.327438272001,None,547.327438272001,None,547.327438272001,None,547.327438272001,None,,,,,,,,,,,,,,,,,,,,,,,,,,,,,,,,,,,,,,,,,,,,001,51,2020_Jan_30_1537,spring_faces,3.2.3,60.06762966360871,
condition files/Stage1_1.xlsx,,B3,T3,c,"['c', 'm']","['Clue', 'Monopoly']","[-0.15, 0.5]","[0.15, 0.5]",1,1,,,,,,,,,0,2,2,2,0,4,4,4,,,,,,,,,,,,,,,,,,,,,,,,,,,,,,,,,,,,,,,,,,,,,,,,,,,,,,,549.2941003409978,None,549.2941003409978,None,549.2941003409978,None,c,1,0.8401312770001823,550.8274296529999,None,550.8274296529999,None,550.8274296529999,None,551.7440988769995,None,551.7440988769995,None,551.7440988769995,None,551.7440988769995,None,,,,,,,,,,,,,,,,,,,,,,,,,,,,,,,,,,,,,,,,,,,,001,51,2020_Jan_30_1537,spring_faces,3.2.3,60.06762966360871,
condition files/Stage1_1.xlsx,,T2,B2,m,"['c', 'm']","['Clue', 'Monopoly']","[-0.15, 0.5]","[0.15, 0.5]",1,1,,,,,,,,,0,2,2,2,0,5,5,3,,,,,,,,,,,,,,,,,,,,,,,,,,,,,,,,,,,,,,,,,,,,,,,,,,,,,,,553.7107891140004,None,553.7107891140004,None,553.7107891140004,None,m,1,1.5434842350005056,555.244095566999,None,555.244095566999,None,555.244095566999,None,556.8607619520008,None,556.8607619520008,None,556.8607619520008,None,556.8607619520008,None,,,,,,,,,,,,,,,,,,,,,,,,,,,,,,,,,,,,,,,,,,,,001,51,2020_Jan_30_1537,spring_faces,3.2.3,60.06762966360871,
condition files/Stage1_1.xlsx,,T1,B1,c,"['c', 'm']","['Clue', 'Monopoly']","[-0.15, 0.5]","[0.15, 0.5]",1,1,,,,,,,,,0,2,2,2,0,6,6,0,,,,,,,,,,,,,,,,,,,,,,,,,,,,,,,,,,,,,,,,,,,,,,,,,,,,,,,558.8274366559999,None,558.8274366559999,None,558.8274366559999,None,m,0,1.7387885640018794,560.360757669001,None,560.360757669001,None,560.360757669001,None,562.1774419389985,None,562.1774419389985,None,562.1774419389985,None,562.1774419389985,None,,,,,,,,,,,,,,,,,,,,,,,,,,,,,,,,,,,,,,,,,,,,001,51,2020_Jan_30_1537,spring_faces,3.2.3,60.06762966360871,
condition files/Stage1_1.xlsx,,B4,T4,m,"['c', 'm']","['Clue', 'Monopoly']","[-0.15, 0.5]","[0.15, 0.5]",1,1,,,,,,,,,0,2,2,2,0,7,7,7,,,,,,,,,,,,,,,,,,,,,,,,,,,,,,,,,,,,,,,,,,,,,,,,,,,,,,,564.1441106729981,None,564.1441106729981,None,564.1441106729981,None,c,0,0.9982023400007165,565.6774493689991,None,565.6774493689991,None,565.6774493689991,None,566.744072862999,None,566.744072862999,None,566.744072862999,None,566.744072862999,None,,,,,,,,,,,,,,,,,,,,,,,,,,,,,,,,,,,,,,,,,,,,001,51,2020_Jan_30_1537,spring_faces,3.2.3,60.06762966360871,
condition files/Stage1_2.xlsx,,T4,B4,m,"['c', 'm']","['Clue', 'Monopoly']","[-0.15, 0.5]","[0.15, 0.5]",1,1,,,,,,,,,0,3,3,3,0,0,0,7,,,,,,,,,,,,,,,,,,,,,,,,,,,,,,,,,,,,,,,,,,,,,,,,,,,,,,,568.7273938129983,None,568.7273938129983,None,568.7273938129983,None,m,1,1.1829401340000913,570.2607392809987,None,570.2607392809987,None,570.2607392809987,None,571.510686515001,None,571.510686515001,None,571.510686515001,None,571.510686515001,None,,,,,,,,,,,,,,,,,,,,,,,,,,,,,,,,,,,,,,,,,,,,001,51,2020_Jan_30_1537,spring_faces,3.2.3,60.06762966360871,
condition files/Stage1_2.xlsx,,B3,T4,m,"['c', 'm']","['Clue', 'Monopoly']","[-0.15, 0.5]","[0.15, 0.5]",1,1,,,,,,,,,0,3,3,3,0,1,1,6,,,,,,,,,,,,,,,,,,,,,,,,,,,,,,,,,,,,,,,,,,,,,,,,,,,,,,,573.4774367499995,None,573.4774367499995,None,573.4774367499995,None,m,1,1.6488386470009573,575.0107286729981,None,575.0107286729981,None,575.0107286729981,None,576.7106655759999,None,576.7106655759999,None,576.7106655759999,None,576.7106655759999,None,,,,,,,,,,,,,,,,,,,,,,,,,,,,,,,,,,,,,,,,,,,,001,51,2020_Jan_30_1537,spring_faces,3.2.3,60.06762966360871,
condition files/Stage1_2.xlsx,,B4,T3,c,"['c', 'm']","['Clue', 'Monopoly']","[-0.15, 0.5]","[0.15, 0.5]",1,1,,,,,,,,,0,3,3,3,0,2,2,5,,,,,,,,,,,,,,,,,,,,,,,,,,,,,,,,,,,,,,,,,,,,,,,,,,,,,,,578.6940139959988,None,578.6940139959988,None,578.6940139959988,None,c,1,2.5601557580012013,580.2274228139977,None,580.2274228139977,None,580.2274228139977,None,582.8607391039986,None,582.8607391039986,None,582.8607391039986,None,582.8607391039986,None,,,,,,,,,,,,,,,,,,,,,,,,,,,,,,,,,,,,,,,,,,,,001,51,2020_Jan_30_1537,spring_faces,3.2.3,60.06762966360871,
condition files/Stage1_2.xlsx,,B1,T1,c,"['c', 'm']","['Clue', 'Monopoly']","[-0.15, 0.5]","[0.15, 0.5]",1,1,,,,,,,,,0,3,3,3,0,3,3,0,,,,,,,,,,,,,,,,,,,,,,,,,,,,,,,,,,,,,,,,,,,,,,,,,,,,,,,584.827440093999,None,584.827440093999,None,584.827440093999,None,m,0,1.2428247860007104,586.3607319389994,None,586.3607319389994,None,586.3607319389994,None,587.6774091939988,None,587.6774091939988,None,587.6774091939988,None,587.6774091939988,None,,,,,,,,,,,,,,,,,,,,,,,,,,,,,,,,,,,,,,,,,,,,001,51,2020_Jan_30_1537,spring_faces,3.2.3,60.06762966360871,
condition files/Stage1_2.xlsx,,T1,B2,m,"['c', 'm']","['Clue', 'Monopoly']","[-0.15, 0.5]","[0.15, 0.5]",1,1,,,,,,,,,0,3,3,3,0,4,4,2,,,,,,,,,,,,,,,,,,,,,,,,,,,,,,,,,,,,,,,,,,,,,,,,,,,,,,,589.6441069239991,None,589.6441069239991,None,589.6441069239991,None,m,1,0.7302119300002232,591.1774000570003,None,591.1774000570003,None,591.1774000570003,None,591.9774302039987,None,591.9774302039987,None,591.9774302039987,None,591.9774302039987,None,,,,,,,,,,,,,,,,,,,,,,,,,,,,,,,,,,,,,,,,,,,,001,51,2020_Jan_30_1537,spring_faces,3.2.3,60.06762966360871,
condition files/Stage1_2.xlsx,,T3,B3,c,"['c', 'm']","['Clue', 'Monopoly']","[-0.15, 0.5]","[0.15, 0.5]",1,1,,,,,,,,,0,3,3,3,0,5,5,4,,,,,,,,,,,,,,,,,,,,,,,,,,,,,,,,,,,,,,,,,,,,,,,,,,,,,,,593.9441095049988,None,593.9441095049988,None,593.9441095049988,None,c,1,0.8782330009998986,595.4773692829986,None,595.4773692829986,None,595.4773692829986,None,596.4274275499993,None,596.4274275499993,None,596.4274275499993,None,596.4274275499993,None,,,,,,,,,,,,,,,,,,,,,,,,,,,,,,,,,,,,,,,,,,,,001,51,2020_Jan_30_1537,spring_faces,3.2.3,60.06762966360871,
condition files/Stage1_2.xlsx,,T2,B1,c,"['c', 'm']","['Clue', 'Monopoly']","[-0.15, 0.5]","[0.15, 0.5]",1,1,,,,,,,,,0,3,3,3,0,6,6,1,,,,,,,,,,,,,,,,,,,,,,,,,,,,,,,,,,,,,,,,,,,,,,,,,,,,,,,598.3941223239999,None,598.3941223239999,None,598.3941223239999,None,c,1,4.01221180200082,599.9273798619979,None,599.9273798619979,None,599.9273798619979,None,603.9939078379975,None,603.9939078379975,None,603.9939078379975,None,603.9939078379975,None,,,,,,,,,,,,,,,,,,,,,,,,,,,,,,,,,,,,,,,,,,,,001,51,2020_Jan_30_1537,spring_faces,3.2.3,60.06762966360871,
condition files/Stage1_2.xlsx,,B2,T2,m,"['c', 'm']","['Clue', 'Monopoly']","[-0.15, 0.5]","[0.15, 0.5]",1,1,,,,,,,,,0,3,3,3,0,7,7,3,,,,,,,,,,,,,,,,,,,,,,,,,,,,,,,,,,,,,,,,,,,,,,,,,,,,,,,605.9774356649978,None,605.9774356649978,None,605.9774356649978,None,m,1,1.3249270870001055,607.5106742459975,None,607.5106742459975,None,607.5106742459975,None,608.9107585540005,None,608.9107585540005,None,608.9107585540005,None,608.9107585540005,None,,,,,,,,,,,,,,,,,,,,,,,,,,,,,,,,,,,,,,,,,,,,001,51,2020_Jan_30_1537,spring_faces,3.2.3,60.06762966360871,
condition files/Stage1_1.xlsx,,B4,T4,m,"['c', 'm']","['Clue', 'Monopoly']","[-0.15, 0.5]","[0.15, 0.5]",1,1,,,,,,,,,0,4,4,4,0,0,0,7,,,,,,,,,,,,,,,,,,,,,,,,,,,,,,,,,,,,,,,,,,,,,,,,,,,,,,,610.8940877200002,None,610.8940877200002,None,610.8940877200002,None,c,0,1.112173511999572,612.4274300539983,None,612.4274300539983,None,612.4274300539983,None,613.5940933210004,None,613.5940933210004,None,613.5940933210004,None,613.5940933210004,None,,,,,,,,,,,,,,,,,,,,,,,,,,,,,,,,,,,,,,,,,,,,001,51,2020_Jan_30_1537,spring_faces,3.2.3,60.06762966360871,
condition files/Stage1_1.xlsx,,B1,T2,c,"['c', 'm']","['Clue', 'Monopoly']","[-0.15, 0.5]","[0.15, 0.5]",1,1,,,,,,,,,0,4,4,4,0,1,1,1,,,,,,,,,,,,,,,,,,,,,,,,,,,,,,,,,,,,,,,,,,,,,,,,,,,,,,,615.5774324550002,None,615.5774324550002,None,615.5774324550002,None,c,1,1.0048862280018511,617.1106859809988,None,617.1106859809988,None,617.1106859809988,None,618.1940785229999,None,618.1940785229999,None,618.1940785229999,None,618.1940785229999,None,,,,,,,,,,,,,,,,,,,,,,,,,,,,,,,,,,,,,,,,,,,,001,51,2020_Jan_30_1537,spring_faces,3.2.3,60.06762966360871,
condition files/Stage1_1.xlsx,,B3,T3,c,"['c', 'm']","['Clue', 'Monopoly']","[-0.15, 0.5]","[0.15, 0.5]",1,1,,,,,,,,,0,4,4,4,0,2,2,4,,,,,,,,,,,,,,,,,,,,,,,,,,,,,,,,,,,,,,,,,,,,,,,,,,,,,,,620.1607597590009,None,620.1607597590009,None,620.1607597590009,None,c,1,0.8054526110026927,621.6940880019974,None,621.6940880019974,None,621.6940880019974,None,622.5606803369992,None,622.5606803369992,None,622.5606803369992,None,622.5606803369992,None,,,,,,,,,,,,,,,,,,,,,,,,,,,,,,,,,,,,,,,,,,,,001,51,2020_Jan_30_1537,spring_faces,3.2.3,60.06762966360871,
condition files/Stage1_1.xlsx,,B2,T1,m,"['c', 'm']","['Clue', 'Monopoly']","[-0.15, 0.5]","[0.15, 0.5]",1,1,,,,,,,,,0,4,4,4,0,3,3,2,,,,,,,,,,,,,,,,,,,,,,,,,,,,,,,,,,,,,,,,,,,,,,,,,,,,,,,624.544100482999,None,624.544100482999,None,624.544100482999,None,m,1,1.7180480329989223,626.0774357909977,None,626.0774357909977,None,626.0774357909977,None,627.8774261069993,None,627.8774261069993,None,627.8774261069993,None,627.8774261069993,None,,,,,,,,,,,,,,,,,,,,,,,,,,,,,,,,,,,,,,,,,,,,001,51,2020_Jan_30_1537,spring_faces,3.2.3,60.06762966360871,
condition files/Stage1_1.xlsx,,T2,B2,m,"['c', 'm']","['Clue', 'Monopoly']","[-0.15, 0.5]","[0.15, 0.5]",1,1,,,,,,,,,0,4,4,4,0,4,4,3,,,,,,,,,,,,,,,,,,,,,,,,,,,,,,,,,,,,,,,,,,,,,,,,,,,,,,,629.8440822369994,None,629.8440822369994,None,629.8440822369994,None,m,1,2.930208632002177,631.3774097269998,None,631.3774097269998,None,631.3774097269998,None,634.3606377779979,None,634.3606377779979,None,634.3606377779979,None,634.3606377779979,None,,,,,,,,,,,,,,,,,,,,,,,,,,,,,,,,,,,,,,,,,,,,001,51,2020_Jan_30_1537,spring_faces,3.2.3,60.06762966360871,
condition files/Stage1_1.xlsx,,T1,B1,c,"['c', 'm']","['Clue', 'Monopoly']","[-0.15, 0.5]","[0.15, 0.5]",1,1,,,,,,,,,0,4,4,4,0,5,5,0,,,,,,,,,,,,,,,,,,,,,,,,,,,,,,,,,,,,,,,,,,,,,,,,,,,,,,,636.3440510569999,None,636.3440510569999,None,636.3440510569999,None,c,1,4.398291991001315,637.8773569330006,None,637.8773569330006,None,637.8773569330006,None,642.3440989549999,None,642.3440989549999,None,642.3440989549999,None,642.3440989549999,None,,,,,,,,,,,,,,,,,,,,,,,,,,,,,,,,,,,,,,,,,,,,001,51,2020_Jan_30_1537,spring_faces,3.2.3,60.06762966360871,
condition files/Stage1_1.xlsx,,T4,B3,m,"['c', 'm']","['Clue', 'Monopoly']","[-0.15, 0.5]","[0.15, 0.5]",1,1,,,,,,,,,0,4,4,4,0,6,6,6,,,,,,,,,,,,,,,,,,,,,,,,,,,,,,,,,,,,,,,,,,,,,,,,,,,,,,,644.3106962479978,None,644.3106962479978,None,644.3106962479978,None,m,1,3.343567935000465,645.8440304199976,None,645.8440304199976,None,645.8440304199976,None,649.2607668380006,None,649.2607668380006,None,649.2607668380006,None,649.2607668380006,None,,,,,,,,,,,,,,,,,,,,,,,,,,,,,,,,,,,,,,,,,,,,001,51,2020_Jan_30_1537,spring_faces,3.2.3,60.06762966360871,
condition files/Stage1_1.xlsx,,T3,B4,c,"['c', 'm']","['Clue', 'Monopoly']","[-0.15, 0.5]","[0.15, 0.5]",1,1,,,,,,,,,0,4,4,4,0,7,7,5,,,,,,,,,,,,,,,,,,,,,,,,,,,,,,,,,,,,,,,,,,,,,,,,,,,,,,,651.2274224659996,None,651.2274224659996,None,651.2274224659996,None,c,1,3.546881163998478,652.7607565519975,None,652.7607565519975,None,652.7607565519975,None,656.377428361,None,656.377428361,None,656.377428361,None,656.377428361,None,,,,,,,,,,,,,,,,,,,,,,,,,,,,,,,,,,,,,,,,,,,,001,51,2020_Jan_30_1537,spring_faces,3.2.3,60.06762966360871,
condition files/Stage1_2.xlsx,,B3,T4,m,"['c', 'm']","['Clue', 'Monopoly']","[-0.15, 0.5]","[0.15, 0.5]",1,1,,,,,,,,,0,5,5,5,0,0,0,6,,,,,,,,,,,,,,,,,,,,,,,,,,,,,,,,,,,,,,,,,,,,,,,,,,,,,,,658.3607608269995,None,658.3607608269995,None,658.3607608269995,None,c,0,1.2136252579985012,659.8940318200002,None,659.8940318200002,None,659.8940318200002,None,661.1774432589991,None,661.1774432589991,None,661.1774432589991,None,661.1774432589991,None,,,,,,,,,,,,,,,,,,,,,,,,,,,,,,,,,,,,,,,,,,,,001,51,2020_Jan_30_1537,spring_faces,3.2.3,60.06762966360871,
condition files/Stage1_2.xlsx,,T2,B1,c,"['c', 'm']","['Clue', 'Monopoly']","[-0.15, 0.5]","[0.15, 0.5]",1,1,,,,,,,,,0,5,5,5,0,1,1,1,,,,,,,,,,,,,,,,,,,,,,,,,,,,,,,,,,,,,,,,,,,,,,,,,,,,,,,663.1440736160002,None,663.1440736160002,None,663.1440736160002,None,c,1,1.6622072379977908,664.6773747859988,None,664.6773747859988,None,664.6773747859988,None,666.4106362659986,None,666.4106362659986,None,666.4106362659986,None,666.4106362659986,None,,,,,,,,,,,,,,,,,,,,,,,,,,,,,,,,,,,,,,,,,,,,001,51,2020_Jan_30_1537,spring_faces,3.2.3,60.06762966360871,
condition files/Stage1_2.xlsx,,B1,T1,c,"['c', 'm']","['Clue', 'Monopoly']","[-0.15, 0.5]","[0.15, 0.5]",1,1,,,,,,,,,0,5,5,5,0,2,2,0,,,,,,,,,,,,,,,,,,,,,,,,,,,,,,,,,,,,,,,,,,,,,,,,,,,,,,,668.3774093979991,None,668.3774093979991,None,668.3774093979991,None,c,1,1.2447886299996753,669.910674726998,None,669.910674726998,None,669.910674726998,None,671.210753536001,None,671.210753536001,None,671.210753536001,None,671.210753536001,None,,,,,,,,,,,,,,,,,,,,,,,,,,,,,,,,,,,,,,,,,,,,001,51,2020_Jan_30_1537,spring_faces,3.2.3,60.06762966360871,
condition files/Stage1_2.xlsx,,B2,T2,m,"['c', 'm']","['Clue', 'Monopoly']","[-0.15, 0.5]","[0.15, 0.5]",1,1,,,,,,,,,0,5,5,5,0,3,3,3,,,,,,,,,,,,,,,,,,,,,,,,,,,,,,,,,,,,,,,,,,,,,,,,,,,,,,,673.1941228190008,None,673.1941228190008,None,673.1941228190008,None,m,1,1.0041910529980669,674.7273807409983,None,674.7273807409983,None,674.7273807409983,None,675.8107891929976,None,675.8107891929976,None,675.8107891929976,None,675.8107891929976,None,,,,,,,,,,,,,,,,,,,,,,,,,,,,,,,,,,,,,,,,,,,,001,51,2020_Jan_30_1537,spring_faces,3.2.3,60.06762966360871,
condition files/Stage1_2.xlsx,,B4,T3,c,"['c', 'm']","['Clue', 'Monopoly']","[-0.15, 0.5]","[0.15, 0.5]",1,1,,,,,,,,,0,5,5,5,0,4,4,5,,,,,,,,,,,,,,,,,,,,,,,,,,,,,,,,,,,,,,,,,,,,,,,,,,,,,,,677.7774463959977,None,677.7774463959977,None,677.7774463959977,None,m,0,8.148885366001196,679.3107637059984,None,679.3107637059984,None,679.3107637059984,None,687.5272639100003,None,687.5272639100003,None,687.5272639100003,None,687.5272639100003,None,,,,,,,,,,,,,,,,,,,,,,,,,,,,,,,,,,,,,,,,,,,,001,51,2020_Jan_30_1537,spring_faces,3.2.3,60.06762966360871,
condition files/Stage1_2.xlsx,,T1,B2,m,"['c', 'm']","['Clue', 'Monopoly']","[-0.15, 0.5]","[0.15, 0.5]",1,1,,,,,,,,,0,5,5,5,0,5,5,2,,,,,,,,,,,,,,,,,,,,,,,,,,,,,,,,,,,,,,,,,,,,,,,,,,,,,,,689.4940099480009,None,689.4940099480009,None,689.4940099480009,None,m,1,0.9121086319973983,691.0274258520003,None,691.0274258520003,None,691.0274258520003,None,692.0107788189998,None,692.0107788189998,None,692.0107788189998,None,692.0107788189998,None,,,,,,,,,,,,,,,,,,,,,,,,,,,,,,,,,,,,,,,,,,,,001,51,2020_Jan_30_1537,spring_faces,3.2.3,60.06762966360871,
condition files/Stage1_2.xlsx,,T4,B4,m,"['c', 'm']","['Clue', 'Monopoly']","[-0.15, 0.5]","[0.15, 0.5]",1,1,,,,,,,,,0,5,5,5,0,6,6,7,,,,,,,,,,,,,,,,,,,,,,,,,,,,,,,,,,,,,,,,,,,,,,,,,,,,,,,693.977418759001,None,693.977418759001,None,693.977418759001,None,m,1,1.3249022509990027,695.5107085969976,None,695.5107085969976,None,695.5107085969976,None,696.910747165999,None,696.910747165999,None,696.910747165999,None,696.910747165999,None,,,,,,,,,,,,,,,,,,,,,,,,,,,,,,,,,,,,,,,,,,,,001,51,2020_Jan_30_1537,spring_faces,3.2.3,60.06762966360871,
condition files/Stage1_2.xlsx,,T3,B3,c,"['c', 'm']","['Clue', 'Monopoly']","[-0.15, 0.5]","[0.15, 0.5]",1,1,,,,,,,,,0,5,5,5,0,7,7,4,,,,,,,,,,,,,,,,,,,,,,,,,,,,,,,,,,,,,,,,,,,,,,,,,,,,,,,698.8774332369976,None,698.8774332369976,None,698.8774332369976,None,c,1,0.8568236870014516,700.4107402509981,None,700.4107402509981,None,700.4107402509981,None,701.3441160449984,None,701.3441160449984,None,701.3441160449984,None,701.3441160449984,None,,,,,,,,,,,,,,,,,,,,,,,,,,,,,,,,,,,,,,,,,,,,001,51,2020_Jan_30_1537,spring_faces,3.2.3,60.06762966360871,
condition files/Stage1_1.xlsx,,B4,T4,m,"['c', 'm']","['Clue', 'Monopoly']","[-0.15, 0.5]","[0.15, 0.5]",1,1,,,,,,,,,0,6,6,6,0,0,0,7,,,,,,,,,,,,,,,,,,,,,,,,,,,,,,,,,,,,,,,,,,,,,,,,,,,,,,,703.3274254379976,None,703.3274254379976,None,703.3274254379976,None,m,1,2.8227928900014376,704.8607615349974,None,704.8607615349974,None,704.8607615349974,None,707.7607436939979,None,707.7607436939979,None,707.7607436939979,None,707.7607436939979,None,,,,,,,,,,,,,,,,,,,,,,,,,,,,,,,,,,,,,,,,,,,,001,51,2020_Jan_30_1537,spring_faces,3.2.3,60.06762966360871,
condition files/Stage1_1.xlsx,,B3,T3,c,"['c', 'm']","['Clue', 'Monopoly']","[-0.15, 0.5]","[0.15, 0.5]",1,1,,,,,,,,,0,6,6,6,0,1,1,4,,,,,,,,,,,,,,,,,,,,,,,,,,,,,,,,,,,,,,,,,,,,,,,,,,,,,,,709.727422052998,None,709.727422052998,None,709.727422052998,None,c,1,1.3667556990003504,711.2607640679998,None,711.2607640679998,None,711.2607640679998,None,712.6940460250007,None,712.6940460250007,None,712.6940460250007,None,712.6940460250007,None,,,,,,,,,,,,,,,,,,,,,,,,,,,,,,,,,,,,,,,,,,,,001,51,2020_Jan_30_1537,spring_faces,3.2.3,60.06762966360871,
condition files/Stage1_1.xlsx,,T2,B2,m,"['c', 'm']","['Clue', 'Monopoly']","[-0.15, 0.5]","[0.15, 0.5]",1,1,,,,,,,,,0,6,6,6,0,2,2,3,,,,,,,,,,,,,,,,,,,,,,,,,,,,,,,,,,,,,,,,,,,,,,,,,,,,,,,714.6606711719978,None,714.6606711719978,None,714.6606711719978,None,m,1,1.633397055000387,716.1941263900007,None,716.1941263900007,None,716.1941263900007,None,717.8940284409982,None,717.8940284409982,None,717.8940284409982,None,717.8940284409982,None,,,,,,,,,,,,,,,,,,,,,,,,,,,,,,,,,,,,,,,,,,,,001,51,2020_Jan_30_1537,spring_faces,3.2.3,60.06762966360871,
condition files/Stage1_1.xlsx,,B2,T1,m,"['c', 'm']","['Clue', 'Monopoly']","[-0.15, 0.5]","[0.15, 0.5]",1,1,,,,,,,,,0,6,6,6,0,3,3,2,,,,,,,,,,,,,,,,,,,,,,,,,,,,,,,,,,,,,,,,,,,,,,,,,,,,,,,719.8606633759991,None,719.8606633759991,None,719.8606633759991,None,m,1,1.2975898740005505,721.3940581709976,None,721.3940581709976,None,721.3940581709976,None,722.7607727319992,None,722.7607727319992,None,722.7607727319992,None,722.7607727319992,None,,,,,,,,,,,,,,,,,,,,,,,,,,,,,,,,,,,,,,,,,,,,001,51,2020_Jan_30_1537,spring_faces,3.2.3,60.06762966360871,
condition files/Stage1_1.xlsx,,B1,T2,c,"['c', 'm']","['Clue', 'Monopoly']","[-0.15, 0.5]","[0.15, 0.5]",1,1,,,,,,,,,0,6,6,6,0,4,4,1,,,,,,,,,,,,,,,,,,,,,,,,,,,,,,,,,,,,,,,,,,,,,,,,,,,,,,,724.727460148999,None,724.727460148999,None,724.727460148999,None,c,1,1.3588922369999636,726.2607137009982,None,726.2607137009982,None,726.2607137009982,None,727.6940843849989,None,727.6940843849989,None,727.6940843849989,None,727.6940843849989,None,,,,,,,,,,,,,,,,,,,,,,,,,,,,,,,,,,,,,,,,,,,,001,51,2020_Jan_30_1537,spring_faces,3.2.3,60.06762966360871,
condition files/Stage1_1.xlsx,,T1,B1,c,"['c', 'm']","['Clue', 'Monopoly']","[-0.15, 0.5]","[0.15, 0.5]",1,1,,,,,,,,,0,6,6,6,0,5,5,0,,,,,,,,,,,,,,,,,,,,,,,,,,,,,,,,,,,,,,,,,,,,,,,,,,,,,,,729.6607352989995,None,729.6607352989995,None,729.6607352989995,None,c,1,1.3534793569997419,731.1940916249987,None,731.1940916249987,None,731.1940916249987,None,732.610757978,None,732.610757978,None,732.610757978,None,732.610757978,None,,,,,,,,,,,,,,,,,,,,,,,,,,,,,,,,,,,,,,,,,,,,001,51,2020_Jan_30_1537,spring_faces,3.2.3,60.06762966360871,
condition files/Stage1_1.xlsx,,T3,B4,c,"['c', 'm']","['Clue', 'Monopoly']","[-0.15, 0.5]","[0.15, 0.5]",1,1,,,,,,,,,0,6,6,6,0,6,6,5,,,,,,,,,,,,,,,,,,,,,,,,,,,,,,,,,,,,,,,,,,,,,,,,,,,,,,,734.5941081279998,None,734.5941081279998,None,734.5941081279998,None,c,1,1.8761628040010692,736.1274242260006,None,736.1274242260006,None,736.1274242260006,None,738.0602956229995,None,738.0602956229995,None,738.0602956229995,None,738.0602956229995,None,,,,,,,,,,,,,,,,,,,,,,,,,,,,,,,,,,,,,,,,,,,,001,51,2020_Jan_30_1537,spring_faces,3.2.3,60.06762966360871,
condition files/Stage1_1.xlsx,,T4,B3,m,"['c', 'm']","['Clue', 'Monopoly']","[-0.15, 0.5]","[0.15, 0.5]",1,1,,,,,,,,,0,6,6,6,0,7,7,6,,,,,,,,,,,,,,,,,,,,,,,,,,,,,,,,,,,,,,,,,,,,,,,,,,,,,,,740.0441309489979,None,740.0441309489979,None,740.0441309489979,None,m,1,1.3381205949990544,741.5774296009986,None,741.5774296009986,None,741.5774296009986,None,742.994094611,None,742.994094611,None,742.994094611,None,742.994094611,None,,,,,,,,,,,,,,,,,,,,,,,,,,,,,,,,,,,,,,,,,,,,001,51,2020_Jan_30_1537,spring_faces,3.2.3,60.06762966360871,
condition files/Stage1_2.xlsx,,T4,B4,m,"['c', 'm']","['Clue', 'Monopoly']","[-0.15, 0.5]","[0.15, 0.5]",1,1,,,,,,,,,0,7,7,7,0,0,0,7,,,,,,,,,,,,,,,,,,,,,,,,,,,,,,,,,,,,,,,,,,,,,,,,,,,,,,,744.9774295649986,None,744.9774295649986,None,744.9774295649986,None,m,1,1.2687880199991923,746.5107582919991,None,746.5107582919991,None,746.5107582919991,None,747.8441461889997,None,747.8441461889997,None,747.8441461889997,None,747.8441461889997,None,,,,,,,,,,,,,,,,,,,,,,,,,,,,,,,,,,,,,,,,,,,,001,51,2020_Jan_30_1537,spring_faces,3.2.3,60.06762966360871,
condition files/Stage1_2.xlsx,,B1,T1,c,"['c', 'm']","['Clue', 'Monopoly']","[-0.15, 0.5]","[0.15, 0.5]",1,1,,,,,,,,,0,7,7,7,0,1,1,0,,,,,,,,,,,,,,,,,,,,,,,,,,,,,,,,,,,,,,,,,,,,,,,,,,,,,,,749.8274195609993,None,749.8274195609993,None,749.8274195609993,None,c,1,1.1068387369996344,751.3607374599997,None,751.3607374599997,None,751.3607374599997,None,752.5440780829995,None,752.5440780829995,None,752.5440780829995,None,752.5440780829995,None,,,,,,,,,,,,,,,,,,,,,,,,,,,,,,,,,,,,,,,,,,,,001,51,2020_Jan_30_1537,spring_faces,3.2.3,60.06762966360871,
condition files/Stage1_2.xlsx,,B3,T4,m,"['c', 'm']","['Clue', 'Monopoly']","[-0.15, 0.5]","[0.15, 0.5]",1,1,,,,,,,,,0,7,7,7,0,2,2,6,,,,,,,,,,,,,,,,,,,,,,,,,,,,,,,,,,,,,,,,,,,,,,,,,,,,,,,754.5107510099988,None,754.5107510099988,None,754.5107510099988,None,m,1,1.127358206998906,756.0440825330006,None,756.0440825330006,None,756.0440825330006,None,757.2440975579993,None,757.2440975579993,None,757.2440975579993,None,757.2440975579993,None,,,,,,,,,,,,,,,,,,,,,,,,,,,,,,,,,,,,,,,,,,,,001,51,2020_Jan_30_1537,spring_faces,3.2.3,60.06762966360871,
condition files/Stage1_2.xlsx,,B4,T3,c,"['c', 'm']","['Clue', 'Monopoly']","[-0.15, 0.5]","[0.15, 0.5]",1,1,,,,,,,,,0,7,7,7,0,3,3,5,,,,,,,,,,,,,,,,,,,,,,,,,,,,,,,,,,,,,,,,,,,,,,,,,,,,,,,759.2107721899993,None,759.2107721899993,None,759.2107721899993,None,c,1,0.907493834001798,760.7440686359987,None,760.7440686359987,None,760.7440686359987,None,761.72743223,None,761.72743223,None,761.72743223,None,761.72743223,None,,,,,,,,,,,,,,,,,,,,,,,,,,,,,,,,,,,,,,,,,,,,001,51,2020_Jan_30_1537,spring_faces,3.2.3,60.06762966360871,
condition files/Stage1_2.xlsx,,B2,T2,m,"['c', 'm']","['Clue', 'Monopoly']","[-0.15, 0.5]","[0.15, 0.5]",1,1,,,,,,,,,0,7,7,7,0,4,4,3,,,,,,,,,,,,,,,,,,,,,,,,,,,,,,,,,,,,,,,,,,,,,,,,,,,,,,,763.6940902299975,None,763.6940902299975,None,763.6940902299975,None,m,1,0.888154915002815,765.2274355299996,None,765.2274355299996,None,765.2274355299996,None,766.1940762220001,None,766.1940762220001,None,766.1940762220001,None,766.1940762220001,None,,,,,,,,,,,,,,,,,,,,,,,,,,,,,,,,,,,,,,,,,,,,001,51,2020_Jan_30_1537,spring_faces,3.2.3,60.06762966360871,
condition files/Stage1_2.xlsx,,T2,B1,c,"['c', 'm']","['Clue', 'Monopoly']","[-0.15, 0.5]","[0.15, 0.5]",1,1,,,,,,,,,0,7,7,7,0,5,5,1,,,,,,,,,,,,,,,,,,,,,,,,,,,,,,,,,,,,,,,,,,,,,,,,,,,,,,,768.1607364869997,None,768.1607364869997,None,768.1607364869997,None,c,1,0.8534809890006727,769.694079593999,None,769.694079593999,None,769.694079593999,None,770.6274353749977,None,770.6274353749977,None,770.6274353749977,None,770.6274353749977,None,,,,,,,,,,,,,,,,,,,,,,,,,,,,,,,,,,,,,,,,,,,,001,51,2020_Jan_30_1537,spring_faces,3.2.3,60.06762966360871,
condition files/Stage1_2.xlsx,,T1,B2,m,"['c', 'm']","['Clue', 'Monopoly']","[-0.15, 0.5]","[0.15, 0.5]",1,1,,,,,,,,,0,7,7,7,0,6,6,2,,,,,,,,,,,,,,,,,,,,,,,,,,,,,,,,,,,,,,,,,,,,,,,,,,,,,,,772.5941083639991,None,772.5941083639991,None,772.5941083639991,None,m,1,0.8201375909993658,774.1274228109978,None,774.1274228109978,None,774.1274228109978,None,775.0273294010003,None,775.0273294010003,None,775.0273294010003,None,775.0273294010003,None,,,,,,,,,,,,,,,,,,,,,,,,,,,,,,,,,,,,,,,,,,,,001,51,2020_Jan_30_1537,spring_faces,3.2.3,60.06762966360871,
condition files/Stage1_2.xlsx,,T3,B3,c,"['c', 'm']","['Clue', 'Monopoly']","[-0.15, 0.5]","[0.15, 0.5]",1,1,,,,,,,,,0,7,7,7,0,7,7,4,,,,,,,,,,,,,,,,,,,,,,,,,,,,,,,,,,,,,,,,,,,,,,,,,,,,,,,776.9940841489988,None,776.9940841489988,None,776.9940841489988,None,c,1,1.5242166870011715,778.5274135910004,None,778.5274135910004,None,778.5274135910004,None,780.1274450019991,None,780.1274450019991,None,780.1274450019991,None,780.1274450019991,None,,,,,,,,,,,,,,,,,,,,,,,,,,,,,,,,,,,,,,,,,,,,001,51,2020_Jan_30_1537,spring_faces,3.2.3,60.06762966360871,
condition files/Stage1_1.xlsx,,B4,T4,m,"['c', 'm']","['Clue', 'Monopoly']","[-0.15, 0.5]","[0.15, 0.5]",1,1,,,,,,,,,0,8,8,8,0,0,0,7,,,,,,,,,,,,,,,,,,,,,,,,,,,,,,,,,,,,,,,,,,,,,,,,,,,,,,,782.1107785669992,None,782.1107785669992,None,782.1107785669992,None,m,1,0.7594749850031803,783.6441039499987,None,783.6441039499987,None,783.6441039499987,None,784.4774229119976,None,784.4774229119976,None,784.4774229119976,None,784.4774229119976,None,,,,,,,,,,,,,,,,,,,,,,,,,,,,,,,,,,,,,,,,,,,,001,51,2020_Jan_30_1537,spring_faces,3.2.3,60.06762966360871,
condition files/Stage1_1.xlsx,,T1,B1,c,"['c', 'm']","['Clue', 'Monopoly']","[-0.15, 0.5]","[0.15, 0.5]",1,1,,,,,,,,,0,8,8,8,0,1,1,0,,,,,,,,,,,,,,,,,,,,,,,,,,,,,,,,,,,,,,,,,,,,,,,,,,,,,,,786.4440780229997,None,786.4440780229997,None,786.4440780229997,None,c,1,1.497542634002457,787.9940819099975,None,787.9940819099975,None,787.9940819099975,None,789.5607534279989,None,789.5607534279989,None,789.5607534279989,None,789.5607534279989,None,,,,,,,,,,,,,,,,,,,,,,,,,,,,,,,,,,,,,,,,,,,,001,51,2020_Jan_30_1537,spring_faces,3.2.3,60.06762966360871,
condition files/Stage1_1.xlsx,,T2,B2,m,"['c', 'm']","['Clue', 'Monopoly']","[-0.15, 0.5]","[0.15, 0.5]",1,1,,,,,,,,,0,8,8,8,0,2,2,3,,,,,,,,,,,,,,,,,,,,,,,,,,,,,,,,,,,,,,,,,,,,,,,,,,,,,,,791.5274040349977,None,791.5274040349977,None,791.5274040349977,None,m,1,1.0222218560011243,793.0773710209978,None,793.0773710209978,None,793.0773710209978,None,794.1774104239994,None,794.1774104239994,None,794.1774104239994,None,794.1774104239994,None,,,,,,,,,,,,,,,,,,,,,,,,,,,,,,,,,,,,,,,,,,,,001,51,2020_Jan_30_1537,spring_faces,3.2.3,60.06762966360871,
condition files/Stage1_1.xlsx,,B1,T2,c,"['c', 'm']","['Clue', 'Monopoly']","[-0.15, 0.5]","[0.15, 0.5]",1,1,,,,,,,,,0,8,8,8,0,3,3,1,,,,,,,,,,,,,,,,,,,,,,,,,,,,,,,,,,,,,,,,,,,,,,,,,,,,,,,796.143991369001,None,796.143991369001,None,796.143991369001,None,c,1,2.5020953839994036,797.6774130569975,None,797.6774130569975,None,797.6774130569975,None,800.2607168059985,None,800.2607168059985,None,800.2607168059985,None,800.2607168059985,None,,,,,,,,,,,,,,,,,,,,,,,,,,,,,,,,,,,,,,,,,,,,001,51,2020_Jan_30_1537,spring_faces,3.2.3,60.06762966360871,
condition files/Stage1_1.xlsx,,B2,T1,m,"['c', 'm']","['Clue', 'Monopoly']","[-0.15, 0.5]","[0.15, 0.5]",1,1,,,,,,,,,0,8,8,8,0,4,4,2,,,,,,,,,,,,,,,,,,,,,,,,,,,,,,,,,,,,,,,,,,,,,,,,,,,,,,,802.2274155359992,None,802.2274155359992,None,802.2274155359992,None,m,1,1.2347463339974638,803.7607437799998,None,803.7607437799998,None,803.7607437799998,None,805.0773566969983,None,805.0773566969983,None,805.0773566969983,None,805.0773566969983,None,,,,,,,,,,,,,,,,,,,,,,,,,,,,,,,,,,,,,,,,,,,,001,51,2020_Jan_30_1537,spring_faces,3.2.3,60.06762966360871,
condition files/Stage1_1.xlsx,,B3,T3,c,"['c', 'm']","['Clue', 'Monopoly']","[-0.15, 0.5]","[0.15, 0.5]",1,1,,,,,,,,,0,8,8,8,0,5,5,4,,,,,,,,,,,,,,,,,,,,,,,,,,,,,,,,,,,,,,,,,,,,,,,,,,,,,,,807.0440429519986,None,807.0440429519986,None,807.0440429519986,None,c,1,1.0101716990029672,808.577414643998,None,808.577414643998,None,808.577414643998,None,809.6607452919998,None,809.6607452919998,None,809.6607452919998,None,809.6607452919998,None,,,,,,,,,,,,,,,,,,,,,,,,,,,,,,,,,,,,,,,,,,,,001,51,2020_Jan_30_1537,spring_faces,3.2.3,60.06762966360871,
condition files/Stage1_1.xlsx,,T4,B3,m,"['c', 'm']","['Clue', 'Monopoly']","[-0.15, 0.5]","[0.15, 0.5]",1,1,,,,,,,,,0,8,8,8,0,6,6,6,,,,,,,,,,,,,,,,,,,,,,,,,,,,,,,,,,,,,,,,,,,,,,,,,,,,,,,811.6274324650003,None,811.6274324650003,None,811.6274324650003,None,m,1,1.514889199002937,813.1607236069976,None,813.1607236069976,None,813.1607236069976,None,814.744089666001,None,814.744089666001,None,814.744089666001,None,814.744089666001,None,,,,,,,,,,,,,,,,,,,,,,,,,,,,,,,,,,,,,,,,,,,,001,51,2020_Jan_30_1537,spring_faces,3.2.3,60.06762966360871,
condition files/Stage1_1.xlsx,,T3,B4,c,"['c', 'm']","['Clue', 'Monopoly']","[-0.15, 0.5]","[0.15, 0.5]",1,1,,,,,,,,,0,8,8,8,0,7,7,5,,,,,,,,,,,,,,,,,,,,,,,,,,,,,,,,,,,,,,,,,,,,,,,,,,,,,,,816.7106709029977,None,816.7106709029977,None,816.7106709029977,None,c,1,1.1354360910008836,818.2440823799989,None,818.2440823799989,None,818.2440823799989,None,819.4607021070005,None,819.4607021070005,None,819.4607021070005,None,819.4607021070005,None,,,,,,,,,,,,,,,,,,,,,,,,,,,,,,,,,,,,,,,,,,,,001,51,2020_Jan_30_1537,spring_faces,3.2.3,60.06762966360871,
condition files/Stage1_2.xlsx,,T3,B3,c,"['c', 'm']","['Clue', 'Monopoly']","[-0.15, 0.5]","[0.15, 0.5]",1,1,,,,,,,,,0,9,9,9,0,0,0,4,,,,,,,,,,,,,,,,,,,,,,,,,,,,,,,,,,,,,,,,,,,,,,,,,,,,,,,821.4440262409989,None,821.4440262409989,None,821.4440262409989,None,c,1,1.090154885998345,822.9774180669992,None,822.9774180669992,None,822.9774180669992,None,824.1441175489999,None,824.1441175489999,None,824.1441175489999,None,824.1441175489999,None,,,,,,,,,,,,,,,,,,,,,,,,,,,,,,,,,,,,,,,,,,,,001,51,2020_Jan_30_1537,spring_faces,3.2.3,60.06762966360871,
condition files/Stage1_2.xlsx,,T2,B1,c,"['c', 'm']","['Clue', 'Monopoly']","[-0.15, 0.5]","[0.15, 0.5]",1,1,,,,,,,,,0,9,9,9,0,1,1,1,,,,,,,,,,,,,,,,,,,,,,,,,,,,,,,,,,,,,,,,,,,,,,,,,,,,,,,826.1107598599992,None,826.1107598599992,None,826.1107598599992,None,c,1,1.3354237380008271,827.6440945770009,None,827.6440945770009,None,827.6440945770009,None,829.0607164249996,None,829.0607164249996,None,829.0607164249996,None,829.0607164249996,None,,,,,,,,,,,,,,,,,,,,,,,,,,,,,,,,,,,,,,,,,,,,001,51,2020_Jan_30_1537,spring_faces,3.2.3,60.06762966360871,
condition files/Stage1_2.xlsx,,T4,B4,m,"['c', 'm']","['Clue', 'Monopoly']","[-0.15, 0.5]","[0.15, 0.5]",1,1,,,,,,,,,0,9,9,9,0,2,2,7,,,,,,,,,,,,,,,,,,,,,,,,,,,,,,,,,,,,,,,,,,,,,,,,,,,,,,,831.0274314429989,None,831.0274314429989,None,831.0274314429989,None,m,1,1.4908108989984612,832.5607697640007,None,832.5607697640007,None,832.5607697640007,None,834.127424571001,None,834.127424571001,None,834.127424571001,None,834.127424571001,None,,,,,,,,,,,,,,,,,,,,,,,,,,,,,,,,,,,,,,,,,,,,001,51,2020_Jan_30_1537,spring_faces,3.2.3,60.06762966360871,
condition files/Stage1_2.xlsx,,B3,T4,m,"['c', 'm']","['Clue', 'Monopoly']","[-0.15, 0.5]","[0.15, 0.5]",1,1,,,,,,,,,0,9,9,9,0,3,3,6,,,,,,,,,,,,,,,,,,,,,,,,,,,,,,,,,,,,,,,,,,,,,,,,,,,,,,,836.0941049920002,None,836.0941049920002,None,836.0941049920002,None,m,1,1.8642476289969636,837.6274047330007,None,837.6274047330007,None,837.6274047330007,None,839.5607575609974,None,839.5607575609974,None,839.5607575609974,None,839.5607575609974,None,,,,,,,,,,,,,,,,,,,,,,,,,,,,,,,,,,,,,,,,,,,,001,51,2020_Jan_30_1537,spring_faces,3.2.3,60.06762966360871,
condition files/Stage1_2.xlsx,,B1,T1,c,"['c', 'm']","['Clue', 'Monopoly']","[-0.15, 0.5]","[0.15, 0.5]",1,1,,,,,,,,,0,9,9,9,0,4,4,0,,,,,,,,,,,,,,,,,,,,,,,,,,,,,,,,,,,,,,,,,,,,,,,,,,,,,,,841.5274293580005,None,841.5274293580005,None,841.5274293580005,None,c,1,1.1829568210014259,843.0607226369975,None,843.0607226369975,None,843.0607226369975,None,844.3105299039998,None,844.3105299039998,None,844.3105299039998,None,844.3105299039998,None,,,,,,,,,,,,,,,,,,,,,,,,,,,,,,,,,,,,,,,,,,,,001,51,2020_Jan_30_1537,spring_faces,3.2.3,60.06762966360871,
condition files/Stage1_2.xlsx,,T1,B2,m,"['c', 'm']","['Clue', 'Monopoly']","[-0.15, 0.5]","[0.15, 0.5]",1,1,,,,,,,,,0,9,9,9,0,5,5,2,,,,,,,,,,,,,,,,,,,,,,,,,,,,,,,,,,,,,,,,,,,,,,,,,,,,,,,846.2773613319987,None,846.2773613319987,None,846.2773613319987,None,m,1,1.6808437969993975,847.8107838169999,None,847.8107838169999,None,847.8107838169999,None,849.5607754720004,None,849.5607754720004,None,849.5607754720004,None,849.5607754720004,None,,,,,,,,,,,,,,,,,,,,,,,,,,,,,,,,,,,,,,,,,,,,001,51,2020_Jan_30_1537,spring_faces,3.2.3,60.06762966360871,
condition files/Stage1_2.xlsx,,B2,T2,m,"['c', 'm']","['Clue', 'Monopoly']","[-0.15, 0.5]","[0.15, 0.5]",1,1,,,,,,,,,0,9,9,9,0,6,6,3,,,,,,,,,,,,,,,,,,,,,,,,,,,,,,,,,,,,,,,,,,,,,,,,,,,,,,,851.5274096889989,None,851.5274096889989,None,851.5274096889989,None,m,1,1.4227968280029017,853.0607773129996,None,853.0607773129996,None,853.0607773129996,None,854.5607553539994,None,854.5607553539994,None,854.5607553539994,None,854.5607553539994,None,,,,,,,,,,,,,,,,,,,,,,,,,,,,,,,,,,,,,,,,,,,,001,51,2020_Jan_30_1537,spring_faces,3.2.3,60.06762966360871,
condition files/Stage1_2.xlsx,,B4,T3,c,"['c', 'm']","['Clue', 'Monopoly']","[-0.15, 0.5]","[0.15, 0.5]",1,1,,,,,,,,,0,9,9,9,0,7,7,5,,,,,,,,,,,,,,,,,,,,,,,,,,,,,,,,,,,,,,,,,,,,,,,,,,,,,,,856.5274191979988,None,856.5274191979988,None,856.5274191979988,None,c,1,1.2868063099995197,858.0607481589977,None,858.0607481589977,None,858.0607481589977,None,859.4274380809984,None,859.4274380809984,None,859.4274380809984,None,859.4274380809984,None,,,,,,,,,,,,,,,,,,,,,,,,,,,,,,,,,,,,,,,,,,,,001,51,2020_Jan_30_1537,spring_faces,3.2.3,60.06762966360871,
condition files/Stage1_1.xlsx,,B1,T2,c,"['c', 'm']","['Clue', 'Monopoly']","[-0.15, 0.5]","[0.15, 0.5]",1,1,,,,,,,,,0,10,10,10,0,0,0,1,,,,,,,,,,,,,,,,,,,,,,,,,,,,,,,,,,,,,,,,,,,,,,,,,,,,,,,861.4107707769981,None,861.4107707769981,None,861.4107707769981,None,c,1,3.059490112998901,862.9441042079998,None,862.9441042079998,None,862.9441042079998,None,866.0607614799992,None,866.0607614799992,None,866.0607614799992,None,866.0607614799992,None,,,,,,,,,,,,,,,,,,,,,,,,,,,,,,,,,,,,,,,,,,,,001,51,2020_Jan_30_1537,spring_faces,3.2.3,60.06762966360871,
condition files/Stage1_1.xlsx,,T1,B1,c,"['c', 'm']","['Clue', 'Monopoly']","[-0.15, 0.5]","[0.15, 0.5]",1,1,,,,,,,,,0,10,10,10,0,1,1,0,,,,,,,,,,,,,,,,,,,,,,,,,,,,,,,,,,,,,,,,,,,,,,,,,,,,,,,868.0441309499984,None,868.0441309499984,None,868.0441309499984,None,c,1,1.8662281399992935,869.577432697999,None,869.577432697999,None,869.577432697999,None,871.4940812189998,None,871.4940812189998,None,871.4940812189998,None,871.4940812189998,None,,,,,,,,,,,,,,,,,,,,,,,,,,,,,,,,,,,,,,,,,,,,001,51,2020_Jan_30_1537,spring_faces,3.2.3,60.06762966360871,
condition files/Stage1_1.xlsx,,T3,B4,c,"['c', 'm']","['Clue', 'Monopoly']","[-0.15, 0.5]","[0.15, 0.5]",1,1,,,,,,,,,0,10,10,10,0,2,2,5,,,,,,,,,,,,,,,,,,,,,,,,,,,,,,,,,,,,,,,,,,,,,,,,,,,,,,,873.4774724050003,None,873.4774724050003,None,873.4774724050003,None,c,1,1.2649065559999144,875.0107712809986,None,875.0107712809986,None,875.0107712809986,None,876.3273723919992,None,876.3273723919992,None,876.3273723919992,None,876.3273723919992,None,,,,,,,,,,,,,,,,,,,,,,,,,,,,,,,,,,,,,,,,,,,,001,51,2020_Jan_30_1537,spring_faces,3.2.3,60.06762966360871,
condition files/Stage1_1.xlsx,,B2,T1,m,"['c', 'm']","['Clue', 'Monopoly']","[-0.15, 0.5]","[0.15, 0.5]",1,1,,,,,,,,,0,10,10,10,0,3,3,2,,,,,,,,,,,,,,,,,,,,,,,,,,,,,,,,,,,,,,,,,,,,,,,,,,,,,,,878.3107312280008,None,878.3107312280008,None,878.3107312280008,None,m,1,2.1434911850010394,879.8440953969985,None,879.8440953969985,None,879.8440953969985,None,882.0608048789982,None,882.0608048789982,None,882.0608048789982,None,882.0608048789982,None,,,,,,,,,,,,,,,,,,,,,,,,,,,,,,,,,,,,,,,,,,,,001,51,2020_Jan_30_1537,spring_faces,3.2.3,60.06762966360871,
condition files/Stage1_1.xlsx,,B3,T3,c,"['c', 'm']","['Clue', 'Monopoly']","[-0.15, 0.5]","[0.15, 0.5]",1,1,,,,,,,,,0,10,10,10,0,4,4,4,,,,,,,,,,,,,,,,,,,,,,,,,,,,,,,,,,,,,,,,,,,,,,,,,,,,,,,884.0274614129994,None,884.0274614129994,None,884.0274614129994,None,c,1,1.4667591379984515,885.5607716749983,None,885.5607716749983,None,885.5607716749983,None,887.0938820949996,None,887.0938820949996,None,887.0938820949996,None,887.0938820949996,None,,,,,,,,,,,,,,,,,,,,,,,,,,,,,,,,,,,,,,,,,,,,001,51,2020_Jan_30_1537,spring_faces,3.2.3,60.06762966360871,
condition files/Stage1_1.xlsx,,B4,T4,m,"['c', 'm']","['Clue', 'Monopoly']","[-0.15, 0.5]","[0.15, 0.5]",1,1,,,,,,,,,0,10,10,10,0,5,5,7,,,,,,,,,,,,,,,,,,,,,,,,,,,,,,,,,,,,,,,,,,,,,,,,,,,,,,,889.0606593960001,None,889.0606593960001,None,889.0606593960001,None,m,1,1.3935262570012128,890.5940798919983,None,890.5940798919983,None,890.5940798919983,None,892.0607666059987,None,892.0607666059987,None,892.0607666059987,None,892.0607666059987,None,,,,,,,,,,,,,,,,,,,,,,,,,,,,,,,,,,,,,,,,,,,,001,51,2020_Jan_30_1537,spring_faces,3.2.3,60.06762966360871,
condition files/Stage1_1.xlsx,,T4,B3,m,"['c', 'm']","['Clue', 'Monopoly']","[-0.15, 0.5]","[0.15, 0.5]",1,1,,,,,,,,,0,10,10,10,0,6,6,6,,,,,,,,,,,,,,,,,,,,,,,,,,,,,,,,,,,,,,,,,,,,,,,,,,,,,,,894.0274638279989,None,894.0274638279989,None,894.0274638279989,None,m,1,1.306814313000359,895.560756335999,None,895.560756335999,None,895.560756335999,None,896.944118348998,None,896.944118348998,None,896.944118348998,None,896.944118348998,None,,,,,,,,,,,,,,,,,,,,,,,,,,,,,,,,,,,,,,,,,,,,001,51,2020_Jan_30_1537,spring_faces,3.2.3,60.06762966360871,
condition files/Stage1_1.xlsx,,T2,B2,m,"['c', 'm']","['Clue', 'Monopoly']","[-0.15, 0.5]","[0.15, 0.5]",1,1,,,,,,,,,0,10,10,10,0,7,7,3,,,,,,,,,,,,,,,,,,,,,,,,,,,,,,,,,,,,,,,,,,,,,,,,,,,,,,,898.9108013029982,None,898.9108013029982,None,898.9108013029982,None,m,1,1.3194432659984159,900.4441130979976,None,900.4441130979976,None,900.4441130979976,None,901.8440818419986,None,901.8440818419986,None,901.8440818419986,None,901.8440818419986,None,,,,,,,,,,,,,,,,,,,,,,,,,,,,,,,,,,,,,,,,,,,,001,51,2020_Jan_30_1537,spring_faces,3.2.3,60.06762966360871,
condition files/Stage1_2.xlsx,,B2,T2,m,"['c', 'm']","['Clue', 'Monopoly']","[-0.15, 0.5]","[0.15, 0.5]",1,1,,,,,,,,,0,11,11,11,0,0,0,3,,,,,,,,,,,,,,,,,,,,,,,,,,,,,,,,,,,,,,,,,,,,,,,,,,,,,,,903.8274106999997,None,903.8274106999997,None,903.8274106999997,None,m,1,1.1708266240020748,905.3607443379988,None,905.3607443379988,None,905.3607443379988,None,906.5937506890004,None,906.5937506890004,None,906.5937506890004,None,906.5937506890004,None,,,,,,,,,,,,,,,,,,,,,,,,,,,,,,,,,,,,,,,,,,,,001,51,2020_Jan_30_1537,spring_faces,3.2.3,60.06762966360871,
condition files/Stage1_2.xlsx,,T3,B3,c,"['c', 'm']","['Clue', 'Monopoly']","[-0.15, 0.5]","[0.15, 0.5]",1,1,,,,,,,,,0,11,11,11,0,1,1,4,,,,,,,,,,,,,,,,,,,,,,,,,,,,,,,,,,,,,,,,,,,,,,,,,,,,,,,908.5774424349984,None,908.5774424349984,None,908.5774424349984,None,c,1,0.9968660949998593,910.1107697650004,None,910.1107697650004,None,910.1107697650004,None,911.1772906990009,None,911.1772906990009,None,911.1772906990009,None,911.1772906990009,None,,,,,,,,,,,,,,,,,,,,,,,,,,,,,,,,,,,,,,,,,,,,001,51,2020_Jan_30_1537,spring_faces,3.2.3,60.06762966360871,
condition files/Stage1_2.xlsx,,T2,B1,c,"['c', 'm']","['Clue', 'Monopoly']","[-0.15, 0.5]","[0.15, 0.5]",1,1,,,,,,,,,0,11,11,11,0,2,2,1,,,,,,,,,,,,,,,,,,,,,,,,,,,,,,,,,,,,,,,,,,,,,,,,,,,,,,,913.1441091369998,None,913.1441091369998,None,913.1441091369998,None,c,1,2.4143811100002495,914.6772942909993,None,914.6772942909993,None,914.6772942909993,None,917.1606130929977,None,917.1606130929977,None,917.1606130929977,None,917.1606130929977,None,,,,,,,,,,,,,,,,,,,,,,,,,,,,,,,,,,,,,,,,,,,,001,51,2020_Jan_30_1537,spring_faces,3.2.3,60.06762966360871,
condition files/Stage1_2.xlsx,,T1,B2,m,"['c', 'm']","['Clue', 'Monopoly']","[-0.15, 0.5]","[0.15, 0.5]",1,1,,,,,,,,,0,11,11,11,0,3,3,2,,,,,,,,,,,,,,,,,,,,,,,,,,,,,,,,,,,,,,,,,,,,,,,,,,,,,,,919.1273688859983,None,919.1273688859983,None,919.1273688859983,None,m,1,1.0868852519997745,920.6606997380004,None,920.6606997380004,None,920.6606997380004,None,921.8274383700009,None,921.8274383700009,None,921.8274383700009,None,921.8274383700009,None,,,,,,,,,,,,,,,,,,,,,,,,,,,,,,,,,,,,,,,,,,,,001,51,2020_Jan_30_1537,spring_faces,3.2.3,60.06762966360871,
condition files/Stage1_2.xlsx,,B1,T1,c,"['c', 'm']","['Clue', 'Monopoly']","[-0.15, 0.5]","[0.15, 0.5]",1,1,,,,,,,,,0,11,11,11,0,4,4,0,,,,,,,,,,,,,,,,,,,,,,,,,,,,,,,,,,,,,,,,,,,,,,,,,,,,,,,923.7941352119997,None,923.7941352119997,None,923.7941352119997,None,c,1,1.300075155999366,925.3274527699978,None,925.3274527699978,None,925.3274527699978,None,926.6940332630002,None,926.6940332630002,None,926.6940332630002,None,926.6940332630002,None,,,,,,,,,,,,,,,,,,,,,,,,,,,,,,,,,,,,,,,,,,,,001,51,2020_Jan_30_1537,spring_faces,3.2.3,60.06762966360871,
condition files/Stage1_2.xlsx,,B4,T3,c,"['c', 'm']","['Clue', 'Monopoly']","[-0.15, 0.5]","[0.15, 0.5]",1,1,,,,,,,,,0,11,11,11,0,5,5,5,,,,,,,,,,,,,,,,,,,,,,,,,,,,,,,,,,,,,,,,,,,,,,,,,,,,,,,928.6606804539988,None,928.6606804539988,None,928.6606804539988,None,c,1,1.3135548999998719,930.1940755840005,None,930.1940755840005,None,930.1940755840005,None,931.5606011620002,None,931.5606011620002,None,931.5606011620002,None,931.5606011620002,None,,,,,,,,,,,,,,,,,,,,,,,,,,,,,,,,,,,,,,,,,,,,001,51,2020_Jan_30_1537,spring_faces,3.2.3,60.06762966360871,
condition files/Stage1_2.xlsx,,B3,T4,m,"['c', 'm']","['Clue', 'Monopoly']","[-0.15, 0.5]","[0.15, 0.5]",1,1,,,,,,,,,0,11,11,11,0,6,6,6,,,,,,,,,,,,,,,,,,,,,,,,,,,,,,,,,,,,,,,,,,,,,,,,,,,,,,,933.544074114001,None,933.544074114001,None,933.544074114001,None,m,1,1.2782319109974196,935.0773780729978,None,935.0773780729978,None,935.0773780729978,None,936.427464946999,None,936.427464946999,None,936.427464946999,None,936.427464946999,None,,,,,,,,,,,,,,,,,,,,,,,,,,,,,,,,,,,,,,,,,,,,001,51,2020_Jan_30_1537,spring_faces,3.2.3,60.06762966360871,
condition files/Stage1_2.xlsx,,T4,B4,m,"['c', 'm']","['Clue', 'Monopoly']","[-0.15, 0.5]","[0.15, 0.5]",1,1,,,,,,,,,0,11,11,11,0,7,7,7,,,,,,,,,,,,,,,,,,,,,,,,,,,,,,,,,,,,,,,,,,,,,,,,,,,,,,,938.3941330230009,None,938.3941330230009,None,938.3941330230009,None,m,1,1.3402084709996416,939.927388469001,None,939.927388469001,None,939.927388469001,None,941.3441018689991,None,941.3441018689991,None,941.3441018689991,None,941.3441018689991,None,,,,,,,,,,,,,,,,,,,,,,,,,,,,,,,,,,,,,,,,,,,,001,51,2020_Jan_30_1537,spring_faces,3.2.3,60.06762966360871,
,,,,,,,,,,,,,,,,,,,,,,,,,,,,,,,,,,,,,,,,,,,,,,,,,,,,,,,,,,,,,,,,,,,,,,,,,,,,,,,,,,,,,,,,,,,,,,,,,,,,,,,,,,,,,,,,943.310777603001,None,space,11.357575382000505,948.2940242959994,None,,,,,,,,,,,,,,,,,,,,,,,,,,,,,,001,51,2020_Jan_30_1537,spring_faces,3.2.3,60.06762966360871,
condition files/Stage2_1.xlsx,,T3,B3,s,"['s', 'r']","['Stratego', 'Risk']","[-0.15, 0.5]","[0.15, 0.5]",1,1,,,,,,,,,,,,,,,,,0,0,0,0,0,0,0,4,,,,,,,,,,,,,,,,,,,,,,,,,,,,,,,,,,,,,,,,,,,,,,,959.7107780779988,None,959.7107780779988,None,959.7107780779988,None,s,1,1.0642481809991295,961.227413446999,None,961.227413446999,None,961.227413446999,None,962.3607907209989,None,962.3607907209989,None,962.3607907209989,None,962.3607907209989,None,,,,,,,,,,,,,,,948.2940242959994,None,,,,,,,,,,,,,,,,,,,,,,,,,,,,001,51,2020_Jan_30_1537,spring_faces,3.2.3,60.06762966360871,
condition files/Stage2_1.xlsx,,B6,T6,r,"['s', 'r']","['Stratego', 'Risk']","[-0.15, 0.5]","[0.15, 0.5]",1,1,,,,,,,,,,,,,,,,,0,0,0,0,0,1,1,1,,,,,,,,,,,,,,,,,,,,,,,,,,,,,,,,,,,,,,,,,,,,,,,964.3274033870002,None,964.3274033870002,None,964.3274033870002,None,r,1,0.8149921750009526,965.8606880599982,None,965.8606880599982,None,965.8606880599982,None,966.7441095779977,None,966.7441095779977,None,966.7441095779977,None,966.7441095779977,None,,,,,,,,,,,,,,,,,,,,,,,,,,,,,,,,,,,,,,,,,,,,001,51,2020_Jan_30_1537,spring_faces,3.2.3,60.06762966360871,
condition files/Stage2_1.xlsx,,T5,B5,s,"['s', 'r']","['Stratego', 'Risk']","[-0.15, 0.5]","[0.15, 0.5]",1,1,,,,,,,,,,,,,,,,,0,0,0,0,0,2,2,0,,,,,,,,,,,,,,,,,,,,,,,,,,,,,,,,,,,,,,,,,,,,,,,968.7107700859997,None,968.7107700859997,None,968.7107700859997,None,s,1,1.455539571998088,970.2440356330007,None,970.2440356330007,None,970.2440356330007,None,971.7774162349997,None,971.7774162349997,None,971.7774162349997,None,971.7774162349997,None,,,,,,,,,,,,,,,,,,,,,,,,,,,,,,,,,,,,,,,,,,,,001,51,2020_Jan_30_1537,spring_faces,3.2.3,60.06762966360871,
condition files/Stage2_1.xlsx,,B4,T4,r,"['s', 'r']","['Stratego', 'Risk']","[-0.15, 0.5]","[0.15, 0.5]",1,1,,,,,,,,,,,,,,,,,0,0,0,0,0,3,3,5,,,,,,,,,,,,,,,,,,,,,,,,,,,,,,,,,,,,,,,,,,,,,,,973.7441115299989,None,973.7441115299989,None,973.7441115299989,None,r,1,1.5261608209984843,975.277413156,None,975.277413156,None,975.277413156,None,976.8774405279983,None,976.8774405279983,None,976.8774405279983,None,976.8774405279983,None,,,,,,,,,,,,,,,,,,,,,,,,,,,,,,,,,,,,,,,,,,,,001,51,2020_Jan_30_1537,spring_faces,3.2.3,60.06762966360871,
condition files/Stage2_1.xlsx,,T1,B1,s,"['s', 'r']","['Stratego', 'Risk']","[-0.15, 0.5]","[0.15, 0.5]",1,1,,,,,,,,,,,,,,,,,0,0,0,0,0,4,4,2,,,,,,,,,,,,,,,,,,,,,,,,,,,,,,,,,,,,,,,,,,,,,,,978.8441091429995,None,978.8441091429995,None,978.8441091429995,None,r,0,0.9701160389995493,980.3774414340005,None,980.3774414340005,None,980.3774414340005,None,981.4274513710006,None,981.4274513710006,None,981.4274513710006,None,981.4274513710006,None,,,,,,,,,,,,,,,,,,,,,,,,,,,,,,,,,,,,,,,,,,,,001,51,2020_Jan_30_1537,spring_faces,3.2.3,60.06762966360871,
condition files/Stage2_1.xlsx,,B2,T2,r,"['s', 'r']","['Stratego', 'Risk']","[-0.15, 0.5]","[0.15, 0.5]",1,1,,,,,,,,,,,,,,,,,0,0,0,0,0,5,5,3,,,,,,,,,,,,,,,,,,,,,,,,,,,,,,,,,,,,,,,,,,,,,,,983.3936869149984,None,983.3936869149984,None,983.3936869149984,None,r,1,1.620031372000085,984.927470478,None,984.927470478,None,984.927470478,None,986.6274186390001,None,986.6274186390001,None,986.6274186390001,None,986.6274186390001,None,,,,,,,,,,,,,,,,,,,,,,,,,,,,,,,,,,,,,,,,,,,,001,51,2020_Jan_30_1537,spring_faces,3.2.3,60.06762966360871,
condition files/Stage2_2.xlsx,,T4,B4,r,"['s', 'r']","['Stratego', 'Risk']","[-0.15, 0.5]","[0.15, 0.5]",1,1,,,,,,,,,,,,,,,,,0,1,1,1,0,0,0,5,,,,,,,,,,,,,,,,,,,,,,,,,,,,,,,,,,,,,,,,,,,,,,,988.610747494,None,988.610747494,None,988.610747494,None,s,0,2.0834647709998535,990.1440804970007,None,990.1440804970007,None,990.1440804970007,None,992.2941021719998,None,992.2941021719998,None,992.2941021719998,None,992.2941021719998,None,,,,,,,,,,,,,,,,,,,,,,,,,,,,,,,,,,,,,,,,,,,,001,51,2020_Jan_30_1537,spring_faces,3.2.3,60.06762966360871,
condition files/Stage2_2.xlsx,,T2,B2,r,"['s', 'r']","['Stratego', 'Risk']","[-0.15, 0.5]","[0.15, 0.5]",1,1,,,,,,,,,,,,,,,,,0,1,1,1,0,1,1,3,,,,,,,,,,,,,,,,,,,,,,,,,,,,,,,,,,,,,,,,,,,,,,,994.2606837329986,None,994.2606837329986,None,994.2606837329986,None,r,1,1.2014024050004082,995.7940972350007,None,995.7940972350007,None,995.7940972350007,None,997.0773637269995,None,997.0773637269995,None,997.0773637269995,None,997.0773637269995,None,,,,,,,,,,,,,,,,,,,,,,,,,,,,,,,,,,,,,,,,,,,,001,51,2020_Jan_30_1537,spring_faces,3.2.3,60.06762966360871,
condition files/Stage2_2.xlsx,,B3,T3,s,"['s', 'r']","['Stratego', 'Risk']","[-0.15, 0.5]","[0.15, 0.5]",1,1,,,,,,,,,,,,,,,,,0,1,1,1,0,2,2,4,,,,,,,,,,,,,,,,,,,,,,,,,,,,,,,,,,,,,,,,,,,,,,,999.0440529330008,None,999.0440529330008,None,999.0440529330008,None,s,1,1.474145531999966,1000.577416813001,None,1000.577416813001,None,1000.577416813001,None,1002.1274329279986,None,1002.1274329279986,None,1002.1274329279986,None,1002.1274329279986,None,,,,,,,,,,,,,,,,,,,,,,,,,,,,,,,,,,,,,,,,,,,,001,51,2020_Jan_30_1537,spring_faces,3.2.3,60.06762966360871,
condition files/Stage2_2.xlsx,,B5,T5,s,"['s', 'r']","['Stratego', 'Risk']","[-0.15, 0.5]","[0.15, 0.5]",1,1,,,,,,,,,,,,,,,,,0,1,1,1,0,3,3,0,,,,,,,,,,,,,,,,,,,,,,,,,,,,,,,,,,,,,,,,,,,,,,,1004.0940730980001,None,1004.0940730980001,None,1004.0940730980001,None,s,1,3.3361532969975087,1005.6274109090009,None,1005.6274109090009,None,1005.6274109090009,None,1009.0274004099992,None,1009.0274004099992,None,1009.0274004099992,None,1009.0274004099992,None,,,,,,,,,,,,,,,,,,,,,,,,,,,,,,,,,,,,,,,,,,,,001,51,2020_Jan_30_1537,spring_faces,3.2.3,60.06762966360871,
condition files/Stage2_2.xlsx,,T6,B6,r,"['s', 'r']","['Stratego', 'Risk']","[-0.15, 0.5]","[0.15, 0.5]",1,1,,,,,,,,,,,,,,,,,0,1,1,1,0,4,4,1,,,,,,,,,,,,,,,,,,,,,,,,,,,,,,,,,,,,,,,,,,,,,,,1011.010766028001,None,1011.010766028001,None,1011.010766028001,None,r,1,1.9721544140011247,1012.5434160650002,None,1012.5434160650002,None,1012.5434160650002,None,1014.5941067189997,None,1014.5941067189997,None,1014.5941067189997,None,1014.5941067189997,None,,,,,,,,,,,,,,,,,,,,,,,,,,,,,,,,,,,,,,,,,,,,001,51,2020_Jan_30_1537,spring_faces,3.2.3,60.06762966360871,
condition files/Stage2_2.xlsx,,B1,T1,s,"['s', 'r']","['Stratego', 'Risk']","[-0.15, 0.5]","[0.15, 0.5]",1,1,,,,,,,,,,,,,,,,,0,1,1,1,0,5,5,2,,,,,,,,,,,,,,,,,,,,,,,,,,,,,,,,,,,,,,,,,,,,,,,1016.5608067149988,None,1016.5608067149988,None,1016.5608067149988,None,r,0,1.4614652460004436,1018.094121064998,None,1018.094121064998,None,1018.094121064998,None,1019.6274131159989,None,1019.6274131159989,None,1019.6274131159989,None,1019.6274131159989,None,,,,,,,,,,,,,,,,,,,,,,,,,,,,,,,,,,,,,,,,,,,,001,51,2020_Jan_30_1537,spring_faces,3.2.3,60.06762966360871,
condition files/Stage2_1.xlsx,,T3,B3,s,"['s', 'r']","['Stratego', 'Risk']","[-0.15, 0.5]","[0.15, 0.5]",1,1,,,,,,,,,,,,,,,,,0,2,2,2,0,0,0,4,,,,,,,,,,,,,,,,,,,,,,,,,,,,,,,,,,,,,,,,,,,,,,,1021.6107600809992,None,1021.6107600809992,None,1021.6107600809992,None,s,1,0.9715265209997597,1023.1440488909975,None,1023.1440488909975,None,1023.1440488909975,None,1024.1774036919996,None,1024.1774036919996,None,1024.1774036919996,None,1024.1774036919996,None,,,,,,,,,,,,,,,,,,,,,,,,,,,,,,,,,,,,,,,,,,,,001,51,2020_Jan_30_1537,spring_faces,3.2.3,60.06762966360871,
condition files/Stage2_1.xlsx,,B2,T2,r,"['s', 'r']","['Stratego', 'Risk']","[-0.15, 0.5]","[0.15, 0.5]",1,1,,,,,,,,,,,,,,,,,0,2,2,2,0,1,1,3,,,,,,,,,,,,,,,,,,,,,,,,,,,,,,,,,,,,,,,,,,,,,,,1026.1608004909976,None,1026.1608004909976,None,1026.1608004909976,None,r,1,2.0694306750010583,1027.694122986999,None,1027.694122986999,None,1027.694122986999,None,1029.8440279899987,None,1029.8440279899987,None,1029.8440279899987,None,1029.8440279899987,None,,,,,,,,,,,,,,,,,,,,,,,,,,,,,,,,,,,,,,,,,,,,001,51,2020_Jan_30_1537,spring_faces,3.2.3,60.06762966360871,
condition files/Stage2_1.xlsx,,T1,B1,s,"['s', 'r']","['Stratego', 'Risk']","[-0.15, 0.5]","[0.15, 0.5]",1,1,,,,,,,,,,,,,,,,,0,2,2,2,0,2,2,2,,,,,,,,,,,,,,,,,,,,,,,,,,,,,,,,,,,,,,,,,,,,,,,1031.8108054149998,None,1031.8108054149998,None,1031.8108054149998,None,s,1,2.291472379001789,1033.3441139629977,None,1033.3441139629977,None,1033.3441139629977,None,1035.7107532970003,None,1035.7107532970003,None,1035.7107532970003,None,1035.7107532970003,None,,,,,,,,,,,,,,,,,,,,,,,,,,,,,,,,,,,,,,,,,,,,001,51,2020_Jan_30_1537,spring_faces,3.2.3,60.06762966360871,
condition files/Stage2_1.xlsx,,T5,B5,s,"['s', 'r']","['Stratego', 'Risk']","[-0.15, 0.5]","[0.15, 0.5]",1,1,,,,,,,,,,,,,,,,,0,2,2,2,0,3,3,0,,,,,,,,,,,,,,,,,,,,,,,,,,,,,,,,,,,,,,,,,,,,,,,1037.6774477559993,None,1037.6774477559993,None,1037.6774477559993,None,r,0,1.832830744999228,1039.2107466249981,None,1039.2107466249981,None,1039.2107466249981,None,1041.093987499,None,1041.093987499,None,1041.093987499,None,1041.093987499,None,,,,,,,,,,,,,,,,,,,,,,,,,,,,,,,,,,,,,,,,,,,,001,51,2020_Jan_30_1537,spring_faces,3.2.3,60.06762966360871,
condition files/Stage2_1.xlsx,,B6,T6,r,"['s', 'r']","['Stratego', 'Risk']","[-0.15, 0.5]","[0.15, 0.5]",1,1,,,,,,,,,,,,,,,,,0,2,2,2,0,4,4,1,,,,,,,,,,,,,,,,,,,,,,,,,,,,,,,,,,,,,,,,,,,,,,,1043.0773520469993,None,1043.0773520469993,None,1043.0773520469993,None,r,1,1.3768024860000878,1044.6107705409995,None,1044.6107705409995,None,1044.6107705409995,None,1046.0607520489975,None,1046.0607520489975,None,1046.0607520489975,None,1046.0607520489975,None,,,,,,,,,,,,,,,,,,,,,,,,,,,,,,,,,,,,,,,,,,,,001,51,2020_Jan_30_1537,spring_faces,3.2.3,60.06762966360871,
condition files/Stage2_1.xlsx,,B4,T4,r,"['s', 'r']","['Stratego', 'Risk']","[-0.15, 0.5]","[0.15, 0.5]",1,1,,,,,,,,,,,,,,,,,0,2,2,2,0,5,5,5,,,,,,,,,,,,,,,,,,,,,,,,,,,,,,,,,,,,,,,,,,,,,,,1048.027427361998,None,1048.027427361998,None,1048.027427361998,None,s,0,2.4748318339989055,1049.5607405129995,None,1049.5607405129995,None,1049.5607405129995,None,1052.0940430129995,None,1052.0940430129995,None,1052.0940430129995,None,1052.0940430129995,None,,,,,,,,,,,,,,,,,,,,,,,,,,,,,,,,,,,,,,,,,,,,001,51,2020_Jan_30_1537,spring_faces,3.2.3,60.06762966360871,
condition files/Stage2_2.xlsx,,T6,B6,r,"['s', 'r']","['Stratego', 'Risk']","[-0.15, 0.5]","[0.15, 0.5]",1,1,,,,,,,,,,,,,,,,,0,3,3,3,0,0,0,1,,,,,,,,,,,,,,,,,,,,,,,,,,,,,,,,,,,,,,,,,,,,,,,1054.0941031330003,None,1054.0941031330003,None,1054.0941031330003,None,r,1,0.9522508330010169,1055.6273024049988,None,1055.6273024049988,None,1055.6273024049988,None,1056.660691664998,None,1056.660691664998,None,1056.660691664998,None,1056.660691664998,None,,,,,,,,,,,,,,,,,,,,,,,,,,,,,,,,,,,,,,,,,,,,001,51,2020_Jan_30_1537,spring_faces,3.2.3,60.06762966360871,
condition files/Stage2_2.xlsx,,B3,T3,s,"['s', 'r']","['Stratego', 'Risk']","[-0.15, 0.5]","[0.15, 0.5]",1,1,,,,,,,,,,,,,,,,,0,3,3,3,0,1,1,4,,,,,,,,,,,,,,,,,,,,,,,,,,,,,,,,,,,,,,,,,,,,,,,1058.6274410289989,None,1058.6274410289989,None,1058.6274410289989,None,s,1,0.8989204290010093,1060.1607626999976,None,1060.1607626999976,None,1060.1607626999976,None,1061.1274013189977,None,1061.1274013189977,None,1061.1274013189977,None,1061.1274013189977,None,,,,,,,,,,,,,,,,,,,,,,,,,,,,,,,,,,,,,,,,,,,,001,51,2020_Jan_30_1537,spring_faces,3.2.3,60.06762966360871,
condition files/Stage2_2.xlsx,,B1,T1,s,"['s', 'r']","['Stratego', 'Risk']","[-0.15, 0.5]","[0.15, 0.5]",1,1,,,,,,,,,,,,,,,,,0,3,3,3,0,2,2,2,,,,,,,,,,,,,,,,,,,,,,,,,,,,,,,,,,,,,,,,,,,,,,,1063.0941416200003,None,1063.0941416200003,None,1063.0941416200003,None,s,1,1.8880134109967912,1064.6274396810004,None,1064.6274396810004,None,1064.6274396810004,None,1066.5940782840007,None,1066.5940782840007,None,1066.5940782840007,None,1066.5940782840007,None,,,,,,,,,,,,,,,,,,,,,,,,,,,,,,,,,,,,,,,,,,,,001,51,2020_Jan_30_1537,spring_faces,3.2.3,60.06762966360871,
condition files/Stage2_2.xlsx,,T2,B2,r,"['s', 'r']","['Stratego', 'Risk']","[-0.15, 0.5]","[0.15, 0.5]",1,1,,,,,,,,,,,,,,,,,0,3,3,3,0,3,3,3,,,,,,,,,,,,,,,,,,,,,,,,,,,,,,,,,,,,,,,,,,,,,,,1068.5607453039993,None,1068.5607453039993,None,1068.5607453039993,None,r,1,0.9815654119993269,1070.0941019979982,None,1070.0941019979982,None,1070.0941019979982,None,1071.1440535619986,None,1071.1440535619986,None,1071.1440535619986,None,1071.1440535619986,None,,,,,,,,,,,,,,,,,,,,,,,,,,,,,,,,,,,,,,,,,,,,001,51,2020_Jan_30_1537,spring_faces,3.2.3,60.06762966360871,
condition files/Stage2_2.xlsx,,B5,T5,s,"['s', 'r']","['Stratego', 'Risk']","[-0.15, 0.5]","[0.15, 0.5]",1,1,,,,,,,,,,,,,,,,,0,3,3,3,0,4,4,0,,,,,,,,,,,,,,,,,,,,,,,,,,,,,,,,,,,,,,,,,,,,,,,1073.1107799780002,None,1073.1107799780002,None,1073.1107799780002,None,s,1,2.271550963003392,1074.6440297560002,None,1074.6440297560002,None,1074.6440297560002,None,1076.994090237,None,1076.994090237,None,1076.994090237,None,1076.994090237,None,,,,,,,,,,,,,,,,,,,,,,,,,,,,,,,,,,,,,,,,,,,,001,51,2020_Jan_30_1537,spring_faces,3.2.3,60.06762966360871,
condition files/Stage2_2.xlsx,,T4,B4,r,"['s', 'r']","['Stratego', 'Risk']","[-0.15, 0.5]","[0.15, 0.5]",1,1,,,,,,,,,,,,,,,,,0,3,3,3,0,5,5,5,,,,,,,,,,,,,,,,,,,,,,,,,,,,,,,,,,,,,,,,,,,,,,,1078.960781378999,None,1078.960781378999,None,1078.960781378999,None,r,1,1.1095049180003116,1080.494079445998,None,1080.494079445998,None,1080.494079445998,None,1081.677423609999,None,1081.677423609999,None,1081.677423609999,None,1081.677423609999,None,,,,,,,,,,,,,,,,,,,,,,,,,,,,,,,,,,,,,,,,,,,,001,51,2020_Jan_30_1537,spring_faces,3.2.3,60.06762966360871,
condition files/Stage2_1.xlsx,,T1,B1,s,"['s', 'r']","['Stratego', 'Risk']","[-0.15, 0.5]","[0.15, 0.5]",1,1,,,,,,,,,,,,,,,,,0,4,4,4,0,0,0,2,,,,,,,,,,,,,,,,,,,,,,,,,,,,,,,,,,,,,,,,,,,,,,,1083.660745060999,None,1083.660745060999,None,1083.660745060999,None,s,1,3.3055305460002273,1085.1940471979979,None,1085.1940471979979,None,1085.1940471979979,None,1088.5774252390001,None,1088.5774252390001,None,1088.5774252390001,None,1088.5774252390001,None,,,,,,,,,,,,,,,,,,,,,,,,,,,,,,,,,,,,,,,,,,,,001,51,2020_Jan_30_1537,spring_faces,3.2.3,60.06762966360871,
condition files/Stage2_1.xlsx,,T5,B5,s,"['s', 'r']","['Stratego', 'Risk']","[-0.15, 0.5]","[0.15, 0.5]",1,1,,,,,,,,,,,,,,,,,0,4,4,4,0,1,1,0,,,,,,,,,,,,,,,,,,,,,,,,,,,,,,,,,,,,,,,,,,,,,,,1090.5441216139989,None,1090.5441216139989,None,1090.5441216139989,None,s,1,4.0541458489969955,1092.077417048,None,1092.077417048,None,1092.077417048,None,1096.194106021001,None,1096.194106021001,None,1096.194106021001,None,1096.194106021001,None,,,,,,,,,,,,,,,,,,,,,,,,,,,,,,,,,,,,,,,,,,,,001,51,2020_Jan_30_1537,spring_faces,3.2.3,60.06762966360871,
condition files/Stage2_1.xlsx,,B2,T2,r,"['s', 'r']","['Stratego', 'Risk']","[-0.15, 0.5]","[0.15, 0.5]",1,1,,,,,,,,,,,,,,,,,0,4,4,4,0,2,2,3,,,,,,,,,,,,,,,,,,,,,,,,,,,,,,,,,,,,,,,,,,,,,,,1098.177464075001,None,1098.177464075001,None,1098.177464075001,None,r,1,1.8448375750012929,1099.7107563319987,None,1099.7107563319987,None,1099.7107563319987,None,1101.6274233449985,None,1101.6274233449985,None,1101.6274233449985,None,1101.6274233449985,None,,,,,,,,,,,,,,,,,,,,,,,,,,,,,,,,,,,,,,,,,,,,001,51,2020_Jan_30_1537,spring_faces,3.2.3,60.06762966360871,
condition files/Stage2_1.xlsx,,B4,T4,r,"['s', 'r']","['Stratego', 'Risk']","[-0.15, 0.5]","[0.15, 0.5]",1,1,,,,,,,,,,,,,,,,,0,4,4,4,0,3,3,5,,,,,,,,,,,,,,,,,,,,,,,,,,,,,,,,,,,,,,,,,,,,,,,1103.5941115969981,None,1103.5941115969981,None,1103.5941115969981,None,r,1,1.6441756029998942,1105.1274159259992,None,1105.1274159259992,None,1105.1274159259992,None,1106.8440842829987,None,1106.8440842829987,None,1106.8440842829987,None,1106.8440842829987,None,,,,,,,,,,,,,,,,,,,,,,,,,,,,,,,,,,,,,,,,,,,,001,51,2020_Jan_30_1537,spring_faces,3.2.3,60.06762966360871,
