condsFile,subStage,cue1,cue2,correct,responseKeys,responseNames,cue1Position,cue2Position,cue1Opacity,cue2Opacity,stageLoop0.thisRepN,stageLoop0.thisTrialN,stageLoop0.thisN,stageLoop0.thisIndex,blockLoop0.thisRepN,blockLoop0.thisTrialN,blockLoop0.thisN,blockLoop0.thisIndex,stage1Loop.thisRepN,stage1Loop.thisTrialN,stage1Loop.thisN,stage1Loop.thisIndex,blockLoop1.thisRepN,blockLoop1.thisTrialN,blockLoop1.thisN,blockLoop1.thisIndex,stage2Loop.thisRepN,stage2Loop.thisTrialN,stage2Loop.thisN,stage2Loop.thisIndex,blockLoop2.thisRepN,blockLoop2.thisTrialN,blockLoop2.thisN,blockLoop2.thisIndex,testLoop.thisRepN,testLoop.thisTrialN,testLoop.thisN,testLoop.thisIndex,blockLoopTest.thisRepN,blockLoopTest.thisTrialN,blockLoopTest.thisN,blockLoopTest.thisIndex,cuePics,id_instr_text.started,id_instr_text.stopped,space_to_continue_2.started,space_to_continue_2.stopped,end_instructions_resp_3.keys,end_instructions_resp_3.rt,end_instructions_resp_3.started,end_instructions_resp_3.stopped,id_input_instr.started,id_input_instr.stopped,id_input_rect.started,id_input_rect.stopped,id_input_resp.keys,id_input_resp.rt,id_input_resp.started,id_input_resp.stopped,sonaID,id_input_text.started,id_input_text.stopped,final_text.started,final_text.stopped,instructions.started,instructions.stopped,end_instructions_resp.keys,end_instructions_resp.rt,end_instructions_resp.started,end_instructions_resp.stopped,space_to_continue.started,space_to_continue.stopped,instructions_stage0.started,instructions_stage0.stopped,end_instructions_resp_stage0.keys,end_instructions_resp_stage0.rt,end_instructions_resp_stage0.started,end_instructions_resp_stage0.stopped,space_to_continue_stage0.started,space_to_continue_stage0.stopped,text.started,text.stopped,resp_text1.started,resp_text1.stopped,resp_text2.started,resp_text2.stopped,trial_resp.keys,trial_resp.corr,trial_resp.rt,trial_resp.started,trial_resp.stopped,cue1Image.started,cue1Image.stopped,cue2Image.started,cue2Image.stopped,cue1Image_fb.started,cue1Image_fb.stopped,cue2Image_fb.started,cue2Image_fb.stopped,fb_text_answer.started,fb_text_answer.stopped,feedback_image.started,feedback_image.stopped,instructions_stage1.started,instructions_stage1.stopped,end_instructions_resp_stage1.keys,end_instructions_resp_stage1.rt,end_instructions_resp_stage1.started,end_instructions_resp_stage1.stopped,space_to_continue_stage1.started,space_to_continue_stage1.stopped,instructions_2.started,instructions_2.stopped,end_instructions_resp_2.keys,end_instructions_resp_2.rt,end_instructions_resp_2.started,end_instructions_resp_2.stopped,press_space_to_continue_stage2.started,press_space_to_continue_stage2.stopped,instructions_testStage1.started,instructions_testStage1.stopped,end_instructions_resp_test1.keys,end_instructions_resp_test1.rt,end_instructions_resp_test1.started,end_instructions_resp_test1.stopped,press_space_to_continue_test1.started,press_space_to_continue_test1.stopped,cue1Image_testChoice.started,cue1Image_testChoice.stopped,cue2Image_testChoice.started,cue2Image_testChoice.stopped,test_resp.keys,test_resp.corr,test_resp.rt,test_resp.started,test_resp.stopped,cue1Image_testConf.started,cue1Image_testConf.stopped,cue2Image_testConf.started,cue2Image_testConf.stopped,conf_reminder.started,conf_reminder.stopped,conf_rating.response,conf_rating.rt,conf_rating.started,conf_rating.stopped,session,participant,date,expName,psychopyVersion,frameRate,
,,,,,,,,,,,,,,,,,,,,,,,,,,,,,,,,,,,,,,,,,,,"{'none': 'pictures/20M_AN_C.png', 'alpha': 'pictures/SHINEd_pear.png', 'beta': 'pictures/SHINEd_apple.png', 'theta': 'pictures/SHINEd_melon.png', 'phi': 'pictures/SHINEd_pepper.png', 'T1': 'pictures/38M_AN_C.png', 'T2': 'pictures/26M_AN_C.png', 'T3': 'pictures/25M_AN_C.png', 'T4': 'pictures/23M_AN_C.png', 'T5': 'pictures/31M_AN_C.png', 'T6': 'pictures/32M_AN_C.png', 'B1': 'pictures/36M_NE_C.png', 'B2': 'pictures/22M_NE_C.png', 'B3': 'pictures/20M_NE_C.png', 'B4': 'pictures/37M_NE_C.png', 'B5': 'pictures/33M_NE_C.png', 'B6': 'pictures/34M_NE_C.png'}",17.139092677000008,None,22.138703937998798,None,space,63.30733824300114,22.138703937998798,None,,,,,,,,,,,,,,,,,,,,,,,,,,,,,,,,,,,,,,,,,,,,,,,,,,,,,,,,,,,,,,,,,,,,,,,,,,,,,,,,,,,,,,,,,,,,,,,,001,52,2020_Jan_30_1553,spring_faces,3.1.5,60.03212871617338,
,,,,,,,,,,,,,,,,,,,,,,,,,,,,,,,,,,,,,,,,,,,,,,,,,,,,85.83824678499877,None,85.83824678499877,None,"['0', '2', '2', '7', 'm', 'a', 'p', 'u', 'e', 'backspace', '0', '2', '2', '7', 'm', 'a', 'c', 'o', 'u']","[15.479731986000843, 15.671731140999327, 20.071753952001018, 20.343776473000617, 22.75981566399787, 22.967675723000866, 32.64772401099981, 33.047726282999065, 33.44772514699798, 34.45579826099856, 43.20779795300041, 43.655743927, 44.551678654999705, 45.04772641099771, 47.36767974299801, 47.59179786000095, 48.439737360000436, 48.66391751599804, 48.887729423000565]",85.83824678499877,None,,,,,,,,,,,,,,,,,,,,,,,,,,,,,,,,,,,,,,,,,,,,,,,,,,,,,,,,,,,,,,,,,,,,,,,,,,,,,,,,,,,,,,,,001,52,2020_Jan_30_1553,spring_faces,3.1.5,60.03212871617338,
,,,,,,,,,,,,,,,,,,,,,,,,,,,,,,,,,,,,,,,,,,,,,,,,,,,,,,,,,,,,0227macou,85.83824678499877,None,85.83824678499877,None,139.80564347399923,None,space,9.536764470998605,144.80526823099717,None,,,,,,,,,,,,,,,,,,,,,,,,,,,,,,,,,,,,,,,,,,,,,,,,,,,,,,,,,,,,,,,,,,,,,,,,,,,,,001,52,2020_Jan_30_1553,spring_faces,3.1.5,60.03212871617338,
,,,,,,,,,,,,,,,,,,,,,,,,,,,,,,,,,,,,,,,,,,,,,,,,,,,,,,,,,,,,,,,,,,,,,,,144.80526823099717,None,154.388436858997,None,space,4.217163502999028,159.38877849199707,None,,,,,,,,,,,,,,,,,,,,,,,,,,,,,,,,,,,,,,,,,,,,,,,,,,,,,,,,,,,,,,,,,,,,,001,52,2020_Jan_30_1553,spring_faces,3.1.5,60.03212871617338,
condition files/Stage0a.xlsx,0a,beta,none,g,"['h', 'g']","['Chess', 'Go']","[0, 0.5]","[0, 0]",1,0,0,0,0,0,0,0,0,1,,,,,,,,,,,,,,,,,,,,,,,,,,,,,,,,,,,,,,,,,,,,,,,,,,,,,,,,,,,,,159.38877849199707,None,163.67183218699938,None,163.67183218699938,None,163.67183218699938,None,g,1,6.190099359999294,165.25595380999948,None,165.25595380999948,None,165.25595380999948,None,171.52204660899952,None,171.52204660899952,None,171.52204660899952,None,171.52204660899952,None,,,,,,,,,,,,,,,,,,,,,,,,,,,,,,,,,,,,,,,,,,,,001,52,2020_Jan_30_1553,spring_faces,3.1.5,60.03212871617338,
condition files/Stage0a.xlsx,0a,alpha,none,h,"['h', 'g']","['Chess', 'Go']","[0, 0.5]","[0, 0]",1,0,0,0,0,0,0,1,1,0,,,,,,,,,,,,,,,,,,,,,,,,,,,,,,,,,,,,,,,,,,,,,,,,,,,,,,,,,,,,,,,173.47177449399896,None,173.47177449399896,None,173.47177449399896,None,g,0,4.023196386999189,175.02283288499893,None,175.02283288499893,None,175.02283288499893,None,179.1072562829977,None,179.1072562829977,None,179.1072562829977,None,179.1072562829977,None,,,,,,,,,,,,,,,,,,,,,,,,,,,,,,,,,,,,,,,,,,,,001,52,2020_Jan_30_1553,spring_faces,3.1.5,60.03212871617338,
condition files/Stage0a.xlsx,0a,beta,none,g,"['h', 'g']","['Chess', 'Go']","[0, 0.5]","[0, 0]",1,0,0,1,1,1,0,0,0,1,,,,,,,,,,,,,,,,,,,,,,,,,,,,,,,,,,,,,,,,,,,,,,,,,,,,,,,,,,,,,,,181.088701329998,None,181.088701329998,None,181.088701329998,None,g,1,2.7442504789978557,182.62176228099997,None,182.62176228099997,None,182.62176228099997,None,185.42186736499934,None,185.42186736499934,None,185.42186736499934,None,185.42186736499934,None,,,,,,,,,,,,,,,,,,,,,,,,,,,,,,,,,,,,,,,,,,,,001,52,2020_Jan_30_1553,spring_faces,3.1.5,60.03212871617338,
condition files/Stage0a.xlsx,0a,alpha,none,h,"['h', 'g']","['Chess', 'Go']","[0, 0.5]","[0, 0]",1,0,0,1,1,1,0,1,1,0,,,,,,,,,,,,,,,,,,,,,,,,,,,,,,,,,,,,,,,,,,,,,,,,,,,,,,,,,,,,,,,187.38833762899958,None,187.38833762899958,None,187.38833762899958,None,h,1,1.7723915379974642,188.92160676599815,None,188.92160676599815,None,188.92160676599815,None,190.75559767099912,None,190.75559767099912,None,190.75559767099912,None,190.75559767099912,None,,,,,,,,,,,,,,,,,,,,,,,,,,,,,,,,,,,,,,,,,,,,001,52,2020_Jan_30_1553,spring_faces,3.1.5,60.03212871617338,
condition files/Stage0a.xlsx,0a,beta,none,g,"['h', 'g']","['Chess', 'Go']","[0, 0.5]","[0, 0]",1,0,0,2,2,2,0,0,0,1,,,,,,,,,,,,,,,,,,,,,,,,,,,,,,,,,,,,,,,,,,,,,,,,,,,,,,,,,,,,,,,192.7388142739983,None,192.7388142739983,None,192.7388142739983,None,g,1,1.6695116610026162,194.27248629399764,None,194.27248629399764,None,194.27248629399764,None,196.00484507299916,None,196.00484507299916,None,196.00484507299916,None,196.00484507299916,None,,,,,,,,,,,,,,,,,,,,,,,,,,,,,,,,,,,,,,,,,,,,001,52,2020_Jan_30_1553,spring_faces,3.1.5,60.03212871617338,
condition files/Stage0a.xlsx,0a,alpha,none,h,"['h', 'g']","['Chess', 'Go']","[0, 0.5]","[0, 0]",1,0,0,2,2,2,0,1,1,0,,,,,,,,,,,,,,,,,,,,,,,,,,,,,,,,,,,,,,,,,,,,,,,,,,,,,,,,,,,,,,,197.97171525599697,None,197.97171525599697,None,197.97171525599697,None,h,1,1.3002265530012664,199.50572643199848,None,199.50572643199848,None,199.50572643199848,None,200.87199865599905,None,200.87199865599905,None,200.87199865599905,None,200.87199865599905,None,,,,,,,,,,,,,,,,,,,,,,,,,,,,,,,,,,,,,,,,,,,,001,52,2020_Jan_30_1553,spring_faces,3.1.5,60.03212871617338,
condition files/Stage0a.xlsx,0a,beta,none,g,"['h', 'g']","['Chess', 'Go']","[0, 0.5]","[0, 0]",1,0,0,3,3,3,0,0,0,1,,,,,,,,,,,,,,,,,,,,,,,,,,,,,,,,,,,,,,,,,,,,,,,,,,,,,,,,,,,,,,,202.8550847109982,None,202.8550847109982,None,202.8550847109982,None,g,1,1.6333283640014997,204.38865837999765,None,204.38865837999765,None,204.38865837999765,None,206.07236548499714,None,206.07236548499714,None,206.07236548499714,None,206.07236548499714,None,,,,,,,,,,,,,,,,,,,,,,,,,,,,,,,,,,,,,,,,,,,,001,52,2020_Jan_30_1553,spring_faces,3.1.5,60.03212871617338,
condition files/Stage0a.xlsx,0a,alpha,none,h,"['h', 'g']","['Chess', 'Go']","[0, 0.5]","[0, 0]",1,0,0,3,3,3,0,1,1,0,,,,,,,,,,,,,,,,,,,,,,,,,,,,,,,,,,,,,,,,,,,,,,,,,,,,,,,,,,,,,,,208.03856288999668,None,208.03856288999668,None,208.03856288999668,None,h,1,0.9145115529972827,209.57146744099737,None,209.57146744099737,None,209.57146744099737,None,210.53868642699672,None,210.53868642699672,None,210.53868642699672,None,210.53868642699672,None,,,,,,,,,,,,,,,,,,,,,,,,,,,,,,,,,,,,,,,,,,,,001,52,2020_Jan_30_1553,spring_faces,3.1.5,60.03212871617338,
condition files/Stage0a.xlsx,0a,beta,none,g,"['h', 'g']","['Chess', 'Go']","[0, 0.5]","[0, 0]",1,0,0,4,4,4,0,0,0,1,,,,,,,,,,,,,,,,,,,,,,,,,,,,,,,,,,,,,,,,,,,,,,,,,,,,,,,,,,,,,,,212.52218092600015,None,212.52218092600015,None,212.52218092600015,None,g,1,1.3418720589979785,214.056211395,None,214.056211395,None,214.056211395,None,215.45477842499895,None,215.45477842499895,None,215.45477842499895,None,215.45477842499895,None,,,,,,,,,,,,,,,,,,,,,,,,,,,,,,,,,,,,,,,,,,,,001,52,2020_Jan_30_1553,spring_faces,3.1.5,60.03212871617338,
condition files/Stage0a.xlsx,0a,alpha,none,h,"['h', 'g']","['Chess', 'Go']","[0, 0.5]","[0, 0]",1,0,0,4,4,4,0,1,1,0,,,,,,,,,,,,,,,,,,,,,,,,,,,,,,,,,,,,,,,,,,,,,,,,,,,,,,,,,,,,,,,217.4218590959972,None,217.4218590959972,None,217.4218590959972,None,h,1,0.810461311997642,218.9555255239975,None,218.9555255239975,None,218.9555255239975,None,219.82173369299926,None,219.82173369299926,None,219.82173369299926,None,219.82173369299926,None,,,,,,,,,,,,,,,,,,,,,,,,,,,,,,,,,,,,,,,,,,,,001,52,2020_Jan_30_1553,spring_faces,3.1.5,60.03212871617338,
condition files/Stage0a.xlsx,0a,beta,none,g,"['h', 'g']","['Chess', 'Go']","[0, 0.5]","[0, 0]",1,0,0,5,5,5,0,0,0,1,,,,,,,,,,,,,,,,,,,,,,,,,,,,,,,,,,,,,,,,,,,,,,,,,,,,,,,,,,,,,,,221.8055132119989,None,221.8055132119989,None,221.8055132119989,None,g,1,0.7470683829997142,223.33885262699914,None,223.33885262699914,None,223.33885262699914,None,224.13921919199856,None,224.13921919199856,None,224.13921919199856,None,224.13921919199856,None,,,,,,,,,,,,,,,,,,,,,,,,,,,,,,,,,,,,,,,,,,,,001,52,2020_Jan_30_1553,spring_faces,3.1.5,60.03212871617338,
condition files/Stage0a.xlsx,0a,alpha,none,h,"['h', 'g']","['Chess', 'Go']","[0, 0.5]","[0, 0]",1,0,0,5,5,5,0,1,1,0,,,,,,,,,,,,,,,,,,,,,,,,,,,,,,,,,,,,,,,,,,,,,,,,,,,,,,,,,,,,,,,226.10519802299677,None,226.10519802299677,None,226.10519802299677,None,h,1,0.8474552949992358,227.63852133299952,None,227.63852133299952,None,227.63852133299952,None,228.5381805529978,None,228.5381805529978,None,228.5381805529978,None,228.5381805529978,None,,,,,,,,,,,,,,,,,,,,,,,,,,,,,,,,,,,,,,,,,,,,001,52,2020_Jan_30_1553,spring_faces,3.1.5,60.03212871617338,
condition files/Stage0b_1.xlsx,0b,alpha,none,h,"['h', 'g']","['Chess', 'Go']","[-0.15, 0.5]","[0.15, 0.5]",1,0,0,6,6,6,0,0,0,0,,,,,,,,,,,,,,,,,,,,,,,,,,,,,,,,,,,,,,,,,,,,,,,,,,,,,,,,,,,,,,,230.522236539,None,230.522236539,None,230.522236539,None,h,1,2.527179311000509,232.05487553799685,None,232.05487553799685,None,232.05487553799685,None,234.63875593299963,None,234.63875593299963,None,234.63875593299963,None,234.63875593299963,None,,,,,,,,,,,,,,,,,,,,,,,,,,,,,,,,,,,,,,,,,,,,001,52,2020_Jan_30_1553,spring_faces,3.1.5,60.03212871617338,
condition files/Stage0b_1.xlsx,0b,none,beta,g,"['h', 'g']","['Chess', 'Go']","[-0.15, 0.5]","[0.15, 0.5]",0,1,0,6,6,6,0,1,1,1,,,,,,,,,,,,,,,,,,,,,,,,,,,,,,,,,,,,,,,,,,,,,,,,,,,,,,,,,,,,,,,236.60566155299966,None,236.60566155299966,None,236.60566155299966,None,g,1,0.9384098520022235,238.15558350299762,None,238.15558350299762,None,238.15558350299762,None,239.17154396799742,None,239.17154396799742,None,239.17154396799742,None,239.17154396799742,None,,,,,,,,,,,,,,,,,,,,,,,,,,,,,,,,,,,,,,,,,,,,001,52,2020_Jan_30_1553,spring_faces,3.1.5,60.03212871617338,
condition files/Stage0b_2.xlsx,0b,beta,none,g,"['h', 'g']","['Chess', 'Go']","[-0.15, 0.5]","[0.15, 0.5]",1,0,0,7,7,7,0,0,0,1,,,,,,,,,,,,,,,,,,,,,,,,,,,,,,,,,,,,,,,,,,,,,,,,,,,,,,,,,,,,,,,241.13885694499913,None,241.13885694499913,None,241.13885694499913,None,g,1,1.1850039870005276,242.66105323899683,None,242.66105323899683,None,242.66105323899683,None,243.90505733600003,None,243.90505733600003,None,243.90505733600003,None,243.90505733600003,None,,,,,,,,,,,,,,,,,,,,,,,,,,,,,,,,,,,,,,,,,,,,001,52,2020_Jan_30_1553,spring_faces,3.1.5,60.03212871617338,
condition files/Stage0b_2.xlsx,0b,none,alpha,h,"['h', 'g']","['Chess', 'Go']","[-0.15, 0.5]","[0.15, 0.5]",0,1,0,7,7,7,0,1,1,0,,,,,,,,,,,,,,,,,,,,,,,,,,,,,,,,,,,,,,,,,,,,,,,,,,,,,,,,,,,,,,,245.87187977499707,None,245.87187977499707,None,245.87187977499707,None,h,1,0.7767787800003134,247.40529830899686,None,247.40529830899686,None,247.40529830899686,None,248.24307371599934,None,248.24307371599934,None,248.24307371599934,None,248.24307371599934,None,,,,,,,,,,,,,,,,,,,,,,,,,,,,,,,,,,,,,,,,,,,,001,52,2020_Jan_30_1553,spring_faces,3.1.5,60.03212871617338,
condition files/Stage0b_1.xlsx,0b,none,beta,g,"['h', 'g']","['Chess', 'Go']","[-0.15, 0.5]","[0.15, 0.5]",0,1,0,8,8,8,0,0,0,1,,,,,,,,,,,,,,,,,,,,,,,,,,,,,,,,,,,,,,,,,,,,,,,,,,,,,,,,,,,,,,,250.2218370929986,None,250.2218370929986,None,250.2218370929986,None,g,1,1.0032414390007034,251.75477215099818,None,251.75477215099818,None,251.75477215099818,None,252.82148482199773,None,252.82148482199773,None,252.82148482199773,None,252.82148482199773,None,,,,,,,,,,,,,,,,,,,,,,,,,,,,,,,,,,,,,,,,,,,,001,52,2020_Jan_30_1553,spring_faces,3.1.5,60.03212871617338,
condition files/Stage0b_1.xlsx,0b,alpha,none,h,"['h', 'g']","['Chess', 'Go']","[-0.15, 0.5]","[0.15, 0.5]",1,0,0,8,8,8,0,1,1,0,,,,,,,,,,,,,,,,,,,,,,,,,,,,,,,,,,,,,,,,,,,,,,,,,,,,,,,,,,,,,,,254.78826268400007,None,254.78826268400007,None,254.78826268400007,None,h,1,0.848716799999238,256.32527489899803,None,256.32527489899803,None,256.32527489899803,None,257.2445368319968,None,257.2445368319968,None,257.2445368319968,None,257.2445368319968,None,,,,,,,,,,,,,,,,,,,,,,,,,,,,,,,,,,,,,,,,,,,,001,52,2020_Jan_30_1553,spring_faces,3.1.5,60.03212871617338,
condition files/Stage0b_2.xlsx,0b,beta,none,g,"['h', 'g']","['Chess', 'Go']","[-0.15, 0.5]","[0.15, 0.5]",1,0,0,9,9,9,0,0,0,1,,,,,,,,,,,,,,,,,,,,,,,,,,,,,,,,,,,,,,,,,,,,,,,,,,,,,,,,,,,,,,,259.22185694299696,None,259.22185694299696,None,259.22185694299696,None,g,1,0.8512358979969576,260.754729758999,None,260.754729758999,None,260.754729758999,None,261.6721444509967,None,261.6721444509967,None,261.6721444509967,None,261.6721444509967,None,,,,,,,,,,,,,,,,,,,,,,,,,,,,,,,,,,,,,,,,,,,,001,52,2020_Jan_30_1553,spring_faces,3.1.5,60.03212871617338,
condition files/Stage0b_2.xlsx,0b,none,alpha,h,"['h', 'g']","['Chess', 'Go']","[-0.15, 0.5]","[0.15, 0.5]",0,1,0,9,9,9,0,1,1,0,,,,,,,,,,,,,,,,,,,,,,,,,,,,,,,,,,,,,,,,,,,,,,,,,,,,,,,,,,,,,,,263.6385485779974,None,263.6385485779974,None,263.6385485779974,None,h,1,0.8010897630010732,265.188863116,None,265.188863116,None,265.188863116,None,266.0717524920001,None,266.0717524920001,None,266.0717524920001,None,266.0717524920001,None,,,,,,,,,,,,,,,,,,,,,,,,,,,,,,,,,,,,,,,,,,,,001,52,2020_Jan_30_1553,spring_faces,3.1.5,60.03212871617338,
condition files/Stage0b_1.xlsx,0b,alpha,none,h,"['h', 'g']","['Chess', 'Go']","[-0.15, 0.5]","[0.15, 0.5]",1,0,0,10,10,10,0,0,0,0,,,,,,,,,,,,,,,,,,,,,,,,,,,,,,,,,,,,,,,,,,,,,,,,,,,,,,,,,,,,,,,268.0388559940002,None,268.0388559940002,None,268.0388559940002,None,h,1,0.8622492969989253,269.5757351510001,None,269.5757351510001,None,269.5757351510001,None,270.48812328499844,None,270.48812328499844,None,270.48812328499844,None,270.48812328499844,None,,,,,,,,,,,,,,,,,,,,,,,,,,,,,,,,,,,,,,,,,,,,001,52,2020_Jan_30_1553,spring_faces,3.1.5,60.03212871617338,
condition files/Stage0b_1.xlsx,0b,none,beta,g,"['h', 'g']","['Chess', 'Go']","[-0.15, 0.5]","[0.15, 0.5]",0,1,0,10,10,10,0,1,1,1,,,,,,,,,,,,,,,,,,,,,,,,,,,,,,,,,,,,,,,,,,,,,,,,,,,,,,,,,,,,,,,272.4551826229981,None,272.4551826229981,None,272.4551826229981,None,g,1,0.8337184769989108,273.98827706299926,None,273.98827706299926,None,273.98827706299926,None,274.873166682999,None,274.873166682999,None,274.873166682999,None,274.873166682999,None,,,,,,,,,,,,,,,,,,,,,,,,,,,,,,,,,,,,,,,,,,,,001,52,2020_Jan_30_1553,spring_faces,3.1.5,60.03212871617338,
condition files/Stage0b_2.xlsx,0b,beta,none,g,"['h', 'g']","['Chess', 'Go']","[-0.15, 0.5]","[0.15, 0.5]",1,0,0,11,11,11,0,0,0,1,,,,,,,,,,,,,,,,,,,,,,,,,,,,,,,,,,,,,,,,,,,,,,,,,,,,,,,,,,,,,,,276.8555684039966,None,276.8555684039966,None,276.8555684039966,None,g,1,0.861398527998972,278.39260412399744,None,278.39260412399744,None,278.39260412399744,None,279.30520527099725,None,279.30520527099725,None,279.30520527099725,None,279.30520527099725,None,,,,,,,,,,,,,,,,,,,,,,,,,,,,,,,,,,,,,,,,,,,,001,52,2020_Jan_30_1553,spring_faces,3.1.5,60.03212871617338,
condition files/Stage0b_2.xlsx,0b,none,alpha,h,"['h', 'g']","['Chess', 'Go']","[-0.15, 0.5]","[0.15, 0.5]",0,1,0,11,11,11,0,1,1,0,,,,,,,,,,,,,,,,,,,,,,,,,,,,,,,,,,,,,,,,,,,,,,,,,,,,,,,,,,,,,,,281.272314853999,None,281.272314853999,None,281.272314853999,None,h,1,0.5715167220005242,282.81052882899894,None,282.81052882899894,None,282.81052882899894,None,283.4393931159975,None,283.4393931159975,None,283.4393931159975,None,283.4393931159975,None,,,,,,,,,,,,,,,,,,,,,,,,,,,,,,,,,,,,,,,,,,,,001,52,2020_Jan_30_1553,spring_faces,3.1.5,60.03212871617338,
condition files/Stage0c_1.xlsx,0c,alpha,phi,h,"['h', 'g']","['Chess', 'Go']","[-0.15, 0.5]","[0.15, 0.5]",1,1,0,12,12,12,0,0,0,1,,,,,,,,,,,,,,,,,,,,,,,,,,,,,,,,,,,,,,,,,,,,,,,,,,,,,,,,,,,,,,,285.42239324899856,None,285.42239324899856,None,285.42239324899856,None,h,1,5.978397262002545,286.95554220399936,None,286.95554220399936,None,286.95554220399936,None,292.98845180699936,None,292.98845180699936,None,292.98845180699936,None,292.98845180699936,None,,,,,,,,,,,,,,,,,,,,,,,,,,,,,,,,,,,,,,,,,,,,001,52,2020_Jan_30_1553,spring_faces,3.1.5,60.03212871617338,
condition files/Stage0c_1.xlsx,0c,phi,beta,g,"['h', 'g']","['Chess', 'Go']","[-0.15, 0.5]","[0.15, 0.5]",1,1,0,12,12,12,0,1,1,3,,,,,,,,,,,,,,,,,,,,,,,,,,,,,,,,,,,,,,,,,,,,,,,,,,,,,,,,,,,,,,,294.955217327999,None,294.955217327999,None,294.955217327999,None,g,1,6.045158103999711,296.48883468799977,None,296.48883468799977,None,296.48883468799977,None,302.58822819599663,None,302.58822819599663,None,302.58822819599663,None,302.58822819599663,None,,,,,,,,,,,,,,,,,,,,,,,,,,,,,,,,,,,,,,,,,,,,001,52,2020_Jan_30_1553,spring_faces,3.1.5,60.03212871617338,
condition files/Stage0c_1.xlsx,0c,theta,alpha,h,"['h', 'g']","['Chess', 'Go']","[-0.15, 0.5]","[0.15, 0.5]",1,1,0,12,12,12,0,2,2,0,,,,,,,,,,,,,,,,,,,,,,,,,,,,,,,,,,,,,,,,,,,,,,,,,,,,,,,,,,,,,,,304.5552338649977,None,304.5552338649977,None,304.5552338649977,None,g,0,4.893164586999774,306.08889049199934,None,306.08889049199934,None,306.08889049199934,None,311.0382891659974,None,311.0382891659974,None,311.0382891659974,None,311.0382891659974,None,,,,,,,,,,,,,,,,,,,,,,,,,,,,,,,,,,,,,,,,,,,,001,52,2020_Jan_30_1553,spring_faces,3.1.5,60.03212871617338,
condition files/Stage0c_1.xlsx,0c,beta,theta,g,"['h', 'g']","['Chess', 'Go']","[-0.15, 0.5]","[0.15, 0.5]",1,1,0,12,12,12,0,3,3,2,,,,,,,,,,,,,,,,,,,,,,,,,,,,,,,,,,,,,,,,,,,,,,,,,,,,,,,,,,,,,,,313.0064990269966,None,313.0064990269966,None,313.0064990269966,None,h,0,2.938612422996812,314.5393852419984,None,314.5393852419984,None,314.5393852419984,None,317.53851412699805,None,317.53851412699805,None,317.53851412699805,None,317.53851412699805,None,,,,,,,,,,,,,,,,,,,,,,,,,,,,,,,,,,,,,,,,,,,,001,52,2020_Jan_30_1553,spring_faces,3.1.5,60.03212871617338,
condition files/Stage0c_2.xlsx,0c,alpha,theta,h,"['h', 'g']","['Chess', 'Go']","[-0.15, 0.5]","[0.15, 0.5]",1,1,0,13,13,13,0,0,0,0,,,,,,,,,,,,,,,,,,,,,,,,,,,,,,,,,,,,,,,,,,,,,,,,,,,,,,,,,,,,,,,319.52180915499775,None,319.52180915499775,None,319.52180915499775,None,h,1,1.8467100060006487,321.0554952729981,None,321.0554952729981,None,321.0554952729981,None,322.9555440819968,None,322.9555440819968,None,322.9555440819968,None,322.9555440819968,None,,,,,,,,,,,,,,,,,,,,,,,,,,,,,,,,,,,,,,,,,,,,001,52,2020_Jan_30_1553,spring_faces,3.1.5,60.03212871617338,
condition files/Stage0c_2.xlsx,0c,theta,beta,g,"['h', 'g']","['Chess', 'Go']","[-0.15, 0.5]","[0.15, 0.5]",1,1,0,13,13,13,0,1,1,2,,,,,,,,,,,,,,,,,,,,,,,,,,,,,,,,,,,,,,,,,,,,,,,,,,,,,,,,,,,,,,,324.923228716998,None,324.923228716998,None,324.923228716998,None,g,1,1.9625146690013935,326.443433045999,None,326.443433045999,None,326.443433045999,None,328.47216814700005,None,328.47216814700005,None,328.47216814700005,None,328.47216814700005,None,,,,,,,,,,,,,,,,,,,,,,,,,,,,,,,,,,,,,,,,,,,,001,52,2020_Jan_30_1553,spring_faces,3.1.5,60.03212871617338,
condition files/Stage0c_2.xlsx,0c,beta,phi,g,"['h', 'g']","['Chess', 'Go']","[-0.15, 0.5]","[0.15, 0.5]",1,1,0,13,13,13,0,2,2,3,,,,,,,,,,,,,,,,,,,,,,,,,,,,,,,,,,,,,,,,,,,,,,,,,,,,,,,,,,,,,,,330.4385273449989,None,330.4385273449989,None,330.4385273449989,None,g,1,1.5858168409977225,331.97217065699806,None,331.97217065699806,None,331.97217065699806,None,333.6049352329974,None,333.6049352329974,None,333.6049352329974,None,333.6049352329974,None,,,,,,,,,,,,,,,,,,,,,,,,,,,,,,,,,,,,,,,,,,,,001,52,2020_Jan_30_1553,spring_faces,3.1.5,60.03212871617338,
condition files/Stage0c_2.xlsx,0c,phi,alpha,h,"['h', 'g']","['Chess', 'Go']","[-0.15, 0.5]","[0.15, 0.5]",1,1,0,13,13,13,0,3,3,1,,,,,,,,,,,,,,,,,,,,,,,,,,,,,,,,,,,,,,,,,,,,,,,,,,,,,,,,,,,,,,,335.58802982999987,None,335.58802982999987,None,335.58802982999987,None,h,1,4.24397259199759,337.1220814999979,None,337.1220814999979,None,337.1220814999979,None,341.42237256599765,None,341.42237256599765,None,341.42237256599765,None,341.42237256599765,None,,,,,,,,,,,,,,,,,,,,,,,,,,,,,,,,,,,,,,,,,,,,001,52,2020_Jan_30_1553,spring_faces,3.1.5,60.03212871617338,
condition files/Stage0c_1.xlsx,0c,alpha,phi,h,"['h', 'g']","['Chess', 'Go']","[-0.15, 0.5]","[0.15, 0.5]",1,1,0,14,14,14,0,0,0,1,,,,,,,,,,,,,,,,,,,,,,,,,,,,,,,,,,,,,,,,,,,,,,,,,,,,,,,,,,,,,,,343.4054413019985,None,343.4054413019985,None,343.4054413019985,None,h,1,2.251153040000645,344.93880097299916,None,344.93880097299916,None,344.93880097299916,None,347.241181227997,None,347.241181227997,None,347.241181227997,None,347.241181227997,None,,,,,,,,,,,,,,,,,,,,,,,,,,,,,,,,,,,,,,,,,,,,001,52,2020_Jan_30_1553,spring_faces,3.1.5,60.03212871617338,
condition files/Stage0c_1.xlsx,0c,phi,beta,g,"['h', 'g']","['Chess', 'Go']","[-0.15, 0.5]","[0.15, 0.5]",1,1,0,14,14,14,0,1,1,3,,,,,,,,,,,,,,,,,,,,,,,,,,,,,,,,,,,,,,,,,,,,,,,,,,,,,,,,,,,,,,,349.2211365939984,None,349.2211365939984,None,349.2211365939984,None,g,1,2.1944573760010826,350.7555190059975,None,350.7555190059975,None,350.7555190059975,None,353.0056839839999,None,353.0056839839999,None,353.0056839839999,None,353.0056839839999,None,,,,,,,,,,,,,,,,,,,,,,,,,,,,,,,,,,,,,,,,,,,,001,52,2020_Jan_30_1553,spring_faces,3.1.5,60.03212871617338,
condition files/Stage0c_1.xlsx,0c,beta,theta,g,"['h', 'g']","['Chess', 'Go']","[-0.15, 0.5]","[0.15, 0.5]",1,1,0,14,14,14,0,2,2,2,,,,,,,,,,,,,,,,,,,,,,,,,,,,,,,,,,,,,,,,,,,,,,,,,,,,,,,,,,,,,,,354.97184949099756,None,354.97184949099756,None,354.97184949099756,None,g,1,2.220991933998448,356.5049999349976,None,356.5049999349976,None,356.5049999349976,None,358.77163913799814,None,358.77163913799814,None,358.77163913799814,None,358.77163913799814,None,,,,,,,,,,,,,,,,,,,,,,,,,,,,,,,,,,,,,,,,,,,,001,52,2020_Jan_30_1553,spring_faces,3.1.5,60.03212871617338,
condition files/Stage0c_1.xlsx,0c,theta,alpha,h,"['h', 'g']","['Chess', 'Go']","[-0.15, 0.5]","[0.15, 0.5]",1,1,0,14,14,14,0,3,3,0,,,,,,,,,,,,,,,,,,,,,,,,,,,,,,,,,,,,,,,,,,,,,,,,,,,,,,,,,,,,,,,360.75513487399803,None,360.75513487399803,None,360.75513487399803,None,h,1,2.3252515890017094,362.28879298299944,None,362.28879298299944,None,362.28879298299944,None,364.6731538169988,None,364.6731538169988,None,364.6731538169988,None,364.6731538169988,None,,,,,,,,,,,,,,,,,,,,,,,,,,,,,,,,,,,,,,,,,,,,001,52,2020_Jan_30_1553,spring_faces,3.1.5,60.03212871617338,
condition files/Stage0c_2.xlsx,0c,phi,alpha,h,"['h', 'g']","['Chess', 'Go']","[-0.15, 0.5]","[0.15, 0.5]",1,1,0,15,15,15,0,0,0,1,,,,,,,,,,,,,,,,,,,,,,,,,,,,,,,,,,,,,,,,,,,,,,,,,,,,,,,,,,,,,,,366.6555215329972,None,366.6555215329972,None,366.6555215329972,None,h,1,1.4811347619979642,368.18885770499764,None,368.18885770499764,None,368.18885770499764,None,369.706809932999,None,369.706809932999,None,369.706809932999,None,369.706809932999,None,,,,,,,,,,,,,,,,,,,,,,,,,,,,,,,,,,,,,,,,,,,,001,52,2020_Jan_30_1553,spring_faces,3.1.5,60.03212871617338,
condition files/Stage0c_2.xlsx,0c,beta,phi,g,"['h', 'g']","['Chess', 'Go']","[-0.15, 0.5]","[0.15, 0.5]",1,1,0,15,15,15,0,1,1,3,,,,,,,,,,,,,,,,,,,,,,,,,,,,,,,,,,,,,,,,,,,,,,,,,,,,,,,,,,,,,,,371.68862075799916,None,371.68862075799916,None,371.68862075799916,None,g,1,0.959914385999582,373.222142229999,None,373.222142229999,None,373.222142229999,None,374.2386907709988,None,374.2386907709988,None,374.2386907709988,None,374.2386907709988,None,,,,,,,,,,,,,,,,,,,,,,,,,,,,,,,,,,,,,,,,,,,,001,52,2020_Jan_30_1553,spring_faces,3.1.5,60.03212871617338,
condition files/Stage0c_2.xlsx,0c,theta,beta,g,"['h', 'g']","['Chess', 'Go']","[-0.15, 0.5]","[0.15, 0.5]",1,1,0,15,15,15,0,2,2,2,,,,,,,,,,,,,,,,,,,,,,,,,,,,,,,,,,,,,,,,,,,,,,,,,,,,,,,,,,,,,,,376.2046138049991,None,376.2046138049991,None,376.2046138049991,None,g,1,1.46714651900038,377.7388153949978,None,377.7388153949978,None,377.7388153949978,None,379.254809242997,None,379.254809242997,None,379.254809242997,None,379.254809242997,None,,,,,,,,,,,,,,,,,,,,,,,,,,,,,,,,,,,,,,,,,,,,001,52,2020_Jan_30_1553,spring_faces,3.1.5,60.03212871617338,
condition files/Stage0c_2.xlsx,0c,alpha,theta,h,"['h', 'g']","['Chess', 'Go']","[-0.15, 0.5]","[0.15, 0.5]",1,1,0,15,15,15,0,3,3,0,,,,,,,,,,,,,,,,,,,,,,,,,,,,,,,,,,,,,,,,,,,,,,,,,,,,,,,,,,,,,,,381.2383735079966,None,381.2383735079966,None,381.2383735079966,None,h,1,1.4739382830011891,382.77211261499906,None,382.77211261499906,None,382.77211261499906,None,384.3050991149976,None,384.3050991149976,None,384.3050991149976,None,384.3050991149976,None,,,,,,,,,,,,,,,,,,,,,,,,,,,,,,,,,,,,,,,,,,,,001,52,2020_Jan_30_1553,spring_faces,3.1.5,60.03212871617338,
condition files/Stage0c_1.xlsx,0c,beta,theta,g,"['h', 'g']","['Chess', 'Go']","[-0.15, 0.5]","[0.15, 0.5]",1,1,0,16,16,16,0,0,0,2,,,,,,,,,,,,,,,,,,,,,,,,,,,,,,,,,,,,,,,,,,,,,,,,,,,,,,,,,,,,,,,386.2884589079986,None,386.2884589079986,None,386.2884589079986,None,g,1,1.0963211679991218,387.82167672799915,None,387.82167672799915,None,387.82167672799915,None,388.9720810379986,None,388.9720810379986,None,388.9720810379986,None,388.9720810379986,None,,,,,,,,,,,,,,,,,,,,,,,,,,,,,,,,,,,,,,,,,,,,001,52,2020_Jan_30_1553,spring_faces,3.1.5,60.03212871617338,
condition files/Stage0c_1.xlsx,0c,alpha,phi,h,"['h', 'g']","['Chess', 'Go']","[-0.15, 0.5]","[0.15, 0.5]",1,1,0,16,16,16,0,1,1,1,,,,,,,,,,,,,,,,,,,,,,,,,,,,,,,,,,,,,,,,,,,,,,,,,,,,,,,,,,,,,,,390.93769730499844,None,390.93769730499844,None,390.93769730499844,None,h,1,1.3419295530002273,392.47210894599993,None,392.47210894599993,None,392.47210894599993,None,393.87235745699945,None,393.87235745699945,None,393.87235745699945,None,393.87235745699945,None,,,,,,,,,,,,,,,,,,,,,,,,,,,,,,,,,,,,,,,,,,,,001,52,2020_Jan_30_1553,spring_faces,3.1.5,60.03212871617338,
condition files/Stage0c_1.xlsx,0c,theta,alpha,h,"['h', 'g']","['Chess', 'Go']","[-0.15, 0.5]","[0.15, 0.5]",1,1,0,16,16,16,0,2,2,0,,,,,,,,,,,,,,,,,,,,,,,,,,,,,,,,,,,,,,,,,,,,,,,,,,,,,,,,,,,,,,,395.838840016997,None,395.838840016997,None,395.838840016997,None,h,1,1.0176997859998664,397.3722590469988,None,397.3722590469988,None,397.3722590469988,None,398.455086654998,None,398.455086654998,None,398.455086654998,None,398.455086654998,None,,,,,,,,,,,,,,,,,,,,,,,,,,,,,,,,,,,,,,,,,,,,001,52,2020_Jan_30_1553,spring_faces,3.1.5,60.03212871617338,
condition files/Stage0c_1.xlsx,0c,phi,beta,g,"['h', 'g']","['Chess', 'Go']","[-0.15, 0.5]","[0.15, 0.5]",1,1,0,16,16,16,0,3,3,3,,,,,,,,,,,,,,,,,,,,,,,,,,,,,,,,,,,,,,,,,,,,,,,,,,,,,,,,,,,,,,,400.4219548859983,None,400.4219548859983,None,400.4219548859983,None,g,1,1.0426448559992423,401.9554100469977,None,401.9554100469977,None,401.9554100469977,None,403.0556064199991,None,403.0556064199991,None,403.0556064199991,None,403.0556064199991,None,,,,,,,,,,,,,,,,,,,,,,,,,,,,,,,,,,,,,,,,,,,,001,52,2020_Jan_30_1553,spring_faces,3.1.5,60.03212871617338,
condition files/Stage0c_2.xlsx,0c,theta,beta,g,"['h', 'g']","['Chess', 'Go']","[-0.15, 0.5]","[0.15, 0.5]",1,1,0,17,17,17,0,0,0,2,,,,,,,,,,,,,,,,,,,,,,,,,,,,,,,,,,,,,,,,,,,,,,,,,,,,,,,,,,,,,,,405.0385754789968,None,405.0385754789968,None,405.0385754789968,None,g,1,1.049805833001301,406.5721547389985,None,406.5721547389985,None,406.5721547389985,None,407.67173654699945,None,407.67173654699945,None,407.67173654699945,None,407.67173654699945,None,,,,,,,,,,,,,,,,,,,,,,,,,,,,,,,,,,,,,,,,,,,,001,52,2020_Jan_30_1553,spring_faces,3.1.5,60.03212871617338,
condition files/Stage0c_2.xlsx,0c,phi,alpha,h,"['h', 'g']","['Chess', 'Go']","[-0.15, 0.5]","[0.15, 0.5]",1,1,0,17,17,17,0,1,1,1,,,,,,,,,,,,,,,,,,,,,,,,,,,,,,,,,,,,,,,,,,,,,,,,,,,,,,,,,,,,,,,409.6552155859972,None,409.6552155859972,None,409.6552155859972,None,h,1,0.817108425002516,411.1888576539968,None,411.1888576539968,None,411.1888576539968,None,412.07247822599675,None,412.07247822599675,None,412.07247822599675,None,412.07247822599675,None,,,,,,,,,,,,,,,,,,,,,,,,,,,,,,,,,,,,,,,,,,,,001,52,2020_Jan_30_1553,spring_faces,3.1.5,60.03212871617338,
condition files/Stage0c_2.xlsx,0c,beta,phi,g,"['h', 'g']","['Chess', 'Go']","[-0.15, 0.5]","[0.15, 0.5]",1,1,0,17,17,17,0,2,2,3,,,,,,,,,,,,,,,,,,,,,,,,,,,,,,,,,,,,,,,,,,,,,,,,,,,,,,,,,,,,,,,414.039066481997,None,414.039066481997,None,414.039066481997,None,g,1,0.9459583160023612,415.57203977399695,None,415.57203977399695,None,415.57203977399695,None,416.5723728319972,None,416.5723728319972,None,416.5723728319972,None,416.5723728319972,None,,,,,,,,,,,,,,,,,,,,,,,,,,,,,,,,,,,,,,,,,,,,001,52,2020_Jan_30_1553,spring_faces,3.1.5,60.03212871617338,
condition files/Stage0c_2.xlsx,0c,alpha,theta,h,"['h', 'g']","['Chess', 'Go']","[-0.15, 0.5]","[0.15, 0.5]",1,1,0,17,17,17,0,3,3,0,,,,,,,,,,,,,,,,,,,,,,,,,,,,,,,,,,,,,,,,,,,,,,,,,,,,,,,,,,,,,,,418.5387533189969,None,418.5387533189969,None,418.5387533189969,None,h,1,0.7335014529999171,420.0724582779985,None,420.0724582779985,None,420.0724582779985,None,420.87200035099886,None,420.87200035099886,None,420.87200035099886,None,420.87200035099886,None,,,,,,,,,,,,,,,,,,,,,,,,,,,,,,,,,,,,,,,,,,,,001,52,2020_Jan_30_1553,spring_faces,3.1.5,60.03212871617338,
,,,,,,,,,,,,,,,,,,,,,,,,,,,,,,,,,,,,,,,,,,,,,,,,,,,,,,,,,,,,,,,,,,,,,,,,,,,,,,,,,,,,,,,,,,,,,,,,,,,,,,,,422.8555896580001,None,space,3.174925035000342,427.8551769810001,None,,,,,,,,,,,,,,,,,,,,,,,,,,,,,,,,,,,,,,001,52,2020_Jan_30_1553,spring_faces,3.1.5,60.03212871617338,
condition files/Stage1_1.xlsx,,B1,T2,c,"['c', 'm']","['Clue', 'Monopoly']","[-0.15, 0.5]","[0.15, 0.5]",1,1,,,,,,,,,0,0,0,0,0,0,0,1,,,,,,,,,,,,,,,,,,,,,,,,,,,,,,,,,,,,,,,,,,,,,,,,,,,,,,,431.08845194899914,None,431.08845194899914,None,431.08845194899914,None,c,1,3.5920024900005956,432.60609804499836,None,432.60609804499836,None,432.60609804499836,None,436.27205889099787,None,436.27205889099787,None,436.27205889099787,None,436.27205889099787,None,,,,,,,427.8551769810001,None,,,,,,,,,,,,,,,,,,,,,,,,,,,,,,,,,,,,001,52,2020_Jan_30_1553,spring_faces,3.1.5,60.03212871617338,
condition files/Stage1_1.xlsx,,T1,B1,c,"['c', 'm']","['Clue', 'Monopoly']","[-0.15, 0.5]","[0.15, 0.5]",1,1,,,,,,,,,0,0,0,0,0,1,1,0,,,,,,,,,,,,,,,,,,,,,,,,,,,,,,,,,,,,,,,,,,,,,,,,,,,,,,,438.22164575699935,None,438.22164575699935,None,438.22164575699935,None,c,1,2.473472468998807,439.7565921739988,None,439.7565921739988,None,439.7565921739988,None,442.2889497399992,None,442.2889497399992,None,442.2889497399992,None,442.2889497399992,None,,,,,,,,,,,,,,,,,,,,,,,,,,,,,,,,,,,,,,,,,,,,001,52,2020_Jan_30_1553,spring_faces,3.1.5,60.03212871617338,
condition files/Stage1_1.xlsx,,B3,T3,c,"['c', 'm']","['Clue', 'Monopoly']","[-0.15, 0.5]","[0.15, 0.5]",1,1,,,,,,,,,0,0,0,0,0,2,2,4,,,,,,,,,,,,,,,,,,,,,,,,,,,,,,,,,,,,,,,,,,,,,,,,,,,,,,,444.25473149499885,None,444.25473149499885,None,444.25473149499885,None,m,0,4.616611728997668,445.78936026799784,None,445.78936026799784,None,445.78936026799784,None,450.47245236699746,None,450.47245236699746,None,450.47245236699746,None,450.47245236699746,None,,,,,,,,,,,,,,,,,,,,,,,,,,,,,,,,,,,,,,,,,,,,001,52,2020_Jan_30_1553,spring_faces,3.1.5,60.03212871617338,
condition files/Stage1_1.xlsx,,T3,B4,c,"['c', 'm']","['Clue', 'Monopoly']","[-0.15, 0.5]","[0.15, 0.5]",1,1,,,,,,,,,0,0,0,0,0,3,3,5,,,,,,,,,,,,,,,,,,,,,,,,,,,,,,,,,,,,,,,,,,,,,,,,,,,,,,,452.43798616399727,None,452.43798616399727,None,452.43798616399727,None,c,1,1.3773174220004876,453.97267959300007,None,453.97267959300007,None,453.97267959300007,None,455.40524606399777,None,455.40524606399777,None,455.40524606399777,None,455.40524606399777,None,,,,,,,,,,,,,,,,,,,,,,,,,,,,,,,,,,,,,,,,,,,,001,52,2020_Jan_30_1553,spring_faces,3.1.5,60.03212871617338,
condition files/Stage1_1.xlsx,,B2,T1,m,"['c', 'm']","['Clue', 'Monopoly']","[-0.15, 0.5]","[0.15, 0.5]",1,1,,,,,,,,,0,0,0,0,0,4,4,2,,,,,,,,,,,,,,,,,,,,,,,,,,,,,,,,,,,,,,,,,,,,,,,,,,,,,,,457.37196718299674,None,457.37196718299674,None,457.37196718299674,None,c,0,1.4371975419999217,458.90480914999716,None,458.90480914999716,None,458.90480914999716,None,460.42172708,None,460.42172708,None,460.42172708,None,460.42172708,None,,,,,,,,,,,,,,,,,,,,,,,,,,,,,,,,,,,,,,,,,,,,001,52,2020_Jan_30_1553,spring_faces,3.1.5,60.03212871617338,
condition files/Stage1_1.xlsx,,T4,B3,m,"['c', 'm']","['Clue', 'Monopoly']","[-0.15, 0.5]","[0.15, 0.5]",1,1,,,,,,,,,0,0,0,0,0,5,5,6,,,,,,,,,,,,,,,,,,,,,,,,,,,,,,,,,,,,,,,,,,,,,,,,,,,,,,,462.3719212299984,None,462.3719212299984,None,462.3719212299984,None,m,1,2.6284264370005985,463.90557792399704,None,463.90557792399704,None,463.90557792399704,None,466.5886426500001,None,466.5886426500001,None,466.5886426500001,None,466.5886426500001,None,,,,,,,,,,,,,,,,,,,,,,,,,,,,,,,,,,,,,,,,,,,,001,52,2020_Jan_30_1553,spring_faces,3.1.5,60.03212871617338,
condition files/Stage1_1.xlsx,,T2,B2,m,"['c', 'm']","['Clue', 'Monopoly']","[-0.15, 0.5]","[0.15, 0.5]",1,1,,,,,,,,,0,0,0,0,0,6,6,3,,,,,,,,,,,,,,,,,,,,,,,,,,,,,,,,,,,,,,,,,,,,,,,,,,,,,,,468.55516530800014,None,468.55516530800014,None,468.55516530800014,None,c,0,1.6605255319991556,470.0894279819986,None,470.0894279819986,None,470.0894279819986,None,471.805500915998,None,471.805500915998,None,471.805500915998,None,471.805500915998,None,,,,,,,,,,,,,,,,,,,,,,,,,,,,,,,,,,,,,,,,,,,,001,52,2020_Jan_30_1553,spring_faces,3.1.5,60.03212871617338,
condition files/Stage1_1.xlsx,,B4,T4,m,"['c', 'm']","['Clue', 'Monopoly']","[-0.15, 0.5]","[0.15, 0.5]",1,1,,,,,,,,,0,0,0,0,0,7,7,7,,,,,,,,,,,,,,,,,,,,,,,,,,,,,,,,,,,,,,,,,,,,,,,,,,,,,,,473.7720383199994,None,473.7720383199994,None,473.7720383199994,None,c,0,2.909562597000331,475.3045109220002,None,475.3045109220002,None,475.3045109220002,None,478.2721920059994,None,478.2721920059994,None,478.2721920059994,None,478.2721920059994,None,,,,,,,,,,,,,,,,,,,,,,,,,,,,,,,,,,,,,,,,,,,,001,52,2020_Jan_30_1553,spring_faces,3.1.5,60.03212871617338,
condition files/Stage1_2.xlsx,,T1,B2,m,"['c', 'm']","['Clue', 'Monopoly']","[-0.15, 0.5]","[0.15, 0.5]",1,1,,,,,,,,,0,1,1,1,0,0,0,2,,,,,,,,,,,,,,,,,,,,,,,,,,,,,,,,,,,,,,,,,,,,,,,,,,,,,,,480.2550530619992,None,480.2550530619992,None,480.2550530619992,None,m,1,3.9133385669993004,481.7886701319985,None,481.7886701319985,None,481.7886701319985,None,485.7555053420001,None,485.7555053420001,None,485.7555053420001,None,485.7555053420001,None,,,,,,,,,,,,,,,,,,,,,,,,,,,,,,,,,,,,,,,,,,,,001,52,2020_Jan_30_1553,spring_faces,3.1.5,60.03212871617338,
condition files/Stage1_2.xlsx,,T4,B4,m,"['c', 'm']","['Clue', 'Monopoly']","[-0.15, 0.5]","[0.15, 0.5]",1,1,,,,,,,,,0,1,1,1,0,1,1,7,,,,,,,,,,,,,,,,,,,,,,,,,,,,,,,,,,,,,,,,,,,,,,,,,,,,,,,487.72185554599855,None,487.72185554599855,None,487.72185554599855,None,m,1,2.6058146769973973,489.2721360729993,None,489.2721360729993,None,489.2721360729993,None,491.9392203969983,None,491.9392203969983,None,491.9392203969983,None,491.9392203969983,None,,,,,,,,,,,,,,,,,,,,,,,,,,,,,,,,,,,,,,,,,,,,001,52,2020_Jan_30_1553,spring_faces,3.1.5,60.03212871617338,
condition files/Stage1_2.xlsx,,T3,B3,c,"['c', 'm']","['Clue', 'Monopoly']","[-0.15, 0.5]","[0.15, 0.5]",1,1,,,,,,,,,0,1,1,1,0,2,2,4,,,,,,,,,,,,,,,,,,,,,,,,,,,,,,,,,,,,,,,,,,,,,,,,,,,,,,,493.9050593349966,None,493.9050593349966,None,493.9050593349966,None,m,0,3.606371271998796,495.4556841349986,None,495.4556841349986,None,495.4556841349986,None,499.1228051629987,None,499.1228051629987,None,499.1228051629987,None,499.1228051629987,None,,,,,,,,,,,,,,,,,,,,,,,,,,,,,,,,,,,,,,,,,,,,001,52,2020_Jan_30_1553,spring_faces,3.1.5,60.03212871617338,
condition files/Stage1_2.xlsx,,B2,T2,m,"['c', 'm']","['Clue', 'Monopoly']","[-0.15, 0.5]","[0.15, 0.5]",1,1,,,,,,,,,0,1,1,1,0,3,3,3,,,,,,,,,,,,,,,,,,,,,,,,,,,,,,,,,,,,,,,,,,,,,,,,,,,,,,,501.0883702109968,None,501.0883702109968,None,501.0883702109968,None,m,1,2.5204418579996855,502.62156253899957,None,502.62156253899957,None,502.62156253899957,None,505.2066390889995,None,505.2066390889995,None,505.2066390889995,None,505.2066390889995,None,,,,,,,,,,,,,,,,,,,,,,,,,,,,,,,,,,,,,,,,,,,,001,52,2020_Jan_30_1553,spring_faces,3.1.5,60.03212871617338,
condition files/Stage1_2.xlsx,,T2,B1,c,"['c', 'm']","['Clue', 'Monopoly']","[-0.15, 0.5]","[0.15, 0.5]",1,1,,,,,,,,,0,1,1,1,0,4,4,1,,,,,,,,,,,,,,,,,,,,,,,,,,,,,,,,,,,,,,,,,,,,,,,,,,,,,,,507.1719672929976,None,507.1719672929976,None,507.1719672929976,None,c,1,5.331752497997513,508.72223570999995,None,508.72223570999995,None,508.72223570999995,None,514.1221771339988,None,514.1221771339988,None,514.1221771339988,None,514.1221771339988,None,,,,,,,,,,,,,,,,,,,,,,,,,,,,,,,,,,,,,,,,,,,,001,52,2020_Jan_30_1553,spring_faces,3.1.5,60.03212871617338,
condition files/Stage1_2.xlsx,,B3,T4,m,"['c', 'm']","['Clue', 'Monopoly']","[-0.15, 0.5]","[0.15, 0.5]",1,1,,,,,,,,,0,1,1,1,0,5,5,6,,,,,,,,,,,,,,,,,,,,,,,,,,,,,,,,,,,,,,,,,,,,,,,,,,,,,,,516.0715960669986,None,516.0715960669986,None,516.0715960669986,None,m,1,2.511522510998475,517.6223966749967,None,517.6223966749967,None,517.6223966749967,None,520.1908940909998,None,520.1908940909998,None,520.1908940909998,None,520.1908940909998,None,,,,,,,,,,,,,,,,,,,,,,,,,,,,,,,,,,,,,,,,,,,,001,52,2020_Jan_30_1553,spring_faces,3.1.5,60.03212871617338,
condition files/Stage1_2.xlsx,,B1,T1,c,"['c', 'm']","['Clue', 'Monopoly']","[-0.15, 0.5]","[0.15, 0.5]",1,1,,,,,,,,,0,1,1,1,0,6,6,0,,,,,,,,,,,,,,,,,,,,,,,,,,,,,,,,,,,,,,,,,,,,,,,,,,,,,,,522.1547807289971,None,522.1547807289971,None,522.1547807289971,None,m,0,6.925300699997024,523.6887633079969,None,523.6887633079969,None,523.6887633079969,None,530.6734646119985,None,530.6734646119985,None,530.6734646119985,None,530.6734646119985,None,,,,,,,,,,,,,,,,,,,,,,,,,,,,,,,,,,,,,,,,,,,,001,52,2020_Jan_30_1553,spring_faces,3.1.5,60.03212871617338,
condition files/Stage1_2.xlsx,,B4,T3,c,"['c', 'm']","['Clue', 'Monopoly']","[-0.15, 0.5]","[0.15, 0.5]",1,1,,,,,,,,,0,1,1,1,0,7,7,5,,,,,,,,,,,,,,,,,,,,,,,,,,,,,,,,,,,,,,,,,,,,,,,,,,,,,,,532.6385593019986,None,532.6385593019986,None,532.6385593019986,None,m,0,3.5929230010005995,534.1731487919969,None,534.1731487919969,None,534.1731487919969,None,537.8216491619969,None,537.8216491619969,None,537.8216491619969,None,537.8216491619969,None,,,,,,,,,,,,,,,,,,,,,,,,,,,,,,,,,,,,,,,,,,,,001,52,2020_Jan_30_1553,spring_faces,3.1.5,60.03212871617338,
condition files/Stage1_1.xlsx,,T4,B3,m,"['c', 'm']","['Clue', 'Monopoly']","[-0.15, 0.5]","[0.15, 0.5]",1,1,,,,,,,,,0,2,2,2,0,0,0,6,,,,,,,,,,,,,,,,,,,,,,,,,,,,,,,,,,,,,,,,,,,,,,,,,,,,,,,539.8055674919997,None,539.8055674919997,None,539.8055674919997,None,m,1,1.530588841997087,541.3554045669989,None,541.3554045669989,None,541.3554045669989,None,542.9399229379997,None,542.9399229379997,None,542.9399229379997,None,542.9399229379997,None,,,,,,,,,,,,,,,,,,,,,,,,,,,,,,,,,,,,,,,,,,,,001,52,2020_Jan_30_1553,spring_faces,3.1.5,60.03212871617338,
condition files/Stage1_1.xlsx,,B1,T2,c,"['c', 'm']","['Clue', 'Monopoly']","[-0.15, 0.5]","[0.15, 0.5]",1,1,,,,,,,,,0,2,2,2,0,1,1,1,,,,,,,,,,,,,,,,,,,,,,,,,,,,,,,,,,,,,,,,,,,,,,,,,,,,,,,544.9053188979997,None,544.9053188979997,None,544.9053188979997,None,c,1,2.2390449269987585,546.4389542869976,None,546.4389542869976,None,546.4389542869976,None,548.7557669919988,None,548.7557669919988,None,548.7557669919988,None,548.7557669919988,None,,,,,,,,,,,,,,,,,,,,,,,,,,,,,,,,,,,,,,,,,,,,001,52,2020_Jan_30_1553,spring_faces,3.1.5,60.03212871617338,
condition files/Stage1_1.xlsx,,B3,T3,c,"['c', 'm']","['Clue', 'Monopoly']","[-0.15, 0.5]","[0.15, 0.5]",1,1,,,,,,,,,0,2,2,2,0,2,2,4,,,,,,,,,,,,,,,,,,,,,,,,,,,,,,,,,,,,,,,,,,,,,,,,,,,,,,,550.7054975879983,None,550.7054975879983,None,550.7054975879983,None,m,0,6.023066314999596,552.2549742939991,None,552.2549742939991,None,552.2549742939991,None,558.3390793669969,None,558.3390793669969,None,558.3390793669969,None,558.3390793669969,None,,,,,,,,,,,,,,,,,,,,,,,,,,,,,,,,,,,,,,,,,,,,001,52,2020_Jan_30_1553,spring_faces,3.1.5,60.03212871617338,
condition files/Stage1_1.xlsx,,B2,T1,m,"['c', 'm']","['Clue', 'Monopoly']","[-0.15, 0.5]","[0.15, 0.5]",1,1,,,,,,,,,0,2,2,2,0,3,3,2,,,,,,,,,,,,,,,,,,,,,,,,,,,,,,,,,,,,,,,,,,,,,,,,,,,,,,,560.3051838379979,None,560.3051838379979,None,560.3051838379979,None,m,1,1.6062825810004142,561.8397844149986,None,561.8397844149986,None,561.8397844149986,None,563.5059511149993,None,563.5059511149993,None,563.5059511149993,None,563.5059511149993,None,,,,,,,,,,,,,,,,,,,,,,,,,,,,,,,,,,,,,,,,,,,,001,52,2020_Jan_30_1553,spring_faces,3.1.5,60.03212871617338,
condition files/Stage1_1.xlsx,,B4,T4,m,"['c', 'm']","['Clue', 'Monopoly']","[-0.15, 0.5]","[0.15, 0.5]",1,1,,,,,,,,,0,2,2,2,0,4,4,7,,,,,,,,,,,,,,,,,,,,,,,,,,,,,,,,,,,,,,,,,,,,,,,,,,,,,,,565.4719126869968,None,565.4719126869968,None,565.4719126869968,None,m,1,2.8383869780009263,567.0076855979969,None,567.0076855979969,None,567.0076855979969,None,569.905348455999,None,569.905348455999,None,569.905348455999,None,569.905348455999,None,,,,,,,,,,,,,,,,,,,,,,,,,,,,,,,,,,,,,,,,,,,,001,52,2020_Jan_30_1553,spring_faces,3.1.5,60.03212871617338,
condition files/Stage1_1.xlsx,,T1,B1,c,"['c', 'm']","['Clue', 'Monopoly']","[-0.15, 0.5]","[0.15, 0.5]",1,1,,,,,,,,,0,2,2,2,0,5,5,0,,,,,,,,,,,,,,,,,,,,,,,,,,,,,,,,,,,,,,,,,,,,,,,,,,,,,,,571.8719348099985,None,571.8719348099985,None,571.8719348099985,None,m,0,3.112680124999315,573.4053560269967,None,573.4053560269967,None,573.4053560269967,None,576.5730800029996,None,576.5730800029996,None,576.5730800029996,None,576.5730800029996,None,,,,,,,,,,,,,,,,,,,,,,,,,,,,,,,,,,,,,,,,,,,,001,52,2020_Jan_30_1553,spring_faces,3.1.5,60.03212871617338,
condition files/Stage1_1.xlsx,,T2,B2,m,"['c', 'm']","['Clue', 'Monopoly']","[-0.15, 0.5]","[0.15, 0.5]",1,1,,,,,,,,,0,2,2,2,0,6,6,3,,,,,,,,,,,,,,,,,,,,,,,,,,,,,,,,,,,,,,,,,,,,,,,,,,,,,,,578.5386878299978,None,578.5386878299978,None,578.5386878299978,None,m,1,3.8367840120008623,580.0732232649971,None,580.0732232649971,None,580.0732232649971,None,583.988539496997,None,583.988539496997,None,583.988539496997,None,583.988539496997,None,,,,,,,,,,,,,,,,,,,,,,,,,,,,,,,,,,,,,,,,,,,,001,52,2020_Jan_30_1553,spring_faces,3.1.5,60.03212871617338,
condition files/Stage1_1.xlsx,,T3,B4,c,"['c', 'm']","['Clue', 'Monopoly']","[-0.15, 0.5]","[0.15, 0.5]",1,1,,,,,,,,,0,2,2,2,0,7,7,5,,,,,,,,,,,,,,,,,,,,,,,,,,,,,,,,,,,,,,,,,,,,,,,,,,,,,,,585.9385041859969,None,585.9385041859969,None,585.9385041859969,None,c,1,4.533668137999484,587.4722930699972,None,587.4722930699972,None,587.4722930699972,None,592.071749196999,None,592.071749196999,None,592.071749196999,None,592.071749196999,None,,,,,,,,,,,,,,,,,,,,,,,,,,,,,,,,,,,,,,,,,,,,001,52,2020_Jan_30_1553,spring_faces,3.1.5,60.03212871617338,
condition files/Stage1_2.xlsx,,T2,B1,c,"['c', 'm']","['Clue', 'Monopoly']","[-0.15, 0.5]","[0.15, 0.5]",1,1,,,,,,,,,0,3,3,3,0,0,0,1,,,,,,,,,,,,,,,,,,,,,,,,,,,,,,,,,,,,,,,,,,,,,,,,,,,,,,,594.0549847149996,None,594.0549847149996,None,594.0549847149996,None,m,0,2.1604831919976277,595.6055352259973,None,595.6055352259973,None,595.6055352259973,None,597.8216892479977,None,597.8216892479977,None,597.8216892479977,None,597.8216892479977,None,,,,,,,,,,,,,,,,,,,,,,,,,,,,,,,,,,,,,,,,,,,,001,52,2020_Jan_30_1553,spring_faces,3.1.5,60.03212871617338,
condition files/Stage1_2.xlsx,,B2,T2,m,"['c', 'm']","['Clue', 'Monopoly']","[-0.15, 0.5]","[0.15, 0.5]",1,1,,,,,,,,,0,3,3,3,0,1,1,3,,,,,,,,,,,,,,,,,,,,,,,,,,,,,,,,,,,,,,,,,,,,,,,,,,,,,,,599.7884402290001,None,599.7884402290001,None,599.7884402290001,None,m,1,2.426049290002993,601.3239148149987,None,601.3239148149987,None,601.3239148149987,None,603.8056509139969,None,603.8056509139969,None,603.8056509139969,None,603.8056509139969,None,,,,,,,,,,,,,,,,,,,,,,,,,,,,,,,,,,,,,,,,,,,,001,52,2020_Jan_30_1553,spring_faces,3.1.5,60.03212871617338,
condition files/Stage1_2.xlsx,,B3,T4,m,"['c', 'm']","['Clue', 'Monopoly']","[-0.15, 0.5]","[0.15, 0.5]",1,1,,,,,,,,,0,3,3,3,0,2,2,6,,,,,,,,,,,,,,,,,,,,,,,,,,,,,,,,,,,,,,,,,,,,,,,,,,,,,,,605.7714518829998,None,605.7714518829998,None,605.7714518829998,None,m,1,2.3488793239994266,607.3051341419996,None,607.3051341419996,None,607.3051341419996,None,609.7054875009999,None,609.7054875009999,None,609.7054875009999,None,609.7054875009999,None,,,,,,,,,,,,,,,,,,,,,,,,,,,,,,,,,,,,,,,,,,,,001,52,2020_Jan_30_1553,spring_faces,3.1.5,60.03212871617338,
condition files/Stage1_2.xlsx,,T3,B3,c,"['c', 'm']","['Clue', 'Monopoly']","[-0.15, 0.5]","[0.15, 0.5]",1,1,,,,,,,,,0,3,3,3,0,3,3,4,,,,,,,,,,,,,,,,,,,,,,,,,,,,,,,,,,,,,,,,,,,,,,,,,,,,,,,611.6721003759994,None,611.6721003759994,None,611.6721003759994,None,m,0,7.1662746490001155,613.2076985289968,None,613.2076985289968,None,613.2076985289968,None,620.4407712089996,None,620.4407712089996,None,620.4407712089996,None,620.4407712089996,None,,,,,,,,,,,,,,,,,,,,,,,,,,,,,,,,,,,,,,,,,,,,001,52,2020_Jan_30_1553,spring_faces,3.1.5,60.03212871617338,
condition files/Stage1_2.xlsx,,T4,B4,m,"['c', 'm']","['Clue', 'Monopoly']","[-0.15, 0.5]","[0.15, 0.5]",1,1,,,,,,,,,0,3,3,3,0,4,4,7,,,,,,,,,,,,,,,,,,,,,,,,,,,,,,,,,,,,,,,,,,,,,,,,,,,,,,,622.4047698249997,None,622.4047698249997,None,622.4047698249997,None,m,1,3.123676092000096,623.938402470998,None,623.938402470998,None,623.938402470998,None,627.1391059849993,None,627.1391059849993,None,627.1391059849993,None,627.1391059849993,None,,,,,,,,,,,,,,,,,,,,,,,,,,,,,,,,,,,,,,,,,,,,001,52,2020_Jan_30_1553,spring_faces,3.1.5,60.03212871617338,
condition files/Stage1_2.xlsx,,B4,T3,c,"['c', 'm']","['Clue', 'Monopoly']","[-0.15, 0.5]","[0.15, 0.5]",1,1,,,,,,,,,0,3,3,3,0,5,5,5,,,,,,,,,,,,,,,,,,,,,,,,,,,,,,,,,,,,,,,,,,,,,,,,,,,,,,,629.0881235789966,None,629.0881235789966,None,629.0881235789966,None,c,1,4.070492168997589,630.6235278319982,None,630.6235278319982,None,630.6235278319982,None,634.7558434099992,None,634.7558434099992,None,634.7558434099992,None,634.7558434099992,None,,,,,,,,,,,,,,,,,,,,,,,,,,,,,,,,,,,,,,,,,,,,001,52,2020_Jan_30_1553,spring_faces,3.1.5,60.03212871617338,
condition files/Stage1_2.xlsx,,B1,T1,c,"['c', 'm']","['Clue', 'Monopoly']","[-0.15, 0.5]","[0.15, 0.5]",1,1,,,,,,,,,0,3,3,3,0,6,6,0,,,,,,,,,,,,,,,,,,,,,,,,,,,,,,,,,,,,,,,,,,,,,,,,,,,,,,,636.7218918849976,None,636.7218918849976,None,636.7218918849976,None,c,1,5.781537345999823,638.272451118999,None,638.272451118999,None,638.272451118999,None,644.1057910839991,None,644.1057910839991,None,644.1057910839991,None,644.1057910839991,None,,,,,,,,,,,,,,,,,,,,,,,,,,,,,,,,,,,,,,,,,,,,001,52,2020_Jan_30_1553,spring_faces,3.1.5,60.03212871617338,
condition files/Stage1_2.xlsx,,T1,B2,m,"['c', 'm']","['Clue', 'Monopoly']","[-0.15, 0.5]","[0.15, 0.5]",1,1,,,,,,,,,0,3,3,3,0,7,7,2,,,,,,,,,,,,,,,,,,,,,,,,,,,,,,,,,,,,,,,,,,,,,,,,,,,,,,,646.0720546439989,None,646.0720546439989,None,646.0720546439989,None,m,1,1.777040823999414,647.6050234049981,None,647.6050234049981,None,647.6050234049981,None,649.4382255839992,None,649.4382255839992,None,649.4382255839992,None,649.4382255839992,None,,,,,,,,,,,,,,,,,,,,,,,,,,,,,,,,,,,,,,,,,,,,001,52,2020_Jan_30_1553,spring_faces,3.1.5,60.03212871617338,
condition files/Stage1_1.xlsx,,B4,T4,m,"['c', 'm']","['Clue', 'Monopoly']","[-0.15, 0.5]","[0.15, 0.5]",1,1,,,,,,,,,0,4,4,4,0,0,0,7,,,,,,,,,,,,,,,,,,,,,,,,,,,,,,,,,,,,,,,,,,,,,,,,,,,,,,,651.4215907529979,None,651.4215907529979,None,651.4215907529979,None,m,1,4.376218640998559,652.9577347779996,None,652.9577347779996,None,652.9577347779996,None,657.3885159579986,None,657.3885159579986,None,657.3885159579986,None,657.3885159579986,None,,,,,,,,,,,,,,,,,,,,,,,,,,,,,,,,,,,,,,,,,,,,001,52,2020_Jan_30_1553,spring_faces,3.1.5,60.03212871617338,
condition files/Stage1_1.xlsx,,B2,T1,m,"['c', 'm']","['Clue', 'Monopoly']","[-0.15, 0.5]","[0.15, 0.5]",1,1,,,,,,,,,0,4,4,4,0,1,1,2,,,,,,,,,,,,,,,,,,,,,,,,,,,,,,,,,,,,,,,,,,,,,,,,,,,,,,,659.3552108909971,None,659.3552108909971,None,659.3552108909971,None,m,1,1.6136771320016123,660.888480753998,None,660.888480753998,None,660.888480753998,None,662.5549751089966,None,662.5549751089966,None,662.5549751089966,None,662.5549751089966,None,,,,,,,,,,,,,,,,,,,,,,,,,,,,,,,,,,,,,,,,,,,,001,52,2020_Jan_30_1553,spring_faces,3.1.5,60.03212871617338,
condition files/Stage1_1.xlsx,,B3,T3,c,"['c', 'm']","['Clue', 'Monopoly']","[-0.15, 0.5]","[0.15, 0.5]",1,1,,,,,,,,,0,4,4,4,0,2,2,4,,,,,,,,,,,,,,,,,,,,,,,,,,,,,,,,,,,,,,,,,,,,,,,,,,,,,,,664.5219924589983,None,664.5219924589983,None,664.5219924589983,None,c,1,3.3259565879998263,666.056119572997,None,666.056119572997,None,666.056119572997,None,669.4394507109973,None,669.4394507109973,None,669.4394507109973,None,669.4394507109973,None,,,,,,,,,,,,,,,,,,,,,,,,,,,,,,,,,,,,,,,,,,,,001,52,2020_Jan_30_1553,spring_faces,3.1.5,60.03212871617338,
condition files/Stage1_1.xlsx,,T3,B4,c,"['c', 'm']","['Clue', 'Monopoly']","[-0.15, 0.5]","[0.15, 0.5]",1,1,,,,,,,,,0,4,4,4,0,3,3,5,,,,,,,,,,,,,,,,,,,,,,,,,,,,,,,,,,,,,,,,,,,,,,,,,,,,,,,671.4050372049969,None,671.4050372049969,None,671.4050372049969,None,c,1,1.0836357809967012,672.9383210790002,None,672.9383210790002,None,672.9383210790002,None,674.0723006640001,None,674.0723006640001,None,674.0723006640001,None,674.0723006640001,None,,,,,,,,,,,,,,,,,,,,,,,,,,,,,,,,,,,,,,,,,,,,001,52,2020_Jan_30_1553,spring_faces,3.1.5,60.03212871617338,
condition files/Stage1_1.xlsx,,T4,B3,m,"['c', 'm']","['Clue', 'Monopoly']","[-0.15, 0.5]","[0.15, 0.5]",1,1,,,,,,,,,0,4,4,4,0,4,4,6,,,,,,,,,,,,,,,,,,,,,,,,,,,,,,,,,,,,,,,,,,,,,,,,,,,,,,,676.0387214339971,None,676.0387214339971,None,676.0387214339971,None,m,1,1.8743715239979792,677.5717042969991,None,677.5717042969991,None,677.5717042969991,None,679.5060686699981,None,679.5060686699981,None,679.5060686699981,None,679.5060686699981,None,,,,,,,,,,,,,,,,,,,,,,,,,,,,,,,,,,,,,,,,,,,,001,52,2020_Jan_30_1553,spring_faces,3.1.5,60.03212871617338,
condition files/Stage1_1.xlsx,,T2,B2,m,"['c', 'm']","['Clue', 'Monopoly']","[-0.15, 0.5]","[0.15, 0.5]",1,1,,,,,,,,,0,4,4,4,0,5,5,3,,,,,,,,,,,,,,,,,,,,,,,,,,,,,,,,,,,,,,,,,,,,,,,,,,,,,,,681.4718194319976,None,681.4718194319976,None,681.4718194319976,None,m,1,6.344226655000966,683.0057587779993,None,683.0057587779993,None,683.0057587779993,None,689.4054917759968,None,689.4054917759968,None,689.4054917759968,None,689.4054917759968,None,,,,,,,,,,,,,,,,,,,,,,,,,,,,,,,,,,,,,,,,,,,,001,52,2020_Jan_30_1553,spring_faces,3.1.5,60.03212871617338,
condition files/Stage1_1.xlsx,,B1,T2,c,"['c', 'm']","['Clue', 'Monopoly']","[-0.15, 0.5]","[0.15, 0.5]",1,1,,,,,,,,,0,4,4,4,0,6,6,1,,,,,,,,,,,,,,,,,,,,,,,,,,,,,,,,,,,,,,,,,,,,,,,,,,,,,,,691.3718396589975,None,691.3718396589975,None,691.3718396589975,None,c,1,1.4369602730002953,692.90506293,None,692.90506293,None,692.90506293,None,694.4220939419974,None,694.4220939419974,None,694.4220939419974,None,694.4220939419974,None,,,,,,,,,,,,,,,,,,,,,,,,,,,,,,,,,,,,,,,,,,,,001,52,2020_Jan_30_1553,spring_faces,3.1.5,60.03212871617338,
condition files/Stage1_1.xlsx,,T1,B1,c,"['c', 'm']","['Clue', 'Monopoly']","[-0.15, 0.5]","[0.15, 0.5]",1,1,,,,,,,,,0,4,4,4,0,7,7,0,,,,,,,,,,,,,,,,,,,,,,,,,,,,,,,,,,,,,,,,,,,,,,,,,,,,,,,696.3718650249975,None,696.3718650249975,None,696.3718650249975,None,c,1,2.9969511030030844,697.9051981459997,None,697.9051981459997,None,697.9051981459997,None,700.9550611699997,None,700.9550611699997,None,700.9550611699997,None,700.9550611699997,None,,,,,,,,,,,,,,,,,,,,,,,,,,,,,,,,,,,,,,,,,,,,001,52,2020_Jan_30_1553,spring_faces,3.1.5,60.03212871617338,
condition files/Stage1_2.xlsx,,T2,B1,c,"['c', 'm']","['Clue', 'Monopoly']","[-0.15, 0.5]","[0.15, 0.5]",1,1,,,,,,,,,0,5,5,5,0,0,0,1,,,,,,,,,,,,,,,,,,,,,,,,,,,,,,,,,,,,,,,,,,,,,,,,,,,,,,,702.9387420519997,None,702.9387420519997,None,702.9387420519997,None,c,1,2.4619417030007753,704.4720284079995,None,704.4720284079995,None,704.4720284079995,None,706.9892028939976,None,706.9892028939976,None,706.9892028939976,None,706.9892028939976,None,,,,,,,,,,,,,,,,,,,,,,,,,,,,,,,,,,,,,,,,,,,,001,52,2020_Jan_30_1553,spring_faces,3.1.5,60.03212871617338,
condition files/Stage1_2.xlsx,,B1,T1,c,"['c', 'm']","['Clue', 'Monopoly']","[-0.15, 0.5]","[0.15, 0.5]",1,1,,,,,,,,,0,5,5,5,0,1,1,0,,,,,,,,,,,,,,,,,,,,,,,,,,,,,,,,,,,,,,,,,,,,,,,,,,,,,,,708.9544067359966,None,708.9544067359966,None,708.9544067359966,None,c,1,3.244182971000555,710.4898017959968,None,710.4898017959968,None,710.4898017959968,None,713.7882615639974,None,713.7882615639974,None,713.7882615639974,None,713.7882615639974,None,,,,,,,,,,,,,,,,,,,,,,,,,,,,,,,,,,,,,,,,,,,,001,52,2020_Jan_30_1553,spring_faces,3.1.5,60.03212871617338,
condition files/Stage1_2.xlsx,,B4,T3,c,"['c', 'm']","['Clue', 'Monopoly']","[-0.15, 0.5]","[0.15, 0.5]",1,1,,,,,,,,,0,5,5,5,0,2,2,5,,,,,,,,,,,,,,,,,,,,,,,,,,,,,,,,,,,,,,,,,,,,,,,,,,,,,,,715.7552439339997,None,715.7552439339997,None,715.7552439339997,None,c,1,1.724613930000487,717.3054430289994,None,717.3054430289994,None,717.3054430289994,None,719.0884118989998,None,719.0884118989998,None,719.0884118989998,None,719.0884118989998,None,,,,,,,,,,,,,,,,,,,,,,,,,,,,,,,,,,,,,,,,,,,,001,52,2020_Jan_30_1553,spring_faces,3.1.5,60.03212871617338,
condition files/Stage1_2.xlsx,,T1,B2,m,"['c', 'm']","['Clue', 'Monopoly']","[-0.15, 0.5]","[0.15, 0.5]",1,1,,,,,,,,,0,5,5,5,0,3,3,2,,,,,,,,,,,,,,,,,,,,,,,,,,,,,,,,,,,,,,,,,,,,,,,,,,,,,,,721.0546294589985,None,721.0546294589985,None,721.0546294589985,None,m,1,6.343820304999099,722.590203931999,None,722.590203931999,None,722.590203931999,None,728.9901958429982,None,728.9901958429982,None,728.9901958429982,None,728.9901958429982,None,,,,,,,,,,,,,,,,,,,,,,,,,,,,,,,,,,,,,,,,,,,,001,52,2020_Jan_30_1553,spring_faces,3.1.5,60.03212871617338,
condition files/Stage1_2.xlsx,,B3,T4,m,"['c', 'm']","['Clue', 'Monopoly']","[-0.15, 0.5]","[0.15, 0.5]",1,1,,,,,,,,,0,5,5,5,0,4,4,6,,,,,,,,,,,,,,,,,,,,,,,,,,,,,,,,,,,,,,,,,,,,,,,,,,,,,,,730.9552236099989,None,730.9552236099989,None,730.9552236099989,None,m,1,3.4047364610014483,732.4892757950001,None,732.4892757950001,None,732.4892757950001,None,735.9551985599974,None,735.9551985599974,None,735.9551985599974,None,735.9551985599974,None,,,,,,,,,,,,,,,,,,,,,,,,,,,,,,,,,,,,,,,,,,,,001,52,2020_Jan_30_1553,spring_faces,3.1.5,60.03212871617338,
condition files/Stage1_2.xlsx,,T4,B4,m,"['c', 'm']","['Clue', 'Monopoly']","[-0.15, 0.5]","[0.15, 0.5]",1,1,,,,,,,,,0,5,5,5,0,5,5,7,,,,,,,,,,,,,,,,,,,,,,,,,,,,,,,,,,,,,,,,,,,,,,,,,,,,,,,737.9219914589994,None,737.9219914589994,None,737.9219914589994,None,m,1,1.7967302590004692,739.4572713939997,None,739.4572713939997,None,739.4572713939997,None,741.3054422759997,None,741.3054422759997,None,741.3054422759997,None,741.3054422759997,None,,,,,,,,,,,,,,,,,,,,,,,,,,,,,,,,,,,,,,,,,,,,001,52,2020_Jan_30_1553,spring_faces,3.1.5,60.03212871617338,
condition files/Stage1_2.xlsx,,B2,T2,m,"['c', 'm']","['Clue', 'Monopoly']","[-0.15, 0.5]","[0.15, 0.5]",1,1,,,,,,,,,0,5,5,5,0,6,6,3,,,,,,,,,,,,,,,,,,,,,,,,,,,,,,,,,,,,,,,,,,,,,,,,,,,,,,,743.2719731809993,None,743.2719731809993,None,743.2719731809993,None,m,1,6.27106942699902,744.8069452049967,None,744.8069452049967,None,744.8069452049967,None,751.1383460500001,None,751.1383460500001,None,751.1383460500001,None,751.1383460500001,None,,,,,,,,,,,,,,,,,,,,,,,,,,,,,,,,,,,,,,,,,,,,001,52,2020_Jan_30_1553,spring_faces,3.1.5,60.03212871617338,
condition files/Stage1_2.xlsx,,T3,B3,c,"['c', 'm']","['Clue', 'Monopoly']","[-0.15, 0.5]","[0.15, 0.5]",1,1,,,,,,,,,0,5,5,5,0,7,7,4,,,,,,,,,,,,,,,,,,,,,,,,,,,,,,,,,,,,,,,,,,,,,,,,,,,,,,,753.1052823859973,None,753.1052823859973,None,753.1052823859973,None,c,1,1.2861751620002906,754.6398442529971,None,754.6398442529971,None,754.6398442529971,None,755.9884676849979,None,755.9884676849979,None,755.9884676849979,None,755.9884676849979,None,,,,,,,,,,,,,,,,,,,,,,,,,,,,,,,,,,,,,,,,,,,,001,52,2020_Jan_30_1553,spring_faces,3.1.5,60.03212871617338,
condition files/Stage1_1.xlsx,,B3,T3,c,"['c', 'm']","['Clue', 'Monopoly']","[-0.15, 0.5]","[0.15, 0.5]",1,1,,,,,,,,,0,6,6,6,0,0,0,4,,,,,,,,,,,,,,,,,,,,,,,,,,,,,,,,,,,,,,,,,,,,,,,,,,,,,,,757.9715223449966,None,757.9715223449966,None,757.9715223449966,None,c,1,1.0284456989975297,759.5055097999975,None,759.5055097999975,None,759.5055097999975,None,760.5887969929972,None,760.5887969929972,None,760.5887969929972,None,760.5887969929972,None,,,,,,,,,,,,,,,,,,,,,,,,,,,,,,,,,,,,,,,,,,,,001,52,2020_Jan_30_1553,spring_faces,3.1.5,60.03212871617338,
condition files/Stage1_1.xlsx,,T4,B3,m,"['c', 'm']","['Clue', 'Monopoly']","[-0.15, 0.5]","[0.15, 0.5]",1,1,,,,,,,,,0,6,6,6,0,1,1,6,,,,,,,,,,,,,,,,,,,,,,,,,,,,,,,,,,,,,,,,,,,,,,,,,,,,,,,762.5551931809969,None,762.5551931809969,None,762.5551931809969,None,m,1,1.2935500769999635,764.0885350659992,None,764.0885350659992,None,764.0885350659992,None,765.4383067349991,None,765.4383067349991,None,765.4383067349991,None,765.4383067349991,None,,,,,,,,,,,,,,,,,,,,,,,,,,,,,,,,,,,,,,,,,,,,001,52,2020_Jan_30_1553,spring_faces,3.1.5,60.03212871617338,
condition files/Stage1_1.xlsx,,B2,T1,m,"['c', 'm']","['Clue', 'Monopoly']","[-0.15, 0.5]","[0.15, 0.5]",1,1,,,,,,,,,0,6,6,6,0,2,2,2,,,,,,,,,,,,,,,,,,,,,,,,,,,,,,,,,,,,,,,,,,,,,,,,,,,,,,,767.405214983999,None,767.405214983999,None,767.405214983999,None,m,1,2.4910018570008106,768.939060916,None,768.939060916,None,768.939060916,None,771.4889215689982,None,771.4889215689982,None,771.4889215689982,None,771.4889215689982,None,,,,,,,,,,,,,,,,,,,,,,,,,,,,,,,,,,,,,,,,,,,,001,52,2020_Jan_30_1553,spring_faces,3.1.5,60.03212871617338,
condition files/Stage1_1.xlsx,,T1,B1,c,"['c', 'm']","['Clue', 'Monopoly']","[-0.15, 0.5]","[0.15, 0.5]",1,1,,,,,,,,,0,6,6,6,0,3,3,0,,,,,,,,,,,,,,,,,,,,,,,,,,,,,,,,,,,,,,,,,,,,,,,,,,,,,,,773.4553608249989,None,773.4553608249989,None,773.4553608249989,None,c,1,3.2567346729993005,774.9893447269969,None,774.9893447269969,None,774.9893447269969,None,778.3075970599966,None,778.3075970599966,None,778.3075970599966,None,778.3075970599966,None,,,,,,,,,,,,,,,,,,,,,,,,,,,,,,,,,,,,,,,,,,,,001,52,2020_Jan_30_1553,spring_faces,3.1.5,60.03212871617338,
condition files/Stage1_1.xlsx,,T3,B4,c,"['c', 'm']","['Clue', 'Monopoly']","[-0.15, 0.5]","[0.15, 0.5]",1,1,,,,,,,,,0,6,6,6,0,4,4,5,,,,,,,,,,,,,,,,,,,,,,,,,,,,,,,,,,,,,,,,,,,,,,,,,,,,,,,780.2720192199995,None,780.2720192199995,None,780.2720192199995,None,c,1,1.6395227700013493,781.8065569469982,None,781.8065569469982,None,781.8065569469982,None,783.5049081819998,None,783.5049081819998,None,783.5049081819998,None,783.5049081819998,None,,,,,,,,,,,,,,,,,,,,,,,,,,,,,,,,,,,,,,,,,,,,001,52,2020_Jan_30_1553,spring_faces,3.1.5,60.03212871617338,
condition files/Stage1_1.xlsx,,B1,T2,c,"['c', 'm']","['Clue', 'Monopoly']","[-0.15, 0.5]","[0.15, 0.5]",1,1,,,,,,,,,0,6,6,6,0,5,5,1,,,,,,,,,,,,,,,,,,,,,,,,,,,,,,,,,,,,,,,,,,,,,,,,,,,,,,,785.4713498759993,None,785.4713498759993,None,785.4713498759993,None,c,1,3.9610080079983163,787.0050852529967,None,787.0050852529967,None,787.0050852529967,None,791.021402082999,None,791.021402082999,None,791.021402082999,None,791.021402082999,None,,,,,,,,,,,,,,,,,,,,,,,,,,,,,,,,,,,,,,,,,,,,001,52,2020_Jan_30_1553,spring_faces,3.1.5,60.03212871617338,
condition files/Stage1_1.xlsx,,T2,B2,m,"['c', 'm']","['Clue', 'Monopoly']","[-0.15, 0.5]","[0.15, 0.5]",1,1,,,,,,,,,0,6,6,6,0,6,6,3,,,,,,,,,,,,,,,,,,,,,,,,,,,,,,,,,,,,,,,,,,,,,,,,,,,,,,,792.9886649299988,None,792.9886649299988,None,792.9886649299988,None,m,1,1.6443619880010374,794.5217251670001,None,794.5217251670001,None,794.5217251670001,None,796.2231473009997,None,796.2231473009997,None,796.2231473009997,None,796.2231473009997,None,,,,,,,,,,,,,,,,,,,,,,,,,,,,,,,,,,,,,,,,,,,,001,52,2020_Jan_30_1553,spring_faces,3.1.5,60.03212871617338,
condition files/Stage1_1.xlsx,,B4,T4,m,"['c', 'm']","['Clue', 'Monopoly']","[-0.15, 0.5]","[0.15, 0.5]",1,1,,,,,,,,,0,6,6,6,0,7,7,7,,,,,,,,,,,,,,,,,,,,,,,,,,,,,,,,,,,,,,,,,,,,,,,,,,,,,,,798.1879038929983,None,798.1879038929983,None,798.1879038929983,None,m,1,4.267761671002518,799.722214292,None,799.722214292,None,799.722214292,None,804.0557956849989,None,804.0557956849989,None,804.0557956849989,None,804.0557956849989,None,,,,,,,,,,,,,,,,,,,,,,,,,,,,,,,,,,,,,,,,,,,,001,52,2020_Jan_30_1553,spring_faces,3.1.5,60.03212871617338,
condition files/Stage1_2.xlsx,,B2,T2,m,"['c', 'm']","['Clue', 'Monopoly']","[-0.15, 0.5]","[0.15, 0.5]",1,1,,,,,,,,,0,7,7,7,0,0,0,3,,,,,,,,,,,,,,,,,,,,,,,,,,,,,,,,,,,,,,,,,,,,,,,,,,,,,,,806.0388396309972,None,806.0388396309972,None,806.0388396309972,None,m,1,2.6082670459982182,807.5738217369981,None,807.5738217369981,None,807.5738217369981,None,810.2388596269993,None,810.2388596269993,None,810.2388596269993,None,810.2388596269993,None,,,,,,,,,,,,,,,,,,,,,,,,,,,,,,,,,,,,,,,,,,,,001,52,2020_Jan_30_1553,spring_faces,3.1.5,60.03212871617338,
condition files/Stage1_2.xlsx,,B3,T4,m,"['c', 'm']","['Clue', 'Monopoly']","[-0.15, 0.5]","[0.15, 0.5]",1,1,,,,,,,,,0,7,7,7,0,1,1,6,,,,,,,,,,,,,,,,,,,,,,,,,,,,,,,,,,,,,,,,,,,,,,,,,,,,,,,812.2044954519988,None,812.2044954519988,None,812.2044954519988,None,m,1,1.226822438002273,813.7392108169988,None,813.7392108169988,None,813.7392108169988,None,815.022538328998,None,815.022538328998,None,815.022538328998,None,815.022538328998,None,,,,,,,,,,,,,,,,,,,,,,,,,,,,,,,,,,,,,,,,,,,,001,52,2020_Jan_30_1553,spring_faces,3.1.5,60.03212871617338,
condition files/Stage1_2.xlsx,,T4,B4,m,"['c', 'm']","['Clue', 'Monopoly']","[-0.15, 0.5]","[0.15, 0.5]",1,1,,,,,,,,,0,7,7,7,0,2,2,7,,,,,,,,,,,,,,,,,,,,,,,,,,,,,,,,,,,,,,,,,,,,,,,,,,,,,,,816.9880147789991,None,816.9880147789991,None,816.9880147789991,None,m,1,1.3707720300008077,818.5392238819986,None,818.5392238819986,None,818.5392238819986,None,819.9721555839969,None,819.9721555839969,None,819.9721555839969,None,819.9721555839969,None,,,,,,,,,,,,,,,,,,,,,,,,,,,,,,,,,,,,,,,,,,,,001,52,2020_Jan_30_1553,spring_faces,3.1.5,60.03212871617338,
condition files/Stage1_2.xlsx,,T1,B2,m,"['c', 'm']","['Clue', 'Monopoly']","[-0.15, 0.5]","[0.15, 0.5]",1,1,,,,,,,,,0,7,7,7,0,3,3,2,,,,,,,,,,,,,,,,,,,,,,,,,,,,,,,,,,,,,,,,,,,,,,,,,,,,,,,821.9386114599984,None,821.9386114599984,None,821.9386114599984,None,m,1,2.181947171000502,823.4720647779977,None,823.4720647779977,None,823.4720647779977,None,825.7049660119992,None,825.7049660119992,None,825.7049660119992,None,825.7049660119992,None,,,,,,,,,,,,,,,,,,,,,,,,,,,,,,,,,,,,,,,,,,,,001,52,2020_Jan_30_1553,spring_faces,3.1.5,60.03212871617338,
condition files/Stage1_2.xlsx,,B4,T3,c,"['c', 'm']","['Clue', 'Monopoly']","[-0.15, 0.5]","[0.15, 0.5]",1,1,,,,,,,,,0,7,7,7,0,4,4,5,,,,,,,,,,,,,,,,,,,,,,,,,,,,,,,,,,,,,,,,,,,,,,,,,,,,,,,827.6718522819974,None,827.6718522819974,None,827.6718522819974,None,c,1,1.9834727669986023,829.2224670939977,None,829.2224670939977,None,829.2224670939977,None,831.2888293609976,None,831.2888293609976,None,831.2888293609976,None,831.2888293609976,None,,,,,,,,,,,,,,,,,,,,,,,,,,,,,,,,,,,,,,,,,,,,001,52,2020_Jan_30_1553,spring_faces,3.1.5,60.03212871617338,
condition files/Stage1_2.xlsx,,B1,T1,c,"['c', 'm']","['Clue', 'Monopoly']","[-0.15, 0.5]","[0.15, 0.5]",1,1,,,,,,,,,0,7,7,7,0,5,5,0,,,,,,,,,,,,,,,,,,,,,,,,,,,,,,,,,,,,,,,,,,,,,,,,,,,,,,,833.2382427589982,None,833.2382427589982,None,833.2382427589982,None,c,1,1.633068874001765,834.788884005,None,834.788884005,None,834.788884005,None,836.4725812649995,None,836.4725812649995,None,836.4725812649995,None,836.4725812649995,None,,,,,,,,,,,,,,,,,,,,,,,,,,,,,,,,,,,,,,,,,,,,001,52,2020_Jan_30_1553,spring_faces,3.1.5,60.03212871617338,
condition files/Stage1_2.xlsx,,T3,B3,c,"['c', 'm']","['Clue', 'Monopoly']","[-0.15, 0.5]","[0.15, 0.5]",1,1,,,,,,,,,0,7,7,7,0,6,6,4,,,,,,,,,,,,,,,,,,,,,,,,,,,,,,,,,,,,,,,,,,,,,,,,,,,,,,,838.4386696900001,None,838.4386696900001,None,838.4386696900001,None,c,1,2.962725801997294,839.9712869349969,None,839.9712869349969,None,839.9712869349969,None,842.9881843619987,None,842.9881843619987,None,842.9881843619987,None,842.9881843619987,None,,,,,,,,,,,,,,,,,,,,,,,,,,,,,,,,,,,,,,,,,,,,001,52,2020_Jan_30_1553,spring_faces,3.1.5,60.03212871617338,
condition files/Stage1_2.xlsx,,T2,B1,c,"['c', 'm']","['Clue', 'Monopoly']","[-0.15, 0.5]","[0.15, 0.5]",1,1,,,,,,,,,0,7,7,7,0,7,7,1,,,,,,,,,,,,,,,,,,,,,,,,,,,,,,,,,,,,,,,,,,,,,,,,,,,,,,,844.9552058559966,None,844.9552058559966,None,844.9552058559966,None,c,1,2.733618304999254,846.4883561009992,None,846.4883561009992,None,846.4883561009992,None,849.2722417629993,None,849.2722417629993,None,849.2722417629993,None,849.2722417629993,None,,,,,,,,,,,,,,,,,,,,,,,,,,,,,,,,,,,,,,,,,,,,001,52,2020_Jan_30_1553,spring_faces,3.1.5,60.03212871617338,
condition files/Stage1_1.xlsx,,T4,B3,m,"['c', 'm']","['Clue', 'Monopoly']","[-0.15, 0.5]","[0.15, 0.5]",1,1,,,,,,,,,0,8,8,8,0,0,0,6,,,,,,,,,,,,,,,,,,,,,,,,,,,,,,,,,,,,,,,,,,,,,,,,,,,,,,,851.2553203419993,None,851.2553203419993,None,851.2553203419993,None,m,1,1.1364810230006697,852.8055241179973,None,852.8055241179973,None,852.8055241179973,None,854.0062410739993,None,854.0062410739993,None,854.0062410739993,None,854.0062410739993,None,,,,,,,,,,,,,,,,,,,,,,,,,,,,,,,,,,,,,,,,,,,,001,52,2020_Jan_30_1553,spring_faces,3.1.5,60.03212871617338,
condition files/Stage1_1.xlsx,,B1,T2,c,"['c', 'm']","['Clue', 'Monopoly']","[-0.15, 0.5]","[0.15, 0.5]",1,1,,,,,,,,,0,8,8,8,0,1,1,1,,,,,,,,,,,,,,,,,,,,,,,,,,,,,,,,,,,,,,,,,,,,,,,,,,,,,,,855.9718932899996,None,855.9718932899996,None,855.9718932899996,None,c,1,1.4288799499991,857.5051548119991,None,857.5051548119991,None,857.5051548119991,None,859.0055979429999,None,859.0055979429999,None,859.0055979429999,None,859.0055979429999,None,,,,,,,,,,,,,,,,,,,,,,,,,,,,,,,,,,,,,,,,,,,,001,52,2020_Jan_30_1553,spring_faces,3.1.5,60.03212871617338,
condition files/Stage1_1.xlsx,,T2,B2,m,"['c', 'm']","['Clue', 'Monopoly']","[-0.15, 0.5]","[0.15, 0.5]",1,1,,,,,,,,,0,8,8,8,0,2,2,3,,,,,,,,,,,,,,,,,,,,,,,,,,,,,,,,,,,,,,,,,,,,,,,,,,,,,,,860.9552580799973,None,860.9552580799973,None,860.9552580799973,None,m,1,1.2136425739990955,862.4885679979998,None,862.4885679979998,None,862.4885679979998,None,863.757478612999,None,863.757478612999,None,863.757478612999,None,863.757478612999,None,,,,,,,,,,,,,,,,,,,,,,,,,,,,,,,,,,,,,,,,,,,,001,52,2020_Jan_30_1553,spring_faces,3.1.5,60.03212871617338,
condition files/Stage1_1.xlsx,,T1,B1,c,"['c', 'm']","['Clue', 'Monopoly']","[-0.15, 0.5]","[0.15, 0.5]",1,1,,,,,,,,,0,8,8,8,0,3,3,0,,,,,,,,,,,,,,,,,,,,,,,,,,,,,,,,,,,,,,,,,,,,,,,,,,,,,,,865.7213478679987,None,865.7213478679987,None,865.7213478679987,None,c,1,1.3573329099999683,867.256739141998,None,867.256739141998,None,867.256739141998,None,868.6743998399979,None,868.6743998399979,None,868.6743998399979,None,868.6743998399979,None,,,,,,,,,,,,,,,,,,,,,,,,,,,,,,,,,,,,,,,,,,,,001,52,2020_Jan_30_1553,spring_faces,3.1.5,60.03212871617338,
condition files/Stage1_1.xlsx,,B2,T1,m,"['c', 'm']","['Clue', 'Monopoly']","[-0.15, 0.5]","[0.15, 0.5]",1,1,,,,,,,,,0,8,8,8,0,4,4,2,,,,,,,,,,,,,,,,,,,,,,,,,,,,,,,,,,,,,,,,,,,,,,,,,,,,,,,870.6386273190001,None,870.6386273190001,None,870.6386273190001,None,m,1,1.2104909759982547,872.1715872669993,None,872.1715872669993,None,872.1715872669993,None,873.4387167449968,None,873.4387167449968,None,873.4387167449968,None,873.4387167449968,None,,,,,,,,,,,,,,,,,,,,,,,,,,,,,,,,,,,,,,,,,,,,001,52,2020_Jan_30_1553,spring_faces,3.1.5,60.03212871617338,
condition files/Stage1_1.xlsx,,B4,T4,m,"['c', 'm']","['Clue', 'Monopoly']","[-0.15, 0.5]","[0.15, 0.5]",1,1,,,,,,,,,0,8,8,8,0,5,5,7,,,,,,,,,,,,,,,,,,,,,,,,,,,,,,,,,,,,,,,,,,,,,,,,,,,,,,,875.4049798429987,None,875.4049798429987,None,875.4049798429987,None,m,1,1.115599091997865,876.9384067439969,None,876.9384067439969,None,876.9384067439969,None,878.1053820579982,None,878.1053820579982,None,878.1053820579982,None,878.1053820579982,None,,,,,,,,,,,,,,,,,,,,,,,,,,,,,,,,,,,,,,,,,,,,001,52,2020_Jan_30_1553,spring_faces,3.1.5,60.03212871617338,
condition files/Stage1_1.xlsx,,T3,B4,c,"['c', 'm']","['Clue', 'Monopoly']","[-0.15, 0.5]","[0.15, 0.5]",1,1,,,,,,,,,0,8,8,8,0,6,6,5,,,,,,,,,,,,,,,,,,,,,,,,,,,,,,,,,,,,,,,,,,,,,,,,,,,,,,,880.0715537869983,None,880.0715537869983,None,880.0715537869983,None,c,1,0.8964208609977504,881.6056047109996,None,881.6056047109996,None,881.6056047109996,None,882.5567728199967,None,882.5567728199967,None,882.5567728199967,None,882.5567728199967,None,,,,,,,,,,,,,,,,,,,,,,,,,,,,,,,,,,,,,,,,,,,,001,52,2020_Jan_30_1553,spring_faces,3.1.5,60.03212871617338,
condition files/Stage1_1.xlsx,,B3,T3,c,"['c', 'm']","['Clue', 'Monopoly']","[-0.15, 0.5]","[0.15, 0.5]",1,1,,,,,,,,,0,8,8,8,0,7,7,4,,,,,,,,,,,,,,,,,,,,,,,,,,,,,,,,,,,,,,,,,,,,,,,,,,,,,,,884.5220356779973,None,884.5220356779973,None,884.5220356779973,None,c,1,0.974860993999755,886.0552200040001,None,886.0552200040001,None,886.0552200040001,None,887.0891474769996,None,887.0891474769996,None,887.0891474769996,None,887.0891474769996,None,,,,,,,,,,,,,,,,,,,,,,,,,,,,,,,,,,,,,,,,,,,,001,52,2020_Jan_30_1553,spring_faces,3.1.5,60.03212871617338,
condition files/Stage1_2.xlsx,,T4,B4,m,"['c', 'm']","['Clue', 'Monopoly']","[-0.15, 0.5]","[0.15, 0.5]",1,1,,,,,,,,,0,9,9,9,0,0,0,7,,,,,,,,,,,,,,,,,,,,,,,,,,,,,,,,,,,,,,,,,,,,,,,,,,,,,,,889.0718792459993,None,889.0718792459993,None,889.0718792459993,None,m,1,1.2248918739969668,890.6051939129975,None,890.6051939129975,None,890.6051939129975,None,891.8892785239987,None,891.8892785239987,None,891.8892785239987,None,891.8892785239987,None,,,,,,,,,,,,,,,,,,,,,,,,,,,,,,,,,,,,,,,,,,,,001,52,2020_Jan_30_1553,spring_faces,3.1.5,60.03212871617338,
condition files/Stage1_2.xlsx,,T1,B2,m,"['c', 'm']","['Clue', 'Monopoly']","[-0.15, 0.5]","[0.15, 0.5]",1,1,,,,,,,,,0,9,9,9,0,1,1,2,,,,,,,,,,,,,,,,,,,,,,,,,,,,,,,,,,,,,,,,,,,,,,,,,,,,,,,893.8553217359986,None,893.8553217359986,None,893.8553217359986,None,m,1,1.369345852999686,895.3886653949994,None,895.3886653949994,None,895.3886653949994,None,896.8221676569992,None,896.8221676569992,None,896.8221676569992,None,896.8221676569992,None,,,,,,,,,,,,,,,,,,,,,,,,,,,,,,,,,,,,,,,,,,,,001,52,2020_Jan_30_1553,spring_faces,3.1.5,60.03212871617338,
condition files/Stage1_2.xlsx,,B1,T1,c,"['c', 'm']","['Clue', 'Monopoly']","[-0.15, 0.5]","[0.15, 0.5]",1,1,,,,,,,,,0,9,9,9,0,2,2,0,,,,,,,,,,,,,,,,,,,,,,,,,,,,,,,,,,,,,,,,,,,,,,,,,,,,,,,898.7887591559993,None,898.7887591559993,None,898.7887591559993,None,c,1,2.27651563100153,900.3215848660002,None,900.3215848660002,None,900.3215848660002,None,902.6567329259997,None,902.6567329259997,None,902.6567329259997,None,902.6567329259997,None,,,,,,,,,,,,,,,,,,,,,,,,,,,,,,,,,,,,,,,,,,,,001,52,2020_Jan_30_1553,spring_faces,3.1.5,60.03212871617338,
condition files/Stage1_2.xlsx,,T2,B1,c,"['c', 'm']","['Clue', 'Monopoly']","[-0.15, 0.5]","[0.15, 0.5]",1,1,,,,,,,,,0,9,9,9,0,3,3,1,,,,,,,,,,,,,,,,,,,,,,,,,,,,,,,,,,,,,,,,,,,,,,,,,,,,,,,904.6218806059987,None,904.6218806059987,None,904.6218806059987,None,c,1,2.6498879050013784,906.1560948289989,None,906.1560948289989,None,906.1560948289989,None,908.8719804679968,None,908.8719804679968,None,908.8719804679968,None,908.8719804679968,None,,,,,,,,,,,,,,,,,,,,,,,,,,,,,,,,,,,,,,,,,,,,001,52,2020_Jan_30_1553,spring_faces,3.1.5,60.03212871617338,
condition files/Stage1_2.xlsx,,B3,T4,m,"['c', 'm']","['Clue', 'Monopoly']","[-0.15, 0.5]","[0.15, 0.5]",1,1,,,,,,,,,0,9,9,9,0,4,4,6,,,,,,,,,,,,,,,,,,,,,,,,,,,,,,,,,,,,,,,,,,,,,,,,,,,,,,,910.8385755129966,None,910.8385755129966,None,910.8385755129966,None,m,1,1.11958261500331,912.374448429,None,912.374448429,None,912.374448429,None,913.5577775989987,None,913.5577775989987,None,913.5577775989987,None,913.5577775989987,None,,,,,,,,,,,,,,,,,,,,,,,,,,,,,,,,,,,,,,,,,,,,001,52,2020_Jan_30_1553,spring_faces,3.1.5,60.03212871617338,
condition files/Stage1_2.xlsx,,B4,T3,c,"['c', 'm']","['Clue', 'Monopoly']","[-0.15, 0.5]","[0.15, 0.5]",1,1,,,,,,,,,0,9,9,9,0,5,5,5,,,,,,,,,,,,,,,,,,,,,,,,,,,,,,,,,,,,,,,,,,,,,,,,,,,,,,,915.521401668997,None,915.521401668997,None,915.521401668997,None,c,1,2.565408779999416,917.0565460519974,None,917.0565460519974,None,917.0565460519974,None,919.6720270799997,None,919.6720270799997,None,919.6720270799997,None,919.6720270799997,None,,,,,,,,,,,,,,,,,,,,,,,,,,,,,,,,,,,,,,,,,,,,001,52,2020_Jan_30_1553,spring_faces,3.1.5,60.03212871617338,
condition files/Stage1_2.xlsx,,T3,B3,c,"['c', 'm']","['Clue', 'Monopoly']","[-0.15, 0.5]","[0.15, 0.5]",1,1,,,,,,,,,0,9,9,9,0,6,6,4,,,,,,,,,,,,,,,,,,,,,,,,,,,,,,,,,,,,,,,,,,,,,,,,,,,,,,,921.6387248899991,None,921.6387248899991,None,921.6387248899991,None,c,1,1.042824219999602,923.1712649859983,None,923.1712649859983,None,923.1712649859983,None,924.272343542998,None,924.272343542998,None,924.272343542998,None,924.272343542998,None,,,,,,,,,,,,,,,,,,,,,,,,,,,,,,,,,,,,,,,,,,,,001,52,2020_Jan_30_1553,spring_faces,3.1.5,60.03212871617338,
condition files/Stage1_2.xlsx,,B2,T2,m,"['c', 'm']","['Clue', 'Monopoly']","[-0.15, 0.5]","[0.15, 0.5]",1,1,,,,,,,,,0,9,9,9,0,7,7,3,,,,,,,,,,,,,,,,,,,,,,,,,,,,,,,,,,,,,,,,,,,,,,,,,,,,,,,926.2387478679993,None,926.2387478679993,None,926.2387478679993,None,m,1,2.1384892480018607,927.7715989489989,None,927.7715989489989,None,927.7715989489989,None,929.9718075739984,None,929.9718075739984,None,929.9718075739984,None,929.9718075739984,None,,,,,,,,,,,,,,,,,,,,,,,,,,,,,,,,,,,,,,,,,,,,001,52,2020_Jan_30_1553,spring_faces,3.1.5,60.03212871617338,
condition files/Stage1_1.xlsx,,T4,B3,m,"['c', 'm']","['Clue', 'Monopoly']","[-0.15, 0.5]","[0.15, 0.5]",1,1,,,,,,,,,0,10,10,10,0,0,0,6,,,,,,,,,,,,,,,,,,,,,,,,,,,,,,,,,,,,,,,,,,,,,,,,,,,,,,,931.9554987939991,None,931.9554987939991,None,931.9554987939991,None,m,1,0.9332979200007685,933.4886717209993,None,933.4886717209993,None,933.4886717209993,None,934.4720096759993,None,934.4720096759993,None,934.4720096759993,None,934.4720096759993,None,,,,,,,,,,,,,,,,,,,,,,,,,,,,,,,,,,,,,,,,,,,,001,52,2020_Jan_30_1553,spring_faces,3.1.5,60.03212871617338,
condition files/Stage1_1.xlsx,,B2,T1,m,"['c', 'm']","['Clue', 'Monopoly']","[-0.15, 0.5]","[0.15, 0.5]",1,1,,,,,,,,,0,10,10,10,0,1,1,2,,,,,,,,,,,,,,,,,,,,,,,,,,,,,,,,,,,,,,,,,,,,,,,,,,,,,,,936.4385865939985,None,936.4385865939985,None,936.4385865939985,None,m,1,1.3775531540013617,937.9724719320002,None,937.9724719320002,None,937.9724719320002,None,939.4053132369991,None,939.4053132369991,None,939.4053132369991,None,939.4053132369991,None,,,,,,,,,,,,,,,,,,,,,,,,,,,,,,,,,,,,,,,,,,,,001,52,2020_Jan_30_1553,spring_faces,3.1.5,60.03212871617338,
condition files/Stage1_1.xlsx,,B1,T2,c,"['c', 'm']","['Clue', 'Monopoly']","[-0.15, 0.5]","[0.15, 0.5]",1,1,,,,,,,,,0,10,10,10,0,2,2,1,,,,,,,,,,,,,,,,,,,,,,,,,,,,,,,,,,,,,,,,,,,,,,,,,,,,,,,941.371374585,None,941.371374585,None,941.371374585,None,c,1,1.0529706439992879,942.9050439009989,None,942.9050439009989,None,942.9050439009989,None,944.0231828359974,None,944.0231828359974,None,944.0231828359974,None,944.0231828359974,None,,,,,,,,,,,,,,,,,,,,,,,,,,,,,,,,,,,,,,,,,,,,001,52,2020_Jan_30_1553,spring_faces,3.1.5,60.03212871617338,
condition files/Stage1_1.xlsx,,B4,T4,m,"['c', 'm']","['Clue', 'Monopoly']","[-0.15, 0.5]","[0.15, 0.5]",1,1,,,,,,,,,0,10,10,10,0,3,3,7,,,,,,,,,,,,,,,,,,,,,,,,,,,,,,,,,,,,,,,,,,,,,,,,,,,,,,,945.9886924909988,None,945.9886924909988,None,945.9886924909988,None,m,1,1.8578831180020643,947.5241917610001,None,947.5241917610001,None,947.5241917610001,None,949.455479147,None,949.455479147,None,949.455479147,None,949.455479147,None,,,,,,,,,,,,,,,,,,,,,,,,,,,,,,,,,,,,,,,,,,,,001,52,2020_Jan_30_1553,spring_faces,3.1.5,60.03212871617338,
condition files/Stage1_1.xlsx,,B3,T3,c,"['c', 'm']","['Clue', 'Monopoly']","[-0.15, 0.5]","[0.15, 0.5]",1,1,,,,,,,,,0,10,10,10,0,4,4,4,,,,,,,,,,,,,,,,,,,,,,,,,,,,,,,,,,,,,,,,,,,,,,,,,,,,,,,951.4053022259977,None,951.4053022259977,None,951.4053022259977,None,c,1,1.3545075100009853,952.9554948339974,None,952.9554948339974,None,952.9554948339974,None,954.3733481349991,None,954.3733481349991,None,954.3733481349991,None,954.3733481349991,None,,,,,,,,,,,,,,,,,,,,,,,,,,,,,,,,,,,,,,,,,,,,001,52,2020_Jan_30_1553,spring_faces,3.1.5,60.03212871617338,
condition files/Stage1_1.xlsx,,T1,B1,c,"['c', 'm']","['Clue', 'Monopoly']","[-0.15, 0.5]","[0.15, 0.5]",1,1,,,,,,,,,0,10,10,10,0,5,5,0,,,,,,,,,,,,,,,,,,,,,,,,,,,,,,,,,,,,,,,,,,,,,,,,,,,,,,,956.3385631289966,None,956.3385631289966,None,956.3385631289966,None,c,1,2.0358646599997883,957.8741665439993,None,957.8741665439993,None,957.8741665439993,None,959.9722812019972,None,959.9722812019972,None,959.9722812019972,None,959.9722812019972,None,,,,,,,,,,,,,,,,,,,,,,,,,,,,,,,,,,,,,,,,,,,,001,52,2020_Jan_30_1553,spring_faces,3.1.5,60.03212871617338,
condition files/Stage1_1.xlsx,,T2,B2,m,"['c', 'm']","['Clue', 'Monopoly']","[-0.15, 0.5]","[0.15, 0.5]",1,1,,,,,,,,,0,10,10,10,0,6,6,3,,,,,,,,,,,,,,,,,,,,,,,,,,,,,,,,,,,,,,,,,,,,,,,,,,,,,,,961.9385664039983,None,961.9385664039983,None,961.9385664039983,None,m,1,1.7660438189996057,963.4719770429983,None,963.4719770429983,None,963.4719770429983,None,965.2911035879988,None,965.2911035879988,None,965.2911035879988,None,965.2911035879988,None,,,,,,,,,,,,,,,,,,,,,,,,,,,,,,,,,,,,,,,,,,,,001,52,2020_Jan_30_1553,spring_faces,3.1.5,60.03212871617338,
condition files/Stage1_1.xlsx,,T3,B4,c,"['c', 'm']","['Clue', 'Monopoly']","[-0.15, 0.5]","[0.15, 0.5]",1,1,,,,,,,,,0,10,10,10,0,7,7,5,,,,,,,,,,,,,,,,,,,,,,,,,,,,,,,,,,,,,,,,,,,,,,,,,,,,,,,967.2549428349994,None,967.2549428349994,None,967.2549428349994,None,c,1,1.9216748290018586,968.7883382579967,None,968.7883382579967,None,968.7883382579967,None,970.7887411069969,None,970.7887411069969,None,970.7887411069969,None,970.7887411069969,None,,,,,,,,,,,,,,,,,,,,,,,,,,,,,,,,,,,,,,,,,,,,001,52,2020_Jan_30_1553,spring_faces,3.1.5,60.03212871617338,
condition files/Stage1_2.xlsx,,T2,B1,c,"['c', 'm']","['Clue', 'Monopoly']","[-0.15, 0.5]","[0.15, 0.5]",1,1,,,,,,,,,0,11,11,11,0,0,0,1,,,,,,,,,,,,,,,,,,,,,,,,,,,,,,,,,,,,,,,,,,,,,,,,,,,,,,,972.755585314997,None,972.755585314997,None,972.755585314997,None,c,1,2.6122468639987346,974.3057293049969,None,974.3057293049969,None,974.3057293049969,None,976.9716767969985,None,976.9716767969985,None,976.9716767969985,None,976.9716767969985,None,,,,,,,,,,,,,,,,,,,,,,,,,,,,,,,,,,,,,,,,,,,,001,52,2020_Jan_30_1553,spring_faces,3.1.5,60.03212871617338,
condition files/Stage1_2.xlsx,,B4,T3,c,"['c', 'm']","['Clue', 'Monopoly']","[-0.15, 0.5]","[0.15, 0.5]",1,1,,,,,,,,,0,11,11,11,0,1,1,5,,,,,,,,,,,,,,,,,,,,,,,,,,,,,,,,,,,,,,,,,,,,,,,,,,,,,,,978.938590679998,None,978.938590679998,None,978.938590679998,None,c,1,1.1322059009980876,980.4737855579988,None,980.4737855579988,None,980.4737855579988,None,981.6721729259989,None,981.6721729259989,None,981.6721729259989,None,981.6721729259989,None,,,,,,,,,,,,,,,,,,,,,,,,,,,,,,,,,,,,,,,,,,,,001,52,2020_Jan_30_1553,spring_faces,3.1.5,60.03212871617338,
condition files/Stage1_2.xlsx,,B1,T1,c,"['c', 'm']","['Clue', 'Monopoly']","[-0.15, 0.5]","[0.15, 0.5]",1,1,,,,,,,,,0,11,11,11,0,2,2,0,,,,,,,,,,,,,,,,,,,,,,,,,,,,,,,,,,,,,,,,,,,,,,,,,,,,,,,983.6381308729979,None,983.6381308729979,None,983.6381308729979,None,c,1,3.7937040910001087,985.1883628939977,None,985.1883628939977,None,985.1883628939977,None,989.0384666069986,None,989.0384666069986,None,989.0384666069986,None,989.0384666069986,None,,,,,,,,,,,,,,,,,,,,,,,,,,,,,,,,,,,,,,,,,,,,001,52,2020_Jan_30_1553,spring_faces,3.1.5,60.03212871617338,
condition files/Stage1_2.xlsx,,T4,B4,m,"['c', 'm']","['Clue', 'Monopoly']","[-0.15, 0.5]","[0.15, 0.5]",1,1,,,,,,,,,0,11,11,11,0,3,3,7,,,,,,,,,,,,,,,,,,,,,,,,,,,,,,,,,,,,,,,,,,,,,,,,,,,,,,,991.004650775998,None,991.004650775998,None,991.004650775998,None,m,1,2.874412523000501,992.5396637349986,None,992.5396637349986,None,992.5396637349986,None,995.4885241539996,None,995.4885241539996,None,995.4885241539996,None,995.4885241539996,None,,,,,,,,,,,,,,,,,,,,,,,,,,,,,,,,,,,,,,,,,,,,001,52,2020_Jan_30_1553,spring_faces,3.1.5,60.03212871617338,
condition files/Stage1_2.xlsx,,T3,B3,c,"['c', 'm']","['Clue', 'Monopoly']","[-0.15, 0.5]","[0.15, 0.5]",1,1,,,,,,,,,0,11,11,11,0,4,4,4,,,,,,,,,,,,,,,,,,,,,,,,,,,,,,,,,,,,,,,,,,,,,,,,,,,,,,,997.4381205179998,None,997.4381205179998,None,997.4381205179998,None,c,1,0.906342810998467,998.9716184749996,None,998.9716184749996,None,998.9716184749996,None,999.937982771,None,999.937982771,None,999.937982771,None,999.937982771,None,,,,,,,,,,,,,,,,,,,,,,,,,,,,,,,,,,,,,,,,,,,,001,52,2020_Jan_30_1553,spring_faces,3.1.5,60.03212871617338,
condition files/Stage1_2.xlsx,,T1,B2,m,"['c', 'm']","['Clue', 'Monopoly']","[-0.15, 0.5]","[0.15, 0.5]",1,1,,,,,,,,,0,11,11,11,0,5,5,2,,,,,,,,,,,,,,,,,,,,,,,,,,,,,,,,,,,,,,,,,,,,,,,,,,,,,,,1001.9053158349998,None,1001.9053158349998,None,1001.9053158349998,None,m,1,1.0955532049993053,1003.4384627309992,None,1003.4384627309992,None,1003.4384627309992,None,1004.5885973009972,None,1004.5885973009972,None,1004.5885973009972,None,1004.5885973009972,None,,,,,,,,,,,,,,,,,,,,,,,,,,,,,,,,,,,,,,,,,,,,001,52,2020_Jan_30_1553,spring_faces,3.1.5,60.03212871617338,
condition files/Stage1_2.xlsx,,B3,T4,m,"['c', 'm']","['Clue', 'Monopoly']","[-0.15, 0.5]","[0.15, 0.5]",1,1,,,,,,,,,0,11,11,11,0,6,6,6,,,,,,,,,,,,,,,,,,,,,,,,,,,,,,,,,,,,,,,,,,,,,,,,,,,,,,,1006.555302498,None,1006.555302498,None,1006.555302498,None,m,1,0.8139459849990089,1008.088284554,None,1008.088284554,None,1008.088284554,None,1008.9554262049969,None,1008.9554262049969,None,1008.9554262049969,None,1008.9554262049969,None,,,,,,,,,,,,,,,,,,,,,,,,,,,,,,,,,,,,,,,,,,,,001,52,2020_Jan_30_1553,spring_faces,3.1.5,60.03212871617338,
condition files/Stage1_2.xlsx,,B2,T2,m,"['c', 'm']","['Clue', 'Monopoly']","[-0.15, 0.5]","[0.15, 0.5]",1,1,,,,,,,,,0,11,11,11,0,7,7,3,,,,,,,,,,,,,,,,,,,,,,,,,,,,,,,,,,,,,,,,,,,,,,,,,,,,,,,1010.9215333909997,None,1010.9215333909997,None,1010.9215333909997,None,m,1,1.45435636700131,1012.4556483369997,None,1012.4556483369997,None,1012.4556483369997,None,1013.9719388039994,None,1013.9719388039994,None,1013.9719388039994,None,1013.9719388039994,None,,,,,,,,,,,,,,,,,,,,,,,,,,,,,,,,,,,,,,,,,,,,001,52,2020_Jan_30_1553,spring_faces,3.1.5,60.03212871617338,
,,,,,,,,,,,,,,,,,,,,,,,,,,,,,,,,,,,,,,,,,,,,,,,,,,,,,,,,,,,,,,,,,,,,,,,,,,,,,,,,,,,,,,,,,,,,,,,,,,,,,,,,,,,,,,,,1015.9553418649994,None,space,2.154826938000042,1020.9551995299989,None,,,,,,,,,,,,,,,,,,,,,,,,,,,,,,001,52,2020_Jan_30_1553,spring_faces,3.1.5,60.03212871617338,
condition files/Stage2_1.xlsx,,B2,T2,r,"['s', 'r']","['Stratego', 'Risk']","[-0.15, 0.5]","[0.15, 0.5]",1,1,,,,,,,,,,,,,,,,,0,0,0,0,0,0,0,3,,,,,,,,,,,,,,,,,,,,,,,,,,,,,,,,,,,,,,,,,,,,,,,1023.1725454749976,None,1023.1725454749976,None,1023.1725454749976,None,s,0,4.405317428998387,1024.6887211619978,None,1024.6887211619978,None,1024.6887211619978,None,1029.1554588979998,None,1029.1554588979998,None,1029.1554588979998,None,1029.1554588979998,None,,,,,,,,,,,,,,,1020.9551995299989,None,,,,,,,,,,,,,,,,,,,,,,,,,,,,001,52,2020_Jan_30_1553,spring_faces,3.1.5,60.03212871617338,
condition files/Stage2_1.xlsx,,B6,T6,r,"['s', 'r']","['Stratego', 'Risk']","[-0.15, 0.5]","[0.15, 0.5]",1,1,,,,,,,,,,,,,,,,,0,0,0,0,0,1,1,1,,,,,,,,,,,,,,,,,,,,,,,,,,,,,,,,,,,,,,,,,,,,,,,1031.1218747079984,None,1031.1218747079984,None,1031.1218747079984,None,s,0,4.212740764000046,1032.657248170999,None,1032.657248170999,None,1032.657248170999,None,1036.9222209579966,None,1036.9222209579966,None,1036.9222209579966,None,1036.9222209579966,None,,,,,,,,,,,,,,,,,,,,,,,,,,,,,,,,,,,,,,,,,,,,001,52,2020_Jan_30_1553,spring_faces,3.1.5,60.03212871617338,
condition files/Stage2_1.xlsx,,T5,B5,s,"['s', 'r']","['Stratego', 'Risk']","[-0.15, 0.5]","[0.15, 0.5]",1,1,,,,,,,,,,,,,,,,,0,0,0,0,0,2,2,0,,,,,,,,,,,,,,,,,,,,,,,,,,,,,,,,,,,,,,,,,,,,,,,1038.8887189479974,None,1038.8887189479974,None,1038.8887189479974,None,s,1,3.423406903999421,1040.4226836479975,None,1040.4226836479975,None,1040.4226836479975,None,1043.9064517939987,None,1043.9064517939987,None,1043.9064517939987,None,1043.9064517939987,None,,,,,,,,,,,,,,,,,,,,,,,,,,,,,,,,,,,,,,,,,,,,001,52,2020_Jan_30_1553,spring_faces,3.1.5,60.03212871617338,
condition files/Stage2_1.xlsx,,B4,T4,r,"['s', 'r']","['Stratego', 'Risk']","[-0.15, 0.5]","[0.15, 0.5]",1,1,,,,,,,,,,,,,,,,,0,0,0,0,0,3,3,5,,,,,,,,,,,,,,,,,,,,,,,,,,,,,,,,,,,,,,,,,,,,,,,1045.8718867069983,None,1045.8718867069983,None,1045.8718867069983,None,s,0,2.7930742019998434,1047.4050156199992,None,1047.4050156199992,None,1047.4050156199992,None,1050.2723125449993,None,1050.2723125449993,None,1050.2723125449993,None,1050.2723125449993,None,,,,,,,,,,,,,,,,,,,,,,,,,,,,,,,,,,,,,,,,,,,,001,52,2020_Jan_30_1553,spring_faces,3.1.5,60.03212871617338,
condition files/Stage2_1.xlsx,,T1,B1,s,"['s', 'r']","['Stratego', 'Risk']","[-0.15, 0.5]","[0.15, 0.5]",1,1,,,,,,,,,,,,,,,,,0,0,0,0,0,4,4,2,,,,,,,,,,,,,,,,,,,,,,,,,,,,,,,,,,,,,,,,,,,,,,,1052.222048028998,None,1052.222048028998,None,1052.222048028998,None,s,1,2.778354687998217,1053.755674688,None,1053.755674688,None,1053.755674688,None,1056.605771188999,None,1056.605771188999,None,1056.605771188999,None,1056.605771188999,None,,,,,,,,,,,,,,,,,,,,,,,,,,,,,,,,,,,,,,,,,,,,001,52,2020_Jan_30_1553,spring_faces,3.1.5,60.03212871617338,
condition files/Stage2_1.xlsx,,T3,B3,s,"['s', 'r']","['Stratego', 'Risk']","[-0.15, 0.5]","[0.15, 0.5]",1,1,,,,,,,,,,,,,,,,,0,0,0,0,0,5,5,4,,,,,,,,,,,,,,,,,,,,,,,,,,,,,,,,,,,,,,,,,,,,,,,1058.5551676719988,None,1058.5551676719988,None,1058.5551676719988,None,r,0,4.620446854001784,1060.1055544369992,None,1060.1055544369992,None,1060.1055544369992,None,1064.7885411909992,None,1064.7885411909992,None,1064.7885411909992,None,1064.7885411909992,None,,,,,,,,,,,,,,,,,,,,,,,,,,,,,,,,,,,,,,,,,,,,001,52,2020_Jan_30_1553,spring_faces,3.1.5,60.03212871617338,
condition files/Stage2_2.xlsx,,T2,B2,r,"['s', 'r']","['Stratego', 'Risk']","[-0.15, 0.5]","[0.15, 0.5]",1,1,,,,,,,,,,,,,,,,,0,1,1,1,0,0,0,3,,,,,,,,,,,,,,,,,,,,,,,,,,,,,,,,,,,,,,,,,,,,,,,1066.7720514329994,None,1066.7720514329994,None,1066.7720514329994,None,s,0,9.90922847800175,1068.3048482279992,None,1068.3048482279992,None,1068.3048482279992,None,1078.273667516998,None,1078.273667516998,None,1078.273667516998,None,1078.273667516998,None,,,,,,,,,,,,,,,,,,,,,,,,,,,,,,,,,,,,,,,,,,,,001,52,2020_Jan_30_1553,spring_faces,3.1.5,60.03212871617338,
condition files/Stage2_2.xlsx,,B1,T1,s,"['s', 'r']","['Stratego', 'Risk']","[-0.15, 0.5]","[0.15, 0.5]",1,1,,,,,,,,,,,,,,,,,0,1,1,1,0,1,1,2,,,,,,,,,,,,,,,,,,,,,,,,,,,,,,,,,,,,,,,,,,,,,,,1080.238553657,None,1080.238553657,None,1080.238553657,None,s,1,1.9144332200012286,1081.771581093999,None,1081.771581093999,None,1081.771581093999,None,1083.7560260379978,None,1083.7560260379978,None,1083.7560260379978,None,1083.7560260379978,None,,,,,,,,,,,,,,,,,,,,,,,,,,,,,,,,,,,,,,,,,,,,001,52,2020_Jan_30_1553,spring_faces,3.1.5,60.03212871617338,
condition files/Stage2_2.xlsx,,B3,T3,s,"['s', 'r']","['Stratego', 'Risk']","[-0.15, 0.5]","[0.15, 0.5]",1,1,,,,,,,,,,,,,,,,,0,1,1,1,0,2,2,4,,,,,,,,,,,,,,,,,,,,,,,,,,,,,,,,,,,,,,,,,,,,,,,1085.705248760998,None,1085.705248760998,None,1085.705248760998,None,r,0,1.711084374001075,1087.2388766909971,None,1087.2388766909971,None,1087.2388766909971,None,1089.0057439579978,None,1089.0057439579978,None,1089.0057439579978,None,1089.0057439579978,None,,,,,,,,,,,,,,,,,,,,,,,,,,,,,,,,,,,,,,,,,,,,001,52,2020_Jan_30_1553,spring_faces,3.1.5,60.03212871617338,
condition files/Stage2_2.xlsx,,B5,T5,s,"['s', 'r']","['Stratego', 'Risk']","[-0.15, 0.5]","[0.15, 0.5]",1,1,,,,,,,,,,,,,,,,,0,1,1,1,0,3,3,0,,,,,,,,,,,,,,,,,,,,,,,,,,,,,,,,,,,,,,,,,,,,,,,1090.971402578998,None,1090.971402578998,None,1090.971402578998,None,r,0,2.20425232100024,1092.5217575669994,None,1092.5217575669994,None,1092.5217575669994,None,1094.7889392239995,None,1094.7889392239995,None,1094.7889392239995,None,1094.7889392239995,None,,,,,,,,,,,,,,,,,,,,,,,,,,,,,,,,,,,,,,,,,,,,001,52,2020_Jan_30_1553,spring_faces,3.1.5,60.03212871617338,
condition files/Stage2_2.xlsx,,T6,B6,r,"['s', 'r']","['Stratego', 'Risk']","[-0.15, 0.5]","[0.15, 0.5]",1,1,,,,,,,,,,,,,,,,,0,1,1,1,0,4,4,1,,,,,,,,,,,,,,,,,,,,,,,,,,,,,,,,,,,,,,,,,,,,,,,1096.755291551999,None,1096.755291551999,None,1096.755291551999,None,r,1,1.6349458160002541,1098.291075702,None,1098.291075702,None,1098.291075702,None,1099.9909184809985,None,1099.9909184809985,None,1099.9909184809985,None,1099.9909184809985,None,,,,,,,,,,,,,,,,,,,,,,,,,,,,,,,,,,,,,,,,,,,,001,52,2020_Jan_30_1553,spring_faces,3.1.5,60.03212871617338,
condition files/Stage2_2.xlsx,,T4,B4,r,"['s', 'r']","['Stratego', 'Risk']","[-0.15, 0.5]","[0.15, 0.5]",1,1,,,,,,,,,,,,,,,,,0,1,1,1,0,5,5,5,,,,,,,,,,,,,,,,,,,,,,,,,,,,,,,,,,,,,,,,,,,,,,,1101.9552451609998,None,1101.9552451609998,None,1101.9552451609998,None,r,1,3.653482832000009,1103.488543960997,None,1103.488543960997,None,1103.488543960997,None,1107.2057436999967,None,1107.2057436999967,None,1107.2057436999967,None,1107.2057436999967,None,,,,,,,,,,,,,,,,,,,,,,,,,,,,,,,,,,,,,,,,,,,,001,52,2020_Jan_30_1553,spring_faces,3.1.5,60.03212871617338,
condition files/Stage2_1.xlsx,,T1,B1,s,"['s', 'r']","['Stratego', 'Risk']","[-0.15, 0.5]","[0.15, 0.5]",1,1,,,,,,,,,,,,,,,,,0,2,2,2,0,0,0,2,,,,,,,,,,,,,,,,,,,,,,,,,,,,,,,,,,,,,,,,,,,,,,,1109.188824138997,None,1109.188824138997,None,1109.188824138997,None,s,1,3.04395169000054,1110.722092101998,None,1110.722092101998,None,1110.722092101998,None,1113.8382769799973,None,1113.8382769799973,None,1113.8382769799973,None,1113.8382769799973,None,,,,,,,,,,,,,,,,,,,,,,,,,,,,,,,,,,,,,,,,,,,,001,52,2020_Jan_30_1553,spring_faces,3.1.5,60.03212871617338,
condition files/Stage2_1.xlsx,,T5,B5,s,"['s', 'r']","['Stratego', 'Risk']","[-0.15, 0.5]","[0.15, 0.5]",1,1,,,,,,,,,,,,,,,,,0,2,2,2,0,1,1,0,,,,,,,,,,,,,,,,,,,,,,,,,,,,,,,,,,,,,,,,,,,,,,,1115.7884978729999,None,1115.7884978729999,None,1115.7884978729999,None,s,1,2.588533127000119,1117.3214893079967,None,1117.3214893079967,None,1117.3214893079967,None,1119.9719864899998,None,1119.9719864899998,None,1119.9719864899998,None,1119.9719864899998,None,,,,,,,,,,,,,,,,,,,,,,,,,,,,,,,,,,,,,,,,,,,,001,52,2020_Jan_30_1553,spring_faces,3.1.5,60.03212871617338,
condition files/Stage2_1.xlsx,,B6,T6,r,"['s', 'r']","['Stratego', 'Risk']","[-0.15, 0.5]","[0.15, 0.5]",1,1,,,,,,,,,,,,,,,,,0,2,2,2,0,2,2,1,,,,,,,,,,,,,,,,,,,,,,,,,,,,,,,,,,,,,,,,,,,,,,,1121.938466796997,None,1121.938466796997,None,1121.938466796997,None,r,1,2.8863020810022135,1123.4717135189967,None,1123.4717135189967,None,1123.4717135189967,None,1126.4231587739996,None,1126.4231587739996,None,1126.4231587739996,None,1126.4231587739996,None,,,,,,,,,,,,,,,,,,,,,,,,,,,,,,,,,,,,,,,,,,,,001,52,2020_Jan_30_1553,spring_faces,3.1.5,60.03212871617338,
condition files/Stage2_1.xlsx,,B4,T4,r,"['s', 'r']","['Stratego', 'Risk']","[-0.15, 0.5]","[0.15, 0.5]",1,1,,,,,,,,,,,,,,,,,0,2,2,2,0,3,3,5,,,,,,,,,,,,,,,,,,,,,,,,,,,,,,,,,,,,,,,,,,,,,,,1128.3885681889988,None,1128.3885681889988,None,1128.3885681889988,None,s,0,3.2031810180014872,1129.9227948619991,None,1129.9227948619991,None,1129.9227948619991,None,1133.1884529529998,None,1133.1884529529998,None,1133.1884529529998,None,1133.1884529529998,None,,,,,,,,,,,,,,,,,,,,,,,,,,,,,,,,,,,,,,,,,,,,001,52,2020_Jan_30_1553,spring_faces,3.1.5,60.03212871617338,
condition files/Stage2_1.xlsx,,B2,T2,r,"['s', 'r']","['Stratego', 'Risk']","[-0.15, 0.5]","[0.15, 0.5]",1,1,,,,,,,,,,,,,,,,,0,2,2,2,0,4,4,3,,,,,,,,,,,,,,,,,,,,,,,,,,,,,,,,,,,,,,,,,,,,,,,1135.1549527219977,None,1135.1549527219977,None,1135.1549527219977,None,r,1,1.7332354969985317,1136.6887537469993,None,1136.6887537469993,None,1136.6887537469993,None,1138.4717849119988,None,1138.4717849119988,None,1138.4717849119988,None,1138.4717849119988,None,,,,,,,,,,,,,,,,,,,,,,,,,,,,,,,,,,,,,,,,,,,,001,52,2020_Jan_30_1553,spring_faces,3.1.5,60.03212871617338,
condition files/Stage2_1.xlsx,,T3,B3,s,"['s', 'r']","['Stratego', 'Risk']","[-0.15, 0.5]","[0.15, 0.5]",1,1,,,,,,,,,,,,,,,,,0,2,2,2,0,5,5,4,,,,,,,,,,,,,,,,,,,,,,,,,,,,,,,,,,,,,,,,,,,,,,,1140.4386341299978,None,1140.4386341299978,None,1140.4386341299978,None,r,0,2.4495500499979244,1141.9724147479974,None,1141.9724147479974,None,1141.9724147479974,None,1144.474733652998,None,1144.474733652998,None,1144.474733652998,None,1144.474733652998,None,,,,,,,,,,,,,,,,,,,,,,,,,,,,,,,,,,,,,,,,,,,,001,52,2020_Jan_30_1553,spring_faces,3.1.5,60.03212871617338,
condition files/Stage2_2.xlsx,,B5,T5,s,"['s', 'r']","['Stratego', 'Risk']","[-0.15, 0.5]","[0.15, 0.5]",1,1,,,,,,,,,,,,,,,,,0,3,3,3,0,0,0,0,,,,,,,,,,,,,,,,,,,,,,,,,,,,,,,,,,,,,,,,,,,,,,,1146.4557194819972,None,1146.4557194819972,None,1146.4557194819972,None,s,1,1.2810016709991032,1148.0050064769966,None,1148.0050064769966,None,1148.0050064769966,None,1149.338591238,None,1149.338591238,None,1149.338591238,None,1149.338591238,None,,,,,,,,,,,,,,,,,,,,,,,,,,,,,,,,,,,,,,,,,,,,001,52,2020_Jan_30_1553,spring_faces,3.1.5,60.03212871617338,
condition files/Stage2_2.xlsx,,B1,T1,s,"['s', 'r']","['Stratego', 'Risk']","[-0.15, 0.5]","[0.15, 0.5]",1,1,,,,,,,,,,,,,,,,,0,3,3,3,0,1,1,2,,,,,,,,,,,,,,,,,,,,,,,,,,,,,,,,,,,,,,,,,,,,,,,1151.305196309997,None,1151.305196309997,None,1151.305196309997,None,s,1,1.5814186220013653,1152.8405888749985,None,1152.8405888749985,None,1152.8405888749985,None,1154.472494054,None,1154.472494054,None,1154.472494054,None,1154.472494054,None,,,,,,,,,,,,,,,,,,,,,,,,,,,,,,,,,,,,,,,,,,,,001,52,2020_Jan_30_1553,spring_faces,3.1.5,60.03212871617338,
condition files/Stage2_2.xlsx,,T2,B2,r,"['s', 'r']","['Stratego', 'Risk']","[-0.15, 0.5]","[0.15, 0.5]",1,1,,,,,,,,,,,,,,,,,0,3,3,3,0,2,2,3,,,,,,,,,,,,,,,,,,,,,,,,,,,,,,,,,,,,,,,,,,,,,,,1156.438998185,None,1156.438998185,None,1156.438998185,None,r,1,3.968097506000049,1157.9739238329967,None,1157.9739238329967,None,1157.9739238329967,None,1162.0061133149975,None,1162.0061133149975,None,1162.0061133149975,None,1162.0061133149975,None,,,,,,,,,,,,,,,,,,,,,,,,,,,,,,,,,,,,,,,,,,,,001,52,2020_Jan_30_1553,spring_faces,3.1.5,60.03212871617338,
condition files/Stage2_2.xlsx,,B3,T3,s,"['s', 'r']","['Stratego', 'Risk']","[-0.15, 0.5]","[0.15, 0.5]",1,1,,,,,,,,,,,,,,,,,0,3,3,3,0,3,3,4,,,,,,,,,,,,,,,,,,,,,,,,,,,,,,,,,,,,,,,,,,,,,,,1163.9719144800001,None,1163.9719144800001,None,1163.9719144800001,None,s,1,1.9565347540010407,1165.5214956290001,None,1165.5214956290001,None,1165.5214956290001,None,1167.5551810209981,None,1167.5551810209981,None,1167.5551810209981,None,1167.5551810209981,None,,,,,,,,,,,,,,,,,,,,,,,,,,,,,,,,,,,,,,,,,,,,001,52,2020_Jan_30_1553,spring_faces,3.1.5,60.03212871617338,
condition files/Stage2_2.xlsx,,T4,B4,r,"['s', 'r']","['Stratego', 'Risk']","[-0.15, 0.5]","[0.15, 0.5]",1,1,,,,,,,,,,,,,,,,,0,3,3,3,0,4,4,5,,,,,,,,,,,,,,,,,,,,,,,,,,,,,,,,,,,,,,,,,,,,,,,1169.5049537369996,None,1169.5049537369996,None,1169.5049537369996,None,s,0,3.0153949380000995,1171.0386215609979,None,1171.0386215609979,None,1171.0386215609979,None,1174.1220328739983,None,1174.1220328739983,None,1174.1220328739983,None,1174.1220328739983,None,,,,,,,,,,,,,,,,,,,,,,,,,,,,,,,,,,,,,,,,,,,,001,52,2020_Jan_30_1553,spring_faces,3.1.5,60.03212871617338,
condition files/Stage2_2.xlsx,,T6,B6,r,"['s', 'r']","['Stratego', 'Risk']","[-0.15, 0.5]","[0.15, 0.5]",1,1,,,,,,,,,,,,,,,,,0,3,3,3,0,5,5,1,,,,,,,,,,,,,,,,,,,,,,,,,,,,,,,,,,,,,,,,,,,,,,,1176.0719391849998,None,1176.0719391849998,None,1176.0719391849998,None,r,1,2.5268969549979374,1177.6071112619975,None,1177.6071112619975,None,1177.6071112619975,None,1180.188733193998,None,1180.188733193998,None,1180.188733193998,None,1180.188733193998,None,,,,,,,,,,,,,,,,,,,,,,,,,,,,,,,,,,,,,,,,,,,,001,52,2020_Jan_30_1553,spring_faces,3.1.5,60.03212871617338,
condition files/Stage2_1.xlsx,,B2,T2,r,"['s', 'r']","['Stratego', 'Risk']","[-0.15, 0.5]","[0.15, 0.5]",1,1,,,,,,,,,,,,,,,,,0,4,4,4,0,0,0,3,,,,,,,,,,,,,,,,,,,,,,,,,,,,,,,,,,,,,,,,,,,,,,,1182.1720449599998,None,1182.1720449599998,None,1182.1720449599998,None,r,1,7.32437577300152,1183.7057189649968,None,1183.7057189649968,None,1183.7057189649968,None,1191.0885290509977,None,1191.0885290509977,None,1191.0885290509977,None,1191.0885290509977,None,,,,,,,,,,,,,,,,,,,,,,,,,,,,,,,,,,,,,,,,,,,,001,52,2020_Jan_30_1553,spring_faces,3.1.5,60.03212871617338,
condition files/Stage2_1.xlsx,,B6,T6,r,"['s', 'r']","['Stratego', 'Risk']","[-0.15, 0.5]","[0.15, 0.5]",1,1,,,,,,,,,,,,,,,,,0,4,4,4,0,1,1,1,,,,,,,,,,,,,,,,,,,,,,,,,,,,,,,,,,,,,,,,,,,,,,,1193.0555382349994,None,1193.0555382349994,None,1193.0555382349994,None,r,1,1.3693034969983273,1194.588718256,None,1194.588718256,None,1194.588718256,None,1196.0220995069976,None,1196.0220995069976,None,1196.0220995069976,None,1196.0220995069976,None,,,,,,,,,,,,,,,,,,,,,,,,,,,,,,,,,,,,,,,,,,,,001,52,2020_Jan_30_1553,spring_faces,3.1.5,60.03212871617338,
condition files/Stage2_1.xlsx,,B4,T4,r,"['s', 'r']","['Stratego', 'Risk']","[-0.15, 0.5]","[0.15, 0.5]",1,1,,,,,,,,,,,,,,,,,0,4,4,4,0,2,2,5,,,,,,,,,,,,,,,,,,,,,,,,,,,,,,,,,,,,,,,,,,,,,,,1197.9884775439969,None,1197.9884775439969,None,1197.9884775439969,None,s,0,6.595158684998751,1199.5388602079984,None,1199.5388602079984,None,1199.5388602079984,None,1206.1888267759969,None,1206.1888267759969,None,1206.1888267759969,None,1206.1888267759969,None,,,,,,,,,,,,,,,,,,,,,,,,,,,,,,,,,,,,,,,,,,,,001,52,2020_Jan_30_1553,spring_faces,3.1.5,60.03212871617338,
