condsFile,subStage,cue1,cue2,correct,responseKeys,responseNames,cue1Position,cue2Position,cue1Opacity,cue2Opacity,stageLoop0.thisRepN,stageLoop0.thisTrialN,stageLoop0.thisN,stageLoop0.thisIndex,blockLoop0.thisRepN,blockLoop0.thisTrialN,blockLoop0.thisN,blockLoop0.thisIndex,stage1Loop.thisRepN,stage1Loop.thisTrialN,stage1Loop.thisN,stage1Loop.thisIndex,blockLoop1.thisRepN,blockLoop1.thisTrialN,blockLoop1.thisN,blockLoop1.thisIndex,stage2Loop.thisRepN,stage2Loop.thisTrialN,stage2Loop.thisN,stage2Loop.thisIndex,blockLoop2.thisRepN,blockLoop2.thisTrialN,blockLoop2.thisN,blockLoop2.thisIndex,testLoop.thisRepN,testLoop.thisTrialN,testLoop.thisN,testLoop.thisIndex,blockLoopTest.thisRepN,blockLoopTest.thisTrialN,blockLoopTest.thisN,blockLoopTest.thisIndex,cuePics,id_instr_text.started,id_instr_text.stopped,space_to_continue_2.started,space_to_continue_2.stopped,end_instructions_resp_3.keys,end_instructions_resp_3.rt,end_instructions_resp_3.started,end_instructions_resp_3.stopped,id_input_instr.started,id_input_instr.stopped,id_input_rect.started,id_input_rect.stopped,id_input_resp.keys,id_input_resp.rt,id_input_resp.started,id_input_resp.stopped,sonaID,id_input_text.started,id_input_text.stopped,final_text.started,final_text.stopped,instructions.started,instructions.stopped,end_instructions_resp.keys,end_instructions_resp.rt,end_instructions_resp.started,end_instructions_resp.stopped,space_to_continue.started,space_to_continue.stopped,instructions_stage0.started,instructions_stage0.stopped,end_instructions_resp_stage0.keys,end_instructions_resp_stage0.rt,end_instructions_resp_stage0.started,end_instructions_resp_stage0.stopped,space_to_continue_stage0.started,space_to_continue_stage0.stopped,text.started,text.stopped,resp_text1.started,resp_text1.stopped,resp_text2.started,resp_text2.stopped,trial_resp.keys,trial_resp.corr,trial_resp.rt,trial_resp.started,trial_resp.stopped,cue1Image.started,cue1Image.stopped,cue2Image.started,cue2Image.stopped,cue1Image_fb.started,cue1Image_fb.stopped,cue2Image_fb.started,cue2Image_fb.stopped,fb_text_answer.started,fb_text_answer.stopped,feedback_image.started,feedback_image.stopped,instructions_stage1.started,instructions_stage1.stopped,end_instructions_resp_stage1.keys,end_instructions_resp_stage1.rt,end_instructions_resp_stage1.started,end_instructions_resp_stage1.stopped,space_to_continue_stage1.started,space_to_continue_stage1.stopped,instructions_2.started,instructions_2.stopped,end_instructions_resp_2.keys,end_instructions_resp_2.rt,end_instructions_resp_2.started,end_instructions_resp_2.stopped,press_space_to_continue_stage2.started,press_space_to_continue_stage2.stopped,instructions_testStage1.started,instructions_testStage1.stopped,end_instructions_resp_test1.keys,end_instructions_resp_test1.rt,end_instructions_resp_test1.started,end_instructions_resp_test1.stopped,press_space_to_continue_test1.started,press_space_to_continue_test1.stopped,cue1Image_testChoice.started,cue1Image_testChoice.stopped,cue2Image_testChoice.started,cue2Image_testChoice.stopped,test_resp.keys,test_resp.corr,test_resp.rt,test_resp.started,test_resp.stopped,cue1Image_testConf.started,cue1Image_testConf.stopped,cue2Image_testConf.started,cue2Image_testConf.stopped,conf_reminder.started,conf_reminder.stopped,conf_rating.response,conf_rating.rt,conf_rating.started,conf_rating.stopped,session,participant,date,expName,psychopyVersion,frameRate,
,,,,,,,,,,,,,,,,,,,,,,,,,,,,,,,,,,,,,,,,,,,"{'none': 'pictures/20M_AN_C.png', 'alpha': 'pictures/SHINEd_pepper.png', 'beta': 'pictures/SHINEd_apple.png', 'theta': 'pictures/SHINEd_pear.png', 'phi': 'pictures/SHINEd_melon.png', 'T1': 'pictures/25M_AN_C.png', 'T2': 'pictures/34M_AN_C.png', 'T3': 'pictures/36M_AN_C.png', 'T4': 'pictures/26M_AN_C.png', 'T5': 'pictures/31M_AN_C.png', 'T6': 'pictures/38M_AN_C.png', 'B1': 'pictures/20M_NE_C.png', 'B2': 'pictures/22M_NE_C.png', 'B3': 'pictures/33M_NE_C.png', 'B4': 'pictures/32M_NE_C.png', 'B5': 'pictures/37M_NE_C.png', 'B6': 'pictures/23M_NE_C.png'}",18.557799267000064,None,23.540886208000074,None,space,11.497741323000128,23.540886208000074,None,,,,,,,,,,,,,,,,,,,,,,,,,,,,,,,,,,,,,,,,,,,,,,,,,,,,,,,,,,,,,,,,,,,,,,,,,,,,,,,,,,,,,,,,,,,,,,,,001,54,2020_Feb_04_0956,spring_faces,3.1.5,60.14355050602499,
,,,,,,,,,,,,,,,,,,,,,,,,,,,,,,,,,,,,,,,,,,,,,,,,,,,,35.60719776499991,None,35.60719776499991,None,"['1', '0', '2', '1', 'f', 'a', 'm', 'u', 'l']","[28.455449390000012, 28.615449760000047, 29.447373375000097, 29.607471901000054, 36.37548329900005, 37.575485568999966, 41.79945141200005, 41.9913788880001, 42.151387745999955]",35.60719776499991,None,,,,,,,,,,,,,,,,,,,,,,,,,,,,,,,,,,,,,,,,,,,,,,,,,,,,,,,,,,,,,,,,,,,,,,,,,,,,,,,,,,,,,,,,001,54,2020_Feb_04_0956,spring_faces,3.1.5,60.14355050602499,
,,,,,,,,,,,,,,,,,,,,,,,,,,,,,,,,,,,,,,,,,,,,,,,,,,,,,,,,,,,,1021famul,35.60719776499991,None,35.60719776499991,None,82.84145749899994,None,space,1.7416081510000367,87.84109355600003,None,,,,,,,,,,,,,,,,,,,,,,,,,,,,,,,,,,,,,,,,,,,,,,,,,,,,,,,,,,,,,,,,,,,,,,,,,,,,,001,54,2020_Feb_04_0956,spring_faces,3.1.5,60.14355050602499,
,,,,,,,,,,,,,,,,,,,,,,,,,,,,,,,,,,,,,,,,,,,,,,,,,,,,,,,,,,,,,,,,,,,,,,,87.84109355600003,None,89.62415651600008,None,space,13.966926289999947,94.60767293799995,None,,,,,,,,,,,,,,,,,,,,,,,,,,,,,,,,,,,,,,,,,,,,,,,,,,,,,,,,,,,,,,,,,,,,,001,54,2020_Feb_04_0956,spring_faces,3.1.5,60.14355050602499,
condition files/Stage0a.xlsx,0a,alpha,none,h,"['h', 'g']","['Chess', 'Go']","[0, 0.5]","[0, 0]",1,0,0,0,0,0,0,0,0,0,,,,,,,,,,,,,,,,,,,,,,,,,,,,,,,,,,,,,,,,,,,,,,,,,,,,,,,,,,,,,94.60767293799995,None,108.74089872400009,None,108.74089872400009,None,108.74089872400009,None,h,1,2.9987505929998406,110.40791056500007,None,110.40791056500007,None,110.40791056500007,None,113.50725381200004,None,113.50725381200004,None,113.50725381200004,None,113.50725381200004,None,,,,,,,,,,,,,,,,,,,,,,,,,,,,,,,,,,,,,,,,,,,,001,54,2020_Feb_04_0956,spring_faces,3.1.5,60.14355050602499,
condition files/Stage0a.xlsx,0a,beta,none,g,"['h', 'g']","['Chess', 'Go']","[0, 0.5]","[0, 0]",1,0,0,0,0,0,0,1,1,1,,,,,,,,,,,,,,,,,,,,,,,,,,,,,,,,,,,,,,,,,,,,,,,,,,,,,,,,,,,,,,,115.42410116099995,None,115.42410116099995,None,115.42410116099995,None,h,0,1.19992734199991,116.97462358500002,None,116.97462358500002,None,116.97462358500002,None,118.24110100300004,None,118.24110100300004,None,118.24110100300004,None,118.24110100300004,None,,,,,,,,,,,,,,,,,,,,,,,,,,,,,,,,,,,,,,,,,,,,001,54,2020_Feb_04_0956,spring_faces,3.1.5,60.14355050602499,
condition files/Stage0a.xlsx,0a,alpha,none,h,"['h', 'g']","['Chess', 'Go']","[0, 0.5]","[0, 0]",1,0,0,1,1,1,0,0,0,0,,,,,,,,,,,,,,,,,,,,,,,,,,,,,,,,,,,,,,,,,,,,,,,,,,,,,,,,,,,,,,,120.2078439070001,None,120.2078439070001,None,120.2078439070001,None,h,1,1.6015341660001923,121.74106202500002,None,121.74106202500002,None,121.74106202500002,None,123.40764457,None,123.40764457,None,123.40764457,None,123.40764457,None,,,,,,,,,,,,,,,,,,,,,,,,,,,,,,,,,,,,,,,,,,,,001,54,2020_Feb_04_0956,spring_faces,3.1.5,60.14355050602499,
condition files/Stage0a.xlsx,0a,beta,none,g,"['h', 'g']","['Chess', 'Go']","[0, 0.5]","[0, 0]",1,0,0,1,1,1,0,1,1,1,,,,,,,,,,,,,,,,,,,,,,,,,,,,,,,,,,,,,,,,,,,,,,,,,,,,,,,,,,,,,,,125.37363733200004,None,125.37363733200004,None,125.37363733200004,None,g,1,0.49937983399991026,126.90729349699996,None,126.90729349699996,None,126.90729349699996,None,127.45791167700008,None,127.45791167700008,None,127.45791167700008,None,127.45791167700008,None,,,,,,,,,,,,,,,,,,,,,,,,,,,,,,,,,,,,,,,,,,,,001,54,2020_Feb_04_0956,spring_faces,3.1.5,60.14355050602499,
condition files/Stage0a.xlsx,0a,alpha,none,h,"['h', 'g']","['Chess', 'Go']","[0, 0.5]","[0, 0]",1,0,0,2,2,2,0,0,0,0,,,,,,,,,,,,,,,,,,,,,,,,,,,,,,,,,,,,,,,,,,,,,,,,,,,,,,,,,,,,,,,129.44088603299997,None,129.44088603299997,None,129.44088603299997,None,h,1,0.7197839779998958,130.97488132600006,None,130.97488132600006,None,130.97488132600006,None,131.75737249600002,None,131.75737249600002,None,131.75737249600002,None,131.75737249600002,None,,,,,,,,,,,,,,,,,,,,,,,,,,,,,,,,,,,,,,,,,,,,001,54,2020_Feb_04_0956,spring_faces,3.1.5,60.14355050602499,
condition files/Stage0a.xlsx,0a,beta,none,g,"['h', 'g']","['Chess', 'Go']","[0, 0.5]","[0, 0]",1,0,0,2,2,2,0,1,1,1,,,,,,,,,,,,,,,,,,,,,,,,,,,,,,,,,,,,,,,,,,,,,,,,,,,,,,,,,,,,,,,133.72412235299998,None,133.72412235299998,None,133.72412235299998,None,g,1,0.6774414999999863,135.25725455099996,None,135.25725455099996,None,135.25725455099996,None,135.99100266999994,None,135.99100266999994,None,135.99100266999994,None,135.99100266999994,None,,,,,,,,,,,,,,,,,,,,,,,,,,,,,,,,,,,,,,,,,,,,001,54,2020_Feb_04_0956,spring_faces,3.1.5,60.14355050602499,
condition files/Stage0a.xlsx,0a,alpha,none,h,"['h', 'g']","['Chess', 'Go']","[0, 0.5]","[0, 0]",1,0,0,3,3,3,0,0,0,0,,,,,,,,,,,,,,,,,,,,,,,,,,,,,,,,,,,,,,,,,,,,,,,,,,,,,,,,,,,,,,,137.97396569400007,None,137.97396569400007,None,137.97396569400007,None,h,1,1.0985293910000564,139.5081388210001,None,139.5081388210001,None,139.5081388210001,None,140.65787855899998,None,140.65787855899998,None,140.65787855899998,None,140.65787855899998,None,,,,,,,,,,,,,,,,,,,,,,,,,,,,,,,,,,,,,,,,,,,,001,54,2020_Feb_04_0956,spring_faces,3.1.5,60.14355050602499,
condition files/Stage0a.xlsx,0a,beta,none,g,"['h', 'g']","['Chess', 'Go']","[0, 0.5]","[0, 0]",1,0,0,3,3,3,0,1,1,1,,,,,,,,,,,,,,,,,,,,,,,,,,,,,,,,,,,,,,,,,,,,,,,,,,,,,,,,,,,,,,,142.62408354900003,None,142.62408354900003,None,142.62408354900003,None,g,1,1.1364012839999305,144.15824285999997,None,144.15824285999997,None,144.15824285999997,None,145.357268276,None,145.357268276,None,145.357268276,None,145.357268276,None,,,,,,,,,,,,,,,,,,,,,,,,,,,,,,,,,,,,,,,,,,,,001,54,2020_Feb_04_0956,spring_faces,3.1.5,60.14355050602499,
condition files/Stage0a.xlsx,0a,alpha,none,h,"['h', 'g']","['Chess', 'Go']","[0, 0.5]","[0, 0]",1,0,0,4,4,4,0,0,0,0,,,,,,,,,,,,,,,,,,,,,,,,,,,,,,,,,,,,,,,,,,,,,,,,,,,,,,,,,,,,,,,147.34130292200007,None,147.34130292200007,None,147.34130292200007,None,h,1,1.0287530900000093,148.85785439400001,None,148.85785439400001,None,148.85785439400001,None,149.9400391019999,None,149.9400391019999,None,149.9400391019999,None,149.9400391019999,None,,,,,,,,,,,,,,,,,,,,,,,,,,,,,,,,,,,,,,,,,,,,001,54,2020_Feb_04_0956,spring_faces,3.1.5,60.14355050602499,
condition files/Stage0a.xlsx,0a,beta,none,g,"['h', 'g']","['Chess', 'Go']","[0, 0.5]","[0, 0]",1,0,0,4,4,4,0,1,1,1,,,,,,,,,,,,,,,,,,,,,,,,,,,,,,,,,,,,,,,,,,,,,,,,,,,,,,,,,,,,,,,151.90694952500007,None,151.90694952500007,None,151.90694952500007,None,g,1,0.7333278559999599,153.44124349799995,None,153.44124349799995,None,153.44124349799995,None,154.22445115000005,None,154.22445115000005,None,154.22445115000005,None,154.22445115000005,None,,,,,,,,,,,,,,,,,,,,,,,,,,,,,,,,,,,,,,,,,,,,001,54,2020_Feb_04_0956,spring_faces,3.1.5,60.14355050602499,
condition files/Stage0a.xlsx,0a,beta,none,g,"['h', 'g']","['Chess', 'Go']","[0, 0.5]","[0, 0]",1,0,0,5,5,5,0,0,0,1,,,,,,,,,,,,,,,,,,,,,,,,,,,,,,,,,,,,,,,,,,,,,,,,,,,,,,,,,,,,,,,156.20783105400005,None,156.20783105400005,None,156.20783105400005,None,h,0,1.4098268190000454,157.740768721,None,157.740768721,None,157.740768721,None,159.20747339900004,None,159.20747339900004,None,159.20747339900004,None,159.20747339900004,None,,,,,,,,,,,,,,,,,,,,,,,,,,,,,,,,,,,,,,,,,,,,001,54,2020_Feb_04_0956,spring_faces,3.1.5,60.14355050602499,
condition files/Stage0a.xlsx,0a,alpha,none,h,"['h', 'g']","['Chess', 'Go']","[0, 0.5]","[0, 0]",1,0,0,5,5,5,0,1,1,0,,,,,,,,,,,,,,,,,,,,,,,,,,,,,,,,,,,,,,,,,,,,,,,,,,,,,,,,,,,,,,,161.17354000799992,None,161.17354000799992,None,161.17354000799992,None,h,1,0.9866084669999964,162.70804910099992,None,162.70804910099992,None,162.70804910099992,None,163.75787881199994,None,163.75787881199994,None,163.75787881199994,None,163.75787881199994,None,,,,,,,,,,,,,,,,,,,,,,,,,,,,,,,,,,,,,,,,,,,,001,54,2020_Feb_04_0956,spring_faces,3.1.5,60.14355050602499,
condition files/Stage0b_1.xlsx,0b,alpha,none,h,"['h', 'g']","['Chess', 'Go']","[-0.15, 0.5]","[0.15, 0.5]",1,0,0,6,6,6,0,0,0,0,,,,,,,,,,,,,,,,,,,,,,,,,,,,,,,,,,,,,,,,,,,,,,,,,,,,,,,,,,,,,,,165.7745141989999,None,165.7745141989999,None,165.7745141989999,None,h,1,2.884034561000135,167.27455817600003,None,167.27455817600003,None,167.27455817600003,None,170.22424163999995,None,170.22424163999995,None,170.22424163999995,None,170.22424163999995,None,,,,,,,,,,,,,,,,,,,,,,,,,,,,,,,,,,,,,,,,,,,,001,54,2020_Feb_04_0956,spring_faces,3.1.5,60.14355050602499,
condition files/Stage0b_1.xlsx,0b,none,beta,g,"['h', 'g']","['Chess', 'Go']","[-0.15, 0.5]","[0.15, 0.5]",0,1,0,6,6,6,0,1,1,1,,,,,,,,,,,,,,,,,,,,,,,,,,,,,,,,,,,,,,,,,,,,,,,,,,,,,,,,,,,,,,,172.1908888360001,None,172.1908888360001,None,172.1908888360001,None,g,1,0.5775517940001009,173.74106363400006,None,173.74106363400006,None,173.74106363400006,None,174.3796175079999,None,174.3796175079999,None,174.3796175079999,None,174.3796175079999,None,,,,,,,,,,,,,,,,,,,,,,,,,,,,,,,,,,,,,,,,,,,,001,54,2020_Feb_04_0956,spring_faces,3.1.5,60.14355050602499,
condition files/Stage0b_2.xlsx,0b,beta,none,g,"['h', 'g']","['Chess', 'Go']","[-0.15, 0.5]","[0.15, 0.5]",1,0,0,7,7,7,0,0,0,1,,,,,,,,,,,,,,,,,,,,,,,,,,,,,,,,,,,,,,,,,,,,,,,,,,,,,,,,,,,,,,,176.4076552250001,None,176.4076552250001,None,176.4076552250001,None,g,1,1.0832960249999815,177.9073706879999,None,177.9073706879999,None,177.9073706879999,None,179.04119857699993,None,179.04119857699993,None,179.04119857699993,None,179.04119857699993,None,,,,,,,,,,,,,,,,,,,,,,,,,,,,,,,,,,,,,,,,,,,,001,54,2020_Feb_04_0956,spring_faces,3.1.5,60.14355050602499,
condition files/Stage0b_2.xlsx,0b,none,alpha,h,"['h', 'g']","['Chess', 'Go']","[-0.15, 0.5]","[0.15, 0.5]",0,1,0,7,7,7,0,1,1,0,,,,,,,,,,,,,,,,,,,,,,,,,,,,,,,,,,,,,,,,,,,,,,,,,,,,,,,,,,,,,,,181.006771652,None,181.006771652,None,181.006771652,None,h,1,0.6693442669998149,182.5453183730001,None,182.5453183730001,None,182.5453183730001,None,183.27626778500007,None,183.27626778500007,None,183.27626778500007,None,183.27626778500007,None,,,,,,,,,,,,,,,,,,,,,,,,,,,,,,,,,,,,,,,,,,,,001,54,2020_Feb_04_0956,spring_faces,3.1.5,60.14355050602499,
condition files/Stage0b_1.xlsx,0b,none,beta,g,"['h', 'g']","['Chess', 'Go']","[-0.15, 0.5]","[0.15, 0.5]",0,1,0,8,8,8,0,0,0,1,,,,,,,,,,,,,,,,,,,,,,,,,,,,,,,,,,,,,,,,,,,,,,,,,,,,,,,,,,,,,,,185.25749835400006,None,185.25749835400006,None,185.25749835400006,None,g,1,0.9662933100000828,186.79231699799993,None,186.79231699799993,None,186.79231699799993,None,187.82370687599996,None,187.82370687599996,None,187.82370687599996,None,187.82370687599996,None,,,,,,,,,,,,,,,,,,,,,,,,,,,,,,,,,,,,,,,,,,,,001,54,2020_Feb_04_0956,spring_faces,3.1.5,60.14355050602499,
condition files/Stage0b_1.xlsx,0b,alpha,none,h,"['h', 'g']","['Chess', 'Go']","[-0.15, 0.5]","[0.15, 0.5]",1,0,0,8,8,8,0,1,1,0,,,,,,,,,,,,,,,,,,,,,,,,,,,,,,,,,,,,,,,,,,,,,,,,,,,,,,,,,,,,,,,189.79061315700005,None,189.79061315700005,None,189.79061315700005,None,h,1,0.637947757999882,191.32872554999994,None,191.32872554999994,None,191.32872554999994,None,192.02857233200007,None,192.02857233200007,None,192.02857233200007,None,192.02857233200007,None,,,,,,,,,,,,,,,,,,,,,,,,,,,,,,,,,,,,,,,,,,,,001,54,2020_Feb_04_0956,spring_faces,3.1.5,60.14355050602499,
condition files/Stage0b_2.xlsx,0b,beta,none,g,"['h', 'g']","['Chess', 'Go']","[-0.15, 0.5]","[0.15, 0.5]",1,0,0,9,9,9,0,0,0,1,,,,,,,,,,,,,,,,,,,,,,,,,,,,,,,,,,,,,,,,,,,,,,,,,,,,,,,,,,,,,,,194.007671329,None,194.007671329,None,194.007671329,None,g,1,0.6973808259999714,195.5412564359999,None,195.5412564359999,None,195.5412564359999,None,196.29076920600005,None,196.29076920600005,None,196.29076920600005,None,196.29076920600005,None,,,,,,,,,,,,,,,,,,,,,,,,,,,,,,,,,,,,,,,,,,,,001,54,2020_Feb_04_0956,spring_faces,3.1.5,60.14355050602499,
condition files/Stage0b_2.xlsx,0b,none,alpha,h,"['h', 'g']","['Chess', 'Go']","[-0.15, 0.5]","[0.15, 0.5]",0,1,0,9,9,9,0,1,1,0,,,,,,,,,,,,,,,,,,,,,,,,,,,,,,,,,,,,,,,,,,,,,,,,,,,,,,,,,,,,,,,198.2576764119999,None,198.2576764119999,None,198.2576764119999,None,h,1,0.7002138769998965,199.79445413400003,None,199.79445413400003,None,199.79445413400003,None,200.56335422300003,None,200.56335422300003,None,200.56335422300003,None,200.56335422300003,None,,,,,,,,,,,,,,,,,,,,,,,,,,,,,,,,,,,,,,,,,,,,001,54,2020_Feb_04_0956,spring_faces,3.1.5,60.14355050602499,
condition files/Stage0b_1.xlsx,0b,none,beta,g,"['h', 'g']","['Chess', 'Go']","[-0.15, 0.5]","[0.15, 0.5]",0,1,0,10,10,10,0,0,0,1,,,,,,,,,,,,,,,,,,,,,,,,,,,,,,,,,,,,,,,,,,,,,,,,,,,,,,,,,,,,,,,202.54052440500004,None,202.54052440500004,None,202.54052440500004,None,g,1,0.46822167499999523,204.0744263480001,None,204.0744263480001,None,204.0744263480001,None,204.60709883100003,None,204.60709883100003,None,204.60709883100003,None,204.60709883100003,None,,,,,,,,,,,,,,,,,,,,,,,,,,,,,,,,,,,,,,,,,,,,001,54,2020_Feb_04_0956,spring_faces,3.1.5,60.14355050602499,
condition files/Stage0b_1.xlsx,0b,alpha,none,h,"['h', 'g']","['Chess', 'Go']","[-0.15, 0.5]","[0.15, 0.5]",1,0,0,10,10,10,0,1,1,0,,,,,,,,,,,,,,,,,,,,,,,,,,,,,,,,,,,,,,,,,,,,,,,,,,,,,,,,,,,,,,,206.57420041699993,None,206.57420041699993,None,206.57420041699993,None,h,1,0.7540808670000843,208.124572317,None,208.124572317,None,208.124572317,None,208.94392036699992,None,208.94392036699992,None,208.94392036699992,None,208.94392036699992,None,,,,,,,,,,,,,,,,,,,,,,,,,,,,,,,,,,,,,,,,,,,,001,54,2020_Feb_04_0956,spring_faces,3.1.5,60.14355050602499,
condition files/Stage0b_2.xlsx,0b,beta,none,g,"['h', 'g']","['Chess', 'Go']","[-0.15, 0.5]","[0.15, 0.5]",1,0,0,11,11,11,0,0,0,1,,,,,,,,,,,,,,,,,,,,,,,,,,,,,,,,,,,,,,,,,,,,,,,,,,,,,,,,,,,,,,,210.9243799850001,None,210.9243799850001,None,210.9243799850001,None,g,1,0.5811530260000382,212.45747270800007,None,212.45747270800007,None,212.45747270800007,None,213.09033389599995,None,213.09033389599995,None,213.09033389599995,None,213.09033389599995,None,,,,,,,,,,,,,,,,,,,,,,,,,,,,,,,,,,,,,,,,,,,,001,54,2020_Feb_04_0956,spring_faces,3.1.5,60.14355050602499,
condition files/Stage0b_2.xlsx,0b,none,alpha,h,"['h', 'g']","['Chess', 'Go']","[-0.15, 0.5]","[0.15, 0.5]",0,1,0,11,11,11,0,1,1,0,,,,,,,,,,,,,,,,,,,,,,,,,,,,,,,,,,,,,,,,,,,,,,,,,,,,,,,,,,,,,,,215.0576001899999,None,215.0576001899999,None,215.0576001899999,None,h,1,0.8474553740002193,216.60712652200004,None,216.60712652200004,None,216.60712652200004,None,217.5119520359999,None,217.5119520359999,None,217.5119520359999,None,217.5119520359999,None,,,,,,,,,,,,,,,,,,,,,,,,,,,,,,,,,,,,,,,,,,,,001,54,2020_Feb_04_0956,spring_faces,3.1.5,60.14355050602499,
condition files/Stage0c_1.xlsx,0c,theta,alpha,h,"['h', 'g']","['Chess', 'Go']","[-0.15, 0.5]","[0.15, 0.5]",1,1,0,12,12,12,0,0,0,0,,,,,,,,,,,,,,,,,,,,,,,,,,,,,,,,,,,,,,,,,,,,,,,,,,,,,,,,,,,,,,,219.54090485899997,None,219.54090485899997,None,219.54090485899997,None,h,1,2.1901739790000647,221.04047996200006,None,221.04047996200006,None,221.04047996200006,None,223.2907773029999,None,223.2907773029999,None,223.2907773029999,None,223.2907773029999,None,,,,,,,,,,,,,,,,,,,,,,,,,,,,,,,,,,,,,,,,,,,,001,54,2020_Feb_04_0956,spring_faces,3.1.5,60.14355050602499,
condition files/Stage0c_1.xlsx,0c,beta,theta,g,"['h', 'g']","['Chess', 'Go']","[-0.15, 0.5]","[0.15, 0.5]",1,1,0,12,12,12,0,1,1,2,,,,,,,,,,,,,,,,,,,,,,,,,,,,,,,,,,,,,,,,,,,,,,,,,,,,,,,,,,,,,,,225.25690751699995,None,225.25690751699995,None,225.25690751699995,None,g,1,1.047523860999945,226.79109503099994,None,226.79109503099994,None,226.79109503099994,None,227.89067653200004,None,227.89067653200004,None,227.89067653200004,None,227.89067653200004,None,,,,,,,,,,,,,,,,,,,,,,,,,,,,,,,,,,,,,,,,,,,,001,54,2020_Feb_04_0956,spring_faces,3.1.5,60.14355050602499,
condition files/Stage0c_1.xlsx,0c,phi,beta,g,"['h', 'g']","['Chess', 'Go']","[-0.15, 0.5]","[0.15, 0.5]",1,1,0,12,12,12,0,2,2,3,,,,,,,,,,,,,,,,,,,,,,,,,,,,,,,,,,,,,,,,,,,,,,,,,,,,,,,,,,,,,,,229.85779408200005,None,229.85779408200005,None,229.85779408200005,None,g,1,1.3752148759999727,231.40745923999998,None,231.40745923999998,None,231.40745923999998,None,232.84092988499992,None,232.84092988499992,None,232.84092988499992,None,232.84092988499992,None,,,,,,,,,,,,,,,,,,,,,,,,,,,,,,,,,,,,,,,,,,,,001,54,2020_Feb_04_0956,spring_faces,3.1.5,60.14355050602499,
condition files/Stage0c_1.xlsx,0c,alpha,phi,h,"['h', 'g']","['Chess', 'Go']","[-0.15, 0.5]","[0.15, 0.5]",1,1,0,12,12,12,0,3,3,1,,,,,,,,,,,,,,,,,,,,,,,,,,,,,,,,,,,,,,,,,,,,,,,,,,,,,,,,,,,,,,,234.80727086000002,None,234.80727086000002,None,234.80727086000002,None,h,1,1.4170720469999196,236.341490603,None,236.341490603,None,236.341490603,None,237.841026672,None,237.841026672,None,237.841026672,None,237.841026672,None,,,,,,,,,,,,,,,,,,,,,,,,,,,,,,,,,,,,,,,,,,,,001,54,2020_Feb_04_0956,spring_faces,3.1.5,60.14355050602499,
condition files/Stage0c_2.xlsx,0c,alpha,theta,h,"['h', 'g']","['Chess', 'Go']","[-0.15, 0.5]","[0.15, 0.5]",1,1,0,13,13,13,0,0,0,0,,,,,,,,,,,,,,,,,,,,,,,,,,,,,,,,,,,,,,,,,,,,,,,,,,,,,,,,,,,,,,,239.82457933599994,None,239.82457933599994,None,239.82457933599994,None,h,1,2.017623581999942,241.34097603200007,None,241.34097603200007,None,241.34097603200007,None,243.41141783900002,None,243.41141783900002,None,243.41141783900002,None,243.41141783900002,None,,,,,,,,,,,,,,,,,,,,,,,,,,,,,,,,,,,,,,,,,,,,001,54,2020_Feb_04_0956,spring_faces,3.1.5,60.14355050602499,
condition files/Stage0c_2.xlsx,0c,beta,phi,g,"['h', 'g']","['Chess', 'Go']","[-0.15, 0.5]","[0.15, 0.5]",1,1,0,13,13,13,0,1,1,3,,,,,,,,,,,,,,,,,,,,,,,,,,,,,,,,,,,,,,,,,,,,,,,,,,,,,,,,,,,,,,,245.39021318100004,None,245.39021318100004,None,245.39021318100004,None,g,1,1.3145126130000335,246.92410939599995,None,246.92410939599995,None,246.92410939599995,None,248.29107606499997,None,248.29107606499997,None,248.29107606499997,None,248.29107606499997,None,,,,,,,,,,,,,,,,,,,,,,,,,,,,,,,,,,,,,,,,,,,,001,54,2020_Feb_04_0956,spring_faces,3.1.5,60.14355050602499,
condition files/Stage0c_2.xlsx,0c,theta,beta,g,"['h', 'g']","['Chess', 'Go']","[-0.15, 0.5]","[0.15, 0.5]",1,1,0,13,13,13,0,2,2,2,,,,,,,,,,,,,,,,,,,,,,,,,,,,,,,,,,,,,,,,,,,,,,,,,,,,,,,,,,,,,,,250.25744576500006,None,250.25744576500006,None,250.25744576500006,None,g,1,1.0238508010002079,251.7907746369999,None,251.7907746369999,None,251.7907746369999,None,252.86112877000005,None,252.86112877000005,None,252.86112877000005,None,252.86112877000005,None,,,,,,,,,,,,,,,,,,,,,,,,,,,,,,,,,,,,,,,,,,,,001,54,2020_Feb_04_0956,spring_faces,3.1.5,60.14355050602499,
condition files/Stage0c_2.xlsx,0c,phi,alpha,h,"['h', 'g']","['Chess', 'Go']","[-0.15, 0.5]","[0.15, 0.5]",1,1,0,13,13,13,0,3,3,1,,,,,,,,,,,,,,,,,,,,,,,,,,,,,,,,,,,,,,,,,,,,,,,,,,,,,,,,,,,,,,,254.84100776500009,None,254.84100776500009,None,254.84100776500009,None,h,1,0.9522622939998655,256.3743766350001,None,256.3743766350001,None,256.3743766350001,None,257.39117347399997,None,257.39117347399997,None,257.39117347399997,None,257.39117347399997,None,,,,,,,,,,,,,,,,,,,,,,,,,,,,,,,,,,,,,,,,,,,,001,54,2020_Feb_04_0956,spring_faces,3.1.5,60.14355050602499,
condition files/Stage0c_1.xlsx,0c,phi,beta,g,"['h', 'g']","['Chess', 'Go']","[-0.15, 0.5]","[0.15, 0.5]",1,1,0,14,14,14,0,0,0,3,,,,,,,,,,,,,,,,,,,,,,,,,,,,,,,,,,,,,,,,,,,,,,,,,,,,,,,,,,,,,,,259.374590227,None,259.374590227,None,259.374590227,None,g,1,0.9628870050000842,260.9077521480001,None,260.9077521480001,None,260.9077521480001,None,261.92396796799994,None,261.92396796799994,None,261.92396796799994,None,261.92396796799994,None,,,,,,,,,,,,,,,,,,,,,,,,,,,,,,,,,,,,,,,,,,,,001,54,2020_Feb_04_0956,spring_faces,3.1.5,60.14355050602499,
condition files/Stage0c_1.xlsx,0c,beta,theta,g,"['h', 'g']","['Chess', 'Go']","[-0.15, 0.5]","[0.15, 0.5]",1,1,0,14,14,14,0,1,1,2,,,,,,,,,,,,,,,,,,,,,,,,,,,,,,,,,,,,,,,,,,,,,,,,,,,,,,,,,,,,,,,263.89029294400007,None,263.89029294400007,None,263.89029294400007,None,g,1,1.2466512930000135,265.42396914899996,None,265.42396914899996,None,265.42396914899996,None,266.7098182080001,None,266.7098182080001,None,266.7098182080001,None,266.7098182080001,None,,,,,,,,,,,,,,,,,,,,,,,,,,,,,,,,,,,,,,,,,,,,001,54,2020_Feb_04_0956,spring_faces,3.1.5,60.14355050602499,
condition files/Stage0c_1.xlsx,0c,alpha,phi,h,"['h', 'g']","['Chess', 'Go']","[-0.15, 0.5]","[0.15, 0.5]",1,1,0,14,14,14,0,2,2,1,,,,,,,,,,,,,,,,,,,,,,,,,,,,,,,,,,,,,,,,,,,,,,,,,,,,,,,,,,,,,,,268.6903850199999,None,268.6903850199999,None,268.6903850199999,None,h,1,1.1023182090000319,270.22430084300004,None,270.22430084300004,None,270.22430084300004,None,271.39122810599997,None,271.39122810599997,None,271.39122810599997,None,271.39122810599997,None,,,,,,,,,,,,,,,,,,,,,,,,,,,,,,,,,,,,,,,,,,,,001,54,2020_Feb_04_0956,spring_faces,3.1.5,60.14355050602499,
condition files/Stage0c_1.xlsx,0c,theta,alpha,h,"['h', 'g']","['Chess', 'Go']","[-0.15, 0.5]","[0.15, 0.5]",1,1,0,14,14,14,0,3,3,0,,,,,,,,,,,,,,,,,,,,,,,,,,,,,,,,,,,,,,,,,,,,,,,,,,,,,,,,,,,,,,,273.374432651,None,273.374432651,None,273.374432651,None,h,1,1.123542241999985,274.89102447799996,None,274.89102447799996,None,274.89102447799996,None,276.05976903400006,None,276.05976903400006,None,276.05976903400006,None,276.05976903400006,None,,,,,,,,,,,,,,,,,,,,,,,,,,,,,,,,,,,,,,,,,,,,001,54,2020_Feb_04_0956,spring_faces,3.1.5,60.14355050602499,
condition files/Stage0c_2.xlsx,0c,beta,phi,g,"['h', 'g']","['Chess', 'Go']","[-0.15, 0.5]","[0.15, 0.5]",1,1,0,15,15,15,0,0,0,3,,,,,,,,,,,,,,,,,,,,,,,,,,,,,,,,,,,,,,,,,,,,,,,,,,,,,,,,,,,,,,,278.0575213689999,None,278.0575213689999,None,278.0575213689999,None,g,1,1.2881639239999458,279.5904993429999,None,279.5904993429999,None,279.5904993429999,None,280.94096151200006,None,280.94096151200006,None,280.94096151200006,None,280.94096151200006,None,,,,,,,,,,,,,,,,,,,,,,,,,,,,,,,,,,,,,,,,,,,,001,54,2020_Feb_04_0956,spring_faces,3.1.5,60.14355050602499,
condition files/Stage0c_2.xlsx,0c,theta,beta,g,"['h', 'g']","['Chess', 'Go']","[-0.15, 0.5]","[0.15, 0.5]",1,1,0,15,15,15,0,1,1,2,,,,,,,,,,,,,,,,,,,,,,,,,,,,,,,,,,,,,,,,,,,,,,,,,,,,,,,,,,,,,,,282.907348727,None,282.907348727,None,282.907348727,None,g,1,1.4935315410000385,284.4411340019999,None,284.4411340019999,None,284.4411340019999,None,285.97669230099996,None,285.97669230099996,None,285.97669230099996,None,285.97669230099996,None,,,,,,,,,,,,,,,,,,,,,,,,,,,,,,,,,,,,,,,,,,,,001,54,2020_Feb_04_0956,spring_faces,3.1.5,60.14355050602499,
condition files/Stage0c_2.xlsx,0c,alpha,theta,h,"['h', 'g']","['Chess', 'Go']","[-0.15, 0.5]","[0.15, 0.5]",1,1,0,15,15,15,0,2,2,0,,,,,,,,,,,,,,,,,,,,,,,,,,,,,,,,,,,,,,,,,,,,,,,,,,,,,,,,,,,,,,,287.9744190419999,None,287.9744190419999,None,287.9744190419999,None,h,1,5.179642434000016,289.490981162,None,289.490981162,None,289.490981162,None,294.723932549,None,294.723932549,None,294.723932549,None,294.723932549,None,,,,,,,,,,,,,,,,,,,,,,,,,,,,,,,,,,,,,,,,,,,,001,54,2020_Feb_04_0956,spring_faces,3.1.5,60.14355050602499,
condition files/Stage0c_2.xlsx,0c,phi,alpha,h,"['h', 'g']","['Chess', 'Go']","[-0.15, 0.5]","[0.15, 0.5]",1,1,0,15,15,15,0,3,3,1,,,,,,,,,,,,,,,,,,,,,,,,,,,,,,,,,,,,,,,,,,,,,,,,,,,,,,,,,,,,,,,296.69040172199993,None,296.69040172199993,None,296.69040172199993,None,h,1,1.006199567000067,298.2244413809999,None,298.2244413809999,None,298.2244413809999,None,299.2760725610001,None,299.2760725610001,None,299.2760725610001,None,299.2760725610001,None,,,,,,,,,,,,,,,,,,,,,,,,,,,,,,,,,,,,,,,,,,,,001,54,2020_Feb_04_0956,spring_faces,3.1.5,60.14355050602499,
condition files/Stage0c_1.xlsx,0c,theta,alpha,h,"['h', 'g']","['Chess', 'Go']","[-0.15, 0.5]","[0.15, 0.5]",1,1,0,16,16,16,0,0,0,0,,,,,,,,,,,,,,,,,,,,,,,,,,,,,,,,,,,,,,,,,,,,,,,,,,,,,,,,,,,,,,,301.27474316000007,None,301.27474316000007,None,301.27474316000007,None,h,1,1.1589622839999265,302.807728475,None,302.807728475,None,302.807728475,None,304.0091482539999,None,304.0091482539999,None,304.0091482539999,None,304.0091482539999,None,,,,,,,,,,,,,,,,,,,,,,,,,,,,,,,,,,,,,,,,,,,,001,54,2020_Feb_04_0956,spring_faces,3.1.5,60.14355050602499,
condition files/Stage0c_1.xlsx,0c,alpha,phi,h,"['h', 'g']","['Chess', 'Go']","[-0.15, 0.5]","[0.15, 0.5]",1,1,0,16,16,16,0,1,1,1,,,,,,,,,,,,,,,,,,,,,,,,,,,,,,,,,,,,,,,,,,,,,,,,,,,,,,,,,,,,,,,305.99082792900003,None,305.99082792900003,None,305.99082792900003,None,h,1,1.3060298380000859,307.5246213109999,None,307.5246213109999,None,307.5246213109999,None,308.87694151000005,None,308.87694151000005,None,308.87694151000005,None,308.87694151000005,None,,,,,,,,,,,,,,,,,,,,,,,,,,,,,,,,,,,,,,,,,,,,001,54,2020_Feb_04_0956,spring_faces,3.1.5,60.14355050602499,
condition files/Stage0c_1.xlsx,0c,beta,theta,g,"['h', 'g']","['Chess', 'Go']","[-0.15, 0.5]","[0.15, 0.5]",1,1,0,16,16,16,0,2,2,2,,,,,,,,,,,,,,,,,,,,,,,,,,,,,,,,,,,,,,,,,,,,,,,,,,,,,,,,,,,,,,,310.85744545600005,None,310.85744545600005,None,310.85744545600005,None,g,1,1.6237451829999827,312.390896417,None,312.390896417,None,312.390896417,None,314.0743112130001,None,314.0743112130001,None,314.0743112130001,None,314.0743112130001,None,,,,,,,,,,,,,,,,,,,,,,,,,,,,,,,,,,,,,,,,,,,,001,54,2020_Feb_04_0956,spring_faces,3.1.5,60.14355050602499,
condition files/Stage0c_1.xlsx,0c,phi,beta,g,"['h', 'g']","['Chess', 'Go']","[-0.15, 0.5]","[0.15, 0.5]",1,1,0,16,16,16,0,3,3,3,,,,,,,,,,,,,,,,,,,,,,,,,,,,,,,,,,,,,,,,,,,,,,,,,,,,,,,,,,,,,,,316.040564702,None,316.040564702,None,316.040564702,None,g,1,1.2403405029999703,317.5742207170001,None,317.5742207170001,None,317.5742207170001,None,318.8745076729999,None,318.8745076729999,None,318.8745076729999,None,318.8745076729999,None,,,,,,,,,,,,,,,,,,,,,,,,,,,,,,,,,,,,,,,,,,,,001,54,2020_Feb_04_0956,spring_faces,3.1.5,60.14355050602499,
condition files/Stage0c_2.xlsx,0c,theta,beta,g,"['h', 'g']","['Chess', 'Go']","[-0.15, 0.5]","[0.15, 0.5]",1,1,0,17,17,17,0,0,0,2,,,,,,,,,,,,,,,,,,,,,,,,,,,,,,,,,,,,,,,,,,,,,,,,,,,,,,,,,,,,,,,320.85784958499994,None,320.85784958499994,None,320.85784958499994,None,g,1,2.535517981000112,322.3911077969999,None,322.3911077969999,None,322.3911077969999,None,324.975903669,None,324.975903669,None,324.975903669,None,324.975903669,None,,,,,,,,,,,,,,,,,,,,,,,,,,,,,,,,,,,,,,,,,,,,001,54,2020_Feb_04_0956,spring_faces,3.1.5,60.14355050602499,
condition files/Stage0c_2.xlsx,0c,phi,alpha,h,"['h', 'g']","['Chess', 'Go']","[-0.15, 0.5]","[0.15, 0.5]",1,1,0,17,17,17,0,1,1,1,,,,,,,,,,,,,,,,,,,,,,,,,,,,,,,,,,,,,,,,,,,,,,,,,,,,,,,,,,,,,,,326.9568829950001,None,326.9568829950001,None,326.9568829950001,None,h,1,1.3154038239999863,328.49125607199994,None,328.49125607199994,None,328.49125607199994,None,329.8580406440001,None,329.8580406440001,None,329.8580406440001,None,329.8580406440001,None,,,,,,,,,,,,,,,,,,,,,,,,,,,,,,,,,,,,,,,,,,,,001,54,2020_Feb_04_0956,spring_faces,3.1.5,60.14355050602499,
condition files/Stage0c_2.xlsx,0c,alpha,theta,h,"['h', 'g']","['Chess', 'Go']","[-0.15, 0.5]","[0.15, 0.5]",1,1,0,17,17,17,0,2,2,0,,,,,,,,,,,,,,,,,,,,,,,,,,,,,,,,,,,,,,,,,,,,,,,,,,,,,,,,,,,,,,,331.82418492400006,None,331.82418492400006,None,331.82418492400006,None,h,1,1.296973441000091,333.3576475330001,None,333.3576475330001,None,333.3576475330001,None,334.7071472580001,None,334.7071472580001,None,334.7071472580001,None,334.7071472580001,None,,,,,,,,,,,,,,,,,,,,,,,,,,,,,,,,,,,,,,,,,,,,001,54,2020_Feb_04_0956,spring_faces,3.1.5,60.14355050602499,
condition files/Stage0c_2.xlsx,0c,beta,phi,g,"['h', 'g']","['Chess', 'Go']","[-0.15, 0.5]","[0.15, 0.5]",1,1,0,17,17,17,0,3,3,3,,,,,,,,,,,,,,,,,,,,,,,,,,,,,,,,,,,,,,,,,,,,,,,,,,,,,,,,,,,,,,,336.67351588099996,None,336.67351588099996,None,336.67351588099996,None,g,1,1.1509243610000794,338.2076686539999,None,338.2076686539999,None,338.2076686539999,None,339.42435968099994,None,339.42435968099994,None,339.42435968099994,None,339.42435968099994,None,,,,,,,,,,,,,,,,,,,,,,,,,,,,,,,,,,,,,,,,,,,,001,54,2020_Feb_04_0956,spring_faces,3.1.5,60.14355050602499,
,,,,,,,,,,,,,,,,,,,,,,,,,,,,,,,,,,,,,,,,,,,,,,,,,,,,,,,,,,,,,,,,,,,,,,,,,,,,,,,,,,,,,,,,,,,,,,,,,,,,,,,,341.4074052579999,None,space,1.8790688530000352,346.4075500419999,None,,,,,,,,,,,,,,,,,,,,,,,,,,,,,,,,,,,,,,001,54,2020_Feb_04_0956,spring_faces,3.1.5,60.14355050602499,
condition files/Stage1_1.xlsx,,B3,T3,c,"['c', 'm']","['Clue', 'Monopoly']","[-0.15, 0.5]","[0.15, 0.5]",1,1,,,,,,,,,0,0,0,0,0,0,0,4,,,,,,,,,,,,,,,,,,,,,,,,,,,,,,,,,,,,,,,,,,,,,,,,,,,,,,,348.4078061,None,348.4078061,None,348.4078061,None,m,0,2.8908303050000086,349.90784975299994,None,349.90784975299994,None,349.90784975299994,None,352.8742140039999,None,352.8742140039999,None,352.8742140039999,None,352.8742140039999,None,,,,,,,346.4075500419999,None,,,,,,,,,,,,,,,,,,,,,,,,,,,,,,,,,,,,001,54,2020_Feb_04_0956,spring_faces,3.1.5,60.14355050602499,
condition files/Stage1_1.xlsx,,T3,B4,c,"['c', 'm']","['Clue', 'Monopoly']","[-0.15, 0.5]","[0.15, 0.5]",1,1,,,,,,,,,0,0,0,0,0,1,1,5,,,,,,,,,,,,,,,,,,,,,,,,,,,,,,,,,,,,,,,,,,,,,,,,,,,,,,,354.823630351,None,354.823630351,None,354.823630351,None,m,0,1.0949051000000054,356.4077145650001,None,356.4077145650001,None,356.4077145650001,None,357.5581403030001,None,357.5581403030001,None,357.5581403030001,None,357.5581403030001,None,,,,,,,,,,,,,,,,,,,,,,,,,,,,,,,,,,,,,,,,,,,,001,54,2020_Feb_04_0956,spring_faces,3.1.5,60.14355050602499,
condition files/Stage1_1.xlsx,,B4,T4,m,"['c', 'm']","['Clue', 'Monopoly']","[-0.15, 0.5]","[0.15, 0.5]",1,1,,,,,,,,,0,0,0,0,0,2,2,7,,,,,,,,,,,,,,,,,,,,,,,,,,,,,,,,,,,,,,,,,,,,,,,,,,,,,,,359.524305764,None,359.524305764,None,359.524305764,None,m,1,2.427351305000002,361.0912335139999,None,361.0912335139999,None,361.0912335139999,None,363.57679804200006,None,363.57679804200006,None,363.57679804200006,None,363.57679804200006,None,,,,,,,,,,,,,,,,,,,,,,,,,,,,,,,,,,,,,,,,,,,,001,54,2020_Feb_04_0956,spring_faces,3.1.5,60.14355050602499,
condition files/Stage1_1.xlsx,,B2,T1,m,"['c', 'm']","['Clue', 'Monopoly']","[-0.15, 0.5]","[0.15, 0.5]",1,1,,,,,,,,,0,0,0,0,0,3,3,2,,,,,,,,,,,,,,,,,,,,,,,,,,,,,,,,,,,,,,,,,,,,,,,,,,,,,,,365.54049570100005,None,365.54049570100005,None,365.54049570100005,None,m,1,2.297994689999996,367.1406325810001,None,367.1406325810001,None,367.1406325810001,None,369.4910894100001,None,369.4910894100001,None,369.4910894100001,None,369.4910894100001,None,,,,,,,,,,,,,,,,,,,,,,,,,,,,,,,,,,,,,,,,,,,,001,54,2020_Feb_04_0956,spring_faces,3.1.5,60.14355050602499,
condition files/Stage1_1.xlsx,,T2,B2,m,"['c', 'm']","['Clue', 'Monopoly']","[-0.15, 0.5]","[0.15, 0.5]",1,1,,,,,,,,,0,0,0,0,0,4,4,3,,,,,,,,,,,,,,,,,,,,,,,,,,,,,,,,,,,,,,,,,,,,,,,,,,,,,,,371.45792181699994,None,371.45792181699994,None,371.45792181699994,None,m,1,1.7417580730000282,373.0409413299999,None,373.0409413299999,None,373.0409413299999,None,374.8408024130001,None,374.8408024130001,None,374.8408024130001,None,374.8408024130001,None,,,,,,,,,,,,,,,,,,,,,,,,,,,,,,,,,,,,,,,,,,,,001,54,2020_Feb_04_0956,spring_faces,3.1.5,60.14355050602499,
condition files/Stage1_1.xlsx,,T4,B3,m,"['c', 'm']","['Clue', 'Monopoly']","[-0.15, 0.5]","[0.15, 0.5]",1,1,,,,,,,,,0,0,0,0,0,5,5,6,,,,,,,,,,,,,,,,,,,,,,,,,,,,,,,,,,,,,,,,,,,,,,,,,,,,,,,376.80703838,None,376.80703838,None,376.80703838,None,m,1,1.5758559589999095,378.34272194799996,None,378.34272194799996,None,378.34272194799996,None,379.9737392029999,None,379.9737392029999,None,379.9737392029999,None,379.9737392029999,None,,,,,,,,,,,,,,,,,,,,,,,,,,,,,,,,,,,,,,,,,,,,001,54,2020_Feb_04_0956,spring_faces,3.1.5,60.14355050602499,
condition files/Stage1_1.xlsx,,B1,T2,c,"['c', 'm']","['Clue', 'Monopoly']","[-0.15, 0.5]","[0.15, 0.5]",1,1,,,,,,,,,0,0,0,0,0,6,6,1,,,,,,,,,,,,,,,,,,,,,,,,,,,,,,,,,,,,,,,,,,,,,,,,,,,,,,,381.9406159969999,None,381.9406159969999,None,381.9406159969999,None,m,0,1.0673866119998365,383.49120268799993,None,383.49120268799993,None,383.49120268799993,None,384.627240926,None,384.627240926,None,384.627240926,None,384.627240926,None,,,,,,,,,,,,,,,,,,,,,,,,,,,,,,,,,,,,,,,,,,,,001,54,2020_Feb_04_0956,spring_faces,3.1.5,60.14355050602499,
condition files/Stage1_1.xlsx,,T1,B1,c,"['c', 'm']","['Clue', 'Monopoly']","[-0.15, 0.5]","[0.15, 0.5]",1,1,,,,,,,,,0,0,0,0,0,7,7,0,,,,,,,,,,,,,,,,,,,,,,,,,,,,,,,,,,,,,,,,,,,,,,,,,,,,,,,386.5907517559999,None,386.5907517559999,None,386.5907517559999,None,c,1,2.33751613000004,388.1411390410001,None,388.1411390410001,None,388.1411390410001,None,390.5408098099999,None,390.5408098099999,None,390.5408098099999,None,390.5408098099999,None,,,,,,,,,,,,,,,,,,,,,,,,,,,,,,,,,,,,,,,,,,,,001,54,2020_Feb_04_0956,spring_faces,3.1.5,60.14355050602499,
condition files/Stage1_2.xlsx,,B1,T1,c,"['c', 'm']","['Clue', 'Monopoly']","[-0.15, 0.5]","[0.15, 0.5]",1,1,,,,,,,,,0,1,1,1,0,0,0,0,,,,,,,,,,,,,,,,,,,,,,,,,,,,,,,,,,,,,,,,,,,,,,,,,,,,,,,392.5410775130001,None,392.5410775130001,None,392.5410775130001,None,c,1,1.3961811119997947,394.07445916100005,None,394.07445916100005,None,394.07445916100005,None,395.5240999739999,None,395.5240999739999,None,395.5240999739999,None,395.5240999739999,None,,,,,,,,,,,,,,,,,,,,,,,,,,,,,,,,,,,,,,,,,,,,001,54,2020_Feb_04_0956,spring_faces,3.1.5,60.14355050602499,
condition files/Stage1_2.xlsx,,B2,T2,m,"['c', 'm']","['Clue', 'Monopoly']","[-0.15, 0.5]","[0.15, 0.5]",1,1,,,,,,,,,0,1,1,1,0,1,1,3,,,,,,,,,,,,,,,,,,,,,,,,,,,,,,,,,,,,,,,,,,,,,,,,,,,,,,,397.4908163120001,None,397.4908163120001,None,397.4908163120001,None,m,1,1.5174595729999965,399.02518532199997,None,399.02518532199997,None,399.02518532199997,None,400.60897161899993,None,400.60897161899993,None,400.60897161899993,None,400.60897161899993,None,,,,,,,,,,,,,,,,,,,,,,,,,,,,,,,,,,,,,,,,,,,,001,54,2020_Feb_04_0956,spring_faces,3.1.5,60.14355050602499,
condition files/Stage1_2.xlsx,,T2,B1,c,"['c', 'm']","['Clue', 'Monopoly']","[-0.15, 0.5]","[0.15, 0.5]",1,1,,,,,,,,,0,1,1,1,0,2,2,1,,,,,,,,,,,,,,,,,,,,,,,,,,,,,,,,,,,,,,,,,,,,,,,,,,,,,,,402.5738314130001,None,402.5738314130001,None,402.5738314130001,None,c,1,1.778327223999895,404.124274411,None,404.124274411,None,404.124274411,None,405.958097964,None,405.958097964,None,405.958097964,None,405.958097964,None,,,,,,,,,,,,,,,,,,,,,,,,,,,,,,,,,,,,,,,,,,,,001,54,2020_Feb_04_0956,spring_faces,3.1.5,60.14355050602499,
condition files/Stage1_2.xlsx,,T3,B3,c,"['c', 'm']","['Clue', 'Monopoly']","[-0.15, 0.5]","[0.15, 0.5]",1,1,,,,,,,,,0,1,1,1,0,3,3,4,,,,,,,,,,,,,,,,,,,,,,,,,,,,,,,,,,,,,,,,,,,,,,,,,,,,,,,407.92417037099995,None,407.92417037099995,None,407.92417037099995,None,m,0,2.044664967000017,409.4579147910001,None,409.4579147910001,None,409.4579147910001,None,411.5580325369999,None,411.5580325369999,None,411.5580325369999,None,411.5580325369999,None,,,,,,,,,,,,,,,,,,,,,,,,,,,,,,,,,,,,,,,,,,,,001,54,2020_Feb_04_0956,spring_faces,3.1.5,60.14355050602499,
condition files/Stage1_2.xlsx,,B4,T3,c,"['c', 'm']","['Clue', 'Monopoly']","[-0.15, 0.5]","[0.15, 0.5]",1,1,,,,,,,,,0,1,1,1,0,4,4,5,,,,,,,,,,,,,,,,,,,,,,,,,,,,,,,,,,,,,,,,,,,,,,,,,,,,,,,413.5240333040001,None,413.5240333040001,None,413.5240333040001,None,m,0,1.5637594980000813,415.058894107,None,415.058894107,None,415.058894107,None,416.67392539,None,416.67392539,None,416.67392539,None,416.67392539,None,,,,,,,,,,,,,,,,,,,,,,,,,,,,,,,,,,,,,,,,,,,,001,54,2020_Feb_04_0956,spring_faces,3.1.5,60.14355050602499,
condition files/Stage1_2.xlsx,,T4,B4,m,"['c', 'm']","['Clue', 'Monopoly']","[-0.15, 0.5]","[0.15, 0.5]",1,1,,,,,,,,,0,1,1,1,0,5,5,7,,,,,,,,,,,,,,,,,,,,,,,,,,,,,,,,,,,,,,,,,,,,,,,,,,,,,,,418.6407202140001,None,418.6407202140001,None,418.6407202140001,None,m,1,1.8239540780000425,420.19074732800004,None,420.19074732800004,None,420.19074732800004,None,422.09119592699994,None,422.09119592699994,None,422.09119592699994,None,422.09119592699994,None,,,,,,,,,,,,,,,,,,,,,,,,,,,,,,,,,,,,,,,,,,,,001,54,2020_Feb_04_0956,spring_faces,3.1.5,60.14355050602499,
condition files/Stage1_2.xlsx,,B3,T4,m,"['c', 'm']","['Clue', 'Monopoly']","[-0.15, 0.5]","[0.15, 0.5]",1,1,,,,,,,,,0,1,1,1,0,6,6,6,,,,,,,,,,,,,,,,,,,,,,,,,,,,,,,,,,,,,,,,,,,,,,,,,,,,,,,424.040765833,None,424.040765833,None,424.040765833,None,c,0,1.7827997019999202,425.5757968319999,None,425.5757968319999,None,425.5757968319999,None,427.423947989,None,427.423947989,None,427.423947989,None,427.423947989,None,,,,,,,,,,,,,,,,,,,,,,,,,,,,,,,,,,,,,,,,,,,,001,54,2020_Feb_04_0956,spring_faces,3.1.5,60.14355050602499,
condition files/Stage1_2.xlsx,,T1,B2,m,"['c', 'm']","['Clue', 'Monopoly']","[-0.15, 0.5]","[0.15, 0.5]",1,1,,,,,,,,,0,1,1,1,0,7,7,2,,,,,,,,,,,,,,,,,,,,,,,,,,,,,,,,,,,,,,,,,,,,,,,,,,,,,,,429.3903213389999,None,429.3903213389999,None,429.3903213389999,None,m,1,3.153769486000101,430.9408866030001,None,430.9408866030001,None,430.9408866030001,None,434.157107622,None,434.157107622,None,434.157107622,None,434.157107622,None,,,,,,,,,,,,,,,,,,,,,,,,,,,,,,,,,,,,,,,,,,,,001,54,2020_Feb_04_0956,spring_faces,3.1.5,60.14355050602499,
condition files/Stage1_1.xlsx,,B3,T3,c,"['c', 'm']","['Clue', 'Monopoly']","[-0.15, 0.5]","[0.15, 0.5]",1,1,,,,,,,,,0,2,2,2,0,0,0,4,,,,,,,,,,,,,,,,,,,,,,,,,,,,,,,,,,,,,,,,,,,,,,,,,,,,,,,436.1406466819999,None,436.1406466819999,None,436.1406466819999,None,c,1,1.7001160849999906,437.6905585669999,None,437.6905585669999,None,437.6905585669999,None,439.4420539109999,None,439.4420539109999,None,439.4420539109999,None,439.4420539109999,None,,,,,,,,,,,,,,,,,,,,,,,,,,,,,,,,,,,,,,,,,,,,001,54,2020_Feb_04_0956,spring_faces,3.1.5,60.14355050602499,
condition files/Stage1_1.xlsx,,B2,T1,m,"['c', 'm']","['Clue', 'Monopoly']","[-0.15, 0.5]","[0.15, 0.5]",1,1,,,,,,,,,0,2,2,2,0,1,1,2,,,,,,,,,,,,,,,,,,,,,,,,,,,,,,,,,,,,,,,,,,,,,,,,,,,,,,,441.40798031500003,None,441.40798031500003,None,441.40798031500003,None,m,1,2.176927859999978,442.94166711699995,None,442.94166711699995,None,442.94166711699995,None,445.1764140549999,None,445.1764140549999,None,445.1764140549999,None,445.1764140549999,None,,,,,,,,,,,,,,,,,,,,,,,,,,,,,,,,,,,,,,,,,,,,001,54,2020_Feb_04_0956,spring_faces,3.1.5,60.14355050602499,
condition files/Stage1_1.xlsx,,B4,T4,m,"['c', 'm']","['Clue', 'Monopoly']","[-0.15, 0.5]","[0.15, 0.5]",1,1,,,,,,,,,0,2,2,2,0,2,2,7,,,,,,,,,,,,,,,,,,,,,,,,,,,,,,,,,,,,,,,,,,,,,,,,,,,,,,,447.1406679260001,None,447.1406679260001,None,447.1406679260001,None,m,1,1.9156926480000038,448.6909676770001,None,448.6909676770001,None,448.6909676770001,None,450.6574351490001,None,450.6574351490001,None,450.6574351490001,None,450.6574351490001,None,,,,,,,,,,,,,,,,,,,,,,,,,,,,,,,,,,,,,,,,,,,,001,54,2020_Feb_04_0956,spring_faces,3.1.5,60.14355050602499,
condition files/Stage1_1.xlsx,,T4,B3,m,"['c', 'm']","['Clue', 'Monopoly']","[-0.15, 0.5]","[0.15, 0.5]",1,1,,,,,,,,,0,2,2,2,0,3,3,6,,,,,,,,,,,,,,,,,,,,,,,,,,,,,,,,,,,,,,,,,,,,,,,,,,,,,,,452.6242594529999,None,452.6242594529999,None,452.6242594529999,None,c,0,1.7441526439999961,454.17443951099995,None,454.17443951099995,None,454.17443951099995,None,455.97405042900004,None,455.97405042900004,None,455.97405042900004,None,455.97405042900004,None,,,,,,,,,,,,,,,,,,,,,,,,,,,,,,,,,,,,,,,,,,,,001,54,2020_Feb_04_0956,spring_faces,3.1.5,60.14355050602499,
condition files/Stage1_1.xlsx,,B1,T2,c,"['c', 'm']","['Clue', 'Monopoly']","[-0.15, 0.5]","[0.15, 0.5]",1,1,,,,,,,,,0,2,2,2,0,4,4,1,,,,,,,,,,,,,,,,,,,,,,,,,,,,,,,,,,,,,,,,,,,,,,,,,,,,,,,457.9408047899999,None,457.9408047899999,None,457.9408047899999,None,c,1,1.8517162169998755,459.47492849900004,None,459.47492849900004,None,459.47492849900004,None,461.391157022,None,461.391157022,None,461.391157022,None,461.391157022,None,,,,,,,,,,,,,,,,,,,,,,,,,,,,,,,,,,,,,,,,,,,,001,54,2020_Feb_04_0956,spring_faces,3.1.5,60.14355050602499,
condition files/Stage1_1.xlsx,,T1,B1,c,"['c', 'm']","['Clue', 'Monopoly']","[-0.15, 0.5]","[0.15, 0.5]",1,1,,,,,,,,,0,2,2,2,0,5,5,0,,,,,,,,,,,,,,,,,,,,,,,,,,,,,,,,,,,,,,,,,,,,,,,,,,,,,,,463.35792093300006,None,463.35792093300006,None,463.35792093300006,None,c,1,2.8677673019999474,464.89084532900006,None,464.89084532900006,None,464.89084532900006,None,467.824938363,None,467.824938363,None,467.824938363,None,467.824938363,None,,,,,,,,,,,,,,,,,,,,,,,,,,,,,,,,,,,,,,,,,,,,001,54,2020_Feb_04_0956,spring_faces,3.1.5,60.14355050602499,
condition files/Stage1_1.xlsx,,T3,B4,c,"['c', 'm']","['Clue', 'Monopoly']","[-0.15, 0.5]","[0.15, 0.5]",1,1,,,,,,,,,0,2,2,2,0,6,6,5,,,,,,,,,,,,,,,,,,,,,,,,,,,,,,,,,,,,,,,,,,,,,,,,,,,,,,,469.7905919479999,None,469.7905919479999,None,469.7905919479999,None,m,0,1.9055015179999373,471.34115000299994,None,471.34115000299994,None,471.34115000299994,None,473.30788799900006,None,473.30788799900006,None,473.30788799900006,None,473.30788799900006,None,,,,,,,,,,,,,,,,,,,,,,,,,,,,,,,,,,,,,,,,,,,,001,54,2020_Feb_04_0956,spring_faces,3.1.5,60.14355050602499,
condition files/Stage1_1.xlsx,,T2,B2,m,"['c', 'm']","['Clue', 'Monopoly']","[-0.15, 0.5]","[0.15, 0.5]",1,1,,,,,,,,,0,2,2,2,0,7,7,3,,,,,,,,,,,,,,,,,,,,,,,,,,,,,,,,,,,,,,,,,,,,,,,,,,,,,,,475.27372570400007,None,475.27372570400007,None,475.27372570400007,None,m,1,1.6392958080000426,476.8073880259999,None,476.8073880259999,None,476.8073880259999,None,478.507404016,None,478.507404016,None,478.507404016,None,478.507404016,None,,,,,,,,,,,,,,,,,,,,,,,,,,,,,,,,,,,,,,,,,,,,001,54,2020_Feb_04_0956,spring_faces,3.1.5,60.14355050602499,
condition files/Stage1_2.xlsx,,B1,T1,c,"['c', 'm']","['Clue', 'Monopoly']","[-0.15, 0.5]","[0.15, 0.5]",1,1,,,,,,,,,0,3,3,3,0,0,0,0,,,,,,,,,,,,,,,,,,,,,,,,,,,,,,,,,,,,,,,,,,,,,,,,,,,,,,,480.49108563000004,None,480.49108563000004,None,480.49108563000004,None,c,1,1.2056275400000231,482.0410501890001,None,482.0410501890001,None,482.0410501890001,None,483.3097491640001,None,483.3097491640001,None,483.3097491640001,None,483.3097491640001,None,,,,,,,,,,,,,,,,,,,,,,,,,,,,,,,,,,,,,,,,,,,,001,54,2020_Feb_04_0956,spring_faces,3.1.5,60.14355050602499,
condition files/Stage1_2.xlsx,,T4,B4,m,"['c', 'm']","['Clue', 'Monopoly']","[-0.15, 0.5]","[0.15, 0.5]",1,1,,,,,,,,,0,3,3,3,0,1,1,7,,,,,,,,,,,,,,,,,,,,,,,,,,,,,,,,,,,,,,,,,,,,,,,,,,,,,,,485.2739794250001,None,485.2739794250001,None,485.2739794250001,None,m,1,1.670650526999907,486.807996107,None,486.807996107,None,486.807996107,None,488.54385368199996,None,488.54385368199996,None,488.54385368199996,None,488.54385368199996,None,,,,,,,,,,,,,,,,,,,,,,,,,,,,,,,,,,,,,,,,,,,,001,54,2020_Feb_04_0956,spring_faces,3.1.5,60.14355050602499,
condition files/Stage1_2.xlsx,,T2,B1,c,"['c', 'm']","['Clue', 'Monopoly']","[-0.15, 0.5]","[0.15, 0.5]",1,1,,,,,,,,,0,3,3,3,0,2,2,1,,,,,,,,,,,,,,,,,,,,,,,,,,,,,,,,,,,,,,,,,,,,,,,,,,,,,,,490.5074491119999,None,490.5074491119999,None,490.5074491119999,None,c,1,0.8832648360000803,492.04340227800003,None,492.04340227800003,None,492.04340227800003,None,492.9929422990001,None,492.9929422990001,None,492.9929422990001,None,492.9929422990001,None,,,,,,,,,,,,,,,,,,,,,,,,,,,,,,,,,,,,,,,,,,,,001,54,2020_Feb_04_0956,spring_faces,3.1.5,60.14355050602499,
condition files/Stage1_2.xlsx,,B3,T4,m,"['c', 'm']","['Clue', 'Monopoly']","[-0.15, 0.5]","[0.15, 0.5]",1,1,,,,,,,,,0,3,3,3,0,3,3,6,,,,,,,,,,,,,,,,,,,,,,,,,,,,,,,,,,,,,,,,,,,,,,,,,,,,,,,494.95757196399995,None,494.95757196399995,None,494.95757196399995,None,m,1,1.4269508509999014,496.491672098,None,496.491672098,None,496.491672098,None,497.99116309400006,None,497.99116309400006,None,497.99116309400006,None,497.99116309400006,None,,,,,,,,,,,,,,,,,,,,,,,,,,,,,,,,,,,,,,,,,,,,001,54,2020_Feb_04_0956,spring_faces,3.1.5,60.14355050602499,
condition files/Stage1_2.xlsx,,T1,B2,m,"['c', 'm']","['Clue', 'Monopoly']","[-0.15, 0.5]","[0.15, 0.5]",1,1,,,,,,,,,0,3,3,3,0,4,4,2,,,,,,,,,,,,,,,,,,,,,,,,,,,,,,,,,,,,,,,,,,,,,,,,,,,,,,,499.9405982640001,None,499.9405982640001,None,499.9405982640001,None,m,1,1.7223052049998842,501.4763844030001,None,501.4763844030001,None,501.4763844030001,None,503.2577770549999,None,503.2577770549999,None,503.2577770549999,None,503.2577770549999,None,,,,,,,,,,,,,,,,,,,,,,,,,,,,,,,,,,,,,,,,,,,,001,54,2020_Feb_04_0956,spring_faces,3.1.5,60.14355050602499,
condition files/Stage1_2.xlsx,,T3,B3,c,"['c', 'm']","['Clue', 'Monopoly']","[-0.15, 0.5]","[0.15, 0.5]",1,1,,,,,,,,,0,3,3,3,0,5,5,4,,,,,,,,,,,,,,,,,,,,,,,,,,,,,,,,,,,,,,,,,,,,,,,,,,,,,,,505.2242521769999,None,505.2242521769999,None,505.2242521769999,None,c,1,2.7759168219999992,506.7747013200001,None,506.7747013200001,None,506.7747013200001,None,509.6076683010001,None,509.6076683010001,None,509.6076683010001,None,509.6076683010001,None,,,,,,,,,,,,,,,,,,,,,,,,,,,,,,,,,,,,,,,,,,,,001,54,2020_Feb_04_0956,spring_faces,3.1.5,60.14355050602499,
condition files/Stage1_2.xlsx,,B2,T2,m,"['c', 'm']","['Clue', 'Monopoly']","[-0.15, 0.5]","[0.15, 0.5]",1,1,,,,,,,,,0,3,3,3,0,6,6,3,,,,,,,,,,,,,,,,,,,,,,,,,,,,,,,,,,,,,,,,,,,,,,,,,,,,,,,511.5735527930001,None,511.5735527930001,None,511.5735527930001,None,m,1,1.4023915020000004,513.1242100229999,None,513.1242100229999,None,513.1242100229999,None,514.593873455,None,514.593873455,None,514.593873455,None,514.593873455,None,,,,,,,,,,,,,,,,,,,,,,,,,,,,,,,,,,,,,,,,,,,,001,54,2020_Feb_04_0956,spring_faces,3.1.5,60.14355050602499,
condition files/Stage1_2.xlsx,,B4,T3,c,"['c', 'm']","['Clue', 'Monopoly']","[-0.15, 0.5]","[0.15, 0.5]",1,1,,,,,,,,,0,3,3,3,0,7,7,5,,,,,,,,,,,,,,,,,,,,,,,,,,,,,,,,,,,,,,,,,,,,,,,,,,,,,,,516.5572018109999,None,516.5572018109999,None,516.5572018109999,None,c,1,1.3307344779998402,518.1078905480001,None,518.1078905480001,None,518.1078905480001,None,519.49371223,None,519.49371223,None,519.49371223,None,519.49371223,None,,,,,,,,,,,,,,,,,,,,,,,,,,,,,,,,,,,,,,,,,,,,001,54,2020_Feb_04_0956,spring_faces,3.1.5,60.14355050602499,
condition files/Stage1_1.xlsx,,T4,B3,m,"['c', 'm']","['Clue', 'Monopoly']","[-0.15, 0.5]","[0.15, 0.5]",1,1,,,,,,,,,0,4,4,4,0,0,0,6,,,,,,,,,,,,,,,,,,,,,,,,,,,,,,,,,,,,,,,,,,,,,,,,,,,,,,,521.4742035710001,None,521.4742035710001,None,521.4742035710001,None,m,1,1.0858164549999856,523.008842559,None,523.008842559,None,523.008842559,None,524.1597069910001,None,524.1597069910001,None,524.1597069910001,None,524.1597069910001,None,,,,,,,,,,,,,,,,,,,,,,,,,,,,,,,,,,,,,,,,,,,,001,54,2020_Feb_04_0956,spring_faces,3.1.5,60.14355050602499,
condition files/Stage1_1.xlsx,,B3,T3,c,"['c', 'm']","['Clue', 'Monopoly']","[-0.15, 0.5]","[0.15, 0.5]",1,1,,,,,,,,,0,4,4,4,0,1,1,4,,,,,,,,,,,,,,,,,,,,,,,,,,,,,,,,,,,,,,,,,,,,,,,,,,,,,,,526.1236704180001,None,526.1236704180001,None,526.1236704180001,None,c,1,1.50840845599987,527.674273562,None,527.674273562,None,527.674273562,None,529.24235712,None,529.24235712,None,529.24235712,None,529.24235712,None,,,,,,,,,,,,,,,,,,,,,,,,,,,,,,,,,,,,,,,,,,,,001,54,2020_Feb_04_0956,spring_faces,3.1.5,60.14355050602499,
condition files/Stage1_1.xlsx,,T2,B2,m,"['c', 'm']","['Clue', 'Monopoly']","[-0.15, 0.5]","[0.15, 0.5]",1,1,,,,,,,,,0,4,4,4,0,2,2,3,,,,,,,,,,,,,,,,,,,,,,,,,,,,,,,,,,,,,,,,,,,,,,,,,,,,,,,531.207698015,None,531.207698015,None,531.207698015,None,m,1,1.5769976200001565,532.7576900829999,None,532.7576900829999,None,532.7576900829999,None,534.393817999,None,534.393817999,None,534.393817999,None,534.393817999,None,,,,,,,,,,,,,,,,,,,,,,,,,,,,,,,,,,,,,,,,,,,,001,54,2020_Feb_04_0956,spring_faces,3.1.5,60.14355050602499,
condition files/Stage1_1.xlsx,,T1,B1,c,"['c', 'm']","['Clue', 'Monopoly']","[-0.15, 0.5]","[0.15, 0.5]",1,1,,,,,,,,,0,4,4,4,0,3,3,0,,,,,,,,,,,,,,,,,,,,,,,,,,,,,,,,,,,,,,,,,,,,,,,,,,,,,,,536.356986927,None,536.356986927,None,536.356986927,None,c,1,1.0835287620000145,537.9071251590001,None,537.9071251590001,None,537.9071251590001,None,539.058066049,None,539.058066049,None,539.058066049,None,539.058066049,None,,,,,,,,,,,,,,,,,,,,,,,,,,,,,,,,,,,,,,,,,,,,001,54,2020_Feb_04_0956,spring_faces,3.1.5,60.14355050602499,
condition files/Stage1_1.xlsx,,B1,T2,c,"['c', 'm']","['Clue', 'Monopoly']","[-0.15, 0.5]","[0.15, 0.5]",1,1,,,,,,,,,0,4,4,4,0,4,4,1,,,,,,,,,,,,,,,,,,,,,,,,,,,,,,,,,,,,,,,,,,,,,,,,,,,,,,,541.007479935,None,541.007479935,None,541.007479935,None,c,1,1.2475602249999156,542.543112454,None,542.543112454,None,542.543112454,None,543.8408782060001,None,543.8408782060001,None,543.8408782060001,None,543.8408782060001,None,,,,,,,,,,,,,,,,,,,,,,,,,,,,,,,,,,,,,,,,,,,,001,54,2020_Feb_04_0956,spring_faces,3.1.5,60.14355050602499,
condition files/Stage1_1.xlsx,,T3,B4,c,"['c', 'm']","['Clue', 'Monopoly']","[-0.15, 0.5]","[0.15, 0.5]",1,1,,,,,,,,,0,4,4,4,0,5,5,5,,,,,,,,,,,,,,,,,,,,,,,,,,,,,,,,,,,,,,,,,,,,,,,,,,,,,,,545.8074102170001,None,545.8074102170001,None,545.8074102170001,None,c,1,1.792628878999949,547.357956345,None,547.357956345,None,547.357956345,None,549.2078261849999,None,549.2078261849999,None,549.2078261849999,None,549.2078261849999,None,,,,,,,,,,,,,,,,,,,,,,,,,,,,,,,,,,,,,,,,,,,,001,54,2020_Feb_04_0956,spring_faces,3.1.5,60.14355050602499,
condition files/Stage1_1.xlsx,,B4,T4,m,"['c', 'm']","['Clue', 'Monopoly']","[-0.15, 0.5]","[0.15, 0.5]",1,1,,,,,,,,,0,4,4,4,0,6,6,7,,,,,,,,,,,,,,,,,,,,,,,,,,,,,,,,,,,,,,,,,,,,,,,,,,,,,,,551.174171506,None,551.174171506,None,551.174171506,None,m,1,1.1944007509998755,552.70821839,None,552.70821839,None,552.70821839,None,553.974338623,None,553.974338623,None,553.974338623,None,553.974338623,None,,,,,,,,,,,,,,,,,,,,,,,,,,,,,,,,,,,,,,,,,,,,001,54,2020_Feb_04_0956,spring_faces,3.1.5,60.14355050602499,
condition files/Stage1_1.xlsx,,B2,T1,m,"['c', 'm']","['Clue', 'Monopoly']","[-0.15, 0.5]","[0.15, 0.5]",1,1,,,,,,,,,0,4,4,4,0,7,7,2,,,,,,,,,,,,,,,,,,,,,,,,,,,,,,,,,,,,,,,,,,,,,,,,,,,,,,,555.9246736590001,None,555.9246736590001,None,555.9246736590001,None,m,1,1.2434364480000113,557.459185085,None,557.459185085,None,557.459185085,None,558.757318163,None,558.757318163,None,558.757318163,None,558.757318163,None,,,,,,,,,,,,,,,,,,,,,,,,,,,,,,,,,,,,,,,,,,,,001,54,2020_Feb_04_0956,spring_faces,3.1.5,60.14355050602499,
condition files/Stage1_2.xlsx,,T1,B2,m,"['c', 'm']","['Clue', 'Monopoly']","[-0.15, 0.5]","[0.15, 0.5]",1,1,,,,,,,,,0,5,5,5,0,0,0,2,,,,,,,,,,,,,,,,,,,,,,,,,,,,,,,,,,,,,,,,,,,,,,,,,,,,,,,560.7409702489999,None,560.7409702489999,None,560.7409702489999,None,m,1,2.3301892469999075,562.276487566,None,562.276487566,None,562.276487566,None,564.6579513500001,None,564.6579513500001,None,564.6579513500001,None,564.6579513500001,None,,,,,,,,,,,,,,,,,,,,,,,,,,,,,,,,,,,,,,,,,,,,001,54,2020_Feb_04_0956,spring_faces,3.1.5,60.14355050602499,
condition files/Stage1_2.xlsx,,B2,T2,m,"['c', 'm']","['Clue', 'Monopoly']","[-0.15, 0.5]","[0.15, 0.5]",1,1,,,,,,,,,0,5,5,5,0,1,1,3,,,,,,,,,,,,,,,,,,,,,,,,,,,,,,,,,,,,,,,,,,,,,,,,,,,,,,,566.624078027,None,566.624078027,None,566.624078027,None,m,1,1.5665624599998864,568.160090395,None,568.160090395,None,568.160090395,None,569.7910964309999,None,569.7910964309999,None,569.7910964309999,None,569.7910964309999,None,,,,,,,,,,,,,,,,,,,,,,,,,,,,,,,,,,,,,,,,,,,,001,54,2020_Feb_04_0956,spring_faces,3.1.5,60.14355050602499,
condition files/Stage1_2.xlsx,,T4,B4,m,"['c', 'm']","['Clue', 'Monopoly']","[-0.15, 0.5]","[0.15, 0.5]",1,1,,,,,,,,,0,5,5,5,0,2,2,7,,,,,,,,,,,,,,,,,,,,,,,,,,,,,,,,,,,,,,,,,,,,,,,,,,,,,,,571.757238761,None,571.757238761,None,571.757238761,None,m,1,1.186941175000129,573.307720693,None,573.307720693,None,573.307720693,None,574.557715354,None,574.557715354,None,574.557715354,None,574.557715354,None,,,,,,,,,,,,,,,,,,,,,,,,,,,,,,,,,,,,,,,,,,,,001,54,2020_Feb_04_0956,spring_faces,3.1.5,60.14355050602499,
condition files/Stage1_2.xlsx,,T2,B1,c,"['c', 'm']","['Clue', 'Monopoly']","[-0.15, 0.5]","[0.15, 0.5]",1,1,,,,,,,,,0,5,5,5,0,3,3,1,,,,,,,,,,,,,,,,,,,,,,,,,,,,,,,,,,,,,,,,,,,,,,,,,,,,,,,576.524114311,None,576.524114311,None,576.524114311,None,c,1,1.5571932470002139,578.05748821,None,578.05748821,None,578.05748821,None,579.691106424,None,579.691106424,None,579.691106424,None,579.691106424,None,,,,,,,,,,,,,,,,,,,,,,,,,,,,,,,,,,,,,,,,,,,,001,54,2020_Feb_04_0956,spring_faces,3.1.5,60.14355050602499,
condition files/Stage1_2.xlsx,,B1,T1,c,"['c', 'm']","['Clue', 'Monopoly']","[-0.15, 0.5]","[0.15, 0.5]",1,1,,,,,,,,,0,5,5,5,0,4,4,0,,,,,,,,,,,,,,,,,,,,,,,,,,,,,,,,,,,,,,,,,,,,,,,,,,,,,,,581.640898545,None,581.640898545,None,581.640898545,None,c,1,1.6875581710000915,583.191101398,None,583.191101398,None,583.191101398,None,584.9408106779999,None,584.9408106779999,None,584.9408106779999,None,584.9408106779999,None,,,,,,,,,,,,,,,,,,,,,,,,,,,,,,,,,,,,,,,,,,,,001,54,2020_Feb_04_0956,spring_faces,3.1.5,60.14355050602499,
condition files/Stage1_2.xlsx,,B4,T3,c,"['c', 'm']","['Clue', 'Monopoly']","[-0.15, 0.5]","[0.15, 0.5]",1,1,,,,,,,,,0,5,5,5,0,5,5,5,,,,,,,,,,,,,,,,,,,,,,,,,,,,,,,,,,,,,,,,,,,,,,,,,,,,,,,586.9075498279999,None,586.9075498279999,None,586.9075498279999,None,c,1,0.9181303409998236,588.44045153,None,588.44045153,None,588.44045153,None,589.424471929,None,589.424471929,None,589.424471929,None,589.424471929,None,,,,,,,,,,,,,,,,,,,,,,,,,,,,,,,,,,,,,,,,,,,,001,54,2020_Feb_04_0956,spring_faces,3.1.5,60.14355050602499,
condition files/Stage1_2.xlsx,,T3,B3,c,"['c', 'm']","['Clue', 'Monopoly']","[-0.15, 0.5]","[0.15, 0.5]",1,1,,,,,,,,,0,5,5,5,0,6,6,4,,,,,,,,,,,,,,,,,,,,,,,,,,,,,,,,,,,,,,,,,,,,,,,,,,,,,,,591.3908115459999,None,591.3908115459999,None,591.3908115459999,None,c,1,1.0567964100000609,592.925892324,None,592.925892324,None,592.925892324,None,594.041146406,None,594.041146406,None,594.041146406,None,594.041146406,None,,,,,,,,,,,,,,,,,,,,,,,,,,,,,,,,,,,,,,,,,,,,001,54,2020_Feb_04_0956,spring_faces,3.1.5,60.14355050602499,
condition files/Stage1_2.xlsx,,B3,T4,m,"['c', 'm']","['Clue', 'Monopoly']","[-0.15, 0.5]","[0.15, 0.5]",1,1,,,,,,,,,0,5,5,5,0,7,7,6,,,,,,,,,,,,,,,,,,,,,,,,,,,,,,,,,,,,,,,,,,,,,,,,,,,,,,,596.0069312210001,None,596.0069312210001,None,596.0069312210001,None,m,1,1.1130048059999353,597.557682307,None,597.557682307,None,597.557682307,None,598.7405622210001,None,598.7405622210001,None,598.7405622210001,None,598.7405622210001,None,,,,,,,,,,,,,,,,,,,,,,,,,,,,,,,,,,,,,,,,,,,,001,54,2020_Feb_04_0956,spring_faces,3.1.5,60.14355050602499,
condition files/Stage1_1.xlsx,,T1,B1,c,"['c', 'm']","['Clue', 'Monopoly']","[-0.15, 0.5]","[0.15, 0.5]",1,1,,,,,,,,,0,6,6,6,0,0,0,0,,,,,,,,,,,,,,,,,,,,,,,,,,,,,,,,,,,,,,,,,,,,,,,,,,,,,,,600.707503807,None,600.707503807,None,600.707503807,None,c,1,0.9071948729999804,602.2434026599999,None,602.2434026599999,None,602.2434026599999,None,603.2087723449999,None,603.2087723449999,None,603.2087723449999,None,603.2087723449999,None,,,,,,,,,,,,,,,,,,,,,,,,,,,,,,,,,,,,,,,,,,,,001,54,2020_Feb_04_0956,spring_faces,3.1.5,60.14355050602499,
condition files/Stage1_1.xlsx,,T4,B3,m,"['c', 'm']","['Clue', 'Monopoly']","[-0.15, 0.5]","[0.15, 0.5]",1,1,,,,,,,,,0,6,6,6,0,1,1,6,,,,,,,,,,,,,,,,,,,,,,,,,,,,,,,,,,,,,,,,,,,,,,,,,,,,,,,605.1744316879999,None,605.1744316879999,None,605.1744316879999,None,m,1,3.1951741780001157,606.70744713,None,606.70744713,None,606.70744713,None,609.9593751580001,None,609.9593751580001,None,609.9593751580001,None,609.9593751580001,None,,,,,,,,,,,,,,,,,,,,,,,,,,,,,,,,,,,,,,,,,,,,001,54,2020_Feb_04_0956,spring_faces,3.1.5,60.14355050602499,
condition files/Stage1_1.xlsx,,B4,T4,m,"['c', 'm']","['Clue', 'Monopoly']","[-0.15, 0.5]","[0.15, 0.5]",1,1,,,,,,,,,0,6,6,6,0,2,2,7,,,,,,,,,,,,,,,,,,,,,,,,,,,,,,,,,,,,,,,,,,,,,,,,,,,,,,,611.9239352090001,None,611.9239352090001,None,611.9239352090001,None,m,1,1.7558721780001179,613.458807596,None,613.458807596,None,613.458807596,None,615.2741748630001,None,615.2741748630001,None,615.2741748630001,None,615.2741748630001,None,,,,,,,,,,,,,,,,,,,,,,,,,,,,,,,,,,,,,,,,,,,,001,54,2020_Feb_04_0956,spring_faces,3.1.5,60.14355050602499,
condition files/Stage1_1.xlsx,,B2,T1,m,"['c', 'm']","['Clue', 'Monopoly']","[-0.15, 0.5]","[0.15, 0.5]",1,1,,,,,,,,,0,6,6,6,0,3,3,2,,,,,,,,,,,,,,,,,,,,,,,,,,,,,,,,,,,,,,,,,,,,,,,,,,,,,,,617.2406094549999,None,617.2406094549999,None,617.2406094549999,None,m,1,1.3821380930000942,618.7764429860001,None,618.7764429860001,None,618.7764429860001,None,620.2242194840001,None,620.2242194840001,None,620.2242194840001,None,620.2242194840001,None,,,,,,,,,,,,,,,,,,,,,,,,,,,,,,,,,,,,,,,,,,,,001,54,2020_Feb_04_0956,spring_faces,3.1.5,60.14355050602499,
condition files/Stage1_1.xlsx,,B3,T3,c,"['c', 'm']","['Clue', 'Monopoly']","[-0.15, 0.5]","[0.15, 0.5]",1,1,,,,,,,,,0,6,6,6,0,4,4,4,,,,,,,,,,,,,,,,,,,,,,,,,,,,,,,,,,,,,,,,,,,,,,,,,,,,,,,622.1908968340001,None,622.1908968340001,None,622.1908968340001,None,c,1,1.2007042309999179,623.7259478589999,None,623.7259478589999,None,623.7259478589999,None,624.9936225219999,None,624.9936225219999,None,624.9936225219999,None,624.9936225219999,None,,,,,,,,,,,,,,,,,,,,,,,,,,,,,,,,,,,,,,,,,,,,001,54,2020_Feb_04_0956,spring_faces,3.1.5,60.14355050602499,
condition files/Stage1_1.xlsx,,T2,B2,m,"['c', 'm']","['Clue', 'Monopoly']","[-0.15, 0.5]","[0.15, 0.5]",1,1,,,,,,,,,0,6,6,6,0,5,5,3,,,,,,,,,,,,,,,,,,,,,,,,,,,,,,,,,,,,,,,,,,,,,,,,,,,,,,,626.957055502,None,626.957055502,None,626.957055502,None,m,1,1.2018958050000492,628.492783684,None,628.492783684,None,628.492783684,None,629.757997531,None,629.757997531,None,629.757997531,None,629.757997531,None,,,,,,,,,,,,,,,,,,,,,,,,,,,,,,,,,,,,,,,,,,,,001,54,2020_Feb_04_0956,spring_faces,3.1.5,60.14355050602499,
condition files/Stage1_1.xlsx,,B1,T2,c,"['c', 'm']","['Clue', 'Monopoly']","[-0.15, 0.5]","[0.15, 0.5]",1,1,,,,,,,,,0,6,6,6,0,6,6,1,,,,,,,,,,,,,,,,,,,,,,,,,,,,,,,,,,,,,,,,,,,,,,,,,,,,,,,631.724210052,None,631.724210052,None,631.724210052,None,c,1,1.0120465180000338,633.2585741969999,None,633.2585741969999,None,633.2585741969999,None,634.3267618130001,None,634.3267618130001,None,634.3267618130001,None,634.3267618130001,None,,,,,,,,,,,,,,,,,,,,,,,,,,,,,,,,,,,,,,,,,,,,001,54,2020_Feb_04_0956,spring_faces,3.1.5,60.14355050602499,
condition files/Stage1_1.xlsx,,T3,B4,c,"['c', 'm']","['Clue', 'Monopoly']","[-0.15, 0.5]","[0.15, 0.5]",1,1,,,,,,,,,0,6,6,6,0,7,7,5,,,,,,,,,,,,,,,,,,,,,,,,,,,,,,,,,,,,,,,,,,,,,,,,,,,,,,,636.2908376790001,None,636.2908376790001,None,636.2908376790001,None,c,1,0.9428308639999159,637.82389633,None,637.82389633,None,637.82389633,None,638.824451665,None,638.824451665,None,638.824451665,None,638.824451665,None,,,,,,,,,,,,,,,,,,,,,,,,,,,,,,,,,,,,,,,,,,,,001,54,2020_Feb_04_0956,spring_faces,3.1.5,60.14355050602499,
condition files/Stage1_2.xlsx,,T2,B1,c,"['c', 'm']","['Clue', 'Monopoly']","[-0.15, 0.5]","[0.15, 0.5]",1,1,,,,,,,,,0,7,7,7,0,0,0,1,,,,,,,,,,,,,,,,,,,,,,,,,,,,,,,,,,,,,,,,,,,,,,,,,,,,,,,640.807448816,None,640.807448816,None,640.807448816,None,c,1,0.7928259440000147,642.3578003970001,None,642.3578003970001,None,642.3578003970001,None,643.2080860460001,None,643.2080860460001,None,643.2080860460001,None,643.2080860460001,None,,,,,,,,,,,,,,,,,,,,,,,,,,,,,,,,,,,,,,,,,,,,001,54,2020_Feb_04_0956,spring_faces,3.1.5,60.14355050602499,
condition files/Stage1_2.xlsx,,T4,B4,m,"['c', 'm']","['Clue', 'Monopoly']","[-0.15, 0.5]","[0.15, 0.5]",1,1,,,,,,,,,0,7,7,7,0,1,1,7,,,,,,,,,,,,,,,,,,,,,,,,,,,,,,,,,,,,,,,,,,,,,,,,,,,,,,,645.174296008,None,645.174296008,None,645.174296008,None,m,1,0.8576665059999868,646.70902335,None,646.70902335,None,646.70902335,None,647.641187596,None,647.641187596,None,647.641187596,None,647.641187596,None,,,,,,,,,,,,,,,,,,,,,,,,,,,,,,,,,,,,,,,,,,,,001,54,2020_Feb_04_0956,spring_faces,3.1.5,60.14355050602499,
condition files/Stage1_2.xlsx,,T1,B2,m,"['c', 'm']","['Clue', 'Monopoly']","[-0.15, 0.5]","[0.15, 0.5]",1,1,,,,,,,,,0,7,7,7,0,2,2,2,,,,,,,,,,,,,,,,,,,,,,,,,,,,,,,,,,,,,,,,,,,,,,,,,,,,,,,649.590776405,None,649.590776405,None,649.590776405,None,m,1,0.9381043560001672,651.124551251,None,651.124551251,None,651.124551251,None,652.1243254670001,None,652.1243254670001,None,652.1243254670001,None,652.1243254670001,None,,,,,,,,,,,,,,,,,,,,,,,,,,,,,,,,,,,,,,,,,,,,001,54,2020_Feb_04_0956,spring_faces,3.1.5,60.14355050602499,
condition files/Stage1_2.xlsx,,B1,T1,c,"['c', 'm']","['Clue', 'Monopoly']","[-0.15, 0.5]","[0.15, 0.5]",1,1,,,,,,,,,0,7,7,7,0,3,3,0,,,,,,,,,,,,,,,,,,,,,,,,,,,,,,,,,,,,,,,,,,,,,,,,,,,,,,,654.0909489559999,None,654.0909489559999,None,654.0909489559999,None,c,1,0.7724437610002042,655.6262569620001,None,655.6262569620001,None,655.6262569620001,None,656.474248253,None,656.474248253,None,656.474248253,None,656.474248253,None,,,,,,,,,,,,,,,,,,,,,,,,,,,,,,,,,,,,,,,,,,,,001,54,2020_Feb_04_0956,spring_faces,3.1.5,60.14355050602499,
condition files/Stage1_2.xlsx,,B4,T3,c,"['c', 'm']","['Clue', 'Monopoly']","[-0.15, 0.5]","[0.15, 0.5]",1,1,,,,,,,,,0,7,7,7,0,4,4,5,,,,,,,,,,,,,,,,,,,,,,,,,,,,,,,,,,,,,,,,,,,,,,,,,,,,,,,658.4241010190001,None,658.4241010190001,None,658.4241010190001,None,c,1,1.0004631419999441,659.9741746550001,None,659.9741746550001,None,659.9741746550001,None,661.0236898190001,None,661.0236898190001,None,661.0236898190001,None,661.0236898190001,None,,,,,,,,,,,,,,,,,,,,,,,,,,,,,,,,,,,,,,,,,,,,001,54,2020_Feb_04_0956,spring_faces,3.1.5,60.14355050602499,
condition files/Stage1_2.xlsx,,B3,T4,m,"['c', 'm']","['Clue', 'Monopoly']","[-0.15, 0.5]","[0.15, 0.5]",1,1,,,,,,,,,0,7,7,7,0,5,5,6,,,,,,,,,,,,,,,,,,,,,,,,,,,,,,,,,,,,,,,,,,,,,,,,,,,,,,,662.990597321,None,662.990597321,None,662.990597321,None,m,1,1.313460329999998,664.5411575789999,None,664.5411575789999,None,664.5411575789999,None,665.9102818609999,None,665.9102818609999,None,665.9102818609999,None,665.9102818609999,None,,,,,,,,,,,,,,,,,,,,,,,,,,,,,,,,,,,,,,,,,,,,001,54,2020_Feb_04_0956,spring_faces,3.1.5,60.14355050602499,
condition files/Stage1_2.xlsx,,B2,T2,m,"['c', 'm']","['Clue', 'Monopoly']","[-0.15, 0.5]","[0.15, 0.5]",1,1,,,,,,,,,0,7,7,7,0,6,6,3,,,,,,,,,,,,,,,,,,,,,,,,,,,,,,,,,,,,,,,,,,,,,,,,,,,,,,,667.8741558490001,None,667.8741558490001,None,667.8741558490001,None,m,1,0.8619643509998696,669.424656418,None,669.424656418,None,669.424656418,None,670.3414136240001,None,670.3414136240001,None,670.3414136240001,None,670.3414136240001,None,,,,,,,,,,,,,,,,,,,,,,,,,,,,,,,,,,,,,,,,,,,,001,54,2020_Feb_04_0956,spring_faces,3.1.5,60.14355050602499,
condition files/Stage1_2.xlsx,,T3,B3,c,"['c', 'm']","['Clue', 'Monopoly']","[-0.15, 0.5]","[0.15, 0.5]",1,1,,,,,,,,,0,7,7,7,0,7,7,4,,,,,,,,,,,,,,,,,,,,,,,,,,,,,,,,,,,,,,,,,,,,,,,,,,,,,,,672.3070915119999,None,672.3070915119999,None,672.3070915119999,None,c,1,0.5250862210000378,673.857594483,None,673.857594483,None,673.857594483,None,674.4577460820001,None,674.4577460820001,None,674.4577460820001,None,674.4577460820001,None,,,,,,,,,,,,,,,,,,,,,,,,,,,,,,,,,,,,,,,,,,,,001,54,2020_Feb_04_0956,spring_faces,3.1.5,60.14355050602499,
condition files/Stage1_1.xlsx,,T2,B2,m,"['c', 'm']","['Clue', 'Monopoly']","[-0.15, 0.5]","[0.15, 0.5]",1,1,,,,,,,,,0,8,8,8,0,0,0,3,,,,,,,,,,,,,,,,,,,,,,,,,,,,,,,,,,,,,,,,,,,,,,,,,,,,,,,676.4241021549999,None,676.4241021549999,None,676.4241021549999,None,m,1,0.601247666000063,677.957339865,None,677.957339865,None,677.957339865,None,678.624204685,None,678.624204685,None,678.624204685,None,678.624204685,None,,,,,,,,,,,,,,,,,,,,,,,,,,,,,,,,,,,,,,,,,,,,001,54,2020_Feb_04_0956,spring_faces,3.1.5,60.14355050602499,
condition files/Stage1_1.xlsx,,B2,T1,m,"['c', 'm']","['Clue', 'Monopoly']","[-0.15, 0.5]","[0.15, 0.5]",1,1,,,,,,,,,0,8,8,8,0,1,1,2,,,,,,,,,,,,,,,,,,,,,,,,,,,,,,,,,,,,,,,,,,,,,,,,,,,,,,,680.590948557,None,680.590948557,None,680.590948557,None,m,1,0.945553124999833,682.141047205,None,682.141047205,None,682.141047205,None,683.1401648630001,None,683.1401648630001,None,683.1401648630001,None,683.1401648630001,None,,,,,,,,,,,,,,,,,,,,,,,,,,,,,,,,,,,,,,,,,,,,001,54,2020_Feb_04_0956,spring_faces,3.1.5,60.14355050602499,
condition files/Stage1_1.xlsx,,T4,B3,m,"['c', 'm']","['Clue', 'Monopoly']","[-0.15, 0.5]","[0.15, 0.5]",1,1,,,,,,,,,0,8,8,8,0,2,2,6,,,,,,,,,,,,,,,,,,,,,,,,,,,,,,,,,,,,,,,,,,,,,,,,,,,,,,,685.1075314940001,None,685.1075314940001,None,685.1075314940001,None,m,1,1.4211657739999737,686.641506534,None,686.641506534,None,686.641506534,None,688.1240021680001,None,688.1240021680001,None,688.1240021680001,None,688.1240021680001,None,,,,,,,,,,,,,,,,,,,,,,,,,,,,,,,,,,,,,,,,,,,,001,54,2020_Feb_04_0956,spring_faces,3.1.5,60.14355050602499,
condition files/Stage1_1.xlsx,,T3,B4,c,"['c', 'm']","['Clue', 'Monopoly']","[-0.15, 0.5]","[0.15, 0.5]",1,1,,,,,,,,,0,8,8,8,0,3,3,5,,,,,,,,,,,,,,,,,,,,,,,,,,,,,,,,,,,,,,,,,,,,,,,,,,,,,,,690.0904891289999,None,690.0904891289999,None,690.0904891289999,None,c,1,0.9974751300001117,691.6411530130001,None,691.6411530130001,None,691.6411530130001,None,692.6917399920001,None,692.6917399920001,None,692.6917399920001,None,692.6917399920001,None,,,,,,,,,,,,,,,,,,,,,,,,,,,,,,,,,,,,,,,,,,,,001,54,2020_Feb_04_0956,spring_faces,3.1.5,60.14355050602499,
condition files/Stage1_1.xlsx,,B4,T4,m,"['c', 'm']","['Clue', 'Monopoly']","[-0.15, 0.5]","[0.15, 0.5]",1,1,,,,,,,,,0,8,8,8,0,4,4,7,,,,,,,,,,,,,,,,,,,,,,,,,,,,,,,,,,,,,,,,,,,,,,,,,,,,,,,694.6568717109999,None,694.6568717109999,None,694.6568717109999,None,m,1,0.7185565810000298,696.208085088,None,696.208085088,None,696.208085088,None,696.9916239009999,None,696.9916239009999,None,696.9916239009999,None,696.9916239009999,None,,,,,,,,,,,,,,,,,,,,,,,,,,,,,,,,,,,,,,,,,,,,001,54,2020_Feb_04_0956,spring_faces,3.1.5,60.14355050602499,
condition files/Stage1_1.xlsx,,B1,T2,c,"['c', 'm']","['Clue', 'Monopoly']","[-0.15, 0.5]","[0.15, 0.5]",1,1,,,,,,,,,0,8,8,8,0,5,5,1,,,,,,,,,,,,,,,,,,,,,,,,,,,,,,,,,,,,,,,,,,,,,,,,,,,,,,,698.9571642020001,None,698.9571642020001,None,698.9571642020001,None,c,1,0.7548910749999322,700.5077674490001,None,700.5077674490001,None,700.5077674490001,None,701.3257523110001,None,701.3257523110001,None,701.3257523110001,None,701.3257523110001,None,,,,,,,,,,,,,,,,,,,,,,,,,,,,,,,,,,,,,,,,,,,,001,54,2020_Feb_04_0956,spring_faces,3.1.5,60.14355050602499,
condition files/Stage1_1.xlsx,,T1,B1,c,"['c', 'm']","['Clue', 'Monopoly']","[-0.15, 0.5]","[0.15, 0.5]",1,1,,,,,,,,,0,8,8,8,0,6,6,0,,,,,,,,,,,,,,,,,,,,,,,,,,,,,,,,,,,,,,,,,,,,,,,,,,,,,,,703.290686263,None,703.290686263,None,703.290686263,None,c,1,1.5099499899999955,704.8247613589999,None,704.8247613589999,None,704.8247613589999,None,706.391153047,None,706.391153047,None,706.391153047,None,706.391153047,None,,,,,,,,,,,,,,,,,,,,,,,,,,,,,,,,,,,,,,,,,,,,001,54,2020_Feb_04_0956,spring_faces,3.1.5,60.14355050602499,
condition files/Stage1_1.xlsx,,B3,T3,c,"['c', 'm']","['Clue', 'Monopoly']","[-0.15, 0.5]","[0.15, 0.5]",1,1,,,,,,,,,0,8,8,8,0,7,7,4,,,,,,,,,,,,,,,,,,,,,,,,,,,,,,,,,,,,,,,,,,,,,,,,,,,,,,,708.3578119020001,None,708.3578119020001,None,708.3578119020001,None,c,1,1.3060966509999616,709.8926079130001,None,709.8926079130001,None,709.8926079130001,None,711.257755606,None,711.257755606,None,711.257755606,None,711.257755606,None,,,,,,,,,,,,,,,,,,,,,,,,,,,,,,,,,,,,,,,,,,,,001,54,2020_Feb_04_0956,spring_faces,3.1.5,60.14355050602499,
condition files/Stage1_2.xlsx,,T2,B1,c,"['c', 'm']","['Clue', 'Monopoly']","[-0.15, 0.5]","[0.15, 0.5]",1,1,,,,,,,,,0,9,9,9,0,0,0,1,,,,,,,,,,,,,,,,,,,,,,,,,,,,,,,,,,,,,,,,,,,,,,,,,,,,,,,713.2408541059999,None,713.2408541059999,None,713.2408541059999,None,c,1,1.1757585269999709,714.7909396560001,None,714.7909396560001,None,714.7909396560001,None,716.023818488,None,716.023818488,None,716.023818488,None,716.023818488,None,,,,,,,,,,,,,,,,,,,,,,,,,,,,,,,,,,,,,,,,,,,,001,54,2020_Feb_04_0956,spring_faces,3.1.5,60.14355050602499,
condition files/Stage1_2.xlsx,,B2,T2,m,"['c', 'm']","['Clue', 'Monopoly']","[-0.15, 0.5]","[0.15, 0.5]",1,1,,,,,,,,,0,9,9,9,0,1,1,3,,,,,,,,,,,,,,,,,,,,,,,,,,,,,,,,,,,,,,,,,,,,,,,,,,,,,,,717.9908098999999,None,717.9908098999999,None,717.9908098999999,None,m,1,0.9536287190001076,719.5410408079999,None,719.5410408079999,None,719.5410408079999,None,720.5596919940001,None,720.5596919940001,None,720.5596919940001,None,720.5596919940001,None,,,,,,,,,,,,,,,,,,,,,,,,,,,,,,,,,,,,,,,,,,,,001,54,2020_Feb_04_0956,spring_faces,3.1.5,60.14355050602499,
condition files/Stage1_2.xlsx,,B3,T4,m,"['c', 'm']","['Clue', 'Monopoly']","[-0.15, 0.5]","[0.15, 0.5]",1,1,,,,,,,,,0,9,9,9,0,2,2,6,,,,,,,,,,,,,,,,,,,,,,,,,,,,,,,,,,,,,,,,,,,,,,,,,,,,,,,722.524112137,None,722.524112137,None,722.524112137,None,m,1,0.9322311819998959,724.074436915,None,724.074436915,None,724.074436915,None,725.0578210880001,None,725.0578210880001,None,725.0578210880001,None,725.0578210880001,None,,,,,,,,,,,,,,,,,,,,,,,,,,,,,,,,,,,,,,,,,,,,001,54,2020_Feb_04_0956,spring_faces,3.1.5,60.14355050602499,
condition files/Stage1_2.xlsx,,T1,B2,m,"['c', 'm']","['Clue', 'Monopoly']","[-0.15, 0.5]","[0.15, 0.5]",1,1,,,,,,,,,0,9,9,9,0,3,3,2,,,,,,,,,,,,,,,,,,,,,,,,,,,,,,,,,,,,,,,,,,,,,,,,,,,,,,,727.023589984,None,727.023589984,None,727.023589984,None,m,1,1.4895822680000492,728.5570721409999,None,728.5570721409999,None,728.5570721409999,None,730.108206329,None,730.108206329,None,730.108206329,None,730.108206329,None,,,,,,,,,,,,,,,,,,,,,,,,,,,,,,,,,,,,,,,,,,,,001,54,2020_Feb_04_0956,spring_faces,3.1.5,60.14355050602499,
condition files/Stage1_2.xlsx,,T3,B3,c,"['c', 'm']","['Clue', 'Monopoly']","[-0.15, 0.5]","[0.15, 0.5]",1,1,,,,,,,,,0,9,9,9,0,4,4,4,,,,,,,,,,,,,,,,,,,,,,,,,,,,,,,,,,,,,,,,,,,,,,,,,,,,,,,732.0742975989999,None,732.0742975989999,None,732.0742975989999,None,c,1,1.606063137000092,733.6086446270001,None,733.6086446270001,None,733.6086446270001,None,735.276751635,None,735.276751635,None,735.276751635,None,735.276751635,None,,,,,,,,,,,,,,,,,,,,,,,,,,,,,,,,,,,,,,,,,,,,001,54,2020_Feb_04_0956,spring_faces,3.1.5,60.14355050602499,
condition files/Stage1_2.xlsx,,T4,B4,m,"['c', 'm']","['Clue', 'Monopoly']","[-0.15, 0.5]","[0.15, 0.5]",1,1,,,,,,,,,0,9,9,9,0,5,5,7,,,,,,,,,,,,,,,,,,,,,,,,,,,,,,,,,,,,,,,,,,,,,,,,,,,,,,,737.2410777780001,None,737.2410777780001,None,737.2410777780001,None,m,1,1.2546732139999222,738.7760332749999,None,738.7760332749999,None,738.7760332749999,None,740.107796211,None,740.107796211,None,740.107796211,None,740.107796211,None,,,,,,,,,,,,,,,,,,,,,,,,,,,,,,,,,,,,,,,,,,,,001,54,2020_Feb_04_0956,spring_faces,3.1.5,60.14355050602499,
condition files/Stage1_2.xlsx,,B1,T1,c,"['c', 'm']","['Clue', 'Monopoly']","[-0.15, 0.5]","[0.15, 0.5]",1,1,,,,,,,,,0,9,9,9,0,6,6,0,,,,,,,,,,,,,,,,,,,,,,,,,,,,,,,,,,,,,,,,,,,,,,,,,,,,,,,742.0575770580001,None,742.0575770580001,None,742.0575770580001,None,c,1,1.0635273099999267,743.6071069110001,None,743.6071069110001,None,743.6071069110001,None,744.7411186029999,None,744.7411186029999,None,744.7411186029999,None,744.7411186029999,None,,,,,,,,,,,,,,,,,,,,,,,,,,,,,,,,,,,,,,,,,,,,001,54,2020_Feb_04_0956,spring_faces,3.1.5,60.14355050602499,
condition files/Stage1_2.xlsx,,B4,T3,c,"['c', 'm']","['Clue', 'Monopoly']","[-0.15, 0.5]","[0.15, 0.5]",1,1,,,,,,,,,0,9,9,9,0,7,7,5,,,,,,,,,,,,,,,,,,,,,,,,,,,,,,,,,,,,,,,,,,,,,,,,,,,,,,,746.690743887,None,746.690743887,None,746.690743887,None,c,1,1.149996758999805,748.240664835,None,748.240664835,None,748.240664835,None,749.440713123,None,749.440713123,None,749.440713123,None,749.440713123,None,,,,,,,,,,,,,,,,,,,,,,,,,,,,,,,,,,,,,,,,,,,,001,54,2020_Feb_04_0956,spring_faces,3.1.5,60.14355050602499,
condition files/Stage1_1.xlsx,,B4,T4,m,"['c', 'm']","['Clue', 'Monopoly']","[-0.15, 0.5]","[0.15, 0.5]",1,1,,,,,,,,,0,10,10,10,0,0,0,7,,,,,,,,,,,,,,,,,,,,,,,,,,,,,,,,,,,,,,,,,,,,,,,,,,,,,,,751.424087638,None,751.424087638,None,751.424087638,None,m,1,0.8483696839998629,752.974287556,None,752.974287556,None,752.974287556,None,753.891447126,None,753.891447126,None,753.891447126,None,753.891447126,None,,,,,,,,,,,,,,,,,,,,,,,,,,,,,,,,,,,,,,,,,,,,001,54,2020_Feb_04_0956,spring_faces,3.1.5,60.14355050602499,
condition files/Stage1_1.xlsx,,T1,B1,c,"['c', 'm']","['Clue', 'Monopoly']","[-0.15, 0.5]","[0.15, 0.5]",1,1,,,,,,,,,0,10,10,10,0,1,1,0,,,,,,,,,,,,,,,,,,,,,,,,,,,,,,,,,,,,,,,,,,,,,,,,,,,,,,,755.840831619,None,755.840831619,None,755.840831619,None,c,1,0.7033602550000069,757.3913025439999,None,757.3913025439999,None,757.3913025439999,None,758.1745694890001,None,758.1745694890001,None,758.1745694890001,None,758.1745694890001,None,,,,,,,,,,,,,,,,,,,,,,,,,,,,,,,,,,,,,,,,,,,,001,54,2020_Feb_04_0956,spring_faces,3.1.5,60.14355050602499,
condition files/Stage1_1.xlsx,,B1,T2,c,"['c', 'm']","['Clue', 'Monopoly']","[-0.15, 0.5]","[0.15, 0.5]",1,1,,,,,,,,,0,10,10,10,0,2,2,1,,,,,,,,,,,,,,,,,,,,,,,,,,,,,,,,,,,,,,,,,,,,,,,,,,,,,,,760.1242247560001,None,760.1242247560001,None,760.1242247560001,None,c,1,1.1866764200001398,761.659998766,None,761.659998766,None,761.659998766,None,762.907759315,None,762.907759315,None,762.907759315,None,762.907759315,None,,,,,,,,,,,,,,,,,,,,,,,,,,,,,,,,,,,,,,,,,,,,001,54,2020_Feb_04_0956,spring_faces,3.1.5,60.14355050602499,
condition files/Stage1_1.xlsx,,T2,B2,m,"['c', 'm']","['Clue', 'Monopoly']","[-0.15, 0.5]","[0.15, 0.5]",1,1,,,,,,,,,0,10,10,10,0,3,3,3,,,,,,,,,,,,,,,,,,,,,,,,,,,,,,,,,,,,,,,,,,,,,,,,,,,,,,,764.874088692,None,764.874088692,None,764.874088692,None,m,1,1.2065488900000219,766.4241330079999,None,766.4241330079999,None,766.4241330079999,None,767.707720442,None,767.707720442,None,767.707720442,None,767.707720442,None,,,,,,,,,,,,,,,,,,,,,,,,,,,,,,,,,,,,,,,,,,,,001,54,2020_Feb_04_0956,spring_faces,3.1.5,60.14355050602499,
condition files/Stage1_1.xlsx,,B2,T1,m,"['c', 'm']","['Clue', 'Monopoly']","[-0.15, 0.5]","[0.15, 0.5]",1,1,,,,,,,,,0,10,10,10,0,4,4,2,,,,,,,,,,,,,,,,,,,,,,,,,,,,,,,,,,,,,,,,,,,,,,,,,,,,,,,769.657041878,None,769.657041878,None,769.657041878,None,m,1,0.9193911459999526,771.2072542200001,None,771.2072542200001,None,771.2072542200001,None,772.19098117,None,772.19098117,None,772.19098117,None,772.19098117,None,,,,,,,,,,,,,,,,,,,,,,,,,,,,,,,,,,,,,,,,,,,,001,54,2020_Feb_04_0956,spring_faces,3.1.5,60.14355050602499,
condition files/Stage1_1.xlsx,,B3,T3,c,"['c', 'm']","['Clue', 'Monopoly']","[-0.15, 0.5]","[0.15, 0.5]",1,1,,,,,,,,,0,10,10,10,0,5,5,4,,,,,,,,,,,,,,,,,,,,,,,,,,,,,,,,,,,,,,,,,,,,,,,,,,,,,,,774.1574693,None,774.1574693,None,774.1574693,None,c,1,0.7400932210000519,775.6905927119999,None,775.6905927119999,None,775.6905927119999,None,776.5076184070001,None,776.5076184070001,None,776.5076184070001,None,776.5076184070001,None,,,,,,,,,,,,,,,,,,,,,,,,,,,,,,,,,,,,,,,,,,,,001,54,2020_Feb_04_0956,spring_faces,3.1.5,60.14355050602499,
condition files/Stage1_1.xlsx,,T4,B3,m,"['c', 'm']","['Clue', 'Monopoly']","[-0.15, 0.5]","[0.15, 0.5]",1,1,,,,,,,,,0,10,10,10,0,6,6,6,,,,,,,,,,,,,,,,,,,,,,,,,,,,,,,,,,,,,,,,,,,,,,,,,,,,,,,778.457013917,None,778.457013917,None,778.457013917,None,m,1,0.8696963759998653,779.992960923,None,779.992960923,None,779.992960923,None,780.9244456260001,None,780.9244456260001,None,780.9244456260001,None,780.9244456260001,None,,,,,,,,,,,,,,,,,,,,,,,,,,,,,,,,,,,,,,,,,,,,001,54,2020_Feb_04_0956,spring_faces,3.1.5,60.14355050602499,
condition files/Stage1_1.xlsx,,T3,B4,c,"['c', 'm']","['Clue', 'Monopoly']","[-0.15, 0.5]","[0.15, 0.5]",1,1,,,,,,,,,0,10,10,10,0,7,7,5,,,,,,,,,,,,,,,,,,,,,,,,,,,,,,,,,,,,,,,,,,,,,,,,,,,,,,,782.8908489400001,None,782.8908489400001,None,782.8908489400001,None,c,1,0.8358854499999779,784.426798732,None,784.426798732,None,784.426798732,None,785.324297811,None,785.324297811,None,785.324297811,None,785.324297811,None,,,,,,,,,,,,,,,,,,,,,,,,,,,,,,,,,,,,,,,,,,,,001,54,2020_Feb_04_0956,spring_faces,3.1.5,60.14355050602499,
condition files/Stage1_2.xlsx,,B2,T2,m,"['c', 'm']","['Clue', 'Monopoly']","[-0.15, 0.5]","[0.15, 0.5]",1,1,,,,,,,,,0,11,11,11,0,0,0,3,,,,,,,,,,,,,,,,,,,,,,,,,,,,,,,,,,,,,,,,,,,,,,,,,,,,,,,787.307437337,None,787.307437337,None,787.307437337,None,m,1,0.6776284319998922,788.857075766,None,788.857075766,None,788.857075766,None,789.60769433,None,789.60769433,None,789.60769433,None,789.60769433,None,,,,,,,,,,,,,,,,,,,,,,,,,,,,,,,,,,,,,,,,,,,,001,54,2020_Feb_04_0956,spring_faces,3.1.5,60.14355050602499,
condition files/Stage1_2.xlsx,,T1,B2,m,"['c', 'm']","['Clue', 'Monopoly']","[-0.15, 0.5]","[0.15, 0.5]",1,1,,,,,,,,,0,11,11,11,0,1,1,2,,,,,,,,,,,,,,,,,,,,,,,,,,,,,,,,,,,,,,,,,,,,,,,,,,,,,,,791.557674426,None,791.557674426,None,791.557674426,None,m,1,1.1626767070001733,793.091935382,None,793.091935382,None,793.091935382,None,794.307352731,None,794.307352731,None,794.307352731,None,794.307352731,None,,,,,,,,,,,,,,,,,,,,,,,,,,,,,,,,,,,,,,,,,,,,001,54,2020_Feb_04_0956,spring_faces,3.1.5,60.14355050602499,
condition files/Stage1_2.xlsx,,T4,B4,m,"['c', 'm']","['Clue', 'Monopoly']","[-0.15, 0.5]","[0.15, 0.5]",1,1,,,,,,,,,0,11,11,11,0,2,2,7,,,,,,,,,,,,,,,,,,,,,,,,,,,,,,,,,,,,,,,,,,,,,,,,,,,,,,,796.274162506,None,796.274162506,None,796.274162506,None,m,1,0.8781533159999526,797.8244400210001,None,797.8244400210001,None,797.8244400210001,None,798.757164465,None,798.757164465,None,798.757164465,None,798.757164465,None,,,,,,,,,,,,,,,,,,,,,,,,,,,,,,,,,,,,,,,,,,,,001,54,2020_Feb_04_0956,spring_faces,3.1.5,60.14355050602499,
condition files/Stage1_2.xlsx,,B3,T4,m,"['c', 'm']","['Clue', 'Monopoly']","[-0.15, 0.5]","[0.15, 0.5]",1,1,,,,,,,,,0,11,11,11,0,3,3,6,,,,,,,,,,,,,,,,,,,,,,,,,,,,,,,,,,,,,,,,,,,,,,,,,,,,,,,800.723731521,None,800.723731521,None,800.723731521,None,m,1,1.4853097679999792,802.257342873,None,802.257342873,None,802.257342873,None,803.8074888660001,None,803.8074888660001,None,803.8074888660001,None,803.8074888660001,None,,,,,,,,,,,,,,,,,,,,,,,,,,,,,,,,,,,,,,,,,,,,001,54,2020_Feb_04_0956,spring_faces,3.1.5,60.14355050602499,
condition files/Stage1_2.xlsx,,B1,T1,c,"['c', 'm']","['Clue', 'Monopoly']","[-0.15, 0.5]","[0.15, 0.5]",1,1,,,,,,,,,0,11,11,11,0,4,4,0,,,,,,,,,,,,,,,,,,,,,,,,,,,,,,,,,,,,,,,,,,,,,,,,,,,,,,,805.7740415400001,None,805.7740415400001,None,805.7740415400001,None,c,1,0.8024052360001406,807.3242289120001,None,807.3242289120001,None,807.3242289120001,None,808.20775884,None,808.20775884,None,808.20775884,None,808.20775884,None,,,,,,,,,,,,,,,,,,,,,,,,,,,,,,,,,,,,,,,,,,,,001,54,2020_Feb_04_0956,spring_faces,3.1.5,60.14355050602499,
condition files/Stage1_2.xlsx,,B4,T3,c,"['c', 'm']","['Clue', 'Monopoly']","[-0.15, 0.5]","[0.15, 0.5]",1,1,,,,,,,,,0,11,11,11,0,5,5,5,,,,,,,,,,,,,,,,,,,,,,,,,,,,,,,,,,,,,,,,,,,,,,,,,,,,,,,810.158062644,None,810.158062644,None,810.158062644,None,c,1,1.0591478170001665,811.6914250069999,None,811.6914250069999,None,811.6914250069999,None,812.8080255509999,None,812.8080255509999,None,812.8080255509999,None,812.8080255509999,None,,,,,,,,,,,,,,,,,,,,,,,,,,,,,,,,,,,,,,,,,,,,001,54,2020_Feb_04_0956,spring_faces,3.1.5,60.14355050602499,
condition files/Stage1_2.xlsx,,T3,B3,c,"['c', 'm']","['Clue', 'Monopoly']","[-0.15, 0.5]","[0.15, 0.5]",1,1,,,,,,,,,0,11,11,11,0,6,6,4,,,,,,,,,,,,,,,,,,,,,,,,,,,,,,,,,,,,,,,,,,,,,,,,,,,,,,,814.773716038,None,814.773716038,None,814.773716038,None,c,1,0.7947416460001477,816.3079050020001,None,816.3079050020001,None,816.3079050020001,None,817.157855724,None,817.157855724,None,817.157855724,None,817.157855724,None,,,,,,,,,,,,,,,,,,,,,,,,,,,,,,,,,,,,,,,,,,,,001,54,2020_Feb_04_0956,spring_faces,3.1.5,60.14355050602499,
condition files/Stage1_2.xlsx,,T2,B1,c,"['c', 'm']","['Clue', 'Monopoly']","[-0.15, 0.5]","[0.15, 0.5]",1,1,,,,,,,,,0,11,11,11,0,7,7,1,,,,,,,,,,,,,,,,,,,,,,,,,,,,,,,,,,,,,,,,,,,,,,,,,,,,,,,819.1245387280001,None,819.1245387280001,None,819.1245387280001,None,c,1,1.2432186599999113,820.6593952999999,None,820.6593952999999,None,820.6593952999999,None,821.958186072,None,821.958186072,None,821.958186072,None,821.958186072,None,,,,,,,,,,,,,,,,,,,,,,,,,,,,,,,,,,,,,,,,,,,,001,54,2020_Feb_04_0956,spring_faces,3.1.5,60.14355050602499,
,,,,,,,,,,,,,,,,,,,,,,,,,,,,,,,,,,,,,,,,,,,,,,,,,,,,,,,,,,,,,,,,,,,,,,,,,,,,,,,,,,,,,,,,,,,,,,,,,,,,,,,,,,,,,,,,823.9408990490001,None,space,7.409514544000103,828.941081574,None,,,,,,,,,,,,,,,,,,,,,,,,,,,,,,001,54,2020_Feb_04_0956,spring_faces,3.1.5,60.14355050602499,
condition files/Stage2_1.xlsx,,T1,B1,s,"['s', 'r']","['Stratego', 'Risk']","[-0.15, 0.5]","[0.15, 0.5]",1,1,,,,,,,,,,,,,,,,,0,0,0,0,0,0,0,2,,,,,,,,,,,,,,,,,,,,,,,,,,,,,,,,,,,,,,,,,,,,,,,836.4577985020001,None,836.4577985020001,None,836.4577985020001,None,s,1,2.618494412000018,837.9241450679999,None,837.9241450679999,None,837.9241450679999,None,840.624389776,None,840.624389776,None,840.624389776,None,840.624389776,None,,,,,,,,,,,,,,,828.941081574,None,,,,,,,,,,,,,,,,,,,,,,,,,,,,001,54,2020_Feb_04_0956,spring_faces,3.1.5,60.14355050602499,
condition files/Stage2_1.xlsx,,B6,T6,r,"['s', 'r']","['Stratego', 'Risk']","[-0.15, 0.5]","[0.15, 0.5]",1,1,,,,,,,,,,,,,,,,,0,0,0,0,0,1,1,1,,,,,,,,,,,,,,,,,,,,,,,,,,,,,,,,,,,,,,,,,,,,,,,842.57384708,None,842.57384708,None,842.57384708,None,r,1,0.9438552599999639,844.14274731,None,844.14274731,None,844.14274731,None,845.142844939,None,845.142844939,None,845.142844939,None,845.142844939,None,,,,,,,,,,,,,,,,,,,,,,,,,,,,,,,,,,,,,,,,,,,,001,54,2020_Feb_04_0956,spring_faces,3.1.5,60.14355050602499,
condition files/Stage2_1.xlsx,,B2,T2,r,"['s', 'r']","['Stratego', 'Risk']","[-0.15, 0.5]","[0.15, 0.5]",1,1,,,,,,,,,,,,,,,,,0,0,0,0,0,2,2,3,,,,,,,,,,,,,,,,,,,,,,,,,,,,,,,,,,,,,,,,,,,,,,,847.107590437,None,847.107590437,None,847.107590437,None,r,1,0.9722311519999494,848.642479974,None,848.642479974,None,848.642479974,None,849.673932445,None,849.673932445,None,849.673932445,None,849.673932445,None,,,,,,,,,,,,,,,,,,,,,,,,,,,,,,,,,,,,,,,,,,,,001,54,2020_Feb_04_0956,spring_faces,3.1.5,60.14355050602499,
condition files/Stage2_1.xlsx,,T5,B5,s,"['s', 'r']","['Stratego', 'Risk']","[-0.15, 0.5]","[0.15, 0.5]",1,1,,,,,,,,,,,,,,,,,0,0,0,0,0,3,3,0,,,,,,,,,,,,,,,,,,,,,,,,,,,,,,,,,,,,,,,,,,,,,,,851.6406169249999,None,851.6406169249999,None,851.6406169249999,None,r,0,1.0457500270001674,853.240840527,None,853.240840527,None,853.240840527,None,854.3578034340001,None,854.3578034340001,None,854.3578034340001,None,854.3578034340001,None,,,,,,,,,,,,,,,,,,,,,,,,,,,,,,,,,,,,,,,,,,,,001,54,2020_Feb_04_0956,spring_faces,3.1.5,60.14355050602499,
condition files/Stage2_1.xlsx,,B4,T4,r,"['s', 'r']","['Stratego', 'Risk']","[-0.15, 0.5]","[0.15, 0.5]",1,1,,,,,,,,,,,,,,,,,0,0,0,0,0,4,4,5,,,,,,,,,,,,,,,,,,,,,,,,,,,,,,,,,,,,,,,,,,,,,,,856.307513746,None,856.307513746,None,856.307513746,None,r,1,1.1330534740000076,857.8576160140001,None,857.8576160140001,None,857.8576160140001,None,859.0579761429999,None,859.0579761429999,None,859.0579761429999,None,859.0579761429999,None,,,,,,,,,,,,,,,,,,,,,,,,,,,,,,,,,,,,,,,,,,,,001,54,2020_Feb_04_0956,spring_faces,3.1.5,60.14355050602499,
condition files/Stage2_1.xlsx,,T3,B3,s,"['s', 'r']","['Stratego', 'Risk']","[-0.15, 0.5]","[0.15, 0.5]",1,1,,,,,,,,,,,,,,,,,0,0,0,0,0,5,5,4,,,,,,,,,,,,,,,,,,,,,,,,,,,,,,,,,,,,,,,,,,,,,,,861.0074845470001,None,861.0074845470001,None,861.0074845470001,None,s,1,1.3277446330000657,862.5431753380001,None,862.5431753380001,None,862.5431753380001,None,863.9258692010001,None,863.9258692010001,None,863.9258692010001,None,863.9258692010001,None,,,,,,,,,,,,,,,,,,,,,,,,,,,,,,,,,,,,,,,,,,,,001,54,2020_Feb_04_0956,spring_faces,3.1.5,60.14355050602499,
condition files/Stage2_2.xlsx,,T4,B4,r,"['s', 'r']","['Stratego', 'Risk']","[-0.15, 0.5]","[0.15, 0.5]",1,1,,,,,,,,,,,,,,,,,0,1,1,1,0,0,0,5,,,,,,,,,,,,,,,,,,,,,,,,,,,,,,,,,,,,,,,,,,,,,,,865.9582226509999,None,865.9582226509999,None,865.9582226509999,None,r,1,1.004410839000002,867.442279163,None,867.442279163,None,867.442279163,None,868.5244070609999,None,868.5244070609999,None,868.5244070609999,None,868.5244070609999,None,,,,,,,,,,,,,,,,,,,,,,,,,,,,,,,,,,,,,,,,,,,,001,54,2020_Feb_04_0956,spring_faces,3.1.5,60.14355050602499,
condition files/Stage2_2.xlsx,,B5,T5,s,"['s', 'r']","['Stratego', 'Risk']","[-0.15, 0.5]","[0.15, 0.5]",1,1,,,,,,,,,,,,,,,,,0,1,1,1,0,1,1,0,,,,,,,,,,,,,,,,,,,,,,,,,,,,,,,,,,,,,,,,,,,,,,,870.474102959,None,870.474102959,None,870.474102959,None,s,1,1.2541865939999752,872.024477055,None,872.024477055,None,872.024477055,None,873.342934325,None,873.342934325,None,873.342934325,None,873.342934325,None,,,,,,,,,,,,,,,,,,,,,,,,,,,,,,,,,,,,,,,,,,,,001,54,2020_Feb_04_0956,spring_faces,3.1.5,60.14355050602499,
condition files/Stage2_2.xlsx,,B3,T3,s,"['s', 'r']","['Stratego', 'Risk']","[-0.15, 0.5]","[0.15, 0.5]",1,1,,,,,,,,,,,,,,,,,0,1,1,1,0,2,2,4,,,,,,,,,,,,,,,,,,,,,,,,,,,,,,,,,,,,,,,,,,,,,,,875.3076586110001,None,875.3076586110001,None,875.3076586110001,None,s,1,1.013601195999854,876.841069247,None,876.841069247,None,876.841069247,None,877.9077583559999,None,877.9077583559999,None,877.9077583559999,None,877.9077583559999,None,,,,,,,,,,,,,,,,,,,,,,,,,,,,,,,,,,,,,,,,,,,,001,54,2020_Feb_04_0956,spring_faces,3.1.5,60.14355050602499,
condition files/Stage2_2.xlsx,,T6,B6,r,"['s', 'r']","['Stratego', 'Risk']","[-0.15, 0.5]","[0.15, 0.5]",1,1,,,,,,,,,,,,,,,,,0,1,1,1,0,3,3,1,,,,,,,,,,,,,,,,,,,,,,,,,,,,,,,,,,,,,,,,,,,,,,,879.874310074,None,879.874310074,None,879.874310074,None,s,0,1.4384197360000144,881.4242450700001,None,881.4242450700001,None,881.4242450700001,None,882.941328246,None,882.941328246,None,882.941328246,None,882.941328246,None,,,,,,,,,,,,,,,,,,,,,,,,,,,,,,,,,,,,,,,,,,,,001,54,2020_Feb_04_0956,spring_faces,3.1.5,60.14355050602499,
condition files/Stage2_2.xlsx,,T2,B2,r,"['s', 'r']","['Stratego', 'Risk']","[-0.15, 0.5]","[0.15, 0.5]",1,1,,,,,,,,,,,,,,,,,0,1,1,1,0,4,4,3,,,,,,,,,,,,,,,,,,,,,,,,,,,,,,,,,,,,,,,,,,,,,,,884.890907881,None,884.890907881,None,884.890907881,None,r,1,1.2058697759998722,886.440766256,None,886.440766256,None,886.440766256,None,887.707332227,None,887.707332227,None,887.707332227,None,887.707332227,None,,,,,,,,,,,,,,,,,,,,,,,,,,,,,,,,,,,,,,,,,,,,001,54,2020_Feb_04_0956,spring_faces,3.1.5,60.14355050602499,
condition files/Stage2_2.xlsx,,B1,T1,s,"['s', 'r']","['Stratego', 'Risk']","[-0.15, 0.5]","[0.15, 0.5]",1,1,,,,,,,,,,,,,,,,,0,1,1,1,0,5,5,2,,,,,,,,,,,,,,,,,,,,,,,,,,,,,,,,,,,,,,,,,,,,,,,889.674227839,None,889.674227839,None,889.674227839,None,s,1,0.8061547209999844,891.2245063959999,None,891.2245063959999,None,891.2245063959999,None,892.107753512,None,892.107753512,None,892.107753512,None,892.107753512,None,,,,,,,,,,,,,,,,,,,,,,,,,,,,,,,,,,,,,,,,,,,,001,54,2020_Feb_04_0956,spring_faces,3.1.5,60.14355050602499,
condition files/Stage2_1.xlsx,,B4,T4,r,"['s', 'r']","['Stratego', 'Risk']","[-0.15, 0.5]","[0.15, 0.5]",1,1,,,,,,,,,,,,,,,,,0,2,2,2,0,0,0,5,,,,,,,,,,,,,,,,,,,,,,,,,,,,,,,,,,,,,,,,,,,,,,,894.0744837940001,None,894.0744837940001,None,894.0744837940001,None,r,1,1.0939258079999945,895.6247120200001,None,895.6247120200001,None,895.6247120200001,None,896.790573628,None,896.790573628,None,896.790573628,None,896.790573628,None,,,,,,,,,,,,,,,,,,,,,,,,,,,,,,,,,,,,,,,,,,,,001,54,2020_Feb_04_0956,spring_faces,3.1.5,60.14355050602499,
condition files/Stage2_1.xlsx,,T3,B3,s,"['s', 'r']","['Stratego', 'Risk']","[-0.15, 0.5]","[0.15, 0.5]",1,1,,,,,,,,,,,,,,,,,0,2,2,2,0,1,1,4,,,,,,,,,,,,,,,,,,,,,,,,,,,,,,,,,,,,,,,,,,,,,,,898.74095435,None,898.74095435,None,898.74095435,None,s,1,0.7473505870000281,900.275323759,None,900.275323759,None,900.275323759,None,901.0768797369999,None,901.0768797369999,None,901.0768797369999,None,901.0768797369999,None,,,,,,,,,,,,,,,,,,,,,,,,,,,,,,,,,,,,,,,,,,,,001,54,2020_Feb_04_0956,spring_faces,3.1.5,60.14355050602499,
condition files/Stage2_1.xlsx,,B6,T6,r,"['s', 'r']","['Stratego', 'Risk']","[-0.15, 0.5]","[0.15, 0.5]",1,1,,,,,,,,,,,,,,,,,0,2,2,2,0,2,2,1,,,,,,,,,,,,,,,,,,,,,,,,,,,,,,,,,,,,,,,,,,,,,,,903.0404200620001,None,903.0404200620001,None,903.0404200620001,None,r,1,0.927875481000001,904.5747612299999,None,904.5747612299999,None,904.5747612299999,None,905.560400828,None,905.560400828,None,905.560400828,None,905.560400828,None,,,,,,,,,,,,,,,,,,,,,,,,,,,,,,,,,,,,,,,,,,,,001,54,2020_Feb_04_0956,spring_faces,3.1.5,60.14355050602499,
condition files/Stage2_1.xlsx,,B2,T2,r,"['s', 'r']","['Stratego', 'Risk']","[-0.15, 0.5]","[0.15, 0.5]",1,1,,,,,,,,,,,,,,,,,0,2,2,2,0,3,3,3,,,,,,,,,,,,,,,,,,,,,,,,,,,,,,,,,,,,,,,,,,,,,,,907.523842846,None,907.523842846,None,907.523842846,None,r,1,1.0049901360000604,909.0577448890001,None,909.0577448890001,None,909.0577448890001,None,910.12441107,None,910.12441107,None,910.12441107,None,910.12441107,None,,,,,,,,,,,,,,,,,,,,,,,,,,,,,,,,,,,,,,,,,,,,001,54,2020_Feb_04_0956,spring_faces,3.1.5,60.14355050602499,
condition files/Stage2_1.xlsx,,T1,B1,s,"['s', 'r']","['Stratego', 'Risk']","[-0.15, 0.5]","[0.15, 0.5]",1,1,,,,,,,,,,,,,,,,,0,2,2,2,0,4,4,2,,,,,,,,,,,,,,,,,,,,,,,,,,,,,,,,,,,,,,,,,,,,,,,912.0912174540001,None,912.0912174540001,None,912.0912174540001,None,s,1,1.0299287450000065,913.6409853130001,None,913.6409853130001,None,913.6409853130001,None,914.7409343310001,None,914.7409343310001,None,914.7409343310001,None,914.7409343310001,None,,,,,,,,,,,,,,,,,,,,,,,,,,,,,,,,,,,,,,,,,,,,001,54,2020_Feb_04_0956,spring_faces,3.1.5,60.14355050602499,
condition files/Stage2_1.xlsx,,T5,B5,s,"['s', 'r']","['Stratego', 'Risk']","[-0.15, 0.5]","[0.15, 0.5]",1,1,,,,,,,,,,,,,,,,,0,2,2,2,0,5,5,0,,,,,,,,,,,,,,,,,,,,,,,,,,,,,,,,,,,,,,,,,,,,,,,916.6908409350001,None,916.6908409350001,None,916.6908409350001,None,r,0,2.2849602820001564,918.2257230539999,None,918.2257230539999,None,918.2257230539999,None,920.57474146,None,920.57474146,None,920.57474146,None,920.57474146,None,,,,,,,,,,,,,,,,,,,,,,,,,,,,,,,,,,,,,,,,,,,,001,54,2020_Feb_04_0956,spring_faces,3.1.5,60.14355050602499,
condition files/Stage2_2.xlsx,,T4,B4,r,"['s', 'r']","['Stratego', 'Risk']","[-0.15, 0.5]","[0.15, 0.5]",1,1,,,,,,,,,,,,,,,,,0,3,3,3,0,0,0,5,,,,,,,,,,,,,,,,,,,,,,,,,,,,,,,,,,,,,,,,,,,,,,,922.5575371699999,None,922.5575371699999,None,922.5575371699999,None,r,1,1.5710432460000447,924.107629032,None,924.107629032,None,924.107629032,None,925.757376838,None,925.757376838,None,925.757376838,None,925.757376838,None,,,,,,,,,,,,,,,,,,,,,,,,,,,,,,,,,,,,,,,,,,,,001,54,2020_Feb_04_0956,spring_faces,3.1.5,60.14355050602499,
condition files/Stage2_2.xlsx,,T6,B6,r,"['s', 'r']","['Stratego', 'Risk']","[-0.15, 0.5]","[0.15, 0.5]",1,1,,,,,,,,,,,,,,,,,0,3,3,3,0,1,1,1,,,,,,,,,,,,,,,,,,,,,,,,,,,,,,,,,,,,,,,,,,,,,,,927.706807111,None,927.706807111,None,927.706807111,None,r,1,0.5807497969999531,929.257888057,None,929.257888057,None,929.257888057,None,929.8912271710001,None,929.8912271710001,None,929.8912271710001,None,929.8912271710001,None,,,,,,,,,,,,,,,,,,,,,,,,,,,,,,,,,,,,,,,,,,,,001,54,2020_Feb_04_0956,spring_faces,3.1.5,60.14355050602499,
condition files/Stage2_2.xlsx,,T2,B2,r,"['s', 'r']","['Stratego', 'Risk']","[-0.15, 0.5]","[0.15, 0.5]",1,1,,,,,,,,,,,,,,,,,0,3,3,3,0,2,2,3,,,,,,,,,,,,,,,,,,,,,,,,,,,,,,,,,,,,,,,,,,,,,,,931.8577065439999,None,931.8577065439999,None,931.8577065439999,None,r,1,0.7344032999999399,933.392273075,None,933.392273075,None,933.392273075,None,934.1906618739999,None,934.1906618739999,None,934.1906618739999,None,934.1906618739999,None,,,,,,,,,,,,,,,,,,,,,,,,,,,,,,,,,,,,,,,,,,,,001,54,2020_Feb_04_0956,spring_faces,3.1.5,60.14355050602499,
condition files/Stage2_2.xlsx,,B3,T3,s,"['s', 'r']","['Stratego', 'Risk']","[-0.15, 0.5]","[0.15, 0.5]",1,1,,,,,,,,,,,,,,,,,0,3,3,3,0,3,3,4,,,,,,,,,,,,,,,,,,,,,,,,,,,,,,,,,,,,,,,,,,,,,,,936.157091457,None,936.157091457,None,936.157091457,None,s,1,1.1240480520000347,937.690640347,None,937.690640347,None,937.690640347,None,938.8905476729999,None,938.8905476729999,None,938.8905476729999,None,938.8905476729999,None,,,,,,,,,,,,,,,,,,,,,,,,,,,,,,,,,,,,,,,,,,,,001,54,2020_Feb_04_0956,spring_faces,3.1.5,60.14355050602499,
condition files/Stage2_2.xlsx,,B5,T5,s,"['s', 'r']","['Stratego', 'Risk']","[-0.15, 0.5]","[0.15, 0.5]",1,1,,,,,,,,,,,,,,,,,0,3,3,3,0,4,4,0,,,,,,,,,,,,,,,,,,,,,,,,,,,,,,,,,,,,,,,,,,,,,,,940.840201188,None,940.840201188,None,940.840201188,None,s,1,1.991653776000021,942.3910505829999,None,942.3910505829999,None,942.3910505829999,None,944.4406804340001,None,944.4406804340001,None,944.4406804340001,None,944.4406804340001,None,,,,,,,,,,,,,,,,,,,,,,,,,,,,,,,,,,,,,,,,,,,,001,54,2020_Feb_04_0956,spring_faces,3.1.5,60.14355050602499,
condition files/Stage2_2.xlsx,,B1,T1,s,"['s', 'r']","['Stratego', 'Risk']","[-0.15, 0.5]","[0.15, 0.5]",1,1,,,,,,,,,,,,,,,,,0,3,3,3,0,5,5,2,,,,,,,,,,,,,,,,,,,,,,,,,,,,,,,,,,,,,,,,,,,,,,,946.407888725,None,946.407888725,None,946.407888725,None,s,1,1.0324161319999803,947.942186064,None,947.942186064,None,947.942186064,None,949.041387468,None,949.041387468,None,949.041387468,None,949.041387468,None,,,,,,,,,,,,,,,,,,,,,,,,,,,,,,,,,,,,,,,,,,,,001,54,2020_Feb_04_0956,spring_faces,3.1.5,60.14355050602499,
condition files/Stage2_1.xlsx,,T1,B1,s,"['s', 'r']","['Stratego', 'Risk']","[-0.15, 0.5]","[0.15, 0.5]",1,1,,,,,,,,,,,,,,,,,0,4,4,4,0,0,0,2,,,,,,,,,,,,,,,,,,,,,,,,,,,,,,,,,,,,,,,,,,,,,,,951.024176438,None,951.024176438,None,951.024176438,None,s,1,0.9285782409999683,952.574045026,None,952.574045026,None,952.574045026,None,953.5573770000001,None,953.5573770000001,None,953.5573770000001,None,953.5573770000001,None,,,,,,,,,,,,,,,,,,,,,,,,,,,,,,,,,,,,,,,,,,,,001,54,2020_Feb_04_0956,spring_faces,3.1.5,60.14355050602499,
condition files/Stage2_1.xlsx,,T5,B5,s,"['s', 'r']","['Stratego', 'Risk']","[-0.15, 0.5]","[0.15, 0.5]",1,1,,,,,,,,,,,,,,,,,0,4,4,4,0,1,1,0,,,,,,,,,,,,,,,,,,,,,,,,,,,,,,,,,,,,,,,,,,,,,,,955.5234432980001,None,955.5234432980001,None,955.5234432980001,None,s,1,1.4362950019999516,957.074348006,None,957.074348006,None,957.074348006,None,958.5740362209999,None,958.5740362209999,None,958.5740362209999,None,958.5740362209999,None,,,,,,,,,,,,,,,,,,,,,,,,,,,,,,,,,,,,,,,,,,,,001,54,2020_Feb_04_0956,spring_faces,3.1.5,60.14355050602499,
condition files/Stage2_1.xlsx,,B6,T6,r,"['s', 'r']","['Stratego', 'Risk']","[-0.15, 0.5]","[0.15, 0.5]",1,1,,,,,,,,,,,,,,,,,0,4,4,4,0,2,2,1,,,,,,,,,,,,,,,,,,,,,,,,,,,,,,,,,,,,,,,,,,,,,,,960.5408911960001,None,960.5408911960001,None,960.5408911960001,None,r,1,0.6437734070002534,962.09093074,None,962.09093074,None,962.09093074,None,962.8077953760001,None,962.8077953760001,None,962.8077953760001,None,962.8077953760001,None,,,,,,,,,,,,,,,,,,,,,,,,,,,,,,,,,,,,,,,,,,,,001,54,2020_Feb_04_0956,spring_faces,3.1.5,60.14355050602499,
condition files/Stage2_1.xlsx,,T3,B3,s,"['s', 'r']","['Stratego', 'Risk']","[-0.15, 0.5]","[0.15, 0.5]",1,1,,,,,,,,,,,,,,,,,0,4,4,4,0,3,3,4,,,,,,,,,,,,,,,,,,,,,,,,,,,,,,,,,,,,,,,,,,,,,,,964.7570936499999,None,964.7570936499999,None,964.7570936499999,None,s,1,1.0841522279997662,966.2904484180001,None,966.2904484180001,None,966.2904484180001,None,967.4434608590002,None,967.4434608590002,None,967.4434608590002,None,967.4434608590002,None,,,,,,,,,,,,,,,,,,,,,,,,,,,,,,,,,,,,,,,,,,,,001,54,2020_Feb_04_0956,spring_faces,3.1.5,60.14355050602499,
condition files/Stage2_1.xlsx,,B4,T4,r,"['s', 'r']","['Stratego', 'Risk']","[-0.15, 0.5]","[0.15, 0.5]",1,1,,,,,,,,,,,,,,,,,0,4,4,4,0,4,4,5,,,,,,,,,,,,,,,,,,,,,,,,,,,,,,,,,,,,,,,,,,,,,,,969.407252188,None,969.407252188,None,969.407252188,None,r,1,1.0408777530001316,970.9578183030001,None,970.9578183030001,None,970.9578183030001,None,972.059556593,None,972.059556593,None,972.059556593,None,972.059556593,None,,,,,,,,,,,,,,,,,,,,,,,,,,,,,,,,,,,,,,,,,,,,001,54,2020_Feb_04_0956,spring_faces,3.1.5,60.14355050602499,
condition files/Stage2_1.xlsx,,B2,T2,r,"['s', 'r']","['Stratego', 'Risk']","[-0.15, 0.5]","[0.15, 0.5]",1,1,,,,,,,,,,,,,,,,,0,4,4,4,0,5,5,3,,,,,,,,,,,,,,,,,,,,,,,,,,,,,,,,,,,,,,,,,,,,,,,974.0239858140001,None,974.0239858140001,None,974.0239858140001,None,r,1,1.320580704999884,975.5740814110002,None,975.5740814110002,None,975.5740814110002,None,976.9578570229999,None,976.9578570229999,None,976.9578570229999,None,976.9578570229999,None,,,,,,,,,,,,,,,,,,,,,,,,,,,,,,,,,,,,,,,,,,,,001,54,2020_Feb_04_0956,spring_faces,3.1.5,60.14355050602499,
condition files/Stage2_2.xlsx,,T6,B6,r,"['s', 'r']","['Stratego', 'Risk']","[-0.15, 0.5]","[0.15, 0.5]",1,1,,,,,,,,,,,,,,,,,0,5,5,5,0,0,0,1,,,,,,,,,,,,,,,,,,,,,,,,,,,,,,,,,,,,,,,,,,,,,,,978.9409524939999,None,978.9409524939999,None,978.9409524939999,None,r,1,0.7076401559997976,980.4910642289999,None,980.4910642289999,None,980.4910642289999,None,981.257794156,None,981.257794156,None,981.257794156,None,981.257794156,None,,,,,,,,,,,,,,,,,,,,,,,,,,,,,,,,,,,,,,,,,,,,001,54,2020_Feb_04_0956,spring_faces,3.1.5,60.14355050602499,
condition files/Stage2_2.xlsx,,T4,B4,r,"['s', 'r']","['Stratego', 'Risk']","[-0.15, 0.5]","[0.15, 0.5]",1,1,,,,,,,,,,,,,,,,,0,5,5,5,0,1,1,5,,,,,,,,,,,,,,,,,,,,,,,,,,,,,,,,,,,,,,,,,,,,,,,983.2240287259999,None,983.2240287259999,None,983.2240287259999,None,r,1,0.8229893110001285,984.7597112380001,None,984.7597112380001,None,984.7597112380001,None,985.6408072890001,None,985.6408072890001,None,985.6408072890001,None,985.6408072890001,None,,,,,,,,,,,,,,,,,,,,,,,,,,,,,,,,,,,,,,,,,,,,001,54,2020_Feb_04_0956,spring_faces,3.1.5,60.14355050602499,
