condsFile,subStage,cue1,cue2,correct,responseKeys,responseNames,cue1Position,cue2Position,cue1Opacity,cue2Opacity,stageLoop0.thisRepN,stageLoop0.thisTrialN,stageLoop0.thisN,stageLoop0.thisIndex,blockLoop0.thisRepN,blockLoop0.thisTrialN,blockLoop0.thisN,blockLoop0.thisIndex,stage1Loop.thisRepN,stage1Loop.thisTrialN,stage1Loop.thisN,stage1Loop.thisIndex,blockLoop1.thisRepN,blockLoop1.thisTrialN,blockLoop1.thisN,blockLoop1.thisIndex,stage2Loop.thisRepN,stage2Loop.thisTrialN,stage2Loop.thisN,stage2Loop.thisIndex,blockLoop2.thisRepN,blockLoop2.thisTrialN,blockLoop2.thisN,blockLoop2.thisIndex,testLoop.thisRepN,testLoop.thisTrialN,testLoop.thisN,testLoop.thisIndex,blockLoopTest.thisRepN,blockLoopTest.thisTrialN,blockLoopTest.thisN,blockLoopTest.thisIndex,cuePics,id_instr_text.started,id_instr_text.stopped,space_to_continue_2.started,space_to_continue_2.stopped,end_instructions_resp_3.keys,end_instructions_resp_3.rt,end_instructions_resp_3.started,end_instructions_resp_3.stopped,id_input_instr.started,id_input_instr.stopped,id_input_rect.started,id_input_rect.stopped,id_input_resp.keys,id_input_resp.rt,id_input_resp.started,id_input_resp.stopped,sonaID,id_input_text.started,id_input_text.stopped,final_text.started,final_text.stopped,instructions.started,instructions.stopped,end_instructions_resp.keys,end_instructions_resp.rt,end_instructions_resp.started,end_instructions_resp.stopped,space_to_continue.started,space_to_continue.stopped,instructions_stage0.started,instructions_stage0.stopped,end_instructions_resp_stage0.keys,end_instructions_resp_stage0.rt,end_instructions_resp_stage0.started,end_instructions_resp_stage0.stopped,space_to_continue_stage0.started,space_to_continue_stage0.stopped,text.started,text.stopped,resp_text1.started,resp_text1.stopped,resp_text2.started,resp_text2.stopped,trial_resp.keys,trial_resp.corr,trial_resp.rt,trial_resp.started,trial_resp.stopped,cue1Image.started,cue1Image.stopped,cue2Image.started,cue2Image.stopped,cue1Image_fb.started,cue1Image_fb.stopped,cue2Image_fb.started,cue2Image_fb.stopped,fb_text_answer.started,fb_text_answer.stopped,feedback_image.started,feedback_image.stopped,instructions_stage1.started,instructions_stage1.stopped,end_instructions_resp_stage1.keys,end_instructions_resp_stage1.rt,end_instructions_resp_stage1.started,end_instructions_resp_stage1.stopped,space_to_continue_stage1.started,space_to_continue_stage1.stopped,instructions_2.started,instructions_2.stopped,end_instructions_resp_2.keys,end_instructions_resp_2.rt,end_instructions_resp_2.started,end_instructions_resp_2.stopped,press_space_to_continue_stage2.started,press_space_to_continue_stage2.stopped,instructions_testStage1.started,instructions_testStage1.stopped,end_instructions_resp_test1.keys,end_instructions_resp_test1.rt,end_instructions_resp_test1.started,end_instructions_resp_test1.stopped,press_space_to_continue_test1.started,press_space_to_continue_test1.stopped,cue1Image_testChoice.started,cue1Image_testChoice.stopped,cue2Image_testChoice.started,cue2Image_testChoice.stopped,test_resp.keys,test_resp.corr,test_resp.rt,test_resp.started,test_resp.stopped,cue1Image_testConf.started,cue1Image_testConf.stopped,cue2Image_testConf.started,cue2Image_testConf.stopped,conf_reminder.started,conf_reminder.stopped,conf_rating.response,conf_rating.rt,conf_rating.started,conf_rating.stopped,session,participant,date,expName,psychopyVersion,frameRate,
,,,,,,,,,,,,,,,,,,,,,,,,,,,,,,,,,,,,,,,,,,,"{'none': 'pictures/20M_AN_C.png', 'alpha': 'pictures/SHINEd_melon.png', 'beta': 'pictures/SHINEd_apple.png', 'theta': 'pictures/SHINEd_pear.png', 'phi': 'pictures/SHINEd_pepper.png', 'T1': 'pictures/36M_AN_C.png', 'T2': 'pictures/26M_AN_C.png', 'T3': 'pictures/33M_AN_C.png', 'T4': 'pictures/22M_AN_C.png', 'T5': 'pictures/34M_AN_C.png', 'T6': 'pictures/37M_AN_C.png', 'B1': 'pictures/20M_NE_C.png', 'B2': 'pictures/31M_NE_C.png', 'B3': 'pictures/25M_NE_C.png', 'B4': 'pictures/32M_NE_C.png', 'B5': 'pictures/38M_NE_C.png', 'B6': 'pictures/23M_NE_C.png'}",16.997745947999874,None,21.99821825899994,None,space,15.792129328999863,21.99821825899994,None,,,,,,,,,,,,,,,,,,,,,,,,,,,,,,,,,,,,,,,,,,,,,,,,,,,,,,,,,,,,,,,,,,,,,,,,,,,,,,,,,,,,,,,,,,,,,,,,001,55,2020_Feb_04_1000,spring_faces,3.1.5,60.018754180191436,
,,,,,,,,,,,,,,,,,,,,,,,,,,,,,,,,,,,,,,,,,,,,,,,,,,,,38.214523525000004,None,38.214523525000004,None,"['m', 'e', 'c', 'h', 'backspace', 'backspace', 'backspace', 'backspace', 'backspace', '1', '0', '1', '0', 'm', 'e', 'c', 'h', 'backspace', 'h', 'e']","[26.85576263500002, 27.207808618999934, 28.407737722999855, 28.567735676999973, 31.39974800999994, 32.45576473400001, 32.61574441099992, 32.759843603000036, 32.93570944399994, 33.57582001399987, 33.86375840699998, 34.03975432399989, 34.23174727199989, 35.28775230899987, 35.49579304099984, 36.119674096999915, 36.35985224000001, 41.91173885099988, 43.23976056799984, 43.57581918599999]",38.214523525000004,None,,,,,,,,,,,,,,,,,,,,,,,,,,,,,,,,,,,,,,,,,,,,,,,,,,,,,,,,,,,,,,,,,,,,,,,,,,,,,,,,,,,,,,,,001,55,2020_Feb_04_1000,spring_faces,3.1.5,60.018754180191436,
,,,,,,,,,,,,,,,,,,,,,,,,,,,,,,,,,,,,,,,,,,,,,,,,,,,,,,,,,,,,1010meche,38.214523525000004,None,38.214523525000004,None,86.86480938199998,None,space,8.117309917000057,91.86496029699993,None,,,,,,,,,,,,,,,,,,,,,,,,,,,,,,,,,,,,,,,,,,,,,,,,,,,,,,,,,,,,,,,,,,,,,,,,,,,,,001,55,2020_Feb_04_1000,spring_faces,3.1.5,60.018754180191436,
,,,,,,,,,,,,,,,,,,,,,,,,,,,,,,,,,,,,,,,,,,,,,,,,,,,,,,,,,,,,,,,,,,,,,,,91.86496029699993,None,100.03151372099978,None,space,7.6552344269998684,105.01504760099988,None,,,,,,,,,,,,,,,,,,,,,,,,,,,,,,,,,,,,,,,,,,,,,,,,,,,,,,,,,,,,,,,,,,,,,001,55,2020_Feb_04_1000,spring_faces,3.1.5,60.018754180191436,
condition files/Stage0a.xlsx,0a,alpha,none,h,"['h', 'g']","['Chess', 'Go']","[0, 0.5]","[0, 0]",1,0,0,0,0,0,0,0,0,0,,,,,,,,,,,,,,,,,,,,,,,,,,,,,,,,,,,,,,,,,,,,,,,,,,,,,,,,,,,,,105.01504760099988,None,112.78120225399994,None,112.78120225399994,None,112.78120225399994,None,g,0,5.725014611999995,114.36927235799999,None,114.36927235799999,None,114.36927235799999,None,120.21470009299992,None,120.21470009299992,None,120.21470009299992,None,120.21470009299992,None,,,,,,,,,,,,,,,,,,,,,,,,,,,,,,,,,,,,,,,,,,,,001,55,2020_Feb_04_1000,spring_faces,3.1.5,60.018754180191436,
condition files/Stage0a.xlsx,0a,beta,none,g,"['h', 'g']","['Chess', 'Go']","[0, 0.5]","[0, 0]",1,0,0,0,0,0,0,1,1,1,,,,,,,,,,,,,,,,,,,,,,,,,,,,,,,,,,,,,,,,,,,,,,,,,,,,,,,,,,,,,,,122.11496047299988,None,122.11496047299988,None,122.11496047299988,None,h,0,1.3416196680000212,123.66470366699991,None,123.66470366699991,None,123.66470366699991,None,125.0650897879998,None,125.0650897879998,None,125.0650897879998,None,125.0650897879998,None,,,,,,,,,,,,,,,,,,,,,,,,,,,,,,,,,,,,,,,,,,,,001,55,2020_Feb_04_1000,spring_faces,3.1.5,60.018754180191436,
condition files/Stage0a.xlsx,0a,alpha,none,h,"['h', 'g']","['Chess', 'Go']","[0, 0.5]","[0, 0]",1,0,0,1,1,1,0,0,0,0,,,,,,,,,,,,,,,,,,,,,,,,,,,,,,,,,,,,,,,,,,,,,,,,,,,,,,,,,,,,,,,127.04809500299984,None,127.04809500299984,None,127.04809500299984,None,h,1,1.608075996000025,128.582274976,None,128.582274976,None,128.582274976,None,130.29826288699996,None,130.29826288699996,None,130.29826288699996,None,130.29826288699996,None,,,,,,,,,,,,,,,,,,,,,,,,,,,,,,,,,,,,,,,,,,,,001,55,2020_Feb_04_1000,spring_faces,3.1.5,60.018754180191436,
condition files/Stage0a.xlsx,0a,beta,none,g,"['h', 'g']","['Chess', 'Go']","[0, 0.5]","[0, 0]",1,0,0,1,1,1,0,1,1,1,,,,,,,,,,,,,,,,,,,,,,,,,,,,,,,,,,,,,,,,,,,,,,,,,,,,,,,,,,,,,,,132.2148682149998,None,132.2148682149998,None,132.2148682149998,None,g,1,0.45791359899999406,133.7483942639999,None,133.7483942639999,None,133.7483942639999,None,134.26460463399985,None,134.26460463399985,None,134.26460463399985,None,134.26460463399985,None,,,,,,,,,,,,,,,,,,,,,,,,,,,,,,,,,,,,,,,,,,,,001,55,2020_Feb_04_1000,spring_faces,3.1.5,60.018754180191436,
condition files/Stage0a.xlsx,0a,alpha,none,h,"['h', 'g']","['Chess', 'Go']","[0, 0.5]","[0, 0]",1,0,0,2,2,2,0,0,0,0,,,,,,,,,,,,,,,,,,,,,,,,,,,,,,,,,,,,,,,,,,,,,,,,,,,,,,,,,,,,,,,136.24788546799982,None,136.24788546799982,None,136.24788546799982,None,h,1,0.7123865410001144,137.78188559199998,None,137.78188559199998,None,137.78188559199998,None,138.54840364799998,None,138.54840364799998,None,138.54840364799998,None,138.54840364799998,None,,,,,,,,,,,,,,,,,,,,,,,,,,,,,,,,,,,,,,,,,,,,001,55,2020_Feb_04_1000,spring_faces,3.1.5,60.018754180191436,
condition files/Stage0a.xlsx,0a,beta,none,g,"['h', 'g']","['Chess', 'Go']","[0, 0.5]","[0, 0]",1,0,0,2,2,2,0,1,1,1,,,,,,,,,,,,,,,,,,,,,,,,,,,,,,,,,,,,,,,,,,,,,,,,,,,,,,,,,,,,,,,140.515000117,None,140.515000117,None,140.515000117,None,g,1,0.4778735259999394,142.04838621499994,None,142.04838621499994,None,142.04838621499994,None,142.5814377019999,None,142.5814377019999,None,142.5814377019999,None,142.5814377019999,None,,,,,,,,,,,,,,,,,,,,,,,,,,,,,,,,,,,,,,,,,,,,001,55,2020_Feb_04_1000,spring_faces,3.1.5,60.018754180191436,
condition files/Stage0a.xlsx,0a,alpha,none,h,"['h', 'g']","['Chess', 'Go']","[0, 0.5]","[0, 0]",1,0,0,3,3,3,0,0,0,0,,,,,,,,,,,,,,,,,,,,,,,,,,,,,,,,,,,,,,,,,,,,,,,,,,,,,,,,,,,,,,,144.56453014999988,None,144.56453014999988,None,144.56453014999988,None,h,1,0.47487759499995263,146.0995009799999,None,146.0995009799999,None,146.0995009799999,None,146.63204569699997,None,146.63204569699997,None,146.63204569699997,None,146.63204569699997,None,,,,,,,,,,,,,,,,,,,,,,,,,,,,,,,,,,,,,,,,,,,,001,55,2020_Feb_04_1000,spring_faces,3.1.5,60.018754180191436,
condition files/Stage0a.xlsx,0a,beta,none,g,"['h', 'g']","['Chess', 'Go']","[0, 0.5]","[0, 0]",1,0,0,3,3,3,0,1,1,1,,,,,,,,,,,,,,,,,,,,,,,,,,,,,,,,,,,,,,,,,,,,,,,,,,,,,,,,,,,,,,,148.59782131299994,None,148.59782131299994,None,148.59782131299994,None,g,1,0.4585356730001422,150.13178169599996,None,150.13178169599996,None,150.13178169599996,None,150.64888879199998,None,150.64888879199998,None,150.64888879199998,None,150.64888879199998,None,,,,,,,,,,,,,,,,,,,,,,,,,,,,,,,,,,,,,,,,,,,,001,55,2020_Feb_04_1000,spring_faces,3.1.5,60.018754180191436,
condition files/Stage0a.xlsx,0a,alpha,none,h,"['h', 'g']","['Chess', 'Go']","[0, 0.5]","[0, 0]",1,0,0,4,4,4,0,0,0,0,,,,,,,,,,,,,,,,,,,,,,,,,,,,,,,,,,,,,,,,,,,,,,,,,,,,,,,,,,,,,,,152.631597263,None,152.631597263,None,152.631597263,None,h,1,0.5690155059999142,154.16525751999984,None,154.16525751999984,None,154.16525751999984,None,154.7984949539998,None,154.7984949539998,None,154.7984949539998,None,154.7984949539998,None,,,,,,,,,,,,,,,,,,,,,,,,,,,,,,,,,,,,,,,,,,,,001,55,2020_Feb_04_1000,spring_faces,3.1.5,60.018754180191436,
condition files/Stage0a.xlsx,0a,beta,none,g,"['h', 'g']","['Chess', 'Go']","[0, 0.5]","[0, 0]",1,0,0,4,4,4,0,1,1,1,,,,,,,,,,,,,,,,,,,,,,,,,,,,,,,,,,,,,,,,,,,,,,,,,,,,,,,,,,,,,,,156.76477961799992,None,156.76477961799992,None,156.76477961799992,None,g,1,0.5962739449998935,158.2979524929999,None,158.2979524929999,None,158.2979524929999,None,158.94780744599984,None,158.94780744599984,None,158.94780744599984,None,158.94780744599984,None,,,,,,,,,,,,,,,,,,,,,,,,,,,,,,,,,,,,,,,,,,,,001,55,2020_Feb_04_1000,spring_faces,3.1.5,60.018754180191436,
condition files/Stage0a.xlsx,0a,beta,none,g,"['h', 'g']","['Chess', 'Go']","[0, 0.5]","[0, 0]",1,0,0,5,5,5,0,0,0,1,,,,,,,,,,,,,,,,,,,,,,,,,,,,,,,,,,,,,,,,,,,,,,,,,,,,,,,,,,,,,,,160.93190344299978,None,160.93190344299978,None,160.93190344299978,None,g,1,0.6693271849999292,162.46494410499986,None,162.46494410499986,None,162.46494410499986,None,163.1988792789998,None,163.1988792789998,None,163.1988792789998,None,163.1988792789998,None,,,,,,,,,,,,,,,,,,,,,,,,,,,,,,,,,,,,,,,,,,,,001,55,2020_Feb_04_1000,spring_faces,3.1.5,60.018754180191436,
condition files/Stage0a.xlsx,0a,alpha,none,h,"['h', 'g']","['Chess', 'Go']","[0, 0.5]","[0, 0]",1,0,0,5,5,5,0,1,1,0,,,,,,,,,,,,,,,,,,,,,,,,,,,,,,,,,,,,,,,,,,,,,,,,,,,,,,,,,,,,,,,165.1647494219999,None,165.1647494219999,None,165.1647494219999,None,h,1,0.45176306099983776,166.69841652399987,None,166.69841652399987,None,166.69841652399987,None,167.21502324599987,None,167.21502324599987,None,167.21502324599987,None,167.21502324599987,None,,,,,,,,,,,,,,,,,,,,,,,,,,,,,,,,,,,,,,,,,,,,001,55,2020_Feb_04_1000,spring_faces,3.1.5,60.018754180191436,
condition files/Stage0b_1.xlsx,0b,alpha,none,h,"['h', 'g']","['Chess', 'Go']","[-0.15, 0.5]","[0.15, 0.5]",1,0,0,6,6,6,0,0,0,0,,,,,,,,,,,,,,,,,,,,,,,,,,,,,,,,,,,,,,,,,,,,,,,,,,,,,,,,,,,,,,,169.198435798,None,169.198435798,None,169.198435798,None,h,1,0.6908402470000965,170.73149725199983,None,170.73149725199983,None,170.73149725199983,None,171.481468835,None,171.481468835,None,171.481468835,None,171.481468835,None,,,,,,,,,,,,,,,,,,,,,,,,,,,,,,,,,,,,,,,,,,,,001,55,2020_Feb_04_1000,spring_faces,3.1.5,60.018754180191436,
condition files/Stage0b_1.xlsx,0b,none,beta,g,"['h', 'g']","['Chess', 'Go']","[-0.15, 0.5]","[0.15, 0.5]",0,1,0,6,6,6,0,1,1,1,,,,,,,,,,,,,,,,,,,,,,,,,,,,,,,,,,,,,,,,,,,,,,,,,,,,,,,,,,,,,,,173.4481322659999,None,173.4481322659999,None,173.4481322659999,None,g,1,0.6799694600001658,174.99848348199998,None,174.99848348199998,None,174.99848348199998,None,175.7373438809998,None,175.7373438809998,None,175.7373438809998,None,175.7373438809998,None,,,,,,,,,,,,,,,,,,,,,,,,,,,,,,,,,,,,,,,,,,,,001,55,2020_Feb_04_1000,spring_faces,3.1.5,60.018754180191436,
condition files/Stage0b_2.xlsx,0b,beta,none,g,"['h', 'g']","['Chess', 'Go']","[-0.15, 0.5]","[0.15, 0.5]",1,0,0,7,7,7,0,0,0,1,,,,,,,,,,,,,,,,,,,,,,,,,,,,,,,,,,,,,,,,,,,,,,,,,,,,,,,,,,,,,,,177.715172274,None,177.715172274,None,177.715172274,None,g,1,0.5571613770000567,179.2651691699998,None,179.2651691699998,None,179.2651691699998,None,179.8820247939998,None,179.8820247939998,None,179.8820247939998,None,179.8820247939998,None,,,,,,,,,,,,,,,,,,,,,,,,,,,,,,,,,,,,,,,,,,,,001,55,2020_Feb_04_1000,spring_faces,3.1.5,60.018754180191436,
condition files/Stage0b_2.xlsx,0b,none,alpha,h,"['h', 'g']","['Chess', 'Go']","[-0.15, 0.5]","[0.15, 0.5]",0,1,0,7,7,7,0,1,1,0,,,,,,,,,,,,,,,,,,,,,,,,,,,,,,,,,,,,,,,,,,,,,,,,,,,,,,,,,,,,,,,181.84752572599996,None,181.84752572599996,None,181.84752572599996,None,h,1,0.5165018410000357,183.3857568699998,None,183.3857568699998,None,183.3857568699998,None,183.97068691699997,None,183.97068691699997,None,183.97068691699997,None,183.97068691699997,None,,,,,,,,,,,,,,,,,,,,,,,,,,,,,,,,,,,,,,,,,,,,001,55,2020_Feb_04_1000,spring_faces,3.1.5,60.018754180191436,
condition files/Stage0b_1.xlsx,0b,none,beta,g,"['h', 'g']","['Chess', 'Go']","[-0.15, 0.5]","[0.15, 0.5]",0,1,0,8,8,8,0,0,0,1,,,,,,,,,,,,,,,,,,,,,,,,,,,,,,,,,,,,,,,,,,,,,,,,,,,,,,,,,,,,,,,185.94846066499986,None,185.94846066499986,None,185.94846066499986,None,g,1,0.6608899240000028,187.4814799259998,None,187.4814799259998,None,187.4814799259998,None,188.19828994299996,None,188.19828994299996,None,188.19828994299996,None,188.19828994299996,None,,,,,,,,,,,,,,,,,,,,,,,,,,,,,,,,,,,,,,,,,,,,001,55,2020_Feb_04_1000,spring_faces,3.1.5,60.018754180191436,
condition files/Stage0b_1.xlsx,0b,alpha,none,h,"['h', 'g']","['Chess', 'Go']","[-0.15, 0.5]","[0.15, 0.5]",1,0,0,8,8,8,0,1,1,0,,,,,,,,,,,,,,,,,,,,,,,,,,,,,,,,,,,,,,,,,,,,,,,,,,,,,,,,,,,,,,,190.16523706199996,None,190.16523706199996,None,190.16523706199996,None,h,1,0.555190353999933,191.71506344699992,None,191.71506344699992,None,191.71506344699992,None,192.3347898359998,None,192.3347898359998,None,192.3347898359998,None,192.3347898359998,None,,,,,,,,,,,,,,,,,,,,,,,,,,,,,,,,,,,,,,,,,,,,001,55,2020_Feb_04_1000,spring_faces,3.1.5,60.018754180191436,
condition files/Stage0b_2.xlsx,0b,beta,none,g,"['h', 'g']","['Chess', 'Go']","[-0.15, 0.5]","[0.15, 0.5]",1,0,0,9,9,9,0,0,0,1,,,,,,,,,,,,,,,,,,,,,,,,,,,,,,,,,,,,,,,,,,,,,,,,,,,,,,,,,,,,,,,194.3151153309998,None,194.3151153309998,None,194.3151153309998,None,g,1,0.5660987899998418,195.84818727099992,None,195.84818727099992,None,195.84818727099992,None,196.4648740319999,None,196.4648740319999,None,196.4648740319999,None,196.4648740319999,None,,,,,,,,,,,,,,,,,,,,,,,,,,,,,,,,,,,,,,,,,,,,001,55,2020_Feb_04_1000,spring_faces,3.1.5,60.018754180191436,
condition files/Stage0b_2.xlsx,0b,none,alpha,h,"['h', 'g']","['Chess', 'Go']","[-0.15, 0.5]","[0.15, 0.5]",0,1,0,9,9,9,0,1,1,0,,,,,,,,,,,,,,,,,,,,,,,,,,,,,,,,,,,,,,,,,,,,,,,,,,,,,,,,,,,,,,,198.4309069049998,None,198.4309069049998,None,198.4309069049998,None,h,1,0.5243763339999532,199.96987457699993,None,199.96987457699993,None,199.96987457699993,None,200.5639462529998,None,200.5639462529998,None,200.5639462529998,None,200.5639462529998,None,,,,,,,,,,,,,,,,,,,,,,,,,,,,,,,,,,,,,,,,,,,,001,55,2020_Feb_04_1000,spring_faces,3.1.5,60.018754180191436,
condition files/Stage0b_1.xlsx,0b,alpha,none,h,"['h', 'g']","['Chess', 'Go']","[-0.15, 0.5]","[0.15, 0.5]",1,0,0,10,10,10,0,0,0,0,,,,,,,,,,,,,,,,,,,,,,,,,,,,,,,,,,,,,,,,,,,,,,,,,,,,,,,,,,,,,,,202.53169367499981,None,202.53169367499981,None,202.53169367499981,None,h,1,1.3398378159999993,204.06650275099992,None,204.06650275099992,None,204.06650275099992,None,205.46453357999985,None,205.46453357999985,None,205.46453357999985,None,205.46453357999985,None,,,,,,,,,,,,,,,,,,,,,,,,,,,,,,,,,,,,,,,,,,,,001,55,2020_Feb_04_1000,spring_faces,3.1.5,60.018754180191436,
condition files/Stage0b_1.xlsx,0b,none,beta,g,"['h', 'g']","['Chess', 'Go']","[-0.15, 0.5]","[0.15, 0.5]",0,1,0,10,10,10,0,1,1,1,,,,,,,,,,,,,,,,,,,,,,,,,,,,,,,,,,,,,,,,,,,,,,,,,,,,,,,,,,,,,,,207.43147137899996,None,207.43147137899996,None,207.43147137899996,None,g,1,0.5205509710001479,208.96572423499993,None,208.96572423499993,None,208.96572423499993,None,209.55320077299984,None,209.55320077299984,None,209.55320077299984,None,209.55320077299984,None,,,,,,,,,,,,,,,,,,,,,,,,,,,,,,,,,,,,,,,,,,,,001,55,2020_Feb_04_1000,spring_faces,3.1.5,60.018754180191436,
condition files/Stage0b_2.xlsx,0b,none,alpha,h,"['h', 'g']","['Chess', 'Go']","[-0.15, 0.5]","[0.15, 0.5]",0,1,0,11,11,11,0,0,0,0,,,,,,,,,,,,,,,,,,,,,,,,,,,,,,,,,,,,,,,,,,,,,,,,,,,,,,,,,,,,,,,211.53153748499994,None,211.53153748499994,None,211.53153748499994,None,h,1,0.7416750539998702,213.06465328799982,None,213.06465328799982,None,213.06465328799982,None,213.8647278179999,None,213.8647278179999,None,213.8647278179999,None,213.8647278179999,None,,,,,,,,,,,,,,,,,,,,,,,,,,,,,,,,,,,,,,,,,,,,001,55,2020_Feb_04_1000,spring_faces,3.1.5,60.018754180191436,
condition files/Stage0b_2.xlsx,0b,beta,none,g,"['h', 'g']","['Chess', 'Go']","[-0.15, 0.5]","[0.15, 0.5]",1,0,0,11,11,11,0,1,1,1,,,,,,,,,,,,,,,,,,,,,,,,,,,,,,,,,,,,,,,,,,,,,,,,,,,,,,,,,,,,,,,215.8313814669998,None,215.8313814669998,None,215.8313814669998,None,g,1,0.648322675000145,217.38193515999978,None,217.38193515999978,None,217.38193515999978,None,218.08682492799994,None,218.08682492799994,None,218.08682492799994,None,218.08682492799994,None,,,,,,,,,,,,,,,,,,,,,,,,,,,,,,,,,,,,,,,,,,,,001,55,2020_Feb_04_1000,spring_faces,3.1.5,60.018754180191436,
condition files/Stage0c_1.xlsx,0c,beta,theta,g,"['h', 'g']","['Chess', 'Go']","[-0.15, 0.5]","[0.15, 0.5]",1,1,0,12,12,12,0,0,0,2,,,,,,,,,,,,,,,,,,,,,,,,,,,,,,,,,,,,,,,,,,,,,,,,,,,,,,,,,,,,,,,220.11492818199986,None,220.11492818199986,None,220.11492818199986,None,g,1,1.855109733999825,221.61516719199994,None,221.61516719199994,None,221.61516719199994,None,223.5318620789999,None,223.5318620789999,None,223.5318620789999,None,223.5318620789999,None,,,,,,,,,,,,,,,,,,,,,,,,,,,,,,,,,,,,,,,,,,,,001,55,2020_Feb_04_1000,spring_faces,3.1.5,60.018754180191436,
condition files/Stage0c_1.xlsx,0c,theta,alpha,h,"['h', 'g']","['Chess', 'Go']","[-0.15, 0.5]","[0.15, 0.5]",1,1,0,12,12,12,0,1,1,0,,,,,,,,,,,,,,,,,,,,,,,,,,,,,,,,,,,,,,,,,,,,,,,,,,,,,,,,,,,,,,,225.49816763299987,None,225.49816763299987,None,225.49816763299987,None,h,1,1.2863822320000509,227.03188244499984,None,227.03188244499984,None,227.03188244499984,None,228.38183679199983,None,228.38183679199983,None,228.38183679199983,None,228.38183679199983,None,,,,,,,,,,,,,,,,,,,,,,,,,,,,,,,,,,,,,,,,,,,,001,55,2020_Feb_04_1000,spring_faces,3.1.5,60.018754180191436,
condition files/Stage0c_1.xlsx,0c,alpha,phi,h,"['h', 'g']","['Chess', 'Go']","[-0.15, 0.5]","[0.15, 0.5]",1,1,0,12,12,12,0,2,2,1,,,,,,,,,,,,,,,,,,,,,,,,,,,,,,,,,,,,,,,,,,,,,,,,,,,,,,,,,,,,,,,230.348183564,None,230.348183564,None,230.348183564,None,h,1,1.2035324819999005,231.89873197499992,None,231.89873197499992,None,231.89873197499992,None,233.1653089219999,None,233.1653089219999,None,233.1653089219999,None,233.1653089219999,None,,,,,,,,,,,,,,,,,,,,,,,,,,,,,,,,,,,,,,,,,,,,001,55,2020_Feb_04_1000,spring_faces,3.1.5,60.018754180191436,
condition files/Stage0c_1.xlsx,0c,phi,beta,g,"['h', 'g']","['Chess', 'Go']","[-0.15, 0.5]","[0.15, 0.5]",1,1,0,12,12,12,0,3,3,3,,,,,,,,,,,,,,,,,,,,,,,,,,,,,,,,,,,,,,,,,,,,,,,,,,,,,,,,,,,,,,,235.13143603499998,None,235.13143603499998,None,235.13143603499998,None,g,1,0.8535368990001189,236.66473087099985,None,236.66473087099985,None,236.66473087099985,None,237.58207675199992,None,237.58207675199992,None,237.58207675199992,None,237.58207675199992,None,,,,,,,,,,,,,,,,,,,,,,,,,,,,,,,,,,,,,,,,,,,,001,55,2020_Feb_04_1000,spring_faces,3.1.5,60.018754180191436,
condition files/Stage0c_2.xlsx,0c,theta,beta,g,"['h', 'g']","['Chess', 'Go']","[-0.15, 0.5]","[0.15, 0.5]",1,1,0,13,13,13,0,0,0,2,,,,,,,,,,,,,,,,,,,,,,,,,,,,,,,,,,,,,,,,,,,,,,,,,,,,,,,,,,,,,,,239.58180521099985,None,239.58180521099985,None,239.58180521099985,None,g,1,1.1881014369998866,241.09818856399988,None,241.09818856399988,None,241.09818856399988,None,242.33233488099995,None,242.33233488099995,None,242.33233488099995,None,242.33233488099995,None,,,,,,,,,,,,,,,,,,,,,,,,,,,,,,,,,,,,,,,,,,,,001,55,2020_Feb_04_1000,spring_faces,3.1.5,60.018754180191436,
condition files/Stage0c_2.xlsx,0c,phi,alpha,h,"['h', 'g']","['Chess', 'Go']","[-0.15, 0.5]","[0.15, 0.5]",1,1,0,13,13,13,0,1,1,1,,,,,,,,,,,,,,,,,,,,,,,,,,,,,,,,,,,,,,,,,,,,,,,,,,,,,,,,,,,,,,,244.31483928299986,None,244.31483928299986,None,244.31483928299986,None,h,1,0.5977097919999323,245.8485404879998,None,245.8485404879998,None,245.8485404879998,None,246.49844214699988,None,246.49844214699988,None,246.49844214699988,None,246.49844214699988,None,,,,,,,,,,,,,,,,,,,,,,,,,,,,,,,,,,,,,,,,,,,,001,55,2020_Feb_04_1000,spring_faces,3.1.5,60.018754180191436,
condition files/Stage0c_2.xlsx,0c,alpha,theta,h,"['h', 'g']","['Chess', 'Go']","[-0.15, 0.5]","[0.15, 0.5]",1,1,0,13,13,13,0,2,2,0,,,,,,,,,,,,,,,,,,,,,,,,,,,,,,,,,,,,,,,,,,,,,,,,,,,,,,,,,,,,,,,248.4648929179998,None,248.4648929179998,None,248.4648929179998,None,h,1,0.7995735540000624,249.9986840019999,None,249.9986840019999,None,249.9986840019999,None,250.83334340199985,None,250.83334340199985,None,250.83334340199985,None,250.83334340199985,None,,,,,,,,,,,,,,,,,,,,,,,,,,,,,,,,,,,,,,,,,,,,001,55,2020_Feb_04_1000,spring_faces,3.1.5,60.018754180191436,
condition files/Stage0c_2.xlsx,0c,beta,phi,g,"['h', 'g']","['Chess', 'Go']","[-0.15, 0.5]","[0.15, 0.5]",1,1,0,13,13,13,0,3,3,3,,,,,,,,,,,,,,,,,,,,,,,,,,,,,,,,,,,,,,,,,,,,,,,,,,,,,,,,,,,,,,,252.81478895399982,None,252.81478895399982,None,252.81478895399982,None,g,1,0.7056990720000158,254.34850862899998,None,254.34850862899998,None,254.34850862899998,None,255.11520066999992,None,255.11520066999992,None,255.11520066999992,None,255.11520066999992,None,,,,,,,,,,,,,,,,,,,,,,,,,,,,,,,,,,,,,,,,,,,,001,55,2020_Feb_04_1000,spring_faces,3.1.5,60.018754180191436,
condition files/Stage0c_1.xlsx,0c,theta,alpha,h,"['h', 'g']","['Chess', 'Go']","[-0.15, 0.5]","[0.15, 0.5]",1,1,0,14,14,14,0,0,0,0,,,,,,,,,,,,,,,,,,,,,,,,,,,,,,,,,,,,,,,,,,,,,,,,,,,,,,,,,,,,,,,257.09806478899986,None,257.09806478899986,None,257.09806478899986,None,h,1,0.9664212510001562,258.63184441399994,None,258.63184441399994,None,258.63184441399994,None,259.6479211039998,None,259.6479211039998,None,259.6479211039998,None,259.6479211039998,None,,,,,,,,,,,,,,,,,,,,,,,,,,,,,,,,,,,,,,,,,,,,001,55,2020_Feb_04_1000,spring_faces,3.1.5,60.018754180191436,
condition files/Stage0c_1.xlsx,0c,beta,theta,g,"['h', 'g']","['Chess', 'Go']","[-0.15, 0.5]","[0.15, 0.5]",1,1,0,14,14,14,0,1,1,2,,,,,,,,,,,,,,,,,,,,,,,,,,,,,,,,,,,,,,,,,,,,,,,,,,,,,,,,,,,,,,,261.6146439859999,None,261.6146439859999,None,261.6146439859999,None,g,1,2.77029820000007,263.1479638369999,None,263.1479638369999,None,263.1479638369999,None,265.98198341199986,None,265.98198341199986,None,265.98198341199986,None,265.98198341199986,None,,,,,,,,,,,,,,,,,,,,,,,,,,,,,,,,,,,,,,,,,,,,001,55,2020_Feb_04_1000,spring_faces,3.1.5,60.018754180191436,
condition files/Stage0c_1.xlsx,0c,alpha,phi,h,"['h', 'g']","['Chess', 'Go']","[-0.15, 0.5]","[0.15, 0.5]",1,1,0,14,14,14,0,2,2,1,,,,,,,,,,,,,,,,,,,,,,,,,,,,,,,,,,,,,,,,,,,,,,,,,,,,,,,,,,,,,,,267.94832677399995,None,267.94832677399995,None,267.94832677399995,None,h,1,1.428504668999949,269.48176877699984,None,269.48176877699984,None,269.48176877699984,None,270.9650881189998,None,270.9650881189998,None,270.9650881189998,None,270.9650881189998,None,,,,,,,,,,,,,,,,,,,,,,,,,,,,,,,,,,,,,,,,,,,,001,55,2020_Feb_04_1000,spring_faces,3.1.5,60.018754180191436,
condition files/Stage0c_1.xlsx,0c,phi,beta,g,"['h', 'g']","['Chess', 'Go']","[-0.15, 0.5]","[0.15, 0.5]",1,1,0,14,14,14,0,3,3,3,,,,,,,,,,,,,,,,,,,,,,,,,,,,,,,,,,,,,,,,,,,,,,,,,,,,,,,,,,,,,,,272.931580187,None,272.931580187,None,272.931580187,None,g,1,0.7813066670000808,274.4649349509998,None,274.4649349509998,None,274.4649349509998,None,275.2980310439998,None,275.2980310439998,None,275.2980310439998,None,275.2980310439998,None,,,,,,,,,,,,,,,,,,,,,,,,,,,,,,,,,,,,,,,,,,,,001,55,2020_Feb_04_1000,spring_faces,3.1.5,60.018754180191436,
condition files/Stage0c_2.xlsx,0c,theta,beta,g,"['h', 'g']","['Chess', 'Go']","[-0.15, 0.5]","[0.15, 0.5]",1,1,0,15,15,15,0,0,0,2,,,,,,,,,,,,,,,,,,,,,,,,,,,,,,,,,,,,,,,,,,,,,,,,,,,,,,,,,,,,,,,277.28130942999996,None,277.28130942999996,None,277.28130942999996,None,g,1,0.7037525250000272,278.8145225139999,None,278.8145225139999,None,278.8145225139999,None,279.564932773,None,279.564932773,None,279.564932773,None,279.564932773,None,,,,,,,,,,,,,,,,,,,,,,,,,,,,,,,,,,,,,,,,,,,,001,55,2020_Feb_04_1000,spring_faces,3.1.5,60.018754180191436,
condition files/Stage0c_2.xlsx,0c,alpha,theta,h,"['h', 'g']","['Chess', 'Go']","[-0.15, 0.5]","[0.15, 0.5]",1,1,0,15,15,15,0,1,1,0,,,,,,,,,,,,,,,,,,,,,,,,,,,,,,,,,,,,,,,,,,,,,,,,,,,,,,,,,,,,,,,281.5482218359998,None,281.5482218359998,None,281.5482218359998,None,h,1,0.6444272119999823,283.08180189999985,None,283.08180189999985,None,283.08180189999985,None,283.78180339899995,None,283.78180339899995,None,283.78180339899995,None,283.78180339899995,None,,,,,,,,,,,,,,,,,,,,,,,,,,,,,,,,,,,,,,,,,,,,001,55,2020_Feb_04_1000,spring_faces,3.1.5,60.018754180191436,
condition files/Stage0c_2.xlsx,0c,phi,alpha,h,"['h', 'g']","['Chess', 'Go']","[-0.15, 0.5]","[0.15, 0.5]",1,1,0,15,15,15,0,2,2,1,,,,,,,,,,,,,,,,,,,,,,,,,,,,,,,,,,,,,,,,,,,,,,,,,,,,,,,,,,,,,,,285.7476910989999,None,285.7476910989999,None,285.7476910989999,None,h,1,0.7166990299999725,287.28156631699994,None,287.28156631699994,None,287.28156631699994,None,288.0333776709999,None,288.0333776709999,None,288.0333776709999,None,288.0333776709999,None,,,,,,,,,,,,,,,,,,,,,,,,,,,,,,,,,,,,,,,,,,,,001,55,2020_Feb_04_1000,spring_faces,3.1.5,60.018754180191436,
condition files/Stage0c_2.xlsx,0c,beta,phi,g,"['h', 'g']","['Chess', 'Go']","[-0.15, 0.5]","[0.15, 0.5]",1,1,0,15,15,15,0,3,3,3,,,,,,,,,,,,,,,,,,,,,,,,,,,,,,,,,,,,,,,,,,,,,,,,,,,,,,,,,,,,,,,290.014533735,None,290.014533735,None,290.014533735,None,g,1,0.6901387850000447,291.54812476999996,None,291.54812476999996,None,291.54812476999996,None,292.2985898019999,None,292.2985898019999,None,292.2985898019999,None,292.2985898019999,None,,,,,,,,,,,,,,,,,,,,,,,,,,,,,,,,,,,,,,,,,,,,001,55,2020_Feb_04_1000,spring_faces,3.1.5,60.018754180191436,
condition files/Stage0c_1.xlsx,0c,alpha,phi,h,"['h', 'g']","['Chess', 'Go']","[-0.15, 0.5]","[0.15, 0.5]",1,1,0,16,16,16,0,0,0,1,,,,,,,,,,,,,,,,,,,,,,,,,,,,,,,,,,,,,,,,,,,,,,,,,,,,,,,,,,,,,,,294.2818686119999,None,294.2818686119999,None,294.2818686119999,None,h,1,0.42317892300002313,295.815109163,None,295.815109163,None,295.815109163,None,296.29854477599997,None,296.29854477599997,None,296.29854477599997,None,296.29854477599997,None,,,,,,,,,,,,,,,,,,,,,,,,,,,,,,,,,,,,,,,,,,,,001,55,2020_Feb_04_1000,spring_faces,3.1.5,60.018754180191436,
condition files/Stage0c_1.xlsx,0c,beta,theta,g,"['h', 'g']","['Chess', 'Go']","[-0.15, 0.5]","[0.15, 0.5]",1,1,0,16,16,16,0,1,1,2,,,,,,,,,,,,,,,,,,,,,,,,,,,,,,,,,,,,,,,,,,,,,,,,,,,,,,,,,,,,,,,298.26488550499994,None,298.26488550499994,None,298.26488550499994,None,h,0,0.6159628030000022,299.7982850389999,None,299.7982850389999,None,299.7982850389999,None,300.4644928309999,None,300.4644928309999,None,300.4644928309999,None,300.4644928309999,None,,,,,,,,,,,,,,,,,,,,,,,,,,,,,,,,,,,,,,,,,,,,001,55,2020_Feb_04_1000,spring_faces,3.1.5,60.018754180191436,
condition files/Stage0c_1.xlsx,0c,phi,beta,g,"['h', 'g']","['Chess', 'Go']","[-0.15, 0.5]","[0.15, 0.5]",1,1,0,16,16,16,0,2,2,3,,,,,,,,,,,,,,,,,,,,,,,,,,,,,,,,,,,,,,,,,,,,,,,,,,,,,,,,,,,,,,,302.43136676999984,None,302.43136676999984,None,302.43136676999984,None,g,1,0.528808804000164,303.9654496559999,None,303.9654496559999,None,303.9654496559999,None,304.5330380559999,None,304.5330380559999,None,304.5330380559999,None,304.5330380559999,None,,,,,,,,,,,,,,,,,,,,,,,,,,,,,,,,,,,,,,,,,,,,001,55,2020_Feb_04_1000,spring_faces,3.1.5,60.018754180191436,
condition files/Stage0c_1.xlsx,0c,theta,alpha,h,"['h', 'g']","['Chess', 'Go']","[-0.15, 0.5]","[0.15, 0.5]",1,1,0,16,16,16,0,3,3,0,,,,,,,,,,,,,,,,,,,,,,,,,,,,,,,,,,,,,,,,,,,,,,,,,,,,,,,,,,,,,,,306.5149133609998,None,306.5149133609998,None,306.5149133609998,None,h,1,0.5259134379998613,308.04845054199996,None,308.04845054199996,None,308.04845054199996,None,308.6320571859999,None,308.6320571859999,None,308.6320571859999,None,308.6320571859999,None,,,,,,,,,,,,,,,,,,,,,,,,,,,,,,,,,,,,,,,,,,,,001,55,2020_Feb_04_1000,spring_faces,3.1.5,60.018754180191436,
condition files/Stage0c_2.xlsx,0c,beta,phi,g,"['h', 'g']","['Chess', 'Go']","[-0.15, 0.5]","[0.15, 0.5]",1,1,0,17,17,17,0,0,0,3,,,,,,,,,,,,,,,,,,,,,,,,,,,,,,,,,,,,,,,,,,,,,,,,,,,,,,,,,,,,,,,310.614870935,None,310.614870935,None,310.614870935,None,g,1,0.7297548589999678,312.14850596899987,None,312.14850596899987,None,312.14850596899987,None,312.93120968699986,None,312.93120968699986,None,312.93120968699986,None,312.93120968699986,None,,,,,,,,,,,,,,,,,,,,,,,,,,,,,,,,,,,,,,,,,,,,001,55,2020_Feb_04_1000,spring_faces,3.1.5,60.018754180191436,
condition files/Stage0c_2.xlsx,0c,alpha,theta,h,"['h', 'g']","['Chess', 'Go']","[-0.15, 0.5]","[0.15, 0.5]",1,1,0,17,17,17,0,1,1,0,,,,,,,,,,,,,,,,,,,,,,,,,,,,,,,,,,,,,,,,,,,,,,,,,,,,,,,,,,,,,,,314.89854102699996,None,314.89854102699996,None,314.89854102699996,None,h,1,0.6384117259999584,316.4318554869999,None,316.4318554869999,None,316.4318554869999,None,317.13172295899994,None,317.13172295899994,None,317.13172295899994,None,317.13172295899994,None,,,,,,,,,,,,,,,,,,,,,,,,,,,,,,,,,,,,,,,,,,,,001,55,2020_Feb_04_1000,spring_faces,3.1.5,60.018754180191436,
condition files/Stage0c_2.xlsx,0c,theta,beta,g,"['h', 'g']","['Chess', 'Go']","[-0.15, 0.5]","[0.15, 0.5]",1,1,0,17,17,17,0,2,2,2,,,,,,,,,,,,,,,,,,,,,,,,,,,,,,,,,,,,,,,,,,,,,,,,,,,,,,,,,,,,,,,319.0981880239999,None,319.0981880239999,None,319.0981880239999,None,g,1,0.6785434710000118,320.6316787869998,None,320.6316787869998,None,320.6316787869998,None,321.3652533069999,None,321.3652533069999,None,321.3652533069999,None,321.3652533069999,None,,,,,,,,,,,,,,,,,,,,,,,,,,,,,,,,,,,,,,,,,,,,001,55,2020_Feb_04_1000,spring_faces,3.1.5,60.018754180191436,
condition files/Stage0c_2.xlsx,0c,phi,alpha,h,"['h', 'g']","['Chess', 'Go']","[-0.15, 0.5]","[0.15, 0.5]",1,1,0,17,17,17,0,3,3,1,,,,,,,,,,,,,,,,,,,,,,,,,,,,,,,,,,,,,,,,,,,,,,,,,,,,,,,,,,,,,,,323.33158952099984,None,323.33158952099984,None,323.33158952099984,None,h,1,0.6209159729999101,324.86535856499995,None,324.86535856499995,None,324.86535856499995,None,325.5486078649999,None,325.5486078649999,None,325.5486078649999,None,325.5486078649999,None,,,,,,,,,,,,,,,,,,,,,,,,,,,,,,,,,,,,,,,,,,,,001,55,2020_Feb_04_1000,spring_faces,3.1.5,60.018754180191436,
,,,,,,,,,,,,,,,,,,,,,,,,,,,,,,,,,,,,,,,,,,,,,,,,,,,,,,,,,,,,,,,,,,,,,,,,,,,,,,,,,,,,,,,,,,,,,,,,,,,,,,,,327.5318382659998,None,space,7.338600577999841,332.5316950419999,None,,,,,,,,,,,,,,,,,,,,,,,,,,,,,,,,,,,,,,001,55,2020_Feb_04_1000,spring_faces,3.1.5,60.018754180191436,
condition files/Stage1_1.xlsx,,B3,T3,c,"['c', 'm']","['Clue', 'Monopoly']","[-0.15, 0.5]","[0.15, 0.5]",1,1,,,,,,,,,0,0,0,0,0,0,0,4,,,,,,,,,,,,,,,,,,,,,,,,,,,,,,,,,,,,,,,,,,,,,,,,,,,,,,,339.981199588,None,339.981199588,None,339.981199588,None,c,1,1.171493086000055,341.498729701,None,341.498729701,None,341.498729701,None,342.74855356499984,None,342.74855356499984,None,342.74855356499984,None,342.74855356499984,None,,,,,,,332.5316950419999,None,,,,,,,,,,,,,,,,,,,,,,,,,,,,,,,,,,,,001,55,2020_Feb_04_1000,spring_faces,3.1.5,60.018754180191436,
condition files/Stage1_1.xlsx,,B2,T1,m,"['c', 'm']","['Clue', 'Monopoly']","[-0.15, 0.5]","[0.15, 0.5]",1,1,,,,,,,,,0,0,0,0,0,1,1,2,,,,,,,,,,,,,,,,,,,,,,,,,,,,,,,,,,,,,,,,,,,,,,,,,,,,,,,344.6974154119998,None,344.6974154119998,None,344.6974154119998,None,m,1,0.9823163070000192,346.24796127599984,None,346.24796127599984,None,346.24796127599984,None,347.2986998079998,None,347.2986998079998,None,347.2986998079998,None,347.2986998079998,None,,,,,,,,,,,,,,,,,,,,,,,,,,,,,,,,,,,,,,,,,,,,001,55,2020_Feb_04_1000,spring_faces,3.1.5,60.018754180191436,
condition files/Stage1_1.xlsx,,T1,B1,c,"['c', 'm']","['Clue', 'Monopoly']","[-0.15, 0.5]","[0.15, 0.5]",1,1,,,,,,,,,0,0,0,0,0,2,2,0,,,,,,,,,,,,,,,,,,,,,,,,,,,,,,,,,,,,,,,,,,,,,,,,,,,,,,,349.2482549439999,None,349.2482549439999,None,349.2482549439999,None,c,1,1.6163104750000912,350.79795097099986,None,350.79795097099986,None,350.79795097099986,None,352.48212988399996,None,352.48212988399996,None,352.48212988399996,None,352.48212988399996,None,,,,,,,,,,,,,,,,,,,,,,,,,,,,,,,,,,,,,,,,,,,,001,55,2020_Feb_04_1000,spring_faces,3.1.5,60.018754180191436,
condition files/Stage1_1.xlsx,,T2,B2,m,"['c', 'm']","['Clue', 'Monopoly']","[-0.15, 0.5]","[0.15, 0.5]",1,1,,,,,,,,,0,0,0,0,0,3,3,3,,,,,,,,,,,,,,,,,,,,,,,,,,,,,,,,,,,,,,,,,,,,,,,,,,,,,,,354.43144846199993,None,354.43144846199993,None,354.43144846199993,None,m,1,1.1204684810002163,355.98179204999997,None,355.98179204999997,None,355.98179204999997,None,357.1663213699999,None,357.1663213699999,None,357.1663213699999,None,357.1663213699999,None,,,,,,,,,,,,,,,,,,,,,,,,,,,,,,,,,,,,,,,,,,,,001,55,2020_Feb_04_1000,spring_faces,3.1.5,60.018754180191436,
condition files/Stage1_1.xlsx,,B4,T4,m,"['c', 'm']","['Clue', 'Monopoly']","[-0.15, 0.5]","[0.15, 0.5]",1,1,,,,,,,,,0,0,0,0,0,4,4,7,,,,,,,,,,,,,,,,,,,,,,,,,,,,,,,,,,,,,,,,,,,,,,,,,,,,,,,359.131577848,None,359.131577848,None,359.131577848,None,m,1,3.1560145640000883,360.69823926799995,None,360.69823926799995,None,360.69823926799995,None,363.91487367499985,None,363.91487367499985,None,363.91487367499985,None,363.91487367499985,None,,,,,,,,,,,,,,,,,,,,,,,,,,,,,,,,,,,,,,,,,,,,001,55,2020_Feb_04_1000,spring_faces,3.1.5,60.018754180191436,
condition files/Stage1_1.xlsx,,T3,B4,c,"['c', 'm']","['Clue', 'Monopoly']","[-0.15, 0.5]","[0.15, 0.5]",1,1,,,,,,,,,0,0,0,0,0,5,5,5,,,,,,,,,,,,,,,,,,,,,,,,,,,,,,,,,,,,,,,,,,,,,,,,,,,,,,,365.881393505,None,365.881393505,None,365.881393505,None,c,1,1.2226067710000734,367.43172549199994,None,367.43172549199994,None,367.43172549199994,None,368.71485178199987,None,368.71485178199987,None,368.71485178199987,None,368.71485178199987,None,,,,,,,,,,,,,,,,,,,,,,,,,,,,,,,,,,,,,,,,,,,,001,55,2020_Feb_04_1000,spring_faces,3.1.5,60.018754180191436,
condition files/Stage1_1.xlsx,,B1,T2,c,"['c', 'm']","['Clue', 'Monopoly']","[-0.15, 0.5]","[0.15, 0.5]",1,1,,,,,,,,,0,0,0,0,0,6,6,1,,,,,,,,,,,,,,,,,,,,,,,,,,,,,,,,,,,,,,,,,,,,,,,,,,,,,,,370.6815854109998,None,370.6815854109998,None,370.6815854109998,None,m,0,1.2070522859999073,372.2153035649999,None,372.2153035649999,None,372.2153035649999,None,373.4815168729999,None,373.4815168729999,None,373.4815168729999,None,373.4815168729999,None,,,,,,,,,,,,,,,,,,,,,,,,,,,,,,,,,,,,,,,,,,,,001,55,2020_Feb_04_1000,spring_faces,3.1.5,60.018754180191436,
condition files/Stage1_1.xlsx,,T4,B3,m,"['c', 'm']","['Clue', 'Monopoly']","[-0.15, 0.5]","[0.15, 0.5]",1,1,,,,,,,,,0,0,0,0,0,7,7,6,,,,,,,,,,,,,,,,,,,,,,,,,,,,,,,,,,,,,,,,,,,,,,,,,,,,,,,375.44800606299987,None,375.44800606299987,None,375.44800606299987,None,m,1,1.1444143189999068,376.98183834299994,None,376.98183834299994,None,376.98183834299994,None,378.1828511049998,None,378.1828511049998,None,378.1828511049998,None,378.1828511049998,None,,,,,,,,,,,,,,,,,,,,,,,,,,,,,,,,,,,,,,,,,,,,001,55,2020_Feb_04_1000,spring_faces,3.1.5,60.018754180191436,
condition files/Stage1_2.xlsx,,B2,T2,m,"['c', 'm']","['Clue', 'Monopoly']","[-0.15, 0.5]","[0.15, 0.5]",1,1,,,,,,,,,0,1,1,1,0,0,0,3,,,,,,,,,,,,,,,,,,,,,,,,,,,,,,,,,,,,,,,,,,,,,,,,,,,,,,,380.21500162999996,None,380.21500162999996,None,380.21500162999996,None,m,1,1.1954034190000584,381.714878346,None,381.714878346,None,381.714878346,None,382.9645956489999,None,382.9645956489999,None,382.9645956489999,None,382.9645956489999,None,,,,,,,,,,,,,,,,,,,,,,,,,,,,,,,,,,,,,,,,,,,,001,55,2020_Feb_04_1000,spring_faces,3.1.5,60.018754180191436,
condition files/Stage1_2.xlsx,,B1,T1,c,"['c', 'm']","['Clue', 'Monopoly']","[-0.15, 0.5]","[0.15, 0.5]",1,1,,,,,,,,,0,1,1,1,0,1,1,0,,,,,,,,,,,,,,,,,,,,,,,,,,,,,,,,,,,,,,,,,,,,,,,,,,,,,,,384.93081509599983,None,384.93081509599983,None,384.93081509599983,None,c,1,1.0847249139999349,386.48148564099984,None,386.48148564099984,None,386.48148564099984,None,387.63312030299994,None,387.63312030299994,None,387.63312030299994,None,387.63312030299994,None,,,,,,,,,,,,,,,,,,,,,,,,,,,,,,,,,,,,,,,,,,,,001,55,2020_Feb_04_1000,spring_faces,3.1.5,60.018754180191436,
condition files/Stage1_2.xlsx,,T4,B4,m,"['c', 'm']","['Clue', 'Monopoly']","[-0.15, 0.5]","[0.15, 0.5]",1,1,,,,,,,,,0,1,1,1,0,2,2,7,,,,,,,,,,,,,,,,,,,,,,,,,,,,,,,,,,,,,,,,,,,,,,,,,,,,,,,389.59827047499994,None,389.59827047499994,None,389.59827047499994,None,m,1,1.3939350250000189,391.132317952,None,391.132317952,None,391.132317952,None,392.58420482999986,None,392.58420482999986,None,392.58420482999986,None,392.58420482999986,None,,,,,,,,,,,,,,,,,,,,,,,,,,,,,,,,,,,,,,,,,,,,001,55,2020_Feb_04_1000,spring_faces,3.1.5,60.018754180191436,
condition files/Stage1_2.xlsx,,B3,T4,m,"['c', 'm']","['Clue', 'Monopoly']","[-0.15, 0.5]","[0.15, 0.5]",1,1,,,,,,,,,0,1,1,1,0,3,3,6,,,,,,,,,,,,,,,,,,,,,,,,,,,,,,,,,,,,,,,,,,,,,,,,,,,,,,,394.547578595,None,394.547578595,None,394.547578595,None,m,1,1.130493328999819,396.083786618,None,396.083786618,None,396.083786618,None,397.2645759489999,None,397.2645759489999,None,397.2645759489999,None,397.2645759489999,None,,,,,,,,,,,,,,,,,,,,,,,,,,,,,,,,,,,,,,,,,,,,001,55,2020_Feb_04_1000,spring_faces,3.1.5,60.018754180191436,
condition files/Stage1_2.xlsx,,T1,B2,m,"['c', 'm']","['Clue', 'Monopoly']","[-0.15, 0.5]","[0.15, 0.5]",1,1,,,,,,,,,0,1,1,1,0,4,4,2,,,,,,,,,,,,,,,,,,,,,,,,,,,,,,,,,,,,,,,,,,,,,,,,,,,,,,,399.23157696299995,None,399.23157696299995,None,399.23157696299995,None,m,1,0.9612570079998477,400.76499978599986,None,400.76499978599986,None,400.76499978599986,None,401.781430581,None,401.781430581,None,401.781430581,None,401.781430581,None,,,,,,,,,,,,,,,,,,,,,,,,,,,,,,,,,,,,,,,,,,,,001,55,2020_Feb_04_1000,spring_faces,3.1.5,60.018754180191436,
condition files/Stage1_2.xlsx,,B4,T3,c,"['c', 'm']","['Clue', 'Monopoly']","[-0.15, 0.5]","[0.15, 0.5]",1,1,,,,,,,,,0,1,1,1,0,5,5,5,,,,,,,,,,,,,,,,,,,,,,,,,,,,,,,,,,,,,,,,,,,,,,,,,,,,,,,403.74801006999996,None,403.74801006999996,None,403.74801006999996,None,c,1,0.7315831800001433,405.28269730299985,None,405.28269730299985,None,405.28269730299985,None,406.06791314299994,None,406.06791314299994,None,406.06791314299994,None,406.06791314299994,None,,,,,,,,,,,,,,,,,,,,,,,,,,,,,,,,,,,,,,,,,,,,001,55,2020_Feb_04_1000,spring_faces,3.1.5,60.018754180191436,
condition files/Stage1_2.xlsx,,T2,B1,c,"['c', 'm']","['Clue', 'Monopoly']","[-0.15, 0.5]","[0.15, 0.5]",1,1,,,,,,,,,0,1,1,1,0,6,6,1,,,,,,,,,,,,,,,,,,,,,,,,,,,,,,,,,,,,,,,,,,,,,,,,,,,,,,,408.03162266999993,None,408.03162266999993,None,408.03162266999993,None,c,1,1.2329930389998935,409.565297183,None,409.565297183,None,409.565297183,None,410.8481990529999,None,410.8481990529999,None,410.8481990529999,None,410.8481990529999,None,,,,,,,,,,,,,,,,,,,,,,,,,,,,,,,,,,,,,,,,,,,,001,55,2020_Feb_04_1000,spring_faces,3.1.5,60.018754180191436,
condition files/Stage1_2.xlsx,,T3,B3,c,"['c', 'm']","['Clue', 'Monopoly']","[-0.15, 0.5]","[0.15, 0.5]",1,1,,,,,,,,,0,1,1,1,0,7,7,4,,,,,,,,,,,,,,,,,,,,,,,,,,,,,,,,,,,,,,,,,,,,,,,,,,,,,,,412.815077427,None,412.815077427,None,412.815077427,None,c,1,0.8341836600000079,414.3480612589999,None,414.3480612589999,None,414.3480612589999,None,415.2485240069998,None,415.2485240069998,None,415.2485240069998,None,415.2485240069998,None,,,,,,,,,,,,,,,,,,,,,,,,,,,,,,,,,,,,,,,,,,,,001,55,2020_Feb_04_1000,spring_faces,3.1.5,60.018754180191436,
condition files/Stage1_1.xlsx,,T2,B2,m,"['c', 'm']","['Clue', 'Monopoly']","[-0.15, 0.5]","[0.15, 0.5]",1,1,,,,,,,,,0,2,2,2,0,0,0,3,,,,,,,,,,,,,,,,,,,,,,,,,,,,,,,,,,,,,,,,,,,,,,,,,,,,,,,417.231870567,None,417.231870567,None,417.231870567,None,m,1,0.9926979900001243,418.7656391359999,None,418.7656391359999,None,418.7656391359999,None,419.81530505,None,419.81530505,None,419.81530505,None,419.81530505,None,,,,,,,,,,,,,,,,,,,,,,,,,,,,,,,,,,,,,,,,,,,,001,55,2020_Feb_04_1000,spring_faces,3.1.5,60.018754180191436,
condition files/Stage1_1.xlsx,,B1,T2,c,"['c', 'm']","['Clue', 'Monopoly']","[-0.15, 0.5]","[0.15, 0.5]",1,1,,,,,,,,,0,2,2,2,0,1,1,1,,,,,,,,,,,,,,,,,,,,,,,,,,,,,,,,,,,,,,,,,,,,,,,,,,,,,,,421.7812465889999,None,421.7812465889999,None,421.7812465889999,None,c,1,1.5290684050000891,423.3172140669999,None,423.3172140669999,None,423.3172140669999,None,424.89939890999995,None,424.89939890999995,None,424.89939890999995,None,424.89939890999995,None,,,,,,,,,,,,,,,,,,,,,,,,,,,,,,,,,,,,,,,,,,,,001,55,2020_Feb_04_1000,spring_faces,3.1.5,60.018754180191436,
condition files/Stage1_1.xlsx,,T4,B3,m,"['c', 'm']","['Clue', 'Monopoly']","[-0.15, 0.5]","[0.15, 0.5]",1,1,,,,,,,,,0,2,2,2,0,2,2,6,,,,,,,,,,,,,,,,,,,,,,,,,,,,,,,,,,,,,,,,,,,,,,,,,,,,,,,426.86480499799995,None,426.86480499799995,None,426.86480499799995,None,m,1,1.1357264560001568,428.41453814299985,None,428.41453814299985,None,428.41453814299985,None,429.632021764,None,429.632021764,None,429.632021764,None,429.632021764,None,,,,,,,,,,,,,,,,,,,,,,,,,,,,,,,,,,,,,,,,,,,,001,55,2020_Feb_04_1000,spring_faces,3.1.5,60.018754180191436,
condition files/Stage1_1.xlsx,,T1,B1,c,"['c', 'm']","['Clue', 'Monopoly']","[-0.15, 0.5]","[0.15, 0.5]",1,1,,,,,,,,,0,2,2,2,0,3,3,0,,,,,,,,,,,,,,,,,,,,,,,,,,,,,,,,,,,,,,,,,,,,,,,,,,,,,,,431.5815422369999,None,431.5815422369999,None,431.5815422369999,None,c,1,1.986789902000055,433.11550129499983,None,433.11550129499983,None,433.11550129499983,None,435.1652527519998,None,435.1652527519998,None,435.1652527519998,None,435.1652527519998,None,,,,,,,,,,,,,,,,,,,,,,,,,,,,,,,,,,,,,,,,,,,,001,55,2020_Feb_04_1000,spring_faces,3.1.5,60.018754180191436,
condition files/Stage1_1.xlsx,,T3,B4,c,"['c', 'm']","['Clue', 'Monopoly']","[-0.15, 0.5]","[0.15, 0.5]",1,1,,,,,,,,,0,2,2,2,0,4,4,5,,,,,,,,,,,,,,,,,,,,,,,,,,,,,,,,,,,,,,,,,,,,,,,,,,,,,,,437.131702466,None,437.131702466,None,437.131702466,None,c,1,1.2522274429998106,438.6660542699999,None,438.6660542699999,None,438.6660542699999,None,439.9813031619999,None,439.9813031619999,None,439.9813031619999,None,439.9813031619999,None,,,,,,,,,,,,,,,,,,,,,,,,,,,,,,,,,,,,,,,,,,,,001,55,2020_Feb_04_1000,spring_faces,3.1.5,60.018754180191436,
condition files/Stage1_1.xlsx,,B4,T4,m,"['c', 'm']","['Clue', 'Monopoly']","[-0.15, 0.5]","[0.15, 0.5]",1,1,,,,,,,,,0,2,2,2,0,5,5,7,,,,,,,,,,,,,,,,,,,,,,,,,,,,,,,,,,,,,,,,,,,,,,,,,,,,,,,441.9481588289998,None,441.9481588289998,None,441.9481588289998,None,m,1,0.9491809399999056,443.48108212499983,None,443.48108212499983,None,443.48108212499983,None,444.483288594,None,444.483288594,None,444.483288594,None,444.483288594,None,,,,,,,,,,,,,,,,,,,,,,,,,,,,,,,,,,,,,,,,,,,,001,55,2020_Feb_04_1000,spring_faces,3.1.5,60.018754180191436,
condition files/Stage1_1.xlsx,,B2,T1,m,"['c', 'm']","['Clue', 'Monopoly']","[-0.15, 0.5]","[0.15, 0.5]",1,1,,,,,,,,,0,2,2,2,0,6,6,2,,,,,,,,,,,,,,,,,,,,,,,,,,,,,,,,,,,,,,,,,,,,,,,,,,,,,,,446.44819554799983,None,446.44819554799983,None,446.44819554799983,None,m,1,0.8636028470000383,447.982676287,None,447.982676287,None,447.982676287,None,448.8985803869998,None,448.8985803869998,None,448.8985803869998,None,448.8985803869998,None,,,,,,,,,,,,,,,,,,,,,,,,,,,,,,,,,,,,,,,,,,,,001,55,2020_Feb_04_1000,spring_faces,3.1.5,60.018754180191436,
condition files/Stage1_1.xlsx,,B3,T3,c,"['c', 'm']","['Clue', 'Monopoly']","[-0.15, 0.5]","[0.15, 0.5]",1,1,,,,,,,,,0,2,2,2,0,7,7,4,,,,,,,,,,,,,,,,,,,,,,,,,,,,,,,,,,,,,,,,,,,,,,,,,,,,,,,450.865088369,None,450.865088369,None,450.865088369,None,c,1,0.8143639039999471,452.3999138339998,None,452.3999138339998,None,452.3999138339998,None,453.2675221559998,None,453.2675221559998,None,453.2675221559998,None,453.2675221559998,None,,,,,,,,,,,,,,,,,,,,,,,,,,,,,,,,,,,,,,,,,,,,001,55,2020_Feb_04_1000,spring_faces,3.1.5,60.018754180191436,
condition files/Stage1_2.xlsx,,B4,T3,c,"['c', 'm']","['Clue', 'Monopoly']","[-0.15, 0.5]","[0.15, 0.5]",1,1,,,,,,,,,0,3,3,3,0,0,0,5,,,,,,,,,,,,,,,,,,,,,,,,,,,,,,,,,,,,,,,,,,,,,,,,,,,,,,,455.248534114,None,455.248534114,None,455.248534114,None,c,1,0.8806726580000941,456.78161078999983,None,456.78161078999983,None,456.78161078999983,None,457.7149185039998,None,457.7149185039998,None,457.7149185039998,None,457.7149185039998,None,,,,,,,,,,,,,,,,,,,,,,,,,,,,,,,,,,,,,,,,,,,,001,55,2020_Feb_04_1000,spring_faces,3.1.5,60.018754180191436,
condition files/Stage1_2.xlsx,,T3,B3,c,"['c', 'm']","['Clue', 'Monopoly']","[-0.15, 0.5]","[0.15, 0.5]",1,1,,,,,,,,,0,3,3,3,0,1,1,4,,,,,,,,,,,,,,,,,,,,,,,,,,,,,,,,,,,,,,,,,,,,,,,,,,,,,,,459.68095832999984,None,459.68095832999984,None,459.68095832999984,None,c,1,0.7490416519999599,461.2172028939999,None,461.2172028939999,None,461.2172028939999,None,462.031840119,None,462.031840119,None,462.031840119,None,462.031840119,None,,,,,,,,,,,,,,,,,,,,,,,,,,,,,,,,,,,,,,,,,,,,001,55,2020_Feb_04_1000,spring_faces,3.1.5,60.018754180191436,
condition files/Stage1_2.xlsx,,B3,T4,m,"['c', 'm']","['Clue', 'Monopoly']","[-0.15, 0.5]","[0.15, 0.5]",1,1,,,,,,,,,0,3,3,3,0,2,2,6,,,,,,,,,,,,,,,,,,,,,,,,,,,,,,,,,,,,,,,,,,,,,,,,,,,,,,,463.9976349599999,None,463.9976349599999,None,463.9976349599999,None,m,1,1.1377441399999952,465.53255481999986,None,465.53255481999986,None,465.53255481999986,None,466.73206929899993,None,466.73206929899993,None,466.73206929899993,None,466.73206929899993,None,,,,,,,,,,,,,,,,,,,,,,,,,,,,,,,,,,,,,,,,,,,,001,55,2020_Feb_04_1000,spring_faces,3.1.5,60.018754180191436,
condition files/Stage1_2.xlsx,,T2,B1,c,"['c', 'm']","['Clue', 'Monopoly']","[-0.15, 0.5]","[0.15, 0.5]",1,1,,,,,,,,,0,3,3,3,0,3,3,1,,,,,,,,,,,,,,,,,,,,,,,,,,,,,,,,,,,,,,,,,,,,,,,,,,,,,,,468.69818146499983,None,468.69818146499983,None,468.69818146499983,None,c,1,1.0776317639999888,470.232610068,None,470.232610068,None,470.232610068,None,471.36783395999987,None,471.36783395999987,None,471.36783395999987,None,471.36783395999987,None,,,,,,,,,,,,,,,,,,,,,,,,,,,,,,,,,,,,,,,,,,,,001,55,2020_Feb_04_1000,spring_faces,3.1.5,60.018754180191436,
condition files/Stage1_2.xlsx,,B1,T1,c,"['c', 'm']","['Clue', 'Monopoly']","[-0.15, 0.5]","[0.15, 0.5]",1,1,,,,,,,,,0,3,3,3,0,4,4,0,,,,,,,,,,,,,,,,,,,,,,,,,,,,,,,,,,,,,,,,,,,,,,,,,,,,,,,473.33121102199993,None,473.33121102199993,None,473.33121102199993,None,c,1,1.2612169639999138,474.8811155789999,None,474.8811155789999,None,474.8811155789999,None,476.1981740819999,None,476.1981740819999,None,476.1981740819999,None,476.1981740819999,None,,,,,,,,,,,,,,,,,,,,,,,,,,,,,,,,,,,,,,,,,,,,001,55,2020_Feb_04_1000,spring_faces,3.1.5,60.018754180191436,
condition files/Stage1_2.xlsx,,B2,T2,m,"['c', 'm']","['Clue', 'Monopoly']","[-0.15, 0.5]","[0.15, 0.5]",1,1,,,,,,,,,0,3,3,3,0,5,5,3,,,,,,,,,,,,,,,,,,,,,,,,,,,,,,,,,,,,,,,,,,,,,,,,,,,,,,,478.164325641,None,478.164325641,None,478.164325641,None,m,1,1.499244494000095,479.71502053899985,None,479.71502053899985,None,479.71502053899985,None,481.2817250429998,None,481.2817250429998,None,481.2817250429998,None,481.2817250429998,None,,,,,,,,,,,,,,,,,,,,,,,,,,,,,,,,,,,,,,,,,,,,001,55,2020_Feb_04_1000,spring_faces,3.1.5,60.018754180191436,
condition files/Stage1_2.xlsx,,T1,B2,m,"['c', 'm']","['Clue', 'Monopoly']","[-0.15, 0.5]","[0.15, 0.5]",1,1,,,,,,,,,0,3,3,3,0,6,6,2,,,,,,,,,,,,,,,,,,,,,,,,,,,,,,,,,,,,,,,,,,,,,,,,,,,,,,,483.23157127399986,None,483.23157127399986,None,483.23157127399986,None,m,1,1.2001284129999021,484.76610067599995,None,484.76610067599995,None,484.76610067599995,None,486.03130190699994,None,486.03130190699994,None,486.03130190699994,None,486.03130190699994,None,,,,,,,,,,,,,,,,,,,,,,,,,,,,,,,,,,,,,,,,,,,,001,55,2020_Feb_04_1000,spring_faces,3.1.5,60.018754180191436,
condition files/Stage1_2.xlsx,,T4,B4,m,"['c', 'm']","['Clue', 'Monopoly']","[-0.15, 0.5]","[0.15, 0.5]",1,1,,,,,,,,,0,3,3,3,0,7,7,7,,,,,,,,,,,,,,,,,,,,,,,,,,,,,,,,,,,,,,,,,,,,,,,,,,,,,,,487.99836912499995,None,487.99836912499995,None,487.99836912499995,None,m,1,1.4104985839999244,489.5318516279999,None,489.5318516279999,None,489.5318516279999,None,490.997992694,None,490.997992694,None,490.997992694,None,490.997992694,None,,,,,,,,,,,,,,,,,,,,,,,,,,,,,,,,,,,,,,,,,,,,001,55,2020_Feb_04_1000,spring_faces,3.1.5,60.018754180191436,
condition files/Stage1_1.xlsx,,B3,T3,c,"['c', 'm']","['Clue', 'Monopoly']","[-0.15, 0.5]","[0.15, 0.5]",1,1,,,,,,,,,0,4,4,4,0,0,0,4,,,,,,,,,,,,,,,,,,,,,,,,,,,,,,,,,,,,,,,,,,,,,,,,,,,,,,,492.98202170599984,None,492.98202170599984,None,492.98202170599984,None,c,1,1.0674019959999441,494.514828652,None,494.514828652,None,494.514828652,None,495.6485992129999,None,495.6485992129999,None,495.6485992129999,None,495.6485992129999,None,,,,,,,,,,,,,,,,,,,,,,,,,,,,,,,,,,,,,,,,,,,,001,55,2020_Feb_04_1000,spring_faces,3.1.5,60.018754180191436,
condition files/Stage1_1.xlsx,,B2,T1,m,"['c', 'm']","['Clue', 'Monopoly']","[-0.15, 0.5]","[0.15, 0.5]",1,1,,,,,,,,,0,4,4,4,0,1,1,2,,,,,,,,,,,,,,,,,,,,,,,,,,,,,,,,,,,,,,,,,,,,,,,,,,,,,,,497.6148197329999,None,497.6148197329999,None,497.6148197329999,None,m,1,1.0255535999999665,499.148825388,None,499.148825388,None,499.148825388,None,500.2320906509999,None,500.2320906509999,None,500.2320906509999,None,500.2320906509999,None,,,,,,,,,,,,,,,,,,,,,,,,,,,,,,,,,,,,,,,,,,,,001,55,2020_Feb_04_1000,spring_faces,3.1.5,60.018754180191436,
condition files/Stage1_1.xlsx,,T3,B4,c,"['c', 'm']","['Clue', 'Monopoly']","[-0.15, 0.5]","[0.15, 0.5]",1,1,,,,,,,,,0,4,4,4,0,2,2,5,,,,,,,,,,,,,,,,,,,,,,,,,,,,,,,,,,,,,,,,,,,,,,,,,,,,,,,502.19835790599996,None,502.19835790599996,None,502.19835790599996,None,c,1,0.9376637849998133,503.748593647,None,503.748593647,None,503.748593647,None,504.74907904299994,None,504.74907904299994,None,504.74907904299994,None,504.74907904299994,None,,,,,,,,,,,,,,,,,,,,,,,,,,,,,,,,,,,,,,,,,,,,001,55,2020_Feb_04_1000,spring_faces,3.1.5,60.018754180191436,
condition files/Stage1_1.xlsx,,T2,B2,m,"['c', 'm']","['Clue', 'Monopoly']","[-0.15, 0.5]","[0.15, 0.5]",1,1,,,,,,,,,0,4,4,4,0,3,3,3,,,,,,,,,,,,,,,,,,,,,,,,,,,,,,,,,,,,,,,,,,,,,,,,,,,,,,,506.7150196289999,None,506.7150196289999,None,506.7150196289999,None,m,1,1.0931196799999725,508.2492383209999,None,508.2492383209999,None,508.2492383209999,None,509.4151475299998,None,509.4151475299998,None,509.4151475299998,None,509.4151475299998,None,,,,,,,,,,,,,,,,,,,,,,,,,,,,,,,,,,,,,,,,,,,,001,55,2020_Feb_04_1000,spring_faces,3.1.5,60.018754180191436,
condition files/Stage1_1.xlsx,,T4,B3,m,"['c', 'm']","['Clue', 'Monopoly']","[-0.15, 0.5]","[0.15, 0.5]",1,1,,,,,,,,,0,4,4,4,0,4,4,6,,,,,,,,,,,,,,,,,,,,,,,,,,,,,,,,,,,,,,,,,,,,,,,,,,,,,,,511.36440535199995,None,511.36440535199995,None,511.36440535199995,None,c,0,1.9143462720001025,512.8999300229998,None,512.8999300229998,None,512.8999300229998,None,514.865191012,None,514.865191012,None,514.865191012,None,514.865191012,None,,,,,,,,,,,,,,,,,,,,,,,,,,,,,,,,,,,,,,,,,,,,001,55,2020_Feb_04_1000,spring_faces,3.1.5,60.018754180191436,
condition files/Stage1_1.xlsx,,B1,T2,c,"['c', 'm']","['Clue', 'Monopoly']","[-0.15, 0.5]","[0.15, 0.5]",1,1,,,,,,,,,0,4,4,4,0,5,5,1,,,,,,,,,,,,,,,,,,,,,,,,,,,,,,,,,,,,,,,,,,,,,,,,,,,,,,,516.8315031249999,None,516.8315031249999,None,516.8315031249999,None,c,1,1.3291617410000072,518.3810987539998,None,518.3810987539998,None,518.3810987539998,None,519.7819018979999,None,519.7819018979999,None,519.7819018979999,None,519.7819018979999,None,,,,,,,,,,,,,,,,,,,,,,,,,,,,,,,,,,,,,,,,,,,,001,55,2020_Feb_04_1000,spring_faces,3.1.5,60.018754180191436,
condition files/Stage1_1.xlsx,,B4,T4,m,"['c', 'm']","['Clue', 'Monopoly']","[-0.15, 0.5]","[0.15, 0.5]",1,1,,,,,,,,,0,4,4,4,0,6,6,7,,,,,,,,,,,,,,,,,,,,,,,,,,,,,,,,,,,,,,,,,,,,,,,,,,,,,,,521.731566166,None,521.731566166,None,521.731566166,None,m,1,1.660413976999962,523.2819242349999,None,523.2819242349999,None,523.2819242349999,None,525.0146149299999,None,525.0146149299999,None,525.0146149299999,None,525.0146149299999,None,,,,,,,,,,,,,,,,,,,,,,,,,,,,,,,,,,,,,,,,,,,,001,55,2020_Feb_04_1000,spring_faces,3.1.5,60.018754180191436,
condition files/Stage1_1.xlsx,,T1,B1,c,"['c', 'm']","['Clue', 'Monopoly']","[-0.15, 0.5]","[0.15, 0.5]",1,1,,,,,,,,,0,4,4,4,0,7,7,0,,,,,,,,,,,,,,,,,,,,,,,,,,,,,,,,,,,,,,,,,,,,,,,,,,,,,,,526.965144301,None,526.965144301,None,526.965144301,None,c,1,2.0102271360001396,528.500054657,None,528.500054657,None,528.500054657,None,530.565740541,None,530.565740541,None,530.565740541,None,530.565740541,None,,,,,,,,,,,,,,,,,,,,,,,,,,,,,,,,,,,,,,,,,,,,001,55,2020_Feb_04_1000,spring_faces,3.1.5,60.018754180191436,
condition files/Stage1_2.xlsx,,T3,B3,c,"['c', 'm']","['Clue', 'Monopoly']","[-0.15, 0.5]","[0.15, 0.5]",1,1,,,,,,,,,0,5,5,5,0,0,0,4,,,,,,,,,,,,,,,,,,,,,,,,,,,,,,,,,,,,,,,,,,,,,,,,,,,,,,,532.548207198,None,532.548207198,None,532.548207198,None,c,1,0.9393326910001178,534.0830324879998,None,534.0830324879998,None,534.0830324879998,None,535.0821308719999,None,535.0821308719999,None,535.0821308719999,None,535.0821308719999,None,,,,,,,,,,,,,,,,,,,,,,,,,,,,,,,,,,,,,,,,,,,,001,55,2020_Feb_04_1000,spring_faces,3.1.5,60.018754180191436,
condition files/Stage1_2.xlsx,,B3,T4,m,"['c', 'm']","['Clue', 'Monopoly']","[-0.15, 0.5]","[0.15, 0.5]",1,1,,,,,,,,,0,5,5,5,0,1,1,6,,,,,,,,,,,,,,,,,,,,,,,,,,,,,,,,,,,,,,,,,,,,,,,,,,,,,,,537.048244936,None,537.048244936,None,537.048244936,None,m,1,1.4790222419999282,538.5832600249998,None,538.5832600249998,None,538.5832600249998,None,540.131829534,None,540.131829534,None,540.131829534,None,540.131829534,None,,,,,,,,,,,,,,,,,,,,,,,,,,,,,,,,,,,,,,,,,,,,001,55,2020_Feb_04_1000,spring_faces,3.1.5,60.018754180191436,
condition files/Stage1_2.xlsx,,B2,T2,m,"['c', 'm']","['Clue', 'Monopoly']","[-0.15, 0.5]","[0.15, 0.5]",1,1,,,,,,,,,0,5,5,5,0,2,2,3,,,,,,,,,,,,,,,,,,,,,,,,,,,,,,,,,,,,,,,,,,,,,,,,,,,,,,,542.0815608849998,None,542.0815608849998,None,542.0815608849998,None,m,1,1.7733313339999768,543.6170222559999,None,543.6170222559999,None,543.6170222559999,None,545.4482319889999,None,545.4482319889999,None,545.4482319889999,None,545.4482319889999,None,,,,,,,,,,,,,,,,,,,,,,,,,,,,,,,,,,,,,,,,,,,,001,55,2020_Feb_04_1000,spring_faces,3.1.5,60.018754180191436,
condition files/Stage1_2.xlsx,,B4,T3,c,"['c', 'm']","['Clue', 'Monopoly']","[-0.15, 0.5]","[0.15, 0.5]",1,1,,,,,,,,,0,5,5,5,0,3,3,5,,,,,,,,,,,,,,,,,,,,,,,,,,,,,,,,,,,,,,,,,,,,,,,,,,,,,,,547.414662533,None,547.414662533,None,547.414662533,None,c,1,0.7621874740000294,548.948095021,None,548.948095021,None,548.948095021,None,549.7660612249999,None,549.7660612249999,None,549.7660612249999,None,549.7660612249999,None,,,,,,,,,,,,,,,,,,,,,,,,,,,,,,,,,,,,,,,,,,,,001,55,2020_Feb_04_1000,spring_faces,3.1.5,60.018754180191436,
condition files/Stage1_2.xlsx,,T2,B1,c,"['c', 'm']","['Clue', 'Monopoly']","[-0.15, 0.5]","[0.15, 0.5]",1,1,,,,,,,,,0,5,5,5,0,4,4,1,,,,,,,,,,,,,,,,,,,,,,,,,,,,,,,,,,,,,,,,,,,,,,,,,,,,,,,551.73113829,None,551.73113829,None,551.73113829,None,c,1,2.652464746000078,553.2818062189999,None,553.2818062189999,None,553.2818062189999,None,555.9985243219999,None,555.9985243219999,None,555.9985243219999,None,555.9985243219999,None,,,,,,,,,,,,,,,,,,,,,,,,,,,,,,,,,,,,,,,,,,,,001,55,2020_Feb_04_1000,spring_faces,3.1.5,60.018754180191436,
condition files/Stage1_2.xlsx,,T4,B4,m,"['c', 'm']","['Clue', 'Monopoly']","[-0.15, 0.5]","[0.15, 0.5]",1,1,,,,,,,,,0,5,5,5,0,5,5,7,,,,,,,,,,,,,,,,,,,,,,,,,,,,,,,,,,,,,,,,,,,,,,,,,,,,,,,557.9648473689999,None,557.9648473689999,None,557.9648473689999,None,m,1,1.7634708609998597,559.4988089419999,None,559.4988089419999,None,559.4988089419999,None,561.317196904,None,561.317196904,None,561.317196904,None,561.317196904,None,,,,,,,,,,,,,,,,,,,,,,,,,,,,,,,,,,,,,,,,,,,,001,55,2020_Feb_04_1000,spring_faces,3.1.5,60.018754180191436,
condition files/Stage1_2.xlsx,,B1,T1,c,"['c', 'm']","['Clue', 'Monopoly']","[-0.15, 0.5]","[0.15, 0.5]",1,1,,,,,,,,,0,5,5,5,0,6,6,0,,,,,,,,,,,,,,,,,,,,,,,,,,,,,,,,,,,,,,,,,,,,,,,,,,,,,,,563.2816529219999,None,563.2816529219999,None,563.2816529219999,None,c,1,1.2629387659999338,564.8155887109999,None,564.8155887109999,None,564.8155887109999,None,566.1481787789999,None,566.1481787789999,None,566.1481787789999,None,566.1481787789999,None,,,,,,,,,,,,,,,,,,,,,,,,,,,,,,,,,,,,,,,,,,,,001,55,2020_Feb_04_1000,spring_faces,3.1.5,60.018754180191436,
condition files/Stage1_2.xlsx,,T1,B2,m,"['c', 'm']","['Clue', 'Monopoly']","[-0.15, 0.5]","[0.15, 0.5]",1,1,,,,,,,,,0,5,5,5,0,7,7,2,,,,,,,,,,,,,,,,,,,,,,,,,,,,,,,,,,,,,,,,,,,,,,,,,,,,,,,568.0982729619998,None,568.0982729619998,None,568.0982729619998,None,m,1,0.9265933230001338,569.6317418249998,None,569.6317418249998,None,569.6317418249998,None,570.615483157,None,570.615483157,None,570.615483157,None,570.615483157,None,,,,,,,,,,,,,,,,,,,,,,,,,,,,,,,,,,,,,,,,,,,,001,55,2020_Feb_04_1000,spring_faces,3.1.5,60.018754180191436,
condition files/Stage1_1.xlsx,,T3,B4,c,"['c', 'm']","['Clue', 'Monopoly']","[-0.15, 0.5]","[0.15, 0.5]",1,1,,,,,,,,,0,6,6,6,0,0,0,5,,,,,,,,,,,,,,,,,,,,,,,,,,,,,,,,,,,,,,,,,,,,,,,,,,,,,,,572.5981041069999,None,572.5981041069999,None,572.5981041069999,None,c,1,0.7783872379998229,574.131907666,None,574.131907666,None,574.131907666,None,574.966282957,None,574.966282957,None,574.966282957,None,574.966282957,None,,,,,,,,,,,,,,,,,,,,,,,,,,,,,,,,,,,,,,,,,,,,001,55,2020_Feb_04_1000,spring_faces,3.1.5,60.018754180191436,
condition files/Stage1_1.xlsx,,T1,B1,c,"['c', 'm']","['Clue', 'Monopoly']","[-0.15, 0.5]","[0.15, 0.5]",1,1,,,,,,,,,0,6,6,6,0,1,1,0,,,,,,,,,,,,,,,,,,,,,,,,,,,,,,,,,,,,,,,,,,,,,,,,,,,,,,,576.9314816859999,None,576.9314816859999,None,576.9314816859999,None,c,1,1.244249507999939,578.4660157659998,None,578.4660157659998,None,578.4660157659998,None,579.7650167499999,None,579.7650167499999,None,579.7650167499999,None,579.7650167499999,None,,,,,,,,,,,,,,,,,,,,,,,,,,,,,,,,,,,,,,,,,,,,001,55,2020_Feb_04_1000,spring_faces,3.1.5,60.018754180191436,
condition files/Stage1_1.xlsx,,B1,T2,c,"['c', 'm']","['Clue', 'Monopoly']","[-0.15, 0.5]","[0.15, 0.5]",1,1,,,,,,,,,0,6,6,6,0,2,2,1,,,,,,,,,,,,,,,,,,,,,,,,,,,,,,,,,,,,,,,,,,,,,,,,,,,,,,,581.7309317969998,None,581.7309317969998,None,581.7309317969998,None,c,1,3.0516006450000077,583.2666907219998,None,583.2666907219998,None,583.2666907219998,None,586.3814324149998,None,586.3814324149998,None,586.3814324149998,None,586.3814324149998,None,,,,,,,,,,,,,,,,,,,,,,,,,,,,,,,,,,,,,,,,,,,,001,55,2020_Feb_04_1000,spring_faces,3.1.5,60.018754180191436,
condition files/Stage1_1.xlsx,,B3,T3,c,"['c', 'm']","['Clue', 'Monopoly']","[-0.15, 0.5]","[0.15, 0.5]",1,1,,,,,,,,,0,6,6,6,0,3,3,4,,,,,,,,,,,,,,,,,,,,,,,,,,,,,,,,,,,,,,,,,,,,,,,,,,,,,,,588.3482687139999,None,588.3482687139999,None,588.3482687139999,None,c,1,0.7405303170000934,589.881811343,None,589.881811343,None,589.881811343,None,590.681369617,None,590.681369617,None,590.681369617,None,590.681369617,None,,,,,,,,,,,,,,,,,,,,,,,,,,,,,,,,,,,,,,,,,,,,001,55,2020_Feb_04_1000,spring_faces,3.1.5,60.018754180191436,
condition files/Stage1_1.xlsx,,T2,B2,m,"['c', 'm']","['Clue', 'Monopoly']","[-0.15, 0.5]","[0.15, 0.5]",1,1,,,,,,,,,0,6,6,6,0,4,4,3,,,,,,,,,,,,,,,,,,,,,,,,,,,,,,,,,,,,,,,,,,,,,,,,,,,,,,,592.6480574549998,None,592.6480574549998,None,592.6480574549998,None,m,1,0.6789860499998213,594.183301841,None,594.183301841,None,594.183301841,None,594.9160202029998,None,594.9160202029998,None,594.9160202029998,None,594.9160202029998,None,,,,,,,,,,,,,,,,,,,,,,,,,,,,,,,,,,,,,,,,,,,,001,55,2020_Feb_04_1000,spring_faces,3.1.5,60.018754180191436,
condition files/Stage1_1.xlsx,,B2,T1,m,"['c', 'm']","['Clue', 'Monopoly']","[-0.15, 0.5]","[0.15, 0.5]",1,1,,,,,,,,,0,6,6,6,0,5,5,2,,,,,,,,,,,,,,,,,,,,,,,,,,,,,,,,,,,,,,,,,,,,,,,,,,,,,,,596.8815502389998,None,596.8815502389998,None,596.8815502389998,None,c,0,0.5268348680001509,598.4155168359998,None,598.4155168359998,None,598.4155168359998,None,598.998361149,None,598.998361149,None,598.998361149,None,598.998361149,None,,,,,,,,,,,,,,,,,,,,,,,,,,,,,,,,,,,,,,,,,,,,001,55,2020_Feb_04_1000,spring_faces,3.1.5,60.018754180191436,
condition files/Stage1_1.xlsx,,T4,B3,m,"['c', 'm']","['Clue', 'Monopoly']","[-0.15, 0.5]","[0.15, 0.5]",1,1,,,,,,,,,0,6,6,6,0,6,6,6,,,,,,,,,,,,,,,,,,,,,,,,,,,,,,,,,,,,,,,,,,,,,,,,,,,,,,,600.9650526379999,None,600.9650526379999,None,600.9650526379999,None,m,1,1.5954732780000995,602.4988068129999,None,602.4988068129999,None,602.4988068129999,None,604.1479567689998,None,604.1479567689998,None,604.1479567689998,None,604.1479567689998,None,,,,,,,,,,,,,,,,,,,,,,,,,,,,,,,,,,,,,,,,,,,,001,55,2020_Feb_04_1000,spring_faces,3.1.5,60.018754180191436,
condition files/Stage1_1.xlsx,,B4,T4,m,"['c', 'm']","['Clue', 'Monopoly']","[-0.15, 0.5]","[0.15, 0.5]",1,1,,,,,,,,,0,6,6,6,0,7,7,7,,,,,,,,,,,,,,,,,,,,,,,,,,,,,,,,,,,,,,,,,,,,,,,,,,,,,,,606.114326165,None,606.114326165,None,606.114326165,None,m,1,0.8132996110000477,607.648988468,None,607.648988468,None,607.648988468,None,608.5151467419998,None,608.5151467419998,None,608.5151467419998,None,608.5151467419998,None,,,,,,,,,,,,,,,,,,,,,,,,,,,,,,,,,,,,,,,,,,,,001,55,2020_Feb_04_1000,spring_faces,3.1.5,60.018754180191436,
condition files/Stage1_2.xlsx,,B2,T2,m,"['c', 'm']","['Clue', 'Monopoly']","[-0.15, 0.5]","[0.15, 0.5]",1,1,,,,,,,,,0,7,7,7,0,0,0,3,,,,,,,,,,,,,,,,,,,,,,,,,,,,,,,,,,,,,,,,,,,,,,,,,,,,,,,610.4987888839999,None,610.4987888839999,None,610.4987888839999,None,m,1,0.9884252189999643,612.0339416549998,None,612.0339416549998,None,612.0339416549998,None,613.0818228109999,None,613.0818228109999,None,613.0818228109999,None,613.0818228109999,None,,,,,,,,,,,,,,,,,,,,,,,,,,,,,,,,,,,,,,,,,,,,001,55,2020_Feb_04_1000,spring_faces,3.1.5,60.018754180191436,
condition files/Stage1_2.xlsx,,T3,B3,c,"['c', 'm']","['Clue', 'Monopoly']","[-0.15, 0.5]","[0.15, 0.5]",1,1,,,,,,,,,0,7,7,7,0,1,1,4,,,,,,,,,,,,,,,,,,,,,,,,,,,,,,,,,,,,,,,,,,,,,,,,,,,,,,,615.0474023229999,None,615.0474023229999,None,615.0474023229999,None,c,1,0.7929690819998996,616.5814005919999,None,616.5814005919999,None,616.5814005919999,None,617.4313325179999,None,617.4313325179999,None,617.4313325179999,None,617.4313325179999,None,,,,,,,,,,,,,,,,,,,,,,,,,,,,,,,,,,,,,,,,,,,,001,55,2020_Feb_04_1000,spring_faces,3.1.5,60.018754180191436,
condition files/Stage1_2.xlsx,,T1,B2,m,"['c', 'm']","['Clue', 'Monopoly']","[-0.15, 0.5]","[0.15, 0.5]",1,1,,,,,,,,,0,7,7,7,0,2,2,2,,,,,,,,,,,,,,,,,,,,,,,,,,,,,,,,,,,,,,,,,,,,,,,,,,,,,,,619.397664421,None,619.397664421,None,619.397664421,None,m,1,1.0650494900000922,620.933221843,None,620.933221843,None,620.933221843,None,622.0652509039999,None,622.0652509039999,None,622.0652509039999,None,622.0652509039999,None,,,,,,,,,,,,,,,,,,,,,,,,,,,,,,,,,,,,,,,,,,,,001,55,2020_Feb_04_1000,spring_faces,3.1.5,60.018754180191436,
condition files/Stage1_2.xlsx,,T4,B4,m,"['c', 'm']","['Clue', 'Monopoly']","[-0.15, 0.5]","[0.15, 0.5]",1,1,,,,,,,,,0,7,7,7,0,3,3,7,,,,,,,,,,,,,,,,,,,,,,,,,,,,,,,,,,,,,,,,,,,,,,,,,,,,,,,624.015060624,None,624.015060624,None,624.015060624,None,m,1,0.9128286049999588,625.5494538319999,None,625.5494538319999,None,625.5494538319999,None,626.5151538539999,None,626.5151538539999,None,626.5151538539999,None,626.5151538539999,None,,,,,,,,,,,,,,,,,,,,,,,,,,,,,,,,,,,,,,,,,,,,001,55,2020_Feb_04_1000,spring_faces,3.1.5,60.018754180191436,
condition files/Stage1_2.xlsx,,T2,B1,c,"['c', 'm']","['Clue', 'Monopoly']","[-0.15, 0.5]","[0.15, 0.5]",1,1,,,,,,,,,0,7,7,7,0,4,4,1,,,,,,,,,,,,,,,,,,,,,,,,,,,,,,,,,,,,,,,,,,,,,,,,,,,,,,,628.4811580869998,None,628.4811580869998,None,628.4811580869998,None,c,1,1.2299350349999258,630.0163434929998,None,630.0163434929998,None,630.0163434929998,None,631.2994103609999,None,631.2994103609999,None,631.2994103609999,None,631.2994103609999,None,,,,,,,,,,,,,,,,,,,,,,,,,,,,,,,,,,,,,,,,,,,,001,55,2020_Feb_04_1000,spring_faces,3.1.5,60.018754180191436,
condition files/Stage1_2.xlsx,,B3,T4,m,"['c', 'm']","['Clue', 'Monopoly']","[-0.15, 0.5]","[0.15, 0.5]",1,1,,,,,,,,,0,7,7,7,0,5,5,6,,,,,,,,,,,,,,,,,,,,,,,,,,,,,,,,,,,,,,,,,,,,,,,,,,,,,,,633.2648512469998,None,633.2648512469998,None,633.2648512469998,None,m,1,1.2614856929999405,634.800799162,None,634.800799162,None,634.800799162,None,636.1169292289999,None,636.1169292289999,None,636.1169292289999,None,636.1169292289999,None,,,,,,,,,,,,,,,,,,,,,,,,,,,,,,,,,,,,,,,,,,,,001,55,2020_Feb_04_1000,spring_faces,3.1.5,60.018754180191436,
condition files/Stage1_2.xlsx,,B1,T1,c,"['c', 'm']","['Clue', 'Monopoly']","[-0.15, 0.5]","[0.15, 0.5]",1,1,,,,,,,,,0,7,7,7,0,6,6,0,,,,,,,,,,,,,,,,,,,,,,,,,,,,,,,,,,,,,,,,,,,,,,,,,,,,,,,638.0816984539999,None,638.0816984539999,None,638.0816984539999,None,c,1,1.1173816399998486,639.6169126599998,None,639.6169126599998,None,639.6169126599998,None,640.8148650639998,None,640.8148650639998,None,640.8148650639998,None,640.8148650639998,None,,,,,,,,,,,,,,,,,,,,,,,,,,,,,,,,,,,,,,,,,,,,001,55,2020_Feb_04_1000,spring_faces,3.1.5,60.018754180191436,
condition files/Stage1_2.xlsx,,B4,T3,c,"['c', 'm']","['Clue', 'Monopoly']","[-0.15, 0.5]","[0.15, 0.5]",1,1,,,,,,,,,0,7,7,7,0,7,7,5,,,,,,,,,,,,,,,,,,,,,,,,,,,,,,,,,,,,,,,,,,,,,,,,,,,,,,,642.7647791279999,None,642.7647791279999,None,642.7647791279999,None,c,1,0.9453773059999548,644.30090716,None,644.30090716,None,644.30090716,None,645.298473823,None,645.298473823,None,645.298473823,None,645.298473823,None,,,,,,,,,,,,,,,,,,,,,,,,,,,,,,,,,,,,,,,,,,,,001,55,2020_Feb_04_1000,spring_faces,3.1.5,60.018754180191436,
condition files/Stage1_1.xlsx,,B4,T4,m,"['c', 'm']","['Clue', 'Monopoly']","[-0.15, 0.5]","[0.15, 0.5]",1,1,,,,,,,,,0,8,8,8,0,0,0,7,,,,,,,,,,,,,,,,,,,,,,,,,,,,,,,,,,,,,,,,,,,,,,,,,,,,,,,647.2815398859998,None,647.2815398859998,None,647.2815398859998,None,m,1,1.0372039450001012,648.8171627919999,None,648.8171627919999,None,648.8171627919999,None,649.9154900259998,None,649.9154900259998,None,649.9154900259998,None,649.9154900259998,None,,,,,,,,,,,,,,,,,,,,,,,,,,,,,,,,,,,,,,,,,,,,001,55,2020_Feb_04_1000,spring_faces,3.1.5,60.018754180191436,
condition files/Stage1_1.xlsx,,B3,T3,c,"['c', 'm']","['Clue', 'Monopoly']","[-0.15, 0.5]","[0.15, 0.5]",1,1,,,,,,,,,0,8,8,8,0,1,1,4,,,,,,,,,,,,,,,,,,,,,,,,,,,,,,,,,,,,,,,,,,,,,,,,,,,,,,,651.881479249,None,651.881479249,None,651.881479249,None,c,1,1.0943079410001246,653.4319291329998,None,653.4319291329998,None,653.4319291329998,None,654.5836252639999,None,654.5836252639999,None,654.5836252639999,None,654.5836252639999,None,,,,,,,,,,,,,,,,,,,,,,,,,,,,,,,,,,,,,,,,,,,,001,55,2020_Feb_04_1000,spring_faces,3.1.5,60.018754180191436,
condition files/Stage1_1.xlsx,,B1,T2,c,"['c', 'm']","['Clue', 'Monopoly']","[-0.15, 0.5]","[0.15, 0.5]",1,1,,,,,,,,,0,8,8,8,0,2,2,1,,,,,,,,,,,,,,,,,,,,,,,,,,,,,,,,,,,,,,,,,,,,,,,,,,,,,,,656.5477564629998,None,656.5477564629998,None,656.5477564629998,None,c,1,0.9716804690001482,658.0986120149998,None,658.0986120149998,None,658.0986120149998,None,659.131516509,None,659.131516509,None,659.131516509,None,659.131516509,None,,,,,,,,,,,,,,,,,,,,,,,,,,,,,,,,,,,,,,,,,,,,001,55,2020_Feb_04_1000,spring_faces,3.1.5,60.018754180191436,
condition files/Stage1_1.xlsx,,T4,B3,m,"['c', 'm']","['Clue', 'Monopoly']","[-0.15, 0.5]","[0.15, 0.5]",1,1,,,,,,,,,0,8,8,8,0,3,3,6,,,,,,,,,,,,,,,,,,,,,,,,,,,,,,,,,,,,,,,,,,,,,,,,,,,,,,,661.09765208,None,661.09765208,None,661.09765208,None,m,1,1.2057989999998426,662.648537975,None,662.648537975,None,662.648537975,None,663.9165398599998,None,663.9165398599998,None,663.9165398599998,None,663.9165398599998,None,,,,,,,,,,,,,,,,,,,,,,,,,,,,,,,,,,,,,,,,,,,,001,55,2020_Feb_04_1000,spring_faces,3.1.5,60.018754180191436,
condition files/Stage1_1.xlsx,,B2,T1,m,"['c', 'm']","['Clue', 'Monopoly']","[-0.15, 0.5]","[0.15, 0.5]",1,1,,,,,,,,,0,8,8,8,0,4,4,2,,,,,,,,,,,,,,,,,,,,,,,,,,,,,,,,,,,,,,,,,,,,,,,,,,,,,,,665.881385359,None,665.881385359,None,665.881385359,None,m,1,1.255024358000128,667.4152709829998,None,667.4152709829998,None,667.4152709829998,None,668.7318110219999,None,668.7318110219999,None,668.7318110219999,None,668.7318110219999,None,,,,,,,,,,,,,,,,,,,,,,,,,,,,,,,,,,,,,,,,,,,,001,55,2020_Feb_04_1000,spring_faces,3.1.5,60.018754180191436,
condition files/Stage1_1.xlsx,,T2,B2,m,"['c', 'm']","['Clue', 'Monopoly']","[-0.15, 0.5]","[0.15, 0.5]",1,1,,,,,,,,,0,8,8,8,0,5,5,3,,,,,,,,,,,,,,,,,,,,,,,,,,,,,,,,,,,,,,,,,,,,,,,,,,,,,,,670.6981795899999,None,670.6981795899999,None,670.6981795899999,None,m,1,0.7580014889999802,672.2483350609998,None,672.2483350609998,None,672.2483350609998,None,673.0654014749998,None,673.0654014749998,None,673.0654014749998,None,673.0654014749998,None,,,,,,,,,,,,,,,,,,,,,,,,,,,,,,,,,,,,,,,,,,,,001,55,2020_Feb_04_1000,spring_faces,3.1.5,60.018754180191436,
condition files/Stage1_1.xlsx,,T1,B1,c,"['c', 'm']","['Clue', 'Monopoly']","[-0.15, 0.5]","[0.15, 0.5]",1,1,,,,,,,,,0,8,8,8,0,6,6,0,,,,,,,,,,,,,,,,,,,,,,,,,,,,,,,,,,,,,,,,,,,,,,,,,,,,,,,675.031681574,None,675.031681574,None,675.031681574,None,c,1,0.8087414900001022,676.5816061029998,None,676.5816061029998,None,676.5816061029998,None,677.448460332,None,677.448460332,None,677.448460332,None,677.448460332,None,,,,,,,,,,,,,,,,,,,,,,,,,,,,,,,,,,,,,,,,,,,,001,55,2020_Feb_04_1000,spring_faces,3.1.5,60.018754180191436,
condition files/Stage1_1.xlsx,,T3,B4,c,"['c', 'm']","['Clue', 'Monopoly']","[-0.15, 0.5]","[0.15, 0.5]",1,1,,,,,,,,,0,8,8,8,0,7,7,5,,,,,,,,,,,,,,,,,,,,,,,,,,,,,,,,,,,,,,,,,,,,,,,,,,,,,,,679.4148901169999,None,679.4148901169999,None,679.4148901169999,None,c,1,0.8567023519999566,680.9496561459998,None,680.9496561459998,None,680.9496561459998,None,681.8653735549999,None,681.8653735549999,None,681.8653735549999,None,681.8653735549999,None,,,,,,,,,,,,,,,,,,,,,,,,,,,,,,,,,,,,,,,,,,,,001,55,2020_Feb_04_1000,spring_faces,3.1.5,60.018754180191436,
condition files/Stage1_2.xlsx,,T2,B1,c,"['c', 'm']","['Clue', 'Monopoly']","[-0.15, 0.5]","[0.15, 0.5]",1,1,,,,,,,,,0,9,9,9,0,0,0,1,,,,,,,,,,,,,,,,,,,,,,,,,,,,,,,,,,,,,,,,,,,,,,,,,,,,,,,683.848507642,None,683.848507642,None,683.848507642,None,c,1,0.9196611319998738,685.382641319,None,685.382641319,None,685.382641319,None,686.3651490179998,None,686.3651490179998,None,686.3651490179998,None,686.3651490179998,None,,,,,,,,,,,,,,,,,,,,,,,,,,,,,,,,,,,,,,,,,,,,001,55,2020_Feb_04_1000,spring_faces,3.1.5,60.018754180191436,
condition files/Stage1_2.xlsx,,B1,T1,c,"['c', 'm']","['Clue', 'Monopoly']","[-0.15, 0.5]","[0.15, 0.5]",1,1,,,,,,,,,0,9,9,9,0,1,1,0,,,,,,,,,,,,,,,,,,,,,,,,,,,,,,,,,,,,,,,,,,,,,,,,,,,,,,,688.3308385869998,None,688.3308385869998,None,688.3308385869998,None,c,1,0.8856359300000349,689.8646331559999,None,689.8646331559999,None,689.8646331559999,None,690.8148656479998,None,690.8148656479998,None,690.8148656479998,None,690.8148656479998,None,,,,,,,,,,,,,,,,,,,,,,,,,,,,,,,,,,,,,,,,,,,,001,55,2020_Feb_04_1000,spring_faces,3.1.5,60.018754180191436,
condition files/Stage1_2.xlsx,,B3,T4,m,"['c', 'm']","['Clue', 'Monopoly']","[-0.15, 0.5]","[0.15, 0.5]",1,1,,,,,,,,,0,9,9,9,0,2,2,6,,,,,,,,,,,,,,,,,,,,,,,,,,,,,,,,,,,,,,,,,,,,,,,,,,,,,,,692.7813582739998,None,692.7813582739998,None,692.7813582739998,None,m,1,1.1222697749999497,694.3319554939999,None,694.3319554939999,None,694.3319554939999,None,695.5169861719999,None,695.5169861719999,None,695.5169861719999,None,695.5169861719999,None,,,,,,,,,,,,,,,,,,,,,,,,,,,,,,,,,,,,,,,,,,,,001,55,2020_Feb_04_1000,spring_faces,3.1.5,60.018754180191436,
condition files/Stage1_2.xlsx,,T3,B3,c,"['c', 'm']","['Clue', 'Monopoly']","[-0.15, 0.5]","[0.15, 0.5]",1,1,,,,,,,,,0,9,9,9,0,3,3,4,,,,,,,,,,,,,,,,,,,,,,,,,,,,,,,,,,,,,,,,,,,,,,,,,,,,,,,697.4815283019998,None,697.4815283019998,None,697.4815283019998,None,c,1,1.0142846200001259,699.015997472,None,699.015997472,None,699.015997472,None,700.0840885569999,None,700.0840885569999,None,700.0840885569999,None,700.0840885569999,None,,,,,,,,,,,,,,,,,,,,,,,,,,,,,,,,,,,,,,,,,,,,001,55,2020_Feb_04_1000,spring_faces,3.1.5,60.018754180191436,
condition files/Stage1_2.xlsx,,T4,B4,m,"['c', 'm']","['Clue', 'Monopoly']","[-0.15, 0.5]","[0.15, 0.5]",1,1,,,,,,,,,0,9,9,9,0,4,4,7,,,,,,,,,,,,,,,,,,,,,,,,,,,,,,,,,,,,,,,,,,,,,,,,,,,,,,,702.0480504149998,None,702.0480504149998,None,702.0480504149998,None,m,1,1.072031491999951,703.5822785339999,None,703.5822785339999,None,703.5822785339999,None,704.715131275,None,704.715131275,None,704.715131275,None,704.715131275,None,,,,,,,,,,,,,,,,,,,,,,,,,,,,,,,,,,,,,,,,,,,,001,55,2020_Feb_04_1000,spring_faces,3.1.5,60.018754180191436,
condition files/Stage1_2.xlsx,,B2,T2,m,"['c', 'm']","['Clue', 'Monopoly']","[-0.15, 0.5]","[0.15, 0.5]",1,1,,,,,,,,,0,9,9,9,0,5,5,3,,,,,,,,,,,,,,,,,,,,,,,,,,,,,,,,,,,,,,,,,,,,,,,,,,,,,,,706.6814655809999,None,706.6814655809999,None,706.6814655809999,None,m,1,1.2215866289998303,708.2167382129999,None,708.2167382129999,None,708.2167382129999,None,709.4985672969999,None,709.4985672969999,None,709.4985672969999,None,709.4985672969999,None,,,,,,,,,,,,,,,,,,,,,,,,,,,,,,,,,,,,,,,,,,,,001,55,2020_Feb_04_1000,spring_faces,3.1.5,60.018754180191436,
condition files/Stage1_2.xlsx,,B4,T3,c,"['c', 'm']","['Clue', 'Monopoly']","[-0.15, 0.5]","[0.15, 0.5]",1,1,,,,,,,,,0,9,9,9,0,6,6,5,,,,,,,,,,,,,,,,,,,,,,,,,,,,,,,,,,,,,,,,,,,,,,,,,,,,,,,711.465022698,None,711.465022698,None,711.465022698,None,c,1,0.9030761550000079,712.9992103519999,None,712.9992103519999,None,712.9992103519999,None,713.9660008689998,None,713.9660008689998,None,713.9660008689998,None,713.9660008689998,None,,,,,,,,,,,,,,,,,,,,,,,,,,,,,,,,,,,,,,,,,,,,001,55,2020_Feb_04_1000,spring_faces,3.1.5,60.018754180191436,
condition files/Stage1_2.xlsx,,T1,B2,m,"['c', 'm']","['Clue', 'Monopoly']","[-0.15, 0.5]","[0.15, 0.5]",1,1,,,,,,,,,0,9,9,9,0,7,7,2,,,,,,,,,,,,,,,,,,,,,,,,,,,,,,,,,,,,,,,,,,,,,,,,,,,,,,,715.9315221289999,None,715.9315221289999,None,715.9315221289999,None,m,1,1.2368658890000006,717.481408721,None,717.481408721,None,717.481408721,None,718.782585875,None,718.782585875,None,718.782585875,None,718.782585875,None,,,,,,,,,,,,,,,,,,,,,,,,,,,,,,,,,,,,,,,,,,,,001,55,2020_Feb_04_1000,spring_faces,3.1.5,60.018754180191436,
condition files/Stage1_1.xlsx,,T3,B4,c,"['c', 'm']","['Clue', 'Monopoly']","[-0.15, 0.5]","[0.15, 0.5]",1,1,,,,,,,,,0,10,10,10,0,0,0,5,,,,,,,,,,,,,,,,,,,,,,,,,,,,,,,,,,,,,,,,,,,,,,,,,,,,,,,720.76534163,None,720.76534163,None,720.76534163,None,c,1,0.9959026589999667,722.298398381,None,722.298398381,None,722.298398381,None,723.3498312969998,None,723.3498312969998,None,723.3498312969998,None,723.3498312969998,None,,,,,,,,,,,,,,,,,,,,,,,,,,,,,,,,,,,,,,,,,,,,001,55,2020_Feb_04_1000,spring_faces,3.1.5,60.018754180191436,
condition files/Stage1_1.xlsx,,B2,T1,m,"['c', 'm']","['Clue', 'Monopoly']","[-0.15, 0.5]","[0.15, 0.5]",1,1,,,,,,,,,0,10,10,10,0,1,1,2,,,,,,,,,,,,,,,,,,,,,,,,,,,,,,,,,,,,,,,,,,,,,,,,,,,,,,,725.3147710180001,None,725.3147710180001,None,725.3147710180001,None,c,0,0.845190268999886,726.8650962920001,None,726.8650962920001,None,726.8650962920001,None,727.7818972350001,None,727.7818972350001,None,727.7818972350001,None,727.7818972350001,None,,,,,,,,,,,,,,,,,,,,,,,,,,,,,,,,,,,,,,,,,,,,001,55,2020_Feb_04_1000,spring_faces,3.1.5,60.018754180191436,
condition files/Stage1_1.xlsx,,B1,T2,c,"['c', 'm']","['Clue', 'Monopoly']","[-0.15, 0.5]","[0.15, 0.5]",1,1,,,,,,,,,0,10,10,10,0,2,2,1,,,,,,,,,,,,,,,,,,,,,,,,,,,,,,,,,,,,,,,,,,,,,,,,,,,,,,,729.7310213559999,None,729.7310213559999,None,729.7310213559999,None,c,1,1.0529951840003378,731.281275757,None,731.281275757,None,731.281275757,None,732.4145784739999,None,732.4145784739999,None,732.4145784739999,None,732.4145784739999,None,,,,,,,,,,,,,,,,,,,,,,,,,,,,,,,,,,,,,,,,,,,,001,55,2020_Feb_04_1000,spring_faces,3.1.5,60.018754180191436,
condition files/Stage1_1.xlsx,,T2,B2,m,"['c', 'm']","['Clue', 'Monopoly']","[-0.15, 0.5]","[0.15, 0.5]",1,1,,,,,,,,,0,10,10,10,0,3,3,3,,,,,,,,,,,,,,,,,,,,,,,,,,,,,,,,,,,,,,,,,,,,,,,,,,,,,,,734.364914238,None,734.364914238,None,734.364914238,None,m,1,1.2338995989998693,735.900383916,None,735.900383916,None,735.900383916,None,737.2009479359999,None,737.2009479359999,None,737.2009479359999,None,737.2009479359999,None,,,,,,,,,,,,,,,,,,,,,,,,,,,,,,,,,,,,,,,,,,,,001,55,2020_Feb_04_1000,spring_faces,3.1.5,60.018754180191436,
condition files/Stage1_1.xlsx,,B4,T4,m,"['c', 'm']","['Clue', 'Monopoly']","[-0.15, 0.5]","[0.15, 0.5]",1,1,,,,,,,,,0,10,10,10,0,4,4,7,,,,,,,,,,,,,,,,,,,,,,,,,,,,,,,,,,,,,,,,,,,,,,,,,,,,,,,739.1650648209998,None,739.1650648209998,None,739.1650648209998,None,m,1,1.1873665130001427,740.698935122,None,740.698935122,None,740.698935122,None,741.9481221179999,None,741.9481221179999,None,741.9481221179999,None,741.9481221179999,None,,,,,,,,,,,,,,,,,,,,,,,,,,,,,,,,,,,,,,,,,,,,001,55,2020_Feb_04_1000,spring_faces,3.1.5,60.018754180191436,
condition files/Stage1_1.xlsx,,B3,T3,c,"['c', 'm']","['Clue', 'Monopoly']","[-0.15, 0.5]","[0.15, 0.5]",1,1,,,,,,,,,0,10,10,10,0,5,5,4,,,,,,,,,,,,,,,,,,,,,,,,,,,,,,,,,,,,,,,,,,,,,,,,,,,,,,,743.9149194510001,None,743.9149194510001,None,743.9149194510001,None,c,1,2.2304016520001824,745.4479863309998,None,745.4479863309998,None,745.4479863309998,None,747.7321144059997,None,747.7321144059997,None,747.7321144059997,None,747.7321144059997,None,,,,,,,,,,,,,,,,,,,,,,,,,,,,,,,,,,,,,,,,,,,,001,55,2020_Feb_04_1000,spring_faces,3.1.5,60.018754180191436,
condition files/Stage1_1.xlsx,,T1,B1,c,"['c', 'm']","['Clue', 'Monopoly']","[-0.15, 0.5]","[0.15, 0.5]",1,1,,,,,,,,,0,10,10,10,0,6,6,0,,,,,,,,,,,,,,,,,,,,,,,,,,,,,,,,,,,,,,,,,,,,,,,,,,,,,,,749.6983543890001,None,749.6983543890001,None,749.6983543890001,None,c,1,0.6691159950000838,751.2331710210001,None,751.2331710210001,None,751.2331710210001,None,751.9650683579998,None,751.9650683579998,None,751.9650683579998,None,751.9650683579998,None,,,,,,,,,,,,,,,,,,,,,,,,,,,,,,,,,,,,,,,,,,,,001,55,2020_Feb_04_1000,spring_faces,3.1.5,60.018754180191436,
condition files/Stage1_1.xlsx,,T4,B3,m,"['c', 'm']","['Clue', 'Monopoly']","[-0.15, 0.5]","[0.15, 0.5]",1,1,,,,,,,,,0,10,10,10,0,7,7,6,,,,,,,,,,,,,,,,,,,,,,,,,,,,,,,,,,,,,,,,,,,,,,,,,,,,,,,753.9315705189997,None,753.9315705189997,None,753.9315705189997,None,m,1,0.7090717370001585,755.465310519,None,755.465310519,None,755.465310519,None,756.233616682,None,756.233616682,None,756.233616682,None,756.233616682,None,,,,,,,,,,,,,,,,,,,,,,,,,,,,,,,,,,,,,,,,,,,,001,55,2020_Feb_04_1000,spring_faces,3.1.5,60.018754180191436,
condition files/Stage1_2.xlsx,,T2,B1,c,"['c', 'm']","['Clue', 'Monopoly']","[-0.15, 0.5]","[0.15, 0.5]",1,1,,,,,,,,,0,11,11,11,0,0,0,1,,,,,,,,,,,,,,,,,,,,,,,,,,,,,,,,,,,,,,,,,,,,,,,,,,,,,,,758.2149134359997,None,758.2149134359997,None,758.2149134359997,None,c,1,0.9056855529997847,759.7645469629997,None,759.7645469629997,None,759.7645469629997,None,760.7338275849997,None,760.7338275849997,None,760.7338275849997,None,760.7338275849997,None,,,,,,,,,,,,,,,,,,,,,,,,,,,,,,,,,,,,,,,,,,,,001,55,2020_Feb_04_1000,spring_faces,3.1.5,60.018754180191436,
condition files/Stage1_2.xlsx,,B1,T1,c,"['c', 'm']","['Clue', 'Monopoly']","[-0.15, 0.5]","[0.15, 0.5]",1,1,,,,,,,,,0,11,11,11,0,1,1,0,,,,,,,,,,,,,,,,,,,,,,,,,,,,,,,,,,,,,,,,,,,,,,,,,,,,,,,762.6982643020001,None,762.6982643020001,None,762.6982643020001,None,c,1,0.9007474979998733,764.2335500219997,None,764.2335500219997,None,764.2335500219997,None,765.198116133,None,765.198116133,None,765.198116133,None,765.198116133,None,,,,,,,,,,,,,,,,,,,,,,,,,,,,,,,,,,,,,,,,,,,,001,55,2020_Feb_04_1000,spring_faces,3.1.5,60.018754180191436,
condition files/Stage1_2.xlsx,,T1,B2,m,"['c', 'm']","['Clue', 'Monopoly']","[-0.15, 0.5]","[0.15, 0.5]",1,1,,,,,,,,,0,11,11,11,0,2,2,2,,,,,,,,,,,,,,,,,,,,,,,,,,,,,,,,,,,,,,,,,,,,,,,,,,,,,,,767.1648328399997,None,767.1648328399997,None,767.1648328399997,None,m,1,0.4031092750001335,768.7151705420001,None,768.7151705420001,None,768.7151705420001,None,769.1985047759999,None,769.1985047759999,None,769.1985047759999,None,769.1985047759999,None,,,,,,,,,,,,,,,,,,,,,,,,,,,,,,,,,,,,,,,,,,,,001,55,2020_Feb_04_1000,spring_faces,3.1.5,60.018754180191436,
condition files/Stage1_2.xlsx,,B2,T2,m,"['c', 'm']","['Clue', 'Monopoly']","[-0.15, 0.5]","[0.15, 0.5]",1,1,,,,,,,,,0,11,11,11,0,3,3,3,,,,,,,,,,,,,,,,,,,,,,,,,,,,,,,,,,,,,,,,,,,,,,,,,,,,,,,771.1483442069998,None,771.1483442069998,None,771.1483442069998,None,m,1,0.5798657669997738,772.6984098109997,None,772.6984098109997,None,772.6984098109997,None,773.3319747299997,None,773.3319747299997,None,773.3319747299997,None,773.3319747299997,None,,,,,,,,,,,,,,,,,,,,,,,,,,,,,,,,,,,,,,,,,,,,001,55,2020_Feb_04_1000,spring_faces,3.1.5,60.018754180191436,
condition files/Stage1_2.xlsx,,T4,B4,m,"['c', 'm']","['Clue', 'Monopoly']","[-0.15, 0.5]","[0.15, 0.5]",1,1,,,,,,,,,0,11,11,11,0,4,4,7,,,,,,,,,,,,,,,,,,,,,,,,,,,,,,,,,,,,,,,,,,,,,,,,,,,,,,,775.298459696,None,775.298459696,None,775.298459696,None,m,1,0.9736951160002718,776.8486495909997,None,776.8486495909997,None,776.8486495909997,None,777.8811406489999,None,777.8811406489999,None,777.8811406489999,None,777.8811406489999,None,,,,,,,,,,,,,,,,,,,,,,,,,,,,,,,,,,,,,,,,,,,,001,55,2020_Feb_04_1000,spring_faces,3.1.5,60.018754180191436,
condition files/Stage1_2.xlsx,,T3,B3,c,"['c', 'm']","['Clue', 'Monopoly']","[-0.15, 0.5]","[0.15, 0.5]",1,1,,,,,,,,,0,11,11,11,0,5,5,4,,,,,,,,,,,,,,,,,,,,,,,,,,,,,,,,,,,,,,,,,,,,,,,,,,,,,,,779.8481768699999,None,779.8481768699999,None,779.8481768699999,None,c,1,0.8563652869997895,781.397979244,None,781.397979244,None,781.397979244,None,782.3318079689998,None,782.3318079689998,None,782.3318079689998,None,782.3318079689998,None,,,,,,,,,,,,,,,,,,,,,,,,,,,,,,,,,,,,,,,,,,,,001,55,2020_Feb_04_1000,spring_faces,3.1.5,60.018754180191436,
condition files/Stage1_2.xlsx,,B3,T4,m,"['c', 'm']","['Clue', 'Monopoly']","[-0.15, 0.5]","[0.15, 0.5]",1,1,,,,,,,,,0,11,11,11,0,6,6,6,,,,,,,,,,,,,,,,,,,,,,,,,,,,,,,,,,,,,,,,,,,,,,,,,,,,,,,784.2815361129997,None,784.2815361129997,None,784.2815361129997,None,m,1,0.6942687120003939,785.8159543289999,None,785.8159543289999,None,785.8159543289999,None,786.5820845069998,None,786.5820845069998,None,786.5820845069998,None,786.5820845069998,None,,,,,,,,,,,,,,,,,,,,,,,,,,,,,,,,,,,,,,,,,,,,001,55,2020_Feb_04_1000,spring_faces,3.1.5,60.018754180191436,
condition files/Stage1_2.xlsx,,B4,T3,c,"['c', 'm']","['Clue', 'Monopoly']","[-0.15, 0.5]","[0.15, 0.5]",1,1,,,,,,,,,0,11,11,11,0,7,7,5,,,,,,,,,,,,,,,,,,,,,,,,,,,,,,,,,,,,,,,,,,,,,,,,,,,,,,,788.5314162039999,None,788.5314162039999,None,788.5314162039999,None,c,1,1.2914652280001064,790.0668756559999,None,790.0668756559999,None,790.0668756559999,None,791.4164964060001,None,791.4164964060001,None,791.4164964060001,None,791.4164964060001,None,,,,,,,,,,,,,,,,,,,,,,,,,,,,,,,,,,,,,,,,,,,,001,55,2020_Feb_04_1000,spring_faces,3.1.5,60.018754180191436,
,,,,,,,,,,,,,,,,,,,,,,,,,,,,,,,,,,,,,,,,,,,,,,,,,,,,,,,,,,,,,,,,,,,,,,,,,,,,,,,,,,,,,,,,,,,,,,,,,,,,,,,,,,,,,,,,793.3984362179999,None,space,4.944091365000077,798.3982787929999,None,,,,,,,,,,,,,,,,,,,,,,,,,,,,,,001,55,2020_Feb_04_1000,spring_faces,3.1.5,60.018754180191436,
condition files/Stage2_1.xlsx,,B2,T2,r,"['s', 'r']","['Stratego', 'Risk']","[-0.15, 0.5]","[0.15, 0.5]",1,1,,,,,,,,,,,,,,,,,0,0,0,0,0,0,0,3,,,,,,,,,,,,,,,,,,,,,,,,,,,,,,,,,,,,,,,,,,,,,,,803.398442186,None,803.398442186,None,803.398442186,None,r,1,1.1621821569997337,804.9320980049997,None,804.9320980049997,None,804.9320980049997,None,806.1645779159999,None,806.1645779159999,None,806.1645779159999,None,806.1645779159999,None,,,,,,,,,,,,,,,798.3982787929999,None,,,,,,,,,,,,,,,,,,,,,,,,,,,,001,55,2020_Feb_04_1000,spring_faces,3.1.5,60.018754180191436,
condition files/Stage2_1.xlsx,,T1,B1,s,"['s', 'r']","['Stratego', 'Risk']","[-0.15, 0.5]","[0.15, 0.5]",1,1,,,,,,,,,,,,,,,,,0,0,0,0,0,1,1,2,,,,,,,,,,,,,,,,,,,,,,,,,,,,,,,,,,,,,,,,,,,,,,,808.1141529070001,None,808.1141529070001,None,808.1141529070001,None,s,1,0.8782088930001919,809.6480225099999,None,809.6480225099999,None,809.6480225099999,None,810.5829402710001,None,810.5829402710001,None,810.5829402710001,None,810.5829402710001,None,,,,,,,,,,,,,,,,,,,,,,,,,,,,,,,,,,,,,,,,,,,,001,55,2020_Feb_04_1000,spring_faces,3.1.5,60.018754180191436,
condition files/Stage2_1.xlsx,,T3,B3,s,"['s', 'r']","['Stratego', 'Risk']","[-0.15, 0.5]","[0.15, 0.5]",1,1,,,,,,,,,,,,,,,,,0,0,0,0,0,2,2,4,,,,,,,,,,,,,,,,,,,,,,,,,,,,,,,,,,,,,,,,,,,,,,,812.548201695,None,812.548201695,None,812.548201695,None,s,1,1.451783935000094,814.0984524259998,None,814.0984524259998,None,814.0984524259998,None,815.614561979,None,815.614561979,None,815.614561979,None,815.614561979,None,,,,,,,,,,,,,,,,,,,,,,,,,,,,,,,,,,,,,,,,,,,,001,55,2020_Feb_04_1000,spring_faces,3.1.5,60.018754180191436,
condition files/Stage2_1.xlsx,,B6,T6,r,"['s', 'r']","['Stratego', 'Risk']","[-0.15, 0.5]","[0.15, 0.5]",1,1,,,,,,,,,,,,,,,,,0,0,0,0,0,3,3,1,,,,,,,,,,,,,,,,,,,,,,,,,,,,,,,,,,,,,,,,,,,,,,,817.5816533329998,None,817.5816533329998,None,817.5816533329998,None,r,1,1.760551932999988,819.1818094800001,None,819.1818094800001,None,819.1818094800001,None,821.015168079,None,821.015168079,None,821.015168079,None,821.015168079,None,,,,,,,,,,,,,,,,,,,,,,,,,,,,,,,,,,,,,,,,,,,,001,55,2020_Feb_04_1000,spring_faces,3.1.5,60.018754180191436,
condition files/Stage2_1.xlsx,,B4,T4,r,"['s', 'r']","['Stratego', 'Risk']","[-0.15, 0.5]","[0.15, 0.5]",1,1,,,,,,,,,,,,,,,,,0,0,0,0,0,4,4,5,,,,,,,,,,,,,,,,,,,,,,,,,,,,,,,,,,,,,,,,,,,,,,,822.9641864169998,None,822.9641864169998,None,822.9641864169998,None,r,1,2.2198844839999765,824.4984099439998,None,824.4984099439998,None,824.4984099439998,None,826.781479024,None,826.781479024,None,826.781479024,None,826.781479024,None,,,,,,,,,,,,,,,,,,,,,,,,,,,,,,,,,,,,,,,,,,,,001,55,2020_Feb_04_1000,spring_faces,3.1.5,60.018754180191436,
condition files/Stage2_1.xlsx,,T5,B5,s,"['s', 'r']","['Stratego', 'Risk']","[-0.15, 0.5]","[0.15, 0.5]",1,1,,,,,,,,,,,,,,,,,0,0,0,0,0,5,5,0,,,,,,,,,,,,,,,,,,,,,,,,,,,,,,,,,,,,,,,,,,,,,,,828.7478868069998,None,828.7478868069998,None,828.7478868069998,None,s,1,1.6337976029999481,830.300496803,None,830.300496803,None,830.300496803,None,832.0014486609998,None,832.0014486609998,None,832.0014486609998,None,832.0014486609998,None,,,,,,,,,,,,,,,,,,,,,,,,,,,,,,,,,,,,,,,,,,,,001,55,2020_Feb_04_1000,spring_faces,3.1.5,60.018754180191436,
condition files/Stage2_2.xlsx,,T4,B4,r,"['s', 'r']","['Stratego', 'Risk']","[-0.15, 0.5]","[0.15, 0.5]",1,1,,,,,,,,,,,,,,,,,0,1,1,1,0,0,0,5,,,,,,,,,,,,,,,,,,,,,,,,,,,,,,,,,,,,,,,,,,,,,,,833.998505086,None,833.998505086,None,833.998505086,None,r,1,1.219154358999731,835.5151443,None,835.5151443,None,835.5151443,None,836.7988464159998,None,836.7988464159998,None,836.7988464159998,None,836.7988464159998,None,,,,,,,,,,,,,,,,,,,,,,,,,,,,,,,,,,,,,,,,,,,,001,55,2020_Feb_04_1000,spring_faces,3.1.5,60.018754180191436,
condition files/Stage2_2.xlsx,,B5,T5,s,"['s', 'r']","['Stratego', 'Risk']","[-0.15, 0.5]","[0.15, 0.5]",1,1,,,,,,,,,,,,,,,,,0,1,1,1,0,1,1,0,,,,,,,,,,,,,,,,,,,,,,,,,,,,,,,,,,,,,,,,,,,,,,,838.7650336719998,None,838.7650336719998,None,838.7650336719998,None,s,1,2.2287932549998004,840.297492268,None,840.297492268,None,840.297492268,None,842.5844219679998,None,842.5844219679998,None,842.5844219679998,None,842.5844219679998,None,,,,,,,,,,,,,,,,,,,,,,,,,,,,,,,,,,,,,,,,,,,,001,55,2020_Feb_04_1000,spring_faces,3.1.5,60.018754180191436,
condition files/Stage2_2.xlsx,,T6,B6,r,"['s', 'r']","['Stratego', 'Risk']","[-0.15, 0.5]","[0.15, 0.5]",1,1,,,,,,,,,,,,,,,,,0,1,1,1,0,2,2,1,,,,,,,,,,,,,,,,,,,,,,,,,,,,,,,,,,,,,,,,,,,,,,,844.5475833400001,None,844.5475833400001,None,844.5475833400001,None,r,1,1.5462339470000188,846.0840535049997,None,846.0840535049997,None,846.0840535049997,None,847.6825895909997,None,847.6825895909997,None,847.6825895909997,None,847.6825895909997,None,,,,,,,,,,,,,,,,,,,,,,,,,,,,,,,,,,,,,,,,,,,,001,55,2020_Feb_04_1000,spring_faces,3.1.5,60.018754180191436,
condition files/Stage2_2.xlsx,,B1,T1,s,"['s', 'r']","['Stratego', 'Risk']","[-0.15, 0.5]","[0.15, 0.5]",1,1,,,,,,,,,,,,,,,,,0,1,1,1,0,3,3,2,,,,,,,,,,,,,,,,,,,,,,,,,,,,,,,,,,,,,,,,,,,,,,,849.6478550369998,None,849.6478550369998,None,849.6478550369998,None,s,1,1.1669549040002494,851.1832977559998,None,851.1832977559998,None,851.1832977559998,None,852.4161579500001,None,852.4161579500001,None,852.4161579500001,None,852.4161579500001,None,,,,,,,,,,,,,,,,,,,,,,,,,,,,,,,,,,,,,,,,,,,,001,55,2020_Feb_04_1000,spring_faces,3.1.5,60.018754180191436,
condition files/Stage2_2.xlsx,,T2,B2,r,"['s', 'r']","['Stratego', 'Risk']","[-0.15, 0.5]","[0.15, 0.5]",1,1,,,,,,,,,,,,,,,,,0,1,1,1,0,4,4,3,,,,,,,,,,,,,,,,,,,,,,,,,,,,,,,,,,,,,,,,,,,,,,,854.381020153,None,854.381020153,None,854.381020153,None,r,1,1.1394044079997911,855.9149394430001,None,855.9149394430001,None,855.9149394430001,None,857.1317814509998,None,857.1317814509998,None,857.1317814509998,None,857.1317814509998,None,,,,,,,,,,,,,,,,,,,,,,,,,,,,,,,,,,,,,,,,,,,,001,55,2020_Feb_04_1000,spring_faces,3.1.5,60.018754180191436,
condition files/Stage2_2.xlsx,,B3,T3,s,"['s', 'r']","['Stratego', 'Risk']","[-0.15, 0.5]","[0.15, 0.5]",1,1,,,,,,,,,,,,,,,,,0,1,1,1,0,5,5,4,,,,,,,,,,,,,,,,,,,,,,,,,,,,,,,,,,,,,,,,,,,,,,,859.080962126,None,859.080962126,None,859.080962126,None,s,1,0.7908873599999424,860.6154775639998,None,860.6154775639998,None,860.6154775639998,None,861.46679262,None,861.46679262,None,861.46679262,None,861.46679262,None,,,,,,,,,,,,,,,,,,,,,,,,,,,,,,,,,,,,,,,,,,,,001,55,2020_Feb_04_1000,spring_faces,3.1.5,60.018754180191436,
condition files/Stage2_1.xlsx,,T5,B5,s,"['s', 'r']","['Stratego', 'Risk']","[-0.15, 0.5]","[0.15, 0.5]",1,1,,,,,,,,,,,,,,,,,0,2,2,2,0,0,0,0,,,,,,,,,,,,,,,,,,,,,,,,,,,,,,,,,,,,,,,,,,,,,,,863.448617651,None,863.448617651,None,863.448617651,None,s,1,0.8238464790001672,864.9985053669998,None,864.9985053669998,None,864.9985053669998,None,865.8818928709998,None,865.8818928709998,None,865.8818928709998,None,865.8818928709998,None,,,,,,,,,,,,,,,,,,,,,,,,,,,,,,,,,,,,,,,,,,,,001,55,2020_Feb_04_1000,spring_faces,3.1.5,60.018754180191436,
condition files/Stage2_1.xlsx,,T1,B1,s,"['s', 'r']","['Stratego', 'Risk']","[-0.15, 0.5]","[0.15, 0.5]",1,1,,,,,,,,,,,,,,,,,0,2,2,2,0,1,1,2,,,,,,,,,,,,,,,,,,,,,,,,,,,,,,,,,,,,,,,,,,,,,,,867.8474525449997,None,867.8474525449997,None,867.8474525449997,None,s,1,1.383655894000185,869.398580259,None,869.398580259,None,869.398580259,None,870.8484703049999,None,870.8484703049999,None,870.8484703049999,None,870.8484703049999,None,,,,,,,,,,,,,,,,,,,,,,,,,,,,,,,,,,,,,,,,,,,,001,55,2020_Feb_04_1000,spring_faces,3.1.5,60.018754180191436,
condition files/Stage2_1.xlsx,,B2,T2,r,"['s', 'r']","['Stratego', 'Risk']","[-0.15, 0.5]","[0.15, 0.5]",1,1,,,,,,,,,,,,,,,,,0,2,2,2,0,2,2,3,,,,,,,,,,,,,,,,,,,,,,,,,,,,,,,,,,,,,,,,,,,,,,,872.8149656359997,None,872.8149656359997,None,872.8149656359997,None,r,1,0.9123256640000363,874.349961123,None,874.349961123,None,874.349961123,None,875.3151307859998,None,875.3151307859998,None,875.3151307859998,None,875.3151307859998,None,,,,,,,,,,,,,,,,,,,,,,,,,,,,,,,,,,,,,,,,,,,,001,55,2020_Feb_04_1000,spring_faces,3.1.5,60.018754180191436,
condition files/Stage2_1.xlsx,,B6,T6,r,"['s', 'r']","['Stratego', 'Risk']","[-0.15, 0.5]","[0.15, 0.5]",1,1,,,,,,,,,,,,,,,,,0,2,2,2,0,3,3,1,,,,,,,,,,,,,,,,,,,,,,,,,,,,,,,,,,,,,,,,,,,,,,,877.2814349390001,None,877.2814349390001,None,877.2814349390001,None,r,1,1.4076335630002177,878.8147321709998,None,878.8147321709998,None,878.8147321709998,None,880.281722408,None,880.281722408,None,880.281722408,None,880.281722408,None,,,,,,,,,,,,,,,,,,,,,,,,,,,,,,,,,,,,,,,,,,,,001,55,2020_Feb_04_1000,spring_faces,3.1.5,60.018754180191436,
condition files/Stage2_1.xlsx,,T3,B3,s,"['s', 'r']","['Stratego', 'Risk']","[-0.15, 0.5]","[0.15, 0.5]",1,1,,,,,,,,,,,,,,,,,0,2,2,2,0,4,4,4,,,,,,,,,,,,,,,,,,,,,,,,,,,,,,,,,,,,,,,,,,,,,,,882.2481942069999,None,882.2481942069999,None,882.2481942069999,None,s,1,0.8862853430000541,883.7840170710001,None,883.7840170710001,None,883.7840170710001,None,884.7317858050001,None,884.7317858050001,None,884.7317858050001,None,884.7317858050001,None,,,,,,,,,,,,,,,,,,,,,,,,,,,,,,,,,,,,,,,,,,,,001,55,2020_Feb_04_1000,spring_faces,3.1.5,60.018754180191436,
condition files/Stage2_1.xlsx,,B4,T4,r,"['s', 'r']","['Stratego', 'Risk']","[-0.15, 0.5]","[0.15, 0.5]",1,1,,,,,,,,,,,,,,,,,0,2,2,2,0,5,5,5,,,,,,,,,,,,,,,,,,,,,,,,,,,,,,,,,,,,,,,,,,,,,,,886.6986703140001,None,886.6986703140001,None,886.6986703140001,None,r,1,1.3028096139996705,888.231487817,None,888.231487817,None,888.231487817,None,889.6010613529997,None,889.6010613529997,None,889.6010613529997,None,889.6010613529997,None,,,,,,,,,,,,,,,,,,,,,,,,,,,,,,,,,,,,,,,,,,,,001,55,2020_Feb_04_1000,spring_faces,3.1.5,60.018754180191436,
condition files/Stage2_2.xlsx,,B1,T1,s,"['s', 'r']","['Stratego', 'Risk']","[-0.15, 0.5]","[0.15, 0.5]",1,1,,,,,,,,,,,,,,,,,0,3,3,3,0,0,0,2,,,,,,,,,,,,,,,,,,,,,,,,,,,,,,,,,,,,,,,,,,,,,,,891.581634394,None,891.581634394,None,891.581634394,None,s,1,0.787225079000109,893.115082372,None,893.115082372,None,893.115082372,None,893.9656211649999,None,893.9656211649999,None,893.9656211649999,None,893.9656211649999,None,,,,,,,,,,,,,,,,,,,,,,,,,,,,,,,,,,,,,,,,,,,,001,55,2020_Feb_04_1000,spring_faces,3.1.5,60.018754180191436,
condition files/Stage2_2.xlsx,,T6,B6,r,"['s', 'r']","['Stratego', 'Risk']","[-0.15, 0.5]","[0.15, 0.5]",1,1,,,,,,,,,,,,,,,,,0,3,3,3,0,1,1,1,,,,,,,,,,,,,,,,,,,,,,,,,,,,,,,,,,,,,,,,,,,,,,,895.930904546,None,895.930904546,None,895.930904546,None,r,1,1.1093002669999805,897.465068642,None,897.465068642,None,897.465068642,None,898.6483110529998,None,898.6483110529998,None,898.6483110529998,None,898.6483110529998,None,,,,,,,,,,,,,,,,,,,,,,,,,,,,,,,,,,,,,,,,,,,,001,55,2020_Feb_04_1000,spring_faces,3.1.5,60.018754180191436,
condition files/Stage2_2.xlsx,,T2,B2,r,"['s', 'r']","['Stratego', 'Risk']","[-0.15, 0.5]","[0.15, 0.5]",1,1,,,,,,,,,,,,,,,,,0,3,3,3,0,2,2,3,,,,,,,,,,,,,,,,,,,,,,,,,,,,,,,,,,,,,,,,,,,,,,,900.5982414569999,None,900.5982414569999,None,900.5982414569999,None,r,1,0.8746620800002347,902.131701235,None,902.131701235,None,902.131701235,None,903.065003491,None,903.065003491,None,903.065003491,None,903.065003491,None,,,,,,,,,,,,,,,,,,,,,,,,,,,,,,,,,,,,,,,,,,,,001,55,2020_Feb_04_1000,spring_faces,3.1.5,60.018754180191436,
condition files/Stage2_2.xlsx,,B5,T5,s,"['s', 'r']","['Stratego', 'Risk']","[-0.15, 0.5]","[0.15, 0.5]",1,1,,,,,,,,,,,,,,,,,0,3,3,3,0,3,3,0,,,,,,,,,,,,,,,,,,,,,,,,,,,,,,,,,,,,,,,,,,,,,,,905.0318050659998,None,905.0318050659998,None,905.0318050659998,None,s,1,1.0150904509996508,906.5671413119999,None,906.5671413119999,None,906.5671413119999,None,907.6500230349998,None,907.6500230349998,None,907.6500230349998,None,907.6500230349998,None,,,,,,,,,,,,,,,,,,,,,,,,,,,,,,,,,,,,,,,,,,,,001,55,2020_Feb_04_1000,spring_faces,3.1.5,60.018754180191436,
condition files/Stage2_2.xlsx,,T4,B4,r,"['s', 'r']","['Stratego', 'Risk']","[-0.15, 0.5]","[0.15, 0.5]",1,1,,,,,,,,,,,,,,,,,0,3,3,3,0,4,4,5,,,,,,,,,,,,,,,,,,,,,,,,,,,,,,,,,,,,,,,,,,,,,,,909.614639116,None,909.614639116,None,909.614639116,None,r,1,0.7692393379998066,911.1650429199999,None,911.1650429199999,None,911.1650429199999,None,912.0148838709997,None,912.0148838709997,None,912.0148838709997,None,912.0148838709997,None,,,,,,,,,,,,,,,,,,,,,,,,,,,,,,,,,,,,,,,,,,,,001,55,2020_Feb_04_1000,spring_faces,3.1.5,60.018754180191436,
condition files/Stage2_2.xlsx,,B3,T3,s,"['s', 'r']","['Stratego', 'Risk']","[-0.15, 0.5]","[0.15, 0.5]",1,1,,,,,,,,,,,,,,,,,0,3,3,3,0,5,5,4,,,,,,,,,,,,,,,,,,,,,,,,,,,,,,,,,,,,,,,,,,,,,,,913.9650319379998,None,913.9650319379998,None,913.9650319379998,None,s,1,1.2032436909998978,915.5150343390001,None,915.5150343390001,None,915.5150343390001,None,916.782131427,None,916.782131427,None,916.782131427,None,916.782131427,None,,,,,,,,,,,,,,,,,,,,,,,,,,,,,,,,,,,,,,,,,,,,001,55,2020_Feb_04_1000,spring_faces,3.1.5,60.018754180191436,
condition files/Stage2_1.xlsx,,T1,B1,s,"['s', 'r']","['Stratego', 'Risk']","[-0.15, 0.5]","[0.15, 0.5]",1,1,,,,,,,,,,,,,,,,,0,4,4,4,0,0,0,2,,,,,,,,,,,,,,,,,,,,,,,,,,,,,,,,,,,,,,,,,,,,,,,918.765000504,None,918.765000504,None,918.765000504,None,s,1,0.7871230900000228,920.31517171,None,920.31517171,None,920.31517171,None,921.1653172279998,None,921.1653172279998,None,921.1653172279998,None,921.1653172279998,None,,,,,,,,,,,,,,,,,,,,,,,,,,,,,,,,,,,,,,,,,,,,001,55,2020_Feb_04_1000,spring_faces,3.1.5,60.018754180191436,
condition files/Stage2_1.xlsx,,B4,T4,r,"['s', 'r']","['Stratego', 'Risk']","[-0.15, 0.5]","[0.15, 0.5]",1,1,,,,,,,,,,,,,,,,,0,4,4,4,0,1,1,5,,,,,,,,,,,,,,,,,,,,,,,,,,,,,,,,,,,,,,,,,,,,,,,923.1315233979999,None,923.1315233979999,None,923.1315233979999,None,r,1,1.3971346280000034,924.6651449000001,None,924.6651449000001,None,924.6651449000001,None,926.1178415049999,None,926.1178415049999,None,926.1178415049999,None,926.1178415049999,None,,,,,,,,,,,,,,,,,,,,,,,,,,,,,,,,,,,,,,,,,,,,001,55,2020_Feb_04_1000,spring_faces,3.1.5,60.018754180191436,
condition files/Stage2_1.xlsx,,T5,B5,s,"['s', 'r']","['Stratego', 'Risk']","[-0.15, 0.5]","[0.15, 0.5]",1,1,,,,,,,,,,,,,,,,,0,4,4,4,0,2,2,0,,,,,,,,,,,,,,,,,,,,,,,,,,,,,,,,,,,,,,,,,,,,,,,928.0816323690001,None,928.0816323690001,None,928.0816323690001,None,s,1,0.8142171829999825,929.6160723089997,None,929.6160723089997,None,929.6160723089997,None,930.4837095059997,None,930.4837095059997,None,930.4837095059997,None,930.4837095059997,None,,,,,,,,,,,,,,,,,,,,,,,,,,,,,,,,,,,,,,,,,,,,001,55,2020_Feb_04_1000,spring_faces,3.1.5,60.018754180191436,
condition files/Stage2_1.xlsx,,T3,B3,s,"['s', 'r']","['Stratego', 'Risk']","[-0.15, 0.5]","[0.15, 0.5]",1,1,,,,,,,,,,,,,,,,,0,4,4,4,0,3,3,4,,,,,,,,,,,,,,,,,,,,,,,,,,,,,,,,,,,,,,,,,,,,,,,932.4475969739997,None,932.4475969739997,None,932.4475969739997,None,s,1,1.9036215890000676,933.9826813229997,None,933.9826813229997,None,933.9826813229997,None,935.948030169,None,935.948030169,None,935.948030169,None,935.948030169,None,,,,,,,,,,,,,,,,,,,,,,,,,,,,,,,,,,,,,,,,,,,,001,55,2020_Feb_04_1000,spring_faces,3.1.5,60.018754180191436,
condition files/Stage2_1.xlsx,,B6,T6,r,"['s', 'r']","['Stratego', 'Risk']","[-0.15, 0.5]","[0.15, 0.5]",1,1,,,,,,,,,,,,,,,,,0,4,4,4,0,4,4,1,,,,,,,,,,,,,,,,,,,,,,,,,,,,,,,,,,,,,,,,,,,,,,,937.914881146,None,937.914881146,None,937.914881146,None,r,1,0.9494753160001892,939.4647941089997,None,939.4647941089997,None,939.4647941089997,None,940.4664101230001,None,940.4664101230001,None,940.4664101230001,None,940.4664101230001,None,,,,,,,,,,,,,,,,,,,,,,,,,,,,,,,,,,,,,,,,,,,,001,55,2020_Feb_04_1000,spring_faces,3.1.5,60.018754180191436,
