condsFile,subStage,cue1,cue2,correct,responseKeys,responseNames,cue1Position,cue2Position,cue1Opacity,cue2Opacity,stageLoop0.thisRepN,stageLoop0.thisTrialN,stageLoop0.thisN,stageLoop0.thisIndex,blockLoop0.thisRepN,blockLoop0.thisTrialN,blockLoop0.thisN,blockLoop0.thisIndex,stage1Loop.thisRepN,stage1Loop.thisTrialN,stage1Loop.thisN,stage1Loop.thisIndex,blockLoop1.thisRepN,blockLoop1.thisTrialN,blockLoop1.thisN,blockLoop1.thisIndex,stage2Loop.thisRepN,stage2Loop.thisTrialN,stage2Loop.thisN,stage2Loop.thisIndex,blockLoop2.thisRepN,blockLoop2.thisTrialN,blockLoop2.thisN,blockLoop2.thisIndex,testLoop.thisRepN,testLoop.thisTrialN,testLoop.thisN,testLoop.thisIndex,blockLoopTest.thisRepN,blockLoopTest.thisTrialN,blockLoopTest.thisN,blockLoopTest.thisIndex,cuePics,id_instr_text.started,id_instr_text.stopped,space_to_continue_2.started,space_to_continue_2.stopped,end_instructions_resp_3.keys,end_instructions_resp_3.rt,end_instructions_resp_3.started,end_instructions_resp_3.stopped,id_input_instr.started,id_input_instr.stopped,id_input_rect.started,id_input_rect.stopped,id_input_resp.keys,id_input_resp.rt,id_input_resp.started,id_input_resp.stopped,sonaID,id_input_text.started,id_input_text.stopped,final_text.started,final_text.stopped,instructions.started,instructions.stopped,end_instructions_resp.keys,end_instructions_resp.rt,end_instructions_resp.started,end_instructions_resp.stopped,space_to_continue.started,space_to_continue.stopped,instructions_stage0.started,instructions_stage0.stopped,end_instructions_resp_stage0.keys,end_instructions_resp_stage0.rt,end_instructions_resp_stage0.started,end_instructions_resp_stage0.stopped,space_to_continue_stage0.started,space_to_continue_stage0.stopped,text.started,text.stopped,resp_text1.started,resp_text1.stopped,resp_text2.started,resp_text2.stopped,trial_resp.keys,trial_resp.corr,trial_resp.rt,trial_resp.started,trial_resp.stopped,cue1Image.started,cue1Image.stopped,cue2Image.started,cue2Image.stopped,cue1Image_fb.started,cue1Image_fb.stopped,cue2Image_fb.started,cue2Image_fb.stopped,fb_text_answer.started,fb_text_answer.stopped,feedback_image.started,feedback_image.stopped,instructions_stage1.started,instructions_stage1.stopped,end_instructions_resp_stage1.keys,end_instructions_resp_stage1.rt,end_instructions_resp_stage1.started,end_instructions_resp_stage1.stopped,space_to_continue_stage1.started,space_to_continue_stage1.stopped,instructions_2.started,instructions_2.stopped,end_instructions_resp_2.keys,end_instructions_resp_2.rt,end_instructions_resp_2.started,end_instructions_resp_2.stopped,press_space_to_continue_stage2.started,press_space_to_continue_stage2.stopped,instructions_testStage1.started,instructions_testStage1.stopped,end_instructions_resp_test1.keys,end_instructions_resp_test1.rt,end_instructions_resp_test1.started,end_instructions_resp_test1.stopped,press_space_to_continue_test1.started,press_space_to_continue_test1.stopped,cue1Image_testChoice.started,cue1Image_testChoice.stopped,cue2Image_testChoice.started,cue2Image_testChoice.stopped,test_resp.keys,test_resp.corr,test_resp.rt,test_resp.started,test_resp.stopped,cue1Image_testConf.started,cue1Image_testConf.stopped,cue2Image_testConf.started,cue2Image_testConf.stopped,conf_reminder.started,conf_reminder.stopped,conf_rating.response,conf_rating.rt,conf_rating.started,conf_rating.stopped,session,participant,date,expName,psychopyVersion,frameRate,
,,,,,,,,,,,,,,,,,,,,,,,,,,,,,,,,,,,,,,,,,,,"{'none': 'pictures/20M_AN_C.png', 'alpha': 'pictures/SHINEd_pear.png', 'beta': 'pictures/SHINEd_pepper.png', 'theta': 'pictures/SHINEd_apple.png', 'phi': 'pictures/SHINEd_melon.png', 'T1': 'pictures/31M_AN_C.png', 'T2': 'pictures/33M_AN_C.png', 'T3': 'pictures/32M_AN_C.png', 'T4': 'pictures/38M_AN_C.png', 'T5': 'pictures/26M_AN_C.png', 'T6': 'pictures/37M_AN_C.png', 'B1': 'pictures/22M_NE_C.png', 'B2': 'pictures/23M_NE_C.png', 'B3': 'pictures/36M_NE_C.png', 'B4': 'pictures/25M_NE_C.png', 'B5': 'pictures/34M_NE_C.png', 'B6': 'pictures/20M_NE_C.png'}",30.949823793999713,None,35.93311331599989,None,space,0.7150716810001541,35.93311331599989,None,,,,,,,,,,,,,,,,,,,,,,,,,,,,,,,,,,,,,,,,,,,,,,,,,,,,,,,,,,,,,,,,,,,,,,,,,,,,,,,,,,,,,,,,,,,,,,,,001,57,2020_Feb_04_1031,spring_faces,3.1.5,60.031833200261104,
,,,,,,,,,,,,,,,,,,,,,,,,,,,,,,,,,,,,,,,,,,,,,,,,,,,,37.0331176349996,None,37.0331176349996,None,"['g', 'a', 'backspace', 'backspace', '0', '1', '1', '1', 'g', 'a', 'r', 'i', 'v']","[27.183068796000043, 27.343008687999827, 29.711010851000083, 29.87105888899987, 31.64704166699994, 31.82308384499993, 35.663023177000014, 35.887055465999765, 37.34304628300015, 37.42306838800005, 42.975110187000155, 43.16700494299994, 43.359134426999844]",37.0331176349996,None,,,,,,,,,,,,,,,,,,,,,,,,,,,,,,,,,,,,,,,,,,,,,,,,,,,,,,,,,,,,,,,,,,,,,,,,,,,,,,,,,,,,,,,,001,57,2020_Feb_04_1031,spring_faces,3.1.5,60.031833200261104,
,,,,,,,,,,,,,,,,,,,,,,,,,,,,,,,,,,,,,,,,,,,,,,,,,,,,,,,,,,,,0111gariv,37.0331176349996,None,37.0331176349996,None,85.4660518429996,None,space,3.077809799000079,90.46638238900005,None,,,,,,,,,,,,,,,,,,,,,,,,,,,,,,,,,,,,,,,,,,,,,,,,,,,,,,,,,,,,,,,,,,,,,,,,,,,,,001,57,2020_Feb_04_1031,spring_faces,3.1.5,60.031833200261104,
,,,,,,,,,,,,,,,,,,,,,,,,,,,,,,,,,,,,,,,,,,,,,,,,,,,,,,,,,,,,,,,,,,,,,,,90.46638238900005,None,93.58367090599995,None,space,2.465044406999823,98.58315025599995,None,,,,,,,,,,,,,,,,,,,,,,,,,,,,,,,,,,,,,,,,,,,,,,,,,,,,,,,,,,,,,,,,,,,,,001,57,2020_Feb_04_1031,spring_faces,3.1.5,60.031833200261104,
condition files/Stage0a.xlsx,0a,alpha,none,h,"['h', 'g']","['Chess', 'Go']","[0, 0.5]","[0, 0]",1,0,0,0,0,0,0,0,0,0,,,,,,,,,,,,,,,,,,,,,,,,,,,,,,,,,,,,,,,,,,,,,,,,,,,,,,,,,,,,,98.58315025599995,None,101.09957397699964,None,101.09957397699964,None,101.09957397699964,None,h,1,4.907232156000191,102.73300924899968,None,102.73300924899968,None,102.73300924899968,None,107.71642923399986,None,107.71642923399986,None,107.71642923399986,None,107.71642923399986,None,,,,,,,,,,,,,,,,,,,,,,,,,,,,,,,,,,,,,,,,,,,,001,57,2020_Feb_04_1031,spring_faces,3.1.5,60.031833200261104,
condition files/Stage0a.xlsx,0a,beta,none,g,"['h', 'g']","['Chess', 'Go']","[0, 0.5]","[0, 0]",1,0,0,0,0,0,0,1,1,1,,,,,,,,,,,,,,,,,,,,,,,,,,,,,,,,,,,,,,,,,,,,,,,,,,,,,,,,,,,,,,,109.66626309100002,None,109.66626309100002,None,109.66626309100002,None,g,1,1.3976639890001934,111.20248681899966,None,111.20248681899966,None,111.20248681899966,None,112.66629232499963,None,112.66629232499963,None,112.66629232499963,None,112.66629232499963,None,,,,,,,,,,,,,,,,,,,,,,,,,,,,,,,,,,,,,,,,,,,,001,57,2020_Feb_04_1031,spring_faces,3.1.5,60.031833200261104,
condition files/Stage0a.xlsx,0a,beta,none,g,"['h', 'g']","['Chess', 'Go']","[0, 0.5]","[0, 0]",1,0,0,1,1,1,0,0,0,1,,,,,,,,,,,,,,,,,,,,,,,,,,,,,,,,,,,,,,,,,,,,,,,,,,,,,,,,,,,,,,,114.64971889799972,None,114.64971889799972,None,114.64971889799972,None,g,1,0.8647130169997581,116.1834700899999,None,116.1834700899999,None,116.1834700899999,None,117.10016421099999,None,117.10016421099999,None,117.10016421099999,None,117.10016421099999,None,,,,,,,,,,,,,,,,,,,,,,,,,,,,,,,,,,,,,,,,,,,,001,57,2020_Feb_04_1031,spring_faces,3.1.5,60.031833200261104,
condition files/Stage0a.xlsx,0a,alpha,none,h,"['h', 'g']","['Chess', 'Go']","[0, 0.5]","[0, 0]",1,0,0,1,1,1,0,1,1,0,,,,,,,,,,,,,,,,,,,,,,,,,,,,,,,,,,,,,,,,,,,,,,,,,,,,,,,,,,,,,,,119.06626240499963,None,119.06626240499963,None,119.06626240499963,None,h,1,0.6247609349998129,120.599488457,None,120.599488457,None,120.599488457,None,121.28267570599974,None,121.28267570599974,None,121.28267570599974,None,121.28267570599974,None,,,,,,,,,,,,,,,,,,,,,,,,,,,,,,,,,,,,,,,,,,,,001,57,2020_Feb_04_1031,spring_faces,3.1.5,60.031833200261104,
condition files/Stage0a.xlsx,0a,alpha,none,h,"['h', 'g']","['Chess', 'Go']","[0, 0.5]","[0, 0]",1,0,0,2,2,2,0,0,0,0,,,,,,,,,,,,,,,,,,,,,,,,,,,,,,,,,,,,,,,,,,,,,,,,,,,,,,,,,,,,,,,123.26650642100003,None,123.26650642100003,None,123.26650642100003,None,h,1,0.760300647999884,124.79994554599989,None,124.79994554599989,None,124.79994554599989,None,125.616623075,None,125.616623075,None,125.616623075,None,125.616623075,None,,,,,,,,,,,,,,,,,,,,,,,,,,,,,,,,,,,,,,,,,,,,001,57,2020_Feb_04_1031,spring_faces,3.1.5,60.031833200261104,
condition files/Stage0a.xlsx,0a,beta,none,g,"['h', 'g']","['Chess', 'Go']","[0, 0.5]","[0, 0]",1,0,0,2,2,2,0,1,1,1,,,,,,,,,,,,,,,,,,,,,,,,,,,,,,,,,,,,,,,,,,,,,,,,,,,,,,,,,,,,,,,127.5830135909996,None,127.5830135909996,None,127.5830135909996,None,g,1,0.5559398690002126,129.11624125799972,None,129.11624125799972,None,129.11624125799972,None,129.7330547329998,None,129.7330547329998,None,129.7330547329998,None,129.7330547329998,None,,,,,,,,,,,,,,,,,,,,,,,,,,,,,,,,,,,,,,,,,,,,001,57,2020_Feb_04_1031,spring_faces,3.1.5,60.031833200261104,
condition files/Stage0a.xlsx,0a,alpha,none,h,"['h', 'g']","['Chess', 'Go']","[0, 0.5]","[0, 0]",1,0,0,3,3,3,0,0,0,0,,,,,,,,,,,,,,,,,,,,,,,,,,,,,,,,,,,,,,,,,,,,,,,,,,,,,,,,,,,,,,,131.7164996849997,None,131.7164996849997,None,131.7164996849997,None,h,1,0.5506987610001488,133.24943996899992,None,133.24943996899992,None,133.24943996899992,None,133.86643269299975,None,133.86643269299975,None,133.86643269299975,None,133.86643269299975,None,,,,,,,,,,,,,,,,,,,,,,,,,,,,,,,,,,,,,,,,,,,,001,57,2020_Feb_04_1031,spring_faces,3.1.5,60.031833200261104,
condition files/Stage0a.xlsx,0a,beta,none,g,"['h', 'g']","['Chess', 'Go']","[0, 0.5]","[0, 0]",1,0,0,3,3,3,0,1,1,1,,,,,,,,,,,,,,,,,,,,,,,,,,,,,,,,,,,,,,,,,,,,,,,,,,,,,,,,,,,,,,,135.83297438099999,None,135.83297438099999,None,135.83297438099999,None,g,1,0.4651580639997519,137.36701561999962,None,137.36701561999962,None,137.36701561999962,None,137.8829933789998,None,137.8829933789998,None,137.8829933789998,None,137.8829933789998,None,,,,,,,,,,,,,,,,,,,,,,,,,,,,,,,,,,,,,,,,,,,,001,57,2020_Feb_04_1031,spring_faces,3.1.5,60.031833200261104,
condition files/Stage0a.xlsx,0a,beta,none,g,"['h', 'g']","['Chess', 'Go']","[0, 0.5]","[0, 0]",1,0,0,4,4,4,0,0,0,1,,,,,,,,,,,,,,,,,,,,,,,,,,,,,,,,,,,,,,,,,,,,,,,,,,,,,,,,,,,,,,,139.86663181899985,None,139.86663181899985,None,139.86663181899985,None,g,1,0.960114115000124,141.40013020499964,None,141.40013020499964,None,141.40013020499964,None,142.4158381899997,None,142.4158381899997,None,142.4158381899997,None,142.4158381899997,None,,,,,,,,,,,,,,,,,,,,,,,,,,,,,,,,,,,,,,,,,,,,001,57,2020_Feb_04_1031,spring_faces,3.1.5,60.031833200261104,
condition files/Stage0a.xlsx,0a,alpha,none,h,"['h', 'g']","['Chess', 'Go']","[0, 0.5]","[0, 0]",1,0,0,4,4,4,0,1,1,0,,,,,,,,,,,,,,,,,,,,,,,,,,,,,,,,,,,,,,,,,,,,,,,,,,,,,,,,,,,,,,,144.38294115600002,None,144.38294115600002,None,144.38294115600002,None,h,1,0.5556045090002044,145.91659078199973,None,145.91659078199973,None,145.91659078199973,None,146.53336413999978,None,146.53336413999978,None,146.53336413999978,None,146.53336413999978,None,,,,,,,,,,,,,,,,,,,,,,,,,,,,,,,,,,,,,,,,,,,,001,57,2020_Feb_04_1031,spring_faces,3.1.5,60.031833200261104,
condition files/Stage0a.xlsx,0a,beta,none,g,"['h', 'g']","['Chess', 'Go']","[0, 0.5]","[0, 0]",1,0,0,5,5,5,0,0,0,1,,,,,,,,,,,,,,,,,,,,,,,,,,,,,,,,,,,,,,,,,,,,,,,,,,,,,,,,,,,,,,,148.516308236,None,148.516308236,None,148.516308236,None,g,1,0.6301275549999446,150.05000126599998,None,150.05000126599998,None,150.05000126599998,None,150.73324403099969,None,150.73324403099969,None,150.73324403099969,None,150.73324403099969,None,,,,,,,,,,,,,,,,,,,,,,,,,,,,,,,,,,,,,,,,,,,,001,57,2020_Feb_04_1031,spring_faces,3.1.5,60.031833200261104,
condition files/Stage0a.xlsx,0a,alpha,none,h,"['h', 'g']","['Chess', 'Go']","[0, 0.5]","[0, 0]",1,0,0,5,5,5,0,1,1,0,,,,,,,,,,,,,,,,,,,,,,,,,,,,,,,,,,,,,,,,,,,,,,,,,,,,,,,,,,,,,,,152.69970972700003,None,152.69970972700003,None,152.69970972700003,None,h,1,0.49509824599999774,154.23300937299973,None,154.23300937299973,None,154.23300937299973,None,154.7826528999999,None,154.7826528999999,None,154.7826528999999,None,154.7826528999999,None,,,,,,,,,,,,,,,,,,,,,,,,,,,,,,,,,,,,,,,,,,,,001,57,2020_Feb_04_1031,spring_faces,3.1.5,60.031833200261104,
condition files/Stage0b_1.xlsx,0b,alpha,none,h,"['h', 'g']","['Chess', 'Go']","[-0.15, 0.5]","[0.15, 0.5]",1,0,0,6,6,6,0,0,0,0,,,,,,,,,,,,,,,,,,,,,,,,,,,,,,,,,,,,,,,,,,,,,,,,,,,,,,,,,,,,,,,156.76664217999996,None,156.76664217999996,None,156.76664217999996,None,h,1,0.8288061800003561,158.29936180999994,None,158.29936180999994,None,158.29936180999994,None,159.1826251159996,None,159.1826251159996,None,159.1826251159996,None,159.1826251159996,None,,,,,,,,,,,,,,,,,,,,,,,,,,,,,,,,,,,,,,,,,,,,001,57,2020_Feb_04_1031,spring_faces,3.1.5,60.031833200261104,
condition files/Stage0b_1.xlsx,0b,none,beta,g,"['h', 'g']","['Chess', 'Go']","[-0.15, 0.5]","[0.15, 0.5]",0,1,0,6,6,6,0,1,1,1,,,,,,,,,,,,,,,,,,,,,,,,,,,,,,,,,,,,,,,,,,,,,,,,,,,,,,,,,,,,,,,161.1496121,None,161.1496121,None,161.1496121,None,g,1,0.48902144499970746,162.68711255399967,None,162.68711255399967,None,162.68711255399967,None,163.24980723,None,163.24980723,None,163.24980723,None,163.24980723,None,,,,,,,,,,,,,,,,,,,,,,,,,,,,,,,,,,,,,,,,,,,,001,57,2020_Feb_04_1031,spring_faces,3.1.5,60.031833200261104,
condition files/Stage0b_2.xlsx,0b,none,alpha,h,"['h', 'g']","['Chess', 'Go']","[-0.15, 0.5]","[0.15, 0.5]",0,1,0,7,7,7,0,0,0,0,,,,,,,,,,,,,,,,,,,,,,,,,,,,,,,,,,,,,,,,,,,,,,,,,,,,,,,,,,,,,,,165.2163976019997,None,165.2163976019997,None,165.2163976019997,None,h,1,0.5701372690000426,166.7500537599999,None,166.7500537599999,None,166.7500537599999,None,167.38261414299996,None,167.38261414299996,None,167.38261414299996,None,167.38261414299996,None,,,,,,,,,,,,,,,,,,,,,,,,,,,,,,,,,,,,,,,,,,,,001,57,2020_Feb_04_1031,spring_faces,3.1.5,60.031833200261104,
condition files/Stage0b_2.xlsx,0b,beta,none,g,"['h', 'g']","['Chess', 'Go']","[-0.15, 0.5]","[0.15, 0.5]",1,0,0,7,7,7,0,1,1,1,,,,,,,,,,,,,,,,,,,,,,,,,,,,,,,,,,,,,,,,,,,,,,,,,,,,,,,,,,,,,,,169.34936822099962,None,169.34936822099962,None,169.34936822099962,None,g,1,0.49986824600000546,170.90029287699963,None,170.90029287699963,None,170.90029287699963,None,171.4697337169996,None,171.4697337169996,None,171.4697337169996,None,171.4697337169996,None,,,,,,,,,,,,,,,,,,,,,,,,,,,,,,,,,,,,,,,,,,,,001,57,2020_Feb_04_1031,spring_faces,3.1.5,60.031833200261104,
condition files/Stage0b_1.xlsx,0b,none,beta,g,"['h', 'g']","['Chess', 'Go']","[-0.15, 0.5]","[0.15, 0.5]",0,1,0,8,8,8,0,0,0,1,,,,,,,,,,,,,,,,,,,,,,,,,,,,,,,,,,,,,,,,,,,,,,,,,,,,,,,,,,,,,,,173.4499221699998,None,173.4499221699998,None,173.4499221699998,None,h,0,0.4459645859997181,174.9862560309998,None,174.9862560309998,None,174.9862560309998,None,175.48338127299985,None,175.48338127299985,None,175.48338127299985,None,175.48338127299985,None,,,,,,,,,,,,,,,,,,,,,,,,,,,,,,,,,,,,,,,,,,,,001,57,2020_Feb_04_1031,spring_faces,3.1.5,60.031833200261104,
condition files/Stage0b_1.xlsx,0b,alpha,none,h,"['h', 'g']","['Chess', 'Go']","[-0.15, 0.5]","[0.15, 0.5]",1,0,0,8,8,8,0,1,1,0,,,,,,,,,,,,,,,,,,,,,,,,,,,,,,,,,,,,,,,,,,,,,,,,,,,,,,,,,,,,,,,177.45012009799984,None,177.45012009799984,None,177.45012009799984,None,h,1,0.5590237510000406,178.9851417699997,None,178.9851417699997,None,178.9851417699997,None,179.60249561299997,None,179.60249561299997,None,179.60249561299997,None,179.60249561299997,None,,,,,,,,,,,,,,,,,,,,,,,,,,,,,,,,,,,,,,,,,,,,001,57,2020_Feb_04_1031,spring_faces,3.1.5,60.031833200261104,
condition files/Stage0b_2.xlsx,0b,beta,none,g,"['h', 'g']","['Chess', 'Go']","[-0.15, 0.5]","[0.15, 0.5]",1,0,0,9,9,9,0,0,0,1,,,,,,,,,,,,,,,,,,,,,,,,,,,,,,,,,,,,,,,,,,,,,,,,,,,,,,,,,,,,,,,181.5835383079998,None,181.5835383079998,None,181.5835383079998,None,g,1,0.6834731579997424,183.11668018399996,None,183.11668018399996,None,183.11668018399996,None,183.8665414879997,None,183.8665414879997,None,183.8665414879997,None,183.8665414879997,None,,,,,,,,,,,,,,,,,,,,,,,,,,,,,,,,,,,,,,,,,,,,001,57,2020_Feb_04_1031,spring_faces,3.1.5,60.031833200261104,
condition files/Stage0b_2.xlsx,0b,none,alpha,h,"['h', 'g']","['Chess', 'Go']","[-0.15, 0.5]","[0.15, 0.5]",0,1,0,9,9,9,0,1,1,0,,,,,,,,,,,,,,,,,,,,,,,,,,,,,,,,,,,,,,,,,,,,,,,,,,,,,,,,,,,,,,,185.83227771699967,None,185.83227771699967,None,185.83227771699967,None,h,1,1.9530357300000105,187.3831341279997,None,187.3831341279997,None,187.3831341279997,None,189.40452950400004,None,189.40452950400004,None,189.40452950400004,None,189.40452950400004,None,,,,,,,,,,,,,,,,,,,,,,,,,,,,,,,,,,,,,,,,,,,,001,57,2020_Feb_04_1031,spring_faces,3.1.5,60.031833200261104,
condition files/Stage0b_1.xlsx,0b,none,beta,g,"['h', 'g']","['Chess', 'Go']","[-0.15, 0.5]","[0.15, 0.5]",0,1,0,10,10,10,0,0,0,1,,,,,,,,,,,,,,,,,,,,,,,,,,,,,,,,,,,,,,,,,,,,,,,,,,,,,,,,,,,,,,,191.38308321199975,None,191.38308321199975,None,191.38308321199975,None,g,1,0.6917257720001544,192.9165045339996,None,192.9165045339996,None,192.9165045339996,None,193.66627331899963,None,193.66627331899963,None,193.66627331899963,None,193.66627331899963,None,,,,,,,,,,,,,,,,,,,,,,,,,,,,,,,,,,,,,,,,,,,,001,57,2020_Feb_04_1031,spring_faces,3.1.5,60.031833200261104,
condition files/Stage0b_1.xlsx,0b,alpha,none,h,"['h', 'g']","['Chess', 'Go']","[-0.15, 0.5]","[0.15, 0.5]",1,0,0,10,10,10,0,1,1,0,,,,,,,,,,,,,,,,,,,,,,,,,,,,,,,,,,,,,,,,,,,,,,,,,,,,,,,,,,,,,,,195.6330211239997,None,195.6330211239997,None,195.6330211239997,None,h,1,0.76046226499966,197.18368839899995,None,197.18368839899995,None,197.18368839899995,None,198.00496050799984,None,198.00496050799984,None,198.00496050799984,None,198.00496050799984,None,,,,,,,,,,,,,,,,,,,,,,,,,,,,,,,,,,,,,,,,,,,,001,57,2020_Feb_04_1031,spring_faces,3.1.5,60.031833200261104,
condition files/Stage0b_2.xlsx,0b,none,alpha,h,"['h', 'g']","['Chess', 'Go']","[-0.15, 0.5]","[0.15, 0.5]",0,1,0,11,11,11,0,0,0,0,,,,,,,,,,,,,,,,,,,,,,,,,,,,,,,,,,,,,,,,,,,,,,,,,,,,,,,,,,,,,,,199.9826470779999,None,199.9826470779999,None,199.9826470779999,None,h,1,0.8723246539998399,201.51993339299997,None,201.51993339299997,None,201.51993339299997,None,202.4494265999997,None,202.4494265999997,None,202.4494265999997,None,202.4494265999997,None,,,,,,,,,,,,,,,,,,,,,,,,,,,,,,,,,,,,,,,,,,,,001,57,2020_Feb_04_1031,spring_faces,3.1.5,60.031833200261104,
condition files/Stage0b_2.xlsx,0b,beta,none,g,"['h', 'g']","['Chess', 'Go']","[-0.15, 0.5]","[0.15, 0.5]",1,0,0,11,11,11,0,1,1,1,,,,,,,,,,,,,,,,,,,,,,,,,,,,,,,,,,,,,,,,,,,,,,,,,,,,,,,,,,,,,,,204.4161778929997,None,204.4161778929997,None,204.4161778929997,None,g,1,0.616149053999834,205.95203817499987,None,205.95203817499987,None,205.95203817499987,None,206.63326986899983,None,206.63326986899983,None,206.63326986899983,None,206.63326986899983,None,,,,,,,,,,,,,,,,,,,,,,,,,,,,,,,,,,,,,,,,,,,,001,57,2020_Feb_04_1031,spring_faces,3.1.5,60.031833200261104,
condition files/Stage0c_1.xlsx,0c,theta,alpha,h,"['h', 'g']","['Chess', 'Go']","[-0.15, 0.5]","[0.15, 0.5]",1,1,0,12,12,12,0,0,0,0,,,,,,,,,,,,,,,,,,,,,,,,,,,,,,,,,,,,,,,,,,,,,,,,,,,,,,,,,,,,,,,208.6159583489998,None,208.6159583489998,None,208.6159583489998,None,h,1,3.4421784279998064,210.1500601749999,None,210.1500601749999,None,210.1500601749999,None,213.64988036499972,None,213.64988036499972,None,213.64988036499972,None,213.64988036499972,None,,,,,,,,,,,,,,,,,,,,,,,,,,,,,,,,,,,,,,,,,,,,001,57,2020_Feb_04_1031,spring_faces,3.1.5,60.031833200261104,
condition files/Stage0c_1.xlsx,0c,beta,theta,g,"['h', 'g']","['Chess', 'Go']","[-0.15, 0.5]","[0.15, 0.5]",1,1,0,12,12,12,0,1,1,2,,,,,,,,,,,,,,,,,,,,,,,,,,,,,,,,,,,,,,,,,,,,,,,,,,,,,,,,,,,,,,,215.6154839599999,None,215.6154839599999,None,215.6154839599999,None,g,1,3.418276234000132,217.14988573799974,None,217.14988573799974,None,217.14988573799974,None,220.6330090069996,None,220.6330090069996,None,220.6330090069996,None,220.6330090069996,None,,,,,,,,,,,,,,,,,,,,,,,,,,,,,,,,,,,,,,,,,,,,001,57,2020_Feb_04_1031,spring_faces,3.1.5,60.031833200261104,
condition files/Stage0c_1.xlsx,0c,alpha,phi,h,"['h', 'g']","['Chess', 'Go']","[-0.15, 0.5]","[0.15, 0.5]",1,1,0,12,12,12,0,2,2,1,,,,,,,,,,,,,,,,,,,,,,,,,,,,,,,,,,,,,,,,,,,,,,,,,,,,,,,,,,,,,,,222.59926669499964,None,222.59926669499964,None,222.59926669499964,None,h,1,2.6912018989996795,224.13301559399997,None,224.13301559399997,None,224.13301559399997,None,226.8829324819999,None,226.8829324819999,None,226.8829324819999,None,226.8829324819999,None,,,,,,,,,,,,,,,,,,,,,,,,,,,,,,,,,,,,,,,,,,,,001,57,2020_Feb_04_1031,spring_faces,3.1.5,60.031833200261104,
condition files/Stage0c_1.xlsx,0c,phi,beta,g,"['h', 'g']","['Chess', 'Go']","[-0.15, 0.5]","[0.15, 0.5]",1,1,0,12,12,12,0,3,3,3,,,,,,,,,,,,,,,,,,,,,,,,,,,,,,,,,,,,,,,,,,,,,,,,,,,,,,,,,,,,,,,228.8500742049996,None,228.8500742049996,None,228.8500742049996,None,g,1,3.1445381999997153,230.38362004500004,None,230.38362004500004,None,230.38362004500004,None,233.58319559699976,None,233.58319559699976,None,233.58319559699976,None,233.58319559699976,None,,,,,,,,,,,,,,,,,,,,,,,,,,,,,,,,,,,,,,,,,,,,001,57,2020_Feb_04_1031,spring_faces,3.1.5,60.031833200261104,
condition files/Stage0c_2.xlsx,0c,beta,phi,g,"['h', 'g']","['Chess', 'Go']","[-0.15, 0.5]","[0.15, 0.5]",1,1,0,13,13,13,0,0,0,3,,,,,,,,,,,,,,,,,,,,,,,,,,,,,,,,,,,,,,,,,,,,,,,,,,,,,,,,,,,,,,,235.5663936449996,None,235.5663936449996,None,235.5663936449996,None,g,1,1.3402030330003072,237.10000021799988,None,237.10000021799988,None,237.10000021799988,None,238.48428013900002,None,238.48428013900002,None,238.48428013900002,None,238.48428013900002,None,,,,,,,,,,,,,,,,,,,,,,,,,,,,,,,,,,,,,,,,,,,,001,57,2020_Feb_04_1031,spring_faces,3.1.5,60.031833200261104,
condition files/Stage0c_2.xlsx,0c,alpha,theta,h,"['h', 'g']","['Chess', 'Go']","[-0.15, 0.5]","[0.15, 0.5]",1,1,0,13,13,13,0,1,1,0,,,,,,,,,,,,,,,,,,,,,,,,,,,,,,,,,,,,,,,,,,,,,,,,,,,,,,,,,,,,,,,240.46649589299977,None,240.46649589299977,None,240.46649589299977,None,h,1,1.3365778749998753,241.9995930379996,None,241.9995930379996,None,241.9995930379996,None,243.3997471839998,None,243.3997471839998,None,243.3997471839998,None,243.3997471839998,None,,,,,,,,,,,,,,,,,,,,,,,,,,,,,,,,,,,,,,,,,,,,001,57,2020_Feb_04_1031,spring_faces,3.1.5,60.031833200261104,
condition files/Stage0c_2.xlsx,0c,phi,alpha,h,"['h', 'g']","['Chess', 'Go']","[-0.15, 0.5]","[0.15, 0.5]",1,1,0,13,13,13,0,2,2,1,,,,,,,,,,,,,,,,,,,,,,,,,,,,,,,,,,,,,,,,,,,,,,,,,,,,,,,,,,,,,,,245.3660938969997,None,245.3660938969997,None,245.3660938969997,None,h,1,1.6366606699998556,246.89951424499986,None,246.89951424499986,None,246.89951424499986,None,248.58374438500005,None,248.58374438500005,None,248.58374438500005,None,248.58374438500005,None,,,,,,,,,,,,,,,,,,,,,,,,,,,,,,,,,,,,,,,,,,,,001,57,2020_Feb_04_1031,spring_faces,3.1.5,60.031833200261104,
condition files/Stage0c_2.xlsx,0c,theta,beta,g,"['h', 'g']","['Chess', 'Go']","[-0.15, 0.5]","[0.15, 0.5]",1,1,0,13,13,13,0,3,3,2,,,,,,,,,,,,,,,,,,,,,,,,,,,,,,,,,,,,,,,,,,,,,,,,,,,,,,,,,,,,,,,250.56610809699987,None,250.56610809699987,None,250.56610809699987,None,g,1,1.8766393699997934,252.09952080599987,None,252.09952080599987,None,252.09952080599987,None,254.03346008799963,None,254.03346008799963,None,254.03346008799963,None,254.03346008799963,None,,,,,,,,,,,,,,,,,,,,,,,,,,,,,,,,,,,,,,,,,,,,001,57,2020_Feb_04_1031,spring_faces,3.1.5,60.031833200261104,
condition files/Stage0c_1.xlsx,0c,theta,alpha,h,"['h', 'g']","['Chess', 'Go']","[-0.15, 0.5]","[0.15, 0.5]",1,1,0,14,14,14,0,0,0,0,,,,,,,,,,,,,,,,,,,,,,,,,,,,,,,,,,,,,,,,,,,,,,,,,,,,,,,,,,,,,,,256.01625798899977,None,256.01625798899977,None,256.01625798899977,None,h,1,1.161953469999844,257.550207066,None,257.550207066,None,257.550207066,None,258.7664848659997,None,258.7664848659997,None,258.7664848659997,None,258.7664848659997,None,,,,,,,,,,,,,,,,,,,,,,,,,,,,,,,,,,,,,,,,,,,,001,57,2020_Feb_04_1031,spring_faces,3.1.5,60.031833200261104,
condition files/Stage0c_1.xlsx,0c,phi,beta,g,"['h', 'g']","['Chess', 'Go']","[-0.15, 0.5]","[0.15, 0.5]",1,1,0,14,14,14,0,1,1,3,,,,,,,,,,,,,,,,,,,,,,,,,,,,,,,,,,,,,,,,,,,,,,,,,,,,,,,,,,,,,,,260.732959082,None,260.732959082,None,260.732959082,None,g,1,0.92584689899968,262.2663956829997,None,262.2663956829997,None,262.2663956829997,None,263.249852508,None,263.249852508,None,263.249852508,None,263.249852508,None,,,,,,,,,,,,,,,,,,,,,,,,,,,,,,,,,,,,,,,,,,,,001,57,2020_Feb_04_1031,spring_faces,3.1.5,60.031833200261104,
condition files/Stage0c_1.xlsx,0c,alpha,phi,h,"['h', 'g']","['Chess', 'Go']","[-0.15, 0.5]","[0.15, 0.5]",1,1,0,14,14,14,0,2,2,1,,,,,,,,,,,,,,,,,,,,,,,,,,,,,,,,,,,,,,,,,,,,,,,,,,,,,,,,,,,,,,,265.2163961629999,None,265.2163961629999,None,265.2163961629999,None,h,1,1.2581834419997904,266.7500404739999,None,266.7500404739999,None,266.7500404739999,None,268.06617542699996,None,268.06617542699996,None,268.06617542699996,None,268.06617542699996,None,,,,,,,,,,,,,,,,,,,,,,,,,,,,,,,,,,,,,,,,,,,,001,57,2020_Feb_04_1031,spring_faces,3.1.5,60.031833200261104,
condition files/Stage0c_1.xlsx,0c,beta,theta,g,"['h', 'g']","['Chess', 'Go']","[-0.15, 0.5]","[0.15, 0.5]",1,1,0,14,14,14,0,3,3,2,,,,,,,,,,,,,,,,,,,,,,,,,,,,,,,,,,,,,,,,,,,,,,,,,,,,,,,,,,,,,,,270.03280707999966,None,270.03280707999966,None,270.03280707999966,None,g,1,1.0337756320000153,271.566380536,None,271.566380536,None,271.566380536,None,272.64963503599984,None,272.64963503599984,None,272.64963503599984,None,272.64963503599984,None,,,,,,,,,,,,,,,,,,,,,,,,,,,,,,,,,,,,,,,,,,,,001,57,2020_Feb_04_1031,spring_faces,3.1.5,60.031833200261104,
condition files/Stage0c_2.xlsx,0c,theta,beta,g,"['h', 'g']","['Chess', 'Go']","[-0.15, 0.5]","[0.15, 0.5]",1,1,0,15,15,15,0,0,0,2,,,,,,,,,,,,,,,,,,,,,,,,,,,,,,,,,,,,,,,,,,,,,,,,,,,,,,,,,,,,,,,274.633235451,None,274.633235451,None,274.633235451,None,g,1,0.945617663000121,276.1665728459998,None,276.1665728459998,None,276.1665728459998,None,277.15157274099965,None,277.15157274099965,None,277.15157274099965,None,277.15157274099965,None,,,,,,,,,,,,,,,,,,,,,,,,,,,,,,,,,,,,,,,,,,,,001,57,2020_Feb_04_1031,spring_faces,3.1.5,60.031833200261104,
condition files/Stage0c_2.xlsx,0c,beta,phi,g,"['h', 'g']","['Chess', 'Go']","[-0.15, 0.5]","[0.15, 0.5]",1,1,0,15,15,15,0,1,1,3,,,,,,,,,,,,,,,,,,,,,,,,,,,,,,,,,,,,,,,,,,,,,,,,,,,,,,,,,,,,,,,279.13224588,None,279.13224588,None,279.13224588,None,g,1,1.1175303060003898,280.6666086289997,None,280.6666086289997,None,280.6666086289997,None,281.8347943579997,None,281.8347943579997,None,281.8347943579997,None,281.8347943579997,None,,,,,,,,,,,,,,,,,,,,,,,,,,,,,,,,,,,,,,,,,,,,001,57,2020_Feb_04_1031,spring_faces,3.1.5,60.031833200261104,
condition files/Stage0c_2.xlsx,0c,alpha,theta,h,"['h', 'g']","['Chess', 'Go']","[-0.15, 0.5]","[0.15, 0.5]",1,1,0,15,15,15,0,2,2,0,,,,,,,,,,,,,,,,,,,,,,,,,,,,,,,,,,,,,,,,,,,,,,,,,,,,,,,,,,,,,,,283.81563124800005,None,283.81563124800005,None,283.81563124800005,None,h,1,0.9303069699999469,285.3498583399996,None,285.3498583399996,None,285.3498583399996,None,286.33271769199973,None,286.33271769199973,None,286.33271769199973,None,286.33271769199973,None,,,,,,,,,,,,,,,,,,,,,,,,,,,,,,,,,,,,,,,,,,,,001,57,2020_Feb_04_1031,spring_faces,3.1.5,60.031833200261104,
condition files/Stage0c_2.xlsx,0c,phi,alpha,h,"['h', 'g']","['Chess', 'Go']","[-0.15, 0.5]","[0.15, 0.5]",1,1,0,15,15,15,0,3,3,1,,,,,,,,,,,,,,,,,,,,,,,,,,,,,,,,,,,,,,,,,,,,,,,,,,,,,,,,,,,,,,,288.2998577879998,None,288.2998577879998,None,288.2998577879998,None,h,1,0.8149549479999223,289.83320710199996,None,289.83320710199996,None,289.83320710199996,None,290.68424797399985,None,290.68424797399985,None,290.68424797399985,None,290.68424797399985,None,,,,,,,,,,,,,,,,,,,,,,,,,,,,,,,,,,,,,,,,,,,,001,57,2020_Feb_04_1031,spring_faces,3.1.5,60.031833200261104,
condition files/Stage0c_1.xlsx,0c,phi,beta,g,"['h', 'g']","['Chess', 'Go']","[-0.15, 0.5]","[0.15, 0.5]",1,1,0,16,16,16,0,0,0,3,,,,,,,,,,,,,,,,,,,,,,,,,,,,,,,,,,,,,,,,,,,,,,,,,,,,,,,,,,,,,,,292.6832971499998,None,292.6832971499998,None,292.6832971499998,None,g,1,0.8798331009998037,294.21633122000003,None,294.21633122000003,None,294.21633122000003,None,295.1497236729997,None,295.1497236729997,None,295.1497236729997,None,295.1497236729997,None,,,,,,,,,,,,,,,,,,,,,,,,,,,,,,,,,,,,,,,,,,,,001,57,2020_Feb_04_1031,spring_faces,3.1.5,60.031833200261104,
condition files/Stage0c_1.xlsx,0c,beta,theta,g,"['h', 'g']","['Chess', 'Go']","[-0.15, 0.5]","[0.15, 0.5]",1,1,0,16,16,16,0,1,1,2,,,,,,,,,,,,,,,,,,,,,,,,,,,,,,,,,,,,,,,,,,,,,,,,,,,,,,,,,,,,,,,297.11601958699976,None,297.11601958699976,None,297.11601958699976,None,g,1,0.7981023400002414,298.6500640239997,None,298.6500640239997,None,298.6500640239997,None,299.48386368,None,299.48386368,None,299.48386368,None,299.48386368,None,,,,,,,,,,,,,,,,,,,,,,,,,,,,,,,,,,,,,,,,,,,,001,57,2020_Feb_04_1031,spring_faces,3.1.5,60.031833200261104,
condition files/Stage0c_1.xlsx,0c,theta,alpha,h,"['h', 'g']","['Chess', 'Go']","[-0.15, 0.5]","[0.15, 0.5]",1,1,0,16,16,16,0,2,2,0,,,,,,,,,,,,,,,,,,,,,,,,,,,,,,,,,,,,,,,,,,,,,,,,,,,,,,,,,,,,,,,301.46592504299997,None,301.46592504299997,None,301.46592504299997,None,h,1,0.5762527639999462,302.9999095109997,None,302.9999095109997,None,302.9999095109997,None,303.6331575619997,None,303.6331575619997,None,303.6331575619997,None,303.6331575619997,None,,,,,,,,,,,,,,,,,,,,,,,,,,,,,,,,,,,,,,,,,,,,001,57,2020_Feb_04_1031,spring_faces,3.1.5,60.031833200261104,
condition files/Stage0c_1.xlsx,0c,alpha,phi,h,"['h', 'g']","['Chess', 'Go']","[-0.15, 0.5]","[0.15, 0.5]",1,1,0,16,16,16,0,3,3,1,,,,,,,,,,,,,,,,,,,,,,,,,,,,,,,,,,,,,,,,,,,,,,,,,,,,,,,,,,,,,,,305.6164999079997,None,305.6164999079997,None,305.6164999079997,None,h,1,0.8108154999999897,307.13336273799996,None,307.13336273799996,None,307.13336273799996,None,307.98464559900003,None,307.98464559900003,None,307.98464559900003,None,307.98464559900003,None,,,,,,,,,,,,,,,,,,,,,,,,,,,,,,,,,,,,,,,,,,,,001,57,2020_Feb_04_1031,spring_faces,3.1.5,60.031833200261104,
condition files/Stage0c_2.xlsx,0c,phi,alpha,h,"['h', 'g']","['Chess', 'Go']","[-0.15, 0.5]","[0.15, 0.5]",1,1,0,17,17,17,0,0,0,1,,,,,,,,,,,,,,,,,,,,,,,,,,,,,,,,,,,,,,,,,,,,,,,,,,,,,,,,,,,,,,,309.9830989779998,None,309.9830989779998,None,309.9830989779998,None,h,1,1.5637328490001892,311.516432678,None,311.516432678,None,311.516432678,None,313.1193650209998,None,313.1193650209998,None,313.1193650209998,None,313.1193650209998,None,,,,,,,,,,,,,,,,,,,,,,,,,,,,,,,,,,,,,,,,,,,,001,57,2020_Feb_04_1031,spring_faces,3.1.5,60.031833200261104,
condition files/Stage0c_2.xlsx,0c,beta,phi,g,"['h', 'g']","['Chess', 'Go']","[-0.15, 0.5]","[0.15, 0.5]",1,1,0,17,17,17,0,1,1,3,,,,,,,,,,,,,,,,,,,,,,,,,,,,,,,,,,,,,,,,,,,,,,,,,,,,,,,,,,,,,,,315.0998230629998,None,315.0998230629998,None,315.0998230629998,None,g,1,0.7512840139997934,316.63285505199974,None,316.63285505199974,None,316.63285505199974,None,317.45025986599967,None,317.45025986599967,None,317.45025986599967,None,317.45025986599967,None,,,,,,,,,,,,,,,,,,,,,,,,,,,,,,,,,,,,,,,,,,,,001,57,2020_Feb_04_1031,spring_faces,3.1.5,60.031833200261104,
condition files/Stage0c_2.xlsx,0c,theta,beta,g,"['h', 'g']","['Chess', 'Go']","[-0.15, 0.5]","[0.15, 0.5]",1,1,0,17,17,17,0,2,2,2,,,,,,,,,,,,,,,,,,,,,,,,,,,,,,,,,,,,,,,,,,,,,,,,,,,,,,,,,,,,,,,319.4157995669998,None,319.4157995669998,None,319.4157995669998,None,g,1,0.8986016349999773,320.9495692319997,None,320.9495692319997,None,320.9495692319997,None,321.88445960599984,None,321.88445960599984,None,321.88445960599984,None,321.88445960599984,None,,,,,,,,,,,,,,,,,,,,,,,,,,,,,,,,,,,,,,,,,,,,001,57,2020_Feb_04_1031,spring_faces,3.1.5,60.031833200261104,
condition files/Stage0c_2.xlsx,0c,alpha,theta,h,"['h', 'g']","['Chess', 'Go']","[-0.15, 0.5]","[0.15, 0.5]",1,1,0,17,17,17,0,3,3,0,,,,,,,,,,,,,,,,,,,,,,,,,,,,,,,,,,,,,,,,,,,,,,,,,,,,,,,,,,,,,,,323.8661027379999,None,323.8661027379999,None,323.8661027379999,None,h,1,0.6883451749999949,325.3998246829997,None,325.3998246829997,None,325.3998246829997,None,326.15010510799993,None,326.15010510799993,None,326.15010510799993,None,326.15010510799993,None,,,,,,,,,,,,,,,,,,,,,,,,,,,,,,,,,,,,,,,,,,,,001,57,2020_Feb_04_1031,spring_faces,3.1.5,60.031833200261104,
,,,,,,,,,,,,,,,,,,,,,,,,,,,,,,,,,,,,,,,,,,,,,,,,,,,,,,,,,,,,,,,,,,,,,,,,,,,,,,,,,,,,,,,,,,,,,,,,,,,,,,,,328.13296513299974,None,space,5.867144486000143,333.132996241,None,,,,,,,,,,,,,,,,,,,,,,,,,,,,,,,,,,,,,,001,57,2020_Feb_04_1031,spring_faces,3.1.5,60.031833200261104,
condition files/Stage1_1.xlsx,,B4,T4,m,"['c', 'm']","['Clue', 'Monopoly']","[-0.15, 0.5]","[0.15, 0.5]",1,1,,,,,,,,,0,0,0,0,0,0,0,7,,,,,,,,,,,,,,,,,,,,,,,,,,,,,,,,,,,,,,,,,,,,,,,,,,,,,,,339.06594832799965,None,339.06594832799965,None,339.06594832799965,None,m,1,1.6949996370003646,340.6491967109996,None,340.6491967109996,None,340.6491967109996,None,342.4173172689998,None,342.4173172689998,None,342.4173172689998,None,342.4173172689998,None,,,,,,,333.132996241,None,,,,,,,,,,,,,,,,,,,,,,,,,,,,,,,,,,,,001,57,2020_Feb_04_1031,spring_faces,3.1.5,60.031833200261104,
condition files/Stage1_1.xlsx,,B3,T3,c,"['c', 'm']","['Clue', 'Monopoly']","[-0.15, 0.5]","[0.15, 0.5]",1,1,,,,,,,,,0,0,0,0,0,1,1,4,,,,,,,,,,,,,,,,,,,,,,,,,,,,,,,,,,,,,,,,,,,,,,,,,,,,,,,344.3662590629997,None,344.3662590629997,None,344.3662590629997,None,c,1,0.921270542000002,345.9669058879999,None,345.9669058879999,None,345.9669058879999,None,346.9508871869998,None,346.9508871869998,None,346.9508871869998,None,346.9508871869998,None,,,,,,,,,,,,,,,,,,,,,,,,,,,,,,,,,,,,,,,,,,,,001,57,2020_Feb_04_1031,spring_faces,3.1.5,60.031833200261104,
condition files/Stage1_1.xlsx,,T4,B3,m,"['c', 'm']","['Clue', 'Monopoly']","[-0.15, 0.5]","[0.15, 0.5]",1,1,,,,,,,,,0,0,0,0,0,2,2,6,,,,,,,,,,,,,,,,,,,,,,,,,,,,,,,,,,,,,,,,,,,,,,,,,,,,,,,348.91631839799993,None,348.91631839799993,None,348.91631839799993,None,m,1,0.8381275059996369,350.4500625429996,None,350.4500625429996,None,350.4500625429996,None,351.35082596899974,None,351.35082596899974,None,351.35082596899974,None,351.35082596899974,None,,,,,,,,,,,,,,,,,,,,,,,,,,,,,,,,,,,,,,,,,,,,001,57,2020_Feb_04_1031,spring_faces,3.1.5,60.031833200261104,
condition files/Stage1_1.xlsx,,T2,B2,m,"['c', 'm']","['Clue', 'Monopoly']","[-0.15, 0.5]","[0.15, 0.5]",1,1,,,,,,,,,0,0,0,0,0,3,3,3,,,,,,,,,,,,,,,,,,,,,,,,,,,,,,,,,,,,,,,,,,,,,,,,,,,,,,,353.316296298,None,353.316296298,None,353.316296298,None,c,0,1.2041653569999653,354.8999665369997,None,354.8999665369997,None,354.8999665369997,None,356.16628599199976,None,356.16628599199976,None,356.16628599199976,None,356.16628599199976,None,,,,,,,,,,,,,,,,,,,,,,,,,,,,,,,,,,,,,,,,,,,,001,57,2020_Feb_04_1031,spring_faces,3.1.5,60.031833200261104,
condition files/Stage1_1.xlsx,,B1,T2,c,"['c', 'm']","['Clue', 'Monopoly']","[-0.15, 0.5]","[0.15, 0.5]",1,1,,,,,,,,,0,0,0,0,0,4,4,1,,,,,,,,,,,,,,,,,,,,,,,,,,,,,,,,,,,,,,,,,,,,,,,,,,,,,,,358.13300097699994,None,358.13300097699994,None,358.13300097699994,None,c,1,4.485375292000299,359.6668163669997,None,359.6668163669997,None,359.6668163669997,None,364.21678726499977,None,364.21678726499977,None,364.21678726499977,None,364.21678726499977,None,,,,,,,,,,,,,,,,,,,,,,,,,,,,,,,,,,,,,,,,,,,,001,57,2020_Feb_04_1031,spring_faces,3.1.5,60.031833200261104,
condition files/Stage1_1.xlsx,,T3,B4,c,"['c', 'm']","['Clue', 'Monopoly']","[-0.15, 0.5]","[0.15, 0.5]",1,1,,,,,,,,,0,0,0,0,0,5,5,5,,,,,,,,,,,,,,,,,,,,,,,,,,,,,,,,,,,,,,,,,,,,,,,,,,,,,,,366.1832371419996,None,366.1832371419996,None,366.1832371419996,None,m,0,3.540010823999637,367.7162383689997,None,367.7162383689997,None,367.7162383689997,None,371.31587615499984,None,371.31587615499984,None,371.31587615499984,None,371.31587615499984,None,,,,,,,,,,,,,,,,,,,,,,,,,,,,,,,,,,,,,,,,,,,,001,57,2020_Feb_04_1031,spring_faces,3.1.5,60.031833200261104,
condition files/Stage1_1.xlsx,,B2,T1,m,"['c', 'm']","['Clue', 'Monopoly']","[-0.15, 0.5]","[0.15, 0.5]",1,1,,,,,,,,,0,0,0,0,0,6,6,2,,,,,,,,,,,,,,,,,,,,,,,,,,,,,,,,,,,,,,,,,,,,,,,,,,,,,,,373.2831418329997,None,373.2831418329997,None,373.2831418329997,None,c,0,1.1578345869997975,374.81830837999996,None,374.81830837999996,None,374.81830837999996,None,376.03421672800005,None,376.03421672800005,None,376.03421672800005,None,376.03421672800005,None,,,,,,,,,,,,,,,,,,,,,,,,,,,,,,,,,,,,,,,,,,,,001,57,2020_Feb_04_1031,spring_faces,3.1.5,60.031833200261104,
condition files/Stage1_1.xlsx,,T1,B1,c,"['c', 'm']","['Clue', 'Monopoly']","[-0.15, 0.5]","[0.15, 0.5]",1,1,,,,,,,,,0,0,0,0,0,7,7,0,,,,,,,,,,,,,,,,,,,,,,,,,,,,,,,,,,,,,,,,,,,,,,,,,,,,,,,377.999107655,None,377.999107655,None,377.999107655,None,m,0,1.5472906599998169,379.53288797100004,None,379.53288797100004,None,379.53288797100004,None,381.13280000199984,None,381.13280000199984,None,381.13280000199984,None,381.13280000199984,None,,,,,,,,,,,,,,,,,,,,,,,,,,,,,,,,,,,,,,,,,,,,001,57,2020_Feb_04_1031,spring_faces,3.1.5,60.031833200261104,
condition files/Stage1_2.xlsx,,B1,T1,c,"['c', 'm']","['Clue', 'Monopoly']","[-0.15, 0.5]","[0.15, 0.5]",1,1,,,,,,,,,0,1,1,1,0,0,0,0,,,,,,,,,,,,,,,,,,,,,,,,,,,,,,,,,,,,,,,,,,,,,,,,,,,,,,,383.11654346399973,None,383.11654346399973,None,383.11654346399973,None,m,0,2.221848943999703,384.65034994300004,None,384.65034994300004,None,384.65034994300004,None,386.93321607300004,None,386.93321607300004,None,386.93321607300004,None,386.93321607300004,None,,,,,,,,,,,,,,,,,,,,,,,,,,,,,,,,,,,,,,,,,,,,001,57,2020_Feb_04_1031,spring_faces,3.1.5,60.031833200261104,
condition files/Stage1_2.xlsx,,B3,T4,m,"['c', 'm']","['Clue', 'Monopoly']","[-0.15, 0.5]","[0.15, 0.5]",1,1,,,,,,,,,0,1,1,1,0,1,1,6,,,,,,,,,,,,,,,,,,,,,,,,,,,,,,,,,,,,,,,,,,,,,,,,,,,,,,,388.89967038299983,None,388.89967038299983,None,388.89967038299983,None,m,1,0.8535734609999963,390.43463168599965,None,390.43463168599965,None,390.43463168599965,None,391.3661877919999,None,391.3661877919999,None,391.3661877919999,None,391.3661877919999,None,,,,,,,,,,,,,,,,,,,,,,,,,,,,,,,,,,,,,,,,,,,,001,57,2020_Feb_04_1031,spring_faces,3.1.5,60.031833200261104,
condition files/Stage1_2.xlsx,,T4,B4,m,"['c', 'm']","['Clue', 'Monopoly']","[-0.15, 0.5]","[0.15, 0.5]",1,1,,,,,,,,,0,1,1,1,0,2,2,7,,,,,,,,,,,,,,,,,,,,,,,,,,,,,,,,,,,,,,,,,,,,,,,,,,,,,,,393.3163358239999,None,393.3163358239999,None,393.3163358239999,None,m,1,0.9176199789999373,394.8505645519999,None,394.8505645519999,None,394.8505645519999,None,395.83322329999964,None,395.83322329999964,None,395.83322329999964,None,395.83322329999964,None,,,,,,,,,,,,,,,,,,,,,,,,,,,,,,,,,,,,,,,,,,,,001,57,2020_Feb_04_1031,spring_faces,3.1.5,60.031833200261104,
condition files/Stage1_2.xlsx,,T3,B3,c,"['c', 'm']","['Clue', 'Monopoly']","[-0.15, 0.5]","[0.15, 0.5]",1,1,,,,,,,,,0,1,1,1,0,3,3,4,,,,,,,,,,,,,,,,,,,,,,,,,,,,,,,,,,,,,,,,,,,,,,,,,,,,,,,397.7990995949999,None,397.7990995949999,None,397.7990995949999,None,c,1,1.137902829000268,399.33434814999964,None,399.33434814999964,None,399.33434814999964,None,400.5357844719997,None,400.5357844719997,None,400.5357844719997,None,400.5357844719997,None,,,,,,,,,,,,,,,,,,,,,,,,,,,,,,,,,,,,,,,,,,,,001,57,2020_Feb_04_1031,spring_faces,3.1.5,60.031833200261104,
condition files/Stage1_2.xlsx,,T2,B1,c,"['c', 'm']","['Clue', 'Monopoly']","[-0.15, 0.5]","[0.15, 0.5]",1,1,,,,,,,,,0,1,1,1,0,4,4,1,,,,,,,,,,,,,,,,,,,,,,,,,,,,,,,,,,,,,,,,,,,,,,,,,,,,,,,402.4997000499998,None,402.4997000499998,None,402.4997000499998,None,c,1,0.9824954880000405,404.0336879319998,None,404.0336879319998,None,404.0336879319998,None,405.06652487799965,None,405.06652487799965,None,405.06652487799965,None,405.06652487799965,None,,,,,,,,,,,,,,,,,,,,,,,,,,,,,,,,,,,,,,,,,,,,001,57,2020_Feb_04_1031,spring_faces,3.1.5,60.031833200261104,
condition files/Stage1_2.xlsx,,T1,B2,m,"['c', 'm']","['Clue', 'Monopoly']","[-0.15, 0.5]","[0.15, 0.5]",1,1,,,,,,,,,0,1,1,1,0,5,5,2,,,,,,,,,,,,,,,,,,,,,,,,,,,,,,,,,,,,,,,,,,,,,,,,,,,,,,,407.03223229499963,None,407.03223229499963,None,407.03223229499963,None,c,0,1.458099268999831,408.56614682400004,None,408.56614682400004,None,408.56614682400004,None,410.0999127189998,None,410.0999127189998,None,410.0999127189998,None,410.0999127189998,None,,,,,,,,,,,,,,,,,,,,,,,,,,,,,,,,,,,,,,,,,,,,001,57,2020_Feb_04_1031,spring_faces,3.1.5,60.031833200261104,
condition files/Stage1_2.xlsx,,B4,T3,c,"['c', 'm']","['Clue', 'Monopoly']","[-0.15, 0.5]","[0.15, 0.5]",1,1,,,,,,,,,0,1,1,1,0,6,6,5,,,,,,,,,,,,,,,,,,,,,,,,,,,,,,,,,,,,,,,,,,,,,,,,,,,,,,,412.0495509479997,None,412.0495509479997,None,412.0495509479997,None,c,1,0.8245490050003355,413.5837087269997,None,413.5837087269997,None,413.5837087269997,None,414.46624879699993,None,414.46624879699993,None,414.46624879699993,None,414.46624879699993,None,,,,,,,,,,,,,,,,,,,,,,,,,,,,,,,,,,,,,,,,,,,,001,57,2020_Feb_04_1031,spring_faces,3.1.5,60.031833200261104,
condition files/Stage1_2.xlsx,,B2,T2,m,"['c', 'm']","['Clue', 'Monopoly']","[-0.15, 0.5]","[0.15, 0.5]",1,1,,,,,,,,,0,1,1,1,0,7,7,3,,,,,,,,,,,,,,,,,,,,,,,,,,,,,,,,,,,,,,,,,,,,,,,,,,,,,,,416.4329997599998,None,416.4329997599998,None,416.4329997599998,None,c,0,1.5770042029998876,417.9671761259997,None,417.9671761259997,None,417.9671761259997,None,419.6002433419999,None,419.6002433419999,None,419.6002433419999,None,419.6002433419999,None,,,,,,,,,,,,,,,,,,,,,,,,,,,,,,,,,,,,,,,,,,,,001,57,2020_Feb_04_1031,spring_faces,3.1.5,60.031833200261104,
condition files/Stage1_1.xlsx,,B2,T1,m,"['c', 'm']","['Clue', 'Monopoly']","[-0.15, 0.5]","[0.15, 0.5]",1,1,,,,,,,,,0,2,2,2,0,0,0,2,,,,,,,,,,,,,,,,,,,,,,,,,,,,,,,,,,,,,,,,,,,,,,,,,,,,,,,421.5835506129997,None,421.5835506129997,None,421.5835506129997,None,c,0,2.410829456999636,423.13332770299985,None,423.13332770299985,None,423.13332770299985,None,425.5998469599999,None,425.5998469599999,None,425.5998469599999,None,425.5998469599999,None,,,,,,,,,,,,,,,,,,,,,,,,,,,,,,,,,,,,,,,,,,,,001,57,2020_Feb_04_1031,spring_faces,3.1.5,60.031833200261104,
condition files/Stage1_1.xlsx,,B3,T3,c,"['c', 'm']","['Clue', 'Monopoly']","[-0.15, 0.5]","[0.15, 0.5]",1,1,,,,,,,,,0,2,2,2,0,1,1,4,,,,,,,,,,,,,,,,,,,,,,,,,,,,,,,,,,,,,,,,,,,,,,,,,,,,,,,427.5661443959998,None,427.5661443959998,None,427.5661443959998,None,c,1,0.8427718499997354,429.10140347499964,None,429.10140347499964,None,429.10140347499964,None,430.016513176,None,430.016513176,None,430.016513176,None,430.016513176,None,,,,,,,,,,,,,,,,,,,,,,,,,,,,,,,,,,,,,,,,,,,,001,57,2020_Feb_04_1031,spring_faces,3.1.5,60.031833200261104,
condition files/Stage1_1.xlsx,,T2,B2,m,"['c', 'm']","['Clue', 'Monopoly']","[-0.15, 0.5]","[0.15, 0.5]",1,1,,,,,,,,,0,2,2,2,0,2,2,3,,,,,,,,,,,,,,,,,,,,,,,,,,,,,,,,,,,,,,,,,,,,,,,,,,,,,,,431.96643896399974,None,431.96643896399974,None,431.96643896399974,None,m,1,1.3728497179999977,433.4993604839997,None,433.4993604839997,None,433.4993604839997,None,434.9350187109999,None,434.9350187109999,None,434.9350187109999,None,434.9350187109999,None,,,,,,,,,,,,,,,,,,,,,,,,,,,,,,,,,,,,,,,,,,,,001,57,2020_Feb_04_1031,spring_faces,3.1.5,60.031833200261104,
condition files/Stage1_1.xlsx,,T3,B4,c,"['c', 'm']","['Clue', 'Monopoly']","[-0.15, 0.5]","[0.15, 0.5]",1,1,,,,,,,,,0,2,2,2,0,3,3,5,,,,,,,,,,,,,,,,,,,,,,,,,,,,,,,,,,,,,,,,,,,,,,,,,,,,,,,436.89930405199993,None,436.89930405199993,None,436.89930405199993,None,c,1,1.1903590300003088,438.44988102399975,None,438.44988102399975,None,438.44988102399975,None,439.7166499179998,None,439.7166499179998,None,439.7166499179998,None,439.7166499179998,None,,,,,,,,,,,,,,,,,,,,,,,,,,,,,,,,,,,,,,,,,,,,001,57,2020_Feb_04_1031,spring_faces,3.1.5,60.031833200261104,
condition files/Stage1_1.xlsx,,B1,T2,c,"['c', 'm']","['Clue', 'Monopoly']","[-0.15, 0.5]","[0.15, 0.5]",1,1,,,,,,,,,0,2,2,2,0,4,4,1,,,,,,,,,,,,,,,,,,,,,,,,,,,,,,,,,,,,,,,,,,,,,,,,,,,,,,,441.66615371299986,None,441.66615371299986,None,441.66615371299986,None,m,0,1.4469774449999022,443.20121303999986,None,443.20121303999986,None,443.20121303999986,None,444.69934311199995,None,444.69934311199995,None,444.69934311199995,None,444.69934311199995,None,,,,,,,,,,,,,,,,,,,,,,,,,,,,,,,,,,,,,,,,,,,,001,57,2020_Feb_04_1031,spring_faces,3.1.5,60.031833200261104,
condition files/Stage1_1.xlsx,,T4,B3,m,"['c', 'm']","['Clue', 'Monopoly']","[-0.15, 0.5]","[0.15, 0.5]",1,1,,,,,,,,,0,2,2,2,0,5,5,6,,,,,,,,,,,,,,,,,,,,,,,,,,,,,,,,,,,,,,,,,,,,,,,,,,,,,,,446.6663502899996,None,446.6663502899996,None,446.6663502899996,None,m,1,0.8000057839999499,448.216173197,None,448.216173197,None,448.216173197,None,449.06627687399987,None,449.06627687399987,None,449.06627687399987,None,449.06627687399987,None,,,,,,,,,,,,,,,,,,,,,,,,,,,,,,,,,,,,,,,,,,,,001,57,2020_Feb_04_1031,spring_faces,3.1.5,60.031833200261104,
condition files/Stage1_1.xlsx,,T1,B1,c,"['c', 'm']","['Clue', 'Monopoly']","[-0.15, 0.5]","[0.15, 0.5]",1,1,,,,,,,,,0,2,2,2,0,6,6,0,,,,,,,,,,,,,,,,,,,,,,,,,,,,,,,,,,,,,,,,,,,,,,,,,,,,,,,451.0327714719997,None,451.0327714719997,None,451.0327714719997,None,m,0,1.6977864300001784,452.56637475299976,None,452.56637475299976,None,452.56637475299976,None,454.3175528329998,None,454.3175528329998,None,454.3175528329998,None,454.3175528329998,None,,,,,,,,,,,,,,,,,,,,,,,,,,,,,,,,,,,,,,,,,,,,001,57,2020_Feb_04_1031,spring_faces,3.1.5,60.031833200261104,
condition files/Stage1_1.xlsx,,B4,T4,m,"['c', 'm']","['Clue', 'Monopoly']","[-0.15, 0.5]","[0.15, 0.5]",1,1,,,,,,,,,0,2,2,2,0,7,7,7,,,,,,,,,,,,,,,,,,,,,,,,,,,,,,,,,,,,,,,,,,,,,,,,,,,,,,,456.2835330099997,None,456.2835330099997,None,456.2835330099997,None,m,1,0.8163222309999583,457.81586089899974,None,457.81586089899974,None,457.81586089899974,None,458.68378399699986,None,458.68378399699986,None,458.68378399699986,None,458.68378399699986,None,,,,,,,,,,,,,,,,,,,,,,,,,,,,,,,,,,,,,,,,,,,,001,57,2020_Feb_04_1031,spring_faces,3.1.5,60.031833200261104,
condition files/Stage1_2.xlsx,,B2,T2,m,"['c', 'm']","['Clue', 'Monopoly']","[-0.15, 0.5]","[0.15, 0.5]",1,1,,,,,,,,,0,3,3,3,0,0,0,3,,,,,,,,,,,,,,,,,,,,,,,,,,,,,,,,,,,,,,,,,,,,,,,,,,,,,,,460.6664574239999,None,460.6664574239999,None,460.6664574239999,None,m,1,1.7120798539999669,462.20006583999975,None,462.20006583999975,None,462.20006583999975,None,463.9665037929999,None,463.9665037929999,None,463.9665037929999,None,463.9665037929999,None,,,,,,,,,,,,,,,,,,,,,,,,,,,,,,,,,,,,,,,,,,,,001,57,2020_Feb_04_1031,spring_faces,3.1.5,60.031833200261104,
condition files/Stage1_2.xlsx,,T3,B3,c,"['c', 'm']","['Clue', 'Monopoly']","[-0.15, 0.5]","[0.15, 0.5]",1,1,,,,,,,,,0,3,3,3,0,1,1,4,,,,,,,,,,,,,,,,,,,,,,,,,,,,,,,,,,,,,,,,,,,,,,,,,,,,,,,465.9329835579997,None,465.9329835579997,None,465.9329835579997,None,c,1,0.9581799610000417,467.46607971899994,None,467.46607971899994,None,467.46607971899994,None,468.48421343899963,None,468.48421343899963,None,468.48421343899963,None,468.48421343899963,None,,,,,,,,,,,,,,,,,,,,,,,,,,,,,,,,,,,,,,,,,,,,001,57,2020_Feb_04_1031,spring_faces,3.1.5,60.031833200261104,
condition files/Stage1_2.xlsx,,T1,B2,m,"['c', 'm']","['Clue', 'Monopoly']","[-0.15, 0.5]","[0.15, 0.5]",1,1,,,,,,,,,0,3,3,3,0,2,2,2,,,,,,,,,,,,,,,,,,,,,,,,,,,,,,,,,,,,,,,,,,,,,,,,,,,,,,,470.4496649079997,None,470.4496649079997,None,470.4496649079997,None,c,0,1.1916095270003098,471.98458206199984,None,471.98458206199984,None,471.98458206199984,None,473.2498707189998,None,473.2498707189998,None,473.2498707189998,None,473.2498707189998,None,,,,,,,,,,,,,,,,,,,,,,,,,,,,,,,,,,,,,,,,,,,,001,57,2020_Feb_04_1031,spring_faces,3.1.5,60.031833200261104,
condition files/Stage1_2.xlsx,,B4,T3,c,"['c', 'm']","['Clue', 'Monopoly']","[-0.15, 0.5]","[0.15, 0.5]",1,1,,,,,,,,,0,3,3,3,0,3,3,5,,,,,,,,,,,,,,,,,,,,,,,,,,,,,,,,,,,,,,,,,,,,,,,,,,,,,,,475.1997469969997,None,475.1997469969997,None,475.1997469969997,None,c,1,0.9388097519999974,476.7333776319997,None,476.7333776319997,None,476.7333776319997,None,477.7337684649997,None,477.7337684649997,None,477.7337684649997,None,477.7337684649997,None,,,,,,,,,,,,,,,,,,,,,,,,,,,,,,,,,,,,,,,,,,,,001,57,2020_Feb_04_1031,spring_faces,3.1.5,60.031833200261104,
condition files/Stage1_2.xlsx,,T4,B4,m,"['c', 'm']","['Clue', 'Monopoly']","[-0.15, 0.5]","[0.15, 0.5]",1,1,,,,,,,,,0,3,3,3,0,4,4,7,,,,,,,,,,,,,,,,,,,,,,,,,,,,,,,,,,,,,,,,,,,,,,,,,,,,,,,479.6996467419999,None,479.6996467419999,None,479.6996467419999,None,m,1,0.790373579000061,481.24986685199974,None,481.24986685199974,None,481.24986685199974,None,482.1011898069996,None,482.1011898069996,None,482.1011898069996,None,482.1011898069996,None,,,,,,,,,,,,,,,,,,,,,,,,,,,,,,,,,,,,,,,,,,,,001,57,2020_Feb_04_1031,spring_faces,3.1.5,60.031833200261104,
condition files/Stage1_2.xlsx,,T2,B1,c,"['c', 'm']","['Clue', 'Monopoly']","[-0.15, 0.5]","[0.15, 0.5]",1,1,,,,,,,,,0,3,3,3,0,5,5,1,,,,,,,,,,,,,,,,,,,,,,,,,,,,,,,,,,,,,,,,,,,,,,,,,,,,,,,484.06638188199986,None,484.06638188199986,None,484.06638188199986,None,c,1,2.9038580069995987,485.600340942,None,485.600340942,None,485.600340942,None,488.568202853,None,488.568202853,None,488.568202853,None,488.568202853,None,,,,,,,,,,,,,,,,,,,,,,,,,,,,,,,,,,,,,,,,,,,,001,57,2020_Feb_04_1031,spring_faces,3.1.5,60.031833200261104,
condition files/Stage1_2.xlsx,,B1,T1,c,"['c', 'm']","['Clue', 'Monopoly']","[-0.15, 0.5]","[0.15, 0.5]",1,1,,,,,,,,,0,3,3,3,0,6,6,0,,,,,,,,,,,,,,,,,,,,,,,,,,,,,,,,,,,,,,,,,,,,,,,,,,,,,,,490.53312867999966,None,490.53312867999966,None,490.53312867999966,None,m,0,1.5873695650002446,492.06886941899984,None,492.06886941899984,None,492.06886941899984,None,493.7168732,None,493.7168732,None,493.7168732,None,493.7168732,None,,,,,,,,,,,,,,,,,,,,,,,,,,,,,,,,,,,,,,,,,,,,001,57,2020_Feb_04_1031,spring_faces,3.1.5,60.031833200261104,
condition files/Stage1_2.xlsx,,B3,T4,m,"['c', 'm']","['Clue', 'Monopoly']","[-0.15, 0.5]","[0.15, 0.5]",1,1,,,,,,,,,0,3,3,3,0,7,7,6,,,,,,,,,,,,,,,,,,,,,,,,,,,,,,,,,,,,,,,,,,,,,,,,,,,,,,,495.6831396589996,None,495.6831396589996,None,495.6831396589996,None,m,1,1.031500348999998,497.2166858639998,None,497.2166858639998,None,497.2166858639998,None,498.30081769499975,None,498.30081769499975,None,498.30081769499975,None,498.30081769499975,None,,,,,,,,,,,,,,,,,,,,,,,,,,,,,,,,,,,,,,,,,,,,001,57,2020_Feb_04_1031,spring_faces,3.1.5,60.031833200261104,
condition files/Stage1_1.xlsx,,T1,B1,c,"['c', 'm']","['Clue', 'Monopoly']","[-0.15, 0.5]","[0.15, 0.5]",1,1,,,,,,,,,0,4,4,4,0,0,0,0,,,,,,,,,,,,,,,,,,,,,,,,,,,,,,,,,,,,,,,,,,,,,,,,,,,,,,,500.28340082999966,None,500.28340082999966,None,500.28340082999966,None,m,0,1.2788139069998579,501.83337211399976,None,501.83337211399976,None,501.83337211399976,None,503.16821828499997,None,503.16821828499997,None,503.16821828499997,None,503.16821828499997,None,,,,,,,,,,,,,,,,,,,,,,,,,,,,,,,,,,,,,,,,,,,,001,57,2020_Feb_04_1031,spring_faces,3.1.5,60.031833200261104,
condition files/Stage1_1.xlsx,,T4,B3,m,"['c', 'm']","['Clue', 'Monopoly']","[-0.15, 0.5]","[0.15, 0.5]",1,1,,,,,,,,,0,4,4,4,0,1,1,6,,,,,,,,,,,,,,,,,,,,,,,,,,,,,,,,,,,,,,,,,,,,,,,,,,,,,,,505.1330744849997,None,505.1330744849997,None,505.1330744849997,None,m,1,0.8287023530001534,506.66747821299987,None,506.66747821299987,None,506.66747821299987,None,507.55109937299994,None,507.55109937299994,None,507.55109937299994,None,507.55109937299994,None,,,,,,,,,,,,,,,,,,,,,,,,,,,,,,,,,,,,,,,,,,,,001,57,2020_Feb_04_1031,spring_faces,3.1.5,60.031833200261104,
condition files/Stage1_1.xlsx,,B1,T2,c,"['c', 'm']","['Clue', 'Monopoly']","[-0.15, 0.5]","[0.15, 0.5]",1,1,,,,,,,,,0,4,4,4,0,2,2,1,,,,,,,,,,,,,,,,,,,,,,,,,,,,,,,,,,,,,,,,,,,,,,,,,,,,,,,509.51671783799975,None,509.51671783799975,None,509.51671783799975,None,m,0,1.4386120010003651,511.04957559399963,None,511.04957559399963,None,511.04957559399963,None,512.55101758,None,512.55101758,None,512.55101758,None,512.55101758,None,,,,,,,,,,,,,,,,,,,,,,,,,,,,,,,,,,,,,,,,,,,,001,57,2020_Feb_04_1031,spring_faces,3.1.5,60.031833200261104,
condition files/Stage1_1.xlsx,,B2,T1,m,"['c', 'm']","['Clue', 'Monopoly']","[-0.15, 0.5]","[0.15, 0.5]",1,1,,,,,,,,,0,4,4,4,0,3,3,2,,,,,,,,,,,,,,,,,,,,,,,,,,,,,,,,,,,,,,,,,,,,,,,,,,,,,,,514.516427049,None,514.516427049,None,514.516427049,None,c,0,1.093638963000103,516.0666147789998,None,516.0666147789998,None,516.0666147789998,None,517.218106972,None,517.218106972,None,517.218106972,None,517.218106972,None,,,,,,,,,,,,,,,,,,,,,,,,,,,,,,,,,,,,,,,,,,,,001,57,2020_Feb_04_1031,spring_faces,3.1.5,60.031833200261104,
condition files/Stage1_1.xlsx,,T3,B4,c,"['c', 'm']","['Clue', 'Monopoly']","[-0.15, 0.5]","[0.15, 0.5]",1,1,,,,,,,,,0,4,4,4,0,4,4,5,,,,,,,,,,,,,,,,,,,,,,,,,,,,,,,,,,,,,,,,,,,,,,,,,,,,,,,519.1832357859998,None,519.1832357859998,None,519.1832357859998,None,c,1,3.6908218730000044,520.7174338269997,None,520.7174338269997,None,520.7174338269997,None,524.483008488,None,524.483008488,None,524.483008488,None,524.483008488,None,,,,,,,,,,,,,,,,,,,,,,,,,,,,,,,,,,,,,,,,,,,,001,57,2020_Feb_04_1031,spring_faces,3.1.5,60.031833200261104,
condition files/Stage1_1.xlsx,,T2,B2,m,"['c', 'm']","['Clue', 'Monopoly']","[-0.15, 0.5]","[0.15, 0.5]",1,1,,,,,,,,,0,4,4,4,0,5,5,3,,,,,,,,,,,,,,,,,,,,,,,,,,,,,,,,,,,,,,,,,,,,,,,,,,,,,,,526.4323164329999,None,526.4323164329999,None,526.4323164329999,None,c,0,1.9301099029999023,527.9660750419998,None,527.9660750419998,None,527.9660750419998,None,529.9526889979998,None,529.9526889979998,None,529.9526889979998,None,529.9526889979998,None,,,,,,,,,,,,,,,,,,,,,,,,,,,,,,,,,,,,,,,,,,,,001,57,2020_Feb_04_1031,spring_faces,3.1.5,60.031833200261104,
condition files/Stage1_1.xlsx,,B4,T4,m,"['c', 'm']","['Clue', 'Monopoly']","[-0.15, 0.5]","[0.15, 0.5]",1,1,,,,,,,,,0,4,4,4,0,6,6,7,,,,,,,,,,,,,,,,,,,,,,,,,,,,,,,,,,,,,,,,,,,,,,,,,,,,,,,531.9163977079997,None,531.9163977079997,None,531.9163977079997,None,m,1,0.9583217899998999,533.449936171,None,533.449936171,None,533.449936171,None,534.4665412449999,None,534.4665412449999,None,534.4665412449999,None,534.4665412449999,None,,,,,,,,,,,,,,,,,,,,,,,,,,,,,,,,,,,,,,,,,,,,001,57,2020_Feb_04_1031,spring_faces,3.1.5,60.031833200261104,
condition files/Stage1_1.xlsx,,B3,T3,c,"['c', 'm']","['Clue', 'Monopoly']","[-0.15, 0.5]","[0.15, 0.5]",1,1,,,,,,,,,0,4,4,4,0,7,7,4,,,,,,,,,,,,,,,,,,,,,,,,,,,,,,,,,,,,,,,,,,,,,,,,,,,,,,,536.4325914199999,None,536.4325914199999,None,536.4325914199999,None,c,1,0.8885662899997442,537.9836328909996,None,537.9836328909996,None,537.9836328909996,None,538.9498062469997,None,538.9498062469997,None,538.9498062469997,None,538.9498062469997,None,,,,,,,,,,,,,,,,,,,,,,,,,,,,,,,,,,,,,,,,,,,,001,57,2020_Feb_04_1031,spring_faces,3.1.5,60.031833200261104,
condition files/Stage1_2.xlsx,,B2,T2,m,"['c', 'm']","['Clue', 'Monopoly']","[-0.15, 0.5]","[0.15, 0.5]",1,1,,,,,,,,,0,5,5,5,0,0,0,3,,,,,,,,,,,,,,,,,,,,,,,,,,,,,,,,,,,,,,,,,,,,,,,,,,,,,,,540.9158743759999,None,540.9158743759999,None,540.9158743759999,None,m,1,1.2860214690003886,542.450174348,None,542.450174348,None,542.450174348,None,543.8001412639996,None,543.8001412639996,None,543.8001412639996,None,543.8001412639996,None,,,,,,,,,,,,,,,,,,,,,,,,,,,,,,,,,,,,,,,,,,,,001,57,2020_Feb_04_1031,spring_faces,3.1.5,60.031833200261104,
condition files/Stage1_2.xlsx,,T1,B2,m,"['c', 'm']","['Clue', 'Monopoly']","[-0.15, 0.5]","[0.15, 0.5]",1,1,,,,,,,,,0,5,5,5,0,1,1,2,,,,,,,,,,,,,,,,,,,,,,,,,,,,,,,,,,,,,,,,,,,,,,,,,,,,,,,545.7665760329996,None,545.7665760329996,None,545.7665760329996,None,c,0,1.9074185939998642,547.31682224,None,547.31682224,None,547.31682224,None,549.2828168809997,None,549.2828168809997,None,549.2828168809997,None,549.2828168809997,None,,,,,,,,,,,,,,,,,,,,,,,,,,,,,,,,,,,,,,,,,,,,001,57,2020_Feb_04_1031,spring_faces,3.1.5,60.031833200261104,
condition files/Stage1_2.xlsx,,B1,T1,c,"['c', 'm']","['Clue', 'Monopoly']","[-0.15, 0.5]","[0.15, 0.5]",1,1,,,,,,,,,0,5,5,5,0,2,2,0,,,,,,,,,,,,,,,,,,,,,,,,,,,,,,,,,,,,,,,,,,,,,,,,,,,,,,,551.2492319049998,None,551.2492319049998,None,551.2492319049998,None,m,0,0.8553308629998355,552.7849195629997,None,552.7849195629997,None,552.7849195629997,None,553.700432095,None,553.700432095,None,553.700432095,None,553.700432095,None,,,,,,,,,,,,,,,,,,,,,,,,,,,,,,,,,,,,,,,,,,,,001,57,2020_Feb_04_1031,spring_faces,3.1.5,60.031833200261104,
condition files/Stage1_2.xlsx,,T2,B1,c,"['c', 'm']","['Clue', 'Monopoly']","[-0.15, 0.5]","[0.15, 0.5]",1,1,,,,,,,,,0,5,5,5,0,3,3,1,,,,,,,,,,,,,,,,,,,,,,,,,,,,,,,,,,,,,,,,,,,,,,,,,,,,,,,555.666351975,None,555.666351975,None,555.666351975,None,c,1,6.057027428999845,557.1992243319996,None,557.1992243319996,None,557.1992243319996,None,563.3167946569997,None,563.3167946569997,None,563.3167946569997,None,563.3167946569997,None,,,,,,,,,,,,,,,,,,,,,,,,,,,,,,,,,,,,,,,,,,,,001,57,2020_Feb_04_1031,spring_faces,3.1.5,60.031833200261104,
condition files/Stage1_2.xlsx,,T4,B4,m,"['c', 'm']","['Clue', 'Monopoly']","[-0.15, 0.5]","[0.15, 0.5]",1,1,,,,,,,,,0,5,5,5,0,4,4,7,,,,,,,,,,,,,,,,,,,,,,,,,,,,,,,,,,,,,,,,,,,,,,,,,,,,,,,565.2830147499999,None,565.2830147499999,None,565.2830147499999,None,m,1,0.9996107679999113,566.8165823669997,None,566.8165823669997,None,566.8165823669997,None,567.8826809549996,None,567.8826809549996,None,567.8826809549996,None,567.8826809549996,None,,,,,,,,,,,,,,,,,,,,,,,,,,,,,,,,,,,,,,,,,,,,001,57,2020_Feb_04_1031,spring_faces,3.1.5,60.031833200261104,
condition files/Stage1_2.xlsx,,B4,T3,c,"['c', 'm']","['Clue', 'Monopoly']","[-0.15, 0.5]","[0.15, 0.5]",1,1,,,,,,,,,0,5,5,5,0,5,5,5,,,,,,,,,,,,,,,,,,,,,,,,,,,,,,,,,,,,,,,,,,,,,,,,,,,,,,,569.832688773,None,569.832688773,None,569.832688773,None,c,1,1.0088698300000942,571.383359424,None,571.383359424,None,571.383359424,None,572.4507328339996,None,572.4507328339996,None,572.4507328339996,None,572.4507328339996,None,,,,,,,,,,,,,,,,,,,,,,,,,,,,,,,,,,,,,,,,,,,,001,57,2020_Feb_04_1031,spring_faces,3.1.5,60.031833200261104,
condition files/Stage1_2.xlsx,,T3,B3,c,"['c', 'm']","['Clue', 'Monopoly']","[-0.15, 0.5]","[0.15, 0.5]",1,1,,,,,,,,,0,5,5,5,0,6,6,4,,,,,,,,,,,,,,,,,,,,,,,,,,,,,,,,,,,,,,,,,,,,,,,,,,,,,,,574.4164291849997,None,574.4164291849997,None,574.4164291849997,None,c,1,1.640774058000261,575.9514824779999,None,575.9514824779999,None,575.9514824779999,None,577.6499683459997,None,577.6499683459997,None,577.6499683459997,None,577.6499683459997,None,,,,,,,,,,,,,,,,,,,,,,,,,,,,,,,,,,,,,,,,,,,,001,57,2020_Feb_04_1031,spring_faces,3.1.5,60.031833200261104,
condition files/Stage1_2.xlsx,,B3,T4,m,"['c', 'm']","['Clue', 'Monopoly']","[-0.15, 0.5]","[0.15, 0.5]",1,1,,,,,,,,,0,5,5,5,0,7,7,6,,,,,,,,,,,,,,,,,,,,,,,,,,,,,,,,,,,,,,,,,,,,,,,,,,,,,,,579.616386354,None,579.616386354,None,579.616386354,None,m,1,1.274341096000171,581.1499136479997,None,581.1499136479997,None,581.1499136479997,None,582.4859213649997,None,582.4859213649997,None,582.4859213649997,None,582.4859213649997,None,,,,,,,,,,,,,,,,,,,,,,,,,,,,,,,,,,,,,,,,,,,,001,57,2020_Feb_04_1031,spring_faces,3.1.5,60.031833200261104,
condition files/Stage1_1.xlsx,,T1,B1,c,"['c', 'm']","['Clue', 'Monopoly']","[-0.15, 0.5]","[0.15, 0.5]",1,1,,,,,,,,,0,6,6,6,0,0,0,0,,,,,,,,,,,,,,,,,,,,,,,,,,,,,,,,,,,,,,,,,,,,,,,,,,,,,,,584.4666019609999,None,584.4666019609999,None,584.4666019609999,None,m,0,1.673063256000205,585.9991873919998,None,585.9991873919998,None,585.9991873919998,None,587.7343795499996,None,587.7343795499996,None,587.7343795499996,None,587.7343795499996,None,,,,,,,,,,,,,,,,,,,,,,,,,,,,,,,,,,,,,,,,,,,,001,57,2020_Feb_04_1031,spring_faces,3.1.5,60.031833200261104,
condition files/Stage1_1.xlsx,,T2,B2,m,"['c', 'm']","['Clue', 'Monopoly']","[-0.15, 0.5]","[0.15, 0.5]",1,1,,,,,,,,,0,6,6,6,0,1,1,3,,,,,,,,,,,,,,,,,,,,,,,,,,,,,,,,,,,,,,,,,,,,,,,,,,,,,,,589.6996776619999,None,589.6996776619999,None,589.6996776619999,None,c,0,2.8553267750003215,591.2328725549996,None,591.2328725549996,None,591.2328725549996,None,594.1667366359998,None,594.1667366359998,None,594.1667366359998,None,594.1667366359998,None,,,,,,,,,,,,,,,,,,,,,,,,,,,,,,,,,,,,,,,,,,,,001,57,2020_Feb_04_1031,spring_faces,3.1.5,60.031833200261104,
condition files/Stage1_1.xlsx,,B1,T2,c,"['c', 'm']","['Clue', 'Monopoly']","[-0.15, 0.5]","[0.15, 0.5]",1,1,,,,,,,,,0,6,6,6,0,2,2,1,,,,,,,,,,,,,,,,,,,,,,,,,,,,,,,,,,,,,,,,,,,,,,,,,,,,,,,596.1163936049998,None,596.1163936049998,None,596.1163936049998,None,m,0,0.8540457490003064,597.6501531909998,None,597.6501531909998,None,597.6501531909998,None,598.5680362379999,None,598.5680362379999,None,598.5680362379999,None,598.5680362379999,None,,,,,,,,,,,,,,,,,,,,,,,,,,,,,,,,,,,,,,,,,,,,001,57,2020_Feb_04_1031,spring_faces,3.1.5,60.031833200261104,
condition files/Stage1_1.xlsx,,T3,B4,c,"['c', 'm']","['Clue', 'Monopoly']","[-0.15, 0.5]","[0.15, 0.5]",1,1,,,,,,,,,0,6,6,6,0,3,3,5,,,,,,,,,,,,,,,,,,,,,,,,,,,,,,,,,,,,,,,,,,,,,,,,,,,,,,,600.533015817,None,600.533015817,None,600.533015817,None,c,1,0.6615915780002979,602.0665601119999,None,602.0665601119999,None,602.0665601119999,None,602.7835008259999,None,602.7835008259999,None,602.7835008259999,None,602.7835008259999,None,,,,,,,,,,,,,,,,,,,,,,,,,,,,,,,,,,,,,,,,,,,,001,57,2020_Feb_04_1031,spring_faces,3.1.5,60.031833200261104,
condition files/Stage1_1.xlsx,,B2,T1,m,"['c', 'm']","['Clue', 'Monopoly']","[-0.15, 0.5]","[0.15, 0.5]",1,1,,,,,,,,,0,6,6,6,0,4,4,2,,,,,,,,,,,,,,,,,,,,,,,,,,,,,,,,,,,,,,,,,,,,,,,,,,,,,,,604.7496770879998,None,604.7496770879998,None,604.7496770879998,None,c,0,1.724102263000077,606.3001375519998,None,606.3001375519998,None,606.3001375519998,None,608.0996957359998,None,608.0996957359998,None,608.0996957359998,None,608.0996957359998,None,,,,,,,,,,,,,,,,,,,,,,,,,,,,,,,,,,,,,,,,,,,,001,57,2020_Feb_04_1031,spring_faces,3.1.5,60.031833200261104,
condition files/Stage1_1.xlsx,,T4,B3,m,"['c', 'm']","['Clue', 'Monopoly']","[-0.15, 0.5]","[0.15, 0.5]",1,1,,,,,,,,,0,6,6,6,0,5,5,6,,,,,,,,,,,,,,,,,,,,,,,,,,,,,,,,,,,,,,,,,,,,,,,,,,,,,,,610.0496450129999,None,610.0496450129999,None,610.0496450129999,None,m,1,0.7288831900000332,611.5833145699999,None,611.5833145699999,None,611.5833145699999,None,612.3665942839998,None,612.3665942839998,None,612.3665942839998,None,612.3665942839998,None,,,,,,,,,,,,,,,,,,,,,,,,,,,,,,,,,,,,,,,,,,,,001,57,2020_Feb_04_1031,spring_faces,3.1.5,60.031833200261104,
condition files/Stage1_1.xlsx,,B4,T4,m,"['c', 'm']","['Clue', 'Monopoly']","[-0.15, 0.5]","[0.15, 0.5]",1,1,,,,,,,,,0,6,6,6,0,6,6,7,,,,,,,,,,,,,,,,,,,,,,,,,,,,,,,,,,,,,,,,,,,,,,,,,,,,,,,614.3327859779997,None,614.3327859779997,None,614.3327859779997,None,m,1,0.955909912000152,615.8683309319999,None,615.8683309319999,None,615.8683309319999,None,616.8833575029998,None,616.8833575029998,None,616.8833575029998,None,616.8833575029998,None,,,,,,,,,,,,,,,,,,,,,,,,,,,,,,,,,,,,,,,,,,,,001,57,2020_Feb_04_1031,spring_faces,3.1.5,60.031833200261104,
condition files/Stage1_1.xlsx,,B3,T3,c,"['c', 'm']","['Clue', 'Monopoly']","[-0.15, 0.5]","[0.15, 0.5]",1,1,,,,,,,,,0,6,6,6,0,7,7,4,,,,,,,,,,,,,,,,,,,,,,,,,,,,,,,,,,,,,,,,,,,,,,,,,,,,,,,618.8497270169996,None,618.8497270169996,None,618.8497270169996,None,c,1,0.9511206450001737,620.3850737499997,None,620.3850737499997,None,620.3850737499997,None,621.4017560959996,None,621.4017560959996,None,621.4017560959996,None,621.4017560959996,None,,,,,,,,,,,,,,,,,,,,,,,,,,,,,,,,,,,,,,,,,,,,001,57,2020_Feb_04_1031,spring_faces,3.1.5,60.031833200261104,
condition files/Stage1_2.xlsx,,T3,B3,c,"['c', 'm']","['Clue', 'Monopoly']","[-0.15, 0.5]","[0.15, 0.5]",1,1,,,,,,,,,0,7,7,7,0,0,0,4,,,,,,,,,,,,,,,,,,,,,,,,,,,,,,,,,,,,,,,,,,,,,,,,,,,,,,,623.3829532559998,None,623.3829532559998,None,623.3829532559998,None,c,1,0.8183686410002338,624.9178362759999,None,624.9178362759999,None,624.9178362759999,None,625.7995573169997,None,625.7995573169997,None,625.7995573169997,None,625.7995573169997,None,,,,,,,,,,,,,,,,,,,,,,,,,,,,,,,,,,,,,,,,,,,,001,57,2020_Feb_04_1031,spring_faces,3.1.5,60.031833200261104,
condition files/Stage1_2.xlsx,,B3,T4,m,"['c', 'm']","['Clue', 'Monopoly']","[-0.15, 0.5]","[0.15, 0.5]",1,1,,,,,,,,,0,7,7,7,0,1,1,6,,,,,,,,,,,,,,,,,,,,,,,,,,,,,,,,,,,,,,,,,,,,,,,,,,,,,,,627.766275385,None,627.766275385,None,627.766275385,None,m,1,1.2338207279999551,629.302315677,None,629.302315677,None,629.302315677,None,630.6002845059998,None,630.6002845059998,None,630.6002845059998,None,630.6002845059998,None,,,,,,,,,,,,,,,,,,,,,,,,,,,,,,,,,,,,,,,,,,,,001,57,2020_Feb_04_1031,spring_faces,3.1.5,60.031833200261104,
condition files/Stage1_2.xlsx,,T4,B4,m,"['c', 'm']","['Clue', 'Monopoly']","[-0.15, 0.5]","[0.15, 0.5]",1,1,,,,,,,,,0,7,7,7,0,2,2,7,,,,,,,,,,,,,,,,,,,,,,,,,,,,,,,,,,,,,,,,,,,,,,,,,,,,,,,632.5666167309996,None,632.5666167309996,None,632.5666167309996,None,m,1,0.8825293120003153,634.101635425,None,634.101635425,None,634.101635425,None,635.0492662889997,None,635.0492662889997,None,635.0492662889997,None,635.0492662889997,None,,,,,,,,,,,,,,,,,,,,,,,,,,,,,,,,,,,,,,,,,,,,001,57,2020_Feb_04_1031,spring_faces,3.1.5,60.031833200261104,
condition files/Stage1_2.xlsx,,B4,T3,c,"['c', 'm']","['Clue', 'Monopoly']","[-0.15, 0.5]","[0.15, 0.5]",1,1,,,,,,,,,0,7,7,7,0,3,3,5,,,,,,,,,,,,,,,,,,,,,,,,,,,,,,,,,,,,,,,,,,,,,,,,,,,,,,,637.0163074559996,None,637.0163074559996,None,637.0163074559996,None,c,1,1.040287932999945,638.5519730349997,None,638.5519730349997,None,638.5519730349997,None,639.6667325599997,None,639.6667325599997,None,639.6667325599997,None,639.6667325599997,None,,,,,,,,,,,,,,,,,,,,,,,,,,,,,,,,,,,,,,,,,,,,001,57,2020_Feb_04_1031,spring_faces,3.1.5,60.031833200261104,
condition files/Stage1_2.xlsx,,T2,B1,c,"['c', 'm']","['Clue', 'Monopoly']","[-0.15, 0.5]","[0.15, 0.5]",1,1,,,,,,,,,0,7,7,7,0,4,4,1,,,,,,,,,,,,,,,,,,,,,,,,,,,,,,,,,,,,,,,,,,,,,,,,,,,,,,,641.616347232,None,641.616347232,None,641.616347232,None,m,0,1.7388954799998828,643.1492932439996,None,643.1492932439996,None,643.1492932439996,None,644.9498375949997,None,644.9498375949997,None,644.9498375949997,None,644.9498375949997,None,,,,,,,,,,,,,,,,,,,,,,,,,,,,,,,,,,,,,,,,,,,,001,57,2020_Feb_04_1031,spring_faces,3.1.5,60.031833200261104,
condition files/Stage1_2.xlsx,,B2,T2,m,"['c', 'm']","['Clue', 'Monopoly']","[-0.15, 0.5]","[0.15, 0.5]",1,1,,,,,,,,,0,7,7,7,0,5,5,3,,,,,,,,,,,,,,,,,,,,,,,,,,,,,,,,,,,,,,,,,,,,,,,,,,,,,,,646.9162936159996,None,646.9162936159996,None,646.9162936159996,None,m,1,3.5093840089998594,648.4508860879996,None,648.4508860879996,None,648.4508860879996,None,652.0176510639999,None,652.0176510639999,None,652.0176510639999,None,652.0176510639999,None,,,,,,,,,,,,,,,,,,,,,,,,,,,,,,,,,,,,,,,,,,,,001,57,2020_Feb_04_1031,spring_faces,3.1.5,60.031833200261104,
condition files/Stage1_2.xlsx,,B1,T1,c,"['c', 'm']","['Clue', 'Monopoly']","[-0.15, 0.5]","[0.15, 0.5]",1,1,,,,,,,,,0,7,7,7,0,6,6,0,,,,,,,,,,,,,,,,,,,,,,,,,,,,,,,,,,,,,,,,,,,,,,,,,,,,,,,653.9830571749999,None,653.9830571749999,None,653.9830571749999,None,c,1,1.659876807999808,655.516335072,None,655.516335072,None,655.516335072,None,657.23590027,None,657.23590027,None,657.23590027,None,657.23590027,None,,,,,,,,,,,,,,,,,,,,,,,,,,,,,,,,,,,,,,,,,,,,001,57,2020_Feb_04_1031,spring_faces,3.1.5,60.031833200261104,
condition files/Stage1_2.xlsx,,T1,B2,m,"['c', 'm']","['Clue', 'Monopoly']","[-0.15, 0.5]","[0.15, 0.5]",1,1,,,,,,,,,0,7,7,7,0,7,7,2,,,,,,,,,,,,,,,,,,,,,,,,,,,,,,,,,,,,,,,,,,,,,,,,,,,,,,,659.199246614,None,659.199246614,None,659.199246614,None,m,1,0.9390533609998784,660.7331502429997,None,660.7331502429997,None,660.7331502429997,None,661.7348933809999,None,661.7348933809999,None,661.7348933809999,None,661.7348933809999,None,,,,,,,,,,,,,,,,,,,,,,,,,,,,,,,,,,,,,,,,,,,,001,57,2020_Feb_04_1031,spring_faces,3.1.5,60.031833200261104,
condition files/Stage1_1.xlsx,,T1,B1,c,"['c', 'm']","['Clue', 'Monopoly']","[-0.15, 0.5]","[0.15, 0.5]",1,1,,,,,,,,,0,8,8,8,0,0,0,0,,,,,,,,,,,,,,,,,,,,,,,,,,,,,,,,,,,,,,,,,,,,,,,,,,,,,,,663.715975436,None,663.715975436,None,663.715975436,None,m,0,0.9174312810000629,665.2507680499998,None,665.2507680499998,None,665.2507680499998,None,666.2491738519998,None,666.2491738519998,None,666.2491738519998,None,666.2491738519998,None,,,,,,,,,,,,,,,,,,,,,,,,,,,,,,,,,,,,,,,,,,,,001,57,2020_Feb_04_1031,spring_faces,3.1.5,60.031833200261104,
condition files/Stage1_1.xlsx,,B1,T2,c,"['c', 'm']","['Clue', 'Monopoly']","[-0.15, 0.5]","[0.15, 0.5]",1,1,,,,,,,,,0,8,8,8,0,1,1,1,,,,,,,,,,,,,,,,,,,,,,,,,,,,,,,,,,,,,,,,,,,,,,,,,,,,,,,668.1995938059999,None,668.1995938059999,None,668.1995938059999,None,c,1,1.8588989999998375,669.7493463779997,None,669.7493463779997,None,669.7493463779997,None,671.6664270849997,None,671.6664270849997,None,671.6664270849997,None,671.6664270849997,None,,,,,,,,,,,,,,,,,,,,,,,,,,,,,,,,,,,,,,,,,,,,001,57,2020_Feb_04_1031,spring_faces,3.1.5,60.031833200261104,
condition files/Stage1_1.xlsx,,T3,B4,c,"['c', 'm']","['Clue', 'Monopoly']","[-0.15, 0.5]","[0.15, 0.5]",1,1,,,,,,,,,0,8,8,8,0,2,2,5,,,,,,,,,,,,,,,,,,,,,,,,,,,,,,,,,,,,,,,,,,,,,,,,,,,,,,,673.6327186529998,None,673.6327186529998,None,673.6327186529998,None,c,1,2.42436233799981,675.1679025429999,None,675.1679025429999,None,675.1679025429999,None,677.6494285999997,None,677.6494285999997,None,677.6494285999997,None,677.6494285999997,None,,,,,,,,,,,,,,,,,,,,,,,,,,,,,,,,,,,,,,,,,,,,001,57,2020_Feb_04_1031,spring_faces,3.1.5,60.031833200261104,
condition files/Stage1_1.xlsx,,B4,T4,m,"['c', 'm']","['Clue', 'Monopoly']","[-0.15, 0.5]","[0.15, 0.5]",1,1,,,,,,,,,0,8,8,8,0,3,3,7,,,,,,,,,,,,,,,,,,,,,,,,,,,,,,,,,,,,,,,,,,,,,,,,,,,,,,,679.616622349,None,679.616622349,None,679.616622349,None,m,1,0.9063570919997801,681.1498874529998,None,681.1498874529998,None,681.1498874529998,None,682.1326365679997,None,682.1326365679997,None,682.1326365679997,None,682.1326365679997,None,,,,,,,,,,,,,,,,,,,,,,,,,,,,,,,,,,,,,,,,,,,,001,57,2020_Feb_04_1031,spring_faces,3.1.5,60.031833200261104,
condition files/Stage1_1.xlsx,,B3,T3,c,"['c', 'm']","['Clue', 'Monopoly']","[-0.15, 0.5]","[0.15, 0.5]",1,1,,,,,,,,,0,8,8,8,0,4,4,4,,,,,,,,,,,,,,,,,,,,,,,,,,,,,,,,,,,,,,,,,,,,,,,,,,,,,,,684.0826474109999,None,684.0826474109999,None,684.0826474109999,None,c,1,0.8073163270000805,685.616929714,None,685.616929714,None,685.616929714,None,686.4859272499998,None,686.4859272499998,None,686.4859272499998,None,686.4859272499998,None,,,,,,,,,,,,,,,,,,,,,,,,,,,,,,,,,,,,,,,,,,,,001,57,2020_Feb_04_1031,spring_faces,3.1.5,60.031833200261104,
condition files/Stage1_1.xlsx,,T4,B3,m,"['c', 'm']","['Clue', 'Monopoly']","[-0.15, 0.5]","[0.15, 0.5]",1,1,,,,,,,,,0,8,8,8,0,5,5,6,,,,,,,,,,,,,,,,,,,,,,,,,,,,,,,,,,,,,,,,,,,,,,,,,,,,,,,688.4496740189998,None,688.4496740189998,None,688.4496740189998,None,m,1,0.7587298779999401,689.9854457799997,None,689.9854457799997,None,689.9854457799997,None,690.8168884009997,None,690.8168884009997,None,690.8168884009997,None,690.8168884009997,None,,,,,,,,,,,,,,,,,,,,,,,,,,,,,,,,,,,,,,,,,,,,001,57,2020_Feb_04_1031,spring_faces,3.1.5,60.031833200261104,
condition files/Stage1_1.xlsx,,T2,B2,m,"['c', 'm']","['Clue', 'Monopoly']","[-0.15, 0.5]","[0.15, 0.5]",1,1,,,,,,,,,0,8,8,8,0,6,6,3,,,,,,,,,,,,,,,,,,,,,,,,,,,,,,,,,,,,,,,,,,,,,,,,,,,,,,,692.7663765009997,None,692.7663765009997,None,692.7663765009997,None,m,1,2.65248527499989,694.2997151669997,None,694.2997151669997,None,694.2997151669997,None,697.0168109609999,None,697.0168109609999,None,697.0168109609999,None,697.0168109609999,None,,,,,,,,,,,,,,,,,,,,,,,,,,,,,,,,,,,,,,,,,,,,001,57,2020_Feb_04_1031,spring_faces,3.1.5,60.031833200261104,
condition files/Stage1_1.xlsx,,B2,T1,m,"['c', 'm']","['Clue', 'Monopoly']","[-0.15, 0.5]","[0.15, 0.5]",1,1,,,,,,,,,0,8,8,8,0,7,7,2,,,,,,,,,,,,,,,,,,,,,,,,,,,,,,,,,,,,,,,,,,,,,,,,,,,,,,,698.9832772299997,None,698.9832772299997,None,698.9832772299997,None,c,0,2.51376875699998,700.5184233549999,None,700.5184233549999,None,700.5184233549999,None,703.0826917589998,None,703.0826917589998,None,703.0826917589998,None,703.0826917589998,None,,,,,,,,,,,,,,,,,,,,,,,,,,,,,,,,,,,,,,,,,,,,001,57,2020_Feb_04_1031,spring_faces,3.1.5,60.031833200261104,
condition files/Stage1_2.xlsx,,B1,T1,c,"['c', 'm']","['Clue', 'Monopoly']","[-0.15, 0.5]","[0.15, 0.5]",1,1,,,,,,,,,0,9,9,9,0,0,0,0,,,,,,,,,,,,,,,,,,,,,,,,,,,,,,,,,,,,,,,,,,,,,,,,,,,,,,,705.0665709119999,None,705.0665709119999,None,705.0665709119999,None,m,0,0.9904240969999591,706.6018443119997,None,706.6018443119997,None,706.6018443119997,None,707.6517331729997,None,707.6517331729997,None,707.6517331729997,None,707.6517331729997,None,,,,,,,,,,,,,,,,,,,,,,,,,,,,,,,,,,,,,,,,,,,,001,57,2020_Feb_04_1031,spring_faces,3.1.5,60.031833200261104,
condition files/Stage1_2.xlsx,,T4,B4,m,"['c', 'm']","['Clue', 'Monopoly']","[-0.15, 0.5]","[0.15, 0.5]",1,1,,,,,,,,,0,9,9,9,0,1,1,7,,,,,,,,,,,,,,,,,,,,,,,,,,,,,,,,,,,,,,,,,,,,,,,,,,,,,,,709.6163088929998,None,709.6163088929998,None,709.6163088929998,None,m,1,0.8879804339999282,711.1522759679997,None,711.1522759679997,None,711.1522759679997,None,712.115782634,None,712.115782634,None,712.115782634,None,712.115782634,None,,,,,,,,,,,,,,,,,,,,,,,,,,,,,,,,,,,,,,,,,,,,001,57,2020_Feb_04_1031,spring_faces,3.1.5,60.031833200261104,
condition files/Stage1_2.xlsx,,B4,T3,c,"['c', 'm']","['Clue', 'Monopoly']","[-0.15, 0.5]","[0.15, 0.5]",1,1,,,,,,,,,0,9,9,9,0,2,2,5,,,,,,,,,,,,,,,,,,,,,,,,,,,,,,,,,,,,,,,,,,,,,,,,,,,,,,,714.0666315179997,None,714.0666315179997,None,714.0666315179997,None,c,1,0.7595796470000096,715.6166012449999,None,715.6166012449999,None,715.6166012449999,None,716.449178376,None,716.449178376,None,716.449178376,None,716.449178376,None,,,,,,,,,,,,,,,,,,,,,,,,,,,,,,,,,,,,,,,,,,,,001,57,2020_Feb_04_1031,spring_faces,3.1.5,60.031833200261104,
condition files/Stage1_2.xlsx,,T3,B3,c,"['c', 'm']","['Clue', 'Monopoly']","[-0.15, 0.5]","[0.15, 0.5]",1,1,,,,,,,,,0,9,9,9,0,3,3,4,,,,,,,,,,,,,,,,,,,,,,,,,,,,,,,,,,,,,,,,,,,,,,,,,,,,,,,718.3999166929998,None,718.3999166929998,None,718.3999166929998,None,c,1,1.1628209890000107,719.9333792399998,None,719.9333792399998,None,719.9333792399998,None,721.1496392579998,None,721.1496392579998,None,721.1496392579998,None,721.1496392579998,None,,,,,,,,,,,,,,,,,,,,,,,,,,,,,,,,,,,,,,,,,,,,001,57,2020_Feb_04_1031,spring_faces,3.1.5,60.031833200261104,
condition files/Stage1_2.xlsx,,B2,T2,m,"['c', 'm']","['Clue', 'Monopoly']","[-0.15, 0.5]","[0.15, 0.5]",1,1,,,,,,,,,0,9,9,9,0,4,4,3,,,,,,,,,,,,,,,,,,,,,,,,,,,,,,,,,,,,,,,,,,,,,,,,,,,,,,,723.1166295529997,None,723.1166295529997,None,723.1166295529997,None,m,1,4.1256057489999876,724.6666282159999,None,724.6666282159999,None,724.6666282159999,None,728.8512096269997,None,728.8512096269997,None,728.8512096269997,None,728.8512096269997,None,,,,,,,,,,,,,,,,,,,,,,,,,,,,,,,,,,,,,,,,,,,,001,57,2020_Feb_04_1031,spring_faces,3.1.5,60.031833200261104,
condition files/Stage1_2.xlsx,,T1,B2,m,"['c', 'm']","['Clue', 'Monopoly']","[-0.15, 0.5]","[0.15, 0.5]",1,1,,,,,,,,,0,9,9,9,0,5,5,2,,,,,,,,,,,,,,,,,,,,,,,,,,,,,,,,,,,,,,,,,,,,,,,,,,,,,,,730.816369489,None,730.816369489,None,730.816369489,None,c,0,2.8424326979998114,732.3498268819999,None,732.3498268819999,None,732.3498268819999,None,735.249983876,None,735.249983876,None,735.249983876,None,735.249983876,None,,,,,,,,,,,,,,,,,,,,,,,,,,,,,,,,,,,,,,,,,,,,001,57,2020_Feb_04_1031,spring_faces,3.1.5,60.031833200261104,
condition files/Stage1_2.xlsx,,B3,T4,m,"['c', 'm']","['Clue', 'Monopoly']","[-0.15, 0.5]","[0.15, 0.5]",1,1,,,,,,,,,0,9,9,9,0,6,6,6,,,,,,,,,,,,,,,,,,,,,,,,,,,,,,,,,,,,,,,,,,,,,,,,,,,,,,,737.2166328659996,None,737.2166328659996,None,737.2166328659996,None,m,1,1.481976842000222,738.7502150079999,None,738.7502150079999,None,738.7502150079999,None,740.2830016189996,None,740.2830016189996,None,740.2830016189996,None,740.2830016189996,None,,,,,,,,,,,,,,,,,,,,,,,,,,,,,,,,,,,,,,,,,,,,001,57,2020_Feb_04_1031,spring_faces,3.1.5,60.031833200261104,
condition files/Stage1_2.xlsx,,T2,B1,c,"['c', 'm']","['Clue', 'Monopoly']","[-0.15, 0.5]","[0.15, 0.5]",1,1,,,,,,,,,0,9,9,9,0,7,7,1,,,,,,,,,,,,,,,,,,,,,,,,,,,,,,,,,,,,,,,,,,,,,,,,,,,,,,,742.2497203619996,None,742.2497203619996,None,742.2497203619996,None,c,1,2.497350594999716,743.7827706919998,None,743.7827706919998,None,743.7827706919998,None,746.3340805759999,None,746.3340805759999,None,746.3340805759999,None,746.3340805759999,None,,,,,,,,,,,,,,,,,,,,,,,,,,,,,,,,,,,,,,,,,,,,001,57,2020_Feb_04_1031,spring_faces,3.1.5,60.031833200261104,
condition files/Stage1_1.xlsx,,T3,B4,c,"['c', 'm']","['Clue', 'Monopoly']","[-0.15, 0.5]","[0.15, 0.5]",1,1,,,,,,,,,0,10,10,10,0,0,0,5,,,,,,,,,,,,,,,,,,,,,,,,,,,,,,,,,,,,,,,,,,,,,,,,,,,,,,,748.3162148259999,None,748.3162148259999,None,748.3162148259999,None,c,1,1.3257804469999428,749.866471761,None,749.866471761,None,749.866471761,None,751.2495491199998,None,751.2495491199998,None,751.2495491199998,None,751.2495491199998,None,,,,,,,,,,,,,,,,,,,,,,,,,,,,,,,,,,,,,,,,,,,,001,57,2020_Feb_04_1031,spring_faces,3.1.5,60.031833200261104,
condition files/Stage1_1.xlsx,,T4,B3,m,"['c', 'm']","['Clue', 'Monopoly']","[-0.15, 0.5]","[0.15, 0.5]",1,1,,,,,,,,,0,10,10,10,0,1,1,6,,,,,,,,,,,,,,,,,,,,,,,,,,,,,,,,,,,,,,,,,,,,,,,,,,,,,,,753.2161525309998,None,753.2161525309998,None,753.2161525309998,None,m,1,1.4661385210001754,754.7500552179999,None,754.7500552179999,None,754.7500552179999,None,756.2826477679996,None,756.2826477679996,None,756.2826477679996,None,756.2826477679996,None,,,,,,,,,,,,,,,,,,,,,,,,,,,,,,,,,,,,,,,,,,,,001,57,2020_Feb_04_1031,spring_faces,3.1.5,60.031833200261104,
condition files/Stage1_1.xlsx,,B2,T1,m,"['c', 'm']","['Clue', 'Monopoly']","[-0.15, 0.5]","[0.15, 0.5]",1,1,,,,,,,,,0,10,10,10,0,2,2,2,,,,,,,,,,,,,,,,,,,,,,,,,,,,,,,,,,,,,,,,,,,,,,,,,,,,,,,758.2329347089999,None,758.2329347089999,None,758.2329347089999,None,m,1,3.6969657499998902,759.7672252999996,None,759.7672252999996,None,759.7672252999996,None,763.5158159279999,None,763.5158159279999,None,763.5158159279999,None,763.5158159279999,None,,,,,,,,,,,,,,,,,,,,,,,,,,,,,,,,,,,,,,,,,,,,001,57,2020_Feb_04_1031,spring_faces,3.1.5,60.031833200261104,
condition files/Stage1_1.xlsx,,B1,T2,c,"['c', 'm']","['Clue', 'Monopoly']","[-0.15, 0.5]","[0.15, 0.5]",1,1,,,,,,,,,0,10,10,10,0,3,3,1,,,,,,,,,,,,,,,,,,,,,,,,,,,,,,,,,,,,,,,,,,,,,,,,,,,,,,,765.482791983,None,765.482791983,None,765.482791983,None,m,0,2.1599887140000646,767.016181859,None,767.016181859,None,767.016181859,None,769.235821369,None,769.235821369,None,769.235821369,None,769.235821369,None,,,,,,,,,,,,,,,,,,,,,,,,,,,,,,,,,,,,,,,,,,,,001,57,2020_Feb_04_1031,spring_faces,3.1.5,60.031833200261104,
condition files/Stage1_1.xlsx,,B4,T4,m,"['c', 'm']","['Clue', 'Monopoly']","[-0.15, 0.5]","[0.15, 0.5]",1,1,,,,,,,,,0,10,10,10,0,4,4,7,,,,,,,,,,,,,,,,,,,,,,,,,,,,,,,,,,,,,,,,,,,,,,,,,,,,,,,771.1991124629999,None,771.1991124629999,None,771.1991124629999,None,m,1,1.3699969810004404,772.750188516,None,772.750188516,None,772.750188516,None,774.2000622289997,None,774.2000622289997,None,774.2000622289997,None,774.2000622289997,None,,,,,,,,,,,,,,,,,,,,,,,,,,,,,,,,,,,,,,,,,,,,001,57,2020_Feb_04_1031,spring_faces,3.1.5,60.031833200261104,
condition files/Stage1_1.xlsx,,T1,B1,c,"['c', 'm']","['Clue', 'Monopoly']","[-0.15, 0.5]","[0.15, 0.5]",1,1,,,,,,,,,0,10,10,10,0,5,5,0,,,,,,,,,,,,,,,,,,,,,,,,,,,,,,,,,,,,,,,,,,,,,,,,,,,,,,,776.1500536979997,None,776.1500536979997,None,776.1500536979997,None,m,0,4.469415162000132,777.682777862,None,777.682777862,None,777.682777862,None,782.217797279,None,782.217797279,None,782.217797279,None,782.217797279,None,,,,,,,,,,,,,,,,,,,,,,,,,,,,,,,,,,,,,,,,,,,,001,57,2020_Feb_04_1031,spring_faces,3.1.5,60.031833200261104,
condition files/Stage1_1.xlsx,,T2,B2,m,"['c', 'm']","['Clue', 'Monopoly']","[-0.15, 0.5]","[0.15, 0.5]",1,1,,,,,,,,,0,10,10,10,0,6,6,3,,,,,,,,,,,,,,,,,,,,,,,,,,,,,,,,,,,,,,,,,,,,,,,,,,,,,,,784.182457203,None,784.182457203,None,784.182457203,None,c,0,1.6040028490001532,785.716200583,None,785.716200583,None,785.716200583,None,787.3854414039997,None,787.3854414039997,None,787.3854414039997,None,787.3854414039997,None,,,,,,,,,,,,,,,,,,,,,,,,,,,,,,,,,,,,,,,,,,,,001,57,2020_Feb_04_1031,spring_faces,3.1.5,60.031833200261104,
condition files/Stage1_1.xlsx,,B3,T3,c,"['c', 'm']","['Clue', 'Monopoly']","[-0.15, 0.5]","[0.15, 0.5]",1,1,,,,,,,,,0,10,10,10,0,7,7,4,,,,,,,,,,,,,,,,,,,,,,,,,,,,,,,,,,,,,,,,,,,,,,,,,,,,,,,789.3497235899999,None,789.3497235899999,None,789.3497235899999,None,c,1,0.8832058350003535,790.8849863609998,None,790.8849863609998,None,790.8849863609998,None,791.8497345299998,None,791.8497345299998,None,791.8497345299998,None,791.8497345299998,None,,,,,,,,,,,,,,,,,,,,,,,,,,,,,,,,,,,,,,,,,,,,001,57,2020_Feb_04_1031,spring_faces,3.1.5,60.031833200261104,
condition files/Stage1_2.xlsx,,T3,B3,c,"['c', 'm']","['Clue', 'Monopoly']","[-0.15, 0.5]","[0.15, 0.5]",1,1,,,,,,,,,0,11,11,11,0,0,0,4,,,,,,,,,,,,,,,,,,,,,,,,,,,,,,,,,,,,,,,,,,,,,,,,,,,,,,,793.8165493359998,None,793.8165493359998,None,793.8165493359998,None,c,1,0.75386361999972,795.350347568,None,795.350347568,None,795.350347568,None,796.1668044129997,None,796.1668044129997,None,796.1668044129997,None,796.1668044129997,None,,,,,,,,,,,,,,,,,,,,,,,,,,,,,,,,,,,,,,,,,,,,001,57,2020_Feb_04_1031,spring_faces,3.1.5,60.031833200261104,
condition files/Stage1_2.xlsx,,T1,B2,m,"['c', 'm']","['Clue', 'Monopoly']","[-0.15, 0.5]","[0.15, 0.5]",1,1,,,,,,,,,0,11,11,11,0,1,1,2,,,,,,,,,,,,,,,,,,,,,,,,,,,,,,,,,,,,,,,,,,,,,,,,,,,,,,,798.1334979519997,None,798.1334979519997,None,798.1334979519997,None,m,1,1.5889435300000514,799.6832466559999,None,799.6832466559999,None,799.6832466559999,None,801.350265734,None,801.350265734,None,801.350265734,None,801.350265734,None,,,,,,,,,,,,,,,,,,,,,,,,,,,,,,,,,,,,,,,,,,,,001,57,2020_Feb_04_1031,spring_faces,3.1.5,60.031833200261104,
condition files/Stage1_2.xlsx,,B2,T2,m,"['c', 'm']","['Clue', 'Monopoly']","[-0.15, 0.5]","[0.15, 0.5]",1,1,,,,,,,,,0,11,11,11,0,2,2,3,,,,,,,,,,,,,,,,,,,,,,,,,,,,,,,,,,,,,,,,,,,,,,,,,,,,,,,803.2998568049998,None,803.2998568049998,None,803.2998568049998,None,m,1,2.422954660999949,804.8492313729998,None,804.8492313729998,None,804.8492313729998,None,807.3332019109998,None,807.3332019109998,None,807.3332019109998,None,807.3332019109998,None,,,,,,,,,,,,,,,,,,,,,,,,,,,,,,,,,,,,,,,,,,,,001,57,2020_Feb_04_1031,spring_faces,3.1.5,60.031833200261104,
condition files/Stage1_2.xlsx,,B1,T1,c,"['c', 'm']","['Clue', 'Monopoly']","[-0.15, 0.5]","[0.15, 0.5]",1,1,,,,,,,,,0,11,11,11,0,3,3,0,,,,,,,,,,,,,,,,,,,,,,,,,,,,,,,,,,,,,,,,,,,,,,,,,,,,,,,809.299718455,None,809.299718455,None,809.299718455,None,c,1,3.4948039969999627,810.8333476309999,None,810.8333476309999,None,810.8333476309999,None,814.3857999249999,None,814.3857999249999,None,814.3857999249999,None,814.3857999249999,None,,,,,,,,,,,,,,,,,,,,,,,,,,,,,,,,,,,,,,,,,,,,001,57,2020_Feb_04_1031,spring_faces,3.1.5,60.031833200261104,
condition files/Stage1_2.xlsx,,B3,T4,m,"['c', 'm']","['Clue', 'Monopoly']","[-0.15, 0.5]","[0.15, 0.5]",1,1,,,,,,,,,0,11,11,11,0,4,4,6,,,,,,,,,,,,,,,,,,,,,,,,,,,,,,,,,,,,,,,,,,,,,,,,,,,,,,,816.3490613189997,None,816.3490613189997,None,816.3490613189997,None,m,1,0.7628979809996963,817.8853022219996,None,817.8853022219996,None,817.8853022219996,None,818.7165691389996,None,818.7165691389996,None,818.7165691389996,None,818.7165691389996,None,,,,,,,,,,,,,,,,,,,,,,,,,,,,,,,,,,,,,,,,,,,,001,57,2020_Feb_04_1031,spring_faces,3.1.5,60.031833200261104,
condition files/Stage1_2.xlsx,,T4,B4,m,"['c', 'm']","['Clue', 'Monopoly']","[-0.15, 0.5]","[0.15, 0.5]",1,1,,,,,,,,,0,11,11,11,0,5,5,7,,,,,,,,,,,,,,,,,,,,,,,,,,,,,,,,,,,,,,,,,,,,,,,,,,,,,,,820.6660563089999,None,820.6660563089999,None,820.6660563089999,None,m,1,0.8156986829999369,822.2164935869996,None,822.2164935869996,None,822.2164935869996,None,823.0831772679999,None,823.0831772679999,None,823.0831772679999,None,823.0831772679999,None,,,,,,,,,,,,,,,,,,,,,,,,,,,,,,,,,,,,,,,,,,,,001,57,2020_Feb_04_1031,spring_faces,3.1.5,60.031833200261104,
condition files/Stage1_2.xlsx,,B4,T3,c,"['c', 'm']","['Clue', 'Monopoly']","[-0.15, 0.5]","[0.15, 0.5]",1,1,,,,,,,,,0,11,11,11,0,6,6,5,,,,,,,,,,,,,,,,,,,,,,,,,,,,,,,,,,,,,,,,,,,,,,,,,,,,,,,825.0500160359998,None,825.0500160359998,None,825.0500160359998,None,c,1,1.056197925000106,826.583970055,None,826.583970055,None,826.583970055,None,827.716149722,None,827.716149722,None,827.716149722,None,827.716149722,None,,,,,,,,,,,,,,,,,,,,,,,,,,,,,,,,,,,,,,,,,,,,001,57,2020_Feb_04_1031,spring_faces,3.1.5,60.031833200261104,
condition files/Stage1_2.xlsx,,T2,B1,c,"['c', 'm']","['Clue', 'Monopoly']","[-0.15, 0.5]","[0.15, 0.5]",1,1,,,,,,,,,0,11,11,11,0,7,7,1,,,,,,,,,,,,,,,,,,,,,,,,,,,,,,,,,,,,,,,,,,,,,,,,,,,,,,,829.6663271559996,None,829.6663271559996,None,829.6663271559996,None,m,0,3.4471367859996462,831.217046318,None,831.217046318,None,831.217046318,None,834.7163776979996,None,834.7163776979996,None,834.7163776979996,None,834.7163776979996,None,,,,,,,,,,,,,,,,,,,,,,,,,,,,,,,,,,,,,,,,,,,,001,57,2020_Feb_04_1031,spring_faces,3.1.5,60.031833200261104,
,,,,,,,,,,,,,,,,,,,,,,,,,,,,,,,,,,,,,,,,,,,,,,,,,,,,,,,,,,,,,,,,,,,,,,,,,,,,,,,,,,,,,,,,,,,,,,,,,,,,,,,,,,,,,,,,836.699271942,None,space,7.9085857459999716,841.6996891199997,None,,,,,,,,,,,,,,,,,,,,,,,,,,,,,,001,57,2020_Feb_04_1031,spring_faces,3.1.5,60.031833200261104,
condition files/Stage2_1.xlsx,,B4,T4,r,"['s', 'r']","['Stratego', 'Risk']","[-0.15, 0.5]","[0.15, 0.5]",1,1,,,,,,,,,,,,,,,,,0,0,0,0,0,0,0,5,,,,,,,,,,,,,,,,,,,,,,,,,,,,,,,,,,,,,,,,,,,,,,,849.6662593819997,None,849.6662593819997,None,849.6662593819997,None,s,0,1.5128153349996865,851.1673891299997,None,851.1673891299997,None,851.1673891299997,None,852.7343495979999,None,852.7343495979999,None,852.7343495979999,None,852.7343495979999,None,,,,,,,,,,,,,,,841.6996891199997,None,,,,,,,,,,,,,,,,,,,,,,,,,,,,001,57,2020_Feb_04_1031,spring_faces,3.1.5,60.031833200261104,
condition files/Stage2_1.xlsx,,B6,T6,r,"['s', 'r']","['Stratego', 'Risk']","[-0.15, 0.5]","[0.15, 0.5]",1,1,,,,,,,,,,,,,,,,,0,0,0,0,0,1,1,1,,,,,,,,,,,,,,,,,,,,,,,,,,,,,,,,,,,,,,,,,,,,,,,854.69972332,None,854.69972332,None,854.69972332,None,s,0,1.6128295190001154,856.2993110819998,None,856.2993110819998,None,856.2993110819998,None,857.9663168439997,None,857.9663168439997,None,857.9663168439997,None,857.9663168439997,None,,,,,,,,,,,,,,,,,,,,,,,,,,,,,,,,,,,,,,,,,,,,001,57,2020_Feb_04_1031,spring_faces,3.1.5,60.031833200261104,
condition files/Stage2_1.xlsx,,T1,B1,s,"['s', 'r']","['Stratego', 'Risk']","[-0.15, 0.5]","[0.15, 0.5]",1,1,,,,,,,,,,,,,,,,,0,0,0,0,0,2,2,2,,,,,,,,,,,,,,,,,,,,,,,,,,,,,,,,,,,,,,,,,,,,,,,859.9330382929998,None,859.9330382929998,None,859.9330382929998,None,s,1,0.9241229990002466,861.468141759,None,861.468141759,None,861.468141759,None,862.4517349749999,None,862.4517349749999,None,862.4517349749999,None,862.4517349749999,None,,,,,,,,,,,,,,,,,,,,,,,,,,,,,,,,,,,,,,,,,,,,001,57,2020_Feb_04_1031,spring_faces,3.1.5,60.031833200261104,
condition files/Stage2_1.xlsx,,T3,B3,s,"['s', 'r']","['Stratego', 'Risk']","[-0.15, 0.5]","[0.15, 0.5]",1,1,,,,,,,,,,,,,,,,,0,0,0,0,0,3,3,4,,,,,,,,,,,,,,,,,,,,,,,,,,,,,,,,,,,,,,,,,,,,,,,864.4163939719997,None,864.4163939719997,None,864.4163939719997,None,s,1,1.9464504409997971,865.9656993909998,None,865.9656993909998,None,865.9656993909998,None,867.96618795,None,867.96618795,None,867.96618795,None,867.96618795,None,,,,,,,,,,,,,,,,,,,,,,,,,,,,,,,,,,,,,,,,,,,,001,57,2020_Feb_04_1031,spring_faces,3.1.5,60.031833200261104,
condition files/Stage2_1.xlsx,,B2,T2,r,"['s', 'r']","['Stratego', 'Risk']","[-0.15, 0.5]","[0.15, 0.5]",1,1,,,,,,,,,,,,,,,,,0,0,0,0,0,4,4,3,,,,,,,,,,,,,,,,,,,,,,,,,,,,,,,,,,,,,,,,,,,,,,,869.932976396,None,869.932976396,None,869.932976396,None,r,1,1.2136460159999842,871.4665298109999,None,871.4665298109999,None,871.4665298109999,None,872.7330645239999,None,872.7330645239999,None,872.7330645239999,None,872.7330645239999,None,,,,,,,,,,,,,,,,,,,,,,,,,,,,,,,,,,,,,,,,,,,,001,57,2020_Feb_04_1031,spring_faces,3.1.5,60.031833200261104,
condition files/Stage2_1.xlsx,,T5,B5,s,"['s', 'r']","['Stratego', 'Risk']","[-0.15, 0.5]","[0.15, 0.5]",1,1,,,,,,,,,,,,,,,,,0,0,0,0,0,5,5,0,,,,,,,,,,,,,,,,,,,,,,,,,,,,,,,,,,,,,,,,,,,,,,,874.6997097169997,None,874.6997097169997,None,874.6997097169997,None,r,0,1.243984183000066,876.284172102,None,876.284172102,None,876.284172102,None,877.6001079789999,None,877.6001079789999,None,877.6001079789999,None,877.6001079789999,None,,,,,,,,,,,,,,,,,,,,,,,,,,,,,,,,,,,,,,,,,,,,001,57,2020_Feb_04_1031,spring_faces,3.1.5,60.031833200261104,
condition files/Stage2_2.xlsx,,T2,B2,r,"['s', 'r']","['Stratego', 'Risk']","[-0.15, 0.5]","[0.15, 0.5]",1,1,,,,,,,,,,,,,,,,,0,1,1,1,0,0,0,3,,,,,,,,,,,,,,,,,,,,,,,,,,,,,,,,,,,,,,,,,,,,,,,879.565981149,None,879.565981149,None,879.565981149,None,s,0,0.7006376529998306,881.0995411249996,None,881.0995411249996,None,881.0995411249996,None,881.8663584349997,None,881.8663584349997,None,881.8663584349997,None,881.8663584349997,None,,,,,,,,,,,,,,,,,,,,,,,,,,,,,,,,,,,,,,,,,,,,001,57,2020_Feb_04_1031,spring_faces,3.1.5,60.031833200261104,
condition files/Stage2_2.xlsx,,B5,T5,s,"['s', 'r']","['Stratego', 'Risk']","[-0.15, 0.5]","[0.15, 0.5]",1,1,,,,,,,,,,,,,,,,,0,1,1,1,0,1,1,0,,,,,,,,,,,,,,,,,,,,,,,,,,,,,,,,,,,,,,,,,,,,,,,883.8329933239997,None,883.8329933239997,None,883.8329933239997,None,r,0,1.936501360999955,885.3677006539997,None,885.3677006539997,None,885.3677006539997,None,887.3687866829996,None,887.3687866829996,None,887.3687866829996,None,887.3687866829996,None,,,,,,,,,,,,,,,,,,,,,,,,,,,,,,,,,,,,,,,,,,,,001,57,2020_Feb_04_1031,spring_faces,3.1.5,60.031833200261104,
condition files/Stage2_2.xlsx,,B1,T1,s,"['s', 'r']","['Stratego', 'Risk']","[-0.15, 0.5]","[0.15, 0.5]",1,1,,,,,,,,,,,,,,,,,0,1,1,1,0,2,2,2,,,,,,,,,,,,,,,,,,,,,,,,,,,,,,,,,,,,,,,,,,,,,,,889.332980962,None,889.332980962,None,889.332980962,None,s,1,1.0757616719997714,890.8684106679998,None,890.8684106679998,None,890.8684106679998,None,892.000312054,None,892.000312054,None,892.000312054,None,892.000312054,None,,,,,,,,,,,,,,,,,,,,,,,,,,,,,,,,,,,,,,,,,,,,001,57,2020_Feb_04_1031,spring_faces,3.1.5,60.031833200261104,
condition files/Stage2_2.xlsx,,T4,B4,r,"['s', 'r']","['Stratego', 'Risk']","[-0.15, 0.5]","[0.15, 0.5]",1,1,,,,,,,,,,,,,,,,,0,1,1,1,0,3,3,5,,,,,,,,,,,,,,,,,,,,,,,,,,,,,,,,,,,,,,,,,,,,,,,893.9656902819997,None,893.9656902819997,None,893.9656902819997,None,s,0,2.4281952119999914,895.499980438,None,895.499980438,None,895.499980438,None,897.985366639,None,897.985366639,None,897.985366639,None,897.985366639,None,,,,,,,,,,,,,,,,,,,,,,,,,,,,,,,,,,,,,,,,,,,,001,57,2020_Feb_04_1031,spring_faces,3.1.5,60.031833200261104,
condition files/Stage2_2.xlsx,,T6,B6,r,"['s', 'r']","['Stratego', 'Risk']","[-0.15, 0.5]","[0.15, 0.5]",1,1,,,,,,,,,,,,,,,,,0,1,1,1,0,4,4,1,,,,,,,,,,,,,,,,,,,,,,,,,,,,,,,,,,,,,,,,,,,,,,,899.9490354639997,None,899.9490354639997,None,899.9490354639997,None,s,0,1.3727626019999661,901.48349555,None,901.48349555,None,901.48349555,None,902.9164781979998,None,902.9164781979998,None,902.9164781979998,None,902.9164781979998,None,,,,,,,,,,,,,,,,,,,,,,,,,,,,,,,,,,,,,,,,,,,,001,57,2020_Feb_04_1031,spring_faces,3.1.5,60.031833200261104,
condition files/Stage2_2.xlsx,,B3,T3,s,"['s', 'r']","['Stratego', 'Risk']","[-0.15, 0.5]","[0.15, 0.5]",1,1,,,,,,,,,,,,,,,,,0,1,1,1,0,5,5,4,,,,,,,,,,,,,,,,,,,,,,,,,,,,,,,,,,,,,,,,,,,,,,,904.883032709,None,904.883032709,None,904.883032709,None,s,1,1.0479546319998008,906.416232645,None,906.416232645,None,906.416232645,None,907.5331895279996,None,907.5331895279996,None,907.5331895279996,None,907.5331895279996,None,,,,,,,,,,,,,,,,,,,,,,,,,,,,,,,,,,,,,,,,,,,,001,57,2020_Feb_04_1031,spring_faces,3.1.5,60.031833200261104,
condition files/Stage2_1.xlsx,,T3,B3,s,"['s', 'r']","['Stratego', 'Risk']","[-0.15, 0.5]","[0.15, 0.5]",1,1,,,,,,,,,,,,,,,,,0,2,2,2,0,0,0,4,,,,,,,,,,,,,,,,,,,,,,,,,,,,,,,,,,,,,,,,,,,,,,,909.499246242,None,909.499246242,None,909.499246242,None,s,1,1.1170507399997405,911.0351495749997,None,911.0351495749997,None,911.0351495749997,None,912.2166461429997,None,912.2166461429997,None,912.2166461429997,None,912.2166461429997,None,,,,,,,,,,,,,,,,,,,,,,,,,,,,,,,,,,,,,,,,,,,,001,57,2020_Feb_04_1031,spring_faces,3.1.5,60.031833200261104,
condition files/Stage2_1.xlsx,,T1,B1,s,"['s', 'r']","['Stratego', 'Risk']","[-0.15, 0.5]","[0.15, 0.5]",1,1,,,,,,,,,,,,,,,,,0,2,2,2,0,1,1,2,,,,,,,,,,,,,,,,,,,,,,,,,,,,,,,,,,,,,,,,,,,,,,,914.1830618689996,None,914.1830618689996,None,914.1830618689996,None,r,0,0.994440520000353,915.7177172929996,None,915.7177172929996,None,915.7177172929996,None,916.766094957,None,916.766094957,None,916.766094957,None,916.766094957,None,,,,,,,,,,,,,,,,,,,,,,,,,,,,,,,,,,,,,,,,,,,,001,57,2020_Feb_04_1031,spring_faces,3.1.5,60.031833200261104,
condition files/Stage2_1.xlsx,,B6,T6,r,"['s', 'r']","['Stratego', 'Risk']","[-0.15, 0.5]","[0.15, 0.5]",1,1,,,,,,,,,,,,,,,,,0,2,2,2,0,2,2,1,,,,,,,,,,,,,,,,,,,,,,,,,,,,,,,,,,,,,,,,,,,,,,,918.7328053419997,None,918.7328053419997,None,918.7328053419997,None,r,1,1.229929785999957,920.2662695219997,None,920.2662695219997,None,920.2662695219997,None,921.566562214,None,921.566562214,None,921.566562214,None,921.566562214,None,,,,,,,,,,,,,,,,,,,,,,,,,,,,,,,,,,,,,,,,,,,,001,57,2020_Feb_04_1031,spring_faces,3.1.5,60.031833200261104,
condition files/Stage2_1.xlsx,,T5,B5,s,"['s', 'r']","['Stratego', 'Risk']","[-0.15, 0.5]","[0.15, 0.5]",1,1,,,,,,,,,,,,,,,,,0,2,2,2,0,3,3,0,,,,,,,,,,,,,,,,,,,,,,,,,,,,,,,,,,,,,,,,,,,,,,,923.5157474019998,None,923.5157474019998,None,923.5157474019998,None,s,1,1.7079239109998525,925.0523420529998,None,925.0523420529998,None,925.0523420529998,None,926.8329909219997,None,926.8329909219997,None,926.8329909219997,None,926.8329909219997,None,,,,,,,,,,,,,,,,,,,,,,,,,,,,,,,,,,,,,,,,,,,,001,57,2020_Feb_04_1031,spring_faces,3.1.5,60.031833200261104,
condition files/Stage2_1.xlsx,,B2,T2,r,"['s', 'r']","['Stratego', 'Risk']","[-0.15, 0.5]","[0.15, 0.5]",1,1,,,,,,,,,,,,,,,,,0,2,2,2,0,4,4,3,,,,,,,,,,,,,,,,,,,,,,,,,,,,,,,,,,,,,,,,,,,,,,,928.7823256449997,None,928.7823256449997,None,928.7823256449997,None,r,1,1.5156194760002109,930.332543688,None,930.332543688,None,930.332543688,None,931.900732865,None,931.900732865,None,931.900732865,None,931.900732865,None,,,,,,,,,,,,,,,,,,,,,,,,,,,,,,,,,,,,,,,,,,,,001,57,2020_Feb_04_1031,spring_faces,3.1.5,60.031833200261104,
condition files/Stage2_1.xlsx,,B4,T4,r,"['s', 'r']","['Stratego', 'Risk']","[-0.15, 0.5]","[0.15, 0.5]",1,1,,,,,,,,,,,,,,,,,0,2,2,2,0,5,5,5,,,,,,,,,,,,,,,,,,,,,,,,,,,,,,,,,,,,,,,,,,,,,,,933.8656563519999,None,933.8656563519999,None,933.8656563519999,None,r,1,1.1995428640002501,935.4166411649999,None,935.4166411649999,None,935.4166411649999,None,936.6661331149999,None,936.6661331149999,None,936.6661331149999,None,936.6661331149999,None,,,,,,,,,,,,,,,,,,,,,,,,,,,,,,,,,,,,,,,,,,,,001,57,2020_Feb_04_1031,spring_faces,3.1.5,60.031833200261104,
condition files/Stage2_2.xlsx,,T6,B6,r,"['s', 'r']","['Stratego', 'Risk']","[-0.15, 0.5]","[0.15, 0.5]",1,1,,,,,,,,,,,,,,,,,0,3,3,3,0,0,0,1,,,,,,,,,,,,,,,,,,,,,,,,,,,,,,,,,,,,,,,,,,,,,,,938.6499240389999,None,938.6499240389999,None,938.6499240389999,None,r,1,0.895176115999675,940.1850113209998,None,940.1850113209998,None,940.1850113209998,None,941.1328239619997,None,941.1328239619997,None,941.1328239619997,None,941.1328239619997,None,,,,,,,,,,,,,,,,,,,,,,,,,,,,,,,,,,,,,,,,,,,,001,57,2020_Feb_04_1031,spring_faces,3.1.5,60.031833200261104,
condition files/Stage2_2.xlsx,,B5,T5,s,"['s', 'r']","['Stratego', 'Risk']","[-0.15, 0.5]","[0.15, 0.5]",1,1,,,,,,,,,,,,,,,,,0,3,3,3,0,1,1,0,,,,,,,,,,,,,,,,,,,,,,,,,,,,,,,,,,,,,,,,,,,,,,,943.0996511109997,None,943.0996511109997,None,943.0996511109997,None,s,1,1.5991981389997818,944.6330030859999,None,944.6330030859999,None,944.6330030859999,None,946.2995481139997,None,946.2995481139997,None,946.2995481139997,None,946.2995481139997,None,,,,,,,,,,,,,,,,,,,,,,,,,,,,,,,,,,,,,,,,,,,,001,57,2020_Feb_04_1031,spring_faces,3.1.5,60.031833200261104,
condition files/Stage2_2.xlsx,,B3,T3,s,"['s', 'r']","['Stratego', 'Risk']","[-0.15, 0.5]","[0.15, 0.5]",1,1,,,,,,,,,,,,,,,,,0,3,3,3,0,2,2,4,,,,,,,,,,,,,,,,,,,,,,,,,,,,,,,,,,,,,,,,,,,,,,,948.2496828909998,None,948.2496828909998,None,948.2496828909998,None,s,1,1.3448358820000976,949.7993371779999,None,949.7993371779999,None,949.7993371779999,None,951.1999218449996,None,951.1999218449996,None,951.1999218449996,None,951.1999218449996,None,,,,,,,,,,,,,,,,,,,,,,,,,,,,,,,,,,,,,,,,,,,,001,57,2020_Feb_04_1031,spring_faces,3.1.5,60.031833200261104,
condition files/Stage2_2.xlsx,,T4,B4,r,"['s', 'r']","['Stratego', 'Risk']","[-0.15, 0.5]","[0.15, 0.5]",1,1,,,,,,,,,,,,,,,,,0,3,3,3,0,3,3,5,,,,,,,,,,,,,,,,,,,,,,,,,,,,,,,,,,,,,,,,,,,,,,,953.1666064009996,None,953.1666064009996,None,953.1666064009996,None,r,1,0.746385618000204,954.7018108900002,None,954.7018108900002,None,954.7018108900002,None,955.50269174,None,955.50269174,None,955.50269174,None,955.50269174,None,,,,,,,,,,,,,,,,,,,,,,,,,,,,,,,,,,,,,,,,,,,,001,57,2020_Feb_04_1031,spring_faces,3.1.5,60.031833200261104,
condition files/Stage2_2.xlsx,,B1,T1,s,"['s', 'r']","['Stratego', 'Risk']","[-0.15, 0.5]","[0.15, 0.5]",1,1,,,,,,,,,,,,,,,,,0,3,3,3,0,4,4,2,,,,,,,,,,,,,,,,,,,,,,,,,,,,,,,,,,,,,,,,,,,,,,,957.4662819529995,None,957.4662819529995,None,957.4662819529995,None,s,1,2.3846166240000457,958.999533872,None,958.999533872,None,958.999533872,None,961.4664997939999,None,961.4664997939999,None,961.4664997939999,None,961.4664997939999,None,,,,,,,,,,,,,,,,,,,,,,,,,,,,,,,,,,,,,,,,,,,,001,57,2020_Feb_04_1031,spring_faces,3.1.5,60.031833200261104,
condition files/Stage2_2.xlsx,,T2,B2,r,"['s', 'r']","['Stratego', 'Risk']","[-0.15, 0.5]","[0.15, 0.5]",1,1,,,,,,,,,,,,,,,,,0,3,3,3,0,5,5,3,,,,,,,,,,,,,,,,,,,,,,,,,,,,,,,,,,,,,,,,,,,,,,,963.4158883689997,None,963.4158883689997,None,963.4158883689997,None,s,0,3.5699246559997846,964.9502804779995,None,964.9502804779995,None,964.9502804779995,None,968.6000762849999,None,968.6000762849999,None,968.6000762849999,None,968.6000762849999,None,,,,,,,,,,,,,,,,,,,,,,,,,,,,,,,,,,,,,,,,,,,,001,57,2020_Feb_04_1031,spring_faces,3.1.5,60.031833200261104,
condition files/Stage2_1.xlsx,,T3,B3,s,"['s', 'r']","['Stratego', 'Risk']","[-0.15, 0.5]","[0.15, 0.5]",1,1,,,,,,,,,,,,,,,,,0,4,4,4,0,0,0,4,,,,,,,,,,,,,,,,,,,,,,,,,,,,,,,,,,,,,,,,,,,,,,,970.5666401099998,None,970.5666401099998,None,970.5666401099998,None,s,1,0.8500876829994013,972.1021222990003,None,972.1021222990003,None,972.1021222990003,None,973.0333106429998,None,973.0333106429998,None,973.0333106429998,None,973.0333106429998,None,,,,,,,,,,,,,,,,,,,,,,,,,,,,,,,,,,,,,,,,,,,,001,57,2020_Feb_04_1031,spring_faces,3.1.5,60.031833200261104,
condition files/Stage2_1.xlsx,,B6,T6,r,"['s', 'r']","['Stratego', 'Risk']","[-0.15, 0.5]","[0.15, 0.5]",1,1,,,,,,,,,,,,,,,,,0,4,4,4,0,1,1,1,,,,,,,,,,,,,,,,,,,,,,,,,,,,,,,,,,,,,,,,,,,,,,,974.9831992740001,None,974.9831992740001,None,974.9831992740001,None,r,1,1.3947112410005502,976.5175079069995,None,976.5175079069995,None,976.5175079069995,None,977.9690273320002,None,977.9690273320002,None,977.9690273320002,None,977.9690273320002,None,,,,,,,,,,,,,,,,,,,,,,,,,,,,,,,,,,,,,,,,,,,,001,57,2020_Feb_04_1031,spring_faces,3.1.5,60.031833200261104,
condition files/Stage2_1.xlsx,,B2,T2,r,"['s', 'r']","['Stratego', 'Risk']","[-0.15, 0.5]","[0.15, 0.5]",1,1,,,,,,,,,,,,,,,,,0,4,4,4,0,2,2,3,,,,,,,,,,,,,,,,,,,,,,,,,,,,,,,,,,,,,,,,,,,,,,,979.9325520309994,None,979.9325520309994,None,979.9325520309994,None,s,0,0.9736055619996478,981.4666594619994,None,981.4666594619994,None,981.4666594619994,None,982.5002984749999,None,982.5002984749999,None,982.5002984749999,None,982.5002984749999,None,,,,,,,,,,,,,,,,,,,,,,,,,,,,,,,,,,,,,,,,,,,,001,57,2020_Feb_04_1031,spring_faces,3.1.5,60.031833200261104,
condition files/Stage2_1.xlsx,,T1,B1,s,"['s', 'r']","['Stratego', 'Risk']","[-0.15, 0.5]","[0.15, 0.5]",1,1,,,,,,,,,,,,,,,,,0,4,4,4,0,3,3,2,,,,,,,,,,,,,,,,,,,,,,,,,,,,,,,,,,,,,,,,,,,,,,,984.4664947439996,None,984.4664947439996,None,984.4664947439996,None,s,1,1.222774687999845,986.0014952709998,None,986.0014952709998,None,986.0014952709998,None,987.2840645859997,None,987.2840645859997,None,987.2840645859997,None,987.2840645859997,None,,,,,,,,,,,,,,,,,,,,,,,,,,,,,,,,,,,,,,,,,,,,001,57,2020_Feb_04_1031,spring_faces,3.1.5,60.031833200261104,
condition files/Stage2_1.xlsx,,B4,T4,r,"['s', 'r']","['Stratego', 'Risk']","[-0.15, 0.5]","[0.15, 0.5]",1,1,,,,,,,,,,,,,,,,,0,4,4,4,0,4,4,5,,,,,,,,,,,,,,,,,,,,,,,,,,,,,,,,,,,,,,,,,,,,,,,989.2497211379996,None,989.2497211379996,None,989.2497211379996,None,r,1,1.0160290240000904,990.8001511869998,None,990.8001511869998,None,990.8001511869998,None,991.8830722389994,None,991.8830722389994,None,991.8830722389994,None,991.8830722389994,None,,,,,,,,,,,,,,,,,,,,,,,,,,,,,,,,,,,,,,,,,,,,001,57,2020_Feb_04_1031,spring_faces,3.1.5,60.031833200261104,
