condsFile,subStage,cue1,cue2,correct,responseKeys,responseNames,cue1Position,cue2Position,cue1Opacity,cue2Opacity,stageLoop0.thisRepN,stageLoop0.thisTrialN,stageLoop0.thisN,stageLoop0.thisIndex,blockLoop0.thisRepN,blockLoop0.thisTrialN,blockLoop0.thisN,blockLoop0.thisIndex,stage1Loop.thisRepN,stage1Loop.thisTrialN,stage1Loop.thisN,stage1Loop.thisIndex,blockLoop1.thisRepN,blockLoop1.thisTrialN,blockLoop1.thisN,blockLoop1.thisIndex,stage2Loop.thisRepN,stage2Loop.thisTrialN,stage2Loop.thisN,stage2Loop.thisIndex,blockLoop2.thisRepN,blockLoop2.thisTrialN,blockLoop2.thisN,blockLoop2.thisIndex,testLoop.thisRepN,testLoop.thisTrialN,testLoop.thisN,testLoop.thisIndex,blockLoopTest.thisRepN,blockLoopTest.thisTrialN,blockLoopTest.thisN,blockLoopTest.thisIndex,cuePics,id_instr_text.started,id_instr_text.stopped,space_to_continue_2.started,space_to_continue_2.stopped,end_instructions_resp_3.keys,end_instructions_resp_3.rt,end_instructions_resp_3.started,end_instructions_resp_3.stopped,id_input_instr.started,id_input_instr.stopped,id_input_rect.started,id_input_rect.stopped,id_input_resp.keys,id_input_resp.rt,id_input_resp.started,id_input_resp.stopped,sonaID,id_input_text.started,id_input_text.stopped,final_text.started,final_text.stopped,instructions.started,instructions.stopped,end_instructions_resp.keys,end_instructions_resp.rt,end_instructions_resp.started,end_instructions_resp.stopped,space_to_continue.started,space_to_continue.stopped,instructions_stage0.started,instructions_stage0.stopped,end_instructions_resp_stage0.keys,end_instructions_resp_stage0.rt,end_instructions_resp_stage0.started,end_instructions_resp_stage0.stopped,space_to_continue_stage0.started,space_to_continue_stage0.stopped,text.started,text.stopped,resp_text1.started,resp_text1.stopped,resp_text2.started,resp_text2.stopped,trial_resp.keys,trial_resp.corr,trial_resp.rt,trial_resp.started,trial_resp.stopped,cue1Image.started,cue1Image.stopped,cue2Image.started,cue2Image.stopped,cue1Image_fb.started,cue1Image_fb.stopped,cue2Image_fb.started,cue2Image_fb.stopped,fb_text_answer.started,fb_text_answer.stopped,feedback_image.started,feedback_image.stopped,instructions_stage1.started,instructions_stage1.stopped,end_instructions_resp_stage1.keys,end_instructions_resp_stage1.rt,end_instructions_resp_stage1.started,end_instructions_resp_stage1.stopped,space_to_continue_stage1.started,space_to_continue_stage1.stopped,instructions_2.started,instructions_2.stopped,end_instructions_resp_2.keys,end_instructions_resp_2.rt,end_instructions_resp_2.started,end_instructions_resp_2.stopped,press_space_to_continue_stage2.started,press_space_to_continue_stage2.stopped,instructions_testStage1.started,instructions_testStage1.stopped,end_instructions_resp_test1.keys,end_instructions_resp_test1.rt,end_instructions_resp_test1.started,end_instructions_resp_test1.stopped,press_space_to_continue_test1.started,press_space_to_continue_test1.stopped,cue1Image_testChoice.started,cue1Image_testChoice.stopped,cue2Image_testChoice.started,cue2Image_testChoice.stopped,test_resp.keys,test_resp.corr,test_resp.rt,test_resp.started,test_resp.stopped,cue1Image_testConf.started,cue1Image_testConf.stopped,cue2Image_testConf.started,cue2Image_testConf.stopped,conf_reminder.started,conf_reminder.stopped,conf_rating.response,conf_rating.rt,conf_rating.started,conf_rating.stopped,session,participant,date,expName,psychopyVersion,frameRate,
,,,,,,,,,,,,,,,,,,,,,,,,,,,,,,,,,,,,,,,,,,,"{'none': 'pictures/20M_AN_C.png', 'alpha': 'pictures/SHINEd_apple.png', 'beta': 'pictures/SHINEd_pear.png', 'theta': 'pictures/SHINEd_pepper.png', 'phi': 'pictures/SHINEd_melon.png', 'T1': 'pictures/26M_AN_C.png', 'T2': 'pictures/33M_AN_C.png', 'T3': 'pictures/32M_AN_C.png', 'T4': 'pictures/31M_AN_C.png', 'T5': 'pictures/36M_AN_C.png', 'T6': 'pictures/22M_AN_C.png', 'B1': 'pictures/25M_NE_C.png', 'B2': 'pictures/37M_NE_C.png', 'B3': 'pictures/23M_NE_C.png', 'B4': 'pictures/34M_NE_C.png', 'B5': 'pictures/20M_NE_C.png', 'B6': 'pictures/38M_NE_C.png'}",15.230023834999884,None,20.213067476000106,None,space,311.61475088199995,20.213067476000106,None,,,,,,,,,,,,,,,,,,,,,,,,,,,,,,,,,,,,,,,,,,,,,,,,,,,,,,,,,,,,,,,,,,,,,,,,,,,,,,,,,,,,,,,,,,,,,,,,001,58,2020_Feb_04_1042,spring_faces,3.1.5,59.92162562957524,
,,,,,,,,,,,,,,,,,,,,,,,,,,,,,,,,,,,,,,,,,,,,,,,,,,,,332.21253892100003,None,332.21253892100003,None,"['1', '1', '1', '5', 's', 'u', 's', 'a', 'i', 'backspace', '1', '1', '1', '5', 's', 'u', 's', 't', 'e', '1', '1', '1', '5', 's', 'u', 's', 'a', 'i']","[26.49523980199956, 26.86328540299928, 28.943360694999683, 29.471298759999627, 34.95935010799985, 35.807275985999695, 41.103277778999654, 41.4872846799999, 41.72734621800009, 43.90321061399936, 49.007270543999766, 49.19928000699929, 51.02330841599996, 51.53523216399935, 57.119207029999416, 57.327329181000096, 62.975348367999686, 63.279257084000164, 63.37529831199936, 70.06328264900003, 70.33523192899975, 70.9593420329993, 71.80728622599963, 73.82328947399947, 75.98327779600004, 82.06328644099995, 82.87925078499939, 83.10328871000002]",332.21253892100003,None,,,,,,,,,,,,,,,,,,,,,,,,,,,,,,,,,,,,,,,,,,,,,,,,,,,,,,,,,,,,,,,,,,,,,,,,,,,,,,,,,,,,,,,,001,58,2020_Feb_04_1042,spring_faces,3.1.5,59.92162562957524,
,,,,,,,,,,,,,,,,,,,,,,,,,,,,,,,,,,,,,,,,,,,,,,,,,,,,,,,,,,,,1115susai,332.21253892100003,None,332.21253892100003,None,420.39681856499965,None,space,3.263472874999934,425.39651984700004,None,,,,,,,,,,,,,,,,,,,,,,,,,,,,,,,,,,,,,,,,,,,,,,,,,,,,,,,,,,,,,,,,,,,,,,,,,,,,,001,58,2020_Feb_04_1042,spring_faces,3.1.5,59.92162562957524,
,,,,,,,,,,,,,,,,,,,,,,,,,,,,,,,,,,,,,,,,,,,,,,,,,,,,,,,,,,,,,,,,,,,,,,,425.39651984700004,None,428.6966313500002,None,space,7.027385534000132,433.69651834800015,None,,,,,,,,,,,,,,,,,,,,,,,,,,,,,,,,,,,,,,,,,,,,,,,,,,,,,,,,,,,,,,,,,,,,,001,58,2020_Feb_04_1042,spring_faces,3.1.5,59.92162562957524,
condition files/Stage0a.xlsx,0a,alpha,none,h,"['h', 'g']","['Chess', 'Go']","[0, 0.5]","[0, 0]",1,0,0,0,0,0,0,0,0,0,,,,,,,,,,,,,,,,,,,,,,,,,,,,,,,,,,,,,,,,,,,,,,,,,,,,,,,,,,,,,433.69651834800015,None,440.7798410680002,None,440.7798410680002,None,440.7798410680002,None,h,1,6.232447469999897,442.36336422999966,None,442.36336422999966,None,442.36336422999966,None,448.66354739200005,None,448.66354739200005,None,448.66354739200005,None,448.66354739200005,None,,,,,,,,,,,,,,,,,,,,,,,,,,,,,,,,,,,,,,,,,,,,001,58,2020_Feb_04_1042,spring_faces,3.1.5,59.92162562957524,
condition files/Stage0a.xlsx,0a,beta,none,g,"['h', 'g']","['Chess', 'Go']","[0, 0.5]","[0, 0]",1,0,0,0,0,0,0,1,1,1,,,,,,,,,,,,,,,,,,,,,,,,,,,,,,,,,,,,,,,,,,,,,,,,,,,,,,,,,,,,,,,450.6130363919997,None,450.6130363919997,None,450.6130363919997,None,h,0,1.8080496829998083,452.16383820800047,None,452.16383820800047,None,452.16383820800047,None,454.02914680500044,None,454.02914680500044,None,454.02914680500044,None,454.02914680500044,None,,,,,,,,,,,,,,,,,,,,,,,,,,,,,,,,,,,,,,,,,,,,001,58,2020_Feb_04_1042,spring_faces,3.1.5,59.92162562957524,
condition files/Stage0a.xlsx,0a,beta,none,g,"['h', 'g']","['Chess', 'Go']","[0, 0.5]","[0, 0]",1,0,0,1,1,1,0,0,0,1,,,,,,,,,,,,,,,,,,,,,,,,,,,,,,,,,,,,,,,,,,,,,,,,,,,,,,,,,,,,,,,456.0125298220005,None,456.0125298220005,None,456.0125298220005,None,g,1,0.8891618620000372,457.5466574870002,None,457.5466574870002,None,457.5466574870002,None,458.4964775989997,None,458.4964775989997,None,458.4964775989997,None,458.4964775989997,None,,,,,,,,,,,,,,,,,,,,,,,,,,,,,,,,,,,,,,,,,,,,001,58,2020_Feb_04_1042,spring_faces,3.1.5,59.92162562957524,
condition files/Stage0a.xlsx,0a,alpha,none,h,"['h', 'g']","['Chess', 'Go']","[0, 0.5]","[0, 0]",1,0,0,1,1,1,0,1,1,0,,,,,,,,,,,,,,,,,,,,,,,,,,,,,,,,,,,,,,,,,,,,,,,,,,,,,,,,,,,,,,,460.46300174700036,None,460.46300174700036,None,460.46300174700036,None,h,1,1.0951352510001016,461.9966886699999,None,461.9966886699999,None,461.9966886699999,None,463.1469794919999,None,463.1469794919999,None,463.1469794919999,None,463.1469794919999,None,,,,,,,,,,,,,,,,,,,,,,,,,,,,,,,,,,,,,,,,,,,,001,58,2020_Feb_04_1042,spring_faces,3.1.5,59.92162562957524,
condition files/Stage0a.xlsx,0a,beta,none,g,"['h', 'g']","['Chess', 'Go']","[0, 0.5]","[0, 0]",1,0,0,2,2,2,0,0,0,1,,,,,,,,,,,,,,,,,,,,,,,,,,,,,,,,,,,,,,,,,,,,,,,,,,,,,,,,,,,,,,,465.1299230970003,None,465.1299230970003,None,465.1299230970003,None,g,1,0.5722862120001082,466.6635330510003,None,466.6635330510003,None,466.6635330510003,None,467.29638068400027,None,467.29638068400027,None,467.29638068400027,None,467.29638068400027,None,,,,,,,,,,,,,,,,,,,,,,,,,,,,,,,,,,,,,,,,,,,,001,58,2020_Feb_04_1042,spring_faces,3.1.5,59.92162562957524,
condition files/Stage0a.xlsx,0a,alpha,none,h,"['h', 'g']","['Chess', 'Go']","[0, 0.5]","[0, 0]",1,0,0,2,2,2,0,1,1,0,,,,,,,,,,,,,,,,,,,,,,,,,,,,,,,,,,,,,,,,,,,,,,,,,,,,,,,,,,,,,,,469.2630457760001,None,469.2630457760001,None,469.2630457760001,None,h,1,0.6631349680001222,470.79668186000026,None,470.79668186000026,None,470.79668186000026,None,471.5132176989996,None,471.5132176989996,None,471.5132176989996,None,471.5132176989996,None,,,,,,,,,,,,,,,,,,,,,,,,,,,,,,,,,,,,,,,,,,,,001,58,2020_Feb_04_1042,spring_faces,3.1.5,59.92162562957524,
condition files/Stage0a.xlsx,0a,beta,none,g,"['h', 'g']","['Chess', 'Go']","[0, 0.5]","[0, 0]",1,0,0,3,3,3,0,0,0,1,,,,,,,,,,,,,,,,,,,,,,,,,,,,,,,,,,,,,,,,,,,,,,,,,,,,,,,,,,,,,,,473.4962990070003,None,473.4962990070003,None,473.4962990070003,None,g,1,0.4615113999998357,475.03029219500013,None,475.03029219500013,None,475.03029219500013,None,475.54625534100023,None,475.54625534100023,None,475.54625534100023,None,475.54625534100023,None,,,,,,,,,,,,,,,,,,,,,,,,,,,,,,,,,,,,,,,,,,,,001,58,2020_Feb_04_1042,spring_faces,3.1.5,59.92162562957524,
condition files/Stage0a.xlsx,0a,alpha,none,h,"['h', 'g']","['Chess', 'Go']","[0, 0.5]","[0, 0]",1,0,0,3,3,3,0,1,1,0,,,,,,,,,,,,,,,,,,,,,,,,,,,,,,,,,,,,,,,,,,,,,,,,,,,,,,,,,,,,,,,477.51308856100013,None,477.51308856100013,None,477.51308856100013,None,h,1,0.52551122100067,479.0464003230004,None,479.0464003230004,None,479.0464003230004,None,479.629936973,None,479.629936973,None,479.629936973,None,479.629936973,None,,,,,,,,,,,,,,,,,,,,,,,,,,,,,,,,,,,,,,,,,,,,001,58,2020_Feb_04_1042,spring_faces,3.1.5,59.92162562957524,
condition files/Stage0a.xlsx,0a,beta,none,g,"['h', 'g']","['Chess', 'Go']","[0, 0.5]","[0, 0]",1,0,0,4,4,4,0,0,0,1,,,,,,,,,,,,,,,,,,,,,,,,,,,,,,,,,,,,,,,,,,,,,,,,,,,,,,,,,,,,,,,481.6129542670001,None,481.6129542670001,None,481.6129542670001,None,g,1,0.5375443389993961,483.1462777259999,None,483.1462777259999,None,483.1462777259999,None,483.746338339,None,483.746338339,None,483.746338339,None,483.746338339,None,,,,,,,,,,,,,,,,,,,,,,,,,,,,,,,,,,,,,,,,,,,,001,58,2020_Feb_04_1042,spring_faces,3.1.5,59.92162562957524,
condition files/Stage0a.xlsx,0a,alpha,none,h,"['h', 'g']","['Chess', 'Go']","[0, 0.5]","[0, 0]",1,0,0,4,4,4,0,1,1,0,,,,,,,,,,,,,,,,,,,,,,,,,,,,,,,,,,,,,,,,,,,,,,,,,,,,,,,,,,,,,,,485.7129904790004,None,485.7129904790004,None,485.7129904790004,None,h,1,0.6612987349999457,487.2464991720003,None,487.2464991720003,None,487.2464991720003,None,487.96309552699995,None,487.96309552699995,None,487.96309552699995,None,487.96309552699995,None,,,,,,,,,,,,,,,,,,,,,,,,,,,,,,,,,,,,,,,,,,,,001,58,2020_Feb_04_1042,spring_faces,3.1.5,59.92162562957524,
condition files/Stage0a.xlsx,0a,alpha,none,h,"['h', 'g']","['Chess', 'Go']","[0, 0.5]","[0, 0]",1,0,0,5,5,5,0,0,0,0,,,,,,,,,,,,,,,,,,,,,,,,,,,,,,,,,,,,,,,,,,,,,,,,,,,,,,,,,,,,,,,489.9459947700002,None,489.9459947700002,None,489.9459947700002,None,h,1,2.9406373459996757,491.4791604520001,None,491.4791604520001,None,491.4791604520001,None,494.47991728399984,None,494.47991728399984,None,494.47991728399984,None,494.47991728399984,None,,,,,,,,,,,,,,,,,,,,,,,,,,,,,,,,,,,,,,,,,,,,001,58,2020_Feb_04_1042,spring_faces,3.1.5,59.92162562957524,
condition files/Stage0a.xlsx,0a,beta,none,g,"['h', 'g']","['Chess', 'Go']","[0, 0.5]","[0, 0]",1,0,0,5,5,5,0,1,1,1,,,,,,,,,,,,,,,,,,,,,,,,,,,,,,,,,,,,,,,,,,,,,,,,,,,,,,,,,,,,,,,496.4461847890002,None,496.4461847890002,None,496.4461847890002,None,g,1,0.5039213820000441,497.97989912300045,None,497.97989912300045,None,497.97989912300045,None,498.5465106730003,None,498.5465106730003,None,498.5465106730003,None,498.5465106730003,None,,,,,,,,,,,,,,,,,,,,,,,,,,,,,,,,,,,,,,,,,,,,001,58,2020_Feb_04_1042,spring_faces,3.1.5,59.92162562957524,
condition files/Stage0b_1.xlsx,0b,alpha,none,h,"['h', 'g']","['Chess', 'Go']","[-0.15, 0.5]","[0.15, 0.5]",1,0,0,6,6,6,0,0,0,0,,,,,,,,,,,,,,,,,,,,,,,,,,,,,,,,,,,,,,,,,,,,,,,,,,,,,,,,,,,,,,,500.52994564200026,None,500.52994564200026,None,500.52994564200026,None,h,1,2.5166079050004555,502.06320828399976,None,502.06320828399976,None,502.06320828399976,None,504.6298096180003,None,504.6298096180003,None,504.6298096180003,None,504.6298096180003,None,,,,,,,,,,,,,,,,,,,,,,,,,,,,,,,,,,,,,,,,,,,,001,58,2020_Feb_04_1042,spring_faces,3.1.5,59.92162562957524,
condition files/Stage0b_1.xlsx,0b,none,beta,g,"['h', 'g']","['Chess', 'Go']","[-0.15, 0.5]","[0.15, 0.5]",0,1,0,6,6,6,0,1,1,1,,,,,,,,,,,,,,,,,,,,,,,,,,,,,,,,,,,,,,,,,,,,,,,,,,,,,,,,,,,,,,,506.59633610799983,None,506.59633610799983,None,506.59633610799983,None,g,1,0.6573375760008275,508.1465396689996,None,508.1465396689996,None,508.1465396689996,None,508.87931310700014,None,508.87931310700014,None,508.87931310700014,None,508.87931310700014,None,,,,,,,,,,,,,,,,,,,,,,,,,,,,,,,,,,,,,,,,,,,,001,58,2020_Feb_04_1042,spring_faces,3.1.5,59.92162562957524,
condition files/Stage0b_2.xlsx,0b,none,alpha,h,"['h', 'g']","['Chess', 'Go']","[-0.15, 0.5]","[0.15, 0.5]",0,1,0,7,7,7,0,0,0,0,,,,,,,,,,,,,,,,,,,,,,,,,,,,,,,,,,,,,,,,,,,,,,,,,,,,,,,,,,,,,,,510.84633559199983,None,510.84633559199983,None,510.84633559199983,None,h,1,2.2645421779998287,512.3792655129996,None,512.3792655129996,None,512.3792655129996,None,514.6968478479998,None,514.6968478479998,None,514.6968478479998,None,514.6968478479998,None,,,,,,,,,,,,,,,,,,,,,,,,,,,,,,,,,,,,,,,,,,,,001,58,2020_Feb_04_1042,spring_faces,3.1.5,59.92162562957524,
condition files/Stage0b_2.xlsx,0b,beta,none,g,"['h', 'g']","['Chess', 'Go']","[-0.15, 0.5]","[0.15, 0.5]",1,0,0,7,7,7,0,1,1,1,,,,,,,,,,,,,,,,,,,,,,,,,,,,,,,,,,,,,,,,,,,,,,,,,,,,,,,,,,,,,,,516.6628021800002,None,516.6628021800002,None,516.6628021800002,None,g,1,0.4738174740004979,518.2019750049999,None,518.2019750049999,None,518.2019750049999,None,518.7334939930001,None,518.7334939930001,None,518.7334939930001,None,518.7334939930001,None,,,,,,,,,,,,,,,,,,,,,,,,,,,,,,,,,,,,,,,,,,,,001,58,2020_Feb_04_1042,spring_faces,3.1.5,59.92162562957524,
condition files/Stage0b_1.xlsx,0b,none,beta,g,"['h', 'g']","['Chess', 'Go']","[-0.15, 0.5]","[0.15, 0.5]",0,1,0,8,8,8,0,0,0,1,,,,,,,,,,,,,,,,,,,,,,,,,,,,,,,,,,,,,,,,,,,,,,,,,,,,,,,,,,,,,,,520.7131803630004,None,520.7131803630004,None,520.7131803630004,None,g,1,1.5626120369997807,522.2492173429996,None,522.2492173429996,None,522.2492173429996,None,523.8628971829999,None,523.8628971829999,None,523.8628971829999,None,523.8628971829999,None,,,,,,,,,,,,,,,,,,,,,,,,,,,,,,,,,,,,,,,,,,,,001,58,2020_Feb_04_1042,spring_faces,3.1.5,59.92162562957524,
condition files/Stage0b_1.xlsx,0b,alpha,none,h,"['h', 'g']","['Chess', 'Go']","[-0.15, 0.5]","[0.15, 0.5]",1,0,0,8,8,8,0,1,1,0,,,,,,,,,,,,,,,,,,,,,,,,,,,,,,,,,,,,,,,,,,,,,,,,,,,,,,,,,,,,,,,525.8296428239996,None,525.8296428239996,None,525.8296428239996,None,h,1,0.7654145189999326,527.3663915370003,None,527.3663915370003,None,527.3663915370003,None,528.1969262349999,None,528.1969262349999,None,528.1969262349999,None,528.1969262349999,None,,,,,,,,,,,,,,,,,,,,,,,,,,,,,,,,,,,,,,,,,,,,001,58,2020_Feb_04_1042,spring_faces,3.1.5,59.92162562957524,
condition files/Stage0b_2.xlsx,0b,none,alpha,h,"['h', 'g']","['Chess', 'Go']","[-0.15, 0.5]","[0.15, 0.5]",0,1,0,9,9,9,0,0,0,0,,,,,,,,,,,,,,,,,,,,,,,,,,,,,,,,,,,,,,,,,,,,,,,,,,,,,,,,,,,,,,,530.1801722860005,None,530.1801722860005,None,530.1801722860005,None,h,1,1.362581536000107,531.7291970410001,None,531.7291970410001,None,531.7291970410001,None,533.1462716150004,None,533.1462716150004,None,533.1462716150004,None,533.1462716150004,None,,,,,,,,,,,,,,,,,,,,,,,,,,,,,,,,,,,,,,,,,,,,001,58,2020_Feb_04_1042,spring_faces,3.1.5,59.92162562957524,
condition files/Stage0b_2.xlsx,0b,beta,none,g,"['h', 'g']","['Chess', 'Go']","[-0.15, 0.5]","[0.15, 0.5]",1,0,0,9,9,9,0,1,1,1,,,,,,,,,,,,,,,,,,,,,,,,,,,,,,,,,,,,,,,,,,,,,,,,,,,,,,,,,,,,,,,535.1130147159997,None,535.1130147159997,None,535.1130147159997,None,g,1,0.7166565380002794,536.6631517219998,None,536.6631517219998,None,536.6631517219998,None,537.4307144720001,None,537.4307144720001,None,537.4307144720001,None,537.4307144720001,None,,,,,,,,,,,,,,,,,,,,,,,,,,,,,,,,,,,,,,,,,,,,001,58,2020_Feb_04_1042,spring_faces,3.1.5,59.92162562957524,
condition files/Stage0b_1.xlsx,0b,none,beta,g,"['h', 'g']","['Chess', 'Go']","[-0.15, 0.5]","[0.15, 0.5]",0,1,0,10,10,10,0,0,0,1,,,,,,,,,,,,,,,,,,,,,,,,,,,,,,,,,,,,,,,,,,,,,,,,,,,,,,,,,,,,,,,539.4131244160003,None,539.4131244160003,None,539.4131244160003,None,g,1,1.565983321999738,540.9498533950004,None,540.9498533950004,None,540.9498533950004,None,542.5798600169996,None,542.5798600169996,None,542.5798600169996,None,542.5798600169996,None,,,,,,,,,,,,,,,,,,,,,,,,,,,,,,,,,,,,,,,,,,,,001,58,2020_Feb_04_1042,spring_faces,3.1.5,59.92162562957524,
condition files/Stage0b_1.xlsx,0b,alpha,none,h,"['h', 'g']","['Chess', 'Go']","[-0.15, 0.5]","[0.15, 0.5]",1,0,0,10,10,10,0,1,1,0,,,,,,,,,,,,,,,,,,,,,,,,,,,,,,,,,,,,,,,,,,,,,,,,,,,,,,,,,,,,,,,544.5463235720003,None,544.5463235720003,None,544.5463235720003,None,h,1,1.1188293530003648,546.085039823,None,546.085039823,None,546.085039823,None,547.2646458730001,None,547.2646458730001,None,547.2646458730001,None,547.2646458730001,None,,,,,,,,,,,,,,,,,,,,,,,,,,,,,,,,,,,,,,,,,,,,001,58,2020_Feb_04_1042,spring_faces,3.1.5,59.92162562957524,
condition files/Stage0b_2.xlsx,0b,beta,none,g,"['h', 'g']","['Chess', 'Go']","[-0.15, 0.5]","[0.15, 0.5]",1,0,0,11,11,11,0,0,0,1,,,,,,,,,,,,,,,,,,,,,,,,,,,,,,,,,,,,,,,,,,,,,,,,,,,,,,,,,,,,,,,549.2464000479999,None,549.2464000479999,None,549.2464000479999,None,g,1,1.4161841710001681,550.779618348,None,550.779618348,None,550.779618348,None,552.2464244770003,None,552.2464244770003,None,552.2464244770003,None,552.2464244770003,None,,,,,,,,,,,,,,,,,,,,,,,,,,,,,,,,,,,,,,,,,,,,001,58,2020_Feb_04_1042,spring_faces,3.1.5,59.92162562957524,
condition files/Stage0b_2.xlsx,0b,none,alpha,h,"['h', 'g']","['Chess', 'Go']","[-0.15, 0.5]","[0.15, 0.5]",0,1,0,11,11,11,0,1,1,0,,,,,,,,,,,,,,,,,,,,,,,,,,,,,,,,,,,,,,,,,,,,,,,,,,,,,,,,,,,,,,,554.2122974919998,None,554.2122974919998,None,554.2122974919998,None,h,1,1.517038725999555,555.7507654790002,None,555.7507654790002,None,555.7507654790002,None,557.3323157999998,None,557.3323157999998,None,557.3323157999998,None,557.3323157999998,None,,,,,,,,,,,,,,,,,,,,,,,,,,,,,,,,,,,,,,,,,,,,001,58,2020_Feb_04_1042,spring_faces,3.1.5,59.92162562957524,
condition files/Stage0c_1.xlsx,0c,phi,beta,g,"['h', 'g']","['Chess', 'Go']","[-0.15, 0.5]","[0.15, 0.5]",1,1,0,12,12,12,0,0,0,3,,,,,,,,,,,,,,,,,,,,,,,,,,,,,,,,,,,,,,,,,,,,,,,,,,,,,,,,,,,,,,,559.3129867700004,None,559.3129867700004,None,559.3129867700004,None,g,1,3.4296033259997785,560.8462163489999,None,560.8462163489999,None,560.8462163489999,None,564.3296446159998,None,564.3296446159998,None,564.3296446159998,None,564.3296446159998,None,,,,,,,,,,,,,,,,,,,,,,,,,,,,,,,,,,,,,,,,,,,,001,58,2020_Feb_04_1042,spring_faces,3.1.5,59.92162562957524,
condition files/Stage0c_1.xlsx,0c,theta,alpha,h,"['h', 'g']","['Chess', 'Go']","[-0.15, 0.5]","[0.15, 0.5]",1,1,0,12,12,12,0,1,1,0,,,,,,,,,,,,,,,,,,,,,,,,,,,,,,,,,,,,,,,,,,,,,,,,,,,,,,,,,,,,,,,566.2963329689996,None,566.2963329689996,None,566.2963329689996,None,h,1,1.534469934000299,567.8293129660001,None,567.8293129660001,None,567.8293129660001,None,569.4299169070005,None,569.4299169070005,None,569.4299169070005,None,569.4299169070005,None,,,,,,,,,,,,,,,,,,,,,,,,,,,,,,,,,,,,,,,,,,,,001,58,2020_Feb_04_1042,spring_faces,3.1.5,59.92162562957524,
condition files/Stage0c_1.xlsx,0c,alpha,phi,h,"['h', 'g']","['Chess', 'Go']","[-0.15, 0.5]","[0.15, 0.5]",1,1,0,12,12,12,0,2,2,1,,,,,,,,,,,,,,,,,,,,,,,,,,,,,,,,,,,,,,,,,,,,,,,,,,,,,,,,,,,,,,,571.3963279300001,None,571.3963279300001,None,571.3963279300001,None,h,1,2.577913007999996,572.9298710950002,None,572.9298710950002,None,572.9298710950002,None,575.5501928380004,None,575.5501928380004,None,575.5501928380004,None,575.5501928380004,None,,,,,,,,,,,,,,,,,,,,,,,,,,,,,,,,,,,,,,,,,,,,001,58,2020_Feb_04_1042,spring_faces,3.1.5,59.92162562957524,
condition files/Stage0c_1.xlsx,0c,beta,theta,g,"['h', 'g']","['Chess', 'Go']","[-0.15, 0.5]","[0.15, 0.5]",1,1,0,12,12,12,0,3,3,2,,,,,,,,,,,,,,,,,,,,,,,,,,,,,,,,,,,,,,,,,,,,,,,,,,,,,,,,,,,,,,,577.5297453640001,None,577.5297453640001,None,577.5297453640001,None,g,1,1.1008079299999736,579.0629756180001,None,579.0629756180001,None,579.0629756180001,None,580.2299564179998,None,580.2299564179998,None,580.2299564179998,None,580.2299564179998,None,,,,,,,,,,,,,,,,,,,,,,,,,,,,,,,,,,,,,,,,,,,,001,58,2020_Feb_04_1042,spring_faces,3.1.5,59.92162562957524,
condition files/Stage0c_2.xlsx,0c,theta,beta,g,"['h', 'g']","['Chess', 'Go']","[-0.15, 0.5]","[0.15, 0.5]",1,1,0,13,13,13,0,0,0,2,,,,,,,,,,,,,,,,,,,,,,,,,,,,,,,,,,,,,,,,,,,,,,,,,,,,,,,,,,,,,,,582.2132777700003,None,582.2132777700003,None,582.2132777700003,None,g,1,0.8176600200004032,583.7461114519997,None,583.7461114519997,None,583.7461114519997,None,584.6135033180003,None,584.6135033180003,None,584.6135033180003,None,584.6135033180003,None,,,,,,,,,,,,,,,,,,,,,,,,,,,,,,,,,,,,,,,,,,,,001,58,2020_Feb_04_1042,spring_faces,3.1.5,59.92162562957524,
condition files/Stage0c_2.xlsx,0c,phi,alpha,h,"['h', 'g']","['Chess', 'Go']","[-0.15, 0.5]","[0.15, 0.5]",1,1,0,13,13,13,0,1,1,1,,,,,,,,,,,,,,,,,,,,,,,,,,,,,,,,,,,,,,,,,,,,,,,,,,,,,,,,,,,,,,,586.5963103440004,None,586.5963103440004,None,586.5963103440004,None,h,1,1.1702315030006503,588.1295810380002,None,588.1295810380002,None,588.1295810380002,None,589.3629473859996,None,589.3629473859996,None,589.3629473859996,None,589.3629473859996,None,,,,,,,,,,,,,,,,,,,,,,,,,,,,,,,,,,,,,,,,,,,,001,58,2020_Feb_04_1042,spring_faces,3.1.5,59.92162562957524,
condition files/Stage0c_2.xlsx,0c,alpha,theta,h,"['h', 'g']","['Chess', 'Go']","[-0.15, 0.5]","[0.15, 0.5]",1,1,0,13,13,13,0,2,2,0,,,,,,,,,,,,,,,,,,,,,,,,,,,,,,,,,,,,,,,,,,,,,,,,,,,,,,,,,,,,,,,591.3289087150001,None,591.3289087150001,None,591.3289087150001,None,h,1,1.5091855210002905,592.8626781309999,None,592.8626781309999,None,592.8626781309999,None,594.4144575400001,None,594.4144575400001,None,594.4144575400001,None,594.4144575400001,None,,,,,,,,,,,,,,,,,,,,,,,,,,,,,,,,,,,,,,,,,,,,001,58,2020_Feb_04_1042,spring_faces,3.1.5,59.92162562957524,
condition files/Stage0c_2.xlsx,0c,beta,phi,g,"['h', 'g']","['Chess', 'Go']","[-0.15, 0.5]","[0.15, 0.5]",1,1,0,13,13,13,0,3,3,3,,,,,,,,,,,,,,,,,,,,,,,,,,,,,,,,,,,,,,,,,,,,,,,,,,,,,,,,,,,,,,,596.3963320030002,None,596.3963320030002,None,596.3963320030002,None,g,1,0.9698552529998778,597.9299666000002,None,597.9299666000002,None,597.9299666000002,None,598.9626497249997,None,598.9626497249997,None,598.9626497249997,None,598.9626497249997,None,,,,,,,,,,,,,,,,,,,,,,,,,,,,,,,,,,,,,,,,,,,,001,58,2020_Feb_04_1042,spring_faces,3.1.5,59.92162562957524,
condition files/Stage0c_1.xlsx,0c,beta,theta,g,"['h', 'g']","['Chess', 'Go']","[-0.15, 0.5]","[0.15, 0.5]",1,1,0,14,14,14,0,0,0,2,,,,,,,,,,,,,,,,,,,,,,,,,,,,,,,,,,,,,,,,,,,,,,,,,,,,,,,,,,,,,,,600.9464878089998,None,600.9464878089998,None,600.9464878089998,None,g,1,1.3957771909999792,602.4800183109996,None,602.4800183109996,None,602.4800183109996,None,603.9156580439999,None,603.9156580439999,None,603.9156580439999,None,603.9156580439999,None,,,,,,,,,,,,,,,,,,,,,,,,,,,,,,,,,,,,,,,,,,,,001,58,2020_Feb_04_1042,spring_faces,3.1.5,59.92162562957524,
condition files/Stage0c_1.xlsx,0c,theta,alpha,h,"['h', 'g']","['Chess', 'Go']","[-0.15, 0.5]","[0.15, 0.5]",1,1,0,14,14,14,0,1,1,0,,,,,,,,,,,,,,,,,,,,,,,,,,,,,,,,,,,,,,,,,,,,,,,,,,,,,,,,,,,,,,,605.8963356420004,None,605.8963356420004,None,605.8963356420004,None,h,1,0.7818941460000133,607.4299130840004,None,607.4299130840004,None,607.4299130840004,None,608.2634959689999,None,608.2634959689999,None,608.2634959689999,None,608.2634959689999,None,,,,,,,,,,,,,,,,,,,,,,,,,,,,,,,,,,,,,,,,,,,,001,58,2020_Feb_04_1042,spring_faces,3.1.5,59.92162562957524,
condition files/Stage0c_1.xlsx,0c,phi,beta,g,"['h', 'g']","['Chess', 'Go']","[-0.15, 0.5]","[0.15, 0.5]",1,1,0,14,14,14,0,2,2,3,,,,,,,,,,,,,,,,,,,,,,,,,,,,,,,,,,,,,,,,,,,,,,,,,,,,,,,,,,,,,,,610.2297070879999,None,610.2297070879999,None,610.2297070879999,None,g,1,0.7688094839995756,611.7630047220005,None,611.7630047220005,None,611.7630047220005,None,612.5967298290002,None,612.5967298290002,None,612.5967298290002,None,612.5967298290002,None,,,,,,,,,,,,,,,,,,,,,,,,,,,,,,,,,,,,,,,,,,,,001,58,2020_Feb_04_1042,spring_faces,3.1.5,59.92162562957524,
condition files/Stage0c_1.xlsx,0c,alpha,phi,h,"['h', 'g']","['Chess', 'Go']","[-0.15, 0.5]","[0.15, 0.5]",1,1,0,14,14,14,0,3,3,1,,,,,,,,,,,,,,,,,,,,,,,,,,,,,,,,,,,,,,,,,,,,,,,,,,,,,,,,,,,,,,,614.5650238659996,None,614.5650238659996,None,614.5650238659996,None,h,1,2.7711383079995358,616.0966705060005,None,616.0966705060005,None,616.0966705060005,None,618.9298921719997,None,618.9298921719997,None,618.9298921719997,None,618.9298921719997,None,,,,,,,,,,,,,,,,,,,,,,,,,,,,,,,,,,,,,,,,,,,,001,58,2020_Feb_04_1042,spring_faces,3.1.5,59.92162562957524,
condition files/Stage0c_2.xlsx,0c,beta,phi,g,"['h', 'g']","['Chess', 'Go']","[-0.15, 0.5]","[0.15, 0.5]",1,1,0,15,15,15,0,0,0,3,,,,,,,,,,,,,,,,,,,,,,,,,,,,,,,,,,,,,,,,,,,,,,,,,,,,,,,,,,,,,,,620.9130788440002,None,620.9130788440002,None,620.9130788440002,None,g,1,0.725878453000405,622.4300103979999,None,622.4300103979999,None,622.4300103979999,None,623.2134277179998,None,623.2134277179998,None,623.2134277179998,None,623.2134277179998,None,,,,,,,,,,,,,,,,,,,,,,,,,,,,,,,,,,,,,,,,,,,,001,58,2020_Feb_04_1042,spring_faces,3.1.5,59.92162562957524,
condition files/Stage0c_2.xlsx,0c,theta,beta,g,"['h', 'g']","['Chess', 'Go']","[-0.15, 0.5]","[0.15, 0.5]",1,1,0,15,15,15,0,1,1,2,,,,,,,,,,,,,,,,,,,,,,,,,,,,,,,,,,,,,,,,,,,,,,,,,,,,,,,,,,,,,,,625.179711837,None,625.179711837,None,625.179711837,None,g,1,1.5621914839994133,626.7136194210002,None,626.7136194210002,None,626.7136194210002,None,628.3139718879997,None,628.3139718879997,None,628.3139718879997,None,628.3139718879997,None,,,,,,,,,,,,,,,,,,,,,,,,,,,,,,,,,,,,,,,,,,,,001,58,2020_Feb_04_1042,spring_faces,3.1.5,59.92162562957524,
condition files/Stage0c_2.xlsx,0c,phi,alpha,h,"['h', 'g']","['Chess', 'Go']","[-0.15, 0.5]","[0.15, 0.5]",1,1,0,15,15,15,0,2,2,1,,,,,,,,,,,,,,,,,,,,,,,,,,,,,,,,,,,,,,,,,,,,,,,,,,,,,,,,,,,,,,,630.2961016969998,None,630.2961016969998,None,630.2961016969998,None,h,1,0.8623881489993437,631.8293868559999,None,631.8293868559999,None,631.8293868559999,None,632.7465901990004,None,632.7465901990004,None,632.7465901990004,None,632.7465901990004,None,,,,,,,,,,,,,,,,,,,,,,,,,,,,,,,,,,,,,,,,,,,,001,58,2020_Feb_04_1042,spring_faces,3.1.5,59.92162562957524,
condition files/Stage0c_2.xlsx,0c,alpha,theta,h,"['h', 'g']","['Chess', 'Go']","[-0.15, 0.5]","[0.15, 0.5]",1,1,0,15,15,15,0,3,3,0,,,,,,,,,,,,,,,,,,,,,,,,,,,,,,,,,,,,,,,,,,,,,,,,,,,,,,,,,,,,,,,634.7130394009996,None,634.7130394009996,None,634.7130394009996,None,h,1,1.164878427000076,636.2469304279998,None,636.2469304279998,None,636.2469304279998,None,637.4471176949996,None,637.4471176949996,None,637.4471176949996,None,637.4471176949996,None,,,,,,,,,,,,,,,,,,,,,,,,,,,,,,,,,,,,,,,,,,,,001,58,2020_Feb_04_1042,spring_faces,3.1.5,59.92162562957524,
condition files/Stage0c_1.xlsx,0c,theta,alpha,h,"['h', 'g']","['Chess', 'Go']","[-0.15, 0.5]","[0.15, 0.5]",1,1,0,16,16,16,0,0,0,0,,,,,,,,,,,,,,,,,,,,,,,,,,,,,,,,,,,,,,,,,,,,,,,,,,,,,,,,,,,,,,,639.4463487819999,None,639.4463487819999,None,639.4463487819999,None,h,1,0.7358382580005127,640.9799779219998,None,640.9799779219998,None,640.9799779219998,None,641.7643021050003,None,641.7643021050003,None,641.7643021050003,None,641.7643021050003,None,,,,,,,,,,,,,,,,,,,,,,,,,,,,,,,,,,,,,,,,,,,,001,58,2020_Feb_04_1042,spring_faces,3.1.5,59.92162562957524,
condition files/Stage0c_1.xlsx,0c,alpha,phi,h,"['h', 'g']","['Chess', 'Go']","[-0.15, 0.5]","[0.15, 0.5]",1,1,0,16,16,16,0,1,1,1,,,,,,,,,,,,,,,,,,,,,,,,,,,,,,,,,,,,,,,,,,,,,,,,,,,,,,,,,,,,,,,643.746270997,None,643.746270997,None,643.746270997,None,h,1,0.7720350359995791,645.2797900809996,None,645.2797900809996,None,645.2797900809996,None,646.0975217569999,None,646.0975217569999,None,646.0975217569999,None,646.0975217569999,None,,,,,,,,,,,,,,,,,,,,,,,,,,,,,,,,,,,,,,,,,,,,001,58,2020_Feb_04_1042,spring_faces,3.1.5,59.92162562957524,
condition files/Stage0c_1.xlsx,0c,phi,beta,g,"['h', 'g']","['Chess', 'Go']","[-0.15, 0.5]","[0.15, 0.5]",1,1,0,16,16,16,0,2,2,3,,,,,,,,,,,,,,,,,,,,,,,,,,,,,,,,,,,,,,,,,,,,,,,,,,,,,,,,,,,,,,,648.0796487490002,None,648.0796487490002,None,648.0796487490002,None,g,1,0.9349124680002205,649.6128466430005,None,649.6128466430005,None,649.6128466430005,None,650.6126119750002,None,650.6126119750002,None,650.6126119750002,None,650.6126119750002,None,,,,,,,,,,,,,,,,,,,,,,,,,,,,,,,,,,,,,,,,,,,,001,58,2020_Feb_04_1042,spring_faces,3.1.5,59.92162562957524,
condition files/Stage0c_1.xlsx,0c,beta,theta,g,"['h', 'g']","['Chess', 'Go']","[-0.15, 0.5]","[0.15, 0.5]",1,1,0,16,16,16,0,3,3,2,,,,,,,,,,,,,,,,,,,,,,,,,,,,,,,,,,,,,,,,,,,,,,,,,,,,,,,,,,,,,,,652.5794769620002,None,652.5794769620002,None,652.5794769620002,None,g,1,0.5792827199993553,654.1125002100002,None,654.1125002100002,None,654.1125002100002,None,654.7465925950005,None,654.7465925950005,None,654.7465925950005,None,654.7465925950005,None,,,,,,,,,,,,,,,,,,,,,,,,,,,,,,,,,,,,,,,,,,,,001,58,2020_Feb_04_1042,spring_faces,3.1.5,59.92162562957524,
condition files/Stage0c_2.xlsx,0c,beta,phi,g,"['h', 'g']","['Chess', 'Go']","[-0.15, 0.5]","[0.15, 0.5]",1,1,0,17,17,17,0,0,0,3,,,,,,,,,,,,,,,,,,,,,,,,,,,,,,,,,,,,,,,,,,,,,,,,,,,,,,,,,,,,,,,656.7293385409998,None,656.7293385409998,None,656.7293385409998,None,g,1,0.8766845339996507,658.263188595,None,658.263188595,None,658.263188595,None,659.1804986499997,None,659.1804986499997,None,659.1804986499997,None,659.1804986499997,None,,,,,,,,,,,,,,,,,,,,,,,,,,,,,,,,,,,,,,,,,,,,001,58,2020_Feb_04_1042,spring_faces,3.1.5,59.92162562957524,
condition files/Stage0c_2.xlsx,0c,theta,beta,g,"['h', 'g']","['Chess', 'Go']","[-0.15, 0.5]","[0.15, 0.5]",1,1,0,17,17,17,0,1,1,2,,,,,,,,,,,,,,,,,,,,,,,,,,,,,,,,,,,,,,,,,,,,,,,,,,,,,,,,,,,,,,,661.1628876830005,None,661.1628876830005,None,661.1628876830005,None,g,1,1.1312430280004264,662.6965651240002,None,662.6965651240002,None,662.6965651240002,None,663.8641255819998,None,663.8641255819998,None,663.8641255819998,None,663.8641255819998,None,,,,,,,,,,,,,,,,,,,,,,,,,,,,,,,,,,,,,,,,,,,,001,58,2020_Feb_04_1042,spring_faces,3.1.5,59.92162562957524,
condition files/Stage0c_2.xlsx,0c,phi,alpha,h,"['h', 'g']","['Chess', 'Go']","[-0.15, 0.5]","[0.15, 0.5]",1,1,0,17,17,17,0,2,2,1,,,,,,,,,,,,,,,,,,,,,,,,,,,,,,,,,,,,,,,,,,,,,,,,,,,,,,,,,,,,,,,665.8464049340005,None,665.8464049340005,None,665.8464049340005,None,h,1,0.9437147700000423,667.3801718420004,None,667.3801718420004,None,667.3801718420004,None,668.379849984,None,668.379849984,None,668.379849984,None,668.379849984,None,,,,,,,,,,,,,,,,,,,,,,,,,,,,,,,,,,,,,,,,,,,,001,58,2020_Feb_04_1042,spring_faces,3.1.5,59.92162562957524,
condition files/Stage0c_2.xlsx,0c,alpha,theta,h,"['h', 'g']","['Chess', 'Go']","[-0.15, 0.5]","[0.15, 0.5]",1,1,0,17,17,17,0,3,3,0,,,,,,,,,,,,,,,,,,,,,,,,,,,,,,,,,,,,,,,,,,,,,,,,,,,,,,,,,,,,,,,670.3456425299996,None,670.3456425299996,None,670.3456425299996,None,h,1,1.0039614260003873,671.8798602709999,None,671.8798602709999,None,671.8798602709999,None,672.9295944990004,None,672.9295944990004,None,672.9295944990004,None,672.9295944990004,None,,,,,,,,,,,,,,,,,,,,,,,,,,,,,,,,,,,,,,,,,,,,001,58,2020_Feb_04_1042,spring_faces,3.1.5,59.92162562957524,
,,,,,,,,,,,,,,,,,,,,,,,,,,,,,,,,,,,,,,,,,,,,,,,,,,,,,,,,,,,,,,,,,,,,,,,,,,,,,,,,,,,,,,,,,,,,,,,,,,,,,,,,674.9301837910002,None,space,5.002075620999676,679.929734547,None,,,,,,,,,,,,,,,,,,,,,,,,,,,,,,,,,,,,,,001,58,2020_Feb_04_1042,spring_faces,3.1.5,59.92162562957524,
condition files/Stage1_1.xlsx,,B1,T2,c,"['c', 'm']","['Clue', 'Monopoly']","[-0.15, 0.5]","[0.15, 0.5]",1,1,,,,,,,,,0,0,0,0,0,0,0,1,,,,,,,,,,,,,,,,,,,,,,,,,,,,,,,,,,,,,,,,,,,,,,,,,,,,,,,684.9960313120005,None,684.9960313120005,None,684.9960313120005,None,c,1,2.5759545020000587,686.5799452280003,None,686.5799452280003,None,686.5799452280003,None,689.2297832079998,None,689.2297832079998,None,689.2297832079998,None,689.2297832079998,None,,,,,,,679.929734547,None,,,,,,,,,,,,,,,,,,,,,,,,,,,,,,,,,,,,001,58,2020_Feb_04_1042,spring_faces,3.1.5,59.92162562957524,
condition files/Stage1_1.xlsx,,T1,B1,c,"['c', 'm']","['Clue', 'Monopoly']","[-0.15, 0.5]","[0.15, 0.5]",1,1,,,,,,,,,0,0,0,0,0,1,1,0,,,,,,,,,,,,,,,,,,,,,,,,,,,,,,,,,,,,,,,,,,,,,,,,,,,,,,,691.1796827379999,None,691.1796827379999,None,691.1796827379999,None,m,0,1.431545491000179,692.7642823310002,None,692.7642823310002,None,692.7642823310002,None,694.2464899130005,None,694.2464899130005,None,694.2464899130005,None,694.2464899130005,None,,,,,,,,,,,,,,,,,,,,,,,,,,,,,,,,,,,,,,,,,,,,001,58,2020_Feb_04_1042,spring_faces,3.1.5,59.92162562957524,
condition files/Stage1_1.xlsx,,T4,B3,m,"['c', 'm']","['Clue', 'Monopoly']","[-0.15, 0.5]","[0.15, 0.5]",1,1,,,,,,,,,0,0,0,0,0,2,2,6,,,,,,,,,,,,,,,,,,,,,,,,,,,,,,,,,,,,,,,,,,,,,,,,,,,,,,,696.2130642939997,None,696.2130642939997,None,696.2130642939997,None,m,1,0.8011759030005123,697.7626100980001,None,697.7626100980001,None,697.7626100980001,None,698.6295604499996,None,698.6295604499996,None,698.6295604499996,None,698.6295604499996,None,,,,,,,,,,,,,,,,,,,,,,,,,,,,,,,,,,,,,,,,,,,,001,58,2020_Feb_04_1042,spring_faces,3.1.5,59.92162562957524,
condition files/Stage1_1.xlsx,,T3,B4,c,"['c', 'm']","['Clue', 'Monopoly']","[-0.15, 0.5]","[0.15, 0.5]",1,1,,,,,,,,,0,0,0,0,0,3,3,5,,,,,,,,,,,,,,,,,,,,,,,,,,,,,,,,,,,,,,,,,,,,,,,,,,,,,,,700.5963704680003,None,700.5963704680003,None,700.5963704680003,None,c,1,0.9284866269999839,702.163291718,None,702.163291718,None,702.163291718,None,703.1466751410003,None,703.1466751410003,None,703.1466751410003,None,703.1466751410003,None,,,,,,,,,,,,,,,,,,,,,,,,,,,,,,,,,,,,,,,,,,,,001,58,2020_Feb_04_1042,spring_faces,3.1.5,59.92162562957524,
condition files/Stage1_1.xlsx,,B2,T1,m,"['c', 'm']","['Clue', 'Monopoly']","[-0.15, 0.5]","[0.15, 0.5]",1,1,,,,,,,,,0,0,0,0,0,4,4,2,,,,,,,,,,,,,,,,,,,,,,,,,,,,,,,,,,,,,,,,,,,,,,,,,,,,,,,705.1131333170001,None,705.1131333170001,None,705.1131333170001,None,m,1,0.9068122749995382,706.7130690400004,None,706.7130690400004,None,706.7130690400004,None,707.6966914930003,None,707.6966914930003,None,707.6966914930003,None,707.6966914930003,None,,,,,,,,,,,,,,,,,,,,,,,,,,,,,,,,,,,,,,,,,,,,001,58,2020_Feb_04_1042,spring_faces,3.1.5,59.92162562957524,
condition files/Stage1_1.xlsx,,B4,T4,m,"['c', 'm']","['Clue', 'Monopoly']","[-0.15, 0.5]","[0.15, 0.5]",1,1,,,,,,,,,0,0,0,0,0,5,5,7,,,,,,,,,,,,,,,,,,,,,,,,,,,,,,,,,,,,,,,,,,,,,,,,,,,,,,,709.6463500730001,None,709.6463500730001,None,709.6463500730001,None,c,0,0.9198169949995645,711.1800070619997,None,711.1800070619997,None,711.1800070619997,None,712.1635543919997,None,712.1635543919997,None,712.1635543919997,None,712.1635543919997,None,,,,,,,,,,,,,,,,,,,,,,,,,,,,,,,,,,,,,,,,,,,,001,58,2020_Feb_04_1042,spring_faces,3.1.5,59.92162562957524,
condition files/Stage1_1.xlsx,,B3,T3,c,"['c', 'm']","['Clue', 'Monopoly']","[-0.15, 0.5]","[0.15, 0.5]",1,1,,,,,,,,,0,0,0,0,0,6,6,4,,,,,,,,,,,,,,,,,,,,,,,,,,,,,,,,,,,,,,,,,,,,,,,,,,,,,,,714.1294366770003,None,714.1294366770003,None,714.1294366770003,None,m,0,1.268783832999361,715.6630294259999,None,715.6630294259999,None,715.6630294259999,None,716.9976911380004,None,716.9976911380004,None,716.9976911380004,None,716.9976911380004,None,,,,,,,,,,,,,,,,,,,,,,,,,,,,,,,,,,,,,,,,,,,,001,58,2020_Feb_04_1042,spring_faces,3.1.5,59.92162562957524,
condition files/Stage1_1.xlsx,,T2,B2,m,"['c', 'm']","['Clue', 'Monopoly']","[-0.15, 0.5]","[0.15, 0.5]",1,1,,,,,,,,,0,0,0,0,0,7,7,3,,,,,,,,,,,,,,,,,,,,,,,,,,,,,,,,,,,,,,,,,,,,,,,,,,,,,,,718.9630385149999,None,718.9630385149999,None,718.9630385149999,None,c,0,1.3955986230002964,720.496235911,None,720.496235911,None,720.496235911,None,721.9479091179996,None,721.9479091179996,None,721.9479091179996,None,721.9479091179996,None,,,,,,,,,,,,,,,,,,,,,,,,,,,,,,,,,,,,,,,,,,,,001,58,2020_Feb_04_1042,spring_faces,3.1.5,59.92162562957524,
condition files/Stage1_2.xlsx,,B3,T4,m,"['c', 'm']","['Clue', 'Monopoly']","[-0.15, 0.5]","[0.15, 0.5]",1,1,,,,,,,,,0,1,1,1,0,0,0,6,,,,,,,,,,,,,,,,,,,,,,,,,,,,,,,,,,,,,,,,,,,,,,,,,,,,,,,723.9299020089998,None,723.9299020089998,None,723.9299020089998,None,c,0,0.859731290000127,725.4640376550001,None,725.4640376550001,None,725.4640376550001,None,726.3794481549999,None,726.3794481549999,None,726.3794481549999,None,726.3794481549999,None,,,,,,,,,,,,,,,,,,,,,,,,,,,,,,,,,,,,,,,,,,,,001,58,2020_Feb_04_1042,spring_faces,3.1.5,59.92162562957524,
condition files/Stage1_2.xlsx,,B4,T3,c,"['c', 'm']","['Clue', 'Monopoly']","[-0.15, 0.5]","[0.15, 0.5]",1,1,,,,,,,,,0,1,1,1,0,1,1,5,,,,,,,,,,,,,,,,,,,,,,,,,,,,,,,,,,,,,,,,,,,,,,,,,,,,,,,728.3454754589998,None,728.3454754589998,None,728.3454754589998,None,m,0,0.9083514040003138,729.8795446600002,None,729.8795446600002,None,729.8795446600002,None,730.8464466150003,None,730.8464466150003,None,730.8464466150003,None,730.8464466150003,None,,,,,,,,,,,,,,,,,,,,,,,,,,,,,,,,,,,,,,,,,,,,001,58,2020_Feb_04_1042,spring_faces,3.1.5,59.92162562957524,
condition files/Stage1_2.xlsx,,B1,T1,c,"['c', 'm']","['Clue', 'Monopoly']","[-0.15, 0.5]","[0.15, 0.5]",1,1,,,,,,,,,0,1,1,1,0,2,2,0,,,,,,,,,,,,,,,,,,,,,,,,,,,,,,,,,,,,,,,,,,,,,,,,,,,,,,,732.8127723279999,None,732.8127723279999,None,732.8127723279999,None,c,1,0.8253029219995369,734.3625866730004,None,734.3625866730004,None,734.3625866730004,None,735.246553945,None,735.246553945,None,735.246553945,None,735.246553945,None,,,,,,,,,,,,,,,,,,,,,,,,,,,,,,,,,,,,,,,,,,,,001,58,2020_Feb_04_1042,spring_faces,3.1.5,59.92162562957524,
condition files/Stage1_2.xlsx,,T2,B1,c,"['c', 'm']","['Clue', 'Monopoly']","[-0.15, 0.5]","[0.15, 0.5]",1,1,,,,,,,,,0,1,1,1,0,3,3,1,,,,,,,,,,,,,,,,,,,,,,,,,,,,,,,,,,,,,,,,,,,,,,,,,,,,,,,737.2130809320001,None,737.2130809320001,None,737.2130809320001,None,c,1,1.6098143130002427,738.7460925649998,None,738.7460925649998,None,738.7460925649998,None,740.4132127770004,None,740.4132127770004,None,740.4132127770004,None,740.4132127770004,None,,,,,,,,,,,,,,,,,,,,,,,,,,,,,,,,,,,,,,,,,,,,001,58,2020_Feb_04_1042,spring_faces,3.1.5,59.92162562957524,
condition files/Stage1_2.xlsx,,B2,T2,m,"['c', 'm']","['Clue', 'Monopoly']","[-0.15, 0.5]","[0.15, 0.5]",1,1,,,,,,,,,0,1,1,1,0,4,4,3,,,,,,,,,,,,,,,,,,,,,,,,,,,,,,,,,,,,,,,,,,,,,,,,,,,,,,,742.3792950250004,None,742.3792950250004,None,742.3792950250004,None,c,0,1.5629891069993391,743.9128404409998,None,743.9128404409998,None,743.9128404409998,None,745.5301968810004,None,745.5301968810004,None,745.5301968810004,None,745.5301968810004,None,,,,,,,,,,,,,,,,,,,,,,,,,,,,,,,,,,,,,,,,,,,,001,58,2020_Feb_04_1042,spring_faces,3.1.5,59.92162562957524,
condition files/Stage1_2.xlsx,,T4,B4,m,"['c', 'm']","['Clue', 'Monopoly']","[-0.15, 0.5]","[0.15, 0.5]",1,1,,,,,,,,,0,1,1,1,0,5,5,7,,,,,,,,,,,,,,,,,,,,,,,,,,,,,,,,,,,,,,,,,,,,,,,,,,,,,,,747.4965328020003,None,747.4965328020003,None,747.4965328020003,None,m,1,0.830224592000377,749.0296932050001,None,749.0296932050001,None,749.0296932050001,None,749.9127959840002,None,749.9127959840002,None,749.9127959840002,None,749.9127959840002,None,,,,,,,,,,,,,,,,,,,,,,,,,,,,,,,,,,,,,,,,,,,,001,58,2020_Feb_04_1042,spring_faces,3.1.5,59.92162562957524,
condition files/Stage1_2.xlsx,,T1,B2,m,"['c', 'm']","['Clue', 'Monopoly']","[-0.15, 0.5]","[0.15, 0.5]",1,1,,,,,,,,,0,1,1,1,0,6,6,2,,,,,,,,,,,,,,,,,,,,,,,,,,,,,,,,,,,,,,,,,,,,,,,,,,,,,,,751.8791515899998,None,751.8791515899998,None,751.8791515899998,None,c,0,0.958106836999832,753.4137875090005,None,753.4137875090005,None,753.4137875090005,None,754.4304181620005,None,754.4304181620005,None,754.4304181620005,None,754.4304181620005,None,,,,,,,,,,,,,,,,,,,,,,,,,,,,,,,,,,,,,,,,,,,,001,58,2020_Feb_04_1042,spring_faces,3.1.5,59.92162562957524,
condition files/Stage1_2.xlsx,,T3,B3,c,"['c', 'm']","['Clue', 'Monopoly']","[-0.15, 0.5]","[0.15, 0.5]",1,1,,,,,,,,,0,1,1,1,0,7,7,4,,,,,,,,,,,,,,,,,,,,,,,,,,,,,,,,,,,,,,,,,,,,,,,,,,,,,,,756.3963722889998,None,756.3963722889998,None,756.3963722889998,None,m,0,1.2577964709998923,757.9460929069996,None,757.9460929069996,None,757.9460929069996,None,759.2640989440001,None,759.2640989440001,None,759.2640989440001,None,759.2640989440001,None,,,,,,,,,,,,,,,,,,,,,,,,,,,,,,,,,,,,,,,,,,,,001,58,2020_Feb_04_1042,spring_faces,3.1.5,59.92162562957524,
condition files/Stage1_1.xlsx,,B2,T1,m,"['c', 'm']","['Clue', 'Monopoly']","[-0.15, 0.5]","[0.15, 0.5]",1,1,,,,,,,,,0,2,2,2,0,0,0,2,,,,,,,,,,,,,,,,,,,,,,,,,,,,,,,,,,,,,,,,,,,,,,,,,,,,,,,761.2464669940005,None,761.2464669940005,None,761.2464669940005,None,c,0,2.856424077999691,762.7794764360001,None,762.7794764360001,None,762.7794764360001,None,765.7133456619999,None,765.7133456619999,None,765.7133456619999,None,765.7133456619999,None,,,,,,,,,,,,,,,,,,,,,,,,,,,,,,,,,,,,,,,,,,,,001,58,2020_Feb_04_1042,spring_faces,3.1.5,59.92162562957524,
condition files/Stage1_1.xlsx,,B1,T2,c,"['c', 'm']","['Clue', 'Monopoly']","[-0.15, 0.5]","[0.15, 0.5]",1,1,,,,,,,,,0,2,2,2,0,1,1,1,,,,,,,,,,,,,,,,,,,,,,,,,,,,,,,,,,,,,,,,,,,,,,,,,,,,,,,767.6630286100003,None,767.6630286100003,None,767.6630286100003,None,c,1,1.7835728660002133,769.1962079290001,None,769.1962079290001,None,769.1962079290001,None,771.0310447220004,None,771.0310447220004,None,771.0310447220004,None,771.0310447220004,None,,,,,,,,,,,,,,,,,,,,,,,,,,,,,,,,,,,,,,,,,,,,001,58,2020_Feb_04_1042,spring_faces,3.1.5,59.92162562957524,
condition files/Stage1_1.xlsx,,B4,T4,m,"['c', 'm']","['Clue', 'Monopoly']","[-0.15, 0.5]","[0.15, 0.5]",1,1,,,,,,,,,0,2,2,2,0,2,2,7,,,,,,,,,,,,,,,,,,,,,,,,,,,,,,,,,,,,,,,,,,,,,,,,,,,,,,,772.9959191579997,None,772.9959191579997,None,772.9959191579997,None,c,0,2.017734035000103,774.5300472129998,None,774.5300472129998,None,774.5300472129998,None,776.6136289500005,None,776.6136289500005,None,776.6136289500005,None,776.6136289500005,None,,,,,,,,,,,,,,,,,,,,,,,,,,,,,,,,,,,,,,,,,,,,001,58,2020_Feb_04_1042,spring_faces,3.1.5,59.92162562957524,
condition files/Stage1_1.xlsx,,T3,B4,c,"['c', 'm']","['Clue', 'Monopoly']","[-0.15, 0.5]","[0.15, 0.5]",1,1,,,,,,,,,0,2,2,2,0,3,3,5,,,,,,,,,,,,,,,,,,,,,,,,,,,,,,,,,,,,,,,,,,,,,,,,,,,,,,,778.579089845,None,778.579089845,None,778.579089845,None,m,0,1.0428607399999237,780.1130683249999,None,780.1130683249999,None,780.1130683249999,None,781.2130155079999,None,781.2130155079999,None,781.2130155079999,None,781.2130155079999,None,,,,,,,,,,,,,,,,,,,,,,,,,,,,,,,,,,,,,,,,,,,,001,58,2020_Feb_04_1042,spring_faces,3.1.5,59.92162562957524,
condition files/Stage1_1.xlsx,,T4,B3,m,"['c', 'm']","['Clue', 'Monopoly']","[-0.15, 0.5]","[0.15, 0.5]",1,1,,,,,,,,,0,2,2,2,0,4,4,6,,,,,,,,,,,,,,,,,,,,,,,,,,,,,,,,,,,,,,,,,,,,,,,,,,,,,,,783.1793362220001,None,783.1793362220001,None,783.1793362220001,None,m,1,0.7625292900002023,784.7132586459998,None,784.7132586459998,None,784.7132586459998,None,785.5309282900002,None,785.5309282900002,None,785.5309282900002,None,785.5309282900002,None,,,,,,,,,,,,,,,,,,,,,,,,,,,,,,,,,,,,,,,,,,,,001,58,2020_Feb_04_1042,spring_faces,3.1.5,59.92162562957524,
condition files/Stage1_1.xlsx,,B3,T3,c,"['c', 'm']","['Clue', 'Monopoly']","[-0.15, 0.5]","[0.15, 0.5]",1,1,,,,,,,,,0,2,2,2,0,5,5,4,,,,,,,,,,,,,,,,,,,,,,,,,,,,,,,,,,,,,,,,,,,,,,,,,,,,,,,787.496114385,None,787.496114385,None,787.496114385,None,c,1,1.341340033999586,789.0465447419997,None,789.0465447419997,None,789.0465447419997,None,790.446733618,None,790.446733618,None,790.446733618,None,790.446733618,None,,,,,,,,,,,,,,,,,,,,,,,,,,,,,,,,,,,,,,,,,,,,001,58,2020_Feb_04_1042,spring_faces,3.1.5,59.92162562957524,
condition files/Stage1_1.xlsx,,T2,B2,m,"['c', 'm']","['Clue', 'Monopoly']","[-0.15, 0.5]","[0.15, 0.5]",1,1,,,,,,,,,0,2,2,2,0,6,6,3,,,,,,,,,,,,,,,,,,,,,,,,,,,,,,,,,,,,,,,,,,,,,,,,,,,,,,,792.4131466550002,None,792.4131466550002,None,792.4131466550002,None,c,0,0.5851896029998898,793.9466406229999,None,793.9466406229999,None,793.9466406229999,None,794.5994028540003,None,794.5994028540003,None,794.5994028540003,None,794.5994028540003,None,,,,,,,,,,,,,,,,,,,,,,,,,,,,,,,,,,,,,,,,,,,,001,58,2020_Feb_04_1042,spring_faces,3.1.5,59.92162562957524,
condition files/Stage1_1.xlsx,,T1,B1,c,"['c', 'm']","['Clue', 'Monopoly']","[-0.15, 0.5]","[0.15, 0.5]",1,1,,,,,,,,,0,2,2,2,0,7,7,0,,,,,,,,,,,,,,,,,,,,,,,,,,,,,,,,,,,,,,,,,,,,,,,,,,,,,,,796.5630099129999,None,796.5630099129999,None,796.5630099129999,None,c,1,1.0428394009995827,798.0970537870003,None,798.0970537870003,None,798.0970537870003,None,799.198072959,None,799.198072959,None,799.198072959,None,799.198072959,None,,,,,,,,,,,,,,,,,,,,,,,,,,,,,,,,,,,,,,,,,,,,001,58,2020_Feb_04_1042,spring_faces,3.1.5,59.92162562957524,
condition files/Stage1_2.xlsx,,T1,B2,m,"['c', 'm']","['Clue', 'Monopoly']","[-0.15, 0.5]","[0.15, 0.5]",1,1,,,,,,,,,0,3,3,3,0,0,0,2,,,,,,,,,,,,,,,,,,,,,,,,,,,,,,,,,,,,,,,,,,,,,,,,,,,,,,,801.1796678570004,None,801.1796678570004,None,801.1796678570004,None,c,0,1.658443520000219,802.7134655120003,None,802.7134655120003,None,802.7134655120003,None,804.4310353300002,None,804.4310353300002,None,804.4310353300002,None,804.4310353300002,None,,,,,,,,,,,,,,,,,,,,,,,,,,,,,,,,,,,,,,,,,,,,001,58,2020_Feb_04_1042,spring_faces,3.1.5,59.92162562957524,
condition files/Stage1_2.xlsx,,T2,B1,c,"['c', 'm']","['Clue', 'Monopoly']","[-0.15, 0.5]","[0.15, 0.5]",1,1,,,,,,,,,0,3,3,3,0,1,1,1,,,,,,,,,,,,,,,,,,,,,,,,,,,,,,,,,,,,,,,,,,,,,,,,,,,,,,,806.3964411510001,None,806.3964411510001,None,806.3964411510001,None,m,0,0.6340258440004618,807.9458081400003,None,807.9458081400003,None,807.9458081400003,None,808.6467546569997,None,808.6467546569997,None,808.6467546569997,None,808.6467546569997,None,,,,,,,,,,,,,,,,,,,,,,,,,,,,,,,,,,,,,,,,,,,,001,58,2020_Feb_04_1042,spring_faces,3.1.5,59.92162562957524,
condition files/Stage1_2.xlsx,,T3,B3,c,"['c', 'm']","['Clue', 'Monopoly']","[-0.15, 0.5]","[0.15, 0.5]",1,1,,,,,,,,,0,3,3,3,0,2,2,4,,,,,,,,,,,,,,,,,,,,,,,,,,,,,,,,,,,,,,,,,,,,,,,,,,,,,,,810.5960978939997,None,810.5960978939997,None,810.5960978939997,None,m,0,0.8178945039999235,812.129883522,None,812.129883522,None,812.129883522,None,813.0130158509996,None,813.0130158509996,None,813.0130158509996,None,813.0130158509996,None,,,,,,,,,,,,,,,,,,,,,,,,,,,,,,,,,,,,,,,,,,,,001,58,2020_Feb_04_1042,spring_faces,3.1.5,59.92162562957524,
condition files/Stage1_2.xlsx,,B2,T2,m,"['c', 'm']","['Clue', 'Monopoly']","[-0.15, 0.5]","[0.15, 0.5]",1,1,,,,,,,,,0,3,3,3,0,3,3,3,,,,,,,,,,,,,,,,,,,,,,,,,,,,,,,,,,,,,,,,,,,,,,,,,,,,,,,814.9793662280003,None,814.9793662280003,None,814.9793662280003,None,m,1,0.6098802609994891,816.5299927459996,None,816.5299927459996,None,816.5299927459996,None,817.1991160399998,None,817.1991160399998,None,817.1991160399998,None,817.1991160399998,None,,,,,,,,,,,,,,,,,,,,,,,,,,,,,,,,,,,,,,,,,,,,001,58,2020_Feb_04_1042,spring_faces,3.1.5,59.92162562957524,
condition files/Stage1_2.xlsx,,B3,T4,m,"['c', 'm']","['Clue', 'Monopoly']","[-0.15, 0.5]","[0.15, 0.5]",1,1,,,,,,,,,0,3,3,3,0,4,4,6,,,,,,,,,,,,,,,,,,,,,,,,,,,,,,,,,,,,,,,,,,,,,,,,,,,,,,,819.1623501750005,None,819.1623501750005,None,819.1623501750005,None,c,0,0.31418562199996813,820.713627093,None,820.713627093,None,820.713627093,None,821.079756443,None,821.079756443,None,821.079756443,None,821.079756443,None,,,,,,,,,,,,,,,,,,,,,,,,,,,,,,,,,,,,,,,,,,,,001,58,2020_Feb_04_1042,spring_faces,3.1.5,59.92162562957524,
condition files/Stage1_2.xlsx,,T4,B4,m,"['c', 'm']","['Clue', 'Monopoly']","[-0.15, 0.5]","[0.15, 0.5]",1,1,,,,,,,,,0,3,3,3,0,5,5,7,,,,,,,,,,,,,,,,,,,,,,,,,,,,,,,,,,,,,,,,,,,,,,,,,,,,,,,823.0464897770003,None,823.0464897770003,None,823.0464897770003,None,c,0,1.8562778949999483,824.5796257249999,None,824.5796257249999,None,824.5796257249999,None,826.4965688810003,None,826.4965688810003,None,826.4965688810003,None,826.4965688810003,None,,,,,,,,,,,,,,,,,,,,,,,,,,,,,,,,,,,,,,,,,,,,001,58,2020_Feb_04_1042,spring_faces,3.1.5,59.92162562957524,
condition files/Stage1_2.xlsx,,B1,T1,c,"['c', 'm']","['Clue', 'Monopoly']","[-0.15, 0.5]","[0.15, 0.5]",1,1,,,,,,,,,0,3,3,3,0,6,6,0,,,,,,,,,,,,,,,,,,,,,,,,,,,,,,,,,,,,,,,,,,,,,,,,,,,,,,,828.4630269020004,None,828.4630269020004,None,828.4630269020004,None,m,0,0.4081250640001599,829.9957765880004,None,829.9957765880004,None,829.9957765880004,None,830.4798118940002,None,830.4798118940002,None,830.4798118940002,None,830.4798118940002,None,,,,,,,,,,,,,,,,,,,,,,,,,,,,,,,,,,,,,,,,,,,,001,58,2020_Feb_04_1042,spring_faces,3.1.5,59.92162562957524,
condition files/Stage1_2.xlsx,,B4,T3,c,"['c', 'm']","['Clue', 'Monopoly']","[-0.15, 0.5]","[0.15, 0.5]",1,1,,,,,,,,,0,3,3,3,0,7,7,5,,,,,,,,,,,,,,,,,,,,,,,,,,,,,,,,,,,,,,,,,,,,,,,,,,,,,,,832.429583136,None,832.429583136,None,832.429583136,None,m,0,0.6173142620000363,833.9625158889999,None,833.9625158889999,None,833.9625158889999,None,834.6300076080001,None,834.6300076080001,None,834.6300076080001,None,834.6300076080001,None,,,,,,,,,,,,,,,,,,,,,,,,,,,,,,,,,,,,,,,,,,,,001,58,2020_Feb_04_1042,spring_faces,3.1.5,59.92162562957524,
condition files/Stage1_1.xlsx,,B3,T3,c,"['c', 'm']","['Clue', 'Monopoly']","[-0.15, 0.5]","[0.15, 0.5]",1,1,,,,,,,,,0,4,4,4,0,0,0,4,,,,,,,,,,,,,,,,,,,,,,,,,,,,,,,,,,,,,,,,,,,,,,,,,,,,,,,836.6131961300002,None,836.6131961300002,None,836.6131961300002,None,c,1,0.5279150570004276,838.1479245810001,None,838.1479245810001,None,838.1479245810001,None,838.7299036910003,None,838.7299036910003,None,838.7299036910003,None,838.7299036910003,None,,,,,,,,,,,,,,,,,,,,,,,,,,,,,,,,,,,,,,,,,,,,001,58,2020_Feb_04_1042,spring_faces,3.1.5,59.92162562957524,
condition files/Stage1_1.xlsx,,B2,T1,m,"['c', 'm']","['Clue', 'Monopoly']","[-0.15, 0.5]","[0.15, 0.5]",1,1,,,,,,,,,0,4,4,4,0,1,1,2,,,,,,,,,,,,,,,,,,,,,,,,,,,,,,,,,,,,,,,,,,,,,,,,,,,,,,,840.6960784730004,None,840.6960784730004,None,840.6960784730004,None,c,0,0.5570213689998127,842.2308774620001,None,842.2308774620001,None,842.2308774620001,None,842.8483255530004,None,842.8483255530004,None,842.8483255530004,None,842.8483255530004,None,,,,,,,,,,,,,,,,,,,,,,,,,,,,,,,,,,,,,,,,,,,,001,58,2020_Feb_04_1042,spring_faces,3.1.5,59.92162562957524,
condition files/Stage1_1.xlsx,,B4,T4,m,"['c', 'm']","['Clue', 'Monopoly']","[-0.15, 0.5]","[0.15, 0.5]",1,1,,,,,,,,,0,4,4,4,0,2,2,7,,,,,,,,,,,,,,,,,,,,,,,,,,,,,,,,,,,,,,,,,,,,,,,,,,,,,,,844.813229672,None,844.813229672,None,844.813229672,None,m,1,0.1033930789999431,846.3483812159998,None,846.3483812159998,None,846.3483812159998,None,846.5132612140001,None,846.5132612140001,None,846.5132612140001,None,846.5132612140001,None,,,,,,,,,,,,,,,,,,,,,,,,,,,,,,,,,,,,,,,,,,,,001,58,2020_Feb_04_1042,spring_faces,3.1.5,59.92162562957524,
condition files/Stage1_1.xlsx,,B1,T2,c,"['c', 'm']","['Clue', 'Monopoly']","[-0.15, 0.5]","[0.15, 0.5]",1,1,,,,,,,,,0,4,4,4,0,3,3,1,,,,,,,,,,,,,,,,,,,,,,,,,,,,,,,,,,,,,,,,,,,,,,,,,,,,,,,848.479739209,None,848.479739209,None,848.479739209,None,m,0,0.32622911900034524,850.0136599729999,None,850.0136599729999,None,850.0136599729999,None,850.3985038879996,None,850.3985038879996,None,850.3985038879996,None,850.3985038879996,None,,,,,,,,,,,,,,,,,,,,,,,,,,,,,,,,,,,,,,,,,,,,001,58,2020_Feb_04_1042,spring_faces,3.1.5,59.92162562957524,
condition files/Stage1_1.xlsx,,T1,B1,c,"['c', 'm']","['Clue', 'Monopoly']","[-0.15, 0.5]","[0.15, 0.5]",1,1,,,,,,,,,0,4,4,4,0,4,4,0,,,,,,,,,,,,,,,,,,,,,,,,,,,,,,,,,,,,,,,,,,,,,,,,,,,,,,,852.3623992750004,None,852.3623992750004,None,852.3623992750004,None,c,1,0.39483266700062813,853.9129605149997,None,853.9129605149997,None,853.9129605149997,None,854.3633702499997,None,854.3633702499997,None,854.3633702499997,None,854.3633702499997,None,,,,,,,,,,,,,,,,,,,,,,,,,,,,,,,,,,,,,,,,,,,,001,58,2020_Feb_04_1042,spring_faces,3.1.5,59.92162562957524,
condition files/Stage1_1.xlsx,,T2,B2,m,"['c', 'm']","['Clue', 'Monopoly']","[-0.15, 0.5]","[0.15, 0.5]",1,1,,,,,,,,,0,4,4,4,0,5,5,3,,,,,,,,,,,,,,,,,,,,,,,,,,,,,,,,,,,,,,,,,,,,,,,,,,,,,,,856.3296850210004,None,856.3296850210004,None,856.3296850210004,None,m,1,0.9560390219994588,857.8638620420002,None,857.8638620420002,None,857.8638620420002,None,858.8811191090003,None,858.8811191090003,None,858.8811191090003,None,858.8811191090003,None,,,,,,,,,,,,,,,,,,,,,,,,,,,,,,,,,,,,,,,,,,,,001,58,2020_Feb_04_1042,spring_faces,3.1.5,59.92162562957524,
condition files/Stage1_1.xlsx,,T4,B3,m,"['c', 'm']","['Clue', 'Monopoly']","[-0.15, 0.5]","[0.15, 0.5]",1,1,,,,,,,,,0,4,4,4,0,6,6,6,,,,,,,,,,,,,,,,,,,,,,,,,,,,,,,,,,,,,,,,,,,,,,,,,,,,,,,860.8465232869999,None,860.8465232869999,None,860.8465232869999,None,c,0,0.2791754669997317,862.3807039170001,None,862.3807039170001,None,862.3807039170001,None,862.713320376,None,862.713320376,None,862.713320376,None,862.713320376,None,,,,,,,,,,,,,,,,,,,,,,,,,,,,,,,,,,,,,,,,,,,,001,58,2020_Feb_04_1042,spring_faces,3.1.5,59.92162562957524,
condition files/Stage1_1.xlsx,,T3,B4,c,"['c', 'm']","['Clue', 'Monopoly']","[-0.15, 0.5]","[0.15, 0.5]",1,1,,,,,,,,,0,4,4,4,0,7,7,5,,,,,,,,,,,,,,,,,,,,,,,,,,,,,,,,,,,,,,,,,,,,,,,,,,,,,,,864.6797967930002,None,864.6797967930002,None,864.6797967930002,None,m,0,1.3585180889995172,866.2133756110002,None,866.2133756110002,None,866.2133756110002,None,867.6296701870001,None,867.6296701870001,None,867.6296701870001,None,867.6296701870001,None,,,,,,,,,,,,,,,,,,,,,,,,,,,,,,,,,,,,,,,,,,,,001,58,2020_Feb_04_1042,spring_faces,3.1.5,59.92162562957524,
condition files/Stage1_2.xlsx,,B2,T2,m,"['c', 'm']","['Clue', 'Monopoly']","[-0.15, 0.5]","[0.15, 0.5]",1,1,,,,,,,,,0,5,5,5,0,0,0,3,,,,,,,,,,,,,,,,,,,,,,,,,,,,,,,,,,,,,,,,,,,,,,,,,,,,,,,869.6134551829996,None,869.6134551829996,None,869.6134551829996,None,c,0,0.8710704939994685,871.1488283229996,None,871.1488283229996,None,871.1488283229996,None,872.0822803710003,None,872.0822803710003,None,872.0822803710003,None,872.0822803710003,None,,,,,,,,,,,,,,,,,,,,,,,,,,,,,,,,,,,,,,,,,,,,001,58,2020_Feb_04_1042,spring_faces,3.1.5,59.92162562957524,
condition files/Stage1_2.xlsx,,B1,T1,c,"['c', 'm']","['Clue', 'Monopoly']","[-0.15, 0.5]","[0.15, 0.5]",1,1,,,,,,,,,0,5,5,5,0,1,1,0,,,,,,,,,,,,,,,,,,,,,,,,,,,,,,,,,,,,,,,,,,,,,,,,,,,,,,,874.0464668099999,None,874.0464668099999,None,874.0464668099999,None,m,0,0.6160220130004745,875.5798110560004,None,875.5798110560004,None,875.5798110560004,None,876.2489580610004,None,876.2489580610004,None,876.2489580610004,None,876.2489580610004,None,,,,,,,,,,,,,,,,,,,,,,,,,,,,,,,,,,,,,,,,,,,,001,58,2020_Feb_04_1042,spring_faces,3.1.5,59.92162562957524,
condition files/Stage1_2.xlsx,,T1,B2,m,"['c', 'm']","['Clue', 'Monopoly']","[-0.15, 0.5]","[0.15, 0.5]",1,1,,,,,,,,,0,5,5,5,0,2,2,2,,,,,,,,,,,,,,,,,,,,,,,,,,,,,,,,,,,,,,,,,,,,,,,,,,,,,,,878.213021563,None,878.213021563,None,878.213021563,None,m,1,0.47943280799972854,879.7483890509998,None,879.7483890509998,None,879.7483890509998,None,880.2809896960002,None,880.2809896960002,None,880.2809896960002,None,880.2809896960002,None,,,,,,,,,,,,,,,,,,,,,,,,,,,,,,,,,,,,,,,,,,,,001,58,2020_Feb_04_1042,spring_faces,3.1.5,59.92162562957524,
condition files/Stage1_2.xlsx,,T3,B3,c,"['c', 'm']","['Clue', 'Monopoly']","[-0.15, 0.5]","[0.15, 0.5]",1,1,,,,,,,,,0,5,5,5,0,3,3,4,,,,,,,,,,,,,,,,,,,,,,,,,,,,,,,,,,,,,,,,,,,,,,,,,,,,,,,882.2465310330003,None,882.2465310330003,None,882.2465310330003,None,c,1,0.43202891900000395,883.7797954579996,None,883.7797954579996,None,883.7797954579996,None,884.2641274359999,None,884.2641274359999,None,884.2641274359999,None,884.2641274359999,None,,,,,,,,,,,,,,,,,,,,,,,,,,,,,,,,,,,,,,,,,,,,001,58,2020_Feb_04_1042,spring_faces,3.1.5,59.92162562957524,
condition files/Stage1_2.xlsx,,B3,T4,m,"['c', 'm']","['Clue', 'Monopoly']","[-0.15, 0.5]","[0.15, 0.5]",1,1,,,,,,,,,0,5,5,5,0,4,4,6,,,,,,,,,,,,,,,,,,,,,,,,,,,,,,,,,,,,,,,,,,,,,,,,,,,,,,,886.2296803900003,None,886.2296803900003,None,886.2296803900003,None,m,1,0.3039415570001438,887.7638868259996,None,887.7638868259996,None,887.7638868259996,None,888.1462849840004,None,888.1462849840004,None,888.1462849840004,None,888.1462849840004,None,,,,,,,,,,,,,,,,,,,,,,,,,,,,,,,,,,,,,,,,,,,,001,58,2020_Feb_04_1042,spring_faces,3.1.5,59.92162562957524,
condition files/Stage1_2.xlsx,,T4,B4,m,"['c', 'm']","['Clue', 'Monopoly']","[-0.15, 0.5]","[0.15, 0.5]",1,1,,,,,,,,,0,5,5,5,0,5,5,7,,,,,,,,,,,,,,,,,,,,,,,,,,,,,,,,,,,,,,,,,,,,,,,,,,,,,,,890.0968268740003,None,890.0968268740003,None,890.0968268740003,None,c,0,0.4537916489998679,891.6300465720001,None,891.6300465720001,None,891.6300465720001,None,892.1465310230001,None,892.1465310230001,None,892.1465310230001,None,892.1465310230001,None,,,,,,,,,,,,,,,,,,,,,,,,,,,,,,,,,,,,,,,,,,,,001,58,2020_Feb_04_1042,spring_faces,3.1.5,59.92162562957524,
condition files/Stage1_2.xlsx,,T2,B1,c,"['c', 'm']","['Clue', 'Monopoly']","[-0.15, 0.5]","[0.15, 0.5]",1,1,,,,,,,,,0,5,5,5,0,6,6,1,,,,,,,,,,,,,,,,,,,,,,,,,,,,,,,,,,,,,,,,,,,,,,,,,,,,,,,894.1130765290004,None,894.1130765290004,None,894.1130765290004,None,m,0,0.3898695369998677,895.6460324109999,None,895.6460324109999,None,895.6460324109999,None,896.0965901189998,None,896.0965901189998,None,896.0965901189998,None,896.0965901189998,None,,,,,,,,,,,,,,,,,,,,,,,,,,,,,,,,,,,,,,,,,,,,001,58,2020_Feb_04_1042,spring_faces,3.1.5,59.92162562957524,
condition files/Stage1_2.xlsx,,B4,T3,c,"['c', 'm']","['Clue', 'Monopoly']","[-0.15, 0.5]","[0.15, 0.5]",1,1,,,,,,,,,0,5,5,5,0,7,7,5,,,,,,,,,,,,,,,,,,,,,,,,,,,,,,,,,,,,,,,,,,,,,,,,,,,,,,,898.0631605080002,None,898.0631605080002,None,898.0631605080002,None,m,0,0.37509721200058266,899.5968073489998,None,899.5968073489998,None,899.5968073489998,None,900.029935084,None,900.029935084,None,900.029935084,None,900.029935084,None,,,,,,,,,,,,,,,,,,,,,,,,,,,,,,,,,,,,,,,,,,,,001,58,2020_Feb_04_1042,spring_faces,3.1.5,59.92162562957524,
condition files/Stage1_1.xlsx,,T2,B2,m,"['c', 'm']","['Clue', 'Monopoly']","[-0.15, 0.5]","[0.15, 0.5]",1,1,,,,,,,,,0,6,6,6,0,0,0,3,,,,,,,,,,,,,,,,,,,,,,,,,,,,,,,,,,,,,,,,,,,,,,,,,,,,,,,902.0126807319998,None,902.0126807319998,None,902.0126807319998,None,m,1,1.1131278689999817,903.5468020519997,None,903.5468020519997,None,903.5468020519997,None,904.729644515,None,904.729644515,None,904.729644515,None,904.729644515,None,,,,,,,,,,,,,,,,,,,,,,,,,,,,,,,,,,,,,,,,,,,,001,58,2020_Feb_04_1042,spring_faces,3.1.5,59.92162562957524,
condition files/Stage1_1.xlsx,,B2,T1,m,"['c', 'm']","['Clue', 'Monopoly']","[-0.15, 0.5]","[0.15, 0.5]",1,1,,,,,,,,,0,6,6,6,0,1,1,2,,,,,,,,,,,,,,,,,,,,,,,,,,,,,,,,,,,,,,,,,,,,,,,,,,,,,,,906.6798700229997,None,906.6798700229997,None,906.6798700229997,None,m,1,0.5257790629993906,908.2301204600003,None,908.2301204600003,None,908.2301204600003,None,908.813301095,None,908.813301095,None,908.813301095,None,908.813301095,None,,,,,,,,,,,,,,,,,,,,,,,,,,,,,,,,,,,,,,,,,,,,001,58,2020_Feb_04_1042,spring_faces,3.1.5,59.92162562957524,
condition files/Stage1_1.xlsx,,B3,T3,c,"['c', 'm']","['Clue', 'Monopoly']","[-0.15, 0.5]","[0.15, 0.5]",1,1,,,,,,,,,0,6,6,6,0,2,2,4,,,,,,,,,,,,,,,,,,,,,,,,,,,,,,,,,,,,,,,,,,,,,,,,,,,,,,,910.779080408,None,910.779080408,None,910.779080408,None,c,1,0.4264014689997566,912.313503119,None,912.313503119,None,912.313503119,None,912.7981919870003,None,912.7981919870003,None,912.7981919870003,None,912.7981919870003,None,,,,,,,,,,,,,,,,,,,,,,,,,,,,,,,,,,,,,,,,,,,,001,58,2020_Feb_04_1042,spring_faces,3.1.5,59.92162562957524,
condition files/Stage1_1.xlsx,,T3,B4,c,"['c', 'm']","['Clue', 'Monopoly']","[-0.15, 0.5]","[0.15, 0.5]",1,1,,,,,,,,,0,6,6,6,0,3,3,5,,,,,,,,,,,,,,,,,,,,,,,,,,,,,,,,,,,,,,,,,,,,,,,,,,,,,,,914.7629362060002,None,914.7629362060002,None,914.7629362060002,None,m,0,0.7314283130008334,916.2964032349996,None,916.2964032349996,None,916.2964032349996,None,917.079933386,None,917.079933386,None,917.079933386,None,917.079933386,None,,,,,,,,,,,,,,,,,,,,,,,,,,,,,,,,,,,,,,,,,,,,001,58,2020_Feb_04_1042,spring_faces,3.1.5,59.92162562957524,
condition files/Stage1_1.xlsx,,T1,B1,c,"['c', 'm']","['Clue', 'Monopoly']","[-0.15, 0.5]","[0.15, 0.5]",1,1,,,,,,,,,0,6,6,6,0,4,4,0,,,,,,,,,,,,,,,,,,,,,,,,,,,,,,,,,,,,,,,,,,,,,,,,,,,,,,,919.0464639750003,None,919.0464639750003,None,919.0464639750003,None,c,1,0.2394329460003064,920.5804774920002,None,920.5804774920002,None,920.5804774920002,None,920.879841214,None,920.879841214,None,920.879841214,None,920.879841214,None,,,,,,,,,,,,,,,,,,,,,,,,,,,,,,,,,,,,,,,,,,,,001,58,2020_Feb_04_1042,spring_faces,3.1.5,59.92162562957524,
condition files/Stage1_1.xlsx,,T4,B3,m,"['c', 'm']","['Clue', 'Monopoly']","[-0.15, 0.5]","[0.15, 0.5]",1,1,,,,,,,,,0,6,6,6,0,5,5,6,,,,,,,,,,,,,,,,,,,,,,,,,,,,,,,,,,,,,,,,,,,,,,,,,,,,,,,922.8465260079997,None,922.8465260079997,None,922.8465260079997,None,c,0,0.6776704450003308,924.3822657249998,None,924.3822657249998,None,924.3822657249998,None,925.1141347710004,None,925.1141347710004,None,925.1141347710004,None,925.1141347710004,None,,,,,,,,,,,,,,,,,,,,,,,,,,,,,,,,,,,,,,,,,,,,001,58,2020_Feb_04_1042,spring_faces,3.1.5,59.92162562957524,
condition files/Stage1_1.xlsx,,B1,T2,c,"['c', 'm']","['Clue', 'Monopoly']","[-0.15, 0.5]","[0.15, 0.5]",1,1,,,,,,,,,0,6,6,6,0,6,6,1,,,,,,,,,,,,,,,,,,,,,,,,,,,,,,,,,,,,,,,,,,,,,,,,,,,,,,,927.079897182,None,927.079897182,None,927.079897182,None,m,0,0.7964901449995523,928.6153442500004,None,928.6153442500004,None,928.6153442500004,None,929.4800217440002,None,929.4800217440002,None,929.4800217440002,None,929.4800217440002,None,,,,,,,,,,,,,,,,,,,,,,,,,,,,,,,,,,,,,,,,,,,,001,58,2020_Feb_04_1042,spring_faces,3.1.5,59.92162562957524,
condition files/Stage1_1.xlsx,,B4,T4,m,"['c', 'm']","['Clue', 'Monopoly']","[-0.15, 0.5]","[0.15, 0.5]",1,1,,,,,,,,,0,6,6,6,0,7,7,7,,,,,,,,,,,,,,,,,,,,,,,,,,,,,,,,,,,,,,,,,,,,,,,,,,,,,,,931.4297247520003,None,931.4297247520003,None,931.4297247520003,None,m,1,0.27334397200047533,932.9625650820003,None,932.9625650820003,None,932.9625650820003,None,933.2957250690001,None,933.2957250690001,None,933.2957250690001,None,933.2957250690001,None,,,,,,,,,,,,,,,,,,,,,,,,,,,,,,,,,,,,,,,,,,,,001,58,2020_Feb_04_1042,spring_faces,3.1.5,59.92162562957524,
condition files/Stage1_2.xlsx,,T1,B2,m,"['c', 'm']","['Clue', 'Monopoly']","[-0.15, 0.5]","[0.15, 0.5]",1,1,,,,,,,,,0,7,7,7,0,0,0,2,,,,,,,,,,,,,,,,,,,,,,,,,,,,,,,,,,,,,,,,,,,,,,,,,,,,,,,935.2801800519997,None,935.2801800519997,None,935.2801800519997,None,m,1,0.4225737389997448,936.8133366389998,None,936.8133366389998,None,936.8133366389998,None,937.2970505139997,None,937.2970505139997,None,937.2970505139997,None,937.2970505139997,None,,,,,,,,,,,,,,,,,,,,,,,,,,,,,,,,,,,,,,,,,,,,001,58,2020_Feb_04_1042,spring_faces,3.1.5,59.92162562957524,
condition files/Stage1_2.xlsx,,T3,B3,c,"['c', 'm']","['Clue', 'Monopoly']","[-0.15, 0.5]","[0.15, 0.5]",1,1,,,,,,,,,0,7,7,7,0,1,1,4,,,,,,,,,,,,,,,,,,,,,,,,,,,,,,,,,,,,,,,,,,,,,,,,,,,,,,,939.2629653600002,None,939.2629653600002,None,939.2629653600002,None,c,1,0.32681994200083864,940.7970691880005,None,940.7970691880005,None,940.7970691880005,None,941.1796868630004,None,941.1796868630004,None,941.1796868630004,None,941.1796868630004,None,,,,,,,,,,,,,,,,,,,,,,,,,,,,,,,,,,,,,,,,,,,,001,58,2020_Feb_04_1042,spring_faces,3.1.5,59.92162562957524,
condition files/Stage1_2.xlsx,,B2,T2,m,"['c', 'm']","['Clue', 'Monopoly']","[-0.15, 0.5]","[0.15, 0.5]",1,1,,,,,,,,,0,7,7,7,0,2,2,3,,,,,,,,,,,,,,,,,,,,,,,,,,,,,,,,,,,,,,,,,,,,,,,,,,,,,,,943.1463572630005,None,943.1463572630005,None,943.1463572630005,None,m,1,0.47592075700049463,944.6799967470001,None,944.6799967470001,None,944.6799967470001,None,945.2129848879999,None,945.2129848879999,None,945.2129848879999,None,945.2129848879999,None,,,,,,,,,,,,,,,,,,,,,,,,,,,,,,,,,,,,,,,,,,,,001,58,2020_Feb_04_1042,spring_faces,3.1.5,59.92162562957524,
condition files/Stage1_2.xlsx,,T2,B1,c,"['c', 'm']","['Clue', 'Monopoly']","[-0.15, 0.5]","[0.15, 0.5]",1,1,,,,,,,,,0,7,7,7,0,3,3,1,,,,,,,,,,,,,,,,,,,,,,,,,,,,,,,,,,,,,,,,,,,,,,,,,,,,,,,947.1796631150005,None,947.1796631150005,None,947.1796631150005,None,m,0,0.4265903720006463,948.7133012079998,None,948.7133012079998,None,948.7133012079998,None,949.1966609550004,None,949.1966609550004,None,949.1966609550004,None,949.1966609550004,None,,,,,,,,,,,,,,,,,,,,,,,,,,,,,,,,,,,,,,,,,,,,001,58,2020_Feb_04_1042,spring_faces,3.1.5,59.92162562957524,
condition files/Stage1_2.xlsx,,B4,T3,c,"['c', 'm']","['Clue', 'Monopoly']","[-0.15, 0.5]","[0.15, 0.5]",1,1,,,,,,,,,0,7,7,7,0,4,4,5,,,,,,,,,,,,,,,,,,,,,,,,,,,,,,,,,,,,,,,,,,,,,,,,,,,,,,,951.1624306600002,None,951.1624306600002,None,951.1624306600002,None,m,0,0.3310004819995811,952.6968312760005,None,952.6968312760005,None,952.6968312760005,None,953.0798323980002,None,953.0798323980002,None,953.0798323980002,None,953.0798323980002,None,,,,,,,,,,,,,,,,,,,,,,,,,,,,,,,,,,,,,,,,,,,,001,58,2020_Feb_04_1042,spring_faces,3.1.5,59.92162562957524,
condition files/Stage1_2.xlsx,,B1,T1,c,"['c', 'm']","['Clue', 'Monopoly']","[-0.15, 0.5]","[0.15, 0.5]",1,1,,,,,,,,,0,7,7,7,0,5,5,0,,,,,,,,,,,,,,,,,,,,,,,,,,,,,,,,,,,,,,,,,,,,,,,,,,,,,,,955.0464197810002,None,955.0464197810002,None,955.0464197810002,None,c,1,0.3511626690005869,956.5806354259998,None,956.5806354259998,None,956.5806354259998,None,956.9963390220005,None,956.9963390220005,None,956.9963390220005,None,956.9963390220005,None,,,,,,,,,,,,,,,,,,,,,,,,,,,,,,,,,,,,,,,,,,,,001,58,2020_Feb_04_1042,spring_faces,3.1.5,59.92162562957524,
condition files/Stage1_2.xlsx,,B3,T4,m,"['c', 'm']","['Clue', 'Monopoly']","[-0.15, 0.5]","[0.15, 0.5]",1,1,,,,,,,,,0,7,7,7,0,6,6,6,,,,,,,,,,,,,,,,,,,,,,,,,,,,,,,,,,,,,,,,,,,,,,,,,,,,,,,958.9629735929998,None,958.9629735929998,None,958.9629735929998,None,c,0,0.40242905400009477,960.5133922199998,None,960.5133922199998,None,960.5133922199998,None,960.9962808100004,None,960.9962808100004,None,960.9962808100004,None,960.9962808100004,None,,,,,,,,,,,,,,,,,,,,,,,,,,,,,,,,,,,,,,,,,,,,001,58,2020_Feb_04_1042,spring_faces,3.1.5,59.92162562957524,
condition files/Stage1_2.xlsx,,T4,B4,m,"['c', 'm']","['Clue', 'Monopoly']","[-0.15, 0.5]","[0.15, 0.5]",1,1,,,,,,,,,0,7,7,7,0,7,7,7,,,,,,,,,,,,,,,,,,,,,,,,,,,,,,,,,,,,,,,,,,,,,,,,,,,,,,,962.9463164869999,None,962.9463164869999,None,962.9463164869999,None,m,1,0.5137999540002056,964.4820091960005,None,964.4820091960005,None,964.4820091960005,None,965.0466701290002,None,965.0466701290002,None,965.0466701290002,None,965.0466701290002,None,,,,,,,,,,,,,,,,,,,,,,,,,,,,,,,,,,,,,,,,,,,,001,58,2020_Feb_04_1042,spring_faces,3.1.5,59.92162562957524,
condition files/Stage1_1.xlsx,,T4,B3,m,"['c', 'm']","['Clue', 'Monopoly']","[-0.15, 0.5]","[0.15, 0.5]",1,1,,,,,,,,,0,8,8,8,0,0,0,6,,,,,,,,,,,,,,,,,,,,,,,,,,,,,,,,,,,,,,,,,,,,,,,,,,,,,,,967.029680487,None,967.029680487,None,967.029680487,None,m,1,0.4959725429998798,968.564004548,None,968.564004548,None,968.564004548,None,969.1134727780004,None,969.1134727780004,None,969.1134727780004,None,969.1134727780004,None,,,,,,,,,,,,,,,,,,,,,,,,,,,,,,,,,,,,,,,,,,,,001,58,2020_Feb_04_1042,spring_faces,3.1.5,59.92162562957524,
condition files/Stage1_1.xlsx,,B2,T1,m,"['c', 'm']","['Clue', 'Monopoly']","[-0.15, 0.5]","[0.15, 0.5]",1,1,,,,,,,,,0,8,8,8,0,1,1,2,,,,,,,,,,,,,,,,,,,,,,,,,,,,,,,,,,,,,,,,,,,,,,,,,,,,,,,971.0797113570002,None,971.0797113570002,None,971.0797113570002,None,c,0,0.5585210139997798,972.6133776669999,None,972.6133776669999,None,972.6133776669999,None,973.2298969219996,None,973.2298969219996,None,973.2298969219996,None,973.2298969219996,None,,,,,,,,,,,,,,,,,,,,,,,,,,,,,,,,,,,,,,,,,,,,001,58,2020_Feb_04_1042,spring_faces,3.1.5,59.92162562957524,
condition files/Stage1_1.xlsx,,B1,T2,c,"['c', 'm']","['Clue', 'Monopoly']","[-0.15, 0.5]","[0.15, 0.5]",1,1,,,,,,,,,0,8,8,8,0,2,2,1,,,,,,,,,,,,,,,,,,,,,,,,,,,,,,,,,,,,,,,,,,,,,,,,,,,,,,,975.196104614,None,975.196104614,None,975.196104614,None,c,1,0.47444200799964165,976.7294741849996,None,976.7294741849996,None,976.7294741849996,None,977.2796116390004,None,977.2796116390004,None,977.2796116390004,None,977.2796116390004,None,,,,,,,,,,,,,,,,,,,,,,,,,,,,,,,,,,,,,,,,,,,,001,58,2020_Feb_04_1042,spring_faces,3.1.5,59.92162562957524,
condition files/Stage1_1.xlsx,,T2,B2,m,"['c', 'm']","['Clue', 'Monopoly']","[-0.15, 0.5]","[0.15, 0.5]",1,1,,,,,,,,,0,8,8,8,0,3,3,3,,,,,,,,,,,,,,,,,,,,,,,,,,,,,,,,,,,,,,,,,,,,,,,,,,,,,,,979.2297644360001,None,979.2297644360001,None,979.2297644360001,None,m,1,0.6168757160003224,980.7629400689998,None,980.7629400689998,None,980.7629400689998,None,981.4468664569999,None,981.4468664569999,None,981.4468664569999,None,981.4468664569999,None,,,,,,,,,,,,,,,,,,,,,,,,,,,,,,,,,,,,,,,,,,,,001,58,2020_Feb_04_1042,spring_faces,3.1.5,59.92162562957524,
condition files/Stage1_1.xlsx,,B4,T4,m,"['c', 'm']","['Clue', 'Monopoly']","[-0.15, 0.5]","[0.15, 0.5]",1,1,,,,,,,,,0,8,8,8,0,4,4,7,,,,,,,,,,,,,,,,,,,,,,,,,,,,,,,,,,,,,,,,,,,,,,,,,,,,,,,983.413038311,None,983.413038311,None,983.413038311,None,m,1,2.222997456000485,984.9489045539999,None,984.9489045539999,None,984.9489045539999,None,987.2295247979996,None,987.2295247979996,None,987.2295247979996,None,987.2295247979996,None,,,,,,,,,,,,,,,,,,,,,,,,,,,,,,,,,,,,,,,,,,,,001,58,2020_Feb_04_1042,spring_faces,3.1.5,59.92162562957524,
condition files/Stage1_1.xlsx,,T3,B4,c,"['c', 'm']","['Clue', 'Monopoly']","[-0.15, 0.5]","[0.15, 0.5]",1,1,,,,,,,,,0,8,8,8,0,5,5,5,,,,,,,,,,,,,,,,,,,,,,,,,,,,,,,,,,,,,,,,,,,,,,,,,,,,,,,989.1965190349997,None,989.1965190349997,None,989.1965190349997,None,c,1,0.8265766690001328,990.7293418989998,None,990.7293418989998,None,990.7293418989998,None,991.6298814859997,None,991.6298814859997,None,991.6298814859997,None,991.6298814859997,None,,,,,,,,,,,,,,,,,,,,,,,,,,,,,,,,,,,,,,,,,,,,001,58,2020_Feb_04_1042,spring_faces,3.1.5,59.92162562957524,
condition files/Stage1_1.xlsx,,B3,T3,c,"['c', 'm']","['Clue', 'Monopoly']","[-0.15, 0.5]","[0.15, 0.5]",1,1,,,,,,,,,0,8,8,8,0,6,6,4,,,,,,,,,,,,,,,,,,,,,,,,,,,,,,,,,,,,,,,,,,,,,,,,,,,,,,,993.5797766609999,None,993.5797766609999,None,993.5797766609999,None,c,1,1.01797598200028,995.1138156250004,None,995.1138156250004,None,995.1138156250004,None,996.1959985939998,None,996.1959985939998,None,996.1959985939998,None,996.1959985939998,None,,,,,,,,,,,,,,,,,,,,,,,,,,,,,,,,,,,,,,,,,,,,001,58,2020_Feb_04_1042,spring_faces,3.1.5,59.92162562957524,
condition files/Stage1_1.xlsx,,T1,B1,c,"['c', 'm']","['Clue', 'Monopoly']","[-0.15, 0.5]","[0.15, 0.5]",1,1,,,,,,,,,0,8,8,8,0,7,7,0,,,,,,,,,,,,,,,,,,,,,,,,,,,,,,,,,,,,,,,,,,,,,,,,,,,,,,,998.162468428,None,998.162468428,None,998.162468428,None,c,1,0.8969028340006844,999.6989129669996,None,999.6989129669996,None,999.6989129669996,None,1000.6466317190002,None,1000.6466317190002,None,1000.6466317190002,None,1000.6466317190002,None,,,,,,,,,,,,,,,,,,,,,,,,,,,,,,,,,,,,,,,,,,,,001,58,2020_Feb_04_1042,spring_faces,3.1.5,59.92162562957524,
condition files/Stage1_2.xlsx,,B3,T4,m,"['c', 'm']","['Clue', 'Monopoly']","[-0.15, 0.5]","[0.15, 0.5]",1,1,,,,,,,,,0,9,9,9,0,0,0,6,,,,,,,,,,,,,,,,,,,,,,,,,,,,,,,,,,,,,,,,,,,,,,,,,,,,,,,1002.6301698929997,None,1002.6301698929997,None,1002.6301698929997,None,m,1,1.0564792180002769,1004.1634344750005,None,1004.1634344750005,None,1004.1634344750005,None,1005.2802404110002,None,1005.2802404110002,None,1005.2802404110002,None,1005.2802404110002,None,,,,,,,,,,,,,,,,,,,,,,,,,,,,,,,,,,,,,,,,,,,,001,58,2020_Feb_04_1042,spring_faces,3.1.5,59.92162562957524,
condition files/Stage1_2.xlsx,,B1,T1,c,"['c', 'm']","['Clue', 'Monopoly']","[-0.15, 0.5]","[0.15, 0.5]",1,1,,,,,,,,,0,9,9,9,0,1,1,0,,,,,,,,,,,,,,,,,,,,,,,,,,,,,,,,,,,,,,,,,,,,,,,,,,,,,,,1007.2462284629996,None,1007.2462284629996,None,1007.2462284629996,None,c,1,1.255530766999982,1008.7962786459998,None,1008.7962786459998,None,1008.7962786459998,None,1010.115062759,None,1010.115062759,None,1010.115062759,None,1010.115062759,None,,,,,,,,,,,,,,,,,,,,,,,,,,,,,,,,,,,,,,,,,,,,001,58,2020_Feb_04_1042,spring_faces,3.1.5,59.92162562957524,
condition files/Stage1_2.xlsx,,T3,B3,c,"['c', 'm']","['Clue', 'Monopoly']","[-0.15, 0.5]","[0.15, 0.5]",1,1,,,,,,,,,0,9,9,9,0,2,2,4,,,,,,,,,,,,,,,,,,,,,,,,,,,,,,,,,,,,,,,,,,,,,,,,,,,,,,,1012.0799351279998,None,1012.0799351279998,None,1012.0799351279998,None,m,0,1.445915017000516,1013.6299027709997,None,1013.6299027709997,None,1013.6299027709997,None,1015.1299637420002,None,1015.1299637420002,None,1015.1299637420002,None,1015.1299637420002,None,,,,,,,,,,,,,,,,,,,,,,,,,,,,,,,,,,,,,,,,,,,,001,58,2020_Feb_04_1042,spring_faces,3.1.5,59.92162562957524,
condition files/Stage1_2.xlsx,,T4,B4,m,"['c', 'm']","['Clue', 'Monopoly']","[-0.15, 0.5]","[0.15, 0.5]",1,1,,,,,,,,,0,9,9,9,0,3,3,7,,,,,,,,,,,,,,,,,,,,,,,,,,,,,,,,,,,,,,,,,,,,,,,,,,,,,,,1017.0965543859998,None,1017.0965543859998,None,1017.0965543859998,None,m,1,1.406014237000818,1018.629915385,None,1018.629915385,None,1018.629915385,None,1020.1126196119999,None,1020.1126196119999,None,1020.1126196119999,None,1020.1126196119999,None,,,,,,,,,,,,,,,,,,,,,,,,,,,,,,,,,,,,,,,,,,,,001,58,2020_Feb_04_1042,spring_faces,3.1.5,59.92162562957524,
condition files/Stage1_2.xlsx,,B2,T2,m,"['c', 'm']","['Clue', 'Monopoly']","[-0.15, 0.5]","[0.15, 0.5]",1,1,,,,,,,,,0,9,9,9,0,4,4,3,,,,,,,,,,,,,,,,,,,,,,,,,,,,,,,,,,,,,,,,,,,,,,,,,,,,,,,1022.0632233319998,None,1022.0632233319998,None,1022.0632233319998,None,c,0,0.8551394159994743,1023.5967213709996,None,1023.5967213709996,None,1023.5967213709996,None,1024.5125874250002,None,1024.5125874250002,None,1024.5125874250002,None,1024.5125874250002,None,,,,,,,,,,,,,,,,,,,,,,,,,,,,,,,,,,,,,,,,,,,,001,58,2020_Feb_04_1042,spring_faces,3.1.5,59.92162562957524,
condition files/Stage1_2.xlsx,,T1,B2,m,"['c', 'm']","['Clue', 'Monopoly']","[-0.15, 0.5]","[0.15, 0.5]",1,1,,,,,,,,,0,9,9,9,0,5,5,2,,,,,,,,,,,,,,,,,,,,,,,,,,,,,,,,,,,,,,,,,,,,,,,,,,,,,,,1026.4796802280002,None,1026.4796802280002,None,1026.4796802280002,None,m,1,0.3886792710000009,1028.015234299,None,1028.015234299,None,1028.015234299,None,1028.4633913129996,None,1028.4633913129996,None,1028.4633913129996,None,1028.4633913129996,None,,,,,,,,,,,,,,,,,,,,,,,,,,,,,,,,,,,,,,,,,,,,001,58,2020_Feb_04_1042,spring_faces,3.1.5,59.92162562957524,
condition files/Stage1_2.xlsx,,B4,T3,c,"['c', 'm']","['Clue', 'Monopoly']","[-0.15, 0.5]","[0.15, 0.5]",1,1,,,,,,,,,0,9,9,9,0,6,6,5,,,,,,,,,,,,,,,,,,,,,,,,,,,,,,,,,,,,,,,,,,,,,,,,,,,,,,,1030.4298833629996,None,1030.4298833629996,None,1030.4298833629996,None,m,0,0.6326737429999412,1031.9631612899998,None,1031.9631612899998,None,1031.9631612899998,None,1032.6627302020001,None,1032.6627302020001,None,1032.6627302020001,None,1032.6627302020001,None,,,,,,,,,,,,,,,,,,,,,,,,,,,,,,,,,,,,,,,,,,,,001,58,2020_Feb_04_1042,spring_faces,3.1.5,59.92162562957524,
condition files/Stage1_2.xlsx,,T2,B1,c,"['c', 'm']","['Clue', 'Monopoly']","[-0.15, 0.5]","[0.15, 0.5]",1,1,,,,,,,,,0,9,9,9,0,7,7,1,,,,,,,,,,,,,,,,,,,,,,,,,,,,,,,,,,,,,,,,,,,,,,,,,,,,,,,1034.6130264979997,None,1034.6130264979997,None,1034.6130264979997,None,c,1,0.7857062930006578,1036.1461264149998,None,1036.1461264149998,None,1036.1461264149998,None,1036.9961369810003,None,1036.9961369810003,None,1036.9961369810003,None,1036.9961369810003,None,,,,,,,,,,,,,,,,,,,,,,,,,,,,,,,,,,,,,,,,,,,,001,58,2020_Feb_04_1042,spring_faces,3.1.5,59.92162562957524,
condition files/Stage1_1.xlsx,,T3,B4,c,"['c', 'm']","['Clue', 'Monopoly']","[-0.15, 0.5]","[0.15, 0.5]",1,1,,,,,,,,,0,10,10,10,0,0,0,5,,,,,,,,,,,,,,,,,,,,,,,,,,,,,,,,,,,,,,,,,,,,,,,,,,,,,,,1038.979770251,None,1038.979770251,None,1038.979770251,None,m,0,0.5453342270002395,1040.5146341619998,None,1040.5146341619998,None,1040.5146341619998,None,1041.113242682,None,1041.113242682,None,1041.113242682,None,1041.113242682,None,,,,,,,,,,,,,,,,,,,,,,,,,,,,,,,,,,,,,,,,,,,,001,58,2020_Feb_04_1042,spring_faces,3.1.5,59.92162562957524,
condition files/Stage1_1.xlsx,,T4,B3,m,"['c', 'm']","['Clue', 'Monopoly']","[-0.15, 0.5]","[0.15, 0.5]",1,1,,,,,,,,,0,10,10,10,0,1,1,6,,,,,,,,,,,,,,,,,,,,,,,,,,,,,,,,,,,,,,,,,,,,,,,,,,,,,,,1043.079683122,None,1043.079683122,None,1043.079683122,None,c,0,0.6709739320003791,1044.6128561520004,None,1044.6128561520004,None,1044.6128561520004,None,1045.3632973879999,None,1045.3632973879999,None,1045.3632973879999,None,1045.3632973879999,None,,,,,,,,,,,,,,,,,,,,,,,,,,,,,,,,,,,,,,,,,,,,001,58,2020_Feb_04_1042,spring_faces,3.1.5,59.92162562957524,
condition files/Stage1_1.xlsx,,B2,T1,m,"['c', 'm']","['Clue', 'Monopoly']","[-0.15, 0.5]","[0.15, 0.5]",1,1,,,,,,,,,0,10,10,10,0,2,2,2,,,,,,,,,,,,,,,,,,,,,,,,,,,,,,,,,,,,,,,,,,,,,,,,,,,,,,,1047.3130689120003,None,1047.3130689120003,None,1047.3130689120003,None,c,0,0.9801832789999025,1048.8476469450002,None,1048.8476469450002,None,1048.8476469450002,None,1049.8799707809999,None,1049.8799707809999,None,1049.8799707809999,None,1049.8799707809999,None,,,,,,,,,,,,,,,,,,,,,,,,,,,,,,,,,,,,,,,,,,,,001,58,2020_Feb_04_1042,spring_faces,3.1.5,59.92162562957524,
condition files/Stage1_1.xlsx,,B4,T4,m,"['c', 'm']","['Clue', 'Monopoly']","[-0.15, 0.5]","[0.15, 0.5]",1,1,,,,,,,,,0,10,10,10,0,3,3,7,,,,,,,,,,,,,,,,,,,,,,,,,,,,,,,,,,,,,,,,,,,,,,,,,,,,,,,1051.8464294030005,None,1051.8464294030005,None,1051.8464294030005,None,m,1,0.5919951679998121,1053.3799022830003,None,1053.3799022830003,None,1053.3799022830003,None,1054.0298232809996,None,1054.0298232809996,None,1054.0298232809996,None,1054.0298232809996,None,,,,,,,,,,,,,,,,,,,,,,,,,,,,,,,,,,,,,,,,,,,,001,58,2020_Feb_04_1042,spring_faces,3.1.5,59.92162562957524,
condition files/Stage1_1.xlsx,,B1,T2,c,"['c', 'm']","['Clue', 'Monopoly']","[-0.15, 0.5]","[0.15, 0.5]",1,1,,,,,,,,,0,10,10,10,0,4,4,1,,,,,,,,,,,,,,,,,,,,,,,,,,,,,,,,,,,,,,,,,,,,,,,,,,,,,,,1055.9963114770003,None,1055.9963114770003,None,1055.9963114770003,None,c,1,0.8266680509996149,1057.5292493499996,None,1057.5292493499996,None,1057.5292493499996,None,1058.4129385660003,None,1058.4129385660003,None,1058.4129385660003,None,1058.4129385660003,None,,,,,,,,,,,,,,,,,,,,,,,,,,,,,,,,,,,,,,,,,,,,001,58,2020_Feb_04_1042,spring_faces,3.1.5,59.92162562957524,
condition files/Stage1_1.xlsx,,T1,B1,c,"['c', 'm']","['Clue', 'Monopoly']","[-0.15, 0.5]","[0.15, 0.5]",1,1,,,,,,,,,0,10,10,10,0,5,5,0,,,,,,,,,,,,,,,,,,,,,,,,,,,,,,,,,,,,,,,,,,,,,,,,,,,,,,,1060.3797133619996,None,1060.3797133619996,None,1060.3797133619996,None,m,0,0.8590321490000861,1061.9128738650002,None,1061.9128738650002,None,1061.9128738650002,None,1062.8298251520005,None,1062.8298251520005,None,1062.8298251520005,None,1062.8298251520005,None,,,,,,,,,,,,,,,,,,,,,,,,,,,,,,,,,,,,,,,,,,,,001,58,2020_Feb_04_1042,spring_faces,3.1.5,59.92162562957524,
condition files/Stage1_1.xlsx,,T2,B2,m,"['c', 'm']","['Clue', 'Monopoly']","[-0.15, 0.5]","[0.15, 0.5]",1,1,,,,,,,,,0,10,10,10,0,6,6,3,,,,,,,,,,,,,,,,,,,,,,,,,,,,,,,,,,,,,,,,,,,,,,,,,,,,,,,1064.7958041850002,None,1064.7958041850002,None,1064.7958041850002,None,c,0,1.304060639000454,1066.331840761,None,1066.331840761,None,1066.331840761,None,1067.6983367420003,None,1067.6983367420003,None,1067.6983367420003,None,1067.6983367420003,None,,,,,,,,,,,,,,,,,,,,,,,,,,,,,,,,,,,,,,,,,,,,001,58,2020_Feb_04_1042,spring_faces,3.1.5,59.92162562957524,
condition files/Stage1_1.xlsx,,B3,T3,c,"['c', 'm']","['Clue', 'Monopoly']","[-0.15, 0.5]","[0.15, 0.5]",1,1,,,,,,,,,0,10,10,10,0,7,7,4,,,,,,,,,,,,,,,,,,,,,,,,,,,,,,,,,,,,,,,,,,,,,,,,,,,,,,,1069.6630252540003,None,1069.6630252540003,None,1069.6630252540003,None,c,1,1.671604746000412,1071.196232281,None,1071.196232281,None,1071.196232281,None,1072.9307643119996,None,1072.9307643119996,None,1072.9307643119996,None,1072.9307643119996,None,,,,,,,,,,,,,,,,,,,,,,,,,,,,,,,,,,,,,,,,,,,,001,58,2020_Feb_04_1042,spring_faces,3.1.5,59.92162562957524,
condition files/Stage1_2.xlsx,,T4,B4,m,"['c', 'm']","['Clue', 'Monopoly']","[-0.15, 0.5]","[0.15, 0.5]",1,1,,,,,,,,,0,11,11,11,0,0,0,7,,,,,,,,,,,,,,,,,,,,,,,,,,,,,,,,,,,,,,,,,,,,,,,,,,,,,,,1074.9136423880004,None,1074.9136423880004,None,1074.9136423880004,None,m,1,0.9332230800000616,1076.446642888,None,1076.446642888,None,1076.446642888,None,1077.4466807499998,None,1077.4466807499998,None,1077.4466807499998,None,1077.4466807499998,None,,,,,,,,,,,,,,,,,,,,,,,,,,,,,,,,,,,,,,,,,,,,001,58,2020_Feb_04_1042,spring_faces,3.1.5,59.92162562957524,
condition files/Stage1_2.xlsx,,T3,B3,c,"['c', 'm']","['Clue', 'Monopoly']","[-0.15, 0.5]","[0.15, 0.5]",1,1,,,,,,,,,0,11,11,11,0,1,1,4,,,,,,,,,,,,,,,,,,,,,,,,,,,,,,,,,,,,,,,,,,,,,,,,,,,,,,,1079.396361361,None,1079.396361361,None,1079.396361361,None,c,1,1.3779249050003273,1080.929901868,None,1080.929901868,None,1080.929901868,None,1082.3652218510001,None,1082.3652218510001,None,1082.3652218510001,None,1082.3652218510001,None,,,,,,,,,,,,,,,,,,,,,,,,,,,,,,,,,,,,,,,,,,,,001,58,2020_Feb_04_1042,spring_faces,3.1.5,59.92162562957524,
condition files/Stage1_2.xlsx,,B1,T1,c,"['c', 'm']","['Clue', 'Monopoly']","[-0.15, 0.5]","[0.15, 0.5]",1,1,,,,,,,,,0,11,11,11,0,2,2,0,,,,,,,,,,,,,,,,,,,,,,,,,,,,,,,,,,,,,,,,,,,,,,,,,,,,,,,1084.3291736400001,None,1084.3291736400001,None,1084.3291736400001,None,c,1,1.195890775999942,1085.879933189,None,1085.879933189,None,1085.879933189,None,1087.1299032600004,None,1087.1299032600004,None,1087.1299032600004,None,1087.1299032600004,None,,,,,,,,,,,,,,,,,,,,,,,,,,,,,,,,,,,,,,,,,,,,001,58,2020_Feb_04_1042,spring_faces,3.1.5,59.92162562957524,
condition files/Stage1_2.xlsx,,B3,T4,m,"['c', 'm']","['Clue', 'Monopoly']","[-0.15, 0.5]","[0.15, 0.5]",1,1,,,,,,,,,0,11,11,11,0,3,3,6,,,,,,,,,,,,,,,,,,,,,,,,,,,,,,,,,,,,,,,,,,,,,,,,,,,,,,,1089.096072236,None,1089.096072236,None,1089.096072236,None,m,1,0.7503292139999758,1090.629511105,None,1090.629511105,None,1090.629511105,None,1091.4316817639997,None,1091.4316817639997,None,1091.4316817639997,None,1091.4316817639997,None,,,,,,,,,,,,,,,,,,,,,,,,,,,,,,,,,,,,,,,,,,,,001,58,2020_Feb_04_1042,spring_faces,3.1.5,59.92162562957524,
condition files/Stage1_2.xlsx,,B2,T2,m,"['c', 'm']","['Clue', 'Monopoly']","[-0.15, 0.5]","[0.15, 0.5]",1,1,,,,,,,,,0,11,11,11,0,4,4,3,,,,,,,,,,,,,,,,,,,,,,,,,,,,,,,,,,,,,,,,,,,,,,,,,,,,,,,1093.3967867229999,None,1093.3967867229999,None,1093.3967867229999,None,c,0,0.8656724439997561,1094.9461463969997,None,1094.9461463969997,None,1094.9461463969997,None,1095.8626889789998,None,1095.8626889789998,None,1095.8626889789998,None,1095.8626889789998,None,,,,,,,,,,,,,,,,,,,,,,,,,,,,,,,,,,,,,,,,,,,,001,58,2020_Feb_04_1042,spring_faces,3.1.5,59.92162562957524,
condition files/Stage1_2.xlsx,,T2,B1,c,"['c', 'm']","['Clue', 'Monopoly']","[-0.15, 0.5]","[0.15, 0.5]",1,1,,,,,,,,,0,11,11,11,0,5,5,1,,,,,,,,,,,,,,,,,,,,,,,,,,,,,,,,,,,,,,,,,,,,,,,,,,,,,,,1097.829171852,None,1097.829171852,None,1097.829171852,None,c,1,0.9920483309997508,1099.3638695940003,None,1099.3638695940003,None,1099.3638695940003,None,1100.413985181,None,1100.413985181,None,1100.413985181,None,1100.413985181,None,,,,,,,,,,,,,,,,,,,,,,,,,,,,,,,,,,,,,,,,,,,,001,58,2020_Feb_04_1042,spring_faces,3.1.5,59.92162562957524,
condition files/Stage1_2.xlsx,,B4,T3,c,"['c', 'm']","['Clue', 'Monopoly']","[-0.15, 0.5]","[0.15, 0.5]",1,1,,,,,,,,,0,11,11,11,0,6,6,5,,,,,,,,,,,,,,,,,,,,,,,,,,,,,,,,,,,,,,,,,,,,,,,,,,,,,,,1102.3792972300002,None,1102.3792972300002,None,1102.3792972300002,None,c,1,1.0190570210006626,1103.9127461760004,None,1103.9127461760004,None,1103.9127461760004,None,1104.9959714000001,None,1104.9959714000001,None,1104.9959714000001,None,1104.9959714000001,None,,,,,,,,,,,,,,,,,,,,,,,,,,,,,,,,,,,,,,,,,,,,001,58,2020_Feb_04_1042,spring_faces,3.1.5,59.92162562957524,
condition files/Stage1_2.xlsx,,T1,B2,m,"['c', 'm']","['Clue', 'Monopoly']","[-0.15, 0.5]","[0.15, 0.5]",1,1,,,,,,,,,0,11,11,11,0,7,7,2,,,,,,,,,,,,,,,,,,,,,,,,,,,,,,,,,,,,,,,,,,,,,,,,,,,,,,,1106.963074633,None,1106.963074633,None,1106.963074633,None,m,1,1.6659774700001435,1108.4978355300004,None,1108.4978355300004,None,1108.4978355300004,None,1110.2296451309999,None,1110.2296451309999,None,1110.2296451309999,None,1110.2296451309999,None,,,,,,,,,,,,,,,,,,,,,,,,,,,,,,,,,,,,,,,,,,,,001,58,2020_Feb_04_1042,spring_faces,3.1.5,59.92162562957524,
,,,,,,,,,,,,,,,,,,,,,,,,,,,,,,,,,,,,,,,,,,,,,,,,,,,,,,,,,,,,,,,,,,,,,,,,,,,,,,,,,,,,,,,,,,,,,,,,,,,,,,,,,,,,,,,,1112.2133261180002,None,space,9.510865715999898,1117.2130330539999,None,,,,,,,,,,,,,,,,,,,,,,,,,,,,,,001,58,2020_Feb_04_1042,spring_faces,3.1.5,59.92162562957524,
condition files/Stage2_1.xlsx,,T5,B5,s,"['s', 'r']","['Stratego', 'Risk']","[-0.15, 0.5]","[0.15, 0.5]",1,1,,,,,,,,,,,,,,,,,0,0,0,0,0,0,0,0,,,,,,,,,,,,,,,,,,,,,,,,,,,,,,,,,,,,,,,,,,,,,,,1126.7801209169997,None,1126.7801209169997,None,1126.7801209169997,None,r,0,1.0494235140004093,1128.3463972800005,None,1128.3463972800005,None,1128.3463972800005,None,1129.4480852210004,None,1129.4480852210004,None,1129.4480852210004,None,1129.4480852210004,None,,,,,,,,,,,,,,,1117.2130330539999,None,,,,,,,,,,,,,,,,,,,,,,,,,,,,001,58,2020_Feb_04_1042,spring_faces,3.1.5,59.92162562957524,
condition files/Stage2_1.xlsx,,T1,B1,s,"['s', 'r']","['Stratego', 'Risk']","[-0.15, 0.5]","[0.15, 0.5]",1,1,,,,,,,,,,,,,,,,,0,0,0,0,0,1,1,2,,,,,,,,,,,,,,,,,,,,,,,,,,,,,,,,,,,,,,,,,,,,,,,1131.413023814,None,1131.413023814,None,1131.413023814,None,r,0,0.8165026500000749,1132.9633222329999,None,1132.9633222329999,None,1132.9633222329999,None,1133.829157392,None,1133.829157392,None,1133.829157392,None,1133.829157392,None,,,,,,,,,,,,,,,,,,,,,,,,,,,,,,,,,,,,,,,,,,,,001,58,2020_Feb_04_1042,spring_faces,3.1.5,59.92162562957524,
condition files/Stage2_1.xlsx,,B4,T4,r,"['s', 'r']","['Stratego', 'Risk']","[-0.15, 0.5]","[0.15, 0.5]",1,1,,,,,,,,,,,,,,,,,0,0,0,0,0,2,2,5,,,,,,,,,,,,,,,,,,,,,,,,,,,,,,,,,,,,,,,,,,,,,,,1135.795726895,None,1135.795726895,None,1135.795726895,None,s,0,0.7376075679994756,1137.3302354000002,None,1137.3302354000002,None,1137.3302354000002,None,1138.1467845000002,None,1138.1467845000002,None,1138.1467845000002,None,1138.1467845000002,None,,,,,,,,,,,,,,,,,,,,,,,,,,,,,,,,,,,,,,,,,,,,001,58,2020_Feb_04_1042,spring_faces,3.1.5,59.92162562957524,
condition files/Stage2_1.xlsx,,T3,B3,s,"['s', 'r']","['Stratego', 'Risk']","[-0.15, 0.5]","[0.15, 0.5]",1,1,,,,,,,,,,,,,,,,,0,0,0,0,0,3,3,4,,,,,,,,,,,,,,,,,,,,,,,,,,,,,,,,,,,,,,,,,,,,,,,1140.096347952,None,1140.096347952,None,1140.096347952,None,r,0,0.8846309339996878,1141.6312078340002,None,1141.6312078340002,None,1141.6312078340002,None,1142.5796951590005,None,1142.5796951590005,None,1142.5796951590005,None,1142.5796951590005,None,,,,,,,,,,,,,,,,,,,,,,,,,,,,,,,,,,,,,,,,,,,,001,58,2020_Feb_04_1042,spring_faces,3.1.5,59.92162562957524,
condition files/Stage2_1.xlsx,,B2,T2,r,"['s', 'r']","['Stratego', 'Risk']","[-0.15, 0.5]","[0.15, 0.5]",1,1,,,,,,,,,,,,,,,,,0,0,0,0,0,4,4,3,,,,,,,,,,,,,,,,,,,,,,,,,,,,,,,,,,,,,,,,,,,,,,,1144.5463887580004,None,1144.5463887580004,None,1144.5463887580004,None,r,1,1.203204784999798,1146.0806445900002,None,1146.0806445900002,None,1146.0806445900002,None,1147.3468242969998,None,1147.3468242969998,None,1147.3468242969998,None,1147.3468242969998,None,,,,,,,,,,,,,,,,,,,,,,,,,,,,,,,,,,,,,,,,,,,,001,58,2020_Feb_04_1042,spring_faces,3.1.5,59.92162562957524,
condition files/Stage2_1.xlsx,,B6,T6,r,"['s', 'r']","['Stratego', 'Risk']","[-0.15, 0.5]","[0.15, 0.5]",1,1,,,,,,,,,,,,,,,,,0,0,0,0,0,5,5,1,,,,,,,,,,,,,,,,,,,,,,,,,,,,,,,,,,,,,,,,,,,,,,,1149.3130698620002,None,1149.3130698620002,None,1149.3130698620002,None,s,0,0.6742793399998845,1150.913615199,None,1150.913615199,None,1150.913615199,None,1151.646739446,None,1151.646739446,None,1151.646739446,None,1151.646739446,None,,,,,,,,,,,,,,,,,,,,,,,,,,,,,,,,,,,,,,,,,,,,001,58,2020_Feb_04_1042,spring_faces,3.1.5,59.92162562957524,
condition files/Stage2_2.xlsx,,T6,B6,r,"['s', 'r']","['Stratego', 'Risk']","[-0.15, 0.5]","[0.15, 0.5]",1,1,,,,,,,,,,,,,,,,,0,1,1,1,0,0,0,1,,,,,,,,,,,,,,,,,,,,,,,,,,,,,,,,,,,,,,,,,,,,,,,1153.630080902,None,1153.630080902,None,1153.630080902,None,r,1,0.8874322239998946,1155.1643974129997,None,1155.1643974129997,None,1155.1643974129997,None,1156.1130435620003,None,1156.1130435620003,None,1156.1130435620003,None,1156.1130435620003,None,,,,,,,,,,,,,,,,,,,,,,,,,,,,,,,,,,,,,,,,,,,,001,58,2020_Feb_04_1042,spring_faces,3.1.5,59.92162562957524,
condition files/Stage2_2.xlsx,,B5,T5,s,"['s', 'r']","['Stratego', 'Risk']","[-0.15, 0.5]","[0.15, 0.5]",1,1,,,,,,,,,,,,,,,,,0,1,1,1,0,1,1,0,,,,,,,,,,,,,,,,,,,,,,,,,,,,,,,,,,,,,,,,,,,,,,,1158.0797825659997,None,1158.0797825659997,None,1158.0797825659997,None,s,1,0.6443509040000208,1159.6156288329998,None,1159.6156288329998,None,1159.6156288329998,None,1160.3300922040003,None,1160.3300922040003,None,1160.3300922040003,None,1160.3300922040003,None,,,,,,,,,,,,,,,,,,,,,,,,,,,,,,,,,,,,,,,,,,,,001,58,2020_Feb_04_1042,spring_faces,3.1.5,59.92162562957524,
condition files/Stage2_2.xlsx,,T2,B2,r,"['s', 'r']","['Stratego', 'Risk']","[-0.15, 0.5]","[0.15, 0.5]",1,1,,,,,,,,,,,,,,,,,0,1,1,1,0,2,2,3,,,,,,,,,,,,,,,,,,,,,,,,,,,,,,,,,,,,,,,,,,,,,,,1162.2792898900002,None,1162.2792898900002,None,1162.2792898900002,None,r,1,1.5189440570002262,1163.8129002869996,None,1163.8129002869996,None,1163.8129002869996,None,1165.399386947,None,1165.399386947,None,1165.399386947,None,1165.399386947,None,,,,,,,,,,,,,,,,,,,,,,,,,,,,,,,,,,,,,,,,,,,,001,58,2020_Feb_04_1042,spring_faces,3.1.5,59.92162562957524,
condition files/Stage2_2.xlsx,,T4,B4,r,"['s', 'r']","['Stratego', 'Risk']","[-0.15, 0.5]","[0.15, 0.5]",1,1,,,,,,,,,,,,,,,,,0,1,1,1,0,3,3,5,,,,,,,,,,,,,,,,,,,,,,,,,,,,,,,,,,,,,,,,,,,,,,,1167.3629571699998,None,1167.3629571699998,None,1167.3629571699998,None,s,0,0.7549587029998293,1168.9128827130003,None,1168.9128827130003,None,1168.9128827130003,None,1169.7303058330003,None,1169.7303058330003,None,1169.7303058330003,None,1169.7303058330003,None,,,,,,,,,,,,,,,,,,,,,,,,,,,,,,,,,,,,,,,,,,,,001,58,2020_Feb_04_1042,spring_faces,3.1.5,59.92162562957524,
condition files/Stage2_2.xlsx,,B1,T1,s,"['s', 'r']","['Stratego', 'Risk']","[-0.15, 0.5]","[0.15, 0.5]",1,1,,,,,,,,,,,,,,,,,0,1,1,1,0,4,4,2,,,,,,,,,,,,,,,,,,,,,,,,,,,,,,,,,,,,,,,,,,,,,,,1171.696431977,None,1171.696431977,None,1171.696431977,None,r,0,0.8533826439997938,1173.2304540850005,None,1173.2304540850005,None,1173.2304540850005,None,1174.1489976959997,None,1174.1489976959997,None,1174.1489976959997,None,1174.1489976959997,None,,,,,,,,,,,,,,,,,,,,,,,,,,,,,,,,,,,,,,,,,,,,001,58,2020_Feb_04_1042,spring_faces,3.1.5,59.92162562957524,
condition files/Stage2_2.xlsx,,B3,T3,s,"['s', 'r']","['Stratego', 'Risk']","[-0.15, 0.5]","[0.15, 0.5]",1,1,,,,,,,,,,,,,,,,,0,1,1,1,0,5,5,4,,,,,,,,,,,,,,,,,,,,,,,,,,,,,,,,,,,,,,,,,,,,,,,1176.1127321449999,None,1176.1127321449999,None,1176.1127321449999,None,s,1,0.9015715800005637,1177.6462493330005,None,1177.6462493330005,None,1177.6462493330005,None,1178.6134881949997,None,1178.6134881949997,None,1178.6134881949997,None,1178.6134881949997,None,,,,,,,,,,,,,,,,,,,,,,,,,,,,,,,,,,,,,,,,,,,,001,58,2020_Feb_04_1042,spring_faces,3.1.5,59.92162562957524,
condition files/Stage2_1.xlsx,,T3,B3,s,"['s', 'r']","['Stratego', 'Risk']","[-0.15, 0.5]","[0.15, 0.5]",1,1,,,,,,,,,,,,,,,,,0,2,2,2,0,0,0,4,,,,,,,,,,,,,,,,,,,,,,,,,,,,,,,,,,,,,,,,,,,,,,,1180.5959108789998,None,1180.5959108789998,None,1180.5959108789998,None,r,0,3.5383528140000635,1182.1294966199998,None,1182.1294966199998,None,1182.1294966199998,None,1185.729259096,None,1185.729259096,None,1185.729259096,None,1185.729259096,None,,,,,,,,,,,,,,,,,,,,,,,,,,,,,,,,,,,,,,,,,,,,001,58,2020_Feb_04_1042,spring_faces,3.1.5,59.92162562957524,
condition files/Stage2_1.xlsx,,B6,T6,r,"['s', 'r']","['Stratego', 'Risk']","[-0.15, 0.5]","[0.15, 0.5]",1,1,,,,,,,,,,,,,,,,,0,2,2,2,0,1,1,1,,,,,,,,,,,,,,,,,,,,,,,,,,,,,,,,,,,,,,,,,,,,,,,1187.696341597,None,1187.696341597,None,1187.696341597,None,r,1,1.5419188659998326,1189.229963462,None,1189.229963462,None,1189.229963462,None,1190.829787137,None,1190.829787137,None,1190.829787137,None,1190.829787137,None,,,,,,,,,,,,,,,,,,,,,,,,,,,,,,,,,,,,,,,,,,,,001,58,2020_Feb_04_1042,spring_faces,3.1.5,59.92162562957524,
condition files/Stage2_1.xlsx,,B4,T4,r,"['s', 'r']","['Stratego', 'Risk']","[-0.15, 0.5]","[0.15, 0.5]",1,1,,,,,,,,,,,,,,,,,0,2,2,2,0,2,2,5,,,,,,,,,,,,,,,,,,,,,,,,,,,,,,,,,,,,,,,,,,,,,,,1192.7965363859998,None,1192.7965363859998,None,1192.7965363859998,None,s,0,1.2899539760001062,1194.329946247,None,1194.329946247,None,1194.329946247,None,1195.6794886339999,None,1195.6794886339999,None,1195.6794886339999,None,1195.6794886339999,None,,,,,,,,,,,,,,,,,,,,,,,,,,,,,,,,,,,,,,,,,,,,001,58,2020_Feb_04_1042,spring_faces,3.1.5,59.92162562957524,
condition files/Stage2_1.xlsx,,T5,B5,s,"['s', 'r']","['Stratego', 'Risk']","[-0.15, 0.5]","[0.15, 0.5]",1,1,,,,,,,,,,,,,,,,,0,2,2,2,0,3,3,0,,,,,,,,,,,,,,,,,,,,,,,,,,,,,,,,,,,,,,,,,,,,,,,1197.6458180940003,None,1197.6458180940003,None,1197.6458180940003,None,s,1,0.9682365619992197,1199.179549299,None,1199.179549299,None,1199.179549299,None,1200.229363512,None,1200.229363512,None,1200.229363512,None,1200.229363512,None,,,,,,,,,,,,,,,,,,,,,,,,,,,,,,,,,,,,,,,,,,,,001,58,2020_Feb_04_1042,spring_faces,3.1.5,59.92162562957524,
condition files/Stage2_1.xlsx,,T1,B1,s,"['s', 'r']","['Stratego', 'Risk']","[-0.15, 0.5]","[0.15, 0.5]",1,1,,,,,,,,,,,,,,,,,0,2,2,2,0,4,4,2,,,,,,,,,,,,,,,,,,,,,,,,,,,,,,,,,,,,,,,,,,,,,,,1202.1797194639998,None,1202.1797194639998,None,1202.1797194639998,None,r,0,1.3606814759996269,1203.7151589709997,None,1203.7151589709997,None,1203.7151589709997,None,1205.1299608390004,None,1205.1299608390004,None,1205.1299608390004,None,1205.1299608390004,None,,,,,,,,,,,,,,,,,,,,,,,,,,,,,,,,,,,,,,,,,,,,001,58,2020_Feb_04_1042,spring_faces,3.1.5,59.92162562957524,
condition files/Stage2_1.xlsx,,B2,T2,r,"['s', 'r']","['Stratego', 'Risk']","[-0.15, 0.5]","[0.15, 0.5]",1,1,,,,,,,,,,,,,,,,,0,2,2,2,0,5,5,3,,,,,,,,,,,,,,,,,,,,,,,,,,,,,,,,,,,,,,,,,,,,,,,1207.0964092660001,None,1207.0964092660001,None,1207.0964092660001,None,s,0,0.7819197019998683,1208.629913968,None,1208.629913968,None,1208.629913968,None,1209.4627149270004,None,1209.4627149270004,None,1209.4627149270004,None,1209.4627149270004,None,,,,,,,,,,,,,,,,,,,,,,,,,,,,,,,,,,,,,,,,,,,,001,58,2020_Feb_04_1042,spring_faces,3.1.5,59.92162562957524,
condition files/Stage2_2.xlsx,,B5,T5,s,"['s', 'r']","['Stratego', 'Risk']","[-0.15, 0.5]","[0.15, 0.5]",1,1,,,,,,,,,,,,,,,,,0,3,3,3,0,0,0,0,,,,,,,,,,,,,,,,,,,,,,,,,,,,,,,,,,,,,,,,,,,,,,,1211.4459564679996,None,1211.4459564679996,None,1211.4459564679996,None,r,0,0.9761195619994396,1212.9798041480003,None,1212.9798041480003,None,1212.9798041480003,None,1214.0142488489996,None,1214.0142488489996,None,1214.0142488489996,None,1214.0142488489996,None,,,,,,,,,,,,,,,,,,,,,,,,,,,,,,,,,,,,,,,,,,,,001,58,2020_Feb_04_1042,spring_faces,3.1.5,59.92162562957524,
condition files/Stage2_2.xlsx,,T2,B2,r,"['s', 'r']","['Stratego', 'Risk']","[-0.15, 0.5]","[0.15, 0.5]",1,1,,,,,,,,,,,,,,,,,0,3,3,3,0,1,1,3,,,,,,,,,,,,,,,,,,,,,,,,,,,,,,,,,,,,,,,,,,,,,,,1215.9797365340005,None,1215.9797365340005,None,1215.9797365340005,None,r,1,4.232337231999736,1217.5154626360004,None,1217.5154626360004,None,1217.5154626360004,None,1221.8124014130003,None,1221.8124014130003,None,1221.8124014130003,None,1221.8124014130003,None,,,,,,,,,,,,,,,,,,,,,,,,,,,,,,,,,,,,,,,,,,,,001,58,2020_Feb_04_1042,spring_faces,3.1.5,59.92162562957524,
condition files/Stage2_2.xlsx,,T6,B6,r,"['s', 'r']","['Stratego', 'Risk']","[-0.15, 0.5]","[0.15, 0.5]",1,1,,,,,,,,,,,,,,,,,0,3,3,3,0,2,2,1,,,,,,,,,,,,,,,,,,,,,,,,,,,,,,,,,,,,,,,,,,,,,,,1223.779827078,None,1223.779827078,None,1223.779827078,None,s,0,1.8107960180004739,1225.3131062400003,None,1225.3131062400003,None,1225.3131062400003,None,1227.1797772719997,None,1227.1797772719997,None,1227.1797772719997,None,1227.1797772719997,None,,,,,,,,,,,,,,,,,,,,,,,,,,,,,,,,,,,,,,,,,,,,001,58,2020_Feb_04_1042,spring_faces,3.1.5,59.92162562957524,
condition files/Stage2_2.xlsx,,B3,T3,s,"['s', 'r']","['Stratego', 'Risk']","[-0.15, 0.5]","[0.15, 0.5]",1,1,,,,,,,,,,,,,,,,,0,3,3,3,0,3,3,4,,,,,,,,,,,,,,,,,,,,,,,,,,,,,,,,,,,,,,,,,,,,,,,1229.1461583799996,None,1229.1461583799996,None,1229.1461583799996,None,r,0,0.3000121909999507,1230.6798343450005,None,1230.6798343450005,None,1230.6798343450005,None,1231.0465051209999,None,1231.0465051209999,None,1231.0465051209999,None,1231.0465051209999,None,,,,,,,,,,,,,,,,,,,,,,,,,,,,,,,,,,,,,,,,,,,,001,58,2020_Feb_04_1042,spring_faces,3.1.5,59.92162562957524,
condition files/Stage2_2.xlsx,,B1,T1,s,"['s', 'r']","['Stratego', 'Risk']","[-0.15, 0.5]","[0.15, 0.5]",1,1,,,,,,,,,,,,,,,,,0,3,3,3,0,4,4,2,,,,,,,,,,,,,,,,,,,,,,,,,,,,,,,,,,,,,,,,,,,,,,,1232.9958981960003,None,1232.9958981960003,None,1232.9958981960003,None,r,0,0.9927000079997015,1234.5312219749999,None,1234.5312219749999,None,1234.5312219749999,None,1235.5795030519998,None,1235.5795030519998,None,1235.5795030519998,None,1235.5795030519998,None,,,,,,,,,,,,,,,,,,,,,,,,,,,,,,,,,,,,,,,,,,,,001,58,2020_Feb_04_1042,spring_faces,3.1.5,59.92162562957524,
condition files/Stage2_2.xlsx,,T4,B4,r,"['s', 'r']","['Stratego', 'Risk']","[-0.15, 0.5]","[0.15, 0.5]",1,1,,,,,,,,,,,,,,,,,0,3,3,3,0,5,5,5,,,,,,,,,,,,,,,,,,,,,,,,,,,,,,,,,,,,,,,,,,,,,,,1237.546379496,None,1237.546379496,None,1237.546379496,None,s,0,1.0039853260004747,1239.079861738,None,1239.079861738,None,1239.079861738,None,1240.1460715919998,None,1240.1460715919998,None,1240.1460715919998,None,1240.1460715919998,None,,,,,,,,,,,,,,,,,,,,,,,,,,,,,,,,,,,,,,,,,,,,001,58,2020_Feb_04_1042,spring_faces,3.1.5,59.92162562957524,
condition files/Stage2_1.xlsx,,B6,T6,r,"['s', 'r']","['Stratego', 'Risk']","[-0.15, 0.5]","[0.15, 0.5]",1,1,,,,,,,,,,,,,,,,,0,4,4,4,0,0,0,1,,,,,,,,,,,,,,,,,,,,,,,,,,,,,,,,,,,,,,,,,,,,,,,1242.1299134040005,None,1242.1299134040005,None,1242.1299134040005,None,r,1,0.6439444120005646,1243.6799555940001,None,1243.6799555940001,None,1243.6799555940001,None,1244.3798819449999,None,1244.3798819449999,None,1244.3798819449999,None,1244.3798819449999,None,,,,,,,,,,,,,,,,,,,,,,,,,,,,,,,,,,,,,,,,,,,,001,58,2020_Feb_04_1042,spring_faces,3.1.5,59.92162562957524,
condition files/Stage2_1.xlsx,,B2,T2,r,"['s', 'r']","['Stratego', 'Risk']","[-0.15, 0.5]","[0.15, 0.5]",1,1,,,,,,,,,,,,,,,,,0,4,4,4,0,1,1,3,,,,,,,,,,,,,,,,,,,,,,,,,,,,,,,,,,,,,,,,,,,,,,,1246.3463954180002,None,1246.3463954180002,None,1246.3463954180002,None,r,1,1.0181782980007483,1247.8816642449997,None,1247.8816642449997,None,1247.8816642449997,None,1248.9627461819996,None,1248.9627461819996,None,1248.9627461819996,None,1248.9627461819996,None,,,,,,,,,,,,,,,,,,,,,,,,,,,,,,,,,,,,,,,,,,,,001,58,2020_Feb_04_1042,spring_faces,3.1.5,59.92162562957524,
condition files/Stage2_1.xlsx,,T3,B3,s,"['s', 'r']","['Stratego', 'Risk']","[-0.15, 0.5]","[0.15, 0.5]",1,1,,,,,,,,,,,,,,,,,0,4,4,4,0,2,2,4,,,,,,,,,,,,,,,,,,,,,,,,,,,,,,,,,,,,,,,,,,,,,,,1250.9296885810004,None,1250.9296885810004,None,1250.9296885810004,None,s,1,0.7244426750003186,1252.4634752549996,None,1252.4634752549996,None,1252.4634752549996,None,1253.2486947459997,None,1253.2486947459997,None,1253.2486947459997,None,1253.2486947459997,None,,,,,,,,,,,,,,,,,,,,,,,,,,,,,,,,,,,,,,,,,,,,001,58,2020_Feb_04_1042,spring_faces,3.1.5,59.92162562957524,
condition files/Stage2_1.xlsx,,T5,B5,s,"['s', 'r']","['Stratego', 'Risk']","[-0.15, 0.5]","[0.15, 0.5]",1,1,,,,,,,,,,,,,,,,,0,4,4,4,0,3,3,0,,,,,,,,,,,,,,,,,,,,,,,,,,,,,,,,,,,,,,,,,,,,,,,1255.2131956179996,None,1255.2131956179996,None,1255.2131956179996,None,r,0,2.713637546999962,1256.7462892689996,None,1256.7462892689996,None,1256.7462892689996,None,1259.5130429810001,None,1259.5130429810001,None,1259.5130429810001,None,1259.5130429810001,None,,,,,,,,,,,,,,,,,,,,,,,,,,,,,,,,,,,,,,,,,,,,001,58,2020_Feb_04_1042,spring_faces,3.1.5,59.92162562957524,
