condsFile,subStage,cue1,cue2,correct,responseKeys,responseNames,cue1Position,cue2Position,cue1Opacity,cue2Opacity,stageLoop0.thisRepN,stageLoop0.thisTrialN,stageLoop0.thisN,stageLoop0.thisIndex,blockLoop0.thisRepN,blockLoop0.thisTrialN,blockLoop0.thisN,blockLoop0.thisIndex,stage1Loop.thisRepN,stage1Loop.thisTrialN,stage1Loop.thisN,stage1Loop.thisIndex,blockLoop1.thisRepN,blockLoop1.thisTrialN,blockLoop1.thisN,blockLoop1.thisIndex,stage2Loop.thisRepN,stage2Loop.thisTrialN,stage2Loop.thisN,stage2Loop.thisIndex,blockLoop2.thisRepN,blockLoop2.thisTrialN,blockLoop2.thisN,blockLoop2.thisIndex,testLoop.thisRepN,testLoop.thisTrialN,testLoop.thisN,testLoop.thisIndex,blockLoopTest.thisRepN,blockLoopTest.thisTrialN,blockLoopTest.thisN,blockLoopTest.thisIndex,cuePics,id_instr_text.started,id_instr_text.stopped,space_to_continue_2.started,space_to_continue_2.stopped,end_instructions_resp_3.keys,end_instructions_resp_3.rt,end_instructions_resp_3.started,end_instructions_resp_3.stopped,id_input_instr.started,id_input_instr.stopped,id_input_rect.started,id_input_rect.stopped,id_input_resp.keys,id_input_resp.rt,id_input_resp.started,id_input_resp.stopped,sonaID,id_input_text.started,id_input_text.stopped,final_text.started,final_text.stopped,instructions.started,instructions.stopped,end_instructions_resp.keys,end_instructions_resp.rt,end_instructions_resp.started,end_instructions_resp.stopped,space_to_continue.started,space_to_continue.stopped,instructions_stage0.started,instructions_stage0.stopped,end_instructions_resp_stage0.keys,end_instructions_resp_stage0.rt,end_instructions_resp_stage0.started,end_instructions_resp_stage0.stopped,space_to_continue_stage0.started,space_to_continue_stage0.stopped,text.started,text.stopped,resp_text1.started,resp_text1.stopped,resp_text2.started,resp_text2.stopped,trial_resp.keys,trial_resp.corr,trial_resp.rt,trial_resp.started,trial_resp.stopped,cue1Image.started,cue1Image.stopped,cue2Image.started,cue2Image.stopped,cue1Image_fb.started,cue1Image_fb.stopped,cue2Image_fb.started,cue2Image_fb.stopped,fb_text_answer.started,fb_text_answer.stopped,feedback_image.started,feedback_image.stopped,instructions_stage1.started,instructions_stage1.stopped,end_instructions_resp_stage1.keys,end_instructions_resp_stage1.rt,end_instructions_resp_stage1.started,end_instructions_resp_stage1.stopped,space_to_continue_stage1.started,space_to_continue_stage1.stopped,instructions_2.started,instructions_2.stopped,end_instructions_resp_2.keys,end_instructions_resp_2.rt,end_instructions_resp_2.started,end_instructions_resp_2.stopped,press_space_to_continue_stage2.started,press_space_to_continue_stage2.stopped,instructions_testStage1.started,instructions_testStage1.stopped,end_instructions_resp_test1.keys,end_instructions_resp_test1.rt,end_instructions_resp_test1.started,end_instructions_resp_test1.stopped,press_space_to_continue_test1.started,press_space_to_continue_test1.stopped,cue1Image_testChoice.started,cue1Image_testChoice.stopped,cue2Image_testChoice.started,cue2Image_testChoice.stopped,test_resp.keys,test_resp.corr,test_resp.rt,test_resp.started,test_resp.stopped,cue1Image_testConf.started,cue1Image_testConf.stopped,cue2Image_testConf.started,cue2Image_testConf.stopped,conf_reminder.started,conf_reminder.stopped,conf_rating.response,conf_rating.rt,conf_rating.started,conf_rating.stopped,session,participant,date,expName,psychopyVersion,frameRate,
,,,,,,,,,,,,,,,,,,,,,,,,,,,,,,,,,,,,,,,,,,,"{'none': 'pictures/20M_AN_C.png', 'alpha': 'pictures/SHINEd_pear.png', 'beta': 'pictures/SHINEd_melon.png', 'theta': 'pictures/SHINEd_apple.png', 'phi': 'pictures/SHINEd_pepper.png', 'T1': 'pictures/26M_AN_C.png', 'T2': 'pictures/23M_AN_C.png', 'T3': 'pictures/32M_AN_C.png', 'T4': 'pictures/31M_AN_C.png', 'T5': 'pictures/22M_AN_C.png', 'T6': 'pictures/33M_AN_C.png', 'B1': 'pictures/37M_NE_C.png', 'B2': 'pictures/25M_NE_C.png', 'B3': 'pictures/20M_NE_C.png', 'B4': 'pictures/36M_NE_C.png', 'B5': 'pictures/34M_NE_C.png', 'B6': 'pictures/38M_NE_C.png'}",10.665032773999883,None,15.648345349999545,None,space,1983.5596317910004,15.648345349999545,None,,,,,,,,,,,,,,,,,,,,,,,,,,,,,,,,,,,,,,,,,,,,,,,,,,,,,,,,,,,,,,,,,,,,,,,,,,,,,,,,,,,,,,,,,,,,,,,,001,61,2020_Feb_04_1121,spring_faces,3.1.5,60.00608197652422,
,,,,,,,,,,,,,,,,,,,,,,,,,,,,,,,,,,,,,,,,,,,,,,,,,,,,1999.5980685169998,None,1999.5980685169998,None,"['0', '4', '2', '6', 'p', 'o', 'l', 'y', 'n']","[6.9377938819998235, 7.04976542499935, 13.68980104199909, 13.81775627999923, 16.649781307000012, 16.809894017998886, 23.129795608998393, 23.305802618999223, 24.425834800998928]",1999.5980685169998,None,,,,,,,,,,,,,,,,,,,,,,,,,,,,,,,,,,,,,,,,,,,,,,,,,,,,,,,,,,,,,,,,,,,,,,,,,,,,,,,,,,,,,,,,001,61,2020_Feb_04_1121,spring_faces,3.1.5,60.00608197652422,
,,,,,,,,,,,,,,,,,,,,,,,,,,,,,,,,,,,,,,,,,,,,,,,,,,,,,,,,,,,,0426polyn,1999.5980685169998,None,1999.5980685169998,None,2029.098820617999,None,space,4.469152894998842,2034.098713755,None,,,,,,,,,,,,,,,,,,,,,,,,,,,,,,,,,,,,,,,,,,,,,,,,,,,,,,,,,,,,,,,,,,,,,,,,,,,,,001,61,2020_Feb_04_1121,spring_faces,3.1.5,60.00608197652422,
,,,,,,,,,,,,,,,,,,,,,,,,,,,,,,,,,,,,,,,,,,,,,,,,,,,,,,,,,,,,,,,,,,,,,,,2034.098713755,None,2038.6152126870002,None,space,9.992839480999464,2043.6151267549994,None,,,,,,,,,,,,,,,,,,,,,,,,,,,,,,,,,,,,,,,,,,,,,,,,,,,,,,,,,,,,,,,,,,,,,001,61,2020_Feb_04_1121,spring_faces,3.1.5,60.00608197652422,
condition files/Stage0a.xlsx,0a,beta,none,g,"['h', 'g']","['Chess', 'Go']","[0, 0.5]","[0, 0]",1,0,0,0,0,0,0,0,0,1,,,,,,,,,,,,,,,,,,,,,,,,,,,,,,,,,,,,,,,,,,,,,,,,,,,,,,,,,,,,,2043.6151267549994,None,2053.6654252009994,None,2053.6654252009994,None,2053.6654252009994,None,g,1,4.039947187999132,2055.2319630990005,None,2055.2319630990005,None,2055.2319630990005,None,2059.3484764429995,None,2059.3484764429995,None,2059.3484764429995,None,2059.3484764429995,None,,,,,,,,,,,,,,,,,,,,,,,,,,,,,,,,,,,,,,,,,,,,001,61,2020_Feb_04_1121,spring_faces,3.1.5,60.00608197652422,
condition files/Stage0a.xlsx,0a,alpha,none,h,"['h', 'g']","['Chess', 'Go']","[0, 0.5]","[0, 0]",1,0,0,0,0,0,0,1,1,0,,,,,,,,,,,,,,,,,,,,,,,,,,,,,,,,,,,,,,,,,,,,,,,,,,,,,,,,,,,,,,,2061.2982755989997,None,2061.2982755989997,None,2061.2982755989997,None,h,1,5.526335969998399,2062.8335321199993,None,2062.8335321199993,None,2062.8335321199993,None,2068.415585532999,None,2068.415585532999,None,2068.415585532999,None,2068.415585532999,None,,,,,,,,,,,,,,,,,,,,,,,,,,,,,,,,,,,,,,,,,,,,001,61,2020_Feb_04_1121,spring_faces,3.1.5,60.00608197652422,
condition files/Stage0a.xlsx,0a,alpha,none,h,"['h', 'g']","['Chess', 'Go']","[0, 0.5]","[0, 0]",1,0,0,1,1,1,0,0,0,0,,,,,,,,,,,,,,,,,,,,,,,,,,,,,,,,,,,,,,,,,,,,,,,,,,,,,,,,,,,,,,,2070.398483121,None,2070.398483121,None,2070.398483121,None,h,1,0.8282109539995872,2071.9316518079995,None,2071.9316518079995,None,2071.9316518079995,None,2072.8153254259996,None,2072.8153254259996,None,2072.8153254259996,None,2072.8153254259996,None,,,,,,,,,,,,,,,,,,,,,,,,,,,,,,,,,,,,,,,,,,,,001,61,2020_Feb_04_1121,spring_faces,3.1.5,60.00608197652422,
condition files/Stage0a.xlsx,0a,beta,none,g,"['h', 'g']","['Chess', 'Go']","[0, 0.5]","[0, 0]",1,0,0,1,1,1,0,1,1,1,,,,,,,,,,,,,,,,,,,,,,,,,,,,,,,,,,,,,,,,,,,,,,,,,,,,,,,,,,,,,,,2074.781719965,None,2074.781719965,None,2074.781719965,None,g,1,0.3968531609989441,2076.3151508930005,None,2076.3151508930005,None,2076.3151508930005,None,2076.764547789,None,2076.764547789,None,2076.764547789,None,2076.764547789,None,,,,,,,,,,,,,,,,,,,,,,,,,,,,,,,,,,,,,,,,,,,,001,61,2020_Feb_04_1121,spring_faces,3.1.5,60.00608197652422,
condition files/Stage0a.xlsx,0a,alpha,none,h,"['h', 'g']","['Chess', 'Go']","[0, 0.5]","[0, 0]",1,0,0,2,2,2,0,0,0,0,,,,,,,,,,,,,,,,,,,,,,,,,,,,,,,,,,,,,,,,,,,,,,,,,,,,,,,,,,,,,,,2078.748290055999,None,2078.748290055999,None,2078.748290055999,None,h,1,1.1658870299997943,2080.281966057999,None,2080.281966057999,None,2080.281966057999,None,2081.4985008349995,None,2081.4985008349995,None,2081.4985008349995,None,2081.4985008349995,None,,,,,,,,,,,,,,,,,,,,,,,,,,,,,,,,,,,,,,,,,,,,001,61,2020_Feb_04_1121,spring_faces,3.1.5,60.00608197652422,
condition files/Stage0a.xlsx,0a,beta,none,g,"['h', 'g']","['Chess', 'Go']","[0, 0.5]","[0, 0]",1,0,0,2,2,2,0,1,1,1,,,,,,,,,,,,,,,,,,,,,,,,,,,,,,,,,,,,,,,,,,,,,,,,,,,,,,,,,,,,,,,2083.4651257019996,None,2083.4651257019996,None,2083.4651257019996,None,g,1,0.38536595099867554,2084.9984819090005,None,2084.9984819090005,None,2084.9984819090005,None,2085.4479750619994,None,2085.4479750619994,None,2085.4479750619994,None,2085.4479750619994,None,,,,,,,,,,,,,,,,,,,,,,,,,,,,,,,,,,,,,,,,,,,,001,61,2020_Feb_04_1121,spring_faces,3.1.5,60.00608197652422,
condition files/Stage0a.xlsx,0a,alpha,none,h,"['h', 'g']","['Chess', 'Go']","[0, 0.5]","[0, 0]",1,0,0,3,3,3,0,0,0,0,,,,,,,,,,,,,,,,,,,,,,,,,,,,,,,,,,,,,,,,,,,,,,,,,,,,,,,,,,,,,,,2087.43218161,None,2087.43218161,None,2087.43218161,None,h,1,0.947061548999045,2088.964958913999,None,2088.964958913999,None,2088.964958913999,None,2089.9648898329997,None,2089.9648898329997,None,2089.9648898329997,None,2089.9648898329997,None,,,,,,,,,,,,,,,,,,,,,,,,,,,,,,,,,,,,,,,,,,,,001,61,2020_Feb_04_1121,spring_faces,3.1.5,60.00608197652422,
condition files/Stage0a.xlsx,0a,beta,none,g,"['h', 'g']","['Chess', 'Go']","[0, 0.5]","[0, 0]",1,0,0,3,3,3,0,1,1,1,,,,,,,,,,,,,,,,,,,,,,,,,,,,,,,,,,,,,,,,,,,,,,,,,,,,,,,,,,,,,,,2091.931670239999,None,2091.931670239999,None,2091.931670239999,None,g,1,0.5746993299999303,2093.465226254999,None,2093.465226254999,None,2093.465226254999,None,2094.0981345380005,None,2094.0981345380005,None,2094.0981345380005,None,2094.0981345380005,None,,,,,,,,,,,,,,,,,,,,,,,,,,,,,,,,,,,,,,,,,,,,001,61,2020_Feb_04_1121,spring_faces,3.1.5,60.00608197652422,
condition files/Stage0a.xlsx,0a,alpha,none,h,"['h', 'g']","['Chess', 'Go']","[0, 0.5]","[0, 0]",1,0,0,4,4,4,0,0,0,0,,,,,,,,,,,,,,,,,,,,,,,,,,,,,,,,,,,,,,,,,,,,,,,,,,,,,,,,,,,,,,,2096.0820059920006,None,2096.0820059920006,None,2096.0820059920006,None,h,1,0.42464359999939916,2097.615284760999,None,2097.615284760999,None,2097.615284760999,None,2098.098339324999,None,2098.098339324999,None,2098.098339324999,None,2098.098339324999,None,,,,,,,,,,,,,,,,,,,,,,,,,,,,,,,,,,,,,,,,,,,,001,61,2020_Feb_04_1121,spring_faces,3.1.5,60.00608197652422,
condition files/Stage0a.xlsx,0a,beta,none,g,"['h', 'g']","['Chess', 'Go']","[0, 0.5]","[0, 0]",1,0,0,4,4,4,0,1,1,1,,,,,,,,,,,,,,,,,,,,,,,,,,,,,,,,,,,,,,,,,,,,,,,,,,,,,,,,,,,,,,,2100.0651577869994,None,2100.0651577869994,None,2100.0651577869994,None,g,1,0.3774103070009005,2101.598522439999,None,2101.598522439999,None,2101.598522439999,None,2102.031296007999,None,2102.031296007999,None,2102.031296007999,None,2102.031296007999,None,,,,,,,,,,,,,,,,,,,,,,,,,,,,,,,,,,,,,,,,,,,,001,61,2020_Feb_04_1121,spring_faces,3.1.5,60.00608197652422,
condition files/Stage0a.xlsx,0a,beta,none,g,"['h', 'g']","['Chess', 'Go']","[0, 0.5]","[0, 0]",1,0,0,5,5,5,0,0,0,1,,,,,,,,,,,,,,,,,,,,,,,,,,,,,,,,,,,,,,,,,,,,,,,,,,,,,,,,,,,,,,,2104.0153997279995,None,2104.0153997279995,None,2104.0153997279995,None,h,0,0.36342765700101154,2105.548439906999,None,2105.548439906999,None,2105.548439906999,None,2105.9652964899997,None,2105.9652964899997,None,2105.9652964899997,None,2105.9652964899997,None,,,,,,,,,,,,,,,,,,,,,,,,,,,,,,,,,,,,,,,,,,,,001,61,2020_Feb_04_1121,spring_faces,3.1.5,60.00608197652422,
condition files/Stage0a.xlsx,0a,alpha,none,h,"['h', 'g']","['Chess', 'Go']","[0, 0.5]","[0, 0]",1,0,0,5,5,5,0,1,1,0,,,,,,,,,,,,,,,,,,,,,,,,,,,,,,,,,,,,,,,,,,,,,,,,,,,,,,,,,,,,,,,2107.9317069179997,None,2107.9317069179997,None,2107.9317069179997,None,h,1,0.5427101780005614,2109.4652366520004,None,2109.4652366520004,None,2109.4652366520004,None,2110.0654297389992,None,2110.0654297389992,None,2110.0654297389992,None,2110.0654297389992,None,,,,,,,,,,,,,,,,,,,,,,,,,,,,,,,,,,,,,,,,,,,,001,61,2020_Feb_04_1121,spring_faces,3.1.5,60.00608197652422,
condition files/Stage0b_1.xlsx,0b,none,beta,g,"['h', 'g']","['Chess', 'Go']","[-0.15, 0.5]","[0.15, 0.5]",0,1,0,6,6,6,0,0,0,1,,,,,,,,,,,,,,,,,,,,,,,,,,,,,,,,,,,,,,,,,,,,,,,,,,,,,,,,,,,,,,,2112.048133422999,None,2112.048133422999,None,2112.048133422999,None,g,1,0.3932838440014166,2113.598635216,None,2113.598635216,None,2113.598635216,None,2114.0539051739997,None,2114.0539051739997,None,2114.0539051739997,None,2114.0539051739997,None,,,,,,,,,,,,,,,,,,,,,,,,,,,,,,,,,,,,,,,,,,,,001,61,2020_Feb_04_1121,spring_faces,3.1.5,60.00608197652422,
condition files/Stage0b_1.xlsx,0b,alpha,none,h,"['h', 'g']","['Chess', 'Go']","[-0.15, 0.5]","[0.15, 0.5]",1,0,0,6,6,6,0,1,1,0,,,,,,,,,,,,,,,,,,,,,,,,,,,,,,,,,,,,,,,,,,,,,,,,,,,,,,,,,,,,,,,2116.014832965,None,2116.014832965,None,2116.014832965,None,h,1,0.5497967769988463,2117.5541267200006,None,2117.5541267200006,None,2117.5541267200006,None,2118.164275301,None,2118.164275301,None,2118.164275301,None,2118.164275301,None,,,,,,,,,,,,,,,,,,,,,,,,,,,,,,,,,,,,,,,,,,,,001,61,2020_Feb_04_1121,spring_faces,3.1.5,60.00608197652422,
condition files/Stage0b_2.xlsx,0b,beta,none,g,"['h', 'g']","['Chess', 'Go']","[-0.15, 0.5]","[0.15, 0.5]",1,0,0,7,7,7,0,0,0,1,,,,,,,,,,,,,,,,,,,,,,,,,,,,,,,,,,,,,,,,,,,,,,,,,,,,,,,,,,,,,,,2120.148592616999,None,2120.148592616999,None,2120.148592616999,None,g,1,0.5505194750003284,2121.6813380059994,None,2121.6813380059994,None,2121.6813380059994,None,2122.2817608780006,None,2122.2817608780006,None,2122.2817608780006,None,2122.2817608780006,None,,,,,,,,,,,,,,,,,,,,,,,,,,,,,,,,,,,,,,,,,,,,001,61,2020_Feb_04_1121,spring_faces,3.1.5,60.00608197652422,
condition files/Stage0b_2.xlsx,0b,none,alpha,h,"['h', 'g']","['Chess', 'Go']","[-0.15, 0.5]","[0.15, 0.5]",0,1,0,7,7,7,0,1,1,0,,,,,,,,,,,,,,,,,,,,,,,,,,,,,,,,,,,,,,,,,,,,,,,,,,,,,,,,,,,,,,,2124.2484623929995,None,2124.2484623929995,None,2124.2484623929995,None,h,1,0.3839327370005776,2125.7839504950007,None,2125.7839504950007,None,2125.7839504950007,None,2126.2335289000002,None,2126.2335289000002,None,2126.2335289000002,None,2126.2335289000002,None,,,,,,,,,,,,,,,,,,,,,,,,,,,,,,,,,,,,,,,,,,,,001,61,2020_Feb_04_1121,spring_faces,3.1.5,60.00608197652422,
condition files/Stage0b_1.xlsx,0b,none,beta,g,"['h', 'g']","['Chess', 'Go']","[-0.15, 0.5]","[0.15, 0.5]",0,1,0,8,8,8,0,0,0,1,,,,,,,,,,,,,,,,,,,,,,,,,,,,,,,,,,,,,,,,,,,,,,,,,,,,,,,,,,,,,,,2128.2150790180003,None,2128.2150790180003,None,2128.2150790180003,None,g,1,0.40353438099919003,2129.748345221,None,2129.748345221,None,2129.748345221,None,2130.215550675999,None,2130.215550675999,None,2130.215550675999,None,2130.215550675999,None,,,,,,,,,,,,,,,,,,,,,,,,,,,,,,,,,,,,,,,,,,,,001,61,2020_Feb_04_1121,spring_faces,3.1.5,60.00608197652422,
condition files/Stage0b_1.xlsx,0b,alpha,none,h,"['h', 'g']","['Chess', 'Go']","[-0.15, 0.5]","[0.15, 0.5]",1,0,0,8,8,8,0,1,1,0,,,,,,,,,,,,,,,,,,,,,,,,,,,,,,,,,,,,,,,,,,,,,,,,,,,,,,,,,,,,,,,2132.1817640730005,None,2132.1817640730005,None,2132.1817640730005,None,h,1,0.5115745160001097,2133.720254807,None,2133.720254807,None,2133.720254807,None,2134.299027145,None,2134.299027145,None,2134.299027145,None,2134.299027145,None,,,,,,,,,,,,,,,,,,,,,,,,,,,,,,,,,,,,,,,,,,,,001,61,2020_Feb_04_1121,spring_faces,3.1.5,60.00608197652422,
condition files/Stage0b_2.xlsx,0b,none,alpha,h,"['h', 'g']","['Chess', 'Go']","[-0.15, 0.5]","[0.15, 0.5]",0,1,0,9,9,9,0,0,0,0,,,,,,,,,,,,,,,,,,,,,,,,,,,,,,,,,,,,,,,,,,,,,,,,,,,,,,,,,,,,,,,2136.2651583429997,None,2136.2651583429997,None,2136.2651583429997,None,h,1,0.5292242399991665,2137.8146007670002,None,2137.8146007670002,None,2137.8146007670002,None,2138.3980464350007,None,2138.3980464350007,None,2138.3980464350007,None,2138.3980464350007,None,,,,,,,,,,,,,,,,,,,,,,,,,,,,,,,,,,,,,,,,,,,,001,61,2020_Feb_04_1121,spring_faces,3.1.5,60.00608197652422,
condition files/Stage0b_2.xlsx,0b,beta,none,g,"['h', 'g']","['Chess', 'Go']","[-0.15, 0.5]","[0.15, 0.5]",1,0,0,9,9,9,0,1,1,1,,,,,,,,,,,,,,,,,,,,,,,,,,,,,,,,,,,,,,,,,,,,,,,,,,,,,,,,,,,,,,,2140.3651268390004,None,2140.3651268390004,None,2140.3651268390004,None,g,1,0.39652943600049184,2141.915320426,None,2141.915320426,None,2141.915320426,None,2142.3664197010003,None,2142.3664197010003,None,2142.3664197010003,None,2142.3664197010003,None,,,,,,,,,,,,,,,,,,,,,,,,,,,,,,,,,,,,,,,,,,,,001,61,2020_Feb_04_1121,spring_faces,3.1.5,60.00608197652422,
condition files/Stage0b_1.xlsx,0b,alpha,none,h,"['h', 'g']","['Chess', 'Go']","[-0.15, 0.5]","[0.15, 0.5]",1,0,0,10,10,10,0,0,0,0,,,,,,,,,,,,,,,,,,,,,,,,,,,,,,,,,,,,,,,,,,,,,,,,,,,,,,,,,,,,,,,2144.348838238,None,2144.348838238,None,2144.348838238,None,h,1,0.5418686259999959,2145.8820546650004,None,2145.8820546650004,None,2145.8820546650004,None,2146.4811332869995,None,2146.4811332869995,None,2146.4811332869995,None,2146.4811332869995,None,,,,,,,,,,,,,,,,,,,,,,,,,,,,,,,,,,,,,,,,,,,,001,61,2020_Feb_04_1121,spring_faces,3.1.5,60.00608197652422,
condition files/Stage0b_1.xlsx,0b,none,beta,g,"['h', 'g']","['Chess', 'Go']","[-0.15, 0.5]","[0.15, 0.5]",0,1,0,10,10,10,0,1,1,1,,,,,,,,,,,,,,,,,,,,,,,,,,,,,,,,,,,,,,,,,,,,,,,,,,,,,,,,,,,,,,,2148.4484445470007,None,2148.4484445470007,None,2148.4484445470007,None,g,1,0.5486627539994515,2149.9871946290004,None,2149.9871946290004,None,2149.9871946290004,None,2150.6151905320003,None,2150.6151905320003,None,2150.6151905320003,None,2150.6151905320003,None,,,,,,,,,,,,,,,,,,,,,,,,,,,,,,,,,,,,,,,,,,,,001,61,2020_Feb_04_1121,spring_faces,3.1.5,60.00608197652422,
condition files/Stage0b_2.xlsx,0b,beta,none,g,"['h', 'g']","['Chess', 'Go']","[-0.15, 0.5]","[0.15, 0.5]",1,0,0,11,11,11,0,0,0,1,,,,,,,,,,,,,,,,,,,,,,,,,,,,,,,,,,,,,,,,,,,,,,,,,,,,,,,,,,,,,,,2152.5816800779994,None,2152.5816800779994,None,2152.5816800779994,None,g,1,0.5451822149989312,2154.118671082,None,2154.118671082,None,2154.118671082,None,2154.714746649999,None,2154.714746649999,None,2154.714746649999,None,2154.714746649999,None,,,,,,,,,,,,,,,,,,,,,,,,,,,,,,,,,,,,,,,,,,,,001,61,2020_Feb_04_1121,spring_faces,3.1.5,60.00608197652422,
condition files/Stage0b_2.xlsx,0b,none,alpha,h,"['h', 'g']","['Chess', 'Go']","[-0.15, 0.5]","[0.15, 0.5]",0,1,0,11,11,11,0,1,1,0,,,,,,,,,,,,,,,,,,,,,,,,,,,,,,,,,,,,,,,,,,,,,,,,,,,,,,,,,,,,,,,2156.681737129,None,2156.681737129,None,2156.681737129,None,h,1,0.4950451320000866,2158.216829032999,None,2158.216829032999,None,2158.216829032999,None,2158.7700066670004,None,2158.7700066670004,None,2158.7700066670004,None,2158.7700066670004,None,,,,,,,,,,,,,,,,,,,,,,,,,,,,,,,,,,,,,,,,,,,,001,61,2020_Feb_04_1121,spring_faces,3.1.5,60.00608197652422,
condition files/Stage0c_1.xlsx,0c,beta,theta,g,"['h', 'g']","['Chess', 'Go']","[-0.15, 0.5]","[0.15, 0.5]",1,1,0,12,12,12,0,0,0,2,,,,,,,,,,,,,,,,,,,,,,,,,,,,,,,,,,,,,,,,,,,,,,,,,,,,,,,,,,,,,,,2160.7483874520003,None,2160.7483874520003,None,2160.7483874520003,None,g,1,3.5342448350002087,2162.2815941770004,None,2162.2815941770004,None,2162.2815941770004,None,2165.881316699999,None,2165.881316699999,None,2165.881316699999,None,2165.881316699999,None,,,,,,,,,,,,,,,,,,,,,,,,,,,,,,,,,,,,,,,,,,,,001,61,2020_Feb_04_1121,spring_faces,3.1.5,60.00608197652422,
condition files/Stage0c_1.xlsx,0c,theta,alpha,h,"['h', 'g']","['Chess', 'Go']","[-0.15, 0.5]","[0.15, 0.5]",1,1,0,12,12,12,0,1,1,0,,,,,,,,,,,,,,,,,,,,,,,,,,,,,,,,,,,,,,,,,,,,,,,,,,,,,,,,,,,,,,,2167.8482226039996,None,2167.8482226039996,None,2167.8482226039996,None,h,1,2.3698334519995115,2169.3820258760006,None,2169.3820258760006,None,2169.3820258760006,None,2171.8147158600004,None,2171.8147158600004,None,2171.8147158600004,None,2171.8147158600004,None,,,,,,,,,,,,,,,,,,,,,,,,,,,,,,,,,,,,,,,,,,,,001,61,2020_Feb_04_1121,spring_faces,3.1.5,60.00608197652422,
condition files/Stage0c_1.xlsx,0c,alpha,phi,h,"['h', 'g']","['Chess', 'Go']","[-0.15, 0.5]","[0.15, 0.5]",1,1,0,12,12,12,0,2,2,1,,,,,,,,,,,,,,,,,,,,,,,,,,,,,,,,,,,,,,,,,,,,,,,,,,,,,,,,,,,,,,,2173.7819407999996,None,2173.7819407999996,None,2173.7819407999996,None,h,1,2.132865464000133,2175.315056846999,None,2175.315056846999,None,2175.315056846999,None,2177.4985736830004,None,2177.4985736830004,None,2177.4985736830004,None,2177.4985736830004,None,,,,,,,,,,,,,,,,,,,,,,,,,,,,,,,,,,,,,,,,,,,,001,61,2020_Feb_04_1121,spring_faces,3.1.5,60.00608197652422,
condition files/Stage0c_1.xlsx,0c,phi,beta,g,"['h', 'g']","['Chess', 'Go']","[-0.15, 0.5]","[0.15, 0.5]",1,1,0,12,12,12,0,3,3,3,,,,,,,,,,,,,,,,,,,,,,,,,,,,,,,,,,,,,,,,,,,,,,,,,,,,,,,,,,,,,,,2179.4650642649995,None,2179.4650642649995,None,2179.4650642649995,None,g,1,0.9286143249992165,2180.9992097680006,None,2180.9992097680006,None,2180.9992097680006,None,2181.9819976100007,None,2181.9819976100007,None,2181.9819976100007,None,2181.9819976100007,None,,,,,,,,,,,,,,,,,,,,,,,,,,,,,,,,,,,,,,,,,,,,001,61,2020_Feb_04_1121,spring_faces,3.1.5,60.00608197652422,
condition files/Stage0c_2.xlsx,0c,alpha,theta,h,"['h', 'g']","['Chess', 'Go']","[-0.15, 0.5]","[0.15, 0.5]",1,1,0,13,13,13,0,0,0,0,,,,,,,,,,,,,,,,,,,,,,,,,,,,,,,,,,,,,,,,,,,,,,,,,,,,,,,,,,,,,,,2183.965327206999,None,2183.965327206999,None,2183.965327206999,None,h,1,0.49347607599884213,2185.498421036,None,2185.498421036,None,2185.498421036,None,2186.048461062999,None,2186.048461062999,None,2186.048461062999,None,2186.048461062999,None,,,,,,,,,,,,,,,,,,,,,,,,,,,,,,,,,,,,,,,,,,,,001,61,2020_Feb_04_1121,spring_faces,3.1.5,60.00608197652422,
condition files/Stage0c_2.xlsx,0c,phi,alpha,h,"['h', 'g']","['Chess', 'Go']","[-0.15, 0.5]","[0.15, 0.5]",1,1,0,13,13,13,0,1,1,1,,,,,,,,,,,,,,,,,,,,,,,,,,,,,,,,,,,,,,,,,,,,,,,,,,,,,,,,,,,,,,,2188.0149481690005,None,2188.0149481690005,None,2188.0149481690005,None,h,1,0.8112205960005667,2189.5486231369996,None,2189.5486231369996,None,2189.5486231369996,None,2190.4004354360004,None,2190.4004354360004,None,2190.4004354360004,None,2190.4004354360004,None,,,,,,,,,,,,,,,,,,,,,,,,,,,,,,,,,,,,,,,,,,,,001,61,2020_Feb_04_1121,spring_faces,3.1.5,60.00608197652422,
condition files/Stage0c_2.xlsx,0c,beta,phi,g,"['h', 'g']","['Chess', 'Go']","[-0.15, 0.5]","[0.15, 0.5]",1,1,0,13,13,13,0,2,2,3,,,,,,,,,,,,,,,,,,,,,,,,,,,,,,,,,,,,,,,,,,,,,,,,,,,,,,,,,,,,,,,2192.3811843040003,None,2192.3811843040003,None,2192.3811843040003,None,g,1,0.7645666169992182,2193.9152781070006,None,2193.9152781070006,None,2193.9152781070006,None,2194.731830236,None,2194.731830236,None,2194.731830236,None,2194.731830236,None,,,,,,,,,,,,,,,,,,,,,,,,,,,,,,,,,,,,,,,,,,,,001,61,2020_Feb_04_1121,spring_faces,3.1.5,60.00608197652422,
condition files/Stage0c_2.xlsx,0c,theta,beta,g,"['h', 'g']","['Chess', 'Go']","[-0.15, 0.5]","[0.15, 0.5]",1,1,0,13,13,13,0,3,3,2,,,,,,,,,,,,,,,,,,,,,,,,,,,,,,,,,,,,,,,,,,,,,,,,,,,,,,,,,,,,,,,2196.6978345080006,None,2196.6978345080006,None,2196.6978345080006,None,g,1,0.6879064759996254,2198.2319563210003,None,2198.2319563210003,None,2198.2319563210003,None,2198.9649026959996,None,2198.9649026959996,None,2198.9649026959996,None,2198.9649026959996,None,,,,,,,,,,,,,,,,,,,,,,,,,,,,,,,,,,,,,,,,,,,,001,61,2020_Feb_04_1121,spring_faces,3.1.5,60.00608197652422,
condition files/Stage0c_1.xlsx,0c,alpha,phi,h,"['h', 'g']","['Chess', 'Go']","[-0.15, 0.5]","[0.15, 0.5]",1,1,0,14,14,14,0,0,0,1,,,,,,,,,,,,,,,,,,,,,,,,,,,,,,,,,,,,,,,,,,,,,,,,,,,,,,,,,,,,,,,2200.9647962609997,None,2200.9647962609997,None,2200.9647962609997,None,h,1,0.5499375370000052,2202.4979147920003,None,2202.4979147920003,None,2202.4979147920003,None,2203.098733437,None,2203.098733437,None,2203.098733437,None,2203.098733437,None,,,,,,,,,,,,,,,,,,,,,,,,,,,,,,,,,,,,,,,,,,,,001,61,2020_Feb_04_1121,spring_faces,3.1.5,60.00608197652422,
condition files/Stage0c_1.xlsx,0c,beta,theta,g,"['h', 'g']","['Chess', 'Go']","[-0.15, 0.5]","[0.15, 0.5]",1,1,0,14,14,14,0,1,1,2,,,,,,,,,,,,,,,,,,,,,,,,,,,,,,,,,,,,,,,,,,,,,,,,,,,,,,,,,,,,,,,2205.0650119389993,None,2205.0650119389993,None,2205.0650119389993,None,g,1,0.7695266480004648,2206.5983326719997,None,2206.5983326719997,None,2206.5983326719997,None,2207.4319735259996,None,2207.4319735259996,None,2207.4319735259996,None,2207.4319735259996,None,,,,,,,,,,,,,,,,,,,,,,,,,,,,,,,,,,,,,,,,,,,,001,61,2020_Feb_04_1121,spring_faces,3.1.5,60.00608197652422,
condition files/Stage0c_1.xlsx,0c,phi,beta,g,"['h', 'g']","['Chess', 'Go']","[-0.15, 0.5]","[0.15, 0.5]",1,1,0,14,14,14,0,2,2,3,,,,,,,,,,,,,,,,,,,,,,,,,,,,,,,,,,,,,,,,,,,,,,,,,,,,,,,,,,,,,,,2209.3986614839996,None,2209.3986614839996,None,2209.3986614839996,None,g,1,0.579914017000192,2210.9319355089992,None,2210.9319355089992,None,2210.9319355089992,None,2211.5496504599996,None,2211.5496504599996,None,2211.5496504599996,None,2211.5496504599996,None,,,,,,,,,,,,,,,,,,,,,,,,,,,,,,,,,,,,,,,,,,,,001,61,2020_Feb_04_1121,spring_faces,3.1.5,60.00608197652422,
condition files/Stage0c_1.xlsx,0c,theta,alpha,h,"['h', 'g']","['Chess', 'Go']","[-0.15, 0.5]","[0.15, 0.5]",1,1,0,14,14,14,0,3,3,0,,,,,,,,,,,,,,,,,,,,,,,,,,,,,,,,,,,,,,,,,,,,,,,,,,,,,,,,,,,,,,,2213.531713761,None,2213.531713761,None,2213.531713761,None,h,1,0.6070870539988391,2215.0647402960003,None,2215.0647402960003,None,2215.0647402960003,None,2215.732012782999,None,2215.732012782999,None,2215.732012782999,None,2215.732012782999,None,,,,,,,,,,,,,,,,,,,,,,,,,,,,,,,,,,,,,,,,,,,,001,61,2020_Feb_04_1121,spring_faces,3.1.5,60.00608197652422,
condition files/Stage0c_2.xlsx,0c,beta,phi,g,"['h', 'g']","['Chess', 'Go']","[-0.15, 0.5]","[0.15, 0.5]",1,1,0,15,15,15,0,0,0,3,,,,,,,,,,,,,,,,,,,,,,,,,,,,,,,,,,,,,,,,,,,,,,,,,,,,,,,,,,,,,,,2217.7154674979993,None,2217.7154674979993,None,2217.7154674979993,None,g,1,0.5197757719997753,2219.248098303,None,2219.248098303,None,2219.248098303,None,2219.8319666919997,None,2219.8319666919997,None,2219.8319666919997,None,2219.8319666919997,None,,,,,,,,,,,,,,,,,,,,,,,,,,,,,,,,,,,,,,,,,,,,001,61,2020_Feb_04_1121,spring_faces,3.1.5,60.00608197652422,
condition files/Stage0c_2.xlsx,0c,alpha,theta,h,"['h', 'g']","['Chess', 'Go']","[-0.15, 0.5]","[0.15, 0.5]",1,1,0,15,15,15,0,1,1,0,,,,,,,,,,,,,,,,,,,,,,,,,,,,,,,,,,,,,,,,,,,,,,,,,,,,,,,,,,,,,,,2221.7982382200007,None,2221.7982382200007,None,2221.7982382200007,None,h,1,0.46775962600077037,2223.3320548890006,None,2223.3320548890006,None,2223.3320548890006,None,2223.8655446230005,None,2223.8655446230005,None,2223.8655446230005,None,2223.8655446230005,None,,,,,,,,,,,,,,,,,,,,,,,,,,,,,,,,,,,,,,,,,,,,001,61,2020_Feb_04_1121,spring_faces,3.1.5,60.00608197652422,
condition files/Stage0c_2.xlsx,0c,phi,alpha,h,"['h', 'g']","['Chess', 'Go']","[-0.15, 0.5]","[0.15, 0.5]",1,1,0,15,15,15,0,2,2,1,,,,,,,,,,,,,,,,,,,,,,,,,,,,,,,,,,,,,,,,,,,,,,,,,,,,,,,,,,,,,,,2225.8318285509995,None,2225.8318285509995,None,2225.8318285509995,None,h,1,0.7065526850001334,2227.3653153859996,None,2227.3653153859996,None,2227.3653153859996,None,2228.1164488020004,None,2228.1164488020004,None,2228.1164488020004,None,2228.1164488020004,None,,,,,,,,,,,,,,,,,,,,,,,,,,,,,,,,,,,,,,,,,,,,001,61,2020_Feb_04_1121,spring_faces,3.1.5,60.00608197652422,
condition files/Stage0c_2.xlsx,0c,theta,beta,g,"['h', 'g']","['Chess', 'Go']","[-0.15, 0.5]","[0.15, 0.5]",1,1,0,15,15,15,0,3,3,2,,,,,,,,,,,,,,,,,,,,,,,,,,,,,,,,,,,,,,,,,,,,,,,,,,,,,,,,,,,,,,,2230.098412154999,None,2230.098412154999,None,2230.098412154999,None,g,1,0.5361022760007472,2231.6317561289998,None,2231.6317561289998,None,2231.6317561289998,None,2232.231772792,None,2232.231772792,None,2232.231772792,None,2232.231772792,None,,,,,,,,,,,,,,,,,,,,,,,,,,,,,,,,,,,,,,,,,,,,001,61,2020_Feb_04_1121,spring_faces,3.1.5,60.00608197652422,
condition files/Stage0c_1.xlsx,0c,phi,beta,g,"['h', 'g']","['Chess', 'Go']","[-0.15, 0.5]","[0.15, 0.5]",1,1,0,16,16,16,0,0,0,3,,,,,,,,,,,,,,,,,,,,,,,,,,,,,,,,,,,,,,,,,,,,,,,,,,,,,,,,,,,,,,,2234.215149992,None,2234.215149992,None,2234.215149992,None,g,1,0.5159443190004822,2235.7479209489993,None,2235.7479209489993,None,2235.7479209489993,None,2236.300710096999,None,2236.300710096999,None,2236.300710096999,None,2236.300710096999,None,,,,,,,,,,,,,,,,,,,,,,,,,,,,,,,,,,,,,,,,,,,,001,61,2020_Feb_04_1121,spring_faces,3.1.5,60.00608197652422,
condition files/Stage0c_1.xlsx,0c,beta,theta,g,"['h', 'g']","['Chess', 'Go']","[-0.15, 0.5]","[0.15, 0.5]",1,1,0,16,16,16,0,1,1,2,,,,,,,,,,,,,,,,,,,,,,,,,,,,,,,,,,,,,,,,,,,,,,,,,,,,,,,,,,,,,,,2238.2817120229993,None,2238.2817120229993,None,2238.2817120229993,None,g,1,0.704503165999995,2239.815353668,None,2239.815353668,None,2239.815353668,None,2240.565244083,None,2240.565244083,None,2240.565244083,None,2240.565244083,None,,,,,,,,,,,,,,,,,,,,,,,,,,,,,,,,,,,,,,,,,,,,001,61,2020_Feb_04_1121,spring_faces,3.1.5,60.00608197652422,
condition files/Stage0c_1.xlsx,0c,theta,alpha,h,"['h', 'g']","['Chess', 'Go']","[-0.15, 0.5]","[0.15, 0.5]",1,1,0,16,16,16,0,2,2,0,,,,,,,,,,,,,,,,,,,,,,,,,,,,,,,,,,,,,,,,,,,,,,,,,,,,,,,,,,,,,,,2242.5483991229994,None,2242.5483991229994,None,2242.5483991229994,None,h,1,0.9659089019987732,2244.0819484509993,None,2244.0819484509993,None,2244.0819484509993,None,2245.0980321469997,None,2245.0980321469997,None,2245.0980321469997,None,2245.0980321469997,None,,,,,,,,,,,,,,,,,,,,,,,,,,,,,,,,,,,,,,,,,,,,001,61,2020_Feb_04_1121,spring_faces,3.1.5,60.00608197652422,
condition files/Stage0c_1.xlsx,0c,alpha,phi,h,"['h', 'g']","['Chess', 'Go']","[-0.15, 0.5]","[0.15, 0.5]",1,1,0,16,16,16,0,3,3,1,,,,,,,,,,,,,,,,,,,,,,,,,,,,,,,,,,,,,,,,,,,,,,,,,,,,,,,,,,,,,,,2247.065034677,None,2247.065034677,None,2247.065034677,None,h,1,0.54533512099988,2248.5985292210007,None,2248.5985292210007,None,2248.5985292210007,None,2249.185693285999,None,2249.185693285999,None,2249.185693285999,None,2249.185693285999,None,,,,,,,,,,,,,,,,,,,,,,,,,,,,,,,,,,,,,,,,,,,,001,61,2020_Feb_04_1121,spring_faces,3.1.5,60.00608197652422,
condition files/Stage0c_2.xlsx,0c,theta,beta,g,"['h', 'g']","['Chess', 'Go']","[-0.15, 0.5]","[0.15, 0.5]",1,1,0,17,17,17,0,0,0,2,,,,,,,,,,,,,,,,,,,,,,,,,,,,,,,,,,,,,,,,,,,,,,,,,,,,,,,,,,,,,,,2251.182087923,None,2251.182087923,None,2251.182087923,None,g,1,0.525293058999523,2252.7146413520004,None,2252.7146413520004,None,2252.7146413520004,None,2253.2984150369994,None,2253.2984150369994,None,2253.2984150369994,None,2253.2984150369994,None,,,,,,,,,,,,,,,,,,,,,,,,,,,,,,,,,,,,,,,,,,,,001,61,2020_Feb_04_1121,spring_faces,3.1.5,60.00608197652422,
condition files/Stage0c_2.xlsx,0c,phi,alpha,h,"['h', 'g']","['Chess', 'Go']","[-0.15, 0.5]","[0.15, 0.5]",1,1,0,17,17,17,0,1,1,1,,,,,,,,,,,,,,,,,,,,,,,,,,,,,,,,,,,,,,,,,,,,,,,,,,,,,,,,,,,,,,,2255.265023401,None,2255.265023401,None,2255.265023401,None,h,1,0.5053153959997871,2256.798545828,None,2256.798545828,None,2256.798545828,None,2257.364977247,None,2257.364977247,None,2257.364977247,None,2257.364977247,None,,,,,,,,,,,,,,,,,,,,,,,,,,,,,,,,,,,,,,,,,,,,001,61,2020_Feb_04_1121,spring_faces,3.1.5,60.00608197652422,
condition files/Stage0c_2.xlsx,0c,beta,phi,g,"['h', 'g']","['Chess', 'Go']","[-0.15, 0.5]","[0.15, 0.5]",1,1,0,17,17,17,0,2,2,3,,,,,,,,,,,,,,,,,,,,,,,,,,,,,,,,,,,,,,,,,,,,,,,,,,,,,,,,,,,,,,,2259.331633332,None,2259.331633332,None,2259.331633332,None,g,1,0.48643869000079576,2260.865434166999,None,2260.865434166999,None,2260.865434166999,None,2261.415321221999,None,2261.415321221999,None,2261.415321221999,None,2261.415321221999,None,,,,,,,,,,,,,,,,,,,,,,,,,,,,,,,,,,,,,,,,,,,,001,61,2020_Feb_04_1121,spring_faces,3.1.5,60.00608197652422,
condition files/Stage0c_2.xlsx,0c,alpha,theta,h,"['h', 'g']","['Chess', 'Go']","[-0.15, 0.5]","[0.15, 0.5]",1,1,0,17,17,17,0,3,3,0,,,,,,,,,,,,,,,,,,,,,,,,,,,,,,,,,,,,,,,,,,,,,,,,,,,,,,,,,,,,,,,2263.381622773999,None,2263.381622773999,None,2263.381622773999,None,h,1,0.6443157619996782,2264.9155369319997,None,2264.9155369319997,None,2264.9155369319997,None,2265.6152442950006,None,2265.6152442950006,None,2265.6152442950006,None,2265.6152442950006,None,,,,,,,,,,,,,,,,,,,,,,,,,,,,,,,,,,,,,,,,,,,,001,61,2020_Feb_04_1121,spring_faces,3.1.5,60.00608197652422,
,,,,,,,,,,,,,,,,,,,,,,,,,,,,,,,,,,,,,,,,,,,,,,,,,,,,,,,,,,,,,,,,,,,,,,,,,,,,,,,,,,,,,,,,,,,,,,,,,,,,,,,,2267.5980074439994,None,space,3.9053481909995753,2272.5985265769996,None,,,,,,,,,,,,,,,,,,,,,,,,,,,,,,,,,,,,,,001,61,2020_Feb_04_1121,spring_faces,3.1.5,60.00608197652422,
condition files/Stage1_1.xlsx,,T3,B4,c,"['c', 'm']","['Clue', 'Monopoly']","[-0.15, 0.5]","[0.15, 0.5]",1,1,,,,,,,,,0,0,0,0,0,0,0,5,,,,,,,,,,,,,,,,,,,,,,,,,,,,,,,,,,,,,,,,,,,,,,,,,,,,,,,2276.565409236,None,2276.565409236,None,2276.565409236,None,m,0,3.283276226000453,2278.1485911340005,None,2278.1485911340005,None,2278.1485911340005,None,2281.497760446,None,2281.497760446,None,2281.497760446,None,2281.497760446,None,,,,,,,2272.5985265769996,None,,,,,,,,,,,,,,,,,,,,,,,,,,,,,,,,,,,,001,61,2020_Feb_04_1121,spring_faces,3.1.5,60.00608197652422,
condition files/Stage1_1.xlsx,,B3,T3,c,"['c', 'm']","['Clue', 'Monopoly']","[-0.15, 0.5]","[0.15, 0.5]",1,1,,,,,,,,,0,0,0,0,0,1,1,4,,,,,,,,,,,,,,,,,,,,,,,,,,,,,,,,,,,,,,,,,,,,,,,,,,,,,,,2283.4482922339994,None,2283.4482922339994,None,2283.4482922339994,None,c,1,4.097847848001038,2284.9820186920006,None,2284.9820186920006,None,2284.9820186920006,None,2289.131977588,None,2289.131977588,None,2289.131977588,None,2289.131977588,None,,,,,,,,,,,,,,,,,,,,,,,,,,,,,,,,,,,,,,,,,,,,001,61,2020_Feb_04_1121,spring_faces,3.1.5,60.00608197652422,
condition files/Stage1_1.xlsx,,T1,B1,c,"['c', 'm']","['Clue', 'Monopoly']","[-0.15, 0.5]","[0.15, 0.5]",1,1,,,,,,,,,0,0,0,0,0,2,2,0,,,,,,,,,,,,,,,,,,,,,,,,,,,,,,,,,,,,,,,,,,,,,,,,,,,,,,,2291.0984357809994,None,2291.0984357809994,None,2291.0984357809994,None,m,0,0.9744552779993683,2292.6335072029997,None,2292.6335072029997,None,2292.6335072029997,None,2293.6650973140004,None,2293.6650973140004,None,2293.6650973140004,None,2293.6650973140004,None,,,,,,,,,,,,,,,,,,,,,,,,,,,,,,,,,,,,,,,,,,,,001,61,2020_Feb_04_1121,spring_faces,3.1.5,60.00608197652422,
condition files/Stage1_1.xlsx,,B4,T4,m,"['c', 'm']","['Clue', 'Monopoly']","[-0.15, 0.5]","[0.15, 0.5]",1,1,,,,,,,,,0,0,0,0,0,3,3,7,,,,,,,,,,,,,,,,,,,,,,,,,,,,,,,,,,,,,,,,,,,,,,,,,,,,,,,2295.6310563940006,None,2295.6310563940006,None,2295.6310563940006,None,m,1,1.400707743001476,2297.2150992200004,None,2297.2150992200004,None,2297.2150992200004,None,2298.6985548890007,None,2298.6985548890007,None,2298.6985548890007,None,2298.6985548890007,None,,,,,,,,,,,,,,,,,,,,,,,,,,,,,,,,,,,,,,,,,,,,001,61,2020_Feb_04_1121,spring_faces,3.1.5,60.00608197652422,
condition files/Stage1_1.xlsx,,T2,B2,m,"['c', 'm']","['Clue', 'Monopoly']","[-0.15, 0.5]","[0.15, 0.5]",1,1,,,,,,,,,0,0,0,0,0,4,4,3,,,,,,,,,,,,,,,,,,,,,,,,,,,,,,,,,,,,,,,,,,,,,,,,,,,,,,,2300.6479368239998,None,2300.6479368239998,None,2300.6479368239998,None,m,1,1.2158695550006087,2302.232003747,None,2302.232003747,None,2302.232003747,None,2303.4990264059998,None,2303.4990264059998,None,2303.4990264059998,None,2303.4990264059998,None,,,,,,,,,,,,,,,,,,,,,,,,,,,,,,,,,,,,,,,,,,,,001,61,2020_Feb_04_1121,spring_faces,3.1.5,60.00608197652422,
condition files/Stage1_1.xlsx,,B1,T2,c,"['c', 'm']","['Clue', 'Monopoly']","[-0.15, 0.5]","[0.15, 0.5]",1,1,,,,,,,,,0,0,0,0,0,5,5,1,,,,,,,,,,,,,,,,,,,,,,,,,,,,,,,,,,,,,,,,,,,,,,,,,,,,,,,2305.4647389189995,None,2305.4647389189995,None,2305.4647389189995,None,m,0,1.7125043919986638,2307.015351255999,None,2307.015351255999,None,2307.015351255999,None,2308.7835048020006,None,2308.7835048020006,None,2308.7835048020006,None,2308.7835048020006,None,,,,,,,,,,,,,,,,,,,,,,,,,,,,,,,,,,,,,,,,,,,,001,61,2020_Feb_04_1121,spring_faces,3.1.5,60.00608197652422,
condition files/Stage1_1.xlsx,,B2,T1,m,"['c', 'm']","['Clue', 'Monopoly']","[-0.15, 0.5]","[0.15, 0.5]",1,1,,,,,,,,,0,0,0,0,0,6,6,2,,,,,,,,,,,,,,,,,,,,,,,,,,,,,,,,,,,,,,,,,,,,,,,,,,,,,,,2310.7478820300003,None,2310.7478820300003,None,2310.7478820300003,None,m,1,1.1501724899990222,2312.281684972,None,2312.281684972,None,2312.281684972,None,2313.4839295839993,None,2313.4839295839993,None,2313.4839295839993,None,2313.4839295839993,None,,,,,,,,,,,,,,,,,,,,,,,,,,,,,,,,,,,,,,,,,,,,001,61,2020_Feb_04_1121,spring_faces,3.1.5,60.00608197652422,
condition files/Stage1_1.xlsx,,T4,B3,m,"['c', 'm']","['Clue', 'Monopoly']","[-0.15, 0.5]","[0.15, 0.5]",1,1,,,,,,,,,0,0,0,0,0,7,7,6,,,,,,,,,,,,,,,,,,,,,,,,,,,,,,,,,,,,,,,,,,,,,,,,,,,,,,,2315.4479418089995,None,2315.4479418089995,None,2315.4479418089995,None,c,0,1.0100860630009265,2316.981884978999,None,2316.981884978999,None,2316.981884978999,None,2318.0481571679993,None,2318.0481571679993,None,2318.0481571679993,None,2318.0481571679993,None,,,,,,,,,,,,,,,,,,,,,,,,,,,,,,,,,,,,,,,,,,,,001,61,2020_Feb_04_1121,spring_faces,3.1.5,60.00608197652422,
condition files/Stage1_2.xlsx,,B3,T4,m,"['c', 'm']","['Clue', 'Monopoly']","[-0.15, 0.5]","[0.15, 0.5]",1,1,,,,,,,,,0,1,1,1,0,0,0,6,,,,,,,,,,,,,,,,,,,,,,,,,,,,,,,,,,,,,,,,,,,,,,,,,,,,,,,2320.0315966,None,2320.0315966,None,2320.0315966,None,c,0,0.8590272290002758,2321.564920536999,None,2321.564920536999,None,2321.564920536999,None,2322.4811887630003,None,2322.4811887630003,None,2322.4811887630003,None,2322.4811887630003,None,,,,,,,,,,,,,,,,,,,,,,,,,,,,,,,,,,,,,,,,,,,,001,61,2020_Feb_04_1121,spring_faces,3.1.5,60.00608197652422,
condition files/Stage1_2.xlsx,,T1,B2,m,"['c', 'm']","['Clue', 'Monopoly']","[-0.15, 0.5]","[0.15, 0.5]",1,1,,,,,,,,,0,1,1,1,0,1,1,2,,,,,,,,,,,,,,,,,,,,,,,,,,,,,,,,,,,,,,,,,,,,,,,,,,,,,,,2324.4483945350003,None,2324.4483945350003,None,2324.4483945350003,None,c,0,0.6022321300006297,2325.981570676,None,2325.981570676,None,2325.981570676,None,2326.648456821,None,2326.648456821,None,2326.648456821,None,2326.648456821,None,,,,,,,,,,,,,,,,,,,,,,,,,,,,,,,,,,,,,,,,,,,,001,61,2020_Feb_04_1121,spring_faces,3.1.5,60.00608197652422,
condition files/Stage1_2.xlsx,,B1,T1,c,"['c', 'm']","['Clue', 'Monopoly']","[-0.15, 0.5]","[0.15, 0.5]",1,1,,,,,,,,,0,1,1,1,0,2,2,0,,,,,,,,,,,,,,,,,,,,,,,,,,,,,,,,,,,,,,,,,,,,,,,,,,,,,,,2328.6148511289994,None,2328.6148511289994,None,2328.6148511289994,None,c,1,0.7233978980002576,2330.148548023999,None,2330.148548023999,None,2330.148548023999,None,2330.934645808,None,2330.934645808,None,2330.934645808,None,2330.934645808,None,,,,,,,,,,,,,,,,,,,,,,,,,,,,,,,,,,,,,,,,,,,,001,61,2020_Feb_04_1121,spring_faces,3.1.5,60.00608197652422,
condition files/Stage1_2.xlsx,,B4,T3,c,"['c', 'm']","['Clue', 'Monopoly']","[-0.15, 0.5]","[0.15, 0.5]",1,1,,,,,,,,,0,1,1,1,0,3,3,5,,,,,,,,,,,,,,,,,,,,,,,,,,,,,,,,,,,,,,,,,,,,,,,,,,,,,,,2332.898555504,None,2332.898555504,None,2332.898555504,None,c,1,2.199853472000541,2334.4480002260007,None,2334.4480002260007,None,2334.4480002260007,None,2336.6985172509994,None,2336.6985172509994,None,2336.6985172509994,None,2336.6985172509994,None,,,,,,,,,,,,,,,,,,,,,,,,,,,,,,,,,,,,,,,,,,,,001,61,2020_Feb_04_1121,spring_faces,3.1.5,60.00608197652422,
condition files/Stage1_2.xlsx,,T4,B4,m,"['c', 'm']","['Clue', 'Monopoly']","[-0.15, 0.5]","[0.15, 0.5]",1,1,,,,,,,,,0,1,1,1,0,4,4,7,,,,,,,,,,,,,,,,,,,,,,,,,,,,,,,,,,,,,,,,,,,,,,,,,,,,,,,2338.6648288180004,None,2338.6648288180004,None,2338.6648288180004,None,m,1,1.0413205540007766,2340.198627784999,None,2340.198627784999,None,2340.198627784999,None,2341.299570751,None,2341.299570751,None,2341.299570751,None,2341.299570751,None,,,,,,,,,,,,,,,,,,,,,,,,,,,,,,,,,,,,,,,,,,,,001,61,2020_Feb_04_1121,spring_faces,3.1.5,60.00608197652422,
condition files/Stage1_2.xlsx,,T2,B1,c,"['c', 'm']","['Clue', 'Monopoly']","[-0.15, 0.5]","[0.15, 0.5]",1,1,,,,,,,,,0,1,1,1,0,5,5,1,,,,,,,,,,,,,,,,,,,,,,,,,,,,,,,,,,,,,,,,,,,,,,,,,,,,,,,2343.2652500490003,None,2343.2652500490003,None,2343.2652500490003,None,m,0,3.271076222999909,2344.800885085,None,2344.800885085,None,2344.800885085,None,2348.1331360679997,None,2348.1331360679997,None,2348.1331360679997,None,2348.1331360679997,None,,,,,,,,,,,,,,,,,,,,,,,,,,,,,,,,,,,,,,,,,,,,001,61,2020_Feb_04_1121,spring_faces,3.1.5,60.00608197652422,
condition files/Stage1_2.xlsx,,B2,T2,m,"['c', 'm']","['Clue', 'Monopoly']","[-0.15, 0.5]","[0.15, 0.5]",1,1,,,,,,,,,0,1,1,1,0,6,6,3,,,,,,,,,,,,,,,,,,,,,,,,,,,,,,,,,,,,,,,,,,,,,,,,,,,,,,,2350.0984310149997,None,2350.0984310149997,None,2350.0984310149997,None,m,1,2.5031908540004224,2351.6486836429995,None,2351.6486836429995,None,2351.6486836429995,None,2354.217817973,None,2354.217817973,None,2354.217817973,None,2354.217817973,None,,,,,,,,,,,,,,,,,,,,,,,,,,,,,,,,,,,,,,,,,,,,001,61,2020_Feb_04_1121,spring_faces,3.1.5,60.00608197652422,
condition files/Stage1_2.xlsx,,T3,B3,c,"['c', 'm']","['Clue', 'Monopoly']","[-0.15, 0.5]","[0.15, 0.5]",1,1,,,,,,,,,0,1,1,1,0,7,7,4,,,,,,,,,,,,,,,,,,,,,,,,,,,,,,,,,,,,,,,,,,,,,,,,,,,,,,,2356.181721798999,None,2356.181721798999,None,2356.181721798999,None,c,1,1.3469956949993502,2357.716879304,None,2357.716879304,None,2357.716879304,None,2359.1161291299995,None,2359.1161291299995,None,2359.1161291299995,None,2359.1161291299995,None,,,,,,,,,,,,,,,,,,,,,,,,,,,,,,,,,,,,,,,,,,,,001,61,2020_Feb_04_1121,spring_faces,3.1.5,60.00608197652422,
condition files/Stage1_1.xlsx,,T1,B1,c,"['c', 'm']","['Clue', 'Monopoly']","[-0.15, 0.5]","[0.15, 0.5]",1,1,,,,,,,,,0,2,2,2,0,0,0,0,,,,,,,,,,,,,,,,,,,,,,,,,,,,,,,,,,,,,,,,,,,,,,,,,,,,,,,2361.098119234999,None,2361.098119234999,None,2361.098119234999,None,c,1,2.2873664979997557,2362.6325236520006,None,2362.6325236520006,None,2362.6325236520006,None,2364.981528442,None,2364.981528442,None,2364.981528442,None,2364.981528442,None,,,,,,,,,,,,,,,,,,,,,,,,,,,,,,,,,,,,,,,,,,,,001,61,2020_Feb_04_1121,spring_faces,3.1.5,60.00608197652422,
condition files/Stage1_1.xlsx,,B1,T2,c,"['c', 'm']","['Clue', 'Monopoly']","[-0.15, 0.5]","[0.15, 0.5]",1,1,,,,,,,,,0,2,2,2,0,1,1,1,,,,,,,,,,,,,,,,,,,,,,,,,,,,,,,,,,,,,,,,,,,,,,,,,,,,,,,2366.948429106,None,2366.948429106,None,2366.948429106,None,m,0,1.18910784199943,2368.482839958,None,2368.482839958,None,2368.482839958,None,2369.731916097,None,2369.731916097,None,2369.731916097,None,2369.731916097,None,,,,,,,,,,,,,,,,,,,,,,,,,,,,,,,,,,,,,,,,,,,,001,61,2020_Feb_04_1121,spring_faces,3.1.5,60.00608197652422,
condition files/Stage1_1.xlsx,,B4,T4,m,"['c', 'm']","['Clue', 'Monopoly']","[-0.15, 0.5]","[0.15, 0.5]",1,1,,,,,,,,,0,2,2,2,0,2,2,7,,,,,,,,,,,,,,,,,,,,,,,,,,,,,,,,,,,,,,,,,,,,,,,,,,,,,,,2371.697746865,None,2371.697746865,None,2371.697746865,None,c,0,1.815288502999465,2373.248570436999,None,2373.248570436999,None,2373.248570436999,None,2375.131771519,None,2375.131771519,None,2375.131771519,None,2375.131771519,None,,,,,,,,,,,,,,,,,,,,,,,,,,,,,,,,,,,,,,,,,,,,001,61,2020_Feb_04_1121,spring_faces,3.1.5,60.00608197652422,
condition files/Stage1_1.xlsx,,T3,B4,c,"['c', 'm']","['Clue', 'Monopoly']","[-0.15, 0.5]","[0.15, 0.5]",1,1,,,,,,,,,0,2,2,2,0,3,3,5,,,,,,,,,,,,,,,,,,,,,,,,,,,,,,,,,,,,,,,,,,,,,,,,,,,,,,,2377.0817873960004,None,2377.0817873960004,None,2377.0817873960004,None,c,1,1.1522793889998866,2378.615604314,None,2378.615604314,None,2378.615604314,None,2379.8345256499997,None,2379.8345256499997,None,2379.8345256499997,None,2379.8345256499997,None,,,,,,,,,,,,,,,,,,,,,,,,,,,,,,,,,,,,,,,,,,,,001,61,2020_Feb_04_1121,spring_faces,3.1.5,60.00608197652422,
condition files/Stage1_1.xlsx,,T2,B2,m,"['c', 'm']","['Clue', 'Monopoly']","[-0.15, 0.5]","[0.15, 0.5]",1,1,,,,,,,,,0,2,2,2,0,4,4,3,,,,,,,,,,,,,,,,,,,,,,,,,,,,,,,,,,,,,,,,,,,,,,,,,,,,,,,2381.798425028999,None,2381.798425028999,None,2381.798425028999,None,c,0,2.0334793820002233,2383.334397868999,None,2383.334397868999,None,2383.334397868999,None,2385.434090499999,None,2385.434090499999,None,2385.434090499999,None,2385.434090499999,None,,,,,,,,,,,,,,,,,,,,,,,,,,,,,,,,,,,,,,,,,,,,001,61,2020_Feb_04_1121,spring_faces,3.1.5,60.00608197652422,
condition files/Stage1_1.xlsx,,T4,B3,m,"['c', 'm']","['Clue', 'Monopoly']","[-0.15, 0.5]","[0.15, 0.5]",1,1,,,,,,,,,0,2,2,2,0,5,5,6,,,,,,,,,,,,,,,,,,,,,,,,,,,,,,,,,,,,,,,,,,,,,,,,,,,,,,,2387.398372301999,None,2387.398372301999,None,2387.398372301999,None,c,0,1.044339095999021,2388.931606439999,None,2388.931606439999,None,2388.931606439999,None,2390.0319633609997,None,2390.0319633609997,None,2390.0319633609997,None,2390.0319633609997,None,,,,,,,,,,,,,,,,,,,,,,,,,,,,,,,,,,,,,,,,,,,,001,61,2020_Feb_04_1121,spring_faces,3.1.5,60.00608197652422,
condition files/Stage1_1.xlsx,,B3,T3,c,"['c', 'm']","['Clue', 'Monopoly']","[-0.15, 0.5]","[0.15, 0.5]",1,1,,,,,,,,,0,2,2,2,0,6,6,4,,,,,,,,,,,,,,,,,,,,,,,,,,,,,,,,,,,,,,,,,,,,,,,,,,,,,,,2391.9985087669993,None,2391.9985087669993,None,2391.9985087669993,None,m,0,1.7242378579994693,2393.531708089,None,2393.531708089,None,2393.531708089,None,2395.331912911999,None,2395.331912911999,None,2395.331912911999,None,2395.331912911999,None,,,,,,,,,,,,,,,,,,,,,,,,,,,,,,,,,,,,,,,,,,,,001,61,2020_Feb_04_1121,spring_faces,3.1.5,60.00608197652422,
condition files/Stage1_1.xlsx,,B2,T1,m,"['c', 'm']","['Clue', 'Monopoly']","[-0.15, 0.5]","[0.15, 0.5]",1,1,,,,,,,,,0,2,2,2,0,7,7,2,,,,,,,,,,,,,,,,,,,,,,,,,,,,,,,,,,,,,,,,,,,,,,,,,,,,,,,2397.2818107010007,None,2397.2818107010007,None,2397.2818107010007,None,c,0,2.6161225110008672,2398.8317339330006,None,2398.8317339330006,None,2398.8317339330006,None,2401.51478888,None,2401.51478888,None,2401.51478888,None,2401.51478888,None,,,,,,,,,,,,,,,,,,,,,,,,,,,,,,,,,,,,,,,,,,,,001,61,2020_Feb_04_1121,spring_faces,3.1.5,60.00608197652422,
condition files/Stage1_2.xlsx,,T2,B1,c,"['c', 'm']","['Clue', 'Monopoly']","[-0.15, 0.5]","[0.15, 0.5]",1,1,,,,,,,,,0,3,3,3,0,0,0,1,,,,,,,,,,,,,,,,,,,,,,,,,,,,,,,,,,,,,,,,,,,,,,,,,,,,,,,2403.4817393209996,None,2403.4817393209996,None,2403.4817393209996,None,c,1,1.8720726749997993,2405.0318117490006,None,2405.0318117490006,None,2405.0318117490006,None,2406.965596169999,None,2406.965596169999,None,2406.965596169999,None,2406.965596169999,None,,,,,,,,,,,,,,,,,,,,,,,,,,,,,,,,,,,,,,,,,,,,001,61,2020_Feb_04_1121,spring_faces,3.1.5,60.00608197652422,
condition files/Stage1_2.xlsx,,T1,B2,m,"['c', 'm']","['Clue', 'Monopoly']","[-0.15, 0.5]","[0.15, 0.5]",1,1,,,,,,,,,0,3,3,3,0,1,1,2,,,,,,,,,,,,,,,,,,,,,,,,,,,,,,,,,,,,,,,,,,,,,,,,,,,,,,,2408.9316865870005,None,2408.9316865870005,None,2408.9316865870005,None,m,1,1.3177813669990428,2410.466097777,None,2410.466097777,None,2410.466097777,None,2411.849931241999,None,2411.849931241999,None,2411.849931241999,None,2411.849931241999,None,,,,,,,,,,,,,,,,,,,,,,,,,,,,,,,,,,,,,,,,,,,,001,61,2020_Feb_04_1121,spring_faces,3.1.5,60.00608197652422,
condition files/Stage1_2.xlsx,,T3,B3,c,"['c', 'm']","['Clue', 'Monopoly']","[-0.15, 0.5]","[0.15, 0.5]",1,1,,,,,,,,,0,3,3,3,0,2,2,4,,,,,,,,,,,,,,,,,,,,,,,,,,,,,,,,,,,,,,,,,,,,,,,,,,,,,,,2413.8152318449993,None,2413.8152318449993,None,2413.8152318449993,None,c,1,1.0905703990010807,2415.34936758,None,2415.34936758,None,2415.34936758,None,2416.5151848309997,None,2416.5151848309997,None,2416.5151848309997,None,2416.5151848309997,None,,,,,,,,,,,,,,,,,,,,,,,,,,,,,,,,,,,,,,,,,,,,001,61,2020_Feb_04_1121,spring_faces,3.1.5,60.00608197652422,
condition files/Stage1_2.xlsx,,T4,B4,m,"['c', 'm']","['Clue', 'Monopoly']","[-0.15, 0.5]","[0.15, 0.5]",1,1,,,,,,,,,0,3,3,3,0,3,3,7,,,,,,,,,,,,,,,,,,,,,,,,,,,,,,,,,,,,,,,,,,,,,,,,,,,,,,,2418.4650587550004,None,2418.4650587550004,None,2418.4650587550004,None,m,1,0.9687421939997876,2420.015064317,None,2420.015064317,None,2420.015064317,None,2421.051328206,None,2421.051328206,None,2421.051328206,None,2421.051328206,None,,,,,,,,,,,,,,,,,,,,,,,,,,,,,,,,,,,,,,,,,,,,001,61,2020_Feb_04_1121,spring_faces,3.1.5,60.00608197652422,
condition files/Stage1_2.xlsx,,B1,T1,c,"['c', 'm']","['Clue', 'Monopoly']","[-0.15, 0.5]","[0.15, 0.5]",1,1,,,,,,,,,0,3,3,3,0,4,4,0,,,,,,,,,,,,,,,,,,,,,,,,,,,,,,,,,,,,,,,,,,,,,,,,,,,,,,,2423.015102816,None,2423.015102816,None,2423.015102816,None,m,0,1.298718560999987,2424.565132824,None,2424.565132824,None,2424.565132824,None,2425.9175860819996,None,2425.9175860819996,None,2425.9175860819996,None,2425.9175860819996,None,,,,,,,,,,,,,,,,,,,,,,,,,,,,,,,,,,,,,,,,,,,,001,61,2020_Feb_04_1121,spring_faces,3.1.5,60.00608197652422,
condition files/Stage1_2.xlsx,,B4,T3,c,"['c', 'm']","['Clue', 'Monopoly']","[-0.15, 0.5]","[0.15, 0.5]",1,1,,,,,,,,,0,3,3,3,0,5,5,5,,,,,,,,,,,,,,,,,,,,,,,,,,,,,,,,,,,,,,,,,,,,,,,,,,,,,,,2427.881214162,None,2427.881214162,None,2427.881214162,None,c,1,1.9664574819998961,2429.4173956680006,None,2429.4173956680006,None,2429.4173956680006,None,2431.4482105810002,None,2431.4482105810002,None,2431.4482105810002,None,2431.4482105810002,None,,,,,,,,,,,,,,,,,,,,,,,,,,,,,,,,,,,,,,,,,,,,001,61,2020_Feb_04_1121,spring_faces,3.1.5,60.00608197652422,
condition files/Stage1_2.xlsx,,B2,T2,m,"['c', 'm']","['Clue', 'Monopoly']","[-0.15, 0.5]","[0.15, 0.5]",1,1,,,,,,,,,0,3,3,3,0,6,6,3,,,,,,,,,,,,,,,,,,,,,,,,,,,,,,,,,,,,,,,,,,,,,,,,,,,,,,,2433.41475016,None,2433.41475016,None,2433.41475016,None,c,0,1.666672583000036,2434.965183803999,None,2434.965183803999,None,2434.965183803999,None,2436.698214348,None,2436.698214348,None,2436.698214348,None,2436.698214348,None,,,,,,,,,,,,,,,,,,,,,,,,,,,,,,,,,,,,,,,,,,,,001,61,2020_Feb_04_1121,spring_faces,3.1.5,60.00608197652422,
condition files/Stage1_2.xlsx,,B3,T4,m,"['c', 'm']","['Clue', 'Monopoly']","[-0.15, 0.5]","[0.15, 0.5]",1,1,,,,,,,,,0,3,3,3,0,7,7,6,,,,,,,,,,,,,,,,,,,,,,,,,,,,,,,,,,,,,,,,,,,,,,,,,,,,,,,2438.6484763690005,None,2438.6484763690005,None,2438.6484763690005,None,m,1,0.7696610949988099,2440.1822248669996,None,2440.1822248669996,None,2440.1822248669996,None,2441.0153325129995,None,2441.0153325129995,None,2441.0153325129995,None,2441.0153325129995,None,,,,,,,,,,,,,,,,,,,,,,,,,,,,,,,,,,,,,,,,,,,,001,61,2020_Feb_04_1121,spring_faces,3.1.5,60.00608197652422,
condition files/Stage1_1.xlsx,,T3,B4,c,"['c', 'm']","['Clue', 'Monopoly']","[-0.15, 0.5]","[0.15, 0.5]",1,1,,,,,,,,,0,4,4,4,0,0,0,5,,,,,,,,,,,,,,,,,,,,,,,,,,,,,,,,,,,,,,,,,,,,,,,,,,,,,,,2442.9986616740007,None,2442.9986616740007,None,2442.9986616740007,None,c,1,1.1072950329999003,2444.5486403899995,None,2444.5486403899995,None,2444.5486403899995,None,2445.7318465070002,None,2445.7318465070002,None,2445.7318465070002,None,2445.7318465070002,None,,,,,,,,,,,,,,,,,,,,,,,,,,,,,,,,,,,,,,,,,,,,001,61,2020_Feb_04_1121,spring_faces,3.1.5,60.00608197652422,
condition files/Stage1_1.xlsx,,B3,T3,c,"['c', 'm']","['Clue', 'Monopoly']","[-0.15, 0.5]","[0.15, 0.5]",1,1,,,,,,,,,0,4,4,4,0,1,1,4,,,,,,,,,,,,,,,,,,,,,,,,,,,,,,,,,,,,,,,,,,,,,,,,,,,,,,,2447.6818145800007,None,2447.6818145800007,None,2447.6818145800007,None,c,1,1.1760470009994606,2449.2158937330005,None,2449.2158937330005,None,2449.2158937330005,None,2450.4484115470004,None,2450.4484115470004,None,2450.4484115470004,None,2450.4484115470004,None,,,,,,,,,,,,,,,,,,,,,,,,,,,,,,,,,,,,,,,,,,,,001,61,2020_Feb_04_1121,spring_faces,3.1.5,60.00608197652422,
condition files/Stage1_1.xlsx,,T1,B1,c,"['c', 'm']","['Clue', 'Monopoly']","[-0.15, 0.5]","[0.15, 0.5]",1,1,,,,,,,,,0,4,4,4,0,2,2,0,,,,,,,,,,,,,,,,,,,,,,,,,,,,,,,,,,,,,,,,,,,,,,,,,,,,,,,2452.4149063019995,None,2452.4149063019995,None,2452.4149063019995,None,c,1,2.218770219000362,2453.965106197,None,2453.965106197,None,2453.965106197,None,2456.24867569,None,2456.24867569,None,2456.24867569,None,2456.24867569,None,,,,,,,,,,,,,,,,,,,,,,,,,,,,,,,,,,,,,,,,,,,,001,61,2020_Feb_04_1121,spring_faces,3.1.5,60.00608197652422,
condition files/Stage1_1.xlsx,,T2,B2,m,"['c', 'm']","['Clue', 'Monopoly']","[-0.15, 0.5]","[0.15, 0.5]",1,1,,,,,,,,,0,4,4,4,0,3,3,3,,,,,,,,,,,,,,,,,,,,,,,,,,,,,,,,,,,,,,,,,,,,,,,,,,,,,,,2458.215024023999,None,2458.215024023999,None,2458.215024023999,None,m,1,1.090671662999739,2459.765266193999,None,2459.765266193999,None,2459.765266193999,None,2460.915211562,None,2460.915211562,None,2460.915211562,None,2460.915211562,None,,,,,,,,,,,,,,,,,,,,,,,,,,,,,,,,,,,,,,,,,,,,001,61,2020_Feb_04_1121,spring_faces,3.1.5,60.00608197652422,
condition files/Stage1_1.xlsx,,T4,B3,m,"['c', 'm']","['Clue', 'Monopoly']","[-0.15, 0.5]","[0.15, 0.5]",1,1,,,,,,,,,0,4,4,4,0,4,4,6,,,,,,,,,,,,,,,,,,,,,,,,,,,,,,,,,,,,,,,,,,,,,,,,,,,,,,,2462.881776074999,None,2462.881776074999,None,2462.881776074999,None,m,1,0.6159112559998903,2464.4319508570006,None,2464.4319508570006,None,2464.4319508570006,None,2465.0982136370003,None,2465.0982136370003,None,2465.0982136370003,None,2465.0982136370003,None,,,,,,,,,,,,,,,,,,,,,,,,,,,,,,,,,,,,,,,,,,,,001,61,2020_Feb_04_1121,spring_faces,3.1.5,60.00608197652422,
condition files/Stage1_1.xlsx,,B1,T2,c,"['c', 'm']","['Clue', 'Monopoly']","[-0.15, 0.5]","[0.15, 0.5]",1,1,,,,,,,,,0,4,4,4,0,5,5,1,,,,,,,,,,,,,,,,,,,,,,,,,,,,,,,,,,,,,,,,,,,,,,,,,,,,,,,2467.0652112179996,None,2467.0652112179996,None,2467.0652112179996,None,c,1,0.7530036040006962,2468.614862605,None,2468.614862605,None,2468.614862605,None,2469.433241371,None,2469.433241371,None,2469.433241371,None,2469.433241371,None,,,,,,,,,,,,,,,,,,,,,,,,,,,,,,,,,,,,,,,,,,,,001,61,2020_Feb_04_1121,spring_faces,3.1.5,60.00608197652422,
condition files/Stage1_1.xlsx,,B2,T1,m,"['c', 'm']","['Clue', 'Monopoly']","[-0.15, 0.5]","[0.15, 0.5]",1,1,,,,,,,,,0,4,4,4,0,6,6,2,,,,,,,,,,,,,,,,,,,,,,,,,,,,,,,,,,,,,,,,,,,,,,,,,,,,,,,2471.3983776389996,None,2471.3983776389996,None,2471.3983776389996,None,c,0,0.7244356700011849,2472.9315178899997,None,2472.9315178899997,None,2472.9315178899997,None,2473.731935382999,None,2473.731935382999,None,2473.731935382999,None,2473.731935382999,None,,,,,,,,,,,,,,,,,,,,,,,,,,,,,,,,,,,,,,,,,,,,001,61,2020_Feb_04_1121,spring_faces,3.1.5,60.00608197652422,
condition files/Stage1_1.xlsx,,B4,T4,m,"['c', 'm']","['Clue', 'Monopoly']","[-0.15, 0.5]","[0.15, 0.5]",1,1,,,,,,,,,0,4,4,4,0,7,7,7,,,,,,,,,,,,,,,,,,,,,,,,,,,,,,,,,,,,,,,,,,,,,,,,,,,,,,,2475.6814390479994,None,2475.6814390479994,None,2475.6814390479994,None,m,1,0.9835826759990596,2477.216287223,None,2477.216287223,None,2477.216287223,None,2478.2650524340006,None,2478.2650524340006,None,2478.2650524340006,None,2478.2650524340006,None,,,,,,,,,,,,,,,,,,,,,,,,,,,,,,,,,,,,,,,,,,,,001,61,2020_Feb_04_1121,spring_faces,3.1.5,60.00608197652422,
condition files/Stage1_2.xlsx,,T1,B2,m,"['c', 'm']","['Clue', 'Monopoly']","[-0.15, 0.5]","[0.15, 0.5]",1,1,,,,,,,,,0,5,5,5,0,0,0,2,,,,,,,,,,,,,,,,,,,,,,,,,,,,,,,,,,,,,,,,,,,,,,,,,,,,,,,2480.2486155490005,None,2480.2486155490005,None,2480.2486155490005,None,c,0,4.1455972629992175,2481.782253698,None,2481.782253698,None,2481.782253698,None,2485.981666190999,None,2485.981666190999,None,2485.981666190999,None,2485.981666190999,None,,,,,,,,,,,,,,,,,,,,,,,,,,,,,,,,,,,,,,,,,,,,001,61,2020_Feb_04_1121,spring_faces,3.1.5,60.00608197652422,
condition files/Stage1_2.xlsx,,B3,T4,m,"['c', 'm']","['Clue', 'Monopoly']","[-0.15, 0.5]","[0.15, 0.5]",1,1,,,,,,,,,0,5,5,5,0,1,1,6,,,,,,,,,,,,,,,,,,,,,,,,,,,,,,,,,,,,,,,,,,,,,,,,,,,,,,,2487.948447498,None,2487.948447498,None,2487.948447498,None,m,1,1.293153534999874,2489.4827934389996,None,2489.4827934389996,None,2489.4827934389996,None,2490.8319464489996,None,2490.8319464489996,None,2490.8319464489996,None,2490.8319464489996,None,,,,,,,,,,,,,,,,,,,,,,,,,,,,,,,,,,,,,,,,,,,,001,61,2020_Feb_04_1121,spring_faces,3.1.5,60.00608197652422,
condition files/Stage1_2.xlsx,,T2,B1,c,"['c', 'm']","['Clue', 'Monopoly']","[-0.15, 0.5]","[0.15, 0.5]",1,1,,,,,,,,,0,5,5,5,0,2,2,1,,,,,,,,,,,,,,,,,,,,,,,,,,,,,,,,,,,,,,,,,,,,,,,,,,,,,,,2492.7984792059997,None,2492.7984792059997,None,2492.7984792059997,None,m,0,0.5874777529988933,2494.332409315999,None,2494.332409315999,None,2494.332409315999,None,2494.983308814999,None,2494.983308814999,None,2494.983308814999,None,2494.983308814999,None,,,,,,,,,,,,,,,,,,,,,,,,,,,,,,,,,,,,,,,,,,,,001,61,2020_Feb_04_1121,spring_faces,3.1.5,60.00608197652422,
condition files/Stage1_2.xlsx,,T4,B4,m,"['c', 'm']","['Clue', 'Monopoly']","[-0.15, 0.5]","[0.15, 0.5]",1,1,,,,,,,,,0,5,5,5,0,3,3,7,,,,,,,,,,,,,,,,,,,,,,,,,,,,,,,,,,,,,,,,,,,,,,,,,,,,,,,2496.9483797989997,None,2496.9483797989997,None,2496.9483797989997,None,m,1,0.7892391080004018,2498.498690957,None,2498.498690957,None,2498.498690957,None,2499.350188519,None,2499.350188519,None,2499.350188519,None,2499.350188519,None,,,,,,,,,,,,,,,,,,,,,,,,,,,,,,,,,,,,,,,,,,,,001,61,2020_Feb_04_1121,spring_faces,3.1.5,60.00608197652422,
condition files/Stage1_2.xlsx,,B4,T3,c,"['c', 'm']","['Clue', 'Monopoly']","[-0.15, 0.5]","[0.15, 0.5]",1,1,,,,,,,,,0,5,5,5,0,4,4,5,,,,,,,,,,,,,,,,,,,,,,,,,,,,,,,,,,,,,,,,,,,,,,,,,,,,,,,2501.314823139999,None,2501.314823139999,None,2501.314823139999,None,c,1,1.3671722349990887,2502.8486551879996,None,2502.8486551879996,None,2502.8486551879996,None,2504.2979061789993,None,2504.2979061789993,None,2504.2979061789993,None,2504.2979061789993,None,,,,,,,,,,,,,,,,,,,,,,,,,,,,,,,,,,,,,,,,,,,,001,61,2020_Feb_04_1121,spring_faces,3.1.5,60.00608197652422,
condition files/Stage1_2.xlsx,,T3,B3,c,"['c', 'm']","['Clue', 'Monopoly']","[-0.15, 0.5]","[0.15, 0.5]",1,1,,,,,,,,,0,5,5,5,0,5,5,4,,,,,,,,,,,,,,,,,,,,,,,,,,,,,,,,,,,,,,,,,,,,,,,,,,,,,,,2506.2484620119994,None,2506.2484620119994,None,2506.2484620119994,None,c,1,1.4092290030002914,2507.782704396999,None,2507.782704396999,None,2507.782704396999,None,2509.248839517999,None,2509.248839517999,None,2509.248839517999,None,2509.248839517999,None,,,,,,,,,,,,,,,,,,,,,,,,,,,,,,,,,,,,,,,,,,,,001,61,2020_Feb_04_1121,spring_faces,3.1.5,60.00608197652422,
condition files/Stage1_2.xlsx,,B1,T1,c,"['c', 'm']","['Clue', 'Monopoly']","[-0.15, 0.5]","[0.15, 0.5]",1,1,,,,,,,,,0,5,5,5,0,6,6,0,,,,,,,,,,,,,,,,,,,,,,,,,,,,,,,,,,,,,,,,,,,,,,,,,,,,,,,2511.2151966389993,None,2511.2151966389993,None,2511.2151966389993,None,m,0,1.5142548229996464,2512.7496232289996,None,2512.7496232289996,None,2512.7496232289996,None,2514.315246819,None,2514.315246819,None,2514.315246819,None,2514.315246819,None,,,,,,,,,,,,,,,,,,,,,,,,,,,,,,,,,,,,,,,,,,,,001,61,2020_Feb_04_1121,spring_faces,3.1.5,60.00608197652422,
condition files/Stage1_2.xlsx,,B2,T2,m,"['c', 'm']","['Clue', 'Monopoly']","[-0.15, 0.5]","[0.15, 0.5]",1,1,,,,,,,,,0,5,5,5,0,7,7,3,,,,,,,,,,,,,,,,,,,,,,,,,,,,,,,,,,,,,,,,,,,,,,,,,,,,,,,2516.2817363110007,None,2516.2817363110007,None,2516.2817363110007,None,m,1,2.992032100999495,2517.8158113650006,None,2517.8158113650006,None,2517.8158113650006,None,2520.866114348999,None,2520.866114348999,None,2520.866114348999,None,2520.866114348999,None,,,,,,,,,,,,,,,,,,,,,,,,,,,,,,,,,,,,,,,,,,,,001,61,2020_Feb_04_1121,spring_faces,3.1.5,60.00608197652422,
condition files/Stage1_1.xlsx,,T1,B1,c,"['c', 'm']","['Clue', 'Monopoly']","[-0.15, 0.5]","[0.15, 0.5]",1,1,,,,,,,,,0,6,6,6,0,0,0,0,,,,,,,,,,,,,,,,,,,,,,,,,,,,,,,,,,,,,,,,,,,,,,,,,,,,,,,2522.8484111489997,None,2522.8484111489997,None,2522.8484111489997,None,c,1,1.0495100019998063,2524.382381022,None,2524.382381022,None,2524.382381022,None,2525.49860646,None,2525.49860646,None,2525.49860646,None,2525.49860646,None,,,,,,,,,,,,,,,,,,,,,,,,,,,,,,,,,,,,,,,,,,,,001,61,2020_Feb_04_1121,spring_faces,3.1.5,60.00608197652422,
condition files/Stage1_1.xlsx,,T4,B3,m,"['c', 'm']","['Clue', 'Monopoly']","[-0.15, 0.5]","[0.15, 0.5]",1,1,,,,,,,,,0,6,6,6,0,1,1,6,,,,,,,,,,,,,,,,,,,,,,,,,,,,,,,,,,,,,,,,,,,,,,,,,,,,,,,2527.44836984,None,2527.44836984,None,2527.44836984,None,m,1,0.9929283969995595,2528.983027012,None,2528.983027012,None,2528.983027012,None,2530.032750918999,None,2530.032750918999,None,2530.032750918999,None,2530.032750918999,None,,,,,,,,,,,,,,,,,,,,,,,,,,,,,,,,,,,,,,,,,,,,001,61,2020_Feb_04_1121,spring_faces,3.1.5,60.00608197652422,
condition files/Stage1_1.xlsx,,B1,T2,c,"['c', 'm']","['Clue', 'Monopoly']","[-0.15, 0.5]","[0.15, 0.5]",1,1,,,,,,,,,0,6,6,6,0,2,2,1,,,,,,,,,,,,,,,,,,,,,,,,,,,,,,,,,,,,,,,,,,,,,,,,,,,,,,,2531.9983998690004,None,2531.9983998690004,None,2531.9983998690004,None,c,1,1.5480184819989518,2533.531860702,None,2533.531860702,None,2533.531860702,None,2535.148352570999,None,2535.148352570999,None,2535.148352570999,None,2535.148352570999,None,,,,,,,,,,,,,,,,,,,,,,,,,,,,,,,,,,,,,,,,,,,,001,61,2020_Feb_04_1121,spring_faces,3.1.5,60.00608197652422,
condition files/Stage1_1.xlsx,,T3,B4,c,"['c', 'm']","['Clue', 'Monopoly']","[-0.15, 0.5]","[0.15, 0.5]",1,1,,,,,,,,,0,6,6,6,0,3,3,5,,,,,,,,,,,,,,,,,,,,,,,,,,,,,,,,,,,,,,,,,,,,,,,,,,,,,,,2537.0981384820006,None,2537.0981384820006,None,2537.0981384820006,None,c,1,0.9443833080003969,2538.6315831360007,None,2538.6315831360007,None,2538.6315831360007,None,2539.631331254999,None,2539.631331254999,None,2539.631331254999,None,2539.631331254999,None,,,,,,,,,,,,,,,,,,,,,,,,,,,,,,,,,,,,,,,,,,,,001,61,2020_Feb_04_1121,spring_faces,3.1.5,60.00608197652422,
condition files/Stage1_1.xlsx,,B2,T1,m,"['c', 'm']","['Clue', 'Monopoly']","[-0.15, 0.5]","[0.15, 0.5]",1,1,,,,,,,,,0,6,6,6,0,4,4,2,,,,,,,,,,,,,,,,,,,,,,,,,,,,,,,,,,,,,,,,,,,,,,,,,,,,,,,2541.5986033770005,None,2541.5986033770005,None,2541.5986033770005,None,m,1,1.7872420469993813,2543.132648245999,None,2543.132648245999,None,2543.132648245999,None,2544.9985601749995,None,2544.9985601749995,None,2544.9985601749995,None,2544.9985601749995,None,,,,,,,,,,,,,,,,,,,,,,,,,,,,,,,,,,,,,,,,,,,,001,61,2020_Feb_04_1121,spring_faces,3.1.5,60.00608197652422,
condition files/Stage1_1.xlsx,,B4,T4,m,"['c', 'm']","['Clue', 'Monopoly']","[-0.15, 0.5]","[0.15, 0.5]",1,1,,,,,,,,,0,6,6,6,0,5,5,7,,,,,,,,,,,,,,,,,,,,,,,,,,,,,,,,,,,,,,,,,,,,,,,,,,,,,,,2546.9484596990005,None,2546.9484596990005,None,2546.9484596990005,None,m,1,0.7258406109995121,2548.4821591559994,None,2548.4821591559994,None,2548.4821591559994,None,2549.2649889780005,None,2549.2649889780005,None,2549.2649889780005,None,2549.2649889780005,None,,,,,,,,,,,,,,,,,,,,,,,,,,,,,,,,,,,,,,,,,,,,001,61,2020_Feb_04_1121,spring_faces,3.1.5,60.00608197652422,
condition files/Stage1_1.xlsx,,B3,T3,c,"['c', 'm']","['Clue', 'Monopoly']","[-0.15, 0.5]","[0.15, 0.5]",1,1,,,,,,,,,0,6,6,6,0,6,6,4,,,,,,,,,,,,,,,,,,,,,,,,,,,,,,,,,,,,,,,,,,,,,,,,,,,,,,,2551.2317565529993,None,2551.2317565529993,None,2551.2317565529993,None,c,1,0.986769617000391,2552.7651193210004,None,2552.7651193210004,None,2552.7651193210004,None,2553.831905949999,None,2553.831905949999,None,2553.831905949999,None,2553.831905949999,None,,,,,,,,,,,,,,,,,,,,,,,,,,,,,,,,,,,,,,,,,,,,001,61,2020_Feb_04_1121,spring_faces,3.1.5,60.00608197652422,
condition files/Stage1_1.xlsx,,T2,B2,m,"['c', 'm']","['Clue', 'Monopoly']","[-0.15, 0.5]","[0.15, 0.5]",1,1,,,,,,,,,0,6,6,6,0,7,7,3,,,,,,,,,,,,,,,,,,,,,,,,,,,,,,,,,,,,,,,,,,,,,,,,,,,,,,,2555.7816758810004,None,2555.7816758810004,None,2555.7816758810004,None,c,0,1.634946032998414,2557.316940035,None,2557.316940035,None,2557.316940035,None,2559.014532731,None,2559.014532731,None,2559.014532731,None,2559.014532731,None,,,,,,,,,,,,,,,,,,,,,,,,,,,,,,,,,,,,,,,,,,,,001,61,2020_Feb_04_1121,spring_faces,3.1.5,60.00608197652422,
condition files/Stage1_2.xlsx,,T4,B4,m,"['c', 'm']","['Clue', 'Monopoly']","[-0.15, 0.5]","[0.15, 0.5]",1,1,,,,,,,,,0,7,7,7,0,0,0,7,,,,,,,,,,,,,,,,,,,,,,,,,,,,,,,,,,,,,,,,,,,,,,,,,,,,,,,2560.9987661880004,None,2560.9987661880004,None,2560.9987661880004,None,m,1,0.6916798109996307,2562.5482662840004,None,2562.5482662840004,None,2562.5482662840004,None,2563.298860945999,None,2563.298860945999,None,2563.298860945999,None,2563.298860945999,None,,,,,,,,,,,,,,,,,,,,,,,,,,,,,,,,,,,,,,,,,,,,001,61,2020_Feb_04_1121,spring_faces,3.1.5,60.00608197652422,
condition files/Stage1_2.xlsx,,T1,B2,m,"['c', 'm']","['Clue', 'Monopoly']","[-0.15, 0.5]","[0.15, 0.5]",1,1,,,,,,,,,0,7,7,7,0,1,1,2,,,,,,,,,,,,,,,,,,,,,,,,,,,,,,,,,,,,,,,,,,,,,,,,,,,,,,,2565.265116385999,None,2565.265116385999,None,2565.265116385999,None,m,1,1.7372195389998524,2566.798670434,None,2566.798670434,None,2566.798670434,None,2568.5985969119993,None,2568.5985969119993,None,2568.5985969119993,None,2568.5985969119993,None,,,,,,,,,,,,,,,,,,,,,,,,,,,,,,,,,,,,,,,,,,,,001,61,2020_Feb_04_1121,spring_faces,3.1.5,60.00608197652422,
condition files/Stage1_2.xlsx,,B1,T1,c,"['c', 'm']","['Clue', 'Monopoly']","[-0.15, 0.5]","[0.15, 0.5]",1,1,,,,,,,,,0,7,7,7,0,2,2,0,,,,,,,,,,,,,,,,,,,,,,,,,,,,,,,,,,,,,,,,,,,,,,,,,,,,,,,2570.565014579999,None,2570.565014579999,None,2570.565014579999,None,m,0,1.7646846320003533,2572.0991806839993,None,2572.0991806839993,None,2572.0991806839993,None,2573.91627317,None,2573.91627317,None,2573.91627317,None,2573.91627317,None,,,,,,,,,,,,,,,,,,,,,,,,,,,,,,,,,,,,,,,,,,,,001,61,2020_Feb_04_1121,spring_faces,3.1.5,60.00608197652422,
condition files/Stage1_2.xlsx,,T2,B1,c,"['c', 'm']","['Clue', 'Monopoly']","[-0.15, 0.5]","[0.15, 0.5]",1,1,,,,,,,,,0,7,7,7,0,3,3,1,,,,,,,,,,,,,,,,,,,,,,,,,,,,,,,,,,,,,,,,,,,,,,,,,,,,,,,2575.881753059999,None,2575.881753059999,None,2575.881753059999,None,m,0,2.047922630001267,2577.4159574210007,None,2577.4159574210007,None,2577.4159574210007,None,2579.5152102049997,None,2579.5152102049997,None,2579.5152102049997,None,2579.5152102049997,None,,,,,,,,,,,,,,,,,,,,,,,,,,,,,,,,,,,,,,,,,,,,001,61,2020_Feb_04_1121,spring_faces,3.1.5,60.00608197652422,
condition files/Stage1_2.xlsx,,B2,T2,m,"['c', 'm']","['Clue', 'Monopoly']","[-0.15, 0.5]","[0.15, 0.5]",1,1,,,,,,,,,0,7,7,7,0,4,4,3,,,,,,,,,,,,,,,,,,,,,,,,,,,,,,,,,,,,,,,,,,,,,,,,,,,,,,,2581.4818717279995,None,2581.4818717279995,None,2581.4818717279995,None,m,1,1.2162395989998913,2583.031617360999,None,2583.031617360999,None,2583.031617360999,None,2584.3150588419994,None,2584.3150588419994,None,2584.3150588419994,None,2584.3150588419994,None,,,,,,,,,,,,,,,,,,,,,,,,,,,,,,,,,,,,,,,,,,,,001,61,2020_Feb_04_1121,spring_faces,3.1.5,60.00608197652422,
condition files/Stage1_2.xlsx,,T3,B3,c,"['c', 'm']","['Clue', 'Monopoly']","[-0.15, 0.5]","[0.15, 0.5]",1,1,,,,,,,,,0,7,7,7,0,5,5,4,,,,,,,,,,,,,,,,,,,,,,,,,,,,,,,,,,,,,,,,,,,,,,,,,,,,,,,2586.264419989,None,2586.264419989,None,2586.264419989,None,c,1,0.7533320300008199,2587.798552799999,None,2587.798552799999,None,2587.798552799999,None,2588.616411785999,None,2588.616411785999,None,2588.616411785999,None,2588.616411785999,None,,,,,,,,,,,,,,,,,,,,,,,,,,,,,,,,,,,,,,,,,,,,001,61,2020_Feb_04_1121,spring_faces,3.1.5,60.00608197652422,
condition files/Stage1_2.xlsx,,B4,T3,c,"['c', 'm']","['Clue', 'Monopoly']","[-0.15, 0.5]","[0.15, 0.5]",1,1,,,,,,,,,0,7,7,7,0,6,6,5,,,,,,,,,,,,,,,,,,,,,,,,,,,,,,,,,,,,,,,,,,,,,,,,,,,,,,,2590.581419652999,None,2590.581419652999,None,2590.581419652999,None,c,1,0.8839106710001943,2592.131934032999,None,2592.131934032999,None,2592.131934032999,None,2593.082005545999,None,2593.082005545999,None,2593.082005545999,None,2593.082005545999,None,,,,,,,,,,,,,,,,,,,,,,,,,,,,,,,,,,,,,,,,,,,,001,61,2020_Feb_04_1121,spring_faces,3.1.5,60.00608197652422,
condition files/Stage1_2.xlsx,,B3,T4,m,"['c', 'm']","['Clue', 'Monopoly']","[-0.15, 0.5]","[0.15, 0.5]",1,1,,,,,,,,,0,7,7,7,0,7,7,6,,,,,,,,,,,,,,,,,,,,,,,,,,,,,,,,,,,,,,,,,,,,,,,,,,,,,,,2595.048511482999,None,2595.048511482999,None,2595.048511482999,None,m,1,0.6719959009988088,2596.583954902,None,2596.583954902,None,2596.583954902,None,2597.318146059999,None,2597.318146059999,None,2597.318146059999,None,2597.318146059999,None,,,,,,,,,,,,,,,,,,,,,,,,,,,,,,,,,,,,,,,,,,,,001,61,2020_Feb_04_1121,spring_faces,3.1.5,60.00608197652422,
condition files/Stage1_1.xlsx,,B2,T1,m,"['c', 'm']","['Clue', 'Monopoly']","[-0.15, 0.5]","[0.15, 0.5]",1,1,,,,,,,,,0,8,8,8,0,0,0,2,,,,,,,,,,,,,,,,,,,,,,,,,,,,,,,,,,,,,,,,,,,,,,,,,,,,,,,2599.298398686,None,2599.298398686,None,2599.298398686,None,m,1,2.5993198239993944,2600.8325628130005,None,2600.8325628130005,None,2600.8325628130005,None,2603.4822639819995,None,2603.4822639819995,None,2603.4822639819995,None,2603.4822639819995,None,,,,,,,,,,,,,,,,,,,,,,,,,,,,,,,,,,,,,,,,,,,,001,61,2020_Feb_04_1121,spring_faces,3.1.5,60.00608197652422,
condition files/Stage1_1.xlsx,,T2,B2,m,"['c', 'm']","['Clue', 'Monopoly']","[-0.15, 0.5]","[0.15, 0.5]",1,1,,,,,,,,,0,8,8,8,0,1,1,3,,,,,,,,,,,,,,,,,,,,,,,,,,,,,,,,,,,,,,,,,,,,,,,,,,,,,,,2605.448313970999,None,2605.448313970999,None,2605.448313970999,None,m,1,1.31288804200085,2606.982977566,None,2606.982977566,None,2606.982977566,None,2608.3483430510005,None,2608.3483430510005,None,2608.3483430510005,None,2608.3483430510005,None,,,,,,,,,,,,,,,,,,,,,,,,,,,,,,,,,,,,,,,,,,,,001,61,2020_Feb_04_1121,spring_faces,3.1.5,60.00608197652422,
condition files/Stage1_1.xlsx,,T3,B4,c,"['c', 'm']","['Clue', 'Monopoly']","[-0.15, 0.5]","[0.15, 0.5]",1,1,,,,,,,,,0,8,8,8,0,2,2,5,,,,,,,,,,,,,,,,,,,,,,,,,,,,,,,,,,,,,,,,,,,,,,,,,,,,,,,2610.314909675999,None,2610.314909675999,None,2610.314909675999,None,c,1,1.262759131999701,2611.849228203,None,2611.849228203,None,2611.849228203,None,2613.166627774999,None,2613.166627774999,None,2613.166627774999,None,2613.166627774999,None,,,,,,,,,,,,,,,,,,,,,,,,,,,,,,,,,,,,,,,,,,,,001,61,2020_Feb_04_1121,spring_faces,3.1.5,60.00608197652422,
condition files/Stage1_1.xlsx,,T4,B3,m,"['c', 'm']","['Clue', 'Monopoly']","[-0.15, 0.5]","[0.15, 0.5]",1,1,,,,,,,,,0,8,8,8,0,3,3,6,,,,,,,,,,,,,,,,,,,,,,,,,,,,,,,,,,,,,,,,,,,,,,,,,,,,,,,2615.131802288999,None,2615.131802288999,None,2615.131802288999,None,m,1,0.6538578130002861,2616.6660308699993,None,2616.6660308699993,None,2616.6660308699993,None,2617.3839088189998,None,2617.3839088189998,None,2617.3839088189998,None,2617.3839088189998,None,,,,,,,,,,,,,,,,,,,,,,,,,,,,,,,,,,,,,,,,,,,,001,61,2020_Feb_04_1121,spring_faces,3.1.5,60.00608197652422,
condition files/Stage1_1.xlsx,,B3,T3,c,"['c', 'm']","['Clue', 'Monopoly']","[-0.15, 0.5]","[0.15, 0.5]",1,1,,,,,,,,,0,8,8,8,0,4,4,4,,,,,,,,,,,,,,,,,,,,,,,,,,,,,,,,,,,,,,,,,,,,,,,,,,,,,,,2619.3485017660005,None,2619.3485017660005,None,2619.3485017660005,None,c,1,0.8062825149991113,2620.8816777619995,None,2620.8816777619995,None,2620.8816777619995,None,2621.7482100809993,None,2621.7482100809993,None,2621.7482100809993,None,2621.7482100809993,None,,,,,,,,,,,,,,,,,,,,,,,,,,,,,,,,,,,,,,,,,,,,001,61,2020_Feb_04_1121,spring_faces,3.1.5,60.00608197652422,
condition files/Stage1_1.xlsx,,B1,T2,c,"['c', 'm']","['Clue', 'Monopoly']","[-0.15, 0.5]","[0.15, 0.5]",1,1,,,,,,,,,0,8,8,8,0,5,5,1,,,,,,,,,,,,,,,,,,,,,,,,,,,,,,,,,,,,,,,,,,,,,,,,,,,,,,,2623.7152428219997,None,2623.7152428219997,None,2623.7152428219997,None,m,0,1.5429638999994495,2625.2649717040003,None,2625.2649717040003,None,2625.2649717040003,None,2626.8650993360006,None,2626.8650993360006,None,2626.8650993360006,None,2626.8650993360006,None,,,,,,,,,,,,,,,,,,,,,,,,,,,,,,,,,,,,,,,,,,,,001,61,2020_Feb_04_1121,spring_faces,3.1.5,60.00608197652422,
condition files/Stage1_1.xlsx,,B4,T4,m,"['c', 'm']","['Clue', 'Monopoly']","[-0.15, 0.5]","[0.15, 0.5]",1,1,,,,,,,,,0,8,8,8,0,6,6,7,,,,,,,,,,,,,,,,,,,,,,,,,,,,,,,,,,,,,,,,,,,,,,,,,,,,,,,2628.831890931,None,2628.831890931,None,2628.831890931,None,c,0,0.7601361950000864,2630.3677535179995,None,2630.3677535179995,None,2630.3677535179995,None,2631.198592097,None,2631.198592097,None,2631.198592097,None,2631.198592097,None,,,,,,,,,,,,,,,,,,,,,,,,,,,,,,,,,,,,,,,,,,,,001,61,2020_Feb_04_1121,spring_faces,3.1.5,60.00608197652422,
condition files/Stage1_1.xlsx,,T1,B1,c,"['c', 'm']","['Clue', 'Monopoly']","[-0.15, 0.5]","[0.15, 0.5]",1,1,,,,,,,,,0,8,8,8,0,7,7,0,,,,,,,,,,,,,,,,,,,,,,,,,,,,,,,,,,,,,,,,,,,,,,,,,,,,,,,2633.148424957999,None,2633.148424957999,None,2633.148424957999,None,c,1,1.5330472810001083,2634.6827872289996,None,2634.6827872289996,None,2634.6827872289996,None,2636.283896936,None,2636.283896936,None,2636.283896936,None,2636.283896936,None,,,,,,,,,,,,,,,,,,,,,,,,,,,,,,,,,,,,,,,,,,,,001,61,2020_Feb_04_1121,spring_faces,3.1.5,60.00608197652422,
condition files/Stage1_2.xlsx,,T2,B1,c,"['c', 'm']","['Clue', 'Monopoly']","[-0.15, 0.5]","[0.15, 0.5]",1,1,,,,,,,,,0,9,9,9,0,0,0,1,,,,,,,,,,,,,,,,,,,,,,,,,,,,,,,,,,,,,,,,,,,,,,,,,,,,,,,2638.264743119,None,2638.264743119,None,2638.264743119,None,c,1,2.0325224740008707,2639.8153478189997,None,2639.8153478189997,None,2639.8153478189997,None,2641.898215469,None,2641.898215469,None,2641.898215469,None,2641.898215469,None,,,,,,,,,,,,,,,,,,,,,,,,,,,,,,,,,,,,,,,,,,,,001,61,2020_Feb_04_1121,spring_faces,3.1.5,60.00608197652422,
condition files/Stage1_2.xlsx,,T3,B3,c,"['c', 'm']","['Clue', 'Monopoly']","[-0.15, 0.5]","[0.15, 0.5]",1,1,,,,,,,,,0,9,9,9,0,1,1,4,,,,,,,,,,,,,,,,,,,,,,,,,,,,,,,,,,,,,,,,,,,,,,,,,,,,,,,2643.864899516,None,2643.864899516,None,2643.864899516,None,c,1,1.0086423930006276,2645.399338347999,None,2645.399338347999,None,2645.399338347999,None,2646.465372532999,None,2646.465372532999,None,2646.465372532999,None,2646.465372532999,None,,,,,,,,,,,,,,,,,,,,,,,,,,,,,,,,,,,,,,,,,,,,001,61,2020_Feb_04_1121,spring_faces,3.1.5,60.00608197652422,
condition files/Stage1_2.xlsx,,B1,T1,c,"['c', 'm']","['Clue', 'Monopoly']","[-0.15, 0.5]","[0.15, 0.5]",1,1,,,,,,,,,0,9,9,9,0,2,2,0,,,,,,,,,,,,,,,,,,,,,,,,,,,,,,,,,,,,,,,,,,,,,,,,,,,,,,,2648.431868668,None,2648.431868668,None,2648.431868668,None,c,1,1.882391226999971,2649.965475118999,None,2649.965475118999,None,2649.965475118999,None,2651.898034272999,None,2651.898034272999,None,2651.898034272999,None,2651.898034272999,None,,,,,,,,,,,,,,,,,,,,,,,,,,,,,,,,,,,,,,,,,,,,001,61,2020_Feb_04_1121,spring_faces,3.1.5,60.00608197652422,
condition files/Stage1_2.xlsx,,T1,B2,m,"['c', 'm']","['Clue', 'Monopoly']","[-0.15, 0.5]","[0.15, 0.5]",1,1,,,,,,,,,0,9,9,9,0,3,3,2,,,,,,,,,,,,,,,,,,,,,,,,,,,,,,,,,,,,,,,,,,,,,,,,,,,,,,,2653.8651883170005,None,2653.8651883170005,None,2653.8651883170005,None,m,1,0.735899334998976,2655.3999830930006,None,2655.3999830930006,None,2655.3999830930006,None,2656.214743803999,None,2656.214743803999,None,2656.214743803999,None,2656.214743803999,None,,,,,,,,,,,,,,,,,,,,,,,,,,,,,,,,,,,,,,,,,,,,001,61,2020_Feb_04_1121,spring_faces,3.1.5,60.00608197652422,
condition files/Stage1_2.xlsx,,B3,T4,m,"['c', 'm']","['Clue', 'Monopoly']","[-0.15, 0.5]","[0.15, 0.5]",1,1,,,,,,,,,0,9,9,9,0,4,4,6,,,,,,,,,,,,,,,,,,,,,,,,,,,,,,,,,,,,,,,,,,,,,,,,,,,,,,,2658.165145052999,None,2658.165145052999,None,2658.165145052999,None,m,1,0.6612194369990902,2659.698647247,None,2659.698647247,None,2659.698647247,None,2660.414782918,None,2660.414782918,None,2660.414782918,None,2660.414782918,None,,,,,,,,,,,,,,,,,,,,,,,,,,,,,,,,,,,,,,,,,,,,001,61,2020_Feb_04_1121,spring_faces,3.1.5,60.00608197652422,
condition files/Stage1_2.xlsx,,T4,B4,m,"['c', 'm']","['Clue', 'Monopoly']","[-0.15, 0.5]","[0.15, 0.5]",1,1,,,,,,,,,0,9,9,9,0,5,5,7,,,,,,,,,,,,,,,,,,,,,,,,,,,,,,,,,,,,,,,,,,,,,,,,,,,,,,,2662.381768023999,None,2662.381768023999,None,2662.381768023999,None,m,1,0.6844260289999511,2663.915410383999,None,2663.915410383999,None,2663.915410383999,None,2664.664857971,None,2664.664857971,None,2664.664857971,None,2664.664857971,None,,,,,,,,,,,,,,,,,,,,,,,,,,,,,,,,,,,,,,,,,,,,001,61,2020_Feb_04_1121,spring_faces,3.1.5,60.00608197652422,
condition files/Stage1_2.xlsx,,B4,T3,c,"['c', 'm']","['Clue', 'Monopoly']","[-0.15, 0.5]","[0.15, 0.5]",1,1,,,,,,,,,0,9,9,9,0,6,6,5,,,,,,,,,,,,,,,,,,,,,,,,,,,,,,,,,,,,,,,,,,,,,,,,,,,,,,,2666.6317426610003,None,2666.6317426610003,None,2666.6317426610003,None,c,1,0.8348831980001705,2668.1649836470006,None,2668.1649836470006,None,2668.1649836470006,None,2669.065900919999,None,2669.065900919999,None,2669.065900919999,None,2669.065900919999,None,,,,,,,,,,,,,,,,,,,,,,,,,,,,,,,,,,,,,,,,,,,,001,61,2020_Feb_04_1121,spring_faces,3.1.5,60.00608197652422,
condition files/Stage1_2.xlsx,,B2,T2,m,"['c', 'm']","['Clue', 'Monopoly']","[-0.15, 0.5]","[0.15, 0.5]",1,1,,,,,,,,,0,9,9,9,0,7,7,3,,,,,,,,,,,,,,,,,,,,,,,,,,,,,,,,,,,,,,,,,,,,,,,,,,,,,,,2671.0313715810007,None,2671.0313715810007,None,2671.0313715810007,None,m,1,5.090965329000028,2672.564976558,None,2672.564976558,None,2672.564976558,None,2677.7319611170005,None,2677.7319611170005,None,2677.7319611170005,None,2677.7319611170005,None,,,,,,,,,,,,,,,,,,,,,,,,,,,,,,,,,,,,,,,,,,,,001,61,2020_Feb_04_1121,spring_faces,3.1.5,60.00608197652422,
condition files/Stage1_1.xlsx,,T4,B3,m,"['c', 'm']","['Clue', 'Monopoly']","[-0.15, 0.5]","[0.15, 0.5]",1,1,,,,,,,,,0,10,10,10,0,0,0,6,,,,,,,,,,,,,,,,,,,,,,,,,,,,,,,,,,,,,,,,,,,,,,,,,,,,,,,2679.698649501999,None,2679.698649501999,None,2679.698649501999,None,m,1,1.4002253210001072,2681.2316605319993,None,2681.2316605319993,None,2681.2316605319993,None,2682.6819359500005,None,2682.6819359500005,None,2682.6819359500005,None,2682.6819359500005,None,,,,,,,,,,,,,,,,,,,,,,,,,,,,,,,,,,,,,,,,,,,,001,61,2020_Feb_04_1121,spring_faces,3.1.5,60.00608197652422,
condition files/Stage1_1.xlsx,,B2,T1,m,"['c', 'm']","['Clue', 'Monopoly']","[-0.15, 0.5]","[0.15, 0.5]",1,1,,,,,,,,,0,10,10,10,0,1,1,2,,,,,,,,,,,,,,,,,,,,,,,,,,,,,,,,,,,,,,,,,,,,,,,,,,,,,,,2684.648262868999,None,2684.648262868999,None,2684.648262868999,None,c,0,1.2809392899998784,2686.1829431690003,None,2686.1829431690003,None,2686.1829431690003,None,2687.5145319460007,None,2687.5145319460007,None,2687.5145319460007,None,2687.5145319460007,None,,,,,,,,,,,,,,,,,,,,,,,,,,,,,,,,,,,,,,,,,,,,001,61,2020_Feb_04_1121,spring_faces,3.1.5,60.00608197652422,
condition files/Stage1_1.xlsx,,B4,T4,m,"['c', 'm']","['Clue', 'Monopoly']","[-0.15, 0.5]","[0.15, 0.5]",1,1,,,,,,,,,0,10,10,10,0,2,2,7,,,,,,,,,,,,,,,,,,,,,,,,,,,,,,,,,,,,,,,,,,,,,,,,,,,,,,,2689.4817612570005,None,2689.4817612570005,None,2689.4817612570005,None,m,1,1.2480316220007808,2691.015821092,None,2691.015821092,None,2691.015821092,None,2692.3154525259997,None,2692.3154525259997,None,2692.3154525259997,None,2692.3154525259997,None,,,,,,,,,,,,,,,,,,,,,,,,,,,,,,,,,,,,,,,,,,,,001,61,2020_Feb_04_1121,spring_faces,3.1.5,60.00608197652422,
condition files/Stage1_1.xlsx,,B1,T2,c,"['c', 'm']","['Clue', 'Monopoly']","[-0.15, 0.5]","[0.15, 0.5]",1,1,,,,,,,,,0,10,10,10,0,3,3,1,,,,,,,,,,,,,,,,,,,,,,,,,,,,,,,,,,,,,,,,,,,,,,,,,,,,,,,2694.2811887459993,None,2694.2811887459993,None,2694.2811887459993,None,c,1,1.552418403000047,2695.815466181999,None,2695.815466181999,None,2695.815466181999,None,2697.4342414029998,None,2697.4342414029998,None,2697.4342414029998,None,2697.4342414029998,None,,,,,,,,,,,,,,,,,,,,,,,,,,,,,,,,,,,,,,,,,,,,001,61,2020_Feb_04_1121,spring_faces,3.1.5,60.00608197652422,
condition files/Stage1_1.xlsx,,B3,T3,c,"['c', 'm']","['Clue', 'Monopoly']","[-0.15, 0.5]","[0.15, 0.5]",1,1,,,,,,,,,0,10,10,10,0,4,4,4,,,,,,,,,,,,,,,,,,,,,,,,,,,,,,,,,,,,,,,,,,,,,,,,,,,,,,,2699.398431436999,None,2699.398431436999,None,2699.398431436999,None,c,1,1.0761448789999122,2700.9318440780007,None,2700.9318440780007,None,2700.9318440780007,None,2702.065389202,None,2702.065389202,None,2702.065389202,None,2702.065389202,None,,,,,,,,,,,,,,,,,,,,,,,,,,,,,,,,,,,,,,,,,,,,001,61,2020_Feb_04_1121,spring_faces,3.1.5,60.00608197652422,
condition files/Stage1_1.xlsx,,T2,B2,m,"['c', 'm']","['Clue', 'Monopoly']","[-0.15, 0.5]","[0.15, 0.5]",1,1,,,,,,,,,0,10,10,10,0,5,5,3,,,,,,,,,,,,,,,,,,,,,,,,,,,,,,,,,,,,,,,,,,,,,,,,,,,,,,,2704.0317606520002,None,2704.0317606520002,None,2704.0317606520002,None,m,1,2.491046526998616,2705.5649105190005,None,2705.5649105190005,None,2705.5649105190005,None,2708.115253464999,None,2708.115253464999,None,2708.115253464999,None,2708.115253464999,None,,,,,,,,,,,,,,,,,,,,,,,,,,,,,,,,,,,,,,,,,,,,001,61,2020_Feb_04_1121,spring_faces,3.1.5,60.00608197652422,
condition files/Stage1_1.xlsx,,T1,B1,c,"['c', 'm']","['Clue', 'Monopoly']","[-0.15, 0.5]","[0.15, 0.5]",1,1,,,,,,,,,0,10,10,10,0,6,6,0,,,,,,,,,,,,,,,,,,,,,,,,,,,,,,,,,,,,,,,,,,,,,,,,,,,,,,,2710.0819107570005,None,2710.0819107570005,None,2710.0819107570005,None,c,1,1.4327631880005356,2711.6151264500004,None,2711.6151264500004,None,2711.6151264500004,None,2713.1012519310007,None,2713.1012519310007,None,2713.1012519310007,None,2713.1012519310007,None,,,,,,,,,,,,,,,,,,,,,,,,,,,,,,,,,,,,,,,,,,,,001,61,2020_Feb_04_1121,spring_faces,3.1.5,60.00608197652422,
condition files/Stage1_1.xlsx,,T3,B4,c,"['c', 'm']","['Clue', 'Monopoly']","[-0.15, 0.5]","[0.15, 0.5]",1,1,,,,,,,,,0,10,10,10,0,7,7,5,,,,,,,,,,,,,,,,,,,,,,,,,,,,,,,,,,,,,,,,,,,,,,,,,,,,,,,2715.065322188,None,2715.065322188,None,2715.065322188,None,c,1,2.2729821909997554,2716.598964592,None,2716.598964592,None,2716.598964592,None,2718.931357144,None,2718.931357144,None,2718.931357144,None,2718.931357144,None,,,,,,,,,,,,,,,,,,,,,,,,,,,,,,,,,,,,,,,,,,,,001,61,2020_Feb_04_1121,spring_faces,3.1.5,60.00608197652422,
condition files/Stage1_2.xlsx,,T1,B2,m,"['c', 'm']","['Clue', 'Monopoly']","[-0.15, 0.5]","[0.15, 0.5]",1,1,,,,,,,,,0,11,11,11,0,0,0,2,,,,,,,,,,,,,,,,,,,,,,,,,,,,,,,,,,,,,,,,,,,,,,,,,,,,,,,2720.9152759360004,None,2720.9152759360004,None,2720.9152759360004,None,m,1,3.990692792000118,2722.449277055999,None,2722.449277055999,None,2722.449277055999,None,2726.5010105969995,None,2726.5010105969995,None,2726.5010105969995,None,2726.5010105969995,None,,,,,,,,,,,,,,,,,,,,,,,,,,,,,,,,,,,,,,,,,,,,001,61,2020_Feb_04_1121,spring_faces,3.1.5,60.00608197652422,
condition files/Stage1_2.xlsx,,T2,B1,c,"['c', 'm']","['Clue', 'Monopoly']","[-0.15, 0.5]","[0.15, 0.5]",1,1,,,,,,,,,0,11,11,11,0,1,1,1,,,,,,,,,,,,,,,,,,,,,,,,,,,,,,,,,,,,,,,,,,,,,,,,,,,,,,,2728.465098412,None,2728.465098412,None,2728.465098412,None,c,1,2.057616309999503,2729.998339407999,None,2729.998339407999,None,2729.998339407999,None,2732.116294088999,None,2732.116294088999,None,2732.116294088999,None,2732.116294088999,None,,,,,,,,,,,,,,,,,,,,,,,,,,,,,,,,,,,,,,,,,,,,001,61,2020_Feb_04_1121,spring_faces,3.1.5,60.00608197652422,
condition files/Stage1_2.xlsx,,B4,T3,c,"['c', 'm']","['Clue', 'Monopoly']","[-0.15, 0.5]","[0.15, 0.5]",1,1,,,,,,,,,0,11,11,11,0,2,2,5,,,,,,,,,,,,,,,,,,,,,,,,,,,,,,,,,,,,,,,,,,,,,,,,,,,,,,,2734.0812584249998,None,2734.0812584249998,None,2734.0812584249998,None,c,1,0.9691011440008879,2735.6147309379994,None,2735.6147309379994,None,2735.6147309379994,None,2736.6486813209995,None,2736.6486813209995,None,2736.6486813209995,None,2736.6486813209995,None,,,,,,,,,,,,,,,,,,,,,,,,,,,,,,,,,,,,,,,,,,,,001,61,2020_Feb_04_1121,spring_faces,3.1.5,60.00608197652422,
condition files/Stage1_2.xlsx,,T3,B3,c,"['c', 'm']","['Clue', 'Monopoly']","[-0.15, 0.5]","[0.15, 0.5]",1,1,,,,,,,,,0,11,11,11,0,3,3,4,,,,,,,,,,,,,,,,,,,,,,,,,,,,,,,,,,,,,,,,,,,,,,,,,,,,,,,2738.6151370530006,None,2738.6151370530006,None,2738.6151370530006,None,c,1,1.2505073020001873,2740.1653252569995,None,2740.1653252569995,None,2740.1653252569995,None,2741.481960207,None,2741.481960207,None,2741.481960207,None,2741.481960207,None,,,,,,,,,,,,,,,,,,,,,,,,,,,,,,,,,,,,,,,,,,,,001,61,2020_Feb_04_1121,spring_faces,3.1.5,60.00608197652422,
condition files/Stage1_2.xlsx,,B1,T1,c,"['c', 'm']","['Clue', 'Monopoly']","[-0.15, 0.5]","[0.15, 0.5]",1,1,,,,,,,,,0,11,11,11,0,4,4,0,,,,,,,,,,,,,,,,,,,,,,,,,,,,,,,,,,,,,,,,,,,,,,,,,,,,,,,2743.4478880789993,None,2743.4478880789993,None,2743.4478880789993,None,c,1,6.609409634000258,2744.9825249210007,None,2744.9825249210007,None,2744.9825249210007,None,2751.6482193209995,None,2751.6482193209995,None,2751.6482193209995,None,2751.6482193209995,None,,,,,,,,,,,,,,,,,,,,,,,,,,,,,,,,,,,,,,,,,,,,001,61,2020_Feb_04_1121,spring_faces,3.1.5,60.00608197652422,
condition files/Stage1_2.xlsx,,T4,B4,m,"['c', 'm']","['Clue', 'Monopoly']","[-0.15, 0.5]","[0.15, 0.5]",1,1,,,,,,,,,0,11,11,11,0,5,5,7,,,,,,,,,,,,,,,,,,,,,,,,,,,,,,,,,,,,,,,,,,,,,,,,,,,,,,,2753.6150808410002,None,2753.6150808410002,None,2753.6150808410002,None,m,1,0.6820682179986761,2755.1498131200005,None,2755.1498131200005,None,2755.1498131200005,None,2755.8818656719995,None,2755.8818656719995,None,2755.8818656719995,None,2755.8818656719995,None,,,,,,,,,,,,,,,,,,,,,,,,,,,,,,,,,,,,,,,,,,,,001,61,2020_Feb_04_1121,spring_faces,3.1.5,60.00608197652422,
condition files/Stage1_2.xlsx,,B3,T4,m,"['c', 'm']","['Clue', 'Monopoly']","[-0.15, 0.5]","[0.15, 0.5]",1,1,,,,,,,,,0,11,11,11,0,6,6,6,,,,,,,,,,,,,,,,,,,,,,,,,,,,,,,,,,,,,,,,,,,,,,,,,,,,,,,2757.848862229999,None,2757.848862229999,None,2757.848862229999,None,m,1,0.5143875229987316,2759.381492847,None,2759.381492847,None,2759.381492847,None,2759.948052033,None,2759.948052033,None,2759.948052033,None,2759.948052033,None,,,,,,,,,,,,,,,,,,,,,,,,,,,,,,,,,,,,,,,,,,,,001,61,2020_Feb_04_1121,spring_faces,3.1.5,60.00608197652422,
condition files/Stage1_2.xlsx,,B2,T2,m,"['c', 'm']","['Clue', 'Monopoly']","[-0.15, 0.5]","[0.15, 0.5]",1,1,,,,,,,,,0,11,11,11,0,7,7,3,,,,,,,,,,,,,,,,,,,,,,,,,,,,,,,,,,,,,,,,,,,,,,,,,,,,,,,2761.9151200489996,None,2761.9151200489996,None,2761.9151200489996,None,m,1,2.7027548939986445,2763.4491344460002,None,2763.4491344460002,None,2763.4491344460002,None,2766.2146958539997,None,2766.2146958539997,None,2766.2146958539997,None,2766.2146958539997,None,,,,,,,,,,,,,,,,,,,,,,,,,,,,,,,,,,,,,,,,,,,,001,61,2020_Feb_04_1121,spring_faces,3.1.5,60.00608197652422,
,,,,,,,,,,,,,,,,,,,,,,,,,,,,,,,,,,,,,,,,,,,,,,,,,,,,,,,,,,,,,,,,,,,,,,,,,,,,,,,,,,,,,,,,,,,,,,,,,,,,,,,,,,,,,,,,2768.1986050289997,None,space,11.35405463799907,2773.1978350179998,None,,,,,,,,,,,,,,,,,,,,,,,,,,,,,,001,61,2020_Feb_04_1121,spring_faces,3.1.5,60.00608197652422,
condition files/Stage2_1.xlsx,,B2,T2,r,"['s', 'r']","['Stratego', 'Risk']","[-0.15, 0.5]","[0.15, 0.5]",1,1,,,,,,,,,,,,,,,,,0,0,0,0,0,0,0,3,,,,,,,,,,,,,,,,,,,,,,,,,,,,,,,,,,,,,,,,,,,,,,,2784.6147390900005,None,2784.6147390900005,None,2784.6147390900005,None,s,0,2.179728437000449,2786.1323133919996,None,2786.1323133919996,None,2786.1323133919996,None,2788.367402325999,None,2788.367402325999,None,2788.367402325999,None,2788.367402325999,None,,,,,,,,,,,,,,,2773.1978350179998,None,,,,,,,,,,,,,,,,,,,,,,,,,,,,001,61,2020_Feb_04_1121,spring_faces,3.1.5,60.00608197652422,
condition files/Stage2_1.xlsx,,B6,T6,r,"['s', 'r']","['Stratego', 'Risk']","[-0.15, 0.5]","[0.15, 0.5]",1,1,,,,,,,,,,,,,,,,,0,0,0,0,0,1,1,1,,,,,,,,,,,,,,,,,,,,,,,,,,,,,,,,,,,,,,,,,,,,,,,2790.331759389999,None,2790.331759389999,None,2790.331759389999,None,s,0,2.046782303999862,2791.865157258,None,2791.865157258,None,2791.865157258,None,2793.965385227999,None,2793.965385227999,None,2793.965385227999,None,2793.965385227999,None,,,,,,,,,,,,,,,,,,,,,,,,,,,,,,,,,,,,,,,,,,,,001,61,2020_Feb_04_1121,spring_faces,3.1.5,60.00608197652422,
condition files/Stage2_1.xlsx,,B4,T4,r,"['s', 'r']","['Stratego', 'Risk']","[-0.15, 0.5]","[0.15, 0.5]",1,1,,,,,,,,,,,,,,,,,0,0,0,0,0,2,2,5,,,,,,,,,,,,,,,,,,,,,,,,,,,,,,,,,,,,,,,,,,,,,,,2795.931321333999,None,2795.931321333999,None,2795.931321333999,None,s,0,0.9896068779999041,2797.4663503600004,None,2797.4663503600004,None,2797.4663503600004,None,2798.5155862640004,None,2798.5155862640004,None,2798.5155862640004,None,2798.5155862640004,None,,,,,,,,,,,,,,,,,,,,,,,,,,,,,,,,,,,,,,,,,,,,001,61,2020_Feb_04_1121,spring_faces,3.1.5,60.00608197652422,
condition files/Stage2_1.xlsx,,T1,B1,s,"['s', 'r']","['Stratego', 'Risk']","[-0.15, 0.5]","[0.15, 0.5]",1,1,,,,,,,,,,,,,,,,,0,0,0,0,0,3,3,2,,,,,,,,,,,,,,,,,,,,,,,,,,,,,,,,,,,,,,,,,,,,,,,2800.481760371,None,2800.481760371,None,2800.481760371,None,s,1,1.2560496540008899,2802.0159030449995,None,2802.0159030449995,None,2802.0159030449995,None,2803.3484289829994,None,2803.3484289829994,None,2803.3484289829994,None,2803.3484289829994,None,,,,,,,,,,,,,,,,,,,,,,,,,,,,,,,,,,,,,,,,,,,,001,61,2020_Feb_04_1121,spring_faces,3.1.5,60.00608197652422,
condition files/Stage2_1.xlsx,,T3,B3,s,"['s', 'r']","['Stratego', 'Risk']","[-0.15, 0.5]","[0.15, 0.5]",1,1,,,,,,,,,,,,,,,,,0,0,0,0,0,4,4,4,,,,,,,,,,,,,,,,,,,,,,,,,,,,,,,,,,,,,,,,,,,,,,,2805.2978052910003,None,2805.2978052910003,None,2805.2978052910003,None,s,1,0.711141203999432,2806.8327861529997,None,2806.8327861529997,None,2806.8327861529997,None,2807.598739572999,None,2807.598739572999,None,2807.598739572999,None,2807.598739572999,None,,,,,,,,,,,,,,,,,,,,,,,,,,,,,,,,,,,,,,,,,,,,001,61,2020_Feb_04_1121,spring_faces,3.1.5,60.00608197652422,
condition files/Stage2_1.xlsx,,T5,B5,s,"['s', 'r']","['Stratego', 'Risk']","[-0.15, 0.5]","[0.15, 0.5]",1,1,,,,,,,,,,,,,,,,,0,0,0,0,0,5,5,0,,,,,,,,,,,,,,,,,,,,,,,,,,,,,,,,,,,,,,,,,,,,,,,2809.5651953100005,None,2809.5651953100005,None,2809.5651953100005,None,s,1,1.6432659499987494,2811.1486741169992,None,2811.1486741169992,None,2811.1486741169992,None,2812.848709886999,None,2812.848709886999,None,2812.848709886999,None,2812.848709886999,None,,,,,,,,,,,,,,,,,,,,,,,,,,,,,,,,,,,,,,,,,,,,001,61,2020_Feb_04_1121,spring_faces,3.1.5,60.00608197652422,
condition files/Stage2_2.xlsx,,B5,T5,s,"['s', 'r']","['Stratego', 'Risk']","[-0.15, 0.5]","[0.15, 0.5]",1,1,,,,,,,,,,,,,,,,,0,1,1,1,0,0,0,0,,,,,,,,,,,,,,,,,,,,,,,,,,,,,,,,,,,,,,,,,,,,,,,2814.8316076749998,None,2814.8316076749998,None,2814.8316076749998,None,s,1,1.4965401720000955,2816.36734963,None,2816.36734963,None,2816.36734963,None,2817.9151147369994,None,2817.9151147369994,None,2817.9151147369994,None,2817.9151147369994,None,,,,,,,,,,,,,,,,,,,,,,,,,,,,,,,,,,,,,,,,,,,,001,61,2020_Feb_04_1121,spring_faces,3.1.5,60.00608197652422,
condition files/Stage2_2.xlsx,,T6,B6,r,"['s', 'r']","['Stratego', 'Risk']","[-0.15, 0.5]","[0.15, 0.5]",1,1,,,,,,,,,,,,,,,,,0,1,1,1,0,1,1,1,,,,,,,,,,,,,,,,,,,,,,,,,,,,,,,,,,,,,,,,,,,,,,,2819.8817831300003,None,2819.8817831300003,None,2819.8817831300003,None,r,1,4.686739540999042,2821.417147385,None,2821.417147385,None,2821.417147385,None,2826.1647786819995,None,2826.1647786819995,None,2826.1647786819995,None,2826.1647786819995,None,,,,,,,,,,,,,,,,,,,,,,,,,,,,,,,,,,,,,,,,,,,,001,61,2020_Feb_04_1121,spring_faces,3.1.5,60.00608197652422,
condition files/Stage2_2.xlsx,,T4,B4,r,"['s', 'r']","['Stratego', 'Risk']","[-0.15, 0.5]","[0.15, 0.5]",1,1,,,,,,,,,,,,,,,,,0,1,1,1,0,2,2,5,,,,,,,,,,,,,,,,,,,,,,,,,,,,,,,,,,,,,,,,,,,,,,,2828.1317294050004,None,2828.1317294050004,None,2828.1317294050004,None,r,1,1.0461118279999937,2829.665933311,None,2829.665933311,None,2829.665933311,None,2830.7655012119994,None,2830.7655012119994,None,2830.7655012119994,None,2830.7655012119994,None,,,,,,,,,,,,,,,,,,,,,,,,,,,,,,,,,,,,,,,,,,,,001,61,2020_Feb_04_1121,spring_faces,3.1.5,60.00608197652422,
condition files/Stage2_2.xlsx,,B1,T1,s,"['s', 'r']","['Stratego', 'Risk']","[-0.15, 0.5]","[0.15, 0.5]",1,1,,,,,,,,,,,,,,,,,0,1,1,1,0,3,3,2,,,,,,,,,,,,,,,,,,,,,,,,,,,,,,,,,,,,,,,,,,,,,,,2832.7317598150003,None,2832.7317598150003,None,2832.7317598150003,None,r,0,0.8619833879984071,2834.265891871999,None,2834.265891871999,None,2834.265891871999,None,2835.1979904710006,None,2835.1979904710006,None,2835.1979904710006,None,2835.1979904710006,None,,,,,,,,,,,,,,,,,,,,,,,,,,,,,,,,,,,,,,,,,,,,001,61,2020_Feb_04_1121,spring_faces,3.1.5,60.00608197652422,
condition files/Stage2_2.xlsx,,T2,B2,r,"['s', 'r']","['Stratego', 'Risk']","[-0.15, 0.5]","[0.15, 0.5]",1,1,,,,,,,,,,,,,,,,,0,1,1,1,0,4,4,3,,,,,,,,,,,,,,,,,,,,,,,,,,,,,,,,,,,,,,,,,,,,,,,2837.1478172879997,None,2837.1478172879997,None,2837.1478172879997,None,r,1,0.7637044570001308,2838.6841795990003,None,2838.6841795990003,None,2838.6841795990003,None,2839.500474445,None,2839.500474445,None,2839.500474445,None,2839.500474445,None,,,,,,,,,,,,,,,,,,,,,,,,,,,,,,,,,,,,,,,,,,,,001,61,2020_Feb_04_1121,spring_faces,3.1.5,60.00608197652422,
condition files/Stage2_2.xlsx,,B3,T3,s,"['s', 'r']","['Stratego', 'Risk']","[-0.15, 0.5]","[0.15, 0.5]",1,1,,,,,,,,,,,,,,,,,0,1,1,1,0,5,5,4,,,,,,,,,,,,,,,,,,,,,,,,,,,,,,,,,,,,,,,,,,,,,,,2841.465223523999,None,2841.465223523999,None,2841.465223523999,None,s,1,1.0410560889995395,2842.9989190859997,None,2842.9989190859997,None,2842.9989190859997,None,2844.114697346,None,2844.114697346,None,2844.114697346,None,2844.114697346,None,,,,,,,,,,,,,,,,,,,,,,,,,,,,,,,,,,,,,,,,,,,,001,61,2020_Feb_04_1121,spring_faces,3.1.5,60.00608197652422,
condition files/Stage2_1.xlsx,,T1,B1,s,"['s', 'r']","['Stratego', 'Risk']","[-0.15, 0.5]","[0.15, 0.5]",1,1,,,,,,,,,,,,,,,,,0,2,2,2,0,0,0,2,,,,,,,,,,,,,,,,,,,,,,,,,,,,,,,,,,,,,,,,,,,,,,,2846.0820660850004,None,2846.0820660850004,None,2846.0820660850004,None,r,0,2.2312569549994805,2847.616634329999,None,2847.616634329999,None,2847.616634329999,None,2849.898873037,None,2849.898873037,None,2849.898873037,None,2849.898873037,None,,,,,,,,,,,,,,,,,,,,,,,,,,,,,,,,,,,,,,,,,,,,001,61,2020_Feb_04_1121,spring_faces,3.1.5,60.00608197652422,
condition files/Stage2_1.xlsx,,B4,T4,r,"['s', 'r']","['Stratego', 'Risk']","[-0.15, 0.5]","[0.15, 0.5]",1,1,,,,,,,,,,,,,,,,,0,2,2,2,0,1,1,5,,,,,,,,,,,,,,,,,,,,,,,,,,,,,,,,,,,,,,,,,,,,,,,2851.864865623,None,2851.864865623,None,2851.864865623,None,r,1,0.9769930380007281,2853.398976372,None,2853.398976372,None,2853.398976372,None,2854.4339184189994,None,2854.4339184189994,None,2854.4339184189994,None,2854.4339184189994,None,,,,,,,,,,,,,,,,,,,,,,,,,,,,,,,,,,,,,,,,,,,,001,61,2020_Feb_04_1121,spring_faces,3.1.5,60.00608197652422,
condition files/Stage2_1.xlsx,,B6,T6,r,"['s', 'r']","['Stratego', 'Risk']","[-0.15, 0.5]","[0.15, 0.5]",1,1,,,,,,,,,,,,,,,,,0,2,2,2,0,2,2,1,,,,,,,,,,,,,,,,,,,,,,,,,,,,,,,,,,,,,,,,,,,,,,,2856.39847312,None,2856.39847312,None,2856.39847312,None,r,1,0.6844668930007174,2857.931354627999,None,2857.931354627999,None,2857.931354627999,None,2858.68140329,None,2858.68140329,None,2858.68140329,None,2858.68140329,None,,,,,,,,,,,,,,,,,,,,,,,,,,,,,,,,,,,,,,,,,,,,001,61,2020_Feb_04_1121,spring_faces,3.1.5,60.00608197652422,
condition files/Stage2_1.xlsx,,T5,B5,s,"['s', 'r']","['Stratego', 'Risk']","[-0.15, 0.5]","[0.15, 0.5]",1,1,,,,,,,,,,,,,,,,,0,2,2,2,0,3,3,0,,,,,,,,,,,,,,,,,,,,,,,,,,,,,,,,,,,,,,,,,,,,,,,2860.648864978999,None,2860.648864978999,None,2860.648864978999,None,s,1,1.938210173000698,2862.1816734330005,None,2862.1816734330005,None,2862.1816734330005,None,2864.18451576,None,2864.18451576,None,2864.18451576,None,2864.18451576,None,,,,,,,,,,,,,,,,,,,,,,,,,,,,,,,,,,,,,,,,,,,,001,61,2020_Feb_04_1121,spring_faces,3.1.5,60.00608197652422,
condition files/Stage2_1.xlsx,,T3,B3,s,"['s', 'r']","['Stratego', 'Risk']","[-0.15, 0.5]","[0.15, 0.5]",1,1,,,,,,,,,,,,,,,,,0,2,2,2,0,4,4,4,,,,,,,,,,,,,,,,,,,,,,,,,,,,,,,,,,,,,,,,,,,,,,,2866.1483191450006,None,2866.1483191450006,None,2866.1483191450006,None,s,1,1.157842132000951,2867.6821069809994,None,2867.6821069809994,None,2867.6821069809994,None,2868.898798798,None,2868.898798798,None,2868.898798798,None,2868.898798798,None,,,,,,,,,,,,,,,,,,,,,,,,,,,,,,,,,,,,,,,,,,,,001,61,2020_Feb_04_1121,spring_faces,3.1.5,60.00608197652422,
condition files/Stage2_1.xlsx,,B2,T2,r,"['s', 'r']","['Stratego', 'Risk']","[-0.15, 0.5]","[0.15, 0.5]",1,1,,,,,,,,,,,,,,,,,0,2,2,2,0,5,5,3,,,,,,,,,,,,,,,,,,,,,,,,,,,,,,,,,,,,,,,,,,,,,,,2870.8647701499995,None,2870.8647701499995,None,2870.8647701499995,None,r,1,1.399238919999334,2872.4005819640006,None,2872.4005819640006,None,2872.4005819640006,None,2873.8673083209997,None,2873.8673083209997,None,2873.8673083209997,None,2873.8673083209997,None,,,,,,,,,,,,,,,,,,,,,,,,,,,,,,,,,,,,,,,,,,,,001,61,2020_Feb_04_1121,spring_faces,3.1.5,60.00608197652422,
condition files/Stage2_2.xlsx,,T2,B2,r,"['s', 'r']","['Stratego', 'Risk']","[-0.15, 0.5]","[0.15, 0.5]",1,1,,,,,,,,,,,,,,,,,0,3,3,3,0,0,0,3,,,,,,,,,,,,,,,,,,,,,,,,,,,,,,,,,,,,,,,,,,,,,,,2875.848682938,None,2875.848682938,None,2875.848682938,None,r,1,1.3773009389988147,2877.398655084,None,2877.398655084,None,2877.398655084,None,2878.8317332980005,None,2878.8317332980005,None,2878.8317332980005,None,2878.8317332980005,None,,,,,,,,,,,,,,,,,,,,,,,,,,,,,,,,,,,,,,,,,,,,001,61,2020_Feb_04_1121,spring_faces,3.1.5,60.00608197652422,
condition files/Stage2_2.xlsx,,T4,B4,r,"['s', 'r']","['Stratego', 'Risk']","[-0.15, 0.5]","[0.15, 0.5]",1,1,,,,,,,,,,,,,,,,,0,3,3,3,0,1,1,5,,,,,,,,,,,,,,,,,,,,,,,,,,,,,,,,,,,,,,,,,,,,,,,2880.7980740719995,None,2880.7980740719995,None,2880.7980740719995,None,r,1,1.515190526000879,2882.348673008999,None,2882.348673008999,None,2882.348673008999,None,2883.915062774,None,2883.915062774,None,2883.915062774,None,2883.915062774,None,,,,,,,,,,,,,,,,,,,,,,,,,,,,,,,,,,,,,,,,,,,,001,61,2020_Feb_04_1121,spring_faces,3.1.5,60.00608197652422,
condition files/Stage2_2.xlsx,,B1,T1,s,"['s', 'r']","['Stratego', 'Risk']","[-0.15, 0.5]","[0.15, 0.5]",1,1,,,,,,,,,,,,,,,,,0,3,3,3,0,2,2,2,,,,,,,,,,,,,,,,,,,,,,,,,,,,,,,,,,,,,,,,,,,,,,,2885.8817545130005,None,2885.8817545130005,None,2885.8817545130005,None,s,1,1.3598448109987658,2887.4320831709992,None,2887.4320831709992,None,2887.4320831709992,None,2888.8646948740006,None,2888.8646948740006,None,2888.8646948740006,None,2888.8646948740006,None,,,,,,,,,,,,,,,,,,,,,,,,,,,,,,,,,,,,,,,,,,,,001,61,2020_Feb_04_1121,spring_faces,3.1.5,60.00608197652422,
condition files/Stage2_2.xlsx,,B3,T3,s,"['s', 'r']","['Stratego', 'Risk']","[-0.15, 0.5]","[0.15, 0.5]",1,1,,,,,,,,,,,,,,,,,0,3,3,3,0,3,3,4,,,,,,,,,,,,,,,,,,,,,,,,,,,,,,,,,,,,,,,,,,,,,,,2890.814649369,None,2890.814649369,None,2890.814649369,None,s,1,0.6831001179998566,2892.348773783,None,2892.348773783,None,2892.348773783,None,2893.081708574,None,2893.081708574,None,2893.081708574,None,2893.081708574,None,,,,,,,,,,,,,,,,,,,,,,,,,,,,,,,,,,,,,,,,,,,,001,61,2020_Feb_04_1121,spring_faces,3.1.5,60.00608197652422,
condition files/Stage2_2.xlsx,,T6,B6,r,"['s', 'r']","['Stratego', 'Risk']","[-0.15, 0.5]","[0.15, 0.5]",1,1,,,,,,,,,,,,,,,,,0,3,3,3,0,4,4,1,,,,,,,,,,,,,,,,,,,,,,,,,,,,,,,,,,,,,,,,,,,,,,,2895.047911283,None,2895.047911283,None,2895.047911283,None,r,1,2.5778930020005646,2896.5819978689997,None,2896.5819978689997,None,2896.5819978689997,None,2899.2151610479996,None,2899.2151610479996,None,2899.2151610479996,None,2899.2151610479996,None,,,,,,,,,,,,,,,,,,,,,,,,,,,,,,,,,,,,,,,,,,,,001,61,2020_Feb_04_1121,spring_faces,3.1.5,60.00608197652422,
condition files/Stage2_2.xlsx,,B5,T5,s,"['s', 'r']","['Stratego', 'Risk']","[-0.15, 0.5]","[0.15, 0.5]",1,1,,,,,,,,,,,,,,,,,0,3,3,3,0,5,5,0,,,,,,,,,,,,,,,,,,,,,,,,,,,,,,,,,,,,,,,,,,,,,,,2901.1814860939994,None,2901.1814860939994,None,2901.1814860939994,None,s,1,1.340645329999461,2902.7153039959994,None,2902.7153039959994,None,2902.7153039959994,None,2904.1162076809997,None,2904.1162076809997,None,2904.1162076809997,None,2904.1162076809997,None,,,,,,,,,,,,,,,,,,,,,,,,,,,,,,,,,,,,,,,,,,,,001,61,2020_Feb_04_1121,spring_faces,3.1.5,60.00608197652422,
condition files/Stage2_1.xlsx,,T3,B3,s,"['s', 'r']","['Stratego', 'Risk']","[-0.15, 0.5]","[0.15, 0.5]",1,1,,,,,,,,,,,,,,,,,0,4,4,4,0,0,0,4,,,,,,,,,,,,,,,,,,,,,,,,,,,,,,,,,,,,,,,,,,,,,,,2906.09807948,None,2906.09807948,None,2906.09807948,None,s,1,0.6625888729995495,2907.6332989170005,None,2907.6332989170005,None,2907.6332989170005,None,2908.348329667,None,2908.348329667,None,2908.348329667,None,2908.348329667,None,,,,,,,,,,,,,,,,,,,,,,,,,,,,,,,,,,,,,,,,,,,,001,61,2020_Feb_04_1121,spring_faces,3.1.5,60.00608197652422,
condition files/Stage2_1.xlsx,,B2,T2,r,"['s', 'r']","['Stratego', 'Risk']","[-0.15, 0.5]","[0.15, 0.5]",1,1,,,,,,,,,,,,,,,,,0,4,4,4,0,1,1,3,,,,,,,,,,,,,,,,,,,,,,,,,,,,,,,,,,,,,,,,,,,,,,,2910.315158592999,None,2910.315158592999,None,2910.315158592999,None,r,1,1.0865332819994364,2911.865345525999,None,2911.865345525999,None,2911.865345525999,None,2913.017968802,None,2913.017968802,None,2913.017968802,None,2913.017968802,None,,,,,,,,,,,,,,,,,,,,,,,,,,,,,,,,,,,,,,,,,,,,001,61,2020_Feb_04_1121,spring_faces,3.1.5,60.00608197652422,
condition files/Stage2_1.xlsx,,B4,T4,r,"['s', 'r']","['Stratego', 'Risk']","[-0.15, 0.5]","[0.15, 0.5]",1,1,,,,,,,,,,,,,,,,,0,4,4,4,0,2,2,5,,,,,,,,,,,,,,,,,,,,,,,,,,,,,,,,,,,,,,,,,,,,,,,2914.981744090999,None,2914.981744090999,None,2914.981744090999,None,r,1,1.3648605170001247,2916.5150064440004,None,2916.5150064440004,None,2916.5150064440004,None,2917.932046939999,None,2917.932046939999,None,2917.932046939999,None,2917.932046939999,None,,,,,,,,,,,,,,,,,,,,,,,,,,,,,,,,,,,,,,,,,,,,001,61,2020_Feb_04_1121,spring_faces,3.1.5,60.00608197652422,
condition files/Stage2_1.xlsx,,T1,B1,s,"['s', 'r']","['Stratego', 'Risk']","[-0.15, 0.5]","[0.15, 0.5]",1,1,,,,,,,,,,,,,,,,,0,4,4,4,0,3,3,2,,,,,,,,,,,,,,,,,,,,,,,,,,,,,,,,,,,,,,,,,,,,,,,2919.89843096,None,2919.89843096,None,2919.89843096,None,s,1,0.9105854140016163,2921.433250405,None,2921.433250405,None,2921.433250405,None,2922.401320064,None,2922.401320064,None,2922.401320064,None,2922.401320064,None,,,,,,,,,,,,,,,,,,,,,,,,,,,,,,,,,,,,,,,,,,,,001,61,2020_Feb_04_1121,spring_faces,3.1.5,60.00608197652422,
condition files/Stage2_1.xlsx,,T5,B5,s,"['s', 'r']","['Stratego', 'Risk']","[-0.15, 0.5]","[0.15, 0.5]",1,1,,,,,,,,,,,,,,,,,0,4,4,4,0,4,4,0,,,,,,,,,,,,,,,,,,,,,,,,,,,,,,,,,,,,,,,,,,,,,,,2924.365104916,None,2924.365104916,None,2924.365104916,None,s,1,1.1005587489999016,2925.8993177070006,None,2925.8993177070006,None,2925.8993177070006,None,2927.0653768230004,None,2927.0653768230004,None,2927.0653768230004,None,2927.0653768230004,None,,,,,,,,,,,,,,,,,,,,,,,,,,,,,,,,,,,,,,,,,,,,001,61,2020_Feb_04_1121,spring_faces,3.1.5,60.00608197652422,
