condsFile,subStage,cue1,cue2,correct,responseKeys,responseNames,cue1Position,cue2Position,cue1Opacity,cue2Opacity,stageLoop0.thisRepN,stageLoop0.thisTrialN,stageLoop0.thisN,stageLoop0.thisIndex,blockLoop0.thisRepN,blockLoop0.thisTrialN,blockLoop0.thisN,blockLoop0.thisIndex,stage1Loop.thisRepN,stage1Loop.thisTrialN,stage1Loop.thisN,stage1Loop.thisIndex,blockLoop1.thisRepN,blockLoop1.thisTrialN,blockLoop1.thisN,blockLoop1.thisIndex,stage2Loop.thisRepN,stage2Loop.thisTrialN,stage2Loop.thisN,stage2Loop.thisIndex,blockLoop2.thisRepN,blockLoop2.thisTrialN,blockLoop2.thisN,blockLoop2.thisIndex,testLoop.thisRepN,testLoop.thisTrialN,testLoop.thisN,testLoop.thisIndex,blockLoopTest.thisRepN,blockLoopTest.thisTrialN,blockLoopTest.thisN,blockLoopTest.thisIndex,cuePics,id_instr_text.started,id_instr_text.stopped,space_to_continue_2.started,space_to_continue_2.stopped,end_instructions_resp_3.keys,end_instructions_resp_3.rt,end_instructions_resp_3.started,end_instructions_resp_3.stopped,id_input_instr.started,id_input_instr.stopped,id_input_rect.started,id_input_rect.stopped,id_input_resp.keys,id_input_resp.rt,id_input_resp.started,id_input_resp.stopped,sonaID,id_input_text.started,id_input_text.stopped,final_text.started,final_text.stopped,instructions.started,instructions.stopped,end_instructions_resp.keys,end_instructions_resp.rt,end_instructions_resp.started,end_instructions_resp.stopped,space_to_continue.started,space_to_continue.stopped,instructions_stage0.started,instructions_stage0.stopped,end_instructions_resp_stage0.keys,end_instructions_resp_stage0.rt,end_instructions_resp_stage0.started,end_instructions_resp_stage0.stopped,space_to_continue_stage0.started,space_to_continue_stage0.stopped,text.started,text.stopped,resp_text1.started,resp_text1.stopped,resp_text2.started,resp_text2.stopped,trial_resp.keys,trial_resp.corr,trial_resp.rt,trial_resp.started,trial_resp.stopped,cue1Image.started,cue1Image.stopped,cue2Image.started,cue2Image.stopped,cue1Image_fb.started,cue1Image_fb.stopped,cue2Image_fb.started,cue2Image_fb.stopped,fb_text_answer.started,fb_text_answer.stopped,feedback_image.started,feedback_image.stopped,instructions_stage1.started,instructions_stage1.stopped,end_instructions_resp_stage1.keys,end_instructions_resp_stage1.rt,end_instructions_resp_stage1.started,end_instructions_resp_stage1.stopped,space_to_continue_stage1.started,space_to_continue_stage1.stopped,instructions_2.started,instructions_2.stopped,end_instructions_resp_2.keys,end_instructions_resp_2.rt,end_instructions_resp_2.started,end_instructions_resp_2.stopped,press_space_to_continue_stage2.started,press_space_to_continue_stage2.stopped,instructions_testStage1.started,instructions_testStage1.stopped,end_instructions_resp_test1.keys,end_instructions_resp_test1.rt,end_instructions_resp_test1.started,end_instructions_resp_test1.stopped,press_space_to_continue_test1.started,press_space_to_continue_test1.stopped,cue1Image_testChoice.started,cue1Image_testChoice.stopped,cue2Image_testChoice.started,cue2Image_testChoice.stopped,test_resp.keys,test_resp.corr,test_resp.rt,test_resp.started,test_resp.stopped,cue1Image_testConf.started,cue1Image_testConf.stopped,cue2Image_testConf.started,cue2Image_testConf.stopped,conf_reminder.started,conf_reminder.stopped,conf_rating.response,conf_rating.rt,conf_rating.started,conf_rating.stopped,session,participant,date,expName,psychopyVersion,frameRate,
,,,,,,,,,,,,,,,,,,,,,,,,,,,,,,,,,,,,,,,,,,,"{'none': 'pictures/20M_AN_C.png', 'alpha': 'pictures/SHINEd_apple.png', 'beta': 'pictures/SHINEd_pepper.png', 'theta': 'pictures/SHINEd_melon.png', 'phi': 'pictures/SHINEd_pear.png', 'T1': 'pictures/20M_AN_C.png', 'T2': 'pictures/37M_AN_C.png', 'T3': 'pictures/32M_AN_C.png', 'T4': 'pictures/36M_AN_C.png', 'T5': 'pictures/25M_AN_C.png', 'T6': 'pictures/26M_AN_C.png', 'B1': 'pictures/23M_NE_C.png', 'B2': 'pictures/31M_NE_C.png', 'B3': 'pictures/22M_NE_C.png', 'B4': 'pictures/38M_NE_C.png', 'B5': 'pictures/34M_NE_C.png', 'B6': 'pictures/33M_NE_C.png'}",18.189902423000603,None,23.19009089500105,None,space,670.9878256079992,23.19009089500105,None,,,,,,,,,,,,,,,,,,,,,,,,,,,,,,,,,,,,,,,,,,,,,,,,,,,,,,,,,,,,,,,,,,,,,,,,,,,,,,,,,,,,,,,,,,,,,,,,001,62,2020_Feb_04_1156,spring_faces,3.1.5,59.988604085126795,
,,,,,,,,,,,,,,,,,,,,,,,,,,,,,,,,,,,,,,,,,,,,,,,,,,,,694.5735927320002,None,694.5735927320002,None,"['0', '8', '1', '1', 'm', 'a', 'g', 'a', 'a', '0', '8', '1', '1', 'm', 'a', 'g', 'e', 'm', '0', '8', '1', '1', 'm', 'a', 'g', 'e', 'm']","[52.084262571999716, 52.27636411200001, 59.572319085000345, 59.79641661200003, 71.89240228400013, 72.13233178200062, 83.98832829899948, 84.43631799099967, 84.82032633500057, 112.46826447199965, 113.20432947300105, 134.40432972999952, 134.66037647700068, 144.93230968399985, 145.1403910500012, 153.07637722500112, 153.38031275100002, 153.6682701509999, 164.03632050300075, 164.14831197400053, 165.94027171800008, 166.10028906499974, 169.63632284100095, 171.10836785399988, 180.91630907500075, 181.1243796660001, 181.89240887800042]",694.5735927320002,None,,,,,,,,,,,,,,,,,,,,,,,,,,,,,,,,,,,,,,,,,,,,,,,,,,,,,,,,,,,,,,,,,,,,,,,,,,,,,,,,,,,,,,,,001,62,2020_Feb_04_1156,spring_faces,3.1.5,59.988604085126795,
,,,,,,,,,,,,,,,,,,,,,,,,,,,,,,,,,,,,,,,,,,,,,,,,,,,,,,,,,,,,0811magem,694.5735927320002,None,694.5735927320002,None,881.5399049550015,None,space,1.0459852479998517,886.5399451990015,None,,,,,,,,,,,,,,,,,,,,,,,,,,,,,,,,,,,,,,,,,,,,,,,,,,,,,,,,,,,,,,,,,,,,,,,,,,,,,001,62,2020_Feb_04_1156,spring_faces,3.1.5,59.988604085126795,
,,,,,,,,,,,,,,,,,,,,,,,,,,,,,,,,,,,,,,,,,,,,,,,,,,,,,,,,,,,,,,,,,,,,,,,886.5399451990015,None,887.6230467170008,None,space,9.490752661000442,892.6232427590003,None,,,,,,,,,,,,,,,,,,,,,,,,,,,,,,,,,,,,,,,,,,,,,,,,,,,,,,,,,,,,,,,,,,,,,001,62,2020_Feb_04_1156,spring_faces,3.1.5,59.988604085126795,
condition files/Stage0a.xlsx,0a,beta,none,g,"['h', 'g']","['Chess', 'Go']","[0, 0.5]","[0, 0]",1,0,0,0,0,0,0,0,0,1,,,,,,,,,,,,,,,,,,,,,,,,,,,,,,,,,,,,,,,,,,,,,,,,,,,,,,,,,,,,,892.6232427590003,None,902.1730840150012,None,902.1730840150012,None,902.1730840150012,None,g,1,7.237489197999821,903.756439615001,None,903.756439615001,None,903.756439615001,None,911.0729386820003,None,911.0729386820003,None,911.0729386820003,None,911.0729386820003,None,,,,,,,,,,,,,,,,,,,,,,,,,,,,,,,,,,,,,,,,,,,,001,62,2020_Feb_04_1156,spring_faces,3.1.5,59.988604085126795,
condition files/Stage0a.xlsx,0a,alpha,none,h,"['h', 'g']","['Chess', 'Go']","[0, 0.5]","[0, 0]",1,0,0,0,0,0,0,1,1,0,,,,,,,,,,,,,,,,,,,,,,,,,,,,,,,,,,,,,,,,,,,,,,,,,,,,,,,,,,,,,,,913.0227962870013,None,913.0227962870013,None,913.0227962870013,None,h,1,1.1398159380005382,914.5741677720016,None,914.5741677720016,None,914.5741677720016,None,915.7726553350003,None,915.7726553350003,None,915.7726553350003,None,915.7726553350003,None,,,,,,,,,,,,,,,,,,,,,,,,,,,,,,,,,,,,,,,,,,,,001,62,2020_Feb_04_1156,spring_faces,3.1.5,59.988604085126795,
condition files/Stage0a.xlsx,0a,beta,none,g,"['h', 'g']","['Chess', 'Go']","[0, 0.5]","[0, 0]",1,0,0,1,1,1,0,0,0,1,,,,,,,,,,,,,,,,,,,,,,,,,,,,,,,,,,,,,,,,,,,,,,,,,,,,,,,,,,,,,,,917.7570965720006,None,917.7570965720006,None,917.7570965720006,None,g,1,0.9362184740002704,919.2897027530016,None,919.2897027530016,None,919.2897027530016,None,920.289813282001,None,920.289813282001,None,920.289813282001,None,920.289813282001,None,,,,,,,,,,,,,,,,,,,,,,,,,,,,,,,,,,,,,,,,,,,,001,62,2020_Feb_04_1156,spring_faces,3.1.5,59.988604085126795,
condition files/Stage0a.xlsx,0a,alpha,none,h,"['h', 'g']","['Chess', 'Go']","[0, 0.5]","[0, 0]",1,0,0,1,1,1,0,1,1,0,,,,,,,,,,,,,,,,,,,,,,,,,,,,,,,,,,,,,,,,,,,,,,,,,,,,,,,,,,,,,,,922.2566595260014,None,922.2566595260014,None,922.2566595260014,None,h,1,0.7561663830001635,923.7897667350007,None,923.7897667350007,None,923.7897667350007,None,924.6070525240011,None,924.6070525240011,None,924.6070525240011,None,924.6070525240011,None,,,,,,,,,,,,,,,,,,,,,,,,,,,,,,,,,,,,,,,,,,,,001,62,2020_Feb_04_1156,spring_faces,3.1.5,59.988604085126795,
condition files/Stage0a.xlsx,0a,beta,none,g,"['h', 'g']","['Chess', 'Go']","[0, 0.5]","[0, 0]",1,0,0,2,2,2,0,0,0,1,,,,,,,,,,,,,,,,,,,,,,,,,,,,,,,,,,,,,,,,,,,,,,,,,,,,,,,,,,,,,,,926.5898609210017,None,926.5898609210017,None,926.5898609210017,None,g,1,1.0789557400003105,928.1229366910011,None,928.1229366910011,None,928.1229366910011,None,929.2570416040016,None,929.2570416040016,None,929.2570416040016,None,929.2570416040016,None,,,,,,,,,,,,,,,,,,,,,,,,,,,,,,,,,,,,,,,,,,,,001,62,2020_Feb_04_1156,spring_faces,3.1.5,59.988604085126795,
condition files/Stage0a.xlsx,0a,alpha,none,h,"['h', 'g']","['Chess', 'Go']","[0, 0.5]","[0, 0]",1,0,0,2,2,2,0,1,1,0,,,,,,,,,,,,,,,,,,,,,,,,,,,,,,,,,,,,,,,,,,,,,,,,,,,,,,,,,,,,,,,931.2230383330007,None,931.2230383330007,None,931.2230383330007,None,h,1,0.49364399499972933,932.756316156001,None,932.756316156001,None,932.756316156001,None,933.3061543520016,None,933.3061543520016,None,933.3061543520016,None,933.3061543520016,None,,,,,,,,,,,,,,,,,,,,,,,,,,,,,,,,,,,,,,,,,,,,001,62,2020_Feb_04_1156,spring_faces,3.1.5,59.988604085126795,
condition files/Stage0a.xlsx,0a,beta,none,g,"['h', 'g']","['Chess', 'Go']","[0, 0.5]","[0, 0]",1,0,0,3,3,3,0,0,0,1,,,,,,,,,,,,,,,,,,,,,,,,,,,,,,,,,,,,,,,,,,,,,,,,,,,,,,,,,,,,,,,935.2896063340013,None,935.2896063340013,None,935.2896063340013,None,g,1,0.6351451110003836,936.8227311030005,None,936.8227311030005,None,936.8227311030005,None,937.5231053400003,None,937.5231053400003,None,937.5231053400003,None,937.5231053400003,None,,,,,,,,,,,,,,,,,,,,,,,,,,,,,,,,,,,,,,,,,,,,001,62,2020_Feb_04_1156,spring_faces,3.1.5,59.988604085126795,
condition files/Stage0a.xlsx,0a,alpha,none,h,"['h', 'g']","['Chess', 'Go']","[0, 0.5]","[0, 0]",1,0,0,3,3,3,0,1,1,0,,,,,,,,,,,,,,,,,,,,,,,,,,,,,,,,,,,,,,,,,,,,,,,,,,,,,,,,,,,,,,,939.4896761100008,None,939.4896761100008,None,939.4896761100008,None,g,0,1.7309047599992482,941.0229969970005,None,941.0229969970005,None,941.0229969970005,None,942.8058526780005,None,942.8058526780005,None,942.8058526780005,None,942.8058526780005,None,,,,,,,,,,,,,,,,,,,,,,,,,,,,,,,,,,,,,,,,,,,,001,62,2020_Feb_04_1156,spring_faces,3.1.5,59.988604085126795,
condition files/Stage0a.xlsx,0a,alpha,none,h,"['h', 'g']","['Chess', 'Go']","[0, 0.5]","[0, 0]",1,0,0,4,4,4,0,0,0,0,,,,,,,,,,,,,,,,,,,,,,,,,,,,,,,,,,,,,,,,,,,,,,,,,,,,,,,,,,,,,,,944.7899221450007,None,944.7899221450007,None,944.7899221450007,None,h,1,2.030527249999068,946.3233805730015,None,946.3233805730015,None,946.3233805730015,None,948.4062091560008,None,948.4062091560008,None,948.4062091560008,None,948.4062091560008,None,,,,,,,,,,,,,,,,,,,,,,,,,,,,,,,,,,,,,,,,,,,,001,62,2020_Feb_04_1156,spring_faces,3.1.5,59.988604085126795,
condition files/Stage0a.xlsx,0a,beta,none,g,"['h', 'g']","['Chess', 'Go']","[0, 0.5]","[0, 0]",1,0,0,4,4,4,0,1,1,1,,,,,,,,,,,,,,,,,,,,,,,,,,,,,,,,,,,,,,,,,,,,,,,,,,,,,,,,,,,,,,,950.3730218620003,None,950.3730218620003,None,950.3730218620003,None,g,1,0.44733618299869704,951.9065698100003,None,951.9065698100003,None,951.9065698100003,None,952.4064057380001,None,952.4064057380001,None,952.4064057380001,None,952.4064057380001,None,,,,,,,,,,,,,,,,,,,,,,,,,,,,,,,,,,,,,,,,,,,,001,62,2020_Feb_04_1156,spring_faces,3.1.5,59.988604085126795,
condition files/Stage0a.xlsx,0a,alpha,none,h,"['h', 'g']","['Chess', 'Go']","[0, 0.5]","[0, 0]",1,0,0,5,5,5,0,0,0,0,,,,,,,,,,,,,,,,,,,,,,,,,,,,,,,,,,,,,,,,,,,,,,,,,,,,,,,,,,,,,,,954.3898922750013,None,954.3898922750013,None,954.3898922750013,None,h,1,0.6549888810004632,955.9229574090004,None,955.9229574090004,None,955.9229574090004,None,956.6394119270008,None,956.6394119270008,None,956.6394119270008,None,956.6394119270008,None,,,,,,,,,,,,,,,,,,,,,,,,,,,,,,,,,,,,,,,,,,,,001,62,2020_Feb_04_1156,spring_faces,3.1.5,59.988604085126795,
condition files/Stage0a.xlsx,0a,beta,none,g,"['h', 'g']","['Chess', 'Go']","[0, 0.5]","[0, 0]",1,0,0,5,5,5,0,1,1,1,,,,,,,,,,,,,,,,,,,,,,,,,,,,,,,,,,,,,,,,,,,,,,,,,,,,,,,,,,,,,,,958.606057594001,None,958.606057594001,None,958.606057594001,None,g,1,0.5824191070005327,960.139482474,None,960.139482474,None,960.139482474,None,960.7730559510001,None,960.7730559510001,None,960.7730559510001,None,960.7730559510001,None,,,,,,,,,,,,,,,,,,,,,,,,,,,,,,,,,,,,,,,,,,,,001,62,2020_Feb_04_1156,spring_faces,3.1.5,59.988604085126795,
condition files/Stage0b_1.xlsx,0b,alpha,none,h,"['h', 'g']","['Chess', 'Go']","[-0.15, 0.5]","[0.15, 0.5]",1,0,0,6,6,6,0,0,0,0,,,,,,,,,,,,,,,,,,,,,,,,,,,,,,,,,,,,,,,,,,,,,,,,,,,,,,,,,,,,,,,962.756107483001,None,962.756107483001,None,962.756107483001,None,h,1,0.671998113999507,964.2899384690008,None,964.2899384690008,None,964.2899384690008,None,965.023388986001,None,965.023388986001,None,965.023388986001,None,965.023388986001,None,,,,,,,,,,,,,,,,,,,,,,,,,,,,,,,,,,,,,,,,,,,,001,62,2020_Feb_04_1156,spring_faces,3.1.5,59.988604085126795,
condition files/Stage0b_1.xlsx,0b,none,beta,g,"['h', 'g']","['Chess', 'Go']","[-0.15, 0.5]","[0.15, 0.5]",0,1,0,6,6,6,0,1,1,1,,,,,,,,,,,,,,,,,,,,,,,,,,,,,,,,,,,,,,,,,,,,,,,,,,,,,,,,,,,,,,,966.9894434330017,None,966.9894434330017,None,966.9894434330017,None,g,1,0.7900242439991416,968.5399526560013,None,968.5399526560013,None,968.5399526560013,None,969.3956595960008,None,969.3956595960008,None,969.3956595960008,None,969.3956595960008,None,,,,,,,,,,,,,,,,,,,,,,,,,,,,,,,,,,,,,,,,,,,,001,62,2020_Feb_04_1156,spring_faces,3.1.5,59.988604085126795,
condition files/Stage0b_2.xlsx,0b,none,alpha,h,"['h', 'g']","['Chess', 'Go']","[-0.15, 0.5]","[0.15, 0.5]",0,1,0,7,7,7,0,0,0,0,,,,,,,,,,,,,,,,,,,,,,,,,,,,,,,,,,,,,,,,,,,,,,,,,,,,,,,,,,,,,,,971.3730878480001,None,971.3730878480001,None,971.3730878480001,None,h,1,0.9646129560005647,972.9092875820006,None,972.9092875820006,None,972.9092875820006,None,973.9397374680011,None,973.9397374680011,None,973.9397374680011,None,973.9397374680011,None,,,,,,,,,,,,,,,,,,,,,,,,,,,,,,,,,,,,,,,,,,,,001,62,2020_Feb_04_1156,spring_faces,3.1.5,59.988604085126795,
condition files/Stage0b_2.xlsx,0b,beta,none,g,"['h', 'g']","['Chess', 'Go']","[-0.15, 0.5]","[0.15, 0.5]",1,0,0,7,7,7,0,1,1,1,,,,,,,,,,,,,,,,,,,,,,,,,,,,,,,,,,,,,,,,,,,,,,,,,,,,,,,,,,,,,,,975.906455710001,None,975.906455710001,None,975.906455710001,None,g,1,0.6571209209996596,977.4568648800014,None,977.4568648800014,None,977.4568648800014,None,978.1795324490013,None,978.1795324490013,None,978.1795324490013,None,978.1795324490013,None,,,,,,,,,,,,,,,,,,,,,,,,,,,,,,,,,,,,,,,,,,,,001,62,2020_Feb_04_1156,spring_faces,3.1.5,59.988604085126795,
condition files/Stage0b_1.xlsx,0b,none,beta,g,"['h', 'g']","['Chess', 'Go']","[-0.15, 0.5]","[0.15, 0.5]",0,1,0,8,8,8,0,0,0,1,,,,,,,,,,,,,,,,,,,,,,,,,,,,,,,,,,,,,,,,,,,,,,,,,,,,,,,,,,,,,,,980.1565777190008,None,980.1565777190008,None,980.1565777190008,None,g,1,1.0135049100008473,981.6924270650015,None,981.6924270650015,None,981.6924270650015,None,982.7561930680004,None,982.7561930680004,None,982.7561930680004,None,982.7561930680004,None,,,,,,,,,,,,,,,,,,,,,,,,,,,,,,,,,,,,,,,,,,,,001,62,2020_Feb_04_1156,spring_faces,3.1.5,59.988604085126795,
condition files/Stage0b_1.xlsx,0b,alpha,none,h,"['h', 'g']","['Chess', 'Go']","[-0.15, 0.5]","[0.15, 0.5]",1,0,0,8,8,8,0,1,1,0,,,,,,,,,,,,,,,,,,,,,,,,,,,,,,,,,,,,,,,,,,,,,,,,,,,,,,,,,,,,,,,984.7230788230008,None,984.7230788230008,None,984.7230788230008,None,h,1,1.4088476540000556,986.2571403860002,None,986.2571403860002,None,986.2571403860002,None,987.7238062790002,None,987.7238062790002,None,987.7238062790002,None,987.7238062790002,None,,,,,,,,,,,,,,,,,,,,,,,,,,,,,,,,,,,,,,,,,,,,001,62,2020_Feb_04_1156,spring_faces,3.1.5,59.988604085126795,
condition files/Stage0b_2.xlsx,0b,beta,none,g,"['h', 'g']","['Chess', 'Go']","[-0.15, 0.5]","[0.15, 0.5]",1,0,0,9,9,9,0,0,0,1,,,,,,,,,,,,,,,,,,,,,,,,,,,,,,,,,,,,,,,,,,,,,,,,,,,,,,,,,,,,,,,989.705855436001,None,989.705855436001,None,989.705855436001,None,g,1,0.5225962989989057,991.2393242400012,None,991.2393242400012,None,991.2393242400012,None,991.8232232800001,None,991.8232232800001,None,991.8232232800001,None,991.8232232800001,None,,,,,,,,,,,,,,,,,,,,,,,,,,,,,,,,,,,,,,,,,,,,001,62,2020_Feb_04_1156,spring_faces,3.1.5,59.988604085126795,
condition files/Stage0b_2.xlsx,0b,none,alpha,h,"['h', 'g']","['Chess', 'Go']","[-0.15, 0.5]","[0.15, 0.5]",0,1,0,9,9,9,0,1,1,0,,,,,,,,,,,,,,,,,,,,,,,,,,,,,,,,,,,,,,,,,,,,,,,,,,,,,,,,,,,,,,,993.7897346510017,None,993.7897346510017,None,993.7897346510017,None,h,1,0.6740354829998978,995.3278677650014,None,995.3278677650014,None,995.3278677650014,None,996.0602374990012,None,996.0602374990012,None,996.0602374990012,None,996.0602374990012,None,,,,,,,,,,,,,,,,,,,,,,,,,,,,,,,,,,,,,,,,,,,,001,62,2020_Feb_04_1156,spring_faces,3.1.5,59.988604085126795,
condition files/Stage0b_1.xlsx,0b,alpha,none,h,"['h', 'g']","['Chess', 'Go']","[-0.15, 0.5]","[0.15, 0.5]",1,0,0,10,10,10,0,0,0,0,,,,,,,,,,,,,,,,,,,,,,,,,,,,,,,,,,,,,,,,,,,,,,,,,,,,,,,,,,,,,,,998.0395305850016,None,998.0395305850016,None,998.0395305850016,None,g,0,0.36133756500021263,999.5765933040002,None,999.5765933040002,None,999.5765933040002,None,999.9895545340005,None,999.9895545340005,None,999.9895545340005,None,999.9895545340005,None,,,,,,,,,,,,,,,,,,,,,,,,,,,,,,,,,,,,,,,,,,,,001,62,2020_Feb_04_1156,spring_faces,3.1.5,59.988604085126795,
condition files/Stage0b_1.xlsx,0b,none,beta,g,"['h', 'g']","['Chess', 'Go']","[-0.15, 0.5]","[0.15, 0.5]",0,1,0,10,10,10,0,1,1,1,,,,,,,,,,,,,,,,,,,,,,,,,,,,,,,,,,,,,,,,,,,,,,,,,,,,,,,,,,,,,,,1001.9563845480006,None,1001.9563845480006,None,1001.9563845480006,None,g,1,0.7998983990000852,1003.4900159300014,None,1003.4900159300014,None,1003.4900159300014,None,1004.3413187640017,None,1004.3413187640017,None,1004.3413187640017,None,1004.3413187640017,None,,,,,,,,,,,,,,,,,,,,,,,,,,,,,,,,,,,,,,,,,,,,001,62,2020_Feb_04_1156,spring_faces,3.1.5,59.988604085126795,
condition files/Stage0b_2.xlsx,0b,none,alpha,h,"['h', 'g']","['Chess', 'Go']","[-0.15, 0.5]","[0.15, 0.5]",0,1,0,11,11,11,0,0,0,0,,,,,,,,,,,,,,,,,,,,,,,,,,,,,,,,,,,,,,,,,,,,,,,,,,,,,,,,,,,,,,,1006.3232635110016,None,1006.3232635110016,None,1006.3232635110016,None,h,1,0.7693163820003974,1007.8566051870002,None,1007.8566051870002,None,1007.8566051870002,None,1008.690011318,None,1008.690011318,None,1008.690011318,None,1008.690011318,None,,,,,,,,,,,,,,,,,,,,,,,,,,,,,,,,,,,,,,,,,,,,001,62,2020_Feb_04_1156,spring_faces,3.1.5,59.988604085126795,
condition files/Stage0b_2.xlsx,0b,beta,none,g,"['h', 'g']","['Chess', 'Go']","[-0.15, 0.5]","[0.15, 0.5]",1,0,0,11,11,11,0,1,1,1,,,,,,,,,,,,,,,,,,,,,,,,,,,,,,,,,,,,,,,,,,,,,,,,,,,,,,,,,,,,,,,1010.6563915250008,None,1010.6563915250008,None,1010.6563915250008,None,g,1,0.672416098001122,1012.1935813330001,None,1012.1935813330001,None,1012.1935813330001,None,1012.9260885850017,None,1012.9260885850017,None,1012.9260885850017,None,1012.9260885850017,None,,,,,,,,,,,,,,,,,,,,,,,,,,,,,,,,,,,,,,,,,,,,001,62,2020_Feb_04_1156,spring_faces,3.1.5,59.988604085126795,
condition files/Stage0c_1.xlsx,0c,beta,theta,g,"['h', 'g']","['Chess', 'Go']","[-0.15, 0.5]","[0.15, 0.5]",1,1,0,12,12,12,0,0,0,2,,,,,,,,,,,,,,,,,,,,,,,,,,,,,,,,,,,,,,,,,,,,,,,,,,,,,,,,,,,,,,,1014.9063571220013,None,1014.9063571220013,None,1014.9063571220013,None,g,1,1.834090541000478,1016.4398050380005,None,1016.4398050380005,None,1016.4398050380005,None,1018.3272266380009,None,1018.3272266380009,None,1018.3272266380009,None,1018.3272266380009,None,,,,,,,,,,,,,,,,,,,,,,,,,,,,,,,,,,,,,,,,,,,,001,62,2020_Feb_04_1156,spring_faces,3.1.5,59.988604085126795,
condition files/Stage0c_1.xlsx,0c,alpha,phi,h,"['h', 'g']","['Chess', 'Go']","[-0.15, 0.5]","[0.15, 0.5]",1,1,0,12,12,12,0,1,1,1,,,,,,,,,,,,,,,,,,,,,,,,,,,,,,,,,,,,,,,,,,,,,,,,,,,,,,,,,,,,,,,1020.3063847440008,None,1020.3063847440008,None,1020.3063847440008,None,h,1,1.3301376929994149,1021.839724585001,None,1021.839724585001,None,1021.839724585001,None,1023.2231053280011,None,1023.2231053280011,None,1023.2231053280011,None,1023.2231053280011,None,,,,,,,,,,,,,,,,,,,,,,,,,,,,,,,,,,,,,,,,,,,,001,62,2020_Feb_04_1156,spring_faces,3.1.5,59.988604085126795,
condition files/Stage0c_1.xlsx,0c,theta,alpha,h,"['h', 'g']","['Chess', 'Go']","[-0.15, 0.5]","[0.15, 0.5]",1,1,0,12,12,12,0,2,2,0,,,,,,,,,,,,,,,,,,,,,,,,,,,,,,,,,,,,,,,,,,,,,,,,,,,,,,,,,,,,,,,1025.1897056870002,None,1025.1897056870002,None,1025.1897056870002,None,g,0,0.7028833719996328,1026.723027954,None,1026.723027954,None,1026.723027954,None,1027.4897235050012,None,1027.4897235050012,None,1027.4897235050012,None,1027.4897235050012,None,,,,,,,,,,,,,,,,,,,,,,,,,,,,,,,,,,,,,,,,,,,,001,62,2020_Feb_04_1156,spring_faces,3.1.5,59.988604085126795,
condition files/Stage0c_1.xlsx,0c,phi,beta,g,"['h', 'g']","['Chess', 'Go']","[-0.15, 0.5]","[0.15, 0.5]",1,1,0,12,12,12,0,3,3,3,,,,,,,,,,,,,,,,,,,,,,,,,,,,,,,,,,,,,,,,,,,,,,,,,,,,,,,,,,,,,,,1029.4565303110012,None,1029.4565303110012,None,1029.4565303110012,None,g,1,0.8518004340003245,1030.9901115480006,None,1030.9901115480006,None,1030.9901115480006,None,1031.905929120001,None,1031.905929120001,None,1031.905929120001,None,1031.905929120001,None,,,,,,,,,,,,,,,,,,,,,,,,,,,,,,,,,,,,,,,,,,,,001,62,2020_Feb_04_1156,spring_faces,3.1.5,59.988604085126795,
condition files/Stage0c_2.xlsx,0c,beta,phi,g,"['h', 'g']","['Chess', 'Go']","[-0.15, 0.5]","[0.15, 0.5]",1,1,0,13,13,13,0,0,0,3,,,,,,,,,,,,,,,,,,,,,,,,,,,,,,,,,,,,,,,,,,,,,,,,,,,,,,,,,,,,,,,1033.8900034950002,None,1033.8900034950002,None,1033.8900034950002,None,g,1,1.2345932990010624,1035.4233283580015,None,1035.4233283580015,None,1035.4233283580015,None,1036.7077797930015,None,1036.7077797930015,None,1036.7077797930015,None,1036.7077797930015,None,,,,,,,,,,,,,,,,,,,,,,,,,,,,,,,,,,,,,,,,,,,,001,62,2020_Feb_04_1156,spring_faces,3.1.5,59.988604085126795,
condition files/Stage0c_2.xlsx,0c,theta,beta,g,"['h', 'g']","['Chess', 'Go']","[-0.15, 0.5]","[0.15, 0.5]",1,1,0,13,13,13,0,1,1,2,,,,,,,,,,,,,,,,,,,,,,,,,,,,,,,,,,,,,,,,,,,,,,,,,,,,,,,,,,,,,,,1038.6896139520013,None,1038.6896139520013,None,1038.6896139520013,None,g,1,1.0108941990001767,1040.223091969001,None,1040.223091969001,None,1040.223091969001,None,1041.2744337870008,None,1041.2744337870008,None,1041.2744337870008,None,1041.2744337870008,None,,,,,,,,,,,,,,,,,,,,,,,,,,,,,,,,,,,,,,,,,,,,001,62,2020_Feb_04_1156,spring_faces,3.1.5,59.988604085126795,
condition files/Stage0c_2.xlsx,0c,alpha,theta,h,"['h', 'g']","['Chess', 'Go']","[-0.15, 0.5]","[0.15, 0.5]",1,1,0,13,13,13,0,2,2,0,,,,,,,,,,,,,,,,,,,,,,,,,,,,,,,,,,,,,,,,,,,,,,,,,,,,,,,,,,,,,,,1043.2564894720017,None,1043.2564894720017,None,1043.2564894720017,None,h,1,0.8117993750001915,1044.790111280001,None,1044.790111280001,None,1044.790111280001,None,1045.6569363490016,None,1045.6569363490016,None,1045.6569363490016,None,1045.6569363490016,None,,,,,,,,,,,,,,,,,,,,,,,,,,,,,,,,,,,,,,,,,,,,001,62,2020_Feb_04_1156,spring_faces,3.1.5,59.988604085126795,
condition files/Stage0c_2.xlsx,0c,phi,alpha,h,"['h', 'g']","['Chess', 'Go']","[-0.15, 0.5]","[0.15, 0.5]",1,1,0,13,13,13,0,3,3,1,,,,,,,,,,,,,,,,,,,,,,,,,,,,,,,,,,,,,,,,,,,,,,,,,,,,,,,,,,,,,,,1047.6232162980014,None,1047.6232162980014,None,1047.6232162980014,None,h,1,1.1652240319999692,1049.1566625550004,None,1049.1566625550004,None,1049.1566625550004,None,1050.3572851090012,None,1050.3572851090012,None,1050.3572851090012,None,1050.3572851090012,None,,,,,,,,,,,,,,,,,,,,,,,,,,,,,,,,,,,,,,,,,,,,001,62,2020_Feb_04_1156,spring_faces,3.1.5,59.988604085126795,
condition files/Stage0c_1.xlsx,0c,phi,beta,g,"['h', 'g']","['Chess', 'Go']","[-0.15, 0.5]","[0.15, 0.5]",1,1,0,14,14,14,0,0,0,3,,,,,,,,,,,,,,,,,,,,,,,,,,,,,,,,,,,,,,,,,,,,,,,,,,,,,,,,,,,,,,,1052.3568148970007,None,1052.3568148970007,None,1052.3568148970007,None,g,1,1.2801568639988545,1053.8898701070011,None,1053.8898701070011,None,1053.8898701070011,None,1055.2231770990002,None,1055.2231770990002,None,1055.2231770990002,None,1055.2231770990002,None,,,,,,,,,,,,,,,,,,,,,,,,,,,,,,,,,,,,,,,,,,,,001,62,2020_Feb_04_1156,spring_faces,3.1.5,59.988604085126795,
condition files/Stage0c_1.xlsx,0c,beta,theta,g,"['h', 'g']","['Chess', 'Go']","[-0.15, 0.5]","[0.15, 0.5]",1,1,0,14,14,14,0,1,1,2,,,,,,,,,,,,,,,,,,,,,,,,,,,,,,,,,,,,,,,,,,,,,,,,,,,,,,,,,,,,,,,1057.1898103410003,None,1057.1898103410003,None,1057.1898103410003,None,g,1,1.1505309299991495,1058.7233454860016,None,1058.7233454860016,None,1058.7233454860016,None,1059.922873945001,None,1059.922873945001,None,1059.922873945001,None,1059.922873945001,None,,,,,,,,,,,,,,,,,,,,,,,,,,,,,,,,,,,,,,,,,,,,001,62,2020_Feb_04_1156,spring_faces,3.1.5,59.988604085126795,
condition files/Stage0c_1.xlsx,0c,alpha,phi,h,"['h', 'g']","['Chess', 'Go']","[-0.15, 0.5]","[0.15, 0.5]",1,1,0,14,14,14,0,2,2,1,,,,,,,,,,,,,,,,,,,,,,,,,,,,,,,,,,,,,,,,,,,,,,,,,,,,,,,,,,,,,,,1061.906407075001,None,1061.906407075001,None,1061.906407075001,None,h,1,0.8498999800012825,1063.4400032840003,None,1063.4400032840003,None,1063.4400032840003,None,1064.3399499750012,None,1064.3399499750012,None,1064.3399499750012,None,1064.3399499750012,None,,,,,,,,,,,,,,,,,,,,,,,,,,,,,,,,,,,,,,,,,,,,001,62,2020_Feb_04_1156,spring_faces,3.1.5,59.988604085126795,
condition files/Stage0c_1.xlsx,0c,theta,alpha,h,"['h', 'g']","['Chess', 'Go']","[-0.15, 0.5]","[0.15, 0.5]",1,1,0,14,14,14,0,3,3,0,,,,,,,,,,,,,,,,,,,,,,,,,,,,,,,,,,,,,,,,,,,,,,,,,,,,,,,,,,,,,,,1066.3068042860014,None,1066.3068042860014,None,1066.3068042860014,None,h,1,2.129874434998783,1067.840212649,None,1067.840212649,None,1067.840212649,None,1070.0076717380016,None,1070.0076717380016,None,1070.0076717380016,None,1070.0076717380016,None,,,,,,,,,,,,,,,,,,,,,,,,,,,,,,,,,,,,,,,,,,,,001,62,2020_Feb_04_1156,spring_faces,3.1.5,59.988604085126795,
condition files/Stage0c_2.xlsx,0c,phi,alpha,h,"['h', 'g']","['Chess', 'Go']","[-0.15, 0.5]","[0.15, 0.5]",1,1,0,15,15,15,0,0,0,1,,,,,,,,,,,,,,,,,,,,,,,,,,,,,,,,,,,,,,,,,,,,,,,,,,,,,,,,,,,,,,,1072.0065834010002,None,1072.0065834010002,None,1072.0065834010002,None,h,1,1.1978625089996058,1073.5400533810007,None,1073.5400533810007,None,1073.5400533810007,None,1074.7754317690014,None,1074.7754317690014,None,1074.7754317690014,None,1074.7754317690014,None,,,,,,,,,,,,,,,,,,,,,,,,,,,,,,,,,,,,,,,,,,,,001,62,2020_Feb_04_1156,spring_faces,3.1.5,59.988604085126795,
condition files/Stage0c_2.xlsx,0c,alpha,theta,h,"['h', 'g']","['Chess', 'Go']","[-0.15, 0.5]","[0.15, 0.5]",1,1,0,15,15,15,0,1,1,0,,,,,,,,,,,,,,,,,,,,,,,,,,,,,,,,,,,,,,,,,,,,,,,,,,,,,,,,,,,,,,,1076.756236000001,None,1076.756236000001,None,1076.756236000001,None,h,1,1.2000681520003127,1078.289839000001,None,1078.289839000001,None,1078.289839000001,None,1079.5246375060015,None,1079.5246375060015,None,1079.5246375060015,None,1079.5246375060015,None,,,,,,,,,,,,,,,,,,,,,,,,,,,,,,,,,,,,,,,,,,,,001,62,2020_Feb_04_1156,spring_faces,3.1.5,59.988604085126795,
condition files/Stage0c_2.xlsx,0c,beta,phi,g,"['h', 'g']","['Chess', 'Go']","[-0.15, 0.5]","[0.15, 0.5]",1,1,0,15,15,15,0,2,2,3,,,,,,,,,,,,,,,,,,,,,,,,,,,,,,,,,,,,,,,,,,,,,,,,,,,,,,,,,,,,,,,1081.5063989210012,None,1081.5063989210012,None,1081.5063989210012,None,g,1,1.2824271410008805,1083.0394840280005,None,1083.0394840280005,None,1083.0394840280005,None,1084.3732445260011,None,1084.3732445260011,None,1084.3732445260011,None,1084.3732445260011,None,,,,,,,,,,,,,,,,,,,,,,,,,,,,,,,,,,,,,,,,,,,,001,62,2020_Feb_04_1156,spring_faces,3.1.5,59.988604085126795,
condition files/Stage0c_2.xlsx,0c,theta,beta,g,"['h', 'g']","['Chess', 'Go']","[-0.15, 0.5]","[0.15, 0.5]",1,1,0,15,15,15,0,3,3,2,,,,,,,,,,,,,,,,,,,,,,,,,,,,,,,,,,,,,,,,,,,,,,,,,,,,,,,,,,,,,,,1086.339871092001,None,1086.339871092001,None,1086.339871092001,None,g,1,1.1528504870002507,1087.8730775310014,None,1087.8730775310014,None,1087.8730775310014,None,1089.0900311780006,None,1089.0900311780006,None,1089.0900311780006,None,1089.0900311780006,None,,,,,,,,,,,,,,,,,,,,,,,,,,,,,,,,,,,,,,,,,,,,001,62,2020_Feb_04_1156,spring_faces,3.1.5,59.988604085126795,
condition files/Stage0c_1.xlsx,0c,beta,theta,g,"['h', 'g']","['Chess', 'Go']","[-0.15, 0.5]","[0.15, 0.5]",1,1,0,16,16,16,0,0,0,2,,,,,,,,,,,,,,,,,,,,,,,,,,,,,,,,,,,,,,,,,,,,,,,,,,,,,,,,,,,,,,,1091.0729540660013,None,1091.0729540660013,None,1091.0729540660013,None,g,1,2.435997338001471,1092.5899198610005,None,1092.5899198610005,None,1092.5899198610005,None,1095.0744661860008,None,1095.0744661860008,None,1095.0744661860008,None,1095.0744661860008,None,,,,,,,,,,,,,,,,,,,,,,,,,,,,,,,,,,,,,,,,,,,,001,62,2020_Feb_04_1156,spring_faces,3.1.5,59.988604085126795,
condition files/Stage0c_1.xlsx,0c,theta,alpha,h,"['h', 'g']","['Chess', 'Go']","[-0.15, 0.5]","[0.15, 0.5]",1,1,0,16,16,16,0,1,1,0,,,,,,,,,,,,,,,,,,,,,,,,,,,,,,,,,,,,,,,,,,,,,,,,,,,,,,,,,,,,,,,1097.0564787160001,None,1097.0564787160001,None,1097.0564787160001,None,h,1,1.0759772900000826,1098.5900279450016,None,1098.5900279450016,None,1098.5900279450016,None,1099.7225452070015,None,1099.7225452070015,None,1099.7225452070015,None,1099.7225452070015,None,,,,,,,,,,,,,,,,,,,,,,,,,,,,,,,,,,,,,,,,,,,,001,62,2020_Feb_04_1156,spring_faces,3.1.5,59.988604085126795,
condition files/Stage0c_1.xlsx,0c,alpha,phi,h,"['h', 'g']","['Chess', 'Go']","[-0.15, 0.5]","[0.15, 0.5]",1,1,0,16,16,16,0,2,2,1,,,,,,,,,,,,,,,,,,,,,,,,,,,,,,,,,,,,,,,,,,,,,,,,,,,,,,,,,,,,,,,1101.689762168,None,1101.689762168,None,1101.689762168,None,h,1,0.874526034000155,1103.2234548900014,None,1103.2234548900014,None,1103.2234548900014,None,1104.156656354,None,1104.156656354,None,1104.156656354,None,1104.156656354,None,,,,,,,,,,,,,,,,,,,,,,,,,,,,,,,,,,,,,,,,,,,,001,62,2020_Feb_04_1156,spring_faces,3.1.5,59.988604085126795,
condition files/Stage0c_1.xlsx,0c,phi,beta,g,"['h', 'g']","['Chess', 'Go']","[-0.15, 0.5]","[0.15, 0.5]",1,1,0,16,16,16,0,3,3,3,,,,,,,,,,,,,,,,,,,,,,,,,,,,,,,,,,,,,,,,,,,,,,,,,,,,,,,,,,,,,,,1106.123098596001,None,1106.123098596001,None,1106.123098596001,None,g,1,5.049849852000989,1107.656062295,None,1107.656062295,None,1107.656062295,None,1112.7566151890005,None,1112.7566151890005,None,1112.7566151890005,None,1112.7566151890005,None,,,,,,,,,,,,,,,,,,,,,,,,,,,,,,,,,,,,,,,,,,,,001,62,2020_Feb_04_1156,spring_faces,3.1.5,59.988604085126795,
condition files/Stage0c_2.xlsx,0c,phi,alpha,h,"['h', 'g']","['Chess', 'Go']","[-0.15, 0.5]","[0.15, 0.5]",1,1,0,17,17,17,0,0,0,1,,,,,,,,,,,,,,,,,,,,,,,,,,,,,,,,,,,,,,,,,,,,,,,,,,,,,,,,,,,,,,,1114.7396503990003,None,1114.7396503990003,None,1114.7396503990003,None,h,1,0.7686562649996631,1116.2732652230006,None,1116.2732652230006,None,1116.2732652230006,None,1117.1063679210001,None,1117.1063679210001,None,1117.1063679210001,None,1117.1063679210001,None,,,,,,,,,,,,,,,,,,,,,,,,,,,,,,,,,,,,,,,,,,,,001,62,2020_Feb_04_1156,spring_faces,3.1.5,59.988604085126795,
condition files/Stage0c_2.xlsx,0c,theta,beta,g,"['h', 'g']","['Chess', 'Go']","[-0.15, 0.5]","[0.15, 0.5]",1,1,0,17,17,17,0,1,1,2,,,,,,,,,,,,,,,,,,,,,,,,,,,,,,,,,,,,,,,,,,,,,,,,,,,,,,,,,,,,,,,1119.0730569490006,None,1119.0730569490006,None,1119.0730569490006,None,g,1,2.4356343990002642,1120.606283430001,None,1120.606283430001,None,1120.606283430001,None,1123.1064491240013,None,1123.1064491240013,None,1123.1064491240013,None,1123.1064491240013,None,,,,,,,,,,,,,,,,,,,,,,,,,,,,,,,,,,,,,,,,,,,,001,62,2020_Feb_04_1156,spring_faces,3.1.5,59.988604085126795,
condition files/Stage0c_2.xlsx,0c,alpha,theta,h,"['h', 'g']","['Chess', 'Go']","[-0.15, 0.5]","[0.15, 0.5]",1,1,0,17,17,17,0,2,2,0,,,,,,,,,,,,,,,,,,,,,,,,,,,,,,,,,,,,,,,,,,,,,,,,,,,,,,,,,,,,,,,1125.073074983,None,1125.073074983,None,1125.073074983,None,h,1,0.7711842650005565,1126.6067478230016,None,1126.6067478230016,None,1126.6067478230016,None,1127.4398309360004,None,1127.4398309360004,None,1127.4398309360004,None,1127.4398309360004,None,,,,,,,,,,,,,,,,,,,,,,,,,,,,,,,,,,,,,,,,,,,,001,62,2020_Feb_04_1156,spring_faces,3.1.5,59.988604085126795,
condition files/Stage0c_2.xlsx,0c,beta,phi,g,"['h', 'g']","['Chess', 'Go']","[-0.15, 0.5]","[0.15, 0.5]",1,1,0,17,17,17,0,3,3,3,,,,,,,,,,,,,,,,,,,,,,,,,,,,,,,,,,,,,,,,,,,,,,,,,,,,,,,,,,,,,,,1129.4063766070012,None,1129.4063766070012,None,1129.4063766070012,None,g,1,0.8058782819989574,1130.9400521410007,None,1130.9400521410007,None,1130.9400521410007,None,1131.8063709180005,None,1131.8063709180005,None,1131.8063709180005,None,1131.8063709180005,None,,,,,,,,,,,,,,,,,,,,,,,,,,,,,,,,,,,,,,,,,,,,001,62,2020_Feb_04_1156,spring_faces,3.1.5,59.988604085126795,
,,,,,,,,,,,,,,,,,,,,,,,,,,,,,,,,,,,,,,,,,,,,,,,,,,,,,,,,,,,,,,,,,,,,,,,,,,,,,,,,,,,,,,,,,,,,,,,,,,,,,,,,1133.7901307230004,None,space,12.316150417000244,1138.7897986440003,None,,,,,,,,,,,,,,,,,,,,,,,,,,,,,,,,,,,,,,001,62,2020_Feb_04_1156,spring_faces,3.1.5,59.988604085126795,
condition files/Stage1_1.xlsx,,B4,T4,m,"['c', 'm']","['Clue', 'Monopoly']","[-0.15, 0.5]","[0.15, 0.5]",1,1,,,,,,,,,0,0,0,0,0,0,0,7,,,,,,,,,,,,,,,,,,,,,,,,,,,,,,,,,,,,,,,,,,,,,,,,,,,,,,,1151.1559505600017,None,1151.1559505600017,None,1151.1559505600017,None,c,0,3.5039726350005367,1152.6899592110003,None,1152.6899592110003,None,1152.6899592110003,None,1156.2901507940005,None,1156.2901507940005,None,1156.2901507940005,None,1156.2901507940005,None,,,,,,,1138.7897986440003,None,,,,,,,,,,,,,,,,,,,,,,,,,,,,,,,,,,,,001,62,2020_Feb_04_1156,spring_faces,3.1.5,59.988604085126795,
condition files/Stage1_1.xlsx,,B3,T3,c,"['c', 'm']","['Clue', 'Monopoly']","[-0.15, 0.5]","[0.15, 0.5]",1,1,,,,,,,,,0,0,0,0,0,1,1,4,,,,,,,,,,,,,,,,,,,,,,,,,,,,,,,,,,,,,,,,,,,,,,,,,,,,,,,1158.222993759,None,1158.222993759,None,1158.222993759,None,c,1,0.9320263030003844,1159.7579056070008,None,1159.7579056070008,None,1159.7579056070008,None,1160.756765348,None,1160.756765348,None,1160.756765348,None,1160.756765348,None,,,,,,,,,,,,,,,,,,,,,,,,,,,,,,,,,,,,,,,,,,,,001,62,2020_Feb_04_1156,spring_faces,3.1.5,59.988604085126795,
condition files/Stage1_1.xlsx,,B1,T2,c,"['c', 'm']","['Clue', 'Monopoly']","[-0.15, 0.5]","[0.15, 0.5]",1,1,,,,,,,,,0,0,0,0,0,2,2,1,,,,,,,,,,,,,,,,,,,,,,,,,,,,,,,,,,,,,,,,,,,,,,,,,,,,,,,1162.7058779220006,None,1162.7058779220006,None,1162.7058779220006,None,m,0,1.0731454769993434,1164.2568225900013,None,1164.2568225900013,None,1164.2568225900013,None,1165.3892864510017,None,1165.3892864510017,None,1165.3892864510017,None,1165.3892864510017,None,,,,,,,,,,,,,,,,,,,,,,,,,,,,,,,,,,,,,,,,,,,,001,62,2020_Feb_04_1156,spring_faces,3.1.5,59.988604085126795,
condition files/Stage1_1.xlsx,,T4,B3,m,"['c', 'm']","['Clue', 'Monopoly']","[-0.15, 0.5]","[0.15, 0.5]",1,1,,,,,,,,,0,0,0,0,0,3,3,6,,,,,,,,,,,,,,,,,,,,,,,,,,,,,,,,,,,,,,,,,,,,,,,,,,,,,,,1167.3564151220016,None,1167.3564151220016,None,1167.3564151220016,None,m,1,1.1436459879987524,1168.890347718001,None,1168.890347718001,None,1168.890347718001,None,1170.0897589680008,None,1170.0897589680008,None,1170.0897589680008,None,1170.0897589680008,None,,,,,,,,,,,,,,,,,,,,,,,,,,,,,,,,,,,,,,,,,,,,001,62,2020_Feb_04_1156,spring_faces,3.1.5,59.988604085126795,
condition files/Stage1_1.xlsx,,T2,B2,m,"['c', 'm']","['Clue', 'Monopoly']","[-0.15, 0.5]","[0.15, 0.5]",1,1,,,,,,,,,0,0,0,0,0,4,4,3,,,,,,,,,,,,,,,,,,,,,,,,,,,,,,,,,,,,,,,,,,,,,,,,,,,,,,,1172.0563364570007,None,1172.0563364570007,None,1172.0563364570007,None,c,0,0.7939367759991001,1173.5919920600008,None,1173.5919920600008,None,1173.5919920600008,None,1174.4399559130015,None,1174.4399559130015,None,1174.4399559130015,None,1174.4399559130015,None,,,,,,,,,,,,,,,,,,,,,,,,,,,,,,,,,,,,,,,,,,,,001,62,2020_Feb_04_1156,spring_faces,3.1.5,59.988604085126795,
condition files/Stage1_1.xlsx,,T3,B4,c,"['c', 'm']","['Clue', 'Monopoly']","[-0.15, 0.5]","[0.15, 0.5]",1,1,,,,,,,,,0,0,0,0,0,5,5,5,,,,,,,,,,,,,,,,,,,,,,,,,,,,,,,,,,,,,,,,,,,,,,,,,,,,,,,1176.4060927110004,None,1176.4060927110004,None,1176.4060927110004,None,m,0,3.245132411000668,1177.9567556900001,None,1177.9567556900001,None,1177.9567556900001,None,1181.2726720600003,None,1181.2726720600003,None,1181.2726720600003,None,1181.2726720600003,None,,,,,,,,,,,,,,,,,,,,,,,,,,,,,,,,,,,,,,,,,,,,001,62,2020_Feb_04_1156,spring_faces,3.1.5,59.988604085126795,
condition files/Stage1_1.xlsx,,B2,T1,m,"['c', 'm']","['Clue', 'Monopoly']","[-0.15, 0.5]","[0.15, 0.5]",1,1,,,,,,,,,0,0,0,0,0,6,6,2,,,,,,,,,,,,,,,,,,,,,,,,,,,,,,,,,,,,,,,,,,,,,,,,,,,,,,,1183.223154282001,None,1183.223154282001,None,1183.223154282001,None,m,1,1.4517253350004466,1184.7582020050013,None,1184.7582020050013,None,1184.7582020050013,None,1186.2743063400012,None,1186.2743063400012,None,1186.2743063400012,None,1186.2743063400012,None,,,,,,,,,,,,,,,,,,,,,,,,,,,,,,,,,,,,,,,,,,,,001,62,2020_Feb_04_1156,spring_faces,3.1.5,59.988604085126795,
condition files/Stage1_1.xlsx,,T1,B1,c,"['c', 'm']","['Clue', 'Monopoly']","[-0.15, 0.5]","[0.15, 0.5]",1,1,,,,,,,,,0,0,0,0,0,7,7,0,,,,,,,,,,,,,,,,,,,,,,,,,,,,,,,,,,,,,,,,,,,,,,,,,,,,,,,1188.2402010920014,None,1188.2402010920014,None,1188.2402010920014,None,c,1,2.163993338999717,1189.7739351970013,None,1189.7739351970013,None,1189.7739351970013,None,1191.990342340001,None,1191.990342340001,None,1191.990342340001,None,1191.990342340001,None,,,,,,,,,,,,,,,,,,,,,,,,,,,,,,,,,,,,,,,,,,,,001,62,2020_Feb_04_1156,spring_faces,3.1.5,59.988604085126795,
condition files/Stage1_2.xlsx,,T1,B2,m,"['c', 'm']","['Clue', 'Monopoly']","[-0.15, 0.5]","[0.15, 0.5]",1,1,,,,,,,,,0,1,1,1,0,0,0,2,,,,,,,,,,,,,,,,,,,,,,,,,,,,,,,,,,,,,,,,,,,,,,,,,,,,,,,1193.9728728230002,None,1193.9728728230002,None,1193.9728728230002,None,c,0,0.8943924499999412,1195.5235027480012,None,1195.5235027480012,None,1195.5235027480012,None,1196.4753526190016,None,1196.4753526190016,None,1196.4753526190016,None,1196.4753526190016,None,,,,,,,,,,,,,,,,,,,,,,,,,,,,,,,,,,,,,,,,,,,,001,62,2020_Feb_04_1156,spring_faces,3.1.5,59.988604085126795,
condition files/Stage1_2.xlsx,,T4,B4,m,"['c', 'm']","['Clue', 'Monopoly']","[-0.15, 0.5]","[0.15, 0.5]",1,1,,,,,,,,,0,1,1,1,0,1,1,7,,,,,,,,,,,,,,,,,,,,,,,,,,,,,,,,,,,,,,,,,,,,,,,,,,,,,,,1198.4397243950007,None,1198.4397243950007,None,1198.4397243950007,None,m,1,1.4363045440004498,1199.9736243930001,None,1199.9736243930001,None,1199.9736243930001,None,1201.4732822580008,None,1201.4732822580008,None,1201.4732822580008,None,1201.4732822580008,None,,,,,,,,,,,,,,,,,,,,,,,,,,,,,,,,,,,,,,,,,,,,001,62,2020_Feb_04_1156,spring_faces,3.1.5,59.988604085126795,
condition files/Stage1_2.xlsx,,B3,T4,m,"['c', 'm']","['Clue', 'Monopoly']","[-0.15, 0.5]","[0.15, 0.5]",1,1,,,,,,,,,0,1,1,1,0,2,2,6,,,,,,,,,,,,,,,,,,,,,,,,,,,,,,,,,,,,,,,,,,,,,,,,,,,,,,,1203.4397907440016,None,1203.4397907440016,None,1203.4397907440016,None,m,1,1.828119155999957,1204.973767427,None,1204.973767427,None,1204.973767427,None,1206.8560862660015,None,1206.8560862660015,None,1206.8560862660015,None,1206.8560862660015,None,,,,,,,,,,,,,,,,,,,,,,,,,,,,,,,,,,,,,,,,,,,,001,62,2020_Feb_04_1156,spring_faces,3.1.5,59.988604085126795,
condition files/Stage1_2.xlsx,,T3,B3,c,"['c', 'm']","['Clue', 'Monopoly']","[-0.15, 0.5]","[0.15, 0.5]",1,1,,,,,,,,,0,1,1,1,0,3,3,4,,,,,,,,,,,,,,,,,,,,,,,,,,,,,,,,,,,,,,,,,,,,,,,,,,,,,,,1208.823285421,None,1208.823285421,None,1208.823285421,None,c,1,0.637251270998604,1210.3566166090004,None,1210.3566166090004,None,1210.3566166090004,None,1211.0579570640002,None,1211.0579570640002,None,1211.0579570640002,None,1211.0579570640002,None,,,,,,,,,,,,,,,,,,,,,,,,,,,,,,,,,,,,,,,,,,,,001,62,2020_Feb_04_1156,spring_faces,3.1.5,59.988604085126795,
condition files/Stage1_2.xlsx,,T2,B1,c,"['c', 'm']","['Clue', 'Monopoly']","[-0.15, 0.5]","[0.15, 0.5]",1,1,,,,,,,,,0,1,1,1,0,4,4,1,,,,,,,,,,,,,,,,,,,,,,,,,,,,,,,,,,,,,,,,,,,,,,,,,,,,,,,1213.0235085160002,None,1213.0235085160002,None,1213.0235085160002,None,c,1,1.1886739029996534,1214.5732479340004,None,1214.5732479340004,None,1214.5732479340004,None,1215.8231873820005,None,1215.8231873820005,None,1215.8231873820005,None,1215.8231873820005,None,,,,,,,,,,,,,,,,,,,,,,,,,,,,,,,,,,,,,,,,,,,,001,62,2020_Feb_04_1156,spring_faces,3.1.5,59.988604085126795,
condition files/Stage1_2.xlsx,,B4,T3,c,"['c', 'm']","['Clue', 'Monopoly']","[-0.15, 0.5]","[0.15, 0.5]",1,1,,,,,,,,,0,1,1,1,0,5,5,5,,,,,,,,,,,,,,,,,,,,,,,,,,,,,,,,,,,,,,,,,,,,,,,,,,,,,,,1217.7898170400003,None,1217.7898170400003,None,1217.7898170400003,None,c,1,4.341753942000651,1219.3402125800003,None,1219.3402125800003,None,1219.3402125800003,None,1223.7392447330003,None,1223.7392447330003,None,1223.7392447330003,None,1223.7392447330003,None,,,,,,,,,,,,,,,,,,,,,,,,,,,,,,,,,,,,,,,,,,,,001,62,2020_Feb_04_1156,spring_faces,3.1.5,59.988604085126795,
condition files/Stage1_2.xlsx,,B2,T2,m,"['c', 'm']","['Clue', 'Monopoly']","[-0.15, 0.5]","[0.15, 0.5]",1,1,,,,,,,,,0,1,1,1,0,6,6,3,,,,,,,,,,,,,,,,,,,,,,,,,,,,,,,,,,,,,,,,,,,,,,,,,,,,,,,1225.7064295280015,None,1225.7064295280015,None,1225.7064295280015,None,c,0,1.7219824719995813,1227.2399384560013,None,1227.2399384560013,None,1227.2399384560013,None,1229.0250641130006,None,1229.0250641130006,None,1229.0250641130006,None,1229.0250641130006,None,,,,,,,,,,,,,,,,,,,,,,,,,,,,,,,,,,,,,,,,,,,,001,62,2020_Feb_04_1156,spring_faces,3.1.5,59.988604085126795,
condition files/Stage1_2.xlsx,,B1,T1,c,"['c', 'm']","['Clue', 'Monopoly']","[-0.15, 0.5]","[0.15, 0.5]",1,1,,,,,,,,,0,1,1,1,0,7,7,0,,,,,,,,,,,,,,,,,,,,,,,,,,,,,,,,,,,,,,,,,,,,,,,,,,,,,,,1230.9896655580014,None,1230.9896655580014,None,1230.9896655580014,None,c,1,1.7817664530011825,1232.5401444660001,None,1232.5401444660001,None,1232.5401444660001,None,1234.3760519310017,None,1234.3760519310017,None,1234.3760519310017,None,1234.3760519310017,None,,,,,,,,,,,,,,,,,,,,,,,,,,,,,,,,,,,,,,,,,,,,001,62,2020_Feb_04_1156,spring_faces,3.1.5,59.988604085126795,
condition files/Stage1_1.xlsx,,T1,B1,c,"['c', 'm']","['Clue', 'Monopoly']","[-0.15, 0.5]","[0.15, 0.5]",1,1,,,,,,,,,0,2,2,2,0,0,0,0,,,,,,,,,,,,,,,,,,,,,,,,,,,,,,,,,,,,,,,,,,,,,,,,,,,,,,,1236.3566777760007,None,1236.3566777760007,None,1236.3566777760007,None,c,1,0.960097074001169,1237.8899191120017,None,1237.8899191120017,None,1237.8899191120017,None,1238.9066793720012,None,1238.9066793720012,None,1238.9066793720012,None,1238.9066793720012,None,,,,,,,,,,,,,,,,,,,,,,,,,,,,,,,,,,,,,,,,,,,,001,62,2020_Feb_04_1156,spring_faces,3.1.5,59.988604085126795,
condition files/Stage1_1.xlsx,,T4,B3,m,"['c', 'm']","['Clue', 'Monopoly']","[-0.15, 0.5]","[0.15, 0.5]",1,1,,,,,,,,,0,2,2,2,0,1,1,6,,,,,,,,,,,,,,,,,,,,,,,,,,,,,,,,,,,,,,,,,,,,,,,,,,,,,,,1240.8731028870006,None,1240.8731028870006,None,1240.8731028870006,None,m,1,0.7474992620009289,1242.4064140590017,None,1242.4064140590017,None,1242.4064140590017,None,1243.2078563720006,None,1243.2078563720006,None,1243.2078563720006,None,1243.2078563720006,None,,,,,,,,,,,,,,,,,,,,,,,,,,,,,,,,,,,,,,,,,,,,001,62,2020_Feb_04_1156,spring_faces,3.1.5,59.988604085126795,
condition files/Stage1_1.xlsx,,B4,T4,m,"['c', 'm']","['Clue', 'Monopoly']","[-0.15, 0.5]","[0.15, 0.5]",1,1,,,,,,,,,0,2,2,2,0,2,2,7,,,,,,,,,,,,,,,,,,,,,,,,,,,,,,,,,,,,,,,,,,,,,,,,,,,,,,,1245.1724106860001,None,1245.1724106860001,None,1245.1724106860001,None,c,0,1.0714123809993907,1246.7065232040004,None,1246.7065232040004,None,1246.7065232040004,None,1247.8401207800016,None,1247.8401207800016,None,1247.8401207800016,None,1247.8401207800016,None,,,,,,,,,,,,,,,,,,,,,,,,,,,,,,,,,,,,,,,,,,,,001,62,2020_Feb_04_1156,spring_faces,3.1.5,59.988604085126795,
condition files/Stage1_1.xlsx,,B3,T3,c,"['c', 'm']","['Clue', 'Monopoly']","[-0.15, 0.5]","[0.15, 0.5]",1,1,,,,,,,,,0,2,2,2,0,3,3,4,,,,,,,,,,,,,,,,,,,,,,,,,,,,,,,,,,,,,,,,,,,,,,,,,,,,,,,1249.806492834001,None,1249.806492834001,None,1249.806492834001,None,c,1,0.07034399599979224,1251.3395903210003,None,1251.3395903210003,None,1251.3395903210003,None,1251.4900354420006,None,1251.4900354420006,None,1251.4900354420006,None,1251.4900354420006,None,,,,,,,,,,,,,,,,,,,,,,,,,,,,,,,,,,,,,,,,,,,,001,62,2020_Feb_04_1156,spring_faces,3.1.5,59.988604085126795,
condition files/Stage1_1.xlsx,,T2,B2,m,"['c', 'm']","['Clue', 'Monopoly']","[-0.15, 0.5]","[0.15, 0.5]",1,1,,,,,,,,,0,2,2,2,0,4,4,3,,,,,,,,,,,,,,,,,,,,,,,,,,,,,,,,,,,,,,,,,,,,,,,,,,,,,,,1253.4401808910006,None,1253.4401808910006,None,1253.4401808910006,None,c,0,1.154556487001173,1254.9754215640005,None,1254.9754215640005,None,1254.9754215640005,None,1256.1908971560006,None,1256.1908971560006,None,1256.1908971560006,None,1256.1908971560006,None,,,,,,,,,,,,,,,,,,,,,,,,,,,,,,,,,,,,,,,,,,,,001,62,2020_Feb_04_1156,spring_faces,3.1.5,59.988604085126795,
condition files/Stage1_1.xlsx,,B2,T1,m,"['c', 'm']","['Clue', 'Monopoly']","[-0.15, 0.5]","[0.15, 0.5]",1,1,,,,,,,,,0,2,2,2,0,5,5,2,,,,,,,,,,,,,,,,,,,,,,,,,,,,,,,,,,,,,,,,,,,,,,,,,,,,,,,1258.156415380001,None,1258.156415380001,None,1258.156415380001,None,m,1,1.0636077340004704,1259.6903206770003,None,1259.6903206770003,None,1259.6903206770003,None,1260.8062756180007,None,1260.8062756180007,None,1260.8062756180007,None,1260.8062756180007,None,,,,,,,,,,,,,,,,,,,,,,,,,,,,,,,,,,,,,,,,,,,,001,62,2020_Feb_04_1156,spring_faces,3.1.5,59.988604085126795,
condition files/Stage1_1.xlsx,,B1,T2,c,"['c', 'm']","['Clue', 'Monopoly']","[-0.15, 0.5]","[0.15, 0.5]",1,1,,,,,,,,,0,2,2,2,0,6,6,1,,,,,,,,,,,,,,,,,,,,,,,,,,,,,,,,,,,,,,,,,,,,,,,,,,,,,,,1262.7731206980006,None,1262.7731206980006,None,1262.7731206980006,None,c,1,0.7505594769991148,1264.3073042260003,None,1264.3073042260003,None,1264.3073042260003,None,1265.1255846290005,None,1265.1255846290005,None,1265.1255846290005,None,1265.1255846290005,None,,,,,,,,,,,,,,,,,,,,,,,,,,,,,,,,,,,,,,,,,,,,001,62,2020_Feb_04_1156,spring_faces,3.1.5,59.988604085126795,
condition files/Stage1_1.xlsx,,T3,B4,c,"['c', 'm']","['Clue', 'Monopoly']","[-0.15, 0.5]","[0.15, 0.5]",1,1,,,,,,,,,0,2,2,2,0,7,7,5,,,,,,,,,,,,,,,,,,,,,,,,,,,,,,,,,,,,,,,,,,,,,,,,,,,,,,,1267.0897967090004,None,1267.0897967090004,None,1267.0897967090004,None,c,1,1.2489478049992613,1268.624927312001,None,1268.624927312001,None,1268.624927312001,None,1269.940160219001,None,1269.940160219001,None,1269.940160219001,None,1269.940160219001,None,,,,,,,,,,,,,,,,,,,,,,,,,,,,,,,,,,,,,,,,,,,,001,62,2020_Feb_04_1156,spring_faces,3.1.5,59.988604085126795,
condition files/Stage1_2.xlsx,,B3,T4,m,"['c', 'm']","['Clue', 'Monopoly']","[-0.15, 0.5]","[0.15, 0.5]",1,1,,,,,,,,,0,3,3,3,0,0,0,6,,,,,,,,,,,,,,,,,,,,,,,,,,,,,,,,,,,,,,,,,,,,,,,,,,,,,,,1271.92332265,None,1271.92332265,None,1271.92332265,None,m,1,0.9918212730008236,1273.4581755940017,None,1273.4581755940017,None,1273.4581755940017,None,1274.523319551001,None,1274.523319551001,None,1274.523319551001,None,1274.523319551001,None,,,,,,,,,,,,,,,,,,,,,,,,,,,,,,,,,,,,,,,,,,,,001,62,2020_Feb_04_1156,spring_faces,3.1.5,59.988604085126795,
condition files/Stage1_2.xlsx,,B1,T1,c,"['c', 'm']","['Clue', 'Monopoly']","[-0.15, 0.5]","[0.15, 0.5]",1,1,,,,,,,,,0,3,3,3,0,1,1,0,,,,,,,,,,,,,,,,,,,,,,,,,,,,,,,,,,,,,,,,,,,,,,,,,,,,,,,1276.4727103660007,None,1276.4727103660007,None,1276.4727103660007,None,c,1,1.498576938000042,1278.023333432,None,1278.023333432,None,1278.023333432,None,1279.575527473,None,1279.575527473,None,1279.575527473,None,1279.575527473,None,,,,,,,,,,,,,,,,,,,,,,,,,,,,,,,,,,,,,,,,,,,,001,62,2020_Feb_04_1156,spring_faces,3.1.5,59.988604085126795,
condition files/Stage1_2.xlsx,,T4,B4,m,"['c', 'm']","['Clue', 'Monopoly']","[-0.15, 0.5]","[0.15, 0.5]",1,1,,,,,,,,,0,3,3,3,0,2,2,7,,,,,,,,,,,,,,,,,,,,,,,,,,,,,,,,,,,,,,,,,,,,,,,,,,,,,,,1281.5397720810015,None,1281.5397720810015,None,1281.5397720810015,None,m,1,0.8152309859997331,1283.0746599500017,None,1283.0746599500017,None,1283.0746599500017,None,1283.9568168350015,None,1283.9568168350015,None,1283.9568168350015,None,1283.9568168350015,None,,,,,,,,,,,,,,,,,,,,,,,,,,,,,,,,,,,,,,,,,,,,001,62,2020_Feb_04_1156,spring_faces,3.1.5,59.988604085126795,
condition files/Stage1_2.xlsx,,T3,B3,c,"['c', 'm']","['Clue', 'Monopoly']","[-0.15, 0.5]","[0.15, 0.5]",1,1,,,,,,,,,0,3,3,3,0,3,3,4,,,,,,,,,,,,,,,,,,,,,,,,,,,,,,,,,,,,,,,,,,,,,,,,,,,,,,,1285.9065632860002,None,1285.9065632860002,None,1285.9065632860002,None,c,1,0.7356801280002401,1287.4422565080004,None,1287.4422565080004,None,1287.4422565080004,None,1288.2567296590005,None,1288.2567296590005,None,1288.2567296590005,None,1288.2567296590005,None,,,,,,,,,,,,,,,,,,,,,,,,,,,,,,,,,,,,,,,,,,,,001,62,2020_Feb_04_1156,spring_faces,3.1.5,59.988604085126795,
condition files/Stage1_2.xlsx,,T1,B2,m,"['c', 'm']","['Clue', 'Monopoly']","[-0.15, 0.5]","[0.15, 0.5]",1,1,,,,,,,,,0,3,3,3,0,4,4,2,,,,,,,,,,,,,,,,,,,,,,,,,,,,,,,,,,,,,,,,,,,,,,,,,,,,,,,1290.2065991590007,None,1290.2065991590007,None,1290.2065991590007,None,m,1,4.565362594999897,1291.7405657610016,None,1291.7405657610016,None,1291.7405657610016,None,1296.3730812210015,None,1296.3730812210015,None,1296.3730812210015,None,1296.3730812210015,None,,,,,,,,,,,,,,,,,,,,,,,,,,,,,,,,,,,,,,,,,,,,001,62,2020_Feb_04_1156,spring_faces,3.1.5,59.988604085126795,
condition files/Stage1_2.xlsx,,T2,B1,c,"['c', 'm']","['Clue', 'Monopoly']","[-0.15, 0.5]","[0.15, 0.5]",1,1,,,,,,,,,0,3,3,3,0,5,5,1,,,,,,,,,,,,,,,,,,,,,,,,,,,,,,,,,,,,,,,,,,,,,,,,,,,,,,,1298.3226584530003,None,1298.3226584530003,None,1298.3226584530003,None,c,1,1.1056717640003626,1299.8562550850002,None,1299.8562550850002,None,1299.8562550850002,None,1301.0399670180013,None,1301.0399670180013,None,1301.0399670180013,None,1301.0399670180013,None,,,,,,,,,,,,,,,,,,,,,,,,,,,,,,,,,,,,,,,,,,,,001,62,2020_Feb_04_1156,spring_faces,3.1.5,59.988604085126795,
condition files/Stage1_2.xlsx,,B4,T3,c,"['c', 'm']","['Clue', 'Monopoly']","[-0.15, 0.5]","[0.15, 0.5]",1,1,,,,,,,,,0,3,3,3,0,6,6,5,,,,,,,,,,,,,,,,,,,,,,,,,,,,,,,,,,,,,,,,,,,,,,,,,,,,,,,1302.9894964040013,None,1302.9894964040013,None,1302.9894964040013,None,m,0,1.158809812999607,1304.5231935910015,None,1304.5231935910015,None,1304.5231935910015,None,1305.7401414000014,None,1305.7401414000014,None,1305.7401414000014,None,1305.7401414000014,None,,,,,,,,,,,,,,,,,,,,,,,,,,,,,,,,,,,,,,,,,,,,001,62,2020_Feb_04_1156,spring_faces,3.1.5,59.988604085126795,
condition files/Stage1_2.xlsx,,B2,T2,m,"['c', 'm']","['Clue', 'Monopoly']","[-0.15, 0.5]","[0.15, 0.5]",1,1,,,,,,,,,0,3,3,3,0,7,7,3,,,,,,,,,,,,,,,,,,,,,,,,,,,,,,,,,,,,,,,,,,,,,,,,,,,,,,,1307.706477963,None,1307.706477963,None,1307.706477963,None,m,1,0.6964377699987381,1309.2414864030015,None,1309.2414864030015,None,1309.2414864030015,None,1309.992548956001,None,1309.992548956001,None,1309.992548956001,None,1309.992548956001,None,,,,,,,,,,,,,,,,,,,,,,,,,,,,,,,,,,,,,,,,,,,,001,62,2020_Feb_04_1156,spring_faces,3.1.5,59.988604085126795,
condition files/Stage1_1.xlsx,,T3,B4,c,"['c', 'm']","['Clue', 'Monopoly']","[-0.15, 0.5]","[0.15, 0.5]",1,1,,,,,,,,,0,4,4,4,0,0,0,5,,,,,,,,,,,,,,,,,,,,,,,,,,,,,,,,,,,,,,,,,,,,,,,,,,,,,,,1311.9734622620017,None,1311.9734622620017,None,1311.9734622620017,None,c,1,1.375228317001529,1313.5067731620002,None,1313.5067731620002,None,1313.5067731620002,None,1314.9568916010012,None,1314.9568916010012,None,1314.9568916010012,None,1314.9568916010012,None,,,,,,,,,,,,,,,,,,,,,,,,,,,,,,,,,,,,,,,,,,,,001,62,2020_Feb_04_1156,spring_faces,3.1.5,59.988604085126795,
condition files/Stage1_1.xlsx,,T1,B1,c,"['c', 'm']","['Clue', 'Monopoly']","[-0.15, 0.5]","[0.15, 0.5]",1,1,,,,,,,,,0,4,4,4,0,1,1,0,,,,,,,,,,,,,,,,,,,,,,,,,,,,,,,,,,,,,,,,,,,,,,,,,,,,,,,1316.9064118310016,None,1316.9064118310016,None,1316.9064118310016,None,c,1,1.784118531999411,1318.4418206710016,None,1318.4418206710016,None,1318.4418206710016,None,1320.2900754300008,None,1320.2900754300008,None,1320.2900754300008,None,1320.2900754300008,None,,,,,,,,,,,,,,,,,,,,,,,,,,,,,,,,,,,,,,,,,,,,001,62,2020_Feb_04_1156,spring_faces,3.1.5,59.988604085126795,
condition files/Stage1_1.xlsx,,T4,B3,m,"['c', 'm']","['Clue', 'Monopoly']","[-0.15, 0.5]","[0.15, 0.5]",1,1,,,,,,,,,0,4,4,4,0,2,2,6,,,,,,,,,,,,,,,,,,,,,,,,,,,,,,,,,,,,,,,,,,,,,,,,,,,,,,,1322.2563133540007,None,1322.2563133540007,None,1322.2563133540007,None,m,1,0.9483448709997901,1323.7895911660016,None,1323.7895911660016,None,1323.7895911660016,None,1324.8062467130003,None,1324.8062467130003,None,1324.8062467130003,None,1324.8062467130003,None,,,,,,,,,,,,,,,,,,,,,,,,,,,,,,,,,,,,,,,,,,,,001,62,2020_Feb_04_1156,spring_faces,3.1.5,59.988604085126795,
condition files/Stage1_1.xlsx,,T2,B2,m,"['c', 'm']","['Clue', 'Monopoly']","[-0.15, 0.5]","[0.15, 0.5]",1,1,,,,,,,,,0,4,4,4,0,3,3,3,,,,,,,,,,,,,,,,,,,,,,,,,,,,,,,,,,,,,,,,,,,,,,,,,,,,,,,1326.7564667250008,None,1326.7564667250008,None,1326.7564667250008,None,m,1,1.1189242340005876,1328.2910113950002,None,1328.2910113950002,None,1328.2910113950002,None,1329.472839467,None,1329.472839467,None,1329.472839467,None,1329.472839467,None,,,,,,,,,,,,,,,,,,,,,,,,,,,,,,,,,,,,,,,,,,,,001,62,2020_Feb_04_1156,spring_faces,3.1.5,59.988604085126795,
condition files/Stage1_1.xlsx,,B1,T2,c,"['c', 'm']","['Clue', 'Monopoly']","[-0.15, 0.5]","[0.15, 0.5]",1,1,,,,,,,,,0,4,4,4,0,4,4,1,,,,,,,,,,,,,,,,,,,,,,,,,,,,,,,,,,,,,,,,,,,,,,,,,,,,,,,1331.4391612240015,None,1331.4391612240015,None,1331.4391612240015,None,c,1,0.7248628429988457,1332.9731429620006,None,1332.9731429620006,None,1332.9731429620006,None,1333.7734488210008,None,1333.7734488210008,None,1333.7734488210008,None,1333.7734488210008,None,,,,,,,,,,,,,,,,,,,,,,,,,,,,,,,,,,,,,,,,,,,,001,62,2020_Feb_04_1156,spring_faces,3.1.5,59.988604085126795,
condition files/Stage1_1.xlsx,,B2,T1,m,"['c', 'm']","['Clue', 'Monopoly']","[-0.15, 0.5]","[0.15, 0.5]",1,1,,,,,,,,,0,4,4,4,0,5,5,2,,,,,,,,,,,,,,,,,,,,,,,,,,,,,,,,,,,,,,,,,,,,,,,,,,,,,,,1335.7231385210016,None,1335.7231385210016,None,1335.7231385210016,None,m,1,1.1611317850001797,1337.256784094001,None,1337.256784094001,None,1337.256784094001,None,1338.4893246090014,None,1338.4893246090014,None,1338.4893246090014,None,1338.4893246090014,None,,,,,,,,,,,,,,,,,,,,,,,,,,,,,,,,,,,,,,,,,,,,001,62,2020_Feb_04_1156,spring_faces,3.1.5,59.988604085126795,
condition files/Stage1_1.xlsx,,B3,T3,c,"['c', 'm']","['Clue', 'Monopoly']","[-0.15, 0.5]","[0.15, 0.5]",1,1,,,,,,,,,0,4,4,4,0,6,6,4,,,,,,,,,,,,,,,,,,,,,,,,,,,,,,,,,,,,,,,,,,,,,,,,,,,,,,,1340.4399357320017,None,1340.4399357320017,None,1340.4399357320017,None,c,1,0.8759844240012171,1341.974014360001,None,1341.974014360001,None,1341.974014360001,None,1342.9090621150008,None,1342.9090621150008,None,1342.9090621150008,None,1342.9090621150008,None,,,,,,,,,,,,,,,,,,,,,,,,,,,,,,,,,,,,,,,,,,,,001,62,2020_Feb_04_1156,spring_faces,3.1.5,59.988604085126795,
condition files/Stage1_1.xlsx,,B4,T4,m,"['c', 'm']","['Clue', 'Monopoly']","[-0.15, 0.5]","[0.15, 0.5]",1,1,,,,,,,,,0,4,4,4,0,7,7,7,,,,,,,,,,,,,,,,,,,,,,,,,,,,,,,,,,,,,,,,,,,,,,,,,,,,,,,1344.8728840430012,None,1344.8728840430012,None,1344.8728840430012,None,m,1,1.5157432690011774,1346.4061747920005,None,1346.4061747920005,None,1346.4061747920005,None,1347.9756877770014,None,1347.9756877770014,None,1347.9756877770014,None,1347.9756877770014,None,,,,,,,,,,,,,,,,,,,,,,,,,,,,,,,,,,,,,,,,,,,,001,62,2020_Feb_04_1156,spring_faces,3.1.5,59.988604085126795,
condition files/Stage1_2.xlsx,,T4,B4,m,"['c', 'm']","['Clue', 'Monopoly']","[-0.15, 0.5]","[0.15, 0.5]",1,1,,,,,,,,,0,5,5,5,0,0,0,7,,,,,,,,,,,,,,,,,,,,,,,,,,,,,,,,,,,,,,,,,,,,,,,,,,,,,,,1349.9561022610014,None,1349.9561022610014,None,1349.9561022610014,None,m,1,0.9433884539994324,1351.4906101980014,None,1351.4906101980014,None,1351.4906101980014,None,1352.489463973001,None,1352.489463973001,None,1352.489463973001,None,1352.489463973001,None,,,,,,,,,,,,,,,,,,,,,,,,,,,,,,,,,,,,,,,,,,,,001,62,2020_Feb_04_1156,spring_faces,3.1.5,59.988604085126795,
condition files/Stage1_2.xlsx,,B2,T2,m,"['c', 'm']","['Clue', 'Monopoly']","[-0.15, 0.5]","[0.15, 0.5]",1,1,,,,,,,,,0,5,5,5,0,1,1,3,,,,,,,,,,,,,,,,,,,,,,,,,,,,,,,,,,,,,,,,,,,,,,,,,,,,,,,1354.456388646,None,1354.456388646,None,1354.456388646,None,m,1,0.8437116449986206,1355.9901773250003,None,1355.9901773250003,None,1355.9901773250003,None,1356.8898630930016,None,1356.8898630930016,None,1356.8898630930016,None,1356.8898630930016,None,,,,,,,,,,,,,,,,,,,,,,,,,,,,,,,,,,,,,,,,,,,,001,62,2020_Feb_04_1156,spring_faces,3.1.5,59.988604085126795,
condition files/Stage1_2.xlsx,,T1,B2,m,"['c', 'm']","['Clue', 'Monopoly']","[-0.15, 0.5]","[0.15, 0.5]",1,1,,,,,,,,,0,5,5,5,0,2,2,2,,,,,,,,,,,,,,,,,,,,,,,,,,,,,,,,,,,,,,,,,,,,,,,,,,,,,,,1358.8564057460007,None,1358.8564057460007,None,1358.8564057460007,None,m,1,0.9079117340006633,1360.3900985240016,None,1360.3900985240016,None,1360.3900985240016,None,1361.356428389001,None,1361.356428389001,None,1361.356428389001,None,1361.356428389001,None,,,,,,,,,,,,,,,,,,,,,,,,,,,,,,,,,,,,,,,,,,,,001,62,2020_Feb_04_1156,spring_faces,3.1.5,59.988604085126795,
condition files/Stage1_2.xlsx,,T3,B3,c,"['c', 'm']","['Clue', 'Monopoly']","[-0.15, 0.5]","[0.15, 0.5]",1,1,,,,,,,,,0,5,5,5,0,3,3,4,,,,,,,,,,,,,,,,,,,,,,,,,,,,,,,,,,,,,,,,,,,,,,,,,,,,,,,1363.322771168001,None,1363.322771168001,None,1363.322771168001,None,c,1,0.9215380200002983,1364.8563939860014,None,1364.8563939860014,None,1364.8563939860014,None,1365.8563490230008,None,1365.8563490230008,None,1365.8563490230008,None,1365.8563490230008,None,,,,,,,,,,,,,,,,,,,,,,,,,,,,,,,,,,,,,,,,,,,,001,62,2020_Feb_04_1156,spring_faces,3.1.5,59.988604085126795,
condition files/Stage1_2.xlsx,,B4,T3,c,"['c', 'm']","['Clue', 'Monopoly']","[-0.15, 0.5]","[0.15, 0.5]",1,1,,,,,,,,,0,5,5,5,0,4,4,5,,,,,,,,,,,,,,,,,,,,,,,,,,,,,,,,,,,,,,,,,,,,,,,,,,,,,,,1367.8062662750017,None,1367.8062662750017,None,1367.8062662750017,None,c,1,1.221966749000785,1369.3399501330005,None,1369.3399501330005,None,1369.3399501330005,None,1370.6233261510006,None,1370.6233261510006,None,1370.6233261510006,None,1370.6233261510006,None,,,,,,,,,,,,,,,,,,,,,,,,,,,,,,,,,,,,,,,,,,,,001,62,2020_Feb_04_1156,spring_faces,3.1.5,59.988604085126795,
condition files/Stage1_2.xlsx,,B3,T4,m,"['c', 'm']","['Clue', 'Monopoly']","[-0.15, 0.5]","[0.15, 0.5]",1,1,,,,,,,,,0,5,5,5,0,5,5,6,,,,,,,,,,,,,,,,,,,,,,,,,,,,,,,,,,,,,,,,,,,,,,,,,,,,,,,1372.5896122740014,None,1372.5896122740014,None,1372.5896122740014,None,c,0,0.7913050189999922,1374.1226782780013,None,1374.1226782780013,None,1374.1226782780013,None,1374.9728437250014,None,1374.9728437250014,None,1374.9728437250014,None,1374.9728437250014,None,,,,,,,,,,,,,,,,,,,,,,,,,,,,,,,,,,,,,,,,,,,,001,62,2020_Feb_04_1156,spring_faces,3.1.5,59.988604085126795,
condition files/Stage1_2.xlsx,,B1,T1,c,"['c', 'm']","['Clue', 'Monopoly']","[-0.15, 0.5]","[0.15, 0.5]",1,1,,,,,,,,,0,5,5,5,0,6,6,0,,,,,,,,,,,,,,,,,,,,,,,,,,,,,,,,,,,,,,,,,,,,,,,,,,,,,,,1376.9397440150005,None,1376.9397440150005,None,1376.9397440150005,None,c,1,0.8880651039999066,1378.4898692940005,None,1378.4898692940005,None,1378.4898692940005,None,1379.45656083,None,1379.45656083,None,1379.45656083,None,1379.45656083,None,,,,,,,,,,,,,,,,,,,,,,,,,,,,,,,,,,,,,,,,,,,,001,62,2020_Feb_04_1156,spring_faces,3.1.5,59.988604085126795,
condition files/Stage1_2.xlsx,,T2,B1,c,"['c', 'm']","['Clue', 'Monopoly']","[-0.15, 0.5]","[0.15, 0.5]",1,1,,,,,,,,,0,5,5,5,0,7,7,1,,,,,,,,,,,,,,,,,,,,,,,,,,,,,,,,,,,,,,,,,,,,,,,,,,,,,,,1381.4063846320005,None,1381.4063846320005,None,1381.4063846320005,None,c,1,1.078228484999272,1382.9396529580008,None,1382.9396529580008,None,1382.9396529580008,None,1384.0729321860017,None,1384.0729321860017,None,1384.0729321860017,None,1384.0729321860017,None,,,,,,,,,,,,,,,,,,,,,,,,,,,,,,,,,,,,,,,,,,,,001,62,2020_Feb_04_1156,spring_faces,3.1.5,59.988604085126795,
condition files/Stage1_1.xlsx,,B1,T2,c,"['c', 'm']","['Clue', 'Monopoly']","[-0.15, 0.5]","[0.15, 0.5]",1,1,,,,,,,,,0,6,6,6,0,0,0,1,,,,,,,,,,,,,,,,,,,,,,,,,,,,,,,,,,,,,,,,,,,,,,,,,,,,,,,1386.0569740530009,None,1386.0569740530009,None,1386.0569740530009,None,c,1,1.0676149939990864,1387.606287179,None,1387.606287179,None,1387.606287179,None,1388.7394881850014,None,1388.7394881850014,None,1388.7394881850014,None,1388.7394881850014,None,,,,,,,,,,,,,,,,,,,,,,,,,,,,,,,,,,,,,,,,,,,,001,62,2020_Feb_04_1156,spring_faces,3.1.5,59.988604085126795,
condition files/Stage1_1.xlsx,,B2,T1,m,"['c', 'm']","['Clue', 'Monopoly']","[-0.15, 0.5]","[0.15, 0.5]",1,1,,,,,,,,,0,6,6,6,0,1,1,2,,,,,,,,,,,,,,,,,,,,,,,,,,,,,,,,,,,,,,,,,,,,,,,,,,,,,,,1390.7061693020005,None,1390.7061693020005,None,1390.7061693020005,None,m,1,1.4253822559985565,1392.2406309130001,None,1392.2406309130001,None,1392.2406309130001,None,1393.725185954001,None,1393.725185954001,None,1393.725185954001,None,1393.725185954001,None,,,,,,,,,,,,,,,,,,,,,,,,,,,,,,,,,,,,,,,,,,,,001,62,2020_Feb_04_1156,spring_faces,3.1.5,59.988604085126795,
condition files/Stage1_1.xlsx,,B4,T4,m,"['c', 'm']","['Clue', 'Monopoly']","[-0.15, 0.5]","[0.15, 0.5]",1,1,,,,,,,,,0,6,6,6,0,2,2,7,,,,,,,,,,,,,,,,,,,,,,,,,,,,,,,,,,,,,,,,,,,,,,,,,,,,,,,1395.6898148960008,None,1395.6898148960008,None,1395.6898148960008,None,m,1,1.35337050400085,1397.2245826000017,None,1397.2245826000017,None,1397.2245826000017,None,1398.6394449940017,None,1398.6394449940017,None,1398.6394449940017,None,1398.6394449940017,None,,,,,,,,,,,,,,,,,,,,,,,,,,,,,,,,,,,,,,,,,,,,001,62,2020_Feb_04_1156,spring_faces,3.1.5,59.988604085126795,
condition files/Stage1_1.xlsx,,T4,B3,m,"['c', 'm']","['Clue', 'Monopoly']","[-0.15, 0.5]","[0.15, 0.5]",1,1,,,,,,,,,0,6,6,6,0,3,3,6,,,,,,,,,,,,,,,,,,,,,,,,,,,,,,,,,,,,,,,,,,,,,,,,,,,,,,,1400.6065311810016,None,1400.6065311810016,None,1400.6065311810016,None,m,1,1.7500503779992869,1402.139893597001,None,1402.139893597001,None,1402.139893597001,None,1403.9395407240008,None,1403.9395407240008,None,1403.9395407240008,None,1403.9395407240008,None,,,,,,,,,,,,,,,,,,,,,,,,,,,,,,,,,,,,,,,,,,,,001,62,2020_Feb_04_1156,spring_faces,3.1.5,59.988604085126795,
condition files/Stage1_1.xlsx,,B3,T3,c,"['c', 'm']","['Clue', 'Monopoly']","[-0.15, 0.5]","[0.15, 0.5]",1,1,,,,,,,,,0,6,6,6,0,4,4,4,,,,,,,,,,,,,,,,,,,,,,,,,,,,,,,,,,,,,,,,,,,,,,,,,,,,,,,1405.906076786001,None,1405.906076786001,None,1405.906076786001,None,c,1,1.3136239239993301,1407.4403075440005,None,1407.4403075440005,None,1407.4403075440005,None,1408.8075742950004,None,1408.8075742950004,None,1408.8075742950004,None,1408.8075742950004,None,,,,,,,,,,,,,,,,,,,,,,,,,,,,,,,,,,,,,,,,,,,,001,62,2020_Feb_04_1156,spring_faces,3.1.5,59.988604085126795,
condition files/Stage1_1.xlsx,,T1,B1,c,"['c', 'm']","['Clue', 'Monopoly']","[-0.15, 0.5]","[0.15, 0.5]",1,1,,,,,,,,,0,6,6,6,0,5,5,0,,,,,,,,,,,,,,,,,,,,,,,,,,,,,,,,,,,,,,,,,,,,,,,,,,,,,,,1410.77312643,None,1410.77312643,None,1410.77312643,None,c,1,2.0303364459996374,1412.3235762020013,None,1412.3235762020013,None,1412.3235762020013,None,1414.4067297740003,None,1414.4067297740003,None,1414.4067297740003,None,1414.4067297740003,None,,,,,,,,,,,,,,,,,,,,,,,,,,,,,,,,,,,,,,,,,,,,001,62,2020_Feb_04_1156,spring_faces,3.1.5,59.988604085126795,
condition files/Stage1_1.xlsx,,T2,B2,m,"['c', 'm']","['Clue', 'Monopoly']","[-0.15, 0.5]","[0.15, 0.5]",1,1,,,,,,,,,0,6,6,6,0,6,6,3,,,,,,,,,,,,,,,,,,,,,,,,,,,,,,,,,,,,,,,,,,,,,,,,,,,,,,,1416.3731244120008,None,1416.3731244120008,None,1416.3731244120008,None,m,1,1.4233019090006565,1417.906728252001,None,1417.906728252001,None,1417.906728252001,None,1419.4064583830004,None,1419.4064583830004,None,1419.4064583830004,None,1419.4064583830004,None,,,,,,,,,,,,,,,,,,,,,,,,,,,,,,,,,,,,,,,,,,,,001,62,2020_Feb_04_1156,spring_faces,3.1.5,59.988604085126795,
condition files/Stage1_1.xlsx,,T3,B4,c,"['c', 'm']","['Clue', 'Monopoly']","[-0.15, 0.5]","[0.15, 0.5]",1,1,,,,,,,,,0,6,6,6,0,7,7,5,,,,,,,,,,,,,,,,,,,,,,,,,,,,,,,,,,,,,,,,,,,,,,,,,,,,,,,1421.356474565,None,1421.356474565,None,1421.356474565,None,c,1,2.0071824369988462,1422.8908294360008,None,1422.8908294360008,None,1422.8908294360008,None,1424.9565425290002,None,1424.9565425290002,None,1424.9565425290002,None,1424.9565425290002,None,,,,,,,,,,,,,,,,,,,,,,,,,,,,,,,,,,,,,,,,,,,,001,62,2020_Feb_04_1156,spring_faces,3.1.5,59.988604085126795,
condition files/Stage1_2.xlsx,,T1,B2,m,"['c', 'm']","['Clue', 'Monopoly']","[-0.15, 0.5]","[0.15, 0.5]",1,1,,,,,,,,,0,7,7,7,0,0,0,2,,,,,,,,,,,,,,,,,,,,,,,,,,,,,,,,,,,,,,,,,,,,,,,,,,,,,,,1426.9392023250002,None,1426.9392023250002,None,1426.9392023250002,None,m,1,1.4799682090015267,1428.4899326410014,None,1428.4899326410014,None,1428.4899326410014,None,1430.0247506380001,None,1430.0247506380001,None,1430.0247506380001,None,1430.0247506380001,None,,,,,,,,,,,,,,,,,,,,,,,,,,,,,,,,,,,,,,,,,,,,001,62,2020_Feb_04_1156,spring_faces,3.1.5,59.988604085126795,
condition files/Stage1_2.xlsx,,B3,T4,m,"['c', 'm']","['Clue', 'Monopoly']","[-0.15, 0.5]","[0.15, 0.5]",1,1,,,,,,,,,0,7,7,7,0,1,1,6,,,,,,,,,,,,,,,,,,,,,,,,,,,,,,,,,,,,,,,,,,,,,,,,,,,,,,,1431.9897360650011,None,1431.9897360650011,None,1431.9897360650011,None,m,1,2.1585482280006545,1433.5234254440002,None,1433.5234254440002,None,1433.5234254440002,None,1435.7397928500013,None,1435.7397928500013,None,1435.7397928500013,None,1435.7397928500013,None,,,,,,,,,,,,,,,,,,,,,,,,,,,,,,,,,,,,,,,,,,,,001,62,2020_Feb_04_1156,spring_faces,3.1.5,59.988604085126795,
condition files/Stage1_2.xlsx,,B2,T2,m,"['c', 'm']","['Clue', 'Monopoly']","[-0.15, 0.5]","[0.15, 0.5]",1,1,,,,,,,,,0,7,7,7,0,2,2,3,,,,,,,,,,,,,,,,,,,,,,,,,,,,,,,,,,,,,,,,,,,,,,,,,,,,,,,1437.7064160230002,None,1437.7064160230002,None,1437.7064160230002,None,m,1,1.2909528049985965,1439.2390549390002,None,1439.2390549390002,None,1439.2390549390002,None,1440.5895658920017,None,1440.5895658920017,None,1440.5895658920017,None,1440.5895658920017,None,,,,,,,,,,,,,,,,,,,,,,,,,,,,,,,,,,,,,,,,,,,,001,62,2020_Feb_04_1156,spring_faces,3.1.5,59.988604085126795,
condition files/Stage1_2.xlsx,,B1,T1,c,"['c', 'm']","['Clue', 'Monopoly']","[-0.15, 0.5]","[0.15, 0.5]",1,1,,,,,,,,,0,7,7,7,0,3,3,0,,,,,,,,,,,,,,,,,,,,,,,,,,,,,,,,,,,,,,,,,,,,,,,,,,,,,,,1442.5564716560002,None,1442.5564716560002,None,1442.5564716560002,None,c,1,2.151128091998544,1444.0907930820013,None,1444.0907930820013,None,1444.0907930820013,None,1446.3234016630013,None,1446.3234016630013,None,1446.3234016630013,None,1446.3234016630013,None,,,,,,,,,,,,,,,,,,,,,,,,,,,,,,,,,,,,,,,,,,,,001,62,2020_Feb_04_1156,spring_faces,3.1.5,59.988604085126795,
condition files/Stage1_2.xlsx,,B4,T3,c,"['c', 'm']","['Clue', 'Monopoly']","[-0.15, 0.5]","[0.15, 0.5]",1,1,,,,,,,,,0,7,7,7,0,4,4,5,,,,,,,,,,,,,,,,,,,,,,,,,,,,,,,,,,,,,,,,,,,,,,,,,,,,,,,1448.273057104001,None,1448.273057104001,None,1448.273057104001,None,c,1,1.4256335019999824,1449.8083725250017,None,1449.8083725250017,None,1449.8083725250017,None,1451.289668331001,None,1451.289668331001,None,1451.289668331001,None,1451.289668331001,None,,,,,,,,,,,,,,,,,,,,,,,,,,,,,,,,,,,,,,,,,,,,001,62,2020_Feb_04_1156,spring_faces,3.1.5,59.988604085126795,
condition files/Stage1_2.xlsx,,T3,B3,c,"['c', 'm']","['Clue', 'Monopoly']","[-0.15, 0.5]","[0.15, 0.5]",1,1,,,,,,,,,0,7,7,7,0,5,5,4,,,,,,,,,,,,,,,,,,,,,,,,,,,,,,,,,,,,,,,,,,,,,,,,,,,,,,,1453.2564636670013,None,1453.2564636670013,None,1453.2564636670013,None,c,1,1.9315032129998144,1454.790439122,None,1454.790439122,None,1454.790439122,None,1456.7728783310013,None,1456.7728783310013,None,1456.7728783310013,None,1456.7728783310013,None,,,,,,,,,,,,,,,,,,,,,,,,,,,,,,,,,,,,,,,,,,,,001,62,2020_Feb_04_1156,spring_faces,3.1.5,59.988604085126795,
condition files/Stage1_2.xlsx,,T2,B1,c,"['c', 'm']","['Clue', 'Monopoly']","[-0.15, 0.5]","[0.15, 0.5]",1,1,,,,,,,,,0,7,7,7,0,6,6,1,,,,,,,,,,,,,,,,,,,,,,,,,,,,,,,,,,,,,,,,,,,,,,,,,,,,,,,1458.740253934,None,1458.740253934,None,1458.740253934,None,c,1,1.440802041999632,1460.2732038030008,None,1460.2732038030008,None,1460.2732038030008,None,1461.7726325500007,None,1461.7726325500007,None,1461.7726325500007,None,1461.7726325500007,None,,,,,,,,,,,,,,,,,,,,,,,,,,,,,,,,,,,,,,,,,,,,001,62,2020_Feb_04_1156,spring_faces,3.1.5,59.988604085126795,
condition files/Stage1_2.xlsx,,T4,B4,m,"['c', 'm']","['Clue', 'Monopoly']","[-0.15, 0.5]","[0.15, 0.5]",1,1,,,,,,,,,0,7,7,7,0,7,7,7,,,,,,,,,,,,,,,,,,,,,,,,,,,,,,,,,,,,,,,,,,,,,,,,,,,,,,,1463.7392629390015,None,1463.7392629390015,None,1463.7392629390015,None,m,1,2.1214050509988738,1465.2725354540016,None,1465.2725354540016,None,1465.2725354540016,None,1467.4734344010012,None,1467.4734344010012,None,1467.4734344010012,None,1467.4734344010012,None,,,,,,,,,,,,,,,,,,,,,,,,,,,,,,,,,,,,,,,,,,,,001,62,2020_Feb_04_1156,spring_faces,3.1.5,59.988604085126795,
condition files/Stage1_1.xlsx,,B1,T2,c,"['c', 'm']","['Clue', 'Monopoly']","[-0.15, 0.5]","[0.15, 0.5]",1,1,,,,,,,,,0,8,8,8,0,0,0,1,,,,,,,,,,,,,,,,,,,,,,,,,,,,,,,,,,,,,,,,,,,,,,,,,,,,,,,1469.4396969130012,None,1469.4396969130012,None,1469.4396969130012,None,c,1,1.4593320730000414,1470.9746649450008,None,1470.9746649450008,None,1470.9746649450008,None,1472.506298057,None,1472.506298057,None,1472.506298057,None,1472.506298057,None,,,,,,,,,,,,,,,,,,,,,,,,,,,,,,,,,,,,,,,,,,,,001,62,2020_Feb_04_1156,spring_faces,3.1.5,59.988604085126795,
condition files/Stage1_1.xlsx,,B4,T4,m,"['c', 'm']","['Clue', 'Monopoly']","[-0.15, 0.5]","[0.15, 0.5]",1,1,,,,,,,,,0,8,8,8,0,1,1,7,,,,,,,,,,,,,,,,,,,,,,,,,,,,,,,,,,,,,,,,,,,,,,,,,,,,,,,1474.4564491170004,None,1474.4564491170004,None,1474.4564491170004,None,m,1,1.8037611320014548,1475.9901832370015,None,1475.9901832370015,None,1475.9901832370015,None,1477.859368239,None,1477.859368239,None,1477.859368239,None,1477.859368239,None,,,,,,,,,,,,,,,,,,,,,,,,,,,,,,,,,,,,,,,,,,,,001,62,2020_Feb_04_1156,spring_faces,3.1.5,59.988604085126795,
condition files/Stage1_1.xlsx,,T3,B4,c,"['c', 'm']","['Clue', 'Monopoly']","[-0.15, 0.5]","[0.15, 0.5]",1,1,,,,,,,,,0,8,8,8,0,2,2,5,,,,,,,,,,,,,,,,,,,,,,,,,,,,,,,,,,,,,,,,,,,,,,,,,,,,,,,1479.823172841001,None,1479.823172841001,None,1479.823172841001,None,c,1,1.4293262440005492,1481.3566139950017,None,1481.3566139950017,None,1481.3566139950017,None,1482.8416022790007,None,1482.8416022790007,None,1482.8416022790007,None,1482.8416022790007,None,,,,,,,,,,,,,,,,,,,,,,,,,,,,,,,,,,,,,,,,,,,,001,62,2020_Feb_04_1156,spring_faces,3.1.5,59.988604085126795,
condition files/Stage1_1.xlsx,,B3,T3,c,"['c', 'm']","['Clue', 'Monopoly']","[-0.15, 0.5]","[0.15, 0.5]",1,1,,,,,,,,,0,8,8,8,0,3,3,4,,,,,,,,,,,,,,,,,,,,,,,,,,,,,,,,,,,,,,,,,,,,,,,,,,,,,,,1484.8064454190007,None,1484.8064454190007,None,1484.8064454190007,None,c,1,2.491567994000434,1486.3424495030013,None,1486.3424495030013,None,1486.3424495030013,None,1488.8903226230013,None,1488.8903226230013,None,1488.8903226230013,None,1488.8903226230013,None,,,,,,,,,,,,,,,,,,,,,,,,,,,,,,,,,,,,,,,,,,,,001,62,2020_Feb_04_1156,spring_faces,3.1.5,59.988604085126795,
condition files/Stage1_1.xlsx,,T4,B3,m,"['c', 'm']","['Clue', 'Monopoly']","[-0.15, 0.5]","[0.15, 0.5]",1,1,,,,,,,,,0,8,8,8,0,4,4,6,,,,,,,,,,,,,,,,,,,,,,,,,,,,,,,,,,,,,,,,,,,,,,,,,,,,,,,1490.8563307500008,None,1490.8563307500008,None,1490.8563307500008,None,m,1,1.69207749799898,1492.389920310001,None,1492.389920310001,None,1492.389920310001,None,1494.1399202320008,None,1494.1399202320008,None,1494.1399202320008,None,1494.1399202320008,None,,,,,,,,,,,,,,,,,,,,,,,,,,,,,,,,,,,,,,,,,,,,001,62,2020_Feb_04_1156,spring_faces,3.1.5,59.988604085126795,
condition files/Stage1_1.xlsx,,T2,B2,m,"['c', 'm']","['Clue', 'Monopoly']","[-0.15, 0.5]","[0.15, 0.5]",1,1,,,,,,,,,0,8,8,8,0,5,5,3,,,,,,,,,,,,,,,,,,,,,,,,,,,,,,,,,,,,,,,,,,,,,,,,,,,,,,,1496.1063706530003,None,1496.1063706530003,None,1496.1063706530003,None,m,1,1.7070156299996597,1497.6389949490003,None,1497.6389949490003,None,1497.6389949490003,None,1499.4063890650013,None,1499.4063890650013,None,1499.4063890650013,None,1499.4063890650013,None,,,,,,,,,,,,,,,,,,,,,,,,,,,,,,,,,,,,,,,,,,,,001,62,2020_Feb_04_1156,spring_faces,3.1.5,59.988604085126795,
condition files/Stage1_1.xlsx,,B2,T1,m,"['c', 'm']","['Clue', 'Monopoly']","[-0.15, 0.5]","[0.15, 0.5]",1,1,,,,,,,,,0,8,8,8,0,6,6,2,,,,,,,,,,,,,,,,,,,,,,,,,,,,,,,,,,,,,,,,,,,,,,,,,,,,,,,1501.3731220610007,None,1501.3731220610007,None,1501.3731220610007,None,m,1,1.0949718239990034,1502.9069622880015,None,1502.9069622880015,None,1502.9069622880015,None,1504.055992679001,None,1504.055992679001,None,1504.055992679001,None,1504.055992679001,None,,,,,,,,,,,,,,,,,,,,,,,,,,,,,,,,,,,,,,,,,,,,001,62,2020_Feb_04_1156,spring_faces,3.1.5,59.988604085126795,
condition files/Stage1_1.xlsx,,T1,B1,c,"['c', 'm']","['Clue', 'Monopoly']","[-0.15, 0.5]","[0.15, 0.5]",1,1,,,,,,,,,0,8,8,8,0,7,7,0,,,,,,,,,,,,,,,,,,,,,,,,,,,,,,,,,,,,,,,,,,,,,,,,,,,,,,,1506.0231175500012,None,1506.0231175500012,None,1506.0231175500012,None,c,1,1.5791371839986823,1507.5587955770006,None,1507.5587955770006,None,1507.5587955770006,None,1509.1907409180003,None,1509.1907409180003,None,1509.1907409180003,None,1509.1907409180003,None,,,,,,,,,,,,,,,,,,,,,,,,,,,,,,,,,,,,,,,,,,,,001,62,2020_Feb_04_1156,spring_faces,3.1.5,59.988604085126795,
condition files/Stage1_2.xlsx,,B4,T3,c,"['c', 'm']","['Clue', 'Monopoly']","[-0.15, 0.5]","[0.15, 0.5]",1,1,,,,,,,,,0,9,9,9,0,0,0,5,,,,,,,,,,,,,,,,,,,,,,,,,,,,,,,,,,,,,,,,,,,,,,,,,,,,,,,1511.1730005650006,None,1511.1730005650006,None,1511.1730005650006,None,c,1,1.8545183090009232,1512.7234205200002,None,1512.7234205200002,None,1512.7234205200002,None,1514.6391713150006,None,1514.6391713150006,None,1514.6391713150006,None,1514.6391713150006,None,,,,,,,,,,,,,,,,,,,,,,,,,,,,,,,,,,,,,,,,,,,,001,62,2020_Feb_04_1156,spring_faces,3.1.5,59.988604085126795,
condition files/Stage1_2.xlsx,,B3,T4,m,"['c', 'm']","['Clue', 'Monopoly']","[-0.15, 0.5]","[0.15, 0.5]",1,1,,,,,,,,,0,9,9,9,0,1,1,6,,,,,,,,,,,,,,,,,,,,,,,,,,,,,,,,,,,,,,,,,,,,,,,,,,,,,,,1516.606412643001,None,1516.606412643001,None,1516.606412643001,None,m,1,1.301178138000978,1518.140745744,None,1518.140745744,None,1518.140745744,None,1519.5094004170005,None,1519.5094004170005,None,1519.5094004170005,None,1519.5094004170005,None,,,,,,,,,,,,,,,,,,,,,,,,,,,,,,,,,,,,,,,,,,,,001,62,2020_Feb_04_1156,spring_faces,3.1.5,59.988604085126795,
condition files/Stage1_2.xlsx,,T4,B4,m,"['c', 'm']","['Clue', 'Monopoly']","[-0.15, 0.5]","[0.15, 0.5]",1,1,,,,,,,,,0,9,9,9,0,2,2,7,,,,,,,,,,,,,,,,,,,,,,,,,,,,,,,,,,,,,,,,,,,,,,,,,,,,,,,1521.4728363470003,None,1521.4728363470003,None,1521.4728363470003,None,m,1,2.67498605900073,1523.0070255230003,None,1523.0070255230003,None,1523.0070255230003,None,1525.7401065460017,None,1525.7401065460017,None,1525.7401065460017,None,1525.7401065460017,None,,,,,,,,,,,,,,,,,,,,,,,,,,,,,,,,,,,,,,,,,,,,001,62,2020_Feb_04_1156,spring_faces,3.1.5,59.988604085126795,
condition files/Stage1_2.xlsx,,T1,B2,m,"['c', 'm']","['Clue', 'Monopoly']","[-0.15, 0.5]","[0.15, 0.5]",1,1,,,,,,,,,0,9,9,9,0,3,3,2,,,,,,,,,,,,,,,,,,,,,,,,,,,,,,,,,,,,,,,,,,,,,,,,,,,,,,,1527.706517853001,None,1527.706517853001,None,1527.706517853001,None,m,1,1.4495629610009928,1529.2403226390015,None,1529.2403226390015,None,1529.2403226390015,None,1530.7564160170004,None,1530.7564160170004,None,1530.7564160170004,None,1530.7564160170004,None,,,,,,,,,,,,,,,,,,,,,,,,,,,,,,,,,,,,,,,,,,,,001,62,2020_Feb_04_1156,spring_faces,3.1.5,59.988604085126795,
condition files/Stage1_2.xlsx,,T2,B1,c,"['c', 'm']","['Clue', 'Monopoly']","[-0.15, 0.5]","[0.15, 0.5]",1,1,,,,,,,,,0,9,9,9,0,4,4,1,,,,,,,,,,,,,,,,,,,,,,,,,,,,,,,,,,,,,,,,,,,,,,,,,,,,,,,1532.7232371870014,None,1532.7232371870014,None,1532.7232371870014,None,c,1,1.3777437419994385,1534.2562741320016,None,1534.2562741320016,None,1534.2562741320016,None,1535.691584563001,None,1535.691584563001,None,1535.691584563001,None,1535.691584563001,None,,,,,,,,,,,,,,,,,,,,,,,,,,,,,,,,,,,,,,,,,,,,001,62,2020_Feb_04_1156,spring_faces,3.1.5,59.988604085126795,
condition files/Stage1_2.xlsx,,B1,T1,c,"['c', 'm']","['Clue', 'Monopoly']","[-0.15, 0.5]","[0.15, 0.5]",1,1,,,,,,,,,0,9,9,9,0,5,5,0,,,,,,,,,,,,,,,,,,,,,,,,,,,,,,,,,,,,,,,,,,,,,,,,,,,,,,,1537.6561055330003,None,1537.6561055330003,None,1537.6561055330003,None,c,1,1.5303979630007234,1539.191532017001,None,1539.191532017001,None,1539.191532017001,None,1540.77319867,None,1540.77319867,None,1540.77319867,None,1540.77319867,None,,,,,,,,,,,,,,,,,,,,,,,,,,,,,,,,,,,,,,,,,,,,001,62,2020_Feb_04_1156,spring_faces,3.1.5,59.988604085126795,
condition files/Stage1_2.xlsx,,B2,T2,m,"['c', 'm']","['Clue', 'Monopoly']","[-0.15, 0.5]","[0.15, 0.5]",1,1,,,,,,,,,0,9,9,9,0,6,6,3,,,,,,,,,,,,,,,,,,,,,,,,,,,,,,,,,,,,,,,,,,,,,,,,,,,,,,,1542.7398217220016,None,1542.7398217220016,None,1542.7398217220016,None,m,1,2.0488961869996274,1544.2730422010009,None,1544.2730422010009,None,1544.2730422010009,None,1546.3761744480016,None,1546.3761744480016,None,1546.3761744480016,None,1546.3761744480016,None,,,,,,,,,,,,,,,,,,,,,,,,,,,,,,,,,,,,,,,,,,,,001,62,2020_Feb_04_1156,spring_faces,3.1.5,59.988604085126795,
condition files/Stage1_2.xlsx,,T3,B3,c,"['c', 'm']","['Clue', 'Monopoly']","[-0.15, 0.5]","[0.15, 0.5]",1,1,,,,,,,,,0,9,9,9,0,7,7,4,,,,,,,,,,,,,,,,,,,,,,,,,,,,,,,,,,,,,,,,,,,,,,,,,,,,,,,1548.339788049001,None,1548.339788049001,None,1548.339788049001,None,c,1,2.400900086000547,1549.8729960240016,None,1549.8729960240016,None,1549.8729960240016,None,1552.3564795670009,None,1552.3564795670009,None,1552.3564795670009,None,1552.3564795670009,None,,,,,,,,,,,,,,,,,,,,,,,,,,,,,,,,,,,,,,,,,,,,001,62,2020_Feb_04_1156,spring_faces,3.1.5,59.988604085126795,
condition files/Stage1_1.xlsx,,B1,T2,c,"['c', 'm']","['Clue', 'Monopoly']","[-0.15, 0.5]","[0.15, 0.5]",1,1,,,,,,,,,0,10,10,10,0,0,0,1,,,,,,,,,,,,,,,,,,,,,,,,,,,,,,,,,,,,,,,,,,,,,,,,,,,,,,,1554.323314186,None,1554.323314186,None,1554.323314186,None,c,1,2.68766142000095,1555.8583440800012,None,1555.8583440800012,None,1555.8583440800012,None,1558.6060553780007,None,1558.6060553780007,None,1558.6060553780007,None,1558.6060553780007,None,,,,,,,,,,,,,,,,,,,,,,,,,,,,,,,,,,,,,,,,,,,,001,62,2020_Feb_04_1156,spring_faces,3.1.5,59.988604085126795,
condition files/Stage1_1.xlsx,,T4,B3,m,"['c', 'm']","['Clue', 'Monopoly']","[-0.15, 0.5]","[0.15, 0.5]",1,1,,,,,,,,,0,10,10,10,0,1,1,6,,,,,,,,,,,,,,,,,,,,,,,,,,,,,,,,,,,,,,,,,,,,,,,,,,,,,,,1560.572825325,None,1560.572825325,None,1560.572825325,None,m,1,1.7033961139986786,1562.1065278160004,None,1562.1065278160004,None,1562.1065278160004,None,1563.8761908330016,None,1563.8761908330016,None,1563.8761908330016,None,1563.8761908330016,None,,,,,,,,,,,,,,,,,,,,,,,,,,,,,,,,,,,,,,,,,,,,001,62,2020_Feb_04_1156,spring_faces,3.1.5,59.988604085126795,
condition files/Stage1_1.xlsx,,T2,B2,m,"['c', 'm']","['Clue', 'Monopoly']","[-0.15, 0.5]","[0.15, 0.5]",1,1,,,,,,,,,0,10,10,10,0,2,2,3,,,,,,,,,,,,,,,,,,,,,,,,,,,,,,,,,,,,,,,,,,,,,,,,,,,,,,,1565.8397678150013,None,1565.8397678150013,None,1565.8397678150013,None,m,1,1.5236831300007907,1567.3743273750006,None,1567.3743273750006,None,1567.3743273750006,None,1568.956443303001,None,1568.956443303001,None,1568.956443303001,None,1568.956443303001,None,,,,,,,,,,,,,,,,,,,,,,,,,,,,,,,,,,,,,,,,,,,,001,62,2020_Feb_04_1156,spring_faces,3.1.5,59.988604085126795,
condition files/Stage1_1.xlsx,,B3,T3,c,"['c', 'm']","['Clue', 'Monopoly']","[-0.15, 0.5]","[0.15, 0.5]",1,1,,,,,,,,,0,10,10,10,0,3,3,4,,,,,,,,,,,,,,,,,,,,,,,,,,,,,,,,,,,,,,,,,,,,,,,,,,,,,,,1570.923099132,None,1570.923099132,None,1570.923099132,None,c,1,1.7518531500008976,1572.458092758001,None,1572.458092758001,None,1572.458092758001,None,1574.2760043980015,None,1574.2760043980015,None,1574.2760043980015,None,1574.2760043980015,None,,,,,,,,,,,,,,,,,,,,,,,,,,,,,,,,,,,,,,,,,,,,001,62,2020_Feb_04_1156,spring_faces,3.1.5,59.988604085126795,
condition files/Stage1_1.xlsx,,B2,T1,m,"['c', 'm']","['Clue', 'Monopoly']","[-0.15, 0.5]","[0.15, 0.5]",1,1,,,,,,,,,0,10,10,10,0,4,4,2,,,,,,,,,,,,,,,,,,,,,,,,,,,,,,,,,,,,,,,,,,,,,,,,,,,,,,,1576.239879527,None,1576.239879527,None,1576.239879527,None,m,1,2.8852760549998493,1577.7725899450015,None,1577.7725899450015,None,1577.7725899450015,None,1580.725432438001,None,1580.725432438001,None,1580.725432438001,None,1580.725432438001,None,,,,,,,,,,,,,,,,,,,,,,,,,,,,,,,,,,,,,,,,,,,,001,62,2020_Feb_04_1156,spring_faces,3.1.5,59.988604085126795,
condition files/Stage1_1.xlsx,,T1,B1,c,"['c', 'm']","['Clue', 'Monopoly']","[-0.15, 0.5]","[0.15, 0.5]",1,1,,,,,,,,,0,10,10,10,0,5,5,0,,,,,,,,,,,,,,,,,,,,,,,,,,,,,,,,,,,,,,,,,,,,,,,,,,,,,,,1582.6897807660007,None,1582.6897807660007,None,1582.6897807660007,None,c,1,1.234886625999934,1584.223012923001,None,1584.223012923001,None,1584.223012923001,None,1585.5400984380012,None,1585.5400984380012,None,1585.5400984380012,None,1585.5400984380012,None,,,,,,,,,,,,,,,,,,,,,,,,,,,,,,,,,,,,,,,,,,,,001,62,2020_Feb_04_1156,spring_faces,3.1.5,59.988604085126795,
condition files/Stage1_1.xlsx,,B4,T4,m,"['c', 'm']","['Clue', 'Monopoly']","[-0.15, 0.5]","[0.15, 0.5]",1,1,,,,,,,,,0,10,10,10,0,6,6,7,,,,,,,,,,,,,,,,,,,,,,,,,,,,,,,,,,,,,,,,,,,,,,,,,,,,,,,1587.489894016,None,1587.489894016,None,1587.489894016,None,m,1,1.5388001589999476,1589.023095253,None,1589.023095253,None,1589.023095253,None,1590.6243512220008,None,1590.6243512220008,None,1590.6243512220008,None,1590.6243512220008,None,,,,,,,,,,,,,,,,,,,,,,,,,,,,,,,,,,,,,,,,,,,,001,62,2020_Feb_04_1156,spring_faces,3.1.5,59.988604085126795,
condition files/Stage1_1.xlsx,,T3,B4,c,"['c', 'm']","['Clue', 'Monopoly']","[-0.15, 0.5]","[0.15, 0.5]",1,1,,,,,,,,,0,10,10,10,0,7,7,5,,,,,,,,,,,,,,,,,,,,,,,,,,,,,,,,,,,,,,,,,,,,,,,,,,,,,,,1592.5897922930017,None,1592.5897922930017,None,1592.5897922930017,None,c,1,2.0229662060010014,1594.1230317730005,None,1594.1230317730005,None,1594.1230317730005,None,1596.2063636560015,None,1596.2063636560015,None,1596.2063636560015,None,1596.2063636560015,None,,,,,,,,,,,,,,,,,,,,,,,,,,,,,,,,,,,,,,,,,,,,001,62,2020_Feb_04_1156,spring_faces,3.1.5,59.988604085126795,
condition files/Stage1_2.xlsx,,T2,B1,c,"['c', 'm']","['Clue', 'Monopoly']","[-0.15, 0.5]","[0.15, 0.5]",1,1,,,,,,,,,0,11,11,11,0,0,0,1,,,,,,,,,,,,,,,,,,,,,,,,,,,,,,,,,,,,,,,,,,,,,,,,,,,,,,,1598.189813729001,None,1598.189813729001,None,1598.189813729001,None,c,1,1.0445900760005316,1599.725467712,None,1599.725467712,None,1599.725467712,None,1600.822910285,None,1600.822910285,None,1600.822910285,None,1600.822910285,None,,,,,,,,,,,,,,,,,,,,,,,,,,,,,,,,,,,,,,,,,,,,001,62,2020_Feb_04_1156,spring_faces,3.1.5,59.988604085126795,
condition files/Stage1_2.xlsx,,B2,T2,m,"['c', 'm']","['Clue', 'Monopoly']","[-0.15, 0.5]","[0.15, 0.5]",1,1,,,,,,,,,0,11,11,11,0,1,1,3,,,,,,,,,,,,,,,,,,,,,,,,,,,,,,,,,,,,,,,,,,,,,,,,,,,,,,,1602.7897846170017,None,1602.7897846170017,None,1602.7897846170017,None,m,1,0.7485987780000869,1604.3253022920017,None,1604.3253022920017,None,1604.3253022920017,None,1605.1401731410006,None,1605.1401731410006,None,1605.1401731410006,None,1605.1401731410006,None,,,,,,,,,,,,,,,,,,,,,,,,,,,,,,,,,,,,,,,,,,,,001,62,2020_Feb_04_1156,spring_faces,3.1.5,59.988604085126795,
condition files/Stage1_2.xlsx,,B3,T4,m,"['c', 'm']","['Clue', 'Monopoly']","[-0.15, 0.5]","[0.15, 0.5]",1,1,,,,,,,,,0,11,11,11,0,2,2,6,,,,,,,,,,,,,,,,,,,,,,,,,,,,,,,,,,,,,,,,,,,,,,,,,,,,,,,1607.1068899450001,None,1607.1068899450001,None,1607.1068899450001,None,m,1,1.0423847719994228,1608.6396145170002,None,1608.6396145170002,None,1608.6396145170002,None,1609.7402228990013,None,1609.7402228990013,None,1609.7402228990013,None,1609.7402228990013,None,,,,,,,,,,,,,,,,,,,,,,,,,,,,,,,,,,,,,,,,,,,,001,62,2020_Feb_04_1156,spring_faces,3.1.5,59.988604085126795,
condition files/Stage1_2.xlsx,,T3,B3,c,"['c', 'm']","['Clue', 'Monopoly']","[-0.15, 0.5]","[0.15, 0.5]",1,1,,,,,,,,,0,11,11,11,0,3,3,4,,,,,,,,,,,,,,,,,,,,,,,,,,,,,,,,,,,,,,,,,,,,,,,,,,,,,,,1611.706550842,None,1611.706550842,None,1611.706550842,None,c,1,0.7619633120011713,1613.2399414660013,None,1613.2399414660013,None,1613.2399414660013,None,1614.0587421180007,None,1614.0587421180007,None,1614.0587421180007,None,1614.0587421180007,None,,,,,,,,,,,,,,,,,,,,,,,,,,,,,,,,,,,,,,,,,,,,001,62,2020_Feb_04_1156,spring_faces,3.1.5,59.988604085126795,
condition files/Stage1_2.xlsx,,B4,T3,c,"['c', 'm']","['Clue', 'Monopoly']","[-0.15, 0.5]","[0.15, 0.5]",1,1,,,,,,,,,0,11,11,11,0,4,4,5,,,,,,,,,,,,,,,,,,,,,,,,,,,,,,,,,,,,,,,,,,,,,,,,,,,,,,,1616.0231988660016,None,1616.0231988660016,None,1616.0231988660016,None,c,1,1.3562213349996455,1617.557785854,None,1617.557785854,None,1617.557785854,None,1618.9734088570003,None,1618.9734088570003,None,1618.9734088570003,None,1618.9734088570003,None,,,,,,,,,,,,,,,,,,,,,,,,,,,,,,,,,,,,,,,,,,,,001,62,2020_Feb_04_1156,spring_faces,3.1.5,59.988604085126795,
condition files/Stage1_2.xlsx,,T4,B4,m,"['c', 'm']","['Clue', 'Monopoly']","[-0.15, 0.5]","[0.15, 0.5]",1,1,,,,,,,,,0,11,11,11,0,5,5,7,,,,,,,,,,,,,,,,,,,,,,,,,,,,,,,,,,,,,,,,,,,,,,,,,,,,,,,1620.9397472320015,None,1620.9397472320015,None,1620.9397472320015,None,m,1,1.1919559859998117,1622.4740494670004,None,1622.4740494670004,None,1622.4740494670004,None,1623.722400427001,None,1623.722400427001,None,1623.722400427001,None,1623.722400427001,None,,,,,,,,,,,,,,,,,,,,,,,,,,,,,,,,,,,,,,,,,,,,001,62,2020_Feb_04_1156,spring_faces,3.1.5,59.988604085126795,
condition files/Stage1_2.xlsx,,T1,B2,m,"['c', 'm']","['Clue', 'Monopoly']","[-0.15, 0.5]","[0.15, 0.5]",1,1,,,,,,,,,0,11,11,11,0,6,6,2,,,,,,,,,,,,,,,,,,,,,,,,,,,,,,,,,,,,,,,,,,,,,,,,,,,,,,,1625.6891723400004,None,1625.6891723400004,None,1625.6891723400004,None,m,1,0.9709668199993757,1627.2229719810002,None,1627.2229719810002,None,1627.2229719810002,None,1628.2566587560013,None,1628.2566587560013,None,1628.2566587560013,None,1628.2566587560013,None,,,,,,,,,,,,,,,,,,,,,,,,,,,,,,,,,,,,,,,,,,,,001,62,2020_Feb_04_1156,spring_faces,3.1.5,59.988604085126795,
condition files/Stage1_2.xlsx,,B1,T1,c,"['c', 'm']","['Clue', 'Monopoly']","[-0.15, 0.5]","[0.15, 0.5]",1,1,,,,,,,,,0,11,11,11,0,7,7,0,,,,,,,,,,,,,,,,,,,,,,,,,,,,,,,,,,,,,,,,,,,,,,,,,,,,,,,1630.223027895001,None,1630.223027895001,None,1630.223027895001,None,c,1,0.9325642269996024,1631.7573409650013,None,1631.7573409650013,None,1631.7573409650013,None,1632.7559763860008,None,1632.7559763860008,None,1632.7559763860008,None,1632.7559763860008,None,,,,,,,,,,,,,,,,,,,,,,,,,,,,,,,,,,,,,,,,,,,,001,62,2020_Feb_04_1156,spring_faces,3.1.5,59.988604085126795,
,,,,,,,,,,,,,,,,,,,,,,,,,,,,,,,,,,,,,,,,,,,,,,,,,,,,,,,,,,,,,,,,,,,,,,,,,,,,,,,,,,,,,,,,,,,,,,,,,,,,,,,,,,,,,,,,1634.723333717,None,space,15.110604626999702,1639.7234010750017,None,,,,,,,,,,,,,,,,,,,,,,,,,,,,,,001,62,2020_Feb_04_1156,spring_faces,3.1.5,59.988604085126795,
condition files/Stage2_1.xlsx,,T1,B1,s,"['s', 'r']","['Stratego', 'Risk']","[-0.15, 0.5]","[0.15, 0.5]",1,1,,,,,,,,,,,,,,,,,0,0,0,0,0,0,0,2,,,,,,,,,,,,,,,,,,,,,,,,,,,,,,,,,,,,,,,,,,,,,,,1654.8893614960016,None,1654.8893614960016,None,1654.8893614960016,None,r,0,3.8515159729995503,1656.406377886,None,1656.406377886,None,1656.406377886,None,1660.3232440560005,None,1660.3232440560005,None,1660.3232440560005,None,1660.3232440560005,None,,,,,,,,,,,,,,,1639.7234010750017,None,,,,,,,,,,,,,,,,,,,,,,,,,,,,001,62,2020_Feb_04_1156,spring_faces,3.1.5,59.988604085126795,
condition files/Stage2_1.xlsx,,B4,T4,r,"['s', 'r']","['Stratego', 'Risk']","[-0.15, 0.5]","[0.15, 0.5]",1,1,,,,,,,,,,,,,,,,,0,0,0,0,0,1,1,5,,,,,,,,,,,,,,,,,,,,,,,,,,,,,,,,,,,,,,,,,,,,,,,1662.289718633001,None,1662.289718633001,None,1662.289718633001,None,r,1,1.778393259999575,1663.8235180580014,None,1663.8235180580014,None,1663.8235180580014,None,1665.6561528090006,None,1665.6561528090006,None,1665.6561528090006,None,1665.6561528090006,None,,,,,,,,,,,,,,,,,,,,,,,,,,,,,,,,,,,,,,,,,,,,001,62,2020_Feb_04_1156,spring_faces,3.1.5,59.988604085126795,
condition files/Stage2_1.xlsx,,T3,B3,s,"['s', 'r']","['Stratego', 'Risk']","[-0.15, 0.5]","[0.15, 0.5]",1,1,,,,,,,,,,,,,,,,,0,0,0,0,0,2,2,4,,,,,,,,,,,,,,,,,,,,,,,,,,,,,,,,,,,,,,,,,,,,,,,1667.6231211570012,None,1667.6231211570012,None,1667.6231211570012,None,s,1,0.8131952069998079,1669.1567815830003,None,1669.1567815830003,None,1669.1567815830003,None,1670.0229142000007,None,1670.0229142000007,None,1670.0229142000007,None,1670.0229142000007,None,,,,,,,,,,,,,,,,,,,,,,,,,,,,,,,,,,,,,,,,,,,,001,62,2020_Feb_04_1156,spring_faces,3.1.5,59.988604085126795,
condition files/Stage2_1.xlsx,,B2,T2,r,"['s', 'r']","['Stratego', 'Risk']","[-0.15, 0.5]","[0.15, 0.5]",1,1,,,,,,,,,,,,,,,,,0,0,0,0,0,3,3,3,,,,,,,,,,,,,,,,,,,,,,,,,,,,,,,,,,,,,,,,,,,,,,,1671.9899377420006,None,1671.9899377420006,None,1671.9899377420006,None,r,1,0.9103142530002515,1673.5396701650006,None,1673.5396701650006,None,1673.5396701650006,None,1674.5235517650017,None,1674.5235517650017,None,1674.5235517650017,None,1674.5235517650017,None,,,,,,,,,,,,,,,,,,,,,,,,,,,,,,,,,,,,,,,,,,,,001,62,2020_Feb_04_1156,spring_faces,3.1.5,59.988604085126795,
condition files/Stage2_1.xlsx,,T5,B5,s,"['s', 'r']","['Stratego', 'Risk']","[-0.15, 0.5]","[0.15, 0.5]",1,1,,,,,,,,,,,,,,,,,0,0,0,0,0,4,4,0,,,,,,,,,,,,,,,,,,,,,,,,,,,,,,,,,,,,,,,,,,,,,,,1676.4731584010005,None,1676.4731584010005,None,1676.4731584010005,None,s,1,1.659181978999186,1678.006827579,None,1678.006827579,None,1678.006827579,None,1679.725112764001,None,1679.725112764001,None,1679.725112764001,None,1679.725112764001,None,,,,,,,,,,,,,,,,,,,,,,,,,,,,,,,,,,,,,,,,,,,,001,62,2020_Feb_04_1156,spring_faces,3.1.5,59.988604085126795,
condition files/Stage2_1.xlsx,,B6,T6,r,"['s', 'r']","['Stratego', 'Risk']","[-0.15, 0.5]","[0.15, 0.5]",1,1,,,,,,,,,,,,,,,,,0,0,0,0,0,5,5,1,,,,,,,,,,,,,,,,,,,,,,,,,,,,,,,,,,,,,,,,,,,,,,,1681.689868409001,None,1681.689868409001,None,1681.689868409001,None,r,1,2.0267458599992096,1683.2232518090004,None,1683.2232518090004,None,1683.2232518090004,None,1685.3067929000008,None,1685.3067929000008,None,1685.3067929000008,None,1685.3067929000008,None,,,,,,,,,,,,,,,,,,,,,,,,,,,,,,,,,,,,,,,,,,,,001,62,2020_Feb_04_1156,spring_faces,3.1.5,59.988604085126795,
condition files/Stage2_2.xlsx,,T6,B6,r,"['s', 'r']","['Stratego', 'Risk']","[-0.15, 0.5]","[0.15, 0.5]",1,1,,,,,,,,,,,,,,,,,0,1,1,1,0,0,0,1,,,,,,,,,,,,,,,,,,,,,,,,,,,,,,,,,,,,,,,,,,,,,,,1687.2897227190006,None,1687.2897227190006,None,1687.2897227190006,None,r,1,1.2590750199997274,1688.8229431490017,None,1688.8229431490017,None,1688.8229431490017,None,1690.1395409840006,None,1690.1395409840006,None,1690.1395409840006,None,1690.1395409840006,None,,,,,,,,,,,,,,,,,,,,,,,,,,,,,,,,,,,,,,,,,,,,001,62,2020_Feb_04_1156,spring_faces,3.1.5,59.988604085126795,
condition files/Stage2_2.xlsx,,B5,T5,s,"['s', 'r']","['Stratego', 'Risk']","[-0.15, 0.5]","[0.15, 0.5]",1,1,,,,,,,,,,,,,,,,,0,1,1,1,0,1,1,0,,,,,,,,,,,,,,,,,,,,,,,,,,,,,,,,,,,,,,,,,,,,,,,1692.106390451001,None,1692.106390451001,None,1692.106390451001,None,s,1,1.239508503000252,1693.6424928730012,None,1693.6424928730012,None,1693.6424928730012,None,1694.9426886850015,None,1694.9426886850015,None,1694.9426886850015,None,1694.9426886850015,None,,,,,,,,,,,,,,,,,,,,,,,,,,,,,,,,,,,,,,,,,,,,001,62,2020_Feb_04_1156,spring_faces,3.1.5,59.988604085126795,
condition files/Stage2_2.xlsx,,T2,B2,r,"['s', 'r']","['Stratego', 'Risk']","[-0.15, 0.5]","[0.15, 0.5]",1,1,,,,,,,,,,,,,,,,,0,1,1,1,0,2,2,3,,,,,,,,,,,,,,,,,,,,,,,,,,,,,,,,,,,,,,,,,,,,,,,1696.9063810530006,None,1696.9063810530006,None,1696.9063810530006,None,r,1,8.857293052000387,1698.4407192960007,None,1698.4407192960007,None,1698.4407192960007,None,1707.3583959880016,None,1707.3583959880016,None,1707.3583959880016,None,1707.3583959880016,None,,,,,,,,,,,,,,,,,,,,,,,,,,,,,,,,,,,,,,,,,,,,001,62,2020_Feb_04_1156,spring_faces,3.1.5,59.988604085126795,
condition files/Stage2_2.xlsx,,B1,T1,s,"['s', 'r']","['Stratego', 'Risk']","[-0.15, 0.5]","[0.15, 0.5]",1,1,,,,,,,,,,,,,,,,,0,1,1,1,0,3,3,2,,,,,,,,,,,,,,,,,,,,,,,,,,,,,,,,,,,,,,,,,,,,,,,1709.3228337140008,None,1709.3228337140008,None,1709.3228337140008,None,s,1,1.047152866000033,1710.858785851,None,1710.858785851,None,1710.858785851,None,1711.9733318010003,None,1711.9733318010003,None,1711.9733318010003,None,1711.9733318010003,None,,,,,,,,,,,,,,,,,,,,,,,,,,,,,,,,,,,,,,,,,,,,001,62,2020_Feb_04_1156,spring_faces,3.1.5,59.988604085126795,
condition files/Stage2_2.xlsx,,T4,B4,r,"['s', 'r']","['Stratego', 'Risk']","[-0.15, 0.5]","[0.15, 0.5]",1,1,,,,,,,,,,,,,,,,,0,1,1,1,0,4,4,5,,,,,,,,,,,,,,,,,,,,,,,,,,,,,,,,,,,,,,,,,,,,,,,1713.9230617970006,None,1713.9230617970006,None,1713.9230617970006,None,r,1,1.6641514219991222,1715.4577917670013,None,1715.4577917670013,None,1715.4577917670013,None,1717.189424444001,None,1717.189424444001,None,1717.189424444001,None,1717.189424444001,None,,,,,,,,,,,,,,,,,,,,,,,,,,,,,,,,,,,,,,,,,,,,001,62,2020_Feb_04_1156,spring_faces,3.1.5,59.988604085126795,
condition files/Stage2_2.xlsx,,B3,T3,s,"['s', 'r']","['Stratego', 'Risk']","[-0.15, 0.5]","[0.15, 0.5]",1,1,,,,,,,,,,,,,,,,,0,1,1,1,0,5,5,4,,,,,,,,,,,,,,,,,,,,,,,,,,,,,,,,,,,,,,,,,,,,,,,1719.139807513,None,1719.139807513,None,1719.139807513,None,s,1,3.8404634069993335,1720.673546936001,None,1720.673546936001,None,1720.673546936001,None,1724.5736130550013,None,1724.5736130550013,None,1724.5736130550013,None,1724.5736130550013,None,,,,,,,,,,,,,,,,,,,,,,,,,,,,,,,,,,,,,,,,,,,,001,62,2020_Feb_04_1156,spring_faces,3.1.5,59.988604085126795,
condition files/Stage2_1.xlsx,,T5,B5,s,"['s', 'r']","['Stratego', 'Risk']","[-0.15, 0.5]","[0.15, 0.5]",1,1,,,,,,,,,,,,,,,,,0,2,2,2,0,0,0,0,,,,,,,,,,,,,,,,,,,,,,,,,,,,,,,,,,,,,,,,,,,,,,,1726.5563747620017,None,1726.5563747620017,None,1726.5563747620017,None,s,1,0.9994180190005864,1728.106518867,None,1728.106518867,None,1728.106518867,None,1729.1559761120006,None,1729.1559761120006,None,1729.1559761120006,None,1729.1559761120006,None,,,,,,,,,,,,,,,,,,,,,,,,,,,,,,,,,,,,,,,,,,,,001,62,2020_Feb_04_1156,spring_faces,3.1.5,59.988604085126795,
condition files/Stage2_1.xlsx,,B6,T6,r,"['s', 'r']","['Stratego', 'Risk']","[-0.15, 0.5]","[0.15, 0.5]",1,1,,,,,,,,,,,,,,,,,0,2,2,2,0,1,1,1,,,,,,,,,,,,,,,,,,,,,,,,,,,,,,,,,,,,,,,,,,,,,,,1731.1222411110011,None,1731.1222411110011,None,1731.1222411110011,None,r,1,1.5376572270015458,1732.656293864,None,1732.656293864,None,1732.656293864,None,1734.274043241001,None,1734.274043241001,None,1734.274043241001,None,1734.274043241001,None,,,,,,,,,,,,,,,,,,,,,,,,,,,,,,,,,,,,,,,,,,,,001,62,2020_Feb_04_1156,spring_faces,3.1.5,59.988604085126795,
condition files/Stage2_1.xlsx,,T3,B3,s,"['s', 'r']","['Stratego', 'Risk']","[-0.15, 0.5]","[0.15, 0.5]",1,1,,,,,,,,,,,,,,,,,0,2,2,2,0,2,2,4,,,,,,,,,,,,,,,,,,,,,,,,,,,,,,,,,,,,,,,,,,,,,,,1736.2232329340004,None,1736.2232329340004,None,1736.2232329340004,None,s,1,1.1235489459995733,1737.7584541020005,None,1737.7584541020005,None,1737.7584541020005,None,1738.9398970010006,None,1738.9398970010006,None,1738.9398970010006,None,1738.9398970010006,None,,,,,,,,,,,,,,,,,,,,,,,,,,,,,,,,,,,,,,,,,,,,001,62,2020_Feb_04_1156,spring_faces,3.1.5,59.988604085126795,
condition files/Stage2_1.xlsx,,T1,B1,s,"['s', 'r']","['Stratego', 'Risk']","[-0.15, 0.5]","[0.15, 0.5]",1,1,,,,,,,,,,,,,,,,,0,2,2,2,0,3,3,2,,,,,,,,,,,,,,,,,,,,,,,,,,,,,,,,,,,,,,,,,,,,,,,1740.9062822280011,None,1740.9062822280011,None,1740.9062822280011,None,s,1,0.8076191660002223,1742.4423988460003,None,1742.4423988460003,None,1742.4423988460003,None,1743.3063810800013,None,1743.3063810800013,None,1743.3063810800013,None,1743.3063810800013,None,,,,,,,,,,,,,,,,,,,,,,,,,,,,,,,,,,,,,,,,,,,,001,62,2020_Feb_04_1156,spring_faces,3.1.5,59.988604085126795,
condition files/Stage2_1.xlsx,,B4,T4,r,"['s', 'r']","['Stratego', 'Risk']","[-0.15, 0.5]","[0.15, 0.5]",1,1,,,,,,,,,,,,,,,,,0,2,2,2,0,4,4,5,,,,,,,,,,,,,,,,,,,,,,,,,,,,,,,,,,,,,,,,,,,,,,,1745.2735847560016,None,1745.2735847560016,None,1745.2735847560016,None,r,1,1.1141137369995704,1746.807823131001,None,1746.807823131001,None,1746.807823131001,None,1747.973337507001,None,1747.973337507001,None,1747.973337507001,None,1747.973337507001,None,,,,,,,,,,,,,,,,,,,,,,,,,,,,,,,,,,,,,,,,,,,,001,62,2020_Feb_04_1156,spring_faces,3.1.5,59.988604085126795,
condition files/Stage2_1.xlsx,,B2,T2,r,"['s', 'r']","['Stratego', 'Risk']","[-0.15, 0.5]","[0.15, 0.5]",1,1,,,,,,,,,,,,,,,,,0,2,2,2,0,5,5,3,,,,,,,,,,,,,,,,,,,,,,,,,,,,,,,,,,,,,,,,,,,,,,,1749.9398783300003,None,1749.9398783300003,None,1749.9398783300003,None,r,1,0.8648549859990453,1751.473077902001,None,1751.473077902001,None,1751.473077902001,None,1752.3899768740011,None,1752.3899768740011,None,1752.3899768740011,None,1752.3899768740011,None,,,,,,,,,,,,,,,,,,,,,,,,,,,,,,,,,,,,,,,,,,,,001,62,2020_Feb_04_1156,spring_faces,3.1.5,59.988604085126795,
condition files/Stage2_2.xlsx,,B3,T3,s,"['s', 'r']","['Stratego', 'Risk']","[-0.15, 0.5]","[0.15, 0.5]",1,1,,,,,,,,,,,,,,,,,0,3,3,3,0,0,0,4,,,,,,,,,,,,,,,,,,,,,,,,,,,,,,,,,,,,,,,,,,,,,,,1754.3729031470011,None,1754.3729031470011,None,1754.3729031470011,None,s,1,0.6393900309994933,1755.9066294460008,None,1755.9066294460008,None,1755.9066294460008,None,1756.6230990910008,None,1756.6230990910008,None,1756.6230990910008,None,1756.6230990910008,None,,,,,,,,,,,,,,,,,,,,,,,,,,,,,,,,,,,,,,,,,,,,001,62,2020_Feb_04_1156,spring_faces,3.1.5,59.988604085126795,
condition files/Stage2_2.xlsx,,B1,T1,s,"['s', 'r']","['Stratego', 'Risk']","[-0.15, 0.5]","[0.15, 0.5]",1,1,,,,,,,,,,,,,,,,,0,3,3,3,0,1,1,2,,,,,,,,,,,,,,,,,,,,,,,,,,,,,,,,,,,,,,,,,,,,,,,1758.5731363180003,None,1758.5731363180003,None,1758.5731363180003,None,s,1,1.0464595400007966,1760.1235671180002,None,1760.1235671180002,None,1760.1235671180002,None,1761.2230878320006,None,1761.2230878320006,None,1761.2230878320006,None,1761.2230878320006,None,,,,,,,,,,,,,,,,,,,,,,,,,,,,,,,,,,,,,,,,,,,,001,62,2020_Feb_04_1156,spring_faces,3.1.5,59.988604085126795,
condition files/Stage2_2.xlsx,,T6,B6,r,"['s', 'r']","['Stratego', 'Risk']","[-0.15, 0.5]","[0.15, 0.5]",1,1,,,,,,,,,,,,,,,,,0,3,3,3,0,2,2,1,,,,,,,,,,,,,,,,,,,,,,,,,,,,,,,,,,,,,,,,,,,,,,,1763.1897863940012,None,1763.1897863940012,None,1763.1897863940012,None,r,1,1.1665545329997258,1764.723359222,None,1764.723359222,None,1764.723359222,None,1765.9414438270014,None,1765.9414438270014,None,1765.9414438270014,None,1765.9414438270014,None,,,,,,,,,,,,,,,,,,,,,,,,,,,,,,,,,,,,,,,,,,,,001,62,2020_Feb_04_1156,spring_faces,3.1.5,59.988604085126795,
condition files/Stage2_2.xlsx,,T2,B2,r,"['s', 'r']","['Stratego', 'Risk']","[-0.15, 0.5]","[0.15, 0.5]",1,1,,,,,,,,,,,,,,,,,0,3,3,3,0,3,3,3,,,,,,,,,,,,,,,,,,,,,,,,,,,,,,,,,,,,,,,,,,,,,,,1767.9065018330002,None,1767.9065018330002,None,1767.9065018330002,None,r,1,1.2172164269995847,1769.4566605110012,None,1769.4566605110012,None,1769.4566605110012,None,1770.7393611030002,None,1770.7393611030002,None,1770.7393611030002,None,1770.7393611030002,None,,,,,,,,,,,,,,,,,,,,,,,,,,,,,,,,,,,,,,,,,,,,001,62,2020_Feb_04_1156,spring_faces,3.1.5,59.988604085126795,
condition files/Stage2_2.xlsx,,T4,B4,r,"['s', 'r']","['Stratego', 'Risk']","[-0.15, 0.5]","[0.15, 0.5]",1,1,,,,,,,,,,,,,,,,,0,3,3,3,0,4,4,5,,,,,,,,,,,,,,,,,,,,,,,,,,,,,,,,,,,,,,,,,,,,,,,1772.7064460070014,None,1772.7064460070014,None,1772.7064460070014,None,r,1,0.9782664929989551,1774.2396606340008,None,1774.2396606340008,None,1774.2396606340008,None,1775.2737093370015,None,1775.2737093370015,None,1775.2737093370015,None,1775.2737093370015,None,,,,,,,,,,,,,,,,,,,,,,,,,,,,,,,,,,,,,,,,,,,,001,62,2020_Feb_04_1156,spring_faces,3.1.5,59.988604085126795,
condition files/Stage2_2.xlsx,,B5,T5,s,"['s', 'r']","['Stratego', 'Risk']","[-0.15, 0.5]","[0.15, 0.5]",1,1,,,,,,,,,,,,,,,,,0,3,3,3,0,5,5,0,,,,,,,,,,,,,,,,,,,,,,,,,,,,,,,,,,,,,,,,,,,,,,,1777.239383737,None,1777.239383737,None,1777.239383737,None,s,1,0.6679110690001835,1778.7899868150016,None,1778.7899868150016,None,1778.7899868150016,None,1779.5249639030008,None,1779.5249639030008,None,1779.5249639030008,None,1779.5249639030008,None,,,,,,,,,,,,,,,,,,,,,,,,,,,,,,,,,,,,,,,,,,,,001,62,2020_Feb_04_1156,spring_faces,3.1.5,59.988604085126795,
condition files/Stage2_1.xlsx,,B4,T4,r,"['s', 'r']","['Stratego', 'Risk']","[-0.15, 0.5]","[0.15, 0.5]",1,1,,,,,,,,,,,,,,,,,0,4,4,4,0,0,0,5,,,,,,,,,,,,,,,,,,,,,,,,,,,,,,,,,,,,,,,,,,,,,,,1781.5069929070014,None,1781.5069929070014,None,1781.5069929070014,None,r,1,0.898227613999552,1783.0397210300016,None,1783.0397210300016,None,1783.0397210300016,None,1783.989717671,None,1783.989717671,None,1783.989717671,None,1783.989717671,None,,,,,,,,,,,,,,,,,,,,,,,,,,,,,,,,,,,,,,,,,,,,001,62,2020_Feb_04_1156,spring_faces,3.1.5,59.988604085126795,
condition files/Stage2_1.xlsx,,T1,B1,s,"['s', 'r']","['Stratego', 'Risk']","[-0.15, 0.5]","[0.15, 0.5]",1,1,,,,,,,,,,,,,,,,,0,4,4,4,0,1,1,2,,,,,,,,,,,,,,,,,,,,,,,,,,,,,,,,,,,,,,,,,,,,,,,1785.9563824630004,None,1785.9563824630004,None,1785.9563824630004,None,s,1,0.9431234780004161,1787.490887723001,None,1787.490887723001,None,1787.490887723001,None,1788.4910692380017,None,1788.4910692380017,None,1788.4910692380017,None,1788.4910692380017,None,,,,,,,,,,,,,,,,,,,,,,,,,,,,,,,,,,,,,,,,,,,,001,62,2020_Feb_04_1156,spring_faces,3.1.5,59.988604085126795,
