condsFile,subStage,cue1,cue2,correct,responseKeys,responseNames,cue1Position,cue2Position,cue1Opacity,cue2Opacity,stageLoop0.thisRepN,stageLoop0.thisTrialN,stageLoop0.thisN,stageLoop0.thisIndex,blockLoop0.thisRepN,blockLoop0.thisTrialN,blockLoop0.thisN,blockLoop0.thisIndex,stage1Loop.thisRepN,stage1Loop.thisTrialN,stage1Loop.thisN,stage1Loop.thisIndex,blockLoop1.thisRepN,blockLoop1.thisTrialN,blockLoop1.thisN,blockLoop1.thisIndex,stage2Loop.thisRepN,stage2Loop.thisTrialN,stage2Loop.thisN,stage2Loop.thisIndex,blockLoop2.thisRepN,blockLoop2.thisTrialN,blockLoop2.thisN,blockLoop2.thisIndex,testLoop.thisRepN,testLoop.thisTrialN,testLoop.thisN,testLoop.thisIndex,blockLoopTest.thisRepN,blockLoopTest.thisTrialN,blockLoopTest.thisN,blockLoopTest.thisIndex,cuePics,id_instr_text.started,id_instr_text.stopped,space_to_continue_2.started,space_to_continue_2.stopped,end_instructions_resp_3.keys,end_instructions_resp_3.rt,end_instructions_resp_3.started,end_instructions_resp_3.stopped,id_input_instr.started,id_input_instr.stopped,id_input_rect.started,id_input_rect.stopped,id_input_resp.keys,id_input_resp.rt,id_input_resp.started,id_input_resp.stopped,sonaID,id_input_text.started,id_input_text.stopped,final_text.started,final_text.stopped,instructions.started,instructions.stopped,end_instructions_resp.keys,end_instructions_resp.rt,end_instructions_resp.started,end_instructions_resp.stopped,space_to_continue.started,space_to_continue.stopped,instructions_stage0.started,instructions_stage0.stopped,end_instructions_resp_stage0.keys,end_instructions_resp_stage0.rt,end_instructions_resp_stage0.started,end_instructions_resp_stage0.stopped,space_to_continue_stage0.started,space_to_continue_stage0.stopped,text.started,text.stopped,resp_text1.started,resp_text1.stopped,resp_text2.started,resp_text2.stopped,trial_resp.keys,trial_resp.corr,trial_resp.rt,trial_resp.started,trial_resp.stopped,cue1Image.started,cue1Image.stopped,cue2Image.started,cue2Image.stopped,cue1Image_fb.started,cue1Image_fb.stopped,cue2Image_fb.started,cue2Image_fb.stopped,fb_text_answer.started,fb_text_answer.stopped,feedback_image.started,feedback_image.stopped,instructions_stage1.started,instructions_stage1.stopped,end_instructions_resp_stage1.keys,end_instructions_resp_stage1.rt,end_instructions_resp_stage1.started,end_instructions_resp_stage1.stopped,space_to_continue_stage1.started,space_to_continue_stage1.stopped,instructions_2.started,instructions_2.stopped,end_instructions_resp_2.keys,end_instructions_resp_2.rt,end_instructions_resp_2.started,end_instructions_resp_2.stopped,press_space_to_continue_stage2.started,press_space_to_continue_stage2.stopped,instructions_testStage1.started,instructions_testStage1.stopped,end_instructions_resp_test1.keys,end_instructions_resp_test1.rt,end_instructions_resp_test1.started,end_instructions_resp_test1.stopped,press_space_to_continue_test1.started,press_space_to_continue_test1.stopped,cue1Image_testChoice.started,cue1Image_testChoice.stopped,cue2Image_testChoice.started,cue2Image_testChoice.stopped,test_resp.keys,test_resp.corr,test_resp.rt,test_resp.started,test_resp.stopped,cue1Image_testConf.started,cue1Image_testConf.stopped,cue2Image_testConf.started,cue2Image_testConf.stopped,conf_reminder.started,conf_reminder.stopped,conf_rating.response,conf_rating.rt,conf_rating.started,conf_rating.stopped,session,participant,date,expName,psychopyVersion,frameRate,
,,,,,,,,,,,,,,,,,,,,,,,,,,,,,,,,,,,,,,,,,,,"{'none': 'pictures/20M_AN_C.png', 'alpha': 'pictures/SHINEd_melon.png', 'beta': 'pictures/SHINEd_pepper.png', 'theta': 'pictures/SHINEd_apple.png', 'phi': 'pictures/SHINEd_pear.png', 'T1': 'pictures/22M_AN_C.png', 'T2': 'pictures/33M_AN_C.png', 'T3': 'pictures/34M_AN_C.png', 'T4': 'pictures/36M_AN_C.png', 'T5': 'pictures/26M_AN_C.png', 'T6': 'pictures/20M_AN_C.png', 'B1': 'pictures/37M_NE_C.png', 'B2': 'pictures/23M_NE_C.png', 'B3': 'pictures/32M_NE_C.png', 'B4': 'pictures/31M_NE_C.png', 'B5': 'pictures/38M_NE_C.png', 'B6': 'pictures/25M_NE_C.png'}",11.314093233999301,None,16.297394051998708,None,space,45.77565745099855,16.297394051998708,None,,,,,,,,,,,,,,,,,,,,,,,,,,,,,,,,,,,,,,,,,,,,,,,,,,,,,,,,,,,,,,,,,,,,,,,,,,,,,,,,,,,,,,,,,,,,,,,,001,64,2020_Feb_04_1228,spring_faces,3.2.3,59.98607435266741,
,,,,,,,,,,,,,,,,,,,,,,,,,,,,,,,,,,,,,,,,,,,,,,,,,,,,62.56401939099851,None,62.56401939099851,None,"['0', '6', '1', '4', 's', 'u', 'n', 'o', 'r']","[20.181129202999728, 20.83699122500002, 32.21309325199945, 32.565140794999024, 38.82104353399882, 39.36514354099927, 54.80503427799886, 55.509051920000275, 55.989047168999605]",62.56401939099851,None,,,,,,,,,,,,,,,,,,,,,,,,,,,,,,,,,,,,,,,,,,,,,,,,,,,,,,,,,,,,,,,,,,,,,,,,,,,,,,,,,,,,,,,,001,64,2020_Feb_04_1228,spring_faces,3.2.3,59.98607435266741,
,,,,,,,,,,,,,,,,,,,,,,,,,,,,,,,,,,,,,,,,,,,,,,,,,,,,,,,,,,,,0614sunor,62.56401939099851,None,62.56401939099851,None,123.61406889599857,None,space,12.835527191999063,128.59742986799938,None,,,,,,,,,,,,,,,,,,,,,,,,,,,,,,,,,,,,,,,,,,,,,,,,,,,,,,,,,,,,,,,,,,,,,,,,,,,,,001,64,2020_Feb_04_1228,spring_faces,3.2.3,59.98607435266741,
,,,,,,,,,,,,,,,,,,,,,,,,,,,,,,,,,,,,,,,,,,,,,,,,,,,,,,,,,,,,,,,,,,,,,,,128.59742986799938,None,141.46413052299977,None,space,8.42563527099992,146.44741807899845,None,,,,,,,,,,,,,,,,,,,,,,,,,,,,,,,,,,,,,,,,,,,,,,,,,,,,,,,,,,,,,,,,,,,,,001,64,2020_Feb_04_1228,spring_faces,3.2.3,59.98607435266741,
condition files/Stage0a.xlsx,0a,alpha,none,h,"['h', 'g']","['Chess', 'Go']","[0, 0.5]","[0, 0]",1,0,0,0,0,0,0,0,0,0,,,,,,,,,,,,,,,,,,,,,,,,,,,,,,,,,,,,,,,,,,,,,,,,,,,,,,,,,,,,,146.44741807899845,None,154.980759733,None,154.980759733,None,154.980759733,None,h,1,4.579856881999149,156.61323633999928,None,156.61323633999928,None,156.61323633999928,None,161.29742743499992,None,161.29742743499992,None,161.29742743499992,None,161.29742743499992,None,,,,,,,,,,,,,,,,,,,,,,,,,,,,,,,,,,,,,,,,,,,,001,64,2020_Feb_04_1228,spring_faces,3.2.3,59.98607435266741,
condition files/Stage0a.xlsx,0a,beta,none,g,"['h', 'g']","['Chess', 'Go']","[0, 0.5]","[0, 0]",1,0,0,0,0,0,0,1,1,1,,,,,,,,,,,,,,,,,,,,,,,,,,,,,,,,,,,,,,,,,,,,,,,,,,,,,,,,,,,,,,,163.2307645109995,None,163.2307645109995,None,163.2307645109995,None,h,0,1.7409247750001668,164.76409280699954,None,164.76409280699954,None,164.76409280699954,None,166.58076094599892,None,166.58076094599892,None,166.58076094599892,None,166.58076094599892,None,,,,,,,,,,,,,,,,,,,,,,,,,,,,,,,,,,,,,,,,,,,,001,64,2020_Feb_04_1228,spring_faces,3.2.3,59.98607435266741,
condition files/Stage0a.xlsx,0a,beta,none,g,"['h', 'g']","['Chess', 'Go']","[0, 0.5]","[0, 0]",1,0,0,1,1,1,0,0,0,1,,,,,,,,,,,,,,,,,,,,,,,,,,,,,,,,,,,,,,,,,,,,,,,,,,,,,,,,,,,,,,,168.56410556599985,None,168.56410556599985,None,168.56410556599985,None,g,1,1.3835000789986225,170.0974281459985,None,170.0974281459985,None,170.0974281459985,None,171.54681591399822,None,171.54681591399822,None,171.54681591399822,None,171.54681591399822,None,,,,,,,,,,,,,,,,,,,,,,,,,,,,,,,,,,,,,,,,,,,,001,64,2020_Feb_04_1228,spring_faces,3.2.3,59.98607435266741,
condition files/Stage0a.xlsx,0a,alpha,none,h,"['h', 'g']","['Chess', 'Go']","[0, 0.5]","[0, 0]",1,0,0,1,1,1,0,1,1,0,,,,,,,,,,,,,,,,,,,,,,,,,,,,,,,,,,,,,,,,,,,,,,,,,,,,,,,,,,,,,,,173.53078520099916,None,173.53078520099916,None,173.53078520099916,None,h,1,1.4569171920011286,175.06411440299962,None,175.06411440299962,None,175.06411440299962,None,176.5806077849993,None,176.5806077849993,None,176.5806077849993,None,176.5806077849993,None,,,,,,,,,,,,,,,,,,,,,,,,,,,,,,,,,,,,,,,,,,,,001,64,2020_Feb_04_1228,spring_faces,3.2.3,59.98607435266741,
condition files/Stage0a.xlsx,0a,alpha,none,h,"['h', 'g']","['Chess', 'Go']","[0, 0.5]","[0, 0]",1,0,0,2,2,2,0,0,0,0,,,,,,,,,,,,,,,,,,,,,,,,,,,,,,,,,,,,,,,,,,,,,,,,,,,,,,,,,,,,,,,178.58075917099995,None,178.58075917099995,None,178.58075917099995,None,h,1,0.7429440899995825,180.11409958499826,None,180.11409958499826,None,180.11409958499826,None,180.91414257799988,None,180.91414257799988,None,180.91414257799988,None,180.91414257799988,None,,,,,,,,,,,,,,,,,,,,,,,,,,,,,,,,,,,,,,,,,,,,001,64,2020_Feb_04_1228,spring_faces,3.2.3,59.98607435266741,
condition files/Stage0a.xlsx,0a,beta,none,g,"['h', 'g']","['Chess', 'Go']","[0, 0.5]","[0, 0]",1,0,0,2,2,2,0,1,1,1,,,,,,,,,,,,,,,,,,,,,,,,,,,,,,,,,,,,,,,,,,,,,,,,,,,,,,,,,,,,,,,182.89741537099871,None,182.89741537099871,None,182.89741537099871,None,g,1,0.5703029750002315,184.43072740099888,None,184.43072740099888,None,184.43072740099888,None,185.06409014099881,None,185.06409014099881,None,185.06409014099881,None,185.06409014099881,None,,,,,,,,,,,,,,,,,,,,,,,,,,,,,,,,,,,,,,,,,,,,001,64,2020_Feb_04_1228,spring_faces,3.2.3,59.98607435266741,
condition files/Stage0a.xlsx,0a,alpha,none,h,"['h', 'g']","['Chess', 'Go']","[0, 0.5]","[0, 0]",1,0,0,3,3,3,0,0,0,0,,,,,,,,,,,,,,,,,,,,,,,,,,,,,,,,,,,,,,,,,,,,,,,,,,,,,,,,,,,,,,,187.06410053699983,None,187.06410053699983,None,187.06410053699983,None,h,1,0.6595979089997854,188.59744907599998,None,188.59744907599998,None,188.59744907599998,None,189.3307473119985,None,189.3307473119985,None,189.3307473119985,None,189.3307473119985,None,,,,,,,,,,,,,,,,,,,,,,,,,,,,,,,,,,,,,,,,,,,,001,64,2020_Feb_04_1228,spring_faces,3.2.3,59.98607435266741,
condition files/Stage0a.xlsx,0a,beta,none,g,"['h', 'g']","['Chess', 'Go']","[0, 0.5]","[0, 0]",1,0,0,3,3,3,0,1,1,1,,,,,,,,,,,,,,,,,,,,,,,,,,,,,,,,,,,,,,,,,,,,,,,,,,,,,,,,,,,,,,,191.29743148099988,None,191.29743148099988,None,191.29743148099988,None,g,1,0.666385550999621,192.83073873299873,None,192.83073873299873,None,192.83073873299873,None,193.56402544499906,None,193.56402544499906,None,193.56402544499906,None,193.56402544499906,None,,,,,,,,,,,,,,,,,,,,,,,,,,,,,,,,,,,,,,,,,,,,001,64,2020_Feb_04_1228,spring_faces,3.2.3,59.98607435266741,
condition files/Stage0a.xlsx,0a,beta,none,g,"['h', 'g']","['Chess', 'Go']","[0, 0.5]","[0, 0]",1,0,0,4,4,4,0,0,0,1,,,,,,,,,,,,,,,,,,,,,,,,,,,,,,,,,,,,,,,,,,,,,,,,,,,,,,,,,,,,,,,195.54737937999926,None,195.54737937999926,None,195.54737937999926,None,g,1,0.6722810639985255,197.08076422799968,None,197.08076422799968,None,197.08076422799968,None,197.8141161929998,None,197.8141161929998,None,197.8141161929998,None,197.8141161929998,None,,,,,,,,,,,,,,,,,,,,,,,,,,,,,,,,,,,,,,,,,,,,001,64,2020_Feb_04_1228,spring_faces,3.2.3,59.98607435266741,
condition files/Stage0a.xlsx,0a,alpha,none,h,"['h', 'g']","['Chess', 'Go']","[0, 0.5]","[0, 0]",1,0,0,4,4,4,0,1,1,0,,,,,,,,,,,,,,,,,,,,,,,,,,,,,,,,,,,,,,,,,,,,,,,,,,,,,,,,,,,,,,,199.7974371629989,None,199.7974371629989,None,199.7974371629989,None,h,1,0.5341848050011322,201.33075350199942,None,201.33075350199942,None,201.33075350199942,None,201.93069963299968,None,201.93069963299968,None,201.93069963299968,None,201.93069963299968,None,,,,,,,,,,,,,,,,,,,,,,,,,,,,,,,,,,,,,,,,,,,,001,64,2020_Feb_04_1228,spring_faces,3.2.3,59.98607435266741,
condition files/Stage0a.xlsx,0a,beta,none,g,"['h', 'g']","['Chess', 'Go']","[0, 0.5]","[0, 0]",1,0,0,5,5,5,0,0,0,1,,,,,,,,,,,,,,,,,,,,,,,,,,,,,,,,,,,,,,,,,,,,,,,,,,,,,,,,,,,,,,,203.93077157899825,None,203.93077157899825,None,203.93077157899825,None,g,1,0.544977771000049,205.46409606999987,None,205.46409606999987,None,205.46409606999987,None,206.08076349699877,None,206.08076349699877,None,206.08076349699877,None,206.08076349699877,None,,,,,,,,,,,,,,,,,,,,,,,,,,,,,,,,,,,,,,,,,,,,001,64,2020_Feb_04_1228,spring_faces,3.2.3,59.98607435266741,
condition files/Stage0a.xlsx,0a,alpha,none,h,"['h', 'g']","['Chess', 'Go']","[0, 0.5]","[0, 0]",1,0,0,5,5,5,0,1,1,0,,,,,,,,,,,,,,,,,,,,,,,,,,,,,,,,,,,,,,,,,,,,,,,,,,,,,,,,,,,,,,,208.0474416959987,None,208.0474416959987,None,208.0474416959987,None,h,1,0.5722491849992366,209.5807698789995,None,209.5807698789995,None,209.5807698789995,None,210.21408762599822,None,210.21408762599822,None,210.21408762599822,None,210.21408762599822,None,,,,,,,,,,,,,,,,,,,,,,,,,,,,,,,,,,,,,,,,,,,,001,64,2020_Feb_04_1228,spring_faces,3.2.3,59.98607435266741,
condition files/Stage0b_1.xlsx,0b,alpha,none,h,"['h', 'g']","['Chess', 'Go']","[-0.15, 0.5]","[0.15, 0.5]",1,0,0,6,6,6,0,0,0,0,,,,,,,,,,,,,,,,,,,,,,,,,,,,,,,,,,,,,,,,,,,,,,,,,,,,,,,,,,,,,,,212.2640698439991,None,212.2640698439991,None,212.2640698439991,None,h,1,0.5497058280016063,213.7474241739983,None,213.7474241739983,None,213.7474241739983,None,214.34737779399984,None,214.34737779399984,None,214.34737779399984,None,214.34737779399984,None,,,,,,,,,,,,,,,,,,,,,,,,,,,,,,,,,,,,,,,,,,,,001,64,2020_Feb_04_1228,spring_faces,3.2.3,59.98607435266741,
condition files/Stage0b_1.xlsx,0b,none,beta,g,"['h', 'g']","['Chess', 'Go']","[-0.15, 0.5]","[0.15, 0.5]",0,1,0,6,6,6,0,1,1,1,,,,,,,,,,,,,,,,,,,,,,,,,,,,,,,,,,,,,,,,,,,,,,,,,,,,,,,,,,,,,,,216.3306792689982,None,216.3306792689982,None,216.3306792689982,None,g,1,0.7695470180005941,217.86340121599824,None,217.86340121599824,None,217.86340121599824,None,218.713838878999,None,218.713838878999,None,218.713838878999,None,218.713838878999,None,,,,,,,,,,,,,,,,,,,,,,,,,,,,,,,,,,,,,,,,,,,,001,64,2020_Feb_04_1228,spring_faces,3.2.3,59.98607435266741,
condition files/Stage0b_2.xlsx,0b,beta,none,g,"['h', 'g']","['Chess', 'Go']","[-0.15, 0.5]","[0.15, 0.5]",1,0,0,7,7,7,0,0,0,1,,,,,,,,,,,,,,,,,,,,,,,,,,,,,,,,,,,,,,,,,,,,,,,,,,,,,,,,,,,,,,,221.16402380599902,None,221.16402380599902,None,221.16402380599902,None,g,1,0.9136803059991507,222.24741103299857,None,222.24741103299857,None,222.24741103299857,None,223.2307346029993,None,223.2307346029993,None,223.2307346029993,None,223.2307346029993,None,,,,,,,,,,,,,,,,,,,,,,,,,,,,,,,,,,,,,,,,,,,,001,64,2020_Feb_04_1228,spring_faces,3.2.3,59.98607435266741,
condition files/Stage0b_2.xlsx,0b,none,alpha,h,"['h', 'g']","['Chess', 'Go']","[-0.15, 0.5]","[0.15, 0.5]",0,1,0,7,7,7,0,1,1,0,,,,,,,,,,,,,,,,,,,,,,,,,,,,,,,,,,,,,,,,,,,,,,,,,,,,,,,,,,,,,,,225.19736425499832,None,225.19736425499832,None,225.19736425499832,None,h,1,0.6383329099990078,226.73070192199884,None,226.73070192199884,None,226.73070192199884,None,227.44744675799848,None,227.44744675799848,None,227.44744675799848,None,227.44744675799848,None,,,,,,,,,,,,,,,,,,,,,,,,,,,,,,,,,,,,,,,,,,,,001,64,2020_Feb_04_1228,spring_faces,3.2.3,59.98607435266741,
condition files/Stage0b_1.xlsx,0b,alpha,none,h,"['h', 'g']","['Chess', 'Go']","[-0.15, 0.5]","[0.15, 0.5]",1,0,0,8,8,8,0,0,0,0,,,,,,,,,,,,,,,,,,,,,,,,,,,,,,,,,,,,,,,,,,,,,,,,,,,,,,,,,,,,,,,229.4307510289982,None,229.4307510289982,None,229.4307510289982,None,h,1,0.581254478000119,230.96390996899936,None,230.96390996899936,None,230.96390996899936,None,231.59705475699957,None,231.59705475699957,None,231.59705475699957,None,231.59705475699957,None,,,,,,,,,,,,,,,,,,,,,,,,,,,,,,,,,,,,,,,,,,,,001,64,2020_Feb_04_1228,spring_faces,3.2.3,59.98607435266741,
condition files/Stage0b_1.xlsx,0b,none,beta,g,"['h', 'g']","['Chess', 'Go']","[-0.15, 0.5]","[0.15, 0.5]",0,1,0,8,8,8,0,1,1,1,,,,,,,,,,,,,,,,,,,,,,,,,,,,,,,,,,,,,,,,,,,,,,,,,,,,,,,,,,,,,,,233.58069773899842,None,233.58069773899842,None,233.58069773899842,None,g,1,0.7669278599987592,235.11405657199975,None,235.11405657199975,None,235.11405657199975,None,235.94736148899938,None,235.94736148899938,None,235.94736148899938,None,235.94736148899938,None,,,,,,,,,,,,,,,,,,,,,,,,,,,,,,,,,,,,,,,,,,,,001,64,2020_Feb_04_1228,spring_faces,3.2.3,59.98607435266741,
condition files/Stage0b_2.xlsx,0b,beta,none,g,"['h', 'g']","['Chess', 'Go']","[-0.15, 0.5]","[0.15, 0.5]",1,0,0,9,9,9,0,0,0,1,,,,,,,,,,,,,,,,,,,,,,,,,,,,,,,,,,,,,,,,,,,,,,,,,,,,,,,,,,,,,,,237.93070545099908,None,237.93070545099908,None,237.93070545099908,None,g,1,0.6091944500003592,239.4638698279996,None,239.4638698279996,None,239.4638698279996,None,240.1304791069997,None,240.1304791069997,None,240.1304791069997,None,240.1304791069997,None,,,,,,,,,,,,,,,,,,,,,,,,,,,,,,,,,,,,,,,,,,,,001,64,2020_Feb_04_1228,spring_faces,3.2.3,59.98607435266741,
condition files/Stage0b_2.xlsx,0b,none,alpha,h,"['h', 'g']","['Chess', 'Go']","[-0.15, 0.5]","[0.15, 0.5]",0,1,0,9,9,9,0,1,1,0,,,,,,,,,,,,,,,,,,,,,,,,,,,,,,,,,,,,,,,,,,,,,,,,,,,,,,,,,,,,,,,242.11410585499834,None,242.11410585499834,None,242.11410585499834,None,h,1,0.5215859039999486,243.64745594899978,None,243.64745594899978,None,243.64745594899978,None,244.24727392899877,None,244.24727392899877,None,244.24727392899877,None,244.24727392899877,None,,,,,,,,,,,,,,,,,,,,,,,,,,,,,,,,,,,,,,,,,,,,001,64,2020_Feb_04_1228,spring_faces,3.2.3,59.98607435266741,
condition files/Stage0b_1.xlsx,0b,alpha,none,h,"['h', 'g']","['Chess', 'Go']","[-0.15, 0.5]","[0.15, 0.5]",1,0,0,10,10,10,0,0,0,0,,,,,,,,,,,,,,,,,,,,,,,,,,,,,,,,,,,,,,,,,,,,,,,,,,,,,,,,,,,,,,,246.23073525699874,None,246.23073525699874,None,246.23073525699874,None,h,1,0.5812526280005841,247.7638953609985,None,247.7638953609985,None,247.7638953609985,None,248.39717024799938,None,248.39717024799938,None,248.39717024799938,None,248.39717024799938,None,,,,,,,,,,,,,,,,,,,,,,,,,,,,,,,,,,,,,,,,,,,,001,64,2020_Feb_04_1228,spring_faces,3.2.3,59.98607435266741,
condition files/Stage0b_1.xlsx,0b,none,beta,g,"['h', 'g']","['Chess', 'Go']","[-0.15, 0.5]","[0.15, 0.5]",0,1,0,10,10,10,0,1,1,1,,,,,,,,,,,,,,,,,,,,,,,,,,,,,,,,,,,,,,,,,,,,,,,,,,,,,,,,,,,,,,,250.38080036999963,None,250.38080036999963,None,250.38080036999963,None,g,1,0.575002849998782,251.91404057199907,None,251.91404057199907,None,251.91404057199907,None,252.5641449399991,None,252.5641449399991,None,252.5641449399991,None,252.5641449399991,None,,,,,,,,,,,,,,,,,,,,,,,,,,,,,,,,,,,,,,,,,,,,001,64,2020_Feb_04_1228,spring_faces,3.2.3,59.98607435266741,
condition files/Stage0b_2.xlsx,0b,beta,none,g,"['h', 'g']","['Chess', 'Go']","[-0.15, 0.5]","[0.15, 0.5]",1,0,0,11,11,11,0,0,0,1,,,,,,,,,,,,,,,,,,,,,,,,,,,,,,,,,,,,,,,,,,,,,,,,,,,,,,,,,,,,,,,254.5474240959993,None,254.5474240959993,None,254.5474240959993,None,g,1,0.5684335660007491,256.0805402679998,None,256.0805402679998,None,256.0805402679998,None,256.73076557699824,None,256.73076557699824,None,256.73076557699824,None,256.73076557699824,None,,,,,,,,,,,,,,,,,,,,,,,,,,,,,,,,,,,,,,,,,,,,001,64,2020_Feb_04_1228,spring_faces,3.2.3,59.98607435266741,
condition files/Stage0b_2.xlsx,0b,none,alpha,h,"['h', 'g']","['Chess', 'Go']","[-0.15, 0.5]","[0.15, 0.5]",0,1,0,11,11,11,0,1,1,0,,,,,,,,,,,,,,,,,,,,,,,,,,,,,,,,,,,,,,,,,,,,,,,,,,,,,,,,,,,,,,,258.69742793599835,None,258.69742793599835,None,258.69742793599835,None,h,1,0.5782565409990639,260.230777969,None,260.230777969,None,260.230777969,None,260.8807714639988,None,260.8807714639988,None,260.8807714639988,None,260.8807714639988,None,,,,,,,,,,,,,,,,,,,,,,,,,,,,,,,,,,,,,,,,,,,,001,64,2020_Feb_04_1228,spring_faces,3.2.3,59.98607435266741,
condition files/Stage0c_1.xlsx,0c,phi,beta,g,"['h', 'g']","['Chess', 'Go']","[-0.15, 0.5]","[0.15, 0.5]",1,1,0,12,12,12,0,0,0,3,,,,,,,,,,,,,,,,,,,,,,,,,,,,,,,,,,,,,,,,,,,,,,,,,,,,,,,,,,,,,,,263.16403154,None,263.16403154,None,263.16403154,None,g,1,2.3782192670005315,264.430805512,None,264.430805512,None,264.430805512,None,266.8640390649998,None,266.8640390649998,None,266.8640390649998,None,266.8640390649998,None,,,,,,,,,,,,,,,,,,,,,,,,,,,,,,,,,,,,,,,,,,,,001,64,2020_Feb_04_1228,spring_faces,3.2.3,59.98607435266741,
condition files/Stage0c_1.xlsx,0c,alpha,phi,h,"['h', 'g']","['Chess', 'Go']","[-0.15, 0.5]","[0.15, 0.5]",1,1,0,12,12,12,0,1,1,1,,,,,,,,,,,,,,,,,,,,,,,,,,,,,,,,,,,,,,,,,,,,,,,,,,,,,,,,,,,,,,,268.8474142159994,None,268.8474142159994,None,268.8474142159994,None,h,1,1.724355929000012,270.3806963449988,None,270.3806963449988,None,270.3806963449988,None,272.16411264199996,None,272.16411264199996,None,272.16411264199996,None,272.16411264199996,None,,,,,,,,,,,,,,,,,,,,,,,,,,,,,,,,,,,,,,,,,,,,001,64,2020_Feb_04_1228,spring_faces,3.2.3,59.98607435266741,
condition files/Stage0c_1.xlsx,0c,theta,alpha,h,"['h', 'g']","['Chess', 'Go']","[-0.15, 0.5]","[0.15, 0.5]",1,1,0,12,12,12,0,2,2,0,,,,,,,,,,,,,,,,,,,,,,,,,,,,,,,,,,,,,,,,,,,,,,,,,,,,,,,,,,,,,,,274.1474036499985,None,274.1474036499985,None,274.1474036499985,None,h,1,1.5429473639997013,275.7140804469982,None,275.7140804469982,None,275.7140804469982,None,277.31407931799913,None,277.31407931799913,None,277.31407931799913,None,277.31407931799913,None,,,,,,,,,,,,,,,,,,,,,,,,,,,,,,,,,,,,,,,,,,,,001,64,2020_Feb_04_1228,spring_faces,3.2.3,59.98607435266741,
condition files/Stage0c_1.xlsx,0c,beta,theta,g,"['h', 'g']","['Chess', 'Go']","[-0.15, 0.5]","[0.15, 0.5]",1,1,0,12,12,12,0,3,3,2,,,,,,,,,,,,,,,,,,,,,,,,,,,,,,,,,,,,,,,,,,,,,,,,,,,,,,,,,,,,,,,279.29745616499895,None,279.29745616499895,None,279.29745616499895,None,g,1,0.8103020159996959,280.8307817779987,None,280.8307817779987,None,280.8307817779987,None,281.697345134,None,281.697345134,None,281.697345134,None,281.697345134,None,,,,,,,,,,,,,,,,,,,,,,,,,,,,,,,,,,,,,,,,,,,,001,64,2020_Feb_04_1228,spring_faces,3.2.3,59.98607435266741,
condition files/Stage0c_2.xlsx,0c,phi,alpha,h,"['h', 'g']","['Chess', 'Go']","[-0.15, 0.5]","[0.15, 0.5]",1,1,0,13,13,13,0,0,0,1,,,,,,,,,,,,,,,,,,,,,,,,,,,,,,,,,,,,,,,,,,,,,,,,,,,,,,,,,,,,,,,283.7307413059989,None,283.7307413059989,None,283.7307413059989,None,h,1,1.5793640200008667,285.2137201359983,None,285.2137201359983,None,285.2137201359983,None,286.84740571699876,None,286.84740571699876,None,286.84740571699876,None,286.84740571699876,None,,,,,,,,,,,,,,,,,,,,,,,,,,,,,,,,,,,,,,,,,,,,001,64,2020_Feb_04_1228,spring_faces,3.2.3,59.98607435266741,
condition files/Stage0c_2.xlsx,0c,alpha,theta,h,"['h', 'g']","['Chess', 'Go']","[-0.15, 0.5]","[0.15, 0.5]",1,1,0,13,13,13,0,1,1,0,,,,,,,,,,,,,,,,,,,,,,,,,,,,,,,,,,,,,,,,,,,,,,,,,,,,,,,,,,,,,,,288.8307926869984,None,288.8307926869984,None,288.8307926869984,None,h,1,0.925756034999722,290.34729512399826,None,290.34729512399826,None,290.34729512399826,None,291.33075988699966,None,291.33075988699966,None,291.33075988699966,None,291.33075988699966,None,,,,,,,,,,,,,,,,,,,,,,,,,,,,,,,,,,,,,,,,,,,,001,64,2020_Feb_04_1228,spring_faces,3.2.3,59.98607435266741,
condition files/Stage0c_2.xlsx,0c,beta,phi,g,"['h', 'g']","['Chess', 'Go']","[-0.15, 0.5]","[0.15, 0.5]",1,1,0,13,13,13,0,2,2,3,,,,,,,,,,,,,,,,,,,,,,,,,,,,,,,,,,,,,,,,,,,,,,,,,,,,,,,,,,,,,,,293.3141286279988,None,293.3141286279988,None,293.3141286279988,None,g,1,0.7464566549988376,294.83061216499846,None,294.83061216499846,None,294.83061216499846,None,295.63076510099927,None,295.63076510099927,None,295.63076510099927,None,295.63076510099927,None,,,,,,,,,,,,,,,,,,,,,,,,,,,,,,,,,,,,,,,,,,,,001,64,2020_Feb_04_1228,spring_faces,3.2.3,59.98607435266741,
condition files/Stage0c_2.xlsx,0c,theta,beta,g,"['h', 'g']","['Chess', 'Go']","[-0.15, 0.5]","[0.15, 0.5]",1,1,0,13,13,13,0,3,3,2,,,,,,,,,,,,,,,,,,,,,,,,,,,,,,,,,,,,,,,,,,,,,,,,,,,,,,,,,,,,,,,297.6140758439997,None,297.6140758439997,None,297.6140758439997,None,g,1,1.8063420229991607,299.13067628599856,None,299.13067628599856,None,299.13067628599856,None,300.9974259319988,None,300.9974259319988,None,300.9974259319988,None,300.9974259319988,None,,,,,,,,,,,,,,,,,,,,,,,,,,,,,,,,,,,,,,,,,,,,001,64,2020_Feb_04_1228,spring_faces,3.2.3,59.98607435266741,
condition files/Stage0c_1.xlsx,0c,beta,theta,g,"['h', 'g']","['Chess', 'Go']","[-0.15, 0.5]","[0.15, 0.5]",1,1,0,14,14,14,0,0,0,2,,,,,,,,,,,,,,,,,,,,,,,,,,,,,,,,,,,,,,,,,,,,,,,,,,,,,,,,,,,,,,,302.99730686699877,None,302.99730686699877,None,302.99730686699877,None,g,1,0.8229172680003103,304.51411830599864,None,304.51411830599864,None,304.51411830599864,None,305.3974254319983,None,305.3974254319983,None,305.3974254319983,None,305.3974254319983,None,,,,,,,,,,,,,,,,,,,,,,,,,,,,,,,,,,,,,,,,,,,,001,64,2020_Feb_04_1228,spring_faces,3.2.3,59.98607435266741,
condition files/Stage0c_1.xlsx,0c,phi,beta,g,"['h', 'g']","['Chess', 'Go']","[-0.15, 0.5]","[0.15, 0.5]",1,1,0,14,14,14,0,1,1,3,,,,,,,,,,,,,,,,,,,,,,,,,,,,,,,,,,,,,,,,,,,,,,,,,,,,,,,,,,,,,,,307.3807989849993,None,307.3807989849993,None,307.3807989849993,None,g,1,0.9036541490004311,308.89735019199907,None,308.89735019199907,None,308.89735019199907,None,309.86410845999853,None,309.86410845999853,None,309.86410845999853,None,309.86410845999853,None,,,,,,,,,,,,,,,,,,,,,,,,,,,,,,,,,,,,,,,,,,,,001,64,2020_Feb_04_1228,spring_faces,3.2.3,59.98607435266741,
condition files/Stage0c_1.xlsx,0c,theta,alpha,h,"['h', 'g']","['Chess', 'Go']","[-0.15, 0.5]","[0.15, 0.5]",1,1,0,14,14,14,0,2,2,0,,,,,,,,,,,,,,,,,,,,,,,,,,,,,,,,,,,,,,,,,,,,,,,,,,,,,,,,,,,,,,,311.8474336829986,None,311.8474336829986,None,311.8474336829986,None,h,1,1.6848872509999637,313.36405153099986,None,313.36405153099986,None,313.36405153099986,None,315.1140596189998,None,315.1140596189998,None,315.1140596189998,None,315.1140596189998,None,,,,,,,,,,,,,,,,,,,,,,,,,,,,,,,,,,,,,,,,,,,,001,64,2020_Feb_04_1228,spring_faces,3.2.3,59.98607435266741,
condition files/Stage0c_1.xlsx,0c,alpha,phi,h,"['h', 'g']","['Chess', 'Go']","[-0.15, 0.5]","[0.15, 0.5]",1,1,0,14,14,14,0,3,3,1,,,,,,,,,,,,,,,,,,,,,,,,,,,,,,,,,,,,,,,,,,,,,,,,,,,,,,,,,,,,,,,317.0972965819983,None,317.0972965819983,None,317.0972965819983,None,h,1,1.2823611679996247,318.6307616219983,None,318.6307616219983,None,318.6307616219983,None,319.9640688949985,None,319.9640688949985,None,319.9640688949985,None,319.9640688949985,None,,,,,,,,,,,,,,,,,,,,,,,,,,,,,,,,,,,,,,,,,,,,001,64,2020_Feb_04_1228,spring_faces,3.2.3,59.98607435266741,
condition files/Stage0c_2.xlsx,0c,alpha,theta,h,"['h', 'g']","['Chess', 'Go']","[-0.15, 0.5]","[0.15, 0.5]",1,1,0,15,15,15,0,0,0,0,,,,,,,,,,,,,,,,,,,,,,,,,,,,,,,,,,,,,,,,,,,,,,,,,,,,,,,,,,,,,,,321.9640635279993,None,321.9640635279993,None,321.9640635279993,None,h,1,0.6235877489998529,323.4974072669993,None,323.4974072669993,None,323.4974072669993,None,324.1806813959993,None,324.1806813959993,None,324.1806813959993,None,324.1806813959993,None,,,,,,,,,,,,,,,,,,,,,,,,,,,,,,,,,,,,,,,,,,,,001,64,2020_Feb_04_1228,spring_faces,3.2.3,59.98607435266741,
condition files/Stage0c_2.xlsx,0c,theta,beta,g,"['h', 'g']","['Chess', 'Go']","[-0.15, 0.5]","[0.15, 0.5]",1,1,0,15,15,15,0,1,1,2,,,,,,,,,,,,,,,,,,,,,,,,,,,,,,,,,,,,,,,,,,,,,,,,,,,,,,,,,,,,,,,326.16407790499943,None,326.16407790499943,None,326.16407790499943,None,g,1,0.5202527620003821,327.6807542099996,None,327.6807542099996,None,327.6807542099996,None,328.26413514699925,None,328.26413514699925,None,328.26413514699925,None,328.26413514699925,None,,,,,,,,,,,,,,,,,,,,,,,,,,,,,,,,,,,,,,,,,,,,001,64,2020_Feb_04_1228,spring_faces,3.2.3,59.98607435266741,
condition files/Stage0c_2.xlsx,0c,beta,phi,g,"['h', 'g']","['Chess', 'Go']","[-0.15, 0.5]","[0.15, 0.5]",1,1,0,15,15,15,0,2,2,3,,,,,,,,,,,,,,,,,,,,,,,,,,,,,,,,,,,,,,,,,,,,,,,,,,,,,,,,,,,,,,,330.2474432399995,None,330.2474432399995,None,330.2474432399995,None,g,1,0.8850253239997983,331.76391589599916,None,331.76391589599916,None,331.76391589599916,None,332.71406461699917,None,332.71406461699917,None,332.71406461699917,None,332.71406461699917,None,,,,,,,,,,,,,,,,,,,,,,,,,,,,,,,,,,,,,,,,,,,,001,64,2020_Feb_04_1228,spring_faces,3.2.3,59.98607435266741,
condition files/Stage0c_2.xlsx,0c,phi,alpha,h,"['h', 'g']","['Chess', 'Go']","[-0.15, 0.5]","[0.15, 0.5]",1,1,0,15,15,15,0,3,3,1,,,,,,,,,,,,,,,,,,,,,,,,,,,,,,,,,,,,,,,,,,,,,,,,,,,,,,,,,,,,,,,334.7140380559995,None,334.7140380559995,None,334.7140380559995,None,h,1,0.9624365290001151,336.23062562799896,None,336.23062562799896,None,336.23062562799896,None,337.24733179899886,None,337.24733179899886,None,337.24733179899886,None,337.24733179899886,None,,,,,,,,,,,,,,,,,,,,,,,,,,,,,,,,,,,,,,,,,,,,001,64,2020_Feb_04_1228,spring_faces,3.2.3,59.98607435266741,
condition files/Stage0c_1.xlsx,0c,beta,theta,g,"['h', 'g']","['Chess', 'Go']","[-0.15, 0.5]","[0.15, 0.5]",1,1,0,16,16,16,0,0,0,2,,,,,,,,,,,,,,,,,,,,,,,,,,,,,,,,,,,,,,,,,,,,,,,,,,,,,,,,,,,,,,,339.24741473299946,None,339.24741473299946,None,339.24741473299946,None,g,1,0.62034527600008,340.78069586499987,None,340.78069586499987,None,340.78069586499987,None,341.4640479459995,None,341.4640479459995,None,341.4640479459995,None,341.4640479459995,None,,,,,,,,,,,,,,,,,,,,,,,,,,,,,,,,,,,,,,,,,,,,001,64,2020_Feb_04_1228,spring_faces,3.2.3,59.98607435266741,
condition files/Stage0c_1.xlsx,0c,phi,beta,g,"['h', 'g']","['Chess', 'Go']","[-0.15, 0.5]","[0.15, 0.5]",1,1,0,16,16,16,0,1,1,3,,,,,,,,,,,,,,,,,,,,,,,,,,,,,,,,,,,,,,,,,,,,,,,,,,,,,,,,,,,,,,,343.44743782599835,None,343.44743782599835,None,343.44743782599835,None,g,1,0.7242680819999805,344.98076018499887,None,344.98076018499887,None,344.98076018499887,None,345.76410190799834,None,345.76410190799834,None,345.76410190799834,None,345.76410190799834,None,,,,,,,,,,,,,,,,,,,,,,,,,,,,,,,,,,,,,,,,,,,,001,64,2020_Feb_04_1228,spring_faces,3.2.3,59.98607435266741,
condition files/Stage0c_1.xlsx,0c,alpha,phi,h,"['h', 'g']","['Chess', 'Go']","[-0.15, 0.5]","[0.15, 0.5]",1,1,0,16,16,16,0,2,2,1,,,,,,,,,,,,,,,,,,,,,,,,,,,,,,,,,,,,,,,,,,,,,,,,,,,,,,,,,,,,,,,347.74743694899917,None,347.74743694899917,None,347.74743694899917,None,h,1,1.209204853999836,349.26386238099985,None,349.26386238099985,None,349.26386238099985,None,350.53079155999876,None,350.53079155999876,None,350.53079155999876,None,350.53079155999876,None,,,,,,,,,,,,,,,,,,,,,,,,,,,,,,,,,,,,,,,,,,,,001,64,2020_Feb_04_1228,spring_faces,3.2.3,59.98607435266741,
condition files/Stage0c_1.xlsx,0c,theta,alpha,h,"['h', 'g']","['Chess', 'Go']","[-0.15, 0.5]","[0.15, 0.5]",1,1,0,16,16,16,0,3,3,0,,,,,,,,,,,,,,,,,,,,,,,,,,,,,,,,,,,,,,,,,,,,,,,,,,,,,,,,,,,,,,,352.5141247979991,None,352.5141247979991,None,352.5141247979991,None,h,1,0.7144005589998415,354.0306979349989,None,354.0306979349989,None,354.0306979349989,None,354.7974084969992,None,354.7974084969992,None,354.7974084969992,None,354.7974084969992,None,,,,,,,,,,,,,,,,,,,,,,,,,,,,,,,,,,,,,,,,,,,,001,64,2020_Feb_04_1228,spring_faces,3.2.3,59.98607435266741,
condition files/Stage0c_2.xlsx,0c,alpha,theta,h,"['h', 'g']","['Chess', 'Go']","[-0.15, 0.5]","[0.15, 0.5]",1,1,0,17,17,17,0,0,0,0,,,,,,,,,,,,,,,,,,,,,,,,,,,,,,,,,,,,,,,,,,,,,,,,,,,,,,,,,,,,,,,356.79745006399935,None,356.79745006399935,None,356.79745006399935,None,h,1,0.5903262710016861,358.33070522699927,None,358.33070522699927,None,358.33070522699927,None,358.98077084799843,None,358.98077084799843,None,358.98077084799843,None,358.98077084799843,None,,,,,,,,,,,,,,,,,,,,,,,,,,,,,,,,,,,,,,,,,,,,001,64,2020_Feb_04_1228,spring_faces,3.2.3,59.98607435266741,
condition files/Stage0c_2.xlsx,0c,beta,phi,g,"['h', 'g']","['Chess', 'Go']","[-0.15, 0.5]","[0.15, 0.5]",1,1,0,17,17,17,0,1,1,3,,,,,,,,,,,,,,,,,,,,,,,,,,,,,,,,,,,,,,,,,,,,,,,,,,,,,,,,,,,,,,,360.96409215199856,None,360.96409215199856,None,360.96409215199856,None,g,1,0.6804711309996492,362.48061537799913,None,362.48061537799913,None,362.48061537799913,None,363.2140847669998,None,363.2140847669998,None,363.2140847669998,None,363.2140847669998,None,,,,,,,,,,,,,,,,,,,,,,,,,,,,,,,,,,,,,,,,,,,,001,64,2020_Feb_04_1228,spring_faces,3.2.3,59.98607435266741,
condition files/Stage0c_2.xlsx,0c,theta,beta,g,"['h', 'g']","['Chess', 'Go']","[-0.15, 0.5]","[0.15, 0.5]",1,1,0,17,17,17,0,2,2,2,,,,,,,,,,,,,,,,,,,,,,,,,,,,,,,,,,,,,,,,,,,,,,,,,,,,,,,,,,,,,,,365.19739565299824,None,365.19739565299824,None,365.19739565299824,None,g,1,0.639066718000322,366.7139652959995,None,366.7139652959995,None,366.7139652959995,None,367.4141447189995,None,367.4141447189995,None,367.4141447189995,None,367.4141447189995,None,,,,,,,,,,,,,,,,,,,,,,,,,,,,,,,,,,,,,,,,,,,,001,64,2020_Feb_04_1228,spring_faces,3.2.3,59.98607435266741,
condition files/Stage0c_2.xlsx,0c,phi,alpha,h,"['h', 'g']","['Chess', 'Go']","[-0.15, 0.5]","[0.15, 0.5]",1,1,0,17,17,17,0,3,3,1,,,,,,,,,,,,,,,,,,,,,,,,,,,,,,,,,,,,,,,,,,,,,,,,,,,,,,,,,,,,,,,369.39742333999857,None,369.39742333999857,None,369.39742333999857,None,h,1,0.9343453669989685,370.93061605899857,None,370.93061605899857,None,370.93061605899857,None,371.94743502099846,None,371.94743502099846,None,371.94743502099846,None,371.94743502099846,None,,,,,,,,,,,,,,,,,,,,,,,,,,,,,,,,,,,,,,,,,,,,001,64,2020_Feb_04_1228,spring_faces,3.2.3,59.98607435266741,
,,,,,,,,,,,,,,,,,,,,,,,,,,,,,,,,,,,,,,,,,,,,,,,,,,,,,,,,,,,,,,,,,,,,,,,,,,,,,,,,,,,,,,,,,,,,,,,,,,,,,,,,373.91404136799974,None,space,6.999567625000054,378.8974340219993,None,,,,,,,,,,,,,,,,,,,,,,,,,,,,,,,,,,,,,,001,64,2020_Feb_04_1228,spring_faces,3.2.3,59.98607435266741,
condition files/Stage1_1.xlsx,,T3,B4,c,"['c', 'm']","['Clue', 'Monopoly']","[-0.15, 0.5]","[0.15, 0.5]",1,1,,,,,,,,,0,0,0,0,0,0,0,5,,,,,,,,,,,,,,,,,,,,,,,,,,,,,,,,,,,,,,,,,,,,,,,,,,,,,,,385.9973550629984,None,385.9973550629984,None,385.9973550629984,None,c,1,3.0870156019991555,387.51404396699945,None,387.51404396699945,None,387.51404396699945,None,390.6972984819986,None,390.6972984819986,None,390.6972984819986,None,390.6972984819986,None,,,,,,,378.8974340219993,None,,,,,,,,,,,,,,,,,,,,,,,,,,,,,,,,,,,,001,64,2020_Feb_04_1228,spring_faces,3.2.3,59.98607435266741,
condition files/Stage1_1.xlsx,,T4,B3,m,"['c', 'm']","['Clue', 'Monopoly']","[-0.15, 0.5]","[0.15, 0.5]",1,1,,,,,,,,,0,0,0,0,0,1,1,6,,,,,,,,,,,,,,,,,,,,,,,,,,,,,,,,,,,,,,,,,,,,,,,,,,,,,,,392.64744085099846,None,392.64744085099846,None,392.64744085099846,None,m,1,1.4103024409996578,394.23074102699866,None,394.23074102699866,None,394.23074102699866,None,395.71407760799957,None,395.71407760799957,None,395.71407760799957,None,395.71407760799957,None,,,,,,,,,,,,,,,,,,,,,,,,,,,,,,,,,,,,,,,,,,,,001,64,2020_Feb_04_1228,spring_faces,3.2.3,59.98607435266741,
condition files/Stage1_1.xlsx,,T2,B2,m,"['c', 'm']","['Clue', 'Monopoly']","[-0.15, 0.5]","[0.15, 0.5]",1,1,,,,,,,,,0,0,0,0,0,2,2,3,,,,,,,,,,,,,,,,,,,,,,,,,,,,,,,,,,,,,,,,,,,,,,,,,,,,,,,397.680757443999,None,397.680757443999,None,397.680757443999,None,c,0,3.0015428320002684,399.24740619399927,None,399.24740619399927,None,399.24740619399927,None,402.3139975109989,None,402.3139975109989,None,402.3139975109989,None,402.3139975109989,None,,,,,,,,,,,,,,,,,,,,,,,,,,,,,,,,,,,,,,,,,,,,001,64,2020_Feb_04_1228,spring_faces,3.2.3,59.98607435266741,
condition files/Stage1_1.xlsx,,B1,T2,c,"['c', 'm']","['Clue', 'Monopoly']","[-0.15, 0.5]","[0.15, 0.5]",1,1,,,,,,,,,0,0,0,0,0,3,3,1,,,,,,,,,,,,,,,,,,,,,,,,,,,,,,,,,,,,,,,,,,,,,,,,,,,,,,,404.2973236979997,None,404.2973236979997,None,404.2973236979997,None,m,0,1.8902775369988376,405.83075958299924,None,405.83075958299924,None,405.83075958299924,None,407.79740406899873,None,407.79740406899873,None,407.79740406899873,None,407.79740406899873,None,,,,,,,,,,,,,,,,,,,,,,,,,,,,,,,,,,,,,,,,,,,,001,64,2020_Feb_04_1228,spring_faces,3.2.3,59.98607435266741,
condition files/Stage1_1.xlsx,,B4,T4,m,"['c', 'm']","['Clue', 'Monopoly']","[-0.15, 0.5]","[0.15, 0.5]",1,1,,,,,,,,,0,0,0,0,0,4,4,7,,,,,,,,,,,,,,,,,,,,,,,,,,,,,,,,,,,,,,,,,,,,,,,,,,,,,,,409.76410651699916,None,409.76410651699916,None,409.76410651699916,None,c,0,2.423611849999361,411.2974150809987,None,411.2974150809987,None,411.2974150809987,None,413.7974370189986,None,413.7974370189986,None,413.7974370189986,None,413.7974370189986,None,,,,,,,,,,,,,,,,,,,,,,,,,,,,,,,,,,,,,,,,,,,,001,64,2020_Feb_04_1228,spring_faces,3.2.3,59.98607435266741,
condition files/Stage1_1.xlsx,,T1,B1,c,"['c', 'm']","['Clue', 'Monopoly']","[-0.15, 0.5]","[0.15, 0.5]",1,1,,,,,,,,,0,0,0,0,0,5,5,0,,,,,,,,,,,,,,,,,,,,,,,,,,,,,,,,,,,,,,,,,,,,,,,,,,,,,,,415.7641262199995,None,415.7641262199995,None,415.7641262199995,None,m,0,1.1629698529995949,417.61410145599984,None,417.61410145599984,None,417.61410145599984,None,418.84740973299995,None,418.84740973299995,None,418.84740973299995,None,418.84740973299995,None,,,,,,,,,,,,,,,,,,,,,,,,,,,,,,,,,,,,,,,,,,,,001,64,2020_Feb_04_1228,spring_faces,3.2.3,59.98607435266741,
condition files/Stage1_1.xlsx,,B3,T3,c,"['c', 'm']","['Clue', 'Monopoly']","[-0.15, 0.5]","[0.15, 0.5]",1,1,,,,,,,,,0,0,0,0,0,6,6,4,,,,,,,,,,,,,,,,,,,,,,,,,,,,,,,,,,,,,,,,,,,,,,,,,,,,,,,420.8141097969983,None,420.8141097969983,None,420.8141097969983,None,m,0,1.7256088430003729,422.3474188209984,None,422.3474188209984,None,422.3474188209984,None,424.13080595999963,None,424.13080595999963,None,424.13080595999963,None,424.13080595999963,None,,,,,,,,,,,,,,,,,,,,,,,,,,,,,,,,,,,,,,,,,,,,001,64,2020_Feb_04_1228,spring_faces,3.2.3,59.98607435266741,
condition files/Stage1_1.xlsx,,B2,T1,m,"['c', 'm']","['Clue', 'Monopoly']","[-0.15, 0.5]","[0.15, 0.5]",1,1,,,,,,,,,0,0,0,0,0,7,7,2,,,,,,,,,,,,,,,,,,,,,,,,,,,,,,,,,,,,,,,,,,,,,,,,,,,,,,,426.1141094099985,None,426.1141094099985,None,426.1141094099985,None,m,1,1.2096369509999931,427.64740857299876,None,427.64740857299876,None,427.64740857299876,None,428.93074126899955,None,428.93074126899955,None,428.93074126899955,None,428.93074126899955,None,,,,,,,,,,,,,,,,,,,,,,,,,,,,,,,,,,,,,,,,,,,,001,64,2020_Feb_04_1228,spring_faces,3.2.3,59.98607435266741,
condition files/Stage1_2.xlsx,,B2,T2,m,"['c', 'm']","['Clue', 'Monopoly']","[-0.15, 0.5]","[0.15, 0.5]",1,1,,,,,,,,,0,1,1,1,0,0,0,3,,,,,,,,,,,,,,,,,,,,,,,,,,,,,,,,,,,,,,,,,,,,,,,,,,,,,,,431.23075516099925,None,431.23075516099925,None,431.23075516099925,None,m,1,1.3696050660000765,432.44743101399945,None,432.44743101399945,None,432.44743101399945,None,433.8807031869983,None,433.8807031869983,None,433.8807031869983,None,433.8807031869983,None,,,,,,,,,,,,,,,,,,,,,,,,,,,,,,,,,,,,,,,,,,,,001,64,2020_Feb_04_1228,spring_faces,3.2.3,59.98607435266741,
condition files/Stage1_2.xlsx,,B4,T3,c,"['c', 'm']","['Clue', 'Monopoly']","[-0.15, 0.5]","[0.15, 0.5]",1,1,,,,,,,,,0,1,1,1,0,1,1,5,,,,,,,,,,,,,,,,,,,,,,,,,,,,,,,,,,,,,,,,,,,,,,,,,,,,,,,435.86407821599823,None,435.86407821599823,None,435.86407821599823,None,c,1,0.9476887040000292,437.39742657499846,None,437.39742657499846,None,437.39742657499846,None,438.4140670529996,None,438.4140670529996,None,438.4140670529996,None,438.4140670529996,None,,,,,,,,,,,,,,,,,,,,,,,,,,,,,,,,,,,,,,,,,,,,001,64,2020_Feb_04_1228,spring_faces,3.2.3,59.98607435266741,
condition files/Stage1_2.xlsx,,T3,B3,c,"['c', 'm']","['Clue', 'Monopoly']","[-0.15, 0.5]","[0.15, 0.5]",1,1,,,,,,,,,0,1,1,1,0,2,2,4,,,,,,,,,,,,,,,,,,,,,,,,,,,,,,,,,,,,,,,,,,,,,,,,,,,,,,,440.38069133299905,None,440.38069133299905,None,440.38069133299905,None,c,1,2.303013140000985,441.91402765399835,None,441.91402765399835,None,441.91402765399835,None,444.2974386199985,None,444.2974386199985,None,444.2974386199985,None,444.2974386199985,None,,,,,,,,,,,,,,,,,,,,,,,,,,,,,,,,,,,,,,,,,,,,001,64,2020_Feb_04_1228,spring_faces,3.2.3,59.98607435266741,
condition files/Stage1_2.xlsx,,T1,B2,m,"['c', 'm']","['Clue', 'Monopoly']","[-0.15, 0.5]","[0.15, 0.5]",1,1,,,,,,,,,0,1,1,1,0,3,3,2,,,,,,,,,,,,,,,,,,,,,,,,,,,,,,,,,,,,,,,,,,,,,,,,,,,,,,,446.26409165099903,None,446.26409165099903,None,446.26409165099903,None,m,1,1.8756380239992723,447.7974085629994,None,447.7974085629994,None,447.7974085629994,None,449.74742151399914,None,449.74742151399914,None,449.74742151399914,None,449.74742151399914,None,,,,,,,,,,,,,,,,,,,,,,,,,,,,,,,,,,,,,,,,,,,,001,64,2020_Feb_04_1228,spring_faces,3.2.3,59.98607435266741,
condition files/Stage1_2.xlsx,,B3,T4,m,"['c', 'm']","['Clue', 'Monopoly']","[-0.15, 0.5]","[0.15, 0.5]",1,1,,,,,,,,,0,1,1,1,0,4,4,6,,,,,,,,,,,,,,,,,,,,,,,,,,,,,,,,,,,,,,,,,,,,,,,,,,,,,,,451.71411258399894,None,451.71411258399894,None,451.71411258399894,None,m,1,1.9776268840014382,453.24741454499963,None,453.24741454499963,None,453.24741454499963,None,455.2807404389987,None,455.2807404389987,None,455.2807404389987,None,455.2807404389987,None,,,,,,,,,,,,,,,,,,,,,,,,,,,,,,,,,,,,,,,,,,,,001,64,2020_Feb_04_1228,spring_faces,3.2.3,59.98607435266741,
condition files/Stage1_2.xlsx,,B1,T1,c,"['c', 'm']","['Clue', 'Monopoly']","[-0.15, 0.5]","[0.15, 0.5]",1,1,,,,,,,,,0,1,1,1,0,5,5,0,,,,,,,,,,,,,,,,,,,,,,,,,,,,,,,,,,,,,,,,,,,,,,,,,,,,,,,457.2641296749989,None,457.2641296749989,None,457.2641296749989,None,c,1,2.0276514980014326,458.7973897159991,None,458.7973897159991,None,458.7973897159991,None,460.8974096059992,None,460.8974096059992,None,460.8974096059992,None,460.8974096059992,None,,,,,,,,,,,,,,,,,,,,,,,,,,,,,,,,,,,,,,,,,,,,001,64,2020_Feb_04_1228,spring_faces,3.2.3,59.98607435266741,
condition files/Stage1_2.xlsx,,T4,B4,m,"['c', 'm']","['Clue', 'Monopoly']","[-0.15, 0.5]","[0.15, 0.5]",1,1,,,,,,,,,0,1,1,1,0,6,6,7,,,,,,,,,,,,,,,,,,,,,,,,,,,,,,,,,,,,,,,,,,,,,,,,,,,,,,,462.86407820399836,None,462.86407820399836,None,462.86407820399836,None,m,1,1.8356142109987559,464.39736852699934,None,464.39736852699934,None,464.39736852699934,None,466.3140256629995,None,466.3140256629995,None,466.3140256629995,None,466.3140256629995,None,,,,,,,,,,,,,,,,,,,,,,,,,,,,,,,,,,,,,,,,,,,,001,64,2020_Feb_04_1228,spring_faces,3.2.3,59.98607435266741,
condition files/Stage1_2.xlsx,,T2,B1,c,"['c', 'm']","['Clue', 'Monopoly']","[-0.15, 0.5]","[0.15, 0.5]",1,1,,,,,,,,,0,1,1,1,0,7,7,1,,,,,,,,,,,,,,,,,,,,,,,,,,,,,,,,,,,,,,,,,,,,,,,,,,,,,,,468.28074051599833,None,468.28074051599833,None,468.28074051599833,None,c,1,1.938996546999988,469.81402589499885,None,469.81402589499885,None,469.81402589499885,None,471.8307456959992,None,471.8307456959992,None,471.8307456959992,None,471.8307456959992,None,,,,,,,,,,,,,,,,,,,,,,,,,,,,,,,,,,,,,,,,,,,,001,64,2020_Feb_04_1228,spring_faces,3.2.3,59.98607435266741,
condition files/Stage1_1.xlsx,,B2,T1,m,"['c', 'm']","['Clue', 'Monopoly']","[-0.15, 0.5]","[0.15, 0.5]",1,1,,,,,,,,,0,2,2,2,0,0,0,2,,,,,,,,,,,,,,,,,,,,,,,,,,,,,,,,,,,,,,,,,,,,,,,,,,,,,,,473.81407856999977,None,473.81407856999977,None,473.81407856999977,None,m,1,0.9817402130011033,475.3474081389995,None,475.3474081389995,None,475.3474081389995,None,476.3974096359998,None,476.3974096359998,None,476.3974096359998,None,476.3974096359998,None,,,,,,,,,,,,,,,,,,,,,,,,,,,,,,,,,,,,,,,,,,,,001,64,2020_Feb_04_1228,spring_faces,3.2.3,59.98607435266741,
condition files/Stage1_1.xlsx,,B3,T3,c,"['c', 'm']","['Clue', 'Monopoly']","[-0.15, 0.5]","[0.15, 0.5]",1,1,,,,,,,,,0,2,2,2,0,1,1,4,,,,,,,,,,,,,,,,,,,,,,,,,,,,,,,,,,,,,,,,,,,,,,,,,,,,,,,478.3640222089998,None,478.3640222089998,None,478.3640222089998,None,c,1,1.4235988469990843,479.89743548599836,None,479.89743548599836,None,479.89743548599836,None,481.39744110599895,None,481.39744110599895,None,481.39744110599895,None,481.39744110599895,None,,,,,,,,,,,,,,,,,,,,,,,,,,,,,,,,,,,,,,,,,,,,001,64,2020_Feb_04_1228,spring_faces,3.2.3,59.98607435266741,
condition files/Stage1_1.xlsx,,T1,B1,c,"['c', 'm']","['Clue', 'Monopoly']","[-0.15, 0.5]","[0.15, 0.5]",1,1,,,,,,,,,0,2,2,2,0,2,2,0,,,,,,,,,,,,,,,,,,,,,,,,,,,,,,,,,,,,,,,,,,,,,,,,,,,,,,,483.3641058719986,None,483.3641058719986,None,483.3641058719986,None,c,1,1.1116037190004135,484.8974430949984,None,484.8974430949984,None,484.8974430949984,None,486.08065077599895,None,486.08065077599895,None,486.08065077599895,None,486.08065077599895,None,,,,,,,,,,,,,,,,,,,,,,,,,,,,,,,,,,,,,,,,,,,,001,64,2020_Feb_04_1228,spring_faces,3.2.3,59.98607435266741,
condition files/Stage1_1.xlsx,,B4,T4,m,"['c', 'm']","['Clue', 'Monopoly']","[-0.15, 0.5]","[0.15, 0.5]",1,1,,,,,,,,,0,2,2,2,0,3,3,7,,,,,,,,,,,,,,,,,,,,,,,,,,,,,,,,,,,,,,,,,,,,,,,,,,,,,,,488.0474406279991,None,488.0474406279991,None,488.0474406279991,None,c,0,1.3243496069990215,489.58071032299995,None,489.58071032299995,None,489.58071032299995,None,490.9807591739991,None,490.9807591739991,None,490.9807591739991,None,490.9807591739991,None,,,,,,,,,,,,,,,,,,,,,,,,,,,,,,,,,,,,,,,,,,,,001,64,2020_Feb_04_1228,spring_faces,3.2.3,59.98607435266741,
condition files/Stage1_1.xlsx,,B1,T2,c,"['c', 'm']","['Clue', 'Monopoly']","[-0.15, 0.5]","[0.15, 0.5]",1,1,,,,,,,,,0,2,2,2,0,4,4,1,,,,,,,,,,,,,,,,,,,,,,,,,,,,,,,,,,,,,,,,,,,,,,,,,,,,,,,492.9474361479988,None,492.9474361479988,None,492.9474361479988,None,c,1,1.2083556240013422,494.48068600199986,None,494.48068600199986,None,494.48068600199986,None,495.76407908299916,None,495.76407908299916,None,495.76407908299916,None,495.76407908299916,None,,,,,,,,,,,,,,,,,,,,,,,,,,,,,,,,,,,,,,,,,,,,001,64,2020_Feb_04_1228,spring_faces,3.2.3,59.98607435266741,
condition files/Stage1_1.xlsx,,T3,B4,c,"['c', 'm']","['Clue', 'Monopoly']","[-0.15, 0.5]","[0.15, 0.5]",1,1,,,,,,,,,0,2,2,2,0,5,5,5,,,,,,,,,,,,,,,,,,,,,,,,,,,,,,,,,,,,,,,,,,,,,,,,,,,,,,,497.73074775999885,None,497.73074775999885,None,497.73074775999885,None,m,0,1.2889473539999017,499.2640805229985,None,499.2640805229985,None,499.2640805229985,None,500.61411099,None,500.61411099,None,500.61411099,None,500.61411099,None,,,,,,,,,,,,,,,,,,,,,,,,,,,,,,,,,,,,,,,,,,,,001,64,2020_Feb_04_1228,spring_faces,3.2.3,59.98607435266741,
condition files/Stage1_1.xlsx,,T2,B2,m,"['c', 'm']","['Clue', 'Monopoly']","[-0.15, 0.5]","[0.15, 0.5]",1,1,,,,,,,,,0,2,2,2,0,6,6,3,,,,,,,,,,,,,,,,,,,,,,,,,,,,,,,,,,,,,,,,,,,,,,,,,,,,,,,502.59741059099906,None,502.59741059099906,None,502.59741059099906,None,c,0,0.9181843890000891,504.1307600989985,None,504.1307600989985,None,504.1307600989985,None,505.13071779599886,None,505.13071779599886,None,505.13071779599886,None,505.13071779599886,None,,,,,,,,,,,,,,,,,,,,,,,,,,,,,,,,,,,,,,,,,,,,001,64,2020_Feb_04_1228,spring_faces,3.2.3,59.98607435266741,
condition files/Stage1_1.xlsx,,T4,B3,m,"['c', 'm']","['Clue', 'Monopoly']","[-0.15, 0.5]","[0.15, 0.5]",1,1,,,,,,,,,0,2,2,2,0,7,7,6,,,,,,,,,,,,,,,,,,,,,,,,,,,,,,,,,,,,,,,,,,,,,,,,,,,,,,,507.09743781699945,None,507.09743781699945,None,507.09743781699945,None,c,0,1.170243529999425,508.6307690859994,None,508.6307690859994,None,508.6307690859994,None,509.8807868119984,None,509.8807868119984,None,509.8807868119984,None,509.8807868119984,None,,,,,,,,,,,,,,,,,,,,,,,,,,,,,,,,,,,,,,,,,,,,001,64,2020_Feb_04_1228,spring_faces,3.2.3,59.98607435266741,
condition files/Stage1_2.xlsx,,B1,T1,c,"['c', 'm']","['Clue', 'Monopoly']","[-0.15, 0.5]","[0.15, 0.5]",1,1,,,,,,,,,0,3,3,3,0,0,0,0,,,,,,,,,,,,,,,,,,,,,,,,,,,,,,,,,,,,,,,,,,,,,,,,,,,,,,,511.864118735999,None,511.864118735999,None,511.864118735999,None,m,0,1.315717637000489,513.3974322619997,None,513.3974322619997,None,513.3974322619997,None,514.780698565999,None,514.780698565999,None,514.780698565999,None,514.780698565999,None,,,,,,,,,,,,,,,,,,,,,,,,,,,,,,,,,,,,,,,,,,,,001,64,2020_Feb_04_1228,spring_faces,3.2.3,59.98607435266741,
condition files/Stage1_2.xlsx,,T2,B1,c,"['c', 'm']","['Clue', 'Monopoly']","[-0.15, 0.5]","[0.15, 0.5]",1,1,,,,,,,,,0,3,3,3,0,1,1,1,,,,,,,,,,,,,,,,,,,,,,,,,,,,,,,,,,,,,,,,,,,,,,,,,,,,,,,516.7473438989982,None,516.7473438989982,None,516.7473438989982,None,c,1,1.280310809999719,518.280787669999,None,518.280787669999,None,518.280787669999,None,519.630766106,None,519.630766106,None,519.630766106,None,519.630766106,None,,,,,,,,,,,,,,,,,,,,,,,,,,,,,,,,,,,,,,,,,,,,001,64,2020_Feb_04_1228,spring_faces,3.2.3,59.98607435266741,
condition files/Stage1_2.xlsx,,B2,T2,m,"['c', 'm']","['Clue', 'Monopoly']","[-0.15, 0.5]","[0.15, 0.5]",1,1,,,,,,,,,0,3,3,3,0,2,2,3,,,,,,,,,,,,,,,,,,,,,,,,,,,,,,,,,,,,,,,,,,,,,,,,,,,,,,,521.5974006299984,None,521.5974006299984,None,521.5974006299984,None,m,1,1.0543191760007176,523.1307242779985,None,523.1307242779985,None,523.1307242779985,None,524.2640758509988,None,524.2640758509988,None,524.2640758509988,None,524.2640758509988,None,,,,,,,,,,,,,,,,,,,,,,,,,,,,,,,,,,,,,,,,,,,,001,64,2020_Feb_04_1228,spring_faces,3.2.3,59.98607435266741,
condition files/Stage1_2.xlsx,,T4,B4,m,"['c', 'm']","['Clue', 'Monopoly']","[-0.15, 0.5]","[0.15, 0.5]",1,1,,,,,,,,,0,3,3,3,0,3,3,7,,,,,,,,,,,,,,,,,,,,,,,,,,,,,,,,,,,,,,,,,,,,,,,,,,,,,,,526.2307964429983,None,526.2307964429983,None,526.2307964429983,None,m,1,2.981035853999856,527.7640738969985,None,527.7640738969985,None,527.7640738969985,None,530.8140700989989,None,530.8140700989989,None,530.8140700989989,None,530.8140700989989,None,,,,,,,,,,,,,,,,,,,,,,,,,,,,,,,,,,,,,,,,,,,,001,64,2020_Feb_04_1228,spring_faces,3.2.3,59.98607435266741,
condition files/Stage1_2.xlsx,,T1,B2,m,"['c', 'm']","['Clue', 'Monopoly']","[-0.15, 0.5]","[0.15, 0.5]",1,1,,,,,,,,,0,3,3,3,0,4,4,2,,,,,,,,,,,,,,,,,,,,,,,,,,,,,,,,,,,,,,,,,,,,,,,,,,,,,,,532.7807812929987,None,532.7807812929987,None,532.7807812929987,None,c,0,1.1831306040003255,534.3140297549999,None,534.3140297549999,None,534.3140297549999,None,535.5640259679985,None,535.5640259679985,None,535.5640259679985,None,535.5640259679985,None,,,,,,,,,,,,,,,,,,,,,,,,,,,,,,,,,,,,,,,,,,,,001,64,2020_Feb_04_1228,spring_faces,3.2.3,59.98607435266741,
condition files/Stage1_2.xlsx,,B4,T3,c,"['c', 'm']","['Clue', 'Monopoly']","[-0.15, 0.5]","[0.15, 0.5]",1,1,,,,,,,,,0,3,3,3,0,5,5,5,,,,,,,,,,,,,,,,,,,,,,,,,,,,,,,,,,,,,,,,,,,,,,,,,,,,,,,537.5306896399998,None,537.5306896399998,None,537.5306896399998,None,m,0,1.1209382630004256,539.0640824599996,None,539.0640824599996,None,539.0640824599996,None,540.264104767999,None,540.264104767999,None,540.264104767999,None,540.264104767999,None,,,,,,,,,,,,,,,,,,,,,,,,,,,,,,,,,,,,,,,,,,,,001,64,2020_Feb_04_1228,spring_faces,3.2.3,59.98607435266741,
condition files/Stage1_2.xlsx,,B3,T4,m,"['c', 'm']","['Clue', 'Monopoly']","[-0.15, 0.5]","[0.15, 0.5]",1,1,,,,,,,,,0,3,3,3,0,6,6,6,,,,,,,,,,,,,,,,,,,,,,,,,,,,,,,,,,,,,,,,,,,,,,,,,,,,,,,542.2308038049996,None,542.2308038049996,None,542.2308038049996,None,c,0,1.5409208740002214,543.7641036589994,None,543.7641036589994,None,543.7641036589994,None,545.3807691179991,None,545.3807691179991,None,545.3807691179991,None,545.3807691179991,None,,,,,,,,,,,,,,,,,,,,,,,,,,,,,,,,,,,,,,,,,,,,001,64,2020_Feb_04_1228,spring_faces,3.2.3,59.98607435266741,
condition files/Stage1_2.xlsx,,T3,B3,c,"['c', 'm']","['Clue', 'Monopoly']","[-0.15, 0.5]","[0.15, 0.5]",1,1,,,,,,,,,0,3,3,3,0,7,7,4,,,,,,,,,,,,,,,,,,,,,,,,,,,,,,,,,,,,,,,,,,,,,,,,,,,,,,,547.3474313679999,None,547.3474313679999,None,547.3474313679999,None,c,1,1.3042309789998399,548.8807608939987,None,548.8807608939987,None,548.8807608939987,None,550.2641196389995,None,550.2641196389995,None,550.2641196389995,None,550.2641196389995,None,,,,,,,,,,,,,,,,,,,,,,,,,,,,,,,,,,,,,,,,,,,,001,64,2020_Feb_04_1228,spring_faces,3.2.3,59.98607435266741,
condition files/Stage1_1.xlsx,,B4,T4,m,"['c', 'm']","['Clue', 'Monopoly']","[-0.15, 0.5]","[0.15, 0.5]",1,1,,,,,,,,,0,4,4,4,0,0,0,7,,,,,,,,,,,,,,,,,,,,,,,,,,,,,,,,,,,,,,,,,,,,,,,,,,,,,,,552.2474389179988,None,552.2474389179988,None,552.2474389179988,None,m,1,2.1163896929992916,553.780763548999,None,553.780763548999,None,553.780763548999,None,555.9640441789998,None,555.9640441789998,None,555.9640441789998,None,555.9640441789998,None,,,,,,,,,,,,,,,,,,,,,,,,,,,,,,,,,,,,,,,,,,,,001,64,2020_Feb_04_1228,spring_faces,3.2.3,59.98607435266741,
condition files/Stage1_1.xlsx,,T3,B4,c,"['c', 'm']","['Clue', 'Monopoly']","[-0.15, 0.5]","[0.15, 0.5]",1,1,,,,,,,,,0,4,4,4,0,1,1,5,,,,,,,,,,,,,,,,,,,,,,,,,,,,,,,,,,,,,,,,,,,,,,,,,,,,,,,557.9307058789982,None,557.9307058789982,None,557.9307058789982,None,c,1,2.4490155749990663,559.464113525999,None,559.464113525999,None,559.464113525999,None,561.980708953999,None,561.980708953999,None,561.980708953999,None,561.980708953999,None,,,,,,,,,,,,,,,,,,,,,,,,,,,,,,,,,,,,,,,,,,,,001,64,2020_Feb_04_1228,spring_faces,3.2.3,59.98607435266741,
condition files/Stage1_1.xlsx,,B2,T1,m,"['c', 'm']","['Clue', 'Monopoly']","[-0.15, 0.5]","[0.15, 0.5]",1,1,,,,,,,,,0,4,4,4,0,2,2,2,,,,,,,,,,,,,,,,,,,,,,,,,,,,,,,,,,,,,,,,,,,,,,,,,,,,,,,563.9474687779984,None,563.9474687779984,None,563.9474687779984,None,m,1,1.1362300170003437,565.4807730329994,None,565.4807730329994,None,565.4807730329994,None,566.6973232429991,None,566.6973232429991,None,566.6973232429991,None,566.6973232429991,None,,,,,,,,,,,,,,,,,,,,,,,,,,,,,,,,,,,,,,,,,,,,001,64,2020_Feb_04_1228,spring_faces,3.2.3,59.98607435266741,
condition files/Stage1_1.xlsx,,T2,B2,m,"['c', 'm']","['Clue', 'Monopoly']","[-0.15, 0.5]","[0.15, 0.5]",1,1,,,,,,,,,0,4,4,4,0,3,3,3,,,,,,,,,,,,,,,,,,,,,,,,,,,,,,,,,,,,,,,,,,,,,,,,,,,,,,,568.6641349799993,None,568.6641349799993,None,568.6641349799993,None,m,1,1.3956122859999596,570.1974415899986,None,570.1974415899986,None,570.1974415899986,None,571.6474093799989,None,571.6474093799989,None,571.6474093799989,None,571.6474093799989,None,,,,,,,,,,,,,,,,,,,,,,,,,,,,,,,,,,,,,,,,,,,,001,64,2020_Feb_04_1228,spring_faces,3.2.3,59.98607435266741,
condition files/Stage1_1.xlsx,,T1,B1,c,"['c', 'm']","['Clue', 'Monopoly']","[-0.15, 0.5]","[0.15, 0.5]",1,1,,,,,,,,,0,4,4,4,0,4,4,0,,,,,,,,,,,,,,,,,,,,,,,,,,,,,,,,,,,,,,,,,,,,,,,,,,,,,,,573.6307623059984,None,573.6307623059984,None,573.6307623059984,None,c,1,1.3569991099993786,575.1640544459988,None,575.1640544459988,None,575.1640544459988,None,576.5974220799999,None,576.5974220799999,None,576.5974220799999,None,576.5974220799999,None,,,,,,,,,,,,,,,,,,,,,,,,,,,,,,,,,,,,,,,,,,,,001,64,2020_Feb_04_1228,spring_faces,3.2.3,59.98607435266741,
condition files/Stage1_1.xlsx,,T4,B3,m,"['c', 'm']","['Clue', 'Monopoly']","[-0.15, 0.5]","[0.15, 0.5]",1,1,,,,,,,,,0,4,4,4,0,5,5,6,,,,,,,,,,,,,,,,,,,,,,,,,,,,,,,,,,,,,,,,,,,,,,,,,,,,,,,578.5641202809984,None,578.5641202809984,None,578.5641202809984,None,m,1,2.1675252149998414,580.0974183749986,None,580.0974183749986,None,580.0974183749986,None,582.347364715999,None,582.347364715999,None,582.347364715999,None,582.347364715999,None,,,,,,,,,,,,,,,,,,,,,,,,,,,,,,,,,,,,,,,,,,,,001,64,2020_Feb_04_1228,spring_faces,3.2.3,59.98607435266741,
condition files/Stage1_1.xlsx,,B3,T3,c,"['c', 'm']","['Clue', 'Monopoly']","[-0.15, 0.5]","[0.15, 0.5]",1,1,,,,,,,,,0,4,4,4,0,6,6,4,,,,,,,,,,,,,,,,,,,,,,,,,,,,,,,,,,,,,,,,,,,,,,,,,,,,,,,584.3140254929986,None,584.3140254929986,None,584.3140254929986,None,c,1,1.3457742529990355,585.8473089799991,None,585.8473089799991,None,585.8473089799991,None,587.2640825619983,None,587.2640825619983,None,587.2640825619983,None,587.2640825619983,None,,,,,,,,,,,,,,,,,,,,,,,,,,,,,,,,,,,,,,,,,,,,001,64,2020_Feb_04_1228,spring_faces,3.2.3,59.98607435266741,
condition files/Stage1_1.xlsx,,B1,T2,c,"['c', 'm']","['Clue', 'Monopoly']","[-0.15, 0.5]","[0.15, 0.5]",1,1,,,,,,,,,0,4,4,4,0,7,7,1,,,,,,,,,,,,,,,,,,,,,,,,,,,,,,,,,,,,,,,,,,,,,,,,,,,,,,,589.2307750609998,None,589.2307750609998,None,589.2307750609998,None,c,1,1.8529260149989568,590.7640894209999,None,590.7640894209999,None,590.7640894209999,None,592.6974532649983,None,592.6974532649983,None,592.6974532649983,None,592.6974532649983,None,,,,,,,,,,,,,,,,,,,,,,,,,,,,,,,,,,,,,,,,,,,,001,64,2020_Feb_04_1228,spring_faces,3.2.3,59.98607435266741,
condition files/Stage1_2.xlsx,,T4,B4,m,"['c', 'm']","['Clue', 'Monopoly']","[-0.15, 0.5]","[0.15, 0.5]",1,1,,,,,,,,,0,5,5,5,0,0,0,7,,,,,,,,,,,,,,,,,,,,,,,,,,,,,,,,,,,,,,,,,,,,,,,,,,,,,,,594.6807771509993,None,594.6807771509993,None,594.6807771509993,None,m,1,1.5709356739989744,596.2141120419983,None,596.2141120419983,None,596.2141120419983,None,597.8641071719994,None,597.8641071719994,None,597.8641071719994,None,597.8641071719994,None,,,,,,,,,,,,,,,,,,,,,,,,,,,,,,,,,,,,,,,,,,,,001,64,2020_Feb_04_1228,spring_faces,3.2.3,59.98607435266741,
condition files/Stage1_2.xlsx,,T3,B3,c,"['c', 'm']","['Clue', 'Monopoly']","[-0.15, 0.5]","[0.15, 0.5]",1,1,,,,,,,,,0,5,5,5,0,1,1,4,,,,,,,,,,,,,,,,,,,,,,,,,,,,,,,,,,,,,,,,,,,,,,,,,,,,,,,599.8307695219992,None,599.8307695219992,None,599.8307695219992,None,c,1,3.236922879999838,601.3641059359998,None,601.3641059359998,None,601.3641059359998,None,604.6807695629996,None,604.6807695629996,None,604.6807695629996,None,604.6807695629996,None,,,,,,,,,,,,,,,,,,,,,,,,,,,,,,,,,,,,,,,,,,,,001,64,2020_Feb_04_1228,spring_faces,3.2.3,59.98607435266741,
condition files/Stage1_2.xlsx,,T2,B1,c,"['c', 'm']","['Clue', 'Monopoly']","[-0.15, 0.5]","[0.15, 0.5]",1,1,,,,,,,,,0,5,5,5,0,2,2,1,,,,,,,,,,,,,,,,,,,,,,,,,,,,,,,,,,,,,,,,,,,,,,,,,,,,,,,606.6474654499998,None,606.6474654499998,None,606.6474654499998,None,c,1,1.5722590780005703,608.1807671379993,None,608.1807671379993,None,608.1807671379993,None,609.8307741419994,None,609.8307741419994,None,609.8307741419994,None,609.8307741419994,None,,,,,,,,,,,,,,,,,,,,,,,,,,,,,,,,,,,,,,,,,,,,001,64,2020_Feb_04_1228,spring_faces,3.2.3,59.98607435266741,
condition files/Stage1_2.xlsx,,B4,T3,c,"['c', 'm']","['Clue', 'Monopoly']","[-0.15, 0.5]","[0.15, 0.5]",1,1,,,,,,,,,0,5,5,5,0,3,3,5,,,,,,,,,,,,,,,,,,,,,,,,,,,,,,,,,,,,,,,,,,,,,,,,,,,,,,,611.7974508039988,None,611.7974508039988,None,611.7974508039988,None,c,1,1.590298694000012,613.3307812349994,None,613.3307812349994,None,613.3307812349994,None,614.9806656839992,None,614.9806656839992,None,614.9806656839992,None,614.9806656839992,None,,,,,,,,,,,,,,,,,,,,,,,,,,,,,,,,,,,,,,,,,,,,001,64,2020_Feb_04_1228,spring_faces,3.2.3,59.98607435266741,
condition files/Stage1_2.xlsx,,B1,T1,c,"['c', 'm']","['Clue', 'Monopoly']","[-0.15, 0.5]","[0.15, 0.5]",1,1,,,,,,,,,0,5,5,5,0,4,4,0,,,,,,,,,,,,,,,,,,,,,,,,,,,,,,,,,,,,,,,,,,,,,,,,,,,,,,,616.964147318,None,616.964147318,None,616.964147318,None,c,1,1.8796257070007414,618.4974534349985,None,618.4974534349985,None,618.4974534349985,None,620.447438752999,None,620.447438752999,None,620.447438752999,None,620.447438752999,None,,,,,,,,,,,,,,,,,,,,,,,,,,,,,,,,,,,,,,,,,,,,001,64,2020_Feb_04_1228,spring_faces,3.2.3,59.98607435266741,
condition files/Stage1_2.xlsx,,T1,B2,m,"['c', 'm']","['Clue', 'Monopoly']","[-0.15, 0.5]","[0.15, 0.5]",1,1,,,,,,,,,0,5,5,5,0,5,5,2,,,,,,,,,,,,,,,,,,,,,,,,,,,,,,,,,,,,,,,,,,,,,,,,,,,,,,,622.4141292789991,None,622.4141292789991,None,622.4141292789991,None,m,1,1.293688108000424,623.947385993999,None,623.947385993999,None,623.947385993999,None,625.3140851899989,None,625.3140851899989,None,625.3140851899989,None,625.3140851899989,None,,,,,,,,,,,,,,,,,,,,,,,,,,,,,,,,,,,,,,,,,,,,001,64,2020_Feb_04_1228,spring_faces,3.2.3,59.98607435266741,
condition files/Stage1_2.xlsx,,B2,T2,m,"['c', 'm']","['Clue', 'Monopoly']","[-0.15, 0.5]","[0.15, 0.5]",1,1,,,,,,,,,0,5,5,5,0,6,6,3,,,,,,,,,,,,,,,,,,,,,,,,,,,,,,,,,,,,,,,,,,,,,,,,,,,,,,,627.2807624699999,None,627.2807624699999,None,627.2807624699999,None,m,1,1.5310435490009695,628.8140662439982,None,628.8140662439982,None,628.8140662439982,None,630.3973018309989,None,630.3973018309989,None,630.3973018309989,None,630.3973018309989,None,,,,,,,,,,,,,,,,,,,,,,,,,,,,,,,,,,,,,,,,,,,,001,64,2020_Feb_04_1228,spring_faces,3.2.3,59.98607435266741,
condition files/Stage1_2.xlsx,,B3,T4,m,"['c', 'm']","['Clue', 'Monopoly']","[-0.15, 0.5]","[0.15, 0.5]",1,1,,,,,,,,,0,5,5,5,0,7,7,6,,,,,,,,,,,,,,,,,,,,,,,,,,,,,,,,,,,,,,,,,,,,,,,,,,,,,,,632.3807767529997,None,632.3807767529997,None,632.3807767529997,None,m,1,1.9350023460010561,633.9139686269991,None,633.9139686269991,None,633.9139686269991,None,635.9140697119983,None,635.9140697119983,None,635.9140697119983,None,635.9140697119983,None,,,,,,,,,,,,,,,,,,,,,,,,,,,,,,,,,,,,,,,,,,,,001,64,2020_Feb_04_1228,spring_faces,3.2.3,59.98607435266741,
condition files/Stage1_1.xlsx,,B4,T4,m,"['c', 'm']","['Clue', 'Monopoly']","[-0.15, 0.5]","[0.15, 0.5]",1,1,,,,,,,,,0,6,6,6,0,0,0,7,,,,,,,,,,,,,,,,,,,,,,,,,,,,,,,,,,,,,,,,,,,,,,,,,,,,,,,637.914063749,None,637.914063749,None,637.914063749,None,m,1,3.2336681460001273,639.4473471659985,None,639.4473471659985,None,639.4473471659985,None,642.7473639399996,None,642.7473639399996,None,642.7473639399996,None,642.7473639399996,None,,,,,,,,,,,,,,,,,,,,,,,,,,,,,,,,,,,,,,,,,,,,001,64,2020_Feb_04_1228,spring_faces,3.2.3,59.98607435266741,
condition files/Stage1_1.xlsx,,T2,B2,m,"['c', 'm']","['Clue', 'Monopoly']","[-0.15, 0.5]","[0.15, 0.5]",1,1,,,,,,,,,0,6,6,6,0,1,1,3,,,,,,,,,,,,,,,,,,,,,,,,,,,,,,,,,,,,,,,,,,,,,,,,,,,,,,,644.7140789749992,None,644.7140789749992,None,644.7140789749992,None,m,1,1.6816976949994569,646.2474204509999,None,646.2474204509999,None,646.2474204509999,None,647.980674638,None,647.980674638,None,647.980674638,None,647.980674638,None,,,,,,,,,,,,,,,,,,,,,,,,,,,,,,,,,,,,,,,,,,,,001,64,2020_Feb_04_1228,spring_faces,3.2.3,59.98607435266741,
condition files/Stage1_1.xlsx,,T4,B3,m,"['c', 'm']","['Clue', 'Monopoly']","[-0.15, 0.5]","[0.15, 0.5]",1,1,,,,,,,,,0,6,6,6,0,2,2,6,,,,,,,,,,,,,,,,,,,,,,,,,,,,,,,,,,,,,,,,,,,,,,,,,,,,,,,649.9640339669986,None,649.9640339669986,None,649.9640339669986,None,m,1,2.671588757000791,651.4974413769996,None,651.4974413769996,None,651.4974413769996,None,654.2307752459983,None,654.2307752459983,None,654.2307752459983,None,654.2307752459983,None,,,,,,,,,,,,,,,,,,,,,,,,,,,,,,,,,,,,,,,,,,,,001,64,2020_Feb_04_1228,spring_faces,3.2.3,59.98607435266741,
condition files/Stage1_1.xlsx,,B2,T1,m,"['c', 'm']","['Clue', 'Monopoly']","[-0.15, 0.5]","[0.15, 0.5]",1,1,,,,,,,,,0,6,6,6,0,3,3,2,,,,,,,,,,,,,,,,,,,,,,,,,,,,,,,,,,,,,,,,,,,,,,,,,,,,,,,656.2140808939985,None,656.2140808939985,None,656.2140808939985,None,m,1,1.0615333009991446,657.74743528,None,657.74743528,None,657.74743528,None,658.8807973599996,None,658.8807973599996,None,658.8807973599996,None,658.8807973599996,None,,,,,,,,,,,,,,,,,,,,,,,,,,,,,,,,,,,,,,,,,,,,001,64,2020_Feb_04_1228,spring_faces,3.2.3,59.98607435266741,
condition files/Stage1_1.xlsx,,B3,T3,c,"['c', 'm']","['Clue', 'Monopoly']","[-0.15, 0.5]","[0.15, 0.5]",1,1,,,,,,,,,0,6,6,6,0,4,4,4,,,,,,,,,,,,,,,,,,,,,,,,,,,,,,,,,,,,,,,,,,,,,,,,,,,,,,,660.8474381409997,None,660.8474381409997,None,660.8474381409997,None,c,1,1.0682532700011507,662.3807156719995,None,662.3807156719995,None,662.3807156719995,None,663.5308046239988,None,663.5308046239988,None,663.5308046239988,None,663.5308046239988,None,,,,,,,,,,,,,,,,,,,,,,,,,,,,,,,,,,,,,,,,,,,,001,64,2020_Feb_04_1228,spring_faces,3.2.3,59.98607435266741,
condition files/Stage1_1.xlsx,,T3,B4,c,"['c', 'm']","['Clue', 'Monopoly']","[-0.15, 0.5]","[0.15, 0.5]",1,1,,,,,,,,,0,6,6,6,0,5,5,5,,,,,,,,,,,,,,,,,,,,,,,,,,,,,,,,,,,,,,,,,,,,,,,,,,,,,,,665.4973766159983,None,665.4973766159983,None,665.4973766159983,None,m,0,1.4262575619995914,667.0307766099995,None,667.0307766099995,None,667.0307766099995,None,668.5141048449987,None,668.5141048449987,None,668.5141048449987,None,668.5141048449987,None,,,,,,,,,,,,,,,,,,,,,,,,,,,,,,,,,,,,,,,,,,,,001,64,2020_Feb_04_1228,spring_faces,3.2.3,59.98607435266741,
condition files/Stage1_1.xlsx,,B1,T2,c,"['c', 'm']","['Clue', 'Monopoly']","[-0.15, 0.5]","[0.15, 0.5]",1,1,,,,,,,,,0,6,6,6,0,6,6,1,,,,,,,,,,,,,,,,,,,,,,,,,,,,,,,,,,,,,,,,,,,,,,,,,,,,,,,670.4974389239997,None,670.4974389239997,None,670.4974389239997,None,c,1,0.954230669000026,672.0307982579998,None,672.0307982579998,None,672.0307982579998,None,673.0640894909993,None,673.0640894909993,None,673.0640894909993,None,673.0640894909993,None,,,,,,,,,,,,,,,,,,,,,,,,,,,,,,,,,,,,,,,,,,,,001,64,2020_Feb_04_1228,spring_faces,3.2.3,59.98607435266741,
condition files/Stage1_1.xlsx,,T1,B1,c,"['c', 'm']","['Clue', 'Monopoly']","[-0.15, 0.5]","[0.15, 0.5]",1,1,,,,,,,,,0,6,6,6,0,7,7,0,,,,,,,,,,,,,,,,,,,,,,,,,,,,,,,,,,,,,,,,,,,,,,,,,,,,,,,675.030789516999,None,675.030789516999,None,675.030789516999,None,c,1,0.9168963669999357,676.5640827169991,None,676.5640827169991,None,676.5640827169991,None,677.5473619229997,None,677.5473619229997,None,677.5473619229997,None,677.5473619229997,None,,,,,,,,,,,,,,,,,,,,,,,,,,,,,,,,,,,,,,,,,,,,001,64,2020_Feb_04_1228,spring_faces,3.2.3,59.98607435266741,
condition files/Stage1_2.xlsx,,B2,T2,m,"['c', 'm']","['Clue', 'Monopoly']","[-0.15, 0.5]","[0.15, 0.5]",1,1,,,,,,,,,0,7,7,7,0,0,0,3,,,,,,,,,,,,,,,,,,,,,,,,,,,,,,,,,,,,,,,,,,,,,,,,,,,,,,,679.530711084999,None,679.530711084999,None,679.530711084999,None,m,1,1.29703763499856,681.0640837019982,None,681.0640837019982,None,681.0640837019982,None,682.430772067999,None,682.430772067999,None,682.430772067999,None,682.430772067999,None,,,,,,,,,,,,,,,,,,,,,,,,,,,,,,,,,,,,,,,,,,,,001,64,2020_Feb_04_1228,spring_faces,3.2.3,59.98607435266741,
condition files/Stage1_2.xlsx,,B1,T1,c,"['c', 'm']","['Clue', 'Monopoly']","[-0.15, 0.5]","[0.15, 0.5]",1,1,,,,,,,,,0,7,7,7,0,1,1,0,,,,,,,,,,,,,,,,,,,,,,,,,,,,,,,,,,,,,,,,,,,,,,,,,,,,,,,684.3974198339984,None,684.3974198339984,None,684.3974198339984,None,c,1,1.5342319310002495,685.9307351579992,None,685.9307351579992,None,685.9307351579992,None,687.5473897129996,None,687.5473897129996,None,687.5473897129996,None,687.5473897129996,None,,,,,,,,,,,,,,,,,,,,,,,,,,,,,,,,,,,,,,,,,,,,001,64,2020_Feb_04_1228,spring_faces,3.2.3,59.98607435266741,
condition files/Stage1_2.xlsx,,T2,B1,c,"['c', 'm']","['Clue', 'Monopoly']","[-0.15, 0.5]","[0.15, 0.5]",1,1,,,,,,,,,0,7,7,7,0,2,2,1,,,,,,,,,,,,,,,,,,,,,,,,,,,,,,,,,,,,,,,,,,,,,,,,,,,,,,,689.5140590029987,None,689.5140590029987,None,689.5140590029987,None,c,1,1.201975609999863,691.0469820819999,None,691.0469820819999,None,691.0469820819999,None,692.3140437239999,None,692.3140437239999,None,692.3140437239999,None,692.3140437239999,None,,,,,,,,,,,,,,,,,,,,,,,,,,,,,,,,,,,,,,,,,,,,001,64,2020_Feb_04_1228,spring_faces,3.2.3,59.98607435266741,
condition files/Stage1_2.xlsx,,T4,B4,m,"['c', 'm']","['Clue', 'Monopoly']","[-0.15, 0.5]","[0.15, 0.5]",1,1,,,,,,,,,0,7,7,7,0,3,3,7,,,,,,,,,,,,,,,,,,,,,,,,,,,,,,,,,,,,,,,,,,,,,,,,,,,,,,,694.2973438319987,None,694.2973438319987,None,694.2973438319987,None,m,1,2.1463341990001936,695.8307500919982,None,695.8307500919982,None,695.8307500919982,None,698.0474322159989,None,698.0474322159989,None,698.0474322159989,None,698.0474322159989,None,,,,,,,,,,,,,,,,,,,,,,,,,,,,,,,,,,,,,,,,,,,,001,64,2020_Feb_04_1228,spring_faces,3.2.3,59.98607435266741,
condition files/Stage1_2.xlsx,,T3,B3,c,"['c', 'm']","['Clue', 'Monopoly']","[-0.15, 0.5]","[0.15, 0.5]",1,1,,,,,,,,,0,7,7,7,0,4,4,4,,,,,,,,,,,,,,,,,,,,,,,,,,,,,,,,,,,,,,,,,,,,,,,,,,,,,,,700.0141225859988,None,700.0141225859988,None,700.0141225859988,None,c,1,1.0856277689999843,701.5473874359996,None,701.5473874359996,None,701.5473874359996,None,702.7141040029983,None,702.7141040029983,None,702.7141040029983,None,702.7141040029983,None,,,,,,,,,,,,,,,,,,,,,,,,,,,,,,,,,,,,,,,,,,,,001,64,2020_Feb_04_1228,spring_faces,3.2.3,59.98607435266741,
condition files/Stage1_2.xlsx,,T1,B2,m,"['c', 'm']","['Clue', 'Monopoly']","[-0.15, 0.5]","[0.15, 0.5]",1,1,,,,,,,,,0,7,7,7,0,5,5,2,,,,,,,,,,,,,,,,,,,,,,,,,,,,,,,,,,,,,,,,,,,,,,,,,,,,,,,704.6808151979985,None,704.6808151979985,None,704.6808151979985,None,m,1,1.154916134000814,706.2141143839999,None,706.2141143839999,None,706.2141143839999,None,707.4474157619989,None,707.4474157619989,None,707.4474157619989,None,707.4474157619989,None,,,,,,,,,,,,,,,,,,,,,,,,,,,,,,,,,,,,,,,,,,,,001,64,2020_Feb_04_1228,spring_faces,3.2.3,59.98607435266741,
condition files/Stage1_2.xlsx,,B4,T3,c,"['c', 'm']","['Clue', 'Monopoly']","[-0.15, 0.5]","[0.15, 0.5]",1,1,,,,,,,,,0,7,7,7,0,6,6,5,,,,,,,,,,,,,,,,,,,,,,,,,,,,,,,,,,,,,,,,,,,,,,,,,,,,,,,709.4141027239984,None,709.4141027239984,None,709.4141027239984,None,c,1,2.2296478810003464,710.9474324369985,None,710.9474324369985,None,710.9474324369985,None,713.2474580109993,None,713.2474580109993,None,713.2474580109993,None,713.2474580109993,None,,,,,,,,,,,,,,,,,,,,,,,,,,,,,,,,,,,,,,,,,,,,001,64,2020_Feb_04_1228,spring_faces,3.2.3,59.98607435266741,
condition files/Stage1_2.xlsx,,B3,T4,m,"['c', 'm']","['Clue', 'Monopoly']","[-0.15, 0.5]","[0.15, 0.5]",1,1,,,,,,,,,0,7,7,7,0,7,7,6,,,,,,,,,,,,,,,,,,,,,,,,,,,,,,,,,,,,,,,,,,,,,,,,,,,,,,,715.2141162549997,None,715.2141162549997,None,715.2141162549997,None,m,1,1.1335984190009185,716.7474010269998,None,716.7474010269998,None,716.7474010269998,None,717.9473703429994,None,717.9473703429994,None,717.9473703429994,None,717.9473703429994,None,,,,,,,,,,,,,,,,,,,,,,,,,,,,,,,,,,,,,,,,,,,,001,64,2020_Feb_04_1228,spring_faces,3.2.3,59.98607435266741,
condition files/Stage1_1.xlsx,,B2,T1,m,"['c', 'm']","['Clue', 'Monopoly']","[-0.15, 0.5]","[0.15, 0.5]",1,1,,,,,,,,,0,8,8,8,0,0,0,2,,,,,,,,,,,,,,,,,,,,,,,,,,,,,,,,,,,,,,,,,,,,,,,,,,,,,,,719.930703652999,None,719.930703652999,None,719.930703652999,None,m,1,1.1209470469984808,721.4641052239986,None,721.4641052239986,None,721.4641052239986,None,722.6641071859995,None,722.6641071859995,None,722.6641071859995,None,722.6641071859995,None,,,,,,,,,,,,,,,,,,,,,,,,,,,,,,,,,,,,,,,,,,,,001,64,2020_Feb_04_1228,spring_faces,3.2.3,59.98607435266741,
condition files/Stage1_1.xlsx,,B3,T3,c,"['c', 'm']","['Clue', 'Monopoly']","[-0.15, 0.5]","[0.15, 0.5]",1,1,,,,,,,,,0,8,8,8,0,1,1,4,,,,,,,,,,,,,,,,,,,,,,,,,,,,,,,,,,,,,,,,,,,,,,,,,,,,,,,724.630808635,None,724.630808635,None,724.630808635,None,c,1,0.9969828169996617,726.1641169949999,None,726.1641169949999,None,726.1641169949999,None,727.2307524299995,None,727.2307524299995,None,727.2307524299995,None,727.2307524299995,None,,,,,,,,,,,,,,,,,,,,,,,,,,,,,,,,,,,,,,,,,,,,001,64,2020_Feb_04_1228,spring_faces,3.2.3,59.98607435266741,
condition files/Stage1_1.xlsx,,T1,B1,c,"['c', 'm']","['Clue', 'Monopoly']","[-0.15, 0.5]","[0.15, 0.5]",1,1,,,,,,,,,0,8,8,8,0,2,2,0,,,,,,,,,,,,,,,,,,,,,,,,,,,,,,,,,,,,,,,,,,,,,,,,,,,,,,,729.1974223469988,None,729.1974223469988,None,729.1974223469988,None,c,1,0.9423688860006223,730.7307058939987,None,730.7307058939987,None,730.7307058939987,None,731.7307544179985,None,731.7307544179985,None,731.7307544179985,None,731.7307544179985,None,,,,,,,,,,,,,,,,,,,,,,,,,,,,,,,,,,,,,,,,,,,,001,64,2020_Feb_04_1228,spring_faces,3.2.3,59.98607435266741,
condition files/Stage1_1.xlsx,,T4,B3,m,"['c', 'm']","['Clue', 'Monopoly']","[-0.15, 0.5]","[0.15, 0.5]",1,1,,,,,,,,,0,8,8,8,0,3,3,6,,,,,,,,,,,,,,,,,,,,,,,,,,,,,,,,,,,,,,,,,,,,,,,,,,,,,,,733.7141356349985,None,733.7141356349985,None,733.7141356349985,None,m,1,1.4976661049986433,735.247479792999,None,735.247479792999,None,735.247479792999,None,736.8141000749984,None,736.8141000749984,None,736.8141000749984,None,736.8141000749984,None,,,,,,,,,,,,,,,,,,,,,,,,,,,,,,,,,,,,,,,,,,,,001,64,2020_Feb_04_1228,spring_faces,3.2.3,59.98607435266741,
condition files/Stage1_1.xlsx,,T2,B2,m,"['c', 'm']","['Clue', 'Monopoly']","[-0.15, 0.5]","[0.15, 0.5]",1,1,,,,,,,,,0,8,8,8,0,4,4,3,,,,,,,,,,,,,,,,,,,,,,,,,,,,,,,,,,,,,,,,,,,,,,,,,,,,,,,738.7807319779986,None,738.7807319779986,None,738.7807319779986,None,c,0,0.9270252669994079,740.3140477079996,None,740.3140477079996,None,740.3140477079996,None,741.2974392239994,None,741.2974392239994,None,741.2974392239994,None,741.2974392239994,None,,,,,,,,,,,,,,,,,,,,,,,,,,,,,,,,,,,,,,,,,,,,001,64,2020_Feb_04_1228,spring_faces,3.2.3,59.98607435266741,
condition files/Stage1_1.xlsx,,T3,B4,c,"['c', 'm']","['Clue', 'Monopoly']","[-0.15, 0.5]","[0.15, 0.5]",1,1,,,,,,,,,0,8,8,8,0,5,5,5,,,,,,,,,,,,,,,,,,,,,,,,,,,,,,,,,,,,,,,,,,,,,,,,,,,,,,,743.2807829759986,None,743.2807829759986,None,743.2807829759986,None,c,1,1.7869428359990707,744.8140786039985,None,744.8140786039985,None,744.8140786039985,None,746.6807801499999,None,746.6807801499999,None,746.6807801499999,None,746.6807801499999,None,,,,,,,,,,,,,,,,,,,,,,,,,,,,,,,,,,,,,,,,,,,,001,64,2020_Feb_04_1228,spring_faces,3.2.3,59.98607435266741,
condition files/Stage1_1.xlsx,,B1,T2,c,"['c', 'm']","['Clue', 'Monopoly']","[-0.15, 0.5]","[0.15, 0.5]",1,1,,,,,,,,,0,8,8,8,0,6,6,1,,,,,,,,,,,,,,,,,,,,,,,,,,,,,,,,,,,,,,,,,,,,,,,,,,,,,,,748.6474748739984,None,748.6474748739984,None,748.6474748739984,None,c,1,1.1242465690011159,750.1807845479998,None,750.1807845479998,None,750.1807845479998,None,751.3640840299995,None,751.3640840299995,None,751.3640840299995,None,751.3640840299995,None,,,,,,,,,,,,,,,,,,,,,,,,,,,,,,,,,,,,,,,,,,,,001,64,2020_Feb_04_1228,spring_faces,3.2.3,59.98607435266741,
condition files/Stage1_1.xlsx,,B4,T4,m,"['c', 'm']","['Clue', 'Monopoly']","[-0.15, 0.5]","[0.15, 0.5]",1,1,,,,,,,,,0,8,8,8,0,7,7,7,,,,,,,,,,,,,,,,,,,,,,,,,,,,,,,,,,,,,,,,,,,,,,,,,,,,,,,753.3474748239987,None,753.3474748239987,None,753.3474748239987,None,m,1,1.5762917489992105,754.880789032999,None,754.880789032999,None,754.880789032999,None,756.5307899899999,None,756.5307899899999,None,756.5307899899999,None,756.5307899899999,None,,,,,,,,,,,,,,,,,,,,,,,,,,,,,,,,,,,,,,,,,,,,001,64,2020_Feb_04_1228,spring_faces,3.2.3,59.98607435266741,
condition files/Stage1_2.xlsx,,B1,T1,c,"['c', 'm']","['Clue', 'Monopoly']","[-0.15, 0.5]","[0.15, 0.5]",1,1,,,,,,,,,0,9,9,9,0,0,0,0,,,,,,,,,,,,,,,,,,,,,,,,,,,,,,,,,,,,,,,,,,,,,,,,,,,,,,,758.5141242699992,None,758.5141242699992,None,758.5141242699992,None,c,1,1.113666037999792,760.0474489839999,None,760.0474489839999,None,760.0474489839999,None,761.2307862689995,None,761.2307862689995,None,761.2307862689995,None,761.2307862689995,None,,,,,,,,,,,,,,,,,,,,,,,,,,,,,,,,,,,,,,,,,,,,001,64,2020_Feb_04_1228,spring_faces,3.2.3,59.98607435266741,
condition files/Stage1_2.xlsx,,B2,T2,m,"['c', 'm']","['Clue', 'Monopoly']","[-0.15, 0.5]","[0.15, 0.5]",1,1,,,,,,,,,0,9,9,9,0,1,1,3,,,,,,,,,,,,,,,,,,,,,,,,,,,,,,,,,,,,,,,,,,,,,,,,,,,,,,,763.1974208319989,None,763.1974208319989,None,763.1974208319989,None,m,1,1.2303136390000873,764.7307983739993,None,764.7307983739993,None,764.7307983739993,None,766.0307421089983,None,766.0307421089983,None,766.0307421089983,None,766.0307421089983,None,,,,,,,,,,,,,,,,,,,,,,,,,,,,,,,,,,,,,,,,,,,,001,64,2020_Feb_04_1228,spring_faces,3.2.3,59.98607435266741,
condition files/Stage1_2.xlsx,,B3,T4,m,"['c', 'm']","['Clue', 'Monopoly']","[-0.15, 0.5]","[0.15, 0.5]",1,1,,,,,,,,,0,9,9,9,0,2,2,6,,,,,,,,,,,,,,,,,,,,,,,,,,,,,,,,,,,,,,,,,,,,,,,,,,,,,,,767.9973986419991,None,767.9973986419991,None,767.9973986419991,None,m,1,1.3263570939998317,769.5307150789995,None,769.5307150789995,None,769.5307150789995,None,770.9140633489988,None,770.9140633489988,None,770.9140633489988,None,770.9140633489988,None,,,,,,,,,,,,,,,,,,,,,,,,,,,,,,,,,,,,,,,,,,,,001,64,2020_Feb_04_1228,spring_faces,3.2.3,59.98607435266741,
condition files/Stage1_2.xlsx,,T3,B3,c,"['c', 'm']","['Clue', 'Monopoly']","[-0.15, 0.5]","[0.15, 0.5]",1,1,,,,,,,,,0,9,9,9,0,3,3,4,,,,,,,,,,,,,,,,,,,,,,,,,,,,,,,,,,,,,,,,,,,,,,,,,,,,,,,772.8974627109983,None,772.8974627109983,None,772.8974627109983,None,c,1,1.1143437720002112,774.4307677939996,None,774.4307677939996,None,774.4307677939996,None,775.6139648469998,None,775.6139648469998,None,775.6139648469998,None,775.6139648469998,None,,,,,,,,,,,,,,,,,,,,,,,,,,,,,,,,,,,,,,,,,,,,001,64,2020_Feb_04_1228,spring_faces,3.2.3,59.98607435266741,
condition files/Stage1_2.xlsx,,T4,B4,m,"['c', 'm']","['Clue', 'Monopoly']","[-0.15, 0.5]","[0.15, 0.5]",1,1,,,,,,,,,0,9,9,9,0,4,4,7,,,,,,,,,,,,,,,,,,,,,,,,,,,,,,,,,,,,,,,,,,,,,,,,,,,,,,,777.580784026999,None,777.580784026999,None,777.580784026999,None,m,1,2.2550035679996654,779.1140451079991,None,779.1140451079991,None,779.1140451079991,None,781.4474423979991,None,781.4474423979991,None,781.4474423979991,None,781.4474423979991,None,,,,,,,,,,,,,,,,,,,,,,,,,,,,,,,,,,,,,,,,,,,,001,64,2020_Feb_04_1228,spring_faces,3.2.3,59.98607435266741,
condition files/Stage1_2.xlsx,,T1,B2,m,"['c', 'm']","['Clue', 'Monopoly']","[-0.15, 0.5]","[0.15, 0.5]",1,1,,,,,,,,,0,9,9,9,0,5,5,2,,,,,,,,,,,,,,,,,,,,,,,,,,,,,,,,,,,,,,,,,,,,,,,,,,,,,,,783.4141215459986,None,783.4141215459986,None,783.4141215459986,None,m,1,1.2855298920003406,784.9474557689991,None,784.9474557689991,None,784.9474557689991,None,786.3140490959995,None,786.3140490959995,None,786.3140490959995,None,786.3140490959995,None,,,,,,,,,,,,,,,,,,,,,,,,,,,,,,,,,,,,,,,,,,,,001,64,2020_Feb_04_1228,spring_faces,3.2.3,59.98607435266741,
condition files/Stage1_2.xlsx,,T2,B1,c,"['c', 'm']","['Clue', 'Monopoly']","[-0.15, 0.5]","[0.15, 0.5]",1,1,,,,,,,,,0,9,9,9,0,6,6,1,,,,,,,,,,,,,,,,,,,,,,,,,,,,,,,,,,,,,,,,,,,,,,,,,,,,,,,788.2807864989991,None,788.2807864989991,None,788.2807864989991,None,c,1,0.9948759710005106,789.8140797549986,None,789.8140797549986,None,789.8140797549986,None,790.8807959259993,None,790.8807959259993,None,790.8807959259993,None,790.8807959259993,None,,,,,,,,,,,,,,,,,,,,,,,,,,,,,,,,,,,,,,,,,,,,001,64,2020_Feb_04_1228,spring_faces,3.2.3,59.98607435266741,
condition files/Stage1_2.xlsx,,B4,T3,c,"['c', 'm']","['Clue', 'Monopoly']","[-0.15, 0.5]","[0.15, 0.5]",1,1,,,,,,,,,0,9,9,9,0,7,7,5,,,,,,,,,,,,,,,,,,,,,,,,,,,,,,,,,,,,,,,,,,,,,,,,,,,,,,,792.8474407199992,None,792.8474407199992,None,792.8474407199992,None,c,1,2.1402670450006553,794.3807738899995,None,794.3807738899995,None,794.3807738899995,None,796.5807976009983,None,796.5807976009983,None,796.5807976009983,None,796.5807976009983,None,,,,,,,,,,,,,,,,,,,,,,,,,,,,,,,,,,,,,,,,,,,,001,64,2020_Feb_04_1228,spring_faces,3.2.3,59.98607435266741,
condition files/Stage1_1.xlsx,,T3,B4,c,"['c', 'm']","['Clue', 'Monopoly']","[-0.15, 0.5]","[0.15, 0.5]",1,1,,,,,,,,,0,10,10,10,0,0,0,5,,,,,,,,,,,,,,,,,,,,,,,,,,,,,,,,,,,,,,,,,,,,,,,,,,,,,,,798.5807529519989,None,798.5807529519989,None,798.5807529519989,None,c,1,1.4951330560015776,800.1139517969987,None,800.1139517969987,None,800.1139517969987,None,801.6807915579993,None,801.6807915579993,None,801.6807915579993,None,801.6807915579993,None,,,,,,,,,,,,,,,,,,,,,,,,,,,,,,,,,,,,,,,,,,,,001,64,2020_Feb_04_1228,spring_faces,3.2.3,59.98607435266741,
condition files/Stage1_1.xlsx,,B4,T4,m,"['c', 'm']","['Clue', 'Monopoly']","[-0.15, 0.5]","[0.15, 0.5]",1,1,,,,,,,,,0,10,10,10,0,1,1,7,,,,,,,,,,,,,,,,,,,,,,,,,,,,,,,,,,,,,,,,,,,,,,,,,,,,,,,803.6474874699998,None,803.6474874699998,None,803.6474874699998,None,m,1,1.4841572140012431,805.1807936639998,None,805.1807936639998,None,805.1807936639998,None,806.7474367099985,None,806.7474367099985,None,806.7474367099985,None,806.7474367099985,None,,,,,,,,,,,,,,,,,,,,,,,,,,,,,,,,,,,,,,,,,,,,001,64,2020_Feb_04_1228,spring_faces,3.2.3,59.98607435266741,
condition files/Stage1_1.xlsx,,B2,T1,m,"['c', 'm']","['Clue', 'Monopoly']","[-0.15, 0.5]","[0.15, 0.5]",1,1,,,,,,,,,0,10,10,10,0,2,2,2,,,,,,,,,,,,,,,,,,,,,,,,,,,,,,,,,,,,,,,,,,,,,,,,,,,,,,,808.7134470769997,None,808.7134470769997,None,808.7134470769997,None,m,1,0.929645664000418,810.2474364469999,None,810.2474364469999,None,810.2474364469999,None,811.2474438199988,None,811.2474438199988,None,811.2474438199988,None,811.2474438199988,None,,,,,,,,,,,,,,,,,,,,,,,,,,,,,,,,,,,,,,,,,,,,001,64,2020_Feb_04_1228,spring_faces,3.2.3,59.98607435266741,
condition files/Stage1_1.xlsx,,T2,B2,m,"['c', 'm']","['Clue', 'Monopoly']","[-0.15, 0.5]","[0.15, 0.5]",1,1,,,,,,,,,0,10,10,10,0,3,3,3,,,,,,,,,,,,,,,,,,,,,,,,,,,,,,,,,,,,,,,,,,,,,,,,,,,,,,,813.2141316409998,None,813.2141316409998,None,813.2141316409998,None,m,1,1.325673404000554,814.7473922399986,None,814.7473922399986,None,814.7473922399986,None,816.1474154479984,None,816.1474154479984,None,816.1474154479984,None,816.1474154479984,None,,,,,,,,,,,,,,,,,,,,,,,,,,,,,,,,,,,,,,,,,,,,001,64,2020_Feb_04_1228,spring_faces,3.2.3,59.98607435266741,
condition files/Stage1_1.xlsx,,B3,T3,c,"['c', 'm']","['Clue', 'Monopoly']","[-0.15, 0.5]","[0.15, 0.5]",1,1,,,,,,,,,0,10,10,10,0,4,4,4,,,,,,,,,,,,,,,,,,,,,,,,,,,,,,,,,,,,,,,,,,,,,,,,,,,,,,,818.1141258169991,None,818.1141258169991,None,818.1141258169991,None,c,1,1.433547307000481,819.6474202929985,None,819.6474202929985,None,819.6474202929985,None,821.1473866239994,None,821.1473866239994,None,821.1473866239994,None,821.1473866239994,None,,,,,,,,,,,,,,,,,,,,,,,,,,,,,,,,,,,,,,,,,,,,001,64,2020_Feb_04_1228,spring_faces,3.2.3,59.98607435266741,
condition files/Stage1_1.xlsx,,T4,B3,m,"['c', 'm']","['Clue', 'Monopoly']","[-0.15, 0.5]","[0.15, 0.5]",1,1,,,,,,,,,0,10,10,10,0,5,5,6,,,,,,,,,,,,,,,,,,,,,,,,,,,,,,,,,,,,,,,,,,,,,,,,,,,,,,,823.114078568,None,823.114078568,None,823.114078568,None,m,1,3.105584713999633,824.6474491269983,None,824.6474491269983,None,824.6474491269983,None,827.8307856529991,None,827.8307856529991,None,827.8307856529991,None,827.8307856529991,None,,,,,,,,,,,,,,,,,,,,,,,,,,,,,,,,,,,,,,,,,,,,001,64,2020_Feb_04_1228,spring_faces,3.2.3,59.98607435266741,
condition files/Stage1_1.xlsx,,T1,B1,c,"['c', 'm']","['Clue', 'Monopoly']","[-0.15, 0.5]","[0.15, 0.5]",1,1,,,,,,,,,0,10,10,10,0,6,6,0,,,,,,,,,,,,,,,,,,,,,,,,,,,,,,,,,,,,,,,,,,,,,,,,,,,,,,,829.797458994999,None,829.797458994999,None,829.797458994999,None,c,1,0.9022187840000697,831.3307796269983,None,831.3307796269983,None,831.3307796269983,None,832.3140677949996,None,832.3140677949996,None,832.3140677949996,None,832.3140677949996,None,,,,,,,,,,,,,,,,,,,,,,,,,,,,,,,,,,,,,,,,,,,,001,64,2020_Feb_04_1228,spring_faces,3.2.3,59.98607435266741,
condition files/Stage1_1.xlsx,,B1,T2,c,"['c', 'm']","['Clue', 'Monopoly']","[-0.15, 0.5]","[0.15, 0.5]",1,1,,,,,,,,,0,10,10,10,0,7,7,1,,,,,,,,,,,,,,,,,,,,,,,,,,,,,,,,,,,,,,,,,,,,,,,,,,,,,,,834.2807952529984,None,834.2807952529984,None,834.2807952529984,None,c,1,1.0749350269998104,835.8141149659987,None,835.8141149659987,None,835.8141149659987,None,836.9474457559991,None,836.9474457559991,None,836.9474457559991,None,836.9474457559991,None,,,,,,,,,,,,,,,,,,,,,,,,,,,,,,,,,,,,,,,,,,,,001,64,2020_Feb_04_1228,spring_faces,3.2.3,59.98607435266741,
condition files/Stage1_2.xlsx,,B4,T3,c,"['c', 'm']","['Clue', 'Monopoly']","[-0.15, 0.5]","[0.15, 0.5]",1,1,,,,,,,,,0,11,11,11,0,0,0,5,,,,,,,,,,,,,,,,,,,,,,,,,,,,,,,,,,,,,,,,,,,,,,,,,,,,,,,838.9474280779996,None,838.9474280779996,None,838.9474280779996,None,c,1,1.9123201700003847,840.4807441329995,None,840.4807441329995,None,840.4807441329995,None,842.4640871529991,None,842.4640871529991,None,842.4640871529991,None,842.4640871529991,None,,,,,,,,,,,,,,,,,,,,,,,,,,,,,,,,,,,,,,,,,,,,001,64,2020_Feb_04_1228,spring_faces,3.2.3,59.98607435266741,
condition files/Stage1_2.xlsx,,B2,T2,m,"['c', 'm']","['Clue', 'Monopoly']","[-0.15, 0.5]","[0.15, 0.5]",1,1,,,,,,,,,0,11,11,11,0,1,1,3,,,,,,,,,,,,,,,,,,,,,,,,,,,,,,,,,,,,,,,,,,,,,,,,,,,,,,,844.4307631639986,None,844.4307631639986,None,844.4307631639986,None,m,1,0.9729967539988138,845.9640277359995,None,845.9640277359995,None,845.9640277359995,None,847.0140952429992,None,847.0140952429992,None,847.0140952429992,None,847.0140952429992,None,,,,,,,,,,,,,,,,,,,,,,,,,,,,,,,,,,,,,,,,,,,,001,64,2020_Feb_04_1228,spring_faces,3.2.3,59.98607435266741,
condition files/Stage1_2.xlsx,,B1,T1,c,"['c', 'm']","['Clue', 'Monopoly']","[-0.15, 0.5]","[0.15, 0.5]",1,1,,,,,,,,,0,11,11,11,0,2,2,0,,,,,,,,,,,,,,,,,,,,,,,,,,,,,,,,,,,,,,,,,,,,,,,,,,,,,,,848.9807691949991,None,848.9807691949991,None,848.9807691949991,None,c,1,1.3348719050009095,850.5140875219986,None,850.5140875219986,None,850.5140875219986,None,851.9307224099994,None,851.9307224099994,None,851.9307224099994,None,851.9307224099994,None,,,,,,,,,,,,,,,,,,,,,,,,,,,,,,,,,,,,,,,,,,,,001,64,2020_Feb_04_1228,spring_faces,3.2.3,59.98607435266741,
condition files/Stage1_2.xlsx,,B3,T4,m,"['c', 'm']","['Clue', 'Monopoly']","[-0.15, 0.5]","[0.15, 0.5]",1,1,,,,,,,,,0,11,11,11,0,3,3,6,,,,,,,,,,,,,,,,,,,,,,,,,,,,,,,,,,,,,,,,,,,,,,,,,,,,,,,853.8973196839997,None,853.8973196839997,None,853.8973196839997,None,m,1,1.3463278019989957,855.4307547879998,None,855.4307547879998,None,855.4307547879998,None,856.8474233289999,None,856.8474233289999,None,856.8474233289999,None,856.8474233289999,None,,,,,,,,,,,,,,,,,,,,,,,,,,,,,,,,,,,,,,,,,,,,001,64,2020_Feb_04_1228,spring_faces,3.2.3,59.98607435266741,
condition files/Stage1_2.xlsx,,T2,B1,c,"['c', 'm']","['Clue', 'Monopoly']","[-0.15, 0.5]","[0.15, 0.5]",1,1,,,,,,,,,0,11,11,11,0,4,4,1,,,,,,,,,,,,,,,,,,,,,,,,,,,,,,,,,,,,,,,,,,,,,,,,,,,,,,,858.814099236999,None,858.814099236999,None,858.814099236999,None,c,1,0.9096039150008437,860.3474452329992,None,860.3474452329992,None,860.3474452329992,None,861.3307534539999,None,861.3307534539999,None,861.3307534539999,None,861.3307534539999,None,,,,,,,,,,,,,,,,,,,,,,,,,,,,,,,,,,,,,,,,,,,,001,64,2020_Feb_04_1228,spring_faces,3.2.3,59.98607435266741,
condition files/Stage1_2.xlsx,,T4,B4,m,"['c', 'm']","['Clue', 'Monopoly']","[-0.15, 0.5]","[0.15, 0.5]",1,1,,,,,,,,,0,11,11,11,0,5,5,7,,,,,,,,,,,,,,,,,,,,,,,,,,,,,,,,,,,,,,,,,,,,,,,,,,,,,,,863.29743805,None,863.29743805,None,863.29743805,None,m,1,1.6742664440007502,864.8308065199999,None,864.8308065199999,None,864.8308065199999,None,866.5807863289992,None,866.5807863289992,None,866.5807863289992,None,866.5807863289992,None,,,,,,,,,,,,,,,,,,,,,,,,,,,,,,,,,,,,,,,,,,,,001,64,2020_Feb_04_1228,spring_faces,3.2.3,59.98607435266741,
condition files/Stage1_2.xlsx,,T3,B3,c,"['c', 'm']","['Clue', 'Monopoly']","[-0.15, 0.5]","[0.15, 0.5]",1,1,,,,,,,,,0,11,11,11,0,6,6,4,,,,,,,,,,,,,,,,,,,,,,,,,,,,,,,,,,,,,,,,,,,,,,,,,,,,,,,868.547456115999,None,868.547456115999,None,868.547456115999,None,c,1,0.9202618059989618,870.0807563949984,None,870.0807563949984,None,870.0807563949984,None,871.0807841379992,None,871.0807841379992,None,871.0807841379992,None,871.0807841379992,None,,,,,,,,,,,,,,,,,,,,,,,,,,,,,,,,,,,,,,,,,,,,001,64,2020_Feb_04_1228,spring_faces,3.2.3,59.98607435266741,
condition files/Stage1_2.xlsx,,T1,B2,m,"['c', 'm']","['Clue', 'Monopoly']","[-0.15, 0.5]","[0.15, 0.5]",1,1,,,,,,,,,0,11,11,11,0,7,7,2,,,,,,,,,,,,,,,,,,,,,,,,,,,,,,,,,,,,,,,,,,,,,,,,,,,,,,,873.0474481649999,None,873.0474481649999,None,873.0474481649999,None,m,1,1.316338247999738,874.5807972249986,None,874.5807972249986,None,874.5807972249986,None,875.964051298999,None,875.964051298999,None,875.964051298999,None,875.964051298999,None,,,,,,,,,,,,,,,,,,,,,,,,,,,,,,,,,,,,,,,,,,,,001,64,2020_Feb_04_1228,spring_faces,3.2.3,59.98607435266741,
,,,,,,,,,,,,,,,,,,,,,,,,,,,,,,,,,,,,,,,,,,,,,,,,,,,,,,,,,,,,,,,,,,,,,,,,,,,,,,,,,,,,,,,,,,,,,,,,,,,,,,,,,,,,,,,,877.9307144799986,None,space,14.262988323000172,882.9140917669993,None,,,,,,,,,,,,,,,,,,,,,,,,,,,,,,001,64,2020_Feb_04_1228,spring_faces,3.2.3,59.98607435266741,
condition files/Stage2_1.xlsx,,B4,T4,r,"['s', 'r']","['Stratego', 'Risk']","[-0.15, 0.5]","[0.15, 0.5]",1,1,,,,,,,,,,,,,,,,,0,0,0,0,0,0,0,5,,,,,,,,,,,,,,,,,,,,,,,,,,,,,,,,,,,,,,,,,,,,,,,897.5470998339988,None,897.5470998339988,None,897.5470998339988,None,r,1,3.0057064150005317,898.7473572829986,None,898.7473572829986,None,898.7473572829986,None,901.8307832429982,None,901.8307832429982,None,901.8307832429982,None,901.8307832429982,None,,,,,,,,,,,,,,,882.9140917669993,None,,,,,,,,,,,,,,,,,,,,,,,,,,,,001,64,2020_Feb_04_1228,spring_faces,3.2.3,59.98607435266741,
condition files/Stage2_1.xlsx,,T5,B5,s,"['s', 'r']","['Stratego', 'Risk']","[-0.15, 0.5]","[0.15, 0.5]",1,1,,,,,,,,,,,,,,,,,0,0,0,0,0,1,1,0,,,,,,,,,,,,,,,,,,,,,,,,,,,,,,,,,,,,,,,,,,,,,,,903.7973688589991,None,903.7973688589991,None,903.7973688589991,None,s,1,1.2042350609990535,905.3808199779996,None,905.3808199779996,None,905.3808199779996,None,906.664116943999,None,906.664116943999,None,906.664116943999,None,906.664116943999,None,,,,,,,,,,,,,,,,,,,,,,,,,,,,,,,,,,,,,,,,,,,,001,64,2020_Feb_04_1228,spring_faces,3.2.3,59.98607435266741,
condition files/Stage2_1.xlsx,,T3,B3,s,"['s', 'r']","['Stratego', 'Risk']","[-0.15, 0.5]","[0.15, 0.5]",1,1,,,,,,,,,,,,,,,,,0,0,0,0,0,2,2,4,,,,,,,,,,,,,,,,,,,,,,,,,,,,,,,,,,,,,,,,,,,,,,,908.6307797579993,None,908.6307797579993,None,908.6307797579993,None,s,1,1.588903419999042,910.1641340629994,None,910.1641340629994,None,910.1641340629994,None,911.8140844989994,None,911.8140844989994,None,911.8140844989994,None,911.8140844989994,None,,,,,,,,,,,,,,,,,,,,,,,,,,,,,,,,,,,,,,,,,,,,001,64,2020_Feb_04_1228,spring_faces,3.2.3,59.98607435266741,
condition files/Stage2_1.xlsx,,B2,T2,r,"['s', 'r']","['Stratego', 'Risk']","[-0.15, 0.5]","[0.15, 0.5]",1,1,,,,,,,,,,,,,,,,,0,0,0,0,0,3,3,3,,,,,,,,,,,,,,,,,,,,,,,,,,,,,,,,,,,,,,,,,,,,,,,913.7974418479989,None,913.7974418479989,None,913.7974418479989,None,r,1,2.18236712199905,915.3307801499996,None,915.3307801499996,None,915.3307801499996,None,917.5807203589993,None,917.5807203589993,None,917.5807203589993,None,917.5807203589993,None,,,,,,,,,,,,,,,,,,,,,,,,,,,,,,,,,,,,,,,,,,,,001,64,2020_Feb_04_1228,spring_faces,3.2.3,59.98607435266741,
condition files/Stage2_1.xlsx,,T1,B1,s,"['s', 'r']","['Stratego', 'Risk']","[-0.15, 0.5]","[0.15, 0.5]",1,1,,,,,,,,,,,,,,,,,0,0,0,0,0,4,4,2,,,,,,,,,,,,,,,,,,,,,,,,,,,,,,,,,,,,,,,,,,,,,,,919.5474726469984,None,919.5474726469984,None,919.5474726469984,None,s,1,0.9922614050010452,921.0807891829991,None,921.0807891829991,None,921.0807891829991,None,922.1474216139995,None,922.1474216139995,None,922.1474216139995,None,922.1474216139995,None,,,,,,,,,,,,,,,,,,,,,,,,,,,,,,,,,,,,,,,,,,,,001,64,2020_Feb_04_1228,spring_faces,3.2.3,59.98607435266741,
condition files/Stage2_1.xlsx,,B6,T6,r,"['s', 'r']","['Stratego', 'Risk']","[-0.15, 0.5]","[0.15, 0.5]",1,1,,,,,,,,,,,,,,,,,0,0,0,0,0,5,5,1,,,,,,,,,,,,,,,,,,,,,,,,,,,,,,,,,,,,,,,,,,,,,,,924.1140869399987,None,924.1140869399987,None,924.1140869399987,None,r,1,1.1015943480015267,925.9473814569992,None,925.9473814569992,None,925.9473814569992,None,927.1307200699994,None,927.1307200699994,None,927.1307200699994,None,927.1307200699994,None,,,,,,,,,,,,,,,,,,,,,,,,,,,,,,,,,,,,,,,,,,,,001,64,2020_Feb_04_1228,spring_faces,3.2.3,59.98607435266741,
condition files/Stage2_2.xlsx,,T4,B4,r,"['s', 'r']","['Stratego', 'Risk']","[-0.15, 0.5]","[0.15, 0.5]",1,1,,,,,,,,,,,,,,,,,0,1,1,1,0,0,0,5,,,,,,,,,,,,,,,,,,,,,,,,,,,,,,,,,,,,,,,,,,,,,,,929.1474407239984,None,929.1474407239984,None,929.1474407239984,None,r,1,1.473621679999269,930.6474274759985,None,930.6474274759985,None,930.6474274759985,None,932.1807570149995,None,932.1807570149995,None,932.1807570149995,None,932.1807570149995,None,,,,,,,,,,,,,,,,,,,,,,,,,,,,,,,,,,,,,,,,,,,,001,64,2020_Feb_04_1228,spring_faces,3.2.3,59.98607435266741,
condition files/Stage2_2.xlsx,,B1,T1,s,"['s', 'r']","['Stratego', 'Risk']","[-0.15, 0.5]","[0.15, 0.5]",1,1,,,,,,,,,,,,,,,,,0,1,1,1,0,1,1,2,,,,,,,,,,,,,,,,,,,,,,,,,,,,,,,,,,,,,,,,,,,,,,,934.1641412519984,None,934.1641412519984,None,934.1641412519984,None,s,1,1.7514969109997764,935.6974552519987,None,935.6974552519987,None,935.6974552519987,None,937.5307775109995,None,937.5307775109995,None,937.5307775109995,None,937.5307775109995,None,,,,,,,,,,,,,,,,,,,,,,,,,,,,,,,,,,,,,,,,,,,,001,64,2020_Feb_04_1228,spring_faces,3.2.3,59.98607435266741,
condition files/Stage2_2.xlsx,,T6,B6,r,"['s', 'r']","['Stratego', 'Risk']","[-0.15, 0.5]","[0.15, 0.5]",1,1,,,,,,,,,,,,,,,,,0,1,1,1,0,2,2,1,,,,,,,,,,,,,,,,,,,,,,,,,,,,,,,,,,,,,,,,,,,,,,,939.4974501549987,None,939.4974501549987,None,939.4974501549987,None,r,1,1.7463730749987008,941.0307117959983,None,941.0307117959983,None,941.0307117959983,None,942.8474214769994,None,942.8474214769994,None,942.8474214769994,None,942.8474214769994,None,,,,,,,,,,,,,,,,,,,,,,,,,,,,,,,,,,,,,,,,,,,,001,64,2020_Feb_04_1228,spring_faces,3.2.3,59.98607435266741,
condition files/Stage2_2.xlsx,,T2,B2,r,"['s', 'r']","['Stratego', 'Risk']","[-0.15, 0.5]","[0.15, 0.5]",1,1,,,,,,,,,,,,,,,,,0,1,1,1,0,3,3,3,,,,,,,,,,,,,,,,,,,,,,,,,,,,,,,,,,,,,,,,,,,,,,,944.8140756139983,None,944.8140756139983,None,944.8140756139983,None,r,1,1.709678425000675,946.3473944779998,None,946.3473944779998,None,946.3473944779998,None,948.130749729,None,948.130749729,None,948.130749729,None,948.130749729,None,,,,,,,,,,,,,,,,,,,,,,,,,,,,,,,,,,,,,,,,,,,,001,64,2020_Feb_04_1228,spring_faces,3.2.3,59.98607435266741,
condition files/Stage2_2.xlsx,,B3,T3,s,"['s', 'r']","['Stratego', 'Risk']","[-0.15, 0.5]","[0.15, 0.5]",1,1,,,,,,,,,,,,,,,,,0,1,1,1,0,4,4,4,,,,,,,,,,,,,,,,,,,,,,,,,,,,,,,,,,,,,,,,,,,,,,,950.0974619519984,None,950.0974619519984,None,950.0974619519984,None,s,1,1.146316571999705,951.6307700389989,None,951.6307700389989,None,951.6307700389989,None,952.8474221879987,None,952.8474221879987,None,952.8474221879987,None,952.8474221879987,None,,,,,,,,,,,,,,,,,,,,,,,,,,,,,,,,,,,,,,,,,,,,001,64,2020_Feb_04_1228,spring_faces,3.2.3,59.98607435266741,
condition files/Stage2_2.xlsx,,B5,T5,s,"['s', 'r']","['Stratego', 'Risk']","[-0.15, 0.5]","[0.15, 0.5]",1,1,,,,,,,,,,,,,,,,,0,1,1,1,0,5,5,0,,,,,,,,,,,,,,,,,,,,,,,,,,,,,,,,,,,,,,,,,,,,,,,954.8140873819993,None,954.8140873819993,None,954.8140873819993,None,s,1,1.1015281969994248,956.3474267559995,None,956.3474267559995,None,956.3474267559995,None,957.514047360999,None,957.514047360999,None,957.514047360999,None,957.514047360999,None,,,,,,,,,,,,,,,,,,,,,,,,,,,,,,,,,,,,,,,,,,,,001,64,2020_Feb_04_1228,spring_faces,3.2.3,59.98607435266741,
condition files/Stage2_1.xlsx,,T5,B5,s,"['s', 'r']","['Stratego', 'Risk']","[-0.15, 0.5]","[0.15, 0.5]",1,1,,,,,,,,,,,,,,,,,0,2,2,2,0,0,0,0,,,,,,,,,,,,,,,,,,,,,,,,,,,,,,,,,,,,,,,,,,,,,,,959.5140600909999,None,959.5140600909999,None,959.5140600909999,None,s,1,1.0576109209996503,961.0474559329996,None,961.0474559329996,None,961.0474559329996,None,962.1807756039998,None,962.1807756039998,None,962.1807756039998,None,962.1807756039998,None,,,,,,,,,,,,,,,,,,,,,,,,,,,,,,,,,,,,,,,,,,,,001,64,2020_Feb_04_1228,spring_faces,3.2.3,59.98607435266741,
condition files/Stage2_1.xlsx,,T1,B1,s,"['s', 'r']","['Stratego', 'Risk']","[-0.15, 0.5]","[0.15, 0.5]",1,1,,,,,,,,,,,,,,,,,0,2,2,2,0,1,1,2,,,,,,,,,,,,,,,,,,,,,,,,,,,,,,,,,,,,,,,,,,,,,,,964.1474261999992,None,964.1474261999992,None,964.1474261999992,None,s,1,0.6963277599988942,965.6807558259989,None,965.6807558259989,None,965.6807558259989,None,966.4474680119984,None,966.4474680119984,None,966.4474680119984,None,966.4474680119984,None,,,,,,,,,,,,,,,,,,,,,,,,,,,,,,,,,,,,,,,,,,,,001,64,2020_Feb_04_1228,spring_faces,3.2.3,59.98607435266741,
condition files/Stage2_1.xlsx,,T3,B3,s,"['s', 'r']","['Stratego', 'Risk']","[-0.15, 0.5]","[0.15, 0.5]",1,1,,,,,,,,,,,,,,,,,0,2,2,2,0,2,2,4,,,,,,,,,,,,,,,,,,,,,,,,,,,,,,,,,,,,,,,,,,,,,,,968.4140935009982,None,968.4140935009982,None,968.4140935009982,None,s,1,0.7496701079999184,969.9474480069985,None,969.9474480069985,None,969.9474480069985,None,970.7640768679994,None,970.7640768679994,None,970.7640768679994,None,970.7640768679994,None,,,,,,,,,,,,,,,,,,,,,,,,,,,,,,,,,,,,,,,,,,,,001,64,2020_Feb_04_1228,spring_faces,3.2.3,59.98607435266741,
condition files/Stage2_1.xlsx,,B4,T4,r,"['s', 'r']","['Stratego', 'Risk']","[-0.15, 0.5]","[0.15, 0.5]",1,1,,,,,,,,,,,,,,,,,0,2,2,2,0,3,3,5,,,,,,,,,,,,,,,,,,,,,,,,,,,,,,,,,,,,,,,,,,,,,,,972.7307240689988,None,972.7307240689988,None,972.7307240689988,None,r,1,1.5848296749991277,974.2641329859998,None,974.2641329859998,None,974.2641329859998,None,975.9307026359984,None,975.9307026359984,None,975.9307026359984,None,975.9307026359984,None,,,,,,,,,,,,,,,,,,,,,,,,,,,,,,,,,,,,,,,,,,,,001,64,2020_Feb_04_1228,spring_faces,3.2.3,59.98607435266741,
condition files/Stage2_1.xlsx,,B6,T6,r,"['s', 'r']","['Stratego', 'Risk']","[-0.15, 0.5]","[0.15, 0.5]",1,1,,,,,,,,,,,,,,,,,0,2,2,2,0,4,4,1,,,,,,,,,,,,,,,,,,,,,,,,,,,,,,,,,,,,,,,,,,,,,,,977.8974183189985,None,977.8974183189985,None,977.8974183189985,None,r,1,2.3862630509993323,979.4307626609989,None,979.4307626609989,None,979.4307626609989,None,981.8974685949997,None,981.8974685949997,None,981.8974685949997,None,981.8974685949997,None,,,,,,,,,,,,,,,,,,,,,,,,,,,,,,,,,,,,,,,,,,,,001,64,2020_Feb_04_1228,spring_faces,3.2.3,59.98607435266741,
condition files/Stage2_1.xlsx,,B2,T2,r,"['s', 'r']","['Stratego', 'Risk']","[-0.15, 0.5]","[0.15, 0.5]",1,1,,,,,,,,,,,,,,,,,0,2,2,2,0,5,5,3,,,,,,,,,,,,,,,,,,,,,,,,,,,,,,,,,,,,,,,,,,,,,,,983.8641473689986,None,983.8641473689986,None,983.8641473689986,None,r,1,1.5395616500009055,985.3974506349987,None,985.3974506349987,None,985.3974506349987,None,986.9974485399998,None,986.9974485399998,None,986.9974485399998,None,986.9974485399998,None,,,,,,,,,,,,,,,,,,,,,,,,,,,,,,,,,,,,,,,,,,,,001,64,2020_Feb_04_1228,spring_faces,3.2.3,59.98607435266741,
condition files/Stage2_2.xlsx,,T2,B2,r,"['s', 'r']","['Stratego', 'Risk']","[-0.15, 0.5]","[0.15, 0.5]",1,1,,,,,,,,,,,,,,,,,0,3,3,3,0,0,0,3,,,,,,,,,,,,,,,,,,,,,,,,,,,,,,,,,,,,,,,,,,,,,,,988.9974354399983,None,988.9974354399983,None,988.9974354399983,None,r,1,0.7263061590001598,990.5307598669988,None,990.5307598669988,None,990.5307598669988,None,991.3140597379988,None,991.3140597379988,None,991.3140597379988,None,991.3140597379988,None,,,,,,,,,,,,,,,,,,,,,,,,,,,,,,,,,,,,,,,,,,,,001,64,2020_Feb_04_1228,spring_faces,3.2.3,59.98607435266741,
condition files/Stage2_2.xlsx,,T4,B4,r,"['s', 'r']","['Stratego', 'Risk']","[-0.15, 0.5]","[0.15, 0.5]",1,1,,,,,,,,,,,,,,,,,0,3,3,3,0,1,1,5,,,,,,,,,,,,,,,,,,,,,,,,,,,,,,,,,,,,,,,,,,,,,,,993.2974239619998,None,993.2974239619998,None,993.2974239619998,None,r,1,1.3382739909993688,994.8307775089997,None,994.8307775089997,None,994.8307775089997,None,996.2307666369998,None,996.2307666369998,None,996.2307666369998,None,996.2307666369998,None,,,,,,,,,,,,,,,,,,,,,,,,,,,,,,,,,,,,,,,,,,,,001,64,2020_Feb_04_1228,spring_faces,3.2.3,59.98607435266741,
condition files/Stage2_2.xlsx,,T6,B6,r,"['s', 'r']","['Stratego', 'Risk']","[-0.15, 0.5]","[0.15, 0.5]",1,1,,,,,,,,,,,,,,,,,0,3,3,3,0,2,2,1,,,,,,,,,,,,,,,,,,,,,,,,,,,,,,,,,,,,,,,,,,,,,,,998.2141431639993,None,998.2141431639993,None,998.2141431639993,None,r,1,0.9015064260001964,999.7474484969989,None,999.7474484969989,None,999.7474484969989,None,1000.7307339309991,None,1000.7307339309991,None,1000.7307339309991,None,1000.7307339309991,None,,,,,,,,,,,,,,,,,,,,,,,,,,,,,,,,,,,,,,,,,,,,001,64,2020_Feb_04_1228,spring_faces,3.2.3,59.98607435266741,
condition files/Stage2_2.xlsx,,B3,T3,s,"['s', 'r']","['Stratego', 'Risk']","[-0.15, 0.5]","[0.15, 0.5]",1,1,,,,,,,,,,,,,,,,,0,3,3,3,0,3,3,4,,,,,,,,,,,,,,,,,,,,,,,,,,,,,,,,,,,,,,,,,,,,,,,1002.6974453779985,None,1002.6974453779985,None,1002.6974453779985,None,s,1,1.0102444309995917,1004.230793110999,None,1004.230793110999,None,1004.230793110999,None,1005.3141107389984,None,1005.3141107389984,None,1005.3141107389984,None,1005.3141107389984,None,,,,,,,,,,,,,,,,,,,,,,,,,,,,,,,,,,,,,,,,,,,,001,64,2020_Feb_04_1228,spring_faces,3.2.3,59.98607435266741,
condition files/Stage2_2.xlsx,,B5,T5,s,"['s', 'r']","['Stratego', 'Risk']","[-0.15, 0.5]","[0.15, 0.5]",1,1,,,,,,,,,,,,,,,,,0,3,3,3,0,4,4,0,,,,,,,,,,,,,,,,,,,,,,,,,,,,,,,,,,,,,,,,,,,,,,,1007.2808229389993,None,1007.2808229389993,None,1007.2808229389993,None,s,1,1.1310012560006726,1008.8141197069999,None,1008.8141197069999,None,1008.8141197069999,None,1009.9973908849988,None,1009.9973908849988,None,1009.9973908849988,None,1009.9973908849988,None,,,,,,,,,,,,,,,,,,,,,,,,,,,,,,,,,,,,,,,,,,,,001,64,2020_Feb_04_1228,spring_faces,3.2.3,59.98607435266741,
condition files/Stage2_2.xlsx,,B1,T1,s,"['s', 'r']","['Stratego', 'Risk']","[-0.15, 0.5]","[0.15, 0.5]",1,1,,,,,,,,,,,,,,,,,0,3,3,3,0,5,5,2,,,,,,,,,,,,,,,,,,,,,,,,,,,,,,,,,,,,,,,,,,,,,,,1011.9808150459994,None,1011.9808150459994,None,1011.9808150459994,None,s,1,1.0869776220006315,1013.5140747389996,None,1013.5140747389996,None,1013.5140747389996,None,1014.6640899099984,None,1014.6640899099984,None,1014.6640899099984,None,1014.6640899099984,None,,,,,,,,,,,,,,,,,,,,,,,,,,,,,,,,,,,,,,,,,,,,001,64,2020_Feb_04_1228,spring_faces,3.2.3,59.98607435266741,
condition files/Stage2_1.xlsx,,T5,B5,s,"['s', 'r']","['Stratego', 'Risk']","[-0.15, 0.5]","[0.15, 0.5]",1,1,,,,,,,,,,,,,,,,,0,4,4,4,0,0,0,0,,,,,,,,,,,,,,,,,,,,,,,,,,,,,,,,,,,,,,,,,,,,,,,1016.664112167,None,1016.664112167,None,1016.664112167,None,s,1,0.6436243530006323,1018.1974514009999,None,1018.1974514009999,None,1018.1974514009999,None,1018.9141129639993,None,1018.9141129639993,None,1018.9141129639993,None,1018.9141129639993,None,,,,,,,,,,,,,,,,,,,,,,,,,,,,,,,,,,,,,,,,,,,,001,64,2020_Feb_04_1228,spring_faces,3.2.3,59.98607435266741,
condition files/Stage2_1.xlsx,,T3,B3,s,"['s', 'r']","['Stratego', 'Risk']","[-0.15, 0.5]","[0.15, 0.5]",1,1,,,,,,,,,,,,,,,,,0,4,4,4,0,1,1,4,,,,,,,,,,,,,,,,,,,,,,,,,,,,,,,,,,,,,,,,,,,,,,,1020.8807911599997,None,1020.8807911599997,None,1020.8807911599997,None,s,1,1.0828980449987284,1022.4141177419988,None,1022.4141177419988,None,1022.4141177419988,None,1023.5474081719985,None,1023.5474081719985,None,1023.5474081719985,None,1023.5474081719985,None,,,,,,,,,,,,,,,,,,,,,,,,,,,,,,,,,,,,,,,,,,,,001,64,2020_Feb_04_1228,spring_faces,3.2.3,59.98607435266741,
condition files/Stage2_1.xlsx,,B2,T2,r,"['s', 'r']","['Stratego', 'Risk']","[-0.15, 0.5]","[0.15, 0.5]",1,1,,,,,,,,,,,,,,,,,0,4,4,4,0,2,2,3,,,,,,,,,,,,,,,,,,,,,,,,,,,,,,,,,,,,,,,,,,,,,,,1025.5306888739997,None,1025.5306888739997,None,1025.5306888739997,None,r,1,0.8168391430008342,1027.0641127709987,None,1027.0641127709987,None,1027.0641127709987,None,1027.963966207999,None,1027.963966207999,None,1027.963966207999,None,1027.963966207999,None,,,,,,,,,,,,,,,,,,,,,,,,,,,,,,,,,,,,,,,,,,,,001,64,2020_Feb_04_1228,spring_faces,3.2.3,59.98607435266741,
condition files/Stage2_1.xlsx,,T1,B1,s,"['s', 'r']","['Stratego', 'Risk']","[-0.15, 0.5]","[0.15, 0.5]",1,1,,,,,,,,,,,,,,,,,0,4,4,4,0,3,3,2,,,,,,,,,,,,,,,,,,,,,,,,,,,,,,,,,,,,,,,,,,,,,,,1029.9307234159987,None,1029.9307234159987,None,1029.9307234159987,None,s,1,0.8168357750000723,1031.4641347889992,None,1031.4641347889992,None,1031.4641347889992,None,1032.347399545999,None,1032.347399545999,None,1032.347399545999,None,1032.347399545999,None,,,,,,,,,,,,,,,,,,,,,,,,,,,,,,,,,,,,,,,,,,,,001,64,2020_Feb_04_1228,spring_faces,3.2.3,59.98607435266741,
