condsFile,subStage,cue1,cue2,correct,responseKeys,responseNames,cue1Position,cue2Position,cue1Opacity,cue2Opacity,stageLoop0.thisRepN,stageLoop0.thisTrialN,stageLoop0.thisN,stageLoop0.thisIndex,blockLoop0.thisRepN,blockLoop0.thisTrialN,blockLoop0.thisN,blockLoop0.thisIndex,stage1Loop.thisRepN,stage1Loop.thisTrialN,stage1Loop.thisN,stage1Loop.thisIndex,blockLoop1.thisRepN,blockLoop1.thisTrialN,blockLoop1.thisN,blockLoop1.thisIndex,stage2Loop.thisRepN,stage2Loop.thisTrialN,stage2Loop.thisN,stage2Loop.thisIndex,blockLoop2.thisRepN,blockLoop2.thisTrialN,blockLoop2.thisN,blockLoop2.thisIndex,testLoop.thisRepN,testLoop.thisTrialN,testLoop.thisN,testLoop.thisIndex,blockLoopTest.thisRepN,blockLoopTest.thisTrialN,blockLoopTest.thisN,blockLoopTest.thisIndex,cuePics,id_instr_text.started,id_instr_text.stopped,space_to_continue_2.started,space_to_continue_2.stopped,end_instructions_resp_3.keys,end_instructions_resp_3.rt,end_instructions_resp_3.started,end_instructions_resp_3.stopped,id_input_instr.started,id_input_instr.stopped,id_input_rect.started,id_input_rect.stopped,id_input_resp.keys,id_input_resp.rt,id_input_resp.started,id_input_resp.stopped,sonaID,id_input_text.started,id_input_text.stopped,final_text.started,final_text.stopped,instructions.started,instructions.stopped,end_instructions_resp.keys,end_instructions_resp.rt,end_instructions_resp.started,end_instructions_resp.stopped,space_to_continue.started,space_to_continue.stopped,instructions_stage0.started,instructions_stage0.stopped,end_instructions_resp_stage0.keys,end_instructions_resp_stage0.rt,end_instructions_resp_stage0.started,end_instructions_resp_stage0.stopped,space_to_continue_stage0.started,space_to_continue_stage0.stopped,text.started,text.stopped,resp_text1.started,resp_text1.stopped,resp_text2.started,resp_text2.stopped,trial_resp.keys,trial_resp.corr,trial_resp.rt,trial_resp.started,trial_resp.stopped,cue1Image.started,cue1Image.stopped,cue2Image.started,cue2Image.stopped,cue1Image_fb.started,cue1Image_fb.stopped,cue2Image_fb.started,cue2Image_fb.stopped,fb_text_answer.started,fb_text_answer.stopped,feedback_image.started,feedback_image.stopped,instructions_stage1.started,instructions_stage1.stopped,end_instructions_resp_stage1.keys,end_instructions_resp_stage1.rt,end_instructions_resp_stage1.started,end_instructions_resp_stage1.stopped,space_to_continue_stage1.started,space_to_continue_stage1.stopped,instructions_2.started,instructions_2.stopped,end_instructions_resp_2.keys,end_instructions_resp_2.rt,end_instructions_resp_2.started,end_instructions_resp_2.stopped,press_space_to_continue_stage2.started,press_space_to_continue_stage2.stopped,instructions_testStage1.started,instructions_testStage1.stopped,end_instructions_resp_test1.keys,end_instructions_resp_test1.rt,end_instructions_resp_test1.started,end_instructions_resp_test1.stopped,press_space_to_continue_test1.started,press_space_to_continue_test1.stopped,cue1Image_testChoice.started,cue1Image_testChoice.stopped,cue2Image_testChoice.started,cue2Image_testChoice.stopped,test_resp.keys,test_resp.corr,test_resp.rt,test_resp.started,test_resp.stopped,cue1Image_testConf.started,cue1Image_testConf.stopped,cue2Image_testConf.started,cue2Image_testConf.stopped,conf_reminder.started,conf_reminder.stopped,conf_rating.response,conf_rating.rt,conf_rating.started,conf_rating.stopped,session,participant,date,expName,psychopyVersion,frameRate,
,,,,,,,,,,,,,,,,,,,,,,,,,,,,,,,,,,,,,,,,,,,"{'none': 'pictures/20M_AN_C.png', 'alpha': 'pictures/SHINEd_apple.png', 'beta': 'pictures/SHINEd_pear.png', 'theta': 'pictures/SHINEd_melon.png', 'phi': 'pictures/SHINEd_pepper.png', 'T1': 'pictures/36M_AN_C.png', 'T2': 'pictures/31M_AN_C.png', 'T3': 'pictures/25M_AN_C.png', 'T4': 'pictures/38M_AN_C.png', 'T5': 'pictures/23M_AN_C.png', 'T6': 'pictures/33M_AN_C.png', 'B1': 'pictures/20M_NE_C.png', 'B2': 'pictures/22M_NE_C.png', 'B3': 'pictures/32M_NE_C.png', 'B4': 'pictures/37M_NE_C.png', 'B5': 'pictures/34M_NE_C.png', 'B6': 'pictures/26M_NE_C.png'}",15.631489199999123,None,20.63053452299937,None,space,10.507523017000494,20.63053452299937,None,,,,,,,,,,,,,,,,,,,,,,,,,,,,,,,,,,,,,,,,,,,,,,,,,,,,,,,,,,,,,,,,,,,,,,,,,,,,,,,,,,,,,,,,,,,,,,,,001,65,2020_Feb_04_1355,spring_faces,3.1.5,60.00911142339702,
,,,,,,,,,,,,,,,,,,,,,,,,,,,,,,,,,,,,,,,,,,,,,,,,,,,,31.53026067099927,None,31.53026067099927,None,"['1', '1', '1', 'backspace', '2', '7', 'a', 'n', 'h', 'i', 'g']","[26.711708802999055, 26.9516987650004, 57.99178897999991, 58.999727721000454, 66.95167241499985, 67.55983149900021, 71.71973388299921, 72.6317279369996, 74.93567865700061, 75.44772370300052, 75.73568012800024]",31.53026067099927,None,,,,,,,,,,,,,,,,,,,,,,,,,,,,,,,,,,,,,,,,,,,,,,,,,,,,,,,,,,,,,,,,,,,,,,,,,,,,,,,,,,,,,,,,001,65,2020_Feb_04_1355,spring_faces,3.1.5,60.00911142339702,
,,,,,,,,,,,,,,,,,,,,,,,,,,,,,,,,,,,,,,,,,,,,,,,,,,,,,,,,,,,,1127anhig,31.53026067099927,None,31.53026067099927,None,112.34768909099876,None,space,3.0868539170005533,117.34716414899958,None,,,,,,,,,,,,,,,,,,,,,,,,,,,,,,,,,,,,,,,,,,,,,,,,,,,,,,,,,,,,,,,,,,,,,,,,,,,,,001,65,2020_Feb_04_1355,spring_faces,3.1.5,60.00911142339702,
,,,,,,,,,,,,,,,,,,,,,,,,,,,,,,,,,,,,,,,,,,,,,,,,,,,,,,,,,,,,,,,,,,,,,,,117.34716414899958,None,120.48073726999974,None,space,5.577457956000217,125.48060614099995,None,,,,,,,,,,,,,,,,,,,,,,,,,,,,,,,,,,,,,,,,,,,,,,,,,,,,,,,,,,,,,,,,,,,,,001,65,2020_Feb_04_1355,spring_faces,3.1.5,60.00911142339702,
condition files/Stage0a.xlsx,0a,beta,none,g,"['h', 'g']","['Chess', 'Go']","[0, 0.5]","[0, 0]",1,0,0,0,0,0,0,0,0,1,,,,,,,,,,,,,,,,,,,,,,,,,,,,,,,,,,,,,,,,,,,,,,,,,,,,,,,,,,,,,125.48060614099995,None,131.16409679099888,None,131.16409679099888,None,131.16409679099888,None,h,0,5.048369988000559,132.6976268540002,None,132.6976268540002,None,132.6976268540002,None,137.8139949079996,None,137.8139949079996,None,137.8139949079996,None,137.8139949079996,None,,,,,,,,,,,,,,,,,,,,,,,,,,,,,,,,,,,,,,,,,,,,001,65,2020_Feb_04_1355,spring_faces,3.1.5,60.00911142339702,
condition files/Stage0a.xlsx,0a,alpha,none,h,"['h', 'g']","['Chess', 'Go']","[0, 0.5]","[0, 0]",1,0,0,0,0,0,0,1,1,0,,,,,,,,,,,,,,,,,,,,,,,,,,,,,,,,,,,,,,,,,,,,,,,,,,,,,,,,,,,,,,,139.76384276299905,None,139.76384276299905,None,139.76384276299905,None,g,0,1.5348937589988054,141.3151115439996,None,141.3151115439996,None,141.3151115439996,None,142.91397882300043,None,142.91397882300043,None,142.91397882300043,None,142.91397882300043,None,,,,,,,,,,,,,,,,,,,,,,,,,,,,,,,,,,,,,,,,,,,,001,65,2020_Feb_04_1355,spring_faces,3.1.5,60.00911142339702,
condition files/Stage0a.xlsx,0a,alpha,none,h,"['h', 'g']","['Chess', 'Go']","[0, 0.5]","[0, 0]",1,0,0,1,1,1,0,0,0,0,,,,,,,,,,,,,,,,,,,,,,,,,,,,,,,,,,,,,,,,,,,,,,,,,,,,,,,,,,,,,,,144.89754235500004,None,144.89754235500004,None,144.89754235500004,None,h,1,3.523755332998917,146.43032642899925,None,146.43032642899925,None,146.43032642899925,None,150.01422101999924,None,150.01422101999924,None,150.01422101999924,None,150.01422101999924,None,,,,,,,,,,,,,,,,,,,,,,,,,,,,,,,,,,,,,,,,,,,,001,65,2020_Feb_04_1355,spring_faces,3.1.5,60.00911142339702,
condition files/Stage0a.xlsx,0a,beta,none,g,"['h', 'g']","['Chess', 'Go']","[0, 0.5]","[0, 0]",1,0,0,1,1,1,0,1,1,1,,,,,,,,,,,,,,,,,,,,,,,,,,,,,,,,,,,,,,,,,,,,,,,,,,,,,,,,,,,,,,,151.98055060799925,None,151.98055060799925,None,151.98055060799925,None,g,1,0.8879328010007157,153.514073422999,None,153.514073422999,None,153.514073422999,None,154.46420763099923,None,154.46420763099923,None,154.46420763099923,None,154.46420763099923,None,,,,,,,,,,,,,,,,,,,,,,,,,,,,,,,,,,,,,,,,,,,,001,65,2020_Feb_04_1355,spring_faces,3.1.5,60.00911142339702,
condition files/Stage0a.xlsx,0a,beta,none,g,"['h', 'g']","['Chess', 'Go']","[0, 0.5]","[0, 0]",1,0,0,2,2,2,0,0,0,1,,,,,,,,,,,,,,,,,,,,,,,,,,,,,,,,,,,,,,,,,,,,,,,,,,,,,,,,,,,,,,,156.4472437509994,None,156.4472437509994,None,156.4472437509994,None,g,1,0.9336154819993681,157.98038586700022,None,157.98038586700022,None,157.98038586700022,None,158.96394704500017,None,158.96394704500017,None,158.96394704500017,None,158.96394704500017,None,,,,,,,,,,,,,,,,,,,,,,,,,,,,,,,,,,,,,,,,,,,,001,65,2020_Feb_04_1355,spring_faces,3.1.5,60.00911142339702,
condition files/Stage0a.xlsx,0a,alpha,none,h,"['h', 'g']","['Chess', 'Go']","[0, 0.5]","[0, 0]",1,0,0,2,2,2,0,1,1,0,,,,,,,,,,,,,,,,,,,,,,,,,,,,,,,,,,,,,,,,,,,,,,,,,,,,,,,,,,,,,,,160.9304441229997,None,160.9304441229997,None,160.9304441229997,None,h,1,0.8819492700004048,162.46404253000037,None,162.46404253000037,None,162.46404253000037,None,163.3978194279989,None,163.3978194279989,None,163.3978194279989,None,163.3978194279989,None,,,,,,,,,,,,,,,,,,,,,,,,,,,,,,,,,,,,,,,,,,,,001,65,2020_Feb_04_1355,spring_faces,3.1.5,60.00911142339702,
condition files/Stage0a.xlsx,0a,alpha,none,h,"['h', 'g']","['Chess', 'Go']","[0, 0.5]","[0, 0]",1,0,0,3,3,3,0,0,0,0,,,,,,,,,,,,,,,,,,,,,,,,,,,,,,,,,,,,,,,,,,,,,,,,,,,,,,,,,,,,,,,165.38077076599984,None,165.38077076599984,None,165.38077076599984,None,h,1,0.623932947000867,166.91414053900007,None,166.91414053900007,None,166.91414053900007,None,167.59754222300035,None,167.59754222300035,None,167.59754222300035,None,167.59754222300035,None,,,,,,,,,,,,,,,,,,,,,,,,,,,,,,,,,,,,,,,,,,,,001,65,2020_Feb_04_1355,spring_faces,3.1.5,60.00911142339702,
condition files/Stage0a.xlsx,0a,beta,none,g,"['h', 'g']","['Chess', 'Go']","[0, 0.5]","[0, 0]",1,0,0,3,3,3,0,1,1,1,,,,,,,,,,,,,,,,,,,,,,,,,,,,,,,,,,,,,,,,,,,,,,,,,,,,,,,,,,,,,,,169.563182074,None,169.563182074,None,169.563182074,None,g,1,0.5048800730000949,171.09712056599892,None,171.09712056599892,None,171.09712056599892,None,171.6643219389989,None,171.6643219389989,None,171.6643219389989,None,171.6643219389989,None,,,,,,,,,,,,,,,,,,,,,,,,,,,,,,,,,,,,,,,,,,,,001,65,2020_Feb_04_1355,spring_faces,3.1.5,60.00911142339702,
condition files/Stage0a.xlsx,0a,alpha,none,h,"['h', 'g']","['Chess', 'Go']","[0, 0.5]","[0, 0]",1,0,0,4,4,4,0,0,0,0,,,,,,,,,,,,,,,,,,,,,,,,,,,,,,,,,,,,,,,,,,,,,,,,,,,,,,,,,,,,,,,173.6470048579995,None,173.6470048579995,None,173.6470048579995,None,h,1,0.32488500799991016,175.1811049049993,None,175.1811049049993,None,175.1811049049993,None,175.56407035699885,None,175.56407035699885,None,175.56407035699885,None,175.56407035699885,None,,,,,,,,,,,,,,,,,,,,,,,,,,,,,,,,,,,,,,,,,,,,001,65,2020_Feb_04_1355,spring_faces,3.1.5,60.00911142339702,
condition files/Stage0a.xlsx,0a,beta,none,g,"['h', 'g']","['Chess', 'Go']","[0, 0.5]","[0, 0]",1,0,0,4,4,4,0,1,1,1,,,,,,,,,,,,,,,,,,,,,,,,,,,,,,,,,,,,,,,,,,,,,,,,,,,,,,,,,,,,,,,177.53110283800015,None,177.53110283800015,None,177.53110283800015,None,g,1,0.4578172550009185,179.0642401419991,None,179.0642401419991,None,179.0642401419991,None,179.58029892899867,None,179.58029892899867,None,179.58029892899867,None,179.58029892899867,None,,,,,,,,,,,,,,,,,,,,,,,,,,,,,,,,,,,,,,,,,,,,001,65,2020_Feb_04_1355,spring_faces,3.1.5,60.00911142339702,
condition files/Stage0a.xlsx,0a,beta,none,g,"['h', 'g']","['Chess', 'Go']","[0, 0.5]","[0, 0]",1,0,0,5,5,5,0,0,0,1,,,,,,,,,,,,,,,,,,,,,,,,,,,,,,,,,,,,,,,,,,,,,,,,,,,,,,,,,,,,,,,181.5639298850001,None,181.5639298850001,None,181.5639298850001,None,h,0,0.44047028600107296,183.09759834299985,None,183.09759834299985,None,183.09759834299985,None,183.5975404439996,None,183.5975404439996,None,183.5975404439996,None,183.5975404439996,None,,,,,,,,,,,,,,,,,,,,,,,,,,,,,,,,,,,,,,,,,,,,001,65,2020_Feb_04_1355,spring_faces,3.1.5,60.00911142339702,
condition files/Stage0a.xlsx,0a,alpha,none,h,"['h', 'g']","['Chess', 'Go']","[0, 0.5]","[0, 0]",1,0,0,5,5,5,0,1,1,0,,,,,,,,,,,,,,,,,,,,,,,,,,,,,,,,,,,,,,,,,,,,,,,,,,,,,,,,,,,,,,,185.56432057799975,None,185.56432057799975,None,185.56432057799975,None,h,1,0.6483077359989693,187.09768829200038,None,187.09768829200038,None,187.09768829200038,None,187.79709430099865,None,187.79709430099865,None,187.79709430099865,None,187.79709430099865,None,,,,,,,,,,,,,,,,,,,,,,,,,,,,,,,,,,,,,,,,,,,,001,65,2020_Feb_04_1355,spring_faces,3.1.5,60.00911142339702,
condition files/Stage0b_1.xlsx,0b,alpha,none,h,"['h', 'g']","['Chess', 'Go']","[-0.15, 0.5]","[0.15, 0.5]",1,0,0,6,6,6,0,0,0,0,,,,,,,,,,,,,,,,,,,,,,,,,,,,,,,,,,,,,,,,,,,,,,,,,,,,,,,,,,,,,,,189.78052722899884,None,189.78052722899884,None,189.78052722899884,None,h,1,1.0557854640010191,191.31424215199877,None,191.31424215199877,None,191.31424215199877,None,192.43080274899876,None,192.43080274899876,None,192.43080274899876,None,192.43080274899876,None,,,,,,,,,,,,,,,,,,,,,,,,,,,,,,,,,,,,,,,,,,,,001,65,2020_Feb_04_1355,spring_faces,3.1.5,60.00911142339702,
condition files/Stage0b_1.xlsx,0b,none,beta,g,"['h', 'g']","['Chess', 'Go']","[-0.15, 0.5]","[0.15, 0.5]",0,1,0,6,6,6,0,1,1,1,,,,,,,,,,,,,,,,,,,,,,,,,,,,,,,,,,,,,,,,,,,,,,,,,,,,,,,,,,,,,,,194.3972445950003,None,194.3972445950003,None,194.3972445950003,None,g,1,0.854679080999631,195.94733356100005,None,195.94733356100005,None,195.94733356100005,None,196.86716055000034,None,196.86716055000034,None,196.86716055000034,None,196.86716055000034,None,,,,,,,,,,,,,,,,,,,,,,,,,,,,,,,,,,,,,,,,,,,,001,65,2020_Feb_04_1355,spring_faces,3.1.5,60.00911142339702,
condition files/Stage0b_2.xlsx,0b,none,alpha,h,"['h', 'g']","['Chess', 'Go']","[-0.15, 0.5]","[0.15, 0.5]",0,1,0,7,7,7,0,0,0,0,,,,,,,,,,,,,,,,,,,,,,,,,,,,,,,,,,,,,,,,,,,,,,,,,,,,,,,,,,,,,,,198.84724436000033,None,198.84724436000033,None,198.84724436000033,None,h,1,0.9963534310008981,200.38167746199906,None,200.38167746199906,None,200.38167746199906,None,201.43045670900028,None,201.43045670900028,None,201.43045670900028,None,201.43045670900028,None,,,,,,,,,,,,,,,,,,,,,,,,,,,,,,,,,,,,,,,,,,,,001,65,2020_Feb_04_1355,spring_faces,3.1.5,60.00911142339702,
condition files/Stage0b_2.xlsx,0b,beta,none,g,"['h', 'g']","['Chess', 'Go']","[-0.15, 0.5]","[0.15, 0.5]",1,0,0,7,7,7,0,1,1,1,,,,,,,,,,,,,,,,,,,,,,,,,,,,,,,,,,,,,,,,,,,,,,,,,,,,,,,,,,,,,,,203.39648495399888,None,203.39648495399888,None,203.39648495399888,None,g,1,0.9428770110007463,204.94723636799972,None,204.94723636799972,None,204.94723636799972,None,205.9516468949987,None,205.9516468949987,None,205.9516468949987,None,205.9516468949987,None,,,,,,,,,,,,,,,,,,,,,,,,,,,,,,,,,,,,,,,,,,,,001,65,2020_Feb_04_1355,spring_faces,3.1.5,60.00911142339702,
condition files/Stage0b_1.xlsx,0b,alpha,none,h,"['h', 'g']","['Chess', 'Go']","[-0.15, 0.5]","[0.15, 0.5]",1,0,0,8,8,8,0,0,0,0,,,,,,,,,,,,,,,,,,,,,,,,,,,,,,,,,,,,,,,,,,,,,,,,,,,,,,,,,,,,,,,207.9308444069993,None,207.9308444069993,None,207.9308444069993,None,h,1,1.1621143029988161,209.46389863500008,None,209.46389863500008,None,209.46389863500008,None,210.68098516699865,None,210.68098516699865,None,210.68098516699865,None,210.68098516699865,None,,,,,,,,,,,,,,,,,,,,,,,,,,,,,,,,,,,,,,,,,,,,001,65,2020_Feb_04_1355,spring_faces,3.1.5,60.00911142339702,
condition files/Stage0b_1.xlsx,0b,none,beta,g,"['h', 'g']","['Chess', 'Go']","[-0.15, 0.5]","[0.15, 0.5]",0,1,0,8,8,8,0,1,1,1,,,,,,,,,,,,,,,,,,,,,,,,,,,,,,,,,,,,,,,,,,,,,,,,,,,,,,,,,,,,,,,212.64686258700021,None,212.64686258700021,None,212.64686258700021,None,g,1,0.5855970990014612,214.1844305100003,None,214.1844305100003,None,214.1844305100003,None,214.8476216830004,None,214.8476216830004,None,214.8476216830004,None,214.8476216830004,None,,,,,,,,,,,,,,,,,,,,,,,,,,,,,,,,,,,,,,,,,,,,001,65,2020_Feb_04_1355,spring_faces,3.1.5,60.00911142339702,
condition files/Stage0b_2.xlsx,0b,beta,none,g,"['h', 'g']","['Chess', 'Go']","[-0.15, 0.5]","[0.15, 0.5]",1,0,0,9,9,9,0,0,0,1,,,,,,,,,,,,,,,,,,,,,,,,,,,,,,,,,,,,,,,,,,,,,,,,,,,,,,,,,,,,,,,216.81352091999906,None,216.81352091999906,None,216.81352091999906,None,g,1,1.1703376220011705,218.35172754999985,None,218.35172754999985,None,218.35172754999985,None,219.58058262899976,None,219.58058262899976,None,219.58058262899976,None,219.58058262899976,None,,,,,,,,,,,,,,,,,,,,,,,,,,,,,,,,,,,,,,,,,,,,001,65,2020_Feb_04_1355,spring_faces,3.1.5,60.00911142339702,
condition files/Stage0b_2.xlsx,0b,none,alpha,h,"['h', 'g']","['Chess', 'Go']","[-0.15, 0.5]","[0.15, 0.5]",0,1,0,9,9,9,0,1,1,0,,,,,,,,,,,,,,,,,,,,,,,,,,,,,,,,,,,,,,,,,,,,,,,,,,,,,,,,,,,,,,,221.54716925299908,None,221.54716925299908,None,221.54716925299908,None,h,1,0.6462326599994412,223.08377314599966,None,223.08377314599966,None,223.08377314599966,None,223.7834411699987,None,223.7834411699987,None,223.7834411699987,None,223.7834411699987,None,,,,,,,,,,,,,,,,,,,,,,,,,,,,,,,,,,,,,,,,,,,,001,65,2020_Feb_04_1355,spring_faces,3.1.5,60.00911142339702,
condition files/Stage0b_1.xlsx,0b,alpha,none,h,"['h', 'g']","['Chess', 'Go']","[-0.15, 0.5]","[0.15, 0.5]",1,0,0,10,10,10,0,0,0,0,,,,,,,,,,,,,,,,,,,,,,,,,,,,,,,,,,,,,,,,,,,,,,,,,,,,,,,,,,,,,,,225.7644034999994,None,225.7644034999994,None,225.7644034999994,None,h,1,0.6235423289999744,227.29854171499937,None,227.29854171499937,None,227.29854171499937,None,227.98099480599922,None,227.98099480599922,None,227.98099480599922,None,227.98099480599922,None,,,,,,,,,,,,,,,,,,,,,,,,,,,,,,,,,,,,,,,,,,,,001,65,2020_Feb_04_1355,spring_faces,3.1.5,60.00911142339702,
condition files/Stage0b_1.xlsx,0b,none,beta,g,"['h', 'g']","['Chess', 'Go']","[-0.15, 0.5]","[0.15, 0.5]",0,1,0,10,10,10,0,1,1,1,,,,,,,,,,,,,,,,,,,,,,,,,,,,,,,,,,,,,,,,,,,,,,,,,,,,,,,,,,,,,,,229.94728172800023,None,229.94728172800023,None,229.94728172800023,None,g,1,0.7100904850012739,231.48409014000026,None,231.48409014000026,None,231.48409014000026,None,232.2480502269991,None,232.2480502269991,None,232.2480502269991,None,232.2480502269991,None,,,,,,,,,,,,,,,,,,,,,,,,,,,,,,,,,,,,,,,,,,,,001,65,2020_Feb_04_1355,spring_faces,3.1.5,60.00911142339702,
condition files/Stage0b_2.xlsx,0b,none,alpha,h,"['h', 'g']","['Chess', 'Go']","[-0.15, 0.5]","[0.15, 0.5]",0,1,0,11,11,11,0,0,0,0,,,,,,,,,,,,,,,,,,,,,,,,,,,,,,,,,,,,,,,,,,,,,,,,,,,,,,,,,,,,,,,234.23057573699953,None,234.23057573699953,None,234.23057573699953,None,h,1,0.7339606780005852,235.7639980189997,None,235.7639980189997,None,235.7639980189997,None,236.5636131329993,None,236.5636131329993,None,236.5636131329993,None,236.5636131329993,None,,,,,,,,,,,,,,,,,,,,,,,,,,,,,,,,,,,,,,,,,,,,001,65,2020_Feb_04_1355,spring_faces,3.1.5,60.00911142339702,
condition files/Stage0b_2.xlsx,0b,beta,none,g,"['h', 'g']","['Chess', 'Go']","[-0.15, 0.5]","[0.15, 0.5]",1,0,0,11,11,11,0,1,1,1,,,,,,,,,,,,,,,,,,,,,,,,,,,,,,,,,,,,,,,,,,,,,,,,,,,,,,,,,,,,,,,238.5308030289998,None,238.5308030289998,None,238.5308030289998,None,g,1,0.6377114530005201,240.0683179939988,None,240.0683179939988,None,240.0683179939988,None,240.76848582999992,None,240.76848582999992,None,240.76848582999992,None,240.76848582999992,None,,,,,,,,,,,,,,,,,,,,,,,,,,,,,,,,,,,,,,,,,,,,001,65,2020_Feb_04_1355,spring_faces,3.1.5,60.00911142339702,
condition files/Stage0c_1.xlsx,0c,phi,beta,g,"['h', 'g']","['Chess', 'Go']","[-0.15, 0.5]","[0.15, 0.5]",1,1,0,12,12,12,0,0,0,3,,,,,,,,,,,,,,,,,,,,,,,,,,,,,,,,,,,,,,,,,,,,,,,,,,,,,,,,,,,,,,,242.74779806199876,None,242.74779806199876,None,242.74779806199876,None,g,1,2.6331947649996437,244.28079750100005,None,244.28079750100005,None,244.28079750100005,None,246.96392253699923,None,246.96392253699923,None,246.96392253699923,None,246.96392253699923,None,,,,,,,,,,,,,,,,,,,,,,,,,,,,,,,,,,,,,,,,,,,,001,65,2020_Feb_04_1355,spring_faces,3.1.5,60.00911142339702,
condition files/Stage0c_1.xlsx,0c,theta,alpha,h,"['h', 'g']","['Chess', 'Go']","[-0.15, 0.5]","[0.15, 0.5]",1,1,0,12,12,12,0,1,1,0,,,,,,,,,,,,,,,,,,,,,,,,,,,,,,,,,,,,,,,,,,,,,,,,,,,,,,,,,,,,,,,248.93059019700013,None,248.93059019700013,None,248.93059019700013,None,h,1,0.9618023439998069,250.46420929099986,None,250.46420929099986,None,250.46420929099986,None,251.47983701799967,None,251.47983701799967,None,251.47983701799967,None,251.47983701799967,None,,,,,,,,,,,,,,,,,,,,,,,,,,,,,,,,,,,,,,,,,,,,001,65,2020_Feb_04_1355,spring_faces,3.1.5,60.00911142339702,
condition files/Stage0c_1.xlsx,0c,alpha,phi,h,"['h', 'g']","['Chess', 'Go']","[-0.15, 0.5]","[0.15, 0.5]",1,1,0,12,12,12,0,2,2,1,,,,,,,,,,,,,,,,,,,,,,,,,,,,,,,,,,,,,,,,,,,,,,,,,,,,,,,,,,,,,,,253.44670781199966,None,253.44670781199966,None,253.44670781199966,None,h,1,1.7256725860006554,254.98040685500018,None,254.98040685500018,None,254.98040685500018,None,256.763671744,None,256.763671744,None,256.763671744,None,256.763671744,None,,,,,,,,,,,,,,,,,,,,,,,,,,,,,,,,,,,,,,,,,,,,001,65,2020_Feb_04_1355,spring_faces,3.1.5,60.00911142339702,
condition files/Stage0c_1.xlsx,0c,beta,theta,g,"['h', 'g']","['Chess', 'Go']","[-0.15, 0.5]","[0.15, 0.5]",1,1,0,12,12,12,0,3,3,2,,,,,,,,,,,,,,,,,,,,,,,,,,,,,,,,,,,,,,,,,,,,,,,,,,,,,,,,,,,,,,,258.73072377399876,None,258.73072377399876,None,258.73072377399876,None,g,1,0.9058886069997243,260.26412006399914,None,260.26412006399914,None,260.26412006399914,None,261.23361177699917,None,261.23361177699917,None,261.23361177699917,None,261.23361177699917,None,,,,,,,,,,,,,,,,,,,,,,,,,,,,,,,,,,,,,,,,,,,,001,65,2020_Feb_04_1355,spring_faces,3.1.5,60.00911142339702,
condition files/Stage0c_2.xlsx,0c,beta,phi,g,"['h', 'g']","['Chess', 'Go']","[-0.15, 0.5]","[0.15, 0.5]",1,1,0,13,13,13,0,0,0,3,,,,,,,,,,,,,,,,,,,,,,,,,,,,,,,,,,,,,,,,,,,,,,,,,,,,,,,,,,,,,,,263.2139359310004,None,263.2139359310004,None,263.2139359310004,None,g,1,0.7905346910010849,264.7475362749992,None,264.7475362749992,None,264.7475362749992,None,265.5830584340001,None,265.5830584340001,None,265.5830584340001,None,265.5830584340001,None,,,,,,,,,,,,,,,,,,,,,,,,,,,,,,,,,,,,,,,,,,,,001,65,2020_Feb_04_1355,spring_faces,3.1.5,60.00911142339702,
condition files/Stage0c_2.xlsx,0c,phi,alpha,h,"['h', 'g']","['Chess', 'Go']","[-0.15, 0.5]","[0.15, 0.5]",1,1,0,13,13,13,0,1,1,1,,,,,,,,,,,,,,,,,,,,,,,,,,,,,,,,,,,,,,,,,,,,,,,,,,,,,,,,,,,,,,,267.56372206800006,None,267.56372206800006,None,267.56372206800006,None,h,1,0.5363263609997375,269.097671947,None,269.097671947,None,269.097671947,None,269.6972923129997,None,269.6972923129997,None,269.6972923129997,None,269.6972923129997,None,,,,,,,,,,,,,,,,,,,,,,,,,,,,,,,,,,,,,,,,,,,,001,65,2020_Feb_04_1355,spring_faces,3.1.5,60.00911142339702,
condition files/Stage0c_2.xlsx,0c,alpha,theta,h,"['h', 'g']","['Chess', 'Go']","[-0.15, 0.5]","[0.15, 0.5]",1,1,0,13,13,13,0,2,2,0,,,,,,,,,,,,,,,,,,,,,,,,,,,,,,,,,,,,,,,,,,,,,,,,,,,,,,,,,,,,,,,271.66339800399874,None,271.66339800399874,None,271.66339800399874,None,h,1,1.8931955169991852,273.19689313399977,None,273.19689313399977,None,273.19689313399977,None,275.1318785530002,None,275.1318785530002,None,275.1318785530002,None,275.1318785530002,None,,,,,,,,,,,,,,,,,,,,,,,,,,,,,,,,,,,,,,,,,,,,001,65,2020_Feb_04_1355,spring_faces,3.1.5,60.00911142339702,
condition files/Stage0c_2.xlsx,0c,theta,beta,g,"['h', 'g']","['Chess', 'Go']","[-0.15, 0.5]","[0.15, 0.5]",1,1,0,13,13,13,0,3,3,2,,,,,,,,,,,,,,,,,,,,,,,,,,,,,,,,,,,,,,,,,,,,,,,,,,,,,,,,,,,,,,,277.1140224369992,None,277.1140224369992,None,277.1140224369992,None,g,1,0.8107433070017578,278.6473166939995,None,278.6473166939995,None,278.6473166939995,None,279.5141699759988,None,279.5141699759988,None,279.5141699759988,None,279.5141699759988,None,,,,,,,,,,,,,,,,,,,,,,,,,,,,,,,,,,,,,,,,,,,,001,65,2020_Feb_04_1355,spring_faces,3.1.5,60.00911142339702,
condition files/Stage0c_1.xlsx,0c,theta,alpha,h,"['h', 'g']","['Chess', 'Go']","[-0.15, 0.5]","[0.15, 0.5]",1,1,0,14,14,14,0,0,0,0,,,,,,,,,,,,,,,,,,,,,,,,,,,,,,,,,,,,,,,,,,,,,,,,,,,,,,,,,,,,,,,281.4975464500003,None,281.4975464500003,None,281.4975464500003,None,h,1,0.6668992490012897,283.0310734809991,None,283.0310734809991,None,283.0310734809991,None,283.7638035250002,None,283.7638035250002,None,283.7638035250002,None,283.7638035250002,None,,,,,,,,,,,,,,,,,,,,,,,,,,,,,,,,,,,,,,,,,,,,001,65,2020_Feb_04_1355,spring_faces,3.1.5,60.00911142339702,
condition files/Stage0c_1.xlsx,0c,beta,theta,g,"['h', 'g']","['Chess', 'Go']","[-0.15, 0.5]","[0.15, 0.5]",1,1,0,14,14,14,0,1,1,2,,,,,,,,,,,,,,,,,,,,,,,,,,,,,,,,,,,,,,,,,,,,,,,,,,,,,,,,,,,,,,,285.73055831499914,None,285.73055831499914,None,285.73055831499914,None,g,1,0.7218472849999671,287.2641551509987,None,287.2641551509987,None,287.2641551509987,None,288.0474438379988,None,288.0474438379988,None,288.0474438379988,None,288.0474438379988,None,,,,,,,,,,,,,,,,,,,,,,,,,,,,,,,,,,,,,,,,,,,,001,65,2020_Feb_04_1355,spring_faces,3.1.5,60.00911142339702,
condition files/Stage0c_1.xlsx,0c,alpha,phi,h,"['h', 'g']","['Chess', 'Go']","[-0.15, 0.5]","[0.15, 0.5]",1,1,0,14,14,14,0,2,2,1,,,,,,,,,,,,,,,,,,,,,,,,,,,,,,,,,,,,,,,,,,,,,,,,,,,,,,,,,,,,,,,290.0133297409993,None,290.0133297409993,None,290.0133297409993,None,h,1,0.5825002909987234,291.5474914139995,None,291.5474914139995,None,291.5474914139995,None,292.18064132200016,None,292.18064132200016,None,292.18064132200016,None,292.18064132200016,None,,,,,,,,,,,,,,,,,,,,,,,,,,,,,,,,,,,,,,,,,,,,001,65,2020_Feb_04_1355,spring_faces,3.1.5,60.00911142339702,
condition files/Stage0c_1.xlsx,0c,phi,beta,g,"['h', 'g']","['Chess', 'Go']","[-0.15, 0.5]","[0.15, 0.5]",1,1,0,14,14,14,0,3,3,3,,,,,,,,,,,,,,,,,,,,,,,,,,,,,,,,,,,,,,,,,,,,,,,,,,,,,,,,,,,,,,,294.1473794350004,None,294.1473794350004,None,294.1473794350004,None,g,1,0.6730378909996944,295.6809273859999,None,295.6809273859999,None,295.6809273859999,None,296.41352281000036,None,296.41352281000036,None,296.41352281000036,None,296.41352281000036,None,,,,,,,,,,,,,,,,,,,,,,,,,,,,,,,,,,,,,,,,,,,,001,65,2020_Feb_04_1355,spring_faces,3.1.5,60.00911142339702,
condition files/Stage0c_2.xlsx,0c,theta,beta,g,"['h', 'g']","['Chess', 'Go']","[-0.15, 0.5]","[0.15, 0.5]",1,1,0,15,15,15,0,0,0,2,,,,,,,,,,,,,,,,,,,,,,,,,,,,,,,,,,,,,,,,,,,,,,,,,,,,,,,,,,,,,,,298.39741813100045,None,298.39741813100045,None,298.39741813100045,None,g,1,0.8082722899998771,299.91379526699893,None,299.91379526699893,None,299.91379526699893,None,300.7660963469989,None,300.7660963469989,None,300.7660963469989,None,300.7660963469989,None,,,,,,,,,,,,,,,,,,,,,,,,,,,,,,,,,,,,,,,,,,,,001,65,2020_Feb_04_1355,spring_faces,3.1.5,60.00911142339702,
condition files/Stage0c_2.xlsx,0c,beta,phi,g,"['h', 'g']","['Chess', 'Go']","[-0.15, 0.5]","[0.15, 0.5]",1,1,0,15,15,15,0,1,1,3,,,,,,,,,,,,,,,,,,,,,,,,,,,,,,,,,,,,,,,,,,,,,,,,,,,,,,,,,,,,,,,302.74729171999934,None,302.74729171999934,None,302.74729171999934,None,g,1,0.9057679910001752,304.280235143,None,304.280235143,None,304.280235143,None,305.2306219129987,None,305.2306219129987,None,305.2306219129987,None,305.2306219129987,None,,,,,,,,,,,,,,,,,,,,,,,,,,,,,,,,,,,,,,,,,,,,001,65,2020_Feb_04_1355,spring_faces,3.1.5,60.00911142339702,
condition files/Stage0c_2.xlsx,0c,alpha,theta,h,"['h', 'g']","['Chess', 'Go']","[-0.15, 0.5]","[0.15, 0.5]",1,1,0,15,15,15,0,2,2,0,,,,,,,,,,,,,,,,,,,,,,,,,,,,,,,,,,,,,,,,,,,,,,,,,,,,,,,,,,,,,,,307.2138933449987,None,307.2138933449987,None,307.2138933449987,None,h,1,1.1107839440010139,308.7472715349995,None,308.7472715349995,None,308.7472715349995,None,309.9140918109988,None,309.9140918109988,None,309.9140918109988,None,309.9140918109988,None,,,,,,,,,,,,,,,,,,,,,,,,,,,,,,,,,,,,,,,,,,,,001,65,2020_Feb_04_1355,spring_faces,3.1.5,60.00911142339702,
condition files/Stage0c_2.xlsx,0c,phi,alpha,h,"['h', 'g']","['Chess', 'Go']","[-0.15, 0.5]","[0.15, 0.5]",1,1,0,15,15,15,0,3,3,1,,,,,,,,,,,,,,,,,,,,,,,,,,,,,,,,,,,,,,,,,,,,,,,,,,,,,,,,,,,,,,,311.8798979669991,None,311.8798979669991,None,311.8798979669991,None,h,1,1.2438996649998444,313.414159422,None,313.414159422,None,313.414159422,None,314.6996335160002,None,314.6996335160002,None,314.6996335160002,None,314.6996335160002,None,,,,,,,,,,,,,,,,,,,,,,,,,,,,,,,,,,,,,,,,,,,,001,65,2020_Feb_04_1355,spring_faces,3.1.5,60.00911142339702,
condition files/Stage0c_1.xlsx,0c,alpha,phi,h,"['h', 'g']","['Chess', 'Go']","[-0.15, 0.5]","[0.15, 0.5]",1,1,0,16,16,16,0,0,0,1,,,,,,,,,,,,,,,,,,,,,,,,,,,,,,,,,,,,,,,,,,,,,,,,,,,,,,,,,,,,,,,316.69700093699976,None,316.69700093699976,None,316.69700093699976,None,h,1,1.0356628749996162,318.23034345999986,None,318.23034345999986,None,318.23034345999986,None,319.3161566790004,None,319.3161566790004,None,319.3161566790004,None,319.3161566790004,None,,,,,,,,,,,,,,,,,,,,,,,,,,,,,,,,,,,,,,,,,,,,001,65,2020_Feb_04_1355,spring_faces,3.1.5,60.00911142339702,
condition files/Stage0c_1.xlsx,0c,beta,theta,g,"['h', 'g']","['Chess', 'Go']","[-0.15, 0.5]","[0.15, 0.5]",1,1,0,16,16,16,0,1,1,2,,,,,,,,,,,,,,,,,,,,,,,,,,,,,,,,,,,,,,,,,,,,,,,,,,,,,,,,,,,,,,,321.29726500799916,None,321.29726500799916,None,321.29726500799916,None,g,1,0.5151780240012158,322.83080221099954,None,322.83080221099954,None,322.83080221099954,None,323.39682734099915,None,323.39682734099915,None,323.39682734099915,None,323.39682734099915,None,,,,,,,,,,,,,,,,,,,,,,,,,,,,,,,,,,,,,,,,,,,,001,65,2020_Feb_04_1355,spring_faces,3.1.5,60.00911142339702,
condition files/Stage0c_1.xlsx,0c,phi,beta,g,"['h', 'g']","['Chess', 'Go']","[-0.15, 0.5]","[0.15, 0.5]",1,1,0,16,16,16,0,2,2,3,,,,,,,,,,,,,,,,,,,,,,,,,,,,,,,,,,,,,,,,,,,,,,,,,,,,,,,,,,,,,,,325.36351592199935,None,325.36351592199935,None,325.36351592199935,None,g,1,1.600357167000766,326.89759586000037,None,326.89759586000037,None,326.89759586000037,None,328.54930412199974,None,328.54930412199974,None,328.54930412199974,None,328.54930412199974,None,,,,,,,,,,,,,,,,,,,,,,,,,,,,,,,,,,,,,,,,,,,,001,65,2020_Feb_04_1355,spring_faces,3.1.5,60.00911142339702,
condition files/Stage0c_1.xlsx,0c,theta,alpha,h,"['h', 'g']","['Chess', 'Go']","[-0.15, 0.5]","[0.15, 0.5]",1,1,0,16,16,16,0,3,3,0,,,,,,,,,,,,,,,,,,,,,,,,,,,,,,,,,,,,,,,,,,,,,,,,,,,,,,,,,,,,,,,330.53012259000025,None,330.53012259000025,None,330.53012259000025,None,h,1,0.4663393629998609,332.0636567040001,None,332.0636567040001,None,332.0636567040001,None,332.5807131929996,None,332.5807131929996,None,332.5807131929996,None,332.5807131929996,None,,,,,,,,,,,,,,,,,,,,,,,,,,,,,,,,,,,,,,,,,,,,001,65,2020_Feb_04_1355,spring_faces,3.1.5,60.00911142339702,
condition files/Stage0c_2.xlsx,0c,theta,beta,g,"['h', 'g']","['Chess', 'Go']","[-0.15, 0.5]","[0.15, 0.5]",1,1,0,17,17,17,0,0,0,2,,,,,,,,,,,,,,,,,,,,,,,,,,,,,,,,,,,,,,,,,,,,,,,,,,,,,,,,,,,,,,,334.5641901910003,None,334.5641901910003,None,334.5641901910003,None,g,1,0.9768218239987618,336.09722568899997,None,336.09722568899997,None,336.09722568899997,None,337.13074925900037,None,337.13074925900037,None,337.13074925900037,None,337.13074925900037,None,,,,,,,,,,,,,,,,,,,,,,,,,,,,,,,,,,,,,,,,,,,,001,65,2020_Feb_04_1355,spring_faces,3.1.5,60.00911142339702,
condition files/Stage0c_2.xlsx,0c,phi,alpha,h,"['h', 'g']","['Chess', 'Go']","[-0.15, 0.5]","[0.15, 0.5]",1,1,0,17,17,17,0,1,1,1,,,,,,,,,,,,,,,,,,,,,,,,,,,,,,,,,,,,,,,,,,,,,,,,,,,,,,,,,,,,,,,339.0970277409997,None,339.0970277409997,None,339.0970277409997,None,h,1,0.795115936000002,340.6308933929995,None,340.6308933929995,None,340.6308933929995,None,341.48061705500004,None,341.48061705500004,None,341.48061705500004,None,341.48061705500004,None,,,,,,,,,,,,,,,,,,,,,,,,,,,,,,,,,,,,,,,,,,,,001,65,2020_Feb_04_1355,spring_faces,3.1.5,60.00911142339702,
condition files/Stage0c_2.xlsx,0c,beta,phi,g,"['h', 'g']","['Chess', 'Go']","[-0.15, 0.5]","[0.15, 0.5]",1,1,0,17,17,17,0,2,2,3,,,,,,,,,,,,,,,,,,,,,,,,,,,,,,,,,,,,,,,,,,,,,,,,,,,,,,,,,,,,,,,343.44683335300033,None,343.44683335300033,None,343.44683335300033,None,g,1,0.9730790880003042,344.98090441299973,None,344.98090441299973,None,344.98090441299973,None,346.01411831599944,None,346.01411831599944,None,346.01411831599944,None,346.01411831599944,None,,,,,,,,,,,,,,,,,,,,,,,,,,,,,,,,,,,,,,,,,,,,001,65,2020_Feb_04_1355,spring_faces,3.1.5,60.00911142339702,
condition files/Stage0c_2.xlsx,0c,alpha,theta,h,"['h', 'g']","['Chess', 'Go']","[-0.15, 0.5]","[0.15, 0.5]",1,1,0,17,17,17,0,3,3,0,,,,,,,,,,,,,,,,,,,,,,,,,,,,,,,,,,,,,,,,,,,,,,,,,,,,,,,,,,,,,,,347.9803327230002,None,347.9803327230002,None,347.9803327230002,None,h,1,1.1437788470011583,349.514272634,None,349.514272634,None,349.514272634,None,350.7145876550003,None,350.7145876550003,None,350.7145876550003,None,350.7145876550003,None,,,,,,,,,,,,,,,,,,,,,,,,,,,,,,,,,,,,,,,,,,,,001,65,2020_Feb_04_1355,spring_faces,3.1.5,60.00911142339702,
,,,,,,,,,,,,,,,,,,,,,,,,,,,,,,,,,,,,,,,,,,,,,,,,,,,,,,,,,,,,,,,,,,,,,,,,,,,,,,,,,,,,,,,,,,,,,,,,,,,,,,,,352.6974347659998,None,space,0.6567056660005619,357.69738214599965,None,,,,,,,,,,,,,,,,,,,,,,,,,,,,,,,,,,,,,,001,65,2020_Feb_04_1355,spring_faces,3.1.5,60.00911142339702,
condition files/Stage1_1.xlsx,,T3,B4,c,"['c', 'm']","['Clue', 'Monopoly']","[-0.15, 0.5]","[0.15, 0.5]",1,1,,,,,,,,,0,0,0,0,0,0,0,5,,,,,,,,,,,,,,,,,,,,,,,,,,,,,,,,,,,,,,,,,,,,,,,,,,,,,,,358.4140432969998,None,358.4140432969998,None,358.4140432969998,None,m,0,0.9184000759996707,359.947612766,None,359.947612766,None,359.947612766,None,360.9495248669991,None,360.9495248669991,None,360.9495248669991,None,360.9495248669991,None,,,,,,,357.69738214599965,None,,,,,,,,,,,,,,,,,,,,,,,,,,,,,,,,,,,,001,65,2020_Feb_04_1355,spring_faces,3.1.5,60.00911142339702,
condition files/Stage1_1.xlsx,,B4,T4,m,"['c', 'm']","['Clue', 'Monopoly']","[-0.15, 0.5]","[0.15, 0.5]",1,1,,,,,,,,,0,0,0,0,0,1,1,7,,,,,,,,,,,,,,,,,,,,,,,,,,,,,,,,,,,,,,,,,,,,,,,,,,,,,,,362.89728191299946,None,362.89728191299946,None,362.89728191299946,None,c,0,0.49785194600008253,364.432161581999,None,364.432161581999,None,364.432161581999,None,364.99746722099917,None,364.99746722099917,None,364.99746722099917,None,364.99746722099917,None,,,,,,,,,,,,,,,,,,,,,,,,,,,,,,,,,,,,,,,,,,,,001,65,2020_Feb_04_1355,spring_faces,3.1.5,60.00911142339702,
condition files/Stage1_1.xlsx,,B1,T2,c,"['c', 'm']","['Clue', 'Monopoly']","[-0.15, 0.5]","[0.15, 0.5]",1,1,,,,,,,,,0,0,0,0,0,2,2,1,,,,,,,,,,,,,,,,,,,,,,,,,,,,,,,,,,,,,,,,,,,,,,,,,,,,,,,366.9472133479994,None,366.9472133479994,None,366.9472133479994,None,c,1,1.0885521740001423,368.4815239999989,None,368.4815239999989,None,368.4815239999989,None,369.64752063000014,None,369.64752063000014,None,369.64752063000014,None,369.64752063000014,None,,,,,,,,,,,,,,,,,,,,,,,,,,,,,,,,,,,,,,,,,,,,001,65,2020_Feb_04_1355,spring_faces,3.1.5,60.00911142339702,
condition files/Stage1_1.xlsx,,B2,T1,m,"['c', 'm']","['Clue', 'Monopoly']","[-0.15, 0.5]","[0.15, 0.5]",1,1,,,,,,,,,0,0,0,0,0,3,3,2,,,,,,,,,,,,,,,,,,,,,,,,,,,,,,,,,,,,,,,,,,,,,,,,,,,,,,,371.5969759460004,None,371.5969759460004,None,371.5969759460004,None,m,1,1.4315359129996068,373.1304572579993,None,373.1304572579993,None,373.1304572579993,None,374.63108115499926,None,374.63108115499926,None,374.63108115499926,None,374.63108115499926,None,,,,,,,,,,,,,,,,,,,,,,,,,,,,,,,,,,,,,,,,,,,,001,65,2020_Feb_04_1355,spring_faces,3.1.5,60.00911142339702,
condition files/Stage1_1.xlsx,,T2,B2,m,"['c', 'm']","['Clue', 'Monopoly']","[-0.15, 0.5]","[0.15, 0.5]",1,1,,,,,,,,,0,0,0,0,0,4,4,3,,,,,,,,,,,,,,,,,,,,,,,,,,,,,,,,,,,,,,,,,,,,,,,,,,,,,,,376.5805598629995,None,376.5805598629995,None,376.5805598629995,None,c,0,0.9107969979995687,378.1152242150001,None,378.1152242150001,None,378.1152242150001,None,379.0807655179997,None,379.0807655179997,None,379.0807655179997,None,379.0807655179997,None,,,,,,,,,,,,,,,,,,,,,,,,,,,,,,,,,,,,,,,,,,,,001,65,2020_Feb_04_1355,spring_faces,3.1.5,60.00911142339702,
condition files/Stage1_1.xlsx,,T1,B1,c,"['c', 'm']","['Clue', 'Monopoly']","[-0.15, 0.5]","[0.15, 0.5]",1,1,,,,,,,,,0,0,0,0,0,5,5,0,,,,,,,,,,,,,,,,,,,,,,,,,,,,,,,,,,,,,,,,,,,,,,,,,,,,,,,381.0472467899999,None,381.0472467899999,None,381.0472467899999,None,c,1,1.3390755749987875,382.58300275500005,None,382.58300275500005,None,382.58300275500005,None,383.9806937199992,None,383.9806937199992,None,383.9806937199992,None,383.9806937199992,None,,,,,,,,,,,,,,,,,,,,,,,,,,,,,,,,,,,,,,,,,,,,001,65,2020_Feb_04_1355,spring_faces,3.1.5,60.00911142339702,
condition files/Stage1_1.xlsx,,T4,B3,m,"['c', 'm']","['Clue', 'Monopoly']","[-0.15, 0.5]","[0.15, 0.5]",1,1,,,,,,,,,0,0,0,0,0,6,6,6,,,,,,,,,,,,,,,,,,,,,,,,,,,,,,,,,,,,,,,,,,,,,,,,,,,,,,,385.9472646719987,None,385.9472646719987,None,385.9472646719987,None,m,1,1.3694593489999534,387.4805647630001,None,387.4805647630001,None,387.4805647630001,None,388.9306943720003,None,388.9306943720003,None,388.9306943720003,None,388.9306943720003,None,,,,,,,,,,,,,,,,,,,,,,,,,,,,,,,,,,,,,,,,,,,,001,65,2020_Feb_04_1355,spring_faces,3.1.5,60.00911142339702,
condition files/Stage1_1.xlsx,,B3,T3,c,"['c', 'm']","['Clue', 'Monopoly']","[-0.15, 0.5]","[0.15, 0.5]",1,1,,,,,,,,,0,0,0,0,0,7,7,4,,,,,,,,,,,,,,,,,,,,,,,,,,,,,,,,,,,,,,,,,,,,,,,,,,,,,,,390.88056202900043,None,390.88056202900043,None,390.88056202900043,None,m,0,1.0095191750006052,392.41645684799914,None,392.41645684799914,None,392.41645684799914,None,393.48341667800014,None,393.48341667800014,None,393.48341667800014,None,393.48341667800014,None,,,,,,,,,,,,,,,,,,,,,,,,,,,,,,,,,,,,,,,,,,,,001,65,2020_Feb_04_1355,spring_faces,3.1.5,60.00911142339702,
condition files/Stage1_2.xlsx,,T4,B4,m,"['c', 'm']","['Clue', 'Monopoly']","[-0.15, 0.5]","[0.15, 0.5]",1,1,,,,,,,,,0,1,1,1,0,0,0,7,,,,,,,,,,,,,,,,,,,,,,,,,,,,,,,,,,,,,,,,,,,,,,,,,,,,,,,395.46423324699936,None,395.46423324699936,None,395.46423324699936,None,m,1,1.1801233320002211,397.0139656219999,None,397.0139656219999,None,397.0139656219999,None,398.2642925229993,None,398.2642925229993,None,398.2642925229993,None,398.2642925229993,None,,,,,,,,,,,,,,,,,,,,,,,,,,,,,,,,,,,,,,,,,,,,001,65,2020_Feb_04_1355,spring_faces,3.1.5,60.00911142339702,
condition files/Stage1_2.xlsx,,T2,B1,c,"['c', 'm']","['Clue', 'Monopoly']","[-0.15, 0.5]","[0.15, 0.5]",1,1,,,,,,,,,0,1,1,1,0,1,1,1,,,,,,,,,,,,,,,,,,,,,,,,,,,,,,,,,,,,,,,,,,,,,,,,,,,,,,,400.21379465099926,None,400.21379465099926,None,400.21379465099926,None,c,1,0.8611895810008718,401.74883141600003,None,401.74883141600003,None,401.74883141600003,None,402.66545694100023,None,402.66545694100023,None,402.66545694100023,None,402.66545694100023,None,,,,,,,,,,,,,,,,,,,,,,,,,,,,,,,,,,,,,,,,,,,,001,65,2020_Feb_04_1355,spring_faces,3.1.5,60.00911142339702,
condition files/Stage1_2.xlsx,,B4,T3,c,"['c', 'm']","['Clue', 'Monopoly']","[-0.15, 0.5]","[0.15, 0.5]",1,1,,,,,,,,,0,1,1,1,0,2,2,5,,,,,,,,,,,,,,,,,,,,,,,,,,,,,,,,,,,,,,,,,,,,,,,,,,,,,,,404.6300012720003,None,404.6300012720003,None,404.6300012720003,None,c,1,0.989009292999981,406.18105816800016,None,406.18105816800016,None,406.18105816800016,None,407.23079871499976,None,407.23079871499976,None,407.23079871499976,None,407.23079871499976,None,,,,,,,,,,,,,,,,,,,,,,,,,,,,,,,,,,,,,,,,,,,,001,65,2020_Feb_04_1355,spring_faces,3.1.5,60.00911142339702,
condition files/Stage1_2.xlsx,,B1,T1,c,"['c', 'm']","['Clue', 'Monopoly']","[-0.15, 0.5]","[0.15, 0.5]",1,1,,,,,,,,,0,1,1,1,0,3,3,0,,,,,,,,,,,,,,,,,,,,,,,,,,,,,,,,,,,,,,,,,,,,,,,,,,,,,,,409.19723810699907,None,409.19723810699907,None,409.19723810699907,None,c,1,2.5182692859998497,410.7317514189999,None,410.7317514189999,None,410.7317514189999,None,413.3141804799998,None,413.3141804799998,None,413.3141804799998,None,413.3141804799998,None,,,,,,,,,,,,,,,,,,,,,,,,,,,,,,,,,,,,,,,,,,,,001,65,2020_Feb_04_1355,spring_faces,3.1.5,60.00911142339702,
condition files/Stage1_2.xlsx,,B3,T4,m,"['c', 'm']","['Clue', 'Monopoly']","[-0.15, 0.5]","[0.15, 0.5]",1,1,,,,,,,,,0,1,1,1,0,4,4,6,,,,,,,,,,,,,,,,,,,,,,,,,,,,,,,,,,,,,,,,,,,,,,,,,,,,,,,415.2806016300001,None,415.2806016300001,None,415.2806016300001,None,m,1,0.9465076590004173,416.8155077479987,None,416.8155077479987,None,416.8155077479987,None,417.83026850199894,None,417.83026850199894,None,417.83026850199894,None,417.83026850199894,None,,,,,,,,,,,,,,,,,,,,,,,,,,,,,,,,,,,,,,,,,,,,001,65,2020_Feb_04_1355,spring_faces,3.1.5,60.00911142339702,
condition files/Stage1_2.xlsx,,T1,B2,m,"['c', 'm']","['Clue', 'Monopoly']","[-0.15, 0.5]","[0.15, 0.5]",1,1,,,,,,,,,0,1,1,1,0,5,5,2,,,,,,,,,,,,,,,,,,,,,,,,,,,,,,,,,,,,,,,,,,,,,,,,,,,,,,,419.78007137699933,None,419.78007137699933,None,419.78007137699933,None,c,0,1.8070524459999433,421.31503649799924,None,421.31503649799924,None,421.31503649799924,None,423.1810983960004,None,423.1810983960004,None,423.1810983960004,None,423.1810983960004,None,,,,,,,,,,,,,,,,,,,,,,,,,,,,,,,,,,,,,,,,,,,,001,65,2020_Feb_04_1355,spring_faces,3.1.5,60.00911142339702,
condition files/Stage1_2.xlsx,,B2,T2,m,"['c', 'm']","['Clue', 'Monopoly']","[-0.15, 0.5]","[0.15, 0.5]",1,1,,,,,,,,,0,1,1,1,0,6,6,3,,,,,,,,,,,,,,,,,,,,,,,,,,,,,,,,,,,,,,,,,,,,,,,,,,,,,,,425.1469722189995,None,425.1469722189995,None,425.1469722189995,None,m,1,1.2887723229996482,426.68124839200027,None,426.68124839200027,None,426.68124839200027,None,428.03074755499983,None,428.03074755499983,None,428.03074755499983,None,428.03074755499983,None,,,,,,,,,,,,,,,,,,,,,,,,,,,,,,,,,,,,,,,,,,,,001,65,2020_Feb_04_1355,spring_faces,3.1.5,60.00911142339702,
condition files/Stage1_2.xlsx,,T3,B3,c,"['c', 'm']","['Clue', 'Monopoly']","[-0.15, 0.5]","[0.15, 0.5]",1,1,,,,,,,,,0,1,1,1,0,7,7,4,,,,,,,,,,,,,,,,,,,,,,,,,,,,,,,,,,,,,,,,,,,,,,,,,,,,,,,429.9972265870001,None,429.9972265870001,None,429.9972265870001,None,c,1,1.238690329999372,431.5473248420003,None,431.5473248420003,None,431.5473248420003,None,432.84698267299973,None,432.84698267299973,None,432.84698267299973,None,432.84698267299973,None,,,,,,,,,,,,,,,,,,,,,,,,,,,,,,,,,,,,,,,,,,,,001,65,2020_Feb_04_1355,spring_faces,3.1.5,60.00911142339702,
condition files/Stage1_1.xlsx,,B2,T1,m,"['c', 'm']","['Clue', 'Monopoly']","[-0.15, 0.5]","[0.15, 0.5]",1,1,,,,,,,,,0,2,2,2,0,0,0,2,,,,,,,,,,,,,,,,,,,,,,,,,,,,,,,,,,,,,,,,,,,,,,,,,,,,,,,434.8306502439991,None,434.8306502439991,None,434.8306502439991,None,m,1,1.9256094409993239,436.3644841999994,None,436.3644841999994,None,436.3644841999994,None,438.34806311099965,None,438.34806311099965,None,438.34806311099965,None,438.34806311099965,None,,,,,,,,,,,,,,,,,,,,,,,,,,,,,,,,,,,,,,,,,,,,001,65,2020_Feb_04_1355,spring_faces,3.1.5,60.00911142339702,
condition files/Stage1_1.xlsx,,T4,B3,m,"['c', 'm']","['Clue', 'Monopoly']","[-0.15, 0.5]","[0.15, 0.5]",1,1,,,,,,,,,0,2,2,2,0,1,1,6,,,,,,,,,,,,,,,,,,,,,,,,,,,,,,,,,,,,,,,,,,,,,,,,,,,,,,,440.31382177399973,None,440.31382177399973,None,440.31382177399973,None,m,1,2.394953909000833,441.84701180499906,None,441.84701180499906,None,441.84701180499906,None,444.2976531610002,None,444.2976531610002,None,444.2976531610002,None,444.2976531610002,None,,,,,,,,,,,,,,,,,,,,,,,,,,,,,,,,,,,,,,,,,,,,001,65,2020_Feb_04_1355,spring_faces,3.1.5,60.00911142339702,
condition files/Stage1_1.xlsx,,B3,T3,c,"['c', 'm']","['Clue', 'Monopoly']","[-0.15, 0.5]","[0.15, 0.5]",1,1,,,,,,,,,0,2,2,2,0,2,2,4,,,,,,,,,,,,,,,,,,,,,,,,,,,,,,,,,,,,,,,,,,,,,,,,,,,,,,,446.2634843199994,None,446.2634843199994,None,446.2634843199994,None,c,1,1.5323006019989407,447.79771783399883,None,447.79771783399883,None,447.79771783399883,None,449.3830814140001,None,449.3830814140001,None,449.3830814140001,None,449.3830814140001,None,,,,,,,,,,,,,,,,,,,,,,,,,,,,,,,,,,,,,,,,,,,,001,65,2020_Feb_04_1355,spring_faces,3.1.5,60.00911142339702,
condition files/Stage1_1.xlsx,,T2,B2,m,"['c', 'm']","['Clue', 'Monopoly']","[-0.15, 0.5]","[0.15, 0.5]",1,1,,,,,,,,,0,2,2,2,0,3,3,3,,,,,,,,,,,,,,,,,,,,,,,,,,,,,,,,,,,,,,,,,,,,,,,,,,,,,,,451.3468783239987,None,451.3468783239987,None,451.3468783239987,None,m,1,2.095928831000492,452.8820720240001,None,452.8820720240001,None,452.8820720240001,None,455.03303520199916,None,455.03303520199916,None,455.03303520199916,None,455.03303520199916,None,,,,,,,,,,,,,,,,,,,,,,,,,,,,,,,,,,,,,,,,,,,,001,65,2020_Feb_04_1355,spring_faces,3.1.5,60.00911142339702,
condition files/Stage1_1.xlsx,,B1,T2,c,"['c', 'm']","['Clue', 'Monopoly']","[-0.15, 0.5]","[0.15, 0.5]",1,1,,,,,,,,,0,2,2,2,0,4,4,1,,,,,,,,,,,,,,,,,,,,,,,,,,,,,,,,,,,,,,,,,,,,,,,,,,,,,,,456.9972199969998,None,456.9972199969998,None,456.9972199969998,None,c,1,1.2457457410000643,458.53226762899976,None,458.53226762899976,None,458.53226762899976,None,459.8476556730002,None,459.8476556730002,None,459.8476556730002,None,459.8476556730002,None,,,,,,,,,,,,,,,,,,,,,,,,,,,,,,,,,,,,,,,,,,,,001,65,2020_Feb_04_1355,spring_faces,3.1.5,60.00911142339702,
condition files/Stage1_1.xlsx,,T1,B1,c,"['c', 'm']","['Clue', 'Monopoly']","[-0.15, 0.5]","[0.15, 0.5]",1,1,,,,,,,,,0,2,2,2,0,5,5,0,,,,,,,,,,,,,,,,,,,,,,,,,,,,,,,,,,,,,,,,,,,,,,,,,,,,,,,461.7973357769988,None,461.7973357769988,None,461.7973357769988,None,c,1,1.8701277620002656,463.33190106300026,None,463.33190106300026,None,463.33190106300026,None,465.2642142759996,None,465.2642142759996,None,465.2642142759996,None,465.2642142759996,None,,,,,,,,,,,,,,,,,,,,,,,,,,,,,,,,,,,,,,,,,,,,001,65,2020_Feb_04_1355,spring_faces,3.1.5,60.00911142339702,
condition files/Stage1_1.xlsx,,T3,B4,c,"['c', 'm']","['Clue', 'Monopoly']","[-0.15, 0.5]","[0.15, 0.5]",1,1,,,,,,,,,0,2,2,2,0,6,6,5,,,,,,,,,,,,,,,,,,,,,,,,,,,,,,,,,,,,,,,,,,,,,,,,,,,,,,,467.230508577999,None,467.230508577999,None,467.230508577999,None,c,1,0.8058820719998039,468.76417952799966,None,468.76417952799966,None,468.76417952799966,None,469.630834485999,None,469.630834485999,None,469.630834485999,None,469.630834485999,None,,,,,,,,,,,,,,,,,,,,,,,,,,,,,,,,,,,,,,,,,,,,001,65,2020_Feb_04_1355,spring_faces,3.1.5,60.00911142339702,
condition files/Stage1_1.xlsx,,B4,T4,m,"['c', 'm']","['Clue', 'Monopoly']","[-0.15, 0.5]","[0.15, 0.5]",1,1,,,,,,,,,0,2,2,2,0,7,7,7,,,,,,,,,,,,,,,,,,,,,,,,,,,,,,,,,,,,,,,,,,,,,,,,,,,,,,,471.5966693399987,None,471.5966693399987,None,471.5966693399987,None,c,0,1.5916847490007058,473.1304088349989,None,473.1304088349989,None,473.1304088349989,None,474.78310020000026,None,474.78310020000026,None,474.78310020000026,None,474.78310020000026,None,,,,,,,,,,,,,,,,,,,,,,,,,,,,,,,,,,,,,,,,,,,,001,65,2020_Feb_04_1355,spring_faces,3.1.5,60.00911142339702,
condition files/Stage1_2.xlsx,,T2,B1,c,"['c', 'm']","['Clue', 'Monopoly']","[-0.15, 0.5]","[0.15, 0.5]",1,1,,,,,,,,,0,3,3,3,0,0,0,1,,,,,,,,,,,,,,,,,,,,,,,,,,,,,,,,,,,,,,,,,,,,,,,,,,,,,,,476.76384069400046,None,476.76384069400046,None,476.76384069400046,None,c,1,1.1120738469999196,478.3138624439998,None,478.3138624439998,None,478.3138624439998,None,479.48172889299894,None,479.48172889299894,None,479.48172889299894,None,479.48172889299894,None,,,,,,,,,,,,,,,,,,,,,,,,,,,,,,,,,,,,,,,,,,,,001,65,2020_Feb_04_1355,spring_faces,3.1.5,60.00911142339702,
condition files/Stage1_2.xlsx,,B4,T3,c,"['c', 'm']","['Clue', 'Monopoly']","[-0.15, 0.5]","[0.15, 0.5]",1,1,,,,,,,,,0,3,3,3,0,1,1,5,,,,,,,,,,,,,,,,,,,,,,,,,,,,,,,,,,,,,,,,,,,,,,,,,,,,,,,481.4473079830004,None,481.4473079830004,None,481.4473079830004,None,c,1,0.780655647000458,482.9813612300004,None,482.9813612300004,None,482.9813612300004,None,483.8143705000002,None,483.8143705000002,None,483.8143705000002,None,483.8143705000002,None,,,,,,,,,,,,,,,,,,,,,,,,,,,,,,,,,,,,,,,,,,,,001,65,2020_Feb_04_1355,spring_faces,3.1.5,60.00911142339702,
condition files/Stage1_2.xlsx,,B3,T4,m,"['c', 'm']","['Clue', 'Monopoly']","[-0.15, 0.5]","[0.15, 0.5]",1,1,,,,,,,,,0,3,3,3,0,2,2,6,,,,,,,,,,,,,,,,,,,,,,,,,,,,,,,,,,,,,,,,,,,,,,,,,,,,,,,485.7807303009995,None,485.7807303009995,None,485.7807303009995,None,m,1,0.9432214869993913,487.3308216490004,None,487.3308216490004,None,487.3308216490004,None,488.3472644679987,None,488.3472644679987,None,488.3472644679987,None,488.3472644679987,None,,,,,,,,,,,,,,,,,,,,,,,,,,,,,,,,,,,,,,,,,,,,001,65,2020_Feb_04_1355,spring_faces,3.1.5,60.00911142339702,
condition files/Stage1_2.xlsx,,T3,B3,c,"['c', 'm']","['Clue', 'Monopoly']","[-0.15, 0.5]","[0.15, 0.5]",1,1,,,,,,,,,0,3,3,3,0,3,3,4,,,,,,,,,,,,,,,,,,,,,,,,,,,,,,,,,,,,,,,,,,,,,,,,,,,,,,,490.29644660899976,None,490.29644660899976,None,490.29644660899976,None,c,1,0.8090454270004557,491.83296305600015,None,491.83296305600015,None,491.83296305600015,None,492.7137158309997,None,492.7137158309997,None,492.7137158309997,None,492.7137158309997,None,,,,,,,,,,,,,,,,,,,,,,,,,,,,,,,,,,,,,,,,,,,,001,65,2020_Feb_04_1355,spring_faces,3.1.5,60.00911142339702,
condition files/Stage1_2.xlsx,,T1,B2,m,"['c', 'm']","['Clue', 'Monopoly']","[-0.15, 0.5]","[0.15, 0.5]",1,1,,,,,,,,,0,3,3,3,0,4,4,2,,,,,,,,,,,,,,,,,,,,,,,,,,,,,,,,,,,,,,,,,,,,,,,,,,,,,,,494.66332220599907,None,494.66332220599907,None,494.66332220599907,None,c,0,1.2115865670002677,496.1983902510001,None,496.1983902510001,None,496.1983902510001,None,497.4803577769999,None,497.4803577769999,None,497.4803577769999,None,497.4803577769999,None,,,,,,,,,,,,,,,,,,,,,,,,,,,,,,,,,,,,,,,,,,,,001,65,2020_Feb_04_1355,spring_faces,3.1.5,60.00911142339702,
condition files/Stage1_2.xlsx,,B2,T2,m,"['c', 'm']","['Clue', 'Monopoly']","[-0.15, 0.5]","[0.15, 0.5]",1,1,,,,,,,,,0,3,3,3,0,5,5,3,,,,,,,,,,,,,,,,,,,,,,,,,,,,,,,,,,,,,,,,,,,,,,,,,,,,,,,499.4302943490002,None,499.4302943490002,None,499.4302943490002,None,m,1,1.6614178139989235,500.96452320499884,None,500.96452320499884,None,500.96452320499884,None,502.6807438670003,None,502.6807438670003,None,502.6807438670003,None,502.6807438670003,None,,,,,,,,,,,,,,,,,,,,,,,,,,,,,,,,,,,,,,,,,,,,001,65,2020_Feb_04_1355,spring_faces,3.1.5,60.00911142339702,
condition files/Stage1_2.xlsx,,T4,B4,m,"['c', 'm']","['Clue', 'Monopoly']","[-0.15, 0.5]","[0.15, 0.5]",1,1,,,,,,,,,0,3,3,3,0,6,6,7,,,,,,,,,,,,,,,,,,,,,,,,,,,,,,,,,,,,,,,,,,,,,,,,,,,,,,,504.64677176499936,None,504.64677176499936,None,504.64677176499936,None,m,1,0.6856800310015387,506.1804132919988,None,506.1804132919988,None,506.1804132919988,None,506.93030300899954,None,506.93030300899954,None,506.93030300899954,None,506.93030300899954,None,,,,,,,,,,,,,,,,,,,,,,,,,,,,,,,,,,,,,,,,,,,,001,65,2020_Feb_04_1355,spring_faces,3.1.5,60.00911142339702,
condition files/Stage1_2.xlsx,,B1,T1,c,"['c', 'm']","['Clue', 'Monopoly']","[-0.15, 0.5]","[0.15, 0.5]",1,1,,,,,,,,,0,3,3,3,0,7,7,0,,,,,,,,,,,,,,,,,,,,,,,,,,,,,,,,,,,,,,,,,,,,,,,,,,,,,,,508.89691859199957,None,508.89691859199957,None,508.89691859199957,None,m,0,1.0255548810000619,510.4325470189997,None,510.4325470189997,None,510.4325470189997,None,511.5148414569994,None,511.5148414569994,None,511.5148414569994,None,511.5148414569994,None,,,,,,,,,,,,,,,,,,,,,,,,,,,,,,,,,,,,,,,,,,,,001,65,2020_Feb_04_1355,spring_faces,3.1.5,60.00911142339702,
condition files/Stage1_1.xlsx,,B3,T3,c,"['c', 'm']","['Clue', 'Monopoly']","[-0.15, 0.5]","[0.15, 0.5]",1,1,,,,,,,,,0,4,4,4,0,0,0,4,,,,,,,,,,,,,,,,,,,,,,,,,,,,,,,,,,,,,,,,,,,,,,,,,,,,,,,513.4973689999988,None,513.4973689999988,None,513.4973689999988,None,c,1,0.6184518070003833,515.0475635549992,None,515.0475635549992,None,515.0475635549992,None,515.7301246049992,None,515.7301246049992,None,515.7301246049992,None,515.7301246049992,None,,,,,,,,,,,,,,,,,,,,,,,,,,,,,,,,,,,,,,,,,,,,001,65,2020_Feb_04_1355,spring_faces,3.1.5,60.00911142339702,
condition files/Stage1_1.xlsx,,T4,B3,m,"['c', 'm']","['Clue', 'Monopoly']","[-0.15, 0.5]","[0.15, 0.5]",1,1,,,,,,,,,0,4,4,4,0,1,1,6,,,,,,,,,,,,,,,,,,,,,,,,,,,,,,,,,,,,,,,,,,,,,,,,,,,,,,,517.6972238809994,None,517.6972238809994,None,517.6972238809994,None,m,1,1.2834952650009654,519.2304712459991,None,519.2304712459991,None,519.2304712459991,None,520.5642059239999,None,520.5642059239999,None,520.5642059239999,None,520.5642059239999,None,,,,,,,,,,,,,,,,,,,,,,,,,,,,,,,,,,,,,,,,,,,,001,65,2020_Feb_04_1355,spring_faces,3.1.5,60.00911142339702,
condition files/Stage1_1.xlsx,,T2,B2,m,"['c', 'm']","['Clue', 'Monopoly']","[-0.15, 0.5]","[0.15, 0.5]",1,1,,,,,,,,,0,4,4,4,0,2,2,3,,,,,,,,,,,,,,,,,,,,,,,,,,,,,,,,,,,,,,,,,,,,,,,,,,,,,,,522.5305707919997,None,522.5305707919997,None,522.5305707919997,None,m,1,1.2805416880000848,524.0654756789991,None,524.0654756789991,None,524.0654756789991,None,525.3975624909999,None,525.3975624909999,None,525.3975624909999,None,525.3975624909999,None,,,,,,,,,,,,,,,,,,,,,,,,,,,,,,,,,,,,,,,,,,,,001,65,2020_Feb_04_1355,spring_faces,3.1.5,60.00911142339702,
condition files/Stage1_1.xlsx,,B4,T4,m,"['c', 'm']","['Clue', 'Monopoly']","[-0.15, 0.5]","[0.15, 0.5]",1,1,,,,,,,,,0,4,4,4,0,3,3,7,,,,,,,,,,,,,,,,,,,,,,,,,,,,,,,,,,,,,,,,,,,,,,,,,,,,,,,527.3637530719989,None,527.3637530719989,None,527.3637530719989,None,m,1,1.8560310959983326,528.9140395129998,None,528.9140395129998,None,528.9140395129998,None,530.8310238260001,None,530.8310238260001,None,530.8310238260001,None,530.8310238260001,None,,,,,,,,,,,,,,,,,,,,,,,,,,,,,,,,,,,,,,,,,,,,001,65,2020_Feb_04_1355,spring_faces,3.1.5,60.00911142339702,
condition files/Stage1_1.xlsx,,B1,T2,c,"['c', 'm']","['Clue', 'Monopoly']","[-0.15, 0.5]","[0.15, 0.5]",1,1,,,,,,,,,0,4,4,4,0,4,4,1,,,,,,,,,,,,,,,,,,,,,,,,,,,,,,,,,,,,,,,,,,,,,,,,,,,,,,,532.7972603489998,None,532.7972603489998,None,532.7972603489998,None,c,1,1.237084254000365,534.3329903819995,None,534.3329903819995,None,534.3329903819995,None,535.631744070999,None,535.631744070999,None,535.631744070999,None,535.631744070999,None,,,,,,,,,,,,,,,,,,,,,,,,,,,,,,,,,,,,,,,,,,,,001,65,2020_Feb_04_1355,spring_faces,3.1.5,60.00911142339702,
condition files/Stage1_1.xlsx,,B2,T1,m,"['c', 'm']","['Clue', 'Monopoly']","[-0.15, 0.5]","[0.15, 0.5]",1,1,,,,,,,,,0,4,4,4,0,5,5,2,,,,,,,,,,,,,,,,,,,,,,,,,,,,,,,,,,,,,,,,,,,,,,,,,,,,,,,537.5972458109991,None,537.5972458109991,None,537.5972458109991,None,m,1,0.7749886820001848,539.1470776219994,None,539.1470776219994,None,539.1470776219994,None,539.9809037729992,None,539.9809037729992,None,539.9809037729992,None,539.9809037729992,None,,,,,,,,,,,,,,,,,,,,,,,,,,,,,,,,,,,,,,,,,,,,001,65,2020_Feb_04_1355,spring_faces,3.1.5,60.00911142339702,
condition files/Stage1_1.xlsx,,T3,B4,c,"['c', 'm']","['Clue', 'Monopoly']","[-0.15, 0.5]","[0.15, 0.5]",1,1,,,,,,,,,0,4,4,4,0,6,6,5,,,,,,,,,,,,,,,,,,,,,,,,,,,,,,,,,,,,,,,,,,,,,,,,,,,,,,,541.9473707189991,None,541.9473707189991,None,541.9473707189991,None,c,1,0.6954031730001589,543.4826132939997,None,543.4826132939997,None,543.4826132939997,None,544.2323299460004,None,544.2323299460004,None,544.2323299460004,None,544.2323299460004,None,,,,,,,,,,,,,,,,,,,,,,,,,,,,,,,,,,,,,,,,,,,,001,65,2020_Feb_04_1355,spring_faces,3.1.5,60.00911142339702,
condition files/Stage1_1.xlsx,,T1,B1,c,"['c', 'm']","['Clue', 'Monopoly']","[-0.15, 0.5]","[0.15, 0.5]",1,1,,,,,,,,,0,4,4,4,0,7,7,0,,,,,,,,,,,,,,,,,,,,,,,,,,,,,,,,,,,,,,,,,,,,,,,,,,,,,,,546.1972309020002,None,546.1972309020002,None,546.1972309020002,None,c,1,1.198235420999481,547.7477655330003,None,547.7477655330003,None,547.7477655330003,None,548.9976087679988,None,548.9976087679988,None,548.9976087679988,None,548.9976087679988,None,,,,,,,,,,,,,,,,,,,,,,,,,,,,,,,,,,,,,,,,,,,,001,65,2020_Feb_04_1355,spring_faces,3.1.5,60.00911142339702,
condition files/Stage1_2.xlsx,,B2,T2,m,"['c', 'm']","['Clue', 'Monopoly']","[-0.15, 0.5]","[0.15, 0.5]",1,1,,,,,,,,,0,5,5,5,0,0,0,3,,,,,,,,,,,,,,,,,,,,,,,,,,,,,,,,,,,,,,,,,,,,,,,,,,,,,,,550.9801734100001,None,550.9801734100001,None,550.9801734100001,None,m,1,1.2636407709997002,552.5304108700002,None,552.5304108700002,None,552.5304108700002,None,553.8496134790003,None,553.8496134790003,None,553.8496134790003,None,553.8496134790003,None,,,,,,,,,,,,,,,,,,,,,,,,,,,,,,,,,,,,,,,,,,,,001,65,2020_Feb_04_1355,spring_faces,3.1.5,60.00911142339702,
condition files/Stage1_2.xlsx,,T4,B4,m,"['c', 'm']","['Clue', 'Monopoly']","[-0.15, 0.5]","[0.15, 0.5]",1,1,,,,,,,,,0,5,5,5,0,1,1,7,,,,,,,,,,,,,,,,,,,,,,,,,,,,,,,,,,,,,,,,,,,,,,,,,,,,,,,555.8141081539998,None,555.8141081539998,None,555.8141081539998,None,m,1,0.8776275740001438,557.3643427349998,None,557.3643427349998,None,557.3643427349998,None,558.297464547999,None,558.297464547999,None,558.297464547999,None,558.297464547999,None,,,,,,,,,,,,,,,,,,,,,,,,,,,,,,,,,,,,,,,,,,,,001,65,2020_Feb_04_1355,spring_faces,3.1.5,60.00911142339702,
condition files/Stage1_2.xlsx,,B4,T3,c,"['c', 'm']","['Clue', 'Monopoly']","[-0.15, 0.5]","[0.15, 0.5]",1,1,,,,,,,,,0,5,5,5,0,2,2,5,,,,,,,,,,,,,,,,,,,,,,,,,,,,,,,,,,,,,,,,,,,,,,,,,,,,,,,560.263567476999,None,560.263567476999,None,560.263567476999,None,c,1,0.5861874740003259,561.7998490099999,None,561.7998490099999,None,561.7998490099999,None,562.4490023019989,None,562.4490023019989,None,562.4490023019989,None,562.4490023019989,None,,,,,,,,,,,,,,,,,,,,,,,,,,,,,,,,,,,,,,,,,,,,001,65,2020_Feb_04_1355,spring_faces,3.1.5,60.00911142339702,
condition files/Stage1_2.xlsx,,T1,B2,m,"['c', 'm']","['Clue', 'Monopoly']","[-0.15, 0.5]","[0.15, 0.5]",1,1,,,,,,,,,0,5,5,5,0,3,3,2,,,,,,,,,,,,,,,,,,,,,,,,,,,,,,,,,,,,,,,,,,,,,,,,,,,,,,,564.4139393589994,None,564.4139393589994,None,564.4139393589994,None,m,1,1.2539780730003258,565.948038306,None,565.948038306,None,565.948038306,None,567.2807333250003,None,567.2807333250003,None,567.2807333250003,None,567.2807333250003,None,,,,,,,,,,,,,,,,,,,,,,,,,,,,,,,,,,,,,,,,,,,,001,65,2020_Feb_04_1355,spring_faces,3.1.5,60.00911142339702,
condition files/Stage1_2.xlsx,,B1,T1,c,"['c', 'm']","['Clue', 'Monopoly']","[-0.15, 0.5]","[0.15, 0.5]",1,1,,,,,,,,,0,5,5,5,0,4,4,0,,,,,,,,,,,,,,,,,,,,,,,,,,,,,,,,,,,,,,,,,,,,,,,,,,,,,,,569.2310578059987,None,569.2310578059987,None,569.2310578059987,None,c,1,0.8534458869999071,570.7805618999992,None,570.7805618999992,None,570.7805618999992,None,571.7139432980002,None,571.7139432980002,None,571.7139432980002,None,571.7139432980002,None,,,,,,,,,,,,,,,,,,,,,,,,,,,,,,,,,,,,,,,,,,,,001,65,2020_Feb_04_1355,spring_faces,3.1.5,60.00911142339702,
condition files/Stage1_2.xlsx,,B3,T4,m,"['c', 'm']","['Clue', 'Monopoly']","[-0.15, 0.5]","[0.15, 0.5]",1,1,,,,,,,,,0,5,5,5,0,5,5,6,,,,,,,,,,,,,,,,,,,,,,,,,,,,,,,,,,,,,,,,,,,,,,,,,,,,,,,573.6644297169987,None,573.6644297169987,None,573.6644297169987,None,m,1,0.48286131900022156,575.1991310199992,None,575.1991310199992,None,575.1991310199992,None,575.7503029540003,None,575.7503029540003,None,575.7503029540003,None,575.7503029540003,None,,,,,,,,,,,,,,,,,,,,,,,,,,,,,,,,,,,,,,,,,,,,001,65,2020_Feb_04_1355,spring_faces,3.1.5,60.00911142339702,
condition files/Stage1_2.xlsx,,T2,B1,c,"['c', 'm']","['Clue', 'Monopoly']","[-0.15, 0.5]","[0.15, 0.5]",1,1,,,,,,,,,0,5,5,5,0,6,6,1,,,,,,,,,,,,,,,,,,,,,,,,,,,,,,,,,,,,,,,,,,,,,,,,,,,,,,,577.7139830239994,None,577.7139830239994,None,577.7139830239994,None,c,1,0.9120979199997237,579.2499023299988,None,579.2499023299988,None,579.2499023299988,None,580.2311250539988,None,580.2311250539988,None,580.2311250539988,None,580.2311250539988,None,,,,,,,,,,,,,,,,,,,,,,,,,,,,,,,,,,,,,,,,,,,,001,65,2020_Feb_04_1355,spring_faces,3.1.5,60.00911142339702,
condition files/Stage1_2.xlsx,,T3,B3,c,"['c', 'm']","['Clue', 'Monopoly']","[-0.15, 0.5]","[0.15, 0.5]",1,1,,,,,,,,,0,5,5,5,0,7,7,4,,,,,,,,,,,,,,,,,,,,,,,,,,,,,,,,,,,,,,,,,,,,,,,,,,,,,,,582.1806283059996,None,582.1806283059996,None,582.1806283059996,None,c,1,0.5414561639991007,583.716603425999,None,583.716603425999,None,583.716603425999,None,584.3140889810002,None,584.3140889810002,None,584.3140889810002,None,584.3140889810002,None,,,,,,,,,,,,,,,,,,,,,,,,,,,,,,,,,,,,,,,,,,,,001,65,2020_Feb_04_1355,spring_faces,3.1.5,60.00911142339702,
condition files/Stage1_1.xlsx,,B4,T4,m,"['c', 'm']","['Clue', 'Monopoly']","[-0.15, 0.5]","[0.15, 0.5]",1,1,,,,,,,,,0,6,6,6,0,0,0,7,,,,,,,,,,,,,,,,,,,,,,,,,,,,,,,,,,,,,,,,,,,,,,,,,,,,,,,586.297036856,None,586.297036856,None,586.297036856,None,m,1,0.6171028959997784,587.8329252349995,None,587.8329252349995,None,587.8329252349995,None,588.5152983199987,None,588.5152983199987,None,588.5152983199987,None,588.5152983199987,None,,,,,,,,,,,,,,,,,,,,,,,,,,,,,,,,,,,,,,,,,,,,001,65,2020_Feb_04_1355,spring_faces,3.1.5,60.00911142339702,
condition files/Stage1_1.xlsx,,B1,T2,c,"['c', 'm']","['Clue', 'Monopoly']","[-0.15, 0.5]","[0.15, 0.5]",1,1,,,,,,,,,0,6,6,6,0,1,1,1,,,,,,,,,,,,,,,,,,,,,,,,,,,,,,,,,,,,,,,,,,,,,,,,,,,,,,,590.4807438499993,None,590.4807438499993,None,590.4807438499993,None,m,0,0.1636925640013942,592.03046713,None,592.03046713,None,592.03046713,None,592.263534148,None,592.263534148,None,592.263534148,None,592.263534148,None,,,,,,,,,,,,,,,,,,,,,,,,,,,,,,,,,,,,,,,,,,,,001,65,2020_Feb_04_1355,spring_faces,3.1.5,60.00911142339702,
condition files/Stage1_1.xlsx,,B3,T3,c,"['c', 'm']","['Clue', 'Monopoly']","[-0.15, 0.5]","[0.15, 0.5]",1,1,,,,,,,,,0,6,6,6,0,2,2,4,,,,,,,,,,,,,,,,,,,,,,,,,,,,,,,,,,,,,,,,,,,,,,,,,,,,,,,594.2133138659992,None,594.2133138659992,None,594.2133138659992,None,c,1,0.5562293769999087,595.7498604409993,None,595.7498604409993,None,595.7498604409993,None,596.3642255229988,None,596.3642255229988,None,596.3642255229988,None,596.3642255229988,None,,,,,,,,,,,,,,,,,,,,,,,,,,,,,,,,,,,,,,,,,,,,001,65,2020_Feb_04_1355,spring_faces,3.1.5,60.00911142339702,
condition files/Stage1_1.xlsx,,T3,B4,c,"['c', 'm']","['Clue', 'Monopoly']","[-0.15, 0.5]","[0.15, 0.5]",1,1,,,,,,,,,0,6,6,6,0,3,3,5,,,,,,,,,,,,,,,,,,,,,,,,,,,,,,,,,,,,,,,,,,,,,,,,,,,,,,,598.3308060069994,None,598.3308060069994,None,598.3308060069994,None,c,1,0.43983879999905184,599.8662431350003,None,599.8662431350003,None,599.8662431350003,None,600.3635652339999,None,600.3635652339999,None,600.3635652339999,None,600.3635652339999,None,,,,,,,,,,,,,,,,,,,,,,,,,,,,,,,,,,,,,,,,,,,,001,65,2020_Feb_04_1355,spring_faces,3.1.5,60.00911142339702,
condition files/Stage1_1.xlsx,,T1,B1,c,"['c', 'm']","['Clue', 'Monopoly']","[-0.15, 0.5]","[0.15, 0.5]",1,1,,,,,,,,,0,6,6,6,0,4,4,0,,,,,,,,,,,,,,,,,,,,,,,,,,,,,,,,,,,,,,,,,,,,,,,,,,,,,,,602.3302163159988,None,602.3302163159988,None,602.3302163159988,None,m,0,1.1445195799988142,603.865500328,None,603.865500328,None,603.865500328,None,605.0641840899989,None,605.0641840899989,None,605.0641840899989,None,605.0641840899989,None,,,,,,,,,,,,,,,,,,,,,,,,,,,,,,,,,,,,,,,,,,,,001,65,2020_Feb_04_1355,spring_faces,3.1.5,60.00911142339702,
condition files/Stage1_1.xlsx,,B2,T1,m,"['c', 'm']","['Clue', 'Monopoly']","[-0.15, 0.5]","[0.15, 0.5]",1,1,,,,,,,,,0,6,6,6,0,5,5,2,,,,,,,,,,,,,,,,,,,,,,,,,,,,,,,,,,,,,,,,,,,,,,,,,,,,,,,607.0303563839989,None,607.0303563839989,None,607.0303563839989,None,c,0,0.7966400929999509,608.5653810619988,None,608.5653810619988,None,608.5653810619988,None,609.430196416999,None,609.430196416999,None,609.430196416999,None,609.430196416999,None,,,,,,,,,,,,,,,,,,,,,,,,,,,,,,,,,,,,,,,,,,,,001,65,2020_Feb_04_1355,spring_faces,3.1.5,60.00911142339702,
condition files/Stage1_1.xlsx,,T2,B2,m,"['c', 'm']","['Clue', 'Monopoly']","[-0.15, 0.5]","[0.15, 0.5]",1,1,,,,,,,,,0,6,6,6,0,6,6,3,,,,,,,,,,,,,,,,,,,,,,,,,,,,,,,,,,,,,,,,,,,,,,,,,,,,,,,611.3807898809991,None,611.3807898809991,None,611.3807898809991,None,m,1,1.1671362890010641,612.9148571810001,None,612.9148571810001,None,612.9148571810001,None,614.1470306409992,None,614.1470306409992,None,614.1470306409992,None,614.1470306409992,None,,,,,,,,,,,,,,,,,,,,,,,,,,,,,,,,,,,,,,,,,,,,001,65,2020_Feb_04_1355,spring_faces,3.1.5,60.00911142339702,
condition files/Stage1_1.xlsx,,T4,B3,m,"['c', 'm']","['Clue', 'Monopoly']","[-0.15, 0.5]","[0.15, 0.5]",1,1,,,,,,,,,0,6,6,6,0,7,7,6,,,,,,,,,,,,,,,,,,,,,,,,,,,,,,,,,,,,,,,,,,,,,,,,,,,,,,,616.113839882999,None,616.113839882999,None,616.113839882999,None,m,1,0.882442792000802,617.6475716999994,None,617.6475716999994,None,617.6475716999994,None,618.580763684,None,618.580763684,None,618.580763684,None,618.580763684,None,,,,,,,,,,,,,,,,,,,,,,,,,,,,,,,,,,,,,,,,,,,,001,65,2020_Feb_04_1355,spring_faces,3.1.5,60.00911142339702,
condition files/Stage1_2.xlsx,,B2,T2,m,"['c', 'm']","['Clue', 'Monopoly']","[-0.15, 0.5]","[0.15, 0.5]",1,1,,,,,,,,,0,7,7,7,0,0,0,3,,,,,,,,,,,,,,,,,,,,,,,,,,,,,,,,,,,,,,,,,,,,,,,,,,,,,,,620.5641705069993,None,620.5641705069993,None,620.5641705069993,None,m,1,0.9771775520002848,622.0969058560004,None,622.0969058560004,None,622.0969058560004,None,623.130791263,None,623.130791263,None,623.130791263,None,623.130791263,None,,,,,,,,,,,,,,,,,,,,,,,,,,,,,,,,,,,,,,,,,,,,001,65,2020_Feb_04_1355,spring_faces,3.1.5,60.00911142339702,
condition files/Stage1_2.xlsx,,T2,B1,c,"['c', 'm']","['Clue', 'Monopoly']","[-0.15, 0.5]","[0.15, 0.5]",1,1,,,,,,,,,0,7,7,7,0,1,1,1,,,,,,,,,,,,,,,,,,,,,,,,,,,,,,,,,,,,,,,,,,,,,,,,,,,,,,,625.097355943999,None,625.097355943999,None,625.097355943999,None,c,1,0.82548679699903,626.6326120590002,None,626.6326120590002,None,626.6326120590002,None,627.5138588150003,None,627.5138588150003,None,627.5138588150003,None,627.5138588150003,None,,,,,,,,,,,,,,,,,,,,,,,,,,,,,,,,,,,,,,,,,,,,001,65,2020_Feb_04_1355,spring_faces,3.1.5,60.00911142339702,
condition files/Stage1_2.xlsx,,T4,B4,m,"['c', 'm']","['Clue', 'Monopoly']","[-0.15, 0.5]","[0.15, 0.5]",1,1,,,,,,,,,0,7,7,7,0,2,2,7,,,,,,,,,,,,,,,,,,,,,,,,,,,,,,,,,,,,,,,,,,,,,,,,,,,,,,,629.4806264870003,None,629.4806264870003,None,629.4806264870003,None,m,1,0.8599979749997146,631.0301071939994,None,631.0301071939994,None,631.0301071939994,None,631.9641544059996,None,631.9641544059996,None,631.9641544059996,None,631.9641544059996,None,,,,,,,,,,,,,,,,,,,,,,,,,,,,,,,,,,,,,,,,,,,,001,65,2020_Feb_04_1355,spring_faces,3.1.5,60.00911142339702,
condition files/Stage1_2.xlsx,,T1,B2,m,"['c', 'm']","['Clue', 'Monopoly']","[-0.15, 0.5]","[0.15, 0.5]",1,1,,,,,,,,,0,7,7,7,0,3,3,2,,,,,,,,,,,,,,,,,,,,,,,,,,,,,,,,,,,,,,,,,,,,,,,,,,,,,,,633.9135668109993,None,633.9135668109993,None,633.9135668109993,None,c,0,1.338412255001458,635.4476206159998,None,635.4476206159998,None,635.4476206159998,None,636.8470387969992,None,636.8470387969992,None,636.8470387969992,None,636.8470387969992,None,,,,,,,,,,,,,,,,,,,,,,,,,,,,,,,,,,,,,,,,,,,,001,65,2020_Feb_04_1355,spring_faces,3.1.5,60.00911142339702,
condition files/Stage1_2.xlsx,,B4,T3,c,"['c', 'm']","['Clue', 'Monopoly']","[-0.15, 0.5]","[0.15, 0.5]",1,1,,,,,,,,,0,7,7,7,0,4,4,5,,,,,,,,,,,,,,,,,,,,,,,,,,,,,,,,,,,,,,,,,,,,,,,,,,,,,,,638.813855204,None,638.813855204,None,638.813855204,None,c,1,0.9187938260001829,640.3472333720001,None,640.3472333720001,None,640.3472333720001,None,641.3308762739998,None,641.3308762739998,None,641.3308762739998,None,641.3308762739998,None,,,,,,,,,,,,,,,,,,,,,,,,,,,,,,,,,,,,,,,,,,,,001,65,2020_Feb_04_1355,spring_faces,3.1.5,60.00911142339702,
condition files/Stage1_2.xlsx,,B1,T1,c,"['c', 'm']","['Clue', 'Monopoly']","[-0.15, 0.5]","[0.15, 0.5]",1,1,,,,,,,,,0,7,7,7,0,5,5,0,,,,,,,,,,,,,,,,,,,,,,,,,,,,,,,,,,,,,,,,,,,,,,,,,,,,,,,643.2970622550001,None,643.2970622550001,None,643.2970622550001,None,c,1,0.8172449000012421,644.8327894939994,None,644.8327894939994,None,644.8327894939994,None,645.71411162,None,645.71411162,None,645.71411162,None,645.71411162,None,,,,,,,,,,,,,,,,,,,,,,,,,,,,,,,,,,,,,,,,,,,,001,65,2020_Feb_04_1355,spring_faces,3.1.5,60.00911142339702,
condition files/Stage1_2.xlsx,,B3,T4,m,"['c', 'm']","['Clue', 'Monopoly']","[-0.15, 0.5]","[0.15, 0.5]",1,1,,,,,,,,,0,7,7,7,0,6,6,6,,,,,,,,,,,,,,,,,,,,,,,,,,,,,,,,,,,,,,,,,,,,,,,,,,,,,,,647.6806629909988,None,647.6806629909988,None,647.6806629909988,None,m,1,0.7552381050008989,649.2307972149993,None,649.2307972149993,None,649.2307972149993,None,650.0466819659996,None,650.0466819659996,None,650.0466819659996,None,650.0466819659996,None,,,,,,,,,,,,,,,,,,,,,,,,,,,,,,,,,,,,,,,,,,,,001,65,2020_Feb_04_1355,spring_faces,3.1.5,60.00911142339702,
condition files/Stage1_2.xlsx,,T3,B3,c,"['c', 'm']","['Clue', 'Monopoly']","[-0.15, 0.5]","[0.15, 0.5]",1,1,,,,,,,,,0,7,7,7,0,7,7,4,,,,,,,,,,,,,,,,,,,,,,,,,,,,,,,,,,,,,,,,,,,,,,,,,,,,,,,652.0138791270001,None,652.0138791270001,None,652.0138791270001,None,c,1,0.6947710290005489,653.5472434370004,None,653.5472434370004,None,653.5472434370004,None,654.2982782580002,None,654.2982782580002,None,654.2982782580002,None,654.2982782580002,None,,,,,,,,,,,,,,,,,,,,,,,,,,,,,,,,,,,,,,,,,,,,001,65,2020_Feb_04_1355,spring_faces,3.1.5,60.00911142339702,
condition files/Stage1_1.xlsx,,T3,B4,c,"['c', 'm']","['Clue', 'Monopoly']","[-0.15, 0.5]","[0.15, 0.5]",1,1,,,,,,,,,0,8,8,8,0,0,0,5,,,,,,,,,,,,,,,,,,,,,,,,,,,,,,,,,,,,,,,,,,,,,,,,,,,,,,,656.2813875849988,None,656.2813875849988,None,656.2813875849988,None,c,1,0.6197064389998559,657.8303062729992,None,657.8303062729992,None,657.8303062729992,None,658.5133970489987,None,658.5133970489987,None,658.5133970489987,None,658.5133970489987,None,,,,,,,,,,,,,,,,,,,,,,,,,,,,,,,,,,,,,,,,,,,,001,65,2020_Feb_04_1355,spring_faces,3.1.5,60.00911142339702,
condition files/Stage1_1.xlsx,,B2,T1,m,"['c', 'm']","['Clue', 'Monopoly']","[-0.15, 0.5]","[0.15, 0.5]",1,1,,,,,,,,,0,8,8,8,0,1,1,2,,,,,,,,,,,,,,,,,,,,,,,,,,,,,,,,,,,,,,,,,,,,,,,,,,,,,,,660.4802038599992,None,660.4802038599992,None,660.4802038599992,None,m,1,1.3797934630001691,662.0142330399995,None,662.0142330399995,None,662.0142330399995,None,663.4471686159995,None,663.4471686159995,None,663.4471686159995,None,663.4471686159995,None,,,,,,,,,,,,,,,,,,,,,,,,,,,,,,,,,,,,,,,,,,,,001,65,2020_Feb_04_1355,spring_faces,3.1.5,60.00911142339702,
condition files/Stage1_1.xlsx,,T4,B3,m,"['c', 'm']","['Clue', 'Monopoly']","[-0.15, 0.5]","[0.15, 0.5]",1,1,,,,,,,,,0,8,8,8,0,2,2,6,,,,,,,,,,,,,,,,,,,,,,,,,,,,,,,,,,,,,,,,,,,,,,,,,,,,,,,665.413247213999,None,665.413247213999,None,665.413247213999,None,m,1,0.7194206280000799,666.9465932619987,None,666.9465932619987,None,666.9465932619987,None,667.7310678920003,None,667.7310678920003,None,667.7310678920003,None,667.7310678920003,None,,,,,,,,,,,,,,,,,,,,,,,,,,,,,,,,,,,,,,,,,,,,001,65,2020_Feb_04_1355,spring_faces,3.1.5,60.00911142339702,
condition files/Stage1_1.xlsx,,B1,T2,c,"['c', 'm']","['Clue', 'Monopoly']","[-0.15, 0.5]","[0.15, 0.5]",1,1,,,,,,,,,0,8,8,8,0,3,3,1,,,,,,,,,,,,,,,,,,,,,,,,,,,,,,,,,,,,,,,,,,,,,,,,,,,,,,,669.6974273469987,None,669.6974273469987,None,669.6974273469987,None,c,1,0.7211576129993773,671.232939784999,None,671.232939784999,None,671.232939784999,None,672.0305501989988,None,672.0305501989988,None,672.0305501989988,None,672.0305501989988,None,,,,,,,,,,,,,,,,,,,,,,,,,,,,,,,,,,,,,,,,,,,,001,65,2020_Feb_04_1355,spring_faces,3.1.5,60.00911142339702,
condition files/Stage1_1.xlsx,,T2,B2,m,"['c', 'm']","['Clue', 'Monopoly']","[-0.15, 0.5]","[0.15, 0.5]",1,1,,,,,,,,,0,8,8,8,0,4,4,3,,,,,,,,,,,,,,,,,,,,,,,,,,,,,,,,,,,,,,,,,,,,,,,,,,,,,,,673.9805741969994,None,673.9805741969994,None,673.9805741969994,None,m,1,1.0303704409998318,675.5156488529992,None,675.5156488529992,None,675.5156488529992,None,676.6141798989993,None,676.6141798989993,None,676.6141798989993,None,676.6141798989993,None,,,,,,,,,,,,,,,,,,,,,,,,,,,,,,,,,,,,,,,,,,,,001,65,2020_Feb_04_1355,spring_faces,3.1.5,60.00911142339702,
condition files/Stage1_1.xlsx,,B4,T4,m,"['c', 'm']","['Clue', 'Monopoly']","[-0.15, 0.5]","[0.15, 0.5]",1,1,,,,,,,,,0,8,8,8,0,5,5,7,,,,,,,,,,,,,,,,,,,,,,,,,,,,,,,,,,,,,,,,,,,,,,,,,,,,,,,678.5639387989995,None,678.5639387989995,None,678.5639387989995,None,m,1,0.5925140389990702,680.1135743060004,None,680.1135743060004,None,680.1135743060004,None,680.7641841639997,None,680.7641841639997,None,680.7641841639997,None,680.7641841639997,None,,,,,,,,,,,,,,,,,,,,,,,,,,,,,,,,,,,,,,,,,,,,001,65,2020_Feb_04_1355,spring_faces,3.1.5,60.00911142339702,
condition files/Stage1_1.xlsx,,T1,B1,c,"['c', 'm']","['Clue', 'Monopoly']","[-0.15, 0.5]","[0.15, 0.5]",1,1,,,,,,,,,0,8,8,8,0,6,6,0,,,,,,,,,,,,,,,,,,,,,,,,,,,,,,,,,,,,,,,,,,,,,,,,,,,,,,,682.7306172320004,None,682.7306172320004,None,682.7306172320004,None,m,0,0.6817026539993094,684.2802953739993,None,684.2802953739993,None,684.2802953739993,None,685.0158922659994,None,685.0158922659994,None,685.0158922659994,None,685.0158922659994,None,,,,,,,,,,,,,,,,,,,,,,,,,,,,,,,,,,,,,,,,,,,,001,65,2020_Feb_04_1355,spring_faces,3.1.5,60.00911142339702,
condition files/Stage1_1.xlsx,,B3,T3,c,"['c', 'm']","['Clue', 'Monopoly']","[-0.15, 0.5]","[0.15, 0.5]",1,1,,,,,,,,,0,8,8,8,0,7,7,4,,,,,,,,,,,,,,,,,,,,,,,,,,,,,,,,,,,,,,,,,,,,,,,,,,,,,,,686.9804124860002,None,686.9804124860002,None,686.9804124860002,None,c,1,0.6071328569996695,688.5309386219997,None,688.5309386219997,None,688.5309386219997,None,689.197552226,None,689.197552226,None,689.197552226,None,689.197552226,None,,,,,,,,,,,,,,,,,,,,,,,,,,,,,,,,,,,,,,,,,,,,001,65,2020_Feb_04_1355,spring_faces,3.1.5,60.00911142339702,
condition files/Stage1_2.xlsx,,B4,T3,c,"['c', 'm']","['Clue', 'Monopoly']","[-0.15, 0.5]","[0.15, 0.5]",1,1,,,,,,,,,0,9,9,9,0,0,0,5,,,,,,,,,,,,,,,,,,,,,,,,,,,,,,,,,,,,,,,,,,,,,,,,,,,,,,,691.1810367620001,None,691.1810367620001,None,691.1810367620001,None,c,1,0.6455225240006257,692.7165040609998,None,692.7165040609998,None,692.7165040609998,None,693.4137993570002,None,693.4137993570002,None,693.4137993570002,None,693.4137993570002,None,,,,,,,,,,,,,,,,,,,,,,,,,,,,,,,,,,,,,,,,,,,,001,65,2020_Feb_04_1355,spring_faces,3.1.5,60.00911142339702,
condition files/Stage1_2.xlsx,,T4,B4,m,"['c', 'm']","['Clue', 'Monopoly']","[-0.15, 0.5]","[0.15, 0.5]",1,1,,,,,,,,,0,9,9,9,0,1,1,7,,,,,,,,,,,,,,,,,,,,,,,,,,,,,,,,,,,,,,,,,,,,,,,,,,,,,,,695.3799915950003,None,695.3799915950003,None,695.3799915950003,None,m,1,0.911235872999896,696.930726266999,None,696.930726266999,None,696.930726266999,None,697.9144533959989,None,697.9144533959989,None,697.9144533959989,None,697.9144533959989,None,,,,,,,,,,,,,,,,,,,,,,,,,,,,,,,,,,,,,,,,,,,,001,65,2020_Feb_04_1355,spring_faces,3.1.5,60.00911142339702,
condition files/Stage1_2.xlsx,,B2,T2,m,"['c', 'm']","['Clue', 'Monopoly']","[-0.15, 0.5]","[0.15, 0.5]",1,1,,,,,,,,,0,9,9,9,0,2,2,3,,,,,,,,,,,,,,,,,,,,,,,,,,,,,,,,,,,,,,,,,,,,,,,,,,,,,,,699.86370584,None,699.86370584,None,699.86370584,None,m,1,1.483769520000351,701.4141890789997,None,701.4141890789997,None,701.4141890789997,None,702.9640334269989,None,702.9640334269989,None,702.9640334269989,None,702.9640334269989,None,,,,,,,,,,,,,,,,,,,,,,,,,,,,,,,,,,,,,,,,,,,,001,65,2020_Feb_04_1355,spring_faces,3.1.5,60.00911142339702,
condition files/Stage1_2.xlsx,,T3,B3,c,"['c', 'm']","['Clue', 'Monopoly']","[-0.15, 0.5]","[0.15, 0.5]",1,1,,,,,,,,,0,9,9,9,0,3,3,4,,,,,,,,,,,,,,,,,,,,,,,,,,,,,,,,,,,,,,,,,,,,,,,,,,,,,,,704.9302496929995,None,704.9302496929995,None,704.9302496929995,None,c,1,0.7518693759993766,706.4661604939993,None,706.4661604939993,None,706.4661604939993,None,707.2819267249997,None,707.2819267249997,None,707.2819267249997,None,707.2819267249997,None,,,,,,,,,,,,,,,,,,,,,,,,,,,,,,,,,,,,,,,,,,,,001,65,2020_Feb_04_1355,spring_faces,3.1.5,60.00911142339702,
condition files/Stage1_2.xlsx,,T2,B1,c,"['c', 'm']","['Clue', 'Monopoly']","[-0.15, 0.5]","[0.15, 0.5]",1,1,,,,,,,,,0,9,9,9,0,4,4,1,,,,,,,,,,,,,,,,,,,,,,,,,,,,,,,,,,,,,,,,,,,,,,,,,,,,,,,709.2473716209988,None,709.2473716209988,None,709.2473716209988,None,m,0,0.8994990740011417,710.7824728639989,None,710.7824728639989,None,710.7824728639989,None,711.7475023480001,None,711.7475023480001,None,711.7475023480001,None,711.7475023480001,None,,,,,,,,,,,,,,,,,,,,,,,,,,,,,,,,,,,,,,,,,,,,001,65,2020_Feb_04_1355,spring_faces,3.1.5,60.00911142339702,
condition files/Stage1_2.xlsx,,T1,B2,m,"['c', 'm']","['Clue', 'Monopoly']","[-0.15, 0.5]","[0.15, 0.5]",1,1,,,,,,,,,0,9,9,9,0,5,5,2,,,,,,,,,,,,,,,,,,,,,,,,,,,,,,,,,,,,,,,,,,,,,,,,,,,,,,,713.7135834309993,None,713.7135834309993,None,713.7135834309993,None,m,1,1.330030736999106,715.2479816279993,None,715.2479816279993,None,715.2479816279993,None,716.6334716419988,None,716.6334716419988,None,716.6334716419988,None,716.6334716419988,None,,,,,,,,,,,,,,,,,,,,,,,,,,,,,,,,,,,,,,,,,,,,001,65,2020_Feb_04_1355,spring_faces,3.1.5,60.00911142339702,
condition files/Stage1_2.xlsx,,B1,T1,c,"['c', 'm']","['Clue', 'Monopoly']","[-0.15, 0.5]","[0.15, 0.5]",1,1,,,,,,,,,0,9,9,9,0,6,6,0,,,,,,,,,,,,,,,,,,,,,,,,,,,,,,,,,,,,,,,,,,,,,,,,,,,,,,,718.5971008649994,None,718.5971008649994,None,718.5971008649994,None,c,1,0.8948934540003393,720.1311349759999,None,720.1311349759999,None,720.1311349759999,None,721.0805362079991,None,721.0805362079991,None,721.0805362079991,None,721.0805362079991,None,,,,,,,,,,,,,,,,,,,,,,,,,,,,,,,,,,,,,,,,,,,,001,65,2020_Feb_04_1355,spring_faces,3.1.5,60.00911142339702,
condition files/Stage1_2.xlsx,,B3,T4,m,"['c', 'm']","['Clue', 'Monopoly']","[-0.15, 0.5]","[0.15, 0.5]",1,1,,,,,,,,,0,9,9,9,0,7,7,6,,,,,,,,,,,,,,,,,,,,,,,,,,,,,,,,,,,,,,,,,,,,,,,,,,,,,,,723.047180824,None,723.047180824,None,723.047180824,None,m,1,0.5245933099995455,724.597467091,None,724.597467091,None,724.597467091,None,725.1800227900003,None,725.1800227900003,None,725.1800227900003,None,725.1800227900003,None,,,,,,,,,,,,,,,,,,,,,,,,,,,,,,,,,,,,,,,,,,,,001,65,2020_Feb_04_1355,spring_faces,3.1.5,60.00911142339702,
condition files/Stage1_1.xlsx,,T1,B1,c,"['c', 'm']","['Clue', 'Monopoly']","[-0.15, 0.5]","[0.15, 0.5]",1,1,,,,,,,,,0,10,10,10,0,0,0,0,,,,,,,,,,,,,,,,,,,,,,,,,,,,,,,,,,,,,,,,,,,,,,,,,,,,,,,727.1639686149992,None,727.1639686149992,None,727.1639686149992,None,c,1,1.2875375009989511,728.6985048019997,None,728.6985048019997,None,728.6985048019997,None,730.0500439749994,None,730.0500439749994,None,730.0500439749994,None,730.0500439749994,None,,,,,,,,,,,,,,,,,,,,,,,,,,,,,,,,,,,,,,,,,,,,001,65,2020_Feb_04_1355,spring_faces,3.1.5,60.00911142339702,
condition files/Stage1_1.xlsx,,B4,T4,m,"['c', 'm']","['Clue', 'Monopoly']","[-0.15, 0.5]","[0.15, 0.5]",1,1,,,,,,,,,0,10,10,10,0,1,1,7,,,,,,,,,,,,,,,,,,,,,,,,,,,,,,,,,,,,,,,,,,,,,,,,,,,,,,,732.0139101989989,None,732.0139101989989,None,732.0139101989989,None,m,1,0.9016034970009059,733.5484179039995,None,733.5484179039995,None,733.5484179039995,None,734.5145036599988,None,734.5145036599988,None,734.5145036599988,None,734.5145036599988,None,,,,,,,,,,,,,,,,,,,,,,,,,,,,,,,,,,,,,,,,,,,,001,65,2020_Feb_04_1355,spring_faces,3.1.5,60.00911142339702,
condition files/Stage1_1.xlsx,,B3,T3,c,"['c', 'm']","['Clue', 'Monopoly']","[-0.15, 0.5]","[0.15, 0.5]",1,1,,,,,,,,,0,10,10,10,0,2,2,4,,,,,,,,,,,,,,,,,,,,,,,,,,,,,,,,,,,,,,,,,,,,,,,,,,,,,,,736.4805148340001,None,736.4805148340001,None,736.4805148340001,None,c,1,0.6415439739994326,738.0165474409987,None,738.0165474409987,None,738.0165474409987,None,738.7305629900002,None,738.7305629900002,None,738.7305629900002,None,738.7305629900002,None,,,,,,,,,,,,,,,,,,,,,,,,,,,,,,,,,,,,,,,,,,,,001,65,2020_Feb_04_1355,spring_faces,3.1.5,60.00911142339702,
condition files/Stage1_1.xlsx,,T3,B4,c,"['c', 'm']","['Clue', 'Monopoly']","[-0.15, 0.5]","[0.15, 0.5]",1,1,,,,,,,,,0,10,10,10,0,3,3,5,,,,,,,,,,,,,,,,,,,,,,,,,,,,,,,,,,,,,,,,,,,,,,,,,,,,,,,740.6800437410002,None,740.6800437410002,None,740.6800437410002,None,c,1,0.8112486050013104,742.2307290600002,None,742.2307290600002,None,742.2307290600002,None,743.097089679999,None,743.097089679999,None,743.097089679999,None,743.097089679999,None,,,,,,,,,,,,,,,,,,,,,,,,,,,,,,,,,,,,,,,,,,,,001,65,2020_Feb_04_1355,spring_faces,3.1.5,60.00911142339702,
condition files/Stage1_1.xlsx,,B1,T2,c,"['c', 'm']","['Clue', 'Monopoly']","[-0.15, 0.5]","[0.15, 0.5]",1,1,,,,,,,,,0,10,10,10,0,4,4,1,,,,,,,,,,,,,,,,,,,,,,,,,,,,,,,,,,,,,,,,,,,,,,,,,,,,,,,745.0634716269997,None,745.0634716269997,None,745.0634716269997,None,c,1,0.714394088001427,746.599627145999,None,746.599627145999,None,746.599627145999,None,747.3645719819997,None,747.3645719819997,None,747.3645719819997,None,747.3645719819997,None,,,,,,,,,,,,,,,,,,,,,,,,,,,,,,,,,,,,,,,,,,,,001,65,2020_Feb_04_1355,spring_faces,3.1.5,60.00911142339702,
condition files/Stage1_1.xlsx,,T2,B2,m,"['c', 'm']","['Clue', 'Monopoly']","[-0.15, 0.5]","[0.15, 0.5]",1,1,,,,,,,,,0,10,10,10,0,5,5,3,,,,,,,,,,,,,,,,,,,,,,,,,,,,,,,,,,,,,,,,,,,,,,,,,,,,,,,749.33057061,None,749.33057061,None,749.33057061,None,m,1,0.8012209809985507,750.8807436039988,None,750.8807436039988,None,750.8807436039988,None,751.7477537269988,None,751.7477537269988,None,751.7477537269988,None,751.7477537269988,None,,,,,,,,,,,,,,,,,,,,,,,,,,,,,,,,,,,,,,,,,,,,001,65,2020_Feb_04_1355,spring_faces,3.1.5,60.00911142339702,
condition files/Stage1_1.xlsx,,T4,B3,m,"['c', 'm']","['Clue', 'Monopoly']","[-0.15, 0.5]","[0.15, 0.5]",1,1,,,,,,,,,0,10,10,10,0,6,6,6,,,,,,,,,,,,,,,,,,,,,,,,,,,,,,,,,,,,,,,,,,,,,,,,,,,,,,,753.7141476359993,None,753.7141476359993,None,753.7141476359993,None,m,1,0.6111682240007212,755.2469359529987,None,755.2469359529987,None,755.2469359529987,None,755.9142327219997,None,755.9142327219997,None,755.9142327219997,None,755.9142327219997,None,,,,,,,,,,,,,,,,,,,,,,,,,,,,,,,,,,,,,,,,,,,,001,65,2020_Feb_04_1355,spring_faces,3.1.5,60.00911142339702,
condition files/Stage1_1.xlsx,,B2,T1,m,"['c', 'm']","['Clue', 'Monopoly']","[-0.15, 0.5]","[0.15, 0.5]",1,1,,,,,,,,,0,10,10,10,0,7,7,2,,,,,,,,,,,,,,,,,,,,,,,,,,,,,,,,,,,,,,,,,,,,,,,,,,,,,,,757.8809611599991,None,757.8809611599991,None,757.8809611599991,None,m,1,1.388194619999922,759.413829264,None,759.413829264,None,759.413829264,None,760.8642539789998,None,760.8642539789998,None,760.8642539789998,None,760.8642539789998,None,,,,,,,,,,,,,,,,,,,,,,,,,,,,,,,,,,,,,,,,,,,,001,65,2020_Feb_04_1355,spring_faces,3.1.5,60.00911142339702,
condition files/Stage1_2.xlsx,,T2,B1,c,"['c', 'm']","['Clue', 'Monopoly']","[-0.15, 0.5]","[0.15, 0.5]",1,1,,,,,,,,,0,11,11,11,0,0,0,1,,,,,,,,,,,,,,,,,,,,,,,,,,,,,,,,,,,,,,,,,,,,,,,,,,,,,,,762.8476563269996,None,762.8476563269996,None,762.8476563269996,None,c,1,0.6749381059998996,764.3831578810004,None,764.3831578810004,None,764.3831578810004,None,765.1166633159992,None,765.1166633159992,None,765.1166633159992,None,765.1166633159992,None,,,,,,,,,,,,,,,,,,,,,,,,,,,,,,,,,,,,,,,,,,,,001,65,2020_Feb_04_1355,spring_faces,3.1.5,60.00911142339702,
condition files/Stage1_2.xlsx,,B2,T2,m,"['c', 'm']","['Clue', 'Monopoly']","[-0.15, 0.5]","[0.15, 0.5]",1,1,,,,,,,,,0,11,11,11,0,1,1,3,,,,,,,,,,,,,,,,,,,,,,,,,,,,,,,,,,,,,,,,,,,,,,,,,,,,,,,767.0797626589992,None,767.0797626589992,None,767.0797626589992,None,m,1,0.6976263020005717,768.6163811289989,None,768.6163811289989,None,768.6163811289989,None,769.3808640579991,None,769.3808640579991,None,769.3808640579991,None,769.3808640579991,None,,,,,,,,,,,,,,,,,,,,,,,,,,,,,,,,,,,,,,,,,,,,001,65,2020_Feb_04_1355,spring_faces,3.1.5,60.00911142339702,
condition files/Stage1_2.xlsx,,B3,T4,m,"['c', 'm']","['Clue', 'Monopoly']","[-0.15, 0.5]","[0.15, 0.5]",1,1,,,,,,,,,0,11,11,11,0,2,2,6,,,,,,,,,,,,,,,,,,,,,,,,,,,,,,,,,,,,,,,,,,,,,,,,,,,,,,,771.3306151199995,None,771.3306151199995,None,771.3306151199995,None,m,1,0.6252402940008324,772.8808352399992,None,772.8808352399992,None,772.8808352399992,None,773.5635296689998,None,773.5635296689998,None,773.5635296689998,None,773.5635296689998,None,,,,,,,,,,,,,,,,,,,,,,,,,,,,,,,,,,,,,,,,,,,,001,65,2020_Feb_04_1355,spring_faces,3.1.5,60.00911142339702,
condition files/Stage1_2.xlsx,,B4,T3,c,"['c', 'm']","['Clue', 'Monopoly']","[-0.15, 0.5]","[0.15, 0.5]",1,1,,,,,,,,,0,11,11,11,0,3,3,5,,,,,,,,,,,,,,,,,,,,,,,,,,,,,,,,,,,,,,,,,,,,,,,,,,,,,,,775.5300565599991,None,775.5300565599991,None,775.5300565599991,None,c,1,0.6319052939998073,777.0660670420002,None,777.0660670420002,None,777.0660670420002,None,777.7635419790004,None,777.7635419790004,None,777.7635419790004,None,777.7635419790004,None,,,,,,,,,,,,,,,,,,,,,,,,,,,,,,,,,,,,,,,,,,,,001,65,2020_Feb_04_1355,spring_faces,3.1.5,60.00911142339702,
condition files/Stage1_2.xlsx,,T3,B3,c,"['c', 'm']","['Clue', 'Monopoly']","[-0.15, 0.5]","[0.15, 0.5]",1,1,,,,,,,,,0,11,11,11,0,4,4,4,,,,,,,,,,,,,,,,,,,,,,,,,,,,,,,,,,,,,,,,,,,,,,,,,,,,,,,779.7307954869993,None,779.7307954869993,None,779.7307954869993,None,c,1,0.5137883950010291,781.2642197459991,None,781.2642197459991,None,781.2642197459991,None,781.8308950769988,None,781.8308950769988,None,781.8308950769988,None,781.8308950769988,None,,,,,,,,,,,,,,,,,,,,,,,,,,,,,,,,,,,,,,,,,,,,001,65,2020_Feb_04_1355,spring_faces,3.1.5,60.00911142339702,
condition files/Stage1_2.xlsx,,T4,B4,m,"['c', 'm']","['Clue', 'Monopoly']","[-0.15, 0.5]","[0.15, 0.5]",1,1,,,,,,,,,0,11,11,11,0,5,5,7,,,,,,,,,,,,,,,,,,,,,,,,,,,,,,,,,,,,,,,,,,,,,,,,,,,,,,,783.79723328,None,783.79723328,None,783.79723328,None,m,1,0.7343488879996585,785.3316777359996,None,785.3316777359996,None,785.3316777359996,None,786.1336470489987,None,786.1336470489987,None,786.1336470489987,None,786.1336470489987,None,,,,,,,,,,,,,,,,,,,,,,,,,,,,,,,,,,,,,,,,,,,,001,65,2020_Feb_04_1355,spring_faces,3.1.5,60.00911142339702,
condition files/Stage1_2.xlsx,,B1,T1,c,"['c', 'm']","['Clue', 'Monopoly']","[-0.15, 0.5]","[0.15, 0.5]",1,1,,,,,,,,,0,11,11,11,0,6,6,0,,,,,,,,,,,,,,,,,,,,,,,,,,,,,,,,,,,,,,,,,,,,,,,,,,,,,,,788.0971460379988,None,788.0971460379988,None,788.0971460379988,None,c,1,0.7558137110008829,789.6302143039993,None,789.6302143039993,None,789.6302143039993,None,790.4477341349993,None,790.4477341349993,None,790.4477341349993,None,790.4477341349993,None,,,,,,,,,,,,,,,,,,,,,,,,,,,,,,,,,,,,,,,,,,,,001,65,2020_Feb_04_1355,spring_faces,3.1.5,60.00911142339702,
condition files/Stage1_2.xlsx,,T1,B2,m,"['c', 'm']","['Clue', 'Monopoly']","[-0.15, 0.5]","[0.15, 0.5]",1,1,,,,,,,,,0,11,11,11,0,7,7,2,,,,,,,,,,,,,,,,,,,,,,,,,,,,,,,,,,,,,,,,,,,,,,,,,,,,,,,792.4136632099999,None,792.4136632099999,None,792.4136632099999,None,m,1,0.8858055009986856,793.9482315819987,None,793.9482315819987,None,793.9482315819987,None,794.8993486359996,None,794.8993486359996,None,794.8993486359996,None,794.8993486359996,None,,,,,,,,,,,,,,,,,,,,,,,,,,,,,,,,,,,,,,,,,,,,001,65,2020_Feb_04_1355,spring_faces,3.1.5,60.00911142339702,
,,,,,,,,,,,,,,,,,,,,,,,,,,,,,,,,,,,,,,,,,,,,,,,,,,,,,,,,,,,,,,,,,,,,,,,,,,,,,,,,,,,,,,,,,,,,,,,,,,,,,,,,,,,,,,,,796.8806789480004,None,space,4.665524159001507,801.8805069009995,None,,,,,,,,,,,,,,,,,,,,,,,,,,,,,,001,65,2020_Feb_04_1355,spring_faces,3.1.5,60.00911142339702,
condition files/Stage2_1.xlsx,,T1,B1,s,"['s', 'r']","['Stratego', 'Risk']","[-0.15, 0.5]","[0.15, 0.5]",1,1,,,,,,,,,,,,,,,,,0,0,0,0,0,0,0,2,,,,,,,,,,,,,,,,,,,,,,,,,,,,,,,,,,,,,,,,,,,,,,,806.5968805840002,None,806.5968805840002,None,806.5968805840002,None,r,0,1.3258144490009727,808.116230476,None,808.116230476,None,808.116230476,None,809.5140889060003,None,809.5140889060003,None,809.5140889060003,None,809.5140889060003,None,,,,,,,,,,,,,,,801.8805069009995,None,,,,,,,,,,,,,,,,,,,,,,,,,,,,001,65,2020_Feb_04_1355,spring_faces,3.1.5,60.00911142339702,
condition files/Stage2_1.xlsx,,B4,T4,r,"['s', 'r']","['Stratego', 'Risk']","[-0.15, 0.5]","[0.15, 0.5]",1,1,,,,,,,,,,,,,,,,,0,0,0,0,0,1,1,5,,,,,,,,,,,,,,,,,,,,,,,,,,,,,,,,,,,,,,,,,,,,,,,811.4630610069999,None,811.4630610069999,None,811.4630610069999,None,s,0,0.5399173719997634,813.0141362529994,None,813.0141362529994,None,813.0141362529994,None,813.6157130889987,None,813.6157130889987,None,813.6157130889987,None,813.6157130889987,None,,,,,,,,,,,,,,,,,,,,,,,,,,,,,,,,,,,,,,,,,,,,001,65,2020_Feb_04_1355,spring_faces,3.1.5,60.00911142339702,
condition files/Stage2_1.xlsx,,B6,T6,r,"['s', 'r']","['Stratego', 'Risk']","[-0.15, 0.5]","[0.15, 0.5]",1,1,,,,,,,,,,,,,,,,,0,0,0,0,0,2,2,1,,,,,,,,,,,,,,,,,,,,,,,,,,,,,,,,,,,,,,,,,,,,,,,815.5804849460001,None,815.5804849460001,None,815.5804849460001,None,r,1,0.7890602009993017,817.1969591429988,None,817.1969591429988,None,817.1969591429988,None,818.0471461090001,None,818.0471461090001,None,818.0471461090001,None,818.0471461090001,None,,,,,,,,,,,,,,,,,,,,,,,,,,,,,,,,,,,,,,,,,,,,001,65,2020_Feb_04_1355,spring_faces,3.1.5,60.00911142339702,
condition files/Stage2_1.xlsx,,T3,B3,s,"['s', 'r']","['Stratego', 'Risk']","[-0.15, 0.5]","[0.15, 0.5]",1,1,,,,,,,,,,,,,,,,,0,0,0,0,0,3,3,4,,,,,,,,,,,,,,,,,,,,,,,,,,,,,,,,,,,,,,,,,,,,,,,820.0135573339994,None,820.0135573339994,None,820.0135573339994,None,s,1,0.9179350750000594,821.5640432709988,None,821.5640432709988,None,821.5640432709988,None,822.5494774519993,None,822.5494774519993,None,822.5494774519993,None,822.5494774519993,None,,,,,,,,,,,,,,,,,,,,,,,,,,,,,,,,,,,,,,,,,,,,001,65,2020_Feb_04_1355,spring_faces,3.1.5,60.00911142339702,
condition files/Stage2_1.xlsx,,B2,T2,r,"['s', 'r']","['Stratego', 'Risk']","[-0.15, 0.5]","[0.15, 0.5]",1,1,,,,,,,,,,,,,,,,,0,0,0,0,0,4,4,3,,,,,,,,,,,,,,,,,,,,,,,,,,,,,,,,,,,,,,,,,,,,,,,824.5137439669998,None,824.5137439669998,None,824.5137439669998,None,r,1,0.6576541979993635,826.0484265300001,None,826.0484265300001,None,826.0484265300001,None,826.7807300579989,None,826.7807300579989,None,826.7807300579989,None,826.7807300579989,None,,,,,,,,,,,,,,,,,,,,,,,,,,,,,,,,,,,,,,,,,,,,001,65,2020_Feb_04_1355,spring_faces,3.1.5,60.00911142339702,
condition files/Stage2_1.xlsx,,T5,B5,s,"['s', 'r']","['Stratego', 'Risk']","[-0.15, 0.5]","[0.15, 0.5]",1,1,,,,,,,,,,,,,,,,,0,0,0,0,0,5,5,0,,,,,,,,,,,,,,,,,,,,,,,,,,,,,,,,,,,,,,,,,,,,,,,828.7303021019998,None,828.7303021019998,None,828.7303021019998,None,r,0,1.0009637090006436,830.265057876999,None,830.265057876999,None,830.265057876999,None,831.3474192289996,None,831.3474192289996,None,831.3474192289996,None,831.3474192289996,None,,,,,,,,,,,,,,,,,,,,,,,,,,,,,,,,,,,,,,,,,,,,001,65,2020_Feb_04_1355,spring_faces,3.1.5,60.00911142339702,
condition files/Stage2_2.xlsx,,T4,B4,r,"['s', 'r']","['Stratego', 'Risk']","[-0.15, 0.5]","[0.15, 0.5]",1,1,,,,,,,,,,,,,,,,,0,1,1,1,0,0,0,5,,,,,,,,,,,,,,,,,,,,,,,,,,,,,,,,,,,,,,,,,,,,,,,833.3143710509994,None,833.3143710509994,None,833.3143710509994,None,r,1,1.0739557850010897,834.8641233159997,None,834.8641233159997,None,834.8641233159997,None,835.9981652299994,None,835.9981652299994,None,835.9981652299994,None,835.9981652299994,None,,,,,,,,,,,,,,,,,,,,,,,,,,,,,,,,,,,,,,,,,,,,001,65,2020_Feb_04_1355,spring_faces,3.1.5,60.00911142339702,
condition files/Stage2_2.xlsx,,T6,B6,r,"['s', 'r']","['Stratego', 'Risk']","[-0.15, 0.5]","[0.15, 0.5]",1,1,,,,,,,,,,,,,,,,,0,1,1,1,0,1,1,1,,,,,,,,,,,,,,,,,,,,,,,,,,,,,,,,,,,,,,,,,,,,,,,837.9638800140001,None,837.9638800140001,None,837.9638800140001,None,s,0,1.2710946730003343,839.498948335,None,839.498948335,None,839.498948335,None,840.8306462019991,None,840.8306462019991,None,840.8306462019991,None,840.8306462019991,None,,,,,,,,,,,,,,,,,,,,,,,,,,,,,,,,,,,,,,,,,,,,001,65,2020_Feb_04_1355,spring_faces,3.1.5,60.00911142339702,
condition files/Stage2_2.xlsx,,B1,T1,s,"['s', 'r']","['Stratego', 'Risk']","[-0.15, 0.5]","[0.15, 0.5]",1,1,,,,,,,,,,,,,,,,,0,1,1,1,0,2,2,2,,,,,,,,,,,,,,,,,,,,,,,,,,,,,,,,,,,,,,,,,,,,,,,842.7973079389994,None,842.7973079389994,None,842.7973079389994,None,s,1,1.3986158730003808,844.3473881190002,None,844.3473881190002,None,844.3473881190002,None,845.8141001860004,None,845.8141001860004,None,845.8141001860004,None,845.8141001860004,None,,,,,,,,,,,,,,,,,,,,,,,,,,,,,,,,,,,,,,,,,,,,001,65,2020_Feb_04_1355,spring_faces,3.1.5,60.00911142339702,
condition files/Stage2_2.xlsx,,T2,B2,r,"['s', 'r']","['Stratego', 'Risk']","[-0.15, 0.5]","[0.15, 0.5]",1,1,,,,,,,,,,,,,,,,,0,1,1,1,0,3,3,3,,,,,,,,,,,,,,,,,,,,,,,,,,,,,,,,,,,,,,,,,,,,,,,847.7637160049999,None,847.7637160049999,None,847.7637160049999,None,r,1,1.1192843640001229,849.2987509719987,None,849.2987509719987,None,849.2987509719987,None,850.4803173019991,None,850.4803173019991,None,850.4803173019991,None,850.4803173019991,None,,,,,,,,,,,,,,,,,,,,,,,,,,,,,,,,,,,,,,,,,,,,001,65,2020_Feb_04_1355,spring_faces,3.1.5,60.00911142339702,
condition files/Stage2_2.xlsx,,B5,T5,s,"['s', 'r']","['Stratego', 'Risk']","[-0.15, 0.5]","[0.15, 0.5]",1,1,,,,,,,,,,,,,,,,,0,1,1,1,0,4,4,0,,,,,,,,,,,,,,,,,,,,,,,,,,,,,,,,,,,,,,,,,,,,,,,852.4472429139987,None,852.4472429139987,None,852.4472429139987,None,s,1,1.5238978089982993,853.9821989339998,None,853.9821989339998,None,853.9821989339998,None,855.5656094459991,None,855.5656094459991,None,855.5656094459991,None,855.5656094459991,None,,,,,,,,,,,,,,,,,,,,,,,,,,,,,,,,,,,,,,,,,,,,001,65,2020_Feb_04_1355,spring_faces,3.1.5,60.00911142339702,
condition files/Stage2_2.xlsx,,B3,T3,s,"['s', 'r']","['Stratego', 'Risk']","[-0.15, 0.5]","[0.15, 0.5]",1,1,,,,,,,,,,,,,,,,,0,1,1,1,0,5,5,4,,,,,,,,,,,,,,,,,,,,,,,,,,,,,,,,,,,,,,,,,,,,,,,857.5305993509992,None,857.5305993509992,None,857.5305993509992,None,r,0,1.145818621998842,859.0801771039987,None,859.0801771039987,None,859.0801771039987,None,860.280840211999,None,860.280840211999,None,860.280840211999,None,860.280840211999,None,,,,,,,,,,,,,,,,,,,,,,,,,,,,,,,,,,,,,,,,,,,,001,65,2020_Feb_04_1355,spring_faces,3.1.5,60.00911142339702,
condition files/Stage2_1.xlsx,,B4,T4,r,"['s', 'r']","['Stratego', 'Risk']","[-0.15, 0.5]","[0.15, 0.5]",1,1,,,,,,,,,,,,,,,,,0,2,2,2,0,0,0,5,,,,,,,,,,,,,,,,,,,,,,,,,,,,,,,,,,,,,,,,,,,,,,,862.2639198689994,None,862.2639198689994,None,862.2639198689994,None,r,1,0.8442792170008033,863.813718505,None,863.813718505,None,863.813718505,None,864.7306735549992,None,864.7306735549992,None,864.7306735549992,None,864.7306735549992,None,,,,,,,,,,,,,,,,,,,,,,,,,,,,,,,,,,,,,,,,,,,,001,65,2020_Feb_04_1355,spring_faces,3.1.5,60.00911142339702,
condition files/Stage2_1.xlsx,,B6,T6,r,"['s', 'r']","['Stratego', 'Risk']","[-0.15, 0.5]","[0.15, 0.5]",1,1,,,,,,,,,,,,,,,,,0,2,2,2,0,1,1,1,,,,,,,,,,,,,,,,,,,,,,,,,,,,,,,,,,,,,,,,,,,,,,,866.6803800879989,None,866.6803800879989,None,866.6803800879989,None,s,0,0.8751884840003186,868.2149383449996,None,868.2149383449996,None,868.2149383449996,None,869.1477213889993,None,869.1477213889993,None,869.1477213889993,None,869.1477213889993,None,,,,,,,,,,,,,,,,,,,,,,,,,,,,,,,,,,,,,,,,,,,,001,65,2020_Feb_04_1355,spring_faces,3.1.5,60.00911142339702,
condition files/Stage2_1.xlsx,,T3,B3,s,"['s', 'r']","['Stratego', 'Risk']","[-0.15, 0.5]","[0.15, 0.5]",1,1,,,,,,,,,,,,,,,,,0,2,2,2,0,2,2,4,,,,,,,,,,,,,,,,,,,,,,,,,,,,,,,,,,,,,,,,,,,,,,,871.1139590330004,None,871.1139590330004,None,871.1139590330004,None,s,1,1.0802433869994275,872.6497823179998,None,872.6497823179998,None,872.6497823179998,None,873.7969529459988,None,873.7969529459988,None,873.7969529459988,None,873.7969529459988,None,,,,,,,,,,,,,,,,,,,,,,,,,,,,,,,,,,,,,,,,,,,,001,65,2020_Feb_04_1355,spring_faces,3.1.5,60.00911142339702,
condition files/Stage2_1.xlsx,,B2,T2,r,"['s', 'r']","['Stratego', 'Risk']","[-0.15, 0.5]","[0.15, 0.5]",1,1,,,,,,,,,,,,,,,,,0,2,2,2,0,3,3,3,,,,,,,,,,,,,,,,,,,,,,,,,,,,,,,,,,,,,,,,,,,,,,,875.747402125,None,875.747402125,None,875.747402125,None,r,1,1.0086053480008559,877.2974753229992,None,877.2974753229992,None,877.2974753229992,None,878.3641467279995,None,878.3641467279995,None,878.3641467279995,None,878.3641467279995,None,,,,,,,,,,,,,,,,,,,,,,,,,,,,,,,,,,,,,,,,,,,,001,65,2020_Feb_04_1355,spring_faces,3.1.5,60.00911142339702,
condition files/Stage2_1.xlsx,,T5,B5,s,"['s', 'r']","['Stratego', 'Risk']","[-0.15, 0.5]","[0.15, 0.5]",1,1,,,,,,,,,,,,,,,,,0,2,2,2,0,4,4,0,,,,,,,,,,,,,,,,,,,,,,,,,,,,,,,,,,,,,,,,,,,,,,,880.330201847999,None,880.330201847999,None,880.330201847999,None,s,1,0.905099813000561,881.8649983859996,None,881.8649983859996,None,881.8649983859996,None,882.8317272019995,None,882.8317272019995,None,882.8317272019995,None,882.8317272019995,None,,,,,,,,,,,,,,,,,,,,,,,,,,,,,,,,,,,,,,,,,,,,001,65,2020_Feb_04_1355,spring_faces,3.1.5,60.00911142339702,
condition files/Stage2_1.xlsx,,T1,B1,s,"['s', 'r']","['Stratego', 'Risk']","[-0.15, 0.5]","[0.15, 0.5]",1,1,,,,,,,,,,,,,,,,,0,2,2,2,0,5,5,2,,,,,,,,,,,,,,,,,,,,,,,,,,,,,,,,,,,,,,,,,,,,,,,884.7967054359997,None,884.7967054359997,None,884.7967054359997,None,s,1,1.1419167960011691,886.3321418079995,None,886.3321418079995,None,886.3321418079995,None,887.5303508300003,None,887.5303508300003,None,887.5303508300003,None,887.5303508300003,None,,,,,,,,,,,,,,,,,,,,,,,,,,,,,,,,,,,,,,,,,,,,001,65,2020_Feb_04_1355,spring_faces,3.1.5,60.00911142339702,
condition files/Stage2_2.xlsx,,B1,T1,s,"['s', 'r']","['Stratego', 'Risk']","[-0.15, 0.5]","[0.15, 0.5]",1,1,,,,,,,,,,,,,,,,,0,3,3,3,0,0,0,2,,,,,,,,,,,,,,,,,,,,,,,,,,,,,,,,,,,,,,,,,,,,,,,889.5137211519996,None,889.5137211519996,None,889.5137211519996,None,s,1,0.7454530469985912,891.0486984319996,None,891.0486984319996,None,891.0486984319996,None,891.847494873,None,891.847494873,None,891.847494873,None,891.847494873,None,,,,,,,,,,,,,,,,,,,,,,,,,,,,,,,,,,,,,,,,,,,,001,65,2020_Feb_04_1355,spring_faces,3.1.5,60.00911142339702,
condition files/Stage2_2.xlsx,,T2,B2,r,"['s', 'r']","['Stratego', 'Risk']","[-0.15, 0.5]","[0.15, 0.5]",1,1,,,,,,,,,,,,,,,,,0,3,3,3,0,1,1,3,,,,,,,,,,,,,,,,,,,,,,,,,,,,,,,,,,,,,,,,,,,,,,,893.8133428709989,None,893.8133428709989,None,893.8133428709989,None,r,1,1.0538673189985275,895.364090486999,None,895.364090486999,None,895.364090486999,None,896.4815266289988,None,896.4815266289988,None,896.4815266289988,None,896.4815266289988,None,,,,,,,,,,,,,,,,,,,,,,,,,,,,,,,,,,,,,,,,,,,,001,65,2020_Feb_04_1355,spring_faces,3.1.5,60.00911142339702,
condition files/Stage2_2.xlsx,,B3,T3,s,"['s', 'r']","['Stratego', 'Risk']","[-0.15, 0.5]","[0.15, 0.5]",1,1,,,,,,,,,,,,,,,,,0,3,3,3,0,2,2,4,,,,,,,,,,,,,,,,,,,,,,,,,,,,,,,,,,,,,,,,,,,,,,,898.4466600309988,None,898.4466600309988,None,898.4466600309988,None,s,1,0.8998932129998138,899.982075517999,None,899.982075517999,None,899.982075517999,None,900.9640146099991,None,900.9640146099991,None,900.9640146099991,None,900.9640146099991,None,,,,,,,,,,,,,,,,,,,,,,,,,,,,,,,,,,,,,,,,,,,,001,65,2020_Feb_04_1355,spring_faces,3.1.5,60.00911142339702,
condition files/Stage2_2.xlsx,,T4,B4,r,"['s', 'r']","['Stratego', 'Risk']","[-0.15, 0.5]","[0.15, 0.5]",1,1,,,,,,,,,,,,,,,,,0,3,3,3,0,3,3,5,,,,,,,,,,,,,,,,,,,,,,,,,,,,,,,,,,,,,,,,,,,,,,,902.9146275869989,None,902.9146275869989,None,902.9146275869989,None,r,1,1.105966458999319,904.4639955059993,None,904.4639955059993,None,904.4639955059993,None,905.6315592499996,None,905.6315592499996,None,905.6315592499996,None,905.6315592499996,None,,,,,,,,,,,,,,,,,,,,,,,,,,,,,,,,,,,,,,,,,,,,001,65,2020_Feb_04_1355,spring_faces,3.1.5,60.00911142339702,
condition files/Stage2_2.xlsx,,B5,T5,s,"['s', 'r']","['Stratego', 'Risk']","[-0.15, 0.5]","[0.15, 0.5]",1,1,,,,,,,,,,,,,,,,,0,3,3,3,0,4,4,0,,,,,,,,,,,,,,,,,,,,,,,,,,,,,,,,,,,,,,,,,,,,,,,907.5972686379992,None,907.5972686379992,None,907.5972686379992,None,s,1,1.2051200090008933,909.1329906049996,None,909.1329906049996,None,909.1329906049996,None,910.4004500219999,None,910.4004500219999,None,910.4004500219999,None,910.4004500219999,None,,,,,,,,,,,,,,,,,,,,,,,,,,,,,,,,,,,,,,,,,,,,001,65,2020_Feb_04_1355,spring_faces,3.1.5,60.00911142339702,
condition files/Stage2_2.xlsx,,T6,B6,r,"['s', 'r']","['Stratego', 'Risk']","[-0.15, 0.5]","[0.15, 0.5]",1,1,,,,,,,,,,,,,,,,,0,3,3,3,0,5,5,1,,,,,,,,,,,,,,,,,,,,,,,,,,,,,,,,,,,,,,,,,,,,,,,912.363662452999,None,912.363662452999,None,912.363662452999,None,r,1,1.3205318820000684,913.9134831859992,None,913.9134831859992,None,913.9134831859992,None,915.2981178649989,None,915.2981178649989,None,915.2981178649989,None,915.2981178649989,None,,,,,,,,,,,,,,,,,,,,,,,,,,,,,,,,,,,,,,,,,,,,001,65,2020_Feb_04_1355,spring_faces,3.1.5,60.00911142339702,
condition files/Stage2_1.xlsx,,T5,B5,s,"['s', 'r']","['Stratego', 'Risk']","[-0.15, 0.5]","[0.15, 0.5]",1,1,,,,,,,,,,,,,,,,,0,4,4,4,0,0,0,0,,,,,,,,,,,,,,,,,,,,,,,,,,,,,,,,,,,,,,,,,,,,,,,917.280295773,None,917.280295773,None,917.280295773,None,s,1,0.8821204690011655,918.8158865639998,None,918.8158865639998,None,918.8158865639998,None,919.7667673289998,None,919.7667673289998,None,919.7667673289998,None,919.7667673289998,None,,,,,,,,,,,,,,,,,,,,,,,,,,,,,,,,,,,,,,,,,,,,001,65,2020_Feb_04_1355,spring_faces,3.1.5,60.00911142339702,
condition files/Stage2_1.xlsx,,B4,T4,r,"['s', 'r']","['Stratego', 'Risk']","[-0.15, 0.5]","[0.15, 0.5]",1,1,,,,,,,,,,,,,,,,,0,4,4,4,0,1,1,5,,,,,,,,,,,,,,,,,,,,,,,,,,,,,,,,,,,,,,,,,,,,,,,921.7303686799987,None,921.7303686799987,None,921.7303686799987,None,r,1,1.057209282000258,923.2808663799988,None,923.2808663799988,None,923.2808663799988,None,924.3993054729999,None,924.3993054729999,None,924.3993054729999,None,924.3993054729999,None,,,,,,,,,,,,,,,,,,,,,,,,,,,,,,,,,,,,,,,,,,,,001,65,2020_Feb_04_1355,spring_faces,3.1.5,60.00911142339702,
condition files/Stage2_1.xlsx,,B6,T6,r,"['s', 'r']","['Stratego', 'Risk']","[-0.15, 0.5]","[0.15, 0.5]",1,1,,,,,,,,,,,,,,,,,0,4,4,4,0,2,2,1,,,,,,,,,,,,,,,,,,,,,,,,,,,,,,,,,,,,,,,,,,,,,,,926.3636529510004,None,926.3636529510004,None,926.3636529510004,None,r,1,0.6314955399993778,927.8985189140003,None,927.8985189140003,None,927.8985189140003,None,928.5808392709987,None,928.5808392709987,None,928.5808392709987,None,928.5808392709987,None,,,,,,,,,,,,,,,,,,,,,,,,,,,,,,,,,,,,,,,,,,,,001,65,2020_Feb_04_1355,spring_faces,3.1.5,60.00911142339702,
condition files/Stage2_1.xlsx,,T3,B3,s,"['s', 'r']","['Stratego', 'Risk']","[-0.15, 0.5]","[0.15, 0.5]",1,1,,,,,,,,,,,,,,,,,0,4,4,4,0,3,3,4,,,,,,,,,,,,,,,,,,,,,,,,,,,,,,,,,,,,,,,,,,,,,,,930.5474032040001,None,930.5474032040001,None,930.5474032040001,None,s,1,0.5280545119985618,932.0819691340002,None,932.0819691340002,None,932.0819691340002,None,932.6808974699998,None,932.6808974699998,None,932.6808974699998,None,932.6808974699998,None,,,,,,,,,,,,,,,,,,,,,,,,,,,,,,,,,,,,,,,,,,,,001,65,2020_Feb_04_1355,spring_faces,3.1.5,60.00911142339702,
