condsFile,subStage,cue1,cue2,correct,responseKeys,responseNames,cue1Position,cue2Position,cue1Opacity,cue2Opacity,stageLoop0.thisRepN,stageLoop0.thisTrialN,stageLoop0.thisN,stageLoop0.thisIndex,blockLoop0.thisRepN,blockLoop0.thisTrialN,blockLoop0.thisN,blockLoop0.thisIndex,stage1Loop.thisRepN,stage1Loop.thisTrialN,stage1Loop.thisN,stage1Loop.thisIndex,blockLoop1.thisRepN,blockLoop1.thisTrialN,blockLoop1.thisN,blockLoop1.thisIndex,stage2Loop.thisRepN,stage2Loop.thisTrialN,stage2Loop.thisN,stage2Loop.thisIndex,blockLoop2.thisRepN,blockLoop2.thisTrialN,blockLoop2.thisN,blockLoop2.thisIndex,testLoop.thisRepN,testLoop.thisTrialN,testLoop.thisN,testLoop.thisIndex,blockLoopTest.thisRepN,blockLoopTest.thisTrialN,blockLoopTest.thisN,blockLoopTest.thisIndex,cuePics,id_instr_text.started,id_instr_text.stopped,space_to_continue_2.started,space_to_continue_2.stopped,end_instructions_resp_3.keys,end_instructions_resp_3.rt,end_instructions_resp_3.started,end_instructions_resp_3.stopped,id_input_instr.started,id_input_instr.stopped,id_input_rect.started,id_input_rect.stopped,id_input_resp.keys,id_input_resp.rt,id_input_resp.started,id_input_resp.stopped,sonaID,id_input_text.started,id_input_text.stopped,final_text.started,final_text.stopped,instructions.started,instructions.stopped,end_instructions_resp.keys,end_instructions_resp.rt,end_instructions_resp.started,end_instructions_resp.stopped,space_to_continue.started,space_to_continue.stopped,instructions_stage0.started,instructions_stage0.stopped,end_instructions_resp_stage0.keys,end_instructions_resp_stage0.rt,end_instructions_resp_stage0.started,end_instructions_resp_stage0.stopped,space_to_continue_stage0.started,space_to_continue_stage0.stopped,text.started,text.stopped,resp_text1.started,resp_text1.stopped,resp_text2.started,resp_text2.stopped,trial_resp.keys,trial_resp.corr,trial_resp.rt,trial_resp.started,trial_resp.stopped,cue1Image.started,cue1Image.stopped,cue2Image.started,cue2Image.stopped,cue1Image_fb.started,cue1Image_fb.stopped,cue2Image_fb.started,cue2Image_fb.stopped,fb_text_answer.started,fb_text_answer.stopped,feedback_image.started,feedback_image.stopped,instructions_stage1.started,instructions_stage1.stopped,end_instructions_resp_stage1.keys,end_instructions_resp_stage1.rt,end_instructions_resp_stage1.started,end_instructions_resp_stage1.stopped,space_to_continue_stage1.started,space_to_continue_stage1.stopped,instructions_2.started,instructions_2.stopped,end_instructions_resp_2.keys,end_instructions_resp_2.rt,end_instructions_resp_2.started,end_instructions_resp_2.stopped,press_space_to_continue_stage2.started,press_space_to_continue_stage2.stopped,instructions_testStage1.started,instructions_testStage1.stopped,end_instructions_resp_test1.keys,end_instructions_resp_test1.rt,end_instructions_resp_test1.started,end_instructions_resp_test1.stopped,press_space_to_continue_test1.started,press_space_to_continue_test1.stopped,cue1Image_testChoice.started,cue1Image_testChoice.stopped,cue2Image_testChoice.started,cue2Image_testChoice.stopped,test_resp.keys,test_resp.corr,test_resp.rt,test_resp.started,test_resp.stopped,cue1Image_testConf.started,cue1Image_testConf.stopped,cue2Image_testConf.started,cue2Image_testConf.stopped,conf_reminder.started,conf_reminder.stopped,conf_rating.response,conf_rating.rt,conf_rating.started,conf_rating.stopped,session,participant,date,expName,psychopyVersion,frameRate,
,,,,,,,,,,,,,,,,,,,,,,,,,,,,,,,,,,,,,,,,,,,"{'none': 'pictures/20M_AN_C.png', 'alpha': 'pictures/SHINEd_pepper.png', 'beta': 'pictures/SHINEd_melon.png', 'theta': 'pictures/SHINEd_apple.png', 'phi': 'pictures/SHINEd_pear.png', 'T1': 'pictures/31M_AN_C.png', 'T2': 'pictures/32M_AN_C.png', 'T3': 'pictures/22M_AN_C.png', 'T4': 'pictures/34M_AN_C.png', 'T5': 'pictures/36M_AN_C.png', 'T6': 'pictures/26M_AN_C.png', 'B1': 'pictures/33M_NE_C.png', 'B2': 'pictures/38M_NE_C.png', 'B3': 'pictures/37M_NE_C.png', 'B4': 'pictures/25M_NE_C.png', 'B5': 'pictures/20M_NE_C.png', 'B6': 'pictures/23M_NE_C.png'}",12.593630139999732,None,17.576406527998188,None,space,14.283612743998674,17.576406527998188,None,,,,,,,,,,,,,,,,,,,,,,,,,,,,,,,,,,,,,,,,,,,,,,,,,,,,,,,,,,,,,,,,,,,,,,,,,,,,,,,,,,,,,,,,,,,,,,,,001,67,2020_Feb_04_1423,spring_faces,3.1.5,59.93890427455633,
,,,,,,,,,,,,,,,,,,,,,,,,,,,,,,,,,,,,,,,,,,,,,,,,,,,,32.29346119899856,None,32.29346119899856,None,"['0', '7', '1', '8', 'l', 'a', 'r', 'o', 'c']","[10.686637085000257, 12.15869045299769, 15.374694472000556, 15.550570221999806, 18.03062305599815, 18.190673788998538, 21.278568785997777, 21.438646810998762, 21.646595448997687]",32.29346119899856,None,,,,,,,,,,,,,,,,,,,,,,,,,,,,,,,,,,,,,,,,,,,,,,,,,,,,,,,,,,,,,,,,,,,,,,,,,,,,,,,,,,,,,,,,001,67,2020_Feb_04_1423,spring_faces,3.1.5,59.93890427455633,
,,,,,,,,,,,,,,,,,,,,,,,,,,,,,,,,,,,,,,,,,,,,,,,,,,,,,,,,,,,,0718laroc,32.29346119899856,None,32.29346119899856,None,59.01062854200063,None,space,2.5856410750020586,64.01038136900024,None,,,,,,,,,,,,,,,,,,,,,,,,,,,,,,,,,,,,,,,,,,,,,,,,,,,,,,,,,,,,,,,,,,,,,,,,,,,,,001,67,2020_Feb_04_1423,spring_faces,3.1.5,59.93890427455633,
,,,,,,,,,,,,,,,,,,,,,,,,,,,,,,,,,,,,,,,,,,,,,,,,,,,,,,,,,,,,,,,,,,,,,,,64.01038136900024,None,66.64365864099818,None,space,7.256898354000441,71.64327226299793,None,,,,,,,,,,,,,,,,,,,,,,,,,,,,,,,,,,,,,,,,,,,,,,,,,,,,,,,,,,,,,,,,,,,,,001,67,2020_Feb_04_1423,spring_faces,3.1.5,59.93890427455633,
condition files/Stage0a.xlsx,0a,beta,none,g,"['h', 'g']","['Chess', 'Go']","[0, 0.5]","[0, 0]",1,0,0,0,0,0,0,0,0,1,,,,,,,,,,,,,,,,,,,,,,,,,,,,,,,,,,,,,,,,,,,,,,,,,,,,,,,,,,,,,71.64327226299793,None,78.96023335800055,None,78.96023335800055,None,78.96023335800055,None,g,1,3.2845951070012234,80.54344587100059,None,80.54344587100059,None,80.54344587100059,None,83.9100535969992,None,83.9100535969992,None,83.9100535969992,None,83.9100535969992,None,,,,,,,,,,,,,,,,,,,,,,,,,,,,,,,,,,,,,,,,,,,,001,67,2020_Feb_04_1423,spring_faces,3.1.5,59.93890427455633,
condition files/Stage0a.xlsx,0a,alpha,none,h,"['h', 'g']","['Chess', 'Go']","[0, 0.5]","[0, 0]",1,0,0,0,0,0,0,1,1,0,,,,,,,,,,,,,,,,,,,,,,,,,,,,,,,,,,,,,,,,,,,,,,,,,,,,,,,,,,,,,,,85.86002776999885,None,85.86002776999885,None,85.86002776999885,None,h,1,1.2824521939983242,87.40963611600091,None,87.40963611600091,None,87.40963611600091,None,88.76027320299909,None,88.76027320299909,None,88.76027320299909,None,88.76027320299909,None,,,,,,,,,,,,,,,,,,,,,,,,,,,,,,,,,,,,,,,,,,,,001,67,2020_Feb_04_1423,spring_faces,3.1.5,59.93890427455633,
condition files/Stage0a.xlsx,0a,alpha,none,h,"['h', 'g']","['Chess', 'Go']","[0, 0.5]","[0, 0]",1,0,0,1,1,1,0,0,0,0,,,,,,,,,,,,,,,,,,,,,,,,,,,,,,,,,,,,,,,,,,,,,,,,,,,,,,,,,,,,,,,90.72688016200118,None,90.72688016200118,None,90.72688016200118,None,h,1,1.0723569340007089,92.25974072399913,None,92.25974072399913,None,92.25974072399913,None,93.39346060000025,None,93.39346060000025,None,93.39346060000025,None,93.39346060000025,None,,,,,,,,,,,,,,,,,,,,,,,,,,,,,,,,,,,,,,,,,,,,001,67,2020_Feb_04_1423,spring_faces,3.1.5,59.93890427455633,
condition files/Stage0a.xlsx,0a,beta,none,g,"['h', 'g']","['Chess', 'Go']","[0, 0.5]","[0, 0]",1,0,0,1,1,1,0,1,1,1,,,,,,,,,,,,,,,,,,,,,,,,,,,,,,,,,,,,,,,,,,,,,,,,,,,,,,,,,,,,,,,95.35995218099924,None,95.35995218099924,None,95.35995218099924,None,g,1,0.6307789249985944,96.89327640899864,None,96.89327640899864,None,96.89327640899864,None,97.57656854399829,None,97.57656854399829,None,97.57656854399829,None,97.57656854399829,None,,,,,,,,,,,,,,,,,,,,,,,,,,,,,,,,,,,,,,,,,,,,001,67,2020_Feb_04_1423,spring_faces,3.1.5,59.93890427455633,
condition files/Stage0a.xlsx,0a,alpha,none,h,"['h', 'g']","['Chess', 'Go']","[0, 0.5]","[0, 0]",1,0,0,2,2,2,0,0,0,0,,,,,,,,,,,,,,,,,,,,,,,,,,,,,,,,,,,,,,,,,,,,,,,,,,,,,,,,,,,,,,,99.5601741850005,None,99.5601741850005,None,99.5601741850005,None,h,1,0.6066134669999883,101.09347587400043,None,101.09347587400043,None,101.09347587400043,None,101.76058223099972,None,101.76058223099972,None,101.76058223099972,None,101.76058223099972,None,,,,,,,,,,,,,,,,,,,,,,,,,,,,,,,,,,,,,,,,,,,,001,67,2020_Feb_04_1423,spring_faces,3.1.5,59.93890427455633,
condition files/Stage0a.xlsx,0a,beta,none,g,"['h', 'g']","['Chess', 'Go']","[0, 0.5]","[0, 0]",1,0,0,2,2,2,0,1,1,1,,,,,,,,,,,,,,,,,,,,,,,,,,,,,,,,,,,,,,,,,,,,,,,,,,,,,,,,,,,,,,,103.72606049800015,None,103.72606049800015,None,103.72606049800015,None,g,1,0.7438336289997096,105.26031323699863,None,105.26031323699863,None,105.26031323699863,None,106.05928699799915,None,106.05928699799915,None,106.05928699799915,None,106.05928699799915,None,,,,,,,,,,,,,,,,,,,,,,,,,,,,,,,,,,,,,,,,,,,,001,67,2020_Feb_04_1423,spring_faces,3.1.5,59.93890427455633,
condition files/Stage0a.xlsx,0a,alpha,none,h,"['h', 'g']","['Chess', 'Go']","[0, 0.5]","[0, 0]",1,0,0,3,3,3,0,0,0,0,,,,,,,,,,,,,,,,,,,,,,,,,,,,,,,,,,,,,,,,,,,,,,,,,,,,,,,,,,,,,,,108.04365126999983,None,108.04365126999983,None,108.04365126999983,None,h,1,0.6034462710013031,109.57662480499857,None,109.57662480499857,None,109.57662480499857,None,110.2432231849998,None,110.2432231849998,None,110.2432231849998,None,110.2432231849998,None,,,,,,,,,,,,,,,,,,,,,,,,,,,,,,,,,,,,,,,,,,,,001,67,2020_Feb_04_1423,spring_faces,3.1.5,59.93890427455633,
condition files/Stage0a.xlsx,0a,beta,none,g,"['h', 'g']","['Chess', 'Go']","[0, 0.5]","[0, 0]",1,0,0,3,3,3,0,1,1,1,,,,,,,,,,,,,,,,,,,,,,,,,,,,,,,,,,,,,,,,,,,,,,,,,,,,,,,,,,,,,,,112.20999563900114,None,112.20999563900114,None,112.20999563900114,None,g,1,0.37300984200192033,113.74310321599842,None,113.74310321599842,None,113.74310321599842,None,114.17631815599816,None,114.17631815599816,None,114.17631815599816,None,114.17631815599816,None,,,,,,,,,,,,,,,,,,,,,,,,,,,,,,,,,,,,,,,,,,,,001,67,2020_Feb_04_1423,spring_faces,3.1.5,59.93890427455633,
condition files/Stage0a.xlsx,0a,beta,none,g,"['h', 'g']","['Chess', 'Go']","[0, 0.5]","[0, 0]",1,0,0,4,4,4,0,0,0,1,,,,,,,,,,,,,,,,,,,,,,,,,,,,,,,,,,,,,,,,,,,,,,,,,,,,,,,,,,,,,,,116.15981401300087,None,116.15981401300087,None,116.15981401300087,None,h,0,0.35937775800266536,117.67681915999856,None,117.67681915999856,None,117.67681915999856,None,118.09335579099934,None,118.09335579099934,None,118.09335579099934,None,118.09335579099934,None,,,,,,,,,,,,,,,,,,,,,,,,,,,,,,,,,,,,,,,,,,,,001,67,2020_Feb_04_1423,spring_faces,3.1.5,59.93890427455633,
condition files/Stage0a.xlsx,0a,alpha,none,h,"['h', 'g']","['Chess', 'Go']","[0, 0.5]","[0, 0]",1,0,0,4,4,4,0,1,1,0,,,,,,,,,,,,,,,,,,,,,,,,,,,,,,,,,,,,,,,,,,,,,,,,,,,,,,,,,,,,,,,120.06009144799827,None,120.06009144799827,None,120.06009144799827,None,h,1,0.8909292000025744,121.5932155010014,None,121.5932155010014,None,121.5932155010014,None,122.54358486300043,None,122.54358486300043,None,122.54358486300043,None,122.54358486300043,None,,,,,,,,,,,,,,,,,,,,,,,,,,,,,,,,,,,,,,,,,,,,001,67,2020_Feb_04_1423,spring_faces,3.1.5,59.93890427455633,
condition files/Stage0a.xlsx,0a,alpha,none,h,"['h', 'g']","['Chess', 'Go']","[0, 0.5]","[0, 0]",1,0,0,5,5,5,0,0,0,0,,,,,,,,,,,,,,,,,,,,,,,,,,,,,,,,,,,,,,,,,,,,,,,,,,,,,,,,,,,,,,,124.52707409999857,None,124.52707409999857,None,124.52707409999857,None,h,1,0.45631244700052775,126.05979165199824,None,126.05979165199824,None,126.05979165199824,None,126.57634292999865,None,126.57634292999865,None,126.57634292999865,None,126.57634292999865,None,,,,,,,,,,,,,,,,,,,,,,,,,,,,,,,,,,,,,,,,,,,,001,67,2020_Feb_04_1423,spring_faces,3.1.5,59.93890427455633,
condition files/Stage0a.xlsx,0a,beta,none,g,"['h', 'g']","['Chess', 'Go']","[0, 0.5]","[0, 0]",1,0,0,5,5,5,0,1,1,1,,,,,,,,,,,,,,,,,,,,,,,,,,,,,,,,,,,,,,,,,,,,,,,,,,,,,,,,,,,,,,,128.54297895000127,None,128.54297895000127,None,128.54297895000127,None,g,1,0.5997024800017243,130.0763876819983,None,130.0763876819983,None,130.0763876819983,None,130.72668678400078,None,130.72668678400078,None,130.72668678400078,None,130.72668678400078,None,,,,,,,,,,,,,,,,,,,,,,,,,,,,,,,,,,,,,,,,,,,,001,67,2020_Feb_04_1423,spring_faces,3.1.5,59.93890427455633,
condition files/Stage0b_1.xlsx,0b,none,beta,g,"['h', 'g']","['Chess', 'Go']","[-0.15, 0.5]","[0.15, 0.5]",0,1,0,6,6,6,0,0,0,1,,,,,,,,,,,,,,,,,,,,,,,,,,,,,,,,,,,,,,,,,,,,,,,,,,,,,,,,,,,,,,,132.7102417440001,None,132.7102417440001,None,132.7102417440001,None,g,1,0.9284136520000175,134.25966247799806,None,134.25966247799806,None,134.25966247799806,None,135.25958350200017,None,135.25958350200017,None,135.25958350200017,None,135.25958350200017,None,,,,,,,,,,,,,,,,,,,,,,,,,,,,,,,,,,,,,,,,,,,,001,67,2020_Feb_04_1423,spring_faces,3.1.5,59.93890427455633,
condition files/Stage0b_1.xlsx,0b,alpha,none,h,"['h', 'g']","['Chess', 'Go']","[-0.15, 0.5]","[0.15, 0.5]",1,0,0,6,6,6,0,1,1,0,,,,,,,,,,,,,,,,,,,,,,,,,,,,,,,,,,,,,,,,,,,,,,,,,,,,,,,,,,,,,,,137.2099249210005,None,137.2099249210005,None,137.2099249210005,None,h,1,0.6146943470012047,138.74938272700092,None,138.74938272700092,None,138.74938272700092,None,139.42992994700035,None,139.42992994700035,None,139.42992994700035,None,139.42992994700035,None,,,,,,,,,,,,,,,,,,,,,,,,,,,,,,,,,,,,,,,,,,,,001,67,2020_Feb_04_1423,spring_faces,3.1.5,59.93890427455633,
condition files/Stage0b_2.xlsx,0b,beta,none,g,"['h', 'g']","['Chess', 'Go']","[-0.15, 0.5]","[0.15, 0.5]",1,0,0,7,7,7,0,0,0,1,,,,,,,,,,,,,,,,,,,,,,,,,,,,,,,,,,,,,,,,,,,,,,,,,,,,,,,,,,,,,,,141.4102824799993,None,141.4102824799993,None,141.4102824799993,None,g,1,0.6602937759998895,142.94388048600013,None,142.94388048600013,None,142.94388048600013,None,143.66026150099788,None,143.66026150099788,None,143.66026150099788,None,143.66026150099788,None,,,,,,,,,,,,,,,,,,,,,,,,,,,,,,,,,,,,,,,,,,,,001,67,2020_Feb_04_1423,spring_faces,3.1.5,59.93890427455633,
condition files/Stage0b_2.xlsx,0b,none,alpha,h,"['h', 'g']","['Chess', 'Go']","[-0.15, 0.5]","[0.15, 0.5]",0,1,0,7,7,7,0,1,1,0,,,,,,,,,,,,,,,,,,,,,,,,,,,,,,,,,,,,,,,,,,,,,,,,,,,,,,,,,,,,,,,145.62661299200045,None,145.62661299200045,None,145.62661299200045,None,h,1,0.6795304070001293,147.164535306998,None,147.164535306998,None,147.164535306998,None,147.90981653700146,None,147.90981653700146,None,147.90981653700146,None,147.90981653700146,None,,,,,,,,,,,,,,,,,,,,,,,,,,,,,,,,,,,,,,,,,,,,001,67,2020_Feb_04_1423,spring_faces,3.1.5,59.93890427455633,
condition files/Stage0b_1.xlsx,0b,none,beta,g,"['h', 'g']","['Chess', 'Go']","[-0.15, 0.5]","[0.15, 0.5]",0,1,0,8,8,8,0,0,0,1,,,,,,,,,,,,,,,,,,,,,,,,,,,,,,,,,,,,,,,,,,,,,,,,,,,,,,,,,,,,,,,149.8768387199998,None,149.8768387199998,None,149.8768387199998,None,g,1,0.8018428389987093,151.41018107199852,None,151.41018107199852,None,151.41018107199852,None,152.29378053999972,None,152.29378053999972,None,152.29378053999972,None,152.29378053999972,None,,,,,,,,,,,,,,,,,,,,,,,,,,,,,,,,,,,,,,,,,,,,001,67,2020_Feb_04_1423,spring_faces,3.1.5,59.93890427455633,
condition files/Stage0b_1.xlsx,0b,alpha,none,h,"['h', 'g']","['Chess', 'Go']","[-0.15, 0.5]","[0.15, 0.5]",1,0,0,8,8,8,0,1,1,0,,,,,,,,,,,,,,,,,,,,,,,,,,,,,,,,,,,,,,,,,,,,,,,,,,,,,,,,,,,,,,,154.24349804599842,None,154.24349804599842,None,154.24349804599842,None,h,1,0.7063657059989055,155.79372597199836,None,155.79372597199836,None,155.79372597199836,None,156.57705256899862,None,156.57705256899862,None,156.57705256899862,None,156.57705256899862,None,,,,,,,,,,,,,,,,,,,,,,,,,,,,,,,,,,,,,,,,,,,,001,67,2020_Feb_04_1423,spring_faces,3.1.5,59.93890427455633,
condition files/Stage0b_2.xlsx,0b,none,alpha,h,"['h', 'g']","['Chess', 'Go']","[-0.15, 0.5]","[0.15, 0.5]",0,1,0,9,9,9,0,0,0,0,,,,,,,,,,,,,,,,,,,,,,,,,,,,,,,,,,,,,,,,,,,,,,,,,,,,,,,,,,,,,,,158.54354625500127,None,158.54354625500127,None,158.54354625500127,None,h,1,0.5958628459993633,160.08024186900002,None,160.08024186900002,None,160.08024186900002,None,160.72678171200096,None,160.72678171200096,None,160.72678171200096,None,160.72678171200096,None,,,,,,,,,,,,,,,,,,,,,,,,,,,,,,,,,,,,,,,,,,,,001,67,2020_Feb_04_1423,spring_faces,3.1.5,59.93890427455633,
condition files/Stage0b_2.xlsx,0b,beta,none,g,"['h', 'g']","['Chess', 'Go']","[-0.15, 0.5]","[0.15, 0.5]",1,0,0,9,9,9,0,1,1,1,,,,,,,,,,,,,,,,,,,,,,,,,,,,,,,,,,,,,,,,,,,,,,,,,,,,,,,,,,,,,,,162.69280424099998,None,162.69280424099998,None,162.69280424099998,None,g,1,0.5602775970000948,164.22780993099877,None,164.22780993099877,None,164.22780993099877,None,164.8456932759982,None,164.8456932759982,None,164.8456932759982,None,164.8456932759982,None,,,,,,,,,,,,,,,,,,,,,,,,,,,,,,,,,,,,,,,,,,,,001,67,2020_Feb_04_1423,spring_faces,3.1.5,59.93890427455633,
condition files/Stage0b_1.xlsx,0b,none,beta,g,"['h', 'g']","['Chess', 'Go']","[-0.15, 0.5]","[0.15, 0.5]",0,1,0,10,10,10,0,0,0,1,,,,,,,,,,,,,,,,,,,,,,,,,,,,,,,,,,,,,,,,,,,,,,,,,,,,,,,,,,,,,,,166.826175967999,None,166.826175967999,None,166.826175967999,None,g,1,0.891209189001529,168.3609622570002,None,168.3609622570002,None,168.3609622570002,None,169.3101920679983,None,169.3101920679983,None,169.3101920679983,None,169.3101920679983,None,,,,,,,,,,,,,,,,,,,,,,,,,,,,,,,,,,,,,,,,,,,,001,67,2020_Feb_04_1423,spring_faces,3.1.5,59.93890427455633,
condition files/Stage0b_1.xlsx,0b,alpha,none,h,"['h', 'g']","['Chess', 'Go']","[-0.15, 0.5]","[0.15, 0.5]",1,0,0,10,10,10,0,1,1,0,,,,,,,,,,,,,,,,,,,,,,,,,,,,,,,,,,,,,,,,,,,,,,,,,,,,,,,,,,,,,,,171.27588244100116,None,171.27588244100116,None,171.27588244100116,None,h,1,0.6016075139996246,172.82642489099817,None,172.82642489099817,None,172.82642489099817,None,173.49381203899975,None,173.49381203899975,None,173.49381203899975,None,173.49381203899975,None,,,,,,,,,,,,,,,,,,,,,,,,,,,,,,,,,,,,,,,,,,,,001,67,2020_Feb_04_1423,spring_faces,3.1.5,59.93890427455633,
condition files/Stage0b_2.xlsx,0b,beta,none,g,"['h', 'g']","['Chess', 'Go']","[-0.15, 0.5]","[0.15, 0.5]",1,0,0,11,11,11,0,0,0,1,,,,,,,,,,,,,,,,,,,,,,,,,,,,,,,,,,,,,,,,,,,,,,,,,,,,,,,,,,,,,,,175.47681085599834,None,175.47681085599834,None,175.47681085599834,None,g,1,0.5457931409982848,177.01026599299803,None,177.01026599299803,None,177.01026599299803,None,177.60992444599833,None,177.60992444599833,None,177.60992444599833,None,177.60992444599833,None,,,,,,,,,,,,,,,,,,,,,,,,,,,,,,,,,,,,,,,,,,,,001,67,2020_Feb_04_1423,spring_faces,3.1.5,59.93890427455633,
condition files/Stage0b_2.xlsx,0b,none,alpha,h,"['h', 'g']","['Chess', 'Go']","[-0.15, 0.5]","[0.15, 0.5]",0,1,0,11,11,11,0,1,1,0,,,,,,,,,,,,,,,,,,,,,,,,,,,,,,,,,,,,,,,,,,,,,,,,,,,,,,,,,,,,,,,179.57651223799985,None,179.57651223799985,None,179.57651223799985,None,h,1,0.634473900001467,181.11363499599975,None,181.11363499599975,None,181.11363499599975,None,181.81600967600025,None,181.81600967600025,None,181.81600967600025,None,181.81600967600025,None,,,,,,,,,,,,,,,,,,,,,,,,,,,,,,,,,,,,,,,,,,,,001,67,2020_Feb_04_1423,spring_faces,3.1.5,59.93890427455633,
condition files/Stage0c_1.xlsx,0c,theta,alpha,h,"['h', 'g']","['Chess', 'Go']","[-0.15, 0.5]","[0.15, 0.5]",1,1,0,12,12,12,0,0,0,0,,,,,,,,,,,,,,,,,,,,,,,,,,,,,,,,,,,,,,,,,,,,,,,,,,,,,,,,,,,,,,,183.79330985399793,None,183.79330985399793,None,183.79330985399793,None,h,1,5.028922538000188,185.32712722499855,None,185.32712722499855,None,185.32712722499855,None,190.40984133299935,None,190.40984133299935,None,190.40984133299935,None,190.40984133299935,None,,,,,,,,,,,,,,,,,,,,,,,,,,,,,,,,,,,,,,,,,,,,001,67,2020_Feb_04_1423,spring_faces,3.1.5,59.93890427455633,
condition files/Stage0c_1.xlsx,0c,beta,theta,g,"['h', 'g']","['Chess', 'Go']","[-0.15, 0.5]","[0.15, 0.5]",1,1,0,12,12,12,0,1,1,2,,,,,,,,,,,,,,,,,,,,,,,,,,,,,,,,,,,,,,,,,,,,,,,,,,,,,,,,,,,,,,,192.3770849709981,None,192.3770849709981,None,192.3770849709981,None,g,1,3.469834016999812,193.91025439199802,None,193.91025439199802,None,193.91025439199802,None,197.44351636400097,None,197.44351636400097,None,197.44351636400097,None,197.44351636400097,None,,,,,,,,,,,,,,,,,,,,,,,,,,,,,,,,,,,,,,,,,,,,001,67,2020_Feb_04_1423,spring_faces,3.1.5,59.93890427455633,
condition files/Stage0c_1.xlsx,0c,alpha,phi,h,"['h', 'g']","['Chess', 'Go']","[-0.15, 0.5]","[0.15, 0.5]",1,1,0,12,12,12,0,2,2,1,,,,,,,,,,,,,,,,,,,,,,,,,,,,,,,,,,,,,,,,,,,,,,,,,,,,,,,,,,,,,,,199.40989740100122,None,199.40989740100122,None,199.40989740100122,None,h,1,1.6044093370001065,200.94369090799955,None,200.94369090799955,None,200.94369090799955,None,202.60965062299874,None,202.60965062299874,None,202.60965062299874,None,202.60965062299874,None,,,,,,,,,,,,,,,,,,,,,,,,,,,,,,,,,,,,,,,,,,,,001,67,2020_Feb_04_1423,spring_faces,3.1.5,59.93890427455633,
condition files/Stage0c_1.xlsx,0c,phi,beta,g,"['h', 'g']","['Chess', 'Go']","[-0.15, 0.5]","[0.15, 0.5]",1,1,0,12,12,12,0,3,3,3,,,,,,,,,,,,,,,,,,,,,,,,,,,,,,,,,,,,,,,,,,,,,,,,,,,,,,,,,,,,,,,204.59335080700112,None,204.59335080700112,None,204.59335080700112,None,g,1,0.9338747300025716,206.1101844779987,None,206.1101844779987,None,206.1101844779987,None,207.10991699100123,None,207.10991699100123,None,207.10991699100123,None,207.10991699100123,None,,,,,,,,,,,,,,,,,,,,,,,,,,,,,,,,,,,,,,,,,,,,001,67,2020_Feb_04_1423,spring_faces,3.1.5,59.93890427455633,
condition files/Stage0c_2.xlsx,0c,alpha,theta,h,"['h', 'g']","['Chess', 'Go']","[-0.15, 0.5]","[0.15, 0.5]",1,1,0,13,13,13,0,0,0,0,,,,,,,,,,,,,,,,,,,,,,,,,,,,,,,,,,,,,,,,,,,,,,,,,,,,,,,,,,,,,,,209.09374097399996,None,209.09374097399996,None,209.09374097399996,None,h,1,1.089091585999995,210.62701591899895,None,210.62701591899895,None,210.62701591899895,None,211.77700477100007,None,211.77700477100007,None,211.77700477100007,None,211.77700477100007,None,,,,,,,,,,,,,,,,,,,,,,,,,,,,,,,,,,,,,,,,,,,,001,67,2020_Feb_04_1423,spring_faces,3.1.5,59.93890427455633,
condition files/Stage0c_2.xlsx,0c,beta,phi,g,"['h', 'g']","['Chess', 'Go']","[-0.15, 0.5]","[0.15, 0.5]",1,1,0,13,13,13,0,1,1,3,,,,,,,,,,,,,,,,,,,,,,,,,,,,,,,,,,,,,,,,,,,,,,,,,,,,,,,,,,,,,,,213.74329361099808,None,213.74329361099808,None,213.74329361099808,None,g,1,1.3355820489996404,215.27649932499844,None,215.27649932499844,None,215.27649932499844,None,216.67710172900115,None,216.67710172900115,None,216.67710172900115,None,216.67710172900115,None,,,,,,,,,,,,,,,,,,,,,,,,,,,,,,,,,,,,,,,,,,,,001,67,2020_Feb_04_1423,spring_faces,3.1.5,59.93890427455633,
condition files/Stage0c_2.xlsx,0c,phi,alpha,h,"['h', 'g']","['Chess', 'Go']","[-0.15, 0.5]","[0.15, 0.5]",1,1,0,13,13,13,0,2,2,1,,,,,,,,,,,,,,,,,,,,,,,,,,,,,,,,,,,,,,,,,,,,,,,,,,,,,,,,,,,,,,,218.64293630500106,None,218.64293630500106,None,218.64293630500106,None,h,1,0.9791258629993536,220.17691984499834,None,220.17691984499834,None,220.17691984499834,None,221.20954715599873,None,221.20954715599873,None,221.20954715599873,None,221.20954715599873,None,,,,,,,,,,,,,,,,,,,,,,,,,,,,,,,,,,,,,,,,,,,,001,67,2020_Feb_04_1423,spring_faces,3.1.5,59.93890427455633,
condition files/Stage0c_2.xlsx,0c,theta,beta,g,"['h', 'g']","['Chess', 'Go']","[-0.15, 0.5]","[0.15, 0.5]",1,1,0,13,13,13,0,3,3,2,,,,,,,,,,,,,,,,,,,,,,,,,,,,,,,,,,,,,,,,,,,,,,,,,,,,,,,,,,,,,,,223.17676125199796,None,223.17676125199796,None,223.17676125199796,None,g,1,1.3577804079977795,224.71037071300088,None,224.71037071300088,None,224.71037071300088,None,226.12626903699856,None,226.12626903699856,None,226.12626903699856,None,226.12626903699856,None,,,,,,,,,,,,,,,,,,,,,,,,,,,,,,,,,,,,,,,,,,,,001,67,2020_Feb_04_1423,spring_faces,3.1.5,59.93890427455633,
condition files/Stage0c_1.xlsx,0c,theta,alpha,h,"['h', 'g']","['Chess', 'Go']","[-0.15, 0.5]","[0.15, 0.5]",1,1,0,14,14,14,0,0,0,0,,,,,,,,,,,,,,,,,,,,,,,,,,,,,,,,,,,,,,,,,,,,,,,,,,,,,,,,,,,,,,,228.10952031099805,None,228.10952031099805,None,228.10952031099805,None,h,1,1.0967152720004378,229.6435920699987,None,229.6435920699987,None,229.6435920699987,None,230.7935961660005,None,230.7935961660005,None,230.7935961660005,None,230.7935961660005,None,,,,,,,,,,,,,,,,,,,,,,,,,,,,,,,,,,,,,,,,,,,,001,67,2020_Feb_04_1423,spring_faces,3.1.5,59.93890427455633,
condition files/Stage0c_1.xlsx,0c,alpha,phi,h,"['h', 'g']","['Chess', 'Go']","[-0.15, 0.5]","[0.15, 0.5]",1,1,0,14,14,14,0,1,1,1,,,,,,,,,,,,,,,,,,,,,,,,,,,,,,,,,,,,,,,,,,,,,,,,,,,,,,,,,,,,,,,232.75994643100057,None,232.75994643100057,None,232.75994643100057,None,h,1,0.7985274130005564,234.2935518310005,None,234.2935518310005,None,234.2935518310005,None,235.12901382600103,None,235.12901382600103,None,235.12901382600103,None,235.12901382600103,None,,,,,,,,,,,,,,,,,,,,,,,,,,,,,,,,,,,,,,,,,,,,001,67,2020_Feb_04_1423,spring_faces,3.1.5,59.93890427455633,
condition files/Stage0c_1.xlsx,0c,phi,beta,g,"['h', 'g']","['Chess', 'Go']","[-0.15, 0.5]","[0.15, 0.5]",1,1,0,14,14,14,0,2,2,3,,,,,,,,,,,,,,,,,,,,,,,,,,,,,,,,,,,,,,,,,,,,,,,,,,,,,,,,,,,,,,,237.1100083909987,None,237.1100083909987,None,237.1100083909987,None,g,1,1.0892411339991668,238.64285002600081,None,238.64285002600081,None,238.64285002600081,None,239.79360740500124,None,239.79360740500124,None,239.79360740500124,None,239.79360740500124,None,,,,,,,,,,,,,,,,,,,,,,,,,,,,,,,,,,,,,,,,,,,,001,67,2020_Feb_04_1423,spring_faces,3.1.5,59.93890427455633,
condition files/Stage0c_1.xlsx,0c,beta,theta,g,"['h', 'g']","['Chess', 'Go']","[-0.15, 0.5]","[0.15, 0.5]",1,1,0,14,14,14,0,3,3,2,,,,,,,,,,,,,,,,,,,,,,,,,,,,,,,,,,,,,,,,,,,,,,,,,,,,,,,,,,,,,,,241.76003318199946,None,241.76003318199946,None,241.76003318199946,None,g,1,0.9345440350007266,243.2934977920013,None,243.2934977920013,None,243.2934977920013,None,244.27911804500036,None,244.27911804500036,None,244.27911804500036,None,244.27911804500036,None,,,,,,,,,,,,,,,,,,,,,,,,,,,,,,,,,,,,,,,,,,,,001,67,2020_Feb_04_1423,spring_faces,3.1.5,59.93890427455633,
condition files/Stage0c_2.xlsx,0c,alpha,theta,h,"['h', 'g']","['Chess', 'Go']","[-0.15, 0.5]","[0.15, 0.5]",1,1,0,15,15,15,0,0,0,0,,,,,,,,,,,,,,,,,,,,,,,,,,,,,,,,,,,,,,,,,,,,,,,,,,,,,,,,,,,,,,,246.2774711009988,None,246.2774711009988,None,246.2774711009988,None,h,1,1.8899027590014157,247.81016078500033,None,247.81016078500033,None,247.81016078500033,None,249.76046739400044,None,249.76046739400044,None,249.76046739400044,None,249.76046739400044,None,,,,,,,,,,,,,,,,,,,,,,,,,,,,,,,,,,,,,,,,,,,,001,67,2020_Feb_04_1423,spring_faces,3.1.5,59.93890427455633,
condition files/Stage0c_2.xlsx,0c,theta,beta,g,"['h', 'g']","['Chess', 'Go']","[-0.15, 0.5]","[0.15, 0.5]",1,1,0,15,15,15,0,1,1,2,,,,,,,,,,,,,,,,,,,,,,,,,,,,,,,,,,,,,,,,,,,,,,,,,,,,,,,,,,,,,,,251.72661842899834,None,251.72661842899834,None,251.72661842899834,None,g,1,0.9518082959984895,253.2602795720013,None,253.2602795720013,None,253.2602795720013,None,254.2762753120005,None,254.2762753120005,None,254.2762753120005,None,254.2762753120005,None,,,,,,,,,,,,,,,,,,,,,,,,,,,,,,,,,,,,,,,,,,,,001,67,2020_Feb_04_1423,spring_faces,3.1.5,59.93890427455633,
condition files/Stage0c_2.xlsx,0c,phi,alpha,h,"['h', 'g']","['Chess', 'Go']","[-0.15, 0.5]","[0.15, 0.5]",1,1,0,15,15,15,0,2,2,1,,,,,,,,,,,,,,,,,,,,,,,,,,,,,,,,,,,,,,,,,,,,,,,,,,,,,,,,,,,,,,,256.24353355199855,None,256.24353355199855,None,256.24353355199855,None,h,1,0.9151191910023044,257.77696361500057,None,257.77696361500057,None,257.77696361500057,None,258.74358135500006,None,258.74358135500006,None,258.74358135500006,None,258.74358135500006,None,,,,,,,,,,,,,,,,,,,,,,,,,,,,,,,,,,,,,,,,,,,,001,67,2020_Feb_04_1423,spring_faces,3.1.5,59.93890427455633,
condition files/Stage0c_2.xlsx,0c,beta,phi,g,"['h', 'g']","['Chess', 'Go']","[-0.15, 0.5]","[0.15, 0.5]",1,1,0,15,15,15,0,3,3,3,,,,,,,,,,,,,,,,,,,,,,,,,,,,,,,,,,,,,,,,,,,,,,,,,,,,,,,,,,,,,,,260.71025862700117,None,260.71025862700117,None,260.71025862700117,None,g,1,0.8323962750000646,262.2436742329992,None,262.2436742329992,None,262.2436742329992,None,263.12683789600123,None,263.12683789600123,None,263.12683789600123,None,263.12683789600123,None,,,,,,,,,,,,,,,,,,,,,,,,,,,,,,,,,,,,,,,,,,,,001,67,2020_Feb_04_1423,spring_faces,3.1.5,59.93890427455633,
condition files/Stage0c_1.xlsx,0c,beta,theta,g,"['h', 'g']","['Chess', 'Go']","[-0.15, 0.5]","[0.15, 0.5]",1,1,0,16,16,16,0,0,0,2,,,,,,,,,,,,,,,,,,,,,,,,,,,,,,,,,,,,,,,,,,,,,,,,,,,,,,,,,,,,,,,265.1104745599987,None,265.1104745599987,None,265.1104745599987,None,g,1,0.5127596430029371,266.64329939600066,None,266.64329939600066,None,266.64329939600066,None,267.1960760689981,None,267.1960760689981,None,267.1960760689981,None,267.1960760689981,None,,,,,,,,,,,,,,,,,,,,,,,,,,,,,,,,,,,,,,,,,,,,001,67,2020_Feb_04_1423,spring_faces,3.1.5,59.93890427455633,
condition files/Stage0c_1.xlsx,0c,theta,alpha,h,"['h', 'g']","['Chess', 'Go']","[-0.15, 0.5]","[0.15, 0.5]",1,1,0,16,16,16,0,1,1,0,,,,,,,,,,,,,,,,,,,,,,,,,,,,,,,,,,,,,,,,,,,,,,,,,,,,,,,,,,,,,,,269.1757838429985,None,269.1757838429985,None,269.1757838429985,None,h,1,0.7177674439990369,270.71027963099914,None,270.71027963099914,None,270.71027963099914,None,271.49357190500086,None,271.49357190500086,None,271.49357190500086,None,271.49357190500086,None,,,,,,,,,,,,,,,,,,,,,,,,,,,,,,,,,,,,,,,,,,,,001,67,2020_Feb_04_1423,spring_faces,3.1.5,59.93890427455633,
condition files/Stage0c_1.xlsx,0c,alpha,phi,h,"['h', 'g']","['Chess', 'Go']","[-0.15, 0.5]","[0.15, 0.5]",1,1,0,16,16,16,0,2,2,1,,,,,,,,,,,,,,,,,,,,,,,,,,,,,,,,,,,,,,,,,,,,,,,,,,,,,,,,,,,,,,,273.4600597770004,None,273.4600597770004,None,273.4600597770004,None,h,1,0.6266057430002547,274.9935306820007,None,274.9935306820007,None,274.9935306820007,None,275.66171095299796,None,275.66171095299796,None,275.66171095299796,None,275.66171095299796,None,,,,,,,,,,,,,,,,,,,,,,,,,,,,,,,,,,,,,,,,,,,,001,67,2020_Feb_04_1423,spring_faces,3.1.5,59.93890427455633,
condition files/Stage0c_1.xlsx,0c,phi,beta,g,"['h', 'g']","['Chess', 'Go']","[-0.15, 0.5]","[0.15, 0.5]",1,1,0,16,16,16,0,3,3,3,,,,,,,,,,,,,,,,,,,,,,,,,,,,,,,,,,,,,,,,,,,,,,,,,,,,,,,,,,,,,,,277.64329723899937,None,277.64329723899937,None,277.64329723899937,None,g,1,0.763395236001088,279.1767064900014,None,279.1767064900014,None,279.1767064900014,None,279.9939302419989,None,279.9939302419989,None,279.9939302419989,None,279.9939302419989,None,,,,,,,,,,,,,,,,,,,,,,,,,,,,,,,,,,,,,,,,,,,,001,67,2020_Feb_04_1423,spring_faces,3.1.5,59.93890427455633,
condition files/Stage0c_2.xlsx,0c,phi,alpha,h,"['h', 'g']","['Chess', 'Go']","[-0.15, 0.5]","[0.15, 0.5]",1,1,0,17,17,17,0,0,0,1,,,,,,,,,,,,,,,,,,,,,,,,,,,,,,,,,,,,,,,,,,,,,,,,,,,,,,,,,,,,,,,281.97701868399963,None,281.97701868399963,None,281.97701868399963,None,h,1,0.7653789109972422,283.5107193490003,None,283.5107193490003,None,283.5107193490003,None,284.32657948799897,None,284.32657948799897,None,284.32657948799897,None,284.32657948799897,None,,,,,,,,,,,,,,,,,,,,,,,,,,,,,,,,,,,,,,,,,,,,001,67,2020_Feb_04_1423,spring_faces,3.1.5,59.93890427455633,
condition files/Stage0c_2.xlsx,0c,alpha,theta,h,"['h', 'g']","['Chess', 'Go']","[-0.15, 0.5]","[0.15, 0.5]",1,1,0,17,17,17,0,1,1,0,,,,,,,,,,,,,,,,,,,,,,,,,,,,,,,,,,,,,,,,,,,,,,,,,,,,,,,,,,,,,,,286.2928500400012,None,286.2928500400012,None,286.2928500400012,None,h,1,1.15317928299919,287.82691504000104,None,287.82691504000104,None,287.82691504000104,None,289.02983602400127,None,289.02983602400127,None,289.02983602400127,None,289.02983602400127,None,,,,,,,,,,,,,,,,,,,,,,,,,,,,,,,,,,,,,,,,,,,,001,67,2020_Feb_04_1423,spring_faces,3.1.5,59.93890427455633,
condition files/Stage0c_2.xlsx,0c,beta,phi,g,"['h', 'g']","['Chess', 'Go']","[-0.15, 0.5]","[0.15, 0.5]",1,1,0,17,17,17,0,2,2,3,,,,,,,,,,,,,,,,,,,,,,,,,,,,,,,,,,,,,,,,,,,,,,,,,,,,,,,,,,,,,,,291.010096820999,None,291.010096820999,None,291.010096820999,None,g,1,1.3812141849994077,292.5428690129993,None,292.5428690129993,None,292.5428690129993,None,293.97682596199957,None,293.97682596199957,None,293.97682596199957,None,293.97682596199957,None,,,,,,,,,,,,,,,,,,,,,,,,,,,,,,,,,,,,,,,,,,,,001,67,2020_Feb_04_1423,spring_faces,3.1.5,59.93890427455633,
condition files/Stage0c_2.xlsx,0c,theta,beta,g,"['h', 'g']","['Chess', 'Go']","[-0.15, 0.5]","[0.15, 0.5]",1,1,0,17,17,17,0,3,3,2,,,,,,,,,,,,,,,,,,,,,,,,,,,,,,,,,,,,,,,,,,,,,,,,,,,,,,,,,,,,,,,295.94347806299993,None,295.94347806299993,None,295.94347806299993,None,g,1,1.2631279050001467,297.47708909599896,None,297.47708909599896,None,297.47708909599896,None,298.7793296150012,None,298.7793296150012,None,298.7793296150012,None,298.7793296150012,None,,,,,,,,,,,,,,,,,,,,,,,,,,,,,,,,,,,,,,,,,,,,001,67,2020_Feb_04_1423,spring_faces,3.1.5,59.93890427455633,
,,,,,,,,,,,,,,,,,,,,,,,,,,,,,,,,,,,,,,,,,,,,,,,,,,,,,,,,,,,,,,,,,,,,,,,,,,,,,,,,,,,,,,,,,,,,,,,,,,,,,,,,300.77671508099957,None,space,6.451164294001501,305.7768909309998,None,,,,,,,,,,,,,,,,,,,,,,,,,,,,,,,,,,,,,,001,67,2020_Feb_04_1423,spring_faces,3.1.5,59.93890427455633,
condition files/Stage1_1.xlsx,,T3,B4,c,"['c', 'm']","['Clue', 'Monopoly']","[-0.15, 0.5]","[0.15, 0.5]",1,1,,,,,,,,,0,0,0,0,0,0,0,5,,,,,,,,,,,,,,,,,,,,,,,,,,,,,,,,,,,,,,,,,,,,,,,,,,,,,,,312.2935019869983,None,312.2935019869983,None,312.2935019869983,None,c,1,3.073529707999114,313.8266442610002,None,313.8266442610002,None,313.8266442610002,None,316.9765896149984,None,316.9765896149984,None,316.9765896149984,None,316.9765896149984,None,,,,,,,305.7768909309998,None,,,,,,,,,,,,,,,,,,,,,,,,,,,,,,,,,,,,001,67,2020_Feb_04_1423,spring_faces,3.1.5,59.93890427455633,
condition files/Stage1_1.xlsx,,B3,T3,c,"['c', 'm']","['Clue', 'Monopoly']","[-0.15, 0.5]","[0.15, 0.5]",1,1,,,,,,,,,0,0,0,0,0,1,1,4,,,,,,,,,,,,,,,,,,,,,,,,,,,,,,,,,,,,,,,,,,,,,,,,,,,,,,,318.92715310399944,None,318.92715310399944,None,318.92715310399944,None,m,0,2.934396728000138,320.4617005559994,None,320.4617005559994,None,320.4617005559994,None,323.45992416100125,None,323.45992416100125,None,323.45992416100125,None,323.45992416100125,None,,,,,,,,,,,,,,,,,,,,,,,,,,,,,,,,,,,,,,,,,,,,001,67,2020_Feb_04_1423,spring_faces,3.1.5,59.93890427455633,
condition files/Stage1_1.xlsx,,T1,B1,c,"['c', 'm']","['Clue', 'Monopoly']","[-0.15, 0.5]","[0.15, 0.5]",1,1,,,,,,,,,0,0,0,0,0,2,2,0,,,,,,,,,,,,,,,,,,,,,,,,,,,,,,,,,,,,,,,,,,,,,,,,,,,,,,,325.4266346330005,None,325.4266346330005,None,325.4266346330005,None,m,0,0.8339788449993648,327.0100516450002,None,327.0100516450002,None,327.0100516450002,None,327.9102979499985,None,327.9102979499985,None,327.9102979499985,None,327.9102979499985,None,,,,,,,,,,,,,,,,,,,,,,,,,,,,,,,,,,,,,,,,,,,,001,67,2020_Feb_04_1423,spring_faces,3.1.5,59.93890427455633,
condition files/Stage1_1.xlsx,,T4,B3,m,"['c', 'm']","['Clue', 'Monopoly']","[-0.15, 0.5]","[0.15, 0.5]",1,1,,,,,,,,,0,0,0,0,0,3,3,6,,,,,,,,,,,,,,,,,,,,,,,,,,,,,,,,,,,,,,,,,,,,,,,,,,,,,,,329.87658435100093,None,329.87658435100093,None,329.87658435100093,None,c,0,0.7694556690003083,331.4266530729983,None,331.4266530729983,None,331.4266530729983,None,332.2626968439981,None,332.2626968439981,None,332.2626968439981,None,332.2626968439981,None,,,,,,,,,,,,,,,,,,,,,,,,,,,,,,,,,,,,,,,,,,,,001,67,2020_Feb_04_1423,spring_faces,3.1.5,59.93890427455633,
condition files/Stage1_1.xlsx,,T2,B2,m,"['c', 'm']","['Clue', 'Monopoly']","[-0.15, 0.5]","[0.15, 0.5]",1,1,,,,,,,,,0,0,0,0,0,4,4,3,,,,,,,,,,,,,,,,,,,,,,,,,,,,,,,,,,,,,,,,,,,,,,,,,,,,,,,334.226658014999,None,334.226658014999,None,334.226658014999,None,c,0,1.2991709119996813,335.76092781899933,None,335.76092781899933,None,335.76092781899933,None,337.1102173580002,None,337.1102173580002,None,337.1102173580002,None,337.1102173580002,None,,,,,,,,,,,,,,,,,,,,,,,,,,,,,,,,,,,,,,,,,,,,001,67,2020_Feb_04_1423,spring_faces,3.1.5,59.93890427455633,
condition files/Stage1_1.xlsx,,B1,T2,c,"['c', 'm']","['Clue', 'Monopoly']","[-0.15, 0.5]","[0.15, 0.5]",1,1,,,,,,,,,0,0,0,0,0,5,5,1,,,,,,,,,,,,,,,,,,,,,,,,,,,,,,,,,,,,,,,,,,,,,,,,,,,,,,,339.0760729450012,None,339.0760729450012,None,339.0760729450012,None,m,0,1.8736110419995384,340.6105631479986,None,340.6105631479986,None,340.6105631479986,None,342.560248578,None,342.560248578,None,342.560248578,None,342.560248578,None,,,,,,,,,,,,,,,,,,,,,,,,,,,,,,,,,,,,,,,,,,,,001,67,2020_Feb_04_1423,spring_faces,3.1.5,59.93890427455633,
condition files/Stage1_1.xlsx,,B2,T1,m,"['c', 'm']","['Clue', 'Monopoly']","[-0.15, 0.5]","[0.15, 0.5]",1,1,,,,,,,,,0,0,0,0,0,6,6,2,,,,,,,,,,,,,,,,,,,,,,,,,,,,,,,,,,,,,,,,,,,,,,,,,,,,,,,344.51000629400005,None,344.51000629400005,None,344.51000629400005,None,c,0,1.0969443549984135,346.04308628299987,None,346.04308628299987,None,346.04308628299987,None,347.19330702599837,None,347.19330702599837,None,347.19330702599837,None,347.19330702599837,None,,,,,,,,,,,,,,,,,,,,,,,,,,,,,,,,,,,,,,,,,,,,001,67,2020_Feb_04_1423,spring_faces,3.1.5,59.93890427455633,
condition files/Stage1_1.xlsx,,B4,T4,m,"['c', 'm']","['Clue', 'Monopoly']","[-0.15, 0.5]","[0.15, 0.5]",1,1,,,,,,,,,0,0,0,0,0,7,7,7,,,,,,,,,,,,,,,,,,,,,,,,,,,,,,,,,,,,,,,,,,,,,,,,,,,,,,,349.15968454099857,None,349.15968454099857,None,349.15968454099857,None,m,1,0.8939146369993978,350.71024188500087,None,350.71024188500087,None,350.71024188500087,None,351.6595840859991,None,351.6595840859991,None,351.6595840859991,None,351.6595840859991,None,,,,,,,,,,,,,,,,,,,,,,,,,,,,,,,,,,,,,,,,,,,,001,67,2020_Feb_04_1423,spring_faces,3.1.5,59.93890427455633,
condition files/Stage1_2.xlsx,,T2,B1,c,"['c', 'm']","['Clue', 'Monopoly']","[-0.15, 0.5]","[0.15, 0.5]",1,1,,,,,,,,,0,1,1,1,0,0,0,1,,,,,,,,,,,,,,,,,,,,,,,,,,,,,,,,,,,,,,,,,,,,,,,,,,,,,,,353.64324403999854,None,353.64324403999854,None,353.64324403999854,None,c,1,1.0172265939982026,355.1788828030003,None,355.1788828030003,None,355.1788828030003,None,356.262432765001,None,356.262432765001,None,356.262432765001,None,356.262432765001,None,,,,,,,,,,,,,,,,,,,,,,,,,,,,,,,,,,,,,,,,,,,,001,67,2020_Feb_04_1423,spring_faces,3.1.5,59.93890427455633,
condition files/Stage1_2.xlsx,,B4,T3,c,"['c', 'm']","['Clue', 'Monopoly']","[-0.15, 0.5]","[0.15, 0.5]",1,1,,,,,,,,,0,1,1,1,0,1,1,5,,,,,,,,,,,,,,,,,,,,,,,,,,,,,,,,,,,,,,,,,,,,,,,,,,,,,,,358.2268320260009,None,358.2268320260009,None,358.2268320260009,None,m,0,0.9466025740002806,359.76149846599947,None,359.76149846599947,None,359.76149846599947,None,360.7594991170008,None,360.7594991170008,None,360.7594991170008,None,360.7594991170008,None,,,,,,,,,,,,,,,,,,,,,,,,,,,,,,,,,,,,,,,,,,,,001,67,2020_Feb_04_1423,spring_faces,3.1.5,59.93890427455633,
condition files/Stage1_2.xlsx,,B3,T4,m,"['c', 'm']","['Clue', 'Monopoly']","[-0.15, 0.5]","[0.15, 0.5]",1,1,,,,,,,,,0,1,1,1,0,2,2,6,,,,,,,,,,,,,,,,,,,,,,,,,,,,,,,,,,,,,,,,,,,,,,,,,,,,,,,362.7266768269983,None,362.7266768269983,None,362.7266768269983,None,c,0,1.7918266169981507,364.2603263659985,None,364.2603263659985,None,364.2603263659985,None,366.1124079069996,None,366.1124079069996,None,366.1124079069996,None,366.1124079069996,None,,,,,,,,,,,,,,,,,,,,,,,,,,,,,,,,,,,,,,,,,,,,001,67,2020_Feb_04_1423,spring_faces,3.1.5,59.93890427455633,
condition files/Stage1_2.xlsx,,T3,B3,c,"['c', 'm']","['Clue', 'Monopoly']","[-0.15, 0.5]","[0.15, 0.5]",1,1,,,,,,,,,0,1,1,1,0,3,3,4,,,,,,,,,,,,,,,,,,,,,,,,,,,,,,,,,,,,,,,,,,,,,,,,,,,,,,,368.07603912799823,None,368.07603912799823,None,368.07603912799823,None,m,0,0.2964944650011603,369.6116012780003,None,369.6116012780003,None,369.6116012780003,None,369.962066707998,None,369.962066707998,None,369.962066707998,None,369.962066707998,None,,,,,,,,,,,,,,,,,,,,,,,,,,,,,,,,,,,,,,,,,,,,001,67,2020_Feb_04_1423,spring_faces,3.1.5,59.93890427455633,
condition files/Stage1_2.xlsx,,B2,T2,m,"['c', 'm']","['Clue', 'Monopoly']","[-0.15, 0.5]","[0.15, 0.5]",1,1,,,,,,,,,0,1,1,1,0,4,4,3,,,,,,,,,,,,,,,,,,,,,,,,,,,,,,,,,,,,,,,,,,,,,,,,,,,,,,,371.9262876590001,None,371.9262876590001,None,371.9262876590001,None,c,0,0.19138824999754434,373.4767666379994,None,373.4767666379994,None,373.4767666379994,None,373.72877721999976,None,373.72877721999976,None,373.72877721999976,None,373.72877721999976,None,,,,,,,,,,,,,,,,,,,,,,,,,,,,,,,,,,,,,,,,,,,,001,67,2020_Feb_04_1423,spring_faces,3.1.5,59.93890427455633,
condition files/Stage1_2.xlsx,,B1,T1,c,"['c', 'm']","['Clue', 'Monopoly']","[-0.15, 0.5]","[0.15, 0.5]",1,1,,,,,,,,,0,1,1,1,0,5,5,0,,,,,,,,,,,,,,,,,,,,,,,,,,,,,,,,,,,,,,,,,,,,,,,,,,,,,,,375.6931121960006,None,375.6931121960006,None,375.6931121960006,None,m,0,0.8564565979977488,377.2277212199988,None,377.2277212199988,None,377.2277212199988,None,378.14478144799796,None,378.14478144799796,None,378.14478144799796,None,378.14478144799796,None,,,,,,,,,,,,,,,,,,,,,,,,,,,,,,,,,,,,,,,,,,,,001,67,2020_Feb_04_1423,spring_faces,3.1.5,59.93890427455633,
condition files/Stage1_2.xlsx,,T4,B4,m,"['c', 'm']","['Clue', 'Monopoly']","[-0.15, 0.5]","[0.15, 0.5]",1,1,,,,,,,,,0,1,1,1,0,6,6,7,,,,,,,,,,,,,,,,,,,,,,,,,,,,,,,,,,,,,,,,,,,,,,,,,,,,,,,380.10939032700117,None,380.10939032700117,None,380.10939032700117,None,m,1,0.808003276000818,381.6601561759999,None,381.6601561759999,None,381.6601561759999,None,382.54331681199983,None,382.54331681199983,None,382.54331681199983,None,382.54331681199983,None,,,,,,,,,,,,,,,,,,,,,,,,,,,,,,,,,,,,,,,,,,,,001,67,2020_Feb_04_1423,spring_faces,3.1.5,59.93890427455633,
condition files/Stage1_2.xlsx,,T1,B2,m,"['c', 'm']","['Clue', 'Monopoly']","[-0.15, 0.5]","[0.15, 0.5]",1,1,,,,,,,,,0,1,1,1,0,7,7,2,,,,,,,,,,,,,,,,,,,,,,,,,,,,,,,,,,,,,,,,,,,,,,,,,,,,,,,384.4927858339979,None,384.4927858339979,None,384.4927858339979,None,c,0,1.6728128909999214,386.02735981799924,None,386.02735981799924,None,386.02735981799924,None,387.76035124600094,None,387.76035124600094,None,387.76035124600094,None,387.76035124600094,None,,,,,,,,,,,,,,,,,,,,,,,,,,,,,,,,,,,,,,,,,,,,001,67,2020_Feb_04_1423,spring_faces,3.1.5,59.93890427455633,
condition files/Stage1_1.xlsx,,B1,T2,c,"['c', 'm']","['Clue', 'Monopoly']","[-0.15, 0.5]","[0.15, 0.5]",1,1,,,,,,,,,0,2,2,2,0,0,0,1,,,,,,,,,,,,,,,,,,,,,,,,,,,,,,,,,,,,,,,,,,,,,,,,,,,,,,,389.7437959150011,None,389.7437959150011,None,389.7437959150011,None,c,1,1.606435114001215,391.293728441,None,391.293728441,None,391.293728441,None,392.96211953799866,None,392.96211953799866,None,392.96211953799866,None,392.96211953799866,None,,,,,,,,,,,,,,,,,,,,,,,,,,,,,,,,,,,,,,,,,,,,001,67,2020_Feb_04_1423,spring_faces,3.1.5,59.93890427455633,
condition files/Stage1_1.xlsx,,B3,T3,c,"['c', 'm']","['Clue', 'Monopoly']","[-0.15, 0.5]","[0.15, 0.5]",1,1,,,,,,,,,0,2,2,2,0,1,1,4,,,,,,,,,,,,,,,,,,,,,,,,,,,,,,,,,,,,,,,,,,,,,,,,,,,,,,,394.9266057019995,None,394.9266057019995,None,394.9266057019995,None,m,0,1.415845695999451,396.47623573799865,None,396.47623573799865,None,396.47623573799865,None,397.94311957600075,None,397.94311957600075,None,397.94311957600075,None,397.94311957600075,None,,,,,,,,,,,,,,,,,,,,,,,,,,,,,,,,,,,,,,,,,,,,001,67,2020_Feb_04_1423,spring_faces,3.1.5,59.93890427455633,
condition files/Stage1_1.xlsx,,T4,B3,m,"['c', 'm']","['Clue', 'Monopoly']","[-0.15, 0.5]","[0.15, 0.5]",1,1,,,,,,,,,0,2,2,2,0,2,2,6,,,,,,,,,,,,,,,,,,,,,,,,,,,,,,,,,,,,,,,,,,,,,,,,,,,,,,,399.91018609800085,None,399.91018609800085,None,399.91018609800085,None,c,0,0.9280864360007399,401.4599762739999,None,401.4599762739999,None,401.4599762739999,None,402.4604213659986,None,402.4604213659986,None,402.4604213659986,None,402.4604213659986,None,,,,,,,,,,,,,,,,,,,,,,,,,,,,,,,,,,,,,,,,,,,,001,67,2020_Feb_04_1423,spring_faces,3.1.5,59.93890427455633,
condition files/Stage1_1.xlsx,,B2,T1,m,"['c', 'm']","['Clue', 'Monopoly']","[-0.15, 0.5]","[0.15, 0.5]",1,1,,,,,,,,,0,2,2,2,0,3,3,2,,,,,,,,,,,,,,,,,,,,,,,,,,,,,,,,,,,,,,,,,,,,,,,,,,,,,,,404.4093362040003,None,404.4093362040003,None,404.4093362040003,None,m,1,0.9079144799979986,405.96023726899875,None,405.96023726899875,None,405.96023726899875,None,406.9269847260002,None,406.9269847260002,None,406.9269847260002,None,406.9269847260002,None,,,,,,,,,,,,,,,,,,,,,,,,,,,,,,,,,,,,,,,,,,,,001,67,2020_Feb_04_1423,spring_faces,3.1.5,59.93890427455633,
condition files/Stage1_1.xlsx,,T3,B4,c,"['c', 'm']","['Clue', 'Monopoly']","[-0.15, 0.5]","[0.15, 0.5]",1,1,,,,,,,,,0,2,2,2,0,4,4,5,,,,,,,,,,,,,,,,,,,,,,,,,,,,,,,,,,,,,,,,,,,,,,,,,,,,,,,408.8929002629993,None,408.8929002629993,None,408.8929002629993,None,m,0,0.968358583002555,410.4436715810007,None,410.4436715810007,None,410.4436715810007,None,411.4793197830004,None,411.4793197830004,None,411.4793197830004,None,411.4793197830004,None,,,,,,,,,,,,,,,,,,,,,,,,,,,,,,,,,,,,,,,,,,,,001,67,2020_Feb_04_1423,spring_faces,3.1.5,59.93890427455633,
condition files/Stage1_1.xlsx,,B4,T4,m,"['c', 'm']","['Clue', 'Monopoly']","[-0.15, 0.5]","[0.15, 0.5]",1,1,,,,,,,,,0,2,2,2,0,5,5,7,,,,,,,,,,,,,,,,,,,,,,,,,,,,,,,,,,,,,,,,,,,,,,,,,,,,,,,413.4433020760007,None,413.4433020760007,None,413.4433020760007,None,m,1,1.0427720180014148,414.99339716100076,None,414.99339716100076,None,414.99339716100076,None,416.09329756700026,None,416.09329756700026,None,416.09329756700026,None,416.09329756700026,None,,,,,,,,,,,,,,,,,,,,,,,,,,,,,,,,,,,,,,,,,,,,001,67,2020_Feb_04_1423,spring_faces,3.1.5,59.93890427455633,
condition files/Stage1_1.xlsx,,T1,B1,c,"['c', 'm']","['Clue', 'Monopoly']","[-0.15, 0.5]","[0.15, 0.5]",1,1,,,,,,,,,0,2,2,2,0,6,6,0,,,,,,,,,,,,,,,,,,,,,,,,,,,,,,,,,,,,,,,,,,,,,,,,,,,,,,,418.0602214520004,None,418.0602214520004,None,418.0602214520004,None,c,1,0.5052897610003129,419.59488410500126,None,419.59488410500126,None,419.59488410500126,None,420.1619044190011,None,420.1619044190011,None,420.1619044190011,None,420.1619044190011,None,,,,,,,,,,,,,,,,,,,,,,,,,,,,,,,,,,,,,,,,,,,,001,67,2020_Feb_04_1423,spring_faces,3.1.5,59.93890427455633,
condition files/Stage1_1.xlsx,,T2,B2,m,"['c', 'm']","['Clue', 'Monopoly']","[-0.15, 0.5]","[0.15, 0.5]",1,1,,,,,,,,,0,2,2,2,0,7,7,3,,,,,,,,,,,,,,,,,,,,,,,,,,,,,,,,,,,,,,,,,,,,,,,,,,,,,,,422.1265379819997,None,422.1265379819997,None,422.1265379819997,None,c,0,1.1580751569999848,423.66208521500084,None,423.66208521500084,None,423.66208521500084,None,424.8788796959998,None,424.8788796959998,None,424.8788796959998,None,424.8788796959998,None,,,,,,,,,,,,,,,,,,,,,,,,,,,,,,,,,,,,,,,,,,,,001,67,2020_Feb_04_1423,spring_faces,3.1.5,59.93890427455633,
condition files/Stage1_2.xlsx,,B1,T1,c,"['c', 'm']","['Clue', 'Monopoly']","[-0.15, 0.5]","[0.15, 0.5]",1,1,,,,,,,,,0,3,3,3,0,0,0,0,,,,,,,,,,,,,,,,,,,,,,,,,,,,,,,,,,,,,,,,,,,,,,,,,,,,,,,426.8599887759992,None,426.8599887759992,None,426.8599887759992,None,c,1,0.7287315499997931,428.39536906599824,None,428.39536906599824,None,428.39536906599824,None,429.1930742129989,None,429.1930742129989,None,429.1930742129989,None,429.1930742129989,None,,,,,,,,,,,,,,,,,,,,,,,,,,,,,,,,,,,,,,,,,,,,001,67,2020_Feb_04_1423,spring_faces,3.1.5,59.93890427455633,
condition files/Stage1_2.xlsx,,T4,B4,m,"['c', 'm']","['Clue', 'Monopoly']","[-0.15, 0.5]","[0.15, 0.5]",1,1,,,,,,,,,0,3,3,3,0,1,1,7,,,,,,,,,,,,,,,,,,,,,,,,,,,,,,,,,,,,,,,,,,,,,,,,,,,,,,,431.14263021900115,None,431.14263021900115,None,431.14263021900115,None,m,1,0.6211159269987547,432.6790386190005,None,432.6790386190005,None,432.6790386190005,None,433.36233753299894,None,433.36233753299894,None,433.36233753299894,None,433.36233753299894,None,,,,,,,,,,,,,,,,,,,,,,,,,,,,,,,,,,,,,,,,,,,,001,67,2020_Feb_04_1423,spring_faces,3.1.5,59.93890427455633,
condition files/Stage1_2.xlsx,,T1,B2,m,"['c', 'm']","['Clue', 'Monopoly']","[-0.15, 0.5]","[0.15, 0.5]",1,1,,,,,,,,,0,3,3,3,0,2,2,2,,,,,,,,,,,,,,,,,,,,,,,,,,,,,,,,,,,,,,,,,,,,,,,,,,,,,,,435.32637688199975,None,435.32637688199975,None,435.32637688199975,None,c,0,0.6964601270010462,436.8596493260011,None,436.8596493260011,None,436.8596493260011,None,437.6098668659979,None,437.6098668659979,None,437.6098668659979,None,437.6098668659979,None,,,,,,,,,,,,,,,,,,,,,,,,,,,,,,,,,,,,,,,,,,,,001,67,2020_Feb_04_1423,spring_faces,3.1.5,59.93890427455633,
condition files/Stage1_2.xlsx,,T2,B1,c,"['c', 'm']","['Clue', 'Monopoly']","[-0.15, 0.5]","[0.15, 0.5]",1,1,,,,,,,,,0,3,3,3,0,3,3,1,,,,,,,,,,,,,,,,,,,,,,,,,,,,,,,,,,,,,,,,,,,,,,,,,,,,,,,439.5761655060014,None,439.5761655060014,None,439.5761655060014,None,m,0,0.3974017590007861,441.1106938310004,None,441.1106938310004,None,441.1106938310004,None,441.5611895410002,None,441.5611895410002,None,441.5611895410002,None,441.5611895410002,None,,,,,,,,,,,,,,,,,,,,,,,,,,,,,,,,,,,,,,,,,,,,001,67,2020_Feb_04_1423,spring_faces,3.1.5,59.93890427455633,
condition files/Stage1_2.xlsx,,B2,T2,m,"['c', 'm']","['Clue', 'Monopoly']","[-0.15, 0.5]","[0.15, 0.5]",1,1,,,,,,,,,0,3,3,3,0,4,4,3,,,,,,,,,,,,,,,,,,,,,,,,,,,,,,,,,,,,,,,,,,,,,,,,,,,,,,,443.5270399539986,None,443.5270399539986,None,443.5270399539986,None,c,0,0.25577820999751566,445.0603267160004,None,445.0603267160004,None,445.0603267160004,None,445.3796912739999,None,445.3796912739999,None,445.3796912739999,None,445.3796912739999,None,,,,,,,,,,,,,,,,,,,,,,,,,,,,,,,,,,,,,,,,,,,,001,67,2020_Feb_04_1423,spring_faces,3.1.5,59.93890427455633,
condition files/Stage1_2.xlsx,,T3,B3,c,"['c', 'm']","['Clue', 'Monopoly']","[-0.15, 0.5]","[0.15, 0.5]",1,1,,,,,,,,,0,3,3,3,0,5,5,4,,,,,,,,,,,,,,,,,,,,,,,,,,,,,,,,,,,,,,,,,,,,,,,,,,,,,,,447.343051232001,None,447.343051232001,None,447.343051232001,None,m,0,0.10251707899806206,448.89357148699855,None,448.89357148699855,None,448.89357148699855,None,449.0617058989992,None,449.0617058989992,None,449.0617058989992,None,449.0617058989992,None,,,,,,,,,,,,,,,,,,,,,,,,,,,,,,,,,,,,,,,,,,,,001,67,2020_Feb_04_1423,spring_faces,3.1.5,59.93890427455633,
condition files/Stage1_2.xlsx,,B4,T3,c,"['c', 'm']","['Clue', 'Monopoly']","[-0.15, 0.5]","[0.15, 0.5]",1,1,,,,,,,,,0,3,3,3,0,6,6,5,,,,,,,,,,,,,,,,,,,,,,,,,,,,,,,,,,,,,,,,,,,,,,,,,,,,,,,451.0266232639988,None,451.0266232639988,None,451.0266232639988,None,m,0,0.05175421799867763,452.5762837080001,None,452.5762837080001,None,452.5762837080001,None,452.6935402349991,None,452.6935402349991,None,452.6935402349991,None,452.6935402349991,None,,,,,,,,,,,,,,,,,,,,,,,,,,,,,,,,,,,,,,,,,,,,001,67,2020_Feb_04_1423,spring_faces,3.1.5,59.93890427455633,
condition files/Stage1_2.xlsx,,B3,T4,m,"['c', 'm']","['Clue', 'Monopoly']","[-0.15, 0.5]","[0.15, 0.5]",1,1,,,,,,,,,0,3,3,3,0,7,7,6,,,,,,,,,,,,,,,,,,,,,,,,,,,,,,,,,,,,,,,,,,,,,,,,,,,,,,,454.65971897800046,None,454.65971897800046,None,454.65971897800046,None,m,1,0.3539143909983977,456.210182887,None,456.210182887,None,456.210182887,None,456.6436612949983,None,456.6436612949983,None,456.6436612949983,None,456.6436612949983,None,,,,,,,,,,,,,,,,,,,,,,,,,,,,,,,,,,,,,,,,,,,,001,67,2020_Feb_04_1423,spring_faces,3.1.5,59.93890427455633,
condition files/Stage1_1.xlsx,,B1,T2,c,"['c', 'm']","['Clue', 'Monopoly']","[-0.15, 0.5]","[0.15, 0.5]",1,1,,,,,,,,,0,4,4,4,0,0,0,1,,,,,,,,,,,,,,,,,,,,,,,,,,,,,,,,,,,,,,,,,,,,,,,,,,,,,,,458.6102013739983,None,458.6102013739983,None,458.6102013739983,None,c,1,0.2283221039979253,460.14378636900074,None,460.14378636900074,None,460.14378636900074,None,460.44347151200054,None,460.44347151200054,None,460.44347151200054,None,460.44347151200054,None,,,,,,,,,,,,,,,,,,,,,,,,,,,,,,,,,,,,,,,,,,,,001,67,2020_Feb_04_1423,spring_faces,3.1.5,59.93890427455633,
condition files/Stage1_1.xlsx,,T3,B4,c,"['c', 'm']","['Clue', 'Monopoly']","[-0.15, 0.5]","[0.15, 0.5]",1,1,,,,,,,,,0,4,4,4,0,1,1,5,,,,,,,,,,,,,,,,,,,,,,,,,,,,,,,,,,,,,,,,,,,,,,,,,,,,,,,462.3925834090005,None,462.3925834090005,None,462.3925834090005,None,m,0,0.013191052999900421,None,None,None,None,None,None,463.97702616099923,None,463.97702616099923,None,463.97702616099923,None,463.97702616099923,None,,,,,,,,,,,,,,,,,,,,,,,,,,,,,,,,,,,,,,,,,,,,001,67,2020_Feb_04_1423,spring_faces,3.1.5,59.93890427455633,
condition files/Stage1_1.xlsx,,T4,B3,m,"['c', 'm']","['Clue', 'Monopoly']","[-0.15, 0.5]","[0.15, 0.5]",1,1,,,,,,,,,0,4,4,4,0,2,2,6,,,,,,,,,,,,,,,,,,,,,,,,,,,,,,,,,,,,,,,,,,,,,,,,,,,,,,,465.9267314159988,None,465.9267314159988,None,465.9267314159988,None,c,0,0.1263691980020667,467.4616760989993,None,467.4616760989993,None,467.4616760989993,None,467.660084187999,None,467.660084187999,None,467.660084187999,None,467.660084187999,None,,,,,,,,,,,,,,,,,,,,,,,,,,,,,,,,,,,,,,,,,,,,001,67,2020_Feb_04_1423,spring_faces,3.1.5,59.93890427455633,
condition files/Stage1_1.xlsx,,B2,T1,m,"['c', 'm']","['Clue', 'Monopoly']","[-0.15, 0.5]","[0.15, 0.5]",1,1,,,,,,,,,0,4,4,4,0,3,3,2,,,,,,,,,,,,,,,,,,,,,,,,,,,,,,,,,,,,,,,,,,,,,,,,,,,,,,,469.609387313998,None,469.609387313998,None,469.609387313998,None,m,1,0.38067905999923823,471.1595716570009,None,471.1595716570009,None,471.1595716570009,None,471.59294747400054,None,471.59294747400054,None,471.59294747400054,None,471.59294747400054,None,,,,,,,,,,,,,,,,,,,,,,,,,,,,,,,,,,,,,,,,,,,,001,67,2020_Feb_04_1423,spring_faces,3.1.5,59.93890427455633,
condition files/Stage1_1.xlsx,,T1,B1,c,"['c', 'm']","['Clue', 'Monopoly']","[-0.15, 0.5]","[0.15, 0.5]",1,1,,,,,,,,,0,4,4,4,0,4,4,0,,,,,,,,,,,,,,,,,,,,,,,,,,,,,,,,,,,,,,,,,,,,,,,,,,,,,,,473.56003279500146,None,473.56003279500146,None,473.56003279500146,None,m,0,0.3332168710003316,475.0948339380011,None,475.0948339380011,None,475.0948339380011,None,475.51022688399826,None,475.51022688399826,None,475.51022688399826,None,475.51022688399826,None,,,,,,,,,,,,,,,,,,,,,,,,,,,,,,,,,,,,,,,,,,,,001,67,2020_Feb_04_1423,spring_faces,3.1.5,59.93890427455633,
condition files/Stage1_1.xlsx,,B4,T4,m,"['c', 'm']","['Clue', 'Monopoly']","[-0.15, 0.5]","[0.15, 0.5]",1,1,,,,,,,,,0,4,4,4,0,5,5,7,,,,,,,,,,,,,,,,,,,,,,,,,,,,,,,,,,,,,,,,,,,,,,,,,,,,,,,477.4603457480007,None,477.4603457480007,None,477.4603457480007,None,c,0,0.32176206700023613,479.0103406419985,None,479.0103406419985,None,479.0103406419985,None,479.3943206010008,None,479.3943206010008,None,479.3943206010008,None,479.3943206010008,None,,,,,,,,,,,,,,,,,,,,,,,,,,,,,,,,,,,,,,,,,,,,001,67,2020_Feb_04_1423,spring_faces,3.1.5,59.93890427455633,
condition files/Stage1_1.xlsx,,T2,B2,m,"['c', 'm']","['Clue', 'Monopoly']","[-0.15, 0.5]","[0.15, 0.5]",1,1,,,,,,,,,0,4,4,4,0,6,6,3,,,,,,,,,,,,,,,,,,,,,,,,,,,,,,,,,,,,,,,,,,,,,,,,,,,,,,,481.36000700799923,None,481.36000700799923,None,481.36000700799923,None,m,1,0.24700540399862803,482.8931297609997,None,482.8931297609997,None,482.8931297609997,None,483.1931648799982,None,483.1931648799982,None,483.1931648799982,None,483.1931648799982,None,,,,,,,,,,,,,,,,,,,,,,,,,,,,,,,,,,,,,,,,,,,,001,67,2020_Feb_04_1423,spring_faces,3.1.5,59.93890427455633,
condition files/Stage1_1.xlsx,,B3,T3,c,"['c', 'm']","['Clue', 'Monopoly']","[-0.15, 0.5]","[0.15, 0.5]",1,1,,,,,,,,,0,4,4,4,0,7,7,4,,,,,,,,,,,,,,,,,,,,,,,,,,,,,,,,,,,,,,,,,,,,,,,,,,,,,,,485.1596528320006,None,485.1596528320006,None,485.1596528320006,None,m,0,0.8463849939980719,486.69389997100006,None,486.69389997100006,None,486.69389997100006,None,487.59474369099917,None,487.59474369099917,None,487.59474369099917,None,487.59474369099917,None,,,,,,,,,,,,,,,,,,,,,,,,,,,,,,,,,,,,,,,,,,,,001,67,2020_Feb_04_1423,spring_faces,3.1.5,59.93890427455633,
condition files/Stage1_2.xlsx,,T3,B3,c,"['c', 'm']","['Clue', 'Monopoly']","[-0.15, 0.5]","[0.15, 0.5]",1,1,,,,,,,,,0,5,5,5,0,0,0,4,,,,,,,,,,,,,,,,,,,,,,,,,,,,,,,,,,,,,,,,,,,,,,,,,,,,,,,489.57692612699975,None,489.57692612699975,None,489.57692612699975,None,c,1,0.2676432810003462,491.11247909699887,None,491.11247909699887,None,491.11247909699887,None,491.4433733699989,None,491.4433733699989,None,491.4433733699989,None,491.4433733699989,None,,,,,,,,,,,,,,,,,,,,,,,,,,,,,,,,,,,,,,,,,,,,001,67,2020_Feb_04_1423,spring_faces,3.1.5,59.93890427455633,
condition files/Stage1_2.xlsx,,T4,B4,m,"['c', 'm']","['Clue', 'Monopoly']","[-0.15, 0.5]","[0.15, 0.5]",1,1,,,,,,,,,0,5,5,5,0,1,1,7,,,,,,,,,,,,,,,,,,,,,,,,,,,,,,,,,,,,,,,,,,,,,,,,,,,,,,,493.4099087399991,None,493.4099087399991,None,493.4099087399991,None,m,1,0.6105838039984519,494.9455279239992,None,494.9455279239992,None,494.9455279239992,None,495.6126299530006,None,495.6126299530006,None,495.6126299530006,None,495.6126299530006,None,,,,,,,,,,,,,,,,,,,,,,,,,,,,,,,,,,,,,,,,,,,,001,67,2020_Feb_04_1423,spring_faces,3.1.5,59.93890427455633,
condition files/Stage1_2.xlsx,,B4,T3,c,"['c', 'm']","['Clue', 'Monopoly']","[-0.15, 0.5]","[0.15, 0.5]",1,1,,,,,,,,,0,5,5,5,0,2,2,5,,,,,,,,,,,,,,,,,,,,,,,,,,,,,,,,,,,,,,,,,,,,,,,,,,,,,,,497.57665847300086,None,497.57665847300086,None,497.57665847300086,None,m,0,0.4766273880013614,499.11143349800113,None,499.11143349800113,None,499.11143349800113,None,499.6459955040009,None,499.6459955040009,None,499.6459955040009,None,499.6459955040009,None,,,,,,,,,,,,,,,,,,,,,,,,,,,,,,,,,,,,,,,,,,,,001,67,2020_Feb_04_1423,spring_faces,3.1.5,59.93890427455633,
condition files/Stage1_2.xlsx,,B3,T4,m,"['c', 'm']","['Clue', 'Monopoly']","[-0.15, 0.5]","[0.15, 0.5]",1,1,,,,,,,,,0,5,5,5,0,3,3,6,,,,,,,,,,,,,,,,,,,,,,,,,,,,,,,,,,,,,,,,,,,,,,,,,,,,,,,501.60965809700065,None,501.60965809700065,None,501.60965809700065,None,c,0,0.3317256689988426,503.1603598649999,None,503.1603598649999,None,503.1603598649999,None,503.560532700998,None,503.560532700998,None,503.560532700998,None,503.560532700998,None,,,,,,,,,,,,,,,,,,,,,,,,,,,,,,,,,,,,,,,,,,,,001,67,2020_Feb_04_1423,spring_faces,3.1.5,59.93890427455633,
condition files/Stage1_2.xlsx,,B1,T1,c,"['c', 'm']","['Clue', 'Monopoly']","[-0.15, 0.5]","[0.15, 0.5]",1,1,,,,,,,,,0,5,5,5,0,4,4,0,,,,,,,,,,,,,,,,,,,,,,,,,,,,,,,,,,,,,,,,,,,,,,,,,,,,,,,505.5095940739993,None,505.5095940739993,None,505.5095940739993,None,m,0,0.20708076499795425,507.0450816099983,None,507.0450816099983,None,507.0450816099983,None,507.311222428998,None,507.311222428998,None,507.311222428998,None,507.311222428998,None,,,,,,,,,,,,,,,,,,,,,,,,,,,,,,,,,,,,,,,,,,,,001,67,2020_Feb_04_1423,spring_faces,3.1.5,59.93890427455633,
condition files/Stage1_2.xlsx,,T2,B1,c,"['c', 'm']","['Clue', 'Monopoly']","[-0.15, 0.5]","[0.15, 0.5]",1,1,,,,,,,,,0,5,5,5,0,5,5,1,,,,,,,,,,,,,,,,,,,,,,,,,,,,,,,,,,,,,,,,,,,,,,,,,,,,,,,509.27608764899924,None,509.27608764899924,None,509.27608764899924,None,c,1,0.009735387000546325,510.8104261449989,None,510.8104261449989,None,510.8104261449989,None,510.8770256579992,None,510.8770256579992,None,510.8770256579992,None,510.8770256579992,None,,,,,,,,,,,,,,,,,,,,,,,,,,,,,,,,,,,,,,,,,,,,001,67,2020_Feb_04_1423,spring_faces,3.1.5,59.93890427455633,
condition files/Stage1_2.xlsx,,T1,B2,m,"['c', 'm']","['Clue', 'Monopoly']","[-0.15, 0.5]","[0.15, 0.5]",1,1,,,,,,,,,0,5,5,5,0,6,6,2,,,,,,,,,,,,,,,,,,,,,,,,,,,,,,,,,,,,,,,,,,,,,,,,,,,,,,,512.8427061699986,None,512.8427061699986,None,512.8427061699986,None,m,1,0.28131316200233414,514.3788047140006,None,514.3788047140006,None,514.3788047140006,None,514.7268797979996,None,514.7268797979996,None,514.7268797979996,None,514.7268797979996,None,,,,,,,,,,,,,,,,,,,,,,,,,,,,,,,,,,,,,,,,,,,,001,67,2020_Feb_04_1423,spring_faces,3.1.5,59.93890427455633,
condition files/Stage1_2.xlsx,,B2,T2,m,"['c', 'm']","['Clue', 'Monopoly']","[-0.15, 0.5]","[0.15, 0.5]",1,1,,,,,,,,,0,5,5,5,0,7,7,3,,,,,,,,,,,,,,,,,,,,,,,,,,,,,,,,,,,,,,,,,,,,,,,,,,,,,,,516.6770313339985,None,516.6770313339985,None,516.6770313339985,None,m,1,0.2896670729969628,518.226488043998,None,518.226488043998,None,518.226488043998,None,518.5770645529992,None,518.5770645529992,None,518.5770645529992,None,518.5770645529992,None,,,,,,,,,,,,,,,,,,,,,,,,,,,,,,,,,,,,,,,,,,,,001,67,2020_Feb_04_1423,spring_faces,3.1.5,59.93890427455633,
condition files/Stage1_1.xlsx,,T3,B4,c,"['c', 'm']","['Clue', 'Monopoly']","[-0.15, 0.5]","[0.15, 0.5]",1,1,,,,,,,,,0,6,6,6,0,0,0,5,,,,,,,,,,,,,,,,,,,,,,,,,,,,,,,,,,,,,,,,,,,,,,,,,,,,,,,520.5606265559982,None,520.5606265559982,None,520.5606265559982,None,m,0,0.038873827001225436,None,None,None,None,None,None,522.1435799089995,None,522.1435799089995,None,522.1435799089995,None,522.1435799089995,None,,,,,,,,,,,,,,,,,,,,,,,,,,,,,,,,,,,,,,,,,,,,001,67,2020_Feb_04_1423,spring_faces,3.1.5,59.93890427455633,
condition files/Stage1_1.xlsx,,T2,B2,m,"['c', 'm']","['Clue', 'Monopoly']","[-0.15, 0.5]","[0.15, 0.5]",1,1,,,,,,,,,0,6,6,6,0,1,1,3,,,,,,,,,,,,,,,,,,,,,,,,,,,,,,,,,,,,,,,,,,,,,,,,,,,,,,,524.0932302529982,None,524.0932302529982,None,524.0932302529982,None,c,0,0.08836891399914748,525.6277961009982,None,525.6277961009982,None,525.6277961009982,None,525.7795171979997,None,525.7795171979997,None,525.7795171979997,None,525.7795171979997,None,,,,,,,,,,,,,,,,,,,,,,,,,,,,,,,,,,,,,,,,,,,,001,67,2020_Feb_04_1423,spring_faces,3.1.5,59.93890427455633,
condition files/Stage1_1.xlsx,,T4,B3,m,"['c', 'm']","['Clue', 'Monopoly']","[-0.15, 0.5]","[0.15, 0.5]",1,1,,,,,,,,,0,6,6,6,0,2,2,6,,,,,,,,,,,,,,,,,,,,,,,,,,,,,,,,,,,,,,,,,,,,,,,,,,,,,,,527.7434230719991,None,527.7434230719991,None,527.7434230719991,None,m,1,0.2943846950001898,529.2936723569983,None,529.2936723569983,None,529.2936723569983,None,529.643786061999,None,529.643786061999,None,529.643786061999,None,529.643786061999,None,,,,,,,,,,,,,,,,,,,,,,,,,,,,,,,,,,,,,,,,,,,,001,67,2020_Feb_04_1423,spring_faces,3.1.5,59.93890427455633,
condition files/Stage1_1.xlsx,,B2,T1,m,"['c', 'm']","['Clue', 'Monopoly']","[-0.15, 0.5]","[0.15, 0.5]",1,1,,,,,,,,,0,6,6,6,0,3,3,2,,,,,,,,,,,,,,,,,,,,,,,,,,,,,,,,,,,,,,,,,,,,,,,,,,,,,,,531.6101090359989,None,531.6101090359989,None,531.6101090359989,None,m,1,0.12284908099900349,533.1453369589981,None,533.1453369589981,None,533.1453369589981,None,533.3271346420006,None,533.3271346420006,None,533.3271346420006,None,533.3271346420006,None,,,,,,,,,,,,,,,,,,,,,,,,,,,,,,,,,,,,,,,,,,,,001,67,2020_Feb_04_1423,spring_faces,3.1.5,59.93890427455633,
condition files/Stage1_1.xlsx,,T1,B1,c,"['c', 'm']","['Clue', 'Monopoly']","[-0.15, 0.5]","[0.15, 0.5]",1,1,,,,,,,,,0,6,6,6,0,4,4,0,,,,,,,,,,,,,,,,,,,,,,,,,,,,,,,,,,,,,,,,,,,,,,,,,,,,,,,535.2930175529982,None,535.2930175529982,None,535.2930175529982,None,m,0,0.31313294999927166,536.8271373099997,None,536.8271373099997,None,536.8271373099997,None,537.1958540699998,None,537.1958540699998,None,537.1958540699998,None,537.1958540699998,None,,,,,,,,,,,,,,,,,,,,,,,,,,,,,,,,,,,,,,,,,,,,001,67,2020_Feb_04_1423,spring_faces,3.1.5,59.93890427455633,
condition files/Stage1_1.xlsx,,B3,T3,c,"['c', 'm']","['Clue', 'Monopoly']","[-0.15, 0.5]","[0.15, 0.5]",1,1,,,,,,,,,0,6,6,6,0,5,5,4,,,,,,,,,,,,,,,,,,,,,,,,,,,,,,,,,,,,,,,,,,,,,,,,,,,,,,,539.159721811,None,539.159721811,None,539.159721811,None,c,1,0.8623552360004396,540.7096965119999,None,540.7096965119999,None,540.7096965119999,None,541.6261786569994,None,541.6261786569994,None,541.6261786569994,None,541.6261786569994,None,,,,,,,,,,,,,,,,,,,,,,,,,,,,,,,,,,,,,,,,,,,,001,67,2020_Feb_04_1423,spring_faces,3.1.5,59.93890427455633,
condition files/Stage1_1.xlsx,,B1,T2,c,"['c', 'm']","['Clue', 'Monopoly']","[-0.15, 0.5]","[0.15, 0.5]",1,1,,,,,,,,,0,6,6,6,0,6,6,1,,,,,,,,,,,,,,,,,,,,,,,,,,,,,,,,,,,,,,,,,,,,,,,,,,,,,,,543.5929837399999,None,543.5929837399999,None,543.5929837399999,None,m,0,0.2996528850017057,545.1284168409984,None,545.1284168409984,None,545.1284168409984,None,545.493162267001,None,545.493162267001,None,545.493162267001,None,545.493162267001,None,,,,,,,,,,,,,,,,,,,,,,,,,,,,,,,,,,,,,,,,,,,,001,67,2020_Feb_04_1423,spring_faces,3.1.5,59.93890427455633,
condition files/Stage1_1.xlsx,,B4,T4,m,"['c', 'm']","['Clue', 'Monopoly']","[-0.15, 0.5]","[0.15, 0.5]",1,1,,,,,,,,,0,6,6,6,0,7,7,7,,,,,,,,,,,,,,,,,,,,,,,,,,,,,,,,,,,,,,,,,,,,,,,,,,,,,,,547.4596650720014,None,547.4596650720014,None,547.4596650720014,None,c,0,0.1450208610003756,548.9953021059991,None,548.9953021059991,None,548.9953021059991,None,549.2101342179994,None,549.2101342179994,None,549.2101342179994,None,549.2101342179994,None,,,,,,,,,,,,,,,,,,,,,,,,,,,,,,,,,,,,,,,,,,,,001,67,2020_Feb_04_1423,spring_faces,3.1.5,59.93890427455633,
condition files/Stage1_2.xlsx,,T2,B1,c,"['c', 'm']","['Clue', 'Monopoly']","[-0.15, 0.5]","[0.15, 0.5]",1,1,,,,,,,,,0,7,7,7,0,0,0,1,,,,,,,,,,,,,,,,,,,,,,,,,,,,,,,,,,,,,,,,,,,,,,,,,,,,,,,551.1770486659989,None,551.1770486659989,None,551.1770486659989,None,m,0,0.4137439349979104,552.7103615579981,None,552.7103615579981,None,552.7103615579981,None,553.1764443770007,None,553.1764443770007,None,553.1764443770007,None,553.1764443770007,None,,,,,,,,,,,,,,,,,,,,,,,,,,,,,,,,,,,,,,,,,,,,001,67,2020_Feb_04_1423,spring_faces,3.1.5,59.93890427455633,
condition files/Stage1_2.xlsx,,B3,T4,m,"['c', 'm']","['Clue', 'Monopoly']","[-0.15, 0.5]","[0.15, 0.5]",1,1,,,,,,,,,0,7,7,7,0,1,1,6,,,,,,,,,,,,,,,,,,,,,,,,,,,,,,,,,,,,,,,,,,,,,,,,,,,,,,,555.1433627000006,None,555.1433627000006,None,555.1433627000006,None,m,1,0.03159845399932237,556.6765066150001,None,556.6765066150001,None,556.6765066150001,None,556.7768816589996,None,556.7768816589996,None,556.7768816589996,None,556.7768816589996,None,,,,,,,,,,,,,,,,,,,,,,,,,,,,,,,,,,,,,,,,,,,,001,67,2020_Feb_04_1423,spring_faces,3.1.5,59.93890427455633,
condition files/Stage1_2.xlsx,,B2,T2,m,"['c', 'm']","['Clue', 'Monopoly']","[-0.15, 0.5]","[0.15, 0.5]",1,1,,,,,,,,,0,7,7,7,0,2,2,3,,,,,,,,,,,,,,,,,,,,,,,,,,,,,,,,,,,,,,,,,,,,,,,,,,,,,,,558.7264162819993,None,558.7264162819993,None,558.7264162819993,None,c,0,0.2538546210016648,560.2622592879998,None,560.2622592879998,None,560.2622592879998,None,560.5771683759995,None,560.5771683759995,None,560.5771683759995,None,560.5771683759995,None,,,,,,,,,,,,,,,,,,,,,,,,,,,,,,,,,,,,,,,,,,,,001,67,2020_Feb_04_1423,spring_faces,3.1.5,59.93890427455633,
condition files/Stage1_2.xlsx,,T4,B4,m,"['c', 'm']","['Clue', 'Monopoly']","[-0.15, 0.5]","[0.15, 0.5]",1,1,,,,,,,,,0,7,7,7,0,3,3,7,,,,,,,,,,,,,,,,,,,,,,,,,,,,,,,,,,,,,,,,,,,,,,,,,,,,,,,562.5433370280007,None,562.5433370280007,None,562.5433370280007,None,m,1,0.5492498180028633,564.0788033329991,None,564.0788033329991,None,564.0788033329991,None,564.6936796400005,None,564.6936796400005,None,564.6936796400005,None,564.6936796400005,None,,,,,,,,,,,,,,,,,,,,,,,,,,,,,,,,,,,,,,,,,,,,001,67,2020_Feb_04_1423,spring_faces,3.1.5,59.93890427455633,
condition files/Stage1_2.xlsx,,B1,T1,c,"['c', 'm']","['Clue', 'Monopoly']","[-0.15, 0.5]","[0.15, 0.5]",1,1,,,,,,,,,0,7,7,7,0,4,4,0,,,,,,,,,,,,,,,,,,,,,,,,,,,,,,,,,,,,,,,,,,,,,,,,,,,,,,,566.6594914109992,None,566.6594914109992,None,566.6594914109992,None,c,1,0.128465691999736,568.1956327160005,None,568.1956327160005,None,568.1956327160005,None,568.3760269779996,None,568.3760269779996,None,568.3760269779996,None,568.3760269779996,None,,,,,,,,,,,,,,,,,,,,,,,,,,,,,,,,,,,,,,,,,,,,001,67,2020_Feb_04_1423,spring_faces,3.1.5,59.93890427455633,
condition files/Stage1_2.xlsx,,B4,T3,c,"['c', 'm']","['Clue', 'Monopoly']","[-0.15, 0.5]","[0.15, 0.5]",1,1,,,,,,,,,0,7,7,7,0,5,5,5,,,,,,,,,,,,,,,,,,,,,,,,,,,,,,,,,,,,,,,,,,,,,,,,,,,,,,,570.3432407949986,None,570.3432407949986,None,570.3432407949986,None,m,0,0.18949243500173907,571.8786664949985,None,571.8786664949985,None,571.8786664949985,None,572.1263520840002,None,572.1263520840002,None,572.1263520840002,None,572.1263520840002,None,,,,,,,,,,,,,,,,,,,,,,,,,,,,,,,,,,,,,,,,,,,,001,67,2020_Feb_04_1423,spring_faces,3.1.5,59.93890427455633,
condition files/Stage1_2.xlsx,,T3,B3,c,"['c', 'm']","['Clue', 'Monopoly']","[-0.15, 0.5]","[0.15, 0.5]",1,1,,,,,,,,,0,7,7,7,0,6,6,4,,,,,,,,,,,,,,,,,,,,,,,,,,,,,,,,,,,,,,,,,,,,,,,,,,,,,,,574.0928605179979,None,574.0928605179979,None,574.0928605179979,None,c,1,0.6170151409969549,575.6270420969995,None,575.6270420969995,None,575.6270420969995,None,576.3103836560003,None,576.3103836560003,None,576.3103836560003,None,576.3103836560003,None,,,,,,,,,,,,,,,,,,,,,,,,,,,,,,,,,,,,,,,,,,,,001,67,2020_Feb_04_1423,spring_faces,3.1.5,59.93890427455633,
condition files/Stage1_2.xlsx,,T1,B2,m,"['c', 'm']","['Clue', 'Monopoly']","[-0.15, 0.5]","[0.15, 0.5]",1,1,,,,,,,,,0,7,7,7,0,7,7,2,,,,,,,,,,,,,,,,,,,,,,,,,,,,,,,,,,,,,,,,,,,,,,,,,,,,,,,578.2767964129998,None,578.2767964129998,None,578.2767964129998,None,m,1,0.3378987239993876,579.8102181610011,None,579.8102181610011,None,579.8102181610011,None,580.2096948399994,None,580.2096948399994,None,580.2096948399994,None,580.2096948399994,None,,,,,,,,,,,,,,,,,,,,,,,,,,,,,,,,,,,,,,,,,,,,001,67,2020_Feb_04_1423,spring_faces,3.1.5,59.93890427455633,
condition files/Stage1_1.xlsx,,T4,B3,m,"['c', 'm']","['Clue', 'Monopoly']","[-0.15, 0.5]","[0.15, 0.5]",1,1,,,,,,,,,0,8,8,8,0,0,0,6,,,,,,,,,,,,,,,,,,,,,,,,,,,,,,,,,,,,,,,,,,,,,,,,,,,,,,,582.193762668001,None,582.193762668001,None,582.193762668001,None,c,0,0.3236715870007174,583.7285030450003,None,583.7285030450003,None,583.7285030450003,None,584.110277718999,None,584.110277718999,None,584.110277718999,None,584.110277718999,None,,,,,,,,,,,,,,,,,,,,,,,,,,,,,,,,,,,,,,,,,,,,001,67,2020_Feb_04_1423,spring_faces,3.1.5,59.93890427455633,
condition files/Stage1_1.xlsx,,B1,T2,c,"['c', 'm']","['Clue', 'Monopoly']","[-0.15, 0.5]","[0.15, 0.5]",1,1,,,,,,,,,0,8,8,8,0,1,1,1,,,,,,,,,,,,,,,,,,,,,,,,,,,,,,,,,,,,,,,,,,,,,,,,,,,,,,,586.0759917629985,None,586.0759917629985,None,586.0759917629985,None,m,0,0.3293503690001671,587.6109612820001,None,587.6109612820001,None,587.6109612820001,None,587.9949508729987,None,587.9949508729987,None,587.9949508729987,None,587.9949508729987,None,,,,,,,,,,,,,,,,,,,,,,,,,,,,,,,,,,,,,,,,,,,,001,67,2020_Feb_04_1423,spring_faces,3.1.5,59.93890427455633,
condition files/Stage1_1.xlsx,,B4,T4,m,"['c', 'm']","['Clue', 'Monopoly']","[-0.15, 0.5]","[0.15, 0.5]",1,1,,,,,,,,,0,8,8,8,0,2,2,7,,,,,,,,,,,,,,,,,,,,,,,,,,,,,,,,,,,,,,,,,,,,,,,,,,,,,,,589.959774682,None,589.959774682,None,589.959774682,None,c,0,0.669472945999587,591.4946464399982,None,591.4946464399982,None,591.4946464399982,None,592.2432271399994,None,592.2432271399994,None,592.2432271399994,None,592.2432271399994,None,,,,,,,,,,,,,,,,,,,,,,,,,,,,,,,,,,,,,,,,,,,,001,67,2020_Feb_04_1423,spring_faces,3.1.5,59.93890427455633,
condition files/Stage1_1.xlsx,,B2,T1,m,"['c', 'm']","['Clue', 'Monopoly']","[-0.15, 0.5]","[0.15, 0.5]",1,1,,,,,,,,,0,8,8,8,0,3,3,2,,,,,,,,,,,,,,,,,,,,,,,,,,,,,,,,,,,,,,,,,,,,,,,,,,,,,,,594.1933312129986,None,594.1933312129986,None,594.1933312129986,None,m,1,0.2289884620004159,595.727124942001,None,595.727124942001,None,595.727124942001,None,596.0104822210014,None,596.0104822210014,None,596.0104822210014,None,596.0104822210014,None,,,,,,,,,,,,,,,,,,,,,,,,,,,,,,,,,,,,,,,,,,,,001,67,2020_Feb_04_1423,spring_faces,3.1.5,59.93890427455633,
condition files/Stage1_1.xlsx,,T2,B2,m,"['c', 'm']","['Clue', 'Monopoly']","[-0.15, 0.5]","[0.15, 0.5]",1,1,,,,,,,,,0,8,8,8,0,4,4,3,,,,,,,,,,,,,,,,,,,,,,,,,,,,,,,,,,,,,,,,,,,,,,,,,,,,,,,597.9766655640015,None,597.9766655640015,None,597.9766655640015,None,c,0,0.6370709669972712,599.5110419890007,None,599.5110419890007,None,599.5110419890007,None,600.2102408680003,None,600.2102408680003,None,600.2102408680003,None,600.2102408680003,None,,,,,,,,,,,,,,,,,,,,,,,,,,,,,,,,,,,,,,,,,,,,001,67,2020_Feb_04_1423,spring_faces,3.1.5,59.93890427455633,
condition files/Stage1_1.xlsx,,T1,B1,c,"['c', 'm']","['Clue', 'Monopoly']","[-0.15, 0.5]","[0.15, 0.5]",1,1,,,,,,,,,0,8,8,8,0,5,5,0,,,,,,,,,,,,,,,,,,,,,,,,,,,,,,,,,,,,,,,,,,,,,,,,,,,,,,,602.1767646250009,None,602.1767646250009,None,602.1767646250009,None,m,0,0.3410818359989207,603.7110925310008,None,603.7110925310008,None,603.7110925310008,None,604.1117611429981,None,604.1117611429981,None,604.1117611429981,None,604.1117611429981,None,,,,,,,,,,,,,,,,,,,,,,,,,,,,,,,,,,,,,,,,,,,,001,67,2020_Feb_04_1423,spring_faces,3.1.5,59.93890427455633,
condition files/Stage1_1.xlsx,,T3,B4,c,"['c', 'm']","['Clue', 'Monopoly']","[-0.15, 0.5]","[0.15, 0.5]",1,1,,,,,,,,,0,8,8,8,0,6,6,5,,,,,,,,,,,,,,,,,,,,,,,,,,,,,,,,,,,,,,,,,,,,,,,,,,,,,,,606.0767058300007,None,606.0767058300007,None,606.0767058300007,None,c,1,1.9782316499986337,607.6098357179981,None,607.6098357179981,None,607.6098357179981,None,609.6431222700012,None,609.6431222700012,None,609.6431222700012,None,609.6431222700012,None,,,,,,,,,,,,,,,,,,,,,,,,,,,,,,,,,,,,,,,,,,,,001,67,2020_Feb_04_1423,spring_faces,3.1.5,59.93890427455633,
condition files/Stage1_1.xlsx,,B3,T3,c,"['c', 'm']","['Clue', 'Monopoly']","[-0.15, 0.5]","[0.15, 0.5]",1,1,,,,,,,,,0,8,8,8,0,7,7,4,,,,,,,,,,,,,,,,,,,,,,,,,,,,,,,,,,,,,,,,,,,,,,,,,,,,,,,611.6099278369984,None,611.6099278369984,None,611.6099278369984,None,m,0,0.3630690069985576,613.1450474560006,None,613.1450474560006,None,613.1450474560006,None,613.559883545,None,613.559883545,None,613.559883545,None,613.559883545,None,,,,,,,,,,,,,,,,,,,,,,,,,,,,,,,,,,,,,,,,,,,,001,67,2020_Feb_04_1423,spring_faces,3.1.5,59.93890427455633,
condition files/Stage1_2.xlsx,,B1,T1,c,"['c', 'm']","['Clue', 'Monopoly']","[-0.15, 0.5]","[0.15, 0.5]",1,1,,,,,,,,,0,9,9,9,0,0,0,0,,,,,,,,,,,,,,,,,,,,,,,,,,,,,,,,,,,,,,,,,,,,,,,,,,,,,,,615.5433618589996,None,615.5433618589996,None,615.5433618589996,None,c,1,0.27133832999970764,617.0767809579993,None,617.0767809579993,None,617.0767809579993,None,617.4104484349991,None,617.4104484349991,None,617.4104484349991,None,617.4104484349991,None,,,,,,,,,,,,,,,,,,,,,,,,,,,,,,,,,,,,,,,,,,,,001,67,2020_Feb_04_1423,spring_faces,3.1.5,59.93890427455633,
condition files/Stage1_2.xlsx,,T2,B1,c,"['c', 'm']","['Clue', 'Monopoly']","[-0.15, 0.5]","[0.15, 0.5]",1,1,,,,,,,,,0,9,9,9,0,1,1,1,,,,,,,,,,,,,,,,,,,,,,,,,,,,,,,,,,,,,,,,,,,,,,,,,,,,,,,619.3759868050001,None,619.3759868050001,None,619.3759868050001,None,c,1,1.0466724690013507,620.9094507500013,None,620.9094507500013,None,620.9094507500013,None,622.0095734899987,None,622.0095734899987,None,622.0095734899987,None,622.0095734899987,None,,,,,,,,,,,,,,,,,,,,,,,,,,,,,,,,,,,,,,,,,,,,001,67,2020_Feb_04_1423,spring_faces,3.1.5,59.93890427455633,
condition files/Stage1_2.xlsx,,B4,T3,c,"['c', 'm']","['Clue', 'Monopoly']","[-0.15, 0.5]","[0.15, 0.5]",1,1,,,,,,,,,0,9,9,9,0,2,2,5,,,,,,,,,,,,,,,,,,,,,,,,,,,,,,,,,,,,,,,,,,,,,,,,,,,,,,,623.9767998550014,None,623.9767998550014,None,623.9767998550014,None,m,0,1.2938297870023234,625.5103552330002,None,625.5103552330002,None,625.5103552330002,None,626.859381975999,None,626.859381975999,None,626.859381975999,None,626.859381975999,None,,,,,,,,,,,,,,,,,,,,,,,,,,,,,,,,,,,,,,,,,,,,001,67,2020_Feb_04_1423,spring_faces,3.1.5,59.93890427455633,
condition files/Stage1_2.xlsx,,T4,B4,m,"['c', 'm']","['Clue', 'Monopoly']","[-0.15, 0.5]","[0.15, 0.5]",1,1,,,,,,,,,0,9,9,9,0,3,3,7,,,,,,,,,,,,,,,,,,,,,,,,,,,,,,,,,,,,,,,,,,,,,,,,,,,,,,,628.8260462850012,None,628.8260462850012,None,628.8260462850012,None,m,1,0.9861895390022255,630.3619411020009,None,630.3619411020009,None,630.3619411020009,None,631.412690969999,None,631.412690969999,None,631.412690969999,None,631.412690969999,None,,,,,,,,,,,,,,,,,,,,,,,,,,,,,,,,,,,,,,,,,,,,001,67,2020_Feb_04_1423,spring_faces,3.1.5,59.93890427455633,
condition files/Stage1_2.xlsx,,B3,T4,m,"['c', 'm']","['Clue', 'Monopoly']","[-0.15, 0.5]","[0.15, 0.5]",1,1,,,,,,,,,0,9,9,9,0,4,4,6,,,,,,,,,,,,,,,,,,,,,,,,,,,,,,,,,,,,,,,,,,,,,,,,,,,,,,,633.3767968510001,None,633.3767968510001,None,633.3767968510001,None,c,0,1.3009538839978632,634.9270872800007,None,634.9270872800007,None,634.9270872800007,None,636.2936149039997,None,636.2936149039997,None,636.2936149039997,None,636.2936149039997,None,,,,,,,,,,,,,,,,,,,,,,,,,,,,,,,,,,,,,,,,,,,,001,67,2020_Feb_04_1423,spring_faces,3.1.5,59.93890427455633,
condition files/Stage1_2.xlsx,,T1,B2,m,"['c', 'm']","['Clue', 'Monopoly']","[-0.15, 0.5]","[0.15, 0.5]",1,1,,,,,,,,,0,9,9,9,0,5,5,2,,,,,,,,,,,,,,,,,,,,,,,,,,,,,,,,,,,,,,,,,,,,,,,,,,,,,,,638.2593516179986,None,638.2593516179986,None,638.2593516179986,None,m,1,0.6588994870035094,639.7932811499995,None,639.7932811499995,None,639.7932811499995,None,640.5103388120006,None,640.5103388120006,None,640.5103388120006,None,640.5103388120006,None,,,,,,,,,,,,,,,,,,,,,,,,,,,,,,,,,,,,,,,,,,,,001,67,2020_Feb_04_1423,spring_faces,3.1.5,59.93890427455633,
condition files/Stage1_2.xlsx,,B2,T2,m,"['c', 'm']","['Clue', 'Monopoly']","[-0.15, 0.5]","[0.15, 0.5]",1,1,,,,,,,,,0,9,9,9,0,6,6,3,,,,,,,,,,,,,,,,,,,,,,,,,,,,,,,,,,,,,,,,,,,,,,,,,,,,,,,642.4761030080008,None,642.4761030080008,None,642.4761030080008,None,c,0,0.26592727699971874,644.0101823590012,None,644.0101823590012,None,644.0101823590012,None,644.3266950889993,None,644.3266950889993,None,644.3266950889993,None,644.3266950889993,None,,,,,,,,,,,,,,,,,,,,,,,,,,,,,,,,,,,,,,,,,,,,001,67,2020_Feb_04_1423,spring_faces,3.1.5,59.93890427455633,
condition files/Stage1_2.xlsx,,T3,B3,c,"['c', 'm']","['Clue', 'Monopoly']","[-0.15, 0.5]","[0.15, 0.5]",1,1,,,,,,,,,0,9,9,9,0,7,7,4,,,,,,,,,,,,,,,,,,,,,,,,,,,,,,,,,,,,,,,,,,,,,,,,,,,,,,,646.2935215449979,None,646.2935215449979,None,646.2935215449979,None,m,0,0.3834428840018518,647.8286678029981,None,647.8286678029981,None,647.8286678029981,None,648.2787315019996,None,648.2787315019996,None,648.2787315019996,None,648.2787315019996,None,,,,,,,,,,,,,,,,,,,,,,,,,,,,,,,,,,,,,,,,,,,,001,67,2020_Feb_04_1423,spring_faces,3.1.5,59.93890427455633,
condition files/Stage1_1.xlsx,,T4,B3,m,"['c', 'm']","['Clue', 'Monopoly']","[-0.15, 0.5]","[0.15, 0.5]",1,1,,,,,,,,,0,10,10,10,0,0,0,6,,,,,,,,,,,,,,,,,,,,,,,,,,,,,,,,,,,,,,,,,,,,,,,,,,,,,,,650.2602275200006,None,650.2602275200006,None,650.2602275200006,None,c,0,0.881871121997392,651.7942455859993,None,651.7942455859993,None,651.7942455859993,None,652.7435142709983,None,652.7435142709983,None,652.7435142709983,None,652.7435142709983,None,,,,,,,,,,,,,,,,,,,,,,,,,,,,,,,,,,,,,,,,,,,,001,67,2020_Feb_04_1423,spring_faces,3.1.5,59.93890427455633,
condition files/Stage1_1.xlsx,,B4,T4,m,"['c', 'm']","['Clue', 'Monopoly']","[-0.15, 0.5]","[0.15, 0.5]",1,1,,,,,,,,,0,10,10,10,0,1,1,7,,,,,,,,,,,,,,,,,,,,,,,,,,,,,,,,,,,,,,,,,,,,,,,,,,,,,,,654.6925281100011,None,654.6925281100011,None,654.6925281100011,None,m,1,0.4171850499988068,656.2428567030001,None,656.2428567030001,None,656.2428567030001,None,656.7101612049992,None,656.7101612049992,None,656.7101612049992,None,656.7101612049992,None,,,,,,,,,,,,,,,,,,,,,,,,,,,,,,,,,,,,,,,,,,,,001,67,2020_Feb_04_1423,spring_faces,3.1.5,59.93890427455633,
condition files/Stage1_1.xlsx,,B1,T2,c,"['c', 'm']","['Clue', 'Monopoly']","[-0.15, 0.5]","[0.15, 0.5]",1,1,,,,,,,,,0,10,10,10,0,2,2,1,,,,,,,,,,,,,,,,,,,,,,,,,,,,,,,,,,,,,,,,,,,,,,,,,,,,,,,658.6768567920008,None,658.6768567920008,None,658.6768567920008,None,c,1,0.4018770750008116,660.2261537189988,None,660.2261537189988,None,660.2261537189988,None,660.6945828429998,None,660.6945828429998,None,660.6945828429998,None,660.6945828429998,None,,,,,,,,,,,,,,,,,,,,,,,,,,,,,,,,,,,,,,,,,,,,001,67,2020_Feb_04_1423,spring_faces,3.1.5,59.93890427455633,
condition files/Stage1_1.xlsx,,T3,B4,c,"['c', 'm']","['Clue', 'Monopoly']","[-0.15, 0.5]","[0.15, 0.5]",1,1,,,,,,,,,0,10,10,10,0,3,3,5,,,,,,,,,,,,,,,,,,,,,,,,,,,,,,,,,,,,,,,,,,,,,,,,,,,,,,,662.6601538329996,None,662.6601538329996,None,662.6601538329996,None,m,0,1.2170034279988613,664.1951068269991,None,664.1951068269991,None,664.1951068269991,None,665.4762007399986,None,665.4762007399986,None,665.4762007399986,None,665.4762007399986,None,,,,,,,,,,,,,,,,,,,,,,,,,,,,,,,,,,,,,,,,,,,,001,67,2020_Feb_04_1423,spring_faces,3.1.5,59.93890427455633,
condition files/Stage1_1.xlsx,,B2,T1,m,"['c', 'm']","['Clue', 'Monopoly']","[-0.15, 0.5]","[0.15, 0.5]",1,1,,,,,,,,,0,10,10,10,0,4,4,2,,,,,,,,,,,,,,,,,,,,,,,,,,,,,,,,,,,,,,,,,,,,,,,,,,,,,,,667.4429358369998,None,667.4429358369998,None,667.4429358369998,None,c,0,0.33851421600047615,668.9935769830008,None,668.9935769830008,None,668.9935769830008,None,669.3961911359984,None,669.3961911359984,None,669.3961911359984,None,669.3961911359984,None,,,,,,,,,,,,,,,,,,,,,,,,,,,,,,,,,,,,,,,,,,,,001,67,2020_Feb_04_1423,spring_faces,3.1.5,59.93890427455633,
condition files/Stage1_1.xlsx,,B3,T3,c,"['c', 'm']","['Clue', 'Monopoly']","[-0.15, 0.5]","[0.15, 0.5]",1,1,,,,,,,,,0,10,10,10,0,5,5,4,,,,,,,,,,,,,,,,,,,,,,,,,,,,,,,,,,,,,,,,,,,,,,,,,,,,,,,671.3599335250001,None,671.3599335250001,None,671.3599335250001,None,m,0,0.6459578959984356,672.9101418350001,None,672.9101418350001,None,672.9101418350001,None,673.6098792749981,None,673.6098792749981,None,673.6098792749981,None,673.6098792749981,None,,,,,,,,,,,,,,,,,,,,,,,,,,,,,,,,,,,,,,,,,,,,001,67,2020_Feb_04_1423,spring_faces,3.1.5,59.93890427455633,
condition files/Stage1_1.xlsx,,T1,B1,c,"['c', 'm']","['Clue', 'Monopoly']","[-0.15, 0.5]","[0.15, 0.5]",1,1,,,,,,,,,0,10,10,10,0,6,6,0,,,,,,,,,,,,,,,,,,,,,,,,,,,,,,,,,,,,,,,,,,,,,,,,,,,,,,,675.5764393669997,None,675.5764393669997,None,675.5764393669997,None,c,1,0.2542553189996397,677.109861388999,None,677.109861388999,None,677.109861388999,None,677.4267252690006,None,677.4267252690006,None,677.4267252690006,None,677.4267252690006,None,,,,,,,,,,,,,,,,,,,,,,,,,,,,,,,,,,,,,,,,,,,,001,67,2020_Feb_04_1423,spring_faces,3.1.5,59.93890427455633,
condition files/Stage1_1.xlsx,,T2,B2,m,"['c', 'm']","['Clue', 'Monopoly']","[-0.15, 0.5]","[0.15, 0.5]",1,1,,,,,,,,,0,10,10,10,0,7,7,3,,,,,,,,,,,,,,,,,,,,,,,,,,,,,,,,,,,,,,,,,,,,,,,,,,,,,,,679.3933405499993,None,679.3933405499993,None,679.3933405499993,None,c,0,1.1086880639995798,680.9434922369983,None,680.9434922369983,None,680.9434922369983,None,682.1106006480004,None,682.1106006480004,None,682.1106006480004,None,682.1106006480004,None,,,,,,,,,,,,,,,,,,,,,,,,,,,,,,,,,,,,,,,,,,,,001,67,2020_Feb_04_1423,spring_faces,3.1.5,59.93890427455633,
condition files/Stage1_2.xlsx,,B4,T3,c,"['c', 'm']","['Clue', 'Monopoly']","[-0.15, 0.5]","[0.15, 0.5]",1,1,,,,,,,,,0,11,11,11,0,0,0,5,,,,,,,,,,,,,,,,,,,,,,,,,,,,,,,,,,,,,,,,,,,,,,,,,,,,,,,684.0933130810008,None,684.0933130810008,None,684.0933130810008,None,m,0,0.3598607019994233,685.6282339380014,None,685.6282339380014,None,685.6282339380014,None,686.0597503719982,None,686.0597503719982,None,686.0597503719982,None,686.0597503719982,None,,,,,,,,,,,,,,,,,,,,,,,,,,,,,,,,,,,,,,,,,,,,001,67,2020_Feb_04_1423,spring_faces,3.1.5,59.93890427455633,
condition files/Stage1_2.xlsx,,B3,T4,m,"['c', 'm']","['Clue', 'Monopoly']","[-0.15, 0.5]","[0.15, 0.5]",1,1,,,,,,,,,0,11,11,11,0,1,1,6,,,,,,,,,,,,,,,,,,,,,,,,,,,,,,,,,,,,,,,,,,,,,,,,,,,,,,,688.0099383339984,None,688.0099383339984,None,688.0099383339984,None,c,0,0.923473278999154,689.560687833,None,689.560687833,None,689.560687833,None,690.5606543850008,None,690.5606543850008,None,690.5606543850008,None,690.5606543850008,None,,,,,,,,,,,,,,,,,,,,,,,,,,,,,,,,,,,,,,,,,,,,001,67,2020_Feb_04_1423,spring_faces,3.1.5,59.93890427455633,
condition files/Stage1_2.xlsx,,B1,T1,c,"['c', 'm']","['Clue', 'Monopoly']","[-0.15, 0.5]","[0.15, 0.5]",1,1,,,,,,,,,0,11,11,11,0,2,2,0,,,,,,,,,,,,,,,,,,,,,,,,,,,,,,,,,,,,,,,,,,,,,,,,,,,,,,,692.509339477001,None,692.509339477001,None,692.509339477001,None,c,1,0.7764346709991514,694.0437223139998,None,694.0437223139998,None,694.0437223139998,None,694.877156909999,None,694.877156909999,None,694.877156909999,None,694.877156909999,None,,,,,,,,,,,,,,,,,,,,,,,,,,,,,,,,,,,,,,,,,,,,001,67,2020_Feb_04_1423,spring_faces,3.1.5,59.93890427455633,
condition files/Stage1_2.xlsx,,T2,B1,c,"['c', 'm']","['Clue', 'Monopoly']","[-0.15, 0.5]","[0.15, 0.5]",1,1,,,,,,,,,0,11,11,11,0,3,3,1,,,,,,,,,,,,,,,,,,,,,,,,,,,,,,,,,,,,,,,,,,,,,,,,,,,,,,,696.842733808,None,696.842733808,None,696.842733808,None,c,1,0.37915705700288527,698.376955871001,None,698.376955871001,None,698.376955871001,None,698.8102491540012,None,698.8102491540012,None,698.8102491540012,None,698.8102491540012,None,,,,,,,,,,,,,,,,,,,,,,,,,,,,,,,,,,,,,,,,,,,,001,67,2020_Feb_04_1423,spring_faces,3.1.5,59.93890427455633,
condition files/Stage1_2.xlsx,,T3,B3,c,"['c', 'm']","['Clue', 'Monopoly']","[-0.15, 0.5]","[0.15, 0.5]",1,1,,,,,,,,,0,11,11,11,0,4,4,4,,,,,,,,,,,,,,,,,,,,,,,,,,,,,,,,,,,,,,,,,,,,,,,,,,,,,,,700.7763526669987,None,700.7763526669987,None,700.7763526669987,None,c,1,1.2130345330006094,702.3110838040011,None,702.3110838040011,None,702.3110838040011,None,703.5771665370012,None,703.5771665370012,None,703.5771665370012,None,703.5771665370012,None,,,,,,,,,,,,,,,,,,,,,,,,,,,,,,,,,,,,,,,,,,,,001,67,2020_Feb_04_1423,spring_faces,3.1.5,59.93890427455633,
condition files/Stage1_2.xlsx,,T1,B2,m,"['c', 'm']","['Clue', 'Monopoly']","[-0.15, 0.5]","[0.15, 0.5]",1,1,,,,,,,,,0,11,11,11,0,5,5,2,,,,,,,,,,,,,,,,,,,,,,,,,,,,,,,,,,,,,,,,,,,,,,,,,,,,,,,705.5431339649986,None,705.5431339649986,None,705.5431339649986,None,c,0,0.7186552200000733,707.0934375659999,None,707.0934375659999,None,707.0934375659999,None,707.8765162669988,None,707.8765162669988,None,707.8765162669988,None,707.8765162669988,None,,,,,,,,,,,,,,,,,,,,,,,,,,,,,,,,,,,,,,,,,,,,001,67,2020_Feb_04_1423,spring_faces,3.1.5,59.93890427455633,
condition files/Stage1_2.xlsx,,B2,T2,m,"['c', 'm']","['Clue', 'Monopoly']","[-0.15, 0.5]","[0.15, 0.5]",1,1,,,,,,,,,0,11,11,11,0,6,6,3,,,,,,,,,,,,,,,,,,,,,,,,,,,,,,,,,,,,,,,,,,,,,,,,,,,,,,,709.8433250870003,None,709.8433250870003,None,709.8433250870003,None,c,0,0.9777984309985186,711.3783187010013,None,711.3783187010013,None,711.3783187010013,None,712.4102684969985,None,712.4102684969985,None,712.4102684969985,None,712.4102684969985,None,,,,,,,,,,,,,,,,,,,,,,,,,,,,,,,,,,,,,,,,,,,,001,67,2020_Feb_04_1423,spring_faces,3.1.5,59.93890427455633,
condition files/Stage1_2.xlsx,,T4,B4,m,"['c', 'm']","['Clue', 'Monopoly']","[-0.15, 0.5]","[0.15, 0.5]",1,1,,,,,,,,,0,11,11,11,0,7,7,7,,,,,,,,,,,,,,,,,,,,,,,,,,,,,,,,,,,,,,,,,,,,,,,,,,,,,,,714.3760301959992,None,714.3760301959992,None,714.3760301959992,None,m,1,1.918375119999837,715.9097055050006,None,715.9097055050006,None,715.9097055050006,None,717.8937545769986,None,717.8937545769986,None,717.8937545769986,None,717.8937545769986,None,,,,,,,,,,,,,,,,,,,,,,,,,,,,,,,,,,,,,,,,,,,,001,67,2020_Feb_04_1423,spring_faces,3.1.5,59.93890427455633,
,,,,,,,,,,,,,,,,,,,,,,,,,,,,,,,,,,,,,,,,,,,,,,,,,,,,,,,,,,,,,,,,,,,,,,,,,,,,,,,,,,,,,,,,,,,,,,,,,,,,,,,,,,,,,,,,719.8769095520001,None,space,12.535395254999457,724.8766463200009,None,,,,,,,,,,,,,,,,,,,,,,,,,,,,,,001,67,2020_Feb_04_1423,spring_faces,3.1.5,59.93890427455633,
condition files/Stage2_1.xlsx,,B4,T4,r,"['s', 'r']","['Stratego', 'Risk']","[-0.15, 0.5]","[0.15, 0.5]",1,1,,,,,,,,,,,,,,,,,0,0,0,0,0,0,0,5,,,,,,,,,,,,,,,,,,,,,,,,,,,,,,,,,,,,,,,,,,,,,,,737.476960461001,None,737.476960461001,None,737.476960461001,None,r,1,0.9621387699990009,739.009954557001,None,739.009954557001,None,739.009954557001,None,740.0435124379983,None,740.0435124379983,None,740.0435124379983,None,740.0435124379983,None,,,,,,,,,,,,,,,724.8766463200009,None,,,,,,,,,,,,,,,,,,,,,,,,,,,,001,67,2020_Feb_04_1423,spring_faces,3.1.5,59.93890427455633,
condition files/Stage2_1.xlsx,,B6,T6,r,"['s', 'r']","['Stratego', 'Risk']","[-0.15, 0.5]","[0.15, 0.5]",1,1,,,,,,,,,,,,,,,,,0,0,0,0,0,1,1,1,,,,,,,,,,,,,,,,,,,,,,,,,,,,,,,,,,,,,,,,,,,,,,,741.9932448840009,None,741.9932448840009,None,741.9932448840009,None,r,1,0.9882474129990442,743.5438507020008,None,743.5438507020008,None,743.5438507020008,None,744.594204003999,None,744.594204003999,None,744.594204003999,None,744.594204003999,None,,,,,,,,,,,,,,,,,,,,,,,,,,,,,,,,,,,,,,,,,,,,001,67,2020_Feb_04_1423,spring_faces,3.1.5,59.93890427455633,
condition files/Stage2_1.xlsx,,T5,B5,s,"['s', 'r']","['Stratego', 'Risk']","[-0.15, 0.5]","[0.15, 0.5]",1,1,,,,,,,,,,,,,,,,,0,0,0,0,0,2,2,0,,,,,,,,,,,,,,,,,,,,,,,,,,,,,,,,,,,,,,,,,,,,,,,746.5599625979994,None,746.5599625979994,None,746.5599625979994,None,s,1,1.6527708369976608,748.0953349929987,None,748.0953349929987,None,748.0953349929987,None,749.8270969109981,None,749.8270969109981,None,749.8270969109981,None,749.8270969109981,None,,,,,,,,,,,,,,,,,,,,,,,,,,,,,,,,,,,,,,,,,,,,001,67,2020_Feb_04_1423,spring_faces,3.1.5,59.93890427455633,
condition files/Stage2_1.xlsx,,T3,B3,s,"['s', 'r']","['Stratego', 'Risk']","[-0.15, 0.5]","[0.15, 0.5]",1,1,,,,,,,,,,,,,,,,,0,0,0,0,0,3,3,4,,,,,,,,,,,,,,,,,,,,,,,,,,,,,,,,,,,,,,,,,,,,,,,751.7766511519985,None,751.7766511519985,None,751.7766511519985,None,r,0,0.9645937489985954,753.3115214680001,None,753.3115214680001,None,753.3115214680001,None,754.3270532290007,None,754.3270532290007,None,754.3270532290007,None,754.3270532290007,None,,,,,,,,,,,,,,,,,,,,,,,,,,,,,,,,,,,,,,,,,,,,001,67,2020_Feb_04_1423,spring_faces,3.1.5,59.93890427455633,
condition files/Stage2_1.xlsx,,B2,T2,r,"['s', 'r']","['Stratego', 'Risk']","[-0.15, 0.5]","[0.15, 0.5]",1,1,,,,,,,,,,,,,,,,,0,0,0,0,0,4,4,3,,,,,,,,,,,,,,,,,,,,,,,,,,,,,,,,,,,,,,,,,,,,,,,756.2931873749985,None,756.2931873749985,None,756.2931873749985,None,s,0,1.2337602860025072,757.826363229,None,757.826363229,None,757.826363229,None,759.1121892150004,None,759.1121892150004,None,759.1121892150004,None,759.1121892150004,None,,,,,,,,,,,,,,,,,,,,,,,,,,,,,,,,,,,,,,,,,,,,001,67,2020_Feb_04_1423,spring_faces,3.1.5,59.93890427455633,
condition files/Stage2_1.xlsx,,T1,B1,s,"['s', 'r']","['Stratego', 'Risk']","[-0.15, 0.5]","[0.15, 0.5]",1,1,,,,,,,,,,,,,,,,,0,0,0,0,0,5,5,2,,,,,,,,,,,,,,,,,,,,,,,,,,,,,,,,,,,,,,,,,,,,,,,761.0765117109986,None,761.0765117109986,None,761.0765117109986,None,r,0,0.6103489470006025,762.6098105419987,None,762.6098105419987,None,762.6098105419987,None,763.2934806820012,None,763.2934806820012,None,763.2934806820012,None,763.2934806820012,None,,,,,,,,,,,,,,,,,,,,,,,,,,,,,,,,,,,,,,,,,,,,001,67,2020_Feb_04_1423,spring_faces,3.1.5,59.93890427455633,
condition files/Stage2_2.xlsx,,T6,B6,r,"['s', 'r']","['Stratego', 'Risk']","[-0.15, 0.5]","[0.15, 0.5]",1,1,,,,,,,,,,,,,,,,,0,1,1,1,0,0,0,1,,,,,,,,,,,,,,,,,,,,,,,,,,,,,,,,,,,,,,,,,,,,,,,765.2602925179999,None,765.2602925179999,None,765.2602925179999,None,s,0,0.28205885699935607,766.7940477669981,None,766.7940477669981,None,766.7940477669981,None,767.1438606839984,None,767.1438606839984,None,767.1438606839984,None,767.1438606839984,None,,,,,,,,,,,,,,,,,,,,,,,,,,,,,,,,,,,,,,,,,,,,001,67,2020_Feb_04_1423,spring_faces,3.1.5,59.93890427455633,
condition files/Stage2_2.xlsx,,T2,B2,r,"['s', 'r']","['Stratego', 'Risk']","[-0.15, 0.5]","[0.15, 0.5]",1,1,,,,,,,,,,,,,,,,,0,1,1,1,0,1,1,3,,,,,,,,,,,,,,,,,,,,,,,,,,,,,,,,,,,,,,,,,,,,,,,769.0931073249994,None,769.0931073249994,None,769.0931073249994,None,r,1,0.24131422299979022,770.6428419119984,None,770.6428419119984,None,770.6428419119984,None,770.9433775840007,None,770.9433775840007,None,770.9433775840007,None,770.9433775840007,None,,,,,,,,,,,,,,,,,,,,,,,,,,,,,,,,,,,,,,,,,,,,001,67,2020_Feb_04_1423,spring_faces,3.1.5,59.93890427455633,
condition files/Stage2_2.xlsx,,B1,T1,s,"['s', 'r']","['Stratego', 'Risk']","[-0.15, 0.5]","[0.15, 0.5]",1,1,,,,,,,,,,,,,,,,,0,1,1,1,0,2,2,2,,,,,,,,,,,,,,,,,,,,,,,,,,,,,,,,,,,,,,,,,,,,,,,772.9100866879999,None,772.9100866879999,None,772.9100866879999,None,r,0,0.5998869399991236,774.4602051849979,None,774.4602051849979,None,774.4602051849979,None,775.1269507959987,None,775.1269507959987,None,775.1269507959987,None,775.1269507959987,None,,,,,,,,,,,,,,,,,,,,,,,,,,,,,,,,,,,,,,,,,,,,001,67,2020_Feb_04_1423,spring_faces,3.1.5,59.93890427455633,
condition files/Stage2_2.xlsx,,T4,B4,r,"['s', 'r']","['Stratego', 'Risk']","[-0.15, 0.5]","[0.15, 0.5]",1,1,,,,,,,,,,,,,,,,,0,1,1,1,0,3,3,5,,,,,,,,,,,,,,,,,,,,,,,,,,,,,,,,,,,,,,,,,,,,,,,777.076096241999,None,777.076096241999,None,777.076096241999,None,r,1,0.7194586639998306,778.612666437999,None,778.612666437999,None,778.612666437999,None,779.393743411998,None,779.393743411998,None,779.393743411998,None,779.393743411998,None,,,,,,,,,,,,,,,,,,,,,,,,,,,,,,,,,,,,,,,,,,,,001,67,2020_Feb_04_1423,spring_faces,3.1.5,59.93890427455633,
condition files/Stage2_2.xlsx,,B3,T3,s,"['s', 'r']","['Stratego', 'Risk']","[-0.15, 0.5]","[0.15, 0.5]",1,1,,,,,,,,,,,,,,,,,0,1,1,1,0,4,4,4,,,,,,,,,,,,,,,,,,,,,,,,,,,,,,,,,,,,,,,,,,,,,,,781.3601693729979,None,781.3601693729979,None,781.3601693729979,None,s,1,0.2289830070003518,782.8951190000007,None,782.8951190000007,None,782.8951190000007,None,783.178668610999,None,783.178668610999,None,783.178668610999,None,783.178668610999,None,,,,,,,,,,,,,,,,,,,,,,,,,,,,,,,,,,,,,,,,,,,,001,67,2020_Feb_04_1423,spring_faces,3.1.5,59.93890427455633,
condition files/Stage2_2.xlsx,,B5,T5,s,"['s', 'r']","['Stratego', 'Risk']","[-0.15, 0.5]","[0.15, 0.5]",1,1,,,,,,,,,,,,,,,,,0,1,1,1,0,5,5,0,,,,,,,,,,,,,,,,,,,,,,,,,,,,,,,,,,,,,,,,,,,,,,,785.1434868110009,None,785.1434868110009,None,785.1434868110009,None,s,1,0.27128665300188004,786.6768335749985,None,786.6768335749985,None,786.6768335749985,None,787.0102719429997,None,787.0102719429997,None,787.0102719429997,None,787.0102719429997,None,,,,,,,,,,,,,,,,,,,,,,,,,,,,,,,,,,,,,,,,,,,,001,67,2020_Feb_04_1423,spring_faces,3.1.5,59.93890427455633,
condition files/Stage2_1.xlsx,,T3,B3,s,"['s', 'r']","['Stratego', 'Risk']","[-0.15, 0.5]","[0.15, 0.5]",1,1,,,,,,,,,,,,,,,,,0,2,2,2,0,0,0,4,,,,,,,,,,,,,,,,,,,,,,,,,,,,,,,,,,,,,,,,,,,,,,,788.99321538,None,788.99321538,None,788.99321538,None,r,0,0.3240342659992166,790.5281625520001,None,790.5281625520001,None,790.5281625520001,None,790.9098171240003,None,790.9098171240003,None,790.9098171240003,None,790.9098171240003,None,,,,,,,,,,,,,,,,,,,,,,,,,,,,,,,,,,,,,,,,,,,,001,67,2020_Feb_04_1423,spring_faces,3.1.5,59.93890427455633,
condition files/Stage2_1.xlsx,,B6,T6,r,"['s', 'r']","['Stratego', 'Risk']","[-0.15, 0.5]","[0.15, 0.5]",1,1,,,,,,,,,,,,,,,,,0,2,2,2,0,1,1,1,,,,,,,,,,,,,,,,,,,,,,,,,,,,,,,,,,,,,,,,,,,,,,,792.876726227998,None,792.876726227998,None,792.876726227998,None,r,1,0.21617100499861408,794.4119590160008,None,794.4119590160008,None,794.4119590160008,None,794.7101322859999,None,794.7101322859999,None,794.7101322859999,None,794.7101322859999,None,,,,,,,,,,,,,,,,,,,,,,,,,,,,,,,,,,,,,,,,,,,,001,67,2020_Feb_04_1423,spring_faces,3.1.5,59.93890427455633,
condition files/Stage2_1.xlsx,,B2,T2,r,"['s', 'r']","['Stratego', 'Risk']","[-0.15, 0.5]","[0.15, 0.5]",1,1,,,,,,,,,,,,,,,,,0,2,2,2,0,2,2,3,,,,,,,,,,,,,,,,,,,,,,,,,,,,,,,,,,,,,,,,,,,,,,,796.6599857600013,None,796.6599857600013,None,796.6599857600013,None,s,0,0.8017861740008811,798.210313765001,None,798.210313765001,None,798.210313765001,None,799.0769569920012,None,799.0769569920012,None,799.0769569920012,None,799.0769569920012,None,,,,,,,,,,,,,,,,,,,,,,,,,,,,,,,,,,,,,,,,,,,,001,67,2020_Feb_04_1423,spring_faces,3.1.5,59.93890427455633,
condition files/Stage2_1.xlsx,,T5,B5,s,"['s', 'r']","['Stratego', 'Risk']","[-0.15, 0.5]","[0.15, 0.5]",1,1,,,,,,,,,,,,,,,,,0,2,2,2,0,3,3,0,,,,,,,,,,,,,,,,,,,,,,,,,,,,,,,,,,,,,,,,,,,,,,,801.0427794419993,None,801.0427794419993,None,801.0427794419993,None,r,0,2.193931268000597,802.578148853001,None,802.578148853001,None,802.578148853001,None,804.8435285499982,None,804.8435285499982,None,804.8435285499982,None,804.8435285499982,None,,,,,,,,,,,,,,,,,,,,,,,,,,,,,,,,,,,,,,,,,,,,001,67,2020_Feb_04_1423,spring_faces,3.1.5,59.93890427455633,
condition files/Stage2_1.xlsx,,T1,B1,s,"['s', 'r']","['Stratego', 'Risk']","[-0.15, 0.5]","[0.15, 0.5]",1,1,,,,,,,,,,,,,,,,,0,2,2,2,0,4,4,2,,,,,,,,,,,,,,,,,,,,,,,,,,,,,,,,,,,,,,,,,,,,,,,806.792957742,None,806.792957742,None,806.792957742,None,s,1,0.7162652849983715,808.3437748010001,None,808.3437748010001,None,808.3437748010001,None,809.1101159380014,None,809.1101159380014,None,809.1101159380014,None,809.1101159380014,None,,,,,,,,,,,,,,,,,,,,,,,,,,,,,,,,,,,,,,,,,,,,001,67,2020_Feb_04_1423,spring_faces,3.1.5,59.93890427455633,
condition files/Stage2_1.xlsx,,B4,T4,r,"['s', 'r']","['Stratego', 'Risk']","[-0.15, 0.5]","[0.15, 0.5]",1,1,,,,,,,,,,,,,,,,,0,2,2,2,0,5,5,5,,,,,,,,,,,,,,,,,,,,,,,,,,,,,,,,,,,,,,,,,,,,,,,811.0764611009981,None,811.0764611009981,None,811.0764611009981,None,r,1,1.1382047160004731,812.6099230479995,None,812.6099230479995,None,812.6099230479995,None,813.8270525679982,None,813.8270525679982,None,813.8270525679982,None,813.8270525679982,None,,,,,,,,,,,,,,,,,,,,,,,,,,,,,,,,,,,,,,,,,,,,001,67,2020_Feb_04_1423,spring_faces,3.1.5,59.93890427455633,
condition files/Stage2_2.xlsx,,T2,B2,r,"['s', 'r']","['Stratego', 'Risk']","[-0.15, 0.5]","[0.15, 0.5]",1,1,,,,,,,,,,,,,,,,,0,3,3,3,0,0,0,3,,,,,,,,,,,,,,,,,,,,,,,,,,,,,,,,,,,,,,,,,,,,,,,815.7939770900011,None,815.7939770900011,None,815.7939770900011,None,s,0,0.8368760779994773,817.3272567929998,None,817.3272567929998,None,817.3272567929998,None,818.2269477469999,None,818.2269477469999,None,818.2269477469999,None,818.2269477469999,None,,,,,,,,,,,,,,,,,,,,,,,,,,,,,,,,,,,,,,,,,,,,001,67,2020_Feb_04_1423,spring_faces,3.1.5,59.93890427455633,
condition files/Stage2_2.xlsx,,B5,T5,s,"['s', 'r']","['Stratego', 'Risk']","[-0.15, 0.5]","[0.15, 0.5]",1,1,,,,,,,,,,,,,,,,,0,3,3,3,0,1,1,0,,,,,,,,,,,,,,,,,,,,,,,,,,,,,,,,,,,,,,,,,,,,,,,820.1932016469982,None,820.1932016469982,None,820.1932016469982,None,r,0,0.8029110700008459,821.7292213440014,None,821.7292213440014,None,821.7292213440014,None,822.5933046989994,None,822.5933046989994,None,822.5933046989994,None,822.5933046989994,None,,,,,,,,,,,,,,,,,,,,,,,,,,,,,,,,,,,,,,,,,,,,001,67,2020_Feb_04_1423,spring_faces,3.1.5,59.93890427455633,
condition files/Stage2_2.xlsx,,T6,B6,r,"['s', 'r']","['Stratego', 'Risk']","[-0.15, 0.5]","[0.15, 0.5]",1,1,,,,,,,,,,,,,,,,,0,3,3,3,0,2,2,1,,,,,,,,,,,,,,,,,,,,,,,,,,,,,,,,,,,,,,,,,,,,,,,824.5593959360012,None,824.5593959360012,None,824.5593959360012,None,s,0,0.5337602110012085,826.0942971469995,None,826.0942971469995,None,826.0942971469995,None,826.7104020429979,None,826.7104020429979,None,826.7104020429979,None,826.7104020429979,None,,,,,,,,,,,,,,,,,,,,,,,,,,,,,,,,,,,,,,,,,,,,001,67,2020_Feb_04_1423,spring_faces,3.1.5,59.93890427455633,
condition files/Stage2_2.xlsx,,B1,T1,s,"['s', 'r']","['Stratego', 'Risk']","[-0.15, 0.5]","[0.15, 0.5]",1,1,,,,,,,,,,,,,,,,,0,3,3,3,0,3,3,2,,,,,,,,,,,,,,,,,,,,,,,,,,,,,,,,,,,,,,,,,,,,,,,828.6601716260011,None,828.6601716260011,None,828.6601716260011,None,r,0,0.049701760999596445,830.2103955870007,None,830.2103955870007,None,830.2103955870007,None,830.3265099669989,None,830.3265099669989,None,830.3265099669989,None,830.3265099669989,None,,,,,,,,,,,,,,,,,,,,,,,,,,,,,,,,,,,,,,,,,,,,001,67,2020_Feb_04_1423,spring_faces,3.1.5,59.93890427455633,
condition files/Stage2_2.xlsx,,T4,B4,r,"['s', 'r']","['Stratego', 'Risk']","[-0.15, 0.5]","[0.15, 0.5]",1,1,,,,,,,,,,,,,,,,,0,3,3,3,0,4,4,5,,,,,,,,,,,,,,,,,,,,,,,,,,,,,,,,,,,,,,,,,,,,,,,832.2762121449996,None,832.2762121449996,None,832.2762121449996,None,r,1,0.2099897440020868,833.8262044170006,None,833.8262044170006,None,833.8262044170006,None,834.1102159180009,None,834.1102159180009,None,834.1102159180009,None,834.1102159180009,None,,,,,,,,,,,,,,,,,,,,,,,,,,,,,,,,,,,,,,,,,,,,001,67,2020_Feb_04_1423,spring_faces,3.1.5,59.93890427455633,
condition files/Stage2_2.xlsx,,B3,T3,s,"['s', 'r']","['Stratego', 'Risk']","[-0.15, 0.5]","[0.15, 0.5]",1,1,,,,,,,,,,,,,,,,,0,3,3,3,0,5,5,4,,,,,,,,,,,,,,,,,,,,,,,,,,,,,,,,,,,,,,,,,,,,,,,836.0600192929996,None,836.0600192929996,None,836.0600192929996,None,r,0,0.18441596500269952,837.5957065680013,None,837.5957065680013,None,837.5957065680013,None,837.860492464999,None,837.860492464999,None,837.860492464999,None,837.860492464999,None,,,,,,,,,,,,,,,,,,,,,,,,,,,,,,,,,,,,,,,,,,,,001,67,2020_Feb_04_1423,spring_faces,3.1.5,59.93890427455633,
condition files/Stage2_1.xlsx,,B4,T4,r,"['s', 'r']","['Stratego', 'Risk']","[-0.15, 0.5]","[0.15, 0.5]",1,1,,,,,,,,,,,,,,,,,0,4,4,4,0,0,0,5,,,,,,,,,,,,,,,,,,,,,,,,,,,,,,,,,,,,,,,,,,,,,,,839.8267942800012,None,839.8267942800012,None,839.8267942800012,None,r,1,0.0040459039992128965,None,None,None,None,None,None,841.3933685820011,None,841.3933685820011,None,841.3933685820011,None,841.3933685820011,None,,,,,,,,,,,,,,,,,,,,,,,,,,,,,,,,,,,,,,,,,,,,001,67,2020_Feb_04_1423,spring_faces,3.1.5,59.93890427455633,
condition files/Stage2_1.xlsx,,B6,T6,r,"['s', 'r']","['Stratego', 'Risk']","[-0.15, 0.5]","[0.15, 0.5]",1,1,,,,,,,,,,,,,,,,,0,4,4,4,0,1,1,1,,,,,,,,,,,,,,,,,,,,,,,,,,,,,,,,,,,,,,,,,,,,,,,843.3434796449983,None,843.3434796449983,None,843.3434796449983,None,s,0,0.0551837590028299,844.8929573960013,None,844.8929573960013,None,844.8929573960013,None,845.0094272559982,None,845.0094272559982,None,845.0094272559982,None,845.0094272559982,None,,,,,,,,,,,,,,,,,,,,,,,,,,,,,,,,,,,,,,,,,,,,001,67,2020_Feb_04_1423,spring_faces,3.1.5,59.93890427455633,
condition files/Stage2_1.xlsx,,T3,B3,s,"['s', 'r']","['Stratego', 'Risk']","[-0.15, 0.5]","[0.15, 0.5]",1,1,,,,,,,,,,,,,,,,,0,4,4,4,0,2,2,4,,,,,,,,,,,,,,,,,,,,,,,,,,,,,,,,,,,,,,,,,,,,,,,846.9769712519992,None,846.9769712519992,None,846.9769712519992,None,r,0,0.13314642299883417,848.526949318999,None,848.526949318999,None,848.526949318999,None,848.7270556209987,None,848.7270556209987,None,848.7270556209987,None,848.7270556209987,None,,,,,,,,,,,,,,,,,,,,,,,,,,,,,,,,,,,,,,,,,,,,001,67,2020_Feb_04_1423,spring_faces,3.1.5,59.93890427455633,
condition files/Stage2_1.xlsx,,B2,T2,r,"['s', 'r']","['Stratego', 'Risk']","[-0.15, 0.5]","[0.15, 0.5]",1,1,,,,,,,,,,,,,,,,,0,4,4,4,0,3,3,3,,,,,,,,,,,,,,,,,,,,,,,,,,,,,,,,,,,,,,,,,,,,,,,850.6759681049989,None,850.6759681049989,None,850.6759681049989,None,r,1,0.3355476679971616,852.2125828969984,None,852.2125828969984,None,852.2125828969984,None,852.6264442889988,None,852.6264442889988,None,852.6264442889988,None,852.6264442889988,None,,,,,,,,,,,,,,,,,,,,,,,,,,,,,,,,,,,,,,,,,,,,001,67,2020_Feb_04_1423,spring_faces,3.1.5,59.93890427455633,
