condsFile,subStage,cue1,cue2,correct,responseKeys,responseNames,cue1Position,cue2Position,cue1Opacity,cue2Opacity,stageLoop0.thisRepN,stageLoop0.thisTrialN,stageLoop0.thisN,stageLoop0.thisIndex,blockLoop0.thisRepN,blockLoop0.thisTrialN,blockLoop0.thisN,blockLoop0.thisIndex,stage1Loop.thisRepN,stage1Loop.thisTrialN,stage1Loop.thisN,stage1Loop.thisIndex,blockLoop1.thisRepN,blockLoop1.thisTrialN,blockLoop1.thisN,blockLoop1.thisIndex,stage2Loop.thisRepN,stage2Loop.thisTrialN,stage2Loop.thisN,stage2Loop.thisIndex,blockLoop2.thisRepN,blockLoop2.thisTrialN,blockLoop2.thisN,blockLoop2.thisIndex,testLoop.thisRepN,testLoop.thisTrialN,testLoop.thisN,testLoop.thisIndex,blockLoopTest.thisRepN,blockLoopTest.thisTrialN,blockLoopTest.thisN,blockLoopTest.thisIndex,cuePics,id_instr_text.started,id_instr_text.stopped,space_to_continue_2.started,space_to_continue_2.stopped,end_instructions_resp_3.keys,end_instructions_resp_3.rt,end_instructions_resp_3.started,end_instructions_resp_3.stopped,id_input_instr.started,id_input_instr.stopped,id_input_rect.started,id_input_rect.stopped,id_input_resp.keys,id_input_resp.rt,id_input_resp.started,id_input_resp.stopped,sonaID,id_input_text.started,id_input_text.stopped,final_text.started,final_text.stopped,instructions.started,instructions.stopped,end_instructions_resp.keys,end_instructions_resp.rt,end_instructions_resp.started,end_instructions_resp.stopped,space_to_continue.started,space_to_continue.stopped,instructions_stage0.started,instructions_stage0.stopped,end_instructions_resp_stage0.keys,end_instructions_resp_stage0.rt,end_instructions_resp_stage0.started,end_instructions_resp_stage0.stopped,space_to_continue_stage0.started,space_to_continue_stage0.stopped,text.started,text.stopped,resp_text1.started,resp_text1.stopped,resp_text2.started,resp_text2.stopped,trial_resp.keys,trial_resp.corr,trial_resp.rt,trial_resp.started,trial_resp.stopped,cue1Image.started,cue1Image.stopped,cue2Image.started,cue2Image.stopped,cue1Image_fb.started,cue1Image_fb.stopped,cue2Image_fb.started,cue2Image_fb.stopped,fb_text_answer.started,fb_text_answer.stopped,feedback_image.started,feedback_image.stopped,instructions_stage1.started,instructions_stage1.stopped,end_instructions_resp_stage1.keys,end_instructions_resp_stage1.rt,end_instructions_resp_stage1.started,end_instructions_resp_stage1.stopped,space_to_continue_stage1.started,space_to_continue_stage1.stopped,instructions_2.started,instructions_2.stopped,end_instructions_resp_2.keys,end_instructions_resp_2.rt,end_instructions_resp_2.started,end_instructions_resp_2.stopped,press_space_to_continue_stage2.started,press_space_to_continue_stage2.stopped,instructions_testStage1.started,instructions_testStage1.stopped,end_instructions_resp_test1.keys,end_instructions_resp_test1.rt,end_instructions_resp_test1.started,end_instructions_resp_test1.stopped,press_space_to_continue_test1.started,press_space_to_continue_test1.stopped,cue1Image_testChoice.started,cue1Image_testChoice.stopped,cue2Image_testChoice.started,cue2Image_testChoice.stopped,test_resp.keys,test_resp.corr,test_resp.rt,test_resp.started,test_resp.stopped,cue1Image_testConf.started,cue1Image_testConf.stopped,cue2Image_testConf.started,cue2Image_testConf.stopped,conf_reminder.started,conf_reminder.stopped,conf_rating.response,conf_rating.rt,conf_rating.started,conf_rating.stopped,session,participant,date,expName,psychopyVersion,frameRate,
,,,,,,,,,,,,,,,,,,,,,,,,,,,,,,,,,,,,,,,,,,,"{'none': 'pictures/20M_AN_C.png', 'alpha': 'pictures/SHINEd_apple.png', 'beta': 'pictures/SHINEd_pear.png', 'theta': 'pictures/SHINEd_melon.png', 'phi': 'pictures/SHINEd_pepper.png', 'T1': 'pictures/37M_AN_C.png', 'T2': 'pictures/38M_AN_C.png', 'T3': 'pictures/23M_AN_C.png', 'T4': 'pictures/32M_AN_C.png', 'T5': 'pictures/31M_AN_C.png', 'T6': 'pictures/34M_AN_C.png', 'B1': 'pictures/20M_NE_C.png', 'B2': 'pictures/36M_NE_C.png', 'B3': 'pictures/22M_NE_C.png', 'B4': 'pictures/25M_NE_C.png', 'B5': 'pictures/26M_NE_C.png', 'B6': 'pictures/33M_NE_C.png'}",15.10760519699761,None,20.107318916998338,None,space,2.156949573996826,20.107318916998338,None,,,,,,,,,,,,,,,,,,,,,,,,,,,,,,,,,,,,,,,,,,,,,,,,,,,,,,,,,,,,,,,,,,,,,,,,,,,,,,,,,,,,,,,,,,,,,,,,001,68,2020_Feb_04_1456,spring_faces,3.1.5,59.725495768425674,
,,,,,,,,,,,,,,,,,,,,,,,,,,,,,,,,,,,,,,,,,,,,,,,,,,,,22.657451740000397,None,22.657451740000397,None,"['0', '9', '0', '7', 'j', 'e', 'h', 'o', 'l', '0', '9', '0', '7', 'j', 'e', 'h', 'o', 'l', 'y', 'backspace', '1', '2', '3', '4', '5', '6', '7', '8', '9']","[15.57479727900136, 15.974807737999072, 31.23874996700033, 32.11867461699876, 41.15879649300041, 41.57479894900098, 50.71081167399825, 50.998730635001266, 51.31867939999938, 67.41473900100027, 68.29472571899896, 74.66273965399887, 75.65474717400139, 83.12678650399903, 83.81473531200027, 94.21473471699937, 94.42274408600133, 94.72679435199825, 94.96681209099916, 115.39873680600067, 124.58274297499884, 124.72680310099895, 124.82275160200152, 124.87074641900108, 124.93471482499808, 125.01471602500169, 125.09467925300123, 125.14283027499914, 125.20674793799844]",22.657451740000397,None,,,,,,,,,,,,,,,,,,,,,,,,,,,,,,,,,,,,,,,,,,,,,,,,,,,,,,,,,,,,,,,,,,,,,,,,,,,,,,,,,,,,,,,,001,68,2020_Feb_04_1456,spring_faces,3.1.5,59.725495768425674,
,,,,,,,,,,,,,,,,,,,,,,,,,,,,,,,,,,,,,,,,,,,,,,,,,,,,,,,,,,,,123456789,22.657451740000397,None,22.657451740000397,None,152.94136317299854,None,space,1.811395544998959,157.9407946959982,None,,,,,,,,,,,,,,,,,,,,,,,,,,,,,,,,,,,,,,,,,,,,,,,,,,,,,,,,,,,,,,,,,,,,,,,,,,,,,001,68,2020_Feb_04_1456,spring_faces,3.1.5,59.725495768425674,
,,,,,,,,,,,,,,,,,,,,,,,,,,,,,,,,,,,,,,,,,,,,,,,,,,,,,,,,,,,,,,,,,,,,,,,157.9407946959982,None,159.79034001699983,None,space,6.241178210002545,164.79108231899954,None,,,,,,,,,,,,,,,,,,,,,,,,,,,,,,,,,,,,,,,,,,,,,,,,,,,,,,,,,,,,,,,,,,,,,001,68,2020_Feb_04_1456,spring_faces,3.1.5,59.725495768425674,
condition files/Stage0a.xlsx,0a,alpha,none,h,"['h', 'g']","['Chess', 'Go']","[0, 0.5]","[0, 0]",1,0,0,0,0,0,0,0,0,0,,,,,,,,,,,,,,,,,,,,,,,,,,,,,,,,,,,,,,,,,,,,,,,,,,,,,,,,,,,,,164.79108231899954,None,171.0908706150003,None,171.0908706150003,None,171.0908706150003,None,g,0,10.422296868000558,172.6739067519993,None,172.6739067519993,None,172.6739067519993,None,183.17419854299806,None,183.17419854299806,None,183.17419854299806,None,183.17419854299806,None,,,,,,,,,,,,,,,,,,,,,,,,,,,,,,,,,,,,,,,,,,,,001,68,2020_Feb_04_1456,spring_faces,3.1.5,59.725495768425674,
condition files/Stage0a.xlsx,0a,beta,none,g,"['h', 'g']","['Chess', 'Go']","[0, 0.5]","[0, 0]",1,0,0,0,0,0,0,1,1,1,,,,,,,,,,,,,,,,,,,,,,,,,,,,,,,,,,,,,,,,,,,,,,,,,,,,,,,,,,,,,,,185.12400169099783,None,185.12400169099783,None,185.12400169099783,None,h,0,3.4463043230025505,186.65786000300068,None,186.65786000300068,None,186.65786000300068,None,190.1571539510005,None,190.1571539510005,None,190.1571539510005,None,190.1571539510005,None,,,,,,,,,,,,,,,,,,,,,,,,,,,,,,,,,,,,,,,,,,,,001,68,2020_Feb_04_1456,spring_faces,3.1.5,59.725495768425674,
condition files/Stage0a.xlsx,0a,alpha,none,h,"['h', 'g']","['Chess', 'Go']","[0, 0.5]","[0, 0]",1,0,0,1,1,1,0,0,0,0,,,,,,,,,,,,,,,,,,,,,,,,,,,,,,,,,,,,,,,,,,,,,,,,,,,,,,,,,,,,,,,192.14111196500016,None,192.14111196500016,None,192.14111196500016,None,h,1,4.333679344999837,193.6744786579984,None,193.6744786579984,None,193.6744786579984,None,198.07392075299867,None,198.07392075299867,None,198.07392075299867,None,198.07392075299867,None,,,,,,,,,,,,,,,,,,,,,,,,,,,,,,,,,,,,,,,,,,,,001,68,2020_Feb_04_1456,spring_faces,3.1.5,59.725495768425674,
condition files/Stage0a.xlsx,0a,beta,none,g,"['h', 'g']","['Chess', 'Go']","[0, 0.5]","[0, 0]",1,0,0,1,1,1,0,1,1,1,,,,,,,,,,,,,,,,,,,,,,,,,,,,,,,,,,,,,,,,,,,,,,,,,,,,,,,,,,,,,,,200.0407039769998,None,200.0407039769998,None,200.0407039769998,None,h,0,1.7617768489981245,201.57436416899873,None,201.57436416899873,None,201.57436416899873,None,203.3904414030003,None,203.3904414030003,None,203.3904414030003,None,203.3904414030003,None,,,,,,,,,,,,,,,,,,,,,,,,,,,,,,,,,,,,,,,,,,,,001,68,2020_Feb_04_1456,spring_faces,3.1.5,59.725495768425674,
condition files/Stage0a.xlsx,0a,beta,none,g,"['h', 'g']","['Chess', 'Go']","[0, 0.5]","[0, 0]",1,0,0,2,2,2,0,0,0,1,,,,,,,,,,,,,,,,,,,,,,,,,,,,,,,,,,,,,,,,,,,,,,,,,,,,,,,,,,,,,,,205.37431002499943,None,205.37431002499943,None,205.37431002499943,None,g,1,1.3248216520005371,206.90742413399857,None,206.90742413399857,None,206.90742413399857,None,208.29071552899768,None,208.29071552899768,None,208.29071552899768,None,208.29071552899768,None,,,,,,,,,,,,,,,,,,,,,,,,,,,,,,,,,,,,,,,,,,,,001,68,2020_Feb_04_1456,spring_faces,3.1.5,59.725495768425674,
condition files/Stage0a.xlsx,0a,alpha,none,h,"['h', 'g']","['Chess', 'Go']","[0, 0.5]","[0, 0]",1,0,0,2,2,2,0,1,1,0,,,,,,,,,,,,,,,,,,,,,,,,,,,,,,,,,,,,,,,,,,,,,,,,,,,,,,,,,,,,,,,210.2566173319974,None,210.2566173319974,None,210.2566173319974,None,h,1,1.928857674000028,211.7912829479974,None,211.7912829479974,None,211.7912829479974,None,213.77526976099762,None,213.77526976099762,None,213.77526976099762,None,213.77526976099762,None,,,,,,,,,,,,,,,,,,,,,,,,,,,,,,,,,,,,,,,,,,,,001,68,2020_Feb_04_1456,spring_faces,3.1.5,59.725495768425674,
condition files/Stage0a.xlsx,0a,alpha,none,h,"['h', 'g']","['Chess', 'Go']","[0, 0.5]","[0, 0]",1,0,0,3,3,3,0,0,0,0,,,,,,,,,,,,,,,,,,,,,,,,,,,,,,,,,,,,,,,,,,,,,,,,,,,,,,,,,,,,,,,215.75768186300047,None,215.75768186300047,None,215.75768186300047,None,h,1,2.332976363999478,217.2912087629993,None,217.2912087629993,None,217.2912087629993,None,219.6737428029992,None,219.6737428029992,None,219.6737428029992,None,219.6737428029992,None,,,,,,,,,,,,,,,,,,,,,,,,,,,,,,,,,,,,,,,,,,,,001,68,2020_Feb_04_1456,spring_faces,3.1.5,59.725495768425674,
condition files/Stage0a.xlsx,0a,beta,none,g,"['h', 'g']","['Chess', 'Go']","[0, 0.5]","[0, 0]",1,0,0,3,3,3,0,1,1,1,,,,,,,,,,,,,,,,,,,,,,,,,,,,,,,,,,,,,,,,,,,,,,,,,,,,,,,,,,,,,,,221.64121990099738,None,221.64121990099738,None,221.64121990099738,None,g,1,0.6417060540006787,223.17453824499898,None,223.17453824499898,None,223.17453824499898,None,223.87369212499834,None,223.87369212499834,None,223.87369212499834,None,223.87369212499834,None,,,,,,,,,,,,,,,,,,,,,,,,,,,,,,,,,,,,,,,,,,,,001,68,2020_Feb_04_1456,spring_faces,3.1.5,59.725495768425674,
condition files/Stage0a.xlsx,0a,alpha,none,h,"['h', 'g']","['Chess', 'Go']","[0, 0.5]","[0, 0]",1,0,0,4,4,4,0,0,0,0,,,,,,,,,,,,,,,,,,,,,,,,,,,,,,,,,,,,,,,,,,,,,,,,,,,,,,,,,,,,,,,225.85771989899877,None,225.85771989899877,None,225.85771989899877,None,h,1,0.8899104480005917,227.39028617800068,None,227.39028617800068,None,227.39028617800068,None,228.34117425899967,None,228.34117425899967,None,228.34117425899967,None,228.34117425899967,None,,,,,,,,,,,,,,,,,,,,,,,,,,,,,,,,,,,,,,,,,,,,001,68,2020_Feb_04_1456,spring_faces,3.1.5,59.725495768425674,
condition files/Stage0a.xlsx,0a,beta,none,g,"['h', 'g']","['Chess', 'Go']","[0, 0.5]","[0, 0]",1,0,0,4,4,4,0,1,1,1,,,,,,,,,,,,,,,,,,,,,,,,,,,,,,,,,,,,,,,,,,,,,,,,,,,,,,,,,,,,,,,230.30670658300005,None,230.30670658300005,None,230.30670658300005,None,g,1,0.5188562660005118,231.84131160899778,None,231.84131160899778,None,231.84131160899778,None,232.42427253999995,None,232.42427253999995,None,232.42427253999995,None,232.42427253999995,None,,,,,,,,,,,,,,,,,,,,,,,,,,,,,,,,,,,,,,,,,,,,001,68,2020_Feb_04_1456,spring_faces,3.1.5,59.725495768425674,
condition files/Stage0a.xlsx,0a,beta,none,g,"['h', 'g']","['Chess', 'Go']","[0, 0.5]","[0, 0]",1,0,0,5,5,5,0,0,0,1,,,,,,,,,,,,,,,,,,,,,,,,,,,,,,,,,,,,,,,,,,,,,,,,,,,,,,,,,,,,,,,234.40764374900027,None,234.40764374900027,None,234.40764374900027,None,h,0,2.2436678579979343,235.94058321599732,None,235.94058321599732,None,235.94058321599732,None,238.2408616770008,None,238.2408616770008,None,238.2408616770008,None,238.2408616770008,None,,,,,,,,,,,,,,,,,,,,,,,,,,,,,,,,,,,,,,,,,,,,001,68,2020_Feb_04_1456,spring_faces,3.1.5,59.725495768425674,
condition files/Stage0a.xlsx,0a,alpha,none,h,"['h', 'g']","['Chess', 'Go']","[0, 0.5]","[0, 0]",1,0,0,5,5,5,0,1,1,0,,,,,,,,,,,,,,,,,,,,,,,,,,,,,,,,,,,,,,,,,,,,,,,,,,,,,,,,,,,,,,,240.20780972099965,None,240.20780972099965,None,240.20780972099965,None,h,1,1.242887651998899,241.74133737699958,None,241.74133737699958,None,241.74133737699958,None,243.04071787299836,None,243.04071787299836,None,243.04071787299836,None,243.04071787299836,None,,,,,,,,,,,,,,,,,,,,,,,,,,,,,,,,,,,,,,,,,,,,001,68,2020_Feb_04_1456,spring_faces,3.1.5,59.725495768425674,
condition files/Stage0b_1.xlsx,0b,alpha,none,h,"['h', 'g']","['Chess', 'Go']","[-0.15, 0.5]","[0.15, 0.5]",1,0,0,6,6,6,0,0,0,0,,,,,,,,,,,,,,,,,,,,,,,,,,,,,,,,,,,,,,,,,,,,,,,,,,,,,,,,,,,,,,,245.0240690440005,None,245.0240690440005,None,245.0240690440005,None,h,1,1.0663596550002694,246.55783411299853,None,246.55783411299853,None,246.55783411299853,None,247.67412273399896,None,247.67412273399896,None,247.67412273399896,None,247.67412273399896,None,,,,,,,,,,,,,,,,,,,,,,,,,,,,,,,,,,,,,,,,,,,,001,68,2020_Feb_04_1456,spring_faces,3.1.5,59.725495768425674,
condition files/Stage0b_1.xlsx,0b,none,beta,g,"['h', 'g']","['Chess', 'Go']","[-0.15, 0.5]","[0.15, 0.5]",0,1,0,6,6,6,0,1,1,1,,,,,,,,,,,,,,,,,,,,,,,,,,,,,,,,,,,,,,,,,,,,,,,,,,,,,,,,,,,,,,,249.6398677420002,None,249.6398677420002,None,249.6398677420002,None,g,1,0.753149152998958,251.19104732599953,None,251.19104732599953,None,251.19104732599953,None,252.01147107100041,None,252.01147107100041,None,252.01147107100041,None,252.01147107100041,None,,,,,,,,,,,,,,,,,,,,,,,,,,,,,,,,,,,,,,,,,,,,001,68,2020_Feb_04_1456,spring_faces,3.1.5,59.725495768425674,
condition files/Stage0b_2.xlsx,0b,none,alpha,h,"['h', 'g']","['Chess', 'Go']","[-0.15, 0.5]","[0.15, 0.5]",0,1,0,7,7,7,0,0,0,0,,,,,,,,,,,,,,,,,,,,,,,,,,,,,,,,,,,,,,,,,,,,,,,,,,,,,,,,,,,,,,,253.99076124400017,None,253.99076124400017,None,253.99076124400017,None,h,1,0.6285274750007375,255.52365149400066,None,255.52365149400066,None,255.52365149400066,None,256.20663747399885,None,256.20663747399885,None,256.20663747399885,None,256.20663747399885,None,,,,,,,,,,,,,,,,,,,,,,,,,,,,,,,,,,,,,,,,,,,,001,68,2020_Feb_04_1456,spring_faces,3.1.5,59.725495768425674,
condition files/Stage0b_2.xlsx,0b,beta,none,g,"['h', 'g']","['Chess', 'Go']","[-0.15, 0.5]","[0.15, 0.5]",1,0,0,7,7,7,0,1,1,1,,,,,,,,,,,,,,,,,,,,,,,,,,,,,,,,,,,,,,,,,,,,,,,,,,,,,,,,,,,,,,,258.17406667199975,None,258.17406667199975,None,258.17406667199975,None,g,1,1.3719805619984982,259.7242139839982,None,259.7242139839982,None,259.7242139839982,None,261.1609519929989,None,261.1609519929989,None,261.1609519929989,None,261.1609519929989,None,,,,,,,,,,,,,,,,,,,,,,,,,,,,,,,,,,,,,,,,,,,,001,68,2020_Feb_04_1456,spring_faces,3.1.5,59.725495768425674,
condition files/Stage0b_1.xlsx,0b,alpha,none,h,"['h', 'g']","['Chess', 'Go']","[-0.15, 0.5]","[0.15, 0.5]",1,0,0,8,8,8,0,0,0,0,,,,,,,,,,,,,,,,,,,,,,,,,,,,,,,,,,,,,,,,,,,,,,,,,,,,,,,,,,,,,,,263.1409815299994,None,263.1409815299994,None,263.1409815299994,None,h,1,1.84572830000252,264.6744575899975,None,264.6744575899975,None,264.6744575899975,None,266.5747024150005,None,266.5747024150005,None,266.5747024150005,None,266.5747024150005,None,,,,,,,,,,,,,,,,,,,,,,,,,,,,,,,,,,,,,,,,,,,,001,68,2020_Feb_04_1456,spring_faces,3.1.5,59.725495768425674,
condition files/Stage0b_1.xlsx,0b,none,beta,g,"['h', 'g']","['Chess', 'Go']","[-0.15, 0.5]","[0.15, 0.5]",0,1,0,8,8,8,0,1,1,1,,,,,,,,,,,,,,,,,,,,,,,,,,,,,,,,,,,,,,,,,,,,,,,,,,,,,,,,,,,,,,,268.54074666499946,None,268.54074666499946,None,268.54074666499946,None,g,1,0.5091340960025263,270.0911238080007,None,270.0911238080007,None,270.0911238080007,None,270.66058429999975,None,270.66058429999975,None,270.66058429999975,None,270.66058429999975,None,,,,,,,,,,,,,,,,,,,,,,,,,,,,,,,,,,,,,,,,,,,,001,68,2020_Feb_04_1456,spring_faces,3.1.5,59.725495768425674,
condition files/Stage0b_2.xlsx,0b,beta,none,g,"['h', 'g']","['Chess', 'Go']","[-0.15, 0.5]","[0.15, 0.5]",1,0,0,9,9,9,0,0,0,1,,,,,,,,,,,,,,,,,,,,,,,,,,,,,,,,,,,,,,,,,,,,,,,,,,,,,,,,,,,,,,,272.6410015479996,None,272.6410015479996,None,272.6410015479996,None,g,1,0.8558009830012452,274.1764714389974,None,274.1764714389974,None,274.1764714389974,None,275.0909891829979,None,275.0909891829979,None,275.0909891829979,None,275.0909891829979,None,,,,,,,,,,,,,,,,,,,,,,,,,,,,,,,,,,,,,,,,,,,,001,68,2020_Feb_04_1456,spring_faces,3.1.5,59.725495768425674,
condition files/Stage0b_2.xlsx,0b,none,alpha,h,"['h', 'g']","['Chess', 'Go']","[-0.15, 0.5]","[0.15, 0.5]",0,1,0,9,9,9,0,1,1,0,,,,,,,,,,,,,,,,,,,,,,,,,,,,,,,,,,,,,,,,,,,,,,,,,,,,,,,,,,,,,,,277.0572619279992,None,277.0572619279992,None,277.0572619279992,None,h,1,0.6494981210016704,278.5906798219985,None,278.5906798219985,None,278.5906798219985,None,279.2909498679983,None,279.2909498679983,None,279.2909498679983,None,279.2909498679983,None,,,,,,,,,,,,,,,,,,,,,,,,,,,,,,,,,,,,,,,,,,,,001,68,2020_Feb_04_1456,spring_faces,3.1.5,59.725495768425674,
condition files/Stage0b_1.xlsx,0b,none,beta,g,"['h', 'g']","['Chess', 'Go']","[-0.15, 0.5]","[0.15, 0.5]",0,1,0,10,10,10,0,0,0,1,,,,,,,,,,,,,,,,,,,,,,,,,,,,,,,,,,,,,,,,,,,,,,,,,,,,,,,,,,,,,,,281.2744681439981,None,281.2744681439981,None,281.2744681439981,None,g,1,1.3771216999994067,282.8071316759997,None,282.8071316759997,None,282.8071316759997,None,284.24071433599966,None,284.24071433599966,None,284.24071433599966,None,284.24071433599966,None,,,,,,,,,,,,,,,,,,,,,,,,,,,,,,,,,,,,,,,,,,,,001,68,2020_Feb_04_1456,spring_faces,3.1.5,59.725495768425674,
condition files/Stage0b_1.xlsx,0b,alpha,none,h,"['h', 'g']","['Chess', 'Go']","[-0.15, 0.5]","[0.15, 0.5]",1,0,0,10,10,10,0,1,1,0,,,,,,,,,,,,,,,,,,,,,,,,,,,,,,,,,,,,,,,,,,,,,,,,,,,,,,,,,,,,,,,286.2077744019989,None,286.2077744019989,None,286.2077744019989,None,h,1,1.3545788810006343,287.7575983389979,None,287.7575983389979,None,287.7575983389979,None,289.19080702899737,None,289.19080702899737,None,289.19080702899737,None,289.19080702899737,None,,,,,,,,,,,,,,,,,,,,,,,,,,,,,,,,,,,,,,,,,,,,001,68,2020_Feb_04_1456,spring_faces,3.1.5,59.725495768425674,
condition files/Stage0b_2.xlsx,0b,none,alpha,h,"['h', 'g']","['Chess', 'Go']","[-0.15, 0.5]","[0.15, 0.5]",0,1,0,11,11,11,0,0,0,0,,,,,,,,,,,,,,,,,,,,,,,,,,,,,,,,,,,,,,,,,,,,,,,,,,,,,,,,,,,,,,,291.1575161590008,None,291.1575161590008,None,291.1575161590008,None,h,1,0.8688348850009788,292.6913600179978,None,292.6913600179978,None,292.6913600179978,None,293.62418748399796,None,293.62418748399796,None,293.62418748399796,None,293.62418748399796,None,,,,,,,,,,,,,,,,,,,,,,,,,,,,,,,,,,,,,,,,,,,,001,68,2020_Feb_04_1456,spring_faces,3.1.5,59.725495768425674,
condition files/Stage0b_2.xlsx,0b,beta,none,g,"['h', 'g']","['Chess', 'Go']","[-0.15, 0.5]","[0.15, 0.5]",1,0,0,11,11,11,0,1,1,1,,,,,,,,,,,,,,,,,,,,,,,,,,,,,,,,,,,,,,,,,,,,,,,,,,,,,,,,,,,,,,,295.5911990229979,None,295.5911990229979,None,295.5911990229979,None,g,1,0.6577961779985344,297.12646310999844,None,297.12646310999844,None,297.12646310999844,None,297.84176116699746,None,297.84176116699746,None,297.84176116699746,None,297.84176116699746,None,,,,,,,,,,,,,,,,,,,,,,,,,,,,,,,,,,,,,,,,,,,,001,68,2020_Feb_04_1456,spring_faces,3.1.5,59.725495768425674,
condition files/Stage0c_1.xlsx,0c,alpha,phi,h,"['h', 'g']","['Chess', 'Go']","[-0.15, 0.5]","[0.15, 0.5]",1,1,0,12,12,12,0,0,0,1,,,,,,,,,,,,,,,,,,,,,,,,,,,,,,,,,,,,,,,,,,,,,,,,,,,,,,,,,,,,,,,299.8243447519999,None,299.8243447519999,None,299.8243447519999,None,h,1,5.066502140998637,301.3576933279983,None,301.3576933279983,None,301.3576933279983,None,306.47341684399726,None,306.47341684399726,None,306.47341684399726,None,306.47341684399726,None,,,,,,,,,,,,,,,,,,,,,,,,,,,,,,,,,,,,,,,,,,,,001,68,2020_Feb_04_1456,spring_faces,3.1.5,59.725495768425674,
condition files/Stage0c_1.xlsx,0c,phi,beta,g,"['h', 'g']","['Chess', 'Go']","[-0.15, 0.5]","[0.15, 0.5]",1,1,0,12,12,12,0,1,1,3,,,,,,,,,,,,,,,,,,,,,,,,,,,,,,,,,,,,,,,,,,,,,,,,,,,,,,,,,,,,,,,308.4407624150008,None,308.4407624150008,None,308.4407624150008,None,g,1,1.6664960620000784,309.97368051100057,None,309.97368051100057,None,309.97368051100057,None,311.6908716629987,None,311.6908716629987,None,311.6908716629987,None,311.6908716629987,None,,,,,,,,,,,,,,,,,,,,,,,,,,,,,,,,,,,,,,,,,,,,001,68,2020_Feb_04_1456,spring_faces,3.1.5,59.725495768425674,
condition files/Stage0c_1.xlsx,0c,beta,theta,g,"['h', 'g']","['Chess', 'Go']","[-0.15, 0.5]","[0.15, 0.5]",1,1,0,12,12,12,0,2,2,2,,,,,,,,,,,,,,,,,,,,,,,,,,,,,,,,,,,,,,,,,,,,,,,,,,,,,,,,,,,,,,,313.65753907199905,None,313.65753907199905,None,313.65753907199905,None,g,1,1.9688938440012862,315.1912878479998,None,315.1912878479998,None,315.1912878479998,None,317.22427428599985,None,317.22427428599985,None,317.22427428599985,None,317.22427428599985,None,,,,,,,,,,,,,,,,,,,,,,,,,,,,,,,,,,,,,,,,,,,,001,68,2020_Feb_04_1456,spring_faces,3.1.5,59.725495768425674,
condition files/Stage0c_1.xlsx,0c,theta,alpha,h,"['h', 'g']","['Chess', 'Go']","[-0.15, 0.5]","[0.15, 0.5]",1,1,0,12,12,12,0,3,3,0,,,,,,,,,,,,,,,,,,,,,,,,,,,,,,,,,,,,,,,,,,,,,,,,,,,,,,,,,,,,,,,319.1907603109976,None,319.1907603109976,None,319.1907603109976,None,h,1,2.660293033997732,320.7239452729991,None,320.7239452729991,None,320.7239452729991,None,323.44042043899753,None,323.44042043899753,None,323.44042043899753,None,323.44042043899753,None,,,,,,,,,,,,,,,,,,,,,,,,,,,,,,,,,,,,,,,,,,,,001,68,2020_Feb_04_1456,spring_faces,3.1.5,59.725495768425674,
condition files/Stage0c_2.xlsx,0c,beta,phi,g,"['h', 'g']","['Chess', 'Go']","[-0.15, 0.5]","[0.15, 0.5]",1,1,0,13,13,13,0,0,0,3,,,,,,,,,,,,,,,,,,,,,,,,,,,,,,,,,,,,,,,,,,,,,,,,,,,,,,,,,,,,,,,325.424281607,None,325.424281607,None,325.424281607,None,g,1,1.6270536980009638,326.9571914900007,None,326.9571914900007,None,326.9571914900007,None,328.6409726940001,None,328.6409726940001,None,328.6409726940001,None,328.6409726940001,None,,,,,,,,,,,,,,,,,,,,,,,,,,,,,,,,,,,,,,,,,,,,001,68,2020_Feb_04_1456,spring_faces,3.1.5,59.725495768425674,
condition files/Stage0c_2.xlsx,0c,theta,beta,g,"['h', 'g']","['Chess', 'Go']","[-0.15, 0.5]","[0.15, 0.5]",1,1,0,13,13,13,0,1,1,2,,,,,,,,,,,,,,,,,,,,,,,,,,,,,,,,,,,,,,,,,,,,,,,,,,,,,,,,,,,,,,,330.6073032139975,None,330.6073032139975,None,330.6073032139975,None,g,1,1.4515186410026217,332.14061777999814,None,332.14061777999814,None,332.14061777999814,None,333.64297117000024,None,333.64297117000024,None,333.64297117000024,None,333.64297117000024,None,,,,,,,,,,,,,,,,,,,,,,,,,,,,,,,,,,,,,,,,,,,,001,68,2020_Feb_04_1456,spring_faces,3.1.5,59.725495768425674,
condition files/Stage0c_2.xlsx,0c,phi,alpha,h,"['h', 'g']","['Chess', 'Go']","[-0.15, 0.5]","[0.15, 0.5]",1,1,0,13,13,13,0,2,2,1,,,,,,,,,,,,,,,,,,,,,,,,,,,,,,,,,,,,,,,,,,,,,,,,,,,,,,,,,,,,,,,335.62346827799774,None,335.62346827799774,None,335.62346827799774,None,h,1,1.666982429997006,337.157193179999,None,337.157193179999,None,337.157193179999,None,338.8745581910007,None,338.8745581910007,None,338.8745581910007,None,338.8745581910007,None,,,,,,,,,,,,,,,,,,,,,,,,,,,,,,,,,,,,,,,,,,,,001,68,2020_Feb_04_1456,spring_faces,3.1.5,59.725495768425674,
condition files/Stage0c_2.xlsx,0c,alpha,theta,h,"['h', 'g']","['Chess', 'Go']","[-0.15, 0.5]","[0.15, 0.5]",1,1,0,13,13,13,0,3,3,0,,,,,,,,,,,,,,,,,,,,,,,,,,,,,,,,,,,,,,,,,,,,,,,,,,,,,,,,,,,,,,,340.84057415999996,None,340.84057415999996,None,340.84057415999996,None,h,1,1.3944851380001637,342.3737777690003,None,342.3737777690003,None,342.3737777690003,None,343.80916849300047,None,343.80916849300047,None,343.80916849300047,None,343.80916849300047,None,,,,,,,,,,,,,,,,,,,,,,,,,,,,,,,,,,,,,,,,,,,,001,68,2020_Feb_04_1456,spring_faces,3.1.5,59.725495768425674,
condition files/Stage0c_1.xlsx,0c,theta,alpha,h,"['h', 'g']","['Chess', 'Go']","[-0.15, 0.5]","[0.15, 0.5]",1,1,0,14,14,14,0,0,0,0,,,,,,,,,,,,,,,,,,,,,,,,,,,,,,,,,,,,,,,,,,,,,,,,,,,,,,,,,,,,,,,345.8072757730006,None,345.8072757730006,None,345.8072757730006,None,h,1,1.13186801700067,347.3403270439994,None,347.3403270439994,None,347.3403270439994,None,348.50887597199835,None,348.50887597199835,None,348.50887597199835,None,348.50887597199835,None,,,,,,,,,,,,,,,,,,,,,,,,,,,,,,,,,,,,,,,,,,,,001,68,2020_Feb_04_1456,spring_faces,3.1.5,59.725495768425674,
condition files/Stage0c_1.xlsx,0c,beta,theta,g,"['h', 'g']","['Chess', 'Go']","[-0.15, 0.5]","[0.15, 0.5]",1,1,0,14,14,14,0,1,1,2,,,,,,,,,,,,,,,,,,,,,,,,,,,,,,,,,,,,,,,,,,,,,,,,,,,,,,,,,,,,,,,350.49058119799884,None,350.49058119799884,None,350.49058119799884,None,g,1,0.927595786000893,352.0245718699989,None,352.0245718699989,None,352.0245718699989,None,353.0076077599988,None,353.0076077599988,None,353.0076077599988,None,353.0076077599988,None,,,,,,,,,,,,,,,,,,,,,,,,,,,,,,,,,,,,,,,,,,,,001,68,2020_Feb_04_1456,spring_faces,3.1.5,59.725495768425674,
condition files/Stage0c_1.xlsx,0c,phi,beta,g,"['h', 'g']","['Chess', 'Go']","[-0.15, 0.5]","[0.15, 0.5]",1,1,0,14,14,14,0,2,2,3,,,,,,,,,,,,,,,,,,,,,,,,,,,,,,,,,,,,,,,,,,,,,,,,,,,,,,,,,,,,,,,354.9734965949974,None,354.9734965949974,None,354.9734965949974,None,g,1,2.6045026469982986,356.5076911039978,None,356.5076911039978,None,356.5076911039978,None,359.1572711659974,None,359.1572711659974,None,359.1572711659974,None,359.1572711659974,None,,,,,,,,,,,,,,,,,,,,,,,,,,,,,,,,,,,,,,,,,,,,001,68,2020_Feb_04_1456,spring_faces,3.1.5,59.725495768425674,
condition files/Stage0c_1.xlsx,0c,alpha,phi,h,"['h', 'g']","['Chess', 'Go']","[-0.15, 0.5]","[0.15, 0.5]",1,1,0,14,14,14,0,3,3,1,,,,,,,,,,,,,,,,,,,,,,,,,,,,,,,,,,,,,,,,,,,,,,,,,,,,,,,,,,,,,,,361.14060100499773,None,361.14060100499773,None,361.14060100499773,None,h,1,0.6298130290015251,362.6743864579985,None,362.6743864579985,None,362.6743864579985,None,363.35719495599915,None,363.35719495599915,None,363.35719495599915,None,363.35719495599915,None,,,,,,,,,,,,,,,,,,,,,,,,,,,,,,,,,,,,,,,,,,,,001,68,2020_Feb_04_1456,spring_faces,3.1.5,59.725495768425674,
condition files/Stage0c_2.xlsx,0c,beta,phi,g,"['h', 'g']","['Chess', 'Go']","[-0.15, 0.5]","[0.15, 0.5]",1,1,0,15,15,15,0,0,0,3,,,,,,,,,,,,,,,,,,,,,,,,,,,,,,,,,,,,,,,,,,,,,,,,,,,,,,,,,,,,,,,365.34077699099726,None,365.34077699099726,None,365.34077699099726,None,g,1,1.5177883649994328,366.87438837199807,None,366.87438837199807,None,366.87438837199807,None,368.4573818719982,None,368.4573818719982,None,368.4573818719982,None,368.4573818719982,None,,,,,,,,,,,,,,,,,,,,,,,,,,,,,,,,,,,,,,,,,,,,001,68,2020_Feb_04_1456,spring_faces,3.1.5,59.725495768425674,
condition files/Stage0c_2.xlsx,0c,theta,beta,g,"['h', 'g']","['Chess', 'Go']","[-0.15, 0.5]","[0.15, 0.5]",1,1,0,15,15,15,0,1,1,2,,,,,,,,,,,,,,,,,,,,,,,,,,,,,,,,,,,,,,,,,,,,,,,,,,,,,,,,,,,,,,,370.4239038509986,None,370.4239038509986,None,370.4239038509986,None,g,1,1.6505568489992584,371.9575767940005,None,371.9575767940005,None,371.9575767940005,None,373.6573384209987,None,373.6573384209987,None,373.6573384209987,None,373.6573384209987,None,,,,,,,,,,,,,,,,,,,,,,,,,,,,,,,,,,,,,,,,,,,,001,68,2020_Feb_04_1456,spring_faces,3.1.5,59.725495768425674,
condition files/Stage0c_2.xlsx,0c,phi,alpha,h,"['h', 'g']","['Chess', 'Go']","[-0.15, 0.5]","[0.15, 0.5]",1,1,0,15,15,15,0,2,2,1,,,,,,,,,,,,,,,,,,,,,,,,,,,,,,,,,,,,,,,,,,,,,,,,,,,,,,,,,,,,,,,375.6409613319993,None,375.6409613319993,None,375.6409613319993,None,h,1,0.8976670299998659,377.1745082979978,None,377.1745082979978,None,377.1745082979978,None,378.1241072349985,None,378.1241072349985,None,378.1241072349985,None,378.1241072349985,None,,,,,,,,,,,,,,,,,,,,,,,,,,,,,,,,,,,,,,,,,,,,001,68,2020_Feb_04_1456,spring_faces,3.1.5,59.725495768425674,
condition files/Stage0c_2.xlsx,0c,alpha,theta,h,"['h', 'g']","['Chess', 'Go']","[-0.15, 0.5]","[0.15, 0.5]",1,1,0,15,15,15,0,3,3,0,,,,,,,,,,,,,,,,,,,,,,,,,,,,,,,,,,,,,,,,,,,,,,,,,,,,,,,,,,,,,,,380.0905434109991,None,380.0905434109991,None,380.0905434109991,None,h,1,1.2000350019989128,381.62412705300085,None,381.62412705300085,None,381.62412705300085,None,382.85945263100075,None,382.85945263100075,None,382.85945263100075,None,382.85945263100075,None,,,,,,,,,,,,,,,,,,,,,,,,,,,,,,,,,,,,,,,,,,,,001,68,2020_Feb_04_1456,spring_faces,3.1.5,59.725495768425674,
condition files/Stage0c_1.xlsx,0c,alpha,phi,h,"['h', 'g']","['Chess', 'Go']","[-0.15, 0.5]","[0.15, 0.5]",1,1,0,16,16,16,0,0,0,1,,,,,,,,,,,,,,,,,,,,,,,,,,,,,,,,,,,,,,,,,,,,,,,,,,,,,,,,,,,,,,,384.8577480169988,None,384.8577480169988,None,384.8577480169988,None,h,1,1.569476887001656,386.3907205840005,None,386.3907205840005,None,386.3907205840005,None,388.0088390159981,None,388.0088390159981,None,388.0088390159981,None,388.0088390159981,None,,,,,,,,,,,,,,,,,,,,,,,,,,,,,,,,,,,,,,,,,,,,001,68,2020_Feb_04_1456,spring_faces,3.1.5,59.725495768425674,
condition files/Stage0c_1.xlsx,0c,beta,theta,g,"['h', 'g']","['Chess', 'Go']","[-0.15, 0.5]","[0.15, 0.5]",1,1,0,16,16,16,0,1,1,2,,,,,,,,,,,,,,,,,,,,,,,,,,,,,,,,,,,,,,,,,,,,,,,,,,,,,,,,,,,,,,,389.9906363959999,None,389.9906363959999,None,389.9906363959999,None,g,1,0.8358333120013413,391.5243615599975,None,391.5243615599975,None,391.5243615599975,None,392.4237951639989,None,392.4237951639989,None,392.4237951639989,None,392.4237951639989,None,,,,,,,,,,,,,,,,,,,,,,,,,,,,,,,,,,,,,,,,,,,,001,68,2020_Feb_04_1456,spring_faces,3.1.5,59.725495768425674,
condition files/Stage0c_1.xlsx,0c,theta,alpha,h,"['h', 'g']","['Chess', 'Go']","[-0.15, 0.5]","[0.15, 0.5]",1,1,0,16,16,16,0,2,2,0,,,,,,,,,,,,,,,,,,,,,,,,,,,,,,,,,,,,,,,,,,,,,,,,,,,,,,,,,,,,,,,394.3910196029974,None,394.3910196029974,None,394.3910196029974,None,h,1,0.8678179880007519,395.9243384809997,None,395.9243384809997,None,395.9243384809997,None,396.85788884700014,None,396.85788884700014,None,396.85788884700014,None,396.85788884700014,None,,,,,,,,,,,,,,,,,,,,,,,,,,,,,,,,,,,,,,,,,,,,001,68,2020_Feb_04_1456,spring_faces,3.1.5,59.725495768425674,
condition files/Stage0c_1.xlsx,0c,phi,beta,g,"['h', 'g']","['Chess', 'Go']","[-0.15, 0.5]","[0.15, 0.5]",1,1,0,16,16,16,0,3,3,3,,,,,,,,,,,,,,,,,,,,,,,,,,,,,,,,,,,,,,,,,,,,,,,,,,,,,,,,,,,,,,,398.82411990299806,None,398.82411990299806,None,398.82411990299806,None,g,1,1.9067337190026592,400.35751001899916,None,400.35751001899916,None,400.35751001899916,None,402.3237686559987,None,402.3237686559987,None,402.3237686559987,None,402.3237686559987,None,,,,,,,,,,,,,,,,,,,,,,,,,,,,,,,,,,,,,,,,,,,,001,68,2020_Feb_04_1456,spring_faces,3.1.5,59.725495768425674,
condition files/Stage0c_2.xlsx,0c,phi,alpha,h,"['h', 'g']","['Chess', 'Go']","[-0.15, 0.5]","[0.15, 0.5]",1,1,0,17,17,17,0,0,0,1,,,,,,,,,,,,,,,,,,,,,,,,,,,,,,,,,,,,,,,,,,,,,,,,,,,,,,,,,,,,,,,404.30722350299766,None,404.30722350299766,None,404.30722350299766,None,h,1,1.9277312540034472,405.82444425299764,None,405.82444425299764,None,405.82444425299764,None,407.80777652399775,None,407.80777652399775,None,407.80777652399775,None,407.80777652399775,None,,,,,,,,,,,,,,,,,,,,,,,,,,,,,,,,,,,,,,,,,,,,001,68,2020_Feb_04_1456,spring_faces,3.1.5,59.725495768425674,
condition files/Stage0c_2.xlsx,0c,alpha,theta,h,"['h', 'g']","['Chess', 'Go']","[-0.15, 0.5]","[0.15, 0.5]",1,1,0,17,17,17,0,1,1,0,,,,,,,,,,,,,,,,,,,,,,,,,,,,,,,,,,,,,,,,,,,,,,,,,,,,,,,,,,,,,,,409.7757294639996,None,409.7757294639996,None,409.7757294639996,None,h,1,1.500450669998827,411.3076852459999,None,411.3076852459999,None,411.3076852459999,None,412.85739552099767,None,412.85739552099767,None,412.85739552099767,None,412.85739552099767,None,,,,,,,,,,,,,,,,,,,,,,,,,,,,,,,,,,,,,,,,,,,,001,68,2020_Feb_04_1456,spring_faces,3.1.5,59.725495768425674,
condition files/Stage0c_2.xlsx,0c,theta,beta,g,"['h', 'g']","['Chess', 'Go']","[-0.15, 0.5]","[0.15, 0.5]",1,1,0,17,17,17,0,2,2,2,,,,,,,,,,,,,,,,,,,,,,,,,,,,,,,,,,,,,,,,,,,,,,,,,,,,,,,,,,,,,,,414.84012587899997,None,414.84012587899997,None,414.84012587899997,None,g,1,0.7541493819990137,416.37403006800014,None,416.37403006800014,None,416.37403006800014,None,417.19081315899894,None,417.19081315899894,None,417.19081315899894,None,417.19081315899894,None,,,,,,,,,,,,,,,,,,,,,,,,,,,,,,,,,,,,,,,,,,,,001,68,2020_Feb_04_1456,spring_faces,3.1.5,59.725495768425674,
condition files/Stage0c_2.xlsx,0c,beta,phi,g,"['h', 'g']","['Chess', 'Go']","[-0.15, 0.5]","[0.15, 0.5]",1,1,0,17,17,17,0,3,3,3,,,,,,,,,,,,,,,,,,,,,,,,,,,,,,,,,,,,,,,,,,,,,,,,,,,,,,,,,,,,,,,419.1572894609999,None,419.1572894609999,None,419.1572894609999,None,g,1,2.3732287769998948,420.6909493359999,None,420.6909493359999,None,420.6909493359999,None,423.10818205599935,None,423.10818205599935,None,423.10818205599935,None,423.10818205599935,None,,,,,,,,,,,,,,,,,,,,,,,,,,,,,,,,,,,,,,,,,,,,001,68,2020_Feb_04_1456,spring_faces,3.1.5,59.725495768425674,
,,,,,,,,,,,,,,,,,,,,,,,,,,,,,,,,,,,,,,,,,,,,,,,,,,,,,,,,,,,,,,,,,,,,,,,,,,,,,,,,,,,,,,,,,,,,,,,,,,,,,,,,425.1077208530005,None,space,3.356778782999754,430.1074885989983,None,,,,,,,,,,,,,,,,,,,,,,,,,,,,,,,,,,,,,,001,68,2020_Feb_04_1456,spring_faces,3.1.5,59.725495768425674,
condition files/Stage1_1.xlsx,,B1,T2,c,"['c', 'm']","['Clue', 'Monopoly']","[-0.15, 0.5]","[0.15, 0.5]",1,1,,,,,,,,,0,0,0,0,0,0,0,1,,,,,,,,,,,,,,,,,,,,,,,,,,,,,,,,,,,,,,,,,,,,,,,,,,,,,,,433.5236597999974,None,433.5236597999974,None,433.5236597999974,None,c,1,2.710885494001559,435.05737977600074,None,435.05737977600074,None,435.05737977600074,None,437.8407081869991,None,437.8407081869991,None,437.8407081869991,None,437.8407081869991,None,,,,,,,430.1074885989983,None,,,,,,,,,,,,,,,,,,,,,,,,,,,,,,,,,,,,001,68,2020_Feb_04_1456,spring_faces,3.1.5,59.725495768425674,
condition files/Stage1_1.xlsx,,B4,T4,m,"['c', 'm']","['Clue', 'Monopoly']","[-0.15, 0.5]","[0.15, 0.5]",1,1,,,,,,,,,0,0,0,0,0,1,1,7,,,,,,,,,,,,,,,,,,,,,,,,,,,,,,,,,,,,,,,,,,,,,,,,,,,,,,,439.7908985319991,None,439.7908985319991,None,439.7908985319991,None,c,0,3.834019622001506,441.32617090499843,None,441.32617090499843,None,441.32617090499843,None,445.24103141399974,None,445.24103141399974,None,445.24103141399974,None,445.24103141399974,None,,,,,,,,,,,,,,,,,,,,,,,,,,,,,,,,,,,,,,,,,,,,001,68,2020_Feb_04_1456,spring_faces,3.1.5,59.725495768425674,
condition files/Stage1_1.xlsx,,T1,B1,c,"['c', 'm']","['Clue', 'Monopoly']","[-0.15, 0.5]","[0.15, 0.5]",1,1,,,,,,,,,0,0,0,0,0,2,2,0,,,,,,,,,,,,,,,,,,,,,,,,,,,,,,,,,,,,,,,,,,,,,,,,,,,,,,,447.1907178170004,None,447.1907178170004,None,447.1907178170004,None,c,1,2.9158085050003137,448.7243880019996,None,448.7243880019996,None,448.7243880019996,None,451.7076391240007,None,451.7076391240007,None,451.7076391240007,None,451.7076391240007,None,,,,,,,,,,,,,,,,,,,,,,,,,,,,,,,,,,,,,,,,,,,,001,68,2020_Feb_04_1456,spring_faces,3.1.5,59.725495768425674,
condition files/Stage1_1.xlsx,,T3,B4,c,"['c', 'm']","['Clue', 'Monopoly']","[-0.15, 0.5]","[0.15, 0.5]",1,1,,,,,,,,,0,0,0,0,0,3,3,5,,,,,,,,,,,,,,,,,,,,,,,,,,,,,,,,,,,,,,,,,,,,,,,,,,,,,,,453.65717674999905,None,453.65717674999905,None,453.65717674999905,None,m,0,1.4566996330031543,455.2075556759992,None,455.2075556759992,None,455.2075556759992,None,456.7239697980003,None,456.7239697980003,None,456.7239697980003,None,456.7239697980003,None,,,,,,,,,,,,,,,,,,,,,,,,,,,,,,,,,,,,,,,,,,,,001,68,2020_Feb_04_1456,spring_faces,3.1.5,59.725495768425674,
condition files/Stage1_1.xlsx,,B2,T1,m,"['c', 'm']","['Clue', 'Monopoly']","[-0.15, 0.5]","[0.15, 0.5]",1,1,,,,,,,,,0,0,0,0,0,4,4,2,,,,,,,,,,,,,,,,,,,,,,,,,,,,,,,,,,,,,,,,,,,,,,,,,,,,,,,458.6905933429989,None,458.6905933429989,None,458.6905933429989,None,c,0,0.8064857799981837,460.2257808379982,None,460.2257808379982,None,460.2257808379982,None,461.10726154700023,None,461.10726154700023,None,461.10726154700023,None,461.10726154700023,None,,,,,,,,,,,,,,,,,,,,,,,,,,,,,,,,,,,,,,,,,,,,001,68,2020_Feb_04_1456,spring_faces,3.1.5,59.725495768425674,
condition files/Stage1_1.xlsx,,T2,B2,m,"['c', 'm']","['Clue', 'Monopoly']","[-0.15, 0.5]","[0.15, 0.5]",1,1,,,,,,,,,0,0,0,0,0,5,5,3,,,,,,,,,,,,,,,,,,,,,,,,,,,,,,,,,,,,,,,,,,,,,,,,,,,,,,,463.0567908239973,None,463.0567908239973,None,463.0567908239973,None,m,1,3.2396363869993365,464.5926235320003,None,464.5926235320003,None,464.5926235320003,None,467.89044667399867,None,467.89044667399867,None,467.89044667399867,None,467.89044667399867,None,,,,,,,,,,,,,,,,,,,,,,,,,,,,,,,,,,,,,,,,,,,,001,68,2020_Feb_04_1456,spring_faces,3.1.5,59.725495768425674,
condition files/Stage1_1.xlsx,,T4,B3,m,"['c', 'm']","['Clue', 'Monopoly']","[-0.15, 0.5]","[0.15, 0.5]",1,1,,,,,,,,,0,0,0,0,0,6,6,6,,,,,,,,,,,,,,,,,,,,,,,,,,,,,,,,,,,,,,,,,,,,,,,,,,,,,,,469.8575312079993,None,469.8575312079993,None,469.8575312079993,None,c,0,3.3674747820004995,471.3927296410002,None,471.3927296410002,None,471.3927296410002,None,474.8243331449994,None,474.8243331449994,None,474.8243331449994,None,474.8243331449994,None,,,,,,,,,,,,,,,,,,,,,,,,,,,,,,,,,,,,,,,,,,,,001,68,2020_Feb_04_1456,spring_faces,3.1.5,59.725495768425674,
condition files/Stage1_1.xlsx,,B3,T3,c,"['c', 'm']","['Clue', 'Monopoly']","[-0.15, 0.5]","[0.15, 0.5]",1,1,,,,,,,,,0,0,0,0,0,7,7,4,,,,,,,,,,,,,,,,,,,,,,,,,,,,,,,,,,,,,,,,,,,,,,,,,,,,,,,476.79073141700064,None,476.79073141700064,None,476.79073141700064,None,m,0,1.6659175400018285,478.32624347899764,None,478.32624347899764,None,478.32624347899764,None,480.0596382199983,None,480.0596382199983,None,480.0596382199983,None,480.0596382199983,None,,,,,,,,,,,,,,,,,,,,,,,,,,,,,,,,,,,,,,,,,,,,001,68,2020_Feb_04_1456,spring_faces,3.1.5,59.725495768425674,
condition files/Stage1_2.xlsx,,B2,T2,m,"['c', 'm']","['Clue', 'Monopoly']","[-0.15, 0.5]","[0.15, 0.5]",1,1,,,,,,,,,0,1,1,1,0,0,0,3,,,,,,,,,,,,,,,,,,,,,,,,,,,,,,,,,,,,,,,,,,,,,,,,,,,,,,,482.04101257100046,None,482.04101257100046,None,482.04101257100046,None,m,1,1.4399069600003713,483.5763526869996,None,483.5763526869996,None,483.5763526869996,None,485.07601482599785,None,485.07601482599785,None,485.07601482599785,None,485.07601482599785,None,,,,,,,,,,,,,,,,,,,,,,,,,,,,,,,,,,,,,,,,,,,,001,68,2020_Feb_04_1456,spring_faces,3.1.5,59.725495768425674,
condition files/Stage1_2.xlsx,,T4,B4,m,"['c', 'm']","['Clue', 'Monopoly']","[-0.15, 0.5]","[0.15, 0.5]",1,1,,,,,,,,,0,1,1,1,0,1,1,7,,,,,,,,,,,,,,,,,,,,,,,,,,,,,,,,,,,,,,,,,,,,,,,,,,,,,,,487.0399036439994,None,487.0399036439994,None,487.0399036439994,None,c,0,1.3365584590028448,488.5756459999975,None,488.5756459999975,None,488.5756459999975,None,489.9745439219987,None,489.9745439219987,None,489.9745439219987,None,489.9745439219987,None,,,,,,,,,,,,,,,,,,,,,,,,,,,,,,,,,,,,,,,,,,,,001,68,2020_Feb_04_1456,spring_faces,3.1.5,59.725495768425674,
condition files/Stage1_2.xlsx,,B3,T4,m,"['c', 'm']","['Clue', 'Monopoly']","[-0.15, 0.5]","[0.15, 0.5]",1,1,,,,,,,,,0,1,1,1,0,2,2,6,,,,,,,,,,,,,,,,,,,,,,,,,,,,,,,,,,,,,,,,,,,,,,,,,,,,,,,491.9407157329988,None,491.9407157329988,None,491.9407157329988,None,m,1,0.8380159049993381,493.4741808379986,None,493.4741808379986,None,493.4741808379986,None,494.3743193859991,None,494.3743193859991,None,494.3743193859991,None,494.3743193859991,None,,,,,,,,,,,,,,,,,,,,,,,,,,,,,,,,,,,,,,,,,,,,001,68,2020_Feb_04_1456,spring_faces,3.1.5,59.725495768425674,
condition files/Stage1_2.xlsx,,T2,B1,c,"['c', 'm']","['Clue', 'Monopoly']","[-0.15, 0.5]","[0.15, 0.5]",1,1,,,,,,,,,0,1,1,1,0,3,3,1,,,,,,,,,,,,,,,,,,,,,,,,,,,,,,,,,,,,,,,,,,,,,,,,,,,,,,,496.34014760399805,None,496.34014760399805,None,496.34014760399805,None,m,0,1.462344816998666,497.87383336399944,None,497.87383336399944,None,497.87383336399944,None,499.3911620020008,None,499.3911620020008,None,499.3911620020008,None,499.3911620020008,None,,,,,,,,,,,,,,,,,,,,,,,,,,,,,,,,,,,,,,,,,,,,001,68,2020_Feb_04_1456,spring_faces,3.1.5,59.725495768425674,
condition files/Stage1_2.xlsx,,B4,T3,c,"['c', 'm']","['Clue', 'Monopoly']","[-0.15, 0.5]","[0.15, 0.5]",1,1,,,,,,,,,0,1,1,1,0,4,4,5,,,,,,,,,,,,,,,,,,,,,,,,,,,,,,,,,,,,,,,,,,,,,,,,,,,,,,,501.35741574799977,None,501.35741574799977,None,501.35741574799977,None,c,1,1.244990270002745,502.89119363200007,None,502.89119363200007,None,502.89119363200007,None,504.19068982299723,None,504.19068982299723,None,504.19068982299723,None,504.19068982299723,None,,,,,,,,,,,,,,,,,,,,,,,,,,,,,,,,,,,,,,,,,,,,001,68,2020_Feb_04_1456,spring_faces,3.1.5,59.725495768425674,
condition files/Stage1_2.xlsx,,T1,B2,m,"['c', 'm']","['Clue', 'Monopoly']","[-0.15, 0.5]","[0.15, 0.5]",1,1,,,,,,,,,0,1,1,1,0,5,5,2,,,,,,,,,,,,,,,,,,,,,,,,,,,,,,,,,,,,,,,,,,,,,,,,,,,,,,,506.15699770799984,None,506.15699770799984,None,506.15699770799984,None,c,0,1.9491608790012833,507.6910248259992,None,507.6910248259992,None,507.6910248259992,None,509.7076581830006,None,509.7076581830006,None,509.7076581830006,None,509.7076581830006,None,,,,,,,,,,,,,,,,,,,,,,,,,,,,,,,,,,,,,,,,,,,,001,68,2020_Feb_04_1456,spring_faces,3.1.5,59.725495768425674,
condition files/Stage1_2.xlsx,,T3,B3,c,"['c', 'm']","['Clue', 'Monopoly']","[-0.15, 0.5]","[0.15, 0.5]",1,1,,,,,,,,,0,1,1,1,0,6,6,4,,,,,,,,,,,,,,,,,,,,,,,,,,,,,,,,,,,,,,,,,,,,,,,,,,,,,,,511.65679112699945,None,511.65679112699945,None,511.65679112699945,None,c,1,1.7777019980021578,513.1905767459975,None,513.1905767459975,None,513.1905767459975,None,515.0236158769985,None,515.0236158769985,None,515.0236158769985,None,515.0236158769985,None,,,,,,,,,,,,,,,,,,,,,,,,,,,,,,,,,,,,,,,,,,,,001,68,2020_Feb_04_1456,spring_faces,3.1.5,59.725495768425674,
condition files/Stage1_2.xlsx,,B1,T1,c,"['c', 'm']","['Clue', 'Monopoly']","[-0.15, 0.5]","[0.15, 0.5]",1,1,,,,,,,,,0,1,1,1,0,7,7,0,,,,,,,,,,,,,,,,,,,,,,,,,,,,,,,,,,,,,,,,,,,,,,,,,,,,,,,516.9899488779993,None,516.9899488779993,None,516.9899488779993,None,c,1,2.5697377169999527,518.5264707669994,None,518.5264707669994,None,518.5264707669994,None,521.1578122749997,None,521.1578122749997,None,521.1578122749997,None,521.1578122749997,None,,,,,,,,,,,,,,,,,,,,,,,,,,,,,,,,,,,,,,,,,,,,001,68,2020_Feb_04_1456,spring_faces,3.1.5,59.725495768425674,
condition files/Stage1_1.xlsx,,B4,T4,m,"['c', 'm']","['Clue', 'Monopoly']","[-0.15, 0.5]","[0.15, 0.5]",1,1,,,,,,,,,0,2,2,2,0,0,0,7,,,,,,,,,,,,,,,,,,,,,,,,,,,,,,,,,,,,,,,,,,,,,,,,,,,,,,,523.1405124880002,None,523.1405124880002,None,523.1405124880002,None,m,1,2.9813230110012228,524.6748673340007,None,524.6748673340007,None,524.6748673340007,None,527.710522428999,None,527.710522428999,None,527.710522428999,None,527.710522428999,None,,,,,,,,,,,,,,,,,,,,,,,,,,,,,,,,,,,,,,,,,,,,001,68,2020_Feb_04_1456,spring_faces,3.1.5,59.725495768425674,
condition files/Stage1_1.xlsx,,T3,B4,c,"['c', 'm']","['Clue', 'Monopoly']","[-0.15, 0.5]","[0.15, 0.5]",1,1,,,,,,,,,0,2,2,2,0,1,1,5,,,,,,,,,,,,,,,,,,,,,,,,,,,,,,,,,,,,,,,,,,,,,,,,,,,,,,,529.6740283229992,None,529.6740283229992,None,529.6740283229992,None,m,0,1.792254749998392,531.2078732829978,None,531.2078732829978,None,531.2078732829978,None,533.0588681000008,None,533.0588681000008,None,533.0588681000008,None,533.0588681000008,None,,,,,,,,,,,,,,,,,,,,,,,,,,,,,,,,,,,,,,,,,,,,001,68,2020_Feb_04_1456,spring_faces,3.1.5,59.725495768425674,
condition files/Stage1_1.xlsx,,T4,B3,m,"['c', 'm']","['Clue', 'Monopoly']","[-0.15, 0.5]","[0.15, 0.5]",1,1,,,,,,,,,0,2,2,2,0,2,2,6,,,,,,,,,,,,,,,,,,,,,,,,,,,,,,,,,,,,,,,,,,,,,,,,,,,,,,,535.0240882719991,None,535.0240882719991,None,535.0240882719991,None,m,1,2.2673767890009913,536.5568108419975,None,536.5568108419975,None,536.5568108419975,None,538.8910739870007,None,538.8910739870007,None,538.8910739870007,None,538.8910739870007,None,,,,,,,,,,,,,,,,,,,,,,,,,,,,,,,,,,,,,,,,,,,,001,68,2020_Feb_04_1456,spring_faces,3.1.5,59.725495768425674,
condition files/Stage1_1.xlsx,,T1,B1,c,"['c', 'm']","['Clue', 'Monopoly']","[-0.15, 0.5]","[0.15, 0.5]",1,1,,,,,,,,,0,2,2,2,0,3,3,0,,,,,,,,,,,,,,,,,,,,,,,,,,,,,,,,,,,,,,,,,,,,,,,,,,,,,,,540.8401585110005,None,540.8401585110005,None,540.8401585110005,None,c,1,1.7767961619974812,542.3753781729974,None,542.3753781729974,None,542.3753781729974,None,544.2100676189984,None,544.2100676189984,None,544.2100676189984,None,544.2100676189984,None,,,,,,,,,,,,,,,,,,,,,,,,,,,,,,,,,,,,,,,,,,,,001,68,2020_Feb_04_1456,spring_faces,3.1.5,59.725495768425674,
condition files/Stage1_1.xlsx,,B3,T3,c,"['c', 'm']","['Clue', 'Monopoly']","[-0.15, 0.5]","[0.15, 0.5]",1,1,,,,,,,,,0,2,2,2,0,4,4,4,,,,,,,,,,,,,,,,,,,,,,,,,,,,,,,,,,,,,,,,,,,,,,,,,,,,,,,546.1735086810004,None,546.1735086810004,None,546.1735086810004,None,c,1,2.011186309999175,547.7089821810005,None,547.7089821810005,None,547.7089821810005,None,549.7738202239998,None,549.7738202239998,None,549.7738202239998,None,549.7738202239998,None,,,,,,,,,,,,,,,,,,,,,,,,,,,,,,,,,,,,,,,,,,,,001,68,2020_Feb_04_1456,spring_faces,3.1.5,59.725495768425674,
condition files/Stage1_1.xlsx,,B2,T1,m,"['c', 'm']","['Clue', 'Monopoly']","[-0.15, 0.5]","[0.15, 0.5]",1,1,,,,,,,,,0,2,2,2,0,5,5,2,,,,,,,,,,,,,,,,,,,,,,,,,,,,,,,,,,,,,,,,,,,,,,,,,,,,,,,551.7401853390002,None,551.7401853390002,None,551.7401853390002,None,c,0,2.3956807649992697,553.2765076479991,None,553.2765076479991,None,553.2765076479991,None,555.7409846449991,None,555.7409846449991,None,555.7409846449991,None,555.7409846449991,None,,,,,,,,,,,,,,,,,,,,,,,,,,,,,,,,,,,,,,,,,,,,001,68,2020_Feb_04_1456,spring_faces,3.1.5,59.725495768425674,
condition files/Stage1_1.xlsx,,T2,B2,m,"['c', 'm']","['Clue', 'Monopoly']","[-0.15, 0.5]","[0.15, 0.5]",1,1,,,,,,,,,0,2,2,2,0,6,6,3,,,,,,,,,,,,,,,,,,,,,,,,,,,,,,,,,,,,,,,,,,,,,,,,,,,,,,,557.6900734730007,None,557.6900734730007,None,557.6900734730007,None,m,1,4.511606907999521,559.2245959559987,None,559.2245959559987,None,559.2245959559987,None,563.7903029720001,None,563.7903029720001,None,563.7903029720001,None,563.7903029720001,None,,,,,,,,,,,,,,,,,,,,,,,,,,,,,,,,,,,,,,,,,,,,001,68,2020_Feb_04_1456,spring_faces,3.1.5,59.725495768425674,
condition files/Stage1_1.xlsx,,B1,T2,c,"['c', 'm']","['Clue', 'Monopoly']","[-0.15, 0.5]","[0.15, 0.5]",1,1,,,,,,,,,0,2,2,2,0,7,7,1,,,,,,,,,,,,,,,,,,,,,,,,,,,,,,,,,,,,,,,,,,,,,,,,,,,,,,,565.7569485269996,None,565.7569485269996,None,565.7569485269996,None,m,0,1.6451774119996116,567.306995742998,None,567.306995742998,None,567.306995742998,None,569.024540866998,None,569.024540866998,None,569.024540866998,None,569.024540866998,None,,,,,,,,,,,,,,,,,,,,,,,,,,,,,,,,,,,,,,,,,,,,001,68,2020_Feb_04_1456,spring_faces,3.1.5,59.725495768425674,
condition files/Stage1_2.xlsx,,T1,B2,m,"['c', 'm']","['Clue', 'Monopoly']","[-0.15, 0.5]","[0.15, 0.5]",1,1,,,,,,,,,0,3,3,3,0,0,0,2,,,,,,,,,,,,,,,,,,,,,,,,,,,,,,,,,,,,,,,,,,,,,,,,,,,,,,,570.9902668459981,None,570.9902668459981,None,570.9902668459981,None,c,0,1.3232972289988538,572.5409675589981,None,572.5409675589981,None,572.5409675589981,None,573.9405073009984,None,573.9405073009984,None,573.9405073009984,None,573.9405073009984,None,,,,,,,,,,,,,,,,,,,,,,,,,,,,,,,,,,,,,,,,,,,,001,68,2020_Feb_04_1456,spring_faces,3.1.5,59.725495768425674,
condition files/Stage1_2.xlsx,,B2,T2,m,"['c', 'm']","['Clue', 'Monopoly']","[-0.15, 0.5]","[0.15, 0.5]",1,1,,,,,,,,,0,3,3,3,0,1,1,3,,,,,,,,,,,,,,,,,,,,,,,,,,,,,,,,,,,,,,,,,,,,,,,,,,,,,,,575.8907386659994,None,575.8907386659994,None,575.8907386659994,None,m,1,1.991206978000264,577.4410465309993,None,577.4410465309993,None,577.4410465309993,None,579.491125878998,None,579.491125878998,None,579.491125878998,None,579.491125878998,None,,,,,,,,,,,,,,,,,,,,,,,,,,,,,,,,,,,,,,,,,,,,001,68,2020_Feb_04_1456,spring_faces,3.1.5,59.725495768425674,
condition files/Stage1_2.xlsx,,T4,B4,m,"['c', 'm']","['Clue', 'Monopoly']","[-0.15, 0.5]","[0.15, 0.5]",1,1,,,,,,,,,0,3,3,3,0,2,2,7,,,,,,,,,,,,,,,,,,,,,,,,,,,,,,,,,,,,,,,,,,,,,,,,,,,,,,,581.4566612329982,None,581.4566612329982,None,581.4566612329982,None,m,1,1.9770105569987209,582.9912609759995,None,582.9912609759995,None,582.9912609759995,None,585.0235403449988,None,585.0235403449988,None,585.0235403449988,None,585.0235403449988,None,,,,,,,,,,,,,,,,,,,,,,,,,,,,,,,,,,,,,,,,,,,,001,68,2020_Feb_04_1456,spring_faces,3.1.5,59.725495768425674,
condition files/Stage1_2.xlsx,,B1,T1,c,"['c', 'm']","['Clue', 'Monopoly']","[-0.15, 0.5]","[0.15, 0.5]",1,1,,,,,,,,,0,3,3,3,0,3,3,0,,,,,,,,,,,,,,,,,,,,,,,,,,,,,,,,,,,,,,,,,,,,,,,,,,,,,,,586.990088126,None,586.990088126,None,586.990088126,None,c,1,3.067062319998513,588.5410717689992,None,588.5410717689992,None,588.5410717689992,None,591.6910476239973,None,591.6910476239973,None,591.6910476239973,None,591.6910476239973,None,,,,,,,,,,,,,,,,,,,,,,,,,,,,,,,,,,,,,,,,,,,,001,68,2020_Feb_04_1456,spring_faces,3.1.5,59.725495768425674,
condition files/Stage1_2.xlsx,,B4,T3,c,"['c', 'm']","['Clue', 'Monopoly']","[-0.15, 0.5]","[0.15, 0.5]",1,1,,,,,,,,,0,3,3,3,0,4,4,5,,,,,,,,,,,,,,,,,,,,,,,,,,,,,,,,,,,,,,,,,,,,,,,,,,,,,,,593.6401577719989,None,593.6401577719989,None,593.6401577719989,None,m,0,2.7693739329988603,595.1748255479979,None,595.1748255479979,None,595.1748255479979,None,598.0075708199984,None,598.0075708199984,None,598.0075708199984,None,598.0075708199984,None,,,,,,,,,,,,,,,,,,,,,,,,,,,,,,,,,,,,,,,,,,,,001,68,2020_Feb_04_1456,spring_faces,3.1.5,59.725495768425674,
condition files/Stage1_2.xlsx,,B3,T4,m,"['c', 'm']","['Clue', 'Monopoly']","[-0.15, 0.5]","[0.15, 0.5]",1,1,,,,,,,,,0,3,3,3,0,5,5,6,,,,,,,,,,,,,,,,,,,,,,,,,,,,,,,,,,,,,,,,,,,,,,,,,,,,,,,599.9734950269994,None,599.9734950269994,None,599.9734950269994,None,m,1,1.5250711420012522,601.5071942619979,None,601.5071942619979,None,601.5071942619979,None,603.0937858270008,None,603.0937858270008,None,603.0937858270008,None,603.0937858270008,None,,,,,,,,,,,,,,,,,,,,,,,,,,,,,,,,,,,,,,,,,,,,001,68,2020_Feb_04_1456,spring_faces,3.1.5,59.725495768425674,
condition files/Stage1_2.xlsx,,T3,B3,c,"['c', 'm']","['Clue', 'Monopoly']","[-0.15, 0.5]","[0.15, 0.5]",1,1,,,,,,,,,0,3,3,3,0,6,6,4,,,,,,,,,,,,,,,,,,,,,,,,,,,,,,,,,,,,,,,,,,,,,,,,,,,,,,,605.057260431,None,605.057260431,None,605.057260431,None,c,1,2.553285321999283,606.5909250439981,None,606.5909250439981,None,606.5909250439981,None,609.2236120720008,None,609.2236120720008,None,609.2236120720008,None,609.2236120720008,None,,,,,,,,,,,,,,,,,,,,,,,,,,,,,,,,,,,,,,,,,,,,001,68,2020_Feb_04_1456,spring_faces,3.1.5,59.725495768425674,
condition files/Stage1_2.xlsx,,T2,B1,c,"['c', 'm']","['Clue', 'Monopoly']","[-0.15, 0.5]","[0.15, 0.5]",1,1,,,,,,,,,0,3,3,3,0,7,7,1,,,,,,,,,,,,,,,,,,,,,,,,,,,,,,,,,,,,,,,,,,,,,,,,,,,,,,,611.1740320270001,None,611.1740320270001,None,611.1740320270001,None,m,0,3.2689953730005072,612.7071713900004,None,612.7071713900004,None,612.7071713900004,None,616.0408729919982,None,616.0408729919982,None,616.0408729919982,None,616.0408729919982,None,,,,,,,,,,,,,,,,,,,,,,,,,,,,,,,,,,,,,,,,,,,,001,68,2020_Feb_04_1456,spring_faces,3.1.5,59.725495768425674,
condition files/Stage1_1.xlsx,,B1,T2,c,"['c', 'm']","['Clue', 'Monopoly']","[-0.15, 0.5]","[0.15, 0.5]",1,1,,,,,,,,,0,4,4,4,0,0,0,1,,,,,,,,,,,,,,,,,,,,,,,,,,,,,,,,,,,,,,,,,,,,,,,,,,,,,,,618.0243538819996,None,618.0243538819996,None,618.0243538819996,None,m,0,2.898626021000382,619.5575756840008,None,619.5575756840008,None,619.5575756840008,None,622.5078126539993,None,622.5078126539993,None,622.5078126539993,None,622.5078126539993,None,,,,,,,,,,,,,,,,,,,,,,,,,,,,,,,,,,,,,,,,,,,,001,68,2020_Feb_04_1456,spring_faces,3.1.5,59.725495768425674,
condition files/Stage1_1.xlsx,,B3,T3,c,"['c', 'm']","['Clue', 'Monopoly']","[-0.15, 0.5]","[0.15, 0.5]",1,1,,,,,,,,,0,4,4,4,0,1,1,4,,,,,,,,,,,,,,,,,,,,,,,,,,,,,,,,,,,,,,,,,,,,,,,,,,,,,,,624.4739648789982,None,624.4739648789982,None,624.4739648789982,None,c,1,1.9033838219984318,626.0088076809989,None,626.0088076809989,None,626.0088076809989,None,627.9737497079986,None,627.9737497079986,None,627.9737497079986,None,627.9737497079986,None,,,,,,,,,,,,,,,,,,,,,,,,,,,,,,,,,,,,,,,,,,,,001,68,2020_Feb_04_1456,spring_faces,3.1.5,59.725495768425674,
condition files/Stage1_1.xlsx,,B2,T1,m,"['c', 'm']","['Clue', 'Monopoly']","[-0.15, 0.5]","[0.15, 0.5]",1,1,,,,,,,,,0,4,4,4,0,2,2,2,,,,,,,,,,,,,,,,,,,,,,,,,,,,,,,,,,,,,,,,,,,,,,,,,,,,,,,629.9407276899983,None,629.9407276899983,None,629.9407276899983,None,c,0,2.0854250450029213,631.4747755129974,None,631.4747755129974,None,631.4747755129974,None,633.6410136970007,None,633.6410136970007,None,633.6410136970007,None,633.6410136970007,None,,,,,,,,,,,,,,,,,,,,,,,,,,,,,,,,,,,,,,,,,,,,001,68,2020_Feb_04_1456,spring_faces,3.1.5,59.725495768425674,
condition files/Stage1_1.xlsx,,T3,B4,c,"['c', 'm']","['Clue', 'Monopoly']","[-0.15, 0.5]","[0.15, 0.5]",1,1,,,,,,,,,0,4,4,4,0,3,3,5,,,,,,,,,,,,,,,,,,,,,,,,,,,,,,,,,,,,,,,,,,,,,,,,,,,,,,,635.590673546998,None,635.590673546998,None,635.590673546998,None,m,0,6.948670403002325,637.1235309939984,None,637.1235309939984,None,637.1235309939984,None,644.1266000809992,None,644.1266000809992,None,644.1266000809992,None,644.1266000809992,None,,,,,,,,,,,,,,,,,,,,,,,,,,,,,,,,,,,,,,,,,,,,001,68,2020_Feb_04_1456,spring_faces,3.1.5,59.725495768425674,
condition files/Stage1_1.xlsx,,T4,B3,m,"['c', 'm']","['Clue', 'Monopoly']","[-0.15, 0.5]","[0.15, 0.5]",1,1,,,,,,,,,0,4,4,4,0,4,4,6,,,,,,,,,,,,,,,,,,,,,,,,,,,,,,,,,,,,,,,,,,,,,,,,,,,,,,,646.0908598780006,None,646.0908598780006,None,646.0908598780006,None,m,1,1.2461522109988437,647.6260488469998,None,647.6260488469998,None,647.6260488469998,None,648.9265798339984,None,648.9265798339984,None,648.9265798339984,None,648.9265798339984,None,,,,,,,,,,,,,,,,,,,,,,,,,,,,,,,,,,,,,,,,,,,,001,68,2020_Feb_04_1456,spring_faces,3.1.5,59.725495768425674,
condition files/Stage1_1.xlsx,,B4,T4,m,"['c', 'm']","['Clue', 'Monopoly']","[-0.15, 0.5]","[0.15, 0.5]",1,1,,,,,,,,,0,4,4,4,0,5,5,7,,,,,,,,,,,,,,,,,,,,,,,,,,,,,,,,,,,,,,,,,,,,,,,,,,,,,,,650.8908457799989,None,650.8908457799989,None,650.8908457799989,None,m,1,1.7119202779977059,652.4242812649973,None,652.4242812649973,None,652.4242812649973,None,654.1910180550003,None,654.1910180550003,None,654.1910180550003,None,654.1910180550003,None,,,,,,,,,,,,,,,,,,,,,,,,,,,,,,,,,,,,,,,,,,,,001,68,2020_Feb_04_1456,spring_faces,3.1.5,59.725495768425674,
condition files/Stage1_1.xlsx,,T2,B2,m,"['c', 'm']","['Clue', 'Monopoly']","[-0.15, 0.5]","[0.15, 0.5]",1,1,,,,,,,,,0,4,4,4,0,6,6,3,,,,,,,,,,,,,,,,,,,,,,,,,,,,,,,,,,,,,,,,,,,,,,,,,,,,,,,656.1573840199999,None,656.1573840199999,None,656.1573840199999,None,c,0,1.4055665329979092,657.690646275998,None,657.690646275998,None,657.690646275998,None,659.1574261200003,None,659.1574261200003,None,659.1574261200003,None,659.1574261200003,None,,,,,,,,,,,,,,,,,,,,,,,,,,,,,,,,,,,,,,,,,,,,001,68,2020_Feb_04_1456,spring_faces,3.1.5,59.725495768425674,
condition files/Stage1_1.xlsx,,T1,B1,c,"['c', 'm']","['Clue', 'Monopoly']","[-0.15, 0.5]","[0.15, 0.5]",1,1,,,,,,,,,0,4,4,4,0,7,7,0,,,,,,,,,,,,,,,,,,,,,,,,,,,,,,,,,,,,,,,,,,,,,,,,,,,,,,,661.1241526859994,None,661.1241526859994,None,661.1241526859994,None,c,1,1.7985010939992208,662.6576998009987,None,662.6576998009987,None,662.6576998009987,None,664.5248287819995,None,664.5248287819995,None,664.5248287819995,None,664.5248287819995,None,,,,,,,,,,,,,,,,,,,,,,,,,,,,,,,,,,,,,,,,,,,,001,68,2020_Feb_04_1456,spring_faces,3.1.5,59.725495768425674,
condition files/Stage1_2.xlsx,,T1,B2,m,"['c', 'm']","['Clue', 'Monopoly']","[-0.15, 0.5]","[0.15, 0.5]",1,1,,,,,,,,,0,5,5,5,0,0,0,2,,,,,,,,,,,,,,,,,,,,,,,,,,,,,,,,,,,,,,,,,,,,,,,,,,,,,,,666.490794538,None,666.490794538,None,666.490794538,None,c,0,2.4957334810023895,668.0404219409975,None,668.0404219409975,None,668.0404219409975,None,670.6075237320001,None,670.6075237320001,None,670.6075237320001,None,670.6075237320001,None,,,,,,,,,,,,,,,,,,,,,,,,,,,,,,,,,,,,,,,,,,,,001,68,2020_Feb_04_1456,spring_faces,3.1.5,59.725495768425674,
condition files/Stage1_2.xlsx,,T4,B4,m,"['c', 'm']","['Clue', 'Monopoly']","[-0.15, 0.5]","[0.15, 0.5]",1,1,,,,,,,,,0,5,5,5,0,1,1,7,,,,,,,,,,,,,,,,,,,,,,,,,,,,,,,,,,,,,,,,,,,,,,,,,,,,,,,672.5574168249987,None,672.5574168249987,None,672.5574168249987,None,m,1,1.27718964000087,674.1070547729978,None,674.1070547729978,None,674.1070547729978,None,675.4404844749988,None,675.4404844749988,None,675.4404844749988,None,675.4404844749988,None,,,,,,,,,,,,,,,,,,,,,,,,,,,,,,,,,,,,,,,,,,,,001,68,2020_Feb_04_1456,spring_faces,3.1.5,59.725495768425674,
condition files/Stage1_2.xlsx,,B1,T1,c,"['c', 'm']","['Clue', 'Monopoly']","[-0.15, 0.5]","[0.15, 0.5]",1,1,,,,,,,,,0,5,5,5,0,2,2,0,,,,,,,,,,,,,,,,,,,,,,,,,,,,,,,,,,,,,,,,,,,,,,,,,,,,,,,677.4068499819987,None,677.4068499819987,None,677.4068499819987,None,c,1,4.554802743998152,678.9574360769984,None,678.9574360769984,None,678.9574360769984,None,683.5910665569972,None,683.5910665569972,None,683.5910665569972,None,683.5910665569972,None,,,,,,,,,,,,,,,,,,,,,,,,,,,,,,,,,,,,,,,,,,,,001,68,2020_Feb_04_1456,spring_faces,3.1.5,59.725495768425674,
condition files/Stage1_2.xlsx,,B3,T4,m,"['c', 'm']","['Clue', 'Monopoly']","[-0.15, 0.5]","[0.15, 0.5]",1,1,,,,,,,,,0,5,5,5,0,3,3,6,,,,,,,,,,,,,,,,,,,,,,,,,,,,,,,,,,,,,,,,,,,,,,,,,,,,,,,685.5408891469997,None,685.5408891469997,None,685.5408891469997,None,m,1,1.38258566100194,687.0736119939975,None,687.0736119939975,None,687.0736119939975,None,688.5241903499991,None,688.5241903499991,None,688.5241903499991,None,688.5241903499991,None,,,,,,,,,,,,,,,,,,,,,,,,,,,,,,,,,,,,,,,,,,,,001,68,2020_Feb_04_1456,spring_faces,3.1.5,59.725495768425674,
condition files/Stage1_2.xlsx,,B4,T3,c,"['c', 'm']","['Clue', 'Monopoly']","[-0.15, 0.5]","[0.15, 0.5]",1,1,,,,,,,,,0,5,5,5,0,4,4,5,,,,,,,,,,,,,,,,,,,,,,,,,,,,,,,,,,,,,,,,,,,,,,,,,,,,,,,690.473478003998,None,690.473478003998,None,690.473478003998,None,m,0,2.335876075998385,692.0243060409994,None,692.0243060409994,None,692.0243060409994,None,694.426798788998,None,694.426798788998,None,694.426798788998,None,694.426798788998,None,,,,,,,,,,,,,,,,,,,,,,,,,,,,,,,,,,,,,,,,,,,,001,68,2020_Feb_04_1456,spring_faces,3.1.5,59.725495768425674,
condition files/Stage1_2.xlsx,,B2,T2,m,"['c', 'm']","['Clue', 'Monopoly']","[-0.15, 0.5]","[0.15, 0.5]",1,1,,,,,,,,,0,5,5,5,0,5,5,3,,,,,,,,,,,,,,,,,,,,,,,,,,,,,,,,,,,,,,,,,,,,,,,,,,,,,,,696.3908997020008,None,696.3908997020008,None,696.3908997020008,None,c,0,3.219899022999016,697.9243036490006,None,697.9243036490006,None,697.9243036490006,None,701.2240005189997,None,701.2240005189997,None,701.2240005189997,None,701.2240005189997,None,,,,,,,,,,,,,,,,,,,,,,,,,,,,,,,,,,,,,,,,,,,,001,68,2020_Feb_04_1456,spring_faces,3.1.5,59.725495768425674,
condition files/Stage1_2.xlsx,,T2,B1,c,"['c', 'm']","['Clue', 'Monopoly']","[-0.15, 0.5]","[0.15, 0.5]",1,1,,,,,,,,,0,5,5,5,0,6,6,1,,,,,,,,,,,,,,,,,,,,,,,,,,,,,,,,,,,,,,,,,,,,,,,,,,,,,,,703.1743763119994,None,703.1743763119994,None,703.1743763119994,None,c,1,2.3879325190027885,704.7242669179977,None,704.7242669179977,None,704.7242669179977,None,707.1907752209991,None,707.1907752209991,None,707.1907752209991,None,707.1907752209991,None,,,,,,,,,,,,,,,,,,,,,,,,,,,,,,,,,,,,,,,,,,,,001,68,2020_Feb_04_1456,spring_faces,3.1.5,59.725495768425674,
condition files/Stage1_2.xlsx,,T3,B3,c,"['c', 'm']","['Clue', 'Monopoly']","[-0.15, 0.5]","[0.15, 0.5]",1,1,,,,,,,,,0,5,5,5,0,7,7,4,,,,,,,,,,,,,,,,,,,,,,,,,,,,,,,,,,,,,,,,,,,,,,,,,,,,,,,709.1407743790005,None,709.1407743790005,None,709.1407743790005,None,m,0,1.7184810479993757,710.6737141960002,None,710.6737141960002,None,710.6737141960002,None,712.4576707209999,None,712.4576707209999,None,712.4576707209999,None,712.4576707209999,None,,,,,,,,,,,,,,,,,,,,,,,,,,,,,,,,,,,,,,,,,,,,001,68,2020_Feb_04_1456,spring_faces,3.1.5,59.725495768425674,
condition files/Stage1_1.xlsx,,B4,T4,m,"['c', 'm']","['Clue', 'Monopoly']","[-0.15, 0.5]","[0.15, 0.5]",1,1,,,,,,,,,0,6,6,6,0,0,0,7,,,,,,,,,,,,,,,,,,,,,,,,,,,,,,,,,,,,,,,,,,,,,,,,,,,,,,,714.4411159480005,None,714.4411159480005,None,714.4411159480005,None,m,1,1.1679689250013325,715.9762330349986,None,715.9762330349986,None,715.9762330349986,None,717.2091677639983,None,717.2091677639983,None,717.2091677639983,None,717.2091677639983,None,,,,,,,,,,,,,,,,,,,,,,,,,,,,,,,,,,,,,,,,,,,,001,68,2020_Feb_04_1456,spring_faces,3.1.5,59.725495768425674,
condition files/Stage1_1.xlsx,,B1,T2,c,"['c', 'm']","['Clue', 'Monopoly']","[-0.15, 0.5]","[0.15, 0.5]",1,1,,,,,,,,,0,6,6,6,0,1,1,1,,,,,,,,,,,,,,,,,,,,,,,,,,,,,,,,,,,,,,,,,,,,,,,,,,,,,,,719.1741409889983,None,719.1741409889983,None,719.1741409889983,None,c,1,1.4610638980011572,720.7072243319999,None,720.7072243319999,None,720.7072243319999,None,722.2253912529995,None,722.2253912529995,None,722.2253912529995,None,722.2253912529995,None,,,,,,,,,,,,,,,,,,,,,,,,,,,,,,,,,,,,,,,,,,,,001,68,2020_Feb_04_1456,spring_faces,3.1.5,59.725495768425674,
condition files/Stage1_1.xlsx,,T4,B3,m,"['c', 'm']","['Clue', 'Monopoly']","[-0.15, 0.5]","[0.15, 0.5]",1,1,,,,,,,,,0,6,6,6,0,2,2,6,,,,,,,,,,,,,,,,,,,,,,,,,,,,,,,,,,,,,,,,,,,,,,,,,,,,,,,724.1906627569988,None,724.1906627569988,None,724.1906627569988,None,m,1,1.5793994100022246,725.7407946399981,None,725.7407946399981,None,725.7407946399981,None,727.3905053979979,None,727.3905053979979,None,727.3905053979979,None,727.3905053979979,None,,,,,,,,,,,,,,,,,,,,,,,,,,,,,,,,,,,,,,,,,,,,001,68,2020_Feb_04_1456,spring_faces,3.1.5,59.725495768425674,
condition files/Stage1_1.xlsx,,T2,B2,m,"['c', 'm']","['Clue', 'Monopoly']","[-0.15, 0.5]","[0.15, 0.5]",1,1,,,,,,,,,0,6,6,6,0,3,3,3,,,,,,,,,,,,,,,,,,,,,,,,,,,,,,,,,,,,,,,,,,,,,,,,,,,,,,,729.3408610629995,None,729.3408610629995,None,729.3408610629995,None,m,1,1.534034153999528,730.8741448269975,None,730.8741448269975,None,730.8741448269975,None,732.474439712998,None,732.474439712998,None,732.474439712998,None,732.474439712998,None,,,,,,,,,,,,,,,,,,,,,,,,,,,,,,,,,,,,,,,,,,,,001,68,2020_Feb_04_1456,spring_faces,3.1.5,59.725495768425674,
condition files/Stage1_1.xlsx,,B2,T1,m,"['c', 'm']","['Clue', 'Monopoly']","[-0.15, 0.5]","[0.15, 0.5]",1,1,,,,,,,,,0,6,6,6,0,4,4,2,,,,,,,,,,,,,,,,,,,,,,,,,,,,,,,,,,,,,,,,,,,,,,,,,,,,,,,734.4410319050003,None,734.4410319050003,None,734.4410319050003,None,c,0,2.6093685579980956,735.9909252599973,None,735.9909252599973,None,735.9909252599973,None,738.657613514999,None,738.657613514999,None,738.657613514999,None,738.657613514999,None,,,,,,,,,,,,,,,,,,,,,,,,,,,,,,,,,,,,,,,,,,,,001,68,2020_Feb_04_1456,spring_faces,3.1.5,59.725495768425674,
condition files/Stage1_1.xlsx,,T1,B1,c,"['c', 'm']","['Clue', 'Monopoly']","[-0.15, 0.5]","[0.15, 0.5]",1,1,,,,,,,,,0,6,6,6,0,5,5,0,,,,,,,,,,,,,,,,,,,,,,,,,,,,,,,,,,,,,,,,,,,,,,,,,,,,,,,740.6234494019991,None,740.6234494019991,None,740.6234494019991,None,c,1,2.3619798789986817,742.1741943519992,None,742.1741943519992,None,742.1741943519992,None,744.6078200599986,None,744.6078200599986,None,744.6078200599986,None,744.6078200599986,None,,,,,,,,,,,,,,,,,,,,,,,,,,,,,,,,,,,,,,,,,,,,001,68,2020_Feb_04_1456,spring_faces,3.1.5,59.725495768425674,
condition files/Stage1_1.xlsx,,B3,T3,c,"['c', 'm']","['Clue', 'Monopoly']","[-0.15, 0.5]","[0.15, 0.5]",1,1,,,,,,,,,0,6,6,6,0,6,6,4,,,,,,,,,,,,,,,,,,,,,,,,,,,,,,,,,,,,,,,,,,,,,,,,,,,,,,,746.5568712940003,None,746.5568712940003,None,746.5568712940003,None,m,0,2.413586360999034,748.0907264969974,None,748.0907264969974,None,748.0907264969974,None,750.5572976490002,None,750.5572976490002,None,750.5572976490002,None,750.5572976490002,None,,,,,,,,,,,,,,,,,,,,,,,,,,,,,,,,,,,,,,,,,,,,001,68,2020_Feb_04_1456,spring_faces,3.1.5,59.725495768425674,
condition files/Stage1_1.xlsx,,T3,B4,c,"['c', 'm']","['Clue', 'Monopoly']","[-0.15, 0.5]","[0.15, 0.5]",1,1,,,,,,,,,0,6,6,6,0,7,7,5,,,,,,,,,,,,,,,,,,,,,,,,,,,,,,,,,,,,,,,,,,,,,,,,,,,,,,,752.5237671760005,None,752.5237671760005,None,752.5237671760005,None,c,1,1.4537219220001134,754.0584915929976,None,754.0584915929976,None,754.0584915929976,None,755.5734003599973,None,755.5734003599973,None,755.5734003599973,None,755.5734003599973,None,,,,,,,,,,,,,,,,,,,,,,,,,,,,,,,,,,,,,,,,,,,,001,68,2020_Feb_04_1456,spring_faces,3.1.5,59.725495768425674,
condition files/Stage1_2.xlsx,,B2,T2,m,"['c', 'm']","['Clue', 'Monopoly']","[-0.15, 0.5]","[0.15, 0.5]",1,1,,,,,,,,,0,7,7,7,0,0,0,3,,,,,,,,,,,,,,,,,,,,,,,,,,,,,,,,,,,,,,,,,,,,,,,,,,,,,,,757.5570397369993,None,757.5570397369993,None,757.5570397369993,None,c,0,1.429614438999124,759.0906021189985,None,759.0906021189985,None,759.0906021189985,None,760.5754863869988,None,760.5754863869988,None,760.5754863869988,None,760.5754863869988,None,,,,,,,,,,,,,,,,,,,,,,,,,,,,,,,,,,,,,,,,,,,,001,68,2020_Feb_04_1456,spring_faces,3.1.5,59.725495768425674,
condition files/Stage1_2.xlsx,,T3,B3,c,"['c', 'm']","['Clue', 'Monopoly']","[-0.15, 0.5]","[0.15, 0.5]",1,1,,,,,,,,,0,7,7,7,0,1,1,4,,,,,,,,,,,,,,,,,,,,,,,,,,,,,,,,,,,,,,,,,,,,,,,,,,,,,,,762.5399395739987,None,762.5399395739987,None,762.5399395739987,None,c,1,2.030725523000001,764.0737201679985,None,764.0737201679985,None,764.0737201679985,None,766.1739248049998,None,766.1739248049998,None,766.1739248049998,None,766.1739248049998,None,,,,,,,,,,,,,,,,,,,,,,,,,,,,,,,,,,,,,,,,,,,,001,68,2020_Feb_04_1456,spring_faces,3.1.5,59.725495768425674,
condition files/Stage1_2.xlsx,,B4,T3,c,"['c', 'm']","['Clue', 'Monopoly']","[-0.15, 0.5]","[0.15, 0.5]",1,1,,,,,,,,,0,7,7,7,0,2,2,5,,,,,,,,,,,,,,,,,,,,,,,,,,,,,,,,,,,,,,,,,,,,,,,,,,,,,,,768.1242982939984,None,768.1242982939984,None,768.1242982939984,None,c,1,1.0700998790016456,769.6581079319985,None,769.6581079319985,None,769.6581079319985,None,770.7909823129994,None,770.7909823129994,None,770.7909823129994,None,770.7909823129994,None,,,,,,,,,,,,,,,,,,,,,,,,,,,,,,,,,,,,,,,,,,,,001,68,2020_Feb_04_1456,spring_faces,3.1.5,59.725495768425674,
condition files/Stage1_2.xlsx,,T2,B1,c,"['c', 'm']","['Clue', 'Monopoly']","[-0.15, 0.5]","[0.15, 0.5]",1,1,,,,,,,,,0,7,7,7,0,3,3,1,,,,,,,,,,,,,,,,,,,,,,,,,,,,,,,,,,,,,,,,,,,,,,,,,,,,,,,772.7575516590005,None,772.7575516590005,None,772.7575516590005,None,m,0,1.6992309470006148,774.2929501069993,None,774.2929501069993,None,774.2929501069993,None,776.0570447669998,None,776.0570447669998,None,776.0570447669998,None,776.0570447669998,None,,,,,,,,,,,,,,,,,,,,,,,,,,,,,,,,,,,,,,,,,,,,001,68,2020_Feb_04_1456,spring_faces,3.1.5,59.725495768425674,
condition files/Stage1_2.xlsx,,T1,B2,m,"['c', 'm']","['Clue', 'Monopoly']","[-0.15, 0.5]","[0.15, 0.5]",1,1,,,,,,,,,0,7,7,7,0,4,4,2,,,,,,,,,,,,,,,,,,,,,,,,,,,,,,,,,,,,,,,,,,,,,,,,,,,,,,,778.0239084469977,None,778.0239084469977,None,778.0239084469977,None,m,1,1.058756064998306,779.5575146819974,None,779.5575146819974,None,779.5575146819974,None,780.6770670349979,None,780.6770670349979,None,780.6770670349979,None,780.6770670349979,None,,,,,,,,,,,,,,,,,,,,,,,,,,,,,,,,,,,,,,,,,,,,001,68,2020_Feb_04_1456,spring_faces,3.1.5,59.725495768425674,
condition files/Stage1_2.xlsx,,B1,T1,c,"['c', 'm']","['Clue', 'Monopoly']","[-0.15, 0.5]","[0.15, 0.5]",1,1,,,,,,,,,0,7,7,7,0,5,5,0,,,,,,,,,,,,,,,,,,,,,,,,,,,,,,,,,,,,,,,,,,,,,,,,,,,,,,,782.6400805970006,None,782.6400805970006,None,782.6400805970006,None,c,1,1.9134156209984212,784.1910017230002,None,784.1910017230002,None,784.1910017230002,None,786.1743787279993,None,786.1743787279993,None,786.1743787279993,None,786.1743787279993,None,,,,,,,,,,,,,,,,,,,,,,,,,,,,,,,,,,,,,,,,,,,,001,68,2020_Feb_04_1456,spring_faces,3.1.5,59.725495768425674,
condition files/Stage1_2.xlsx,,T4,B4,m,"['c', 'm']","['Clue', 'Monopoly']","[-0.15, 0.5]","[0.15, 0.5]",1,1,,,,,,,,,0,7,7,7,0,6,6,7,,,,,,,,,,,,,,,,,,,,,,,,,,,,,,,,,,,,,,,,,,,,,,,,,,,,,,,788.1235118589975,None,788.1235118589975,None,788.1235118589975,None,m,1,1.324276186998759,789.659975145998,None,789.659975145998,None,789.659975145998,None,791.0579422219998,None,791.0579422219998,None,791.0579422219998,None,791.0579422219998,None,,,,,,,,,,,,,,,,,,,,,,,,,,,,,,,,,,,,,,,,,,,,001,68,2020_Feb_04_1456,spring_faces,3.1.5,59.725495768425674,
condition files/Stage1_2.xlsx,,B3,T4,m,"['c', 'm']","['Clue', 'Monopoly']","[-0.15, 0.5]","[0.15, 0.5]",1,1,,,,,,,,,0,7,7,7,0,7,7,6,,,,,,,,,,,,,,,,,,,,,,,,,,,,,,,,,,,,,,,,,,,,,,,,,,,,,,,793.0072556569976,None,793.0072556569976,None,793.0072556569976,None,m,1,0.9879793969994353,794.540221272,None,794.540221272,None,794.540221272,None,795.5910229189976,None,795.5910229189976,None,795.5910229189976,None,795.5910229189976,None,,,,,,,,,,,,,,,,,,,,,,,,,,,,,,,,,,,,,,,,,,,,001,68,2020_Feb_04_1456,spring_faces,3.1.5,59.725495768425674,
condition files/Stage1_1.xlsx,,B4,T4,m,"['c', 'm']","['Clue', 'Monopoly']","[-0.15, 0.5]","[0.15, 0.5]",1,1,,,,,,,,,0,8,8,8,0,0,0,7,,,,,,,,,,,,,,,,,,,,,,,,,,,,,,,,,,,,,,,,,,,,,,,,,,,,,,,797.5735961889986,None,797.5735961889986,None,797.5735961889986,None,m,1,0.8998221479996573,799.1243787429994,None,799.1243787429994,None,799.1243787429994,None,800.073830434998,None,800.073830434998,None,800.073830434998,None,800.073830434998,None,,,,,,,,,,,,,,,,,,,,,,,,,,,,,,,,,,,,,,,,,,,,001,68,2020_Feb_04_1456,spring_faces,3.1.5,59.725495768425674,
condition files/Stage1_1.xlsx,,T1,B1,c,"['c', 'm']","['Clue', 'Monopoly']","[-0.15, 0.5]","[0.15, 0.5]",1,1,,,,,,,,,0,8,8,8,0,1,1,0,,,,,,,,,,,,,,,,,,,,,,,,,,,,,,,,,,,,,,,,,,,,,,,,,,,,,,,802.0408145849979,None,802.0408145849979,None,802.0408145849979,None,c,1,1.2009879990000627,803.5911315949998,None,803.5911315949998,None,803.5911315949998,None,804.8743086779978,None,804.8743086779978,None,804.8743086779978,None,804.8743086779978,None,,,,,,,,,,,,,,,,,,,,,,,,,,,,,,,,,,,,,,,,,,,,001,68,2020_Feb_04_1456,spring_faces,3.1.5,59.725495768425674,
condition files/Stage1_1.xlsx,,T4,B3,m,"['c', 'm']","['Clue', 'Monopoly']","[-0.15, 0.5]","[0.15, 0.5]",1,1,,,,,,,,,0,8,8,8,0,2,2,6,,,,,,,,,,,,,,,,,,,,,,,,,,,,,,,,,,,,,,,,,,,,,,,,,,,,,,,806.8239737170006,None,806.8239737170006,None,806.8239737170006,None,m,1,0.8990853840005002,808.3570990619992,None,808.3570990619992,None,808.3570990619992,None,809.3079115990004,None,809.3079115990004,None,809.3079115990004,None,809.3079115990004,None,,,,,,,,,,,,,,,,,,,,,,,,,,,,,,,,,,,,,,,,,,,,001,68,2020_Feb_04_1456,spring_faces,3.1.5,59.725495768425674,
condition files/Stage1_1.xlsx,,B3,T3,c,"['c', 'm']","['Clue', 'Monopoly']","[-0.15, 0.5]","[0.15, 0.5]",1,1,,,,,,,,,0,8,8,8,0,3,3,4,,,,,,,,,,,,,,,,,,,,,,,,,,,,,,,,,,,,,,,,,,,,,,,,,,,,,,,811.2738205409987,None,811.2738205409987,None,811.2738205409987,None,c,1,1.1510210699998424,812.8091912269992,None,812.8091912269992,None,812.8091912269992,None,814.0402961269974,None,814.0402961269974,None,814.0402961269974,None,814.0402961269974,None,,,,,,,,,,,,,,,,,,,,,,,,,,,,,,,,,,,,,,,,,,,,001,68,2020_Feb_04_1456,spring_faces,3.1.5,59.725495768425674,
condition files/Stage1_1.xlsx,,B2,T1,m,"['c', 'm']","['Clue', 'Monopoly']","[-0.15, 0.5]","[0.15, 0.5]",1,1,,,,,,,,,0,8,8,8,0,4,4,2,,,,,,,,,,,,,,,,,,,,,,,,,,,,,,,,,,,,,,,,,,,,,,,,,,,,,,,815.9901017189986,None,815.9901017189986,None,815.9901017189986,None,m,1,2.579648006998468,817.5247567410006,None,817.5247567410006,None,817.5247567410006,None,820.1742178479981,None,820.1742178479981,None,820.1742178479981,None,820.1742178479981,None,,,,,,,,,,,,,,,,,,,,,,,,,,,,,,,,,,,,,,,,,,,,001,68,2020_Feb_04_1456,spring_faces,3.1.5,59.725495768425674,
condition files/Stage1_1.xlsx,,T2,B2,m,"['c', 'm']","['Clue', 'Monopoly']","[-0.15, 0.5]","[0.15, 0.5]",1,1,,,,,,,,,0,8,8,8,0,5,5,3,,,,,,,,,,,,,,,,,,,,,,,,,,,,,,,,,,,,,,,,,,,,,,,,,,,,,,,822.1242178969987,None,822.1242178969987,None,822.1242178969987,None,c,0,1.1821493539973744,823.6580556049994,None,823.6580556049994,None,823.6580556049994,None,824.8911597570004,None,824.8911597570004,None,824.8911597570004,None,824.8911597570004,None,,,,,,,,,,,,,,,,,,,,,,,,,,,,,,,,,,,,,,,,,,,,001,68,2020_Feb_04_1456,spring_faces,3.1.5,59.725495768425674,
condition files/Stage1_1.xlsx,,B1,T2,c,"['c', 'm']","['Clue', 'Monopoly']","[-0.15, 0.5]","[0.15, 0.5]",1,1,,,,,,,,,0,8,8,8,0,6,6,1,,,,,,,,,,,,,,,,,,,,,,,,,,,,,,,,,,,,,,,,,,,,,,,,,,,,,,,826.8574009129989,None,826.8574009129989,None,826.8574009129989,None,c,1,2.3365317930001765,828.3916681089977,None,828.3916681089977,None,828.3916681089977,None,830.8073810659989,None,830.8073810659989,None,830.8073810659989,None,830.8073810659989,None,,,,,,,,,,,,,,,,,,,,,,,,,,,,,,,,,,,,,,,,,,,,001,68,2020_Feb_04_1456,spring_faces,3.1.5,59.725495768425674,
condition files/Stage1_1.xlsx,,T3,B4,c,"['c', 'm']","['Clue', 'Monopoly']","[-0.15, 0.5]","[0.15, 0.5]",1,1,,,,,,,,,0,8,8,8,0,7,7,5,,,,,,,,,,,,,,,,,,,,,,,,,,,,,,,,,,,,,,,,,,,,,,,,,,,,,,,832.7570778939989,None,832.7570778939989,None,832.7570778939989,None,c,1,2.0197068710003805,834.2925126919981,None,834.2925126919981,None,834.2925126919981,None,836.3745729779985,None,836.3745729779985,None,836.3745729779985,None,836.3745729779985,None,,,,,,,,,,,,,,,,,,,,,,,,,,,,,,,,,,,,,,,,,,,,001,68,2020_Feb_04_1456,spring_faces,3.1.5,59.725495768425674,
condition files/Stage1_2.xlsx,,T2,B1,c,"['c', 'm']","['Clue', 'Monopoly']","[-0.15, 0.5]","[0.15, 0.5]",1,1,,,,,,,,,0,9,9,9,0,0,0,1,,,,,,,,,,,,,,,,,,,,,,,,,,,,,,,,,,,,,,,,,,,,,,,,,,,,,,,838.3578828569989,None,838.3578828569989,None,838.3578828569989,None,m,0,1.0457120079991,839.890455075998,None,839.890455075998,None,839.890455075998,None,840.9903910510002,None,840.9903910510002,None,840.9903910510002,None,840.9903910510002,None,,,,,,,,,,,,,,,,,,,,,,,,,,,,,,,,,,,,,,,,,,,,001,68,2020_Feb_04_1456,spring_faces,3.1.5,59.725495768425674,
condition files/Stage1_2.xlsx,,B4,T3,c,"['c', 'm']","['Clue', 'Monopoly']","[-0.15, 0.5]","[0.15, 0.5]",1,1,,,,,,,,,0,9,9,9,0,1,1,5,,,,,,,,,,,,,,,,,,,,,,,,,,,,,,,,,,,,,,,,,,,,,,,,,,,,,,,842.9574983179991,None,842.9574983179991,None,842.9574983179991,None,m,0,1.036226838001312,844.4919775269991,None,844.4919775269991,None,844.4919775269991,None,845.5905910269976,None,845.5905910269976,None,845.5905910269976,None,845.5905910269976,None,,,,,,,,,,,,,,,,,,,,,,,,,,,,,,,,,,,,,,,,,,,,001,68,2020_Feb_04_1456,spring_faces,3.1.5,59.725495768425674,
condition files/Stage1_2.xlsx,,T1,B2,m,"['c', 'm']","['Clue', 'Monopoly']","[-0.15, 0.5]","[0.15, 0.5]",1,1,,,,,,,,,0,9,9,9,0,2,2,2,,,,,,,,,,,,,,,,,,,,,,,,,,,,,,,,,,,,,,,,,,,,,,,,,,,,,,,847.5573870640001,None,847.5573870640001,None,847.5573870640001,None,c,0,1.5725161629998183,849.1076829099984,None,849.1076829099984,None,849.1076829099984,None,850.7573970189987,None,850.7573970189987,None,850.7573970189987,None,850.7573970189987,None,,,,,,,,,,,,,,,,,,,,,,,,,,,,,,,,,,,,,,,,,,,,001,68,2020_Feb_04_1456,spring_faces,3.1.5,59.725495768425674,
condition files/Stage1_2.xlsx,,T3,B3,c,"['c', 'm']","['Clue', 'Monopoly']","[-0.15, 0.5]","[0.15, 0.5]",1,1,,,,,,,,,0,9,9,9,0,3,3,4,,,,,,,,,,,,,,,,,,,,,,,,,,,,,,,,,,,,,,,,,,,,,,,,,,,,,,,852.7071329559985,None,852.7071329559985,None,852.7071329559985,None,c,1,2.21341304499947,854.2427918569992,None,854.2427918569992,None,854.2427918569992,None,856.5242853079981,None,856.5242853079981,None,856.5242853079981,None,856.5242853079981,None,,,,,,,,,,,,,,,,,,,,,,,,,,,,,,,,,,,,,,,,,,,,001,68,2020_Feb_04_1456,spring_faces,3.1.5,59.725495768425674,
condition files/Stage1_2.xlsx,,B1,T1,c,"['c', 'm']","['Clue', 'Monopoly']","[-0.15, 0.5]","[0.15, 0.5]",1,1,,,,,,,,,0,9,9,9,0,4,4,0,,,,,,,,,,,,,,,,,,,,,,,,,,,,,,,,,,,,,,,,,,,,,,,,,,,,,,,858.473736011998,None,858.473736011998,None,858.473736011998,None,c,1,1.6798808870007633,860.0243363759982,None,860.0243363759982,None,860.0243363759982,None,861.7578196369977,None,861.7578196369977,None,861.7578196369977,None,861.7578196369977,None,,,,,,,,,,,,,,,,,,,,,,,,,,,,,,,,,,,,,,,,,,,,001,68,2020_Feb_04_1456,spring_faces,3.1.5,59.725495768425674,
condition files/Stage1_2.xlsx,,B3,T4,m,"['c', 'm']","['Clue', 'Monopoly']","[-0.15, 0.5]","[0.15, 0.5]",1,1,,,,,,,,,0,9,9,9,0,5,5,6,,,,,,,,,,,,,,,,,,,,,,,,,,,,,,,,,,,,,,,,,,,,,,,,,,,,,,,863.7242649979999,None,863.7242649979999,None,863.7242649979999,None,m,1,1.5669508469982247,865.2571910389997,None,865.2571910389997,None,865.2571910389997,None,866.9076509820006,None,866.9076509820006,None,866.9076509820006,None,866.9076509820006,None,,,,,,,,,,,,,,,,,,,,,,,,,,,,,,,,,,,,,,,,,,,,001,68,2020_Feb_04_1456,spring_faces,3.1.5,59.725495768425674,
condition files/Stage1_2.xlsx,,B2,T2,m,"['c', 'm']","['Clue', 'Monopoly']","[-0.15, 0.5]","[0.15, 0.5]",1,1,,,,,,,,,0,9,9,9,0,6,6,3,,,,,,,,,,,,,,,,,,,,,,,,,,,,,,,,,,,,,,,,,,,,,,,,,,,,,,,868.8572704479993,None,868.8572704479993,None,868.8572704479993,None,c,0,2.8173985260000336,870.390768833,None,870.390768833,None,870.390768833,None,873.2739433860006,None,873.2739433860006,None,873.2739433860006,None,873.2739433860006,None,,,,,,,,,,,,,,,,,,,,,,,,,,,,,,,,,,,,,,,,,,,,001,68,2020_Feb_04_1456,spring_faces,3.1.5,59.725495768425674,
condition files/Stage1_2.xlsx,,T4,B4,m,"['c', 'm']","['Clue', 'Monopoly']","[-0.15, 0.5]","[0.15, 0.5]",1,1,,,,,,,,,0,9,9,9,0,7,7,7,,,,,,,,,,,,,,,,,,,,,,,,,,,,,,,,,,,,,,,,,,,,,,,,,,,,,,,875.2405892409988,None,875.2405892409988,None,875.2405892409988,None,m,1,1.297330220000731,876.7908603270007,None,876.7908603270007,None,876.7908603270007,None,878.1408053919986,None,878.1408053919986,None,878.1408053919986,None,878.1408053919986,None,,,,,,,,,,,,,,,,,,,,,,,,,,,,,,,,,,,,,,,,,,,,001,68,2020_Feb_04_1456,spring_faces,3.1.5,59.725495768425674,
condition files/Stage1_1.xlsx,,T3,B4,c,"['c', 'm']","['Clue', 'Monopoly']","[-0.15, 0.5]","[0.15, 0.5]",1,1,,,,,,,,,0,10,10,10,0,0,0,5,,,,,,,,,,,,,,,,,,,,,,,,,,,,,,,,,,,,,,,,,,,,,,,,,,,,,,,880.1243865799988,None,880.1243865799988,None,880.1243865799988,None,m,0,1.6941058650008927,881.658102215999,None,881.658102215999,None,881.658102215999,None,883.4242589120004,None,883.4242589120004,None,883.4242589120004,None,883.4242589120004,None,,,,,,,,,,,,,,,,,,,,,,,,,,,,,,,,,,,,,,,,,,,,001,68,2020_Feb_04_1456,spring_faces,3.1.5,59.725495768425674,
condition files/Stage1_1.xlsx,,B2,T1,m,"['c', 'm']","['Clue', 'Monopoly']","[-0.15, 0.5]","[0.15, 0.5]",1,1,,,,,,,,,0,10,10,10,0,1,1,2,,,,,,,,,,,,,,,,,,,,,,,,,,,,,,,,,,,,,,,,,,,,,,,,,,,,,,,885.3741408839996,None,885.3741408839996,None,885.3741408839996,None,c,0,2.5393006580015935,886.9088703529997,None,886.9088703529997,None,886.9088703529997,None,889.5090949490004,None,889.5090949490004,None,889.5090949490004,None,889.5090949490004,None,,,,,,,,,,,,,,,,,,,,,,,,,,,,,,,,,,,,,,,,,,,,001,68,2020_Feb_04_1456,spring_faces,3.1.5,59.725495768425674,
condition files/Stage1_1.xlsx,,T2,B2,m,"['c', 'm']","['Clue', 'Monopoly']","[-0.15, 0.5]","[0.15, 0.5]",1,1,,,,,,,,,0,10,10,10,0,2,2,3,,,,,,,,,,,,,,,,,,,,,,,,,,,,,,,,,,,,,,,,,,,,,,,,,,,,,,,891.4735456659982,None,891.4735456659982,None,891.4735456659982,None,m,1,4.535874367997167,893.0243183739985,None,893.0243183739985,None,893.0243183739985,None,897.624183287,None,897.624183287,None,897.624183287,None,897.624183287,None,,,,,,,,,,,,,,,,,,,,,,,,,,,,,,,,,,,,,,,,,,,,001,68,2020_Feb_04_1456,spring_faces,3.1.5,59.725495768425674,
condition files/Stage1_1.xlsx,,B3,T3,c,"['c', 'm']","['Clue', 'Monopoly']","[-0.15, 0.5]","[0.15, 0.5]",1,1,,,,,,,,,0,10,10,10,0,3,3,4,,,,,,,,,,,,,,,,,,,,,,,,,,,,,,,,,,,,,,,,,,,,,,,,,,,,,,,899.5908889329985,None,899.5908889329985,None,899.5908889329985,None,c,1,2.0036456460002228,901.1245755550008,None,901.1245755550008,None,901.1245755550008,None,903.1925873299988,None,903.1925873299988,None,903.1925873299988,None,903.1925873299988,None,,,,,,,,,,,,,,,,,,,,,,,,,,,,,,,,,,,,,,,,,,,,001,68,2020_Feb_04_1456,spring_faces,3.1.5,59.725495768425674,
condition files/Stage1_1.xlsx,,T4,B3,m,"['c', 'm']","['Clue', 'Monopoly']","[-0.15, 0.5]","[0.15, 0.5]",1,1,,,,,,,,,0,10,10,10,0,4,4,6,,,,,,,,,,,,,,,,,,,,,,,,,,,,,,,,,,,,,,,,,,,,,,,,,,,,,,,905.1575161379988,None,905.1575161379988,None,905.1575161379988,None,m,1,0.9961405929971079,906.6920659280004,None,906.6920659280004,None,906.6920659280004,None,907.7576803669981,None,907.7576803669981,None,907.7576803669981,None,907.7576803669981,None,,,,,,,,,,,,,,,,,,,,,,,,,,,,,,,,,,,,,,,,,,,,001,68,2020_Feb_04_1456,spring_faces,3.1.5,59.725495768425674,
condition files/Stage1_1.xlsx,,B4,T4,m,"['c', 'm']","['Clue', 'Monopoly']","[-0.15, 0.5]","[0.15, 0.5]",1,1,,,,,,,,,0,10,10,10,0,5,5,7,,,,,,,,,,,,,,,,,,,,,,,,,,,,,,,,,,,,,,,,,,,,,,,,,,,,,,,909.707110389998,None,909.707110389998,None,909.707110389998,None,m,1,0.7986648320002132,911.2415520899995,None,911.2415520899995,None,911.2415520899995,None,912.0906959280001,None,912.0906959280001,None,912.0906959280001,None,912.0906959280001,None,,,,,,,,,,,,,,,,,,,,,,,,,,,,,,,,,,,,,,,,,,,,001,68,2020_Feb_04_1456,spring_faces,3.1.5,59.725495768425674,
condition files/Stage1_1.xlsx,,T1,B1,c,"['c', 'm']","['Clue', 'Monopoly']","[-0.15, 0.5]","[0.15, 0.5]",1,1,,,,,,,,,0,10,10,10,0,6,6,0,,,,,,,,,,,,,,,,,,,,,,,,,,,,,,,,,,,,,,,,,,,,,,,,,,,,,,,914.0573273199989,None,914.0573273199989,None,914.0573273199989,None,m,0,1.6476308370001789,915.5925724650006,None,915.5925724650006,None,915.5925724650006,None,917.3074057989979,None,917.3074057989979,None,917.3074057989979,None,917.3074057989979,None,,,,,,,,,,,,,,,,,,,,,,,,,,,,,,,,,,,,,,,,,,,,001,68,2020_Feb_04_1456,spring_faces,3.1.5,59.725495768425674,
condition files/Stage1_1.xlsx,,B1,T2,c,"['c', 'm']","['Clue', 'Monopoly']","[-0.15, 0.5]","[0.15, 0.5]",1,1,,,,,,,,,0,10,10,10,0,7,7,1,,,,,,,,,,,,,,,,,,,,,,,,,,,,,,,,,,,,,,,,,,,,,,,,,,,,,,,919.2568437279988,None,919.2568437279988,None,919.2568437279988,None,c,1,1.120935429000383,920.791257566998,None,920.791257566998,None,920.791257566998,None,921.9739651809978,None,921.9739651809978,None,921.9739651809978,None,921.9739651809978,None,,,,,,,,,,,,,,,,,,,,,,,,,,,,,,,,,,,,,,,,,,,,001,68,2020_Feb_04_1456,spring_faces,3.1.5,59.725495768425674,
condition files/Stage1_2.xlsx,,T3,B3,c,"['c', 'm']","['Clue', 'Monopoly']","[-0.15, 0.5]","[0.15, 0.5]",1,1,,,,,,,,,0,11,11,11,0,0,0,4,,,,,,,,,,,,,,,,,,,,,,,,,,,,,,,,,,,,,,,,,,,,,,,,,,,,,,,923.9576307770003,None,923.9576307770003,None,923.9576307770003,None,c,1,1.5101153680006973,925.490185753999,None,925.490185753999,None,925.490185753999,None,927.0574167209998,None,927.0574167209998,None,927.0574167209998,None,927.0574167209998,None,,,,,,,,,,,,,,,,,,,,,,,,,,,,,,,,,,,,,,,,,,,,001,68,2020_Feb_04_1456,spring_faces,3.1.5,59.725495768425674,
condition files/Stage1_2.xlsx,,B4,T3,c,"['c', 'm']","['Clue', 'Monopoly']","[-0.15, 0.5]","[0.15, 0.5]",1,1,,,,,,,,,0,11,11,11,0,1,1,5,,,,,,,,,,,,,,,,,,,,,,,,,,,,,,,,,,,,,,,,,,,,,,,,,,,,,,,929.0240349380001,None,929.0240349380001,None,929.0240349380001,None,c,1,2.1070586850000836,930.5572127089981,None,930.5572127089981,None,930.5572127089981,None,932.7237380199986,None,932.7237380199986,None,932.7237380199986,None,932.7237380199986,None,,,,,,,,,,,,,,,,,,,,,,,,,,,,,,,,,,,,,,,,,,,,001,68,2020_Feb_04_1456,spring_faces,3.1.5,59.725495768425674,
condition files/Stage1_2.xlsx,,T4,B4,m,"['c', 'm']","['Clue', 'Monopoly']","[-0.15, 0.5]","[0.15, 0.5]",1,1,,,,,,,,,0,11,11,11,0,2,2,7,,,,,,,,,,,,,,,,,,,,,,,,,,,,,,,,,,,,,,,,,,,,,,,,,,,,,,,934.6907795589977,None,934.6907795589977,None,934.6907795589977,None,m,1,0.951155098999152,936.2409613210002,None,936.2409613210002,None,936.2409613210002,None,937.2738408449986,None,937.2738408449986,None,937.2738408449986,None,937.2738408449986,None,,,,,,,,,,,,,,,,,,,,,,,,,,,,,,,,,,,,,,,,,,,,001,68,2020_Feb_04_1456,spring_faces,3.1.5,59.725495768425674,
condition files/Stage1_2.xlsx,,B1,T1,c,"['c', 'm']","['Clue', 'Monopoly']","[-0.15, 0.5]","[0.15, 0.5]",1,1,,,,,,,,,0,11,11,11,0,3,3,0,,,,,,,,,,,,,,,,,,,,,,,,,,,,,,,,,,,,,,,,,,,,,,,,,,,,,,,939.2241475070005,None,939.2241475070005,None,939.2241475070005,None,c,1,1.6334438160010905,940.7587389919972,None,940.7587389919972,None,940.7587389919972,None,942.474472427999,None,942.474472427999,None,942.474472427999,None,942.474472427999,None,,,,,,,,,,,,,,,,,,,,,,,,,,,,,,,,,,,,,,,,,,,,001,68,2020_Feb_04_1456,spring_faces,3.1.5,59.725495768425674,
condition files/Stage1_2.xlsx,,B2,T2,m,"['c', 'm']","['Clue', 'Monopoly']","[-0.15, 0.5]","[0.15, 0.5]",1,1,,,,,,,,,0,11,11,11,0,4,4,3,,,,,,,,,,,,,,,,,,,,,,,,,,,,,,,,,,,,,,,,,,,,,,,,,,,,,,,944.4238954809989,None,944.4238954809989,None,944.4238954809989,None,m,1,2.1791597160008678,945.957018866,None,945.957018866,None,945.957018866,None,948.1931723429989,None,948.1931723429989,None,948.1931723429989,None,948.1931723429989,None,,,,,,,,,,,,,,,,,,,,,,,,,,,,,,,,,,,,,,,,,,,,001,68,2020_Feb_04_1456,spring_faces,3.1.5,59.725495768425674,
condition files/Stage1_2.xlsx,,T1,B2,m,"['c', 'm']","['Clue', 'Monopoly']","[-0.15, 0.5]","[0.15, 0.5]",1,1,,,,,,,,,0,11,11,11,0,5,5,2,,,,,,,,,,,,,,,,,,,,,,,,,,,,,,,,,,,,,,,,,,,,,,,,,,,,,,,950.1575157669977,None,950.1575157669977,None,950.1575157669977,None,c,0,2.348171535999427,951.6920301499995,None,951.6920301499995,None,951.6920301499995,None,954.0902373930003,None,954.0902373930003,None,954.0902373930003,None,954.0902373930003,None,,,,,,,,,,,,,,,,,,,,,,,,,,,,,,,,,,,,,,,,,,,,001,68,2020_Feb_04_1456,spring_faces,3.1.5,59.725495768425674,
condition files/Stage1_2.xlsx,,T2,B1,c,"['c', 'm']","['Clue', 'Monopoly']","[-0.15, 0.5]","[0.15, 0.5]",1,1,,,,,,,,,0,11,11,11,0,6,6,1,,,,,,,,,,,,,,,,,,,,,,,,,,,,,,,,,,,,,,,,,,,,,,,,,,,,,,,956.057248178,None,956.057248178,None,956.057248178,None,m,0,13.217129347001901,957.591054433,None,957.591054433,None,957.591054433,None,970.875114814,None,970.875114814,None,970.875114814,None,970.875114814,None,,,,,,,,,,,,,,,,,,,,,,,,,,,,,,,,,,,,,,,,,,,,001,68,2020_Feb_04_1456,spring_faces,3.1.5,59.725495768425674,
condition files/Stage1_2.xlsx,,B3,T4,m,"['c', 'm']","['Clue', 'Monopoly']","[-0.15, 0.5]","[0.15, 0.5]",1,1,,,,,,,,,0,11,11,11,0,7,7,6,,,,,,,,,,,,,,,,,,,,,,,,,,,,,,,,,,,,,,,,,,,,,,,,,,,,,,,972.840919121998,None,972.840919121998,None,972.840919121998,None,m,1,1.041426109000895,974.3907126539998,None,974.3907126539998,None,974.3907126539998,None,975.4913463699995,None,975.4913463699995,None,975.4913463699995,None,975.4913463699995,None,,,,,,,,,,,,,,,,,,,,,,,,,,,,,,,,,,,,,,,,,,,,001,68,2020_Feb_04_1456,spring_faces,3.1.5,59.725495768425674,
,,,,,,,,,,,,,,,,,,,,,,,,,,,,,,,,,,,,,,,,,,,,,,,,,,,,,,,,,,,,,,,,,,,,,,,,,,,,,,,,,,,,,,,,,,,,,,,,,,,,,,,,,,,,,,,,977.4744759109999,None,space,7.389852781998343,982.4744325850006,None,,,,,,,,,,,,,,,,,,,,,,,,,,,,,,001,68,2020_Feb_04_1456,spring_faces,3.1.5,59.725495768425674,
condition files/Stage2_1.xlsx,,B4,T4,r,"['s', 'r']","['Stratego', 'Risk']","[-0.15, 0.5]","[0.15, 0.5]",1,1,,,,,,,,,,,,,,,,,0,0,0,0,0,0,0,5,,,,,,,,,,,,,,,,,,,,,,,,,,,,,,,,,,,,,,,,,,,,,,,989.9244568739996,None,989.9244568739996,None,989.9244568739996,None,r,1,1.9266278510003758,991.4576424539991,None,991.4576424539991,None,991.4576424539991,None,993.4426897999983,None,993.4426897999983,None,993.4426897999983,None,993.4426897999983,None,,,,,,,,,,,,,,,982.4744325850006,None,,,,,,,,,,,,,,,,,,,,,,,,,,,,001,68,2020_Feb_04_1456,spring_faces,3.1.5,59.725495768425674,
condition files/Stage2_1.xlsx,,B6,T6,r,"['s', 'r']","['Stratego', 'Risk']","[-0.15, 0.5]","[0.15, 0.5]",1,1,,,,,,,,,,,,,,,,,0,0,0,0,0,1,1,1,,,,,,,,,,,,,,,,,,,,,,,,,,,,,,,,,,,,,,,,,,,,,,,995.4065837779999,None,995.4065837779999,None,995.4065837779999,None,r,1,2.795606706000399,996.9405766380005,None,996.9405766380005,None,996.9405766380005,None,999.7908371960002,None,999.7908371960002,None,999.7908371960002,None,999.7908371960002,None,,,,,,,,,,,,,,,,,,,,,,,,,,,,,,,,,,,,,,,,,,,,001,68,2020_Feb_04_1456,spring_faces,3.1.5,59.725495768425674,
condition files/Stage2_1.xlsx,,T1,B1,s,"['s', 'r']","['Stratego', 'Risk']","[-0.15, 0.5]","[0.15, 0.5]",1,1,,,,,,,,,,,,,,,,,0,0,0,0,0,2,2,2,,,,,,,,,,,,,,,,,,,,,,,,,,,,,,,,,,,,,,,,,,,,,,,1001.7573288819985,None,1001.7573288819985,None,1001.7573288819985,None,s,1,1.6920440350004355,1003.2922293249976,None,1003.2922293249976,None,1003.2922293249976,None,1005.0434799190007,None,1005.0434799190007,None,1005.0434799190007,None,1005.0434799190007,None,,,,,,,,,,,,,,,,,,,,,,,,,,,,,,,,,,,,,,,,,,,,001,68,2020_Feb_04_1456,spring_faces,3.1.5,59.725495768425674,
condition files/Stage2_1.xlsx,,T3,B3,s,"['s', 'r']","['Stratego', 'Risk']","[-0.15, 0.5]","[0.15, 0.5]",1,1,,,,,,,,,,,,,,,,,0,0,0,0,0,3,3,4,,,,,,,,,,,,,,,,,,,,,,,,,,,,,,,,,,,,,,,,,,,,,,,1007.0068460809998,None,1007.0068460809998,None,1007.0068460809998,None,s,1,1.2893046909994155,1008.5429755969999,None,1008.5429755969999,None,1008.5429755969999,None,1009.8908203639985,None,1009.8908203639985,None,1009.8908203639985,None,1009.8908203639985,None,,,,,,,,,,,,,,,,,,,,,,,,,,,,,,,,,,,,,,,,,,,,001,68,2020_Feb_04_1456,spring_faces,3.1.5,59.725495768425674,
condition files/Stage2_1.xlsx,,T5,B5,s,"['s', 'r']","['Stratego', 'Risk']","[-0.15, 0.5]","[0.15, 0.5]",1,1,,,,,,,,,,,,,,,,,0,0,0,0,0,4,4,0,,,,,,,,,,,,,,,,,,,,,,,,,,,,,,,,,,,,,,,,,,,,,,,1011.8575576939984,None,1011.8575576939984,None,1011.8575576939984,None,r,0,0.648761383999954,1013.3913932949981,None,1013.3913932949981,None,1013.3913932949981,None,1014.0906425529975,None,1014.0906425529975,None,1014.0906425529975,None,1014.0906425529975,None,,,,,,,,,,,,,,,,,,,,,,,,,,,,,,,,,,,,,,,,,,,,001,68,2020_Feb_04_1456,spring_faces,3.1.5,59.725495768425674,
condition files/Stage2_1.xlsx,,B2,T2,r,"['s', 'r']","['Stratego', 'Risk']","[-0.15, 0.5]","[0.15, 0.5]",1,1,,,,,,,,,,,,,,,,,0,0,0,0,0,5,5,3,,,,,,,,,,,,,,,,,,,,,,,,,,,,,,,,,,,,,,,,,,,,,,,1016.0573229479996,None,1016.0573229479996,None,1016.0573229479996,None,r,1,1.1055382229969837,1017.5906716589998,None,1017.5906716589998,None,1017.5906716589998,None,1018.7740427539975,None,1018.7740427539975,None,1018.7740427539975,None,1018.7740427539975,None,,,,,,,,,,,,,,,,,,,,,,,,,,,,,,,,,,,,,,,,,,,,001,68,2020_Feb_04_1456,spring_faces,3.1.5,59.725495768425674,
condition files/Stage2_2.xlsx,,B1,T1,s,"['s', 'r']","['Stratego', 'Risk']","[-0.15, 0.5]","[0.15, 0.5]",1,1,,,,,,,,,,,,,,,,,0,1,1,1,0,0,0,2,,,,,,,,,,,,,,,,,,,,,,,,,,,,,,,,,,,,,,,,,,,,,,,1020.7410011280008,None,1020.7410011280008,None,1020.7410011280008,None,s,1,1.7657009569993534,1022.2905091119974,None,1022.2905091119974,None,1022.2905091119974,None,1024.1245281839983,None,1024.1245281839983,None,1024.1245281839983,None,1024.1245281839983,None,,,,,,,,,,,,,,,,,,,,,,,,,,,,,,,,,,,,,,,,,,,,001,68,2020_Feb_04_1456,spring_faces,3.1.5,59.725495768425674,
condition files/Stage2_2.xlsx,,T4,B4,r,"['s', 'r']","['Stratego', 'Risk']","[-0.15, 0.5]","[0.15, 0.5]",1,1,,,,,,,,,,,,,,,,,0,1,1,1,0,1,1,5,,,,,,,,,,,,,,,,,,,,,,,,,,,,,,,,,,,,,,,,,,,,,,,1026.074058995,None,1026.074058995,None,1026.074058995,None,r,1,2.4479398080002284,1027.6082610119993,None,1027.6082610119993,None,1027.6082610119993,None,1030.108537488999,None,1030.108537488999,None,1030.108537488999,None,1030.108537488999,None,,,,,,,,,,,,,,,,,,,,,,,,,,,,,,,,,,,,,,,,,,,,001,68,2020_Feb_04_1456,spring_faces,3.1.5,59.725495768425674,
condition files/Stage2_2.xlsx,,T6,B6,r,"['s', 'r']","['Stratego', 'Risk']","[-0.15, 0.5]","[0.15, 0.5]",1,1,,,,,,,,,,,,,,,,,0,1,1,1,0,2,2,1,,,,,,,,,,,,,,,,,,,,,,,,,,,,,,,,,,,,,,,,,,,,,,,1032.0739945040004,None,1032.0739945040004,None,1032.0739945040004,None,r,1,1.4728177889992367,1033.607439006999,None,1033.607439006999,None,1033.607439006999,None,1035.1406280009978,None,1035.1406280009978,None,1035.1406280009978,None,1035.1406280009978,None,,,,,,,,,,,,,,,,,,,,,,,,,,,,,,,,,,,,,,,,,,,,001,68,2020_Feb_04_1456,spring_faces,3.1.5,59.725495768425674,
condition files/Stage2_2.xlsx,,B3,T3,s,"['s', 'r']","['Stratego', 'Risk']","[-0.15, 0.5]","[0.15, 0.5]",1,1,,,,,,,,,,,,,,,,,0,1,1,1,0,3,3,4,,,,,,,,,,,,,,,,,,,,,,,,,,,,,,,,,,,,,,,,,,,,,,,1037.1071965560004,None,1037.1071965560004,None,1037.1071965560004,None,s,1,0.486622325002827,1038.6415878519983,None,1038.6415878519983,None,1038.6415878519983,None,1039.1919026939977,None,1039.1919026939977,None,1039.1919026939977,None,1039.1919026939977,None,,,,,,,,,,,,,,,,,,,,,,,,,,,,,,,,,,,,,,,,,,,,001,68,2020_Feb_04_1456,spring_faces,3.1.5,59.725495768425674,
condition files/Stage2_2.xlsx,,T2,B2,r,"['s', 'r']","['Stratego', 'Risk']","[-0.15, 0.5]","[0.15, 0.5]",1,1,,,,,,,,,,,,,,,,,0,1,1,1,0,4,4,3,,,,,,,,,,,,,,,,,,,,,,,,,,,,,,,,,,,,,,,,,,,,,,,1041.1568073319977,None,1041.1568073319977,None,1041.1568073319977,None,s,0,0.7412857090021134,1042.6910001029974,None,1042.6910001029974,None,1042.6910001029974,None,1043.4932073389973,None,1043.4932073389973,None,1043.4932073389973,None,1043.4932073389973,None,,,,,,,,,,,,,,,,,,,,,,,,,,,,,,,,,,,,,,,,,,,,001,68,2020_Feb_04_1456,spring_faces,3.1.5,59.725495768425674,
condition files/Stage2_2.xlsx,,B5,T5,s,"['s', 'r']","['Stratego', 'Risk']","[-0.15, 0.5]","[0.15, 0.5]",1,1,,,,,,,,,,,,,,,,,0,1,1,1,0,5,5,0,,,,,,,,,,,,,,,,,,,,,,,,,,,,,,,,,,,,,,,,,,,,,,,1045.4574281839996,None,1045.4574281839996,None,1045.4574281839996,None,r,0,1.4167361500003608,1047.007470946999,None,1047.007470946999,None,1047.007470946999,None,1048.4908693260004,None,1048.4908693260004,None,1048.4908693260004,None,1048.4908693260004,None,,,,,,,,,,,,,,,,,,,,,,,,,,,,,,,,,,,,,,,,,,,,001,68,2020_Feb_04_1456,spring_faces,3.1.5,59.725495768425674,
condition files/Stage2_1.xlsx,,T5,B5,s,"['s', 'r']","['Stratego', 'Risk']","[-0.15, 0.5]","[0.15, 0.5]",1,1,,,,,,,,,,,,,,,,,0,2,2,2,0,0,0,0,,,,,,,,,,,,,,,,,,,,,,,,,,,,,,,,,,,,,,,,,,,,,,,1050.4579804280002,None,1050.4579804280002,None,1050.4579804280002,None,s,1,1.3612593510006263,1051.9909494929998,None,1051.9909494929998,None,1051.9909494929998,None,1053.4077358469985,None,1053.4077358469985,None,1053.4077358469985,None,1053.4077358469985,None,,,,,,,,,,,,,,,,,,,,,,,,,,,,,,,,,,,,,,,,,,,,001,68,2020_Feb_04_1456,spring_faces,3.1.5,59.725495768425674,
condition files/Stage2_1.xlsx,,B2,T2,r,"['s', 'r']","['Stratego', 'Risk']","[-0.15, 0.5]","[0.15, 0.5]",1,1,,,,,,,,,,,,,,,,,0,2,2,2,0,1,1,3,,,,,,,,,,,,,,,,,,,,,,,,,,,,,,,,,,,,,,,,,,,,,,,1055.3740974469983,None,1055.3740974469983,None,1055.3740974469983,None,r,1,1.1325692669997807,1056.9076384429973,None,1056.9076384429973,None,1056.9076384429973,None,1058.1079313989976,None,1058.1079313989976,None,1058.1079313989976,None,1058.1079313989976,None,,,,,,,,,,,,,,,,,,,,,,,,,,,,,,,,,,,,,,,,,,,,001,68,2020_Feb_04_1456,spring_faces,3.1.5,59.725495768425674,
condition files/Stage2_1.xlsx,,T3,B3,s,"['s', 'r']","['Stratego', 'Risk']","[-0.15, 0.5]","[0.15, 0.5]",1,1,,,,,,,,,,,,,,,,,0,2,2,2,0,2,2,4,,,,,,,,,,,,,,,,,,,,,,,,,,,,,,,,,,,,,,,,,,,,,,,1060.0575105999997,None,1060.0575105999997,None,1060.0575105999997,None,r,0,1.4577191789976496,1061.5905644800005,None,1061.5905644800005,None,1061.5905644800005,None,1063.1091987559994,None,1063.1091987559994,None,1063.1091987559994,None,1063.1091987559994,None,,,,,,,,,,,,,,,,,,,,,,,,,,,,,,,,,,,,,,,,,,,,001,68,2020_Feb_04_1456,spring_faces,3.1.5,59.725495768425674,
condition files/Stage2_1.xlsx,,B6,T6,r,"['s', 'r']","['Stratego', 'Risk']","[-0.15, 0.5]","[0.15, 0.5]",1,1,,,,,,,,,,,,,,,,,0,2,2,2,0,3,3,1,,,,,,,,,,,,,,,,,,,,,,,,,,,,,,,,,,,,,,,,,,,,,,,1065.0742511949975,None,1065.0742511949975,None,1065.0742511949975,None,r,1,1.670768689000397,1066.609495785,None,1066.609495785,None,1066.609495785,None,1068.3401572039984,None,1068.3401572039984,None,1068.3401572039984,None,1068.3401572039984,None,,,,,,,,,,,,,,,,,,,,,,,,,,,,,,,,,,,,,,,,,,,,001,68,2020_Feb_04_1456,spring_faces,3.1.5,59.725495768425674,
condition files/Stage2_1.xlsx,,T1,B1,s,"['s', 'r']","['Stratego', 'Risk']","[-0.15, 0.5]","[0.15, 0.5]",1,1,,,,,,,,,,,,,,,,,0,2,2,2,0,4,4,2,,,,,,,,,,,,,,,,,,,,,,,,,,,,,,,,,,,,,,,,,,,,,,,1070.3074419650002,None,1070.3074419650002,None,1070.3074419650002,None,s,1,2.614392763000069,1071.841816109998,None,1071.841816109998,None,1071.841816109998,None,1074.5102827429982,None,1074.5102827429982,None,1074.5102827429982,None,1074.5102827429982,None,,,,,,,,,,,,,,,,,,,,,,,,,,,,,,,,,,,,,,,,,,,,001,68,2020_Feb_04_1456,spring_faces,3.1.5,59.725495768425674,
condition files/Stage2_1.xlsx,,B4,T4,r,"['s', 'r']","['Stratego', 'Risk']","[-0.15, 0.5]","[0.15, 0.5]",1,1,,,,,,,,,,,,,,,,,0,2,2,2,0,5,5,5,,,,,,,,,,,,,,,,,,,,,,,,,,,,,,,,,,,,,,,,,,,,,,,1076.4740952969987,None,1076.4740952969987,None,1076.4740952969987,None,r,1,1.9036544449991197,1078.008566755998,None,1078.008566755998,None,1078.008566755998,None,1079.9752285119976,None,1079.9752285119976,None,1079.9752285119976,None,1079.9752285119976,None,,,,,,,,,,,,,,,,,,,,,,,,,,,,,,,,,,,,,,,,,,,,001,68,2020_Feb_04_1456,spring_faces,3.1.5,59.725495768425674,
condition files/Stage2_2.xlsx,,B5,T5,s,"['s', 'r']","['Stratego', 'Risk']","[-0.15, 0.5]","[0.15, 0.5]",1,1,,,,,,,,,,,,,,,,,0,3,3,3,0,0,0,0,,,,,,,,,,,,,,,,,,,,,,,,,,,,,,,,,,,,,,,,,,,,,,,1081.9573046000005,None,1081.9573046000005,None,1081.9573046000005,None,s,1,2.4364227340010984,1083.507788007999,None,1083.507788007999,None,1083.507788007999,None,1086.0104740149982,None,1086.0104740149982,None,1086.0104740149982,None,1086.0104740149982,None,,,,,,,,,,,,,,,,,,,,,,,,,,,,,,,,,,,,,,,,,,,,001,68,2020_Feb_04_1456,spring_faces,3.1.5,59.725495768425674,
condition files/Stage2_2.xlsx,,T4,B4,r,"['s', 'r']","['Stratego', 'Risk']","[-0.15, 0.5]","[0.15, 0.5]",1,1,,,,,,,,,,,,,,,,,0,3,3,3,0,1,1,5,,,,,,,,,,,,,,,,,,,,,,,,,,,,,,,,,,,,,,,,,,,,,,,1087.9741075999991,None,1087.9741075999991,None,1087.9741075999991,None,r,1,0.8209197910000512,1089.5073016869974,None,1089.5073016869974,None,1089.5073016869974,None,1090.392327712998,None,1090.392327712998,None,1090.392327712998,None,1090.392327712998,None,,,,,,,,,,,,,,,,,,,,,,,,,,,,,,,,,,,,,,,,,,,,001,68,2020_Feb_04_1456,spring_faces,3.1.5,59.725495768425674,
condition files/Stage2_2.xlsx,,T6,B6,r,"['s', 'r']","['Stratego', 'Risk']","[-0.15, 0.5]","[0.15, 0.5]",1,1,,,,,,,,,,,,,,,,,0,3,3,3,0,2,2,1,,,,,,,,,,,,,,,,,,,,,,,,,,,,,,,,,,,,,,,,,,,,,,,1092.3575304320002,None,1092.3575304320002,None,1092.3575304320002,None,r,1,1.685564694002096,1093.8906522889993,None,1093.8906522889993,None,1093.8906522889993,None,1095.6408181330007,None,1095.6408181330007,None,1095.6408181330007,None,1095.6408181330007,None,,,,,,,,,,,,,,,,,,,,,,,,,,,,,,,,,,,,,,,,,,,,001,68,2020_Feb_04_1456,spring_faces,3.1.5,59.725495768425674,
condition files/Stage2_2.xlsx,,B3,T3,s,"['s', 'r']","['Stratego', 'Risk']","[-0.15, 0.5]","[0.15, 0.5]",1,1,,,,,,,,,,,,,,,,,0,3,3,3,0,3,3,4,,,,,,,,,,,,,,,,,,,,,,,,,,,,,,,,,,,,,,,,,,,,,,,1097.6069298369985,None,1097.6069298369985,None,1097.6069298369985,None,s,1,3.2983454989989696,1099.1419114319979,None,1099.1419114319979,None,1099.1419114319979,None,1102.5072657639976,None,1102.5072657639976,None,1102.5072657639976,None,1102.5072657639976,None,,,,,,,,,,,,,,,,,,,,,,,,,,,,,,,,,,,,,,,,,,,,001,68,2020_Feb_04_1456,spring_faces,3.1.5,59.725495768425674,
condition files/Stage2_2.xlsx,,T2,B2,r,"['s', 'r']","['Stratego', 'Risk']","[-0.15, 0.5]","[0.15, 0.5]",1,1,,,,,,,,,,,,,,,,,0,3,3,3,0,4,4,3,,,,,,,,,,,,,,,,,,,,,,,,,,,,,,,,,,,,,,,,,,,,,,,1104.457550903,None,1104.457550903,None,1104.457550903,None,r,1,1.1524730099990848,1105.9917521629977,None,1105.9917521629977,None,1105.9917521629977,None,1107.2243653879996,None,1107.2243653879996,None,1107.2243653879996,None,1107.2243653879996,None,,,,,,,,,,,,,,,,,,,,,,,,,,,,,,,,,,,,,,,,,,,,001,68,2020_Feb_04_1456,spring_faces,3.1.5,59.725495768425674,
condition files/Stage2_2.xlsx,,B1,T1,s,"['s', 'r']","['Stratego', 'Risk']","[-0.15, 0.5]","[0.15, 0.5]",1,1,,,,,,,,,,,,,,,,,0,3,3,3,0,5,5,2,,,,,,,,,,,,,,,,,,,,,,,,,,,,,,,,,,,,,,,,,,,,,,,1109.174174806998,None,1109.174174806998,None,1109.174174806998,None,s,1,1.6687644609992276,1110.7074484439981,None,1110.7074484439981,None,1110.7074484439981,None,1112.4415228479993,None,1112.4415228479993,None,1112.4415228479993,None,1112.4415228479993,None,,,,,,,,,,,,,,,,,,,,,,,,,,,,,,,,,,,,,,,,,,,,001,68,2020_Feb_04_1456,spring_faces,3.1.5,59.725495768425674,
condition files/Stage2_1.xlsx,,T1,B1,s,"['s', 'r']","['Stratego', 'Risk']","[-0.15, 0.5]","[0.15, 0.5]",1,1,,,,,,,,,,,,,,,,,0,4,4,4,0,0,0,2,,,,,,,,,,,,,,,,,,,,,,,,,,,,,,,,,,,,,,,,,,,,,,,1114.4243605659976,None,1114.4243605659976,None,1114.4243605659976,None,s,1,1.2338621900016733,1115.9743140339997,None,1115.9743140339997,None,1115.9743140339997,None,1117.2741506629973,None,1117.2741506629973,None,1117.2741506629973,None,1117.2741506629973,None,,,,,,,,,,,,,,,,,,,,,,,,,,,,,,,,,,,,,,,,,,,,001,68,2020_Feb_04_1456,spring_faces,3.1.5,59.725495768425674,
condition files/Stage2_1.xlsx,,B6,T6,r,"['s', 'r']","['Stratego', 'Risk']","[-0.15, 0.5]","[0.15, 0.5]",1,1,,,,,,,,,,,,,,,,,0,4,4,4,0,1,1,1,,,,,,,,,,,,,,,,,,,,,,,,,,,,,,,,,,,,,,,,,,,,,,,1119.2412261579993,None,1119.2412261579993,None,1119.2412261579993,None,r,1,0.9458257879996381,1120.774390612998,None,1120.774390612998,None,1120.774390612998,None,1121.7757322760008,None,1121.7757322760008,None,1121.7757322760008,None,1121.7757322760008,None,,,,,,,,,,,,,,,,,,,,,,,,,,,,,,,,,,,,,,,,,,,,001,68,2020_Feb_04_1456,spring_faces,3.1.5,59.725495768425674,
