condsFile,subStage,cue1,cue2,correct,responseKeys,responseNames,cue1Position,cue2Position,cue1Opacity,cue2Opacity,stageLoop0.thisRepN,stageLoop0.thisTrialN,stageLoop0.thisN,stageLoop0.thisIndex,blockLoop0.thisRepN,blockLoop0.thisTrialN,blockLoop0.thisN,blockLoop0.thisIndex,stage1Loop.thisRepN,stage1Loop.thisTrialN,stage1Loop.thisN,stage1Loop.thisIndex,blockLoop1.thisRepN,blockLoop1.thisTrialN,blockLoop1.thisN,blockLoop1.thisIndex,stage2Loop.thisRepN,stage2Loop.thisTrialN,stage2Loop.thisN,stage2Loop.thisIndex,blockLoop2.thisRepN,blockLoop2.thisTrialN,blockLoop2.thisN,blockLoop2.thisIndex,testLoop.thisRepN,testLoop.thisTrialN,testLoop.thisN,testLoop.thisIndex,blockLoopTest.thisRepN,blockLoopTest.thisTrialN,blockLoopTest.thisN,blockLoopTest.thisIndex,cuePics,id_instr_text.started,id_instr_text.stopped,space_to_continue_2.started,space_to_continue_2.stopped,end_instructions_resp_3.keys,end_instructions_resp_3.rt,end_instructions_resp_3.started,end_instructions_resp_3.stopped,id_input_instr.started,id_input_instr.stopped,id_input_rect.started,id_input_rect.stopped,id_input_resp.keys,id_input_resp.rt,id_input_resp.started,id_input_resp.stopped,sonaID,id_input_text.started,id_input_text.stopped,final_text.started,final_text.stopped,instructions.started,instructions.stopped,end_instructions_resp.keys,end_instructions_resp.rt,end_instructions_resp.started,end_instructions_resp.stopped,space_to_continue.started,space_to_continue.stopped,instructions_stage0.started,instructions_stage0.stopped,end_instructions_resp_stage0.keys,end_instructions_resp_stage0.rt,end_instructions_resp_stage0.started,end_instructions_resp_stage0.stopped,space_to_continue_stage0.started,space_to_continue_stage0.stopped,text.started,text.stopped,resp_text1.started,resp_text1.stopped,resp_text2.started,resp_text2.stopped,trial_resp.keys,trial_resp.corr,trial_resp.rt,trial_resp.started,trial_resp.stopped,cue1Image.started,cue1Image.stopped,cue2Image.started,cue2Image.stopped,cue1Image_fb.started,cue1Image_fb.stopped,cue2Image_fb.started,cue2Image_fb.stopped,fb_text_answer.started,fb_text_answer.stopped,feedback_image.started,feedback_image.stopped,instructions_stage1.started,instructions_stage1.stopped,end_instructions_resp_stage1.keys,end_instructions_resp_stage1.rt,end_instructions_resp_stage1.started,end_instructions_resp_stage1.stopped,space_to_continue_stage1.started,space_to_continue_stage1.stopped,instructions_2.started,instructions_2.stopped,end_instructions_resp_2.keys,end_instructions_resp_2.rt,end_instructions_resp_2.started,end_instructions_resp_2.stopped,press_space_to_continue_stage2.started,press_space_to_continue_stage2.stopped,instructions_testStage1.started,instructions_testStage1.stopped,end_instructions_resp_test1.keys,end_instructions_resp_test1.rt,end_instructions_resp_test1.started,end_instructions_resp_test1.stopped,press_space_to_continue_test1.started,press_space_to_continue_test1.stopped,cue1Image_testChoice.started,cue1Image_testChoice.stopped,cue2Image_testChoice.started,cue2Image_testChoice.stopped,test_resp.keys,test_resp.corr,test_resp.rt,test_resp.started,test_resp.stopped,cue1Image_testConf.started,cue1Image_testConf.stopped,cue2Image_testConf.started,cue2Image_testConf.stopped,conf_reminder.started,conf_reminder.stopped,conf_rating.response,conf_rating.rt,conf_rating.started,conf_rating.stopped,session,participant,date,expName,psychopyVersion,frameRate,
,,,,,,,,,,,,,,,,,,,,,,,,,,,,,,,,,,,,,,,,,,,"{'none': 'pictures/20M_AN_C.png', 'alpha': 'pictures/SHINEd_pear.png', 'beta': 'pictures/SHINEd_apple.png', 'theta': 'pictures/SHINEd_melon.png', 'phi': 'pictures/SHINEd_pepper.png', 'T1': 'pictures/22M_AN_C.png', 'T2': 'pictures/26M_AN_C.png', 'T3': 'pictures/33M_AN_C.png', 'T4': 'pictures/34M_AN_C.png', 'T5': 'pictures/31M_AN_C.png', 'T6': 'pictures/23M_AN_C.png', 'B1': 'pictures/37M_NE_C.png', 'B2': 'pictures/20M_NE_C.png', 'B3': 'pictures/38M_NE_C.png', 'B4': 'pictures/36M_NE_C.png', 'B5': 'pictures/32M_NE_C.png', 'B6': 'pictures/25M_NE_C.png'}",11.13754869100012,None,16.13792374699915,None,space,20.657814664999023,16.13792374699915,None,,,,,,,,,,,,,,,,,,,,,,,,,,,,,,,,,,,,,,,,,,,,,,,,,,,,,,,,,,,,,,,,,,,,,,,,,,,,,,,,,,,,,,,,,,,,,,,,001,72,2020_Feb_04_1554,spring_faces,3.1.5,60.059762828109676,
,,,,,,,,,,,,,,,,,,,,,,,,,,,,,,,,,,,,,,,,,,,,,,,,,,,,37.20465691299978,None,37.20465691299978,None,"['0', '5', '1', '0', 's', 'h', 'f', 'a', 'i']","[18.99901286199747, 19.399025486996834, 23.191054999999324, 23.67100866599867, 27.734965005998674, 27.94299619999947, 31.366971696999826, 31.494979707997118, 31.718950628997845]",37.20465691299978,None,,,,,,,,,,,,,,,,,,,,,,,,,,,,,,,,,,,,,,,,,,,,,,,,,,,,,,,,,,,,,,,,,,,,,,,,,,,,,,,,,,,,,,,,001,72,2020_Feb_04_1554,spring_faces,3.1.5,60.059762828109676,
,,,,,,,,,,,,,,,,,,,,,,,,,,,,,,,,,,,,,,,,,,,,,,,,,,,,,,,,,,,,0510shfai,37.20465691299978,None,37.20465691299978,None,74.0045294119991,None,space,3.5673865970020415,79.00426744099968,None,,,,,,,,,,,,,,,,,,,,,,,,,,,,,,,,,,,,,,,,,,,,,,,,,,,,,,,,,,,,,,,,,,,,,,,,,,,,,001,72,2020_Feb_04_1554,spring_faces,3.1.5,60.059762828109676,
,,,,,,,,,,,,,,,,,,,,,,,,,,,,,,,,,,,,,,,,,,,,,,,,,,,,,,,,,,,,,,,,,,,,,,,79.00426744099968,None,82.6211175219978,None,space,8.790819158999511,87.62092091999875,None,,,,,,,,,,,,,,,,,,,,,,,,,,,,,,,,,,,,,,,,,,,,,,,,,,,,,,,,,,,,,,,,,,,,,001,72,2020_Feb_04_1554,spring_faces,3.1.5,60.059762828109676,
condition files/Stage0a.xlsx,0a,beta,none,g,"['h', 'g']","['Chess', 'Go']","[0, 0.5]","[0, 0]",1,0,0,0,0,0,0,0,0,1,,,,,,,,,,,,,,,,,,,,,,,,,,,,,,,,,,,,,,,,,,,,,,,,,,,,,,,,,,,,,87.62092091999875,None,96.4707013829975,None,96.4707013829975,None,96.4707013829975,None,g,1,2.6133922389999498,98.05429501199978,None,98.05429501199978,None,98.05429501199978,None,100.73794508299761,None,100.73794508299761,None,100.73794508299761,None,100.73794508299761,None,,,,,,,,,,,,,,,,,,,,,,,,,,,,,,,,,,,,,,,,,,,,001,72,2020_Feb_04_1554,spring_faces,3.1.5,60.059762828109676,
condition files/Stage0a.xlsx,0a,alpha,none,h,"['h', 'g']","['Chess', 'Go']","[0, 0.5]","[0, 0]",1,0,0,0,0,0,0,1,1,0,,,,,,,,,,,,,,,,,,,,,,,,,,,,,,,,,,,,,,,,,,,,,,,,,,,,,,,,,,,,,,,102.68699719600045,None,102.68699719600045,None,102.68699719600045,None,h,1,0.7975856860030035,104.23806890500055,None,104.23806890500055,None,104.23806890500055,None,105.0883457389973,None,105.0883457389973,None,105.0883457389973,None,105.0883457389973,None,,,,,,,,,,,,,,,,,,,,,,,,,,,,,,,,,,,,,,,,,,,,001,72,2020_Feb_04_1554,spring_faces,3.1.5,60.059762828109676,
condition files/Stage0a.xlsx,0a,alpha,none,h,"['h', 'g']","['Chess', 'Go']","[0, 0.5]","[0, 0]",1,0,0,1,1,1,0,0,0,0,,,,,,,,,,,,,,,,,,,,,,,,,,,,,,,,,,,,,,,,,,,,,,,,,,,,,,,,,,,,,,,107.07116661499822,None,107.07116661499822,None,107.07116661499822,None,h,1,0.9275145450010314,108.60422171999744,None,108.60422171999744,None,108.60422171999744,None,109.58765611899798,None,109.58765611899798,None,109.58765611899798,None,109.58765611899798,None,,,,,,,,,,,,,,,,,,,,,,,,,,,,,,,,,,,,,,,,,,,,001,72,2020_Feb_04_1554,spring_faces,3.1.5,60.059762828109676,
condition files/Stage0a.xlsx,0a,beta,none,g,"['h', 'g']","['Chess', 'Go']","[0, 0.5]","[0, 0]",1,0,0,1,1,1,0,1,1,1,,,,,,,,,,,,,,,,,,,,,,,,,,,,,,,,,,,,,,,,,,,,,,,,,,,,,,,,,,,,,,,111.55462297600025,None,111.55462297600025,None,111.55462297600025,None,g,1,0.5382270660011272,113.08939161300077,None,113.08939161300077,None,113.08939161300077,None,113.6896966509994,None,113.6896966509994,None,113.6896966509994,None,113.6896966509994,None,,,,,,,,,,,,,,,,,,,,,,,,,,,,,,,,,,,,,,,,,,,,001,72,2020_Feb_04_1554,spring_faces,3.1.5,60.059762828109676,
condition files/Stage0a.xlsx,0a,beta,none,g,"['h', 'g']","['Chess', 'Go']","[0, 0.5]","[0, 0]",1,0,0,2,2,2,0,0,0,1,,,,,,,,,,,,,,,,,,,,,,,,,,,,,,,,,,,,,,,,,,,,,,,,,,,,,,,,,,,,,,,115.67119745699893,None,115.67119745699893,None,115.67119745699893,None,g,1,0.9198794849980914,117.20382686099765,None,117.20382686099765,None,117.20382686099765,None,118.18787253199844,None,118.18787253199844,None,118.18787253199844,None,118.18787253199844,None,,,,,,,,,,,,,,,,,,,,,,,,,,,,,,,,,,,,,,,,,,,,001,72,2020_Feb_04_1554,spring_faces,3.1.5,60.059762828109676,
condition files/Stage0a.xlsx,0a,alpha,none,h,"['h', 'g']","['Chess', 'Go']","[0, 0.5]","[0, 0]",1,0,0,2,2,2,0,1,1,0,,,,,,,,,,,,,,,,,,,,,,,,,,,,,,,,,,,,,,,,,,,,,,,,,,,,,,,,,,,,,,,120.15348544199878,None,120.15348544199878,None,120.15348544199878,None,h,1,0.5795688629987126,121.68825047299833,None,121.68825047299833,None,121.68825047299833,None,122.32253144199785,None,122.32253144199785,None,122.32253144199785,None,122.32253144199785,None,,,,,,,,,,,,,,,,,,,,,,,,,,,,,,,,,,,,,,,,,,,,001,72,2020_Feb_04_1554,spring_faces,3.1.5,60.059762828109676,
condition files/Stage0a.xlsx,0a,beta,none,g,"['h', 'g']","['Chess', 'Go']","[0, 0.5]","[0, 0]",1,0,0,3,3,3,0,0,0,1,,,,,,,,,,,,,,,,,,,,,,,,,,,,,,,,,,,,,,,,,,,,,,,,,,,,,,,,,,,,,,,124.30456206400049,None,124.30456206400049,None,124.30456206400049,None,g,1,0.4599839399998018,125.83967648899852,None,125.83967648899852,None,125.83967648899852,None,126.35391836000053,None,126.35391836000053,None,126.35391836000053,None,126.35391836000053,None,,,,,,,,,,,,,,,,,,,,,,,,,,,,,,,,,,,,,,,,,,,,001,72,2020_Feb_04_1554,spring_faces,3.1.5,60.059762828109676,
condition files/Stage0a.xlsx,0a,alpha,none,h,"['h', 'g']","['Chess', 'Go']","[0, 0.5]","[0, 0]",1,0,0,3,3,3,0,1,1,0,,,,,,,,,,,,,,,,,,,,,,,,,,,,,,,,,,,,,,,,,,,,,,,,,,,,,,,,,,,,,,,128.32088693599871,None,128.32088693599871,None,128.32088693599871,None,h,1,0.5409923949991935,129.8547276069985,None,129.8547276069985,None,129.8547276069985,None,130.45405493200087,None,130.45405493200087,None,130.45405493200087,None,130.45405493200087,None,,,,,,,,,,,,,,,,,,,,,,,,,,,,,,,,,,,,,,,,,,,,001,72,2020_Feb_04_1554,spring_faces,3.1.5,60.059762828109676,
condition files/Stage0a.xlsx,0a,beta,none,g,"['h', 'g']","['Chess', 'Go']","[0, 0.5]","[0, 0]",1,0,0,4,4,4,0,0,0,1,,,,,,,,,,,,,,,,,,,,,,,,,,,,,,,,,,,,,,,,,,,,,,,,,,,,,,,,,,,,,,,132.43777807999868,None,132.43777807999868,None,132.43777807999868,None,g,1,0.7605835089998436,133.9711441549989,None,133.9711441549989,None,133.9711441549989,None,134.7874112190002,None,134.7874112190002,None,134.7874112190002,None,134.7874112190002,None,,,,,,,,,,,,,,,,,,,,,,,,,,,,,,,,,,,,,,,,,,,,001,72,2020_Feb_04_1554,spring_faces,3.1.5,60.059762828109676,
condition files/Stage0a.xlsx,0a,alpha,none,h,"['h', 'g']","['Chess', 'Go']","[0, 0.5]","[0, 0]",1,0,0,4,4,4,0,1,1,0,,,,,,,,,,,,,,,,,,,,,,,,,,,,,,,,,,,,,,,,,,,,,,,,,,,,,,,,,,,,,,,136.75372803799837,None,136.75372803799837,None,136.75372803799837,None,h,1,0.49230526799874497,138.2874311710002,None,138.2874311710002,None,138.2874311710002,None,138.83750448499995,None,138.83750448499995,None,138.83750448499995,None,138.83750448499995,None,,,,,,,,,,,,,,,,,,,,,,,,,,,,,,,,,,,,,,,,,,,,001,72,2020_Feb_04_1554,spring_faces,3.1.5,60.059762828109676,
condition files/Stage0a.xlsx,0a,alpha,none,h,"['h', 'g']","['Chess', 'Go']","[0, 0.5]","[0, 0]",1,0,0,5,5,5,0,0,0,0,,,,,,,,,,,,,,,,,,,,,,,,,,,,,,,,,,,,,,,,,,,,,,,,,,,,,,,,,,,,,,,140.82127178500014,None,140.82127178500014,None,140.82127178500014,None,h,1,0.586141260999284,142.35354172199732,None,142.35354172199732,None,142.35354172199732,None,143.05712547999792,None,143.05712547999792,None,143.05712547999792,None,143.05712547999792,None,,,,,,,,,,,,,,,,,,,,,,,,,,,,,,,,,,,,,,,,,,,,001,72,2020_Feb_04_1554,spring_faces,3.1.5,60.059762828109676,
condition files/Stage0a.xlsx,0a,beta,none,g,"['h', 'g']","['Chess', 'Go']","[0, 0.5]","[0, 0]",1,0,0,5,5,5,0,1,1,1,,,,,,,,,,,,,,,,,,,,,,,,,,,,,,,,,,,,,,,,,,,,,,,,,,,,,,,,,,,,,,,144.97094973599815,None,144.97094973599815,None,144.97094973599815,None,g,1,0.4992530359995726,146.50446018399816,None,146.50446018399816,None,146.50446018399816,None,147.05483657899822,None,147.05483657899822,None,147.05483657899822,None,147.05483657899822,None,,,,,,,,,,,,,,,,,,,,,,,,,,,,,,,,,,,,,,,,,,,,001,72,2020_Feb_04_1554,spring_faces,3.1.5,60.059762828109676,
condition files/Stage0b_1.xlsx,0b,alpha,none,h,"['h', 'g']","['Chess', 'Go']","[-0.15, 0.5]","[0.15, 0.5]",1,0,0,6,6,6,0,0,0,0,,,,,,,,,,,,,,,,,,,,,,,,,,,,,,,,,,,,,,,,,,,,,,,,,,,,,,,,,,,,,,,149.03754689500056,None,149.03754689500056,None,149.03754689500056,None,h,1,0.7368826219972107,150.5708238039988,None,150.5708238039988,None,150.5708238039988,None,151.3709495769981,None,151.3709495769981,None,151.3709495769981,None,151.3709495769981,None,,,,,,,,,,,,,,,,,,,,,,,,,,,,,,,,,,,,,,,,,,,,001,72,2020_Feb_04_1554,spring_faces,3.1.5,60.059762828109676,
condition files/Stage0b_1.xlsx,0b,none,beta,g,"['h', 'g']","['Chess', 'Go']","[-0.15, 0.5]","[0.15, 0.5]",0,1,0,6,6,6,0,1,1,1,,,,,,,,,,,,,,,,,,,,,,,,,,,,,,,,,,,,,,,,,,,,,,,,,,,,,,,,,,,,,,,153.33758284500072,None,153.33758284500072,None,153.33758284500072,None,g,1,0.5478006789999199,154.88786000300024,None,154.88786000300024,None,154.88786000300024,None,155.49270192900076,None,155.49270192900076,None,155.49270192900076,None,155.49270192900076,None,,,,,,,,,,,,,,,,,,,,,,,,,,,,,,,,,,,,,,,,,,,,001,72,2020_Feb_04_1554,spring_faces,3.1.5,60.059762828109676,
condition files/Stage0b_2.xlsx,0b,beta,none,g,"['h', 'g']","['Chess', 'Go']","[-0.15, 0.5]","[0.15, 0.5]",1,0,0,7,7,7,0,0,0,1,,,,,,,,,,,,,,,,,,,,,,,,,,,,,,,,,,,,,,,,,,,,,,,,,,,,,,,,,,,,,,,157.47133837900037,None,157.47133837900037,None,157.47133837900037,None,g,1,0.7150917069993739,159.00858747799793,None,159.00858747799793,None,159.00858747799793,None,159.78825372699794,None,159.78825372699794,None,159.78825372699794,None,159.78825372699794,None,,,,,,,,,,,,,,,,,,,,,,,,,,,,,,,,,,,,,,,,,,,,001,72,2020_Feb_04_1554,spring_faces,3.1.5,60.059762828109676,
condition files/Stage0b_2.xlsx,0b,none,alpha,h,"['h', 'g']","['Chess', 'Go']","[-0.15, 0.5]","[0.15, 0.5]",0,1,0,7,7,7,0,1,1,0,,,,,,,,,,,,,,,,,,,,,,,,,,,,,,,,,,,,,,,,,,,,,,,,,,,,,,,,,,,,,,,161.75377460699747,None,161.75377460699747,None,161.75377460699747,None,h,1,0.47888350100038224,163.29276032900088,None,163.29276032900088,None,163.29276032900088,None,163.83894364599837,None,163.83894364599837,None,163.83894364599837,None,163.83894364599837,None,,,,,,,,,,,,,,,,,,,,,,,,,,,,,,,,,,,,,,,,,,,,001,72,2020_Feb_04_1554,spring_faces,3.1.5,60.059762828109676,
condition files/Stage0b_1.xlsx,0b,alpha,none,h,"['h', 'g']","['Chess', 'Go']","[-0.15, 0.5]","[0.15, 0.5]",1,0,0,8,8,8,0,0,0,0,,,,,,,,,,,,,,,,,,,,,,,,,,,,,,,,,,,,,,,,,,,,,,,,,,,,,,,,,,,,,,,165.8216055189987,None,165.8216055189987,None,165.8216055189987,None,h,1,0.5416941990006308,167.35796105899863,None,167.35796105899863,None,167.35796105899863,None,167.9538129629982,None,167.9538129629982,None,167.9538129629982,None,167.9538129629982,None,,,,,,,,,,,,,,,,,,,,,,,,,,,,,,,,,,,,,,,,,,,,001,72,2020_Feb_04_1554,spring_faces,3.1.5,60.059762828109676,
condition files/Stage0b_1.xlsx,0b,none,beta,g,"['h', 'g']","['Chess', 'Go']","[-0.15, 0.5]","[0.15, 0.5]",0,1,0,8,8,8,0,1,1,1,,,,,,,,,,,,,,,,,,,,,,,,,,,,,,,,,,,,,,,,,,,,,,,,,,,,,,,,,,,,,,,169.92034075599804,None,169.92034075599804,None,169.92034075599804,None,g,1,0.48892437999893446,171.4587861079999,None,171.4587861079999,None,171.4587861079999,None,172.005516969999,None,172.005516969999,None,172.005516969999,None,172.005516969999,None,,,,,,,,,,,,,,,,,,,,,,,,,,,,,,,,,,,,,,,,,,,,001,72,2020_Feb_04_1554,spring_faces,3.1.5,60.059762828109676,
condition files/Stage0b_2.xlsx,0b,beta,none,g,"['h', 'g']","['Chess', 'Go']","[-0.15, 0.5]","[0.15, 0.5]",1,0,0,9,9,9,0,0,0,1,,,,,,,,,,,,,,,,,,,,,,,,,,,,,,,,,,,,,,,,,,,,,,,,,,,,,,,,,,,,,,,173.98796751899863,None,173.98796751899863,None,173.98796751899863,None,g,1,0.5857731189971673,175.537891123,None,175.537891123,None,175.537891123,None,176.18788869999844,None,176.18788869999844,None,176.18788869999844,None,176.18788869999844,None,,,,,,,,,,,,,,,,,,,,,,,,,,,,,,,,,,,,,,,,,,,,001,72,2020_Feb_04_1554,spring_faces,3.1.5,60.059762828109676,
condition files/Stage0b_2.xlsx,0b,none,alpha,h,"['h', 'g']","['Chess', 'Go']","[-0.15, 0.5]","[0.15, 0.5]",0,1,0,9,9,9,0,1,1,0,,,,,,,,,,,,,,,,,,,,,,,,,,,,,,,,,,,,,,,,,,,,,,,,,,,,,,,,,,,,,,,178.1537240739999,None,178.1537240739999,None,178.1537240739999,None,h,1,0.4791143809998175,179.6925042010007,None,179.6925042010007,None,179.6925042010007,None,180.2376322630007,None,180.2376322630007,None,180.2376322630007,None,180.2376322630007,None,,,,,,,,,,,,,,,,,,,,,,,,,,,,,,,,,,,,,,,,,,,,001,72,2020_Feb_04_1554,spring_faces,3.1.5,60.059762828109676,
condition files/Stage0b_1.xlsx,0b,none,beta,g,"['h', 'g']","['Chess', 'Go']","[-0.15, 0.5]","[0.15, 0.5]",0,1,0,10,10,10,0,0,0,1,,,,,,,,,,,,,,,,,,,,,,,,,,,,,,,,,,,,,,,,,,,,,,,,,,,,,,,,,,,,,,,182.22112800399918,None,182.22112800399918,None,182.22112800399918,None,g,1,0.5767211570018844,183.75502218600013,None,183.75502218600013,None,183.75502218600013,None,184.38775005799835,None,184.38775005799835,None,184.38775005799835,None,184.38775005799835,None,,,,,,,,,,,,,,,,,,,,,,,,,,,,,,,,,,,,,,,,,,,,001,72,2020_Feb_04_1554,spring_faces,3.1.5,60.059762828109676,
condition files/Stage0b_1.xlsx,0b,alpha,none,h,"['h', 'g']","['Chess', 'Go']","[-0.15, 0.5]","[0.15, 0.5]",1,0,0,10,10,10,0,1,1,0,,,,,,,,,,,,,,,,,,,,,,,,,,,,,,,,,,,,,,,,,,,,,,,,,,,,,,,,,,,,,,,186.35474385499765,None,186.35474385499765,None,186.35474385499765,None,h,1,0.6480245339989779,187.89162457899874,None,187.89162457899874,None,187.89162457899874,None,188.62111510999966,None,188.62111510999966,None,188.62111510999966,None,188.62111510999966,None,,,,,,,,,,,,,,,,,,,,,,,,,,,,,,,,,,,,,,,,,,,,001,72,2020_Feb_04_1554,spring_faces,3.1.5,60.059762828109676,
condition files/Stage0b_2.xlsx,0b,beta,none,g,"['h', 'g']","['Chess', 'Go']","[-0.15, 0.5]","[0.15, 0.5]",1,0,0,11,11,11,0,0,0,1,,,,,,,,,,,,,,,,,,,,,,,,,,,,,,,,,,,,,,,,,,,,,,,,,,,,,,,,,,,,,,,190.58780978399955,None,190.58780978399955,None,190.58780978399955,None,g,1,0.7383728940003493,192.12132925699916,None,192.12132925699916,None,192.12132925699916,None,192.92075351200037,None,192.92075351200037,None,192.92075351200037,None,192.92075351200037,None,,,,,,,,,,,,,,,,,,,,,,,,,,,,,,,,,,,,,,,,,,,,001,72,2020_Feb_04_1554,spring_faces,3.1.5,60.059762828109676,
condition files/Stage0b_2.xlsx,0b,none,alpha,h,"['h', 'g']","['Chess', 'Go']","[-0.15, 0.5]","[0.15, 0.5]",0,1,0,11,11,11,0,1,1,0,,,,,,,,,,,,,,,,,,,,,,,,,,,,,,,,,,,,,,,,,,,,,,,,,,,,,,,,,,,,,,,194.8875735090005,None,194.8875735090005,None,194.8875735090005,None,h,1,0.7418698980000045,196.43784594099998,None,196.43784594099998,None,196.43784594099998,None,197.2543759580003,None,197.2543759580003,None,197.2543759580003,None,197.2543759580003,None,,,,,,,,,,,,,,,,,,,,,,,,,,,,,,,,,,,,,,,,,,,,001,72,2020_Feb_04_1554,spring_faces,3.1.5,60.059762828109676,
condition files/Stage0c_1.xlsx,0c,beta,theta,g,"['h', 'g']","['Chess', 'Go']","[-0.15, 0.5]","[0.15, 0.5]",1,1,0,12,12,12,0,0,0,2,,,,,,,,,,,,,,,,,,,,,,,,,,,,,,,,,,,,,,,,,,,,,,,,,,,,,,,,,,,,,,,199.22090419199958,None,199.22090419199958,None,199.22090419199958,None,g,1,2.4578315569997358,200.75383577699904,None,200.75383577699904,None,200.75383577699904,None,203.2706604390005,None,203.2706604390005,None,203.2706604390005,None,203.2706604390005,None,,,,,,,,,,,,,,,,,,,,,,,,,,,,,,,,,,,,,,,,,,,,001,72,2020_Feb_04_1554,spring_faces,3.1.5,60.059762828109676,
condition files/Stage0c_1.xlsx,0c,theta,alpha,h,"['h', 'g']","['Chess', 'Go']","[-0.15, 0.5]","[0.15, 0.5]",1,1,0,12,12,12,0,1,1,0,,,,,,,,,,,,,,,,,,,,,,,,,,,,,,,,,,,,,,,,,,,,,,,,,,,,,,,,,,,,,,,205.2375933689982,None,205.2375933689982,None,205.2375933689982,None,h,1,0.9684636759993737,206.77116677199956,None,206.77116677199956,None,206.77116677199956,None,207.8043384699995,None,207.8043384699995,None,207.8043384699995,None,207.8043384699995,None,,,,,,,,,,,,,,,,,,,,,,,,,,,,,,,,,,,,,,,,,,,,001,72,2020_Feb_04_1554,spring_faces,3.1.5,60.059762828109676,
condition files/Stage0c_1.xlsx,0c,alpha,phi,h,"['h', 'g']","['Chess', 'Go']","[-0.15, 0.5]","[0.15, 0.5]",1,1,0,12,12,12,0,2,2,1,,,,,,,,,,,,,,,,,,,,,,,,,,,,,,,,,,,,,,,,,,,,,,,,,,,,,,,,,,,,,,,209.7710461059978,None,209.7710461059978,None,209.7710461059978,None,h,1,1.4753504740001517,211.30437157399865,None,211.30437157399865,None,211.30437157399865,None,212.83778481400077,None,212.83778481400077,None,212.83778481400077,None,212.83778481400077,None,,,,,,,,,,,,,,,,,,,,,,,,,,,,,,,,,,,,,,,,,,,,001,72,2020_Feb_04_1554,spring_faces,3.1.5,60.059762828109676,
condition files/Stage0c_1.xlsx,0c,phi,beta,g,"['h', 'g']","['Chess', 'Go']","[-0.15, 0.5]","[0.15, 0.5]",1,1,0,12,12,12,0,3,3,3,,,,,,,,,,,,,,,,,,,,,,,,,,,,,,,,,,,,,,,,,,,,,,,,,,,,,,,,,,,,,,,214.82150696499957,None,214.82150696499957,None,214.82150696499957,None,g,1,0.7138337859978492,216.3378105539996,None,216.3378105539996,None,216.3378105539996,None,217.10476179299803,None,217.10476179299803,None,217.10476179299803,None,217.10476179299803,None,,,,,,,,,,,,,,,,,,,,,,,,,,,,,,,,,,,,,,,,,,,,001,72,2020_Feb_04_1554,spring_faces,3.1.5,60.059762828109676,
condition files/Stage0c_2.xlsx,0c,beta,phi,g,"['h', 'g']","['Chess', 'Go']","[-0.15, 0.5]","[0.15, 0.5]",1,1,0,13,13,13,0,0,0,3,,,,,,,,,,,,,,,,,,,,,,,,,,,,,,,,,,,,,,,,,,,,,,,,,,,,,,,,,,,,,,,219.08782481399976,None,219.08782481399976,None,219.08782481399976,None,g,1,1.6305204189993674,220.62114045899943,None,220.62114045899943,None,220.62114045899943,None,222.30457240800024,None,222.30457240800024,None,222.30457240800024,None,222.30457240800024,None,,,,,,,,,,,,,,,,,,,,,,,,,,,,,,,,,,,,,,,,,,,,001,72,2020_Feb_04_1554,spring_faces,3.1.5,60.059762828109676,
condition files/Stage0c_2.xlsx,0c,phi,alpha,h,"['h', 'g']","['Chess', 'Go']","[-0.15, 0.5]","[0.15, 0.5]",1,1,0,13,13,13,0,1,1,1,,,,,,,,,,,,,,,,,,,,,,,,,,,,,,,,,,,,,,,,,,,,,,,,,,,,,,,,,,,,,,,224.27102923599887,None,224.27102923599887,None,224.27102923599887,None,h,1,0.719156514001952,225.80450324499907,None,225.80450324499907,None,225.80450324499907,None,226.58770995399755,None,226.58770995399755,None,226.58770995399755,None,226.58770995399755,None,,,,,,,,,,,,,,,,,,,,,,,,,,,,,,,,,,,,,,,,,,,,001,72,2020_Feb_04_1554,spring_faces,3.1.5,60.059762828109676,
condition files/Stage0c_2.xlsx,0c,theta,beta,g,"['h', 'g']","['Chess', 'Go']","[-0.15, 0.5]","[0.15, 0.5]",1,1,0,13,13,13,0,2,2,2,,,,,,,,,,,,,,,,,,,,,,,,,,,,,,,,,,,,,,,,,,,,,,,,,,,,,,,,,,,,,,,228.55435474499973,None,228.55435474499973,None,228.55435474499973,None,g,1,0.7397399040019081,230.0879659759994,None,230.0879659759994,None,230.0879659759994,None,230.88714386100037,None,230.88714386100037,None,230.88714386100037,None,230.88714386100037,None,,,,,,,,,,,,,,,,,,,,,,,,,,,,,,,,,,,,,,,,,,,,001,72,2020_Feb_04_1554,spring_faces,3.1.5,60.059762828109676,
condition files/Stage0c_2.xlsx,0c,alpha,theta,h,"['h', 'g']","['Chess', 'Go']","[-0.15, 0.5]","[0.15, 0.5]",1,1,0,13,13,13,0,3,3,0,,,,,,,,,,,,,,,,,,,,,,,,,,,,,,,,,,,,,,,,,,,,,,,,,,,,,,,,,,,,,,,232.85430214000007,None,232.85430214000007,None,232.85430214000007,None,h,1,0.7916572159992938,234.3880629319974,None,234.3880629319974,None,234.3880629319974,None,235.237667374,None,235.237667374,None,235.237667374,None,235.237667374,None,,,,,,,,,,,,,,,,,,,,,,,,,,,,,,,,,,,,,,,,,,,,001,72,2020_Feb_04_1554,spring_faces,3.1.5,60.059762828109676,
condition files/Stage0c_1.xlsx,0c,theta,alpha,h,"['h', 'g']","['Chess', 'Go']","[-0.15, 0.5]","[0.15, 0.5]",1,1,0,14,14,14,0,0,0,0,,,,,,,,,,,,,,,,,,,,,,,,,,,,,,,,,,,,,,,,,,,,,,,,,,,,,,,,,,,,,,,237.2205845719982,None,237.2205845719982,None,237.2205845719982,None,h,1,1.0817272219974257,238.7539328870007,None,238.7539328870007,None,238.7539328870007,None,239.87408110199976,None,239.87408110199976,None,239.87408110199976,None,239.87408110199976,None,,,,,,,,,,,,,,,,,,,,,,,,,,,,,,,,,,,,,,,,,,,,001,72,2020_Feb_04_1554,spring_faces,3.1.5,60.059762828109676,
condition files/Stage0c_1.xlsx,0c,phi,beta,g,"['h', 'g']","['Chess', 'Go']","[-0.15, 0.5]","[0.15, 0.5]",1,1,0,14,14,14,0,1,1,3,,,,,,,,,,,,,,,,,,,,,,,,,,,,,,,,,,,,,,,,,,,,,,,,,,,,,,,,,,,,,,,241.85400515599758,None,241.85400515599758,None,241.85400515599758,None,g,1,0.6241002450005908,243.38760560399896,None,243.38760560399896,None,243.38760560399896,None,244.07112115999917,None,244.07112115999917,None,244.07112115999917,None,244.07112115999917,None,,,,,,,,,,,,,,,,,,,,,,,,,,,,,,,,,,,,,,,,,,,,001,72,2020_Feb_04_1554,spring_faces,3.1.5,60.059762828109676,
condition files/Stage0c_1.xlsx,0c,beta,theta,g,"['h', 'g']","['Chess', 'Go']","[-0.15, 0.5]","[0.15, 0.5]",1,1,0,14,14,14,0,2,2,2,,,,,,,,,,,,,,,,,,,,,,,,,,,,,,,,,,,,,,,,,,,,,,,,,,,,,,,,,,,,,,,246.03757168499942,None,246.03757168499942,None,246.03757168499942,None,g,1,0.8087298559985356,247.5709809689979,None,247.5709809689979,None,247.5709809689979,None,248.4248755289991,None,248.4248755289991,None,248.4248755289991,None,248.4248755289991,None,,,,,,,,,,,,,,,,,,,,,,,,,,,,,,,,,,,,,,,,,,,,001,72,2020_Feb_04_1554,spring_faces,3.1.5,60.059762828109676,
condition files/Stage0c_1.xlsx,0c,alpha,phi,h,"['h', 'g']","['Chess', 'Go']","[-0.15, 0.5]","[0.15, 0.5]",1,1,0,14,14,14,0,3,3,1,,,,,,,,,,,,,,,,,,,,,,,,,,,,,,,,,,,,,,,,,,,,,,,,,,,,,,,,,,,,,,,250.4042729199973,None,250.4042729199973,None,250.4042729199973,None,h,1,0.5378440050008066,251.9378508769987,None,251.9378508769987,None,251.9378508769987,None,252.53749193299882,None,252.53749193299882,None,252.53749193299882,None,252.53749193299882,None,,,,,,,,,,,,,,,,,,,,,,,,,,,,,,,,,,,,,,,,,,,,001,72,2020_Feb_04_1554,spring_faces,3.1.5,60.059762828109676,
condition files/Stage0c_2.xlsx,0c,alpha,theta,h,"['h', 'g']","['Chess', 'Go']","[-0.15, 0.5]","[0.15, 0.5]",1,1,0,15,15,15,0,0,0,0,,,,,,,,,,,,,,,,,,,,,,,,,,,,,,,,,,,,,,,,,,,,,,,,,,,,,,,,,,,,,,,254.52118393699857,None,254.52118393699857,None,254.52118393699857,None,h,1,0.8054266840008495,256.0542665699977,None,256.0542665699977,None,256.0542665699977,None,256.9067388709991,None,256.9067388709991,None,256.9067388709991,None,256.9067388709991,None,,,,,,,,,,,,,,,,,,,,,,,,,,,,,,,,,,,,,,,,,,,,001,72,2020_Feb_04_1554,spring_faces,3.1.5,60.059762828109676,
condition files/Stage0c_2.xlsx,0c,beta,phi,g,"['h', 'g']","['Chess', 'Go']","[-0.15, 0.5]","[0.15, 0.5]",1,1,0,15,15,15,0,1,1,3,,,,,,,,,,,,,,,,,,,,,,,,,,,,,,,,,,,,,,,,,,,,,,,,,,,,,,,,,,,,,,,258.8879641149979,None,258.8879641149979,None,258.8879641149979,None,g,1,0.6304187029963941,260.4212445159974,None,260.4212445159974,None,260.4212445159974,None,261.10448466600064,None,261.10448466600064,None,261.10448466600064,None,261.10448466600064,None,,,,,,,,,,,,,,,,,,,,,,,,,,,,,,,,,,,,,,,,,,,,001,72,2020_Feb_04_1554,spring_faces,3.1.5,60.059762828109676,
condition files/Stage0c_2.xlsx,0c,phi,alpha,h,"['h', 'g']","['Chess', 'Go']","[-0.15, 0.5]","[0.15, 0.5]",1,1,0,15,15,15,0,2,2,1,,,,,,,,,,,,,,,,,,,,,,,,,,,,,,,,,,,,,,,,,,,,,,,,,,,,,,,,,,,,,,,263.07039950800026,None,263.07039950800026,None,263.07039950800026,None,h,1,0.6870794999995269,264.6046211749999,None,264.6046211749999,None,264.6046211749999,None,265.35444409499905,None,265.35444409499905,None,265.35444409499905,None,265.35444409499905,None,,,,,,,,,,,,,,,,,,,,,,,,,,,,,,,,,,,,,,,,,,,,001,72,2020_Feb_04_1554,spring_faces,3.1.5,60.059762828109676,
condition files/Stage0c_2.xlsx,0c,theta,beta,g,"['h', 'g']","['Chess', 'Go']","[-0.15, 0.5]","[0.15, 0.5]",1,1,0,15,15,15,0,3,3,2,,,,,,,,,,,,,,,,,,,,,,,,,,,,,,,,,,,,,,,,,,,,,,,,,,,,,,,,,,,,,,,267.32098974700057,None,267.32098974700057,None,267.32098974700057,None,g,1,0.7738483819994144,268.8538340289997,None,268.8538340289997,None,268.8538340289997,None,269.6881375819976,None,269.6881375819976,None,269.6881375819976,None,269.6881375819976,None,,,,,,,,,,,,,,,,,,,,,,,,,,,,,,,,,,,,,,,,,,,,001,72,2020_Feb_04_1554,spring_faces,3.1.5,60.059762828109676,
condition files/Stage0c_1.xlsx,0c,alpha,phi,h,"['h', 'g']","['Chess', 'Go']","[-0.15, 0.5]","[0.15, 0.5]",1,1,0,16,16,16,0,0,0,1,,,,,,,,,,,,,,,,,,,,,,,,,,,,,,,,,,,,,,,,,,,,,,,,,,,,,,,,,,,,,,,271.67108707399893,None,271.67108707399893,None,271.67108707399893,None,h,1,0.8711770209993119,273.2045284720007,None,273.2045284720007,None,273.2045284720007,None,274.1379191800006,None,274.1379191800006,None,274.1379191800006,None,274.1379191800006,None,,,,,,,,,,,,,,,,,,,,,,,,,,,,,,,,,,,,,,,,,,,,001,72,2020_Feb_04_1554,spring_faces,3.1.5,60.059762828109676,
condition files/Stage0c_1.xlsx,0c,theta,alpha,h,"['h', 'g']","['Chess', 'Go']","[-0.15, 0.5]","[0.15, 0.5]",1,1,0,16,16,16,0,1,1,0,,,,,,,,,,,,,,,,,,,,,,,,,,,,,,,,,,,,,,,,,,,,,,,,,,,,,,,,,,,,,,,276.10431386799974,None,276.10431386799974,None,276.10431386799974,None,h,1,0.7419798449991504,277.63774055499744,None,277.63774055499744,None,277.63774055499744,None,278.42292536699824,None,278.42292536699824,None,278.42292536699824,None,278.42292536699824,None,,,,,,,,,,,,,,,,,,,,,,,,,,,,,,,,,,,,,,,,,,,,001,72,2020_Feb_04_1554,spring_faces,3.1.5,60.059762828109676,
condition files/Stage0c_1.xlsx,0c,phi,beta,g,"['h', 'g']","['Chess', 'Go']","[-0.15, 0.5]","[0.15, 0.5]",1,1,0,16,16,16,0,2,2,3,,,,,,,,,,,,,,,,,,,,,,,,,,,,,,,,,,,,,,,,,,,,,,,,,,,,,,,,,,,,,,,280.4037050829975,None,280.4037050829975,None,280.4037050829975,None,g,1,0.8258482670025842,281.9379159300006,None,281.9379159300006,None,281.9379159300006,None,282.8214057019977,None,282.8214057019977,None,282.8214057019977,None,282.8214057019977,None,,,,,,,,,,,,,,,,,,,,,,,,,,,,,,,,,,,,,,,,,,,,001,72,2020_Feb_04_1554,spring_faces,3.1.5,60.059762828109676,
condition files/Stage0c_1.xlsx,0c,beta,theta,g,"['h', 'g']","['Chess', 'Go']","[-0.15, 0.5]","[0.15, 0.5]",1,1,0,16,16,16,0,3,3,2,,,,,,,,,,,,,,,,,,,,,,,,,,,,,,,,,,,,,,,,,,,,,,,,,,,,,,,,,,,,,,,284.7870201789992,None,284.7870201789992,None,284.7870201789992,None,g,1,0.8584689060007804,286.3212472640007,None,286.3212472640007,None,286.3212472640007,None,287.2223423239993,None,287.2223423239993,None,287.2223423239993,None,287.2223423239993,None,,,,,,,,,,,,,,,,,,,,,,,,,,,,,,,,,,,,,,,,,,,,001,72,2020_Feb_04_1554,spring_faces,3.1.5,60.059762828109676,
condition files/Stage0c_2.xlsx,0c,theta,beta,g,"['h', 'g']","['Chess', 'Go']","[-0.15, 0.5]","[0.15, 0.5]",1,1,0,17,17,17,0,0,0,2,,,,,,,,,,,,,,,,,,,,,,,,,,,,,,,,,,,,,,,,,,,,,,,,,,,,,,,,,,,,,,,289.2210525749979,None,289.2210525749979,None,289.2210525749979,None,g,1,0.7772472619981272,290.7544918349995,None,290.7544918349995,None,290.7544918349995,None,291.57434094400014,None,291.57434094400014,None,291.57434094400014,None,291.57434094400014,None,,,,,,,,,,,,,,,,,,,,,,,,,,,,,,,,,,,,,,,,,,,,001,72,2020_Feb_04_1554,spring_faces,3.1.5,60.059762828109676,
condition files/Stage0c_2.xlsx,0c,beta,phi,g,"['h', 'g']","['Chess', 'Go']","[-0.15, 0.5]","[0.15, 0.5]",1,1,0,17,17,17,0,1,1,3,,,,,,,,,,,,,,,,,,,,,,,,,,,,,,,,,,,,,,,,,,,,,,,,,,,,,,,,,,,,,,,293.55442391799807,None,293.55442391799807,None,293.55442391799807,None,g,1,0.5556010040018009,295.0880857109987,None,295.0880857109987,None,295.0880857109987,None,295.6875052289979,None,295.6875052289979,None,295.6875052289979,None,295.6875052289979,None,,,,,,,,,,,,,,,,,,,,,,,,,,,,,,,,,,,,,,,,,,,,001,72,2020_Feb_04_1554,spring_faces,3.1.5,60.059762828109676,
condition files/Stage0c_2.xlsx,0c,alpha,theta,h,"['h', 'g']","['Chess', 'Go']","[-0.15, 0.5]","[0.15, 0.5]",1,1,0,17,17,17,0,2,2,0,,,,,,,,,,,,,,,,,,,,,,,,,,,,,,,,,,,,,,,,,,,,,,,,,,,,,,,,,,,,,,,297.6709728850001,None,297.6709728850001,None,297.6709728850001,None,h,1,0.8714501949980331,299.2042409099995,None,299.2042409099995,None,299.2042409099995,None,300.13770137100073,None,300.13770137100073,None,300.13770137100073,None,300.13770137100073,None,,,,,,,,,,,,,,,,,,,,,,,,,,,,,,,,,,,,,,,,,,,,001,72,2020_Feb_04_1554,spring_faces,3.1.5,60.059762828109676,
condition files/Stage0c_2.xlsx,0c,phi,alpha,h,"['h', 'g']","['Chess', 'Go']","[-0.15, 0.5]","[0.15, 0.5]",1,1,0,17,17,17,0,3,3,1,,,,,,,,,,,,,,,,,,,,,,,,,,,,,,,,,,,,,,,,,,,,,,,,,,,,,,,,,,,,,,,302.10438614399754,None,302.10438614399754,None,302.10438614399754,None,h,1,0.8062421730028291,303.6374509039997,None,303.6374509039997,None,303.6374509039997,None,304.4893829419998,None,304.4893829419998,None,304.4893829419998,None,304.4893829419998,None,,,,,,,,,,,,,,,,,,,,,,,,,,,,,,,,,,,,,,,,,,,,001,72,2020_Feb_04_1554,spring_faces,3.1.5,60.059762828109676,
,,,,,,,,,,,,,,,,,,,,,,,,,,,,,,,,,,,,,,,,,,,,,,,,,,,,,,,,,,,,,,,,,,,,,,,,,,,,,,,,,,,,,,,,,,,,,,,,,,,,,,,,306.4877945989974,None,space,3.6761264890010352,311.48765242800073,None,,,,,,,,,,,,,,,,,,,,,,,,,,,,,,,,,,,,,,001,72,2020_Feb_04_1554,spring_faces,3.1.5,60.059762828109676,
condition files/Stage1_1.xlsx,,T4,B3,m,"['c', 'm']","['Clue', 'Monopoly']","[-0.15, 0.5]","[0.15, 0.5]",1,1,,,,,,,,,0,0,0,0,0,0,0,6,,,,,,,,,,,,,,,,,,,,,,,,,,,,,,,,,,,,,,,,,,,,,,,,,,,,,,,315.22166473299876,None,315.22166473299876,None,315.22166473299876,None,m,1,2.1695045509986812,316.75417777799885,None,316.75417777799885,None,316.75417777799885,None,319.00435696599743,None,319.00435696599743,None,319.00435696599743,None,319.00435696599743,None,,,,,,,311.48765242800073,None,,,,,,,,,,,,,,,,,,,,,,,,,,,,,,,,,,,,001,72,2020_Feb_04_1554,spring_faces,3.1.5,60.059762828109676,
condition files/Stage1_1.xlsx,,T1,B1,c,"['c', 'm']","['Clue', 'Monopoly']","[-0.15, 0.5]","[0.15, 0.5]",1,1,,,,,,,,,0,0,0,0,0,1,1,0,,,,,,,,,,,,,,,,,,,,,,,,,,,,,,,,,,,,,,,,,,,,,,,,,,,,,,,320.9535753729979,None,320.9535753729979,None,320.9535753729979,None,c,1,0.8347056749989861,322.4890004429981,None,322.4890004429981,None,322.4890004429981,None,323.40447979799865,None,323.40447979799865,None,323.40447979799865,None,323.40447979799865,None,,,,,,,,,,,,,,,,,,,,,,,,,,,,,,,,,,,,,,,,,,,,001,72,2020_Feb_04_1554,spring_faces,3.1.5,60.059762828109676,
condition files/Stage1_1.xlsx,,B4,T4,m,"['c', 'm']","['Clue', 'Monopoly']","[-0.15, 0.5]","[0.15, 0.5]",1,1,,,,,,,,,0,0,0,0,0,2,2,7,,,,,,,,,,,,,,,,,,,,,,,,,,,,,,,,,,,,,,,,,,,,,,,,,,,,,,,325.3543324029997,None,325.3543324029997,None,325.3543324029997,None,c,0,1.010261809999065,326.8893345159995,None,326.8893345159995,None,326.8893345159995,None,327.9555842129994,None,327.9555842129994,None,327.9555842129994,None,327.9555842129994,None,,,,,,,,,,,,,,,,,,,,,,,,,,,,,,,,,,,,,,,,,,,,001,72,2020_Feb_04_1554,spring_faces,3.1.5,60.059762828109676,
condition files/Stage1_1.xlsx,,B1,T2,c,"['c', 'm']","['Clue', 'Monopoly']","[-0.15, 0.5]","[0.15, 0.5]",1,1,,,,,,,,,0,0,0,0,0,3,3,1,,,,,,,,,,,,,,,,,,,,,,,,,,,,,,,,,,,,,,,,,,,,,,,,,,,,,,,329.92113954999877,None,329.92113954999877,None,329.92113954999877,None,m,0,0.9088261180004338,331.4708958449992,None,331.4708958449992,None,331.4708958449992,None,332.4538625389978,None,332.4538625389978,None,332.4538625389978,None,332.4538625389978,None,,,,,,,,,,,,,,,,,,,,,,,,,,,,,,,,,,,,,,,,,,,,001,72,2020_Feb_04_1554,spring_faces,3.1.5,60.059762828109676,
condition files/Stage1_1.xlsx,,B3,T3,c,"['c', 'm']","['Clue', 'Monopoly']","[-0.15, 0.5]","[0.15, 0.5]",1,1,,,,,,,,,0,0,0,0,0,4,4,4,,,,,,,,,,,,,,,,,,,,,,,,,,,,,,,,,,,,,,,,,,,,,,,,,,,,,,,334.4038302109984,None,334.4038302109984,None,334.4038302109984,None,m,0,0.8420792629985954,335.9376670899983,None,335.9376670899983,None,335.9376670899983,None,336.83767995299786,None,336.83767995299786,None,336.83767995299786,None,336.83767995299786,None,,,,,,,,,,,,,,,,,,,,,,,,,,,,,,,,,,,,,,,,,,,,001,72,2020_Feb_04_1554,spring_faces,3.1.5,60.059762828109676,
condition files/Stage1_1.xlsx,,T2,B2,m,"['c', 'm']","['Clue', 'Monopoly']","[-0.15, 0.5]","[0.15, 0.5]",1,1,,,,,,,,,0,0,0,0,0,5,5,3,,,,,,,,,,,,,,,,,,,,,,,,,,,,,,,,,,,,,,,,,,,,,,,,,,,,,,,338.80405427299775,None,338.80405427299775,None,338.80405427299775,None,c,0,1.8957027190008375,340.33998099699966,None,340.33998099699966,None,340.33998099699966,None,342.2902601749993,None,342.2902601749993,None,342.2902601749993,None,342.2902601749993,None,,,,,,,,,,,,,,,,,,,,,,,,,,,,,,,,,,,,,,,,,,,,001,72,2020_Feb_04_1554,spring_faces,3.1.5,60.059762828109676,
condition files/Stage1_1.xlsx,,B2,T1,m,"['c', 'm']","['Clue', 'Monopoly']","[-0.15, 0.5]","[0.15, 0.5]",1,1,,,,,,,,,0,0,0,0,0,6,6,2,,,,,,,,,,,,,,,,,,,,,,,,,,,,,,,,,,,,,,,,,,,,,,,,,,,,,,,344.25422302699735,None,344.25422302699735,None,344.25422302699735,None,c,0,1.4551784659997793,345.80451921200074,None,345.80451921200074,None,345.80451921200074,None,347.3205974499979,None,347.3205974499979,None,347.3205974499979,None,347.3205974499979,None,,,,,,,,,,,,,,,,,,,,,,,,,,,,,,,,,,,,,,,,,,,,001,72,2020_Feb_04_1554,spring_faces,3.1.5,60.059762828109676,
condition files/Stage1_1.xlsx,,T3,B4,c,"['c', 'm']","['Clue', 'Monopoly']","[-0.15, 0.5]","[0.15, 0.5]",1,1,,,,,,,,,0,0,0,0,0,7,7,5,,,,,,,,,,,,,,,,,,,,,,,,,,,,,,,,,,,,,,,,,,,,,,,,,,,,,,,349.28735792099906,None,349.28735792099906,None,349.28735792099906,None,m,0,1.253178509999998,350.8225295529992,None,350.8225295529992,None,350.8225295529992,None,352.1541410339996,None,352.1541410339996,None,352.1541410339996,None,352.1541410339996,None,,,,,,,,,,,,,,,,,,,,,,,,,,,,,,,,,,,,,,,,,,,,001,72,2020_Feb_04_1554,spring_faces,3.1.5,60.059762828109676,
condition files/Stage1_2.xlsx,,B4,T3,c,"['c', 'm']","['Clue', 'Monopoly']","[-0.15, 0.5]","[0.15, 0.5]",1,1,,,,,,,,,0,1,1,1,0,0,0,5,,,,,,,,,,,,,,,,,,,,,,,,,,,,,,,,,,,,,,,,,,,,,,,,,,,,,,,354.12126178799735,None,354.12126178799735,None,354.12126178799735,None,m,0,1.0281732420007756,355.67148765800084,None,355.67148765800084,None,355.67148765800084,None,356.7547748279976,None,356.7547748279976,None,356.7547748279976,None,356.7547748279976,None,,,,,,,,,,,,,,,,,,,,,,,,,,,,,,,,,,,,,,,,,,,,001,72,2020_Feb_04_1554,spring_faces,3.1.5,60.059762828109676,
condition files/Stage1_2.xlsx,,T2,B1,c,"['c', 'm']","['Clue', 'Monopoly']","[-0.15, 0.5]","[0.15, 0.5]",1,1,,,,,,,,,0,1,1,1,0,1,1,1,,,,,,,,,,,,,,,,,,,,,,,,,,,,,,,,,,,,,,,,,,,,,,,,,,,,,,,358.72082762599894,None,358.72082762599894,None,358.72082762599894,None,c,1,0.715537914999004,360.25608717999785,None,360.25608717999785,None,360.25608717999785,None,361.03806909299965,None,361.03806909299965,None,361.03806909299965,None,361.03806909299965,None,,,,,,,,,,,,,,,,,,,,,,,,,,,,,,,,,,,,,,,,,,,,001,72,2020_Feb_04_1554,spring_faces,3.1.5,60.059762828109676,
condition files/Stage1_2.xlsx,,B3,T4,m,"['c', 'm']","['Clue', 'Monopoly']","[-0.15, 0.5]","[0.15, 0.5]",1,1,,,,,,,,,0,1,1,1,0,2,2,6,,,,,,,,,,,,,,,,,,,,,,,,,,,,,,,,,,,,,,,,,,,,,,,,,,,,,,,363.0043294979987,None,363.0043294979987,None,363.0043294979987,None,c,0,1.6009825649998675,364.55462752099993,None,364.55462752099993,None,364.55462752099993,None,366.22199070699935,None,366.22199070699935,None,366.22199070699935,None,366.22199070699935,None,,,,,,,,,,,,,,,,,,,,,,,,,,,,,,,,,,,,,,,,,,,,001,72,2020_Feb_04_1554,spring_faces,3.1.5,60.059762828109676,
condition files/Stage1_2.xlsx,,T1,B2,m,"['c', 'm']","['Clue', 'Monopoly']","[-0.15, 0.5]","[0.15, 0.5]",1,1,,,,,,,,,0,1,1,1,0,3,3,2,,,,,,,,,,,,,,,,,,,,,,,,,,,,,,,,,,,,,,,,,,,,,,,,,,,,,,,368.18729387200074,None,368.18729387200074,None,368.18729387200074,None,c,0,1.6354353389979224,369.7201981569997,None,369.7201981569997,None,369.7201981569997,None,371.42123444499884,None,371.42123444499884,None,371.42123444499884,None,371.42123444499884,None,,,,,,,,,,,,,,,,,,,,,,,,,,,,,,,,,,,,,,,,,,,,001,72,2020_Feb_04_1554,spring_faces,3.1.5,60.059762828109676,
condition files/Stage1_2.xlsx,,T3,B3,c,"['c', 'm']","['Clue', 'Monopoly']","[-0.15, 0.5]","[0.15, 0.5]",1,1,,,,,,,,,0,1,1,1,0,4,4,4,,,,,,,,,,,,,,,,,,,,,,,,,,,,,,,,,,,,,,,,,,,,,,,,,,,,,,,373.38778286600063,None,373.38778286600063,None,373.38778286600063,None,m,0,1.5868110789997445,374.9208985359983,None,374.9208985359983,None,374.9208985359983,None,376.57367555699966,None,376.57367555699966,None,376.57367555699966,None,376.57367555699966,None,,,,,,,,,,,,,,,,,,,,,,,,,,,,,,,,,,,,,,,,,,,,001,72,2020_Feb_04_1554,spring_faces,3.1.5,60.059762828109676,
condition files/Stage1_2.xlsx,,B2,T2,m,"['c', 'm']","['Clue', 'Monopoly']","[-0.15, 0.5]","[0.15, 0.5]",1,1,,,,,,,,,0,1,1,1,0,5,5,3,,,,,,,,,,,,,,,,,,,,,,,,,,,,,,,,,,,,,,,,,,,,,,,,,,,,,,,378.5369716569985,None,378.5369716569985,None,378.5369716569985,None,m,1,0.9476503760015476,380.0879601079978,None,380.0879601079978,None,380.0879601079978,None,381.10414727199895,None,381.10414727199895,None,381.10414727199895,None,381.10414727199895,None,,,,,,,,,,,,,,,,,,,,,,,,,,,,,,,,,,,,,,,,,,,,001,72,2020_Feb_04_1554,spring_faces,3.1.5,60.059762828109676,
condition files/Stage1_2.xlsx,,B1,T1,c,"['c', 'm']","['Clue', 'Monopoly']","[-0.15, 0.5]","[0.15, 0.5]",1,1,,,,,,,,,0,1,1,1,0,6,6,0,,,,,,,,,,,,,,,,,,,,,,,,,,,,,,,,,,,,,,,,,,,,,,,,,,,,,,,383.05445101999794,None,383.05445101999794,None,383.05445101999794,None,c,1,0.8794099619990448,384.5883001959992,None,384.5883001959992,None,384.5883001959992,None,385.5221479619977,None,385.5221479619977,None,385.5221479619977,None,385.5221479619977,None,,,,,,,,,,,,,,,,,,,,,,,,,,,,,,,,,,,,,,,,,,,,001,72,2020_Feb_04_1554,spring_faces,3.1.5,60.059762828109676,
condition files/Stage1_2.xlsx,,T4,B4,m,"['c', 'm']","['Clue', 'Monopoly']","[-0.15, 0.5]","[0.15, 0.5]",1,1,,,,,,,,,0,1,1,1,0,7,7,7,,,,,,,,,,,,,,,,,,,,,,,,,,,,,,,,,,,,,,,,,,,,,,,,,,,,,,,387.48716528799923,None,387.48716528799923,None,387.48716528799923,None,m,1,0.6862945329994545,389.03737757199997,None,389.03737757199997,None,389.03737757199997,None,389.78969099999813,None,389.78969099999813,None,389.78969099999813,None,389.78969099999813,None,,,,,,,,,,,,,,,,,,,,,,,,,,,,,,,,,,,,,,,,,,,,001,72,2020_Feb_04_1554,spring_faces,3.1.5,60.059762828109676,
condition files/Stage1_1.xlsx,,B3,T3,c,"['c', 'm']","['Clue', 'Monopoly']","[-0.15, 0.5]","[0.15, 0.5]",1,1,,,,,,,,,0,2,2,2,0,0,0,4,,,,,,,,,,,,,,,,,,,,,,,,,,,,,,,,,,,,,,,,,,,,,,,,,,,,,,,391.7713164989982,None,391.7713164989982,None,391.7713164989982,None,m,0,0.9146419040007459,393.3050670519988,None,393.3050670519988,None,393.3050670519988,None,394.27384307600005,None,394.27384307600005,None,394.27384307600005,None,394.27384307600005,None,,,,,,,,,,,,,,,,,,,,,,,,,,,,,,,,,,,,,,,,,,,,001,72,2020_Feb_04_1554,spring_faces,3.1.5,60.059762828109676,
condition files/Stage1_1.xlsx,,T1,B1,c,"['c', 'm']","['Clue', 'Monopoly']","[-0.15, 0.5]","[0.15, 0.5]",1,1,,,,,,,,,0,2,2,2,0,1,1,0,,,,,,,,,,,,,,,,,,,,,,,,,,,,,,,,,,,,,,,,,,,,,,,,,,,,,,,396.2375716530005,None,396.2375716530005,None,396.2375716530005,None,c,1,1.343668597000942,397.7719685640004,None,397.7719685640004,None,397.7719685640004,None,399.1714312539989,None,399.1714312539989,None,399.1714312539989,None,399.1714312539989,None,,,,,,,,,,,,,,,,,,,,,,,,,,,,,,,,,,,,,,,,,,,,001,72,2020_Feb_04_1554,spring_faces,3.1.5,60.059762828109676,
condition files/Stage1_1.xlsx,,T4,B3,m,"['c', 'm']","['Clue', 'Monopoly']","[-0.15, 0.5]","[0.15, 0.5]",1,1,,,,,,,,,0,2,2,2,0,2,2,6,,,,,,,,,,,,,,,,,,,,,,,,,,,,,,,,,,,,,,,,,,,,,,,,,,,,,,,401.13699533600084,None,401.13699533600084,None,401.13699533600084,None,m,1,1.3562463819980621,402.6714947949986,None,402.6714947949986,None,402.6714947949986,None,404.10449635799887,None,404.10449635799887,None,404.10449635799887,None,404.10449635799887,None,,,,,,,,,,,,,,,,,,,,,,,,,,,,,,,,,,,,,,,,,,,,001,72,2020_Feb_04_1554,spring_faces,3.1.5,60.059762828109676,
condition files/Stage1_1.xlsx,,B4,T4,m,"['c', 'm']","['Clue', 'Monopoly']","[-0.15, 0.5]","[0.15, 0.5]",1,1,,,,,,,,,0,2,2,2,0,3,3,7,,,,,,,,,,,,,,,,,,,,,,,,,,,,,,,,,,,,,,,,,,,,,,,,,,,,,,,406.0537841309997,None,406.0537841309997,None,406.0537841309997,None,c,0,0.8710726009994687,407.6046130149989,None,407.6046130149989,None,407.6046130149989,None,408.53784644799816,None,408.53784644799816,None,408.53784644799816,None,408.53784644799816,None,,,,,,,,,,,,,,,,,,,,,,,,,,,,,,,,,,,,,,,,,,,,001,72,2020_Feb_04_1554,spring_faces,3.1.5,60.059762828109676,
condition files/Stage1_1.xlsx,,B2,T1,m,"['c', 'm']","['Clue', 'Monopoly']","[-0.15, 0.5]","[0.15, 0.5]",1,1,,,,,,,,,0,2,2,2,0,4,4,2,,,,,,,,,,,,,,,,,,,,,,,,,,,,,,,,,,,,,,,,,,,,,,,,,,,,,,,410.50391917600064,None,410.50391917600064,None,410.50391917600064,None,c,0,1.2853743189989473,412.0383083659981,None,412.0383083659981,None,412.0383083659981,None,413.38811130499744,None,413.38811130499744,None,413.38811130499744,None,413.38811130499744,None,,,,,,,,,,,,,,,,,,,,,,,,,,,,,,,,,,,,,,,,,,,,001,72,2020_Feb_04_1554,spring_faces,3.1.5,60.059762828109676,
condition files/Stage1_1.xlsx,,T3,B4,c,"['c', 'm']","['Clue', 'Monopoly']","[-0.15, 0.5]","[0.15, 0.5]",1,1,,,,,,,,,0,2,2,2,0,5,5,5,,,,,,,,,,,,,,,,,,,,,,,,,,,,,,,,,,,,,,,,,,,,,,,,,,,,,,,415.3538524180003,None,415.3538524180003,None,415.3538524180003,None,c,1,0.849984337000933,416.88966692100075,None,416.88966692100075,None,416.88966692100075,None,417.806105181,None,417.806105181,None,417.806105181,None,417.806105181,None,,,,,,,,,,,,,,,,,,,,,,,,,,,,,,,,,,,,,,,,,,,,001,72,2020_Feb_04_1554,spring_faces,3.1.5,60.059762828109676,
condition files/Stage1_1.xlsx,,B1,T2,c,"['c', 'm']","['Clue', 'Monopoly']","[-0.15, 0.5]","[0.15, 0.5]",1,1,,,,,,,,,0,2,2,2,0,6,6,1,,,,,,,,,,,,,,,,,,,,,,,,,,,,,,,,,,,,,,,,,,,,,,,,,,,,,,,419.7705382669992,None,419.7705382669992,None,419.7705382669992,None,m,0,1.5074968760018237,421.30422125399855,None,421.30422125399855,None,421.30422125399855,None,422.87099006599965,None,422.87099006599965,None,422.87099006599965,None,422.87099006599965,None,,,,,,,,,,,,,,,,,,,,,,,,,,,,,,,,,,,,,,,,,,,,001,72,2020_Feb_04_1554,spring_faces,3.1.5,60.059762828109676,
condition files/Stage1_1.xlsx,,T2,B2,m,"['c', 'm']","['Clue', 'Monopoly']","[-0.15, 0.5]","[0.15, 0.5]",1,1,,,,,,,,,0,2,2,2,0,7,7,3,,,,,,,,,,,,,,,,,,,,,,,,,,,,,,,,,,,,,,,,,,,,,,,,,,,,,,,424.83686433299954,None,424.83686433299954,None,424.83686433299954,None,m,1,1.2080984280000848,426.3876245899992,None,426.3876245899992,None,426.3876245899992,None,427.655691123,None,427.655691123,None,427.655691123,None,427.655691123,None,,,,,,,,,,,,,,,,,,,,,,,,,,,,,,,,,,,,,,,,,,,,001,72,2020_Feb_04_1554,spring_faces,3.1.5,60.059762828109676,
condition files/Stage1_2.xlsx,,T3,B3,c,"['c', 'm']","['Clue', 'Monopoly']","[-0.15, 0.5]","[0.15, 0.5]",1,1,,,,,,,,,0,3,3,3,0,0,0,4,,,,,,,,,,,,,,,,,,,,,,,,,,,,,,,,,,,,,,,,,,,,,,,,,,,,,,,429.63767504899806,None,429.63767504899806,None,429.63767504899806,None,c,1,1.3205765649981913,431.17114715599746,None,431.17114715599746,None,431.17114715599746,None,432.5711385180002,None,432.5711385180002,None,432.5711385180002,None,432.5711385180002,None,,,,,,,,,,,,,,,,,,,,,,,,,,,,,,,,,,,,,,,,,,,,001,72,2020_Feb_04_1554,spring_faces,3.1.5,60.059762828109676,
condition files/Stage1_2.xlsx,,B2,T2,m,"['c', 'm']","['Clue', 'Monopoly']","[-0.15, 0.5]","[0.15, 0.5]",1,1,,,,,,,,,0,3,3,3,0,1,1,3,,,,,,,,,,,,,,,,,,,,,,,,,,,,,,,,,,,,,,,,,,,,,,,,,,,,,,,434.52091493899934,None,434.52091493899934,None,434.52091493899934,None,m,1,1.1076687339991622,436.0560797149992,None,436.0560797149992,None,436.0560797149992,None,437.22251086100005,None,437.22251086100005,None,437.22251086100005,None,437.22251086100005,None,,,,,,,,,,,,,,,,,,,,,,,,,,,,,,,,,,,,,,,,,,,,001,72,2020_Feb_04_1554,spring_faces,3.1.5,60.059762828109676,
condition files/Stage1_2.xlsx,,B3,T4,m,"['c', 'm']","['Clue', 'Monopoly']","[-0.15, 0.5]","[0.15, 0.5]",1,1,,,,,,,,,0,3,3,3,0,2,2,6,,,,,,,,,,,,,,,,,,,,,,,,,,,,,,,,,,,,,,,,,,,,,,,,,,,,,,,439.18811281599847,None,439.18811281599847,None,439.18811281599847,None,m,1,1.2580536999994365,440.72169522200056,None,440.72169522200056,None,440.72169522200056,None,442.03811709599904,None,442.03811709599904,None,442.03811709599904,None,442.03811709599904,None,,,,,,,,,,,,,,,,,,,,,,,,,,,,,,,,,,,,,,,,,,,,001,72,2020_Feb_04_1554,spring_faces,3.1.5,60.059762828109676,
condition files/Stage1_2.xlsx,,T4,B4,m,"['c', 'm']","['Clue', 'Monopoly']","[-0.15, 0.5]","[0.15, 0.5]",1,1,,,,,,,,,0,3,3,3,0,3,3,7,,,,,,,,,,,,,,,,,,,,,,,,,,,,,,,,,,,,,,,,,,,,,,,,,,,,,,,444.0038300349988,None,444.0038300349988,None,444.0038300349988,None,m,1,1.6413844930029882,445.55434016399886,None,445.55434016399886,None,445.55434016399886,None,447.2545639889977,None,447.2545639889977,None,447.2545639889977,None,447.2545639889977,None,,,,,,,,,,,,,,,,,,,,,,,,,,,,,,,,,,,,,,,,,,,,001,72,2020_Feb_04_1554,spring_faces,3.1.5,60.059762828109676,
condition files/Stage1_2.xlsx,,T1,B2,m,"['c', 'm']","['Clue', 'Monopoly']","[-0.15, 0.5]","[0.15, 0.5]",1,1,,,,,,,,,0,3,3,3,0,4,4,2,,,,,,,,,,,,,,,,,,,,,,,,,,,,,,,,,,,,,,,,,,,,,,,,,,,,,,,449.2209881739982,None,449.2209881739982,None,449.2209881739982,None,c,0,1.5606280469983176,450.7710836820006,None,450.7710836820006,None,450.7710836820006,None,452.387313422998,None,452.387313422998,None,452.387313422998,None,452.387313422998,None,,,,,,,,,,,,,,,,,,,,,,,,,,,,,,,,,,,,,,,,,,,,001,72,2020_Feb_04_1554,spring_faces,3.1.5,60.059762828109676,
condition files/Stage1_2.xlsx,,B4,T3,c,"['c', 'm']","['Clue', 'Monopoly']","[-0.15, 0.5]","[0.15, 0.5]",1,1,,,,,,,,,0,3,3,3,0,5,5,5,,,,,,,,,,,,,,,,,,,,,,,,,,,,,,,,,,,,,,,,,,,,,,,,,,,,,,,454.3538812359984,None,454.3538812359984,None,454.3538812359984,None,c,1,1.5467685629992047,455.88893019199895,None,455.88893019199895,None,455.88893019199895,None,457.4879911309981,None,457.4879911309981,None,457.4879911309981,None,457.4879911309981,None,,,,,,,,,,,,,,,,,,,,,,,,,,,,,,,,,,,,,,,,,,,,001,72,2020_Feb_04_1554,spring_faces,3.1.5,60.059762828109676,
condition files/Stage1_2.xlsx,,T2,B1,c,"['c', 'm']","['Clue', 'Monopoly']","[-0.15, 0.5]","[0.15, 0.5]",1,1,,,,,,,,,0,3,3,3,0,6,6,1,,,,,,,,,,,,,,,,,,,,,,,,,,,,,,,,,,,,,,,,,,,,,,,,,,,,,,,459.454062634999,None,459.454062634999,None,459.454062634999,None,m,0,1.3591586529983033,461.0046021519993,None,461.0046021519993,None,461.0046021519993,None,462.421192900998,None,462.421192900998,None,462.421192900998,None,462.421192900998,None,,,,,,,,,,,,,,,,,,,,,,,,,,,,,,,,,,,,,,,,,,,,001,72,2020_Feb_04_1554,spring_faces,3.1.5,60.059762828109676,
condition files/Stage1_2.xlsx,,B1,T1,c,"['c', 'm']","['Clue', 'Monopoly']","[-0.15, 0.5]","[0.15, 0.5]",1,1,,,,,,,,,0,3,3,3,0,7,7,0,,,,,,,,,,,,,,,,,,,,,,,,,,,,,,,,,,,,,,,,,,,,,,,,,,,,,,,464.38707817400064,None,464.38707817400064,None,464.38707817400064,None,c,1,1.5938681499974336,465.9378509999988,None,465.9378509999988,None,465.9378509999988,None,467.58786310600044,None,467.58786310600044,None,467.58786310600044,None,467.58786310600044,None,,,,,,,,,,,,,,,,,,,,,,,,,,,,,,,,,,,,,,,,,,,,001,72,2020_Feb_04_1554,spring_faces,3.1.5,60.059762828109676,
condition files/Stage1_1.xlsx,,T3,B4,c,"['c', 'm']","['Clue', 'Monopoly']","[-0.15, 0.5]","[0.15, 0.5]",1,1,,,,,,,,,0,4,4,4,0,0,0,5,,,,,,,,,,,,,,,,,,,,,,,,,,,,,,,,,,,,,,,,,,,,,,,,,,,,,,,469.5708223649999,None,469.5708223649999,None,469.5708223649999,None,m,0,1.179101970999909,471.1046411770003,None,471.1046411770003,None,471.1046411770003,None,472.3372928429999,None,472.3372928429999,None,472.3372928429999,None,472.3372928429999,None,,,,,,,,,,,,,,,,,,,,,,,,,,,,,,,,,,,,,,,,,,,,001,72,2020_Feb_04_1554,spring_faces,3.1.5,60.059762828109676,
condition files/Stage1_1.xlsx,,T4,B3,m,"['c', 'm']","['Clue', 'Monopoly']","[-0.15, 0.5]","[0.15, 0.5]",1,1,,,,,,,,,0,4,4,4,0,1,1,6,,,,,,,,,,,,,,,,,,,,,,,,,,,,,,,,,,,,,,,,,,,,,,,,,,,,,,,474.3036348489986,None,474.3036348489986,None,474.3036348489986,None,m,1,1.7082565249984327,475.83940187199914,None,475.83940187199914,None,475.83940187199914,None,477.60611335499925,None,477.60611335499925,None,477.60611335499925,None,477.60611335499925,None,,,,,,,,,,,,,,,,,,,,,,,,,,,,,,,,,,,,,,,,,,,,001,72,2020_Feb_04_1554,spring_faces,3.1.5,60.059762828109676,
condition files/Stage1_1.xlsx,,B4,T4,m,"['c', 'm']","['Clue', 'Monopoly']","[-0.15, 0.5]","[0.15, 0.5]",1,1,,,,,,,,,0,4,4,4,0,2,2,7,,,,,,,,,,,,,,,,,,,,,,,,,,,,,,,,,,,,,,,,,,,,,,,,,,,,,,,479.57112030499775,None,479.57112030499775,None,479.57112030499775,None,m,1,1.2270237039992935,481.120617302,None,481.120617302,None,481.120617302,None,482.4043064109974,None,482.4043064109974,None,482.4043064109974,None,482.4043064109974,None,,,,,,,,,,,,,,,,,,,,,,,,,,,,,,,,,,,,,,,,,,,,001,72,2020_Feb_04_1554,spring_faces,3.1.5,60.059762828109676,
condition files/Stage1_1.xlsx,,T1,B1,c,"['c', 'm']","['Clue', 'Monopoly']","[-0.15, 0.5]","[0.15, 0.5]",1,1,,,,,,,,,0,4,4,4,0,3,3,0,,,,,,,,,,,,,,,,,,,,,,,,,,,,,,,,,,,,,,,,,,,,,,,,,,,,,,,484.3706953039982,None,484.3706953039982,None,484.3706953039982,None,c,1,1.3222968150002998,485.90545225700043,None,485.90545225700043,None,485.90545225700043,None,487.2903832569973,None,487.2903832569973,None,487.2903832569973,None,487.2903832569973,None,,,,,,,,,,,,,,,,,,,,,,,,,,,,,,,,,,,,,,,,,,,,001,72,2020_Feb_04_1554,spring_faces,3.1.5,60.059762828109676,
condition files/Stage1_1.xlsx,,T2,B2,m,"['c', 'm']","['Clue', 'Monopoly']","[-0.15, 0.5]","[0.15, 0.5]",1,1,,,,,,,,,0,4,4,4,0,4,4,3,,,,,,,,,,,,,,,,,,,,,,,,,,,,,,,,,,,,,,,,,,,,,,,,,,,,,,,489.2541174020007,None,489.2541174020007,None,489.2541174020007,None,m,1,0.6791520350016071,490.8045009499983,None,490.8045009499983,None,490.8045009499983,None,491.5545259190003,None,491.5545259190003,None,491.5545259190003,None,491.5545259190003,None,,,,,,,,,,,,,,,,,,,,,,,,,,,,,,,,,,,,,,,,,,,,001,72,2020_Feb_04_1554,spring_faces,3.1.5,60.059762828109676,
condition files/Stage1_1.xlsx,,B3,T3,c,"['c', 'm']","['Clue', 'Monopoly']","[-0.15, 0.5]","[0.15, 0.5]",1,1,,,,,,,,,0,4,4,4,0,5,5,4,,,,,,,,,,,,,,,,,,,,,,,,,,,,,,,,,,,,,,,,,,,,,,,,,,,,,,,493.50410000099873,None,493.50410000099873,None,493.50410000099873,None,c,1,1.0204653159998998,495.03929239100034,None,495.03929239100034,None,495.03929239100034,None,496.1221550070004,None,496.1221550070004,None,496.1221550070004,None,496.1221550070004,None,,,,,,,,,,,,,,,,,,,,,,,,,,,,,,,,,,,,,,,,,,,,001,72,2020_Feb_04_1554,spring_faces,3.1.5,60.059762828109676,
condition files/Stage1_1.xlsx,,B1,T2,c,"['c', 'm']","['Clue', 'Monopoly']","[-0.15, 0.5]","[0.15, 0.5]",1,1,,,,,,,,,0,4,4,4,0,6,6,1,,,,,,,,,,,,,,,,,,,,,,,,,,,,,,,,,,,,,,,,,,,,,,,,,,,,,,,498.0873582839995,None,498.0873582839995,None,498.0873582839995,None,c,1,1.125848751002195,499.6218761559976,None,499.6218761559976,None,499.6218761559976,None,500.80427167499874,None,500.80427167499874,None,500.80427167499874,None,500.80427167499874,None,,,,,,,,,,,,,,,,,,,,,,,,,,,,,,,,,,,,,,,,,,,,001,72,2020_Feb_04_1554,spring_faces,3.1.5,60.059762828109676,
condition files/Stage1_1.xlsx,,B2,T1,m,"['c', 'm']","['Clue', 'Monopoly']","[-0.15, 0.5]","[0.15, 0.5]",1,1,,,,,,,,,0,4,4,4,0,7,7,2,,,,,,,,,,,,,,,,,,,,,,,,,,,,,,,,,,,,,,,,,,,,,,,,,,,,,,,502.77145839699733,None,502.77145839699733,None,502.77145839699733,None,m,1,1.786475574997894,504.32121905799795,None,504.32121905799795,None,504.32121905799795,None,506.1717912690001,None,506.1717912690001,None,506.1717912690001,None,506.1717912690001,None,,,,,,,,,,,,,,,,,,,,,,,,,,,,,,,,,,,,,,,,,,,,001,72,2020_Feb_04_1554,spring_faces,3.1.5,60.059762828109676,
condition files/Stage1_2.xlsx,,T4,B4,m,"['c', 'm']","['Clue', 'Monopoly']","[-0.15, 0.5]","[0.15, 0.5]",1,1,,,,,,,,,0,5,5,5,0,0,0,7,,,,,,,,,,,,,,,,,,,,,,,,,,,,,,,,,,,,,,,,,,,,,,,,,,,,,,,508.1544258770009,None,508.1544258770009,None,508.1544258770009,None,m,1,0.898605710000993,509.6891055729975,None,509.6891055729975,None,509.6891055729975,None,510.6376486320005,None,510.6376486320005,None,510.6376486320005,None,510.6376486320005,None,,,,,,,,,,,,,,,,,,,,,,,,,,,,,,,,,,,,,,,,,,,,001,72,2020_Feb_04_1554,spring_faces,3.1.5,60.059762828109676,
condition files/Stage1_2.xlsx,,T3,B3,c,"['c', 'm']","['Clue', 'Monopoly']","[-0.15, 0.5]","[0.15, 0.5]",1,1,,,,,,,,,0,5,5,5,0,1,1,4,,,,,,,,,,,,,,,,,,,,,,,,,,,,,,,,,,,,,,,,,,,,,,,,,,,,,,,512.6046097180006,None,512.6046097180006,None,512.6046097180006,None,c,1,1.3772104540003056,514.1384579669975,None,514.1384579669975,None,514.1384579669975,None,515.571763396998,None,515.571763396998,None,515.571763396998,None,515.571763396998,None,,,,,,,,,,,,,,,,,,,,,,,,,,,,,,,,,,,,,,,,,,,,001,72,2020_Feb_04_1554,spring_faces,3.1.5,60.059762828109676,
condition files/Stage1_2.xlsx,,T2,B1,c,"['c', 'm']","['Clue', 'Monopoly']","[-0.15, 0.5]","[0.15, 0.5]",1,1,,,,,,,,,0,5,5,5,0,2,2,1,,,,,,,,,,,,,,,,,,,,,,,,,,,,,,,,,,,,,,,,,,,,,,,,,,,,,,,517.5375326969988,None,517.5375326969988,None,517.5375326969988,None,m,0,0.8127041110019491,519.0709367609998,None,519.0709367609998,None,519.0709367609998,None,519.9377058229984,None,519.9377058229984,None,519.9377058229984,None,519.9377058229984,None,,,,,,,,,,,,,,,,,,,,,,,,,,,,,,,,,,,,,,,,,,,,001,72,2020_Feb_04_1554,spring_faces,3.1.5,60.059762828109676,
condition files/Stage1_2.xlsx,,B4,T3,c,"['c', 'm']","['Clue', 'Monopoly']","[-0.15, 0.5]","[0.15, 0.5]",1,1,,,,,,,,,0,5,5,5,0,3,3,5,,,,,,,,,,,,,,,,,,,,,,,,,,,,,,,,,,,,,,,,,,,,,,,,,,,,,,,521.903817888,None,521.903817888,None,521.903817888,None,c,1,1.3732472320007219,523.4384977219997,None,523.4384977219997,None,523.4384977219997,None,524.8711034769985,None,524.8711034769985,None,524.8711034769985,None,524.8711034769985,None,,,,,,,,,,,,,,,,,,,,,,,,,,,,,,,,,,,,,,,,,,,,001,72,2020_Feb_04_1554,spring_faces,3.1.5,60.059762828109676,
condition files/Stage1_2.xlsx,,B3,T4,m,"['c', 'm']","['Clue', 'Monopoly']","[-0.15, 0.5]","[0.15, 0.5]",1,1,,,,,,,,,0,5,5,5,0,4,4,6,,,,,,,,,,,,,,,,,,,,,,,,,,,,,,,,,,,,,,,,,,,,,,,,,,,,,,,526.8371045569984,None,526.8371045569984,None,526.8371045569984,None,m,1,1.2079470099997707,528.3717967189987,None,528.3717967189987,None,528.3717967189987,None,529.6391766209999,None,529.6391766209999,None,529.6391766209999,None,529.6391766209999,None,,,,,,,,,,,,,,,,,,,,,,,,,,,,,,,,,,,,,,,,,,,,001,72,2020_Feb_04_1554,spring_faces,3.1.5,60.059762828109676,
condition files/Stage1_2.xlsx,,T1,B2,m,"['c', 'm']","['Clue', 'Monopoly']","[-0.15, 0.5]","[0.15, 0.5]",1,1,,,,,,,,,0,5,5,5,0,5,5,2,,,,,,,,,,,,,,,,,,,,,,,,,,,,,,,,,,,,,,,,,,,,,,,,,,,,,,,531.6041315149996,None,531.6041315149996,None,531.6041315149996,None,m,1,0.8578224800003227,533.1539022020006,None,533.1539022020006,None,533.1539022020006,None,534.0708012689975,None,534.0708012689975,None,534.0708012689975,None,534.0708012689975,None,,,,,,,,,,,,,,,,,,,,,,,,,,,,,,,,,,,,,,,,,,,,001,72,2020_Feb_04_1554,spring_faces,3.1.5,60.059762828109676,
condition files/Stage1_2.xlsx,,B1,T1,c,"['c', 'm']","['Clue', 'Monopoly']","[-0.15, 0.5]","[0.15, 0.5]",1,1,,,,,,,,,0,5,5,5,0,6,6,0,,,,,,,,,,,,,,,,,,,,,,,,,,,,,,,,,,,,,,,,,,,,,,,,,,,,,,,536.0375808379977,None,536.0375808379977,None,536.0375808379977,None,c,1,0.8560316869989038,537.5876938149995,None,537.5876938149995,None,537.5876938149995,None,538.506989010999,None,538.506989010999,None,538.506989010999,None,538.506989010999,None,,,,,,,,,,,,,,,,,,,,,,,,,,,,,,,,,,,,,,,,,,,,001,72,2020_Feb_04_1554,spring_faces,3.1.5,60.059762828109676,
condition files/Stage1_2.xlsx,,B2,T2,m,"['c', 'm']","['Clue', 'Monopoly']","[-0.15, 0.5]","[0.15, 0.5]",1,1,,,,,,,,,0,5,5,5,0,7,7,3,,,,,,,,,,,,,,,,,,,,,,,,,,,,,,,,,,,,,,,,,,,,,,,,,,,,,,,540.4705721940009,None,540.4705721940009,None,540.4705721940009,None,c,0,1.1264096080012678,542.0053345239976,None,542.0053345239976,None,542.0053345239976,None,543.2042182559999,None,543.2042182559999,None,543.2042182559999,None,543.2042182559999,None,,,,,,,,,,,,,,,,,,,,,,,,,,,,,,,,,,,,,,,,,,,,001,72,2020_Feb_04_1554,spring_faces,3.1.5,60.059762828109676,
condition files/Stage1_1.xlsx,,B1,T2,c,"['c', 'm']","['Clue', 'Monopoly']","[-0.15, 0.5]","[0.15, 0.5]",1,1,,,,,,,,,0,6,6,6,0,0,0,1,,,,,,,,,,,,,,,,,,,,,,,,,,,,,,,,,,,,,,,,,,,,,,,,,,,,,,,545.1712761029994,None,545.1712761029994,None,545.1712761029994,None,c,1,1.3227833080018172,546.7049500020003,None,546.7049500020003,None,546.7049500020003,None,548.0896611909993,None,548.0896611909993,None,548.0896611909993,None,548.0896611909993,None,,,,,,,,,,,,,,,,,,,,,,,,,,,,,,,,,,,,,,,,,,,,001,72,2020_Feb_04_1554,spring_faces,3.1.5,60.059762828109676,
condition files/Stage1_1.xlsx,,T2,B2,m,"['c', 'm']","['Clue', 'Monopoly']","[-0.15, 0.5]","[0.15, 0.5]",1,1,,,,,,,,,0,6,6,6,0,1,1,3,,,,,,,,,,,,,,,,,,,,,,,,,,,,,,,,,,,,,,,,,,,,,,,,,,,,,,,550.0546997469974,None,550.0546997469974,None,550.0546997469974,None,m,1,0.8542331759999797,551.5894749269974,None,551.5894749269974,None,551.5894749269974,None,552.5214061499973,None,552.5214061499973,None,552.5214061499973,None,552.5214061499973,None,,,,,,,,,,,,,,,,,,,,,,,,,,,,,,,,,,,,,,,,,,,,001,72,2020_Feb_04_1554,spring_faces,3.1.5,60.059762828109676,
condition files/Stage1_1.xlsx,,B4,T4,m,"['c', 'm']","['Clue', 'Monopoly']","[-0.15, 0.5]","[0.15, 0.5]",1,1,,,,,,,,,0,6,6,6,0,2,2,7,,,,,,,,,,,,,,,,,,,,,,,,,,,,,,,,,,,,,,,,,,,,,,,,,,,,,,,554.4706899979974,None,554.4706899979974,None,554.4706899979974,None,m,1,1.2704637370006822,556.0212333290001,None,556.0212333290001,None,556.0212333290001,None,557.3542499689975,None,557.3542499689975,None,557.3542499689975,None,557.3542499689975,None,,,,,,,,,,,,,,,,,,,,,,,,,,,,,,,,,,,,,,,,,,,,001,72,2020_Feb_04_1554,spring_faces,3.1.5,60.059762828109676,
condition files/Stage1_1.xlsx,,T3,B4,c,"['c', 'm']","['Clue', 'Monopoly']","[-0.15, 0.5]","[0.15, 0.5]",1,1,,,,,,,,,0,6,6,6,0,3,3,5,,,,,,,,,,,,,,,,,,,,,,,,,,,,,,,,,,,,,,,,,,,,,,,,,,,,,,,559.3209522519974,None,559.3209522519974,None,559.3209522519974,None,c,1,1.3979429459977837,560.853728064998,None,560.853728064998,None,560.853728064998,None,562.3046794519978,None,562.3046794519978,None,562.3046794519978,None,562.3046794519978,None,,,,,,,,,,,,,,,,,,,,,,,,,,,,,,,,,,,,,,,,,,,,001,72,2020_Feb_04_1554,spring_faces,3.1.5,60.059762828109676,
condition files/Stage1_1.xlsx,,T4,B3,m,"['c', 'm']","['Clue', 'Monopoly']","[-0.15, 0.5]","[0.15, 0.5]",1,1,,,,,,,,,0,6,6,6,0,4,4,6,,,,,,,,,,,,,,,,,,,,,,,,,,,,,,,,,,,,,,,,,,,,,,,,,,,,,,,564.2704135950007,None,564.2704135950007,None,564.2704135950007,None,m,1,1.039071277999028,565.8045461519978,None,565.8045461519978,None,565.8045461519978,None,566.9209054450002,None,566.9209054450002,None,566.9209054450002,None,566.9209054450002,None,,,,,,,,,,,,,,,,,,,,,,,,,,,,,,,,,,,,,,,,,,,,001,72,2020_Feb_04_1554,spring_faces,3.1.5,60.059762828109676,
condition files/Stage1_1.xlsx,,B2,T1,m,"['c', 'm']","['Clue', 'Monopoly']","[-0.15, 0.5]","[0.15, 0.5]",1,1,,,,,,,,,0,6,6,6,0,5,5,2,,,,,,,,,,,,,,,,,,,,,,,,,,,,,,,,,,,,,,,,,,,,,,,,,,,,,,,568.8709398989995,None,568.8709398989995,None,568.8709398989995,None,m,1,1.430539195996971,570.405145798999,None,570.405145798999,None,570.405145798999,None,571.8878077240006,None,571.8878077240006,None,571.8878077240006,None,571.8878077240006,None,,,,,,,,,,,,,,,,,,,,,,,,,,,,,,,,,,,,,,,,,,,,001,72,2020_Feb_04_1554,spring_faces,3.1.5,60.059762828109676,
condition files/Stage1_1.xlsx,,B3,T3,c,"['c', 'm']","['Clue', 'Monopoly']","[-0.15, 0.5]","[0.15, 0.5]",1,1,,,,,,,,,0,6,6,6,0,6,6,4,,,,,,,,,,,,,,,,,,,,,,,,,,,,,,,,,,,,,,,,,,,,,,,,,,,,,,,573.8543911429988,None,573.8543911429988,None,573.8543911429988,None,c,1,1.3604164349999337,575.3872315959998,None,575.3872315959998,None,575.3872315959998,None,576.8048462599982,None,576.8048462599982,None,576.8048462599982,None,576.8048462599982,None,,,,,,,,,,,,,,,,,,,,,,,,,,,,,,,,,,,,,,,,,,,,001,72,2020_Feb_04_1554,spring_faces,3.1.5,60.059762828109676,
condition files/Stage1_1.xlsx,,T1,B1,c,"['c', 'm']","['Clue', 'Monopoly']","[-0.15, 0.5]","[0.15, 0.5]",1,1,,,,,,,,,0,6,6,6,0,7,7,0,,,,,,,,,,,,,,,,,,,,,,,,,,,,,,,,,,,,,,,,,,,,,,,,,,,,,,,578.7703490759995,None,578.7703490759995,None,578.7703490759995,None,c,1,1.5783682510009385,580.321286000999,None,580.321286000999,None,580.321286000999,None,581.9536602219996,None,581.9536602219996,None,581.9536602219996,None,581.9536602219996,None,,,,,,,,,,,,,,,,,,,,,,,,,,,,,,,,,,,,,,,,,,,,001,72,2020_Feb_04_1554,spring_faces,3.1.5,60.059762828109676,
condition files/Stage1_2.xlsx,,B4,T3,c,"['c', 'm']","['Clue', 'Monopoly']","[-0.15, 0.5]","[0.15, 0.5]",1,1,,,,,,,,,0,7,7,7,0,0,0,5,,,,,,,,,,,,,,,,,,,,,,,,,,,,,,,,,,,,,,,,,,,,,,,,,,,,,,,583.9377041299995,None,583.9377041299995,None,583.9377041299995,None,c,1,1.4196673619990179,585.4720649589981,None,585.4720649589981,None,585.4720649589981,None,586.9547131849977,None,586.9547131849977,None,586.9547131849977,None,586.9547131849977,None,,,,,,,,,,,,,,,,,,,,,,,,,,,,,,,,,,,,,,,,,,,,001,72,2020_Feb_04_1554,spring_faces,3.1.5,60.059762828109676,
condition files/Stage1_2.xlsx,,T3,B3,c,"['c', 'm']","['Clue', 'Monopoly']","[-0.15, 0.5]","[0.15, 0.5]",1,1,,,,,,,,,0,7,7,7,0,1,1,4,,,,,,,,,,,,,,,,,,,,,,,,,,,,,,,,,,,,,,,,,,,,,,,,,,,,,,,588.9206944519974,None,588.9206944519974,None,588.9206944519974,None,c,1,1.0612530629987305,590.4704750559977,None,590.4704750559977,None,590.4704750559977,None,591.5878699819987,None,591.5878699819987,None,591.5878699819987,None,591.5878699819987,None,,,,,,,,,,,,,,,,,,,,,,,,,,,,,,,,,,,,,,,,,,,,001,72,2020_Feb_04_1554,spring_faces,3.1.5,60.059762828109676,
condition files/Stage1_2.xlsx,,T1,B2,m,"['c', 'm']","['Clue', 'Monopoly']","[-0.15, 0.5]","[0.15, 0.5]",1,1,,,,,,,,,0,7,7,7,0,2,2,2,,,,,,,,,,,,,,,,,,,,,,,,,,,,,,,,,,,,,,,,,,,,,,,,,,,,,,,593.5536726899991,None,593.5536726899991,None,593.5536726899991,None,m,1,1.498977326999011,595.08873073,None,595.08873073,None,595.08873073,None,596.6397704999981,None,596.6397704999981,None,596.6397704999981,None,596.6397704999981,None,,,,,,,,,,,,,,,,,,,,,,,,,,,,,,,,,,,,,,,,,,,,001,72,2020_Feb_04_1554,spring_faces,3.1.5,60.059762828109676,
condition files/Stage1_2.xlsx,,B3,T4,m,"['c', 'm']","['Clue', 'Monopoly']","[-0.15, 0.5]","[0.15, 0.5]",1,1,,,,,,,,,0,7,7,7,0,3,3,6,,,,,,,,,,,,,,,,,,,,,,,,,,,,,,,,,,,,,,,,,,,,,,,,,,,,,,,598.6041502970002,None,598.6041502970002,None,598.6041502970002,None,m,1,0.897065950997785,600.1545547429996,None,600.1545547429996,None,600.1545547429996,None,601.1044622119989,None,601.1044622119989,None,601.1044622119989,None,601.1044622119989,None,,,,,,,,,,,,,,,,,,,,,,,,,,,,,,,,,,,,,,,,,,,,001,72,2020_Feb_04_1554,spring_faces,3.1.5,60.059762828109676,
condition files/Stage1_2.xlsx,,B2,T2,m,"['c', 'm']","['Clue', 'Monopoly']","[-0.15, 0.5]","[0.15, 0.5]",1,1,,,,,,,,,0,7,7,7,0,4,4,3,,,,,,,,,,,,,,,,,,,,,,,,,,,,,,,,,,,,,,,,,,,,,,,,,,,,,,,603.0709964489979,None,603.0709964489979,None,603.0709964489979,None,m,1,1.4224492499997723,604.6212172769992,None,604.6212172769992,None,604.6212172769992,None,606.1048723079984,None,606.1048723079984,None,606.1048723079984,None,606.1048723079984,None,,,,,,,,,,,,,,,,,,,,,,,,,,,,,,,,,,,,,,,,,,,,001,72,2020_Feb_04_1554,spring_faces,3.1.5,60.059762828109676,
condition files/Stage1_2.xlsx,,T4,B4,m,"['c', 'm']","['Clue', 'Monopoly']","[-0.15, 0.5]","[0.15, 0.5]",1,1,,,,,,,,,0,7,7,7,0,5,5,7,,,,,,,,,,,,,,,,,,,,,,,,,,,,,,,,,,,,,,,,,,,,,,,,,,,,,,,608.0706666410006,None,608.0706666410006,None,608.0706666410006,None,m,1,1.414483181997639,609.6211923789997,None,609.6211923789997,None,609.6211923789997,None,611.087810478999,None,611.087810478999,None,611.087810478999,None,611.087810478999,None,,,,,,,,,,,,,,,,,,,,,,,,,,,,,,,,,,,,,,,,,,,,001,72,2020_Feb_04_1554,spring_faces,3.1.5,60.059762828109676,
condition files/Stage1_2.xlsx,,T2,B1,c,"['c', 'm']","['Clue', 'Monopoly']","[-0.15, 0.5]","[0.15, 0.5]",1,1,,,,,,,,,0,7,7,7,0,6,6,1,,,,,,,,,,,,,,,,,,,,,,,,,,,,,,,,,,,,,,,,,,,,,,,,,,,,,,,613.0543005309992,None,613.0543005309992,None,613.0543005309992,None,m,0,1.2951201329997275,614.5885606449992,None,614.5885606449992,None,614.5885606449992,None,615.9539228520007,None,615.9539228520007,None,615.9539228520007,None,615.9539228520007,None,,,,,,,,,,,,,,,,,,,,,,,,,,,,,,,,,,,,,,,,,,,,001,72,2020_Feb_04_1554,spring_faces,3.1.5,60.059762828109676,
condition files/Stage1_2.xlsx,,B1,T1,c,"['c', 'm']","['Clue', 'Monopoly']","[-0.15, 0.5]","[0.15, 0.5]",1,1,,,,,,,,,0,7,7,7,0,7,7,0,,,,,,,,,,,,,,,,,,,,,,,,,,,,,,,,,,,,,,,,,,,,,,,,,,,,,,,617.9048095849976,None,617.9048095849976,None,617.9048095849976,None,c,1,2.2691216800012626,619.4545555779987,None,619.4545555779987,None,619.4545555779987,None,621.7876121679983,None,621.7876121679983,None,621.7876121679983,None,621.7876121679983,None,,,,,,,,,,,,,,,,,,,,,,,,,,,,,,,,,,,,,,,,,,,,001,72,2020_Feb_04_1554,spring_faces,3.1.5,60.059762828109676,
condition files/Stage1_1.xlsx,,T3,B4,c,"['c', 'm']","['Clue', 'Monopoly']","[-0.15, 0.5]","[0.15, 0.5]",1,1,,,,,,,,,0,8,8,8,0,0,0,5,,,,,,,,,,,,,,,,,,,,,,,,,,,,,,,,,,,,,,,,,,,,,,,,,,,,,,,623.7714123529986,None,623.7714123529986,None,623.7714123529986,None,c,1,0.9305558129999554,625.3211134800003,None,625.3211134800003,None,625.3211134800003,None,626.3048450040005,None,626.3048450040005,None,626.3048450040005,None,626.3048450040005,None,,,,,,,,,,,,,,,,,,,,,,,,,,,,,,,,,,,,,,,,,,,,001,72,2020_Feb_04_1554,spring_faces,3.1.5,60.059762828109676,
condition files/Stage1_1.xlsx,,B3,T3,c,"['c', 'm']","['Clue', 'Monopoly']","[-0.15, 0.5]","[0.15, 0.5]",1,1,,,,,,,,,0,8,8,8,0,1,1,4,,,,,,,,,,,,,,,,,,,,,,,,,,,,,,,,,,,,,,,,,,,,,,,,,,,,,,,628.2709473719988,None,628.2709473719988,None,628.2709473719988,None,c,1,1.1358670620029443,629.8038085980006,None,629.8038085980006,None,629.8038085980006,None,631.0038452259978,None,631.0038452259978,None,631.0038452259978,None,631.0038452259978,None,,,,,,,,,,,,,,,,,,,,,,,,,,,,,,,,,,,,,,,,,,,,001,72,2020_Feb_04_1554,spring_faces,3.1.5,60.059762828109676,
condition files/Stage1_1.xlsx,,B4,T4,m,"['c', 'm']","['Clue', 'Monopoly']","[-0.15, 0.5]","[0.15, 0.5]",1,1,,,,,,,,,0,8,8,8,0,2,2,7,,,,,,,,,,,,,,,,,,,,,,,,,,,,,,,,,,,,,,,,,,,,,,,,,,,,,,,632.9707963449982,None,632.9707963449982,None,632.9707963449982,None,c,0,1.3465466400011792,634.5211663679984,None,634.5211663679984,None,634.5211663679984,None,635.9238320570003,None,635.9238320570003,None,635.9238320570003,None,635.9238320570003,None,,,,,,,,,,,,,,,,,,,,,,,,,,,,,,,,,,,,,,,,,,,,001,72,2020_Feb_04_1554,spring_faces,3.1.5,60.059762828109676,
condition files/Stage1_1.xlsx,,B2,T1,m,"['c', 'm']","['Clue', 'Monopoly']","[-0.15, 0.5]","[0.15, 0.5]",1,1,,,,,,,,,0,8,8,8,0,3,3,2,,,,,,,,,,,,,,,,,,,,,,,,,,,,,,,,,,,,,,,,,,,,,,,,,,,,,,,637.8875971119996,None,637.8875971119996,None,637.8875971119996,None,m,1,1.420415503998811,639.4232965240008,None,639.4232965240008,None,639.4232965240008,None,640.9043712130006,None,640.9043712130006,None,640.9043712130006,None,640.9043712130006,None,,,,,,,,,,,,,,,,,,,,,,,,,,,,,,,,,,,,,,,,,,,,001,72,2020_Feb_04_1554,spring_faces,3.1.5,60.059762828109676,
condition files/Stage1_1.xlsx,,B1,T2,c,"['c', 'm']","['Clue', 'Monopoly']","[-0.15, 0.5]","[0.15, 0.5]",1,1,,,,,,,,,0,8,8,8,0,4,4,1,,,,,,,,,,,,,,,,,,,,,,,,,,,,,,,,,,,,,,,,,,,,,,,,,,,,,,,642.8707062979993,None,642.8707062979993,None,642.8707062979993,None,c,1,0.9825032640001155,644.4212004729998,None,644.4212004729998,None,644.4212004729998,None,645.471329947999,None,645.471329947999,None,645.471329947999,None,645.471329947999,None,,,,,,,,,,,,,,,,,,,,,,,,,,,,,,,,,,,,,,,,,,,,001,72,2020_Feb_04_1554,spring_faces,3.1.5,60.059762828109676,
condition files/Stage1_1.xlsx,,T4,B3,m,"['c', 'm']","['Clue', 'Monopoly']","[-0.15, 0.5]","[0.15, 0.5]",1,1,,,,,,,,,0,8,8,8,0,5,5,6,,,,,,,,,,,,,,,,,,,,,,,,,,,,,,,,,,,,,,,,,,,,,,,,,,,,,,,647.4209005970006,None,647.4209005970006,None,647.4209005970006,None,c,0,0.7532180679991143,648.9704703089992,None,648.9704703089992,None,648.9704703089992,None,649.7883116859994,None,649.7883116859994,None,649.7883116859994,None,649.7883116859994,None,,,,,,,,,,,,,,,,,,,,,,,,,,,,,,,,,,,,,,,,,,,,001,72,2020_Feb_04_1554,spring_faces,3.1.5,60.059762828109676,
condition files/Stage1_1.xlsx,,T2,B2,m,"['c', 'm']","['Clue', 'Monopoly']","[-0.15, 0.5]","[0.15, 0.5]",1,1,,,,,,,,,0,8,8,8,0,6,6,3,,,,,,,,,,,,,,,,,,,,,,,,,,,,,,,,,,,,,,,,,,,,,,,,,,,,,,,651.7540673359981,None,651.7540673359981,None,651.7540673359981,None,m,1,0.9480779339974106,653.2876140099979,None,653.2876140099979,None,653.2876140099979,None,654.2891543629994,None,654.2891543629994,None,654.2891543629994,None,654.2891543629994,None,,,,,,,,,,,,,,,,,,,,,,,,,,,,,,,,,,,,,,,,,,,,001,72,2020_Feb_04_1554,spring_faces,3.1.5,60.059762828109676,
condition files/Stage1_1.xlsx,,T1,B1,c,"['c', 'm']","['Clue', 'Monopoly']","[-0.15, 0.5]","[0.15, 0.5]",1,1,,,,,,,,,0,8,8,8,0,7,7,0,,,,,,,,,,,,,,,,,,,,,,,,,,,,,,,,,,,,,,,,,,,,,,,,,,,,,,,656.2539408880002,None,656.2539408880002,None,656.2539408880002,None,c,1,1.1350013529990974,657.8046531129985,None,657.8046531129985,None,657.8046531129985,None,659.0066691659995,None,659.0066691659995,None,659.0066691659995,None,659.0066691659995,None,,,,,,,,,,,,,,,,,,,,,,,,,,,,,,,,,,,,,,,,,,,,001,72,2020_Feb_04_1554,spring_faces,3.1.5,60.059762828109676,
condition files/Stage1_2.xlsx,,B2,T2,m,"['c', 'm']","['Clue', 'Monopoly']","[-0.15, 0.5]","[0.15, 0.5]",1,1,,,,,,,,,0,9,9,9,0,0,0,3,,,,,,,,,,,,,,,,,,,,,,,,,,,,,,,,,,,,,,,,,,,,,,,,,,,,,,,660.9877411220004,None,660.9877411220004,None,660.9877411220004,None,m,1,1.1543903300007514,662.5373183640004,None,662.5373183640004,None,662.5373183640004,None,663.7715782779997,None,663.7715782779997,None,663.7715782779997,None,663.7715782779997,None,,,,,,,,,,,,,,,,,,,,,,,,,,,,,,,,,,,,,,,,,,,,001,72,2020_Feb_04_1554,spring_faces,3.1.5,60.059762828109676,
condition files/Stage1_2.xlsx,,B1,T1,c,"['c', 'm']","['Clue', 'Monopoly']","[-0.15, 0.5]","[0.15, 0.5]",1,1,,,,,,,,,0,9,9,9,0,1,1,0,,,,,,,,,,,,,,,,,,,,,,,,,,,,,,,,,,,,,,,,,,,,,,,,,,,,,,,665.721086988,None,665.721086988,None,665.721086988,None,c,1,1.4587022689993319,667.2569446259986,None,667.2569446259986,None,667.2569446259986,None,668.78721047,None,668.78721047,None,668.78721047,None,668.78721047,None,,,,,,,,,,,,,,,,,,,,,,,,,,,,,,,,,,,,,,,,,,,,001,72,2020_Feb_04_1554,spring_faces,3.1.5,60.059762828109676,
condition files/Stage1_2.xlsx,,T4,B4,m,"['c', 'm']","['Clue', 'Monopoly']","[-0.15, 0.5]","[0.15, 0.5]",1,1,,,,,,,,,0,9,9,9,0,2,2,7,,,,,,,,,,,,,,,,,,,,,,,,,,,,,,,,,,,,,,,,,,,,,,,,,,,,,,,670.7374617889982,None,670.7374617889982,None,670.7374617889982,None,m,1,1.0029901880006946,672.2727407309976,None,672.2727407309976,None,672.2727407309976,None,673.3545928460007,None,673.3545928460007,None,673.3545928460007,None,673.3545928460007,None,,,,,,,,,,,,,,,,,,,,,,,,,,,,,,,,,,,,,,,,,,,,001,72,2020_Feb_04_1554,spring_faces,3.1.5,60.059762828109676,
condition files/Stage1_2.xlsx,,T1,B2,m,"['c', 'm']","['Clue', 'Monopoly']","[-0.15, 0.5]","[0.15, 0.5]",1,1,,,,,,,,,0,9,9,9,0,3,3,2,,,,,,,,,,,,,,,,,,,,,,,,,,,,,,,,,,,,,,,,,,,,,,,,,,,,,,,675.3040722660007,None,675.3040722660007,None,675.3040722660007,None,m,1,1.381136460997368,676.8545516390004,None,676.8545516390004,None,676.8545516390004,None,678.2872813629983,None,678.2872813629983,None,678.2872813629983,None,678.2872813629983,None,,,,,,,,,,,,,,,,,,,,,,,,,,,,,,,,,,,,,,,,,,,,001,72,2020_Feb_04_1554,spring_faces,3.1.5,60.059762828109676,
condition files/Stage1_2.xlsx,,T2,B1,c,"['c', 'm']","['Clue', 'Monopoly']","[-0.15, 0.5]","[0.15, 0.5]",1,1,,,,,,,,,0,9,9,9,0,4,4,1,,,,,,,,,,,,,,,,,,,,,,,,,,,,,,,,,,,,,,,,,,,,,,,,,,,,,,,680.2542734989984,None,680.2542734989984,None,680.2542734989984,None,c,1,0.9273687200002314,681.8043469209988,None,681.8043469209988,None,681.8043469209988,None,682.8044596020009,None,682.8044596020009,None,682.8044596020009,None,682.8044596020009,None,,,,,,,,,,,,,,,,,,,,,,,,,,,,,,,,,,,,,,,,,,,,001,72,2020_Feb_04_1554,spring_faces,3.1.5,60.059762828109676,
condition files/Stage1_2.xlsx,,B3,T4,m,"['c', 'm']","['Clue', 'Monopoly']","[-0.15, 0.5]","[0.15, 0.5]",1,1,,,,,,,,,0,9,9,9,0,5,5,6,,,,,,,,,,,,,,,,,,,,,,,,,,,,,,,,,,,,,,,,,,,,,,,,,,,,,,,684.7540384870008,None,684.7540384870008,None,684.7540384870008,None,m,1,1.1955207310020342,686.2881568439989,None,686.2881568439989,None,686.2881568439989,None,687.5538764779994,None,687.5538764779994,None,687.5538764779994,None,687.5538764779994,None,,,,,,,,,,,,,,,,,,,,,,,,,,,,,,,,,,,,,,,,,,,,001,72,2020_Feb_04_1554,spring_faces,3.1.5,60.059762828109676,
condition files/Stage1_2.xlsx,,T3,B3,c,"['c', 'm']","['Clue', 'Monopoly']","[-0.15, 0.5]","[0.15, 0.5]",1,1,,,,,,,,,0,9,9,9,0,6,6,4,,,,,,,,,,,,,,,,,,,,,,,,,,,,,,,,,,,,,,,,,,,,,,,,,,,,,,,689.504037112998,None,689.504037112998,None,689.504037112998,None,c,1,1.0063010999983817,691.0374292870001,None,691.0374292870001,None,691.0374292870001,None,692.1214259659973,None,692.1214259659973,None,692.1214259659973,None,692.1214259659973,None,,,,,,,,,,,,,,,,,,,,,,,,,,,,,,,,,,,,,,,,,,,,001,72,2020_Feb_04_1554,spring_faces,3.1.5,60.059762828109676,
condition files/Stage1_2.xlsx,,B4,T3,c,"['c', 'm']","['Clue', 'Monopoly']","[-0.15, 0.5]","[0.15, 0.5]",1,1,,,,,,,,,0,9,9,9,0,7,7,5,,,,,,,,,,,,,,,,,,,,,,,,,,,,,,,,,,,,,,,,,,,,,,,,,,,,,,,694.0710834029996,None,694.0710834029996,None,694.0710834029996,None,c,1,0.9825323389995901,695.6051679739976,None,695.6051679739976,None,695.6051679739976,None,696.637778106,None,696.637778106,None,696.637778106,None,696.637778106,None,,,,,,,,,,,,,,,,,,,,,,,,,,,,,,,,,,,,,,,,,,,,001,72,2020_Feb_04_1554,spring_faces,3.1.5,60.059762828109676,
condition files/Stage1_1.xlsx,,T1,B1,c,"['c', 'm']","['Clue', 'Monopoly']","[-0.15, 0.5]","[0.15, 0.5]",1,1,,,,,,,,,0,10,10,10,0,0,0,0,,,,,,,,,,,,,,,,,,,,,,,,,,,,,,,,,,,,,,,,,,,,,,,,,,,,,,,698.6209966629976,None,698.6209966629976,None,698.6209966629976,None,c,1,1.520558815998811,700.1551609339986,None,700.1551609339986,None,700.1551609339986,None,701.7376383659976,None,701.7376383659976,None,701.7376383659976,None,701.7376383659976,None,,,,,,,,,,,,,,,,,,,,,,,,,,,,,,,,,,,,,,,,,,,,001,72,2020_Feb_04_1554,spring_faces,3.1.5,60.059762828109676,
condition files/Stage1_1.xlsx,,B4,T4,m,"['c', 'm']","['Clue', 'Monopoly']","[-0.15, 0.5]","[0.15, 0.5]",1,1,,,,,,,,,0,10,10,10,0,1,1,7,,,,,,,,,,,,,,,,,,,,,,,,,,,,,,,,,,,,,,,,,,,,,,,,,,,,,,,703.7043303449973,None,703.7043303449973,None,703.7043303449973,None,m,1,1.0926549899995734,705.2390914619973,None,705.2390914619973,None,705.2390914619973,None,706.4042851749982,None,706.4042851749982,None,706.4042851749982,None,706.4042851749982,None,,,,,,,,,,,,,,,,,,,,,,,,,,,,,,,,,,,,,,,,,,,,001,72,2020_Feb_04_1554,spring_faces,3.1.5,60.059762828109676,
condition files/Stage1_1.xlsx,,T4,B3,m,"['c', 'm']","['Clue', 'Monopoly']","[-0.15, 0.5]","[0.15, 0.5]",1,1,,,,,,,,,0,10,10,10,0,2,2,6,,,,,,,,,,,,,,,,,,,,,,,,,,,,,,,,,,,,,,,,,,,,,,,,,,,,,,,708.353641013,None,708.353641013,None,708.353641013,None,m,1,1.003522442002577,709.9041842089973,None,709.9041842089973,None,709.9041842089973,None,710.971224085999,None,710.971224085999,None,710.971224085999,None,710.971224085999,None,,,,,,,,,,,,,,,,,,,,,,,,,,,,,,,,,,,,,,,,,,,,001,72,2020_Feb_04_1554,spring_faces,3.1.5,60.059762828109676,
condition files/Stage1_1.xlsx,,T3,B4,c,"['c', 'm']","['Clue', 'Monopoly']","[-0.15, 0.5]","[0.15, 0.5]",1,1,,,,,,,,,0,10,10,10,0,3,3,5,,,,,,,,,,,,,,,,,,,,,,,,,,,,,,,,,,,,,,,,,,,,,,,,,,,,,,,712.9377398729994,None,712.9377398729994,None,712.9377398729994,None,c,1,0.8038681319994794,714.4878079310001,None,714.4878079310001,None,714.4878079310001,None,715.3706771750003,None,715.3706771750003,None,715.3706771750003,None,715.3706771750003,None,,,,,,,,,,,,,,,,,,,,,,,,,,,,,,,,,,,,,,,,,,,,001,72,2020_Feb_04_1554,spring_faces,3.1.5,60.059762828109676,
condition files/Stage1_1.xlsx,,B2,T1,m,"['c', 'm']","['Clue', 'Monopoly']","[-0.15, 0.5]","[0.15, 0.5]",1,1,,,,,,,,,0,10,10,10,0,4,4,2,,,,,,,,,,,,,,,,,,,,,,,,,,,,,,,,,,,,,,,,,,,,,,,,,,,,,,,717.3202913969981,None,717.3202913969981,None,717.3202913969981,None,m,1,1.29983772900232,718.855776245,None,718.855776245,None,718.855776245,None,720.2378982640003,None,720.2378982640003,None,720.2378982640003,None,720.2378982640003,None,,,,,,,,,,,,,,,,,,,,,,,,,,,,,,,,,,,,,,,,,,,,001,72,2020_Feb_04_1554,spring_faces,3.1.5,60.059762828109676,
condition files/Stage1_1.xlsx,,B1,T2,c,"['c', 'm']","['Clue', 'Monopoly']","[-0.15, 0.5]","[0.15, 0.5]",1,1,,,,,,,,,0,10,10,10,0,5,5,1,,,,,,,,,,,,,,,,,,,,,,,,,,,,,,,,,,,,,,,,,,,,,,,,,,,,,,,722.1873631089984,None,722.1873631089984,None,722.1873631089984,None,c,1,1.3943190520003554,723.7374160859981,None,723.7374160859981,None,723.7374160859981,None,725.2044734539995,None,725.2044734539995,None,725.2044734539995,None,725.2044734539995,None,,,,,,,,,,,,,,,,,,,,,,,,,,,,,,,,,,,,,,,,,,,,001,72,2020_Feb_04_1554,spring_faces,3.1.5,60.059762828109676,
condition files/Stage1_1.xlsx,,T2,B2,m,"['c', 'm']","['Clue', 'Monopoly']","[-0.15, 0.5]","[0.15, 0.5]",1,1,,,,,,,,,0,10,10,10,0,6,6,3,,,,,,,,,,,,,,,,,,,,,,,,,,,,,,,,,,,,,,,,,,,,,,,,,,,,,,,727.1535669939985,None,727.1535669939985,None,727.1535669939985,None,m,1,0.8438563950003299,728.7038563360002,None,728.7038563360002,None,728.7038563360002,None,729.6213872189983,None,729.6213872189983,None,729.6213872189983,None,729.6213872189983,None,,,,,,,,,,,,,,,,,,,,,,,,,,,,,,,,,,,,,,,,,,,,001,72,2020_Feb_04_1554,spring_faces,3.1.5,60.059762828109676,
condition files/Stage1_1.xlsx,,B3,T3,c,"['c', 'm']","['Clue', 'Monopoly']","[-0.15, 0.5]","[0.15, 0.5]",1,1,,,,,,,,,0,10,10,10,0,7,7,4,,,,,,,,,,,,,,,,,,,,,,,,,,,,,,,,,,,,,,,,,,,,,,,,,,,,,,,731.5711149249983,None,731.5711149249983,None,731.5711149249983,None,c,1,1.0834486499988998,733.1042763289988,None,733.1042763289988,None,733.1042763289988,None,734.2545781009976,None,734.2545781009976,None,734.2545781009976,None,734.2545781009976,None,,,,,,,,,,,,,,,,,,,,,,,,,,,,,,,,,,,,,,,,,,,,001,72,2020_Feb_04_1554,spring_faces,3.1.5,60.059762828109676,
condition files/Stage1_2.xlsx,,T2,B1,c,"['c', 'm']","['Clue', 'Monopoly']","[-0.15, 0.5]","[0.15, 0.5]",1,1,,,,,,,,,0,11,11,11,0,0,0,1,,,,,,,,,,,,,,,,,,,,,,,,,,,,,,,,,,,,,,,,,,,,,,,,,,,,,,,736.2209396959988,None,736.2209396959988,None,736.2209396959988,None,c,1,1.2322931170019729,737.7714244529998,None,737.7714244529998,None,737.7714244529998,None,739.054812585,None,739.054812585,None,739.054812585,None,739.054812585,None,,,,,,,,,,,,,,,,,,,,,,,,,,,,,,,,,,,,,,,,,,,,001,72,2020_Feb_04_1554,spring_faces,3.1.5,60.059762828109676,
condition files/Stage1_2.xlsx,,T3,B3,c,"['c', 'm']","['Clue', 'Monopoly']","[-0.15, 0.5]","[0.15, 0.5]",1,1,,,,,,,,,0,11,11,11,0,1,1,4,,,,,,,,,,,,,,,,,,,,,,,,,,,,,,,,,,,,,,,,,,,,,,,,,,,,,,,741.0208957449977,None,741.0208957449977,None,741.0208957449977,None,c,1,1.3748868849979772,742.5568438080008,None,742.5568438080008,None,742.5568438080008,None,743.9873458820002,None,743.9873458820002,None,743.9873458820002,None,743.9873458820002,None,,,,,,,,,,,,,,,,,,,,,,,,,,,,,,,,,,,,,,,,,,,,001,72,2020_Feb_04_1554,spring_faces,3.1.5,60.059762828109676,
condition files/Stage1_2.xlsx,,T4,B4,m,"['c', 'm']","['Clue', 'Monopoly']","[-0.15, 0.5]","[0.15, 0.5]",1,1,,,,,,,,,0,11,11,11,0,2,2,7,,,,,,,,,,,,,,,,,,,,,,,,,,,,,,,,,,,,,,,,,,,,,,,,,,,,,,,745.9536506689983,None,745.9536506689983,None,745.9536506689983,None,m,1,0.969977912001923,747.4897307319989,None,747.4897307319989,None,747.4897307319989,None,748.523362852,None,748.523362852,None,748.523362852,None,748.523362852,None,,,,,,,,,,,,,,,,,,,,,,,,,,,,,,,,,,,,,,,,,,,,001,72,2020_Feb_04_1554,spring_faces,3.1.5,60.059762828109676,
condition files/Stage1_2.xlsx,,B3,T4,m,"['c', 'm']","['Clue', 'Monopoly']","[-0.15, 0.5]","[0.15, 0.5]",1,1,,,,,,,,,0,11,11,11,0,3,3,6,,,,,,,,,,,,,,,,,,,,,,,,,,,,,,,,,,,,,,,,,,,,,,,,,,,,,,,750.4875354110009,None,750.4875354110009,None,750.4875354110009,None,m,1,0.8227561769999738,752.0209022380004,None,752.0209022380004,None,752.0209022380004,None,752.9041721309986,None,752.9041721309986,None,752.9041721309986,None,752.9041721309986,None,,,,,,,,,,,,,,,,,,,,,,,,,,,,,,,,,,,,,,,,,,,,001,72,2020_Feb_04_1554,spring_faces,3.1.5,60.059762828109676,
condition files/Stage1_2.xlsx,,B4,T3,c,"['c', 'm']","['Clue', 'Monopoly']","[-0.15, 0.5]","[0.15, 0.5]",1,1,,,,,,,,,0,11,11,11,0,4,4,5,,,,,,,,,,,,,,,,,,,,,,,,,,,,,,,,,,,,,,,,,,,,,,,,,,,,,,,754.8711921959984,None,754.8711921959984,None,754.8711921959984,None,c,1,0.8543823780019011,756.4053358889978,None,756.4053358889978,None,756.4053358889978,None,757.3378267469998,None,757.3378267469998,None,757.3378267469998,None,757.3378267469998,None,,,,,,,,,,,,,,,,,,,,,,,,,,,,,,,,,,,,,,,,,,,,001,72,2020_Feb_04_1554,spring_faces,3.1.5,60.059762828109676,
condition files/Stage1_2.xlsx,,T1,B2,m,"['c', 'm']","['Clue', 'Monopoly']","[-0.15, 0.5]","[0.15, 0.5]",1,1,,,,,,,,,0,11,11,11,0,5,5,2,,,,,,,,,,,,,,,,,,,,,,,,,,,,,,,,,,,,,,,,,,,,,,,,,,,,,,,759.2876727410003,None,759.2876727410003,None,759.2876727410003,None,m,1,0.7900644990004366,760.8376100739988,None,760.8376100739988,None,760.8376100739988,None,761.704984639,None,761.704984639,None,761.704984639,None,761.704984639,None,,,,,,,,,,,,,,,,,,,,,,,,,,,,,,,,,,,,,,,,,,,,001,72,2020_Feb_04_1554,spring_faces,3.1.5,60.059762828109676,
condition files/Stage1_2.xlsx,,B2,T2,m,"['c', 'm']","['Clue', 'Monopoly']","[-0.15, 0.5]","[0.15, 0.5]",1,1,,,,,,,,,0,11,11,11,0,6,6,3,,,,,,,,,,,,,,,,,,,,,,,,,,,,,,,,,,,,,,,,,,,,,,,,,,,,,,,763.6542144939995,None,763.6542144939995,None,763.6542144939995,None,m,1,0.9342459719991894,765.1894488350008,None,765.1894488350008,None,765.1894488350008,None,766.1876568909975,None,766.1876568909975,None,766.1876568909975,None,766.1876568909975,None,,,,,,,,,,,,,,,,,,,,,,,,,,,,,,,,,,,,,,,,,,,,001,72,2020_Feb_04_1554,spring_faces,3.1.5,60.059762828109676,
condition files/Stage1_2.xlsx,,B1,T1,c,"['c', 'm']","['Clue', 'Monopoly']","[-0.15, 0.5]","[0.15, 0.5]",1,1,,,,,,,,,0,11,11,11,0,7,7,0,,,,,,,,,,,,,,,,,,,,,,,,,,,,,,,,,,,,,,,,,,,,,,,,,,,,,,,768.1542862319984,None,768.1542862319984,None,768.1542862319984,None,c,1,0.8035978510015411,769.7040997529984,None,769.7040997529984,None,769.7040997529984,None,770.5879783749988,None,770.5879783749988,None,770.5879783749988,None,770.5879783749988,None,,,,,,,,,,,,,,,,,,,,,,,,,,,,,,,,,,,,,,,,,,,,001,72,2020_Feb_04_1554,spring_faces,3.1.5,60.059762828109676,
,,,,,,,,,,,,,,,,,,,,,,,,,,,,,,,,,,,,,,,,,,,,,,,,,,,,,,,,,,,,,,,,,,,,,,,,,,,,,,,,,,,,,,,,,,,,,,,,,,,,,,,,,,,,,,,,772.554796389999,None,space,6.617284013998869,777.5543511319993,None,,,,,,,,,,,,,,,,,,,,,,,,,,,,,,001,72,2020_Feb_04_1554,spring_faces,3.1.5,60.059762828109676,
condition files/Stage2_1.xlsx,,B6,T6,r,"['s', 'r']","['Stratego', 'Risk']","[-0.15, 0.5]","[0.15, 0.5]",1,1,,,,,,,,,,,,,,,,,0,0,0,0,0,0,0,1,,,,,,,,,,,,,,,,,,,,,,,,,,,,,,,,,,,,,,,,,,,,,,,784.2380955289991,None,784.2380955289991,None,784.2380955289991,None,r,1,1.072681580997596,785.7710065360006,None,785.7710065360006,None,785.7710065360006,None,786.9063390329975,None,786.9063390329975,None,786.9063390329975,None,786.9063390329975,None,,,,,,,,,,,,,,,777.5543511319993,None,,,,,,,,,,,,,,,,,,,,,,,,,,,,001,72,2020_Feb_04_1554,spring_faces,3.1.5,60.059762828109676,
condition files/Stage2_1.xlsx,,B4,T4,r,"['s', 'r']","['Stratego', 'Risk']","[-0.15, 0.5]","[0.15, 0.5]",1,1,,,,,,,,,,,,,,,,,0,0,0,0,0,1,1,5,,,,,,,,,,,,,,,,,,,,,,,,,,,,,,,,,,,,,,,,,,,,,,,788.8709180369988,None,788.8709180369988,None,788.8709180369988,None,s,0,0.8069585150005878,790.4207783710008,None,790.4207783710008,None,790.4207783710008,None,791.2878224220003,None,791.2878224220003,None,791.2878224220003,None,791.2878224220003,None,,,,,,,,,,,,,,,,,,,,,,,,,,,,,,,,,,,,,,,,,,,,001,72,2020_Feb_04_1554,spring_faces,3.1.5,60.059762828109676,
condition files/Stage2_1.xlsx,,T5,B5,s,"['s', 'r']","['Stratego', 'Risk']","[-0.15, 0.5]","[0.15, 0.5]",1,1,,,,,,,,,,,,,,,,,0,0,0,0,0,2,2,0,,,,,,,,,,,,,,,,,,,,,,,,,,,,,,,,,,,,,,,,,,,,,,,793.2542653950004,None,793.2542653950004,None,793.2542653950004,None,s,1,0.7592416930019681,794.7884889069974,None,794.7884889069974,None,794.7884889069974,None,795.6211866329977,None,795.6211866329977,None,795.6211866329977,None,795.6211866329977,None,,,,,,,,,,,,,,,,,,,,,,,,,,,,,,,,,,,,,,,,,,,,001,72,2020_Feb_04_1554,spring_faces,3.1.5,60.059762828109676,
condition files/Stage2_1.xlsx,,T1,B1,s,"['s', 'r']","['Stratego', 'Risk']","[-0.15, 0.5]","[0.15, 0.5]",1,1,,,,,,,,,,,,,,,,,0,0,0,0,0,3,3,2,,,,,,,,,,,,,,,,,,,,,,,,,,,,,,,,,,,,,,,,,,,,,,,797.5711836759983,None,797.5711836759983,None,797.5711836759983,None,r,0,0.7783829059990239,799.1053124789978,None,799.1053124789978,None,799.1053124789978,None,799.9374674379978,None,799.9374674379978,None,799.9374674379978,None,799.9374674379978,None,,,,,,,,,,,,,,,,,,,,,,,,,,,,,,,,,,,,,,,,,,,,001,72,2020_Feb_04_1554,spring_faces,3.1.5,60.059762828109676,
condition files/Stage2_1.xlsx,,B2,T2,r,"['s', 'r']","['Stratego', 'Risk']","[-0.15, 0.5]","[0.15, 0.5]",1,1,,,,,,,,,,,,,,,,,0,0,0,0,0,4,4,3,,,,,,,,,,,,,,,,,,,,,,,,,,,,,,,,,,,,,,,,,,,,,,,801.904369541,None,801.904369541,None,801.904369541,None,s,0,1.0363270390007528,803.4393817689997,None,803.4393817689997,None,803.4393817689997,None,804.5395256049997,None,804.5395256049997,None,804.5395256049997,None,804.5395256049997,None,,,,,,,,,,,,,,,,,,,,,,,,,,,,,,,,,,,,,,,,,,,,001,72,2020_Feb_04_1554,spring_faces,3.1.5,60.059762828109676,
condition files/Stage2_1.xlsx,,T3,B3,s,"['s', 'r']","['Stratego', 'Risk']","[-0.15, 0.5]","[0.15, 0.5]",1,1,,,,,,,,,,,,,,,,,0,0,0,0,0,5,5,4,,,,,,,,,,,,,,,,,,,,,,,,,,,,,,,,,,,,,,,,,,,,,,,806.5042820109993,None,806.5042820109993,None,806.5042820109993,None,s,1,1.6379423100006534,808.037778984999,None,808.037778984999,None,808.037778984999,None,809.7545015949981,None,809.7545015949981,None,809.7545015949981,None,809.7545015949981,None,,,,,,,,,,,,,,,,,,,,,,,,,,,,,,,,,,,,,,,,,,,,001,72,2020_Feb_04_1554,spring_faces,3.1.5,60.059762828109676,
condition files/Stage2_2.xlsx,,B3,T3,s,"['s', 'r']","['Stratego', 'Risk']","[-0.15, 0.5]","[0.15, 0.5]",1,1,,,,,,,,,,,,,,,,,0,1,1,1,0,0,0,4,,,,,,,,,,,,,,,,,,,,,,,,,,,,,,,,,,,,,,,,,,,,,,,811.7208894030009,None,811.7208894030009,None,811.7208894030009,None,s,1,1.55736148899814,813.2543955849978,None,813.2543955849978,None,813.2543955849978,None,814.8711957429987,None,814.8711957429987,None,814.8711957429987,None,814.8711957429987,None,,,,,,,,,,,,,,,,,,,,,,,,,,,,,,,,,,,,,,,,,,,,001,72,2020_Feb_04_1554,spring_faces,3.1.5,60.059762828109676,
condition files/Stage2_2.xlsx,,T2,B2,r,"['s', 'r']","['Stratego', 'Risk']","[-0.15, 0.5]","[0.15, 0.5]",1,1,,,,,,,,,,,,,,,,,0,1,1,1,0,1,1,3,,,,,,,,,,,,,,,,,,,,,,,,,,,,,,,,,,,,,,,,,,,,,,,816.8370585970006,None,816.8370585970006,None,816.8370585970006,None,r,1,0.6157223820009676,818.3719487550006,None,818.3719487550006,None,818.3719487550006,None,819.0396290829995,None,819.0396290829995,None,819.0396290829995,None,819.0396290829995,None,,,,,,,,,,,,,,,,,,,,,,,,,,,,,,,,,,,,,,,,,,,,001,72,2020_Feb_04_1554,spring_faces,3.1.5,60.059762828109676,
condition files/Stage2_2.xlsx,,B1,T1,s,"['s', 'r']","['Stratego', 'Risk']","[-0.15, 0.5]","[0.15, 0.5]",1,1,,,,,,,,,,,,,,,,,0,1,1,1,0,2,2,2,,,,,,,,,,,,,,,,,,,,,,,,,,,,,,,,,,,,,,,,,,,,,,,821.0042432109985,None,821.0042432109985,None,821.0042432109985,None,s,1,0.7678107359970454,822.5399076479989,None,822.5399076479989,None,822.5399076479989,None,823.3726915570005,None,823.3726915570005,None,823.3726915570005,None,823.3726915570005,None,,,,,,,,,,,,,,,,,,,,,,,,,,,,,,,,,,,,,,,,,,,,001,72,2020_Feb_04_1554,spring_faces,3.1.5,60.059762828109676,
condition files/Stage2_2.xlsx,,T4,B4,r,"['s', 'r']","['Stratego', 'Risk']","[-0.15, 0.5]","[0.15, 0.5]",1,1,,,,,,,,,,,,,,,,,0,1,1,1,0,3,3,5,,,,,,,,,,,,,,,,,,,,,,,,,,,,,,,,,,,,,,,,,,,,,,,825.3374063779993,None,825.3374063779993,None,825.3374063779993,None,r,1,1.203902740002377,826.8878024609985,None,826.8878024609985,None,826.8878024609985,None,828.1565654939986,None,828.1565654939986,None,828.1565654939986,None,828.1565654939986,None,,,,,,,,,,,,,,,,,,,,,,,,,,,,,,,,,,,,,,,,,,,,001,72,2020_Feb_04_1554,spring_faces,3.1.5,60.059762828109676,
condition files/Stage2_2.xlsx,,B5,T5,s,"['s', 'r']","['Stratego', 'Risk']","[-0.15, 0.5]","[0.15, 0.5]",1,1,,,,,,,,,,,,,,,,,0,1,1,1,0,4,4,0,,,,,,,,,,,,,,,,,,,,,,,,,,,,,,,,,,,,,,,,,,,,,,,830.1208315219992,None,830.1208315219992,None,830.1208315219992,None,r,0,1.541581084999052,831.6541378500006,None,831.6541378500006,None,831.6541378500006,None,833.2563574519991,None,833.2563574519991,None,833.2563574519991,None,833.2563574519991,None,,,,,,,,,,,,,,,,,,,,,,,,,,,,,,,,,,,,,,,,,,,,001,72,2020_Feb_04_1554,spring_faces,3.1.5,60.059762828109676,
condition files/Stage2_2.xlsx,,T6,B6,r,"['s', 'r']","['Stratego', 'Risk']","[-0.15, 0.5]","[0.15, 0.5]",1,1,,,,,,,,,,,,,,,,,0,1,1,1,0,5,5,1,,,,,,,,,,,,,,,,,,,,,,,,,,,,,,,,,,,,,,,,,,,,,,,835.2206960639996,None,835.2206960639996,None,835.2206960639996,None,r,1,1.2406842679993133,836.7710574730008,None,836.7710574730008,None,836.7710574730008,None,838.0741128989976,None,838.0741128989976,None,838.0741128989976,None,838.0741128989976,None,,,,,,,,,,,,,,,,,,,,,,,,,,,,,,,,,,,,,,,,,,,,001,72,2020_Feb_04_1554,spring_faces,3.1.5,60.059762828109676,
condition files/Stage2_1.xlsx,,T5,B5,s,"['s', 'r']","['Stratego', 'Risk']","[-0.15, 0.5]","[0.15, 0.5]",1,1,,,,,,,,,,,,,,,,,0,2,2,2,0,0,0,0,,,,,,,,,,,,,,,,,,,,,,,,,,,,,,,,,,,,,,,,,,,,,,,840.0543214879981,None,840.0543214879981,None,840.0543214879981,None,s,1,0.9677844409998215,841.6038477340007,None,841.6038477340007,None,841.6038477340007,None,842.6548935249994,None,842.6548935249994,None,842.6548935249994,None,842.6548935249994,None,,,,,,,,,,,,,,,,,,,,,,,,,,,,,,,,,,,,,,,,,,,,001,72,2020_Feb_04_1554,spring_faces,3.1.5,60.059762828109676,
condition files/Stage2_1.xlsx,,B4,T4,r,"['s', 'r']","['Stratego', 'Risk']","[-0.15, 0.5]","[0.15, 0.5]",1,1,,,,,,,,,,,,,,,,,0,2,2,2,0,1,1,5,,,,,,,,,,,,,,,,,,,,,,,,,,,,,,,,,,,,,,,,,,,,,,,844.6044506559992,None,844.6044506559992,None,844.6044506559992,None,r,1,1.359638908998022,846.1400601349997,None,846.1400601349997,None,846.1400601349997,None,847.5711063029994,None,847.5711063029994,None,847.5711063029994,None,847.5711063029994,None,,,,,,,,,,,,,,,,,,,,,,,,,,,,,,,,,,,,,,,,,,,,001,72,2020_Feb_04_1554,spring_faces,3.1.5,60.059762828109676,
condition files/Stage2_1.xlsx,,T1,B1,s,"['s', 'r']","['Stratego', 'Risk']","[-0.15, 0.5]","[0.15, 0.5]",1,1,,,,,,,,,,,,,,,,,0,2,2,2,0,2,2,2,,,,,,,,,,,,,,,,,,,,,,,,,,,,,,,,,,,,,,,,,,,,,,,849.5202796049998,None,849.5202796049998,None,849.5202796049998,None,s,1,0.8447360720019788,851.0709281349991,None,851.0709281349991,None,851.0709281349991,None,851.9878964460004,None,851.9878964460004,None,851.9878964460004,None,851.9878964460004,None,,,,,,,,,,,,,,,,,,,,,,,,,,,,,,,,,,,,,,,,,,,,001,72,2020_Feb_04_1554,spring_faces,3.1.5,60.059762828109676,
condition files/Stage2_1.xlsx,,T3,B3,s,"['s', 'r']","['Stratego', 'Risk']","[-0.15, 0.5]","[0.15, 0.5]",1,1,,,,,,,,,,,,,,,,,0,2,2,2,0,3,3,4,,,,,,,,,,,,,,,,,,,,,,,,,,,,,,,,,,,,,,,,,,,,,,,853.9377330869975,None,853.9377330869975,None,853.9377330869975,None,s,1,0.8117294880030386,855.4879135320007,None,855.4879135320007,None,855.4879135320007,None,856.3543693009997,None,856.3543693009997,None,856.3543693009997,None,856.3543693009997,None,,,,,,,,,,,,,,,,,,,,,,,,,,,,,,,,,,,,,,,,,,,,001,72,2020_Feb_04_1554,spring_faces,3.1.5,60.059762828109676,
condition files/Stage2_1.xlsx,,B2,T2,r,"['s', 'r']","['Stratego', 'Risk']","[-0.15, 0.5]","[0.15, 0.5]",1,1,,,,,,,,,,,,,,,,,0,2,2,2,0,4,4,3,,,,,,,,,,,,,,,,,,,,,,,,,,,,,,,,,,,,,,,,,,,,,,,858.320359972,None,858.320359972,None,858.320359972,None,r,1,0.7644183449992852,859.8712605170003,None,859.8712605170003,None,859.8712605170003,None,860.6899042879995,None,860.6899042879995,None,860.6899042879995,None,860.6899042879995,None,,,,,,,,,,,,,,,,,,,,,,,,,,,,,,,,,,,,,,,,,,,,001,72,2020_Feb_04_1554,spring_faces,3.1.5,60.059762828109676,
condition files/Stage2_1.xlsx,,B6,T6,r,"['s', 'r']","['Stratego', 'Risk']","[-0.15, 0.5]","[0.15, 0.5]",1,1,,,,,,,,,,,,,,,,,0,2,2,2,0,5,5,1,,,,,,,,,,,,,,,,,,,,,,,,,,,,,,,,,,,,,,,,,,,,,,,862.6544289269987,None,862.6544289269987,None,862.6544289269987,None,r,1,0.9590658890010673,864.2047128129998,None,864.2047128129998,None,864.2047128129998,None,865.2209909369994,None,865.2209909369994,None,865.2209909369994,None,865.2209909369994,None,,,,,,,,,,,,,,,,,,,,,,,,,,,,,,,,,,,,,,,,,,,,001,72,2020_Feb_04_1554,spring_faces,3.1.5,60.059762828109676,
condition files/Stage2_2.xlsx,,T6,B6,r,"['s', 'r']","['Stratego', 'Risk']","[-0.15, 0.5]","[0.15, 0.5]",1,1,,,,,,,,,,,,,,,,,0,3,3,3,0,0,0,1,,,,,,,,,,,,,,,,,,,,,,,,,,,,,,,,,,,,,,,,,,,,,,,867.2043115889974,None,867.2043115889974,None,867.2043115889974,None,r,1,1.0492420900009165,868.7544759659977,None,868.7544759659977,None,868.7544759659977,None,869.8541066049984,None,869.8541066049984,None,869.8541066049984,None,869.8541066049984,None,,,,,,,,,,,,,,,,,,,,,,,,,,,,,,,,,,,,,,,,,,,,001,72,2020_Feb_04_1554,spring_faces,3.1.5,60.059762828109676,
condition files/Stage2_2.xlsx,,T4,B4,r,"['s', 'r']","['Stratego', 'Risk']","[-0.15, 0.5]","[0.15, 0.5]",1,1,,,,,,,,,,,,,,,,,0,3,3,3,0,1,1,5,,,,,,,,,,,,,,,,,,,,,,,,,,,,,,,,,,,,,,,,,,,,,,,871.8204910589993,None,871.8204910589993,None,871.8204910589993,None,r,1,0.9443610199996328,873.3712908029993,None,873.3712908029993,None,873.3712908029993,None,874.370736427998,None,874.370736427998,None,874.370736427998,None,874.370736427998,None,,,,,,,,,,,,,,,,,,,,,,,,,,,,,,,,,,,,,,,,,,,,001,72,2020_Feb_04_1554,spring_faces,3.1.5,60.059762828109676,
condition files/Stage2_2.xlsx,,T2,B2,r,"['s', 'r']","['Stratego', 'Risk']","[-0.15, 0.5]","[0.15, 0.5]",1,1,,,,,,,,,,,,,,,,,0,3,3,3,0,2,2,3,,,,,,,,,,,,,,,,,,,,,,,,,,,,,,,,,,,,,,,,,,,,,,,876.3378240790007,None,876.3378240790007,None,876.3378240790007,None,r,1,1.2431932809995487,877.872460614999,None,877.872460614999,None,877.872460614999,None,879.1710078309989,None,879.1710078309989,None,879.1710078309989,None,879.1710078309989,None,,,,,,,,,,,,,,,,,,,,,,,,,,,,,,,,,,,,,,,,,,,,001,72,2020_Feb_04_1554,spring_faces,3.1.5,60.059762828109676,
condition files/Stage2_2.xlsx,,B5,T5,s,"['s', 'r']","['Stratego', 'Risk']","[-0.15, 0.5]","[0.15, 0.5]",1,1,,,,,,,,,,,,,,,,,0,3,3,3,0,3,3,0,,,,,,,,,,,,,,,,,,,,,,,,,,,,,,,,,,,,,,,,,,,,,,,881.1371548269999,None,881.1371548269999,None,881.1371548269999,None,s,1,1.0359367609999026,882.6877399500008,None,882.6877399500008,None,882.6877399500008,None,883.7895347679987,None,883.7895347679987,None,883.7895347679987,None,883.7895347679987,None,,,,,,,,,,,,,,,,,,,,,,,,,,,,,,,,,,,,,,,,,,,,001,72,2020_Feb_04_1554,spring_faces,3.1.5,60.059762828109676,
condition files/Stage2_2.xlsx,,B3,T3,s,"['s', 'r']","['Stratego', 'Risk']","[-0.15, 0.5]","[0.15, 0.5]",1,1,,,,,,,,,,,,,,,,,0,3,3,3,0,4,4,4,,,,,,,,,,,,,,,,,,,,,,,,,,,,,,,,,,,,,,,,,,,,,,,885.7545970309984,None,885.7545970309984,None,885.7545970309984,None,s,1,0.9310031209970475,887.3046754159986,None,887.3046754159986,None,887.3046754159986,None,888.2879886899973,None,888.2879886899973,None,888.2879886899973,None,888.2879886899973,None,,,,,,,,,,,,,,,,,,,,,,,,,,,,,,,,,,,,,,,,,,,,001,72,2020_Feb_04_1554,spring_faces,3.1.5,60.059762828109676,
condition files/Stage2_2.xlsx,,B1,T1,s,"['s', 'r']","['Stratego', 'Risk']","[-0.15, 0.5]","[0.15, 0.5]",1,1,,,,,,,,,,,,,,,,,0,3,3,3,0,5,5,2,,,,,,,,,,,,,,,,,,,,,,,,,,,,,,,,,,,,,,,,,,,,,,,890.2536174509987,None,890.2536174509987,None,890.2536174509987,None,s,1,1.5199688270004117,891.7877622339984,None,891.7877622339984,None,891.7877622339984,None,893.3713359489993,None,893.3713359489993,None,893.3713359489993,None,893.3713359489993,None,,,,,,,,,,,,,,,,,,,,,,,,,,,,,,,,,,,,,,,,,,,,001,72,2020_Feb_04_1554,spring_faces,3.1.5,60.059762828109676,
condition files/Stage2_1.xlsx,,T1,B1,s,"['s', 'r']","['Stratego', 'Risk']","[-0.15, 0.5]","[0.15, 0.5]",1,1,,,,,,,,,,,,,,,,,0,4,4,4,0,0,0,2,,,,,,,,,,,,,,,,,,,,,,,,,,,,,,,,,,,,,,,,,,,,,,,895.354512001999,None,895.354512001999,None,895.354512001999,None,s,1,1.1242146820004564,896.8875453189976,None,896.8875453189976,None,896.8875453189976,None,898.0712786010008,None,898.0712786010008,None,898.0712786010008,None,898.0712786010008,None,,,,,,,,,,,,,,,,,,,,,,,,,,,,,,,,,,,,,,,,,,,,001,72,2020_Feb_04_1554,spring_faces,3.1.5,60.059762828109676,
condition files/Stage2_1.xlsx,,B6,T6,r,"['s', 'r']","['Stratego', 'Risk']","[-0.15, 0.5]","[0.15, 0.5]",1,1,,,,,,,,,,,,,,,,,0,4,4,4,0,1,1,1,,,,,,,,,,,,,,,,,,,,,,,,,,,,,,,,,,,,,,,,,,,,,,,900.0376399790002,None,900.0376399790002,None,900.0376399790002,None,r,1,0.6944817990006413,901.5734243900006,None,901.5734243900006,None,901.5734243900006,None,902.3233674369985,None,902.3233674369985,None,902.3233674369985,None,902.3233674369985,None,,,,,,,,,,,,,,,,,,,,,,,,,,,,,,,,,,,,,,,,,,,,001,72,2020_Feb_04_1554,spring_faces,3.1.5,60.059762828109676,
condition files/Stage2_1.xlsx,,B2,T2,r,"['s', 'r']","['Stratego', 'Risk']","[-0.15, 0.5]","[0.15, 0.5]",1,1,,,,,,,,,,,,,,,,,0,4,4,4,0,2,2,3,,,,,,,,,,,,,,,,,,,,,,,,,,,,,,,,,,,,,,,,,,,,,,,904.2876486370005,None,904.2876486370005,None,904.2876486370005,None,r,1,1.6621419280018017,905.8375281519984,None,905.8375281519984,None,905.8375281519984,None,907.5538783839984,None,907.5538783839984,None,907.5538783839984,None,907.5538783839984,None,,,,,,,,,,,,,,,,,,,,,,,,,,,,,,,,,,,,,,,,,,,,001,72,2020_Feb_04_1554,spring_faces,3.1.5,60.059762828109676,
