condsFile,subStage,cue1,cue2,correct,responseKeys,responseNames,cue1Position,cue2Position,cue1Opacity,cue2Opacity,stageLoop0.thisRepN,stageLoop0.thisTrialN,stageLoop0.thisN,stageLoop0.thisIndex,blockLoop0.thisRepN,blockLoop0.thisTrialN,blockLoop0.thisN,blockLoop0.thisIndex,stage1Loop.thisRepN,stage1Loop.thisTrialN,stage1Loop.thisN,stage1Loop.thisIndex,blockLoop1.thisRepN,blockLoop1.thisTrialN,blockLoop1.thisN,blockLoop1.thisIndex,stage2Loop.thisRepN,stage2Loop.thisTrialN,stage2Loop.thisN,stage2Loop.thisIndex,blockLoop2.thisRepN,blockLoop2.thisTrialN,blockLoop2.thisN,blockLoop2.thisIndex,testLoop.thisRepN,testLoop.thisTrialN,testLoop.thisN,testLoop.thisIndex,blockLoopTest.thisRepN,blockLoopTest.thisTrialN,blockLoopTest.thisN,blockLoopTest.thisIndex,cuePics,id_instr_text.started,id_instr_text.stopped,space_to_continue_2.started,space_to_continue_2.stopped,end_instructions_resp_3.keys,end_instructions_resp_3.rt,end_instructions_resp_3.started,end_instructions_resp_3.stopped,id_input_instr.started,id_input_instr.stopped,id_input_rect.started,id_input_rect.stopped,id_input_resp.keys,id_input_resp.rt,id_input_resp.started,id_input_resp.stopped,sonaID,id_input_text.started,id_input_text.stopped,final_text.started,final_text.stopped,instructions.started,instructions.stopped,end_instructions_resp.keys,end_instructions_resp.rt,end_instructions_resp.started,end_instructions_resp.stopped,space_to_continue.started,space_to_continue.stopped,instructions_stage0.started,instructions_stage0.stopped,end_instructions_resp_stage0.keys,end_instructions_resp_stage0.rt,end_instructions_resp_stage0.started,end_instructions_resp_stage0.stopped,space_to_continue_stage0.started,space_to_continue_stage0.stopped,text.started,text.stopped,resp_text1.started,resp_text1.stopped,resp_text2.started,resp_text2.stopped,trial_resp.keys,trial_resp.corr,trial_resp.rt,trial_resp.started,trial_resp.stopped,cue1Image.started,cue1Image.stopped,cue2Image.started,cue2Image.stopped,cue1Image_fb.started,cue1Image_fb.stopped,cue2Image_fb.started,cue2Image_fb.stopped,fb_text_answer.started,fb_text_answer.stopped,feedback_image.started,feedback_image.stopped,instructions_stage1.started,instructions_stage1.stopped,end_instructions_resp_stage1.keys,end_instructions_resp_stage1.rt,end_instructions_resp_stage1.started,end_instructions_resp_stage1.stopped,space_to_continue_stage1.started,space_to_continue_stage1.stopped,instructions_2.started,instructions_2.stopped,end_instructions_resp_2.keys,end_instructions_resp_2.rt,end_instructions_resp_2.started,end_instructions_resp_2.stopped,press_space_to_continue_stage2.started,press_space_to_continue_stage2.stopped,instructions_testStage1.started,instructions_testStage1.stopped,end_instructions_resp_test1.keys,end_instructions_resp_test1.rt,end_instructions_resp_test1.started,end_instructions_resp_test1.stopped,press_space_to_continue_test1.started,press_space_to_continue_test1.stopped,cue1Image_testChoice.started,cue1Image_testChoice.stopped,cue2Image_testChoice.started,cue2Image_testChoice.stopped,test_resp.keys,test_resp.corr,test_resp.rt,test_resp.started,test_resp.stopped,cue1Image_testConf.started,cue1Image_testConf.stopped,cue2Image_testConf.started,cue2Image_testConf.stopped,conf_reminder.started,conf_reminder.stopped,conf_rating.response,conf_rating.rt,conf_rating.started,conf_rating.stopped,session,participant,date,expName,psychopyVersion,frameRate,
,,,,,,,,,,,,,,,,,,,,,,,,,,,,,,,,,,,,,,,,,,,"{'none': 'pictures/20M_AN_C.png', 'alpha': 'pictures/SHINEd_melon.png', 'beta': 'pictures/SHINEd_apple.png', 'theta': 'pictures/SHINEd_pear.png', 'phi': 'pictures/SHINEd_pepper.png', 'T1': 'pictures/36M_AN_C.png', 'T2': 'pictures/22M_AN_C.png', 'T3': 'pictures/26M_AN_C.png', 'T4': 'pictures/38M_AN_C.png', 'T5': 'pictures/33M_AN_C.png', 'T6': 'pictures/32M_AN_C.png', 'B1': 'pictures/20M_NE_C.png', 'B2': 'pictures/34M_NE_C.png', 'B3': 'pictures/23M_NE_C.png', 'B4': 'pictures/25M_NE_C.png', 'B5': 'pictures/31M_NE_C.png', 'B6': 'pictures/37M_NE_C.png'}",13.882084715000019,None,18.865324147000138,None,space,35.55641072900016,18.865324147000138,None,,,,,,,,,,,,,,,,,,,,,,,,,,,,,,,,,,,,,,,,,,,,,,,,,,,,,,,,,,,,,,,,,,,,,,,,,,,,,,,,,,,,,,,,,,,,,,,,001,77,2020_Feb_06_0957,spring_faces,3.1.5,59.973893603765724,
,,,,,,,,,,,,,,,,,,,,,,,,,,,,,,,,,,,,,,,,,,,,,,,,,,,,54.84890645499945,None,54.84890645499945,None,"['1', '0', '0', '1', 'g', 'r', 'm', 'o', 'n']","[17.732827002000704, 18.644786913000644, 26.45281727300062, 27.20482355400054, 29.652791082000476, 29.82876597700033, 34.67684811300023, 34.77282417200058, 34.98079225000038]",54.84890645499945,None,,,,,,,,,,,,,,,,,,,,,,,,,,,,,,,,,,,,,,,,,,,,,,,,,,,,,,,,,,,,,,,,,,,,,,,,,,,,,,,,,,,,,,,,001,77,2020_Feb_06_0957,spring_faces,3.1.5,59.973893603765724,
,,,,,,,,,,,,,,,,,,,,,,,,,,,,,,,,,,,,,,,,,,,,,,,,,,,,,,,,,,,,1001grmon,54.84890645499945,None,54.84890645499945,None,94.89922985900012,None,space,5.83473776000028,99.89894250899943,None,,,,,,,,,,,,,,,,,,,,,,,,,,,,,,,,,,,,,,,,,,,,,,,,,,,,,,,,,,,,,,,,,,,,,,,,,,,,,001,77,2020_Feb_06_0957,spring_faces,3.1.5,59.973893603765724,
,,,,,,,,,,,,,,,,,,,,,,,,,,,,,,,,,,,,,,,,,,,,,,,,,,,,,,,,,,,,,,,,,,,,,,,99.89894250899943,None,105.78206136399967,None,space,17.33634147200064,110.76537398799974,None,,,,,,,,,,,,,,,,,,,,,,,,,,,,,,,,,,,,,,,,,,,,,,,,,,,,,,,,,,,,,,,,,,,,,001,77,2020_Feb_06_0957,spring_faces,3.1.5,59.973893603765724,
condition files/Stage0a.xlsx,0a,alpha,none,h,"['h', 'g']","['Chess', 'Go']","[0, 0.5]","[0, 0]",1,0,0,0,0,0,0,0,0,0,,,,,,,,,,,,,,,,,,,,,,,,,,,,,,,,,,,,,,,,,,,,,,,,,,,,,,,,,,,,,110.76537398799974,None,128.16531505300009,None,128.16531505300009,None,128.16531505300009,None,h,1,2.206337671000256,129.83140724799978,None,129.83140724799978,None,129.83140724799978,None,132.11507708799945,None,132.11507708799945,None,132.11507708799945,None,132.11507708799945,None,,,,,,,,,,,,,,,,,,,,,,,,,,,,,,,,,,,,,,,,,,,,001,77,2020_Feb_06_0957,spring_faces,3.1.5,59.973893603765724,
condition files/Stage0a.xlsx,0a,beta,none,g,"['h', 'g']","['Chess', 'Go']","[0, 0.5]","[0, 0]",1,0,0,0,0,0,0,1,1,1,,,,,,,,,,,,,,,,,,,,,,,,,,,,,,,,,,,,,,,,,,,,,,,,,,,,,,,,,,,,,,,134.0653247959999,None,134.0653247959999,None,134.0653247959999,None,g,1,1.3811952089999977,135.6005393759997,None,135.6005393759997,None,135.6005393759997,None,137.0318901139999,None,137.0318901139999,None,137.0318901139999,None,137.0318901139999,None,,,,,,,,,,,,,,,,,,,,,,,,,,,,,,,,,,,,,,,,,,,,001,77,2020_Feb_06_0957,spring_faces,3.1.5,59.973893603765724,
condition files/Stage0a.xlsx,0a,alpha,none,h,"['h', 'g']","['Chess', 'Go']","[0, 0.5]","[0, 0]",1,0,0,1,1,1,0,0,0,0,,,,,,,,,,,,,,,,,,,,,,,,,,,,,,,,,,,,,,,,,,,,,,,,,,,,,,,,,,,,,,,139.01556012699984,None,139.01556012699984,None,139.01556012699984,None,h,1,1.041573409999728,140.54819574900012,None,140.54819574900012,None,140.54819574900012,None,141.6487475439999,None,141.6487475439999,None,141.6487475439999,None,141.6487475439999,None,,,,,,,,,,,,,,,,,,,,,,,,,,,,,,,,,,,,,,,,,,,,001,77,2020_Feb_06_0957,spring_faces,3.1.5,59.973893603765724,
condition files/Stage0a.xlsx,0a,beta,none,g,"['h', 'g']","['Chess', 'Go']","[0, 0.5]","[0, 0]",1,0,0,1,1,1,0,1,1,1,,,,,,,,,,,,,,,,,,,,,,,,,,,,,,,,,,,,,,,,,,,,,,,,,,,,,,,,,,,,,,,143.61533331200008,None,143.61533331200008,None,143.61533331200008,None,g,1,0.7927216239995687,145.14896489300008,None,145.14896489300008,None,145.14896489300008,None,145.99850170199988,None,145.99850170199988,None,145.99850170199988,None,145.99850170199988,None,,,,,,,,,,,,,,,,,,,,,,,,,,,,,,,,,,,,,,,,,,,,001,77,2020_Feb_06_0957,spring_faces,3.1.5,59.973893603765724,
condition files/Stage0a.xlsx,0a,alpha,none,h,"['h', 'g']","['Chess', 'Go']","[0, 0.5]","[0, 0]",1,0,0,2,2,2,0,0,0,0,,,,,,,,,,,,,,,,,,,,,,,,,,,,,,,,,,,,,,,,,,,,,,,,,,,,,,,,,,,,,,,147.98260913099966,None,147.98260913099966,None,147.98260913099966,None,h,1,0.7302578509998057,149.51554684599978,None,149.51554684599978,None,149.51554684599978,None,150.29860801499945,None,150.29860801499945,None,150.29860801499945,None,150.29860801499945,None,,,,,,,,,,,,,,,,,,,,,,,,,,,,,,,,,,,,,,,,,,,,001,77,2020_Feb_06_0957,spring_faces,3.1.5,59.973893603765724,
condition files/Stage0a.xlsx,0a,beta,none,g,"['h', 'g']","['Chess', 'Go']","[0, 0.5]","[0, 0]",1,0,0,2,2,2,0,1,1,1,,,,,,,,,,,,,,,,,,,,,,,,,,,,,,,,,,,,,,,,,,,,,,,,,,,,,,,,,,,,,,,152.26476253999954,None,152.26476253999954,None,152.26476253999954,None,g,1,0.6390948129992466,153.79867484499937,None,153.79867484499937,None,153.79867484499937,None,154.49875456500013,None,154.49875456500013,None,154.49875456500013,None,154.49875456500013,None,,,,,,,,,,,,,,,,,,,,,,,,,,,,,,,,,,,,,,,,,,,,001,77,2020_Feb_06_0957,spring_faces,3.1.5,59.973893603765724,
condition files/Stage0a.xlsx,0a,alpha,none,h,"['h', 'g']","['Chess', 'Go']","[0, 0.5]","[0, 0]",1,0,0,3,3,3,0,0,0,0,,,,,,,,,,,,,,,,,,,,,,,,,,,,,,,,,,,,,,,,,,,,,,,,,,,,,,,,,,,,,,,156.4819731179996,None,156.4819731179996,None,156.4819731179996,None,h,1,0.550207135999699,158.01548975100013,None,158.01548975100013,None,158.01548975100013,None,158.63156801500008,None,158.63156801500008,None,158.63156801500008,None,158.63156801500008,None,,,,,,,,,,,,,,,,,,,,,,,,,,,,,,,,,,,,,,,,,,,,001,77,2020_Feb_06_0957,spring_faces,3.1.5,59.973893603765724,
condition files/Stage0a.xlsx,0a,beta,none,g,"['h', 'g']","['Chess', 'Go']","[0, 0.5]","[0, 0]",1,0,0,3,3,3,0,1,1,1,,,,,,,,,,,,,,,,,,,,,,,,,,,,,,,,,,,,,,,,,,,,,,,,,,,,,,,,,,,,,,,160.59863294299976,None,160.59863294299976,None,160.59863294299976,None,g,1,0.5592811180003991,162.1344323329995,None,162.1344323329995,None,162.1344323329995,None,162.7485889489999,None,162.7485889489999,None,162.7485889489999,None,162.7485889489999,None,,,,,,,,,,,,,,,,,,,,,,,,,,,,,,,,,,,,,,,,,,,,001,77,2020_Feb_06_0957,spring_faces,3.1.5,59.973893603765724,
condition files/Stage0a.xlsx,0a,alpha,none,h,"['h', 'g']","['Chess', 'Go']","[0, 0.5]","[0, 0]",1,0,0,4,4,4,0,0,0,0,,,,,,,,,,,,,,,,,,,,,,,,,,,,,,,,,,,,,,,,,,,,,,,,,,,,,,,,,,,,,,,164.73228079,None,164.73228079,None,164.73228079,None,h,1,0.5726731599997947,166.26508962199932,None,166.26508962199932,None,166.26508962199932,None,166.89846509699964,None,166.89846509699964,None,166.89846509699964,None,166.89846509699964,None,,,,,,,,,,,,,,,,,,,,,,,,,,,,,,,,,,,,,,,,,,,,001,77,2020_Feb_06_0957,spring_faces,3.1.5,59.973893603765724,
condition files/Stage0a.xlsx,0a,beta,none,g,"['h', 'g']","['Chess', 'Go']","[0, 0.5]","[0, 0]",1,0,0,4,4,4,0,1,1,1,,,,,,,,,,,,,,,,,,,,,,,,,,,,,,,,,,,,,,,,,,,,,,,,,,,,,,,,,,,,,,,168.86531034199925,None,168.86531034199925,None,168.86531034199925,None,g,1,0.6470733040005143,170.39879947600002,None,170.39879947600002,None,170.39879947600002,None,171.09842027299965,None,171.09842027299965,None,171.09842027299965,None,171.09842027299965,None,,,,,,,,,,,,,,,,,,,,,,,,,,,,,,,,,,,,,,,,,,,,001,77,2020_Feb_06_0957,spring_faces,3.1.5,59.973893603765724,
condition files/Stage0a.xlsx,0a,alpha,none,h,"['h', 'g']","['Chess', 'Go']","[0, 0.5]","[0, 0]",1,0,0,5,5,5,0,0,0,0,,,,,,,,,,,,,,,,,,,,,,,,,,,,,,,,,,,,,,,,,,,,,,,,,,,,,,,,,,,,,,,173.08250236599997,None,173.08250236599997,None,173.08250236599997,None,h,1,0.6864883250000275,174.6152702899999,None,174.6152702899999,None,174.6152702899999,None,175.36568872599946,None,175.36568872599946,None,175.36568872599946,None,175.36568872599946,None,,,,,,,,,,,,,,,,,,,,,,,,,,,,,,,,,,,,,,,,,,,,001,77,2020_Feb_06_0957,spring_faces,3.1.5,59.973893603765724,
condition files/Stage0a.xlsx,0a,beta,none,g,"['h', 'g']","['Chess', 'Go']","[0, 0.5]","[0, 0]",1,0,0,5,5,5,0,1,1,1,,,,,,,,,,,,,,,,,,,,,,,,,,,,,,,,,,,,,,,,,,,,,,,,,,,,,,,,,,,,,,,177.33234224699936,None,177.33234224699936,None,177.33234224699936,None,g,1,0.5166078109996306,178.86514314499982,None,178.86514314499982,None,178.86514314499982,None,179.43225668200012,None,179.43225668200012,None,179.43225668200012,None,179.43225668200012,None,,,,,,,,,,,,,,,,,,,,,,,,,,,,,,,,,,,,,,,,,,,,001,77,2020_Feb_06_0957,spring_faces,3.1.5,59.973893603765724,
condition files/Stage0b_1.xlsx,0b,none,beta,g,"['h', 'g']","['Chess', 'Go']","[-0.15, 0.5]","[0.15, 0.5]",0,1,0,6,6,6,0,0,0,1,,,,,,,,,,,,,,,,,,,,,,,,,,,,,,,,,,,,,,,,,,,,,,,,,,,,,,,,,,,,,,,181.4156074120001,None,181.4156074120001,None,181.4156074120001,None,g,1,1.0080600700002833,182.9657144719995,None,182.9657144719995,None,182.9657144719995,None,184.0366037979993,None,184.0366037979993,None,184.0366037979993,None,184.0366037979993,None,,,,,,,,,,,,,,,,,,,,,,,,,,,,,,,,,,,,,,,,,,,,001,77,2020_Feb_06_0957,spring_faces,3.1.5,59.973893603765724,
condition files/Stage0b_1.xlsx,0b,alpha,none,h,"['h', 'g']","['Chess', 'Go']","[-0.15, 0.5]","[0.15, 0.5]",1,0,0,6,6,6,0,1,1,0,,,,,,,,,,,,,,,,,,,,,,,,,,,,,,,,,,,,,,,,,,,,,,,,,,,,,,,,,,,,,,,185.9984385889993,None,185.9984385889993,None,185.9984385889993,None,h,1,0.5488588819998768,187.53686786299932,None,187.53686786299932,None,187.53686786299932,None,188.15087024100012,None,188.15087024100012,None,188.15087024100012,None,188.15087024100012,None,,,,,,,,,,,,,,,,,,,,,,,,,,,,,,,,,,,,,,,,,,,,001,77,2020_Feb_06_0957,spring_faces,3.1.5,59.973893603765724,
condition files/Stage0b_2.xlsx,0b,none,alpha,h,"['h', 'g']","['Chess', 'Go']","[-0.15, 0.5]","[0.15, 0.5]",0,1,0,7,7,7,0,0,0,0,,,,,,,,,,,,,,,,,,,,,,,,,,,,,,,,,,,,,,,,,,,,,,,,,,,,,,,,,,,,,,,190.13247812200007,None,190.13247812200007,None,190.13247812200007,None,h,1,0.6437465529998008,191.6659683049993,None,191.6659683049993,None,191.6659683049993,None,192.3658165279994,None,192.3658165279994,None,192.3658165279994,None,192.3658165279994,None,,,,,,,,,,,,,,,,,,,,,,,,,,,,,,,,,,,,,,,,,,,,001,77,2020_Feb_06_0957,spring_faces,3.1.5,59.973893603765724,
condition files/Stage0b_2.xlsx,0b,beta,none,g,"['h', 'g']","['Chess', 'Go']","[-0.15, 0.5]","[0.15, 0.5]",1,0,0,7,7,7,0,1,1,1,,,,,,,,,,,,,,,,,,,,,,,,,,,,,,,,,,,,,,,,,,,,,,,,,,,,,,,,,,,,,,,194.33203436999975,None,194.33203436999975,None,194.33203436999975,None,g,1,0.5853257599992503,195.8684031799994,None,195.8684031799994,None,195.8684031799994,None,196.51955303199975,None,196.51955303199975,None,196.51955303199975,None,196.51955303199975,None,,,,,,,,,,,,,,,,,,,,,,,,,,,,,,,,,,,,,,,,,,,,001,77,2020_Feb_06_0957,spring_faces,3.1.5,59.973893603765724,
condition files/Stage0b_1.xlsx,0b,none,beta,g,"['h', 'g']","['Chess', 'Go']","[-0.15, 0.5]","[0.15, 0.5]",0,1,0,8,8,8,0,0,0,1,,,,,,,,,,,,,,,,,,,,,,,,,,,,,,,,,,,,,,,,,,,,,,,,,,,,,,,,,,,,,,,198.49844321599994,None,198.49844321599994,None,198.49844321599994,None,g,1,0.6430797599996367,200.03462652300004,None,200.03462652300004,None,200.03462652300004,None,200.731964392,None,200.731964392,None,200.731964392,None,200.731964392,None,,,,,,,,,,,,,,,,,,,,,,,,,,,,,,,,,,,,,,,,,,,,001,77,2020_Feb_06_0957,spring_faces,3.1.5,59.973893603765724,
condition files/Stage0b_1.xlsx,0b,alpha,none,h,"['h', 'g']","['Chess', 'Go']","[-0.15, 0.5]","[0.15, 0.5]",1,0,0,8,8,8,0,1,1,0,,,,,,,,,,,,,,,,,,,,,,,,,,,,,,,,,,,,,,,,,,,,,,,,,,,,,,,,,,,,,,,202.69883690699953,None,202.69883690699953,None,202.69883690699953,None,h,1,0.6014385479993507,204.23627975599993,None,204.23627975599993,None,204.23627975599993,None,204.90344471199933,None,204.90344471199933,None,204.90344471199933,None,204.90344471199933,None,,,,,,,,,,,,,,,,,,,,,,,,,,,,,,,,,,,,,,,,,,,,001,77,2020_Feb_06_0957,spring_faces,3.1.5,59.973893603765724,
condition files/Stage0b_2.xlsx,0b,beta,none,g,"['h', 'g']","['Chess', 'Go']","[-0.15, 0.5]","[0.15, 0.5]",1,0,0,9,9,9,0,0,0,1,,,,,,,,,,,,,,,,,,,,,,,,,,,,,,,,,,,,,,,,,,,,,,,,,,,,,,,,,,,,,,,206.88193917199987,None,206.88193917199987,None,206.88193917199987,None,g,1,0.6786823280008321,208.41499648799982,None,208.41499648799982,None,208.41499648799982,None,209.1487237629999,None,209.1487237629999,None,209.1487237629999,None,209.1487237629999,None,,,,,,,,,,,,,,,,,,,,,,,,,,,,,,,,,,,,,,,,,,,,001,77,2020_Feb_06_0957,spring_faces,3.1.5,59.973893603765724,
condition files/Stage0b_2.xlsx,0b,none,alpha,h,"['h', 'g']","['Chess', 'Go']","[-0.15, 0.5]","[0.15, 0.5]",0,1,0,9,9,9,0,1,1,0,,,,,,,,,,,,,,,,,,,,,,,,,,,,,,,,,,,,,,,,,,,,,,,,,,,,,,,,,,,,,,,211.1154255299998,None,211.1154255299998,None,211.1154255299998,None,h,1,0.5554788290000943,212.65030110399948,None,212.65030110399948,None,212.65030110399948,None,213.28208612599974,None,213.28208612599974,None,213.28208612599974,None,213.28208612599974,None,,,,,,,,,,,,,,,,,,,,,,,,,,,,,,,,,,,,,,,,,,,,001,77,2020_Feb_06_0957,spring_faces,3.1.5,59.973893603765724,
condition files/Stage0b_1.xlsx,0b,none,beta,g,"['h', 'g']","['Chess', 'Go']","[-0.15, 0.5]","[0.15, 0.5]",0,1,0,10,10,10,0,0,0,1,,,,,,,,,,,,,,,,,,,,,,,,,,,,,,,,,,,,,,,,,,,,,,,,,,,,,,,,,,,,,,,215.24868877799963,None,215.24868877799963,None,215.24868877799963,None,g,1,0.7596039919999384,216.78208881699993,None,216.78208881699993,None,216.78208881699993,None,217.59864858999936,None,217.59864858999936,None,217.59864858999936,None,217.59864858999936,None,,,,,,,,,,,,,,,,,,,,,,,,,,,,,,,,,,,,,,,,,,,,001,77,2020_Feb_06_0957,spring_faces,3.1.5,59.973893603765724,
condition files/Stage0b_1.xlsx,0b,alpha,none,h,"['h', 'g']","['Chess', 'Go']","[-0.15, 0.5]","[0.15, 0.5]",1,0,0,10,10,10,0,1,1,0,,,,,,,,,,,,,,,,,,,,,,,,,,,,,,,,,,,,,,,,,,,,,,,,,,,,,,,,,,,,,,,219.56480327699956,None,219.56480327699956,None,219.56480327699956,None,h,1,0.535963726000773,221.10178356199958,None,221.10178356199958,None,221.10178356199958,None,221.71586182699957,None,221.71586182699957,None,221.71586182699957,None,221.71586182699957,None,,,,,,,,,,,,,,,,,,,,,,,,,,,,,,,,,,,,,,,,,,,,001,77,2020_Feb_06_0957,spring_faces,3.1.5,59.973893603765724,
condition files/Stage0b_2.xlsx,0b,beta,none,g,"['h', 'g']","['Chess', 'Go']","[-0.15, 0.5]","[0.15, 0.5]",1,0,0,11,11,11,0,0,0,1,,,,,,,,,,,,,,,,,,,,,,,,,,,,,,,,,,,,,,,,,,,,,,,,,,,,,,,,,,,,,,,223.68243146799978,None,223.68243146799978,None,223.68243146799978,None,g,1,0.7747021860004679,225.21508323599937,None,225.21508323599937,None,225.21508323599937,None,226.0483353689997,None,226.0483353689997,None,226.0483353689997,None,226.0483353689997,None,,,,,,,,,,,,,,,,,,,,,,,,,,,,,,,,,,,,,,,,,,,,001,77,2020_Feb_06_0957,spring_faces,3.1.5,59.973893603765724,
condition files/Stage0b_2.xlsx,0b,none,alpha,h,"['h', 'g']","['Chess', 'Go']","[-0.15, 0.5]","[0.15, 0.5]",0,1,0,11,11,11,0,1,1,0,,,,,,,,,,,,,,,,,,,,,,,,,,,,,,,,,,,,,,,,,,,,,,,,,,,,,,,,,,,,,,,228.0154014489999,None,228.0154014489999,None,228.0154014489999,None,h,1,0.6437573989996963,229.55396150999968,None,229.55396150999968,None,229.55396150999968,None,230.26562947899947,None,230.26562947899947,None,230.26562947899947,None,230.26562947899947,None,,,,,,,,,,,,,,,,,,,,,,,,,,,,,,,,,,,,,,,,,,,,001,77,2020_Feb_06_0957,spring_faces,3.1.5,59.973893603765724,
condition files/Stage0c_1.xlsx,0c,alpha,phi,h,"['h', 'g']","['Chess', 'Go']","[-0.15, 0.5]","[0.15, 0.5]",1,1,0,12,12,12,0,0,0,1,,,,,,,,,,,,,,,,,,,,,,,,,,,,,,,,,,,,,,,,,,,,,,,,,,,,,,,,,,,,,,,232.2322861980001,None,232.2322861980001,None,232.2322861980001,None,h,1,2.384037410000019,233.76560562099985,None,233.76560562099985,None,233.76560562099985,None,236.21538883199992,None,236.21538883199992,None,236.21538883199992,None,236.21538883199992,None,,,,,,,,,,,,,,,,,,,,,,,,,,,,,,,,,,,,,,,,,,,,001,77,2020_Feb_06_0957,spring_faces,3.1.5,59.973893603765724,
condition files/Stage0c_1.xlsx,0c,theta,alpha,h,"['h', 'g']","['Chess', 'Go']","[-0.15, 0.5]","[0.15, 0.5]",1,1,0,12,12,12,0,1,1,0,,,,,,,,,,,,,,,,,,,,,,,,,,,,,,,,,,,,,,,,,,,,,,,,,,,,,,,,,,,,,,,238.18189145299948,None,238.18189145299948,None,238.18189145299948,None,h,1,1.3944174289999864,239.71530404899931,None,239.71530404899931,None,239.71530404899931,None,241.1652850319997,None,241.1652850319997,None,241.1652850319997,None,241.1652850319997,None,,,,,,,,,,,,,,,,,,,,,,,,,,,,,,,,,,,,,,,,,,,,001,77,2020_Feb_06_0957,spring_faces,3.1.5,59.973893603765724,
condition files/Stage0c_1.xlsx,0c,phi,beta,g,"['h', 'g']","['Chess', 'Go']","[-0.15, 0.5]","[0.15, 0.5]",1,1,0,12,12,12,0,2,2,3,,,,,,,,,,,,,,,,,,,,,,,,,,,,,,,,,,,,,,,,,,,,,,,,,,,,,,,,,,,,,,,243.13163075800003,None,243.13163075800003,None,243.13163075800003,None,g,1,1.1479784699995434,244.66573827399952,None,244.66573827399952,None,244.66573827399952,None,245.8659966819996,None,245.8659966819996,None,245.8659966819996,None,245.8659966819996,None,,,,,,,,,,,,,,,,,,,,,,,,,,,,,,,,,,,,,,,,,,,,001,77,2020_Feb_06_0957,spring_faces,3.1.5,59.973893603765724,
condition files/Stage0c_1.xlsx,0c,beta,theta,g,"['h', 'g']","['Chess', 'Go']","[-0.15, 0.5]","[0.15, 0.5]",1,1,0,12,12,12,0,3,3,2,,,,,,,,,,,,,,,,,,,,,,,,,,,,,,,,,,,,,,,,,,,,,,,,,,,,,,,,,,,,,,,247.8325646479998,None,247.8325646479998,None,247.8325646479998,None,g,1,1.0400394190000952,249.3656337550001,None,249.3656337550001,None,249.3656337550001,None,250.46510927300005,None,250.46510927300005,None,250.46510927300005,None,250.46510927300005,None,,,,,,,,,,,,,,,,,,,,,,,,,,,,,,,,,,,,,,,,,,,,001,77,2020_Feb_06_0957,spring_faces,3.1.5,59.973893603765724,
condition files/Stage0c_2.xlsx,0c,phi,alpha,h,"['h', 'g']","['Chess', 'Go']","[-0.15, 0.5]","[0.15, 0.5]",1,1,0,13,13,13,0,0,0,1,,,,,,,,,,,,,,,,,,,,,,,,,,,,,,,,,,,,,,,,,,,,,,,,,,,,,,,,,,,,,,,252.4491351789993,None,252.4491351789993,None,252.4491351789993,None,h,1,1.2234475819996078,253.9822398059996,None,253.9822398059996,None,253.9822398059996,None,255.2658289379997,None,255.2658289379997,None,255.2658289379997,None,255.2658289379997,None,,,,,,,,,,,,,,,,,,,,,,,,,,,,,,,,,,,,,,,,,,,,001,77,2020_Feb_06_0957,spring_faces,3.1.5,59.973893603765724,
condition files/Stage0c_2.xlsx,0c,beta,phi,g,"['h', 'g']","['Chess', 'Go']","[-0.15, 0.5]","[0.15, 0.5]",1,1,0,13,13,13,0,1,1,3,,,,,,,,,,,,,,,,,,,,,,,,,,,,,,,,,,,,,,,,,,,,,,,,,,,,,,,,,,,,,,,257.23177983000005,None,257.23177983000005,None,257.23177983000005,None,g,1,0.8245881780003401,258.76517856899954,None,258.76517856899954,None,258.76517856899954,None,259.64826812199954,None,259.64826812199954,None,259.64826812199954,None,259.64826812199954,None,,,,,,,,,,,,,,,,,,,,,,,,,,,,,,,,,,,,,,,,,,,,001,77,2020_Feb_06_0957,spring_faces,3.1.5,59.973893603765724,
condition files/Stage0c_2.xlsx,0c,theta,beta,g,"['h', 'g']","['Chess', 'Go']","[-0.15, 0.5]","[0.15, 0.5]",1,1,0,13,13,13,0,2,2,2,,,,,,,,,,,,,,,,,,,,,,,,,,,,,,,,,,,,,,,,,,,,,,,,,,,,,,,,,,,,,,,261.6158403619993,None,261.6158403619993,None,261.6158403619993,None,g,1,0.968821778000347,263.14889391999986,None,263.14889391999986,None,263.14889391999986,None,264.167452959,None,264.167452959,None,264.167452959,None,264.167452959,None,,,,,,,,,,,,,,,,,,,,,,,,,,,,,,,,,,,,,,,,,,,,001,77,2020_Feb_06_0957,spring_faces,3.1.5,59.973893603765724,
condition files/Stage0c_2.xlsx,0c,alpha,theta,h,"['h', 'g']","['Chess', 'Go']","[-0.15, 0.5]","[0.15, 0.5]",1,1,0,13,13,13,0,3,3,0,,,,,,,,,,,,,,,,,,,,,,,,,,,,,,,,,,,,,,,,,,,,,,,,,,,,,,,,,,,,,,,266.14816175599935,None,266.14816175599935,None,266.14816175599935,None,h,1,0.7714786450005704,267.68225513200014,None,267.68225513200014,None,267.68225513200014,None,268.51539643699925,None,268.51539643699925,None,268.51539643699925,None,268.51539643699925,None,,,,,,,,,,,,,,,,,,,,,,,,,,,,,,,,,,,,,,,,,,,,001,77,2020_Feb_06_0957,spring_faces,3.1.5,59.973893603765724,
condition files/Stage0c_1.xlsx,0c,alpha,phi,h,"['h', 'g']","['Chess', 'Go']","[-0.15, 0.5]","[0.15, 0.5]",1,1,0,14,14,14,0,0,0,1,,,,,,,,,,,,,,,,,,,,,,,,,,,,,,,,,,,,,,,,,,,,,,,,,,,,,,,,,,,,,,,270.49912621800013,None,270.49912621800013,None,270.49912621800013,None,h,1,0.6613936569992802,272.0322925219998,None,272.0322925219998,None,272.0322925219998,None,272.73295511299966,None,272.73295511299966,None,272.73295511299966,None,272.73295511299966,None,,,,,,,,,,,,,,,,,,,,,,,,,,,,,,,,,,,,,,,,,,,,001,77,2020_Feb_06_0957,spring_faces,3.1.5,59.973893603765724,
condition files/Stage0c_1.xlsx,0c,beta,theta,g,"['h', 'g']","['Chess', 'Go']","[-0.15, 0.5]","[0.15, 0.5]",1,1,0,14,14,14,0,1,1,2,,,,,,,,,,,,,,,,,,,,,,,,,,,,,,,,,,,,,,,,,,,,,,,,,,,,,,,,,,,,,,,274.71523802699994,None,274.71523802699994,None,274.71523802699994,None,g,1,0.7331610000001092,276.24857739399977,None,276.24857739399977,None,276.24857739399977,None,277.0322446709997,None,277.0322446709997,None,277.0322446709997,None,277.0322446709997,None,,,,,,,,,,,,,,,,,,,,,,,,,,,,,,,,,,,,,,,,,,,,001,77,2020_Feb_06_0957,spring_faces,3.1.5,59.973893603765724,
condition files/Stage0c_1.xlsx,0c,theta,alpha,h,"['h', 'g']","['Chess', 'Go']","[-0.15, 0.5]","[0.15, 0.5]",1,1,0,14,14,14,0,2,2,0,,,,,,,,,,,,,,,,,,,,,,,,,,,,,,,,,,,,,,,,,,,,,,,,,,,,,,,,,,,,,,,278.998594445,None,278.998594445,None,278.998594445,None,h,1,0.7380919859997448,280.5316387899993,None,280.5316387899993,None,280.5316387899993,None,281.3318081839998,None,281.3318081839998,None,281.3318081839998,None,281.3318081839998,None,,,,,,,,,,,,,,,,,,,,,,,,,,,,,,,,,,,,,,,,,,,,001,77,2020_Feb_06_0957,spring_faces,3.1.5,59.973893603765724,
condition files/Stage0c_1.xlsx,0c,phi,beta,g,"['h', 'g']","['Chess', 'Go']","[-0.15, 0.5]","[0.15, 0.5]",1,1,0,14,14,14,0,3,3,3,,,,,,,,,,,,,,,,,,,,,,,,,,,,,,,,,,,,,,,,,,,,,,,,,,,,,,,,,,,,,,,283.298043926,None,283.298043926,None,283.298043926,None,g,1,0.6135414330001367,284.8321175309993,None,284.8321175309993,None,284.8321175309993,None,285.4987991479993,None,285.4987991479993,None,285.4987991479993,None,285.4987991479993,None,,,,,,,,,,,,,,,,,,,,,,,,,,,,,,,,,,,,,,,,,,,,001,77,2020_Feb_06_0957,spring_faces,3.1.5,59.973893603765724,
condition files/Stage0c_2.xlsx,0c,alpha,theta,h,"['h', 'g']","['Chess', 'Go']","[-0.15, 0.5]","[0.15, 0.5]",1,1,0,15,15,15,0,0,0,0,,,,,,,,,,,,,,,,,,,,,,,,,,,,,,,,,,,,,,,,,,,,,,,,,,,,,,,,,,,,,,,287.48255955700006,None,287.48255955700006,None,287.48255955700006,None,h,1,0.702138069999819,289.0155836240001,None,289.0155836240001,None,289.0155836240001,None,289.7816432669997,None,289.7816432669997,None,289.7816432669997,None,289.7816432669997,None,,,,,,,,,,,,,,,,,,,,,,,,,,,,,,,,,,,,,,,,,,,,001,77,2020_Feb_06_0957,spring_faces,3.1.5,59.973893603765724,
condition files/Stage0c_2.xlsx,0c,beta,phi,g,"['h', 'g']","['Chess', 'Go']","[-0.15, 0.5]","[0.15, 0.5]",1,1,0,15,15,15,0,1,1,3,,,,,,,,,,,,,,,,,,,,,,,,,,,,,,,,,,,,,,,,,,,,,,,,,,,,,,,,,,,,,,,291.7501836219999,None,291.7501836219999,None,291.7501836219999,None,g,1,0.7237417650003408,293.2820298910001,None,293.2820298910001,None,293.2820298910001,None,294.06512073999966,None,294.06512073999966,None,294.06512073999966,None,294.06512073999966,None,,,,,,,,,,,,,,,,,,,,,,,,,,,,,,,,,,,,,,,,,,,,001,77,2020_Feb_06_0957,spring_faces,3.1.5,59.973893603765724,
condition files/Stage0c_2.xlsx,0c,theta,beta,g,"['h', 'g']","['Chess', 'Go']","[-0.15, 0.5]","[0.15, 0.5]",1,1,0,15,15,15,0,2,2,2,,,,,,,,,,,,,,,,,,,,,,,,,,,,,,,,,,,,,,,,,,,,,,,,,,,,,,,,,,,,,,,296.03168658100003,None,296.03168658100003,None,296.03168658100003,None,g,1,0.792061888999342,297.5657108059995,None,297.5657108059995,None,297.5657108059995,None,298.3994118159999,None,298.3994118159999,None,298.3994118159999,None,298.3994118159999,None,,,,,,,,,,,,,,,,,,,,,,,,,,,,,,,,,,,,,,,,,,,,001,77,2020_Feb_06_0957,spring_faces,3.1.5,59.973893603765724,
condition files/Stage0c_2.xlsx,0c,phi,alpha,h,"['h', 'g']","['Chess', 'Go']","[-0.15, 0.5]","[0.15, 0.5]",1,1,0,15,15,15,0,3,3,1,,,,,,,,,,,,,,,,,,,,,,,,,,,,,,,,,,,,,,,,,,,,,,,,,,,,,,,,,,,,,,,300.3823165650001,None,300.3823165650001,None,300.3823165650001,None,h,1,0.5861086479999358,301.9156074949997,None,301.9156074949997,None,301.9156074949997,None,302.56577498599927,None,302.56577498599927,None,302.56577498599927,None,302.56577498599927,None,,,,,,,,,,,,,,,,,,,,,,,,,,,,,,,,,,,,,,,,,,,,001,77,2020_Feb_06_0957,spring_faces,3.1.5,59.973893603765724,
condition files/Stage0c_1.xlsx,0c,theta,alpha,h,"['h', 'g']","['Chess', 'Go']","[-0.15, 0.5]","[0.15, 0.5]",1,1,0,16,16,16,0,0,0,0,,,,,,,,,,,,,,,,,,,,,,,,,,,,,,,,,,,,,,,,,,,,,,,,,,,,,,,,,,,,,,,304.54874786299933,None,304.54874786299933,None,304.54874786299933,None,h,1,0.7554905570004848,306.0822421739995,None,306.0822421739995,None,306.0822421739995,None,306.8848602069993,None,306.8848602069993,None,306.8848602069993,None,306.8848602069993,None,,,,,,,,,,,,,,,,,,,,,,,,,,,,,,,,,,,,,,,,,,,,001,77,2020_Feb_06_0957,spring_faces,3.1.5,59.973893603765724,
condition files/Stage0c_1.xlsx,0c,phi,beta,g,"['h', 'g']","['Chess', 'Go']","[-0.15, 0.5]","[0.15, 0.5]",1,1,0,16,16,16,0,1,1,3,,,,,,,,,,,,,,,,,,,,,,,,,,,,,,,,,,,,,,,,,,,,,,,,,,,,,,,,,,,,,,,308.8650671959995,None,308.8650671959995,None,308.8650671959995,None,g,1,0.6305799739993745,310.39913311799955,None,310.39913311799955,None,310.39913311799955,None,311.08213404899925,None,311.08213404899925,None,311.08213404899925,None,311.08213404899925,None,,,,,,,,,,,,,,,,,,,,,,,,,,,,,,,,,,,,,,,,,,,,001,77,2020_Feb_06_0957,spring_faces,3.1.5,59.973893603765724,
condition files/Stage0c_1.xlsx,0c,beta,theta,g,"['h', 'g']","['Chess', 'Go']","[-0.15, 0.5]","[0.15, 0.5]",1,1,0,16,16,16,0,2,2,2,,,,,,,,,,,,,,,,,,,,,,,,,,,,,,,,,,,,,,,,,,,,,,,,,,,,,,,,,,,,,,,313.0486808659998,None,313.0486808659998,None,313.0486808659998,None,g,1,1.1834823340004732,314.58219666199966,None,314.58219666199966,None,314.58219666199966,None,315.800914077,None,315.800914077,None,315.800914077,None,315.800914077,None,,,,,,,,,,,,,,,,,,,,,,,,,,,,,,,,,,,,,,,,,,,,001,77,2020_Feb_06_0957,spring_faces,3.1.5,59.973893603765724,
condition files/Stage0c_1.xlsx,0c,alpha,phi,h,"['h', 'g']","['Chess', 'Go']","[-0.15, 0.5]","[0.15, 0.5]",1,1,0,16,16,16,0,3,3,1,,,,,,,,,,,,,,,,,,,,,,,,,,,,,,,,,,,,,,,,,,,,,,,,,,,,,,,,,,,,,,,317.7819406389999,None,317.7819406389999,None,317.7819406389999,None,h,1,0.9302462710002146,319.3154321960001,None,319.3154321960001,None,319.3154321960001,None,320.29881627099985,None,320.29881627099985,None,320.29881627099985,None,320.29881627099985,None,,,,,,,,,,,,,,,,,,,,,,,,,,,,,,,,,,,,,,,,,,,,001,77,2020_Feb_06_0957,spring_faces,3.1.5,59.973893603765724,
condition files/Stage0c_2.xlsx,0c,alpha,theta,h,"['h', 'g']","['Chess', 'Go']","[-0.15, 0.5]","[0.15, 0.5]",1,1,0,17,17,17,0,0,0,0,,,,,,,,,,,,,,,,,,,,,,,,,,,,,,,,,,,,,,,,,,,,,,,,,,,,,,,,,,,,,,,322.2823654240001,None,322.2823654240001,None,322.2823654240001,None,h,1,0.7978219319993514,323.81592299599924,None,323.81592299599924,None,323.81592299599924,None,324.66565094,None,324.66565094,None,324.66565094,None,324.66565094,None,,,,,,,,,,,,,,,,,,,,,,,,,,,,,,,,,,,,,,,,,,,,001,77,2020_Feb_06_0957,spring_faces,3.1.5,59.973893603765724,
condition files/Stage0c_2.xlsx,0c,beta,phi,g,"['h', 'g']","['Chess', 'Go']","[-0.15, 0.5]","[0.15, 0.5]",1,1,0,17,17,17,0,1,1,3,,,,,,,,,,,,,,,,,,,,,,,,,,,,,,,,,,,,,,,,,,,,,,,,,,,,,,,,,,,,,,,326.6321839479997,None,326.6321839479997,None,326.6321839479997,None,g,1,0.6244460790003359,328.16532683399964,None,328.16532683399964,None,328.16532683399964,None,328.84836770999937,None,328.84836770999937,None,328.84836770999937,None,328.84836770999937,None,,,,,,,,,,,,,,,,,,,,,,,,,,,,,,,,,,,,,,,,,,,,001,77,2020_Feb_06_0957,spring_faces,3.1.5,59.973893603765724,
condition files/Stage0c_2.xlsx,0c,phi,alpha,h,"['h', 'g']","['Chess', 'Go']","[-0.15, 0.5]","[0.15, 0.5]",1,1,0,17,17,17,0,2,2,1,,,,,,,,,,,,,,,,,,,,,,,,,,,,,,,,,,,,,,,,,,,,,,,,,,,,,,,,,,,,,,,330.81540254599986,None,330.81540254599986,None,330.81540254599986,None,h,1,0.9686140250005337,332.34910418599975,None,332.34910418599975,None,332.34910418599975,None,333.38184715899934,None,333.38184715899934,None,333.38184715899934,None,333.38184715899934,None,,,,,,,,,,,,,,,,,,,,,,,,,,,,,,,,,,,,,,,,,,,,001,77,2020_Feb_06_0957,spring_faces,3.1.5,59.973893603765724,
condition files/Stage0c_2.xlsx,0c,theta,beta,g,"['h', 'g']","['Chess', 'Go']","[-0.15, 0.5]","[0.15, 0.5]",1,1,0,17,17,17,0,3,3,2,,,,,,,,,,,,,,,,,,,,,,,,,,,,,,,,,,,,,,,,,,,,,,,,,,,,,,,,,,,,,,,335.3480621989993,None,335.3480621989993,None,335.3480621989993,None,g,1,0.804118997999467,336.8816229269996,None,336.8816229269996,None,336.8816229269996,None,337.7490559150001,None,337.7490559150001,None,337.7490559150001,None,337.7490559150001,None,,,,,,,,,,,,,,,,,,,,,,,,,,,,,,,,,,,,,,,,,,,,001,77,2020_Feb_06_0957,spring_faces,3.1.5,59.973893603765724,
,,,,,,,,,,,,,,,,,,,,,,,,,,,,,,,,,,,,,,,,,,,,,,,,,,,,,,,,,,,,,,,,,,,,,,,,,,,,,,,,,,,,,,,,,,,,,,,,,,,,,,,,339.7322752529999,None,space,2.969914272999631,344.73182919699957,None,,,,,,,,,,,,,,,,,,,,,,,,,,,,,,,,,,,,,,001,77,2020_Feb_06_0957,spring_faces,3.1.5,59.973893603765724,
condition files/Stage1_1.xlsx,,T4,B3,m,"['c', 'm']","['Clue', 'Monopoly']","[-0.15, 0.5]","[0.15, 0.5]",1,1,,,,,,,,,0,0,0,0,0,0,0,6,,,,,,,,,,,,,,,,,,,,,,,,,,,,,,,,,,,,,,,,,,,,,,,,,,,,,,,347.76502274299946,None,347.76502274299946,None,347.76502274299946,None,m,1,1.5869998240004861,349.2987570770001,None,349.2987570770001,None,349.2987570770001,None,350.9654714039998,None,350.9654714039998,None,350.9654714039998,None,350.9654714039998,None,,,,,,,344.73182919699957,None,,,,,,,,,,,,,,,,,,,,,,,,,,,,,,,,,,,,001,77,2020_Feb_06_0957,spring_faces,3.1.5,59.973893603765724,
condition files/Stage1_1.xlsx,,T1,B1,c,"['c', 'm']","['Clue', 'Monopoly']","[-0.15, 0.5]","[0.15, 0.5]",1,1,,,,,,,,,0,0,0,0,0,1,1,0,,,,,,,,,,,,,,,,,,,,,,,,,,,,,,,,,,,,,,,,,,,,,,,,,,,,,,,352.91533754099964,None,352.91533754099964,None,352.91533754099964,None,c,1,1.9067783950004014,354.4988528069998,None,354.4988528069998,None,354.4988528069998,None,356.466694449,None,356.466694449,None,356.466694449,None,356.466694449,None,,,,,,,,,,,,,,,,,,,,,,,,,,,,,,,,,,,,,,,,,,,,001,77,2020_Feb_06_0957,spring_faces,3.1.5,59.973893603765724,
condition files/Stage1_1.xlsx,,T3,B4,c,"['c', 'm']","['Clue', 'Monopoly']","[-0.15, 0.5]","[0.15, 0.5]",1,1,,,,,,,,,0,0,0,0,0,2,2,5,,,,,,,,,,,,,,,,,,,,,,,,,,,,,,,,,,,,,,,,,,,,,,,,,,,,,,,358.4320038189999,None,358.4320038189999,None,358.4320038189999,None,m,0,2.2465386800004126,359.99915380999937,None,359.99915380999937,None,359.99915380999937,None,362.2986648420001,None,362.2986648420001,None,362.2986648420001,None,362.2986648420001,None,,,,,,,,,,,,,,,,,,,,,,,,,,,,,,,,,,,,,,,,,,,,001,77,2020_Feb_06_0957,spring_faces,3.1.5,59.973893603765724,
condition files/Stage1_1.xlsx,,T2,B2,m,"['c', 'm']","['Clue', 'Monopoly']","[-0.15, 0.5]","[0.15, 0.5]",1,1,,,,,,,,,0,0,0,0,0,3,3,3,,,,,,,,,,,,,,,,,,,,,,,,,,,,,,,,,,,,,,,,,,,,,,,,,,,,,,,364.26534313199954,None,364.26534313199954,None,364.26534313199954,None,c,0,1.4842007730003388,365.8495280779998,None,365.8495280779998,None,365.8495280779998,None,367.41562922399953,None,367.41562922399953,None,367.41562922399953,None,367.41562922399953,None,,,,,,,,,,,,,,,,,,,,,,,,,,,,,,,,,,,,,,,,,,,,001,77,2020_Feb_06_0957,spring_faces,3.1.5,59.973893603765724,
condition files/Stage1_1.xlsx,,B2,T1,m,"['c', 'm']","['Clue', 'Monopoly']","[-0.15, 0.5]","[0.15, 0.5]",1,1,,,,,,,,,0,0,0,0,0,4,4,2,,,,,,,,,,,,,,,,,,,,,,,,,,,,,,,,,,,,,,,,,,,,,,,,,,,,,,,369.3653676849999,None,369.3653676849999,None,369.3653676849999,None,m,1,1.0902382880003643,370.91555951899954,None,370.91555951899954,None,370.91555951899954,None,372.06554653999956,None,372.06554653999956,None,372.06554653999956,None,372.06554653999956,None,,,,,,,,,,,,,,,,,,,,,,,,,,,,,,,,,,,,,,,,,,,,001,77,2020_Feb_06_0957,spring_faces,3.1.5,59.973893603765724,
condition files/Stage1_1.xlsx,,B4,T4,m,"['c', 'm']","['Clue', 'Monopoly']","[-0.15, 0.5]","[0.15, 0.5]",1,1,,,,,,,,,0,0,0,0,0,5,5,7,,,,,,,,,,,,,,,,,,,,,,,,,,,,,,,,,,,,,,,,,,,,,,,,,,,,,,,374.0320587219994,None,374.0320587219994,None,374.0320587219994,None,c,0,3.288040655000259,375.5816909639998,None,375.5816909639998,None,375.5816909639998,None,378.9321799439995,None,378.9321799439995,None,378.9321799439995,None,378.9321799439995,None,,,,,,,,,,,,,,,,,,,,,,,,,,,,,,,,,,,,,,,,,,,,001,77,2020_Feb_06_0957,spring_faces,3.1.5,59.973893603765724,
condition files/Stage1_1.xlsx,,B1,T2,c,"['c', 'm']","['Clue', 'Monopoly']","[-0.15, 0.5]","[0.15, 0.5]",1,1,,,,,,,,,0,0,0,0,0,6,6,1,,,,,,,,,,,,,,,,,,,,,,,,,,,,,,,,,,,,,,,,,,,,,,,,,,,,,,,380.8983636739995,None,380.8983636739995,None,380.8983636739995,None,c,1,1.3020057459998498,382.43172819399933,None,382.43172819399933,None,382.43172819399933,None,383.798993718,None,383.798993718,None,383.798993718,None,383.798993718,None,,,,,,,,,,,,,,,,,,,,,,,,,,,,,,,,,,,,,,,,,,,,001,77,2020_Feb_06_0957,spring_faces,3.1.5,59.973893603765724,
condition files/Stage1_1.xlsx,,B3,T3,c,"['c', 'm']","['Clue', 'Monopoly']","[-0.15, 0.5]","[0.15, 0.5]",1,1,,,,,,,,,0,0,0,0,0,7,7,4,,,,,,,,,,,,,,,,,,,,,,,,,,,,,,,,,,,,,,,,,,,,,,,,,,,,,,,385.765505372,None,385.765505372,None,385.765505372,None,m,0,1.28294099499999,387.29880169399985,None,387.29880169399985,None,387.29880169399985,None,388.63180226699933,None,388.63180226699933,None,388.63180226699933,None,388.63180226699933,None,,,,,,,,,,,,,,,,,,,,,,,,,,,,,,,,,,,,,,,,,,,,001,77,2020_Feb_06_0957,spring_faces,3.1.5,59.973893603765724,
condition files/Stage1_2.xlsx,,T2,B1,c,"['c', 'm']","['Clue', 'Monopoly']","[-0.15, 0.5]","[0.15, 0.5]",1,1,,,,,,,,,0,1,1,1,0,0,0,1,,,,,,,,,,,,,,,,,,,,,,,,,,,,,,,,,,,,,,,,,,,,,,,,,,,,,,,390.6159034839993,None,390.6159034839993,None,390.6159034839993,None,c,1,0.8971574810002494,392.1485159499998,None,392.1485159499998,None,392.1485159499998,None,393.0987208059996,None,393.0987208059996,None,393.0987208059996,None,393.0987208059996,None,,,,,,,,,,,,,,,,,,,,,,,,,,,,,,,,,,,,,,,,,,,,001,77,2020_Feb_06_0957,spring_faces,3.1.5,59.973893603765724,
condition files/Stage1_2.xlsx,,T3,B3,c,"['c', 'm']","['Clue', 'Monopoly']","[-0.15, 0.5]","[0.15, 0.5]",1,1,,,,,,,,,0,1,1,1,0,1,1,4,,,,,,,,,,,,,,,,,,,,,,,,,,,,,,,,,,,,,,,,,,,,,,,,,,,,,,,395.06472839099933,None,395.06472839099933,None,395.06472839099933,None,c,1,2.255248620999737,396.59851375699964,None,396.59851375699964,None,396.59851375699964,None,398.91566895100004,None,398.91566895100004,None,398.91566895100004,None,398.91566895100004,None,,,,,,,,,,,,,,,,,,,,,,,,,,,,,,,,,,,,,,,,,,,,001,77,2020_Feb_06_0957,spring_faces,3.1.5,59.973893603765724,
condition files/Stage1_2.xlsx,,T1,B2,m,"['c', 'm']","['Clue', 'Monopoly']","[-0.15, 0.5]","[0.15, 0.5]",1,1,,,,,,,,,0,1,1,1,0,2,2,2,,,,,,,,,,,,,,,,,,,,,,,,,,,,,,,,,,,,,,,,,,,,,,,,,,,,,,,400.8820013409995,None,400.8820013409995,None,400.8820013409995,None,m,1,1.7824207749999914,402.4153154709993,None,402.4153154709993,None,402.4153154709993,None,404.2503068769993,None,404.2503068769993,None,404.2503068769993,None,404.2503068769993,None,,,,,,,,,,,,,,,,,,,,,,,,,,,,,,,,,,,,,,,,,,,,001,77,2020_Feb_06_0957,spring_faces,3.1.5,59.973893603765724,
condition files/Stage1_2.xlsx,,B1,T1,c,"['c', 'm']","['Clue', 'Monopoly']","[-0.15, 0.5]","[0.15, 0.5]",1,1,,,,,,,,,0,1,1,1,0,3,3,0,,,,,,,,,,,,,,,,,,,,,,,,,,,,,,,,,,,,,,,,,,,,,,,,,,,,,,,406.2154170999993,None,406.2154170999993,None,406.2154170999993,None,c,1,1.3280818650000583,407.74960590799947,None,407.74960590799947,None,407.74960590799947,None,409.1338868550001,None,409.1338868550001,None,409.1338868550001,None,409.1338868550001,None,,,,,,,,,,,,,,,,,,,,,,,,,,,,,,,,,,,,,,,,,,,,001,77,2020_Feb_06_0957,spring_faces,3.1.5,59.973893603765724,
condition files/Stage1_2.xlsx,,T4,B4,m,"['c', 'm']","['Clue', 'Monopoly']","[-0.15, 0.5]","[0.15, 0.5]",1,1,,,,,,,,,0,1,1,1,0,4,4,7,,,,,,,,,,,,,,,,,,,,,,,,,,,,,,,,,,,,,,,,,,,,,,,,,,,,,,,411.09835751099945,None,411.09835751099945,None,411.09835751099945,None,m,1,1.3091668080005547,412.63252177899994,None,412.63252177899994,None,412.63252177899994,None,414.00154552999993,None,414.00154552999993,None,414.00154552999993,None,414.00154552999993,None,,,,,,,,,,,,,,,,,,,,,,,,,,,,,,,,,,,,,,,,,,,,001,77,2020_Feb_06_0957,spring_faces,3.1.5,59.973893603765724,
condition files/Stage1_2.xlsx,,B3,T4,m,"['c', 'm']","['Clue', 'Monopoly']","[-0.15, 0.5]","[0.15, 0.5]",1,1,,,,,,,,,0,1,1,1,0,5,5,6,,,,,,,,,,,,,,,,,,,,,,,,,,,,,,,,,,,,,,,,,,,,,,,,,,,,,,,415.9651862569999,None,415.9651862569999,None,415.9651862569999,None,m,1,1.355265727999722,417.49850124299974,None,417.49850124299974,None,417.49850124299974,None,418.91548712999975,None,418.91548712999975,None,418.91548712999975,None,418.91548712999975,None,,,,,,,,,,,,,,,,,,,,,,,,,,,,,,,,,,,,,,,,,,,,001,77,2020_Feb_06_0957,spring_faces,3.1.5,59.973893603765724,
condition files/Stage1_2.xlsx,,B2,T2,m,"['c', 'm']","['Clue', 'Monopoly']","[-0.15, 0.5]","[0.15, 0.5]",1,1,,,,,,,,,0,1,1,1,0,6,6,3,,,,,,,,,,,,,,,,,,,,,,,,,,,,,,,,,,,,,,,,,,,,,,,,,,,,,,,420.8825055469997,None,420.8825055469997,None,420.8825055469997,None,c,0,2.0539810810005292,422.41577763199984,None,422.41577763199984,None,422.41577763199984,None,424.53173982299995,None,424.53173982299995,None,424.53173982299995,None,424.53173982299995,None,,,,,,,,,,,,,,,,,,,,,,,,,,,,,,,,,,,,,,,,,,,,001,77,2020_Feb_06_0957,spring_faces,3.1.5,59.973893603765724,
condition files/Stage1_2.xlsx,,B4,T3,c,"['c', 'm']","['Clue', 'Monopoly']","[-0.15, 0.5]","[0.15, 0.5]",1,1,,,,,,,,,0,1,1,1,0,7,7,5,,,,,,,,,,,,,,,,,,,,,,,,,,,,,,,,,,,,,,,,,,,,,,,,,,,,,,,426.49881118099984,None,426.49881118099984,None,426.49881118099984,None,m,0,3.811515182999756,428.0342857129999,None,428.0342857129999,None,428.0342857129999,None,431.9006695139997,None,431.9006695139997,None,431.9006695139997,None,431.9006695139997,None,,,,,,,,,,,,,,,,,,,,,,,,,,,,,,,,,,,,,,,,,,,,001,77,2020_Feb_06_0957,spring_faces,3.1.5,59.973893603765724,
condition files/Stage1_1.xlsx,,T2,B2,m,"['c', 'm']","['Clue', 'Monopoly']","[-0.15, 0.5]","[0.15, 0.5]",1,1,,,,,,,,,0,2,2,2,0,0,0,3,,,,,,,,,,,,,,,,,,,,,,,,,,,,,,,,,,,,,,,,,,,,,,,,,,,,,,,433.8819468219999,None,433.8819468219999,None,433.8819468219999,None,m,1,1.6439753229997223,435.417756674,None,435.417756674,None,435.417756674,None,437.13199856199935,None,437.13199856199935,None,437.13199856199935,None,437.13199856199935,None,,,,,,,,,,,,,,,,,,,,,,,,,,,,,,,,,,,,,,,,,,,,001,77,2020_Feb_06_0957,spring_faces,3.1.5,59.973893603765724,
condition files/Stage1_1.xlsx,,T3,B4,c,"['c', 'm']","['Clue', 'Monopoly']","[-0.15, 0.5]","[0.15, 0.5]",1,1,,,,,,,,,0,2,2,2,0,1,1,5,,,,,,,,,,,,,,,,,,,,,,,,,,,,,,,,,,,,,,,,,,,,,,,,,,,,,,,439.08193856899925,None,439.08193856899925,None,439.08193856899925,None,m,0,2.4443093540003247,440.61746283999946,None,440.61746283999946,None,440.61746283999946,None,443.1161606810001,None,443.1161606810001,None,443.1161606810001,None,443.1161606810001,None,,,,,,,,,,,,,,,,,,,,,,,,,,,,,,,,,,,,,,,,,,,,001,77,2020_Feb_06_0957,spring_faces,3.1.5,59.973893603765724,
condition files/Stage1_1.xlsx,,T1,B1,c,"['c', 'm']","['Clue', 'Monopoly']","[-0.15, 0.5]","[0.15, 0.5]",1,1,,,,,,,,,0,2,2,2,0,2,2,0,,,,,,,,,,,,,,,,,,,,,,,,,,,,,,,,,,,,,,,,,,,,,,,,,,,,,,,445.08205559399994,None,445.08205559399994,None,445.08205559399994,None,c,1,1.181777312000122,446.63194592999935,None,446.63194592999935,None,446.63194592999935,None,447.8654537849998,None,447.8654537849998,None,447.8654537849998,None,447.8654537849998,None,,,,,,,,,,,,,,,,,,,,,,,,,,,,,,,,,,,,,,,,,,,,001,77,2020_Feb_06_0957,spring_faces,3.1.5,59.973893603765724,
condition files/Stage1_1.xlsx,,B3,T3,c,"['c', 'm']","['Clue', 'Monopoly']","[-0.15, 0.5]","[0.15, 0.5]",1,1,,,,,,,,,0,2,2,2,0,3,3,4,,,,,,,,,,,,,,,,,,,,,,,,,,,,,,,,,,,,,,,,,,,,,,,,,,,,,,,449.83179203300006,None,449.83179203300006,None,449.83179203300006,None,c,1,3.6630095800001072,451.3667169649998,None,451.3667169649998,None,451.3667169649998,None,455.08161463799934,None,455.08161463799934,None,455.08161463799934,None,455.08161463799934,None,,,,,,,,,,,,,,,,,,,,,,,,,,,,,,,,,,,,,,,,,,,,001,77,2020_Feb_06_0957,spring_faces,3.1.5,59.973893603765724,
condition files/Stage1_1.xlsx,,B4,T4,m,"['c', 'm']","['Clue', 'Monopoly']","[-0.15, 0.5]","[0.15, 0.5]",1,1,,,,,,,,,0,2,2,2,0,4,4,7,,,,,,,,,,,,,,,,,,,,,,,,,,,,,,,,,,,,,,,,,,,,,,,,,,,,,,,457.04809231799936,None,457.04809231799936,None,457.04809231799936,None,m,1,0.9093576129998837,458.5843241089997,None,458.5843241089997,None,458.5843241089997,None,459.55102031599927,None,459.55102031599927,None,459.55102031599927,None,459.55102031599927,None,,,,,,,,,,,,,,,,,,,,,,,,,,,,,,,,,,,,,,,,,,,,001,77,2020_Feb_06_0957,spring_faces,3.1.5,59.973893603765724,
condition files/Stage1_1.xlsx,,B2,T1,m,"['c', 'm']","['Clue', 'Monopoly']","[-0.15, 0.5]","[0.15, 0.5]",1,1,,,,,,,,,0,2,2,2,0,5,5,2,,,,,,,,,,,,,,,,,,,,,,,,,,,,,,,,,,,,,,,,,,,,,,,,,,,,,,,461.51547301999926,None,461.51547301999926,None,461.51547301999926,None,m,1,3.0530398719993173,463.0487175649996,None,463.0487175649996,None,463.0487175649996,None,466.1654404459996,None,466.1654404459996,None,466.1654404459996,None,466.1654404459996,None,,,,,,,,,,,,,,,,,,,,,,,,,,,,,,,,,,,,,,,,,,,,001,77,2020_Feb_06_0957,spring_faces,3.1.5,59.973893603765724,
condition files/Stage1_1.xlsx,,T4,B3,m,"['c', 'm']","['Clue', 'Monopoly']","[-0.15, 0.5]","[0.15, 0.5]",1,1,,,,,,,,,0,2,2,2,0,6,6,6,,,,,,,,,,,,,,,,,,,,,,,,,,,,,,,,,,,,,,,,,,,,,,,,,,,,,,,468.1320696399998,None,468.1320696399998,None,468.1320696399998,None,m,1,1.924091918999693,469.66567677199964,None,469.66567677199964,None,469.66567677199964,None,471.6487622659997,None,471.6487622659997,None,471.6487622659997,None,471.6487622659997,None,,,,,,,,,,,,,,,,,,,,,,,,,,,,,,,,,,,,,,,,,,,,001,77,2020_Feb_06_0957,spring_faces,3.1.5,59.973893603765724,
condition files/Stage1_1.xlsx,,B1,T2,c,"['c', 'm']","['Clue', 'Monopoly']","[-0.15, 0.5]","[0.15, 0.5]",1,1,,,,,,,,,0,2,2,2,0,7,7,1,,,,,,,,,,,,,,,,,,,,,,,,,,,,,,,,,,,,,,,,,,,,,,,,,,,,,,,473.6147399249994,None,473.6147399249994,None,473.6147399249994,None,c,1,1.6094261230000484,475.1483733599998,None,475.1483733599998,None,475.1483733599998,None,476.8153835899993,None,476.8153835899993,None,476.8153835899993,None,476.8153835899993,None,,,,,,,,,,,,,,,,,,,,,,,,,,,,,,,,,,,,,,,,,,,,001,77,2020_Feb_06_0957,spring_faces,3.1.5,59.973893603765724,
condition files/Stage1_2.xlsx,,T1,B2,m,"['c', 'm']","['Clue', 'Monopoly']","[-0.15, 0.5]","[0.15, 0.5]",1,1,,,,,,,,,0,3,3,3,0,0,0,2,,,,,,,,,,,,,,,,,,,,,,,,,,,,,,,,,,,,,,,,,,,,,,,,,,,,,,,478.79881297799966,None,478.79881297799966,None,478.79881297799966,None,m,1,0.9372202909999032,480.3325636999998,None,480.3325636999998,None,480.3325636999998,None,481.3323837019998,None,481.3323837019998,None,481.3323837019998,None,481.3323837019998,None,,,,,,,,,,,,,,,,,,,,,,,,,,,,,,,,,,,,,,,,,,,,001,77,2020_Feb_06_0957,spring_faces,3.1.5,59.973893603765724,
condition files/Stage1_2.xlsx,,T3,B3,c,"['c', 'm']","['Clue', 'Monopoly']","[-0.15, 0.5]","[0.15, 0.5]",1,1,,,,,,,,,0,3,3,3,0,1,1,4,,,,,,,,,,,,,,,,,,,,,,,,,,,,,,,,,,,,,,,,,,,,,,,,,,,,,,,483.29876753400004,None,483.29876753400004,None,483.29876753400004,None,c,1,1.3010749169998235,484.8326065149995,None,484.8326065149995,None,484.8326065149995,None,486.1994633309996,None,486.1994633309996,None,486.1994633309996,None,486.1994633309996,None,,,,,,,,,,,,,,,,,,,,,,,,,,,,,,,,,,,,,,,,,,,,001,77,2020_Feb_06_0957,spring_faces,3.1.5,59.973893603765724,
condition files/Stage1_2.xlsx,,T4,B4,m,"['c', 'm']","['Clue', 'Monopoly']","[-0.15, 0.5]","[0.15, 0.5]",1,1,,,,,,,,,0,3,3,3,0,2,2,7,,,,,,,,,,,,,,,,,,,,,,,,,,,,,,,,,,,,,,,,,,,,,,,,,,,,,,,488.1653429429998,None,488.1653429429998,None,488.1653429429998,None,m,1,1.0111534890002076,489.69859517199984,None,489.69859517199984,None,489.69859517199984,None,490.7823226089995,None,490.7823226089995,None,490.7823226089995,None,490.7823226089995,None,,,,,,,,,,,,,,,,,,,,,,,,,,,,,,,,,,,,,,,,,,,,001,77,2020_Feb_06_0957,spring_faces,3.1.5,59.973893603765724,
condition files/Stage1_2.xlsx,,B4,T3,c,"['c', 'm']","['Clue', 'Monopoly']","[-0.15, 0.5]","[0.15, 0.5]",1,1,,,,,,,,,0,3,3,3,0,3,3,5,,,,,,,,,,,,,,,,,,,,,,,,,,,,,,,,,,,,,,,,,,,,,,,,,,,,,,,492.73130288299944,None,492.73130288299944,None,492.73130288299944,None,m,0,3.4511638610001683,494.26656087299943,None,494.26656087299943,None,494.26656087299943,None,497.7841050549996,None,497.7841050549996,None,497.7841050549996,None,497.7841050549996,None,,,,,,,,,,,,,,,,,,,,,,,,,,,,,,,,,,,,,,,,,,,,001,77,2020_Feb_06_0957,spring_faces,3.1.5,59.973893603765724,
condition files/Stage1_2.xlsx,,B1,T1,c,"['c', 'm']","['Clue', 'Monopoly']","[-0.15, 0.5]","[0.15, 0.5]",1,1,,,,,,,,,0,3,3,3,0,4,4,0,,,,,,,,,,,,,,,,,,,,,,,,,,,,,,,,,,,,,,,,,,,,,,,,,,,,,,,499.7487848669998,None,499.7487848669998,None,499.7487848669998,None,c,1,1.2990780919999452,501.28267511299964,None,501.28267511299964,None,501.28267511299964,None,502.63226370099983,None,502.63226370099983,None,502.63226370099983,None,502.63226370099983,None,,,,,,,,,,,,,,,,,,,,,,,,,,,,,,,,,,,,,,,,,,,,001,77,2020_Feb_06_0957,spring_faces,3.1.5,59.973893603765724,
condition files/Stage1_2.xlsx,,B2,T2,m,"['c', 'm']","['Clue', 'Monopoly']","[-0.15, 0.5]","[0.15, 0.5]",1,1,,,,,,,,,0,3,3,3,0,5,5,3,,,,,,,,,,,,,,,,,,,,,,,,,,,,,,,,,,,,,,,,,,,,,,,,,,,,,,,504.59823854799924,None,504.59823854799924,None,504.59823854799924,None,c,0,2.7843060420000256,506.1334232019999,None,506.1334232019999,None,506.1334232019999,None,508.98400030099947,None,508.98400030099947,None,508.98400030099947,None,508.98400030099947,None,,,,,,,,,,,,,,,,,,,,,,,,,,,,,,,,,,,,,,,,,,,,001,77,2020_Feb_06_0957,spring_faces,3.1.5,59.973893603765724,
condition files/Stage1_2.xlsx,,B3,T4,m,"['c', 'm']","['Clue', 'Monopoly']","[-0.15, 0.5]","[0.15, 0.5]",1,1,,,,,,,,,0,3,3,3,0,6,6,6,,,,,,,,,,,,,,,,,,,,,,,,,,,,,,,,,,,,,,,,,,,,,,,,,,,,,,,510.94853337899985,None,510.94853337899985,None,510.94853337899985,None,m,1,3.331780133999928,512.4819635289996,None,512.4819635289996,None,512.4819635289996,None,515.8652758049993,None,515.8652758049993,None,515.8652758049993,None,515.8652758049993,None,,,,,,,,,,,,,,,,,,,,,,,,,,,,,,,,,,,,,,,,,,,,001,77,2020_Feb_06_0957,spring_faces,3.1.5,59.973893603765724,
condition files/Stage1_2.xlsx,,T2,B1,c,"['c', 'm']","['Clue', 'Monopoly']","[-0.15, 0.5]","[0.15, 0.5]",1,1,,,,,,,,,0,3,3,3,0,7,7,1,,,,,,,,,,,,,,,,,,,,,,,,,,,,,,,,,,,,,,,,,,,,,,,,,,,,,,,517.8320092690001,None,517.8320092690001,None,517.8320092690001,None,c,1,1.8080552060000628,519.3657394029997,None,519.3657394029997,None,519.3657394029997,None,521.2489033349993,None,521.2489033349993,None,521.2489033349993,None,521.2489033349993,None,,,,,,,,,,,,,,,,,,,,,,,,,,,,,,,,,,,,,,,,,,,,001,77,2020_Feb_06_0957,spring_faces,3.1.5,59.973893603765724,
condition files/Stage1_1.xlsx,,B3,T3,c,"['c', 'm']","['Clue', 'Monopoly']","[-0.15, 0.5]","[0.15, 0.5]",1,1,,,,,,,,,0,4,4,4,0,0,0,4,,,,,,,,,,,,,,,,,,,,,,,,,,,,,,,,,,,,,,,,,,,,,,,,,,,,,,,523.2155697689996,None,523.2155697689996,None,523.2155697689996,None,m,0,2.0240669089998846,524.7497214119994,None,524.7497214119994,None,524.7497214119994,None,526.8325508970001,None,526.8325508970001,None,526.8325508970001,None,526.8325508970001,None,,,,,,,,,,,,,,,,,,,,,,,,,,,,,,,,,,,,,,,,,,,,001,77,2020_Feb_06_0957,spring_faces,3.1.5,59.973893603765724,
condition files/Stage1_1.xlsx,,T3,B4,c,"['c', 'm']","['Clue', 'Monopoly']","[-0.15, 0.5]","[0.15, 0.5]",1,1,,,,,,,,,0,4,4,4,0,1,1,5,,,,,,,,,,,,,,,,,,,,,,,,,,,,,,,,,,,,,,,,,,,,,,,,,,,,,,,528.7986919589994,None,528.7986919589994,None,528.7986919589994,None,c,1,0.8247059529994658,530.3490730779995,None,530.3490730779995,None,530.3490730779995,None,531.2319396559997,None,531.2319396559997,None,531.2319396559997,None,531.2319396559997,None,,,,,,,,,,,,,,,,,,,,,,,,,,,,,,,,,,,,,,,,,,,,001,77,2020_Feb_06_0957,spring_faces,3.1.5,59.973893603765724,
condition files/Stage1_1.xlsx,,B4,T4,m,"['c', 'm']","['Clue', 'Monopoly']","[-0.15, 0.5]","[0.15, 0.5]",1,1,,,,,,,,,0,4,4,4,0,2,2,7,,,,,,,,,,,,,,,,,,,,,,,,,,,,,,,,,,,,,,,,,,,,,,,,,,,,,,,533.1982937519997,None,533.1982937519997,None,533.1982937519997,None,m,1,1.0648273529996004,534.7329284070001,None,534.7329284070001,None,534.7329284070001,None,535.8659423939998,None,535.8659423939998,None,535.8659423939998,None,535.8659423939998,None,,,,,,,,,,,,,,,,,,,,,,,,,,,,,,,,,,,,,,,,,,,,001,77,2020_Feb_06_0957,spring_faces,3.1.5,59.973893603765724,
condition files/Stage1_1.xlsx,,T4,B3,m,"['c', 'm']","['Clue', 'Monopoly']","[-0.15, 0.5]","[0.15, 0.5]",1,1,,,,,,,,,0,4,4,4,0,3,3,6,,,,,,,,,,,,,,,,,,,,,,,,,,,,,,,,,,,,,,,,,,,,,,,,,,,,,,,537.8151310619996,None,537.8151310619996,None,537.8151310619996,None,m,1,1.6327864550003142,539.3489539369994,None,539.3489539369994,None,539.3489539369994,None,541.031919774,None,541.031919774,None,541.031919774,None,541.031919774,None,,,,,,,,,,,,,,,,,,,,,,,,,,,,,,,,,,,,,,,,,,,,001,77,2020_Feb_06_0957,spring_faces,3.1.5,59.973893603765724,
condition files/Stage1_1.xlsx,,T2,B2,m,"['c', 'm']","['Clue', 'Monopoly']","[-0.15, 0.5]","[0.15, 0.5]",1,1,,,,,,,,,0,4,4,4,0,4,4,3,,,,,,,,,,,,,,,,,,,,,,,,,,,,,,,,,,,,,,,,,,,,,,,,,,,,,,,542.998653439,None,542.998653439,None,542.998653439,None,c,0,1.473935815999539,544.5318832189996,None,544.5318832189996,None,544.5318832189996,None,546.0656612960001,None,546.0656612960001,None,546.0656612960001,None,546.0656612960001,None,,,,,,,,,,,,,,,,,,,,,,,,,,,,,,,,,,,,,,,,,,,,001,77,2020_Feb_06_0957,spring_faces,3.1.5,59.973893603765724,
condition files/Stage1_1.xlsx,,B1,T2,c,"['c', 'm']","['Clue', 'Monopoly']","[-0.15, 0.5]","[0.15, 0.5]",1,1,,,,,,,,,0,4,4,4,0,5,5,1,,,,,,,,,,,,,,,,,,,,,,,,,,,,,,,,,,,,,,,,,,,,,,,,,,,,,,,548.03200474,None,548.03200474,None,548.03200474,None,c,1,1.0323604370005341,549.5653950759997,None,549.5653950759997,None,549.5653950759997,None,550.651437173,None,550.651437173,None,550.651437173,None,550.651437173,None,,,,,,,,,,,,,,,,,,,,,,,,,,,,,,,,,,,,,,,,,,,,001,77,2020_Feb_06_0957,spring_faces,3.1.5,59.973893603765724,
condition files/Stage1_1.xlsx,,B2,T1,m,"['c', 'm']","['Clue', 'Monopoly']","[-0.15, 0.5]","[0.15, 0.5]",1,1,,,,,,,,,0,4,4,4,0,6,6,2,,,,,,,,,,,,,,,,,,,,,,,,,,,,,,,,,,,,,,,,,,,,,,,,,,,,,,,552.6155289899998,None,552.6155289899998,None,552.6155289899998,None,m,1,1.167445654000403,554.1502825099997,None,554.1502825099997,None,554.1502825099997,None,555.3813639769996,None,555.3813639769996,None,555.3813639769996,None,555.3813639769996,None,,,,,,,,,,,,,,,,,,,,,,,,,,,,,,,,,,,,,,,,,,,,001,77,2020_Feb_06_0957,spring_faces,3.1.5,59.973893603765724,
condition files/Stage1_1.xlsx,,T1,B1,c,"['c', 'm']","['Clue', 'Monopoly']","[-0.15, 0.5]","[0.15, 0.5]",1,1,,,,,,,,,0,4,4,4,0,7,7,0,,,,,,,,,,,,,,,,,,,,,,,,,,,,,,,,,,,,,,,,,,,,,,,,,,,,,,,557.349218333,None,557.349218333,None,557.349218333,None,c,1,4.132271446999766,558.8814811899992,None,558.8814811899992,None,558.8814811899992,None,563.0823561329998,None,563.0823561329998,None,563.0823561329998,None,563.0823561329998,None,,,,,,,,,,,,,,,,,,,,,,,,,,,,,,,,,,,,,,,,,,,,001,77,2020_Feb_06_0957,spring_faces,3.1.5,59.973893603765724,
condition files/Stage1_2.xlsx,,B3,T4,m,"['c', 'm']","['Clue', 'Monopoly']","[-0.15, 0.5]","[0.15, 0.5]",1,1,,,,,,,,,0,5,5,5,0,0,0,6,,,,,,,,,,,,,,,,,,,,,,,,,,,,,,,,,,,,,,,,,,,,,,,,,,,,,,,565.0489593049997,None,565.0489593049997,None,565.0489593049997,None,m,1,1.0559143600003154,566.5818339259995,None,566.5818339259995,None,566.5818339259995,None,567.6993556119996,None,567.6993556119996,None,567.6993556119996,None,567.6993556119996,None,,,,,,,,,,,,,,,,,,,,,,,,,,,,,,,,,,,,,,,,,,,,001,77,2020_Feb_06_0957,spring_faces,3.1.5,59.973893603765724,
condition files/Stage1_2.xlsx,,B4,T3,c,"['c', 'm']","['Clue', 'Monopoly']","[-0.15, 0.5]","[0.15, 0.5]",1,1,,,,,,,,,0,5,5,5,0,1,1,5,,,,,,,,,,,,,,,,,,,,,,,,,,,,,,,,,,,,,,,,,,,,,,,,,,,,,,,569.6655757469998,None,569.6655757469998,None,569.6655757469998,None,c,1,1.6691751119997207,571.2005810780001,None,571.2005810780001,None,571.2005810780001,None,572.9485147129999,None,572.9485147129999,None,572.9485147129999,None,572.9485147129999,None,,,,,,,,,,,,,,,,,,,,,,,,,,,,,,,,,,,,,,,,,,,,001,77,2020_Feb_06_0957,spring_faces,3.1.5,59.973893603765724,
condition files/Stage1_2.xlsx,,T4,B4,m,"['c', 'm']","['Clue', 'Monopoly']","[-0.15, 0.5]","[0.15, 0.5]",1,1,,,,,,,,,0,5,5,5,0,2,2,7,,,,,,,,,,,,,,,,,,,,,,,,,,,,,,,,,,,,,,,,,,,,,,,,,,,,,,,574.8986386979996,None,574.8986386979996,None,574.8986386979996,None,m,1,1.3017802360000132,576.4319196019997,None,576.4319196019997,None,576.4319196019997,None,577.8013187719998,None,577.8013187719998,None,577.8013187719998,None,577.8013187719998,None,,,,,,,,,,,,,,,,,,,,,,,,,,,,,,,,,,,,,,,,,,,,001,77,2020_Feb_06_0957,spring_faces,3.1.5,59.973893603765724,
condition files/Stage1_2.xlsx,,B2,T2,m,"['c', 'm']","['Clue', 'Monopoly']","[-0.15, 0.5]","[0.15, 0.5]",1,1,,,,,,,,,0,5,5,5,0,3,3,3,,,,,,,,,,,,,,,,,,,,,,,,,,,,,,,,,,,,,,,,,,,,,,,,,,,,,,,579.7653623369997,None,579.7653623369997,None,579.7653623369997,None,m,1,3.3795153149994803,581.2981963980001,None,581.2981963980001,None,581.2981963980001,None,584.7324492719999,None,584.7324492719999,None,584.7324492719999,None,584.7324492719999,None,,,,,,,,,,,,,,,,,,,,,,,,,,,,,,,,,,,,,,,,,,,,001,77,2020_Feb_06_0957,spring_faces,3.1.5,59.973893603765724,
condition files/Stage1_2.xlsx,,T2,B1,c,"['c', 'm']","['Clue', 'Monopoly']","[-0.15, 0.5]","[0.15, 0.5]",1,1,,,,,,,,,0,5,5,5,0,4,4,1,,,,,,,,,,,,,,,,,,,,,,,,,,,,,,,,,,,,,,,,,,,,,,,,,,,,,,,586.6986282549997,None,586.6986282549997,None,586.6986282549997,None,c,1,1.2927119980004136,588.2330754260001,None,588.2330754260001,None,588.2330754260001,None,589.5987183419993,None,589.5987183419993,None,589.5987183419993,None,589.5987183419993,None,,,,,,,,,,,,,,,,,,,,,,,,,,,,,,,,,,,,,,,,,,,,001,77,2020_Feb_06_0957,spring_faces,3.1.5,59.973893603765724,
condition files/Stage1_2.xlsx,,B1,T1,c,"['c', 'm']","['Clue', 'Monopoly']","[-0.15, 0.5]","[0.15, 0.5]",1,1,,,,,,,,,0,5,5,5,0,5,5,0,,,,,,,,,,,,,,,,,,,,,,,,,,,,,,,,,,,,,,,,,,,,,,,,,,,,,,,591.5488331319993,None,591.5488331319993,None,591.5488331319993,None,c,1,1.6584880579994206,593.083210666,None,593.083210666,None,593.083210666,None,594.7988413699995,None,594.7988413699995,None,594.7988413699995,None,594.7988413699995,None,,,,,,,,,,,,,,,,,,,,,,,,,,,,,,,,,,,,,,,,,,,,001,77,2020_Feb_06_0957,spring_faces,3.1.5,59.973893603765724,
condition files/Stage1_2.xlsx,,T1,B2,m,"['c', 'm']","['Clue', 'Monopoly']","[-0.15, 0.5]","[0.15, 0.5]",1,1,,,,,,,,,0,5,5,5,0,6,6,2,,,,,,,,,,,,,,,,,,,,,,,,,,,,,,,,,,,,,,,,,,,,,,,,,,,,,,,596.765154832,None,596.765154832,None,596.765154832,None,c,0,2.155266636000306,598.2984914819999,None,598.2984914819999,None,598.2984914819999,None,600.5149353209999,None,600.5149353209999,None,600.5149353209999,None,600.5149353209999,None,,,,,,,,,,,,,,,,,,,,,,,,,,,,,,,,,,,,,,,,,,,,001,77,2020_Feb_06_0957,spring_faces,3.1.5,59.973893603765724,
condition files/Stage1_2.xlsx,,T3,B3,c,"['c', 'm']","['Clue', 'Monopoly']","[-0.15, 0.5]","[0.15, 0.5]",1,1,,,,,,,,,0,5,5,5,0,7,7,4,,,,,,,,,,,,,,,,,,,,,,,,,,,,,,,,,,,,,,,,,,,,,,,,,,,,,,,602.4823783769998,None,602.4823783769998,None,602.4823783769998,None,c,1,1.2865557459999764,604.0151980199998,None,604.0151980199998,None,604.0151980199998,None,605.3659977179996,None,605.3659977179996,None,605.3659977179996,None,605.3659977179996,None,,,,,,,,,,,,,,,,,,,,,,,,,,,,,,,,,,,,,,,,,,,,001,77,2020_Feb_06_0957,spring_faces,3.1.5,59.973893603765724,
condition files/Stage1_1.xlsx,,T4,B3,m,"['c', 'm']","['Clue', 'Monopoly']","[-0.15, 0.5]","[0.15, 0.5]",1,1,,,,,,,,,0,6,6,6,0,0,0,6,,,,,,,,,,,,,,,,,,,,,,,,,,,,,,,,,,,,,,,,,,,,,,,,,,,,,,,607.3488785740001,None,607.3488785740001,None,607.3488785740001,None,m,1,0.9949986879992139,608.8987190079997,None,608.8987190079997,None,608.8987190079997,None,609.9659063789995,None,609.9659063789995,None,609.9659063789995,None,609.9659063789995,None,,,,,,,,,,,,,,,,,,,,,,,,,,,,,,,,,,,,,,,,,,,,001,77,2020_Feb_06_0957,spring_faces,3.1.5,59.973893603765724,
condition files/Stage1_1.xlsx,,B1,T2,c,"['c', 'm']","['Clue', 'Monopoly']","[-0.15, 0.5]","[0.15, 0.5]",1,1,,,,,,,,,0,6,6,6,0,1,1,1,,,,,,,,,,,,,,,,,,,,,,,,,,,,,,,,,,,,,,,,,,,,,,,,,,,,,,,611.9153487229996,None,611.9153487229996,None,611.9153487229996,None,c,1,1.117194507000022,613.4484688439998,None,613.4484688439998,None,613.4484688439998,None,614.6330309969999,None,614.6330309969999,None,614.6330309969999,None,614.6330309969999,None,,,,,,,,,,,,,,,,,,,,,,,,,,,,,,,,,,,,,,,,,,,,001,77,2020_Feb_06_0957,spring_faces,3.1.5,59.973893603765724,
condition files/Stage1_1.xlsx,,T2,B2,m,"['c', 'm']","['Clue', 'Monopoly']","[-0.15, 0.5]","[0.15, 0.5]",1,1,,,,,,,,,0,6,6,6,0,2,2,3,,,,,,,,,,,,,,,,,,,,,,,,,,,,,,,,,,,,,,,,,,,,,,,,,,,,,,,616.5984218939993,None,616.5984218939993,None,616.5984218939993,None,m,1,2.4172520009997243,618.1324524269994,None,618.1324524269994,None,618.1324524269994,None,620.6315053879998,None,620.6315053879998,None,620.6315053879998,None,620.6315053879998,None,,,,,,,,,,,,,,,,,,,,,,,,,,,,,,,,,,,,,,,,,,,,001,77,2020_Feb_06_0957,spring_faces,3.1.5,59.973893603765724,
condition files/Stage1_1.xlsx,,B2,T1,m,"['c', 'm']","['Clue', 'Monopoly']","[-0.15, 0.5]","[0.15, 0.5]",1,1,,,,,,,,,0,6,6,6,0,3,3,2,,,,,,,,,,,,,,,,,,,,,,,,,,,,,,,,,,,,,,,,,,,,,,,,,,,,,,,622.5819929339996,None,622.5819929339996,None,622.5819929339996,None,m,1,2.145350746999611,624.132360265,None,624.132360265,None,624.132360265,None,626.332335221,None,626.332335221,None,626.332335221,None,626.332335221,None,,,,,,,,,,,,,,,,,,,,,,,,,,,,,,,,,,,,,,,,,,,,001,77,2020_Feb_06_0957,spring_faces,3.1.5,59.973893603765724,
condition files/Stage1_1.xlsx,,T3,B4,c,"['c', 'm']","['Clue', 'Monopoly']","[-0.15, 0.5]","[0.15, 0.5]",1,1,,,,,,,,,0,6,6,6,0,4,4,5,,,,,,,,,,,,,,,,,,,,,,,,,,,,,,,,,,,,,,,,,,,,,,,,,,,,,,,628.2987582639998,None,628.2987582639998,None,628.2987582639998,None,c,1,2.667781823000041,629.8339754600001,None,629.8339754600001,None,629.8339754600001,None,632.5667499639994,None,632.5667499639994,None,632.5667499639994,None,632.5667499639994,None,,,,,,,,,,,,,,,,,,,,,,,,,,,,,,,,,,,,,,,,,,,,001,77,2020_Feb_06_0957,spring_faces,3.1.5,59.973893603765724,
condition files/Stage1_1.xlsx,,B3,T3,c,"['c', 'm']","['Clue', 'Monopoly']","[-0.15, 0.5]","[0.15, 0.5]",1,1,,,,,,,,,0,6,6,6,0,5,5,4,,,,,,,,,,,,,,,,,,,,,,,,,,,,,,,,,,,,,,,,,,,,,,,,,,,,,,,634.5321744739995,None,634.5321744739995,None,634.5321744739995,None,c,1,4.786254100000406,636.0675049339998,None,636.0675049339998,None,636.0675049339998,None,640.9155523809995,None,640.9155523809995,None,640.9155523809995,None,640.9155523809995,None,,,,,,,,,,,,,,,,,,,,,,,,,,,,,,,,,,,,,,,,,,,,001,77,2020_Feb_06_0957,spring_faces,3.1.5,59.973893603765724,
condition files/Stage1_1.xlsx,,B4,T4,m,"['c', 'm']","['Clue', 'Monopoly']","[-0.15, 0.5]","[0.15, 0.5]",1,1,,,,,,,,,0,6,6,6,0,6,6,7,,,,,,,,,,,,,,,,,,,,,,,,,,,,,,,,,,,,,,,,,,,,,,,,,,,,,,,642.8821654519998,None,642.8821654519998,None,642.8821654519998,None,m,1,1.5899677239995071,644.4157938849994,None,644.4157938849994,None,644.4157938849994,None,646.0822645709995,None,646.0822645709995,None,646.0822645709995,None,646.0822645709995,None,,,,,,,,,,,,,,,,,,,,,,,,,,,,,,,,,,,,,,,,,,,,001,77,2020_Feb_06_0957,spring_faces,3.1.5,59.973893603765724,
condition files/Stage1_1.xlsx,,T1,B1,c,"['c', 'm']","['Clue', 'Monopoly']","[-0.15, 0.5]","[0.15, 0.5]",1,1,,,,,,,,,0,6,6,6,0,7,7,0,,,,,,,,,,,,,,,,,,,,,,,,,,,,,,,,,,,,,,,,,,,,,,,,,,,,,,,648.0317687159995,None,648.0317687159995,None,648.0317687159995,None,c,1,1.0472950749999654,649.5664391239998,None,649.5664391239998,None,649.5664391239998,None,650.6672497239997,None,650.6672497239997,None,650.6672497239997,None,650.6672497239997,None,,,,,,,,,,,,,,,,,,,,,,,,,,,,,,,,,,,,,,,,,,,,001,77,2020_Feb_06_0957,spring_faces,3.1.5,59.973893603765724,
condition files/Stage1_2.xlsx,,T1,B2,m,"['c', 'm']","['Clue', 'Monopoly']","[-0.15, 0.5]","[0.15, 0.5]",1,1,,,,,,,,,0,7,7,7,0,0,0,2,,,,,,,,,,,,,,,,,,,,,,,,,,,,,,,,,,,,,,,,,,,,,,,,,,,,,,,652.6491808259998,None,652.6491808259998,None,652.6491808259998,None,m,1,2.5099178560003566,654.1837484479993,None,654.1837484479993,None,654.1837484479993,None,656.7514995579995,None,656.7514995579995,None,656.7514995579995,None,656.7514995579995,None,,,,,,,,,,,,,,,,,,,,,,,,,,,,,,,,,,,,,,,,,,,,001,77,2020_Feb_06_0957,spring_faces,3.1.5,59.973893603765724,
condition files/Stage1_2.xlsx,,B4,T3,c,"['c', 'm']","['Clue', 'Monopoly']","[-0.15, 0.5]","[0.15, 0.5]",1,1,,,,,,,,,0,7,7,7,0,1,1,5,,,,,,,,,,,,,,,,,,,,,,,,,,,,,,,,,,,,,,,,,,,,,,,,,,,,,,,658.7153265759998,None,658.7153265759998,None,658.7153265759998,None,c,1,0.972303524000381,660.249413431,None,660.249413431,None,660.249413431,None,661.2842847960001,None,661.2842847960001,None,661.2842847960001,None,661.2842847960001,None,,,,,,,,,,,,,,,,,,,,,,,,,,,,,,,,,,,,,,,,,,,,001,77,2020_Feb_06_0957,spring_faces,3.1.5,59.973893603765724,
condition files/Stage1_2.xlsx,,T4,B4,m,"['c', 'm']","['Clue', 'Monopoly']","[-0.15, 0.5]","[0.15, 0.5]",1,1,,,,,,,,,0,7,7,7,0,2,2,7,,,,,,,,,,,,,,,,,,,,,,,,,,,,,,,,,,,,,,,,,,,,,,,,,,,,,,,663.2480112959993,None,663.2480112959993,None,663.2480112959993,None,m,1,0.9039688960001513,664.7817878919996,None,664.7817878919996,None,664.7817878919996,None,665.7508645729995,None,665.7508645729995,None,665.7508645729995,None,665.7508645729995,None,,,,,,,,,,,,,,,,,,,,,,,,,,,,,,,,,,,,,,,,,,,,001,77,2020_Feb_06_0957,spring_faces,3.1.5,59.973893603765724,
condition files/Stage1_2.xlsx,,B1,T1,c,"['c', 'm']","['Clue', 'Monopoly']","[-0.15, 0.5]","[0.15, 0.5]",1,1,,,,,,,,,0,7,7,7,0,3,3,0,,,,,,,,,,,,,,,,,,,,,,,,,,,,,,,,,,,,,,,,,,,,,,,,,,,,,,,667.7153400979996,None,667.7153400979996,None,667.7153400979996,None,c,1,1.3480874369997764,669.2496544839996,None,669.2496544839996,None,669.2496544839996,None,670.6513460369997,None,670.6513460369997,None,670.6513460369997,None,670.6513460369997,None,,,,,,,,,,,,,,,,,,,,,,,,,,,,,,,,,,,,,,,,,,,,001,77,2020_Feb_06_0957,spring_faces,3.1.5,59.973893603765724,
condition files/Stage1_2.xlsx,,T3,B3,c,"['c', 'm']","['Clue', 'Monopoly']","[-0.15, 0.5]","[0.15, 0.5]",1,1,,,,,,,,,0,7,7,7,0,4,4,4,,,,,,,,,,,,,,,,,,,,,,,,,,,,,,,,,,,,,,,,,,,,,,,,,,,,,,,672.6151574539999,None,672.6151574539999,None,672.6151574539999,None,c,1,2.399807356000565,674.1658521219997,None,674.1658521219997,None,674.1658521219997,None,676.6156457249999,None,676.6156457249999,None,676.6156457249999,None,676.6156457249999,None,,,,,,,,,,,,,,,,,,,,,,,,,,,,,,,,,,,,,,,,,,,,001,77,2020_Feb_06_0957,spring_faces,3.1.5,59.973893603765724,
condition files/Stage1_2.xlsx,,T2,B1,c,"['c', 'm']","['Clue', 'Monopoly']","[-0.15, 0.5]","[0.15, 0.5]",1,1,,,,,,,,,0,7,7,7,0,5,5,1,,,,,,,,,,,,,,,,,,,,,,,,,,,,,,,,,,,,,,,,,,,,,,,,,,,,,,,678.5820524390001,None,678.5820524390001,None,678.5820524390001,None,c,1,6.690450365000288,680.115344846,None,680.115344846,None,680.115344846,None,686.8657743549993,None,686.8657743549993,None,686.8657743549993,None,686.8657743549993,None,,,,,,,,,,,,,,,,,,,,,,,,,,,,,,,,,,,,,,,,,,,,001,77,2020_Feb_06_0957,spring_faces,3.1.5,59.973893603765724,
condition files/Stage1_2.xlsx,,B2,T2,m,"['c', 'm']","['Clue', 'Monopoly']","[-0.15, 0.5]","[0.15, 0.5]",1,1,,,,,,,,,0,7,7,7,0,6,6,3,,,,,,,,,,,,,,,,,,,,,,,,,,,,,,,,,,,,,,,,,,,,,,,,,,,,,,,688.8318591560001,None,688.8318591560001,None,688.8318591560001,None,m,1,1.047412983999493,690.3663312169992,None,690.3663312169992,None,690.3663312169992,None,691.4822485269997,None,691.4822485269997,None,691.4822485269997,None,691.4822485269997,None,,,,,,,,,,,,,,,,,,,,,,,,,,,,,,,,,,,,,,,,,,,,001,77,2020_Feb_06_0957,spring_faces,3.1.5,59.973893603765724,
condition files/Stage1_2.xlsx,,B3,T4,m,"['c', 'm']","['Clue', 'Monopoly']","[-0.15, 0.5]","[0.15, 0.5]",1,1,,,,,,,,,0,7,7,7,0,7,7,6,,,,,,,,,,,,,,,,,,,,,,,,,,,,,,,,,,,,,,,,,,,,,,,,,,,,,,,693.4321043829996,None,693.4321043829996,None,693.4321043829996,None,m,1,0.8804086079999252,694.9652421949995,None,694.9652421949995,None,694.9652421949995,None,695.8986419109997,None,695.8986419109997,None,695.8986419109997,None,695.8986419109997,None,,,,,,,,,,,,,,,,,,,,,,,,,,,,,,,,,,,,,,,,,,,,001,77,2020_Feb_06_0957,spring_faces,3.1.5,59.973893603765724,
condition files/Stage1_1.xlsx,,T4,B3,m,"['c', 'm']","['Clue', 'Monopoly']","[-0.15, 0.5]","[0.15, 0.5]",1,1,,,,,,,,,0,8,8,8,0,0,0,6,,,,,,,,,,,,,,,,,,,,,,,,,,,,,,,,,,,,,,,,,,,,,,,,,,,,,,,697.8816161300001,None,697.8816161300001,None,697.8816161300001,None,m,1,0.8299790110004324,699.4158448819999,None,699.4158448819999,None,699.4158448819999,None,700.2987252149996,None,700.2987252149996,None,700.2987252149996,None,700.2987252149996,None,,,,,,,,,,,,,,,,,,,,,,,,,,,,,,,,,,,,,,,,,,,,001,77,2020_Feb_06_0957,spring_faces,3.1.5,59.973893603765724,
condition files/Stage1_1.xlsx,,B1,T2,c,"['c', 'm']","['Clue', 'Monopoly']","[-0.15, 0.5]","[0.15, 0.5]",1,1,,,,,,,,,0,8,8,8,0,1,1,1,,,,,,,,,,,,,,,,,,,,,,,,,,,,,,,,,,,,,,,,,,,,,,,,,,,,,,,702.2646704839999,None,702.2646704839999,None,702.2646704839999,None,c,1,1.7272303330000796,703.798570553,None,703.798570553,None,703.798570553,None,705.5832146299999,None,705.5832146299999,None,705.5832146299999,None,705.5832146299999,None,,,,,,,,,,,,,,,,,,,,,,,,,,,,,,,,,,,,,,,,,,,,001,77,2020_Feb_06_0957,spring_faces,3.1.5,59.973893603765724,
condition files/Stage1_1.xlsx,,B3,T3,c,"['c', 'm']","['Clue', 'Monopoly']","[-0.15, 0.5]","[0.15, 0.5]",1,1,,,,,,,,,0,8,8,8,0,2,2,4,,,,,,,,,,,,,,,,,,,,,,,,,,,,,,,,,,,,,,,,,,,,,,,,,,,,,,,707.5489564689997,None,707.5489564689997,None,707.5489564689997,None,c,1,1.4331545349996304,709.0845948159995,None,709.0845948159995,None,709.0845948159995,None,710.5816608559999,None,710.5816608559999,None,710.5816608559999,None,710.5816608559999,None,,,,,,,,,,,,,,,,,,,,,,,,,,,,,,,,,,,,,,,,,,,,001,77,2020_Feb_06_0957,spring_faces,3.1.5,59.973893603765724,
condition files/Stage1_1.xlsx,,B2,T1,m,"['c', 'm']","['Clue', 'Monopoly']","[-0.15, 0.5]","[0.15, 0.5]",1,1,,,,,,,,,0,8,8,8,0,3,3,2,,,,,,,,,,,,,,,,,,,,,,,,,,,,,,,,,,,,,,,,,,,,,,,,,,,,,,,712.5486817880001,None,712.5486817880001,None,712.5486817880001,None,m,1,1.474847082999986,714.0989356419996,None,714.0989356419996,None,714.0989356419996,None,715.648988678,None,715.648988678,None,715.648988678,None,715.648988678,None,,,,,,,,,,,,,,,,,,,,,,,,,,,,,,,,,,,,,,,,,,,,001,77,2020_Feb_06_0957,spring_faces,3.1.5,59.973893603765724,
condition files/Stage1_1.xlsx,,B4,T4,m,"['c', 'm']","['Clue', 'Monopoly']","[-0.15, 0.5]","[0.15, 0.5]",1,1,,,,,,,,,0,8,8,8,0,4,4,7,,,,,,,,,,,,,,,,,,,,,,,,,,,,,,,,,,,,,,,,,,,,,,,,,,,,,,,717.5983848319993,None,717.5983848319993,None,717.5983848319993,None,m,1,2.1848524100005307,719.1488785289994,None,719.1488785289994,None,719.1488785289994,None,721.3992724379996,None,721.3992724379996,None,721.3992724379996,None,721.3992724379996,None,,,,,,,,,,,,,,,,,,,,,,,,,,,,,,,,,,,,,,,,,,,,001,77,2020_Feb_06_0957,spring_faces,3.1.5,59.973893603765724,
condition files/Stage1_1.xlsx,,T2,B2,m,"['c', 'm']","['Clue', 'Monopoly']","[-0.15, 0.5]","[0.15, 0.5]",1,1,,,,,,,,,0,8,8,8,0,5,5,3,,,,,,,,,,,,,,,,,,,,,,,,,,,,,,,,,,,,,,,,,,,,,,,,,,,,,,,723.3654789009997,None,723.3654789009997,None,723.3654789009997,None,m,1,5.2352282879992345,724.8984988940001,None,724.8984988940001,None,724.8984988940001,None,730.1987768169993,None,730.1987768169993,None,730.1987768169993,None,730.1987768169993,None,,,,,,,,,,,,,,,,,,,,,,,,,,,,,,,,,,,,,,,,,,,,001,77,2020_Feb_06_0957,spring_faces,3.1.5,59.973893603765724,
condition files/Stage1_1.xlsx,,T1,B1,c,"['c', 'm']","['Clue', 'Monopoly']","[-0.15, 0.5]","[0.15, 0.5]",1,1,,,,,,,,,0,8,8,8,0,6,6,0,,,,,,,,,,,,,,,,,,,,,,,,,,,,,,,,,,,,,,,,,,,,,,,,,,,,,,,732.1654897899998,None,732.1654897899998,None,732.1654897899998,None,c,1,0.8189036710000437,733.6988308789996,None,733.6988308789996,None,733.6988308789996,None,734.5813164820001,None,734.5813164820001,None,734.5813164820001,None,734.5813164820001,None,,,,,,,,,,,,,,,,,,,,,,,,,,,,,,,,,,,,,,,,,,,,001,77,2020_Feb_06_0957,spring_faces,3.1.5,59.973893603765724,
condition files/Stage1_1.xlsx,,T3,B4,c,"['c', 'm']","['Clue', 'Monopoly']","[-0.15, 0.5]","[0.15, 0.5]",1,1,,,,,,,,,0,8,8,8,0,7,7,5,,,,,,,,,,,,,,,,,,,,,,,,,,,,,,,,,,,,,,,,,,,,,,,,,,,,,,,736.5483933039995,None,736.5483933039995,None,736.5483933039995,None,c,1,1.1868100290002985,738.0989420899996,None,738.0989420899996,None,738.0989420899996,None,739.3486346629998,None,739.3486346629998,None,739.3486346629998,None,739.3486346629998,None,,,,,,,,,,,,,,,,,,,,,,,,,,,,,,,,,,,,,,,,,,,,001,77,2020_Feb_06_0957,spring_faces,3.1.5,59.973893603765724,
condition files/Stage1_2.xlsx,,T2,B1,c,"['c', 'm']","['Clue', 'Monopoly']","[-0.15, 0.5]","[0.15, 0.5]",1,1,,,,,,,,,0,9,9,9,0,0,0,1,,,,,,,,,,,,,,,,,,,,,,,,,,,,,,,,,,,,,,,,,,,,,,,,,,,,,,,741.3317199249996,None,741.3317199249996,None,741.3317199249996,None,c,1,1.6826012239998818,742.8510948129997,None,742.8510948129997,None,742.8510948129997,None,744.598834161,None,744.598834161,None,744.598834161,None,744.598834161,None,,,,,,,,,,,,,,,,,,,,,,,,,,,,,,,,,,,,,,,,,,,,001,77,2020_Feb_06_0957,spring_faces,3.1.5,59.973893603765724,
condition files/Stage1_2.xlsx,,B4,T3,c,"['c', 'm']","['Clue', 'Monopoly']","[-0.15, 0.5]","[0.15, 0.5]",1,1,,,,,,,,,0,9,9,9,0,1,1,5,,,,,,,,,,,,,,,,,,,,,,,,,,,,,,,,,,,,,,,,,,,,,,,,,,,,,,,746.5647005689998,None,746.5647005689998,None,746.5647005689998,None,c,1,1.0908009250006216,748.114980419,None,748.114980419,None,748.114980419,None,749.2653524749994,None,749.2653524749994,None,749.2653524749994,None,749.2653524749994,None,,,,,,,,,,,,,,,,,,,,,,,,,,,,,,,,,,,,,,,,,,,,001,77,2020_Feb_06_0957,spring_faces,3.1.5,59.973893603765724,
condition files/Stage1_2.xlsx,,T3,B3,c,"['c', 'm']","['Clue', 'Monopoly']","[-0.15, 0.5]","[0.15, 0.5]",1,1,,,,,,,,,0,9,9,9,0,2,2,4,,,,,,,,,,,,,,,,,,,,,,,,,,,,,,,,,,,,,,,,,,,,,,,,,,,,,,,751.2315013469997,None,751.2315013469997,None,751.2315013469997,None,c,1,1.2720318689998749,752.7657372879994,None,752.7657372879994,None,752.7657372879994,None,754.098460958,None,754.098460958,None,754.098460958,None,754.098460958,None,,,,,,,,,,,,,,,,,,,,,,,,,,,,,,,,,,,,,,,,,,,,001,77,2020_Feb_06_0957,spring_faces,3.1.5,59.973893603765724,
condition files/Stage1_2.xlsx,,B2,T2,m,"['c', 'm']","['Clue', 'Monopoly']","[-0.15, 0.5]","[0.15, 0.5]",1,1,,,,,,,,,0,9,9,9,0,3,3,3,,,,,,,,,,,,,,,,,,,,,,,,,,,,,,,,,,,,,,,,,,,,,,,,,,,,,,,756.065417502,None,756.065417502,None,756.065417502,None,m,1,3.2857052760000443,757.6000538379994,None,757.6000538379994,None,757.6000538379994,None,760.9656818979993,None,760.9656818979993,None,760.9656818979993,None,760.9656818979993,None,,,,,,,,,,,,,,,,,,,,,,,,,,,,,,,,,,,,,,,,,,,,001,77,2020_Feb_06_0957,spring_faces,3.1.5,59.973893603765724,
condition files/Stage1_2.xlsx,,T1,B2,m,"['c', 'm']","['Clue', 'Monopoly']","[-0.15, 0.5]","[0.15, 0.5]",1,1,,,,,,,,,0,9,9,9,0,4,4,2,,,,,,,,,,,,,,,,,,,,,,,,,,,,,,,,,,,,,,,,,,,,,,,,,,,,,,,762.9153495739993,None,762.9153495739993,None,762.9153495739993,None,m,1,2.9810646169999018,764.4486386609997,None,764.4486386609997,None,764.4486386609997,None,767.4817549529998,None,767.4817549529998,None,767.4817549529998,None,767.4817549529998,None,,,,,,,,,,,,,,,,,,,,,,,,,,,,,,,,,,,,,,,,,,,,001,77,2020_Feb_06_0957,spring_faces,3.1.5,59.973893603765724,
condition files/Stage1_2.xlsx,,T4,B4,m,"['c', 'm']","['Clue', 'Monopoly']","[-0.15, 0.5]","[0.15, 0.5]",1,1,,,,,,,,,0,9,9,9,0,5,5,7,,,,,,,,,,,,,,,,,,,,,,,,,,,,,,,,,,,,,,,,,,,,,,,,,,,,,,,769.448711211,None,769.448711211,None,769.448711211,None,m,1,1.533540479000294,770.9841854289998,None,770.9841854289998,None,770.9841854289998,None,772.5822658959996,None,772.5822658959996,None,772.5822658959996,None,772.5822658959996,None,,,,,,,,,,,,,,,,,,,,,,,,,,,,,,,,,,,,,,,,,,,,001,77,2020_Feb_06_0957,spring_faces,3.1.5,59.973893603765724,
condition files/Stage1_2.xlsx,,B3,T4,m,"['c', 'm']","['Clue', 'Monopoly']","[-0.15, 0.5]","[0.15, 0.5]",1,1,,,,,,,,,0,9,9,9,0,6,6,6,,,,,,,,,,,,,,,,,,,,,,,,,,,,,,,,,,,,,,,,,,,,,,,,,,,,,,,774.5486431639993,None,774.5486431639993,None,774.5486431639993,None,m,1,0.6259802079994188,776.0837337739995,None,776.0837337739995,None,776.0837337739995,None,776.7656945949993,None,776.7656945949993,None,776.7656945949993,None,776.7656945949993,None,,,,,,,,,,,,,,,,,,,,,,,,,,,,,,,,,,,,,,,,,,,,001,77,2020_Feb_06_0957,spring_faces,3.1.5,59.973893603765724,
condition files/Stage1_2.xlsx,,B1,T1,c,"['c', 'm']","['Clue', 'Monopoly']","[-0.15, 0.5]","[0.15, 0.5]",1,1,,,,,,,,,0,9,9,9,0,7,7,0,,,,,,,,,,,,,,,,,,,,,,,,,,,,,,,,,,,,,,,,,,,,,,,,,,,,,,,778.7320350399996,None,778.7320350399996,None,778.7320350399996,None,c,1,0.8913460109997686,780.2664613970001,None,780.2664613970001,None,780.2664613970001,None,781.2166225149995,None,781.2166225149995,None,781.2166225149995,None,781.2166225149995,None,,,,,,,,,,,,,,,,,,,,,,,,,,,,,,,,,,,,,,,,,,,,001,77,2020_Feb_06_0957,spring_faces,3.1.5,59.973893603765724,
condition files/Stage1_1.xlsx,,B1,T2,c,"['c', 'm']","['Clue', 'Monopoly']","[-0.15, 0.5]","[0.15, 0.5]",1,1,,,,,,,,,0,10,10,10,0,0,0,1,,,,,,,,,,,,,,,,,,,,,,,,,,,,,,,,,,,,,,,,,,,,,,,,,,,,,,,783.1986923479999,None,783.1986923479999,None,783.1986923479999,None,c,1,1.4975091610003801,784.7322198859993,None,784.7322198859993,None,784.7322198859993,None,786.2817722399996,None,786.2817722399996,None,786.2817722399996,None,786.2817722399996,None,,,,,,,,,,,,,,,,,,,,,,,,,,,,,,,,,,,,,,,,,,,,001,77,2020_Feb_06_0957,spring_faces,3.1.5,59.973893603765724,
condition files/Stage1_1.xlsx,,T4,B3,m,"['c', 'm']","['Clue', 'Monopoly']","[-0.15, 0.5]","[0.15, 0.5]",1,1,,,,,,,,,0,10,10,10,0,1,1,6,,,,,,,,,,,,,,,,,,,,,,,,,,,,,,,,,,,,,,,,,,,,,,,,,,,,,,,788.2488524309992,None,788.2488524309992,None,788.2488524309992,None,m,1,1.1513561359997766,789.782318001,None,789.782318001,None,789.782318001,None,790.9992261369998,None,790.9992261369998,None,790.9992261369998,None,790.9992261369998,None,,,,,,,,,,,,,,,,,,,,,,,,,,,,,,,,,,,,,,,,,,,,001,77,2020_Feb_06_0957,spring_faces,3.1.5,59.973893603765724,
condition files/Stage1_1.xlsx,,T3,B4,c,"['c', 'm']","['Clue', 'Monopoly']","[-0.15, 0.5]","[0.15, 0.5]",1,1,,,,,,,,,0,10,10,10,0,2,2,5,,,,,,,,,,,,,,,,,,,,,,,,,,,,,,,,,,,,,,,,,,,,,,,,,,,,,,,792.965016872,None,792.965016872,None,792.965016872,None,c,1,4.977018695999504,794.5006883609994,None,794.5006883609994,None,794.5006883609994,None,799.5482677909995,None,799.5482677909995,None,799.5482677909995,None,799.5482677909995,None,,,,,,,,,,,,,,,,,,,,,,,,,,,,,,,,,,,,,,,,,,,,001,77,2020_Feb_06_0957,spring_faces,3.1.5,59.973893603765724,
condition files/Stage1_1.xlsx,,T2,B2,m,"['c', 'm']","['Clue', 'Monopoly']","[-0.15, 0.5]","[0.15, 0.5]",1,1,,,,,,,,,0,10,10,10,0,3,3,3,,,,,,,,,,,,,,,,,,,,,,,,,,,,,,,,,,,,,,,,,,,,,,,,,,,,,,,801.4982697360001,None,801.4982697360001,None,801.4982697360001,None,m,1,2.9087974389994997,803.0489856220001,None,803.0489856220001,None,803.0489856220001,None,806.0176048829999,None,806.0176048829999,None,806.0176048829999,None,806.0176048829999,None,,,,,,,,,,,,,,,,,,,,,,,,,,,,,,,,,,,,,,,,,,,,001,77,2020_Feb_06_0957,spring_faces,3.1.5,59.973893603765724,
condition files/Stage1_1.xlsx,,T1,B1,c,"['c', 'm']","['Clue', 'Monopoly']","[-0.15, 0.5]","[0.15, 0.5]",1,1,,,,,,,,,0,10,10,10,0,4,4,0,,,,,,,,,,,,,,,,,,,,,,,,,,,,,,,,,,,,,,,,,,,,,,,,,,,,,,,807.9823512739995,None,807.9823512739995,None,807.9823512739995,None,c,1,0.6657053600001746,809.5320325509992,None,809.5320325509992,None,809.5320325509992,None,810.2510411529993,None,810.2510411529993,None,810.2510411529993,None,810.2510411529993,None,,,,,,,,,,,,,,,,,,,,,,,,,,,,,,,,,,,,,,,,,,,,001,77,2020_Feb_06_0957,spring_faces,3.1.5,59.973893603765724,
condition files/Stage1_1.xlsx,,B4,T4,m,"['c', 'm']","['Clue', 'Monopoly']","[-0.15, 0.5]","[0.15, 0.5]",1,1,,,,,,,,,0,10,10,10,0,5,5,7,,,,,,,,,,,,,,,,,,,,,,,,,,,,,,,,,,,,,,,,,,,,,,,,,,,,,,,812.2155839079996,None,812.2155839079996,None,812.2155839079996,None,m,1,0.7529522380000344,813.748810645,None,813.748810645,None,813.748810645,None,814.565880653,None,814.565880653,None,814.565880653,None,814.565880653,None,,,,,,,,,,,,,,,,,,,,,,,,,,,,,,,,,,,,,,,,,,,,001,77,2020_Feb_06_0957,spring_faces,3.1.5,59.973893603765724,
condition files/Stage1_1.xlsx,,B3,T3,c,"['c', 'm']","['Clue', 'Monopoly']","[-0.15, 0.5]","[0.15, 0.5]",1,1,,,,,,,,,0,10,10,10,0,6,6,4,,,,,,,,,,,,,,,,,,,,,,,,,,,,,,,,,,,,,,,,,,,,,,,,,,,,,,,816.531594006,None,816.531594006,None,816.531594006,None,c,1,1.0272642379995887,818.082482457,None,818.082482457,None,818.082482457,None,819.1824153009993,None,819.1824153009993,None,819.1824153009993,None,819.1824153009993,None,,,,,,,,,,,,,,,,,,,,,,,,,,,,,,,,,,,,,,,,,,,,001,77,2020_Feb_06_0957,spring_faces,3.1.5,59.973893603765724,
condition files/Stage1_1.xlsx,,B2,T1,m,"['c', 'm']","['Clue', 'Monopoly']","[-0.15, 0.5]","[0.15, 0.5]",1,1,,,,,,,,,0,10,10,10,0,7,7,2,,,,,,,,,,,,,,,,,,,,,,,,,,,,,,,,,,,,,,,,,,,,,,,,,,,,,,,821.1320385109993,None,821.1320385109993,None,821.1320385109993,None,m,1,1.9321103060001406,822.6656517779993,None,822.6656517779993,None,822.6656517779993,None,824.6518211359999,None,824.6518211359999,None,824.6518211359999,None,824.6518211359999,None,,,,,,,,,,,,,,,,,,,,,,,,,,,,,,,,,,,,,,,,,,,,001,77,2020_Feb_06_0957,spring_faces,3.1.5,59.973893603765724,
condition files/Stage1_2.xlsx,,B3,T4,m,"['c', 'm']","['Clue', 'Monopoly']","[-0.15, 0.5]","[0.15, 0.5]",1,1,,,,,,,,,0,11,11,11,0,0,0,6,,,,,,,,,,,,,,,,,,,,,,,,,,,,,,,,,,,,,,,,,,,,,,,,,,,,,,,826.6320082689999,None,826.6320082689999,None,826.6320082689999,None,m,1,0.7987266059999456,828.1669936009994,None,828.1669936009994,None,828.1669936009994,None,829.0154766729993,None,829.0154766729993,None,829.0154766729993,None,829.0154766729993,None,,,,,,,,,,,,,,,,,,,,,,,,,,,,,,,,,,,,,,,,,,,,001,77,2020_Feb_06_0957,spring_faces,3.1.5,59.973893603765724,
condition files/Stage1_2.xlsx,,B1,T1,c,"['c', 'm']","['Clue', 'Monopoly']","[-0.15, 0.5]","[0.15, 0.5]",1,1,,,,,,,,,0,11,11,11,0,1,1,0,,,,,,,,,,,,,,,,,,,,,,,,,,,,,,,,,,,,,,,,,,,,,,,,,,,,,,,830.9814297439998,None,830.9814297439998,None,830.9814297439998,None,c,1,0.8796856449998813,832.5180694719993,None,832.5180694719993,None,832.5180694719993,None,833.4515939180001,None,833.4515939180001,None,833.4515939180001,None,833.4515939180001,None,,,,,,,,,,,,,,,,,,,,,,,,,,,,,,,,,,,,,,,,,,,,001,77,2020_Feb_06_0957,spring_faces,3.1.5,59.973893603765724,
condition files/Stage1_2.xlsx,,T1,B2,m,"['c', 'm']","['Clue', 'Monopoly']","[-0.15, 0.5]","[0.15, 0.5]",1,1,,,,,,,,,0,11,11,11,0,2,2,2,,,,,,,,,,,,,,,,,,,,,,,,,,,,,,,,,,,,,,,,,,,,,,,,,,,,,,,835.4155271929994,None,835.4155271929994,None,835.4155271929994,None,m,1,1.3611077669993392,836.9485935339999,None,836.9485935339999,None,836.9485935339999,None,838.3816912859993,None,838.3816912859993,None,838.3816912859993,None,838.3816912859993,None,,,,,,,,,,,,,,,,,,,,,,,,,,,,,,,,,,,,,,,,,,,,001,77,2020_Feb_06_0957,spring_faces,3.1.5,59.973893603765724,
condition files/Stage1_2.xlsx,,T4,B4,m,"['c', 'm']","['Clue', 'Monopoly']","[-0.15, 0.5]","[0.15, 0.5]",1,1,,,,,,,,,0,11,11,11,0,3,3,7,,,,,,,,,,,,,,,,,,,,,,,,,,,,,,,,,,,,,,,,,,,,,,,,,,,,,,,840.3321399689994,None,840.3321399689994,None,840.3321399689994,None,m,1,1.340577895000024,841.8652098719995,None,841.8652098719995,None,841.8652098719995,None,843.2653595409993,None,843.2653595409993,None,843.2653595409993,None,843.2653595409993,None,,,,,,,,,,,,,,,,,,,,,,,,,,,,,,,,,,,,,,,,,,,,001,77,2020_Feb_06_0957,spring_faces,3.1.5,59.973893603765724,
condition files/Stage1_2.xlsx,,T3,B3,c,"['c', 'm']","['Clue', 'Monopoly']","[-0.15, 0.5]","[0.15, 0.5]",1,1,,,,,,,,,0,11,11,11,0,4,4,4,,,,,,,,,,,,,,,,,,,,,,,,,,,,,,,,,,,,,,,,,,,,,,,,,,,,,,,845.2321894259994,None,845.2321894259994,None,845.2321894259994,None,c,1,2.5361203760003264,846.7656447489999,None,846.7656447489999,None,846.7656447489999,None,849.3663631239997,None,849.3663631239997,None,849.3663631239997,None,849.3663631239997,None,,,,,,,,,,,,,,,,,,,,,,,,,,,,,,,,,,,,,,,,,,,,001,77,2020_Feb_06_0957,spring_faces,3.1.5,59.973893603765724,
condition files/Stage1_2.xlsx,,T2,B1,c,"['c', 'm']","['Clue', 'Monopoly']","[-0.15, 0.5]","[0.15, 0.5]",1,1,,,,,,,,,0,11,11,11,0,5,5,1,,,,,,,,,,,,,,,,,,,,,,,,,,,,,,,,,,,,,,,,,,,,,,,,,,,,,,,851.3319349879994,None,851.3319349879994,None,851.3319349879994,None,c,1,0.7885543699994741,852.8652025749998,None,852.8652025749998,None,852.8652025749998,None,853.7156568099999,None,853.7156568099999,None,853.7156568099999,None,853.7156568099999,None,,,,,,,,,,,,,,,,,,,,,,,,,,,,,,,,,,,,,,,,,,,,001,77,2020_Feb_06_0957,spring_faces,3.1.5,59.973893603765724,
condition files/Stage1_2.xlsx,,B4,T3,c,"['c', 'm']","['Clue', 'Monopoly']","[-0.15, 0.5]","[0.15, 0.5]",1,1,,,,,,,,,0,11,11,11,0,6,6,5,,,,,,,,,,,,,,,,,,,,,,,,,,,,,,,,,,,,,,,,,,,,,,,,,,,,,,,855.6820258569996,None,855.6820258569996,None,855.6820258569996,None,c,1,1.3499486319997231,857.2157401119994,None,857.2157401119994,None,857.2157401119994,None,858.6324044980001,None,858.6324044980001,None,858.6324044980001,None,858.6324044980001,None,,,,,,,,,,,,,,,,,,,,,,,,,,,,,,,,,,,,,,,,,,,,001,77,2020_Feb_06_0957,spring_faces,3.1.5,59.973893603765724,
condition files/Stage1_2.xlsx,,B2,T2,m,"['c', 'm']","['Clue', 'Monopoly']","[-0.15, 0.5]","[0.15, 0.5]",1,1,,,,,,,,,0,11,11,11,0,7,7,3,,,,,,,,,,,,,,,,,,,,,,,,,,,,,,,,,,,,,,,,,,,,,,,,,,,,,,,860.5979719849993,None,860.5979719849993,None,860.5979719849993,None,m,1,3.0409707190001427,862.1488080689996,None,862.1488080689996,None,862.1488080689996,None,865.2657093939997,None,865.2657093939997,None,865.2657093939997,None,865.2657093939997,None,,,,,,,,,,,,,,,,,,,,,,,,,,,,,,,,,,,,,,,,,,,,001,77,2020_Feb_06_0957,spring_faces,3.1.5,59.973893603765724,
,,,,,,,,,,,,,,,,,,,,,,,,,,,,,,,,,,,,,,,,,,,,,,,,,,,,,,,,,,,,,,,,,,,,,,,,,,,,,,,,,,,,,,,,,,,,,,,,,,,,,,,,,,,,,,,,867.2324960870001,None,space,21.885564938000243,872.2321401489999,None,,,,,,,,,,,,,,,,,,,,,,,,,,,,,,001,77,2020_Feb_06_0957,spring_faces,3.1.5,59.973893603765724,
condition files/Stage2_1.xlsx,,T1,B1,s,"['s', 'r']","['Stratego', 'Risk']","[-0.15, 0.5]","[0.15, 0.5]",1,1,,,,,,,,,,,,,,,,,0,0,0,0,0,0,0,2,,,,,,,,,,,,,,,,,,,,,,,,,,,,,,,,,,,,,,,,,,,,,,,894.1825562369995,None,894.1825562369995,None,894.1825562369995,None,s,1,1.795147977999477,895.698577528,None,895.698577528,None,895.698577528,None,897.5503432999994,None,897.5503432999994,None,897.5503432999994,None,897.5503432999994,None,,,,,,,,,,,,,,,872.2321401489999,None,,,,,,,,,,,,,,,,,,,,,,,,,,,,001,77,2020_Feb_06_0957,spring_faces,3.1.5,59.973893603765724,
condition files/Stage2_1.xlsx,,T5,B5,s,"['s', 'r']","['Stratego', 'Risk']","[-0.15, 0.5]","[0.15, 0.5]",1,1,,,,,,,,,,,,,,,,,0,0,0,0,0,1,1,0,,,,,,,,,,,,,,,,,,,,,,,,,,,,,,,,,,,,,,,,,,,,,,,899.5153938779995,None,899.5153938779995,None,899.5153938779995,None,r,0,1.9784459069996956,901.1152040829993,None,901.1152040829993,None,901.1152040829993,None,903.1489129289994,None,903.1489129289994,None,903.1489129289994,None,903.1489129289994,None,,,,,,,,,,,,,,,,,,,,,,,,,,,,,,,,,,,,,,,,,,,,001,77,2020_Feb_06_0957,spring_faces,3.1.5,59.973893603765724,
condition files/Stage2_1.xlsx,,T3,B3,s,"['s', 'r']","['Stratego', 'Risk']","[-0.15, 0.5]","[0.15, 0.5]",1,1,,,,,,,,,,,,,,,,,0,0,0,0,0,2,2,4,,,,,,,,,,,,,,,,,,,,,,,,,,,,,,,,,,,,,,,,,,,,,,,905.1147559999999,None,905.1147559999999,None,905.1147559999999,None,r,0,1.1798811950002346,906.6498499989993,None,906.6498499989993,None,906.6498499989993,None,907.8821398709997,None,907.8821398709997,None,907.8821398709997,None,907.8821398709997,None,,,,,,,,,,,,,,,,,,,,,,,,,,,,,,,,,,,,,,,,,,,,001,77,2020_Feb_06_0957,spring_faces,3.1.5,59.973893603765724,
condition files/Stage2_1.xlsx,,B2,T2,r,"['s', 'r']","['Stratego', 'Risk']","[-0.15, 0.5]","[0.15, 0.5]",1,1,,,,,,,,,,,,,,,,,0,0,0,0,0,3,3,3,,,,,,,,,,,,,,,,,,,,,,,,,,,,,,,,,,,,,,,,,,,,,,,909.8488301999996,None,909.8488301999996,None,909.8488301999996,None,r,1,0.6713416949996827,911.3824217639994,None,911.3824217639994,None,911.3824217639994,None,912.1151655899994,None,912.1151655899994,None,912.1151655899994,None,912.1151655899994,None,,,,,,,,,,,,,,,,,,,,,,,,,,,,,,,,,,,,,,,,,,,,001,77,2020_Feb_06_0957,spring_faces,3.1.5,59.973893603765724,
condition files/Stage2_1.xlsx,,B6,T6,r,"['s', 'r']","['Stratego', 'Risk']","[-0.15, 0.5]","[0.15, 0.5]",1,1,,,,,,,,,,,,,,,,,0,0,0,0,0,4,4,1,,,,,,,,,,,,,,,,,,,,,,,,,,,,,,,,,,,,,,,,,,,,,,,914.0821013389996,None,914.0821013389996,None,914.0821013389996,None,r,1,0.8673817210001289,915.6822968189999,None,915.6822968189999,None,915.6822968189999,None,916.6155526519997,None,916.6155526519997,None,916.6155526519997,None,916.6155526519997,None,,,,,,,,,,,,,,,,,,,,,,,,,,,,,,,,,,,,,,,,,,,,001,77,2020_Feb_06_0957,spring_faces,3.1.5,59.973893603765724,
condition files/Stage2_1.xlsx,,B4,T4,r,"['s', 'r']","['Stratego', 'Risk']","[-0.15, 0.5]","[0.15, 0.5]",1,1,,,,,,,,,,,,,,,,,0,0,0,0,0,5,5,5,,,,,,,,,,,,,,,,,,,,,,,,,,,,,,,,,,,,,,,,,,,,,,,918.5816119499996,None,918.5816119499996,None,918.5816119499996,None,r,1,1.0733064940004624,920.1164962639996,None,920.1164962639996,None,920.1164962639996,None,921.2491802019995,None,921.2491802019995,None,921.2491802019995,None,921.2491802019995,None,,,,,,,,,,,,,,,,,,,,,,,,,,,,,,,,,,,,,,,,,,,,001,77,2020_Feb_06_0957,spring_faces,3.1.5,59.973893603765724,
condition files/Stage2_2.xlsx,,B5,T5,s,"['s', 'r']","['Stratego', 'Risk']","[-0.15, 0.5]","[0.15, 0.5]",1,1,,,,,,,,,,,,,,,,,0,1,1,1,0,0,0,0,,,,,,,,,,,,,,,,,,,,,,,,,,,,,,,,,,,,,,,,,,,,,,,923.2319207649998,None,923.2319207649998,None,923.2319207649998,None,s,1,1.9123282219998146,924.7654113459994,None,924.7654113459994,None,924.7654113459994,None,926.7337239929993,None,926.7337239929993,None,926.7337239929993,None,926.7337239929993,None,,,,,,,,,,,,,,,,,,,,,,,,,,,,,,,,,,,,,,,,,,,,001,77,2020_Feb_06_0957,spring_faces,3.1.5,59.973893603765724,
condition files/Stage2_2.xlsx,,B1,T1,s,"['s', 'r']","['Stratego', 'Risk']","[-0.15, 0.5]","[0.15, 0.5]",1,1,,,,,,,,,,,,,,,,,0,1,1,1,0,1,1,2,,,,,,,,,,,,,,,,,,,,,,,,,,,,,,,,,,,,,,,,,,,,,,,928.6990401029998,None,928.6990401029998,None,928.6990401029998,None,s,1,1.4849610729997949,930.2327953529993,None,930.2327953529993,None,930.2327953529993,None,931.7818733009999,None,931.7818733009999,None,931.7818733009999,None,931.7818733009999,None,,,,,,,,,,,,,,,,,,,,,,,,,,,,,,,,,,,,,,,,,,,,001,77,2020_Feb_06_0957,spring_faces,3.1.5,59.973893603765724,
condition files/Stage2_2.xlsx,,T4,B4,r,"['s', 'r']","['Stratego', 'Risk']","[-0.15, 0.5]","[0.15, 0.5]",1,1,,,,,,,,,,,,,,,,,0,1,1,1,0,2,2,5,,,,,,,,,,,,,,,,,,,,,,,,,,,,,,,,,,,,,,,,,,,,,,,933.7481539820001,None,933.7481539820001,None,933.7481539820001,None,r,1,1.2344161450000684,935.2833149839998,None,935.2833149839998,None,935.2833149839998,None,936.582243891,None,936.582243891,None,936.582243891,None,936.582243891,None,,,,,,,,,,,,,,,,,,,,,,,,,,,,,,,,,,,,,,,,,,,,001,77,2020_Feb_06_0957,spring_faces,3.1.5,59.973893603765724,
condition files/Stage2_2.xlsx,,T2,B2,r,"['s', 'r']","['Stratego', 'Risk']","[-0.15, 0.5]","[0.15, 0.5]",1,1,,,,,,,,,,,,,,,,,0,1,1,1,0,3,3,3,,,,,,,,,,,,,,,,,,,,,,,,,,,,,,,,,,,,,,,,,,,,,,,938.5486696759999,None,938.5486696759999,None,938.5486696759999,None,r,1,1.6490709259996947,940.0846143859999,None,940.0846143859999,None,940.0846143859999,None,941.7988399059996,None,941.7988399059996,None,941.7988399059996,None,941.7988399059996,None,,,,,,,,,,,,,,,,,,,,,,,,,,,,,,,,,,,,,,,,,,,,001,77,2020_Feb_06_0957,spring_faces,3.1.5,59.973893603765724,
condition files/Stage2_2.xlsx,,B3,T3,s,"['s', 'r']","['Stratego', 'Risk']","[-0.15, 0.5]","[0.15, 0.5]",1,1,,,,,,,,,,,,,,,,,0,1,1,1,0,4,4,4,,,,,,,,,,,,,,,,,,,,,,,,,,,,,,,,,,,,,,,,,,,,,,,943.7653828419998,None,943.7653828419998,None,943.7653828419998,None,s,1,1.187115237999933,945.2986548709996,None,945.2986548709996,None,945.2986548709996,None,946.5513178880001,None,946.5513178880001,None,946.5513178880001,None,946.5513178880001,None,,,,,,,,,,,,,,,,,,,,,,,,,,,,,,,,,,,,,,,,,,,,001,77,2020_Feb_06_0957,spring_faces,3.1.5,59.973893603765724,
condition files/Stage2_2.xlsx,,T6,B6,r,"['s', 'r']","['Stratego', 'Risk']","[-0.15, 0.5]","[0.15, 0.5]",1,1,,,,,,,,,,,,,,,,,0,1,1,1,0,5,5,1,,,,,,,,,,,,,,,,,,,,,,,,,,,,,,,,,,,,,,,,,,,,,,,948.5151626950001,None,948.5151626950001,None,948.5151626950001,None,r,1,1.5566095940002924,950.0651743159997,None,950.0651743159997,None,950.0651743159997,None,951.6847949759995,None,951.6847949759995,None,951.6847949759995,None,951.6847949759995,None,,,,,,,,,,,,,,,,,,,,,,,,,,,,,,,,,,,,,,,,,,,,001,77,2020_Feb_06_0957,spring_faces,3.1.5,59.973893603765724,
condition files/Stage2_1.xlsx,,B2,T2,r,"['s', 'r']","['Stratego', 'Risk']","[-0.15, 0.5]","[0.15, 0.5]",1,1,,,,,,,,,,,,,,,,,0,2,2,2,0,0,0,3,,,,,,,,,,,,,,,,,,,,,,,,,,,,,,,,,,,,,,,,,,,,,,,953.6651563019996,None,953.6651563019996,None,953.6651563019996,None,s,0,1.1900770769998417,955.2157260099993,None,955.2157260099993,None,955.2157260099993,None,956.4656864979997,None,956.4656864979997,None,956.4656864979997,None,956.4656864979997,None,,,,,,,,,,,,,,,,,,,,,,,,,,,,,,,,,,,,,,,,,,,,001,77,2020_Feb_06_0957,spring_faces,3.1.5,59.973893603765724,
condition files/Stage2_1.xlsx,,B6,T6,r,"['s', 'r']","['Stratego', 'Risk']","[-0.15, 0.5]","[0.15, 0.5]",1,1,,,,,,,,,,,,,,,,,0,2,2,2,0,1,1,1,,,,,,,,,,,,,,,,,,,,,,,,,,,,,,,,,,,,,,,,,,,,,,,958.4320051529994,None,958.4320051529994,None,958.4320051529994,None,r,1,3.879703387000518,959.9661730689995,None,959.9661730689995,None,959.9661730689995,None,963.8986180419997,None,963.8986180419997,None,963.8986180419997,None,963.8986180419997,None,,,,,,,,,,,,,,,,,,,,,,,,,,,,,,,,,,,,,,,,,,,,001,77,2020_Feb_06_0957,spring_faces,3.1.5,59.973893603765724,
condition files/Stage2_1.xlsx,,T1,B1,s,"['s', 'r']","['Stratego', 'Risk']","[-0.15, 0.5]","[0.15, 0.5]",1,1,,,,,,,,,,,,,,,,,0,2,2,2,0,2,2,2,,,,,,,,,,,,,,,,,,,,,,,,,,,,,,,,,,,,,,,,,,,,,,,965.8653836879994,None,965.8653836879994,None,965.8653836879994,None,s,1,0.9743080520001968,967.4154757779997,None,967.4154757779997,None,967.4154757779997,None,968.4658759509994,None,968.4658759509994,None,968.4658759509994,None,968.4658759509994,None,,,,,,,,,,,,,,,,,,,,,,,,,,,,,,,,,,,,,,,,,,,,001,77,2020_Feb_06_0957,spring_faces,3.1.5,59.973893603765724,
condition files/Stage2_1.xlsx,,T5,B5,s,"['s', 'r']","['Stratego', 'Risk']","[-0.15, 0.5]","[0.15, 0.5]",1,1,,,,,,,,,,,,,,,,,0,2,2,2,0,3,3,0,,,,,,,,,,,,,,,,,,,,,,,,,,,,,,,,,,,,,,,,,,,,,,,970.4153506309995,None,970.4153506309995,None,970.4153506309995,None,s,1,1.1280802439996478,971.9496564809997,None,971.9496564809997,None,971.9496564809997,None,973.1323160709999,None,973.1323160709999,None,973.1323160709999,None,973.1323160709999,None,,,,,,,,,,,,,,,,,,,,,,,,,,,,,,,,,,,,,,,,,,,,001,77,2020_Feb_06_0957,spring_faces,3.1.5,59.973893603765724,
condition files/Stage2_1.xlsx,,B4,T4,r,"['s', 'r']","['Stratego', 'Risk']","[-0.15, 0.5]","[0.15, 0.5]",1,1,,,,,,,,,,,,,,,,,0,2,2,2,0,4,4,5,,,,,,,,,,,,,,,,,,,,,,,,,,,,,,,,,,,,,,,,,,,,,,,975.0985617679999,None,975.0985617679999,None,975.0985617679999,None,r,1,2.045315488000597,976.6324338839995,None,976.6324338839995,None,976.6324338839995,None,978.7492253129994,None,978.7492253129994,None,978.7492253129994,None,978.7492253129994,None,,,,,,,,,,,,,,,,,,,,,,,,,,,,,,,,,,,,,,,,,,,,001,77,2020_Feb_06_0957,spring_faces,3.1.5,59.973893603765724,
condition files/Stage2_1.xlsx,,T3,B3,s,"['s', 'r']","['Stratego', 'Risk']","[-0.15, 0.5]","[0.15, 0.5]",1,1,,,,,,,,,,,,,,,,,0,2,2,2,0,5,5,4,,,,,,,,,,,,,,,,,,,,,,,,,,,,,,,,,,,,,,,,,,,,,,,980.6983568329997,None,980.6983568329997,None,980.6983568329997,None,r,0,2.2367532700000083,982.2489924769998,None,982.2489924769998,None,982.2489924769998,None,984.565430525,None,984.565430525,None,984.565430525,None,984.565430525,None,,,,,,,,,,,,,,,,,,,,,,,,,,,,,,,,,,,,,,,,,,,,001,77,2020_Feb_06_0957,spring_faces,3.1.5,59.973893603765724,
condition files/Stage2_2.xlsx,,B1,T1,s,"['s', 'r']","['Stratego', 'Risk']","[-0.15, 0.5]","[0.15, 0.5]",1,1,,,,,,,,,,,,,,,,,0,3,3,3,0,0,0,2,,,,,,,,,,,,,,,,,,,,,,,,,,,,,,,,,,,,,,,,,,,,,,,986.5317206099999,None,986.5317206099999,None,986.5317206099999,None,s,1,1.6358498390000022,988.0659029279996,None,988.0659029279996,None,988.0659029279996,None,989.7655365649998,None,989.7655365649998,None,989.7655365649998,None,989.7655365649998,None,,,,,,,,,,,,,,,,,,,,,,,,,,,,,,,,,,,,,,,,,,,,001,77,2020_Feb_06_0957,spring_faces,3.1.5,59.973893603765724,
condition files/Stage2_2.xlsx,,B3,T3,s,"['s', 'r']","['Stratego', 'Risk']","[-0.15, 0.5]","[0.15, 0.5]",1,1,,,,,,,,,,,,,,,,,0,3,3,3,0,1,1,4,,,,,,,,,,,,,,,,,,,,,,,,,,,,,,,,,,,,,,,,,,,,,,,991.7321863879997,None,991.7321863879997,None,991.7321863879997,None,s,1,0.996007341999757,993.2657243349995,None,993.2657243349995,None,993.2657243349995,None,994.3153131379995,None,994.3153131379995,None,994.3153131379995,None,994.3153131379995,None,,,,,,,,,,,,,,,,,,,,,,,,,,,,,,,,,,,,,,,,,,,,001,77,2020_Feb_06_0957,spring_faces,3.1.5,59.973893603765724,
condition files/Stage2_2.xlsx,,B5,T5,s,"['s', 'r']","['Stratego', 'Risk']","[-0.15, 0.5]","[0.15, 0.5]",1,1,,,,,,,,,,,,,,,,,0,3,3,3,0,2,2,0,,,,,,,,,,,,,,,,,,,,,,,,,,,,,,,,,,,,,,,,,,,,,,,996.2820256859995,None,996.2820256859995,None,996.2820256859995,None,s,1,1.0711169910000535,997.8146457619996,None,997.8146457619996,None,997.8146457619996,None,998.948385789,None,998.948385789,None,998.948385789,None,998.948385789,None,,,,,,,,,,,,,,,,,,,,,,,,,,,,,,,,,,,,,,,,,,,,001,77,2020_Feb_06_0957,spring_faces,3.1.5,59.973893603765724,
condition files/Stage2_2.xlsx,,T2,B2,r,"['s', 'r']","['Stratego', 'Risk']","[-0.15, 0.5]","[0.15, 0.5]",1,1,,,,,,,,,,,,,,,,,0,3,3,3,0,3,3,3,,,,,,,,,,,,,,,,,,,,,,,,,,,,,,,,,,,,,,,,,,,,,,,1000.915400852,None,1000.915400852,None,1000.915400852,None,r,1,1.3494794890002595,1002.4482693059999,None,1002.4482693059999,None,1002.4482693059999,None,1003.8654253989998,None,1003.8654253989998,None,1003.8654253989998,None,1003.8654253989998,None,,,,,,,,,,,,,,,,,,,,,,,,,,,,,,,,,,,,,,,,,,,,001,77,2020_Feb_06_0957,spring_faces,3.1.5,59.973893603765724,
condition files/Stage2_2.xlsx,,T4,B4,r,"['s', 'r']","['Stratego', 'Risk']","[-0.15, 0.5]","[0.15, 0.5]",1,1,,,,,,,,,,,,,,,,,0,3,3,3,0,4,4,5,,,,,,,,,,,,,,,,,,,,,,,,,,,,,,,,,,,,,,,,,,,,,,,1005.815484107,None,1005.815484107,None,1005.815484107,None,r,1,1.0081681330002539,1007.3655928990001,None,1007.3655928990001,None,1007.3655928990001,None,1008.432433207,None,1008.432433207,None,1008.432433207,None,1008.432433207,None,,,,,,,,,,,,,,,,,,,,,,,,,,,,,,,,,,,,,,,,,,,,001,77,2020_Feb_06_0957,spring_faces,3.1.5,59.973893603765724,
condition files/Stage2_2.xlsx,,T6,B6,r,"['s', 'r']","['Stratego', 'Risk']","[-0.15, 0.5]","[0.15, 0.5]",1,1,,,,,,,,,,,,,,,,,0,3,3,3,0,5,5,1,,,,,,,,,,,,,,,,,,,,,,,,,,,,,,,,,,,,,,,,,,,,,,,1010.3986857379996,None,1010.3986857379996,None,1010.3986857379996,None,r,1,1.0017809840001064,1011.931890375,None,1011.931890375,None,1011.931890375,None,1012.9989136670001,None,1012.9989136670001,None,1012.9989136670001,None,1012.9989136670001,None,,,,,,,,,,,,,,,,,,,,,,,,,,,,,,,,,,,,,,,,,,,,001,77,2020_Feb_06_0957,spring_faces,3.1.5,59.973893603765724,
condition files/Stage2_1.xlsx,,B2,T2,r,"['s', 'r']","['Stratego', 'Risk']","[-0.15, 0.5]","[0.15, 0.5]",1,1,,,,,,,,,,,,,,,,,0,4,4,4,0,0,0,3,,,,,,,,,,,,,,,,,,,,,,,,,,,,,,,,,,,,,,,,,,,,,,,1014.981867341,None,1014.981867341,None,1014.981867341,None,r,1,2.768939034000141,1016.5168272619994,None,1016.5168272619994,None,1016.5168272619994,None,1019.3493031119997,None,1019.3493031119997,None,1019.3493031119997,None,1019.3493031119997,None,,,,,,,,,,,,,,,,,,,,,,,,,,,,,,,,,,,,,,,,,,,,001,77,2020_Feb_06_0957,spring_faces,3.1.5,59.973893603765724,
condition files/Stage2_1.xlsx,,T3,B3,s,"['s', 'r']","['Stratego', 'Risk']","[-0.15, 0.5]","[0.15, 0.5]",1,1,,,,,,,,,,,,,,,,,0,4,4,4,0,1,1,4,,,,,,,,,,,,,,,,,,,,,,,,,,,,,,,,,,,,,,,,,,,,,,,1021.3154788949996,None,1021.3154788949996,None,1021.3154788949996,None,s,1,1.6681191150000814,1022.8656065269997,None,1022.8656065269997,None,1022.8656065269997,None,1024.615620779,None,1024.615620779,None,1024.615620779,None,1024.615620779,None,,,,,,,,,,,,,,,,,,,,,,,,,,,,,,,,,,,,,,,,,,,,001,77,2020_Feb_06_0957,spring_faces,3.1.5,59.973893603765724,
condition files/Stage2_1.xlsx,,T5,B5,s,"['s', 'r']","['Stratego', 'Risk']","[-0.15, 0.5]","[0.15, 0.5]",1,1,,,,,,,,,,,,,,,,,0,4,4,4,0,2,2,0,,,,,,,,,,,,,,,,,,,,,,,,,,,,,,,,,,,,,,,,,,,,,,,1026.5651791760001,None,1026.5651791760001,None,1026.5651791760001,None,s,1,0.899179271000321,1028.0985616039998,None,1028.0985616039998,None,1028.0985616039998,None,1029.048920321,None,1029.048920321,None,1029.048920321,None,1029.048920321,None,,,,,,,,,,,,,,,,,,,,,,,,,,,,,,,,,,,,,,,,,,,,001,77,2020_Feb_06_0957,spring_faces,3.1.5,59.973893603765724,
condition files/Stage2_1.xlsx,,B6,T6,r,"['s', 'r']","['Stratego', 'Risk']","[-0.15, 0.5]","[0.15, 0.5]",1,1,,,,,,,,,,,,,,,,,0,4,4,4,0,3,3,1,,,,,,,,,,,,,,,,,,,,,,,,,,,,,,,,,,,,,,,,,,,,,,,1031.0153241939997,None,1031.0153241939997,None,1031.0153241939997,None,r,1,1.568348947999766,1032.5653314249994,None,1032.5653314249994,None,1032.5653314249994,None,1034.2016192779993,None,1034.2016192779993,None,1034.2016192779993,None,1034.2016192779993,None,,,,,,,,,,,,,,,,,,,,,,,,,,,,,,,,,,,,,,,,,,,,001,77,2020_Feb_06_0957,spring_faces,3.1.5,59.973893603765724,
