condsFile,subStage,cue1,cue2,correct,responseKeys,responseNames,cue1Position,cue2Position,cue1Opacity,cue2Opacity,stageLoop0.thisRepN,stageLoop0.thisTrialN,stageLoop0.thisN,stageLoop0.thisIndex,blockLoop0.thisRepN,blockLoop0.thisTrialN,blockLoop0.thisN,blockLoop0.thisIndex,stage1Loop.thisRepN,stage1Loop.thisTrialN,stage1Loop.thisN,stage1Loop.thisIndex,blockLoop1.thisRepN,blockLoop1.thisTrialN,blockLoop1.thisN,blockLoop1.thisIndex,stage2Loop.thisRepN,stage2Loop.thisTrialN,stage2Loop.thisN,stage2Loop.thisIndex,blockLoop2.thisRepN,blockLoop2.thisTrialN,blockLoop2.thisN,blockLoop2.thisIndex,testLoop.thisRepN,testLoop.thisTrialN,testLoop.thisN,testLoop.thisIndex,blockLoopTest.thisRepN,blockLoopTest.thisTrialN,blockLoopTest.thisN,blockLoopTest.thisIndex,cuePics,id_instr_text.started,id_instr_text.stopped,space_to_continue_2.started,space_to_continue_2.stopped,end_instructions_resp_3.keys,end_instructions_resp_3.rt,end_instructions_resp_3.started,end_instructions_resp_3.stopped,id_input_instr.started,id_input_instr.stopped,id_input_rect.started,id_input_rect.stopped,id_input_resp.keys,id_input_resp.rt,id_input_resp.started,id_input_resp.stopped,sonaID,id_input_text.started,id_input_text.stopped,final_text.started,final_text.stopped,instructions.started,instructions.stopped,end_instructions_resp.keys,end_instructions_resp.rt,end_instructions_resp.started,end_instructions_resp.stopped,space_to_continue.started,space_to_continue.stopped,instructions_stage0.started,instructions_stage0.stopped,end_instructions_resp_stage0.keys,end_instructions_resp_stage0.rt,end_instructions_resp_stage0.started,end_instructions_resp_stage0.stopped,space_to_continue_stage0.started,space_to_continue_stage0.stopped,text.started,text.stopped,resp_text1.started,resp_text1.stopped,resp_text2.started,resp_text2.stopped,trial_resp.keys,trial_resp.corr,trial_resp.rt,trial_resp.started,trial_resp.stopped,cue1Image.started,cue1Image.stopped,cue2Image.started,cue2Image.stopped,cue1Image_fb.started,cue1Image_fb.stopped,cue2Image_fb.started,cue2Image_fb.stopped,fb_text_answer.started,fb_text_answer.stopped,feedback_image.started,feedback_image.stopped,instructions_stage1.started,instructions_stage1.stopped,end_instructions_resp_stage1.keys,end_instructions_resp_stage1.rt,end_instructions_resp_stage1.started,end_instructions_resp_stage1.stopped,space_to_continue_stage1.started,space_to_continue_stage1.stopped,instructions_2.started,instructions_2.stopped,end_instructions_resp_2.keys,end_instructions_resp_2.rt,end_instructions_resp_2.started,end_instructions_resp_2.stopped,press_space_to_continue_stage2.started,press_space_to_continue_stage2.stopped,instructions_testStage1.started,instructions_testStage1.stopped,end_instructions_resp_test1.keys,end_instructions_resp_test1.rt,end_instructions_resp_test1.started,end_instructions_resp_test1.stopped,press_space_to_continue_test1.started,press_space_to_continue_test1.stopped,cue1Image_testChoice.started,cue1Image_testChoice.stopped,cue2Image_testChoice.started,cue2Image_testChoice.stopped,test_resp.keys,test_resp.corr,test_resp.rt,test_resp.started,test_resp.stopped,cue1Image_testConf.started,cue1Image_testConf.stopped,cue2Image_testConf.started,cue2Image_testConf.stopped,conf_reminder.started,conf_reminder.stopped,conf_rating.response,conf_rating.rt,conf_rating.started,conf_rating.stopped,session,participant,date,expName,psychopyVersion,frameRate,
,,,,,,,,,,,,,,,,,,,,,,,,,,,,,,,,,,,,,,,,,,,"{'none': 'pictures/20M_AN_C.png', 'alpha': 'pictures/SHINEd_pepper.png', 'beta': 'pictures/SHINEd_pear.png', 'theta': 'pictures/SHINEd_melon.png', 'phi': 'pictures/SHINEd_apple.png', 'T1': 'pictures/36M_AN_C.png', 'T2': 'pictures/37M_AN_C.png', 'T3': 'pictures/22M_AN_C.png', 'T4': 'pictures/20M_AN_C.png', 'T5': 'pictures/31M_AN_C.png', 'T6': 'pictures/25M_AN_C.png', 'B1': 'pictures/38M_NE_C.png', 'B2': 'pictures/33M_NE_C.png', 'B3': 'pictures/32M_NE_C.png', 'B4': 'pictures/23M_NE_C.png', 'B5': 'pictures/26M_NE_C.png', 'B6': 'pictures/34M_NE_C.png'}",13.177960854000048,None,18.161260666999624,None,space,8.504940820999764,18.161260666999624,None,,,,,,,,,,,,,,,,,,,,,,,,,,,,,,,,,,,,,,,,,,,,,,,,,,,,,,,,,,,,,,,,,,,,,,,,,,,,,,,,,,,,,,,,,,,,,,,,001,79,2020_Feb_06_1012,spring_faces,3.2.3,60.01802041039679,
,,,,,,,,,,,,,,,,,,,,,,,,,,,,,,,,,,,,,,,,,,,,,,,,,,,,27.4435149309993,None,27.4435149309993,None,"['0', '3', '3', '1', 'z', 'i', 'b', 'r', 'o']","[32.23075930699997, 32.630761012999756, 35.52672742999948, 35.814770321999276, 38.66272692899929, 39.0307489249999, 43.95861492899985, 44.150801529999626, 44.3586398009993]",27.4435149309993,None,,,,,,,,,,,,,,,,,,,,,,,,,,,,,,,,,,,,,,,,,,,,,,,,,,,,,,,,,,,,,,,,,,,,,,,,,,,,,,,,,,,,,,,,001,79,2020_Feb_06_1012,spring_faces,3.2.3,60.01802041039679,
,,,,,,,,,,,,,,,,,,,,,,,,,,,,,,,,,,,,,,,,,,,,,,,,,,,,,,,,,,,,0331zibro,27.4435149309993,None,27.4435149309993,None,76.86121856999944,None,space,0.5015134519999265,81.84459100499953,None,,,,,,,,,,,,,,,,,,,,,,,,,,,,,,,,,,,,,,,,,,,,,,,,,,,,,,,,,,,,,,,,,,,,,,,,,,,,,001,79,2020_Feb_06_1012,spring_faces,3.2.3,60.01802041039679,
,,,,,,,,,,,,,,,,,,,,,,,,,,,,,,,,,,,,,,,,,,,,,,,,,,,,,,,,,,,,,,,,,,,,,,,81.84459100499953,None,82.37787135599956,None,space,6.888915911999902,87.36128268599987,None,,,,,,,,,,,,,,,,,,,,,,,,,,,,,,,,,,,,,,,,,,,,,,,,,,,,,,,,,,,,,,,,,,,,,001,79,2020_Feb_06_1012,spring_faces,3.2.3,60.01802041039679,
condition files/Stage0a.xlsx,0a,alpha,none,h,"['h', 'g']","['Chess', 'Go']","[0, 0.5]","[0, 0]",1,0,0,0,0,0,0,0,0,0,,,,,,,,,,,,,,,,,,,,,,,,,,,,,,,,,,,,,,,,,,,,,,,,,,,,,,,,,,,,,87.36128268599987,None,94.36125607399936,None,94.36125607399936,None,94.36125607399936,None,h,1,4.30371273899982,96.0104927299999,None,96.0104927299999,None,96.0104927299999,None,100.42787636599951,None,100.42787636599951,None,100.42787636599951,None,100.42787636599951,None,,,,,,,,,,,,,,,,,,,,,,,,,,,,,,,,,,,,,,,,,,,,001,79,2020_Feb_06_1012,spring_faces,3.2.3,60.01802041039679,
condition files/Stage0a.xlsx,0a,beta,none,g,"['h', 'g']","['Chess', 'Go']","[0, 0.5]","[0, 0]",1,0,0,0,0,0,0,1,1,1,,,,,,,,,,,,,,,,,,,,,,,,,,,,,,,,,,,,,,,,,,,,,,,,,,,,,,,,,,,,,,,102.3612617029994,None,102.3612617029994,None,102.3612617029994,None,g,1,0.9942853669999749,103.92791408499943,None,103.92791408499943,None,103.92791408499943,None,104.97794946299928,None,104.97794946299928,None,104.97794946299928,None,104.97794946299928,None,,,,,,,,,,,,,,,,,,,,,,,,,,,,,,,,,,,,,,,,,,,,001,79,2020_Feb_06_1012,spring_faces,3.2.3,60.01802041039679,
condition files/Stage0a.xlsx,0a,alpha,none,h,"['h', 'g']","['Chess', 'Go']","[0, 0.5]","[0, 0]",1,0,0,1,1,1,0,0,0,0,,,,,,,,,,,,,,,,,,,,,,,,,,,,,,,,,,,,,,,,,,,,,,,,,,,,,,,,,,,,,,,106.97792415499953,None,106.97792415499953,None,106.97792415499953,None,h,1,0.9230029800000921,108.51119735999964,None,108.51119735999964,None,108.51119735999964,None,109.4945673129996,None,109.4945673129996,None,109.4945673129996,None,109.4945673129996,None,,,,,,,,,,,,,,,,,,,,,,,,,,,,,,,,,,,,,,,,,,,,001,79,2020_Feb_06_1012,spring_faces,3.2.3,60.01802041039679,
condition files/Stage0a.xlsx,0a,beta,none,g,"['h', 'g']","['Chess', 'Go']","[0, 0.5]","[0, 0]",1,0,0,1,1,1,0,1,1,1,,,,,,,,,,,,,,,,,,,,,,,,,,,,,,,,,,,,,,,,,,,,,,,,,,,,,,,,,,,,,,,111.47795157099972,None,111.47795157099972,None,111.47795157099972,None,g,1,0.5668506089996299,113.0112712579994,None,113.0112712579994,None,113.0112712579994,None,113.62795975899917,None,113.62795975899917,None,113.62795975899917,None,113.62795975899917,None,,,,,,,,,,,,,,,,,,,,,,,,,,,,,,,,,,,,,,,,,,,,001,79,2020_Feb_06_1012,spring_faces,3.2.3,60.01802041039679,
condition files/Stage0a.xlsx,0a,beta,none,g,"['h', 'g']","['Chess', 'Go']","[0, 0.5]","[0, 0]",1,0,0,2,2,2,0,0,0,1,,,,,,,,,,,,,,,,,,,,,,,,,,,,,,,,,,,,,,,,,,,,,,,,,,,,,,,,,,,,,,,115.62788989199998,None,115.62788989199998,None,115.62788989199998,None,g,1,1.488937993000036,117.16125332199954,None,117.16125332199954,None,117.16125332199954,None,118.71131328699994,None,118.71131328699994,None,118.71131328699994,None,118.71131328699994,None,,,,,,,,,,,,,,,,,,,,,,,,,,,,,,,,,,,,,,,,,,,,001,79,2020_Feb_06_1012,spring_faces,3.2.3,60.01802041039679,
condition files/Stage0a.xlsx,0a,alpha,none,h,"['h', 'g']","['Chess', 'Go']","[0, 0.5]","[0, 0]",1,0,0,2,2,2,0,1,1,0,,,,,,,,,,,,,,,,,,,,,,,,,,,,,,,,,,,,,,,,,,,,,,,,,,,,,,,,,,,,,,,120.69459728999936,None,120.69459728999936,None,120.69459728999936,None,h,1,0.6143297590006114,122.22793164299947,None,122.22793164299947,None,122.22793164299947,None,122.91126894299941,None,122.91126894299941,None,122.91126894299941,None,122.91126894299941,None,,,,,,,,,,,,,,,,,,,,,,,,,,,,,,,,,,,,,,,,,,,,001,79,2020_Feb_06_1012,spring_faces,3.2.3,60.01802041039679,
condition files/Stage0a.xlsx,0a,beta,none,g,"['h', 'g']","['Chess', 'Go']","[0, 0.5]","[0, 0]",1,0,0,3,3,3,0,0,0,1,,,,,,,,,,,,,,,,,,,,,,,,,,,,,,,,,,,,,,,,,,,,,,,,,,,,,,,,,,,,,,,124.89454981199924,None,124.89454981199924,None,124.89454981199924,None,g,1,1.0223524880002515,126.42787889600004,None,126.42787889600004,None,126.42787889600004,None,127.51128421399972,None,127.51128421399972,None,127.51128421399972,None,127.51128421399972,None,,,,,,,,,,,,,,,,,,,,,,,,,,,,,,,,,,,,,,,,,,,,001,79,2020_Feb_06_1012,spring_faces,3.2.3,60.01802041039679,
condition files/Stage0a.xlsx,0a,alpha,none,h,"['h', 'g']","['Chess', 'Go']","[0, 0.5]","[0, 0]",1,0,0,3,3,3,0,1,1,0,,,,,,,,,,,,,,,,,,,,,,,,,,,,,,,,,,,,,,,,,,,,,,,,,,,,,,,,,,,,,,,129.49463571999968,None,129.49463571999968,None,129.49463571999968,None,h,1,0.9823624239998026,131.02794434899988,None,131.02794434899988,None,131.02794434899988,None,132.0612093439995,None,132.0612093439995,None,132.0612093439995,None,132.0612093439995,None,,,,,,,,,,,,,,,,,,,,,,,,,,,,,,,,,,,,,,,,,,,,001,79,2020_Feb_06_1012,spring_faces,3.2.3,60.01802041039679,
condition files/Stage0a.xlsx,0a,beta,none,g,"['h', 'g']","['Chess', 'Go']","[0, 0.5]","[0, 0]",1,0,0,4,4,4,0,0,0,1,,,,,,,,,,,,,,,,,,,,,,,,,,,,,,,,,,,,,,,,,,,,,,,,,,,,,,,,,,,,,,,134.06123210999976,None,134.06123210999976,None,134.06123210999976,None,g,1,0.7035554959993533,135.59463086199958,None,135.59463086199958,None,135.59463086199958,None,136.36114733899922,None,136.36114733899922,None,136.36114733899922,None,136.36114733899922,None,,,,,,,,,,,,,,,,,,,,,,,,,,,,,,,,,,,,,,,,,,,,001,79,2020_Feb_06_1012,spring_faces,3.2.3,60.01802041039679,
condition files/Stage0a.xlsx,0a,alpha,none,h,"['h', 'g']","['Chess', 'Go']","[0, 0.5]","[0, 0]",1,0,0,4,4,4,0,1,1,0,,,,,,,,,,,,,,,,,,,,,,,,,,,,,,,,,,,,,,,,,,,,,,,,,,,,,,,,,,,,,,,138.3446006209997,None,138.3446006209997,None,138.3446006209997,None,h,1,0.5323539270002584,139.87792067400005,None,139.87792067400005,None,139.87792067400005,None,140.4778961919992,None,140.4778961919992,None,140.4778961919992,None,140.4778961919992,None,,,,,,,,,,,,,,,,,,,,,,,,,,,,,,,,,,,,,,,,,,,,001,79,2020_Feb_06_1012,spring_faces,3.2.3,60.01802041039679,
condition files/Stage0a.xlsx,0a,alpha,none,h,"['h', 'g']","['Chess', 'Go']","[0, 0.5]","[0, 0]",1,0,0,5,5,5,0,0,0,0,,,,,,,,,,,,,,,,,,,,,,,,,,,,,,,,,,,,,,,,,,,,,,,,,,,,,,,,,,,,,,,142.46121554799993,None,142.46121554799993,None,142.46121554799993,None,h,1,0.6716232790004142,143.9945855119995,None,143.9945855119995,None,143.9945855119995,None,144.72794997499932,None,144.72794997499932,None,144.72794997499932,None,144.72794997499932,None,,,,,,,,,,,,,,,,,,,,,,,,,,,,,,,,,,,,,,,,,,,,001,79,2020_Feb_06_1012,spring_faces,3.2.3,60.01802041039679,
condition files/Stage0a.xlsx,0a,beta,none,g,"['h', 'g']","['Chess', 'Go']","[0, 0.5]","[0, 0]",1,0,0,5,5,5,0,1,1,1,,,,,,,,,,,,,,,,,,,,,,,,,,,,,,,,,,,,,,,,,,,,,,,,,,,,,,,,,,,,,,,146.71127721599987,None,146.71127721599987,None,146.71127721599987,None,g,1,0.4855389849999483,148.2445913169995,None,148.2445913169995,None,148.2445913169995,None,148.81114911199984,None,148.81114911199984,None,148.81114911199984,None,148.81114911199984,None,,,,,,,,,,,,,,,,,,,,,,,,,,,,,,,,,,,,,,,,,,,,001,79,2020_Feb_06_1012,spring_faces,3.2.3,60.01802041039679,
condition files/Stage0b_1.xlsx,0b,none,beta,g,"['h', 'g']","['Chess', 'Go']","[-0.15, 0.5]","[0.15, 0.5]",0,1,0,6,6,6,0,0,0,1,,,,,,,,,,,,,,,,,,,,,,,,,,,,,,,,,,,,,,,,,,,,,,,,,,,,,,,,,,,,,,,151.1612789789997,None,151.1612789789997,None,151.1612789789997,None,g,1,0.897681102000206,152.34461073999955,None,152.34461073999955,None,152.34461073999955,None,153.31130123299954,None,153.31130123299954,None,153.31130123299954,None,153.31130123299954,None,,,,,,,,,,,,,,,,,,,,,,,,,,,,,,,,,,,,,,,,,,,,001,79,2020_Feb_06_1012,spring_faces,3.2.3,60.01802041039679,
condition files/Stage0b_1.xlsx,0b,alpha,none,h,"['h', 'g']","['Chess', 'Go']","[-0.15, 0.5]","[0.15, 0.5]",1,0,0,6,6,6,0,1,1,0,,,,,,,,,,,,,,,,,,,,,,,,,,,,,,,,,,,,,,,,,,,,,,,,,,,,,,,,,,,,,,,155.27785145599955,None,155.27785145599955,None,155.27785145599955,None,h,1,1.1992007260005266,156.81103748499936,None,156.81103748499936,None,156.81103748499936,None,158.0778679389996,None,158.0778679389996,None,158.0778679389996,None,158.0778679389996,None,,,,,,,,,,,,,,,,,,,,,,,,,,,,,,,,,,,,,,,,,,,,001,79,2020_Feb_06_1012,spring_faces,3.2.3,60.01802041039679,
condition files/Stage0b_2.xlsx,0b,none,alpha,h,"['h', 'g']","['Chess', 'Go']","[-0.15, 0.5]","[0.15, 0.5]",0,1,0,7,7,7,0,0,0,0,,,,,,,,,,,,,,,,,,,,,,,,,,,,,,,,,,,,,,,,,,,,,,,,,,,,,,,,,,,,,,,160.11131144199953,None,160.11131144199953,None,160.11131144199953,None,h,1,0.7355861269998059,161.59459602599964,None,161.59459602599964,None,161.59459602599964,None,162.39458470499994,None,162.39458470499994,None,162.39458470499994,None,162.39458470499994,None,,,,,,,,,,,,,,,,,,,,,,,,,,,,,,,,,,,,,,,,,,,,001,79,2020_Feb_06_1012,spring_faces,3.2.3,60.01802041039679,
condition files/Stage0b_2.xlsx,0b,beta,none,g,"['h', 'g']","['Chess', 'Go']","[-0.15, 0.5]","[0.15, 0.5]",1,0,0,7,7,7,0,1,1,1,,,,,,,,,,,,,,,,,,,,,,,,,,,,,,,,,,,,,,,,,,,,,,,,,,,,,,,,,,,,,,,164.37799365999945,None,164.37799365999945,None,164.37799365999945,None,g,1,0.7871799889999238,165.91101592999985,None,165.91101592999985,None,165.91101592999985,None,166.77794249899944,None,166.77794249899944,None,166.77794249899944,None,166.77794249899944,None,,,,,,,,,,,,,,,,,,,,,,,,,,,,,,,,,,,,,,,,,,,,001,79,2020_Feb_06_1012,spring_faces,3.2.3,60.01802041039679,
condition files/Stage0b_1.xlsx,0b,alpha,none,h,"['h', 'g']","['Chess', 'Go']","[-0.15, 0.5]","[0.15, 0.5]",1,0,0,8,8,8,0,0,0,0,,,,,,,,,,,,,,,,,,,,,,,,,,,,,,,,,,,,,,,,,,,,,,,,,,,,,,,,,,,,,,,168.76126399699933,None,168.76126399699933,None,168.76126399699933,None,h,1,1.427618005000113,170.29459636199954,None,170.29459636199954,None,170.29459636199954,None,171.77798348599936,None,171.77798348599936,None,171.77798348599936,None,171.77798348599936,None,,,,,,,,,,,,,,,,,,,,,,,,,,,,,,,,,,,,,,,,,,,,001,79,2020_Feb_06_1012,spring_faces,3.2.3,60.01802041039679,
condition files/Stage0b_1.xlsx,0b,none,beta,g,"['h', 'g']","['Chess', 'Go']","[-0.15, 0.5]","[0.15, 0.5]",0,1,0,8,8,8,0,1,1,1,,,,,,,,,,,,,,,,,,,,,,,,,,,,,,,,,,,,,,,,,,,,,,,,,,,,,,,,,,,,,,,173.76129350599967,None,173.76129350599967,None,173.76129350599967,None,g,1,0.8435727010000846,175.294614077,None,175.294614077,None,175.294614077,None,176.21125458699953,None,176.21125458699953,None,176.21125458699953,None,176.21125458699953,None,,,,,,,,,,,,,,,,,,,,,,,,,,,,,,,,,,,,,,,,,,,,001,79,2020_Feb_06_1012,spring_faces,3.2.3,60.01802041039679,
condition files/Stage0b_2.xlsx,0b,beta,none,g,"['h', 'g']","['Chess', 'Go']","[-0.15, 0.5]","[0.15, 0.5]",1,0,0,9,9,9,0,0,0,1,,,,,,,,,,,,,,,,,,,,,,,,,,,,,,,,,,,,,,,,,,,,,,,,,,,,,,,,,,,,,,,178.19458950699936,None,178.19458950699936,None,178.19458950699936,None,g,1,1.8667228390004311,179.72758620399964,None,179.72758620399964,None,179.72758620399964,None,181.66123478699956,None,181.66123478699956,None,181.66123478699956,None,181.66123478699956,None,,,,,,,,,,,,,,,,,,,,,,,,,,,,,,,,,,,,,,,,,,,,001,79,2020_Feb_06_1012,spring_faces,3.2.3,60.01802041039679,
condition files/Stage0b_2.xlsx,0b,none,alpha,h,"['h', 'g']","['Chess', 'Go']","[-0.15, 0.5]","[0.15, 0.5]",0,1,0,9,9,9,0,1,1,0,,,,,,,,,,,,,,,,,,,,,,,,,,,,,,,,,,,,,,,,,,,,,,,,,,,,,,,,,,,,,,,183.62789643999986,None,183.62789643999986,None,183.62789643999986,None,h,1,0.8174003920003088,185.16073659599988,None,185.16073659599988,None,185.16073659599988,None,186.04455496299943,None,186.04455496299943,None,186.04455496299943,None,186.04455496299943,None,,,,,,,,,,,,,,,,,,,,,,,,,,,,,,,,,,,,,,,,,,,,001,79,2020_Feb_06_1012,spring_faces,3.2.3,60.01802041039679,
condition files/Stage0b_1.xlsx,0b,alpha,none,h,"['h', 'g']","['Chess', 'Go']","[-0.15, 0.5]","[0.15, 0.5]",1,0,0,10,10,10,0,0,0,0,,,,,,,,,,,,,,,,,,,,,,,,,,,,,,,,,,,,,,,,,,,,,,,,,,,,,,,,,,,,,,,188.02790105199983,None,188.02790105199983,None,188.02790105199983,None,h,1,0.8652399570000853,189.56106848699983,None,189.56106848699983,None,189.56106848699983,None,190.47756395799934,None,190.47756395799934,None,190.47756395799934,None,190.47756395799934,None,,,,,,,,,,,,,,,,,,,,,,,,,,,,,,,,,,,,,,,,,,,,001,79,2020_Feb_06_1012,spring_faces,3.2.3,60.01802041039679,
condition files/Stage0b_1.xlsx,0b,none,beta,g,"['h', 'g']","['Chess', 'Go']","[-0.15, 0.5]","[0.15, 0.5]",0,1,0,10,10,10,0,1,1,1,,,,,,,,,,,,,,,,,,,,,,,,,,,,,,,,,,,,,,,,,,,,,,,,,,,,,,,,,,,,,,,192.46122925300006,None,192.46122925300006,None,192.46122925300006,None,g,1,0.43170042500059935,193.99460946199997,None,193.99460946199997,None,193.99460946199997,None,194.49457028599954,None,194.49457028599954,None,194.49457028599954,None,194.49457028599954,None,,,,,,,,,,,,,,,,,,,,,,,,,,,,,,,,,,,,,,,,,,,,001,79,2020_Feb_06_1012,spring_faces,3.2.3,60.01802041039679,
condition files/Stage0b_2.xlsx,0b,none,alpha,h,"['h', 'g']","['Chess', 'Go']","[-0.15, 0.5]","[0.15, 0.5]",0,1,0,11,11,11,0,0,0,0,,,,,,,,,,,,,,,,,,,,,,,,,,,,,,,,,,,,,,,,,,,,,,,,,,,,,,,,,,,,,,,196.47788140800003,None,196.47788140800003,None,196.47788140800003,None,h,1,0.6549345269995683,198.01126063499942,None,198.01126063499942,None,198.01126063499942,None,198.74457217799954,None,198.74457217799954,None,198.74457217799954,None,198.74457217799954,None,,,,,,,,,,,,,,,,,,,,,,,,,,,,,,,,,,,,,,,,,,,,001,79,2020_Feb_06_1012,spring_faces,3.2.3,60.01802041039679,
condition files/Stage0b_2.xlsx,0b,beta,none,g,"['h', 'g']","['Chess', 'Go']","[-0.15, 0.5]","[0.15, 0.5]",1,0,0,11,11,11,0,1,1,1,,,,,,,,,,,,,,,,,,,,,,,,,,,,,,,,,,,,,,,,,,,,,,,,,,,,,,,,,,,,,,,200.7113080449999,None,200.7113080449999,None,200.7113080449999,None,g,1,0.6138886509997974,202.24439878999965,None,202.24439878999965,None,202.24439878999965,None,202.92794685699937,None,202.92794685699937,None,202.92794685699937,None,202.92794685699937,None,,,,,,,,,,,,,,,,,,,,,,,,,,,,,,,,,,,,,,,,,,,,001,79,2020_Feb_06_1012,spring_faces,3.2.3,60.01802041039679,
condition files/Stage0c_1.xlsx,0c,alpha,phi,h,"['h', 'g']","['Chess', 'Go']","[-0.15, 0.5]","[0.15, 0.5]",1,1,0,12,12,12,0,0,0,1,,,,,,,,,,,,,,,,,,,,,,,,,,,,,,,,,,,,,,,,,,,,,,,,,,,,,,,,,,,,,,,205.22791752899957,None,205.22791752899957,None,205.22791752899957,None,h,1,4.316438380000363,206.47787850299937,None,206.47787850299937,None,206.47787850299937,None,210.86106812599974,None,210.86106812599974,None,210.86106812599974,None,210.86106812599974,None,,,,,,,,,,,,,,,,,,,,,,,,,,,,,,,,,,,,,,,,,,,,001,79,2020_Feb_06_1012,spring_faces,3.2.3,60.01802041039679,
condition files/Stage0c_1.xlsx,0c,beta,theta,g,"['h', 'g']","['Chess', 'Go']","[-0.15, 0.5]","[0.15, 0.5]",1,1,0,12,12,12,0,1,1,2,,,,,,,,,,,,,,,,,,,,,,,,,,,,,,,,,,,,,,,,,,,,,,,,,,,,,,,,,,,,,,,212.82795441899998,None,212.82795441899998,None,212.82795441899998,None,g,1,0.9596374239999932,214.39459482799975,None,214.39459482799975,None,214.39459482799975,None,215.41129798399925,None,215.41129798399925,None,215.41129798399925,None,215.41129798399925,None,,,,,,,,,,,,,,,,,,,,,,,,,,,,,,,,,,,,,,,,,,,,001,79,2020_Feb_06_1012,spring_faces,3.2.3,60.01802041039679,
condition files/Stage0c_1.xlsx,0c,phi,beta,g,"['h', 'g']","['Chess', 'Go']","[-0.15, 0.5]","[0.15, 0.5]",1,1,0,12,12,12,0,2,2,3,,,,,,,,,,,,,,,,,,,,,,,,,,,,,,,,,,,,,,,,,,,,,,,,,,,,,,,,,,,,,,,217.39459716700003,None,217.39459716700003,None,217.39459716700003,None,g,1,2.5222566219999862,218.92793763099962,None,218.92793763099962,None,218.92793763099962,None,221.5112929929992,None,221.5112929929992,None,221.5112929929992,None,221.5112929929992,None,,,,,,,,,,,,,,,,,,,,,,,,,,,,,,,,,,,,,,,,,,,,001,79,2020_Feb_06_1012,spring_faces,3.2.3,60.01802041039679,
condition files/Stage0c_1.xlsx,0c,theta,alpha,h,"['h', 'g']","['Chess', 'Go']","[-0.15, 0.5]","[0.15, 0.5]",1,1,0,12,12,12,0,3,3,0,,,,,,,,,,,,,,,,,,,,,,,,,,,,,,,,,,,,,,,,,,,,,,,,,,,,,,,,,,,,,,,223.51127090199952,None,223.51127090199952,None,223.51127090199952,None,h,1,1.0463898260004498,225.02787778899983,None,225.02787778899983,None,225.02787778899983,None,226.127938265,None,226.127938265,None,226.127938265,None,226.127938265,None,,,,,,,,,,,,,,,,,,,,,,,,,,,,,,,,,,,,,,,,,,,,001,79,2020_Feb_06_1012,spring_faces,3.2.3,60.01802041039679,
condition files/Stage0c_2.xlsx,0c,theta,beta,g,"['h', 'g']","['Chess', 'Go']","[-0.15, 0.5]","[0.15, 0.5]",1,1,0,13,13,13,0,0,0,2,,,,,,,,,,,,,,,,,,,,,,,,,,,,,,,,,,,,,,,,,,,,,,,,,,,,,,,,,,,,,,,228.44456154,None,228.44456154,None,228.44456154,None,g,1,1.804932454999289,229.6612728379996,None,229.6612728379996,None,229.6612728379996,None,231.5279534429992,None,231.5279534429992,None,231.5279534429992,None,231.5279534429992,None,,,,,,,,,,,,,,,,,,,,,,,,,,,,,,,,,,,,,,,,,,,,001,79,2020_Feb_06_1012,spring_faces,3.2.3,60.01802041039679,
condition files/Stage0c_2.xlsx,0c,beta,phi,g,"['h', 'g']","['Chess', 'Go']","[-0.15, 0.5]","[0.15, 0.5]",1,1,0,13,13,13,0,1,1,3,,,,,,,,,,,,,,,,,,,,,,,,,,,,,,,,,,,,,,,,,,,,,,,,,,,,,,,,,,,,,,,233.51132408599915,None,233.51132408599915,None,233.51132408599915,None,g,1,1.7824364799998875,235.02785917999972,None,235.02785917999972,None,235.02785917999972,None,236.8612860229996,None,236.8612860229996,None,236.8612860229996,None,236.8612860229996,None,,,,,,,,,,,,,,,,,,,,,,,,,,,,,,,,,,,,,,,,,,,,001,79,2020_Feb_06_1012,spring_faces,3.2.3,60.01802041039679,
condition files/Stage0c_2.xlsx,0c,phi,alpha,h,"['h', 'g']","['Chess', 'Go']","[-0.15, 0.5]","[0.15, 0.5]",1,1,0,13,13,13,0,2,2,1,,,,,,,,,,,,,,,,,,,,,,,,,,,,,,,,,,,,,,,,,,,,,,,,,,,,,,,,,,,,,,,238.84460312399915,None,238.84460312399915,None,238.84460312399915,None,h,1,1.184997669999575,240.3611111629998,None,240.3611111629998,None,240.3611111629998,None,241.6112310539993,None,241.6112310539993,None,241.6112310539993,None,241.6112310539993,None,,,,,,,,,,,,,,,,,,,,,,,,,,,,,,,,,,,,,,,,,,,,001,79,2020_Feb_06_1012,spring_faces,3.2.3,60.01802041039679,
condition files/Stage0c_2.xlsx,0c,alpha,theta,h,"['h', 'g']","['Chess', 'Go']","[-0.15, 0.5]","[0.15, 0.5]",1,1,0,13,13,13,0,3,3,0,,,,,,,,,,,,,,,,,,,,,,,,,,,,,,,,,,,,,,,,,,,,,,,,,,,,,,,,,,,,,,,243.59455051299938,None,243.59455051299938,None,243.59455051299938,None,h,1,0.7862586210003428,245.12793467899974,None,245.12793467899974,None,245.12793467899974,None,245.97795529999985,None,245.97795529999985,None,245.97795529999985,None,245.97795529999985,None,,,,,,,,,,,,,,,,,,,,,,,,,,,,,,,,,,,,,,,,,,,,001,79,2020_Feb_06_1012,spring_faces,3.2.3,60.01802041039679,
condition files/Stage0c_1.xlsx,0c,theta,alpha,h,"['h', 'g']","['Chess', 'Go']","[-0.15, 0.5]","[0.15, 0.5]",1,1,0,14,14,14,0,0,0,0,,,,,,,,,,,,,,,,,,,,,,,,,,,,,,,,,,,,,,,,,,,,,,,,,,,,,,,,,,,,,,,247.9779321999995,None,247.9779321999995,None,247.9779321999995,None,h,1,0.8348464479995528,249.51127373300005,None,249.51127373300005,None,249.51127373300005,None,250.41111069499948,None,250.41111069499948,None,250.41111069499948,None,250.41111069499948,None,,,,,,,,,,,,,,,,,,,,,,,,,,,,,,,,,,,,,,,,,,,,001,79,2020_Feb_06_1012,spring_faces,3.2.3,60.01802041039679,
condition files/Stage0c_1.xlsx,0c,beta,theta,g,"['h', 'g']","['Chess', 'Go']","[-0.15, 0.5]","[0.15, 0.5]",1,1,0,14,14,14,0,1,1,2,,,,,,,,,,,,,,,,,,,,,,,,,,,,,,,,,,,,,,,,,,,,,,,,,,,,,,,,,,,,,,,252.39450696399945,None,252.39450696399945,None,252.39450696399945,None,g,1,0.9150845020003544,253.91119708299993,None,253.91119708299993,None,253.91119708299993,None,254.8779780799996,None,254.8779780799996,None,254.8779780799996,None,254.8779780799996,None,,,,,,,,,,,,,,,,,,,,,,,,,,,,,,,,,,,,,,,,,,,,001,79,2020_Feb_06_1012,spring_faces,3.2.3,60.01802041039679,
condition files/Stage0c_1.xlsx,0c,alpha,phi,h,"['h', 'g']","['Chess', 'Go']","[-0.15, 0.5]","[0.15, 0.5]",1,1,0,14,14,14,0,2,2,1,,,,,,,,,,,,,,,,,,,,,,,,,,,,,,,,,,,,,,,,,,,,,,,,,,,,,,,,,,,,,,,256.8612259799993,None,256.8612259799993,None,256.8612259799993,None,h,1,0.9287288589994205,258.3774850759992,None,258.3774850759992,None,258.3774850759992,None,259.3613358519997,None,259.3613358519997,None,259.3613358519997,None,259.3613358519997,None,,,,,,,,,,,,,,,,,,,,,,,,,,,,,,,,,,,,,,,,,,,,001,79,2020_Feb_06_1012,spring_faces,3.2.3,60.01802041039679,
condition files/Stage0c_1.xlsx,0c,phi,beta,g,"['h', 'g']","['Chess', 'Go']","[-0.15, 0.5]","[0.15, 0.5]",1,1,0,14,14,14,0,3,3,3,,,,,,,,,,,,,,,,,,,,,,,,,,,,,,,,,,,,,,,,,,,,,,,,,,,,,,,,,,,,,,,261.3445957919994,None,261.3445957919994,None,261.3445957919994,None,g,1,1.164544747999571,262.877770909,None,262.877770909,None,262.877770909,None,264.094572643,None,264.094572643,None,264.094572643,None,264.094572643,None,,,,,,,,,,,,,,,,,,,,,,,,,,,,,,,,,,,,,,,,,,,,001,79,2020_Feb_06_1012,spring_faces,3.2.3,60.01802041039679,
condition files/Stage0c_2.xlsx,0c,beta,phi,g,"['h', 'g']","['Chess', 'Go']","[-0.15, 0.5]","[0.15, 0.5]",1,1,0,15,15,15,0,0,0,3,,,,,,,,,,,,,,,,,,,,,,,,,,,,,,,,,,,,,,,,,,,,,,,,,,,,,,,,,,,,,,,266.0945670359997,None,266.0945670359997,None,266.0945670359997,None,g,1,1.1984449519995906,267.62778994699966,None,267.62778994699966,None,267.62778994699966,None,268.8779758269993,None,268.8779758269993,None,268.8779758269993,None,268.8779758269993,None,,,,,,,,,,,,,,,,,,,,,,,,,,,,,,,,,,,,,,,,,,,,001,79,2020_Feb_06_1012,spring_faces,3.2.3,60.01802041039679,
condition files/Stage0c_2.xlsx,0c,alpha,theta,h,"['h', 'g']","['Chess', 'Go']","[-0.15, 0.5]","[0.15, 0.5]",1,1,0,15,15,15,0,1,1,0,,,,,,,,,,,,,,,,,,,,,,,,,,,,,,,,,,,,,,,,,,,,,,,,,,,,,,,,,,,,,,,270.86127479099923,None,270.86127479099923,None,270.86127479099923,None,h,1,0.6556357029994615,272.3945747309999,None,272.3945747309999,None,272.3945747309999,None,273.1113005999996,None,273.1113005999996,None,273.1113005999996,None,273.1113005999996,None,,,,,,,,,,,,,,,,,,,,,,,,,,,,,,,,,,,,,,,,,,,,001,79,2020_Feb_06_1012,spring_faces,3.2.3,60.01802041039679,
condition files/Stage0c_2.xlsx,0c,theta,beta,g,"['h', 'g']","['Chess', 'Go']","[-0.15, 0.5]","[0.15, 0.5]",1,1,0,15,15,15,0,2,2,2,,,,,,,,,,,,,,,,,,,,,,,,,,,,,,,,,,,,,,,,,,,,,,,,,,,,,,,,,,,,,,,275.094608722,None,275.094608722,None,275.094608722,None,g,1,0.8871174699997937,276.611075025,None,276.611075025,None,276.611075025,None,277.56128793099924,None,277.56128793099924,None,277.56128793099924,None,277.56128793099924,None,,,,,,,,,,,,,,,,,,,,,,,,,,,,,,,,,,,,,,,,,,,,001,79,2020_Feb_06_1012,spring_faces,3.2.3,60.01802041039679,
condition files/Stage0c_2.xlsx,0c,phi,alpha,h,"['h', 'g']","['Chess', 'Go']","[-0.15, 0.5]","[0.15, 0.5]",1,1,0,15,15,15,0,3,3,1,,,,,,,,,,,,,,,,,,,,,,,,,,,,,,,,,,,,,,,,,,,,,,,,,,,,,,,,,,,,,,,279.5445205619999,None,279.5445205619999,None,279.5445205619999,None,h,1,0.8372015679997276,281.0610066149993,None,281.0610066149993,None,281.0610066149993,None,281.96126646599987,None,281.96126646599987,None,281.96126646599987,None,281.96126646599987,None,,,,,,,,,,,,,,,,,,,,,,,,,,,,,,,,,,,,,,,,,,,,001,79,2020_Feb_06_1012,spring_faces,3.2.3,60.01802041039679,
condition files/Stage0c_1.xlsx,0c,phi,beta,g,"['h', 'g']","['Chess', 'Go']","[-0.15, 0.5]","[0.15, 0.5]",1,1,0,16,16,16,0,0,0,3,,,,,,,,,,,,,,,,,,,,,,,,,,,,,,,,,,,,,,,,,,,,,,,,,,,,,,,,,,,,,,,283.961294359,None,283.961294359,None,283.961294359,None,g,1,1.0755990839998049,285.4946222469998,None,285.4946222469998,None,285.4946222469998,None,286.627959769,None,286.627959769,None,286.627959769,None,286.627959769,None,,,,,,,,,,,,,,,,,,,,,,,,,,,,,,,,,,,,,,,,,,,,001,79,2020_Feb_06_1012,spring_faces,3.2.3,60.01802041039679,
condition files/Stage0c_1.xlsx,0c,theta,alpha,h,"['h', 'g']","['Chess', 'Go']","[-0.15, 0.5]","[0.15, 0.5]",1,1,0,16,16,16,0,1,1,0,,,,,,,,,,,,,,,,,,,,,,,,,,,,,,,,,,,,,,,,,,,,,,,,,,,,,,,,,,,,,,,288.61129514799995,None,288.61129514799995,None,288.61129514799995,None,h,1,0.7304596130006757,290.1278113979997,None,290.1278113979997,None,290.1278113979997,None,290.911278005,None,290.911278005,None,290.911278005,None,290.911278005,None,,,,,,,,,,,,,,,,,,,,,,,,,,,,,,,,,,,,,,,,,,,,001,79,2020_Feb_06_1012,spring_faces,3.2.3,60.01802041039679,
condition files/Stage0c_1.xlsx,0c,beta,theta,g,"['h', 'g']","['Chess', 'Go']","[-0.15, 0.5]","[0.15, 0.5]",1,1,0,16,16,16,0,2,2,2,,,,,,,,,,,,,,,,,,,,,,,,,,,,,,,,,,,,,,,,,,,,,,,,,,,,,,,,,,,,,,,292.8946015929996,None,292.8946015929996,None,292.8946015929996,None,g,1,0.7341695120003351,294.4279403139999,None,294.4279403139999,None,294.4279403139999,None,295.22787269499986,None,295.22787269499986,None,295.22787269499986,None,295.22787269499986,None,,,,,,,,,,,,,,,,,,,,,,,,,,,,,,,,,,,,,,,,,,,,001,79,2020_Feb_06_1012,spring_faces,3.2.3,60.01802041039679,
condition files/Stage0c_1.xlsx,0c,alpha,phi,h,"['h', 'g']","['Chess', 'Go']","[-0.15, 0.5]","[0.15, 0.5]",1,1,0,16,16,16,0,3,3,1,,,,,,,,,,,,,,,,,,,,,,,,,,,,,,,,,,,,,,,,,,,,,,,,,,,,,,,,,,,,,,,297.2112164299997,None,297.2112164299997,None,297.2112164299997,None,h,1,0.5465205809996405,298.7277357799994,None,298.7277357799994,None,298.7277357799994,None,299.3279522569992,None,299.3279522569992,None,299.3279522569992,None,299.3279522569992,None,,,,,,,,,,,,,,,,,,,,,,,,,,,,,,,,,,,,,,,,,,,,001,79,2020_Feb_06_1012,spring_faces,3.2.3,60.01802041039679,
condition files/Stage0c_2.xlsx,0c,beta,phi,g,"['h', 'g']","['Chess', 'Go']","[-0.15, 0.5]","[0.15, 0.5]",1,1,0,17,17,17,0,0,0,3,,,,,,,,,,,,,,,,,,,,,,,,,,,,,,,,,,,,,,,,,,,,,,,,,,,,,,,,,,,,,,,301.3445301899992,None,301.3445301899992,None,301.3445301899992,None,g,1,1.677753866000785,302.84446666999975,None,302.84446666999975,None,302.84446666999975,None,304.5779580569997,None,304.5779580569997,None,304.5779580569997,None,304.5779580569997,None,,,,,,,,,,,,,,,,,,,,,,,,,,,,,,,,,,,,,,,,,,,,001,79,2020_Feb_06_1012,spring_faces,3.2.3,60.01802041039679,
condition files/Stage0c_2.xlsx,0c,alpha,theta,h,"['h', 'g']","['Chess', 'Go']","[-0.15, 0.5]","[0.15, 0.5]",1,1,0,17,17,17,0,1,1,0,,,,,,,,,,,,,,,,,,,,,,,,,,,,,,,,,,,,,,,,,,,,,,,,,,,,,,,,,,,,,,,306.5612625599997,None,306.5612625599997,None,306.5612625599997,None,h,1,1.004381339000247,308.07781155199973,None,308.07781155199973,None,308.07781155199973,None,309.144601254,None,309.144601254,None,309.144601254,None,309.144601254,None,,,,,,,,,,,,,,,,,,,,,,,,,,,,,,,,,,,,,,,,,,,,001,79,2020_Feb_06_1012,spring_faces,3.2.3,60.01802041039679,
condition files/Stage0c_2.xlsx,0c,theta,beta,g,"['h', 'g']","['Chess', 'Go']","[-0.15, 0.5]","[0.15, 0.5]",1,1,0,17,17,17,0,2,2,2,,,,,,,,,,,,,,,,,,,,,,,,,,,,,,,,,,,,,,,,,,,,,,,,,,,,,,,,,,,,,,,311.1279640399998,None,311.1279640399998,None,311.1279640399998,None,g,1,1.09370609600046,312.6444962019996,None,312.6444962019996,None,312.6444962019996,None,313.7946039599992,None,313.7946039599992,None,313.7946039599992,None,313.7946039599992,None,,,,,,,,,,,,,,,,,,,,,,,,,,,,,,,,,,,,,,,,,,,,001,79,2020_Feb_06_1012,spring_faces,3.2.3,60.01802041039679,
condition files/Stage0c_2.xlsx,0c,phi,alpha,h,"['h', 'g']","['Chess', 'Go']","[-0.15, 0.5]","[0.15, 0.5]",1,1,0,17,17,17,0,3,3,1,,,,,,,,,,,,,,,,,,,,,,,,,,,,,,,,,,,,,,,,,,,,,,,,,,,,,,,,,,,,,,,315.7779917349999,None,315.7779917349999,None,315.7779917349999,None,h,1,0.7157567859994742,317.29453079799987,None,317.29453079799987,None,317.29453079799987,None,318.0612332719993,None,318.0612332719993,None,318.0612332719993,None,318.0612332719993,None,,,,,,,,,,,,,,,,,,,,,,,,,,,,,,,,,,,,,,,,,,,,001,79,2020_Feb_06_1012,spring_faces,3.2.3,60.01802041039679,
,,,,,,,,,,,,,,,,,,,,,,,,,,,,,,,,,,,,,,,,,,,,,,,,,,,,,,,,,,,,,,,,,,,,,,,,,,,,,,,,,,,,,,,,,,,,,,,,,,,,,,,,320.04455181399953,None,space,6.150184666000314,325.02794905799965,None,,,,,,,,,,,,,,,,,,,,,,,,,,,,,,,,,,,,,,001,79,2020_Feb_06_1012,spring_faces,3.2.3,60.01802041039679,
condition files/Stage1_1.xlsx,,B4,T4,m,"['c', 'm']","['Clue', 'Monopoly']","[-0.15, 0.5]","[0.15, 0.5]",1,1,,,,,,,,,0,0,0,0,0,0,0,7,,,,,,,,,,,,,,,,,,,,,,,,,,,,,,,,,,,,,,,,,,,,,,,,,,,,,,,331.52795056099967,None,331.52795056099967,None,331.52795056099967,None,m,1,3.5683633329999793,332.7777642689998,None,332.7777642689998,None,332.7777642689998,None,336.4279212269994,None,336.4279212269994,None,336.4279212269994,None,336.4279212269994,None,,,,,,,325.02794905799965,None,,,,,,,,,,,,,,,,,,,,,,,,,,,,,,,,,,,,001,79,2020_Feb_06_1012,spring_faces,3.2.3,60.01802041039679,
condition files/Stage1_1.xlsx,,T3,B4,c,"['c', 'm']","['Clue', 'Monopoly']","[-0.15, 0.5]","[0.15, 0.5]",1,1,,,,,,,,,0,0,0,0,0,1,1,5,,,,,,,,,,,,,,,,,,,,,,,,,,,,,,,,,,,,,,,,,,,,,,,,,,,,,,,338.39449839899953,None,338.39449839899953,None,338.39449839899953,None,c,1,2.7042505260005782,339.97792927999944,None,339.97792927999944,None,339.97792927999944,None,342.7612583329992,None,342.7612583329992,None,342.7612583329992,None,342.7612583329992,None,,,,,,,,,,,,,,,,,,,,,,,,,,,,,,,,,,,,,,,,,,,,001,79,2020_Feb_06_1012,spring_faces,3.2.3,60.01802041039679,
condition files/Stage1_1.xlsx,,T4,B3,m,"['c', 'm']","['Clue', 'Monopoly']","[-0.15, 0.5]","[0.15, 0.5]",1,1,,,,,,,,,0,0,0,0,0,2,2,6,,,,,,,,,,,,,,,,,,,,,,,,,,,,,,,,,,,,,,,,,,,,,,,,,,,,,,,344.72794125899964,None,344.72794125899964,None,344.72794125899964,None,m,1,2.658939257000384,346.3112714709996,None,346.3112714709996,None,346.3112714709996,None,349.044620916,None,349.044620916,None,349.044620916,None,349.044620916,None,,,,,,,,,,,,,,,,,,,,,,,,,,,,,,,,,,,,,,,,,,,,001,79,2020_Feb_06_1012,spring_faces,3.2.3,60.01802041039679,
condition files/Stage1_1.xlsx,,T2,B2,m,"['c', 'm']","['Clue', 'Monopoly']","[-0.15, 0.5]","[0.15, 0.5]",1,1,,,,,,,,,0,0,0,0,0,3,3,3,,,,,,,,,,,,,,,,,,,,,,,,,,,,,,,,,,,,,,,,,,,,,,,,,,,,,,,351.0113242999996,None,351.0113242999996,None,351.0113242999996,None,c,0,1.7514778049999222,352.59463223999956,None,352.59463223999956,None,352.59463223999956,None,354.4112136019994,None,354.4112136019994,None,354.4112136019994,None,354.4112136019994,None,,,,,,,,,,,,,,,,,,,,,,,,,,,,,,,,,,,,,,,,,,,,001,79,2020_Feb_06_1012,spring_faces,3.2.3,60.01802041039679,
condition files/Stage1_1.xlsx,,B3,T3,c,"['c', 'm']","['Clue', 'Monopoly']","[-0.15, 0.5]","[0.15, 0.5]",1,1,,,,,,,,,0,0,0,0,0,4,4,4,,,,,,,,,,,,,,,,,,,,,,,,,,,,,,,,,,,,,,,,,,,,,,,,,,,,,,,356.39456841599986,None,356.39456841599986,None,356.39456841599986,None,m,0,1.4262592730001415,357.92795265899986,None,357.92795265899986,None,357.92795265899986,None,359.4279268649998,None,359.4279268649998,None,359.4279268649998,None,359.4279268649998,None,,,,,,,,,,,,,,,,,,,,,,,,,,,,,,,,,,,,,,,,,,,,001,79,2020_Feb_06_1012,spring_faces,3.2.3,60.01802041039679,
condition files/Stage1_1.xlsx,,B1,T2,c,"['c', 'm']","['Clue', 'Monopoly']","[-0.15, 0.5]","[0.15, 0.5]",1,1,,,,,,,,,0,0,0,0,0,5,5,1,,,,,,,,,,,,,,,,,,,,,,,,,,,,,,,,,,,,,,,,,,,,,,,,,,,,,,,361.3946324029994,None,361.3946324029994,None,361.3946324029994,None,m,0,0.9209059930008152,362.9612712139997,None,362.9612712139997,None,362.9612712139997,None,363.9612918769999,None,363.9612918769999,None,363.9612918769999,None,363.9612918769999,None,,,,,,,,,,,,,,,,,,,,,,,,,,,,,,,,,,,,,,,,,,,,001,79,2020_Feb_06_1012,spring_faces,3.2.3,60.01802041039679,
condition files/Stage1_1.xlsx,,B2,T1,m,"['c', 'm']","['Clue', 'Monopoly']","[-0.15, 0.5]","[0.15, 0.5]",1,1,,,,,,,,,0,0,0,0,0,6,6,2,,,,,,,,,,,,,,,,,,,,,,,,,,,,,,,,,,,,,,,,,,,,,,,,,,,,,,,365.92798618899997,None,365.92798618899997,None,365.92798618899997,None,m,1,1.9388991759997225,367.5112906389995,None,367.5112906389995,None,367.5112906389995,None,369.5279568319993,None,369.5279568319993,None,369.5279568319993,None,369.5279568319993,None,,,,,,,,,,,,,,,,,,,,,,,,,,,,,,,,,,,,,,,,,,,,001,79,2020_Feb_06_1012,spring_faces,3.2.3,60.01802041039679,
condition files/Stage1_1.xlsx,,T1,B1,c,"['c', 'm']","['Clue', 'Monopoly']","[-0.15, 0.5]","[0.15, 0.5]",1,1,,,,,,,,,0,0,0,0,0,7,7,0,,,,,,,,,,,,,,,,,,,,,,,,,,,,,,,,,,,,,,,,,,,,,,,,,,,,,,,371.4946330899993,None,371.4946330899993,None,371.4946330899993,None,c,1,1.206209387999479,373.02797535099944,None,373.02797535099944,None,373.02797535099944,None,374.31130648199996,None,374.31130648199996,None,374.31130648199996,None,374.31130648199996,None,,,,,,,,,,,,,,,,,,,,,,,,,,,,,,,,,,,,,,,,,,,,001,79,2020_Feb_06_1012,spring_faces,3.2.3,60.01802041039679,
condition files/Stage1_2.xlsx,,T2,B1,c,"['c', 'm']","['Clue', 'Monopoly']","[-0.15, 0.5]","[0.15, 0.5]",1,1,,,,,,,,,0,1,1,1,0,0,0,1,,,,,,,,,,,,,,,,,,,,,,,,,,,,,,,,,,,,,,,,,,,,,,,,,,,,,,,376.6612885279992,None,376.6612885279992,None,376.6612885279992,None,c,1,1.1102744509998956,377.8279538299994,None,377.8279538299994,None,377.8279538299994,None,378.9945516579992,None,378.9945516579992,None,378.9945516579992,None,378.9945516579992,None,,,,,,,,,,,,,,,,,,,,,,,,,,,,,,,,,,,,,,,,,,,,001,79,2020_Feb_06_1012,spring_faces,3.2.3,60.01802041039679,
condition files/Stage1_2.xlsx,,T4,B4,m,"['c', 'm']","['Clue', 'Monopoly']","[-0.15, 0.5]","[0.15, 0.5]",1,1,,,,,,,,,0,1,1,1,0,1,1,7,,,,,,,,,,,,,,,,,,,,,,,,,,,,,,,,,,,,,,,,,,,,,,,,,,,,,,,380.9779619209994,None,380.9779619209994,None,380.9779619209994,None,c,0,1.083047305999571,382.51125978099935,None,382.51125978099935,None,382.51125978099935,None,383.6612736319994,None,383.6612736319994,None,383.6612736319994,None,383.6612736319994,None,,,,,,,,,,,,,,,,,,,,,,,,,,,,,,,,,,,,,,,,,,,,001,79,2020_Feb_06_1012,spring_faces,3.2.3,60.01802041039679,
condition files/Stage1_2.xlsx,,B2,T2,m,"['c', 'm']","['Clue', 'Monopoly']","[-0.15, 0.5]","[0.15, 0.5]",1,1,,,,,,,,,0,1,1,1,0,2,2,3,,,,,,,,,,,,,,,,,,,,,,,,,,,,,,,,,,,,,,,,,,,,,,,,,,,,,,,385.6279038619996,None,385.6279038619996,None,385.6279038619996,None,m,1,1.200846855999771,387.1612670409995,None,387.1612670409995,None,387.1612670409995,None,388.4277370379996,None,388.4277370379996,None,388.4277370379996,None,388.4277370379996,None,,,,,,,,,,,,,,,,,,,,,,,,,,,,,,,,,,,,,,,,,,,,001,79,2020_Feb_06_1012,spring_faces,3.2.3,60.01802041039679,
condition files/Stage1_2.xlsx,,B4,T3,c,"['c', 'm']","['Clue', 'Monopoly']","[-0.15, 0.5]","[0.15, 0.5]",1,1,,,,,,,,,0,1,1,1,0,3,3,5,,,,,,,,,,,,,,,,,,,,,,,,,,,,,,,,,,,,,,,,,,,,,,,,,,,,,,,390.411242528,None,390.411242528,None,390.411242528,None,m,0,0.7375631400000202,391.9446240869993,None,391.9446240869993,None,391.9446240869993,None,392.76127885000005,None,392.76127885000005,None,392.76127885000005,None,392.76127885000005,None,,,,,,,,,,,,,,,,,,,,,,,,,,,,,,,,,,,,,,,,,,,,001,79,2020_Feb_06_1012,spring_faces,3.2.3,60.01802041039679,
condition files/Stage1_2.xlsx,,T3,B3,c,"['c', 'm']","['Clue', 'Monopoly']","[-0.15, 0.5]","[0.15, 0.5]",1,1,,,,,,,,,0,1,1,1,0,4,4,4,,,,,,,,,,,,,,,,,,,,,,,,,,,,,,,,,,,,,,,,,,,,,,,,,,,,,,,394.7278736299995,None,394.7278736299995,None,394.7278736299995,None,c,1,1.1248945999996067,396.26130637999995,None,396.26130637999995,None,396.26130637999995,None,397.44458847199985,None,397.44458847199985,None,397.44458847199985,None,397.44458847199985,None,,,,,,,,,,,,,,,,,,,,,,,,,,,,,,,,,,,,,,,,,,,,001,79,2020_Feb_06_1012,spring_faces,3.2.3,60.01802041039679,
condition files/Stage1_2.xlsx,,B3,T4,m,"['c', 'm']","['Clue', 'Monopoly']","[-0.15, 0.5]","[0.15, 0.5]",1,1,,,,,,,,,0,1,1,1,0,5,5,6,,,,,,,,,,,,,,,,,,,,,,,,,,,,,,,,,,,,,,,,,,,,,,,,,,,,,,,399.427983908,None,399.427983908,None,399.427983908,None,c,0,2.104892881999149,400.961287221,None,400.961287221,None,400.961287221,None,403.1446228749992,None,403.1446228749992,None,403.1446228749992,None,403.1446228749992,None,,,,,,,,,,,,,,,,,,,,,,,,,,,,,,,,,,,,,,,,,,,,001,79,2020_Feb_06_1012,spring_faces,3.2.3,60.01802041039679,
condition files/Stage1_2.xlsx,,B1,T1,c,"['c', 'm']","['Clue', 'Monopoly']","[-0.15, 0.5]","[0.15, 0.5]",1,1,,,,,,,,,0,1,1,1,0,6,6,0,,,,,,,,,,,,,,,,,,,,,,,,,,,,,,,,,,,,,,,,,,,,,,,,,,,,,,,405.1112938719998,None,405.1112938719998,None,405.1112938719998,None,m,0,3.061581379999552,406.64462030699997,None,406.64462030699997,None,406.64462030699997,None,409.77793507799925,None,409.77793507799925,None,409.77793507799925,None,409.77793507799925,None,,,,,,,,,,,,,,,,,,,,,,,,,,,,,,,,,,,,,,,,,,,,001,79,2020_Feb_06_1012,spring_faces,3.2.3,60.01802041039679,
condition files/Stage1_2.xlsx,,T1,B2,m,"['c', 'm']","['Clue', 'Monopoly']","[-0.15, 0.5]","[0.15, 0.5]",1,1,,,,,,,,,0,1,1,1,0,7,7,2,,,,,,,,,,,,,,,,,,,,,,,,,,,,,,,,,,,,,,,,,,,,,,,,,,,,,,,411.74460678599917,None,411.74460678599917,None,411.74460678599917,None,m,1,1.6123526110004605,413.2778812479992,None,413.2778812479992,None,413.2778812479992,None,414.9612808419997,None,414.9612808419997,None,414.9612808419997,None,414.9612808419997,None,,,,,,,,,,,,,,,,,,,,,,,,,,,,,,,,,,,,,,,,,,,,001,79,2020_Feb_06_1012,spring_faces,3.2.3,60.01802041039679,
condition files/Stage1_1.xlsx,,T3,B4,c,"['c', 'm']","['Clue', 'Monopoly']","[-0.15, 0.5]","[0.15, 0.5]",1,1,,,,,,,,,0,2,2,2,0,0,0,5,,,,,,,,,,,,,,,,,,,,,,,,,,,,,,,,,,,,,,,,,,,,,,,,,,,,,,,416.9446158269993,None,416.9446158269993,None,416.9446158269993,None,m,0,1.292257869000423,418.4779491569998,None,418.4779491569998,None,418.4779491569998,None,419.8446233369996,None,419.8446233369996,None,419.8446233369996,None,419.8446233369996,None,,,,,,,,,,,,,,,,,,,,,,,,,,,,,,,,,,,,,,,,,,,,001,79,2020_Feb_06_1012,spring_faces,3.2.3,60.01802041039679,
condition files/Stage1_1.xlsx,,T2,B2,m,"['c', 'm']","['Clue', 'Monopoly']","[-0.15, 0.5]","[0.15, 0.5]",1,1,,,,,,,,,0,2,2,2,0,1,1,3,,,,,,,,,,,,,,,,,,,,,,,,,,,,,,,,,,,,,,,,,,,,,,,,,,,,,,,421.81128520899983,None,421.81128520899983,None,421.81128520899983,None,c,0,0.9055455939997046,423.34462809899924,None,423.34462809899924,None,423.34462809899924,None,424.327958674,None,424.327958674,None,424.327958674,None,424.327958674,None,,,,,,,,,,,,,,,,,,,,,,,,,,,,,,,,,,,,,,,,,,,,001,79,2020_Feb_06_1012,spring_faces,3.2.3,60.01802041039679,
condition files/Stage1_1.xlsx,,B4,T4,m,"['c', 'm']","['Clue', 'Monopoly']","[-0.15, 0.5]","[0.15, 0.5]",1,1,,,,,,,,,0,2,2,2,0,2,2,7,,,,,,,,,,,,,,,,,,,,,,,,,,,,,,,,,,,,,,,,,,,,,,,,,,,,,,,426.29465134899965,None,426.29465134899965,None,426.29465134899965,None,c,0,1.6382475929995053,427.827946978,None,427.827946978,None,427.827946978,None,429.5446233899993,None,429.5446233899993,None,429.5446233899993,None,429.5446233899993,None,,,,,,,,,,,,,,,,,,,,,,,,,,,,,,,,,,,,,,,,,,,,001,79,2020_Feb_06_1012,spring_faces,3.2.3,60.01802041039679,
condition files/Stage1_1.xlsx,,B1,T2,c,"['c', 'm']","['Clue', 'Monopoly']","[-0.15, 0.5]","[0.15, 0.5]",1,1,,,,,,,,,0,2,2,2,0,3,3,1,,,,,,,,,,,,,,,,,,,,,,,,,,,,,,,,,,,,,,,,,,,,,,,,,,,,,,,431.51129386199955,None,431.51129386199955,None,431.51129386199955,None,c,1,1.0935936969999602,433.04462070799946,None,433.04462070799946,None,433.04462070799946,None,434.2112715529993,None,434.2112715529993,None,434.2112715529993,None,434.2112715529993,None,,,,,,,,,,,,,,,,,,,,,,,,,,,,,,,,,,,,,,,,,,,,001,79,2020_Feb_06_1012,spring_faces,3.2.3,60.01802041039679,
condition files/Stage1_1.xlsx,,T1,B1,c,"['c', 'm']","['Clue', 'Monopoly']","[-0.15, 0.5]","[0.15, 0.5]",1,1,,,,,,,,,0,2,2,2,0,4,4,0,,,,,,,,,,,,,,,,,,,,,,,,,,,,,,,,,,,,,,,,,,,,,,,,,,,,,,,436.1779641919993,None,436.1779641919993,None,436.1779641919993,None,m,0,1.0029224150002847,437.7112868239992,None,437.7112868239992,None,437.7112868239992,None,438.77793166099946,None,438.77793166099946,None,438.77793166099946,None,438.77793166099946,None,,,,,,,,,,,,,,,,,,,,,,,,,,,,,,,,,,,,,,,,,,,,001,79,2020_Feb_06_1012,spring_faces,3.2.3,60.01802041039679,
condition files/Stage1_1.xlsx,,B3,T3,c,"['c', 'm']","['Clue', 'Monopoly']","[-0.15, 0.5]","[0.15, 0.5]",1,1,,,,,,,,,0,2,2,2,0,5,5,4,,,,,,,,,,,,,,,,,,,,,,,,,,,,,,,,,,,,,,,,,,,,,,,,,,,,,,,440.76132317499923,None,440.76132317499923,None,440.76132317499923,None,c,1,2.211570209000456,442.2946271689998,None,442.2946271689998,None,442.2946271689998,None,444.5613059769994,None,444.5613059769994,None,444.5613059769994,None,444.5613059769994,None,,,,,,,,,,,,,,,,,,,,,,,,,,,,,,,,,,,,,,,,,,,,001,79,2020_Feb_06_1012,spring_faces,3.2.3,60.01802041039679,
condition files/Stage1_1.xlsx,,B2,T1,m,"['c', 'm']","['Clue', 'Monopoly']","[-0.15, 0.5]","[0.15, 0.5]",1,1,,,,,,,,,0,2,2,2,0,6,6,2,,,,,,,,,,,,,,,,,,,,,,,,,,,,,,,,,,,,,,,,,,,,,,,,,,,,,,,446.544627407,None,446.544627407,None,446.544627407,None,m,1,1.3562673430005816,448.0778741089998,None,448.0778741089998,None,448.0778741089998,None,449.5112872539994,None,449.5112872539994,None,449.5112872539994,None,449.5112872539994,None,,,,,,,,,,,,,,,,,,,,,,,,,,,,,,,,,,,,,,,,,,,,001,79,2020_Feb_06_1012,spring_faces,3.2.3,60.01802041039679,
condition files/Stage1_1.xlsx,,T4,B3,m,"['c', 'm']","['Clue', 'Monopoly']","[-0.15, 0.5]","[0.15, 0.5]",1,1,,,,,,,,,0,2,2,2,0,7,7,6,,,,,,,,,,,,,,,,,,,,,,,,,,,,,,,,,,,,,,,,,,,,,,,,,,,,,,,451.47795435199987,None,451.47795435199987,None,451.47795435199987,None,m,1,1.8789078240006347,453.0112969169995,None,453.0112969169995,None,453.0112969169995,None,454.961292254,None,454.961292254,None,454.961292254,None,454.961292254,None,,,,,,,,,,,,,,,,,,,,,,,,,,,,,,,,,,,,,,,,,,,,001,79,2020_Feb_06_1012,spring_faces,3.2.3,60.01802041039679,
condition files/Stage1_2.xlsx,,B4,T3,c,"['c', 'm']","['Clue', 'Monopoly']","[-0.15, 0.5]","[0.15, 0.5]",1,1,,,,,,,,,0,3,3,3,0,0,0,5,,,,,,,,,,,,,,,,,,,,,,,,,,,,,,,,,,,,,,,,,,,,,,,,,,,,,,,456.9446229059995,None,456.9446229059995,None,456.9446229059995,None,m,0,1.6123544060001223,458.47788748199946,None,458.47788748199946,None,458.47788748199946,None,460.1612960129996,None,460.1612960129996,None,460.1612960129996,None,460.1612960129996,None,,,,,,,,,,,,,,,,,,,,,,,,,,,,,,,,,,,,,,,,,,,,001,79,2020_Feb_06_1012,spring_faces,3.2.3,60.01802041039679,
condition files/Stage1_2.xlsx,,B1,T1,c,"['c', 'm']","['Clue', 'Monopoly']","[-0.15, 0.5]","[0.15, 0.5]",1,1,,,,,,,,,0,3,3,3,0,1,1,0,,,,,,,,,,,,,,,,,,,,,,,,,,,,,,,,,,,,,,,,,,,,,,,,,,,,,,,462.1279700899995,None,462.1279700899995,None,462.1279700899995,None,m,0,1.0049694900008035,463.66123255099956,None,463.66123255099956,None,463.66123255099956,None,464.72796242799996,None,464.72796242799996,None,464.72796242799996,None,464.72796242799996,None,,,,,,,,,,,,,,,,,,,,,,,,,,,,,,,,,,,,,,,,,,,,001,79,2020_Feb_06_1012,spring_faces,3.2.3,60.01802041039679,
condition files/Stage1_2.xlsx,,T1,B2,m,"['c', 'm']","['Clue', 'Monopoly']","[-0.15, 0.5]","[0.15, 0.5]",1,1,,,,,,,,,0,3,3,3,0,2,2,2,,,,,,,,,,,,,,,,,,,,,,,,,,,,,,,,,,,,,,,,,,,,,,,,,,,,,,,466.7113231049998,None,466.7113231049998,None,466.7113231049998,None,m,1,1.125592711000536,468.2446148709996,None,468.2446148709996,None,468.2446148709996,None,469.44462068899975,None,469.44462068899975,None,469.44462068899975,None,469.44462068899975,None,,,,,,,,,,,,,,,,,,,,,,,,,,,,,,,,,,,,,,,,,,,,001,79,2020_Feb_06_1012,spring_faces,3.2.3,60.01802041039679,
condition files/Stage1_2.xlsx,,T3,B3,c,"['c', 'm']","['Clue', 'Monopoly']","[-0.15, 0.5]","[0.15, 0.5]",1,1,,,,,,,,,0,3,3,3,0,3,3,4,,,,,,,,,,,,,,,,,,,,,,,,,,,,,,,,,,,,,,,,,,,,,,,,,,,,,,,471.41131348199997,None,471.41131348199997,None,471.41131348199997,None,c,1,0.8895212979996359,472.94463051799994,None,472.94463051799994,None,472.94463051799994,None,473.91126579699994,None,473.91126579699994,None,473.91126579699994,None,473.91126579699994,None,,,,,,,,,,,,,,,,,,,,,,,,,,,,,,,,,,,,,,,,,,,,001,79,2020_Feb_06_1012,spring_faces,3.2.3,60.01802041039679,
condition files/Stage1_2.xlsx,,B3,T4,m,"['c', 'm']","['Clue', 'Monopoly']","[-0.15, 0.5]","[0.15, 0.5]",1,1,,,,,,,,,0,3,3,3,0,4,4,6,,,,,,,,,,,,,,,,,,,,,,,,,,,,,,,,,,,,,,,,,,,,,,,,,,,,,,,475.87794956199923,None,475.87794956199923,None,475.87794956199923,None,m,1,1.7668629680001686,477.411263125,None,477.411263125,None,477.411263125,None,479.2444252359992,None,479.2444252359992,None,479.2444252359992,None,479.2444252359992,None,,,,,,,,,,,,,,,,,,,,,,,,,,,,,,,,,,,,,,,,,,,,001,79,2020_Feb_06_1012,spring_faces,3.2.3,60.01802041039679,
condition files/Stage1_2.xlsx,,B2,T2,m,"['c', 'm']","['Clue', 'Monopoly']","[-0.15, 0.5]","[0.15, 0.5]",1,1,,,,,,,,,0,3,3,3,0,5,5,3,,,,,,,,,,,,,,,,,,,,,,,,,,,,,,,,,,,,,,,,,,,,,,,,,,,,,,,481.2113150899995,None,481.2113150899995,None,481.2113150899995,None,c,0,1.2656659259992011,482.7446363299996,None,482.7446363299996,None,482.7446363299996,None,484.06113669299975,None,484.06113669299975,None,484.06113669299975,None,484.06113669299975,None,,,,,,,,,,,,,,,,,,,,,,,,,,,,,,,,,,,,,,,,,,,,001,79,2020_Feb_06_1012,spring_faces,3.2.3,60.01802041039679,
condition files/Stage1_2.xlsx,,T4,B4,m,"['c', 'm']","['Clue', 'Monopoly']","[-0.15, 0.5]","[0.15, 0.5]",1,1,,,,,,,,,0,3,3,3,0,6,6,7,,,,,,,,,,,,,,,,,,,,,,,,,,,,,,,,,,,,,,,,,,,,,,,,,,,,,,,486.0445663669998,None,486.0445663669998,None,486.0445663669998,None,c,0,1.29627811499995,487.5779593969992,None,487.5779593969992,None,487.5779593969992,None,488.92794013099956,None,488.92794013099956,None,488.92794013099956,None,488.92794013099956,None,,,,,,,,,,,,,,,,,,,,,,,,,,,,,,,,,,,,,,,,,,,,001,79,2020_Feb_06_1012,spring_faces,3.2.3,60.01802041039679,
condition files/Stage1_2.xlsx,,T2,B1,c,"['c', 'm']","['Clue', 'Monopoly']","[-0.15, 0.5]","[0.15, 0.5]",1,1,,,,,,,,,0,3,3,3,0,7,7,1,,,,,,,,,,,,,,,,,,,,,,,,,,,,,,,,,,,,,,,,,,,,,,,,,,,,,,,490.9113035579994,None,490.9113035579994,None,490.9113035579994,None,m,0,1.1335004639995532,492.4446411479994,None,492.4446411479994,None,492.4446411479994,None,493.64455768099924,None,493.64455768099924,None,493.64455768099924,None,493.64455768099924,None,,,,,,,,,,,,,,,,,,,,,,,,,,,,,,,,,,,,,,,,,,,,001,79,2020_Feb_06_1012,spring_faces,3.2.3,60.01802041039679,
condition files/Stage1_1.xlsx,,T3,B4,c,"['c', 'm']","['Clue', 'Monopoly']","[-0.15, 0.5]","[0.15, 0.5]",1,1,,,,,,,,,0,4,4,4,0,0,0,5,,,,,,,,,,,,,,,,,,,,,,,,,,,,,,,,,,,,,,,,,,,,,,,,,,,,,,,495.6279021319997,None,495.6279021319997,None,495.6279021319997,None,c,1,1.7929653909995977,497.1612679229993,None,497.1612679229993,None,497.1612679229993,None,499.0112926619995,None,499.0112926619995,None,499.0112926619995,None,499.0112926619995,None,,,,,,,,,,,,,,,,,,,,,,,,,,,,,,,,,,,,,,,,,,,,001,79,2020_Feb_06_1012,spring_faces,3.2.3,60.01802041039679,
condition files/Stage1_1.xlsx,,T1,B1,c,"['c', 'm']","['Clue', 'Monopoly']","[-0.15, 0.5]","[0.15, 0.5]",1,1,,,,,,,,,0,4,4,4,0,1,1,0,,,,,,,,,,,,,,,,,,,,,,,,,,,,,,,,,,,,,,,,,,,,,,,,,,,,,,,500.9946174659999,None,500.9946174659999,None,500.9946174659999,None,m,0,1.498346133999803,502.5279460799993,None,502.5279460799993,None,502.5279460799993,None,504.0778960259995,None,504.0778960259995,None,504.0778960259995,None,504.0778960259995,None,,,,,,,,,,,,,,,,,,,,,,,,,,,,,,,,,,,,,,,,,,,,001,79,2020_Feb_06_1012,spring_faces,3.2.3,60.01802041039679,
condition files/Stage1_1.xlsx,,B2,T1,m,"['c', 'm']","['Clue', 'Monopoly']","[-0.15, 0.5]","[0.15, 0.5]",1,1,,,,,,,,,0,4,4,4,0,2,2,2,,,,,,,,,,,,,,,,,,,,,,,,,,,,,,,,,,,,,,,,,,,,,,,,,,,,,,,506.06119145199955,None,506.06119145199955,None,506.06119145199955,None,c,0,1.5835666170005425,507.5945998349998,None,507.5945998349998,None,507.5945998349998,None,509.2445581009997,None,509.2445581009997,None,509.2445581009997,None,509.2445581009997,None,,,,,,,,,,,,,,,,,,,,,,,,,,,,,,,,,,,,,,,,,,,,001,79,2020_Feb_06_1012,spring_faces,3.2.3,60.01802041039679,
condition files/Stage1_1.xlsx,,B1,T2,c,"['c', 'm']","['Clue', 'Monopoly']","[-0.15, 0.5]","[0.15, 0.5]",1,1,,,,,,,,,0,4,4,4,0,3,3,1,,,,,,,,,,,,,,,,,,,,,,,,,,,,,,,,,,,,,,,,,,,,,,,,,,,,,,,511.2112288239996,None,511.2112288239996,None,511.2112288239996,None,c,1,1.1535783539993645,512.7446158999992,None,512.7446158999992,None,512.7446158999992,None,513.9779892819997,None,513.9779892819997,None,513.9779892819997,None,513.9779892819997,None,,,,,,,,,,,,,,,,,,,,,,,,,,,,,,,,,,,,,,,,,,,,001,79,2020_Feb_06_1012,spring_faces,3.2.3,60.01802041039679,
condition files/Stage1_1.xlsx,,B4,T4,m,"['c', 'm']","['Clue', 'Monopoly']","[-0.15, 0.5]","[0.15, 0.5]",1,1,,,,,,,,,0,4,4,4,0,4,4,7,,,,,,,,,,,,,,,,,,,,,,,,,,,,,,,,,,,,,,,,,,,,,,,,,,,,,,,515.944659066,None,515.944659066,None,515.944659066,None,m,1,1.3962915640004212,517.4779545669999,None,517.4779545669999,None,517.4779545669999,None,518.9446092809994,None,518.9446092809994,None,518.9446092809994,None,518.9446092809994,None,,,,,,,,,,,,,,,,,,,,,,,,,,,,,,,,,,,,,,,,,,,,001,79,2020_Feb_06_1012,spring_faces,3.2.3,60.01802041039679,
condition files/Stage1_1.xlsx,,B3,T3,c,"['c', 'm']","['Clue', 'Monopoly']","[-0.15, 0.5]","[0.15, 0.5]",1,1,,,,,,,,,0,4,4,4,0,5,5,4,,,,,,,,,,,,,,,,,,,,,,,,,,,,,,,,,,,,,,,,,,,,,,,,,,,,,,,520.9112213119997,None,520.9112213119997,None,520.9112213119997,None,c,1,1.8375869239998792,522.4446055639992,None,522.4446055639992,None,522.4446055639992,None,524.3612769729998,None,524.3612769729998,None,524.3612769729998,None,524.3612769729998,None,,,,,,,,,,,,,,,,,,,,,,,,,,,,,,,,,,,,,,,,,,,,001,79,2020_Feb_06_1012,spring_faces,3.2.3,60.01802041039679,
condition files/Stage1_1.xlsx,,T4,B3,m,"['c', 'm']","['Clue', 'Monopoly']","[-0.15, 0.5]","[0.15, 0.5]",1,1,,,,,,,,,0,4,4,4,0,6,6,6,,,,,,,,,,,,,,,,,,,,,,,,,,,,,,,,,,,,,,,,,,,,,,,,,,,,,,,526.3279853439999,None,526.3279853439999,None,526.3279853439999,None,m,1,2.181012419000581,527.8612711529995,None,527.8612711529995,None,527.8612711529995,None,530.1112778199995,None,530.1112778199995,None,530.1112778199995,None,530.1112778199995,None,,,,,,,,,,,,,,,,,,,,,,,,,,,,,,,,,,,,,,,,,,,,001,79,2020_Feb_06_1012,spring_faces,3.2.3,60.01802041039679,
condition files/Stage1_1.xlsx,,T2,B2,m,"['c', 'm']","['Clue', 'Monopoly']","[-0.15, 0.5]","[0.15, 0.5]",1,1,,,,,,,,,0,4,4,4,0,7,7,3,,,,,,,,,,,,,,,,,,,,,,,,,,,,,,,,,,,,,,,,,,,,,,,,,,,,,,,532.0778682789996,None,532.0778682789996,None,532.0778682789996,None,c,0,1.8869849820002855,533.6112241699993,None,533.6112241699993,None,533.6112241699993,None,535.5612222089994,None,535.5612222089994,None,535.5612222089994,None,535.5612222089994,None,,,,,,,,,,,,,,,,,,,,,,,,,,,,,,,,,,,,,,,,,,,,001,79,2020_Feb_06_1012,spring_faces,3.2.3,60.01802041039679,
condition files/Stage1_2.xlsx,,B1,T1,c,"['c', 'm']","['Clue', 'Monopoly']","[-0.15, 0.5]","[0.15, 0.5]",1,1,,,,,,,,,0,5,5,5,0,0,0,0,,,,,,,,,,,,,,,,,,,,,,,,,,,,,,,,,,,,,,,,,,,,,,,,,,,,,,,537.5612776509997,None,537.5612776509997,None,537.5612776509997,None,m,0,2.611620509000204,539.0946037259991,None,539.0946037259991,None,539.0946037259991,None,541.777841096,None,541.777841096,None,541.777841096,None,541.777841096,None,,,,,,,,,,,,,,,,,,,,,,,,,,,,,,,,,,,,,,,,,,,,001,79,2020_Feb_06_1012,spring_faces,3.2.3,60.01802041039679,
condition files/Stage1_2.xlsx,,T1,B2,m,"['c', 'm']","['Clue', 'Monopoly']","[-0.15, 0.5]","[0.15, 0.5]",1,1,,,,,,,,,0,5,5,5,0,1,1,2,,,,,,,,,,,,,,,,,,,,,,,,,,,,,,,,,,,,,,,,,,,,,,,,,,,,,,,543.7446127679996,None,543.7446127679996,None,543.7446127679996,None,c,0,1.4842698239999663,545.2778658969992,None,545.2778658969992,None,545.2778658969992,None,546.8446267359996,None,546.8446267359996,None,546.8446267359996,None,546.8446267359996,None,,,,,,,,,,,,,,,,,,,,,,,,,,,,,,,,,,,,,,,,,,,,001,79,2020_Feb_06_1012,spring_faces,3.2.3,60.01802041039679,
condition files/Stage1_2.xlsx,,B3,T4,m,"['c', 'm']","['Clue', 'Monopoly']","[-0.15, 0.5]","[0.15, 0.5]",1,1,,,,,,,,,0,5,5,5,0,2,2,6,,,,,,,,,,,,,,,,,,,,,,,,,,,,,,,,,,,,,,,,,,,,,,,,,,,,,,,548.8112334469997,None,548.8112334469997,None,548.8112334469997,None,m,1,1.4095752279999942,550.344634778,None,550.344634778,None,550.344634778,None,551.8112894019996,None,551.8112894019996,None,551.8112894019996,None,551.8112894019996,None,,,,,,,,,,,,,,,,,,,,,,,,,,,,,,,,,,,,,,,,,,,,001,79,2020_Feb_06_1012,spring_faces,3.2.3,60.01802041039679,
condition files/Stage1_2.xlsx,,B4,T3,c,"['c', 'm']","['Clue', 'Monopoly']","[-0.15, 0.5]","[0.15, 0.5]",1,1,,,,,,,,,0,5,5,5,0,3,3,5,,,,,,,,,,,,,,,,,,,,,,,,,,,,,,,,,,,,,,,,,,,,,,,,,,,,,,,553.7946151219994,None,553.7946151219994,None,553.7946151219994,None,c,1,1.434184660000028,555.3279335529996,None,555.3279335529996,None,555.3279335529996,None,556.8446152569995,None,556.8446152569995,None,556.8446152569995,None,556.8446152569995,None,,,,,,,,,,,,,,,,,,,,,,,,,,,,,,,,,,,,,,,,,,,,001,79,2020_Feb_06_1012,spring_faces,3.2.3,60.01802041039679,
condition files/Stage1_2.xlsx,,T3,B3,c,"['c', 'm']","['Clue', 'Monopoly']","[-0.15, 0.5]","[0.15, 0.5]",1,1,,,,,,,,,0,5,5,5,0,4,4,4,,,,,,,,,,,,,,,,,,,,,,,,,,,,,,,,,,,,,,,,,,,,,,,,,,,,,,,558.8112267049992,None,558.8112267049992,None,558.8112267049992,None,c,1,2.0817147570005545,560.34459143,None,560.34459143,None,560.34459143,None,562.4778717249992,None,562.4778717249992,None,562.4778717249992,None,562.4778717249992,None,,,,,,,,,,,,,,,,,,,,,,,,,,,,,,,,,,,,,,,,,,,,001,79,2020_Feb_06_1012,spring_faces,3.2.3,60.01802041039679,
condition files/Stage1_2.xlsx,,T2,B1,c,"['c', 'm']","['Clue', 'Monopoly']","[-0.15, 0.5]","[0.15, 0.5]",1,1,,,,,,,,,0,5,5,5,0,5,5,1,,,,,,,,,,,,,,,,,,,,,,,,,,,,,,,,,,,,,,,,,,,,,,,,,,,,,,,564.4612196549997,None,564.4612196549997,None,564.4612196549997,None,m,0,1.8555368300003465,565.9946410489993,None,565.9946410489993,None,565.9946410489993,None,567.9112682749992,None,567.9112682749992,None,567.9112682749992,None,567.9112682749992,None,,,,,,,,,,,,,,,,,,,,,,,,,,,,,,,,,,,,,,,,,,,,001,79,2020_Feb_06_1012,spring_faces,3.2.3,60.01802041039679,
condition files/Stage1_2.xlsx,,B2,T2,m,"['c', 'm']","['Clue', 'Monopoly']","[-0.15, 0.5]","[0.15, 0.5]",1,1,,,,,,,,,0,5,5,5,0,6,6,3,,,,,,,,,,,,,,,,,,,,,,,,,,,,,,,,,,,,,,,,,,,,,,,,,,,,,,,569.8946260079992,None,569.8946260079992,None,569.8946260079992,None,c,0,1.5582521710002766,571.4279629769999,None,571.4279629769999,None,571.4279629769999,None,573.061259176,None,573.061259176,None,573.061259176,None,573.061259176,None,,,,,,,,,,,,,,,,,,,,,,,,,,,,,,,,,,,,,,,,,,,,001,79,2020_Feb_06_1012,spring_faces,3.2.3,60.01802041039679,
condition files/Stage1_2.xlsx,,T4,B4,m,"['c', 'm']","['Clue', 'Monopoly']","[-0.15, 0.5]","[0.15, 0.5]",1,1,,,,,,,,,0,5,5,5,0,7,7,7,,,,,,,,,,,,,,,,,,,,,,,,,,,,,,,,,,,,,,,,,,,,,,,,,,,,,,,575.0279398119992,None,575.0279398119992,None,575.0279398119992,None,m,1,1.8008580549994804,576.5612618059995,None,576.5612618059995,None,576.5612618059995,None,578.4279260909998,None,578.4279260909998,None,578.4279260909998,None,578.4279260909998,None,,,,,,,,,,,,,,,,,,,,,,,,,,,,,,,,,,,,,,,,,,,,001,79,2020_Feb_06_1012,spring_faces,3.2.3,60.01802041039679,
condition files/Stage1_1.xlsx,,T1,B1,c,"['c', 'm']","['Clue', 'Monopoly']","[-0.15, 0.5]","[0.15, 0.5]",1,1,,,,,,,,,0,6,6,6,0,0,0,0,,,,,,,,,,,,,,,,,,,,,,,,,,,,,,,,,,,,,,,,,,,,,,,,,,,,,,,580.4279125169996,None,580.4279125169996,None,580.4279125169996,None,c,1,1.4569169520000287,581.9613019979997,None,581.9613019979997,None,581.9613019979997,None,583.4946195659995,None,583.4946195659995,None,583.4946195659995,None,583.4946195659995,None,,,,,,,,,,,,,,,,,,,,,,,,,,,,,,,,,,,,,,,,,,,,001,79,2020_Feb_06_1012,spring_faces,3.2.3,60.01802041039679,
condition files/Stage1_1.xlsx,,B1,T2,c,"['c', 'm']","['Clue', 'Monopoly']","[-0.15, 0.5]","[0.15, 0.5]",1,1,,,,,,,,,0,6,6,6,0,1,1,1,,,,,,,,,,,,,,,,,,,,,,,,,,,,,,,,,,,,,,,,,,,,,,,,,,,,,,,585.4612660029998,None,585.4612660029998,None,585.4612660029998,None,c,1,0.88759038399985,586.9946077299992,None,586.9946077299992,None,586.9946077299992,None,587.9446374899999,None,587.9446374899999,None,587.9446374899999,None,587.9446374899999,None,,,,,,,,,,,,,,,,,,,,,,,,,,,,,,,,,,,,,,,,,,,,001,79,2020_Feb_06_1012,spring_faces,3.2.3,60.01802041039679,
condition files/Stage1_1.xlsx,,T2,B2,m,"['c', 'm']","['Clue', 'Monopoly']","[-0.15, 0.5]","[0.15, 0.5]",1,1,,,,,,,,,0,6,6,6,0,2,2,3,,,,,,,,,,,,,,,,,,,,,,,,,,,,,,,,,,,,,,,,,,,,,,,,,,,,,,,589.9279766969994,None,589.9279766969994,None,589.9279766969994,None,m,1,1.6848234569997658,591.4612940119996,None,591.4612940119996,None,591.4612940119996,None,593.2277295999993,None,593.2277295999993,None,593.2277295999993,None,593.2277295999993,None,,,,,,,,,,,,,,,,,,,,,,,,,,,,,,,,,,,,,,,,,,,,001,79,2020_Feb_06_1012,spring_faces,3.2.3,60.01802041039679,
condition files/Stage1_1.xlsx,,T4,B3,m,"['c', 'm']","['Clue', 'Monopoly']","[-0.15, 0.5]","[0.15, 0.5]",1,1,,,,,,,,,0,6,6,6,0,3,3,6,,,,,,,,,,,,,,,,,,,,,,,,,,,,,,,,,,,,,,,,,,,,,,,,,,,,,,,595.1945517059994,None,595.1945517059994,None,595.1945517059994,None,m,1,1.4902404759995989,596.7279615519992,None,596.7279615519992,None,596.7279615519992,None,598.2946243709994,None,598.2946243709994,None,598.2946243709994,None,598.2946243709994,None,,,,,,,,,,,,,,,,,,,,,,,,,,,,,,,,,,,,,,,,,,,,001,79,2020_Feb_06_1012,spring_faces,3.2.3,60.01802041039679,
condition files/Stage1_1.xlsx,,B2,T1,m,"['c', 'm']","['Clue', 'Monopoly']","[-0.15, 0.5]","[0.15, 0.5]",1,1,,,,,,,,,0,6,6,6,0,4,4,2,,,,,,,,,,,,,,,,,,,,,,,,,,,,,,,,,,,,,,,,,,,,,,,,,,,,,,,600.2612927159998,None,600.2612927159998,None,600.2612927159998,None,c,0,1.431673731999581,601.7946239409994,None,601.7946239409994,None,601.7946239409994,None,603.2777980769997,None,603.2777980769997,None,603.2777980769997,None,603.2777980769997,None,,,,,,,,,,,,,,,,,,,,,,,,,,,,,,,,,,,,,,,,,,,,001,79,2020_Feb_06_1012,spring_faces,3.2.3,60.01802041039679,
condition files/Stage1_1.xlsx,,B4,T4,m,"['c', 'm']","['Clue', 'Monopoly']","[-0.15, 0.5]","[0.15, 0.5]",1,1,,,,,,,,,0,6,6,6,0,5,5,7,,,,,,,,,,,,,,,,,,,,,,,,,,,,,,,,,,,,,,,,,,,,,,,,,,,,,,,605.261307015,None,605.261307015,None,605.261307015,None,m,1,0.7997028509998927,606.7946005549993,None,606.7946005549993,None,606.7946005549993,None,607.6445712669993,None,607.6445712669993,None,607.6445712669993,None,607.6445712669993,None,,,,,,,,,,,,,,,,,,,,,,,,,,,,,,,,,,,,,,,,,,,,001,79,2020_Feb_06_1012,spring_faces,3.2.3,60.01802041039679,
condition files/Stage1_1.xlsx,,B3,T3,c,"['c', 'm']","['Clue', 'Monopoly']","[-0.15, 0.5]","[0.15, 0.5]",1,1,,,,,,,,,0,6,6,6,0,6,6,4,,,,,,,,,,,,,,,,,,,,,,,,,,,,,,,,,,,,,,,,,,,,,,,,,,,,,,,609.6278713669999,None,609.6278713669999,None,609.6278713669999,None,c,1,1.5848080530004154,611.1613139669998,None,611.1613139669998,None,611.1613139669998,None,612.8279125449999,None,612.8279125449999,None,612.8279125449999,None,612.8279125449999,None,,,,,,,,,,,,,,,,,,,,,,,,,,,,,,,,,,,,,,,,,,,,001,79,2020_Feb_06_1012,spring_faces,3.2.3,60.01802041039679,
condition files/Stage1_1.xlsx,,T3,B4,c,"['c', 'm']","['Clue', 'Monopoly']","[-0.15, 0.5]","[0.15, 0.5]",1,1,,,,,,,,,0,6,6,6,0,7,7,5,,,,,,,,,,,,,,,,,,,,,,,,,,,,,,,,,,,,,,,,,,,,,,,,,,,,,,,614.7946546459998,None,614.7946546459998,None,614.7946546459998,None,c,1,1.2341415850005433,616.3279792339999,None,616.3279792339999,None,616.3279792339999,None,617.6277440719996,None,617.6277440719996,None,617.6277440719996,None,617.6277440719996,None,,,,,,,,,,,,,,,,,,,,,,,,,,,,,,,,,,,,,,,,,,,,001,79,2020_Feb_06_1012,spring_faces,3.2.3,60.01802041039679,
condition files/Stage1_2.xlsx,,B4,T3,c,"['c', 'm']","['Clue', 'Monopoly']","[-0.15, 0.5]","[0.15, 0.5]",1,1,,,,,,,,,0,7,7,7,0,0,0,5,,,,,,,,,,,,,,,,,,,,,,,,,,,,,,,,,,,,,,,,,,,,,,,,,,,,,,,619.6279645459999,None,619.6279645459999,None,619.6279645459999,None,c,1,1.3609558120006113,621.1612745739994,None,621.1612745739994,None,621.1612745739994,None,622.5946451269992,None,622.5946451269992,None,622.5946451269992,None,622.5946451269992,None,,,,,,,,,,,,,,,,,,,,,,,,,,,,,,,,,,,,,,,,,,,,001,79,2020_Feb_06_1012,spring_faces,3.2.3,60.01802041039679,
condition files/Stage1_2.xlsx,,T2,B1,c,"['c', 'm']","['Clue', 'Monopoly']","[-0.15, 0.5]","[0.15, 0.5]",1,1,,,,,,,,,0,7,7,7,0,1,1,1,,,,,,,,,,,,,,,,,,,,,,,,,,,,,,,,,,,,,,,,,,,,,,,,,,,,,,,624.5613393829999,None,624.5613393829999,None,624.5613393829999,None,c,1,1.7395662030003223,626.0946279419995,None,626.0946279419995,None,626.0946279419995,None,627.9113011969994,None,627.9113011969994,None,627.9113011969994,None,627.9113011969994,None,,,,,,,,,,,,,,,,,,,,,,,,,,,,,,,,,,,,,,,,,,,,001,79,2020_Feb_06_1012,spring_faces,3.2.3,60.01802041039679,
condition files/Stage1_2.xlsx,,T3,B3,c,"['c', 'm']","['Clue', 'Monopoly']","[-0.15, 0.5]","[0.15, 0.5]",1,1,,,,,,,,,0,7,7,7,0,2,2,4,,,,,,,,,,,,,,,,,,,,,,,,,,,,,,,,,,,,,,,,,,,,,,,,,,,,,,,629.8779635999999,None,629.8779635999999,None,629.8779635999999,None,c,1,1.3508050870004809,631.4113155959994,None,631.4113155959994,None,631.4113155959994,None,632.8279586059998,None,632.8279586059998,None,632.8279586059998,None,632.8279586059998,None,,,,,,,,,,,,,,,,,,,,,,,,,,,,,,,,,,,,,,,,,,,,001,79,2020_Feb_06_1012,spring_faces,3.2.3,60.01802041039679,
condition files/Stage1_2.xlsx,,T1,B2,m,"['c', 'm']","['Clue', 'Monopoly']","[-0.15, 0.5]","[0.15, 0.5]",1,1,,,,,,,,,0,7,7,7,0,3,3,2,,,,,,,,,,,,,,,,,,,,,,,,,,,,,,,,,,,,,,,,,,,,,,,,,,,,,,,634.8112466529992,None,634.8112466529992,None,634.8112466529992,None,m,1,1.425748669999848,636.3444907949997,None,636.3444907949997,None,636.3444907949997,None,637.8446181429999,None,637.8446181429999,None,637.8446181429999,None,637.8446181429999,None,,,,,,,,,,,,,,,,,,,,,,,,,,,,,,,,,,,,,,,,,,,,001,79,2020_Feb_06_1012,spring_faces,3.2.3,60.01802041039679,
condition files/Stage1_2.xlsx,,B1,T1,c,"['c', 'm']","['Clue', 'Monopoly']","[-0.15, 0.5]","[0.15, 0.5]",1,1,,,,,,,,,0,7,7,7,0,4,4,0,,,,,,,,,,,,,,,,,,,,,,,,,,,,,,,,,,,,,,,,,,,,,,,,,,,,,,,639.8112570549993,None,639.8112570549993,None,639.8112570549993,None,m,0,0.7936014039996735,641.3446195899996,None,641.3446195899996,None,641.3446195899996,None,642.2112949539996,None,642.2112949539996,None,642.2112949539996,None,642.2112949539996,None,,,,,,,,,,,,,,,,,,,,,,,,,,,,,,,,,,,,,,,,,,,,001,79,2020_Feb_06_1012,spring_faces,3.2.3,60.01802041039679,
condition files/Stage1_2.xlsx,,B3,T4,m,"['c', 'm']","['Clue', 'Monopoly']","[-0.15, 0.5]","[0.15, 0.5]",1,1,,,,,,,,,0,7,7,7,0,5,5,6,,,,,,,,,,,,,,,,,,,,,,,,,,,,,,,,,,,,,,,,,,,,,,,,,,,,,,,644.1780028609992,None,644.1780028609992,None,644.1780028609992,None,m,1,1.131003057000271,645.7112793799997,None,645.7112793799997,None,645.7112793799997,None,646.9112683819994,None,646.9112683819994,None,646.9112683819994,None,646.9112683819994,None,,,,,,,,,,,,,,,,,,,,,,,,,,,,,,,,,,,,,,,,,,,,001,79,2020_Feb_06_1012,spring_faces,3.2.3,60.01802041039679,
condition files/Stage1_2.xlsx,,B2,T2,m,"['c', 'm']","['Clue', 'Monopoly']","[-0.15, 0.5]","[0.15, 0.5]",1,1,,,,,,,,,0,7,7,7,0,6,6,3,,,,,,,,,,,,,,,,,,,,,,,,,,,,,,,,,,,,,,,,,,,,,,,,,,,,,,,648.877906058,None,648.877906058,None,648.877906058,None,c,0,2.6709803809999357,650.4112284029998,None,650.4112284029998,None,650.4112284029998,None,653.1446053489999,None,653.1446053489999,None,653.1446053489999,None,653.1446053489999,None,,,,,,,,,,,,,,,,,,,,,,,,,,,,,,,,,,,,,,,,,,,,001,79,2020_Feb_06_1012,spring_faces,3.2.3,60.01802041039679,
condition files/Stage1_2.xlsx,,T4,B4,m,"['c', 'm']","['Clue', 'Monopoly']","[-0.15, 0.5]","[0.15, 0.5]",1,1,,,,,,,,,0,7,7,7,0,7,7,7,,,,,,,,,,,,,,,,,,,,,,,,,,,,,,,,,,,,,,,,,,,,,,,,,,,,,,,655.1279947919993,None,655.1279947919993,None,655.1279947919993,None,m,1,1.620885231000102,656.6613103489999,None,656.6613103489999,None,656.6613103489999,None,658.3446065519993,None,658.3446065519993,None,658.3446065519993,None,658.3446065519993,None,,,,,,,,,,,,,,,,,,,,,,,,,,,,,,,,,,,,,,,,,,,,001,79,2020_Feb_06_1012,spring_faces,3.2.3,60.01802041039679,
condition files/Stage1_1.xlsx,,T3,B4,c,"['c', 'm']","['Clue', 'Monopoly']","[-0.15, 0.5]","[0.15, 0.5]",1,1,,,,,,,,,0,8,8,8,0,0,0,5,,,,,,,,,,,,,,,,,,,,,,,,,,,,,,,,,,,,,,,,,,,,,,,,,,,,,,,660.3446492319999,None,660.3446492319999,None,660.3446492319999,None,m,0,1.0282734390002588,661.8779569379994,None,661.8779569379994,None,661.8779569379994,None,662.9779375949993,None,662.9779375949993,None,662.9779375949993,None,662.9779375949993,None,,,,,,,,,,,,,,,,,,,,,,,,,,,,,,,,,,,,,,,,,,,,001,79,2020_Feb_06_1012,spring_faces,3.2.3,60.01802041039679,
condition files/Stage1_1.xlsx,,T4,B3,m,"['c', 'm']","['Clue', 'Monopoly']","[-0.15, 0.5]","[0.15, 0.5]",1,1,,,,,,,,,0,8,8,8,0,1,1,6,,,,,,,,,,,,,,,,,,,,,,,,,,,,,,,,,,,,,,,,,,,,,,,,,,,,,,,664.9446397459997,None,664.9446397459997,None,664.9446397459997,None,m,1,0.7963768380004694,666.4778841359994,None,666.4778841359994,None,666.4778841359994,None,667.3446463229993,None,667.3446463229993,None,667.3446463229993,None,667.3446463229993,None,,,,,,,,,,,,,,,,,,,,,,,,,,,,,,,,,,,,,,,,,,,,001,79,2020_Feb_06_1012,spring_faces,3.2.3,60.01802041039679,
condition files/Stage1_1.xlsx,,T1,B1,c,"['c', 'm']","['Clue', 'Monopoly']","[-0.15, 0.5]","[0.15, 0.5]",1,1,,,,,,,,,0,8,8,8,0,2,2,0,,,,,,,,,,,,,,,,,,,,,,,,,,,,,,,,,,,,,,,,,,,,,,,,,,,,,,,669.3113085489995,None,669.3113085489995,None,669.3113085489995,None,c,1,1.5656652030002078,670.8446322979999,None,670.8446322979999,None,670.8446322979999,None,672.4779417639993,None,672.4779417639993,None,672.4779417639993,None,672.4779417639993,None,,,,,,,,,,,,,,,,,,,,,,,,,,,,,,,,,,,,,,,,,,,,001,79,2020_Feb_06_1012,spring_faces,3.2.3,60.01802041039679,
condition files/Stage1_1.xlsx,,T2,B2,m,"['c', 'm']","['Clue', 'Monopoly']","[-0.15, 0.5]","[0.15, 0.5]",1,1,,,,,,,,,0,8,8,8,0,3,3,3,,,,,,,,,,,,,,,,,,,,,,,,,,,,,,,,,,,,,,,,,,,,,,,,,,,,,,,674.4445466509997,None,674.4445466509997,None,674.4445466509997,None,m,1,2.352199330000076,675.9779587859994,None,675.9779587859994,None,675.9779587859994,None,678.4111619269997,None,678.4111619269997,None,678.4111619269997,None,678.4111619269997,None,,,,,,,,,,,,,,,,,,,,,,,,,,,,,,,,,,,,,,,,,,,,001,79,2020_Feb_06_1012,spring_faces,3.2.3,60.01802041039679,
condition files/Stage1_1.xlsx,,B3,T3,c,"['c', 'm']","['Clue', 'Monopoly']","[-0.15, 0.5]","[0.15, 0.5]",1,1,,,,,,,,,0,8,8,8,0,4,4,4,,,,,,,,,,,,,,,,,,,,,,,,,,,,,,,,,,,,,,,,,,,,,,,,,,,,,,,680.3780093289997,None,680.3780093289997,None,680.3780093289997,None,c,1,2.0028869759998997,681.9112981649996,None,681.9112981649996,None,681.9112981649996,None,683.9946076159995,None,683.9946076159995,None,683.9946076159995,None,683.9946076159995,None,,,,,,,,,,,,,,,,,,,,,,,,,,,,,,,,,,,,,,,,,,,,001,79,2020_Feb_06_1012,spring_faces,3.2.3,60.01802041039679,
condition files/Stage1_1.xlsx,,B2,T1,m,"['c', 'm']","['Clue', 'Monopoly']","[-0.15, 0.5]","[0.15, 0.5]",1,1,,,,,,,,,0,8,8,8,0,5,5,2,,,,,,,,,,,,,,,,,,,,,,,,,,,,,,,,,,,,,,,,,,,,,,,,,,,,,,,685.9613300309993,None,685.9613300309993,None,685.9613300309993,None,m,1,1.555550332999701,687.4946485279997,None,687.4946485279997,None,687.4946485279997,None,689.1279614649993,None,689.1279614649993,None,689.1279614649993,None,689.1279614649993,None,,,,,,,,,,,,,,,,,,,,,,,,,,,,,,,,,,,,,,,,,,,,001,79,2020_Feb_06_1012,spring_faces,3.2.3,60.01802041039679,
condition files/Stage1_1.xlsx,,B4,T4,m,"['c', 'm']","['Clue', 'Monopoly']","[-0.15, 0.5]","[0.15, 0.5]",1,1,,,,,,,,,0,8,8,8,0,6,6,7,,,,,,,,,,,,,,,,,,,,,,,,,,,,,,,,,,,,,,,,,,,,,,,,,,,,,,,691.0946166479998,None,691.0946166479998,None,691.0946166479998,None,m,1,0.8702241989994945,692.627956417,None,692.627956417,None,692.627956417,None,693.5608465059995,None,693.5608465059995,None,693.5608465059995,None,693.5608465059995,None,,,,,,,,,,,,,,,,,,,,,,,,,,,,,,,,,,,,,,,,,,,,001,79,2020_Feb_06_1012,spring_faces,3.2.3,60.01802041039679,
condition files/Stage1_1.xlsx,,B1,T2,c,"['c', 'm']","['Clue', 'Monopoly']","[-0.15, 0.5]","[0.15, 0.5]",1,1,,,,,,,,,0,8,8,8,0,7,7,1,,,,,,,,,,,,,,,,,,,,,,,,,,,,,,,,,,,,,,,,,,,,,,,,,,,,,,,695.5446592909993,None,695.5446592909993,None,695.5446592909993,None,c,1,1.2043431389993202,697.077870872,None,697.077870872,None,697.077870872,None,698.3613005259995,None,698.3613005259995,None,698.3613005259995,None,698.3613005259995,None,,,,,,,,,,,,,,,,,,,,,,,,,,,,,,,,,,,,,,,,,,,,001,79,2020_Feb_06_1012,spring_faces,3.2.3,60.01802041039679,
condition files/Stage1_2.xlsx,,T4,B4,m,"['c', 'm']","['Clue', 'Monopoly']","[-0.15, 0.5]","[0.15, 0.5]",1,1,,,,,,,,,0,9,9,9,0,0,0,7,,,,,,,,,,,,,,,,,,,,,,,,,,,,,,,,,,,,,,,,,,,,,,,,,,,,,,,700.3446455799995,None,700.3446455799995,None,700.3446455799995,None,m,1,1.2042519779997747,701.8779646719995,None,701.8779646719995,None,701.8779646719995,None,703.1612975789994,None,703.1612975789994,None,703.1612975789994,None,703.1612975789994,None,,,,,,,,,,,,,,,,,,,,,,,,,,,,,,,,,,,,,,,,,,,,001,79,2020_Feb_06_1012,spring_faces,3.2.3,60.01802041039679,
condition files/Stage1_2.xlsx,,T1,B2,m,"['c', 'm']","['Clue', 'Monopoly']","[-0.15, 0.5]","[0.15, 0.5]",1,1,,,,,,,,,0,9,9,9,0,1,1,2,,,,,,,,,,,,,,,,,,,,,,,,,,,,,,,,,,,,,,,,,,,,,,,,,,,,,,,705.1279867439998,None,705.1279867439998,None,705.1279867439998,None,m,1,1.5728733380001358,706.661314979,None,706.661314979,None,706.661314979,None,708.2946240909996,None,708.2946240909996,None,708.2946240909996,None,708.2946240909996,None,,,,,,,,,,,,,,,,,,,,,,,,,,,,,,,,,,,,,,,,,,,,001,79,2020_Feb_06_1012,spring_faces,3.2.3,60.01802041039679,
condition files/Stage1_2.xlsx,,B2,T2,m,"['c', 'm']","['Clue', 'Monopoly']","[-0.15, 0.5]","[0.15, 0.5]",1,1,,,,,,,,,0,9,9,9,0,2,2,3,,,,,,,,,,,,,,,,,,,,,,,,,,,,,,,,,,,,,,,,,,,,,,,,,,,,,,,710.277970612,None,710.277970612,None,710.277970612,None,c,0,1.5589319969994904,711.8112749499996,None,711.8112749499996,None,711.8112749499996,None,713.4279790299997,None,713.4279790299997,None,713.4279790299997,None,713.4279790299997,None,,,,,,,,,,,,,,,,,,,,,,,,,,,,,,,,,,,,,,,,,,,,001,79,2020_Feb_06_1012,spring_faces,3.2.3,60.01802041039679,
condition files/Stage1_2.xlsx,,B1,T1,c,"['c', 'm']","['Clue', 'Monopoly']","[-0.15, 0.5]","[0.15, 0.5]",1,1,,,,,,,,,0,9,9,9,0,3,3,0,,,,,,,,,,,,,,,,,,,,,,,,,,,,,,,,,,,,,,,,,,,,,,,,,,,,,,,715.4112926099997,None,715.4112926099997,None,715.4112926099997,None,m,0,1.7695756089997303,716.9446117119996,None,716.9446117119996,None,716.9446117119996,None,718.7946512379995,None,718.7946512379995,None,718.7946512379995,None,718.7946512379995,None,,,,,,,,,,,,,,,,,,,,,,,,,,,,,,,,,,,,,,,,,,,,001,79,2020_Feb_06_1012,spring_faces,3.2.3,60.01802041039679,
condition files/Stage1_2.xlsx,,T3,B3,c,"['c', 'm']","['Clue', 'Monopoly']","[-0.15, 0.5]","[0.15, 0.5]",1,1,,,,,,,,,0,9,9,9,0,4,4,4,,,,,,,,,,,,,,,,,,,,,,,,,,,,,,,,,,,,,,,,,,,,,,,,,,,,,,,720.7612286009999,None,720.7612286009999,None,720.7612286009999,None,c,1,1.0115938250000909,722.2946120119996,None,722.2946120119996,None,722.2946120119996,None,723.3612978309993,None,723.3612978309993,None,723.3612978309993,None,723.3612978309993,None,,,,,,,,,,,,,,,,,,,,,,,,,,,,,,,,,,,,,,,,,,,,001,79,2020_Feb_06_1012,spring_faces,3.2.3,60.01802041039679,
condition files/Stage1_2.xlsx,,B3,T4,m,"['c', 'm']","['Clue', 'Monopoly']","[-0.15, 0.5]","[0.15, 0.5]",1,1,,,,,,,,,0,9,9,9,0,5,5,6,,,,,,,,,,,,,,,,,,,,,,,,,,,,,,,,,,,,,,,,,,,,,,,,,,,,,,,725.3446248979999,None,725.3446248979999,None,725.3446248979999,None,c,0,1.7723229319999518,726.8778984499995,None,726.8778984499995,None,726.8778984499995,None,728.7279846909996,None,728.7279846909996,None,728.7279846909996,None,728.7279846909996,None,,,,,,,,,,,,,,,,,,,,,,,,,,,,,,,,,,,,,,,,,,,,001,79,2020_Feb_06_1012,spring_faces,3.2.3,60.01802041039679,
condition files/Stage1_2.xlsx,,B4,T3,c,"['c', 'm']","['Clue', 'Monopoly']","[-0.15, 0.5]","[0.15, 0.5]",1,1,,,,,,,,,0,9,9,9,0,6,6,5,,,,,,,,,,,,,,,,,,,,,,,,,,,,,,,,,,,,,,,,,,,,,,,,,,,,,,,730.6946554869992,None,730.6946554869992,None,730.6946554869992,None,m,0,2.5983078190001834,732.2279868839996,None,732.2279868839996,None,732.2279868839996,None,734.894339042,None,734.894339042,None,734.894339042,None,734.894339042,None,,,,,,,,,,,,,,,,,,,,,,,,,,,,,,,,,,,,,,,,,,,,001,79,2020_Feb_06_1012,spring_faces,3.2.3,60.01802041039679,
condition files/Stage1_2.xlsx,,T2,B1,c,"['c', 'm']","['Clue', 'Monopoly']","[-0.15, 0.5]","[0.15, 0.5]",1,1,,,,,,,,,0,9,9,9,0,7,7,1,,,,,,,,,,,,,,,,,,,,,,,,,,,,,,,,,,,,,,,,,,,,,,,,,,,,,,,736.8612089409999,None,736.8612089409999,None,736.8612089409999,None,c,1,1.487610646999201,738.3946111569994,None,738.3946111569994,None,738.3946111569994,None,739.944533713,None,739.944533713,None,739.944533713,None,739.944533713,None,,,,,,,,,,,,,,,,,,,,,,,,,,,,,,,,,,,,,,,,,,,,001,79,2020_Feb_06_1012,spring_faces,3.2.3,60.01802041039679,
condition files/Stage1_1.xlsx,,T2,B2,m,"['c', 'm']","['Clue', 'Monopoly']","[-0.15, 0.5]","[0.15, 0.5]",1,1,,,,,,,,,0,10,10,10,0,0,0,3,,,,,,,,,,,,,,,,,,,,,,,,,,,,,,,,,,,,,,,,,,,,,,,,,,,,,,,741.944612061,None,741.944612061,None,741.944612061,None,m,1,1.9242732449993127,743.4779511009992,None,743.4779511009992,None,743.4779511009992,None,745.477963753,None,745.477963753,None,745.477963753,None,745.477963753,None,,,,,,,,,,,,,,,,,,,,,,,,,,,,,,,,,,,,,,,,,,,,001,79,2020_Feb_06_1012,spring_faces,3.2.3,60.01802041039679,
condition files/Stage1_1.xlsx,,B4,T4,m,"['c', 'm']","['Clue', 'Monopoly']","[-0.15, 0.5]","[0.15, 0.5]",1,1,,,,,,,,,0,10,10,10,0,1,1,7,,,,,,,,,,,,,,,,,,,,,,,,,,,,,,,,,,,,,,,,,,,,,,,,,,,,,,,747.4446406489997,None,747.4446406489997,None,747.4446406489997,None,m,1,1.0963541969995276,748.9779053399998,None,748.9779053399998,None,748.9779053399998,None,750.1279192919992,None,750.1279192919992,None,750.1279192919992,None,750.1279192919992,None,,,,,,,,,,,,,,,,,,,,,,,,,,,,,,,,,,,,,,,,,,,,001,79,2020_Feb_06_1012,spring_faces,3.2.3,60.01802041039679,
condition files/Stage1_1.xlsx,,B2,T1,m,"['c', 'm']","['Clue', 'Monopoly']","[-0.15, 0.5]","[0.15, 0.5]",1,1,,,,,,,,,0,10,10,10,0,2,2,2,,,,,,,,,,,,,,,,,,,,,,,,,,,,,,,,,,,,,,,,,,,,,,,,,,,,,,,752.1112918219997,None,752.1112918219997,None,752.1112918219997,None,m,1,2.413645435000035,753.6446298839992,None,753.6446298839992,None,753.6446298839992,None,756.1112840899996,None,756.1112840899996,None,756.1112840899996,None,756.1112840899996,None,,,,,,,,,,,,,,,,,,,,,,,,,,,,,,,,,,,,,,,,,,,,001,79,2020_Feb_06_1012,spring_faces,3.2.3,60.01802041039679,
condition files/Stage1_1.xlsx,,T1,B1,c,"['c', 'm']","['Clue', 'Monopoly']","[-0.15, 0.5]","[0.15, 0.5]",1,1,,,,,,,,,0,10,10,10,0,3,3,0,,,,,,,,,,,,,,,,,,,,,,,,,,,,,,,,,,,,,,,,,,,,,,,,,,,,,,,758.0945688439997,None,758.0945688439997,None,758.0945688439997,None,c,1,1.5664312870003414,759.6278989499997,None,759.6278989499997,None,759.6278989499997,None,761.2611551539994,None,761.2611551539994,None,761.2611551539994,None,761.2611551539994,None,,,,,,,,,,,,,,,,,,,,,,,,,,,,,,,,,,,,,,,,,,,,001,79,2020_Feb_06_1012,spring_faces,3.2.3,60.01802041039679,
condition files/Stage1_1.xlsx,,B1,T2,c,"['c', 'm']","['Clue', 'Monopoly']","[-0.15, 0.5]","[0.15, 0.5]",1,1,,,,,,,,,0,10,10,10,0,4,4,1,,,,,,,,,,,,,,,,,,,,,,,,,,,,,,,,,,,,,,,,,,,,,,,,,,,,,,,763.2279017629999,None,763.2279017629999,None,763.2279017629999,None,c,1,3.472845929999494,764.7613454419998,None,764.7613454419998,None,764.7613454419998,None,768.2946233059993,None,768.2946233059993,None,768.2946233059993,None,768.2946233059993,None,,,,,,,,,,,,,,,,,,,,,,,,,,,,,,,,,,,,,,,,,,,,001,79,2020_Feb_06_1012,spring_faces,3.2.3,60.01802041039679,
condition files/Stage1_1.xlsx,,T4,B3,m,"['c', 'm']","['Clue', 'Monopoly']","[-0.15, 0.5]","[0.15, 0.5]",1,1,,,,,,,,,0,10,10,10,0,5,5,6,,,,,,,,,,,,,,,,,,,,,,,,,,,,,,,,,,,,,,,,,,,,,,,,,,,,,,,770.2779677459994,None,770.2779677459994,None,770.2779677459994,None,m,1,0.9990388039996105,771.8112752739999,None,771.8112752739999,None,771.8112752739999,None,772.8777533469993,None,772.8777533469993,None,772.8777533469993,None,772.8777533469993,None,,,,,,,,,,,,,,,,,,,,,,,,,,,,,,,,,,,,,,,,,,,,001,79,2020_Feb_06_1012,spring_faces,3.2.3,60.01802041039679,
condition files/Stage1_1.xlsx,,T3,B4,c,"['c', 'm']","['Clue', 'Monopoly']","[-0.15, 0.5]","[0.15, 0.5]",1,1,,,,,,,,,0,10,10,10,0,6,6,5,,,,,,,,,,,,,,,,,,,,,,,,,,,,,,,,,,,,,,,,,,,,,,,,,,,,,,,774.8445939679996,None,774.8445939679996,None,774.8445939679996,None,m,0,5.53622544100017,776.3779672709998,None,776.3779672709998,None,776.3779672709998,None,781.9946504289992,None,781.9946504289992,None,781.9946504289992,None,781.9946504289992,None,,,,,,,,,,,,,,,,,,,,,,,,,,,,,,,,,,,,,,,,,,,,001,79,2020_Feb_06_1012,spring_faces,3.2.3,60.01802041039679,
condition files/Stage1_1.xlsx,,B3,T3,c,"['c', 'm']","['Clue', 'Monopoly']","[-0.15, 0.5]","[0.15, 0.5]",1,1,,,,,,,,,0,10,10,10,0,7,7,4,,,,,,,,,,,,,,,,,,,,,,,,,,,,,,,,,,,,,,,,,,,,,,,,,,,,,,,783.9613021149999,None,783.9613021149999,None,783.9613021149999,None,c,1,1.4595823010004096,785.4946311089998,None,785.4946311089998,None,785.4946311089998,None,787.0280150449998,None,787.0280150449998,None,787.0280150449998,None,787.0280150449998,None,,,,,,,,,,,,,,,,,,,,,,,,,,,,,,,,,,,,,,,,,,,,001,79,2020_Feb_06_1012,spring_faces,3.2.3,60.01802041039679,
condition files/Stage1_2.xlsx,,B1,T1,c,"['c', 'm']","['Clue', 'Monopoly']","[-0.15, 0.5]","[0.15, 0.5]",1,1,,,,,,,,,0,11,11,11,0,0,0,0,,,,,,,,,,,,,,,,,,,,,,,,,,,,,,,,,,,,,,,,,,,,,,,,,,,,,,,789.0112797699994,None,789.0112797699994,None,789.0112797699994,None,c,1,1.1296491390003212,790.5446186399995,None,790.5446186399995,None,790.5446186399995,None,791.7278397509999,None,791.7278397509999,None,791.7278397509999,None,791.7278397509999,None,,,,,,,,,,,,,,,,,,,,,,,,,,,,,,,,,,,,,,,,,,,,001,79,2020_Feb_06_1012,spring_faces,3.2.3,60.01802041039679,
condition files/Stage1_2.xlsx,,B4,T3,c,"['c', 'm']","['Clue', 'Monopoly']","[-0.15, 0.5]","[0.15, 0.5]",1,1,,,,,,,,,0,11,11,11,0,1,1,5,,,,,,,,,,,,,,,,,,,,,,,,,,,,,,,,,,,,,,,,,,,,,,,,,,,,,,,793.7112894669999,None,793.7112894669999,None,793.7112894669999,None,c,1,1.0055779980002626,795.2446125039996,None,795.2446125039996,None,795.2446125039996,None,796.3112726249992,None,796.3112726249992,None,796.3112726249992,None,796.3112726249992,None,,,,,,,,,,,,,,,,,,,,,,,,,,,,,,,,,,,,,,,,,,,,001,79,2020_Feb_06_1012,spring_faces,3.2.3,60.01802041039679,
condition files/Stage1_2.xlsx,,B2,T2,m,"['c', 'm']","['Clue', 'Monopoly']","[-0.15, 0.5]","[0.15, 0.5]",1,1,,,,,,,,,0,11,11,11,0,2,2,3,,,,,,,,,,,,,,,,,,,,,,,,,,,,,,,,,,,,,,,,,,,,,,,,,,,,,,,798.2946237269998,None,798.2946237269998,None,798.2946237269998,None,m,1,1.7501608299999134,799.827969727,None,799.827969727,None,799.827969727,None,801.6446324199997,None,801.6446324199997,None,801.6446324199997,None,801.6446324199997,None,,,,,,,,,,,,,,,,,,,,,,,,,,,,,,,,,,,,,,,,,,,,001,79,2020_Feb_06_1012,spring_faces,3.2.3,60.01802041039679,
condition files/Stage1_2.xlsx,,T3,B3,c,"['c', 'm']","['Clue', 'Monopoly']","[-0.15, 0.5]","[0.15, 0.5]",1,1,,,,,,,,,0,11,11,11,0,3,3,4,,,,,,,,,,,,,,,,,,,,,,,,,,,,,,,,,,,,,,,,,,,,,,,,,,,,,,,803.6112631689994,None,803.6112631689994,None,803.6112631689994,None,c,1,3.4415850149998732,805.1446341679994,None,805.1446341679994,None,805.1446341679994,None,808.661299243,None,808.661299243,None,808.661299243,None,808.661299243,None,,,,,,,,,,,,,,,,,,,,,,,,,,,,,,,,,,,,,,,,,,,,001,79,2020_Feb_06_1012,spring_faces,3.2.3,60.01802041039679,
condition files/Stage1_2.xlsx,,T1,B2,m,"['c', 'm']","['Clue', 'Monopoly']","[-0.15, 0.5]","[0.15, 0.5]",1,1,,,,,,,,,0,11,11,11,0,4,4,2,,,,,,,,,,,,,,,,,,,,,,,,,,,,,,,,,,,,,,,,,,,,,,,,,,,,,,,810.627995627,None,810.627995627,None,810.627995627,None,m,1,1.240914162000081,812.1612992299997,None,812.1612992299997,None,812.1612992299997,None,813.4779677219994,None,813.4779677219994,None,813.4779677219994,None,813.4779677219994,None,,,,,,,,,,,,,,,,,,,,,,,,,,,,,,,,,,,,,,,,,,,,001,79,2020_Feb_06_1012,spring_faces,3.2.3,60.01802041039679,
condition files/Stage1_2.xlsx,,T4,B4,m,"['c', 'm']","['Clue', 'Monopoly']","[-0.15, 0.5]","[0.15, 0.5]",1,1,,,,,,,,,0,11,11,11,0,5,5,7,,,,,,,,,,,,,,,,,,,,,,,,,,,,,,,,,,,,,,,,,,,,,,,,,,,,,,,815.4446509969994,None,815.4446509969994,None,815.4446509969994,None,m,1,1.208250888999828,816.9779717689999,None,816.9779717689999,None,816.9779717689999,None,818.2446498079998,None,818.2446498079998,None,818.2446498079998,None,818.2446498079998,None,,,,,,,,,,,,,,,,,,,,,,,,,,,,,,,,,,,,,,,,,,,,001,79,2020_Feb_06_1012,spring_faces,3.2.3,60.01802041039679,
condition files/Stage1_2.xlsx,,B3,T4,m,"['c', 'm']","['Clue', 'Monopoly']","[-0.15, 0.5]","[0.15, 0.5]",1,1,,,,,,,,,0,11,11,11,0,6,6,6,,,,,,,,,,,,,,,,,,,,,,,,,,,,,,,,,,,,,,,,,,,,,,,,,,,,,,,820.2279521719993,None,820.2279521719993,None,820.2279521719993,None,m,1,0.9369168519997402,821.7612833049998,None,821.7612833049998,None,821.7612833049998,None,822.7779459939993,None,822.7779459939993,None,822.7779459939993,None,822.7779459939993,None,,,,,,,,,,,,,,,,,,,,,,,,,,,,,,,,,,,,,,,,,,,,001,79,2020_Feb_06_1012,spring_faces,3.2.3,60.01802041039679,
condition files/Stage1_2.xlsx,,T2,B1,c,"['c', 'm']","['Clue', 'Monopoly']","[-0.15, 0.5]","[0.15, 0.5]",1,1,,,,,,,,,0,11,11,11,0,7,7,1,,,,,,,,,,,,,,,,,,,,,,,,,,,,,,,,,,,,,,,,,,,,,,,,,,,,,,,824.744638225,None,824.744638225,None,824.744638225,None,c,1,1.204257342999881,826.2779389479992,None,826.2779389479992,None,826.2779389479992,None,827.5612815239992,None,827.5612815239992,None,827.5612815239992,None,827.5612815239992,None,,,,,,,,,,,,,,,,,,,,,,,,,,,,,,,,,,,,,,,,,,,,001,79,2020_Feb_06_1012,spring_faces,3.2.3,60.01802041039679,
,,,,,,,,,,,,,,,,,,,,,,,,,,,,,,,,,,,,,,,,,,,,,,,,,,,,,,,,,,,,,,,,,,,,,,,,,,,,,,,,,,,,,,,,,,,,,,,,,,,,,,,,,,,,,,,,829.5279449899999,None,space,5.322916010999506,834.5112950779994,None,,,,,,,,,,,,,,,,,,,,,,,,,,,,,,001,79,2020_Feb_06_1012,spring_faces,3.2.3,60.01802041039679,
condition files/Stage2_1.xlsx,,B4,T4,r,"['s', 'r']","['Stratego', 'Risk']","[-0.15, 0.5]","[0.15, 0.5]",1,1,,,,,,,,,,,,,,,,,0,0,0,0,0,0,0,5,,,,,,,,,,,,,,,,,,,,,,,,,,,,,,,,,,,,,,,,,,,,,,,839.9446129469998,None,839.9446129469998,None,839.9446129469998,None,r,1,4.5188835200006,841.4112941949998,None,841.4112941949998,None,841.4112941949998,None,846.011152479,None,846.011152479,None,846.011152479,None,846.011152479,None,,,,,,,,,,,,,,,834.5112950779994,None,,,,,,,,,,,,,,,,,,,,,,,,,,,,001,79,2020_Feb_06_1012,spring_faces,3.2.3,60.01802041039679,
condition files/Stage2_1.xlsx,,T1,B1,s,"['s', 'r']","['Stratego', 'Risk']","[-0.15, 0.5]","[0.15, 0.5]",1,1,,,,,,,,,,,,,,,,,0,0,0,0,0,1,1,2,,,,,,,,,,,,,,,,,,,,,,,,,,,,,,,,,,,,,,,,,,,,,,,847.9778911309995,None,847.9778911309995,None,847.9778911309995,None,s,1,1.2348243249998632,849.5113011539997,None,849.5113011539997,None,849.5113011539997,None,850.8277189109995,None,850.8277189109995,None,850.8277189109995,None,850.8277189109995,None,,,,,,,,,,,,,,,,,,,,,,,,,,,,,,,,,,,,,,,,,,,,001,79,2020_Feb_06_1012,spring_faces,3.2.3,60.01802041039679,
condition files/Stage2_1.xlsx,,B2,T2,r,"['s', 'r']","['Stratego', 'Risk']","[-0.15, 0.5]","[0.15, 0.5]",1,1,,,,,,,,,,,,,,,,,0,0,0,0,0,2,2,3,,,,,,,,,,,,,,,,,,,,,,,,,,,,,,,,,,,,,,,,,,,,,,,852.7945798639994,None,852.7945798639994,None,852.7945798639994,None,r,1,1.3622462659996017,854.3279735349997,None,854.3279735349997,None,854.3279735349997,None,855.7612730339997,None,855.7612730339997,None,855.7612730339997,None,855.7612730339997,None,,,,,,,,,,,,,,,,,,,,,,,,,,,,,,,,,,,,,,,,,,,,001,79,2020_Feb_06_1012,spring_faces,3.2.3,60.01802041039679,
condition files/Stage2_1.xlsx,,T3,B3,s,"['s', 'r']","['Stratego', 'Risk']","[-0.15, 0.5]","[0.15, 0.5]",1,1,,,,,,,,,,,,,,,,,0,0,0,0,0,3,3,4,,,,,,,,,,,,,,,,,,,,,,,,,,,,,,,,,,,,,,,,,,,,,,,857.7279381999997,None,857.7279381999997,None,857.7279381999997,None,r,0,4.58827750600085,859.277913549,None,859.277913549,None,859.277913549,None,863.9446515399995,None,863.9446515399995,None,863.9446515399995,None,863.9446515399995,None,,,,,,,,,,,,,,,,,,,,,,,,,,,,,,,,,,,,,,,,,,,,001,79,2020_Feb_06_1012,spring_faces,3.2.3,60.01802041039679,
condition files/Stage2_1.xlsx,,B6,T6,r,"['s', 'r']","['Stratego', 'Risk']","[-0.15, 0.5]","[0.15, 0.5]",1,1,,,,,,,,,,,,,,,,,0,0,0,0,0,4,4,1,,,,,,,,,,,,,,,,,,,,,,,,,,,,,,,,,,,,,,,,,,,,,,,865.9113383959993,None,865.9113383959993,None,865.9113383959993,None,r,1,4.360268304999408,867.7779695319996,None,867.7779695319996,None,867.7779695319996,None,872.2113024699993,None,872.2113024699993,None,872.2113024699993,None,872.2113024699993,None,,,,,,,,,,,,,,,,,,,,,,,,,,,,,,,,,,,,,,,,,,,,001,79,2020_Feb_06_1012,spring_faces,3.2.3,60.01802041039679,
condition files/Stage2_1.xlsx,,T5,B5,s,"['s', 'r']","['Stratego', 'Risk']","[-0.15, 0.5]","[0.15, 0.5]",1,1,,,,,,,,,,,,,,,,,0,0,0,0,0,5,5,0,,,,,,,,,,,,,,,,,,,,,,,,,,,,,,,,,,,,,,,,,,,,,,,874.1779807189996,None,874.1779807189996,None,874.1779807189996,None,s,1,1.4168786420004835,875.7612751849992,None,875.7612751849992,None,875.7612751849992,None,877.2445548649994,None,877.2445548649994,None,877.2445548649994,None,877.2445548649994,None,,,,,,,,,,,,,,,,,,,,,,,,,,,,,,,,,,,,,,,,,,,,001,79,2020_Feb_06_1012,spring_faces,3.2.3,60.01802041039679,
condition files/Stage2_2.xlsx,,B3,T3,s,"['s', 'r']","['Stratego', 'Risk']","[-0.15, 0.5]","[0.15, 0.5]",1,1,,,,,,,,,,,,,,,,,0,1,1,1,0,0,0,4,,,,,,,,,,,,,,,,,,,,,,,,,,,,,,,,,,,,,,,,,,,,,,,879.2612778149996,None,879.2612778149996,None,879.2612778149996,None,r,0,0.9609729950007022,880.7612958069994,None,880.7612958069994,None,880.7612958069994,None,881.7779769679992,None,881.7779769679992,None,881.7779769679992,None,881.7779769679992,None,,,,,,,,,,,,,,,,,,,,,,,,,,,,,,,,,,,,,,,,,,,,001,79,2020_Feb_06_1012,spring_faces,3.2.3,60.01802041039679,
condition files/Stage2_2.xlsx,,T6,B6,r,"['s', 'r']","['Stratego', 'Risk']","[-0.15, 0.5]","[0.15, 0.5]",1,1,,,,,,,,,,,,,,,,,0,1,1,1,0,1,1,1,,,,,,,,,,,,,,,,,,,,,,,,,,,,,,,,,,,,,,,,,,,,,,,883.7613188689993,None,883.7613188689993,None,883.7613188689993,None,s,0,1.0835878170000797,885.2945676399995,None,885.2945676399995,None,885.2945676399995,None,886.4444394369993,None,886.4444394369993,None,886.4444394369993,None,886.4444394369993,None,,,,,,,,,,,,,,,,,,,,,,,,,,,,,,,,,,,,,,,,,,,,001,79,2020_Feb_06_1012,spring_faces,3.2.3,60.01802041039679,
condition files/Stage2_2.xlsx,,B5,T5,s,"['s', 'r']","['Stratego', 'Risk']","[-0.15, 0.5]","[0.15, 0.5]",1,1,,,,,,,,,,,,,,,,,0,1,1,1,0,2,2,0,,,,,,,,,,,,,,,,,,,,,,,,,,,,,,,,,,,,,,,,,,,,,,,888.4112455209997,None,888.4112455209997,None,888.4112455209997,None,s,1,1.3296446269996522,889.9446134379996,None,889.9446134379996,None,889.9446134379996,None,891.3446063609999,None,891.3446063609999,None,891.3446063609999,None,891.3446063609999,None,,,,,,,,,,,,,,,,,,,,,,,,,,,,,,,,,,,,,,,,,,,,001,79,2020_Feb_06_1012,spring_faces,3.2.3,60.01802041039679,
condition files/Stage2_2.xlsx,,T2,B2,r,"['s', 'r']","['Stratego', 'Risk']","[-0.15, 0.5]","[0.15, 0.5]",1,1,,,,,,,,,,,,,,,,,0,1,1,1,0,3,3,3,,,,,,,,,,,,,,,,,,,,,,,,,,,,,,,,,,,,,,,,,,,,,,,893.3112875069992,None,893.3112875069992,None,893.3112875069992,None,r,1,1.8369718650001232,894.8612450349992,None,894.8612450349992,None,894.8612450349992,None,896.7779690219995,None,896.7779690219995,None,896.7779690219995,None,896.7779690219995,None,,,,,,,,,,,,,,,,,,,,,,,,,,,,,,,,,,,,,,,,,,,,001,79,2020_Feb_06_1012,spring_faces,3.2.3,60.01802041039679,
condition files/Stage2_2.xlsx,,T4,B4,r,"['s', 'r']","['Stratego', 'Risk']","[-0.15, 0.5]","[0.15, 0.5]",1,1,,,,,,,,,,,,,,,,,0,1,1,1,0,4,4,5,,,,,,,,,,,,,,,,,,,,,,,,,,,,,,,,,,,,,,,,,,,,,,,898.7446702929992,None,898.7446702929992,None,898.7446702929992,None,r,1,1.3162932590003038,900.2780158649994,None,900.2780158649994,None,900.2780158649994,None,901.6446020619996,None,901.6446020619996,None,901.6446020619996,None,901.6446020619996,None,,,,,,,,,,,,,,,,,,,,,,,,,,,,,,,,,,,,,,,,,,,,001,79,2020_Feb_06_1012,spring_faces,3.2.3,60.01802041039679,
condition files/Stage2_2.xlsx,,B1,T1,s,"['s', 'r']","['Stratego', 'Risk']","[-0.15, 0.5]","[0.15, 0.5]",1,1,,,,,,,,,,,,,,,,,0,1,1,1,0,5,5,2,,,,,,,,,,,,,,,,,,,,,,,,,,,,,,,,,,,,,,,,,,,,,,,903.6279791919997,None,903.6279791919997,None,903.6279791919997,None,s,1,1.712967972000115,905.1612990229996,None,905.1612990229996,None,905.1612990229996,None,906.9446096439997,None,906.9446096439997,None,906.9446096439997,None,906.9446096439997,None,,,,,,,,,,,,,,,,,,,,,,,,,,,,,,,,,,,,,,,,,,,,001,79,2020_Feb_06_1012,spring_faces,3.2.3,60.01802041039679,
condition files/Stage2_1.xlsx,,T5,B5,s,"['s', 'r']","['Stratego', 'Risk']","[-0.15, 0.5]","[0.15, 0.5]",1,1,,,,,,,,,,,,,,,,,0,2,2,2,0,0,0,0,,,,,,,,,,,,,,,,,,,,,,,,,,,,,,,,,,,,,,,,,,,,,,,908.9279445919992,None,908.9279445919992,None,908.9279445919992,None,s,1,1.757017709000138,910.4612286819993,None,910.4612286819993,None,910.4612286819993,None,912.277925937,None,912.277925937,None,912.277925937,None,912.277925937,None,,,,,,,,,,,,,,,,,,,,,,,,,,,,,,,,,,,,,,,,,,,,001,79,2020_Feb_06_1012,spring_faces,3.2.3,60.01802041039679,
condition files/Stage2_1.xlsx,,T1,B1,s,"['s', 'r']","['Stratego', 'Risk']","[-0.15, 0.5]","[0.15, 0.5]",1,1,,,,,,,,,,,,,,,,,0,2,2,2,0,1,1,2,,,,,,,,,,,,,,,,,,,,,,,,,,,,,,,,,,,,,,,,,,,,,,,914.261295501,None,914.261295501,None,914.261295501,None,s,1,1.127587338000012,915.7946316339994,None,915.7946316339994,None,915.7946316339994,None,916.9946333759999,None,916.9946333759999,None,916.9946333759999,None,916.9946333759999,None,,,,,,,,,,,,,,,,,,,,,,,,,,,,,,,,,,,,,,,,,,,,001,79,2020_Feb_06_1012,spring_faces,3.2.3,60.01802041039679,
condition files/Stage2_1.xlsx,,B2,T2,r,"['s', 'r']","['Stratego', 'Risk']","[-0.15, 0.5]","[0.15, 0.5]",1,1,,,,,,,,,,,,,,,,,0,2,2,2,0,2,2,3,,,,,,,,,,,,,,,,,,,,,,,,,,,,,,,,,,,,,,,,,,,,,,,918.961333495,None,918.961333495,None,918.961333495,None,r,1,1.8195918700002949,920.4945962689999,None,920.4945962689999,None,920.4945962689999,None,922.3946030649995,None,922.3946030649995,None,922.3946030649995,None,922.3946030649995,None,,,,,,,,,,,,,,,,,,,,,,,,,,,,,,,,,,,,,,,,,,,,001,79,2020_Feb_06_1012,spring_faces,3.2.3,60.01802041039679,
condition files/Stage2_1.xlsx,,T3,B3,s,"['s', 'r']","['Stratego', 'Risk']","[-0.15, 0.5]","[0.15, 0.5]",1,1,,,,,,,,,,,,,,,,,0,2,2,2,0,3,3,4,,,,,,,,,,,,,,,,,,,,,,,,,,,,,,,,,,,,,,,,,,,,,,,924.3612957599998,None,924.3612957599998,None,924.3612957599998,None,s,1,2.4835280209999837,925.894619142,None,925.894619142,None,925.894619142,None,928.444413141,None,928.444413141,None,928.444413141,None,928.444413141,None,,,,,,,,,,,,,,,,,,,,,,,,,,,,,,,,,,,,,,,,,,,,001,79,2020_Feb_06_1012,spring_faces,3.2.3,60.01802041039679,
condition files/Stage2_1.xlsx,,B6,T6,r,"['s', 'r']","['Stratego', 'Risk']","[-0.15, 0.5]","[0.15, 0.5]",1,1,,,,,,,,,,,,,,,,,0,2,2,2,0,4,4,1,,,,,,,,,,,,,,,,,,,,,,,,,,,,,,,,,,,,,,,,,,,,,,,930.4112907539993,None,930.4112907539993,None,930.4112907539993,None,r,1,1.6175208419999763,931.944609526,None,931.944609526,None,931.944609526,None,933.6446523119994,None,933.6446523119994,None,933.6446523119994,None,933.6446523119994,None,,,,,,,,,,,,,,,,,,,,,,,,,,,,,,,,,,,,,,,,,,,,001,79,2020_Feb_06_1012,spring_faces,3.2.3,60.01802041039679,
condition files/Stage2_1.xlsx,,B4,T4,r,"['s', 'r']","['Stratego', 'Risk']","[-0.15, 0.5]","[0.15, 0.5]",1,1,,,,,,,,,,,,,,,,,0,2,2,2,0,5,5,5,,,,,,,,,,,,,,,,,,,,,,,,,,,,,,,,,,,,,,,,,,,,,,,935.6112595449995,None,935.6112595449995,None,935.6112595449995,None,r,1,1.8417053000002852,937.1445406909997,None,937.1445406909997,None,937.1445406909997,None,939.0446602379998,None,939.0446602379998,None,939.0446602379998,None,939.0446602379998,None,,,,,,,,,,,,,,,,,,,,,,,,,,,,,,,,,,,,,,,,,,,,001,79,2020_Feb_06_1012,spring_faces,3.2.3,60.01802041039679,
condition files/Stage2_2.xlsx,,T2,B2,r,"['s', 'r']","['Stratego', 'Risk']","[-0.15, 0.5]","[0.15, 0.5]",1,1,,,,,,,,,,,,,,,,,0,3,3,3,0,0,0,3,,,,,,,,,,,,,,,,,,,,,,,,,,,,,,,,,,,,,,,,,,,,,,,941.0446316689995,None,941.0446316689995,None,941.0446316689995,None,r,1,1.5442758250001134,942.5779530489999,None,942.5779530489999,None,942.5779530489999,None,944.1779084469999,None,944.1779084469999,None,944.1779084469999,None,944.1779084469999,None,,,,,,,,,,,,,,,,,,,,,,,,,,,,,,,,,,,,,,,,,,,,001,79,2020_Feb_06_1012,spring_faces,3.2.3,60.01802041039679,
condition files/Stage2_2.xlsx,,B3,T3,s,"['s', 'r']","['Stratego', 'Risk']","[-0.15, 0.5]","[0.15, 0.5]",1,1,,,,,,,,,,,,,,,,,0,3,3,3,0,1,1,4,,,,,,,,,,,,,,,,,,,,,,,,,,,,,,,,,,,,,,,,,,,,,,,946.1613283759998,None,946.1613283759998,None,946.1613283759998,None,s,1,1.1476541629999701,947.6946355999999,None,947.6946355999999,None,947.6946355999999,None,948.9113259899996,None,948.9113259899996,None,948.9113259899996,None,948.9113259899996,None,,,,,,,,,,,,,,,,,,,,,,,,,,,,,,,,,,,,,,,,,,,,001,79,2020_Feb_06_1012,spring_faces,3.2.3,60.01802041039679,
condition files/Stage2_2.xlsx,,B1,T1,s,"['s', 'r']","['Stratego', 'Risk']","[-0.15, 0.5]","[0.15, 0.5]",1,1,,,,,,,,,,,,,,,,,0,3,3,3,0,2,2,2,,,,,,,,,,,,,,,,,,,,,,,,,,,,,,,,,,,,,,,,,,,,,,,950.8779203589993,None,950.8779203589993,None,950.8779203589993,None,r,0,1.2630121720003444,952.4112571409996,None,952.4112571409996,None,952.4112571409996,None,953.727946387,None,953.727946387,None,953.727946387,None,953.727946387,None,,,,,,,,,,,,,,,,,,,,,,,,,,,,,,,,,,,,,,,,,,,,001,79,2020_Feb_06_1012,spring_faces,3.2.3,60.01802041039679,
condition files/Stage2_2.xlsx,,T6,B6,r,"['s', 'r']","['Stratego', 'Risk']","[-0.15, 0.5]","[0.15, 0.5]",1,1,,,,,,,,,,,,,,,,,0,3,3,3,0,3,3,1,,,,,,,,,,,,,,,,,,,,,,,,,,,,,,,,,,,,,,,,,,,,,,,955.7113110629998,None,955.7113110629998,None,955.7113110629998,None,s,0,1.2136234540002988,957.2446519309997,None,957.2446519309997,None,957.2446519309997,None,958.5278479239996,None,958.5278479239996,None,958.5278479239996,None,958.5278479239996,None,,,,,,,,,,,,,,,,,,,,,,,,,,,,,,,,,,,,,,,,,,,,001,79,2020_Feb_06_1012,spring_faces,3.2.3,60.01802041039679,
condition files/Stage2_2.xlsx,,B5,T5,s,"['s', 'r']","['Stratego', 'Risk']","[-0.15, 0.5]","[0.15, 0.5]",1,1,,,,,,,,,,,,,,,,,0,3,3,3,0,4,4,0,,,,,,,,,,,,,,,,,,,,,,,,,,,,,,,,,,,,,,,,,,,,,,,960.4946259599992,None,960.4946259599992,None,960.4946259599992,None,s,1,1.6783376249995854,962.0279063409998,None,962.0279063409998,None,962.0279063409998,None,963.7780287409996,None,963.7780287409996,None,963.7780287409996,None,963.7780287409996,None,,,,,,,,,,,,,,,,,,,,,,,,,,,,,,,,,,,,,,,,,,,,001,79,2020_Feb_06_1012,spring_faces,3.2.3,60.01802041039679,
condition files/Stage2_2.xlsx,,T4,B4,r,"['s', 'r']","['Stratego', 'Risk']","[-0.15, 0.5]","[0.15, 0.5]",1,1,,,,,,,,,,,,,,,,,0,3,3,3,0,5,5,5,,,,,,,,,,,,,,,,,,,,,,,,,,,,,,,,,,,,,,,,,,,,,,,965.7446499789994,None,965.7446499789994,None,965.7446499789994,None,r,1,2.076328306000505,967.2779008989992,None,967.2779008989992,None,967.2779008989992,None,969.4279649599994,None,969.4279649599994,None,969.4279649599994,None,969.4279649599994,None,,,,,,,,,,,,,,,,,,,,,,,,,,,,,,,,,,,,,,,,,,,,001,79,2020_Feb_06_1012,spring_faces,3.2.3,60.01802041039679,
condition files/Stage2_1.xlsx,,B4,T4,r,"['s', 'r']","['Stratego', 'Risk']","[-0.15, 0.5]","[0.15, 0.5]",1,1,,,,,,,,,,,,,,,,,0,4,4,4,0,0,0,5,,,,,,,,,,,,,,,,,,,,,,,,,,,,,,,,,,,,,,,,,,,,,,,971.4113307119997,None,971.4113307119997,None,971.4113307119997,None,r,1,0.7936089680006262,972.9446284079995,None,972.9446284079995,None,972.9446284079995,None,973.8113008159999,None,973.8113008159999,None,973.8113008159999,None,973.8113008159999,None,,,,,,,,,,,,,,,,,,,,,,,,,,,,,,,,,,,,,,,,,,,,001,79,2020_Feb_06_1012,spring_faces,3.2.3,60.01802041039679,
condition files/Stage2_1.xlsx,,T5,B5,s,"['s', 'r']","['Stratego', 'Risk']","[-0.15, 0.5]","[0.15, 0.5]",1,1,,,,,,,,,,,,,,,,,0,4,4,4,0,1,1,0,,,,,,,,,,,,,,,,,,,,,,,,,,,,,,,,,,,,,,,,,,,,,,,975.7779716919995,None,975.7779716919995,None,975.7779716919995,None,s,1,0.7789536829995996,977.3112821899995,None,977.3112821899995,None,977.3112821899995,None,978.1613084129995,None,978.1613084129995,None,978.1613084129995,None,978.1613084129995,None,,,,,,,,,,,,,,,,,,,,,,,,,,,,,,,,,,,,,,,,,,,,001,79,2020_Feb_06_1012,spring_faces,3.2.3,60.01802041039679,
condition files/Stage2_1.xlsx,,T1,B1,s,"['s', 'r']","['Stratego', 'Risk']","[-0.15, 0.5]","[0.15, 0.5]",1,1,,,,,,,,,,,,,,,,,0,4,4,4,0,2,2,2,,,,,,,,,,,,,,,,,,,,,,,,,,,,,,,,,,,,,,,,,,,,,,,980.1279705079996,None,980.1279705079996,None,980.1279705079996,None,s,1,0.8930318440006886,981.6612234699996,None,981.6612234699996,None,981.6612234699996,None,982.6113132299997,None,982.6113132299997,None,982.6113132299997,None,982.6113132299997,None,,,,,,,,,,,,,,,,,,,,,,,,,,,,,,,,,,,,,,,,,,,,001,79,2020_Feb_06_1012,spring_faces,3.2.3,60.01802041039679,
condition files/Stage2_1.xlsx,,T3,B3,s,"['s', 'r']","['Stratego', 'Risk']","[-0.15, 0.5]","[0.15, 0.5]",1,1,,,,,,,,,,,,,,,,,0,4,4,4,0,3,3,4,,,,,,,,,,,,,,,,,,,,,,,,,,,,,,,,,,,,,,,,,,,,,,,984.5946184699997,None,984.5946184699997,None,984.5946184699997,None,r,0,1.9303348800003732,986.1279441899997,None,986.1279441899997,None,986.1279441899997,None,988.1112882429998,None,988.1112882429998,None,988.1112882429998,None,988.1112882429998,None,,,,,,,,,,,,,,,,,,,,,,,,,,,,,,,,,,,,,,,,,,,,001,79,2020_Feb_06_1012,spring_faces,3.2.3,60.01802041039679,
condition files/Stage2_1.xlsx,,B2,T2,r,"['s', 'r']","['Stratego', 'Risk']","[-0.15, 0.5]","[0.15, 0.5]",1,1,,,,,,,,,,,,,,,,,0,4,4,4,0,4,4,3,,,,,,,,,,,,,,,,,,,,,,,,,,,,,,,,,,,,,,,,,,,,,,,990.0945702169993,None,990.0945702169993,None,990.0945702169993,None,r,1,1.1182504449998305,991.6278991809995,None,991.6278991809995,None,991.6278991809995,None,992.8277246199996,None,992.8277246199996,None,992.8277246199996,None,992.8277246199996,None,,,,,,,,,,,,,,,,,,,,,,,,,,,,,,,,,,,,,,,,,,,,001,79,2020_Feb_06_1012,spring_faces,3.2.3,60.01802041039679,
