condsFile,subStage,cue1,cue2,correct,responseKeys,responseNames,cue1Position,cue2Position,cue1Opacity,cue2Opacity,stageLoop0.thisRepN,stageLoop0.thisTrialN,stageLoop0.thisN,stageLoop0.thisIndex,blockLoop0.thisRepN,blockLoop0.thisTrialN,blockLoop0.thisN,blockLoop0.thisIndex,stage1Loop.thisRepN,stage1Loop.thisTrialN,stage1Loop.thisN,stage1Loop.thisIndex,blockLoop1.thisRepN,blockLoop1.thisTrialN,blockLoop1.thisN,blockLoop1.thisIndex,stage2Loop.thisRepN,stage2Loop.thisTrialN,stage2Loop.thisN,stage2Loop.thisIndex,blockLoop2.thisRepN,blockLoop2.thisTrialN,blockLoop2.thisN,blockLoop2.thisIndex,testLoop.thisRepN,testLoop.thisTrialN,testLoop.thisN,testLoop.thisIndex,blockLoopTest.thisRepN,blockLoopTest.thisTrialN,blockLoopTest.thisN,blockLoopTest.thisIndex,cuePics,id_instr_text.started,id_instr_text.stopped,space_to_continue_2.started,space_to_continue_2.stopped,end_instructions_resp_3.keys,end_instructions_resp_3.rt,end_instructions_resp_3.started,end_instructions_resp_3.stopped,id_input_instr.started,id_input_instr.stopped,id_input_rect.started,id_input_rect.stopped,id_input_resp.keys,id_input_resp.rt,id_input_resp.started,id_input_resp.stopped,sonaID,id_input_text.started,id_input_text.stopped,final_text.started,final_text.stopped,instructions.started,instructions.stopped,end_instructions_resp.keys,end_instructions_resp.rt,end_instructions_resp.started,end_instructions_resp.stopped,space_to_continue.started,space_to_continue.stopped,instructions_stage0.started,instructions_stage0.stopped,end_instructions_resp_stage0.keys,end_instructions_resp_stage0.rt,end_instructions_resp_stage0.started,end_instructions_resp_stage0.stopped,space_to_continue_stage0.started,space_to_continue_stage0.stopped,text.started,text.stopped,resp_text1.started,resp_text1.stopped,resp_text2.started,resp_text2.stopped,trial_resp.keys,trial_resp.corr,trial_resp.rt,trial_resp.started,trial_resp.stopped,cue1Image.started,cue1Image.stopped,cue2Image.started,cue2Image.stopped,cue1Image_fb.started,cue1Image_fb.stopped,cue2Image_fb.started,cue2Image_fb.stopped,fb_text_answer.started,fb_text_answer.stopped,feedback_image.started,feedback_image.stopped,instructions_stage1.started,instructions_stage1.stopped,end_instructions_resp_stage1.keys,end_instructions_resp_stage1.rt,end_instructions_resp_stage1.started,end_instructions_resp_stage1.stopped,space_to_continue_stage1.started,space_to_continue_stage1.stopped,instructions_2.started,instructions_2.stopped,end_instructions_resp_2.keys,end_instructions_resp_2.rt,end_instructions_resp_2.started,end_instructions_resp_2.stopped,press_space_to_continue_stage2.started,press_space_to_continue_stage2.stopped,instructions_testStage1.started,instructions_testStage1.stopped,end_instructions_resp_test1.keys,end_instructions_resp_test1.rt,end_instructions_resp_test1.started,end_instructions_resp_test1.stopped,press_space_to_continue_test1.started,press_space_to_continue_test1.stopped,cue1Image_testChoice.started,cue1Image_testChoice.stopped,cue2Image_testChoice.started,cue2Image_testChoice.stopped,test_resp.keys,test_resp.corr,test_resp.rt,test_resp.started,test_resp.stopped,cue1Image_testConf.started,cue1Image_testConf.stopped,cue2Image_testConf.started,cue2Image_testConf.stopped,conf_reminder.started,conf_reminder.stopped,conf_rating.response,conf_rating.rt,conf_rating.started,conf_rating.stopped,session,participant,date,expName,psychopyVersion,frameRate,
,,,,,,,,,,,,,,,,,,,,,,,,,,,,,,,,,,,,,,,,,,,"{'none': 'pictures/20M_AN_C.png', 'alpha': 'pictures/SHINEd_apple.png', 'beta': 'pictures/SHINEd_pear.png', 'theta': 'pictures/SHINEd_melon.png', 'phi': 'pictures/SHINEd_pepper.png', 'T1': 'pictures/20M_AN_C.png', 'T2': 'pictures/32M_AN_C.png', 'T3': 'pictures/31M_AN_C.png', 'T4': 'pictures/23M_AN_C.png', 'T5': 'pictures/22M_AN_C.png', 'T6': 'pictures/25M_AN_C.png', 'B1': 'pictures/34M_NE_C.png', 'B2': 'pictures/37M_NE_C.png', 'B3': 'pictures/26M_NE_C.png', 'B4': 'pictures/36M_NE_C.png', 'B5': 'pictures/38M_NE_C.png', 'B6': 'pictures/33M_NE_C.png'}",900.9017289450003,None,905.9015588580005,None,space,2.782496001999789,905.9015588580005,None,,,,,,,,,,,,,,,,,,,,,,,,,,,,,,,,,,,,,,,,,,,,,,,,,,,,,,,,,,,,,,,,,,,,,,,,,,,,,,,,,,,,,,,,,,,,,,,,001,7,2020_Jan_28_1031,spring_faces,3.1.5,60.00162316398872,
,,,,,,,,,,,,,,,,,,,,,,,,,,,,,,,,,,,,,,,,,,,,,,,,,,,,909.1173019590005,None,909.1173019590005,None,"['1', '2', '1', '6', '1', '9', '9', '8', 'backspace', 'backspace', 'backspace', 'backspace', 'v', 'a', 'h', 'backspace', 'b', 'o', 'u', '1', '2', '1', '6', 'v', 'a', 'b', 'o', 'u', '1', '2', '1', '6', 'v', 'a', 'b', 'o', 'u']","[17.358811684999637, 17.50267954299943, 23.15074876899962, 23.566746597999554, 24.318730547000087, 24.63876214299944, 24.81474139399961, 25.102667524000026, 30.63876071100003, 31.166741887999706, 31.58274831000017, 32.014741127999514, 40.84674980299951, 41.26273239799957, 44.65474737199929, 47.53471944000012, 48.238763419999486, 48.574806947999605, 48.81474553299995, 57.726828232000116, 57.90271364599994, 65.24672004999957, 66.12681435499962, 69.11870202799946, 69.40675903699957, 76.23876888399991, 76.83098983599939, 77.24675853899953, 94.79874201199982, 95.08668764999948, 96.06270914000015, 96.46276337800009, 98.52681641299932, 98.75077679100013, 101.23074073899988, 101.53469924699948, 101.93470623899975]",909.1173019590005,None,,,,,,,,,,,,,,,,,,,,,,,,,,,,,,,,,,,,,,,,,,,,,,,,,,,,,,,,,,,,,,,,,,,,,,,,,,,,,,,,,,,,,,,,001,7,2020_Jan_28_1031,spring_faces,3.1.5,60.00162316398872,
,,,,,,,,,,,,,,,,,,,,,,,,,,,,,,,,,,,,,,,,,,,,,,,,,,,,,,,,,,,,1216vabou,909.1173019590005,None,909.1173019590005,None,1016.1349812020007,None,space,2.8452592029998414,1021.1347604070006,None,,,,,,,,,,,,,,,,,,,,,,,,,,,,,,,,,,,,,,,,,,,,,,,,,,,,,,,,,,,,,,,,,,,,,,,,,,,,,001,7,2020_Jan_28_1031,spring_faces,3.1.5,60.00162316398872,
,,,,,,,,,,,,,,,,,,,,,,,,,,,,,,,,,,,,,,,,,,,,,,,,,,,,,,,,,,,,,,,,,,,,,,,1021.1347604070006,None,1024.0184835420005,None,space,4.113985852999576,1029.0180683590006,None,,,,,,,,,,,,,,,,,,,,,,,,,,,,,,,,,,,,,,,,,,,,,,,,,,,,,,,,,,,,,,,,,,,,,001,7,2020_Jan_28_1031,spring_faces,3.1.5,60.00162316398872,
condition files/Stage0a.xlsx,0a,beta,none,g,"['h', 'g']","['Chess', 'Go']","[0, 0.5]","[0, 0]",1,0,0,0,0,0,0,0,0,1,,,,,,,,,,,,,,,,,,,,,,,,,,,,,,,,,,,,,,,,,,,,,,,,,,,,,,,,,,,,,1029.0180683590006,None,1033.2680348470003,None,1033.2680348470003,None,1033.2680348470003,None,g,1,3.3549442739995357,1034.8011124310005,None,1034.8011124310005,None,1034.8011124310005,None,1038.2517708250007,None,1038.2517708250007,None,1038.2517708250007,None,1038.2517708250007,None,,,,,,,,,,,,,,,,,,,,,,,,,,,,,,,,,,,,,,,,,,,,001,7,2020_Jan_28_1031,spring_faces,3.1.5,60.00162316398872,
condition files/Stage0a.xlsx,0a,alpha,none,h,"['h', 'g']","['Chess', 'Go']","[0, 0.5]","[0, 0]",1,0,0,0,0,0,0,1,1,0,,,,,,,,,,,,,,,,,,,,,,,,,,,,,,,,,,,,,,,,,,,,,,,,,,,,,,,,,,,,,,,1040.1847600390001,None,1040.1847600390001,None,1040.1847600390001,None,g,0,5.236948098999164,1041.735094955,None,1041.735094955,None,1041.735094955,None,1047.0377216400002,None,1047.0377216400002,None,1047.0377216400002,None,1047.0377216400002,None,,,,,,,,,,,,,,,,,,,,,,,,,,,,,,,,,,,,,,,,,,,,001,7,2020_Jan_28_1031,spring_faces,3.1.5,60.00162316398872,
condition files/Stage0a.xlsx,0a,alpha,none,h,"['h', 'g']","['Chess', 'Go']","[0, 0.5]","[0, 0]",1,0,0,1,1,1,0,0,0,0,,,,,,,,,,,,,,,,,,,,,,,,,,,,,,,,,,,,,,,,,,,,,,,,,,,,,,,,,,,,,,,1049.018626088,None,1049.018626088,None,1049.018626088,None,h,1,2.4528932659995917,1050.5511613600002,None,1050.5511613600002,None,1050.5511613600002,None,1053.0680675230005,None,1053.0680675230005,None,1053.0680675230005,None,1053.0680675230005,None,,,,,,,,,,,,,,,,,,,,,,,,,,,,,,,,,,,,,,,,,,,,001,7,2020_Jan_28_1031,spring_faces,3.1.5,60.00162316398872,
condition files/Stage0a.xlsx,0a,beta,none,g,"['h', 'g']","['Chess', 'Go']","[0, 0.5]","[0, 0]",1,0,0,1,1,1,0,1,1,1,,,,,,,,,,,,,,,,,,,,,,,,,,,,,,,,,,,,,,,,,,,,,,,,,,,,,,,,,,,,,,,1055.0345905840004,None,1055.0345905840004,None,1055.0345905840004,None,g,1,2.0039246700007425,1056.5681211280007,None,1056.5681211280007,None,1056.5681211280007,None,1058.6345217550006,None,1058.6345217550006,None,1058.6345217550006,None,1058.6345217550006,None,,,,,,,,,,,,,,,,,,,,,,,,,,,,,,,,,,,,,,,,,,,,001,7,2020_Jan_28_1031,spring_faces,3.1.5,60.00162316398872,
condition files/Stage0a.xlsx,0a,alpha,none,h,"['h', 'g']","['Chess', 'Go']","[0, 0.5]","[0, 0]",1,0,0,2,2,2,0,0,0,0,,,,,,,,,,,,,,,,,,,,,,,,,,,,,,,,,,,,,,,,,,,,,,,,,,,,,,,,,,,,,,,1060.6184565930007,None,1060.6184565930007,None,1060.6184565930007,None,h,1,0.9491201279997767,1062.1509348460004,None,1062.1509348460004,None,1062.1509348460004,None,1063.1513349650004,None,1063.1513349650004,None,1063.1513349650004,None,1063.1513349650004,None,,,,,,,,,,,,,,,,,,,,,,,,,,,,,,,,,,,,,,,,,,,,001,7,2020_Jan_28_1031,spring_faces,3.1.5,60.00162316398872,
condition files/Stage0a.xlsx,0a,beta,none,g,"['h', 'g']","['Chess', 'Go']","[0, 0.5]","[0, 0]",1,0,0,2,2,2,0,1,1,1,,,,,,,,,,,,,,,,,,,,,,,,,,,,,,,,,,,,,,,,,,,,,,,,,,,,,,,,,,,,,,,1065.118060027,None,1065.118060027,None,1065.118060027,None,g,1,0.6893154150002374,1066.6507363350001,None,1066.6507363350001,None,1066.6507363350001,None,1067.4015802180002,None,1067.4015802180002,None,1067.4015802180002,None,1067.4015802180002,None,,,,,,,,,,,,,,,,,,,,,,,,,,,,,,,,,,,,,,,,,,,,001,7,2020_Jan_28_1031,spring_faces,3.1.5,60.00162316398872,
condition files/Stage0a.xlsx,0a,alpha,none,h,"['h', 'g']","['Chess', 'Go']","[0, 0.5]","[0, 0]",1,0,0,3,3,3,0,0,0,0,,,,,,,,,,,,,,,,,,,,,,,,,,,,,,,,,,,,,,,,,,,,,,,,,,,,,,,,,,,,,,,1069.38470315,None,1069.38470315,None,1069.38470315,None,h,1,0.5022849889992358,1070.9177796370004,None,1070.9177796370004,None,1070.9177796370004,None,1071.4850837920003,None,1071.4850837920003,None,1071.4850837920003,None,1071.4850837920003,None,,,,,,,,,,,,,,,,,,,,,,,,,,,,,,,,,,,,,,,,,,,,001,7,2020_Jan_28_1031,spring_faces,3.1.5,60.00162316398872,
condition files/Stage0a.xlsx,0a,beta,none,g,"['h', 'g']","['Chess', 'Go']","[0, 0.5]","[0, 0]",1,0,0,3,3,3,0,1,1,1,,,,,,,,,,,,,,,,,,,,,,,,,,,,,,,,,,,,,,,,,,,,,,,,,,,,,,,,,,,,,,,1073.451295803,None,1073.451295803,None,1073.451295803,None,g,1,0.5793283319999318,1074.9847113370006,None,1074.9847113370006,None,1074.9847113370006,None,1075.6180488650007,None,1075.6180488650007,None,1075.6180488650007,None,1075.6180488650007,None,,,,,,,,,,,,,,,,,,,,,,,,,,,,,,,,,,,,,,,,,,,,001,7,2020_Jan_28_1031,spring_faces,3.1.5,60.00162316398872,
condition files/Stage0a.xlsx,0a,beta,none,g,"['h', 'g']","['Chess', 'Go']","[0, 0.5]","[0, 0]",1,0,0,4,4,4,0,0,0,1,,,,,,,,,,,,,,,,,,,,,,,,,,,,,,,,,,,,,,,,,,,,,,,,,,,,,,,,,,,,,,,1077.6015110130002,None,1077.6015110130002,None,1077.6015110130002,None,h,0,0.3161733689994435,1079.1358534460005,None,1079.1358534460005,None,1079.1358534460005,None,1079.517720848,None,1079.517720848,None,1079.517720848,None,1079.517720848,None,,,,,,,,,,,,,,,,,,,,,,,,,,,,,,,,,,,,,,,,,,,,001,7,2020_Jan_28_1031,spring_faces,3.1.5,60.00162316398872,
condition files/Stage0a.xlsx,0a,alpha,none,h,"['h', 'g']","['Chess', 'Go']","[0, 0.5]","[0, 0]",1,0,0,4,4,4,0,1,1,0,,,,,,,,,,,,,,,,,,,,,,,,,,,,,,,,,,,,,,,,,,,,,,,,,,,,,,,,,,,,,,,1081.4844946760004,None,1081.4844946760004,None,1081.4844946760004,None,h,1,0.6737828470004388,1083.0183188790006,None,1083.0183188790006,None,1083.0183188790006,None,1083.7513399170002,None,1083.7513399170002,None,1083.7513399170002,None,1083.7513399170002,None,,,,,,,,,,,,,,,,,,,,,,,,,,,,,,,,,,,,,,,,,,,,001,7,2020_Jan_28_1031,spring_faces,3.1.5,60.00162316398872,
condition files/Stage0a.xlsx,0a,alpha,none,h,"['h', 'g']","['Chess', 'Go']","[0, 0.5]","[0, 0]",1,0,0,5,5,5,0,0,0,0,,,,,,,,,,,,,,,,,,,,,,,,,,,,,,,,,,,,,,,,,,,,,,,,,,,,,,,,,,,,,,,1085.734537329,None,1085.734537329,None,1085.734537329,None,h,1,1.5604268339993723,1087.2676345400005,None,1087.2676345400005,None,1087.2676345400005,None,1088.88485244,None,1088.88485244,None,1088.88485244,None,1088.88485244,None,,,,,,,,,,,,,,,,,,,,,,,,,,,,,,,,,,,,,,,,,,,,001,7,2020_Jan_28_1031,spring_faces,3.1.5,60.00162316398872,
condition files/Stage0a.xlsx,0a,beta,none,g,"['h', 'g']","['Chess', 'Go']","[0, 0.5]","[0, 0]",1,0,0,5,5,5,0,1,1,1,,,,,,,,,,,,,,,,,,,,,,,,,,,,,,,,,,,,,,,,,,,,,,,,,,,,,,,,,,,,,,,1090.8513886760002,None,1090.8513886760002,None,1090.8513886760002,None,g,1,0.8109416999996029,1092.3850859430004,None,1092.3850859430004,None,1092.3850859430004,None,1093.2511557890002,None,1093.2511557890002,None,1093.2511557890002,None,1093.2511557890002,None,,,,,,,,,,,,,,,,,,,,,,,,,,,,,,,,,,,,,,,,,,,,001,7,2020_Jan_28_1031,spring_faces,3.1.5,60.00162316398872,
condition files/Stage0b_1.xlsx,0b,none,beta,g,"['h', 'g']","['Chess', 'Go']","[-0.15, 0.5]","[0.15, 0.5]",0,1,0,6,6,6,0,0,0,1,,,,,,,,,,,,,,,,,,,,,,,,,,,,,,,,,,,,,,,,,,,,,,,,,,,,,,,,,,,,,,,1095.2848869400004,None,1095.2848869400004,None,1095.2848869400004,None,g,1,0.6033010600003763,1096.7847546580006,None,1096.7847546580006,None,1096.7847546580006,None,1097.4518632480003,None,1097.4518632480003,None,1097.4518632480003,None,1097.4518632480003,None,,,,,,,,,,,,,,,,,,,,,,,,,,,,,,,,,,,,,,,,,,,,001,7,2020_Jan_28_1031,spring_faces,3.1.5,60.00162316398872,
condition files/Stage0b_1.xlsx,0b,alpha,none,h,"['h', 'g']","['Chess', 'Go']","[-0.15, 0.5]","[0.15, 0.5]",1,0,0,6,6,6,0,1,1,0,,,,,,,,,,,,,,,,,,,,,,,,,,,,,,,,,,,,,,,,,,,,,,,,,,,,,,,,,,,,,,,1099.4177723950006,None,1099.4177723950006,None,1099.4177723950006,None,h,1,0.9482292709999456,1100.9677650630001,None,1100.9677650630001,None,1100.9677650630001,None,1101.9680846010006,None,1101.9680846010006,None,1101.9680846010006,None,1101.9680846010006,None,,,,,,,,,,,,,,,,,,,,,,,,,,,,,,,,,,,,,,,,,,,,001,7,2020_Jan_28_1031,spring_faces,3.1.5,60.00162316398872,
condition files/Stage0b_2.xlsx,0b,beta,none,g,"['h', 'g']","['Chess', 'Go']","[-0.15, 0.5]","[0.15, 0.5]",1,0,0,7,7,7,0,0,0,1,,,,,,,,,,,,,,,,,,,,,,,,,,,,,,,,,,,,,,,,,,,,,,,,,,,,,,,,,,,,,,,1103.967952688,None,1103.967952688,None,1103.967952688,None,g,1,0.5435624339997958,1105.4845018720007,None,1105.4845018720007,None,1105.4845018720007,None,1106.0846862840008,None,1106.0846862840008,None,1106.0846862840008,None,1106.0846862840008,None,,,,,,,,,,,,,,,,,,,,,,,,,,,,,,,,,,,,,,,,,,,,001,7,2020_Jan_28_1031,spring_faces,3.1.5,60.00162316398872,
condition files/Stage0b_2.xlsx,0b,none,alpha,h,"['h', 'g']","['Chess', 'Go']","[-0.15, 0.5]","[0.15, 0.5]",0,1,0,7,7,7,0,1,1,0,,,,,,,,,,,,,,,,,,,,,,,,,,,,,,,,,,,,,,,,,,,,,,,,,,,,,,,,,,,,,,,1108.0510772930002,None,1108.0510772930002,None,1108.0510772930002,None,h,1,1.1464520019999327,1109.601858037,None,1109.601858037,None,1109.601858037,None,1110.8048988960009,None,1110.8048988960009,None,1110.8048988960009,None,1110.8048988960009,None,,,,,,,,,,,,,,,,,,,,,,,,,,,,,,,,,,,,,,,,,,,,001,7,2020_Jan_28_1031,spring_faces,3.1.5,60.00162316398872,
condition files/Stage0b_1.xlsx,0b,alpha,none,h,"['h', 'g']","['Chess', 'Go']","[-0.15, 0.5]","[0.15, 0.5]",1,0,0,8,8,8,0,0,0,0,,,,,,,,,,,,,,,,,,,,,,,,,,,,,,,,,,,,,,,,,,,,,,,,,,,,,,,,,,,,,,,1112.7849591040003,None,1112.7849591040003,None,1112.7849591040003,None,h,1,1.0372419770001216,1114.3188190390001,None,1114.3188190390001,None,1114.3188190390001,None,1115.4181943540007,None,1115.4181943540007,None,1115.4181943540007,None,1115.4181943540007,None,,,,,,,,,,,,,,,,,,,,,,,,,,,,,,,,,,,,,,,,,,,,001,7,2020_Jan_28_1031,spring_faces,3.1.5,60.00162316398872,
condition files/Stage0b_1.xlsx,0b,none,beta,g,"['h', 'g']","['Chess', 'Go']","[-0.15, 0.5]","[0.15, 0.5]",0,1,0,8,8,8,0,1,1,1,,,,,,,,,,,,,,,,,,,,,,,,,,,,,,,,,,,,,,,,,,,,,,,,,,,,,,,,,,,,,,,1117.3847040600003,None,1117.3847040600003,None,1117.3847040600003,None,g,1,1.3497332589995494,1118.9183114420002,None,1118.9183114420002,None,1118.9183114420002,None,1120.3194789570007,None,1120.3194789570007,None,1120.3194789570007,None,1120.3194789570007,None,,,,,,,,,,,,,,,,,,,,,,,,,,,,,,,,,,,,,,,,,,,,001,7,2020_Jan_28_1031,spring_faces,3.1.5,60.00162316398872,
condition files/Stage0b_2.xlsx,0b,none,alpha,h,"['h', 'g']","['Chess', 'Go']","[-0.15, 0.5]","[0.15, 0.5]",0,1,0,9,9,9,0,0,0,0,,,,,,,,,,,,,,,,,,,,,,,,,,,,,,,,,,,,,,,,,,,,,,,,,,,,,,,,,,,,,,,1122.3016256460005,None,1122.3016256460005,None,1122.3016256460005,None,h,1,0.6402709510002751,1123.8358556560006,None,1123.8358556560006,None,1123.8358556560006,None,1124.535105416,None,1124.535105416,None,1124.535105416,None,1124.535105416,None,,,,,,,,,,,,,,,,,,,,,,,,,,,,,,,,,,,,,,,,,,,,001,7,2020_Jan_28_1031,spring_faces,3.1.5,60.00162316398872,
condition files/Stage0b_2.xlsx,0b,beta,none,g,"['h', 'g']","['Chess', 'Go']","[-0.15, 0.5]","[0.15, 0.5]",1,0,0,9,9,9,0,1,1,1,,,,,,,,,,,,,,,,,,,,,,,,,,,,,,,,,,,,,,,,,,,,,,,,,,,,,,,,,,,,,,,1126.5013133330003,None,1126.5013133330003,None,1126.5013133330003,None,g,1,0.6799147520005135,1128.0521075440001,None,1128.0521075440001,None,1128.0521075440001,None,1128.7880768690002,None,1128.7880768690002,None,1128.7880768690002,None,1128.7880768690002,None,,,,,,,,,,,,,,,,,,,,,,,,,,,,,,,,,,,,,,,,,,,,001,7,2020_Jan_28_1031,spring_faces,3.1.5,60.00162316398872,
condition files/Stage0b_1.xlsx,0b,alpha,none,h,"['h', 'g']","['Chess', 'Go']","[-0.15, 0.5]","[0.15, 0.5]",1,0,0,10,10,10,0,0,0,0,,,,,,,,,,,,,,,,,,,,,,,,,,,,,,,,,,,,,,,,,,,,,,,,,,,,,,,,,,,,,,,1130.7682131320007,None,1130.7682131320007,None,1130.7682131320007,None,h,1,0.638508942000044,1132.3015518240009,None,1132.3015518240009,None,1132.3015518240009,None,1133.0017106260002,None,1133.0017106260002,None,1133.0017106260002,None,1133.0017106260002,None,,,,,,,,,,,,,,,,,,,,,,,,,,,,,,,,,,,,,,,,,,,,001,7,2020_Jan_28_1031,spring_faces,3.1.5,60.00162316398872,
condition files/Stage0b_1.xlsx,0b,none,beta,g,"['h', 'g']","['Chess', 'Go']","[-0.15, 0.5]","[0.15, 0.5]",0,1,0,10,10,10,0,1,1,1,,,,,,,,,,,,,,,,,,,,,,,,,,,,,,,,,,,,,,,,,,,,,,,,,,,,,,,,,,,,,,,1134.9679977490005,None,1134.9679977490005,None,1134.9679977490005,None,g,1,0.8368642909999835,1136.5031952880008,None,1136.5031952880008,None,1136.5031952880008,None,1137.4060375550007,None,1137.4060375550007,None,1137.4060375550007,None,1137.4060375550007,None,,,,,,,,,,,,,,,,,,,,,,,,,,,,,,,,,,,,,,,,,,,,001,7,2020_Jan_28_1031,spring_faces,3.1.5,60.00162316398872,
condition files/Stage0b_2.xlsx,0b,none,alpha,h,"['h', 'g']","['Chess', 'Go']","[-0.15, 0.5]","[0.15, 0.5]",0,1,0,11,11,11,0,0,0,0,,,,,,,,,,,,,,,,,,,,,,,,,,,,,,,,,,,,,,,,,,,,,,,,,,,,,,,,,,,,,,,1139.384959123,None,1139.384959123,None,1139.384959123,None,h,1,0.9502019279998422,1140.9178568240004,None,1140.9178568240004,None,1140.9178568240004,None,1141.9199186380001,None,1141.9199186380001,None,1141.9199186380001,None,1141.9199186380001,None,,,,,,,,,,,,,,,,,,,,,,,,,,,,,,,,,,,,,,,,,,,,001,7,2020_Jan_28_1031,spring_faces,3.1.5,60.00162316398872,
condition files/Stage0b_2.xlsx,0b,beta,none,g,"['h', 'g']","['Chess', 'Go']","[-0.15, 0.5]","[0.15, 0.5]",1,0,0,11,11,11,0,1,1,1,,,,,,,,,,,,,,,,,,,,,,,,,,,,,,,,,,,,,,,,,,,,,,,,,,,,,,,,,,,,,,,1143.8844404930005,None,1143.8844404930005,None,1143.8844404930005,None,g,1,0.7816520940004921,1145.4223792840003,None,1145.4223792840003,None,1145.4223792840003,None,1146.2698947850004,None,1146.2698947850004,None,1146.2698947850004,None,1146.2698947850004,None,,,,,,,,,,,,,,,,,,,,,,,,,,,,,,,,,,,,,,,,,,,,001,7,2020_Jan_28_1031,spring_faces,3.1.5,60.00162316398872,
condition files/Stage0c_1.xlsx,0c,theta,alpha,h,"['h', 'g']","['Chess', 'Go']","[-0.15, 0.5]","[0.15, 0.5]",1,1,0,12,12,12,0,0,0,0,,,,,,,,,,,,,,,,,,,,,,,,,,,,,,,,,,,,,,,,,,,,,,,,,,,,,,,,,,,,,,,1148.2682407840002,None,1148.2682407840002,None,1148.2682407840002,None,h,1,1.5230973929992615,1149.7849565320003,None,1149.7849565320003,None,1149.7849565320003,None,1151.367846219,None,1151.367846219,None,1151.367846219,None,1151.367846219,None,,,,,,,,,,,,,,,,,,,,,,,,,,,,,,,,,,,,,,,,,,,,001,7,2020_Jan_28_1031,spring_faces,3.1.5,60.00162316398872,
condition files/Stage0c_1.xlsx,0c,beta,theta,g,"['h', 'g']","['Chess', 'Go']","[-0.15, 0.5]","[0.15, 0.5]",1,1,0,12,12,12,0,1,1,2,,,,,,,,,,,,,,,,,,,,,,,,,,,,,,,,,,,,,,,,,,,,,,,,,,,,,,,,,,,,,,,1153.3346445590005,None,1153.3346445590005,None,1153.3346445590005,None,g,1,1.2721479539995926,1154.8678974290005,None,1154.8678974290005,None,1154.8678974290005,None,1156.2016820040008,None,1156.2016820040008,None,1156.2016820040008,None,1156.2016820040008,None,,,,,,,,,,,,,,,,,,,,,,,,,,,,,,,,,,,,,,,,,,,,001,7,2020_Jan_28_1031,spring_faces,3.1.5,60.00162316398872,
condition files/Stage0c_1.xlsx,0c,alpha,phi,h,"['h', 'g']","['Chess', 'Go']","[-0.15, 0.5]","[0.15, 0.5]",1,1,0,12,12,12,0,2,2,1,,,,,,,,,,,,,,,,,,,,,,,,,,,,,,,,,,,,,,,,,,,,,,,,,,,,,,,,,,,,,,,1158.1679823090008,None,1158.1679823090008,None,1158.1679823090008,None,h,1,1.1409551879996798,1159.7511607820006,None,1159.7511607820006,None,1159.7511607820006,None,1160.9513549860003,None,1160.9513549860003,None,1160.9513549860003,None,1160.9513549860003,None,,,,,,,,,,,,,,,,,,,,,,,,,,,,,,,,,,,,,,,,,,,,001,7,2020_Jan_28_1031,spring_faces,3.1.5,60.00162316398872,
condition files/Stage0c_1.xlsx,0c,phi,beta,g,"['h', 'g']","['Chess', 'Go']","[-0.15, 0.5]","[0.15, 0.5]",1,1,0,12,12,12,0,3,3,3,,,,,,,,,,,,,,,,,,,,,,,,,,,,,,,,,,,,,,,,,,,,,,,,,,,,,,,,,,,,,,,1162.9177862340002,None,1162.9177862340002,None,1162.9177862340002,None,g,1,1.176317941999514,1164.4517197720006,None,1164.4517197720006,None,1164.4517197720006,None,1165.6848074040008,None,1165.6848074040008,None,1165.6848074040008,None,1165.6848074040008,None,,,,,,,,,,,,,,,,,,,,,,,,,,,,,,,,,,,,,,,,,,,,001,7,2020_Jan_28_1031,spring_faces,3.1.5,60.00162316398872,
condition files/Stage0c_2.xlsx,0c,phi,alpha,h,"['h', 'g']","['Chess', 'Go']","[-0.15, 0.5]","[0.15, 0.5]",1,1,0,13,13,13,0,0,0,1,,,,,,,,,,,,,,,,,,,,,,,,,,,,,,,,,,,,,,,,,,,,,,,,,,,,,,,,,,,,,,,1167.6679147260002,None,1167.6679147260002,None,1167.6679147260002,None,h,1,0.5383467709998513,1169.2017011260004,None,1169.2017011260004,None,1169.2017011260004,None,1169.8013722660007,None,1169.8013722660007,None,1169.8013722660007,None,1169.8013722660007,None,,,,,,,,,,,,,,,,,,,,,,,,,,,,,,,,,,,,,,,,,,,,001,7,2020_Jan_28_1031,spring_faces,3.1.5,60.00162316398872,
condition files/Stage0c_2.xlsx,0c,alpha,theta,h,"['h', 'g']","['Chess', 'Go']","[-0.15, 0.5]","[0.15, 0.5]",1,1,0,13,13,13,0,1,1,0,,,,,,,,,,,,,,,,,,,,,,,,,,,,,,,,,,,,,,,,,,,,,,,,,,,,,,,,,,,,,,,1171.7682890960004,None,1171.7682890960004,None,1171.7682890960004,None,h,1,1.1423910979992797,1173.3017171520005,None,1173.3017171520005,None,1173.3017171520005,None,1174.4852200510004,None,1174.4852200510004,None,1174.4852200510004,None,1174.4852200510004,None,,,,,,,,,,,,,,,,,,,,,,,,,,,,,,,,,,,,,,,,,,,,001,7,2020_Jan_28_1031,spring_faces,3.1.5,60.00162316398872,
condition files/Stage0c_2.xlsx,0c,beta,phi,g,"['h', 'g']","['Chess', 'Go']","[-0.15, 0.5]","[0.15, 0.5]",1,1,0,13,13,13,0,2,2,3,,,,,,,,,,,,,,,,,,,,,,,,,,,,,,,,,,,,,,,,,,,,,,,,,,,,,,,,,,,,,,,1176.4678961990003,None,1176.4678961990003,None,1176.4678961990003,None,g,1,0.7944250230002581,1178.0015980570006,None,1178.0015980570006,None,1178.0015980570006,None,1178.8515356350008,None,1178.8515356350008,None,1178.8515356350008,None,1178.8515356350008,None,,,,,,,,,,,,,,,,,,,,,,,,,,,,,,,,,,,,,,,,,,,,001,7,2020_Jan_28_1031,spring_faces,3.1.5,60.00162316398872,
condition files/Stage0c_2.xlsx,0c,theta,beta,g,"['h', 'g']","['Chess', 'Go']","[-0.15, 0.5]","[0.15, 0.5]",1,1,0,13,13,13,0,3,3,2,,,,,,,,,,,,,,,,,,,,,,,,,,,,,,,,,,,,,,,,,,,,,,,,,,,,,,,,,,,,,,,1180.818027028,None,1180.818027028,None,1180.818027028,None,g,1,1.068283466000139,1182.3517517760001,None,1182.3517517760001,None,1182.3517517760001,None,1183.4690618220002,None,1183.4690618220002,None,1183.4690618220002,None,1183.4690618220002,None,,,,,,,,,,,,,,,,,,,,,,,,,,,,,,,,,,,,,,,,,,,,001,7,2020_Jan_28_1031,spring_faces,3.1.5,60.00162316398872,
condition files/Stage0c_1.xlsx,0c,theta,alpha,h,"['h', 'g']","['Chess', 'Go']","[-0.15, 0.5]","[0.15, 0.5]",1,1,0,14,14,14,0,0,0,0,,,,,,,,,,,,,,,,,,,,,,,,,,,,,,,,,,,,,,,,,,,,,,,,,,,,,,,,,,,,,,,1185.4681390810001,None,1185.4681390810001,None,1185.4681390810001,None,h,1,0.7545094689994585,1187.0015502410006,None,1187.0015502410006,None,1187.0015502410006,None,1187.8174825620008,None,1187.8174825620008,None,1187.8174825620008,None,1187.8174825620008,None,,,,,,,,,,,,,,,,,,,,,,,,,,,,,,,,,,,,,,,,,,,,001,7,2020_Jan_28_1031,spring_faces,3.1.5,60.00162316398872,
condition files/Stage0c_1.xlsx,0c,phi,beta,g,"['h', 'g']","['Chess', 'Go']","[-0.15, 0.5]","[0.15, 0.5]",1,1,0,14,14,14,0,1,1,3,,,,,,,,,,,,,,,,,,,,,,,,,,,,,,,,,,,,,,,,,,,,,,,,,,,,,,,,,,,,,,,1189.7845838020003,None,1189.7845838020003,None,1189.7845838020003,None,g,1,0.9022148800004288,1191.3178240350007,None,1191.3178240350007,None,1191.3178240350007,None,1192.285003719,None,1192.285003719,None,1192.285003719,None,1192.285003719,None,,,,,,,,,,,,,,,,,,,,,,,,,,,,,,,,,,,,,,,,,,,,001,7,2020_Jan_28_1031,spring_faces,3.1.5,60.00162316398872,
condition files/Stage0c_1.xlsx,0c,alpha,phi,h,"['h', 'g']","['Chess', 'Go']","[-0.15, 0.5]","[0.15, 0.5]",1,1,0,14,14,14,0,2,2,1,,,,,,,,,,,,,,,,,,,,,,,,,,,,,,,,,,,,,,,,,,,,,,,,,,,,,,,,,,,,,,,1194.2515744930006,None,1194.2515744930006,None,1194.2515744930006,None,h,1,0.9955464920003578,1195.7844450130005,None,1195.7844450130005,None,1195.7844450130005,None,1196.8340054850005,None,1196.8340054850005,None,1196.8340054850005,None,1196.8340054850005,None,,,,,,,,,,,,,,,,,,,,,,,,,,,,,,,,,,,,,,,,,,,,001,7,2020_Jan_28_1031,spring_faces,3.1.5,60.00162316398872,
condition files/Stage0c_1.xlsx,0c,beta,theta,g,"['h', 'g']","['Chess', 'Go']","[-0.15, 0.5]","[0.15, 0.5]",1,1,0,14,14,14,0,3,3,2,,,,,,,,,,,,,,,,,,,,,,,,,,,,,,,,,,,,,,,,,,,,,,,,,,,,,,,,,,,,,,,1198.8014483800007,None,1198.8014483800007,None,1198.8014483800007,None,g,1,1.3891382809997594,1200.3349087410006,None,1200.3349087410006,None,1200.3349087410006,None,1201.7848831480005,None,1201.7848831480005,None,1201.7848831480005,None,1201.7848831480005,None,,,,,,,,,,,,,,,,,,,,,,,,,,,,,,,,,,,,,,,,,,,,001,7,2020_Jan_28_1031,spring_faces,3.1.5,60.00162316398872,
condition files/Stage0c_2.xlsx,0c,phi,alpha,h,"['h', 'g']","['Chess', 'Go']","[-0.15, 0.5]","[0.15, 0.5]",1,1,0,15,15,15,0,0,0,1,,,,,,,,,,,,,,,,,,,,,,,,,,,,,,,,,,,,,,,,,,,,,,,,,,,,,,,,,,,,,,,1203.7679509270001,None,1203.7679509270001,None,1203.7679509270001,None,h,1,0.5827520130005723,1205.3012917120004,None,1205.3012917120004,None,1205.3012917120004,None,1205.935016155,None,1205.935016155,None,1205.935016155,None,1205.935016155,None,,,,,,,,,,,,,,,,,,,,,,,,,,,,,,,,,,,,,,,,,,,,001,7,2020_Jan_28_1031,spring_faces,3.1.5,60.00162316398872,
condition files/Stage0c_2.xlsx,0c,beta,phi,g,"['h', 'g']","['Chess', 'Go']","[-0.15, 0.5]","[0.15, 0.5]",1,1,0,15,15,15,0,1,1,3,,,,,,,,,,,,,,,,,,,,,,,,,,,,,,,,,,,,,,,,,,,,,,,,,,,,,,,,,,,,,,,1207.9010983380003,None,1207.9010983380003,None,1207.9010983380003,None,g,1,0.897057293999751,1209.4349501340002,None,1209.4349501340002,None,1209.4349501340002,None,1210.385112764,None,1210.385112764,None,1210.385112764,None,1210.385112764,None,,,,,,,,,,,,,,,,,,,,,,,,,,,,,,,,,,,,,,,,,,,,001,7,2020_Jan_28_1031,spring_faces,3.1.5,60.00162316398872,
condition files/Stage0c_2.xlsx,0c,theta,beta,g,"['h', 'g']","['Chess', 'Go']","[-0.15, 0.5]","[0.15, 0.5]",1,1,0,15,15,15,0,2,2,2,,,,,,,,,,,,,,,,,,,,,,,,,,,,,,,,,,,,,,,,,,,,,,,,,,,,,,,,,,,,,,,1212.3515366290003,None,1212.3515366290003,None,1212.3515366290003,None,g,1,0.9100084849997074,1213.8860263570004,None,1213.8860263570004,None,1213.8860263570004,None,1214.8510127850004,None,1214.8510127850004,None,1214.8510127850004,None,1214.8510127850004,None,,,,,,,,,,,,,,,,,,,,,,,,,,,,,,,,,,,,,,,,,,,,001,7,2020_Jan_28_1031,spring_faces,3.1.5,60.00162316398872,
condition files/Stage0c_2.xlsx,0c,alpha,theta,h,"['h', 'g']","['Chess', 'Go']","[-0.15, 0.5]","[0.15, 0.5]",1,1,0,15,15,15,0,3,3,0,,,,,,,,,,,,,,,,,,,,,,,,,,,,,,,,,,,,,,,,,,,,,,,,,,,,,,,,,,,,,,,1216.8179656420007,None,1216.8179656420007,None,1216.8179656420007,None,h,1,1.068608831000347,1218.35143195,None,1218.35143195,None,1218.35143195,None,1219.4849247240008,None,1219.4849247240008,None,1219.4849247240008,None,1219.4849247240008,None,,,,,,,,,,,,,,,,,,,,,,,,,,,,,,,,,,,,,,,,,,,,001,7,2020_Jan_28_1031,spring_faces,3.1.5,60.00162316398872,
condition files/Stage0c_1.xlsx,0c,phi,beta,g,"['h', 'g']","['Chess', 'Go']","[-0.15, 0.5]","[0.15, 0.5]",1,1,0,16,16,16,0,0,0,3,,,,,,,,,,,,,,,,,,,,,,,,,,,,,,,,,,,,,,,,,,,,,,,,,,,,,,,,,,,,,,,1221.4676676000008,None,1221.4676676000008,None,1221.4676676000008,None,g,1,0.8025061759999517,1223.001546861,None,1223.001546861,None,1223.001546861,None,1223.8676614790002,None,1223.8676614790002,None,1223.8676614790002,None,1223.8676614790002,None,,,,,,,,,,,,,,,,,,,,,,,,,,,,,,,,,,,,,,,,,,,,001,7,2020_Jan_28_1031,spring_faces,3.1.5,60.00162316398872,
condition files/Stage0c_1.xlsx,0c,theta,alpha,h,"['h', 'g']","['Chess', 'Go']","[-0.15, 0.5]","[0.15, 0.5]",1,1,0,16,16,16,0,1,1,0,,,,,,,,,,,,,,,,,,,,,,,,,,,,,,,,,,,,,,,,,,,,,,,,,,,,,,,,,,,,,,,1225.8346845700007,None,1225.8346845700007,None,1225.8346845700007,None,h,1,0.6759855110003627,1227.368111359,None,1227.368111359,None,1227.368111359,None,1228.101183142,None,1228.101183142,None,1228.101183142,None,1228.101183142,None,,,,,,,,,,,,,,,,,,,,,,,,,,,,,,,,,,,,,,,,,,,,001,7,2020_Jan_28_1031,spring_faces,3.1.5,60.00162316398872,
condition files/Stage0c_1.xlsx,0c,beta,theta,g,"['h', 'g']","['Chess', 'Go']","[-0.15, 0.5]","[0.15, 0.5]",1,1,0,16,16,16,0,2,2,2,,,,,,,,,,,,,,,,,,,,,,,,,,,,,,,,,,,,,,,,,,,,,,,,,,,,,,,,,,,,,,,1230.0681503580008,None,1230.0681503580008,None,1230.0681503580008,None,g,1,0.8582794220001233,1231.6018277270005,None,1231.6018277270005,None,1231.6018277270005,None,1232.5182063800003,None,1232.5182063800003,None,1232.5182063800003,None,1232.5182063800003,None,,,,,,,,,,,,,,,,,,,,,,,,,,,,,,,,,,,,,,,,,,,,001,7,2020_Jan_28_1031,spring_faces,3.1.5,60.00162316398872,
condition files/Stage0c_1.xlsx,0c,alpha,phi,h,"['h', 'g']","['Chess', 'Go']","[-0.15, 0.5]","[0.15, 0.5]",1,1,0,16,16,16,0,3,3,1,,,,,,,,,,,,,,,,,,,,,,,,,,,,,,,,,,,,,,,,,,,,,,,,,,,,,,,,,,,,,,,1234.484649858,None,1234.484649858,None,1234.484649858,None,h,1,0.826036462999582,1236.018078989,None,1236.018078989,None,1236.018078989,None,1236.9026861580005,None,1236.9026861580005,None,1236.9026861580005,None,1236.9026861580005,None,,,,,,,,,,,,,,,,,,,,,,,,,,,,,,,,,,,,,,,,,,,,001,7,2020_Jan_28_1031,spring_faces,3.1.5,60.00162316398872,
condition files/Stage0c_2.xlsx,0c,alpha,theta,h,"['h', 'g']","['Chess', 'Go']","[-0.15, 0.5]","[0.15, 0.5]",1,1,0,17,17,17,0,0,0,0,,,,,,,,,,,,,,,,,,,,,,,,,,,,,,,,,,,,,,,,,,,,,,,,,,,,,,,,,,,,,,,1238.8847478140005,None,1238.8847478140005,None,1238.8847478140005,None,h,1,0.9541283390008175,1240.4179163550007,None,1240.4179163550007,None,1240.4179163550007,None,1241.4200150140005,None,1241.4200150140005,None,1241.4200150140005,None,1241.4200150140005,None,,,,,,,,,,,,,,,,,,,,,,,,,,,,,,,,,,,,,,,,,,,,001,7,2020_Jan_28_1031,spring_faces,3.1.5,60.00162316398872,
condition files/Stage0c_2.xlsx,0c,phi,alpha,h,"['h', 'g']","['Chess', 'Go']","[-0.15, 0.5]","[0.15, 0.5]",1,1,0,17,17,17,0,1,1,1,,,,,,,,,,,,,,,,,,,,,,,,,,,,,,,,,,,,,,,,,,,,,,,,,,,,,,,,,,,,,,,1243.4013816800007,None,1243.4013816800007,None,1243.4013816800007,None,h,1,0.7417273099999875,1244.9343791640003,None,1244.9343791640003,None,1244.9343791640003,None,1245.7180835500003,None,1245.7180835500003,None,1245.7180835500003,None,1245.7180835500003,None,,,,,,,,,,,,,,,,,,,,,,,,,,,,,,,,,,,,,,,,,,,,001,7,2020_Jan_28_1031,spring_faces,3.1.5,60.00162316398872,
condition files/Stage0c_2.xlsx,0c,beta,phi,g,"['h', 'g']","['Chess', 'Go']","[-0.15, 0.5]","[0.15, 0.5]",1,1,0,17,17,17,0,2,2,3,,,,,,,,,,,,,,,,,,,,,,,,,,,,,,,,,,,,,,,,,,,,,,,,,,,,,,,,,,,,,,,1247.7014020190009,None,1247.7014020190009,None,1247.7014020190009,None,g,1,0.8898076460000084,1249.2342379070005,None,1249.2342379070005,None,1249.2342379070005,None,1250.1849569120004,None,1250.1849569120004,None,1250.1849569120004,None,1250.1849569120004,None,,,,,,,,,,,,,,,,,,,,,,,,,,,,,,,,,,,,,,,,,,,,001,7,2020_Jan_28_1031,spring_faces,3.1.5,60.00162316398872,
condition files/Stage0c_2.xlsx,0c,theta,beta,g,"['h', 'g']","['Chess', 'Go']","[-0.15, 0.5]","[0.15, 0.5]",1,1,0,17,17,17,0,3,3,2,,,,,,,,,,,,,,,,,,,,,,,,,,,,,,,,,,,,,,,,,,,,,,,,,,,,,,,,,,,,,,,1252.1513289820005,None,1252.1513289820005,None,1252.1513289820005,None,g,1,0.7597603320000417,1253.6843435460005,None,1253.6843435460005,None,1253.6843435460005,None,1254.4853611060007,None,1254.4853611060007,None,1254.4853611060007,None,1254.4853611060007,None,,,,,,,,,,,,,,,,,,,,,,,,,,,,,,,,,,,,,,,,,,,,001,7,2020_Jan_28_1031,spring_faces,3.1.5,60.00162316398872,
,,,,,,,,,,,,,,,,,,,,,,,,,,,,,,,,,,,,,,,,,,,,,,,,,,,,,,,,,,,,,,,,,,,,,,,,,,,,,,,,,,,,,,,,,,,,,,,,,,,,,,,,1256.4850253330005,None,space,3.3432930590006436,1261.4848159340008,None,,,,,,,,,,,,,,,,,,,,,,,,,,,,,,,,,,,,,,001,7,2020_Jan_28_1031,spring_faces,3.1.5,60.00162316398872,
condition files/Stage1_1.xlsx,,T4,B3,m,"['c', 'm']","['Clue', 'Monopoly']","[-0.15, 0.5]","[0.15, 0.5]",1,1,,,,,,,,,0,0,0,0,0,0,0,6,,,,,,,,,,,,,,,,,,,,,,,,,,,,,,,,,,,,,,,,,,,,,,,,,,,,,,,1264.9352468240004,None,1264.9352468240004,None,1264.9352468240004,None,m,1,1.0800456479992135,1266.4682403220004,None,1266.4682403220004,None,1266.4682403220004,None,1267.6178853030005,None,1267.6178853030005,None,1267.6178853030005,None,1267.6178853030005,None,,,,,,,1261.4848159340008,None,,,,,,,,,,,,,,,,,,,,,,,,,,,,,,,,,,,,001,7,2020_Jan_28_1031,spring_faces,3.1.5,60.00162316398872,
condition files/Stage1_1.xlsx,,B4,T4,m,"['c', 'm']","['Clue', 'Monopoly']","[-0.15, 0.5]","[0.15, 0.5]",1,1,,,,,,,,,0,0,0,0,0,1,1,7,,,,,,,,,,,,,,,,,,,,,,,,,,,,,,,,,,,,,,,,,,,,,,,,,,,,,,,1269.5680395230002,None,1269.5680395230002,None,1269.5680395230002,None,c,0,0.9258400890003031,1271.1022128970008,None,1271.1022128970008,None,1271.1022128970008,None,1272.0843751750008,None,1272.0843751750008,None,1272.0843751750008,None,1272.0843751750008,None,,,,,,,,,,,,,,,,,,,,,,,,,,,,,,,,,,,,,,,,,,,,001,7,2020_Jan_28_1031,spring_faces,3.1.5,60.00162316398872,
condition files/Stage1_1.xlsx,,B3,T3,c,"['c', 'm']","['Clue', 'Monopoly']","[-0.15, 0.5]","[0.15, 0.5]",1,1,,,,,,,,,0,0,0,0,0,2,2,4,,,,,,,,,,,,,,,,,,,,,,,,,,,,,,,,,,,,,,,,,,,,,,,,,,,,,,,1274.0513273210008,None,1274.0513273210008,None,1274.0513273210008,None,c,1,1.657841582000401,1275.618270422,None,1275.618270422,None,1275.618270422,None,1277.3352398380002,None,1277.3352398380002,None,1277.3352398380002,None,1277.3352398380002,None,,,,,,,,,,,,,,,,,,,,,,,,,,,,,,,,,,,,,,,,,,,,001,7,2020_Jan_28_1031,spring_faces,3.1.5,60.00162316398872,
condition files/Stage1_1.xlsx,,B2,T1,m,"['c', 'm']","['Clue', 'Monopoly']","[-0.15, 0.5]","[0.15, 0.5]",1,1,,,,,,,,,0,0,0,0,0,3,3,2,,,,,,,,,,,,,,,,,,,,,,,,,,,,,,,,,,,,,,,,,,,,,,,,,,,,,,,1279.3014006520007,None,1279.3014006520007,None,1279.3014006520007,None,m,1,1.352157196999542,1280.851875409,None,1280.851875409,None,1280.851875409,None,1282.2695902590003,None,1282.2695902590003,None,1282.2695902590003,None,1282.2695902590003,None,,,,,,,,,,,,,,,,,,,,,,,,,,,,,,,,,,,,,,,,,,,,001,7,2020_Jan_28_1031,spring_faces,3.1.5,60.00162316398872,
condition files/Stage1_1.xlsx,,T1,B1,c,"['c', 'm']","['Clue', 'Monopoly']","[-0.15, 0.5]","[0.15, 0.5]",1,1,,,,,,,,,0,0,0,0,0,4,4,0,,,,,,,,,,,,,,,,,,,,,,,,,,,,,,,,,,,,,,,,,,,,,,,,,,,,,,,1284.2347380280007,None,1284.2347380280007,None,1284.2347380280007,None,m,0,0.9778546520001328,1285.8181707930007,None,1285.8181707930007,None,1285.8181707930007,None,1286.8535043110005,None,1286.8535043110005,None,1286.8535043110005,None,1286.8535043110005,None,,,,,,,,,,,,,,,,,,,,,,,,,,,,,,,,,,,,,,,,,,,,001,7,2020_Jan_28_1031,spring_faces,3.1.5,60.00162316398872,
condition files/Stage1_1.xlsx,,T2,B2,m,"['c', 'm']","['Clue', 'Monopoly']","[-0.15, 0.5]","[0.15, 0.5]",1,1,,,,,,,,,0,0,0,0,0,5,5,3,,,,,,,,,,,,,,,,,,,,,,,,,,,,,,,,,,,,,,,,,,,,,,,,,,,,,,,1288.8179784580007,None,1288.8179784580007,None,1288.8179784580007,None,c,0,2.9078479749996404,1290.3682715510004,None,1290.3682715510004,None,1290.3682715510004,None,1293.334460909,None,1293.334460909,None,1293.334460909,None,1293.334460909,None,,,,,,,,,,,,,,,,,,,,,,,,,,,,,,,,,,,,,,,,,,,,001,7,2020_Jan_28_1031,spring_faces,3.1.5,60.00162316398872,
condition files/Stage1_1.xlsx,,B1,T2,c,"['c', 'm']","['Clue', 'Monopoly']","[-0.15, 0.5]","[0.15, 0.5]",1,1,,,,,,,,,0,0,0,0,0,6,6,1,,,,,,,,,,,,,,,,,,,,,,,,,,,,,,,,,,,,,,,,,,,,,,,,,,,,,,,1295.3015141810001,None,1295.3015141810001,None,1295.3015141810001,None,c,1,1.4468382180002664,1296.8372127290004,None,1296.8372127290004,None,1296.8372127290004,None,1298.3349514020001,None,1298.3349514020001,None,1298.3349514020001,None,1298.3349514020001,None,,,,,,,,,,,,,,,,,,,,,,,,,,,,,,,,,,,,,,,,,,,,001,7,2020_Jan_28_1031,spring_faces,3.1.5,60.00162316398872,
condition files/Stage1_1.xlsx,,T3,B4,c,"['c', 'm']","['Clue', 'Monopoly']","[-0.15, 0.5]","[0.15, 0.5]",1,1,,,,,,,,,0,0,0,0,0,7,7,5,,,,,,,,,,,,,,,,,,,,,,,,,,,,,,,,,,,,,,,,,,,,,,,,,,,,,,,1300.3008686210005,None,1300.3008686210005,None,1300.3008686210005,None,c,1,1.2154835500004992,1301.8365230480003,None,1301.8365230480003,None,1301.8365230480003,None,1303.1182459870006,None,1303.1182459870006,None,1303.1182459870006,None,1303.1182459870006,None,,,,,,,,,,,,,,,,,,,,,,,,,,,,,,,,,,,,,,,,,,,,001,7,2020_Jan_28_1031,spring_faces,3.1.5,60.00162316398872,
condition files/Stage1_2.xlsx,,B2,T2,m,"['c', 'm']","['Clue', 'Monopoly']","[-0.15, 0.5]","[0.15, 0.5]",1,1,,,,,,,,,0,1,1,1,0,0,0,3,,,,,,,,,,,,,,,,,,,,,,,,,,,,,,,,,,,,,,,,,,,,,,,,,,,,,,,1305.1028659230005,None,1305.1028659230005,None,1305.1028659230005,None,m,1,1.8070009900002333,1306.6371117560002,None,1306.6371117560002,None,1306.6371117560002,None,1308.5034710650007,None,1308.5034710650007,None,1308.5034710650007,None,1308.5034710650007,None,,,,,,,,,,,,,,,,,,,,,,,,,,,,,,,,,,,,,,,,,,,,001,7,2020_Jan_28_1031,spring_faces,3.1.5,60.00162316398872,
condition files/Stage1_2.xlsx,,B3,T4,m,"['c', 'm']","['Clue', 'Monopoly']","[-0.15, 0.5]","[0.15, 0.5]",1,1,,,,,,,,,0,1,1,1,0,1,1,6,,,,,,,,,,,,,,,,,,,,,,,,,,,,,,,,,,,,,,,,,,,,,,,,,,,,,,,1310.468109464,None,1310.468109464,None,1310.468109464,None,m,1,1.3861658559999341,1312.0019005090007,None,1312.0019005090007,None,1312.0019005090007,None,1313.451179015,None,1313.451179015,None,1313.451179015,None,1313.451179015,None,,,,,,,,,,,,,,,,,,,,,,,,,,,,,,,,,,,,,,,,,,,,001,7,2020_Jan_28_1031,spring_faces,3.1.5,60.00162316398872,
condition files/Stage1_2.xlsx,,T1,B2,m,"['c', 'm']","['Clue', 'Monopoly']","[-0.15, 0.5]","[0.15, 0.5]",1,1,,,,,,,,,0,1,1,1,0,2,2,2,,,,,,,,,,,,,,,,,,,,,,,,,,,,,,,,,,,,,,,,,,,,,,,,,,,,,,,1315.4179272030005,None,1315.4179272030005,None,1315.4179272030005,None,m,1,1.1559962649998852,1316.9521230460005,None,1316.9521230460005,None,1316.9521230460005,None,1318.1681492320004,None,1318.1681492320004,None,1318.1681492320004,None,1318.1681492320004,None,,,,,,,,,,,,,,,,,,,,,,,,,,,,,,,,,,,,,,,,,,,,001,7,2020_Jan_28_1031,spring_faces,3.1.5,60.00162316398872,
condition files/Stage1_2.xlsx,,B4,T3,c,"['c', 'm']","['Clue', 'Monopoly']","[-0.15, 0.5]","[0.15, 0.5]",1,1,,,,,,,,,0,1,1,1,0,3,3,5,,,,,,,,,,,,,,,,,,,,,,,,,,,,,,,,,,,,,,,,,,,,,,,,,,,,,,,1320.1346615770008,None,1320.1346615770008,None,1320.1346615770008,None,c,1,1.095616233000328,1321.6684435280004,None,1321.6684435280004,None,1321.6684435280004,None,1322.8349732810002,None,1322.8349732810002,None,1322.8349732810002,None,1322.8349732810002,None,,,,,,,,,,,,,,,,,,,,,,,,,,,,,,,,,,,,,,,,,,,,001,7,2020_Jan_28_1031,spring_faces,3.1.5,60.00162316398872,
condition files/Stage1_2.xlsx,,T3,B3,c,"['c', 'm']","['Clue', 'Monopoly']","[-0.15, 0.5]","[0.15, 0.5]",1,1,,,,,,,,,0,1,1,1,0,4,4,4,,,,,,,,,,,,,,,,,,,,,,,,,,,,,,,,,,,,,,,,,,,,,,,,,,,,,,,1324.7843622440005,None,1324.7843622440005,None,1324.7843622440005,None,c,1,2.237396444999831,1326.3346521080002,None,1326.3346521080002,None,1326.3346521080002,None,1328.6347623870006,None,1328.6347623870006,None,1328.6347623870006,None,1328.6347623870006,None,,,,,,,,,,,,,,,,,,,,,,,,,,,,,,,,,,,,,,,,,,,,001,7,2020_Jan_28_1031,spring_faces,3.1.5,60.00162316398872,
condition files/Stage1_2.xlsx,,T4,B4,m,"['c', 'm']","['Clue', 'Monopoly']","[-0.15, 0.5]","[0.15, 0.5]",1,1,,,,,,,,,0,1,1,1,0,5,5,7,,,,,,,,,,,,,,,,,,,,,,,,,,,,,,,,,,,,,,,,,,,,,,,,,,,,,,,1330.6013750210004,None,1330.6013750210004,None,1330.6013750210004,None,m,1,2.277649151999867,1332.1344795150007,None,1332.1344795150007,None,1332.1344795150007,None,1334.4848582930008,None,1334.4848582930008,None,1334.4848582930008,None,1334.4848582930008,None,,,,,,,,,,,,,,,,,,,,,,,,,,,,,,,,,,,,,,,,,,,,001,7,2020_Jan_28_1031,spring_faces,3.1.5,60.00162316398872,
condition files/Stage1_2.xlsx,,B1,T1,c,"['c', 'm']","['Clue', 'Monopoly']","[-0.15, 0.5]","[0.15, 0.5]",1,1,,,,,,,,,0,1,1,1,0,6,6,0,,,,,,,,,,,,,,,,,,,,,,,,,,,,,,,,,,,,,,,,,,,,,,,,,,,,,,,1336.4347387280004,None,1336.4347387280004,None,1336.4347387280004,None,m,0,1.4190528029994312,1337.9849857030003,None,1337.9849857030003,None,1337.9849857030003,None,1339.4679314450004,None,1339.4679314450004,None,1339.4679314450004,None,1339.4679314450004,None,,,,,,,,,,,,,,,,,,,,,,,,,,,,,,,,,,,,,,,,,,,,001,7,2020_Jan_28_1031,spring_faces,3.1.5,60.00162316398872,
condition files/Stage1_2.xlsx,,T2,B1,c,"['c', 'm']","['Clue', 'Monopoly']","[-0.15, 0.5]","[0.15, 0.5]",1,1,,,,,,,,,0,1,1,1,0,7,7,1,,,,,,,,,,,,,,,,,,,,,,,,,,,,,,,,,,,,,,,,,,,,,,,,,,,,,,,1341.4344460990005,None,1341.4344460990005,None,1341.4344460990005,None,m,0,1.3937653359998876,1342.970291345,None,1342.970291345,None,1342.970291345,None,1344.4182303320003,None,1344.4182303320003,None,1344.4182303320003,None,1344.4182303320003,None,,,,,,,,,,,,,,,,,,,,,,,,,,,,,,,,,,,,,,,,,,,,001,7,2020_Jan_28_1031,spring_faces,3.1.5,60.00162316398872,
condition files/Stage1_1.xlsx,,T1,B1,c,"['c', 'm']","['Clue', 'Monopoly']","[-0.15, 0.5]","[0.15, 0.5]",1,1,,,,,,,,,0,2,2,2,0,0,0,0,,,,,,,,,,,,,,,,,,,,,,,,,,,,,,,,,,,,,,,,,,,,,,,,,,,,,,,1346.4017678770006,None,1346.4017678770006,None,1346.4017678770006,None,c,1,2.5090403040003366,1347.9510846820003,None,1347.9510846820003,None,1347.9510846820003,None,1350.5179690910009,None,1350.5179690910009,None,1350.5179690910009,None,1350.5179690910009,None,,,,,,,,,,,,,,,,,,,,,,,,,,,,,,,,,,,,,,,,,,,,001,7,2020_Jan_28_1031,spring_faces,3.1.5,60.00162316398872,
condition files/Stage1_1.xlsx,,B4,T4,m,"['c', 'm']","['Clue', 'Monopoly']","[-0.15, 0.5]","[0.15, 0.5]",1,1,,,,,,,,,0,2,2,2,0,1,1,7,,,,,,,,,,,,,,,,,,,,,,,,,,,,,,,,,,,,,,,,,,,,,,,,,,,,,,,1352.4846176640012,None,1352.4846176640012,None,1352.4846176640012,None,c,0,1.4498001209994982,1354.0342399829997,None,1354.0342399829997,None,1354.0342399829997,None,1355.537626788001,None,1355.537626788001,None,1355.537626788001,None,1355.537626788001,None,,,,,,,,,,,,,,,,,,,,,,,,,,,,,,,,,,,,,,,,,,,,001,7,2020_Jan_28_1031,spring_faces,3.1.5,60.00162316398872,
condition files/Stage1_1.xlsx,,B1,T2,c,"['c', 'm']","['Clue', 'Monopoly']","[-0.15, 0.5]","[0.15, 0.5]",1,1,,,,,,,,,0,2,2,2,0,2,2,1,,,,,,,,,,,,,,,,,,,,,,,,,,,,,,,,,,,,,,,,,,,,,,,,,,,,,,,1357.5008113490012,None,1357.5008113490012,None,1357.5008113490012,None,m,0,1.042189210998913,1359.0339311609996,None,1359.0339311609996,None,1359.0339311609996,None,1360.1369416259995,None,1360.1369416259995,None,1360.1369416259995,None,1360.1369416259995,None,,,,,,,,,,,,,,,,,,,,,,,,,,,,,,,,,,,,,,,,,,,,001,7,2020_Jan_28_1031,spring_faces,3.1.5,60.00162316398872,
condition files/Stage1_1.xlsx,,T4,B3,m,"['c', 'm']","['Clue', 'Monopoly']","[-0.15, 0.5]","[0.15, 0.5]",1,1,,,,,,,,,0,2,2,2,0,3,3,6,,,,,,,,,,,,,,,,,,,,,,,,,,,,,,,,,,,,,,,,,,,,,,,,,,,,,,,1362.1010774270007,None,1362.1010774270007,None,1362.1010774270007,None,m,1,2.025590233000912,1363.6345380690009,None,1363.6345380690009,None,1363.6345380690009,None,1365.7184465600012,None,1365.7184465600012,None,1365.7184465600012,None,1365.7184465600012,None,,,,,,,,,,,,,,,,,,,,,,,,,,,,,,,,,,,,,,,,,,,,001,7,2020_Jan_28_1031,spring_faces,3.1.5,60.00162316398872,
condition files/Stage1_1.xlsx,,B2,T1,m,"['c', 'm']","['Clue', 'Monopoly']","[-0.15, 0.5]","[0.15, 0.5]",1,1,,,,,,,,,0,2,2,2,0,4,4,2,,,,,,,,,,,,,,,,,,,,,,,,,,,,,,,,,,,,,,,,,,,,,,,,,,,,,,,1367.6843203609997,None,1367.6843203609997,None,1367.6843203609997,None,c,0,2.234033160000763,1369.2179873800005,None,1369.2179873800005,None,1369.2179873800005,None,1371.518177174,None,1371.518177174,None,1371.518177174,None,1371.518177174,None,,,,,,,,,,,,,,,,,,,,,,,,,,,,,,,,,,,,,,,,,,,,001,7,2020_Jan_28_1031,spring_faces,3.1.5,60.00162316398872,
condition files/Stage1_1.xlsx,,T3,B4,c,"['c', 'm']","['Clue', 'Monopoly']","[-0.15, 0.5]","[0.15, 0.5]",1,1,,,,,,,,,0,2,2,2,0,5,5,5,,,,,,,,,,,,,,,,,,,,,,,,,,,,,,,,,,,,,,,,,,,,,,,,,,,,,,,1373.4841396180009,None,1373.4841396180009,None,1373.4841396180009,None,c,1,1.0403758400007064,1375.019757950001,None,1375.019757950001,None,1375.019757950001,None,1376.1201166590008,None,1376.1201166590008,None,1376.1201166590008,None,1376.1201166590008,None,,,,,,,,,,,,,,,,,,,,,,,,,,,,,,,,,,,,,,,,,,,,001,7,2020_Jan_28_1031,spring_faces,3.1.5,60.00162316398872,
condition files/Stage1_1.xlsx,,T2,B2,m,"['c', 'm']","['Clue', 'Monopoly']","[-0.15, 0.5]","[0.15, 0.5]",1,1,,,,,,,,,0,2,2,2,0,6,6,3,,,,,,,,,,,,,,,,,,,,,,,,,,,,,,,,,,,,,,,,,,,,,,,,,,,,,,,1378.0849351440002,None,1378.0849351440002,None,1378.0849351440002,None,c,0,1.5131872849997308,1379.6188806740001,None,1379.6188806740001,None,1379.6188806740001,None,1381.2018163870007,None,1381.2018163870007,None,1381.2018163870007,None,1381.2018163870007,None,,,,,,,,,,,,,,,,,,,,,,,,,,,,,,,,,,,,,,,,,,,,001,7,2020_Jan_28_1031,spring_faces,3.1.5,60.00162316398872,
condition files/Stage1_1.xlsx,,B3,T3,c,"['c', 'm']","['Clue', 'Monopoly']","[-0.15, 0.5]","[0.15, 0.5]",1,1,,,,,,,,,0,2,2,2,0,7,7,4,,,,,,,,,,,,,,,,,,,,,,,,,,,,,,,,,,,,,,,,,,,,,,,,,,,,,,,1383.1513743919995,None,1383.1513743919995,None,1383.1513743919995,None,c,1,1.7266874580000149,1384.7014044470006,None,1384.7014044470006,None,1384.7014044470006,None,1386.5010230079997,None,1386.5010230079997,None,1386.5010230079997,None,1386.5010230079997,None,,,,,,,,,,,,,,,,,,,,,,,,,,,,,,,,,,,,,,,,,,,,001,7,2020_Jan_28_1031,spring_faces,3.1.5,60.00162316398872,
condition files/Stage1_2.xlsx,,T1,B2,m,"['c', 'm']","['Clue', 'Monopoly']","[-0.15, 0.5]","[0.15, 0.5]",1,1,,,,,,,,,0,3,3,3,0,0,0,2,,,,,,,,,,,,,,,,,,,,,,,,,,,,,,,,,,,,,,,,,,,,,,,,,,,,,,,1388.468023374001,None,1388.468023374001,None,1388.468023374001,None,m,1,1.4024768239996774,1390.0175764919995,None,1390.0175764919995,None,1390.0175764919995,None,1391.4872813909997,None,1391.4872813909997,None,1391.4872813909997,None,1391.4872813909997,None,,,,,,,,,,,,,,,,,,,,,,,,,,,,,,,,,,,,,,,,,,,,001,7,2020_Jan_28_1031,spring_faces,3.1.5,60.00162316398872,
condition files/Stage1_2.xlsx,,T3,B3,c,"['c', 'm']","['Clue', 'Monopoly']","[-0.15, 0.5]","[0.15, 0.5]",1,1,,,,,,,,,0,3,3,3,0,1,1,4,,,,,,,,,,,,,,,,,,,,,,,,,,,,,,,,,,,,,,,,,,,,,,,,,,,,,,,1393.4513985960011,None,1393.4513985960011,None,1393.4513985960011,None,c,1,2.962291820000246,1395.0017469160002,None,1395.0017469160002,None,1395.0017469160002,None,1398.0342177740013,None,1398.0342177740013,None,1398.0342177740013,None,1398.0342177740013,None,,,,,,,,,,,,,,,,,,,,,,,,,,,,,,,,,,,,,,,,,,,,001,7,2020_Jan_28_1031,spring_faces,3.1.5,60.00162316398872,
condition files/Stage1_2.xlsx,,T2,B1,c,"['c', 'm']","['Clue', 'Monopoly']","[-0.15, 0.5]","[0.15, 0.5]",1,1,,,,,,,,,0,3,3,3,0,2,2,1,,,,,,,,,,,,,,,,,,,,,,,,,,,,,,,,,,,,,,,,,,,,,,,,,,,,,,,1399.9847290940006,None,1399.9847290940006,None,1399.9847290940006,None,m,0,1.580974860000424,1401.5350520029997,None,1401.5350520029997,None,1401.5350520029997,None,1403.1681873480002,None,1403.1681873480002,None,1403.1681873480002,None,1403.1681873480002,None,,,,,,,,,,,,,,,,,,,,,,,,,,,,,,,,,,,,,,,,,,,,001,7,2020_Jan_28_1031,spring_faces,3.1.5,60.00162316398872,
condition files/Stage1_2.xlsx,,B3,T4,m,"['c', 'm']","['Clue', 'Monopoly']","[-0.15, 0.5]","[0.15, 0.5]",1,1,,,,,,,,,0,3,3,3,0,3,3,6,,,,,,,,,,,,,,,,,,,,,,,,,,,,,,,,,,,,,,,,,,,,,,,,,,,,,,,1405.1342793619997,None,1405.1342793619997,None,1405.1342793619997,None,m,1,1.9816370520002238,1406.670390286,None,1406.670390286,None,1406.670390286,None,1408.7185931560007,None,1408.7185931560007,None,1408.7185931560007,None,1408.7185931560007,None,,,,,,,,,,,,,,,,,,,,,,,,,,,,,,,,,,,,,,,,,,,,001,7,2020_Jan_28_1031,spring_faces,3.1.5,60.00162316398872,
condition files/Stage1_2.xlsx,,B2,T2,m,"['c', 'm']","['Clue', 'Monopoly']","[-0.15, 0.5]","[0.15, 0.5]",1,1,,,,,,,,,0,3,3,3,0,4,4,3,,,,,,,,,,,,,,,,,,,,,,,,,,,,,,,,,,,,,,,,,,,,,,,,,,,,,,,1410.684672507,None,1410.684672507,None,1410.684672507,None,m,1,1.5848642690016277,1412.2191508839996,None,1412.2191508839996,None,1412.2191508839996,None,1413.8674355539997,None,1413.8674355539997,None,1413.8674355539997,None,1413.8674355539997,None,,,,,,,,,,,,,,,,,,,,,,,,,,,,,,,,,,,,,,,,,,,,001,7,2020_Jan_28_1031,spring_faces,3.1.5,60.00162316398872,
condition files/Stage1_2.xlsx,,B1,T1,c,"['c', 'm']","['Clue', 'Monopoly']","[-0.15, 0.5]","[0.15, 0.5]",1,1,,,,,,,,,0,3,3,3,0,5,5,0,,,,,,,,,,,,,,,,,,,,,,,,,,,,,,,,,,,,,,,,,,,,,,,,,,,,,,,1415.8347428900006,None,1415.8347428900006,None,1415.8347428900006,None,m,0,1.7962234459992032,1417.3678194140002,None,1417.3678194140002,None,1417.3678194140002,None,1419.2205676250005,None,1419.2205676250005,None,1419.2205676250005,None,1419.2205676250005,None,,,,,,,,,,,,,,,,,,,,,,,,,,,,,,,,,,,,,,,,,,,,001,7,2020_Jan_28_1031,spring_faces,3.1.5,60.00162316398872,
condition files/Stage1_2.xlsx,,T4,B4,m,"['c', 'm']","['Clue', 'Monopoly']","[-0.15, 0.5]","[0.15, 0.5]",1,1,,,,,,,,,0,3,3,3,0,6,6,7,,,,,,,,,,,,,,,,,,,,,,,,,,,,,,,,,,,,,,,,,,,,,,,,,,,,,,,1421.184755221001,None,1421.184755221001,None,1421.184755221001,None,m,1,5.7257611000004545,1422.7183618980007,None,1422.7183618980007,None,1422.7183618980007,None,1428.5184104810005,None,1428.5184104810005,None,1428.5184104810005,None,1428.5184104810005,None,,,,,,,,,,,,,,,,,,,,,,,,,,,,,,,,,,,,,,,,,,,,001,7,2020_Jan_28_1031,spring_faces,3.1.5,60.00162316398872,
condition files/Stage1_2.xlsx,,B4,T3,c,"['c', 'm']","['Clue', 'Monopoly']","[-0.15, 0.5]","[0.15, 0.5]",1,1,,,,,,,,,0,3,3,3,0,7,7,5,,,,,,,,,,,,,,,,,,,,,,,,,,,,,,,,,,,,,,,,,,,,,,,,,,,,,,,1430.4681724209995,None,1430.4681724209995,None,1430.4681724209995,None,c,1,1.1949087670000154,1432.001144877001,None,1432.001144877001,None,1432.001144877001,None,1433.2680021740007,None,1433.2680021740007,None,1433.2680021740007,None,1433.2680021740007,None,,,,,,,,,,,,,,,,,,,,,,,,,,,,,,,,,,,,,,,,,,,,001,7,2020_Jan_28_1031,spring_faces,3.1.5,60.00162316398872,
condition files/Stage1_1.xlsx,,T4,B3,m,"['c', 'm']","['Clue', 'Monopoly']","[-0.15, 0.5]","[0.15, 0.5]",1,1,,,,,,,,,0,4,4,4,0,0,0,6,,,,,,,,,,,,,,,,,,,,,,,,,,,,,,,,,,,,,,,,,,,,,,,,,,,,,,,1435.2341869860002,None,1435.2341869860002,None,1435.2341869860002,None,m,1,0.8918700170015654,1436.768274991001,None,1436.768274991001,None,1436.768274991001,None,1437.7349788620004,None,1437.7349788620004,None,1437.7349788620004,None,1437.7349788620004,None,,,,,,,,,,,,,,,,,,,,,,,,,,,,,,,,,,,,,,,,,,,,001,7,2020_Jan_28_1031,spring_faces,3.1.5,60.00162316398872,
condition files/Stage1_1.xlsx,,T3,B4,c,"['c', 'm']","['Clue', 'Monopoly']","[-0.15, 0.5]","[0.15, 0.5]",1,1,,,,,,,,,0,4,4,4,0,1,1,5,,,,,,,,,,,,,,,,,,,,,,,,,,,,,,,,,,,,,,,,,,,,,,,,,,,,,,,1439.6847867660008,None,1439.6847867660008,None,1439.6847867660008,None,m,0,1.6101325399995403,1441.2179294770003,None,1441.2179294770003,None,1441.2179294770003,None,1442.9011471639997,None,1442.9011471639997,None,1442.9011471639997,None,1442.9011471639997,None,,,,,,,,,,,,,,,,,,,,,,,,,,,,,,,,,,,,,,,,,,,,001,7,2020_Jan_28_1031,spring_faces,3.1.5,60.00162316398872,
condition files/Stage1_1.xlsx,,B3,T3,c,"['c', 'm']","['Clue', 'Monopoly']","[-0.15, 0.5]","[0.15, 0.5]",1,1,,,,,,,,,0,4,4,4,0,2,2,4,,,,,,,,,,,,,,,,,,,,,,,,,,,,,,,,,,,,,,,,,,,,,,,,,,,,,,,1444.851383739001,None,1444.851383739001,None,1444.851383739001,None,c,1,1.147567945999981,1446.3844865279998,None,1446.3844865279998,None,1446.3844865279998,None,1447.584932056,None,1447.584932056,None,1447.584932056,None,1447.584932056,None,,,,,,,,,,,,,,,,,,,,,,,,,,,,,,,,,,,,,,,,,,,,001,7,2020_Jan_28_1031,spring_faces,3.1.5,60.00162316398872,
condition files/Stage1_1.xlsx,,T2,B2,m,"['c', 'm']","['Clue', 'Monopoly']","[-0.15, 0.5]","[0.15, 0.5]",1,1,,,,,,,,,0,4,4,4,0,3,3,3,,,,,,,,,,,,,,,,,,,,,,,,,,,,,,,,,,,,,,,,,,,,,,,,,,,,,,,1449.551380725,None,1449.551380725,None,1449.551380725,None,m,1,2.268830077999155,1451.087235805001,None,1451.087235805001,None,1451.087235805001,None,1453.4348246600011,None,1453.4348246600011,None,1453.4348246600011,None,1453.4348246600011,None,,,,,,,,,,,,,,,,,,,,,,,,,,,,,,,,,,,,,,,,,,,,001,7,2020_Jan_28_1031,spring_faces,3.1.5,60.00162316398872,
condition files/Stage1_1.xlsx,,T1,B1,c,"['c', 'm']","['Clue', 'Monopoly']","[-0.15, 0.5]","[0.15, 0.5]",1,1,,,,,,,,,0,4,4,4,0,4,4,0,,,,,,,,,,,,,,,,,,,,,,,,,,,,,,,,,,,,,,,,,,,,,,,,,,,,,,,1455.3846776889995,None,1455.3846776889995,None,1455.3846776889995,None,m,0,1.2370031909995305,1456.9350450749998,None,1456.9350450749998,None,1456.9350450749998,None,1458.2364564540012,None,1458.2364564540012,None,1458.2364564540012,None,1458.2364564540012,None,,,,,,,,,,,,,,,,,,,,,,,,,,,,,,,,,,,,,,,,,,,,001,7,2020_Jan_28_1031,spring_faces,3.1.5,60.00162316398872,
condition files/Stage1_1.xlsx,,B2,T1,m,"['c', 'm']","['Clue', 'Monopoly']","[-0.15, 0.5]","[0.15, 0.5]",1,1,,,,,,,,,0,4,4,4,0,5,5,2,,,,,,,,,,,,,,,,,,,,,,,,,,,,,,,,,,,,,,,,,,,,,,,,,,,,,,,1460.201386662001,None,1460.201386662001,None,1460.201386662001,None,m,1,1.3335707370006276,1461.7344935840001,None,1461.7344935840001,None,1461.7344935840001,None,1463.1203494680003,None,1463.1203494680003,None,1463.1203494680003,None,1463.1203494680003,None,,,,,,,,,,,,,,,,,,,,,,,,,,,,,,,,,,,,,,,,,,,,001,7,2020_Jan_28_1031,spring_faces,3.1.5,60.00162316398872,
condition files/Stage1_1.xlsx,,B4,T4,m,"['c', 'm']","['Clue', 'Monopoly']","[-0.15, 0.5]","[0.15, 0.5]",1,1,,,,,,,,,0,4,4,4,0,6,6,7,,,,,,,,,,,,,,,,,,,,,,,,,,,,,,,,,,,,,,,,,,,,,,,,,,,,,,,1465.0848411320012,None,1465.0848411320012,None,1465.0848411320012,None,c,0,1.1679630079997878,1466.620099314,None,1466.620099314,None,1466.620099314,None,1467.851529986,None,1467.851529986,None,1467.851529986,None,1467.851529986,None,,,,,,,,,,,,,,,,,,,,,,,,,,,,,,,,,,,,,,,,,,,,001,7,2020_Jan_28_1031,spring_faces,3.1.5,60.00162316398872,
condition files/Stage1_1.xlsx,,B1,T2,c,"['c', 'm']","['Clue', 'Monopoly']","[-0.15, 0.5]","[0.15, 0.5]",1,1,,,,,,,,,0,4,4,4,0,7,7,1,,,,,,,,,,,,,,,,,,,,,,,,,,,,,,,,,,,,,,,,,,,,,,,,,,,,,,,1469.8176042180012,None,1469.8176042180012,None,1469.8176042180012,None,m,0,1.6521975339983328,1471.3518583760006,None,1471.3518583760006,None,1471.3518583760006,None,1473.0848895420013,None,1473.0848895420013,None,1473.0848895420013,None,1473.0848895420013,None,,,,,,,,,,,,,,,,,,,,,,,,,,,,,,,,,,,,,,,,,,,,001,7,2020_Jan_28_1031,spring_faces,3.1.5,60.00162316398872,
condition files/Stage1_2.xlsx,,B2,T2,m,"['c', 'm']","['Clue', 'Monopoly']","[-0.15, 0.5]","[0.15, 0.5]",1,1,,,,,,,,,0,5,5,5,0,0,0,3,,,,,,,,,,,,,,,,,,,,,,,,,,,,,,,,,,,,,,,,,,,,,,,,,,,,,,,1475.0514740120007,None,1475.0514740120007,None,1475.0514740120007,None,c,0,1.554692546998922,1476.6013670809998,None,1476.6013670809998,None,1476.6013670809998,None,1478.234443878001,None,1478.234443878001,None,1478.234443878001,None,1478.234443878001,None,,,,,,,,,,,,,,,,,,,,,,,,,,,,,,,,,,,,,,,,,,,,001,7,2020_Jan_28_1031,spring_faces,3.1.5,60.00162316398872,
condition files/Stage1_2.xlsx,,B3,T4,m,"['c', 'm']","['Clue', 'Monopoly']","[-0.15, 0.5]","[0.15, 0.5]",1,1,,,,,,,,,0,5,5,5,0,1,1,6,,,,,,,,,,,,,,,,,,,,,,,,,,,,,,,,,,,,,,,,,,,,,,,,,,,,,,,1480.184662666,None,1480.184662666,None,1480.184662666,None,c,0,1.8292843280014495,1481.719004167001,None,1481.719004167001,None,1481.719004167001,None,1483.6014423549996,None,1483.6014423549996,None,1483.6014423549996,None,1483.6014423549996,None,,,,,,,,,,,,,,,,,,,,,,,,,,,,,,,,,,,,,,,,,,,,001,7,2020_Jan_28_1031,spring_faces,3.1.5,60.00162316398872,
condition files/Stage1_2.xlsx,,T3,B3,c,"['c', 'm']","['Clue', 'Monopoly']","[-0.15, 0.5]","[0.15, 0.5]",1,1,,,,,,,,,0,5,5,5,0,2,2,4,,,,,,,,,,,,,,,,,,,,,,,,,,,,,,,,,,,,,,,,,,,,,,,,,,,,,,,1485.5680531080006,None,1485.5680531080006,None,1485.5680531080006,None,m,0,0.5906173849998595,1487.1015094690001,None,1487.1015094690001,None,1487.1015094690001,None,1487.7681753030001,None,1487.7681753030001,None,1487.7681753030001,None,1487.7681753030001,None,,,,,,,,,,,,,,,,,,,,,,,,,,,,,,,,,,,,,,,,,,,,001,7,2020_Jan_28_1031,spring_faces,3.1.5,60.00162316398872,
condition files/Stage1_2.xlsx,,T2,B1,c,"['c', 'm']","['Clue', 'Monopoly']","[-0.15, 0.5]","[0.15, 0.5]",1,1,,,,,,,,,0,5,5,5,0,3,3,1,,,,,,,,,,,,,,,,,,,,,,,,,,,,,,,,,,,,,,,,,,,,,,,,,,,,,,,1489.7181709770002,None,1489.7181709770002,None,1489.7181709770002,None,m,0,0.856421501001023,1491.2676753630012,None,1491.2676753630012,None,1491.2676753630012,None,1492.1841299039997,None,1492.1841299039997,None,1492.1841299039997,None,1492.1841299039997,None,,,,,,,,,,,,,,,,,,,,,,,,,,,,,,,,,,,,,,,,,,,,001,7,2020_Jan_28_1031,spring_faces,3.1.5,60.00162316398872,
condition files/Stage1_2.xlsx,,B4,T3,c,"['c', 'm']","['Clue', 'Monopoly']","[-0.15, 0.5]","[0.15, 0.5]",1,1,,,,,,,,,0,5,5,5,0,4,4,5,,,,,,,,,,,,,,,,,,,,,,,,,,,,,,,,,,,,,,,,,,,,,,,,,,,,,,,1494.1514683930009,None,1494.1514683930009,None,1494.1514683930009,None,c,1,1.749021157000243,1495.6869819770009,None,1495.6869819770009,None,1495.6869819770009,None,1497.5015403860007,None,1497.5015403860007,None,1497.5015403860007,None,1497.5015403860007,None,,,,,,,,,,,,,,,,,,,,,,,,,,,,,,,,,,,,,,,,,,,,001,7,2020_Jan_28_1031,spring_faces,3.1.5,60.00162316398872,
condition files/Stage1_2.xlsx,,T4,B4,m,"['c', 'm']","['Clue', 'Monopoly']","[-0.15, 0.5]","[0.15, 0.5]",1,1,,,,,,,,,0,5,5,5,0,5,5,7,,,,,,,,,,,,,,,,,,,,,,,,,,,,,,,,,,,,,,,,,,,,,,,,,,,,,,,1499.4681269809998,None,1499.4681269809998,None,1499.4681269809998,None,m,1,1.122324218000358,1501.0177317900007,None,1501.0177317900007,None,1501.0177317900007,None,1502.2035338240012,None,1502.2035338240012,None,1502.2035338240012,None,1502.2035338240012,None,,,,,,,,,,,,,,,,,,,,,,,,,,,,,,,,,,,,,,,,,,,,001,7,2020_Jan_28_1031,spring_faces,3.1.5,60.00162316398872,
condition files/Stage1_2.xlsx,,T1,B2,m,"['c', 'm']","['Clue', 'Monopoly']","[-0.15, 0.5]","[0.15, 0.5]",1,1,,,,,,,,,0,5,5,5,0,6,6,2,,,,,,,,,,,,,,,,,,,,,,,,,,,,,,,,,,,,,,,,,,,,,,,,,,,,,,,1504.1682753390005,None,1504.1682753390005,None,1504.1682753390005,None,c,0,1.8938485340004263,1505.7022010400005,None,1505.7022010400005,None,1505.7022010400005,None,1507.651185619,None,1507.651185619,None,1507.651185619,None,1507.651185619,None,,,,,,,,,,,,,,,,,,,,,,,,,,,,,,,,,,,,,,,,,,,,001,7,2020_Jan_28_1031,spring_faces,3.1.5,60.00162316398872,
condition files/Stage1_2.xlsx,,B1,T1,c,"['c', 'm']","['Clue', 'Monopoly']","[-0.15, 0.5]","[0.15, 0.5]",1,1,,,,,,,,,0,5,5,5,0,7,7,0,,,,,,,,,,,,,,,,,,,,,,,,,,,,,,,,,,,,,,,,,,,,,,,,,,,,,,,1509.6174554070012,None,1509.6174554070012,None,1509.6174554070012,None,m,0,1.7251913959989906,1511.1509241840004,None,1511.1509241840004,None,1511.1509241840004,None,1512.937714265,None,1512.937714265,None,1512.937714265,None,1512.937714265,None,,,,,,,,,,,,,,,,,,,,,,,,,,,,,,,,,,,,,,,,,,,,001,7,2020_Jan_28_1031,spring_faces,3.1.5,60.00162316398872,
condition files/Stage1_1.xlsx,,B3,T3,c,"['c', 'm']","['Clue', 'Monopoly']","[-0.15, 0.5]","[0.15, 0.5]",1,1,,,,,,,,,0,6,6,6,0,0,0,4,,,,,,,,,,,,,,,,,,,,,,,,,,,,,,,,,,,,,,,,,,,,,,,,,,,,,,,1514.9181281890005,None,1514.9181281890005,None,1514.9181281890005,None,m,0,0.28111251999871456,1516.450953992001,None,1516.450953992001,None,1516.450953992001,None,1516.7848289439999,None,1516.7848289439999,None,1516.7848289439999,None,1516.7848289439999,None,,,,,,,,,,,,,,,,,,,,,,,,,,,,,,,,,,,,,,,,,,,,001,7,2020_Jan_28_1031,spring_faces,3.1.5,60.00162316398872,
condition files/Stage1_1.xlsx,,B1,T2,c,"['c', 'm']","['Clue', 'Monopoly']","[-0.15, 0.5]","[0.15, 0.5]",1,1,,,,,,,,,0,6,6,6,0,1,1,1,,,,,,,,,,,,,,,,,,,,,,,,,,,,,,,,,,,,,,,,,,,,,,,,,,,,,,,1518.751338989,None,1518.751338989,None,1518.751338989,None,c,1,1.5017881530002342,1520.286287164,None,1520.286287164,None,1520.286287164,None,1521.8517172830007,None,1521.8517172830007,None,1521.8517172830007,None,1521.8517172830007,None,,,,,,,,,,,,,,,,,,,,,,,,,,,,,,,,,,,,,,,,,,,,001,7,2020_Jan_28_1031,spring_faces,3.1.5,60.00162316398872,
condition files/Stage1_1.xlsx,,T2,B2,m,"['c', 'm']","['Clue', 'Monopoly']","[-0.15, 0.5]","[0.15, 0.5]",1,1,,,,,,,,,0,6,6,6,0,2,2,3,,,,,,,,,,,,,,,,,,,,,,,,,,,,,,,,,,,,,,,,,,,,,,,,,,,,,,,1523.8174090910006,None,1523.8174090910006,None,1523.8174090910006,None,m,1,1.4765277490005246,1525.3515840040009,None,1525.3515840040009,None,1525.3515840040009,None,1526.9015999350004,None,1526.9015999350004,None,1526.9015999350004,None,1526.9015999350004,None,,,,,,,,,,,,,,,,,,,,,,,,,,,,,,,,,,,,,,,,,,,,001,7,2020_Jan_28_1031,spring_faces,3.1.5,60.00162316398872,
condition files/Stage1_1.xlsx,,B2,T1,m,"['c', 'm']","['Clue', 'Monopoly']","[-0.15, 0.5]","[0.15, 0.5]",1,1,,,,,,,,,0,6,6,6,0,3,3,2,,,,,,,,,,,,,,,,,,,,,,,,,,,,,,,,,,,,,,,,,,,,,,,,,,,,,,,1528.8513873290003,None,1528.8513873290003,None,1528.8513873290003,None,m,1,1.6568169160000252,1530.3873145330008,None,1530.3873145330008,None,1530.3873145330008,None,1532.1023797059997,None,1532.1023797059997,None,1532.1023797059997,None,1532.1023797059997,None,,,,,,,,,,,,,,,,,,,,,,,,,,,,,,,,,,,,,,,,,,,,001,7,2020_Jan_28_1031,spring_faces,3.1.5,60.00162316398872,
condition files/Stage1_1.xlsx,,T3,B4,c,"['c', 'm']","['Clue', 'Monopoly']","[-0.15, 0.5]","[0.15, 0.5]",1,1,,,,,,,,,0,6,6,6,0,4,4,5,,,,,,,,,,,,,,,,,,,,,,,,,,,,,,,,,,,,,,,,,,,,,,,,,,,,,,,1534.0680775530009,None,1534.0680775530009,None,1534.0680775530009,None,c,1,1.8174387709987059,1535.6025701099998,None,1535.6025701099998,None,1535.6025701099998,None,1537.4858041609996,None,1537.4858041609996,None,1537.4858041609996,None,1537.4858041609996,None,,,,,,,,,,,,,,,,,,,,,,,,,,,,,,,,,,,,,,,,,,,,001,7,2020_Jan_28_1031,spring_faces,3.1.5,60.00162316398872,
condition files/Stage1_1.xlsx,,B4,T4,m,"['c', 'm']","['Clue', 'Monopoly']","[-0.15, 0.5]","[0.15, 0.5]",1,1,,,,,,,,,0,6,6,6,0,5,5,7,,,,,,,,,,,,,,,,,,,,,,,,,,,,,,,,,,,,,,,,,,,,,,,,,,,,,,,1539.451377417,None,1539.451377417,None,1539.451377417,None,c,0,2.6113294009992387,1540.9847252900008,None,1540.9847252900008,None,1540.9847252900008,None,1543.668027402001,None,1543.668027402001,None,1543.668027402001,None,1543.668027402001,None,,,,,,,,,,,,,,,,,,,,,,,,,,,,,,,,,,,,,,,,,,,,001,7,2020_Jan_28_1031,spring_faces,3.1.5,60.00162316398872,
condition files/Stage1_1.xlsx,,T4,B3,m,"['c', 'm']","['Clue', 'Monopoly']","[-0.15, 0.5]","[0.15, 0.5]",1,1,,,,,,,,,0,6,6,6,0,6,6,6,,,,,,,,,,,,,,,,,,,,,,,,,,,,,,,,,,,,,,,,,,,,,,,,,,,,,,,1545.6180235540005,None,1545.6180235540005,None,1545.6180235540005,None,m,1,0.9081986020009936,1547.1519363840007,None,1547.1519363840007,None,1547.1519363840007,None,1548.118189494001,None,1548.118189494001,None,1548.118189494001,None,1548.118189494001,None,,,,,,,,,,,,,,,,,,,,,,,,,,,,,,,,,,,,,,,,,,,,001,7,2020_Jan_28_1031,spring_faces,3.1.5,60.00162316398872,
condition files/Stage1_1.xlsx,,T1,B1,c,"['c', 'm']","['Clue', 'Monopoly']","[-0.15, 0.5]","[0.15, 0.5]",1,1,,,,,,,,,0,6,6,6,0,7,7,0,,,,,,,,,,,,,,,,,,,,,,,,,,,,,,,,,,,,,,,,,,,,,,,,,,,,,,,1550.084666269001,None,1550.084666269001,None,1550.084666269001,None,m,0,1.0959347779989912,1551.6201144079996,None,1551.6201144079996,None,1551.6201144079996,None,1552.7672912780008,None,1552.7672912780008,None,1552.7672912780008,None,1552.7672912780008,None,,,,,,,,,,,,,,,,,,,,,,,,,,,,,,,,,,,,,,,,,,,,001,7,2020_Jan_28_1031,spring_faces,3.1.5,60.00162316398872,
condition files/Stage1_2.xlsx,,B4,T3,c,"['c', 'm']","['Clue', 'Monopoly']","[-0.15, 0.5]","[0.15, 0.5]",1,1,,,,,,,,,0,7,7,7,0,0,0,5,,,,,,,,,,,,,,,,,,,,,,,,,,,,,,,,,,,,,,,,,,,,,,,,,,,,,,,1554.7514227220008,None,1554.7514227220008,None,1554.7514227220008,None,m,0,1.6949034910012415,1556.3011431960012,None,1556.3011431960012,None,1556.3011431960012,None,1558.051891049,None,1558.051891049,None,1558.051891049,None,1558.051891049,None,,,,,,,,,,,,,,,,,,,,,,,,,,,,,,,,,,,,,,,,,,,,001,7,2020_Jan_28_1031,spring_faces,3.1.5,60.00162316398872,
condition files/Stage1_2.xlsx,,B3,T4,m,"['c', 'm']","['Clue', 'Monopoly']","[-0.15, 0.5]","[0.15, 0.5]",1,1,,,,,,,,,0,7,7,7,0,1,1,6,,,,,,,,,,,,,,,,,,,,,,,,,,,,,,,,,,,,,,,,,,,,,,,,,,,,,,,1560.017815221,None,1560.017815221,None,1560.017815221,None,c,0,1.420356611999523,1561.5517203610007,None,1561.5517203610007,None,1561.5517203610007,None,1563.0374480519995,None,1563.0374480519995,None,1563.0374480519995,None,1563.0374480519995,None,,,,,,,,,,,,,,,,,,,,,,,,,,,,,,,,,,,,,,,,,,,,001,7,2020_Jan_28_1031,spring_faces,3.1.5,60.00162316398872,
condition files/Stage1_2.xlsx,,T4,B4,m,"['c', 'm']","['Clue', 'Monopoly']","[-0.15, 0.5]","[0.15, 0.5]",1,1,,,,,,,,,0,7,7,7,0,2,2,7,,,,,,,,,,,,,,,,,,,,,,,,,,,,,,,,,,,,,,,,,,,,,,,,,,,,,,,1565.0012298030006,None,1565.0012298030006,None,1565.0012298030006,None,m,1,1.3492435939988354,1566.534807684001,None,1566.534807684001,None,1566.534807684001,None,1567.934728575,None,1567.934728575,None,1567.934728575,None,1567.934728575,None,,,,,,,,,,,,,,,,,,,,,,,,,,,,,,,,,,,,,,,,,,,,001,7,2020_Jan_28_1031,spring_faces,3.1.5,60.00162316398872,
condition files/Stage1_2.xlsx,,B2,T2,m,"['c', 'm']","['Clue', 'Monopoly']","[-0.15, 0.5]","[0.15, 0.5]",1,1,,,,,,,,,0,7,7,7,0,3,3,3,,,,,,,,,,,,,,,,,,,,,,,,,,,,,,,,,,,,,,,,,,,,,,,,,,,,,,,1569.9013396199998,None,1569.9013396199998,None,1569.9013396199998,None,m,1,1.3293542749997869,1571.434707583,None,1571.434707583,None,1571.434707583,None,1572.8177373059998,None,1572.8177373059998,None,1572.8177373059998,None,1572.8177373059998,None,,,,,,,,,,,,,,,,,,,,,,,,,,,,,,,,,,,,,,,,,,,,001,7,2020_Jan_28_1031,spring_faces,3.1.5,60.00162316398872,
condition files/Stage1_2.xlsx,,B1,T1,c,"['c', 'm']","['Clue', 'Monopoly']","[-0.15, 0.5]","[0.15, 0.5]",1,1,,,,,,,,,0,7,7,7,0,4,4,0,,,,,,,,,,,,,,,,,,,,,,,,,,,,,,,,,,,,,,,,,,,,,,,,,,,,,,,1574.7846945390002,None,1574.7846945390002,None,1574.7846945390002,None,m,0,0.8459372109991818,1576.318127470001,None,1576.318127470001,None,1576.318127470001,None,1577.2342747070006,None,1577.2342747070006,None,1577.2342747070006,None,1577.2342747070006,None,,,,,,,,,,,,,,,,,,,,,,,,,,,,,,,,,,,,,,,,,,,,001,7,2020_Jan_28_1031,spring_faces,3.1.5,60.00162316398872,
condition files/Stage1_2.xlsx,,T3,B3,c,"['c', 'm']","['Clue', 'Monopoly']","[-0.15, 0.5]","[0.15, 0.5]",1,1,,,,,,,,,0,7,7,7,0,5,5,4,,,,,,,,,,,,,,,,,,,,,,,,,,,,,,,,,,,,,,,,,,,,,,,,,,,,,,,1579.1847338060006,None,1579.1847338060006,None,1579.1847338060006,None,m,0,2.5252421089990094,1580.7348763769996,None,1580.7348763769996,None,1580.7348763769996,None,1583.3177691240007,None,1583.3177691240007,None,1583.3177691240007,None,1583.3177691240007,None,,,,,,,,,,,,,,,,,,,,,,,,,,,,,,,,,,,,,,,,,,,,001,7,2020_Jan_28_1031,spring_faces,3.1.5,60.00162316398872,
condition files/Stage1_2.xlsx,,T1,B2,m,"['c', 'm']","['Clue', 'Monopoly']","[-0.15, 0.5]","[0.15, 0.5]",1,1,,,,,,,,,0,7,7,7,0,6,6,2,,,,,,,,,,,,,,,,,,,,,,,,,,,,,,,,,,,,,,,,,,,,,,,,,,,,,,,1585.2847428030009,None,1585.2847428030009,None,1585.2847428030009,None,c,0,2.2336984890007443,1586.8343420339997,None,1586.8343420339997,None,1586.8343420339997,None,1589.1195059430001,None,1589.1195059430001,None,1589.1195059430001,None,1589.1195059430001,None,,,,,,,,,,,,,,,,,,,,,,,,,,,,,,,,,,,,,,,,,,,,001,7,2020_Jan_28_1031,spring_faces,3.1.5,60.00162316398872,
condition files/Stage1_2.xlsx,,T2,B1,c,"['c', 'm']","['Clue', 'Monopoly']","[-0.15, 0.5]","[0.15, 0.5]",1,1,,,,,,,,,0,7,7,7,0,7,7,1,,,,,,,,,,,,,,,,,,,,,,,,,,,,,,,,,,,,,,,,,,,,,,,,,,,,,,,1591.084610705001,None,1591.084610705001,None,1591.084610705001,None,m,0,1.3777557840003283,1592.6343682510005,None,1592.6343682510005,None,1592.6343682510005,None,1594.0849650379996,None,1594.0849650379996,None,1594.0849650379996,None,1594.0849650379996,None,,,,,,,,,,,,,,,,,,,,,,,,,,,,,,,,,,,,,,,,,,,,001,7,2020_Jan_28_1031,spring_faces,3.1.5,60.00162316398872,
condition files/Stage1_1.xlsx,,B3,T3,c,"['c', 'm']","['Clue', 'Monopoly']","[-0.15, 0.5]","[0.15, 0.5]",1,1,,,,,,,,,0,8,8,8,0,0,0,4,,,,,,,,,,,,,,,,,,,,,,,,,,,,,,,,,,,,,,,,,,,,,,,,,,,,,,,1596.051442297,None,1596.051442297,None,1596.051442297,None,c,1,1.8994140529994183,1597.5846421610013,None,1597.5846421610013,None,1597.5846421610013,None,1599.5345383579997,None,1599.5345383579997,None,1599.5345383579997,None,1599.5345383579997,None,,,,,,,,,,,,,,,,,,,,,,,,,,,,,,,,,,,,,,,,,,,,001,7,2020_Jan_28_1031,spring_faces,3.1.5,60.00162316398872,
condition files/Stage1_1.xlsx,,T3,B4,c,"['c', 'm']","['Clue', 'Monopoly']","[-0.15, 0.5]","[0.15, 0.5]",1,1,,,,,,,,,0,8,8,8,0,1,1,5,,,,,,,,,,,,,,,,,,,,,,,,,,,,,,,,,,,,,,,,,,,,,,,,,,,,,,,1601.5014257560006,None,1601.5014257560006,None,1601.5014257560006,None,c,1,1.87216002400055,1603.0359551800002,None,1603.0359551800002,None,1603.0359551800002,None,1604.9686177989997,None,1604.9686177989997,None,1604.9686177989997,None,1604.9686177989997,None,,,,,,,,,,,,,,,,,,,,,,,,,,,,,,,,,,,,,,,,,,,,001,7,2020_Jan_28_1031,spring_faces,3.1.5,60.00162316398872,
condition files/Stage1_1.xlsx,,B4,T4,m,"['c', 'm']","['Clue', 'Monopoly']","[-0.15, 0.5]","[0.15, 0.5]",1,1,,,,,,,,,0,8,8,8,0,2,2,7,,,,,,,,,,,,,,,,,,,,,,,,,,,,,,,,,,,,,,,,,,,,,,,,,,,,,,,1606.9343916959997,None,1606.9343916959997,None,1606.9343916959997,None,m,1,0.9202462189987273,1608.4678156880009,None,1608.4678156880009,None,1608.4678156880009,None,1609.4682644739996,None,1609.4682644739996,None,1609.4682644739996,None,1609.4682644739996,None,,,,,,,,,,,,,,,,,,,,,,,,,,,,,,,,,,,,,,,,,,,,001,7,2020_Jan_28_1031,spring_faces,3.1.5,60.00162316398872,
condition files/Stage1_1.xlsx,,T4,B3,m,"['c', 'm']","['Clue', 'Monopoly']","[-0.15, 0.5]","[0.15, 0.5]",1,1,,,,,,,,,0,8,8,8,0,3,3,6,,,,,,,,,,,,,,,,,,,,,,,,,,,,,,,,,,,,,,,,,,,,,,,,,,,,,,,1611.4180047150012,None,1611.4180047150012,None,1611.4180047150012,None,c,0,0.6759141800012003,1612.9681927539996,None,1612.9681927539996,None,1612.9681927539996,None,1613.7015803189997,None,1613.7015803189997,None,1613.7015803189997,None,1613.7015803189997,None,,,,,,,,,,,,,,,,,,,,,,,,,,,,,,,,,,,,,,,,,,,,001,7,2020_Jan_28_1031,spring_faces,3.1.5,60.00162316398872,
condition files/Stage1_1.xlsx,,T1,B1,c,"['c', 'm']","['Clue', 'Monopoly']","[-0.15, 0.5]","[0.15, 0.5]",1,1,,,,,,,,,0,8,8,8,0,4,4,0,,,,,,,,,,,,,,,,,,,,,,,,,,,,,,,,,,,,,,,,,,,,,,,,,,,,,,,1615.668013505,None,1615.668013505,None,1615.668013505,None,m,0,2.2668719419998524,1617.201169852001,None,1617.201169852001,None,1617.201169852001,None,1619.520460263001,None,1619.520460263001,None,1619.520460263001,None,1619.520460263001,None,,,,,,,,,,,,,,,,,,,,,,,,,,,,,,,,,,,,,,,,,,,,001,7,2020_Jan_28_1031,spring_faces,3.1.5,60.00162316398872,
condition files/Stage1_1.xlsx,,B1,T2,c,"['c', 'm']","['Clue', 'Monopoly']","[-0.15, 0.5]","[0.15, 0.5]",1,1,,,,,,,,,0,8,8,8,0,5,5,1,,,,,,,,,,,,,,,,,,,,,,,,,,,,,,,,,,,,,,,,,,,,,,,,,,,,,,,1621.4847430119999,None,1621.4847430119999,None,1621.4847430119999,None,m,0,1.3307843629991112,1623.0174988890003,None,1623.0174988890003,None,1623.0174988890003,None,1624.401772401,None,1624.401772401,None,1624.401772401,None,1624.401772401,None,,,,,,,,,,,,,,,,,,,,,,,,,,,,,,,,,,,,,,,,,,,,001,7,2020_Jan_28_1031,spring_faces,3.1.5,60.00162316398872,
condition files/Stage1_1.xlsx,,T2,B2,m,"['c', 'm']","['Clue', 'Monopoly']","[-0.15, 0.5]","[0.15, 0.5]",1,1,,,,,,,,,0,8,8,8,0,6,6,3,,,,,,,,,,,,,,,,,,,,,,,,,,,,,,,,,,,,,,,,,,,,,,,,,,,,,,,1626.3687748660004,None,1626.3687748660004,None,1626.3687748660004,None,c,0,2.0948653129999,1627.9011886409999,None,1627.9011886409999,None,1627.9011886409999,None,1630.068031318001,None,1630.068031318001,None,1630.068031318001,None,1630.068031318001,None,,,,,,,,,,,,,,,,,,,,,,,,,,,,,,,,,,,,,,,,,,,,001,7,2020_Jan_28_1031,spring_faces,3.1.5,60.00162316398872,
condition files/Stage1_1.xlsx,,B2,T1,m,"['c', 'm']","['Clue', 'Monopoly']","[-0.15, 0.5]","[0.15, 0.5]",1,1,,,,,,,,,0,8,8,8,0,7,7,2,,,,,,,,,,,,,,,,,,,,,,,,,,,,,,,,,,,,,,,,,,,,,,,,,,,,,,,1632.0180483369995,None,1632.0180483369995,None,1632.0180483369995,None,m,1,0.9409728320006252,1633.5511569849996,None,1633.5511569849996,None,1633.5511569849996,None,1634.5510365119999,None,1634.5510365119999,None,1634.5510365119999,None,1634.5510365119999,None,,,,,,,,,,,,,,,,,,,,,,,,,,,,,,,,,,,,,,,,,,,,001,7,2020_Jan_28_1031,spring_faces,3.1.5,60.00162316398872,
condition files/Stage1_2.xlsx,,B2,T2,m,"['c', 'm']","['Clue', 'Monopoly']","[-0.15, 0.5]","[0.15, 0.5]",1,1,,,,,,,,,0,9,9,9,0,0,0,3,,,,,,,,,,,,,,,,,,,,,,,,,,,,,,,,,,,,,,,,,,,,,,,,,,,,,,,1636.5351180179996,None,1636.5351180179996,None,1636.5351180179996,None,m,1,1.399999385999763,1638.0680636670013,None,1638.0680636670013,None,1638.0680636670013,None,1639.5182100829998,None,1639.5182100829998,None,1639.5182100829998,None,1639.5182100829998,None,,,,,,,,,,,,,,,,,,,,,,,,,,,,,,,,,,,,,,,,,,,,001,7,2020_Jan_28_1031,spring_faces,3.1.5,60.00162316398872,
condition files/Stage1_2.xlsx,,B3,T4,m,"['c', 'm']","['Clue', 'Monopoly']","[-0.15, 0.5]","[0.15, 0.5]",1,1,,,,,,,,,0,9,9,9,0,1,1,6,,,,,,,,,,,,,,,,,,,,,,,,,,,,,,,,,,,,,,,,,,,,,,,,,,,,,,,1641.4845872859996,None,1641.4845872859996,None,1641.4845872859996,None,m,1,0.9773896890001197,1643.0186194810003,None,1643.0186194810003,None,1643.0186194810003,None,1644.0511003300007,None,1644.0511003300007,None,1644.0511003300007,None,1644.0511003300007,None,,,,,,,,,,,,,,,,,,,,,,,,,,,,,,,,,,,,,,,,,,,,001,7,2020_Jan_28_1031,spring_faces,3.1.5,60.00162316398872,
condition files/Stage1_2.xlsx,,T4,B4,m,"['c', 'm']","['Clue', 'Monopoly']","[-0.15, 0.5]","[0.15, 0.5]",1,1,,,,,,,,,0,9,9,9,0,2,2,7,,,,,,,,,,,,,,,,,,,,,,,,,,,,,,,,,,,,,,,,,,,,,,,,,,,,,,,1646.0180783180012,None,1646.0180783180012,None,1646.0180783180012,None,c,0,1.1648448539999663,1647.551218851001,None,1647.551218851001,None,1647.551218851001,None,1648.7679326930001,None,1648.7679326930001,None,1648.7679326930001,None,1648.7679326930001,None,,,,,,,,,,,,,,,,,,,,,,,,,,,,,,,,,,,,,,,,,,,,001,7,2020_Jan_28_1031,spring_faces,3.1.5,60.00162316398872,
condition files/Stage1_2.xlsx,,T2,B1,c,"['c', 'm']","['Clue', 'Monopoly']","[-0.15, 0.5]","[0.15, 0.5]",1,1,,,,,,,,,0,9,9,9,0,3,3,1,,,,,,,,,,,,,,,,,,,,,,,,,,,,,,,,,,,,,,,,,,,,,,,,,,,,,,,1650.7345234539998,None,1650.7345234539998,None,1650.7345234539998,None,m,0,1.7101866609991703,1652.2698874259995,None,1652.2698874259995,None,1652.2698874259995,None,1654.0514057970004,None,1654.0514057970004,None,1654.0514057970004,None,1654.0514057970004,None,,,,,,,,,,,,,,,,,,,,,,,,,,,,,,,,,,,,,,,,,,,,001,7,2020_Jan_28_1031,spring_faces,3.1.5,60.00162316398872,
condition files/Stage1_2.xlsx,,T1,B2,m,"['c', 'm']","['Clue', 'Monopoly']","[-0.15, 0.5]","[0.15, 0.5]",1,1,,,,,,,,,0,9,9,9,0,4,4,2,,,,,,,,,,,,,,,,,,,,,,,,,,,,,,,,,,,,,,,,,,,,,,,,,,,,,,,1656.0013390410013,None,1656.0013390410013,None,1656.0013390410013,None,c,0,2.7649163869991753,1657.5351211370007,None,1657.5351211370007,None,1657.5351211370007,None,1660.3520241650012,None,1660.3520241650012,None,1660.3520241650012,None,1660.3520241650012,None,,,,,,,,,,,,,,,,,,,,,,,,,,,,,,,,,,,,,,,,,,,,001,7,2020_Jan_28_1031,spring_faces,3.1.5,60.00162316398872,
condition files/Stage1_2.xlsx,,T3,B3,c,"['c', 'm']","['Clue', 'Monopoly']","[-0.15, 0.5]","[0.15, 0.5]",1,1,,,,,,,,,0,9,9,9,0,5,5,4,,,,,,,,,,,,,,,,,,,,,,,,,,,,,,,,,,,,,,,,,,,,,,,,,,,,,,,1662.3181057730008,None,1662.3181057730008,None,1662.3181057730008,None,m,0,2.048549218001426,1663.8514896790011,None,1663.8514896790011,None,1663.8514896790011,None,1665.9515339150012,None,1665.9515339150012,None,1665.9515339150012,None,1665.9515339150012,None,,,,,,,,,,,,,,,,,,,,,,,,,,,,,,,,,,,,,,,,,,,,001,7,2020_Jan_28_1031,spring_faces,3.1.5,60.00162316398872,
condition files/Stage1_2.xlsx,,B4,T3,c,"['c', 'm']","['Clue', 'Monopoly']","[-0.15, 0.5]","[0.15, 0.5]",1,1,,,,,,,,,0,9,9,9,0,6,6,5,,,,,,,,,,,,,,,,,,,,,,,,,,,,,,,,,,,,,,,,,,,,,,,,,,,,,,,1667.9180437860005,None,1667.9180437860005,None,1667.9180437860005,None,c,1,1.5367765579994739,1669.4512838110013,None,1669.4512838110013,None,1669.4512838110013,None,1671.0515074429995,None,1671.0515074429995,None,1671.0515074429995,None,1671.0515074429995,None,,,,,,,,,,,,,,,,,,,,,,,,,,,,,,,,,,,,,,,,,,,,001,7,2020_Jan_28_1031,spring_faces,3.1.5,60.00162316398872,
condition files/Stage1_2.xlsx,,B1,T1,c,"['c', 'm']","['Clue', 'Monopoly']","[-0.15, 0.5]","[0.15, 0.5]",1,1,,,,,,,,,0,9,9,9,0,7,7,0,,,,,,,,,,,,,,,,,,,,,,,,,,,,,,,,,,,,,,,,,,,,,,,,,,,,,,,1673.0179906160001,None,1673.0179906160001,None,1673.0179906160001,None,m,0,1.2194932850015903,1674.5525761239996,None,1674.5525761239996,None,1674.5525761239996,None,1675.8344933070011,None,1675.8344933070011,None,1675.8344933070011,None,1675.8344933070011,None,,,,,,,,,,,,,,,,,,,,,,,,,,,,,,,,,,,,,,,,,,,,001,7,2020_Jan_28_1031,spring_faces,3.1.5,60.00162316398872,
condition files/Stage1_1.xlsx,,B3,T3,c,"['c', 'm']","['Clue', 'Monopoly']","[-0.15, 0.5]","[0.15, 0.5]",1,1,,,,,,,,,0,10,10,10,0,0,0,4,,,,,,,,,,,,,,,,,,,,,,,,,,,,,,,,,,,,,,,,,,,,,,,,,,,,,,,1677.8180853860003,None,1677.8180853860003,None,1677.8180853860003,None,c,1,0.6273013739992166,1679.3527177799997,None,1679.3527177799997,None,1679.3527177799997,None,1680.034012905001,None,1680.034012905001,None,1680.034012905001,None,1680.034012905001,None,,,,,,,,,,,,,,,,,,,,,,,,,,,,,,,,,,,,,,,,,,,,001,7,2020_Jan_28_1031,spring_faces,3.1.5,60.00162316398872,
condition files/Stage1_1.xlsx,,T1,B1,c,"['c', 'm']","['Clue', 'Monopoly']","[-0.15, 0.5]","[0.15, 0.5]",1,1,,,,,,,,,0,10,10,10,0,1,1,0,,,,,,,,,,,,,,,,,,,,,,,,,,,,,,,,,,,,,,,,,,,,,,,,,,,,,,,1682.0013330829997,None,1682.0013330829997,None,1682.0013330829997,None,c,1,1.0991013959992415,1683.5369371890001,None,1683.5369371890001,None,1683.5369371890001,None,1684.7017088769999,None,1684.7017088769999,None,1684.7017088769999,None,1684.7017088769999,None,,,,,,,,,,,,,,,,,,,,,,,,,,,,,,,,,,,,,,,,,,,,001,7,2020_Jan_28_1031,spring_faces,3.1.5,60.00162316398872,
condition files/Stage1_1.xlsx,,B4,T4,m,"['c', 'm']","['Clue', 'Monopoly']","[-0.15, 0.5]","[0.15, 0.5]",1,1,,,,,,,,,0,10,10,10,0,2,2,7,,,,,,,,,,,,,,,,,,,,,,,,,,,,,,,,,,,,,,,,,,,,,,,,,,,,,,,1686.668118816001,None,1686.668118816001,None,1686.668118816001,None,c,0,1.9540711919999012,1688.2179783860001,None,1688.2179783860001,None,1688.2179783860001,None,1690.252002147,None,1690.252002147,None,1690.252002147,None,1690.252002147,None,,,,,,,,,,,,,,,,,,,,,,,,,,,,,,,,,,,,,,,,,,,,001,7,2020_Jan_28_1031,spring_faces,3.1.5,60.00162316398872,
condition files/Stage1_1.xlsx,,T2,B2,m,"['c', 'm']","['Clue', 'Monopoly']","[-0.15, 0.5]","[0.15, 0.5]",1,1,,,,,,,,,0,10,10,10,0,3,3,3,,,,,,,,,,,,,,,,,,,,,,,,,,,,,,,,,,,,,,,,,,,,,,,,,,,,,,,1692.2014606350012,None,1692.2014606350012,None,1692.2014606350012,None,m,1,0.8363793249991431,1693.751676711,None,1693.751676711,None,1693.751676711,None,1694.650888604,None,1694.650888604,None,1694.650888604,None,1694.650888604,None,,,,,,,,,,,,,,,,,,,,,,,,,,,,,,,,,,,,,,,,,,,,001,7,2020_Jan_28_1031,spring_faces,3.1.5,60.00162316398872,
condition files/Stage1_1.xlsx,,T3,B4,c,"['c', 'm']","['Clue', 'Monopoly']","[-0.15, 0.5]","[0.15, 0.5]",1,1,,,,,,,,,0,10,10,10,0,4,4,5,,,,,,,,,,,,,,,,,,,,,,,,,,,,,,,,,,,,,,,,,,,,,,,,,,,,,,,1696.6180960850006,None,1696.6180960850006,None,1696.6180960850006,None,c,1,1.1728392299992265,1698.1512807090012,None,1698.1512807090012,None,1698.1512807090012,None,1699.387749730001,None,1699.387749730001,None,1699.387749730001,None,1699.387749730001,None,,,,,,,,,,,,,,,,,,,,,,,,,,,,,,,,,,,,,,,,,,,,001,7,2020_Jan_28_1031,spring_faces,3.1.5,60.00162316398872,
condition files/Stage1_1.xlsx,,B2,T1,m,"['c', 'm']","['Clue', 'Monopoly']","[-0.15, 0.5]","[0.15, 0.5]",1,1,,,,,,,,,0,10,10,10,0,5,5,2,,,,,,,,,,,,,,,,,,,,,,,,,,,,,,,,,,,,,,,,,,,,,,,,,,,,,,,1701.351558843001,None,1701.351558843001,None,1701.351558843001,None,m,1,0.6784898700007034,1702.9015617310006,None,1702.9015617310006,None,1702.9015617310006,None,1703.6513815890003,None,1703.6513815890003,None,1703.6513815890003,None,1703.6513815890003,None,,,,,,,,,,,,,,,,,,,,,,,,,,,,,,,,,,,,,,,,,,,,001,7,2020_Jan_28_1031,spring_faces,3.1.5,60.00162316398872,
condition files/Stage1_1.xlsx,,T4,B3,m,"['c', 'm']","['Clue', 'Monopoly']","[-0.15, 0.5]","[0.15, 0.5]",1,1,,,,,,,,,0,10,10,10,0,6,6,6,,,,,,,,,,,,,,,,,,,,,,,,,,,,,,,,,,,,,,,,,,,,,,,,,,,,,,,1705.6015753710008,None,1705.6015753710008,None,1705.6015753710008,None,c,0,1.1484218099994905,1707.1516275000004,None,1707.1516275000004,None,1707.1516275000004,None,1708.3516316750001,None,1708.3516316750001,None,1708.3516316750001,None,1708.3516316750001,None,,,,,,,,,,,,,,,,,,,,,,,,,,,,,,,,,,,,,,,,,,,,001,7,2020_Jan_28_1031,spring_faces,3.1.5,60.00162316398872,
condition files/Stage1_1.xlsx,,B1,T2,c,"['c', 'm']","['Clue', 'Monopoly']","[-0.15, 0.5]","[0.15, 0.5]",1,1,,,,,,,,,0,10,10,10,0,7,7,1,,,,,,,,,,,,,,,,,,,,,,,,,,,,,,,,,,,,,,,,,,,,,,,,,,,,,,,1710.3180481680001,None,1710.3180481680001,None,1710.3180481680001,None,m,0,0.7049367190011253,1711.8511325360005,None,1711.8511325360005,None,1711.8511325360005,None,1712.6194953929999,None,1712.6194953929999,None,1712.6194953929999,None,1712.6194953929999,None,,,,,,,,,,,,,,,,,,,,,,,,,,,,,,,,,,,,,,,,,,,,001,7,2020_Jan_28_1031,spring_faces,3.1.5,60.00162316398872,
condition files/Stage1_2.xlsx,,T4,B4,m,"['c', 'm']","['Clue', 'Monopoly']","[-0.15, 0.5]","[0.15, 0.5]",1,1,,,,,,,,,0,11,11,11,0,0,0,7,,,,,,,,,,,,,,,,,,,,,,,,,,,,,,,,,,,,,,,,,,,,,,,,,,,,,,,1714.6016981470011,None,1714.6016981470011,None,1714.6016981470011,None,m,1,1.0291889300006005,1716.1348888889997,None,1716.1348888889997,None,1716.1348888889997,None,1717.2342666949999,None,1717.2342666949999,None,1717.2342666949999,None,1717.2342666949999,None,,,,,,,,,,,,,,,,,,,,,,,,,,,,,,,,,,,,,,,,,,,,001,7,2020_Jan_28_1031,spring_faces,3.1.5,60.00162316398872,
condition files/Stage1_2.xlsx,,B1,T1,c,"['c', 'm']","['Clue', 'Monopoly']","[-0.15, 0.5]","[0.15, 0.5]",1,1,,,,,,,,,0,11,11,11,0,1,1,0,,,,,,,,,,,,,,,,,,,,,,,,,,,,,,,,,,,,,,,,,,,,,,,,,,,,,,,1719.184257668,None,1719.184257668,None,1719.184257668,None,m,0,0.8297361139993882,1720.7184495600004,None,1720.7184495600004,None,1720.7184495600004,None,1721.601538924001,None,1721.601538924001,None,1721.601538924001,None,1721.601538924001,None,,,,,,,,,,,,,,,,,,,,,,,,,,,,,,,,,,,,,,,,,,,,001,7,2020_Jan_28_1031,spring_faces,3.1.5,60.00162316398872,
condition files/Stage1_2.xlsx,,B3,T4,m,"['c', 'm']","['Clue', 'Monopoly']","[-0.15, 0.5]","[0.15, 0.5]",1,1,,,,,,,,,0,11,11,11,0,2,2,6,,,,,,,,,,,,,,,,,,,,,,,,,,,,,,,,,,,,,,,,,,,,,,,,,,,,,,,1723.568020609001,None,1723.568020609001,None,1723.568020609001,None,c,0,0.5421051939993049,1725.1020234939997,None,1725.1020234939997,None,1725.1020234939997,None,1725.7179563070013,None,1725.7179563070013,None,1725.7179563070013,None,1725.7179563070013,None,,,,,,,,,,,,,,,,,,,,,,,,,,,,,,,,,,,,,,,,,,,,001,7,2020_Jan_28_1031,spring_faces,3.1.5,60.00162316398872,
condition files/Stage1_2.xlsx,,T1,B2,m,"['c', 'm']","['Clue', 'Monopoly']","[-0.15, 0.5]","[0.15, 0.5]",1,1,,,,,,,,,0,11,11,11,0,3,3,2,,,,,,,,,,,,,,,,,,,,,,,,,,,,,,,,,,,,,,,,,,,,,,,,,,,,,,,1727.6681091960008,None,1727.6681091960008,None,1727.6681091960008,None,m,1,2.9378922169998987,1729.218168665001,None,1729.218168665001,None,1729.218168665001,None,1732.218218309,None,1732.218218309,None,1732.218218309,None,1732.218218309,None,,,,,,,,,,,,,,,,,,,,,,,,,,,,,,,,,,,,,,,,,,,,001,7,2020_Jan_28_1031,spring_faces,3.1.5,60.00162316398872,
condition files/Stage1_2.xlsx,,T2,B1,c,"['c', 'm']","['Clue', 'Monopoly']","[-0.15, 0.5]","[0.15, 0.5]",1,1,,,,,,,,,0,11,11,11,0,4,4,1,,,,,,,,,,,,,,,,,,,,,,,,,,,,,,,,,,,,,,,,,,,,,,,,,,,,,,,1734.1844941500012,None,1734.1844941500012,None,1734.1844941500012,None,m,0,0.96572352000112,1735.7183416449998,None,1735.7183416449998,None,1735.7183416449998,None,1736.7515081480005,None,1736.7515081480005,None,1736.7515081480005,None,1736.7515081480005,None,,,,,,,,,,,,,,,,,,,,,,,,,,,,,,,,,,,,,,,,,,,,001,7,2020_Jan_28_1031,spring_faces,3.1.5,60.00162316398872,
condition files/Stage1_2.xlsx,,T3,B3,c,"['c', 'm']","['Clue', 'Monopoly']","[-0.15, 0.5]","[0.15, 0.5]",1,1,,,,,,,,,0,11,11,11,0,5,5,4,,,,,,,,,,,,,,,,,,,,,,,,,,,,,,,,,,,,,,,,,,,,,,,,,,,,,,,1738.7007751240008,None,1738.7007751240008,None,1738.7007751240008,None,c,1,0.8963790260004316,1740.2518154199997,None,1740.2518154199997,None,1740.2518154199997,None,1741.201081139,None,1741.201081139,None,1741.201081139,None,1741.201081139,None,,,,,,,,,,,,,,,,,,,,,,,,,,,,,,,,,,,,,,,,,,,,001,7,2020_Jan_28_1031,spring_faces,3.1.5,60.00162316398872,
condition files/Stage1_2.xlsx,,B2,T2,m,"['c', 'm']","['Clue', 'Monopoly']","[-0.15, 0.5]","[0.15, 0.5]",1,1,,,,,,,,,0,11,11,11,0,6,6,3,,,,,,,,,,,,,,,,,,,,,,,,,,,,,,,,,,,,,,,,,,,,,,,,,,,,,,,1743.168037372,None,1743.168037372,None,1743.168037372,None,m,1,0.7187927289996878,1744.7012642880009,None,1744.7012642880009,None,1744.7012642880009,None,1745.5017885490006,None,1745.5017885490006,None,1745.5017885490006,None,1745.5017885490006,None,,,,,,,,,,,,,,,,,,,,,,,,,,,,,,,,,,,,,,,,,,,,001,7,2020_Jan_28_1031,spring_faces,3.1.5,60.00162316398872,
condition files/Stage1_2.xlsx,,B4,T3,c,"['c', 'm']","['Clue', 'Monopoly']","[-0.15, 0.5]","[0.15, 0.5]",1,1,,,,,,,,,0,11,11,11,0,7,7,5,,,,,,,,,,,,,,,,,,,,,,,,,,,,,,,,,,,,,,,,,,,,,,,,,,,,,,,1747.451408598,None,1747.451408598,None,1747.451408598,None,c,1,1.2353148319998581,1748.9847051860006,None,1748.9847051860006,None,1748.9847051860006,None,1750.286908430001,None,1750.286908430001,None,1750.286908430001,None,1750.286908430001,None,,,,,,,,,,,,,,,,,,,,,,,,,,,,,,,,,,,,,,,,,,,,001,7,2020_Jan_28_1031,spring_faces,3.1.5,60.00162316398872,
,,,,,,,,,,,,,,,,,,,,,,,,,,,,,,,,,,,,,,,,,,,,,,,,,,,,,,,,,,,,,,,,,,,,,,,,,,,,,,,,,,,,,,,,,,,,,,,,,,,,,,,,,,,,,,,,1752.2682286940008,None,space,6.840024851000635,1757.268116362001,None,,,,,,,,,,,,,,,,,,,,,,,,,,,,,,001,7,2020_Jan_28_1031,spring_faces,3.1.5,60.00162316398872,
condition files/Stage2_1.xlsx,,B2,T2,r,"['s', 'r']","['Stratego', 'Risk']","[-0.15, 0.5]","[0.15, 0.5]",1,1,,,,,,,,,,,,,,,,,0,0,0,0,0,0,0,3,,,,,,,,,,,,,,,,,,,,,,,,,,,,,,,,,,,,,,,,,,,,,,,1764.2014577140008,None,1764.2014577140008,None,1764.2014577140008,None,r,1,1.06356627400055,1765.6844896560006,None,1765.6844896560006,None,1765.6844896560006,None,1766.818034559,None,1766.818034559,None,1766.818034559,None,1766.818034559,None,,,,,,,,,,,,,,,1757.268116362001,None,,,,,,,,,,,,,,,,,,,,,,,,,,,,001,7,2020_Jan_28_1031,spring_faces,3.1.5,60.00162316398872,
condition files/Stage2_1.xlsx,,B6,T6,r,"['s', 'r']","['Stratego', 'Risk']","[-0.15, 0.5]","[0.15, 0.5]",1,1,,,,,,,,,,,,,,,,,0,0,0,0,0,1,1,1,,,,,,,,,,,,,,,,,,,,,,,,,,,,,,,,,,,,,,,,,,,,,,,1768.7681040360012,None,1768.7681040360012,None,1768.7681040360012,None,s,0,0.9399316969993379,1770.3681889540012,None,1770.3681889540012,None,1770.3681889540012,None,1771.3682227079998,None,1771.3682227079998,None,1771.3682227079998,None,1771.3682227079998,None,,,,,,,,,,,,,,,,,,,,,,,,,,,,,,,,,,,,,,,,,,,,001,7,2020_Jan_28_1031,spring_faces,3.1.5,60.00162316398872,
condition files/Stage2_1.xlsx,,T1,B1,s,"['s', 'r']","['Stratego', 'Risk']","[-0.15, 0.5]","[0.15, 0.5]",1,1,,,,,,,,,,,,,,,,,0,0,0,0,0,2,2,2,,,,,,,,,,,,,,,,,,,,,,,,,,,,,,,,,,,,,,,,,,,,,,,1773.3339052870006,None,1773.3339052870006,None,1773.3339052870006,None,s,1,0.9355696559996431,1774.8685016040008,None,1774.8685016040008,None,1774.8685016040008,None,1775.8845936360003,None,1775.8845936360003,None,1775.8845936360003,None,1775.8845936360003,None,,,,,,,,,,,,,,,,,,,,,,,,,,,,,,,,,,,,,,,,,,,,001,7,2020_Jan_28_1031,spring_faces,3.1.5,60.00162316398872,
condition files/Stage2_1.xlsx,,B4,T4,r,"['s', 'r']","['Stratego', 'Risk']","[-0.15, 0.5]","[0.15, 0.5]",1,1,,,,,,,,,,,,,,,,,0,0,0,0,0,3,3,5,,,,,,,,,,,,,,,,,,,,,,,,,,,,,,,,,,,,,,,,,,,,,,,1777.8341861100007,None,1777.8341861100007,None,1777.8341861100007,None,s,0,1.2656630509991373,1779.3703787860004,None,1779.3703787860004,None,1779.3703787860004,None,1780.7183398030002,None,1780.7183398030002,None,1780.7183398030002,None,1780.7183398030002,None,,,,,,,,,,,,,,,,,,,,,,,,,,,,,,,,,,,,,,,,,,,,001,7,2020_Jan_28_1031,spring_faces,3.1.5,60.00162316398872,
condition files/Stage2_1.xlsx,,T5,B5,s,"['s', 'r']","['Stratego', 'Risk']","[-0.15, 0.5]","[0.15, 0.5]",1,1,,,,,,,,,,,,,,,,,0,0,0,0,0,4,4,0,,,,,,,,,,,,,,,,,,,,,,,,,,,,,,,,,,,,,,,,,,,,,,,1782.667600242,None,1782.667600242,None,1782.667600242,None,s,1,1.0717560859993682,1784.2682936440006,None,1784.2682936440006,None,1784.2682936440006,None,1785.4013535599997,None,1785.4013535599997,None,1785.4013535599997,None,1785.4013535599997,None,,,,,,,,,,,,,,,,,,,,,,,,,,,,,,,,,,,,,,,,,,,,001,7,2020_Jan_28_1031,spring_faces,3.1.5,60.00162316398872,
condition files/Stage2_1.xlsx,,T3,B3,s,"['s', 'r']","['Stratego', 'Risk']","[-0.15, 0.5]","[0.15, 0.5]",1,1,,,,,,,,,,,,,,,,,0,0,0,0,0,5,5,4,,,,,,,,,,,,,,,,,,,,,,,,,,,,,,,,,,,,,,,,,,,,,,,1787.3680592640003,None,1787.3680592640003,None,1787.3680592640003,None,s,1,1.3811736070001643,1788.9028858379997,None,1788.9028858379997,None,1788.9028858379997,None,1790.334306889,None,1790.334306889,None,1790.334306889,None,1790.334306889,None,,,,,,,,,,,,,,,,,,,,,,,,,,,,,,,,,,,,,,,,,,,,001,7,2020_Jan_28_1031,spring_faces,3.1.5,60.00162316398872,
condition files/Stage2_2.xlsx,,T6,B6,r,"['s', 'r']","['Stratego', 'Risk']","[-0.15, 0.5]","[0.15, 0.5]",1,1,,,,,,,,,,,,,,,,,0,1,1,1,0,0,0,1,,,,,,,,,,,,,,,,,,,,,,,,,,,,,,,,,,,,,,,,,,,,,,,1792.3516074469999,None,1792.3516074469999,None,1792.3516074469999,None,r,1,0.7502449600015098,1793.8538296690012,None,1793.8538296690012,None,1793.8538296690012,None,1794.67101051,None,1794.67101051,None,1794.67101051,None,1794.67101051,None,,,,,,,,,,,,,,,,,,,,,,,,,,,,,,,,,,,,,,,,,,,,001,7,2020_Jan_28_1031,spring_faces,3.1.5,60.00162316398872,
condition files/Stage2_2.xlsx,,B5,T5,s,"['s', 'r']","['Stratego', 'Risk']","[-0.15, 0.5]","[0.15, 0.5]",1,1,,,,,,,,,,,,,,,,,0,1,1,1,0,1,1,0,,,,,,,,,,,,,,,,,,,,,,,,,,,,,,,,,,,,,,,,,,,,,,,1796.6346913120005,None,1796.6346913120005,None,1796.6346913120005,None,r,0,2.9642868419996375,1798.1677520269996,None,1798.1677520269996,None,1798.1677520269996,None,1801.2016065689995,None,1801.2016065689995,None,1801.2016065689995,None,1801.2016065689995,None,,,,,,,,,,,,,,,,,,,,,,,,,,,,,,,,,,,,,,,,,,,,001,7,2020_Jan_28_1031,spring_faces,3.1.5,60.00162316398872,
condition files/Stage2_2.xlsx,,B1,T1,s,"['s', 'r']","['Stratego', 'Risk']","[-0.15, 0.5]","[0.15, 0.5]",1,1,,,,,,,,,,,,,,,,,0,1,1,1,0,2,2,2,,,,,,,,,,,,,,,,,,,,,,,,,,,,,,,,,,,,,,,,,,,,,,,1803.1515977520003,None,1803.1515977520003,None,1803.1515977520003,None,s,1,1.4230290449995664,1804.685043374001,None,1804.685043374001,None,1804.685043374001,None,1806.168344625,None,1806.168344625,None,1806.168344625,None,1806.168344625,None,,,,,,,,,,,,,,,,,,,,,,,,,,,,,,,,,,,,,,,,,,,,001,7,2020_Jan_28_1031,spring_faces,3.1.5,60.00162316398872,
condition files/Stage2_2.xlsx,,T4,B4,r,"['s', 'r']","['Stratego', 'Risk']","[-0.15, 0.5]","[0.15, 0.5]",1,1,,,,,,,,,,,,,,,,,0,1,1,1,0,3,3,5,,,,,,,,,,,,,,,,,,,,,,,,,,,,,,,,,,,,,,,,,,,,,,,1808.134803475,None,1808.134803475,None,1808.134803475,None,r,1,2.327387056000589,1809.6686718650008,None,1809.6686718650008,None,1809.6686718650008,None,1812.0681420620012,None,1812.0681420620012,None,1812.0681420620012,None,1812.0681420620012,None,,,,,,,,,,,,,,,,,,,,,,,,,,,,,,,,,,,,,,,,,,,,001,7,2020_Jan_28_1031,spring_faces,3.1.5,60.00162316398872,
condition files/Stage2_2.xlsx,,T2,B2,r,"['s', 'r']","['Stratego', 'Risk']","[-0.15, 0.5]","[0.15, 0.5]",1,1,,,,,,,,,,,,,,,,,0,1,1,1,0,4,4,3,,,,,,,,,,,,,,,,,,,,,,,,,,,,,,,,,,,,,,,,,,,,,,,1814.018104324,None,1814.018104324,None,1814.018104324,None,r,1,1.0981251640005212,1815.5538922290007,None,1815.5538922290007,None,1815.5538922290007,None,1816.717666951,None,1816.717666951,None,1816.717666951,None,1816.717666951,None,,,,,,,,,,,,,,,,,,,,,,,,,,,,,,,,,,,,,,,,,,,,001,7,2020_Jan_28_1031,spring_faces,3.1.5,60.00162316398872,
condition files/Stage2_2.xlsx,,B3,T3,s,"['s', 'r']","['Stratego', 'Risk']","[-0.15, 0.5]","[0.15, 0.5]",1,1,,,,,,,,,,,,,,,,,0,1,1,1,0,5,5,4,,,,,,,,,,,,,,,,,,,,,,,,,,,,,,,,,,,,,,,,,,,,,,,1818.6847280230004,None,1818.6847280230004,None,1818.6847280230004,None,s,1,0.9934901090000494,1820.218622151001,None,1820.218622151001,None,1820.218622151001,None,1821.2845493289997,None,1821.2845493289997,None,1821.2845493289997,None,1821.2845493289997,None,,,,,,,,,,,,,,,,,,,,,,,,,,,,,,,,,,,,,,,,,,,,001,7,2020_Jan_28_1031,spring_faces,3.1.5,60.00162316398872,
condition files/Stage2_1.xlsx,,T5,B5,s,"['s', 'r']","['Stratego', 'Risk']","[-0.15, 0.5]","[0.15, 0.5]",1,1,,,,,,,,,,,,,,,,,0,2,2,2,0,0,0,0,,,,,,,,,,,,,,,,,,,,,,,,,,,,,,,,,,,,,,,,,,,,,,,1823.2515220650012,None,1823.2515220650012,None,1823.2515220650012,None,s,1,0.6191264980006963,1824.784943093001,None,1824.784943093001,None,1824.784943093001,None,1825.4679533669996,None,1825.4679533669996,None,1825.4679533669996,None,1825.4679533669996,None,,,,,,,,,,,,,,,,,,,,,,,,,,,,,,,,,,,,,,,,,,,,001,7,2020_Jan_28_1031,spring_faces,3.1.5,60.00162316398872,
condition files/Stage2_1.xlsx,,T3,B3,s,"['s', 'r']","['Stratego', 'Risk']","[-0.15, 0.5]","[0.15, 0.5]",1,1,,,,,,,,,,,,,,,,,0,2,2,2,0,1,1,4,,,,,,,,,,,,,,,,,,,,,,,,,,,,,,,,,,,,,,,,,,,,,,,1827.434655260001,None,1827.434655260001,None,1827.434655260001,None,s,1,1.410301507999975,1828.9697839660012,None,1828.9697839660012,None,1828.9697839660012,None,1830.4350032560005,None,1830.4350032560005,None,1830.4350032560005,None,1830.4350032560005,None,,,,,,,,,,,,,,,,,,,,,,,,,,,,,,,,,,,,,,,,,,,,001,7,2020_Jan_28_1031,spring_faces,3.1.5,60.00162316398872,
condition files/Stage2_1.xlsx,,B4,T4,r,"['s', 'r']","['Stratego', 'Risk']","[-0.15, 0.5]","[0.15, 0.5]",1,1,,,,,,,,,,,,,,,,,0,2,2,2,0,2,2,5,,,,,,,,,,,,,,,,,,,,,,,,,,,,,,,,,,,,,,,,,,,,,,,1832.401455018001,None,1832.401455018001,None,1832.401455018001,None,r,1,0.8588782309998351,1833.9371624820005,None,1833.9371624820005,None,1833.9371624820005,None,1834.8683864410004,None,1834.8683864410004,None,1834.8683864410004,None,1834.8683864410004,None,,,,,,,,,,,,,,,,,,,,,,,,,,,,,,,,,,,,,,,,,,,,001,7,2020_Jan_28_1031,spring_faces,3.1.5,60.00162316398872,
condition files/Stage2_1.xlsx,,T1,B1,s,"['s', 'r']","['Stratego', 'Risk']","[-0.15, 0.5]","[0.15, 0.5]",1,1,,,,,,,,,,,,,,,,,0,2,2,2,0,3,3,2,,,,,,,,,,,,,,,,,,,,,,,,,,,,,,,,,,,,,,,,,,,,,,,1836.8179748390003,None,1836.8179748390003,None,1836.8179748390003,None,s,1,0.8448206720004237,1838.3512371250008,None,1838.3512371250008,None,1838.3512371250008,None,1839.2694276470002,None,1839.2694276470002,None,1839.2694276470002,None,1839.2694276470002,None,,,,,,,,,,,,,,,,,,,,,,,,,,,,,,,,,,,,,,,,,,,,001,7,2020_Jan_28_1031,spring_faces,3.1.5,60.00162316398872,
condition files/Stage2_1.xlsx,,B6,T6,r,"['s', 'r']","['Stratego', 'Risk']","[-0.15, 0.5]","[0.15, 0.5]",1,1,,,,,,,,,,,,,,,,,0,2,2,2,0,4,4,1,,,,,,,,,,,,,,,,,,,,,,,,,,,,,,,,,,,,,,,,,,,,,,,1841.2177176129999,None,1841.2177176129999,None,1841.2177176129999,None,r,1,1.46875631399962,1842.7513120720005,None,1842.7513120720005,None,1842.7513120720005,None,1844.2862607710003,None,1844.2862607710003,None,1844.2862607710003,None,1844.2862607710003,None,,,,,,,,,,,,,,,,,,,,,,,,,,,,,,,,,,,,,,,,,,,,001,7,2020_Jan_28_1031,spring_faces,3.1.5,60.00162316398872,
condition files/Stage2_1.xlsx,,B2,T2,r,"['s', 'r']","['Stratego', 'Risk']","[-0.15, 0.5]","[0.15, 0.5]",1,1,,,,,,,,,,,,,,,,,0,2,2,2,0,5,5,3,,,,,,,,,,,,,,,,,,,,,,,,,,,,,,,,,,,,,,,,,,,,,,,1846.2511045190013,None,1846.2511045190013,None,1846.2511045190013,None,r,1,1.3788195029992494,1847.8012457539999,None,1847.8012457539999,None,1847.8012457539999,None,1849.2355820380008,None,1849.2355820380008,None,1849.2355820380008,None,1849.2355820380008,None,,,,,,,,,,,,,,,,,,,,,,,,,,,,,,,,,,,,,,,,,,,,001,7,2020_Jan_28_1031,spring_faces,3.1.5,60.00162316398872,
condition files/Stage2_2.xlsx,,B1,T1,s,"['s', 'r']","['Stratego', 'Risk']","[-0.15, 0.5]","[0.15, 0.5]",1,1,,,,,,,,,,,,,,,,,0,3,3,3,0,0,0,2,,,,,,,,,,,,,,,,,,,,,,,,,,,,,,,,,,,,,,,,,,,,,,,1851.2182110050007,None,1851.2182110050007,None,1851.2182110050007,None,s,1,1.116918596000687,1852.7511423490005,None,1852.7511423490005,None,1852.7511423490005,None,1853.9350854260001,None,1853.9350854260001,None,1853.9350854260001,None,1853.9350854260001,None,,,,,,,,,,,,,,,,,,,,,,,,,,,,,,,,,,,,,,,,,,,,001,7,2020_Jan_28_1031,spring_faces,3.1.5,60.00162316398872,
condition files/Stage2_2.xlsx,,T4,B4,r,"['s', 'r']","['Stratego', 'Risk']","[-0.15, 0.5]","[0.15, 0.5]",1,1,,,,,,,,,,,,,,,,,0,3,3,3,0,1,1,5,,,,,,,,,,,,,,,,,,,,,,,,,,,,,,,,,,,,,,,,,,,,,,,1855.8848690940004,None,1855.8848690940004,None,1855.8848690940004,None,r,1,2.033870506000312,1857.4181493959995,None,1857.4181493959995,None,1857.4181493959995,None,1859.5345353260009,None,1859.5345353260009,None,1859.5345353260009,None,1859.5345353260009,None,,,,,,,,,,,,,,,,,,,,,,,,,,,,,,,,,,,,,,,,,,,,001,7,2020_Jan_28_1031,spring_faces,3.1.5,60.00162316398872,
condition files/Stage2_2.xlsx,,T2,B2,r,"['s', 'r']","['Stratego', 'Risk']","[-0.15, 0.5]","[0.15, 0.5]",1,1,,,,,,,,,,,,,,,,,0,3,3,3,0,2,2,3,,,,,,,,,,,,,,,,,,,,,,,,,,,,,,,,,,,,,,,,,,,,,,,1861.4847458040012,None,1861.4847458040012,None,1861.4847458040012,None,r,1,1.0092095250001876,1863.034901674001,None,1863.034901674001,None,1863.034901674001,None,1864.101405321001,None,1864.101405321001,None,1864.101405321001,None,1864.101405321001,None,,,,,,,,,,,,,,,,,,,,,,,,,,,,,,,,,,,,,,,,,,,,001,7,2020_Jan_28_1031,spring_faces,3.1.5,60.00162316398872,
condition files/Stage2_2.xlsx,,B5,T5,s,"['s', 'r']","['Stratego', 'Risk']","[-0.15, 0.5]","[0.15, 0.5]",1,1,,,,,,,,,,,,,,,,,0,3,3,3,0,3,3,0,,,,,,,,,,,,,,,,,,,,,,,,,,,,,,,,,,,,,,,,,,,,,,,1866.068033722001,None,1866.068033722001,None,1866.068033722001,None,s,1,0.6176895709995733,1867.618289156001,None,1867.618289156001,None,1867.618289156001,None,1868.318371122,None,1868.318371122,None,1868.318371122,None,1868.318371122,None,,,,,,,,,,,,,,,,,,,,,,,,,,,,,,,,,,,,,,,,,,,,001,7,2020_Jan_28_1031,spring_faces,3.1.5,60.00162316398872,
condition files/Stage2_2.xlsx,,B3,T3,s,"['s', 'r']","['Stratego', 'Risk']","[-0.15, 0.5]","[0.15, 0.5]",1,1,,,,,,,,,,,,,,,,,0,3,3,3,0,4,4,4,,,,,,,,,,,,,,,,,,,,,,,,,,,,,,,,,,,,,,,,,,,,,,,1870.2680958170013,None,1870.2680958170013,None,1870.2680958170013,None,r,0,0.9443705349985976,1871.8037025349995,None,1871.8037025349995,None,1871.8037025349995,None,1872.8015411309998,None,1872.8015411309998,None,1872.8015411309998,None,1872.8015411309998,None,,,,,,,,,,,,,,,,,,,,,,,,,,,,,,,,,,,,,,,,,,,,001,7,2020_Jan_28_1031,spring_faces,3.1.5,60.00162316398872,
condition files/Stage2_2.xlsx,,T6,B6,r,"['s', 'r']","['Stratego', 'Risk']","[-0.15, 0.5]","[0.15, 0.5]",1,1,,,,,,,,,,,,,,,,,0,3,3,3,0,5,5,1,,,,,,,,,,,,,,,,,,,,,,,,,,,,,,,,,,,,,,,,,,,,,,,1874.7681633900002,None,1874.7681633900002,None,1874.7681633900002,None,r,1,0.8140767139993841,1876.3019830470012,None,1876.3019830470012,None,1876.3019830470012,None,1877.1674974349999,None,1877.1674974349999,None,1877.1674974349999,None,1877.1674974349999,None,,,,,,,,,,,,,,,,,,,,,,,,,,,,,,,,,,,,,,,,,,,,001,7,2020_Jan_28_1031,spring_faces,3.1.5,60.00162316398872,
condition files/Stage2_1.xlsx,,T5,B5,s,"['s', 'r']","['Stratego', 'Risk']","[-0.15, 0.5]","[0.15, 0.5]",1,1,,,,,,,,,,,,,,,,,0,4,4,4,0,0,0,0,,,,,,,,,,,,,,,,,,,,,,,,,,,,,,,,,,,,,,,,,,,,,,,1879.151441209001,None,1879.151441209001,None,1879.151441209001,None,s,1,0.5436628940005903,1880.6844276680013,None,1880.6844276680013,None,1880.6844276680013,None,1881.3017902310012,None,1881.3017902310012,None,1881.3017902310012,None,1881.3017902310012,None,,,,,,,,,,,,,,,,,,,,,,,,,,,,,,,,,,,,,,,,,,,,001,7,2020_Jan_28_1031,spring_faces,3.1.5,60.00162316398872,
condition files/Stage2_1.xlsx,,B6,T6,r,"['s', 'r']","['Stratego', 'Risk']","[-0.15, 0.5]","[0.15, 0.5]",1,1,,,,,,,,,,,,,,,,,0,4,4,4,0,1,1,1,,,,,,,,,,,,,,,,,,,,,,,,,,,,,,,,,,,,,,,,,,,,,,,1883.2513086959998,None,1883.2513086959998,None,1883.2513086959998,None,r,1,0.7472474379992491,1884.7848156040009,None,1884.7848156040009,None,1884.7848156040009,None,1885.585401792,None,1885.585401792,None,1885.585401792,None,1885.585401792,None,,,,,,,,,,,,,,,,,,,,,,,,,,,,,,,,,,,,,,,,,,,,001,7,2020_Jan_28_1031,spring_faces,3.1.5,60.00162316398872,
