condsFile,subStage,cue1,cue2,correct,responseKeys,responseNames,cue1Position,cue2Position,cue1Opacity,cue2Opacity,stageLoop0.thisRepN,stageLoop0.thisTrialN,stageLoop0.thisN,stageLoop0.thisIndex,blockLoop0.thisRepN,blockLoop0.thisTrialN,blockLoop0.thisN,blockLoop0.thisIndex,stage1Loop.thisRepN,stage1Loop.thisTrialN,stage1Loop.thisN,stage1Loop.thisIndex,blockLoop1.thisRepN,blockLoop1.thisTrialN,blockLoop1.thisN,blockLoop1.thisIndex,stage2Loop.thisRepN,stage2Loop.thisTrialN,stage2Loop.thisN,stage2Loop.thisIndex,blockLoop2.thisRepN,blockLoop2.thisTrialN,blockLoop2.thisN,blockLoop2.thisIndex,testLoop.thisRepN,testLoop.thisTrialN,testLoop.thisN,testLoop.thisIndex,blockLoopTest.thisRepN,blockLoopTest.thisTrialN,blockLoopTest.thisN,blockLoopTest.thisIndex,cuePics,id_instr_text.started,id_instr_text.stopped,space_to_continue_2.started,space_to_continue_2.stopped,end_instructions_resp_3.keys,end_instructions_resp_3.rt,end_instructions_resp_3.started,end_instructions_resp_3.stopped,id_input_instr.started,id_input_instr.stopped,id_input_rect.started,id_input_rect.stopped,id_input_resp.keys,id_input_resp.rt,id_input_resp.started,id_input_resp.stopped,sonaID,id_input_text.started,id_input_text.stopped,final_text.started,final_text.stopped,instructions.started,instructions.stopped,end_instructions_resp.keys,end_instructions_resp.rt,end_instructions_resp.started,end_instructions_resp.stopped,space_to_continue.started,space_to_continue.stopped,instructions_stage0.started,instructions_stage0.stopped,end_instructions_resp_stage0.keys,end_instructions_resp_stage0.rt,end_instructions_resp_stage0.started,end_instructions_resp_stage0.stopped,space_to_continue_stage0.started,space_to_continue_stage0.stopped,text.started,text.stopped,resp_text1.started,resp_text1.stopped,resp_text2.started,resp_text2.stopped,trial_resp.keys,trial_resp.corr,trial_resp.rt,trial_resp.started,trial_resp.stopped,cue1Image.started,cue1Image.stopped,cue2Image.started,cue2Image.stopped,cue1Image_fb.started,cue1Image_fb.stopped,cue2Image_fb.started,cue2Image_fb.stopped,fb_text_answer.started,fb_text_answer.stopped,feedback_image.started,feedback_image.stopped,instructions_stage1.started,instructions_stage1.stopped,end_instructions_resp_stage1.keys,end_instructions_resp_stage1.rt,end_instructions_resp_stage1.started,end_instructions_resp_stage1.stopped,space_to_continue_stage1.started,space_to_continue_stage1.stopped,instructions_2.started,instructions_2.stopped,end_instructions_resp_2.keys,end_instructions_resp_2.rt,end_instructions_resp_2.started,end_instructions_resp_2.stopped,press_space_to_continue_stage2.started,press_space_to_continue_stage2.stopped,instructions_testStage1.started,instructions_testStage1.stopped,end_instructions_resp_test1.keys,end_instructions_resp_test1.rt,end_instructions_resp_test1.started,end_instructions_resp_test1.stopped,press_space_to_continue_test1.started,press_space_to_continue_test1.stopped,cue1Image_testChoice.started,cue1Image_testChoice.stopped,cue2Image_testChoice.started,cue2Image_testChoice.stopped,test_resp.keys,test_resp.corr,test_resp.rt,test_resp.started,test_resp.stopped,cue1Image_testConf.started,cue1Image_testConf.stopped,cue2Image_testConf.started,cue2Image_testConf.stopped,conf_reminder.started,conf_reminder.stopped,conf_rating.response,conf_rating.rt,conf_rating.started,conf_rating.stopped,session,participant,date,expName,psychopyVersion,frameRate,
,,,,,,,,,,,,,,,,,,,,,,,,,,,,,,,,,,,,,,,,,,,"{'none': 'pictures/20M_AN_C.png', 'alpha': 'pictures/SHINEd_melon.png', 'beta': 'pictures/SHINEd_pear.png', 'theta': 'pictures/SHINEd_apple.png', 'phi': 'pictures/SHINEd_pepper.png', 'T1': 'pictures/23M_AN_C.png', 'T2': 'pictures/26M_AN_C.png', 'T3': 'pictures/31M_AN_C.png', 'T4': 'pictures/33M_AN_C.png', 'T5': 'pictures/36M_AN_C.png', 'T6': 'pictures/37M_AN_C.png', 'B1': 'pictures/38M_NE_C.png', 'B2': 'pictures/34M_NE_C.png', 'B3': 'pictures/20M_NE_C.png', 'B4': 'pictures/25M_NE_C.png', 'B5': 'pictures/22M_NE_C.png', 'B6': 'pictures/32M_NE_C.png'}",12.765689218000261,None,17.765859514000113,None,space,18.080386579999868,17.765859514000113,None,,,,,,,,,,,,,,,,,,,,,,,,,,,,,,,,,,,,,,,,,,,,,,,,,,,,,,,,,,,,,,,,,,,,,,,,,,,,,,,,,,,,,,,,,,,,,,,,001,82,2020_Feb_06_1058,spring_faces,3.1.5,60.07360422230028,
,,,,,,,,,,,,,,,,,,,,,,,,,,,,,,,,,,,,,,,,,,,,,,,,,,,,36.23245483100072,None,36.23245483100072,None,"['0', '8', '1', '3', 'b', 'r', 'm', 'o', 'u']","[8.413773198999479, 8.749770533999254, 9.70974451300026, 9.965773280999201, 14.829773687999477, 15.005801449999126, 17.725843480999174, 18.06177743400076, 18.317727776000538]",36.23245483100072,None,,,,,,,,,,,,,,,,,,,,,,,,,,,,,,,,,,,,,,,,,,,,,,,,,,,,,,,,,,,,,,,,,,,,,,,,,,,,,,,,,,,,,,,,001,82,2020_Feb_06_1058,spring_faces,3.1.5,60.07360422230028,
,,,,,,,,,,,,,,,,,,,,,,,,,,,,,,,,,,,,,,,,,,,,,,,,,,,,,,,,,,,,0813brmou,36.23245483100072,None,36.23245483100072,None,59.63310062799974,None,space,7.4535308519989485,64.63271545300086,None,,,,,,,,,,,,,,,,,,,,,,,,,,,,,,,,,,,,,,,,,,,,,,,,,,,,,,,,,,,,,,,,,,,,,,,,,,,,,001,82,2020_Feb_06_1058,spring_faces,3.1.5,60.07360422230028,
,,,,,,,,,,,,,,,,,,,,,,,,,,,,,,,,,,,,,,,,,,,,,,,,,,,,,,,,,,,,,,,,,,,,,,,64.63271545300086,None,72.1325408749999,None,space,7.481716705999133,77.13252478100003,None,,,,,,,,,,,,,,,,,,,,,,,,,,,,,,,,,,,,,,,,,,,,,,,,,,,,,,,,,,,,,,,,,,,,,001,82,2020_Feb_06_1058,spring_faces,3.1.5,60.07360422230028,
condition files/Stage0a.xlsx,0a,beta,none,g,"['h', 'g']","['Chess', 'Go']","[0, 0.5]","[0, 0]",1,0,0,0,0,0,0,0,0,1,,,,,,,,,,,,,,,,,,,,,,,,,,,,,,,,,,,,,,,,,,,,,,,,,,,,,,,,,,,,,77.13252478100003,None,84.66584698600127,None,84.66584698600127,None,84.66584698600127,None,g,1,2.2367579440015106,86.24948622900047,None,86.24948622900047,None,86.24948622900047,None,88.56596910400003,None,88.56596910400003,None,88.56596910400003,None,88.56596910400003,None,,,,,,,,,,,,,,,,,,,,,,,,,,,,,,,,,,,,,,,,,,,,001,82,2020_Feb_06_1058,spring_faces,3.1.5,60.07360422230028,
condition files/Stage0a.xlsx,0a,alpha,none,h,"['h', 'g']","['Chess', 'Go']","[0, 0.5]","[0, 0]",1,0,0,0,0,0,0,1,1,0,,,,,,,,,,,,,,,,,,,,,,,,,,,,,,,,,,,,,,,,,,,,,,,,,,,,,,,,,,,,,,,90.51615338500051,None,90.51615338500051,None,90.51615338500051,None,h,1,1.1238694099993154,92.05043875000047,None,92.05043875000047,None,92.05043875000047,None,93.23224724700049,None,93.23224724700049,None,93.23224724700049,None,93.23224724700049,None,,,,,,,,,,,,,,,,,,,,,,,,,,,,,,,,,,,,,,,,,,,,001,82,2020_Feb_06_1058,spring_faces,3.1.5,60.07360422230028,
condition files/Stage0a.xlsx,0a,alpha,none,h,"['h', 'g']","['Chess', 'Go']","[0, 0.5]","[0, 0]",1,0,0,1,1,1,0,0,0,0,,,,,,,,,,,,,,,,,,,,,,,,,,,,,,,,,,,,,,,,,,,,,,,,,,,,,,,,,,,,,,,95.21652718900077,None,95.21652718900077,None,95.21652718900077,None,g,0,2.169371684998623,96.74886779400003,None,96.74886779400003,None,96.74886779400003,None,98.98285641400071,None,98.98285641400071,None,98.98285641400071,None,98.98285641400071,None,,,,,,,,,,,,,,,,,,,,,,,,,,,,,,,,,,,,,,,,,,,,001,82,2020_Feb_06_1058,spring_faces,3.1.5,60.07360422230028,
condition files/Stage0a.xlsx,0a,beta,none,g,"['h', 'g']","['Chess', 'Go']","[0, 0.5]","[0, 0]",1,0,0,1,1,1,0,1,1,1,,,,,,,,,,,,,,,,,,,,,,,,,,,,,,,,,,,,,,,,,,,,,,,,,,,,,,,,,,,,,,,100.95016621099967,None,100.95016621099967,None,100.95016621099967,None,h,0,1.5236173379998945,102.48269500700007,None,102.48269500700007,None,102.48269500700007,None,104.06623331999981,None,104.06623331999981,None,104.06623331999981,None,104.06623331999981,None,,,,,,,,,,,,,,,,,,,,,,,,,,,,,,,,,,,,,,,,,,,,001,82,2020_Feb_06_1058,spring_faces,3.1.5,60.07360422230028,
condition files/Stage0a.xlsx,0a,alpha,none,h,"['h', 'g']","['Chess', 'Go']","[0, 0.5]","[0, 0]",1,0,0,2,2,2,0,0,0,0,,,,,,,,,,,,,,,,,,,,,,,,,,,,,,,,,,,,,,,,,,,,,,,,,,,,,,,,,,,,,,,106.04900212800021,None,106.04900212800021,None,106.04900212800021,None,h,1,0.9513351990008232,107.58287949400074,None,107.58287949400074,None,107.58287949400074,None,108.59927836899988,None,108.59927836899988,None,108.59927836899988,None,108.59927836899988,None,,,,,,,,,,,,,,,,,,,,,,,,,,,,,,,,,,,,,,,,,,,,001,82,2020_Feb_06_1058,spring_faces,3.1.5,60.07360422230028,
condition files/Stage0a.xlsx,0a,beta,none,g,"['h', 'g']","['Chess', 'Go']","[0, 0.5]","[0, 0]",1,0,0,2,2,2,0,1,1,1,,,,,,,,,,,,,,,,,,,,,,,,,,,,,,,,,,,,,,,,,,,,,,,,,,,,,,,,,,,,,,,110.56700468500094,None,110.56700468500094,None,110.56700468500094,None,g,1,0.8185876500010636,112.09964335800032,None,112.09964335800032,None,112.09964335800032,None,112.98271266899974,None,112.98271266899974,None,112.98271266899974,None,112.98271266899974,None,,,,,,,,,,,,,,,,,,,,,,,,,,,,,,,,,,,,,,,,,,,,001,82,2020_Feb_06_1058,spring_faces,3.1.5,60.07360422230028,
condition files/Stage0a.xlsx,0a,beta,none,g,"['h', 'g']","['Chess', 'Go']","[0, 0.5]","[0, 0]",1,0,0,3,3,3,0,0,0,1,,,,,,,,,,,,,,,,,,,,,,,,,,,,,,,,,,,,,,,,,,,,,,,,,,,,,,,,,,,,,,,114.96615881599973,None,114.96615881599973,None,114.96615881599973,None,g,1,0.8674551810017874,116.49877228500009,None,116.49877228500009,None,116.49877228500009,None,117.41641082699971,None,117.41641082699971,None,117.41641082699971,None,117.41641082699971,None,,,,,,,,,,,,,,,,,,,,,,,,,,,,,,,,,,,,,,,,,,,,001,82,2020_Feb_06_1058,spring_faces,3.1.5,60.07360422230028,
condition files/Stage0a.xlsx,0a,alpha,none,h,"['h', 'g']","['Chess', 'Go']","[0, 0.5]","[0, 0]",1,0,0,3,3,3,0,1,1,0,,,,,,,,,,,,,,,,,,,,,,,,,,,,,,,,,,,,,,,,,,,,,,,,,,,,,,,,,,,,,,,119.38278261300002,None,119.38278261300002,None,119.38278261300002,None,h,1,0.7052554150013748,120.9169824340006,None,120.9169824340006,None,120.9169824340006,None,121.68191732600098,None,121.68191732600098,None,121.68191732600098,None,121.68191732600098,None,,,,,,,,,,,,,,,,,,,,,,,,,,,,,,,,,,,,,,,,,,,,001,82,2020_Feb_06_1058,spring_faces,3.1.5,60.07360422230028,
condition files/Stage0a.xlsx,0a,beta,none,g,"['h', 'g']","['Chess', 'Go']","[0, 0.5]","[0, 0]",1,0,0,4,4,4,0,0,0,1,,,,,,,,,,,,,,,,,,,,,,,,,,,,,,,,,,,,,,,,,,,,,,,,,,,,,,,,,,,,,,,123.6662403600003,None,123.6662403600003,None,123.6662403600003,None,g,1,0.7754977669992513,125.1827917669998,None,125.1827917669998,None,125.1827917669998,None,126.01625909200084,None,126.01625909200084,None,126.01625909200084,None,126.01625909200084,None,,,,,,,,,,,,,,,,,,,,,,,,,,,,,,,,,,,,,,,,,,,,001,82,2020_Feb_06_1058,spring_faces,3.1.5,60.07360422230028,
condition files/Stage0a.xlsx,0a,alpha,none,h,"['h', 'g']","['Chess', 'Go']","[0, 0.5]","[0, 0]",1,0,0,4,4,4,0,1,1,0,,,,,,,,,,,,,,,,,,,,,,,,,,,,,,,,,,,,,,,,,,,,,,,,,,,,,,,,,,,,,,,127.9826051680011,None,127.9826051680011,None,127.9826051680011,None,h,1,0.5703644620007253,129.51588647400058,None,129.51588647400058,None,129.51588647400058,None,130.14893340900016,None,130.14893340900016,None,130.14893340900016,None,130.14893340900016,None,,,,,,,,,,,,,,,,,,,,,,,,,,,,,,,,,,,,,,,,,,,,001,82,2020_Feb_06_1058,spring_faces,3.1.5,60.07360422230028,
condition files/Stage0a.xlsx,0a,beta,none,g,"['h', 'g']","['Chess', 'Go']","[0, 0.5]","[0, 0]",1,0,0,5,5,5,0,0,0,1,,,,,,,,,,,,,,,,,,,,,,,,,,,,,,,,,,,,,,,,,,,,,,,,,,,,,,,,,,,,,,,132.1321164680012,None,132.1321164680012,None,132.1321164680012,None,g,1,0.6288171840005816,133.64939952399982,None,133.64939952399982,None,133.64939952399982,None,134.3328993110008,None,134.3328993110008,None,134.3328993110008,None,134.3328993110008,None,,,,,,,,,,,,,,,,,,,,,,,,,,,,,,,,,,,,,,,,,,,,001,82,2020_Feb_06_1058,spring_faces,3.1.5,60.07360422230028,
condition files/Stage0a.xlsx,0a,alpha,none,h,"['h', 'g']","['Chess', 'Go']","[0, 0.5]","[0, 0]",1,0,0,5,5,5,0,1,1,0,,,,,,,,,,,,,,,,,,,,,,,,,,,,,,,,,,,,,,,,,,,,,,,,,,,,,,,,,,,,,,,136.29894615299963,None,136.29894615299963,None,136.29894615299963,None,h,1,0.5416157889994793,137.83268313699955,None,137.83268313699955,None,137.83268313699955,None,138.43216924199987,None,138.43216924199987,None,138.43216924199987,None,138.43216924199987,None,,,,,,,,,,,,,,,,,,,,,,,,,,,,,,,,,,,,,,,,,,,,001,82,2020_Feb_06_1058,spring_faces,3.1.5,60.07360422230028,
condition files/Stage0b_1.xlsx,0b,alpha,none,h,"['h', 'g']","['Chess', 'Go']","[-0.15, 0.5]","[0.15, 0.5]",1,0,0,6,6,6,0,0,0,0,,,,,,,,,,,,,,,,,,,,,,,,,,,,,,,,,,,,,,,,,,,,,,,,,,,,,,,,,,,,,,,140.41660490399954,None,140.41660490399954,None,140.41660490399954,None,h,1,0.6809033600002294,141.94934928300063,None,141.94934928300063,None,141.94934928300063,None,142.682064128001,None,142.682064128001,None,142.682064128001,None,142.682064128001,None,,,,,,,,,,,,,,,,,,,,,,,,,,,,,,,,,,,,,,,,,,,,001,82,2020_Feb_06_1058,spring_faces,3.1.5,60.07360422230028,
condition files/Stage0b_1.xlsx,0b,none,beta,g,"['h', 'g']","['Chess', 'Go']","[-0.15, 0.5]","[0.15, 0.5]",0,1,0,6,6,6,0,1,1,1,,,,,,,,,,,,,,,,,,,,,,,,,,,,,,,,,,,,,,,,,,,,,,,,,,,,,,,,,,,,,,,144.64924462099953,None,144.64924462099953,None,144.64924462099953,None,g,1,0.6546279329995741,146.1996167289999,None,146.1996167289999,None,146.1996167289999,None,146.9324330620002,None,146.9324330620002,None,146.9324330620002,None,146.9324330620002,None,,,,,,,,,,,,,,,,,,,,,,,,,,,,,,,,,,,,,,,,,,,,001,82,2020_Feb_06_1058,spring_faces,3.1.5,60.07360422230028,
condition files/Stage0b_2.xlsx,0b,beta,none,g,"['h', 'g']","['Chess', 'Go']","[-0.15, 0.5]","[0.15, 0.5]",1,0,0,7,7,7,0,0,0,1,,,,,,,,,,,,,,,,,,,,,,,,,,,,,,,,,,,,,,,,,,,,,,,,,,,,,,,,,,,,,,,148.8988335110007,None,148.8988335110007,None,148.8988335110007,None,g,1,0.5937820780000038,150.4204415969998,None,150.4204415969998,None,150.4204415969998,None,151.0661080610007,None,151.0661080610007,None,151.0661080610007,None,151.0661080610007,None,,,,,,,,,,,,,,,,,,,,,,,,,,,,,,,,,,,,,,,,,,,,001,82,2020_Feb_06_1058,spring_faces,3.1.5,60.07360422230028,
condition files/Stage0b_2.xlsx,0b,none,alpha,h,"['h', 'g']","['Chess', 'Go']","[-0.15, 0.5]","[0.15, 0.5]",0,1,0,7,7,7,0,1,1,0,,,,,,,,,,,,,,,,,,,,,,,,,,,,,,,,,,,,,,,,,,,,,,,,,,,,,,,,,,,,,,,153.03212663700106,None,153.03212663700106,None,153.03212663700106,None,h,1,0.6541280410001491,154.56813119700018,None,154.56813119700018,None,154.56813119700018,None,155.28766404599992,None,155.28766404599992,None,155.28766404599992,None,155.28766404599992,None,,,,,,,,,,,,,,,,,,,,,,,,,,,,,,,,,,,,,,,,,,,,001,82,2020_Feb_06_1058,spring_faces,3.1.5,60.07360422230028,
condition files/Stage0b_1.xlsx,0b,alpha,none,h,"['h', 'g']","['Chess', 'Go']","[-0.15, 0.5]","[0.15, 0.5]",1,0,0,8,8,8,0,0,0,0,,,,,,,,,,,,,,,,,,,,,,,,,,,,,,,,,,,,,,,,,,,,,,,,,,,,,,,,,,,,,,,157.26575220800078,None,157.26575220800078,None,157.26575220800078,None,h,1,0.8991018859996984,158.80315598200104,None,158.80315598200104,None,158.80315598200104,None,159.76610531699953,None,159.76610531699953,None,159.76610531699953,None,159.76610531699953,None,,,,,,,,,,,,,,,,,,,,,,,,,,,,,,,,,,,,,,,,,,,,001,82,2020_Feb_06_1058,spring_faces,3.1.5,60.07360422230028,
condition files/Stage0b_1.xlsx,0b,none,beta,g,"['h', 'g']","['Chess', 'Go']","[-0.15, 0.5]","[0.15, 0.5]",0,1,0,8,8,8,0,1,1,1,,,,,,,,,,,,,,,,,,,,,,,,,,,,,,,,,,,,,,,,,,,,,,,,,,,,,,,,,,,,,,,161.7325014850012,None,161.7325014850012,None,161.7325014850012,None,g,1,0.5301923389997683,163.26805594600046,None,163.26805594600046,None,163.26805594600046,None,163.86620238700016,None,163.86620238700016,None,163.86620238700016,None,163.86620238700016,None,,,,,,,,,,,,,,,,,,,,,,,,,,,,,,,,,,,,,,,,,,,,001,82,2020_Feb_06_1058,spring_faces,3.1.5,60.07360422230028,
condition files/Stage0b_2.xlsx,0b,none,alpha,h,"['h', 'g']","['Chess', 'Go']","[-0.15, 0.5]","[0.15, 0.5]",0,1,0,9,9,9,0,0,0,0,,,,,,,,,,,,,,,,,,,,,,,,,,,,,,,,,,,,,,,,,,,,,,,,,,,,,,,,,,,,,,,165.8327403960011,None,165.8327403960011,None,165.8327403960011,None,h,1,0.5926151430012396,167.3657256509996,None,167.3657256509996,None,167.3657256509996,None,168.015772277,None,168.015772277,None,168.015772277,None,168.015772277,None,,,,,,,,,,,,,,,,,,,,,,,,,,,,,,,,,,,,,,,,,,,,001,82,2020_Feb_06_1058,spring_faces,3.1.5,60.07360422230028,
condition files/Stage0b_2.xlsx,0b,beta,none,g,"['h', 'g']","['Chess', 'Go']","[-0.15, 0.5]","[0.15, 0.5]",1,0,0,9,9,9,0,1,1,1,,,,,,,,,,,,,,,,,,,,,,,,,,,,,,,,,,,,,,,,,,,,,,,,,,,,,,,,,,,,,,,169.98248918300123,None,169.98248918300123,None,169.98248918300123,None,g,1,0.5484277430005022,171.5217908630002,None,171.5217908630002,None,171.5217908630002,None,172.1496497600001,None,172.1496497600001,None,172.1496497600001,None,172.1496497600001,None,,,,,,,,,,,,,,,,,,,,,,,,,,,,,,,,,,,,,,,,,,,,001,82,2020_Feb_06_1058,spring_faces,3.1.5,60.07360422230028,
condition files/Stage0b_1.xlsx,0b,alpha,none,h,"['h', 'g']","['Chess', 'Go']","[-0.15, 0.5]","[0.15, 0.5]",1,0,0,10,10,10,0,0,0,0,,,,,,,,,,,,,,,,,,,,,,,,,,,,,,,,,,,,,,,,,,,,,,,,,,,,,,,,,,,,,,,174.1161536340005,None,174.1161536340005,None,174.1161536340005,None,h,1,0.5976005289994646,175.64880690999962,None,175.64880690999962,None,175.64880690999962,None,176.29904646500108,None,176.29904646500108,None,176.29904646500108,None,176.29904646500108,None,,,,,,,,,,,,,,,,,,,,,,,,,,,,,,,,,,,,,,,,,,,,001,82,2020_Feb_06_1058,spring_faces,3.1.5,60.07360422230028,
condition files/Stage0b_1.xlsx,0b,none,beta,g,"['h', 'g']","['Chess', 'Go']","[-0.15, 0.5]","[0.15, 0.5]",0,1,0,10,10,10,0,1,1,1,,,,,,,,,,,,,,,,,,,,,,,,,,,,,,,,,,,,,,,,,,,,,,,,,,,,,,,,,,,,,,,178.2653195310013,None,178.2653195310013,None,178.2653195310013,None,g,1,0.5732926950004185,179.80102065500068,None,179.80102065500068,None,179.80102065500068,None,180.43599816900132,None,180.43599816900132,None,180.43599816900132,None,180.43599816900132,None,,,,,,,,,,,,,,,,,,,,,,,,,,,,,,,,,,,,,,,,,,,,001,82,2020_Feb_06_1058,spring_faces,3.1.5,60.07360422230028,
condition files/Stage0b_2.xlsx,0b,beta,none,g,"['h', 'g']","['Chess', 'Go']","[-0.15, 0.5]","[0.15, 0.5]",1,0,0,11,11,11,0,0,0,1,,,,,,,,,,,,,,,,,,,,,,,,,,,,,,,,,,,,,,,,,,,,,,,,,,,,,,,,,,,,,,,182.4158260990007,None,182.4158260990007,None,182.4158260990007,None,g,1,0.8091604969995387,183.9491621190009,None,183.9491621190009,None,183.9491621190009,None,184.8161683039998,None,184.8161683039998,None,184.8161683039998,None,184.8161683039998,None,,,,,,,,,,,,,,,,,,,,,,,,,,,,,,,,,,,,,,,,,,,,001,82,2020_Feb_06_1058,spring_faces,3.1.5,60.07360422230028,
condition files/Stage0b_2.xlsx,0b,none,alpha,h,"['h', 'g']","['Chess', 'Go']","[-0.15, 0.5]","[0.15, 0.5]",0,1,0,11,11,11,0,1,1,0,,,,,,,,,,,,,,,,,,,,,,,,,,,,,,,,,,,,,,,,,,,,,,,,,,,,,,,,,,,,,,,186.7824844429997,None,186.7824844429997,None,186.7824844429997,None,h,1,0.7928521640005783,188.31737779300056,None,188.31737779300056,None,188.31737779300056,None,189.16695231300037,None,189.16695231300037,None,189.16695231300037,None,189.16695231300037,None,,,,,,,,,,,,,,,,,,,,,,,,,,,,,,,,,,,,,,,,,,,,001,82,2020_Feb_06_1058,spring_faces,3.1.5,60.07360422230028,
condition files/Stage0c_1.xlsx,0c,beta,theta,g,"['h', 'g']","['Chess', 'Go']","[-0.15, 0.5]","[0.15, 0.5]",1,1,0,12,12,12,0,0,0,2,,,,,,,,,,,,,,,,,,,,,,,,,,,,,,,,,,,,,,,,,,,,,,,,,,,,,,,,,,,,,,,191.14970304599956,None,191.14970304599956,None,191.14970304599956,None,g,1,1.979056705999028,192.68319057900044,None,192.68319057900044,None,192.68319057900044,None,194.7159688160009,None,194.7159688160009,None,194.7159688160009,None,194.7159688160009,None,,,,,,,,,,,,,,,,,,,,,,,,,,,,,,,,,,,,,,,,,,,,001,82,2020_Feb_06_1058,spring_faces,3.1.5,60.07360422230028,
condition files/Stage0c_1.xlsx,0c,phi,beta,g,"['h', 'g']","['Chess', 'Go']","[-0.15, 0.5]","[0.15, 0.5]",1,1,0,12,12,12,0,1,1,3,,,,,,,,,,,,,,,,,,,,,,,,,,,,,,,,,,,,,,,,,,,,,,,,,,,,,,,,,,,,,,,196.68272859300123,None,196.68272859300123,None,196.68272859300123,None,h,0,0.6220698990000528,198.21615985800054,None,198.21615985800054,None,198.21615985800054,None,198.8997532680005,None,198.8997532680005,None,198.8997532680005,None,198.8997532680005,None,,,,,,,,,,,,,,,,,,,,,,,,,,,,,,,,,,,,,,,,,,,,001,82,2020_Feb_06_1058,spring_faces,3.1.5,60.07360422230028,
condition files/Stage0c_1.xlsx,0c,alpha,phi,h,"['h', 'g']","['Chess', 'Go']","[-0.15, 0.5]","[0.15, 0.5]",1,1,0,12,12,12,0,2,2,1,,,,,,,,,,,,,,,,,,,,,,,,,,,,,,,,,,,,,,,,,,,,,,,,,,,,,,,,,,,,,,,200.86607802500112,None,200.86607802500112,None,200.86607802500112,None,h,1,0.7266791250003735,202.3994773180002,None,202.3994773180002,None,202.3994773180002,None,203.1824489190003,None,203.1824489190003,None,203.1824489190003,None,203.1824489190003,None,,,,,,,,,,,,,,,,,,,,,,,,,,,,,,,,,,,,,,,,,,,,001,82,2020_Feb_06_1058,spring_faces,3.1.5,60.07360422230028,
condition files/Stage0c_1.xlsx,0c,theta,alpha,h,"['h', 'g']","['Chess', 'Go']","[-0.15, 0.5]","[0.15, 0.5]",1,1,0,12,12,12,0,3,3,0,,,,,,,,,,,,,,,,,,,,,,,,,,,,,,,,,,,,,,,,,,,,,,,,,,,,,,,,,,,,,,,205.14934248099962,None,205.14934248099962,None,205.14934248099962,None,h,1,0.6513794889997371,206.68281324000054,None,206.68281324000054,None,206.68281324000054,None,207.38242776399966,None,207.38242776399966,None,207.38242776399966,None,207.38242776399966,None,,,,,,,,,,,,,,,,,,,,,,,,,,,,,,,,,,,,,,,,,,,,001,82,2020_Feb_06_1058,spring_faces,3.1.5,60.07360422230028,
condition files/Stage0c_2.xlsx,0c,phi,alpha,h,"['h', 'g']","['Chess', 'Go']","[-0.15, 0.5]","[0.15, 0.5]",1,1,0,13,13,13,0,0,0,1,,,,,,,,,,,,,,,,,,,,,,,,,,,,,,,,,,,,,,,,,,,,,,,,,,,,,,,,,,,,,,,209.38295284200103,None,209.38295284200103,None,209.38295284200103,None,h,1,0.9941068600001017,210.91613986999982,None,210.91613986999982,None,210.91613986999982,None,211.95128579300035,None,211.95128579300035,None,211.95128579300035,None,211.95128579300035,None,,,,,,,,,,,,,,,,,,,,,,,,,,,,,,,,,,,,,,,,,,,,001,82,2020_Feb_06_1058,spring_faces,3.1.5,60.07360422230028,
condition files/Stage0c_2.xlsx,0c,beta,phi,g,"['h', 'g']","['Chess', 'Go']","[-0.15, 0.5]","[0.15, 0.5]",1,1,0,13,13,13,0,1,1,3,,,,,,,,,,,,,,,,,,,,,,,,,,,,,,,,,,,,,,,,,,,,,,,,,,,,,,,,,,,,,,,213.93248798999957,None,213.93248798999957,None,213.93248798999957,None,g,1,0.7478610560010566,215.46635842400065,None,215.46635842400065,None,215.46635842400065,None,216.26579182600108,None,216.26579182600108,None,216.26579182600108,None,216.26579182600108,None,,,,,,,,,,,,,,,,,,,,,,,,,,,,,,,,,,,,,,,,,,,,001,82,2020_Feb_06_1058,spring_faces,3.1.5,60.07360422230028,
condition files/Stage0c_2.xlsx,0c,alpha,theta,h,"['h', 'g']","['Chess', 'Go']","[-0.15, 0.5]","[0.15, 0.5]",1,1,0,13,13,13,0,2,2,0,,,,,,,,,,,,,,,,,,,,,,,,,,,,,,,,,,,,,,,,,,,,,,,,,,,,,,,,,,,,,,,218.23234728900024,None,218.23234728900024,None,218.23234728900024,None,h,1,0.960072219999347,219.76622780700018,None,219.76622780700018,None,219.76622780700018,None,220.78224481899997,None,220.78224481899997,None,220.78224481899997,None,220.78224481899997,None,,,,,,,,,,,,,,,,,,,,,,,,,,,,,,,,,,,,,,,,,,,,001,82,2020_Feb_06_1058,spring_faces,3.1.5,60.07360422230028,
condition files/Stage0c_2.xlsx,0c,theta,beta,g,"['h', 'g']","['Chess', 'Go']","[-0.15, 0.5]","[0.15, 0.5]",1,1,0,13,13,13,0,3,3,2,,,,,,,,,,,,,,,,,,,,,,,,,,,,,,,,,,,,,,,,,,,,,,,,,,,,,,,,,,,,,,,222.74874166799964,None,222.74874166799964,None,222.74874166799964,None,h,0,0.7318347309992532,224.28239568000026,None,224.28239568000026,None,224.28239568000026,None,225.06600275700112,None,225.06600275700112,None,225.06600275700112,None,225.06600275700112,None,,,,,,,,,,,,,,,,,,,,,,,,,,,,,,,,,,,,,,,,,,,,001,82,2020_Feb_06_1058,spring_faces,3.1.5,60.07360422230028,
condition files/Stage0c_1.xlsx,0c,theta,alpha,h,"['h', 'g']","['Chess', 'Go']","[-0.15, 0.5]","[0.15, 0.5]",1,1,0,14,14,14,0,0,0,0,,,,,,,,,,,,,,,,,,,,,,,,,,,,,,,,,,,,,,,,,,,,,,,,,,,,,,,,,,,,,,,227.04933890200118,None,227.04933890200118,None,227.04933890200118,None,h,1,0.7352049519995489,228.58303777500078,None,228.58303777500078,None,228.58303777500078,None,229.38242689599974,None,229.38242689599974,None,229.38242689599974,None,229.38242689599974,None,,,,,,,,,,,,,,,,,,,,,,,,,,,,,,,,,,,,,,,,,,,,001,82,2020_Feb_06_1058,spring_faces,3.1.5,60.07360422230028,
condition files/Stage0c_1.xlsx,0c,phi,beta,g,"['h', 'g']","['Chess', 'Go']","[-0.15, 0.5]","[0.15, 0.5]",1,1,0,14,14,14,0,1,1,3,,,,,,,,,,,,,,,,,,,,,,,,,,,,,,,,,,,,,,,,,,,,,,,,,,,,,,,,,,,,,,,231.34965886200007,None,231.34965886200007,None,231.34965886200007,None,g,1,0.7233654589999787,232.88291825600027,None,232.88291825600027,None,232.88291825600027,None,233.66638217699983,None,233.66638217699983,None,233.66638217699983,None,233.66638217699983,None,,,,,,,,,,,,,,,,,,,,,,,,,,,,,,,,,,,,,,,,,,,,001,82,2020_Feb_06_1058,spring_faces,3.1.5,60.07360422230028,
condition files/Stage0c_1.xlsx,0c,beta,theta,g,"['h', 'g']","['Chess', 'Go']","[-0.15, 0.5]","[0.15, 0.5]",1,1,0,14,14,14,0,2,2,2,,,,,,,,,,,,,,,,,,,,,,,,,,,,,,,,,,,,,,,,,,,,,,,,,,,,,,,,,,,,,,,235.63231048600028,None,235.63231048600028,None,235.63231048600028,None,g,1,1.2720224950007832,237.16621918599958,None,237.16621918599958,None,237.16621918599958,None,238.48296939300053,None,238.48296939300053,None,238.48296939300053,None,238.48296939300053,None,,,,,,,,,,,,,,,,,,,,,,,,,,,,,,,,,,,,,,,,,,,,001,82,2020_Feb_06_1058,spring_faces,3.1.5,60.07360422230028,
condition files/Stage0c_1.xlsx,0c,alpha,phi,h,"['h', 'g']","['Chess', 'Go']","[-0.15, 0.5]","[0.15, 0.5]",1,1,0,14,14,14,0,3,3,1,,,,,,,,,,,,,,,,,,,,,,,,,,,,,,,,,,,,,,,,,,,,,,,,,,,,,,,,,,,,,,,240.46663882600114,None,240.46663882600114,None,240.46663882600114,None,h,1,0.7747071890007646,241.99959470300018,None,241.99959470300018,None,241.99959470300018,None,242.83305043899963,None,242.83305043899963,None,242.83305043899963,None,242.83305043899963,None,,,,,,,,,,,,,,,,,,,,,,,,,,,,,,,,,,,,,,,,,,,,001,82,2020_Feb_06_1058,spring_faces,3.1.5,60.07360422230028,
condition files/Stage0c_2.xlsx,0c,alpha,theta,h,"['h', 'g']","['Chess', 'Go']","[-0.15, 0.5]","[0.15, 0.5]",1,1,0,15,15,15,0,0,0,0,,,,,,,,,,,,,,,,,,,,,,,,,,,,,,,,,,,,,,,,,,,,,,,,,,,,,,,,,,,,,,,244.81584420699983,None,244.81584420699983,None,244.81584420699983,None,h,1,0.7126930590002303,246.349549777,None,246.349549777,None,246.349549777,None,247.10153053500107,None,247.10153053500107,None,247.10153053500107,None,247.10153053500107,None,,,,,,,,,,,,,,,,,,,,,,,,,,,,,,,,,,,,,,,,,,,,001,82,2020_Feb_06_1058,spring_faces,3.1.5,60.07360422230028,
condition files/Stage0c_2.xlsx,0c,beta,phi,g,"['h', 'g']","['Chess', 'Go']","[-0.15, 0.5]","[0.15, 0.5]",1,1,0,15,15,15,0,1,1,3,,,,,,,,,,,,,,,,,,,,,,,,,,,,,,,,,,,,,,,,,,,,,,,,,,,,,,,,,,,,,,,249.08175203800056,None,249.08175203800056,None,249.08175203800056,None,g,1,0.8620534820001922,250.61615445899952,None,250.61615445899952,None,250.61615445899952,None,251.53247920499962,None,251.53247920499962,None,251.53247920499962,None,251.53247920499962,None,,,,,,,,,,,,,,,,,,,,,,,,,,,,,,,,,,,,,,,,,,,,001,82,2020_Feb_06_1058,spring_faces,3.1.5,60.07360422230028,
condition files/Stage0c_2.xlsx,0c,theta,beta,g,"['h', 'g']","['Chess', 'Go']","[-0.15, 0.5]","[0.15, 0.5]",1,1,0,15,15,15,0,2,2,2,,,,,,,,,,,,,,,,,,,,,,,,,,,,,,,,,,,,,,,,,,,,,,,,,,,,,,,,,,,,,,,253.49935570100024,None,253.49935570100024,None,253.49935570100024,None,g,1,0.957209371999852,255.03309378300037,None,255.03309378300037,None,255.03309378300037,None,256.03254629299954,None,256.03254629299954,None,256.03254629299954,None,256.03254629299954,None,,,,,,,,,,,,,,,,,,,,,,,,,,,,,,,,,,,,,,,,,,,,001,82,2020_Feb_06_1058,spring_faces,3.1.5,60.07360422230028,
condition files/Stage0c_2.xlsx,0c,phi,alpha,h,"['h', 'g']","['Chess', 'Go']","[-0.15, 0.5]","[0.15, 0.5]",1,1,0,15,15,15,0,3,3,1,,,,,,,,,,,,,,,,,,,,,,,,,,,,,,,,,,,,,,,,,,,,,,,,,,,,,,,,,,,,,,,258.01596016500116,None,258.01596016500116,None,258.01596016500116,None,h,1,0.6007771320000757,259.5494310670001,None,259.5494310670001,None,259.5494310670001,None,260.2022097500012,None,260.2022097500012,None,260.2022097500012,None,260.2022097500012,None,,,,,,,,,,,,,,,,,,,,,,,,,,,,,,,,,,,,,,,,,,,,001,82,2020_Feb_06_1058,spring_faces,3.1.5,60.07360422230028,
condition files/Stage0c_1.xlsx,0c,beta,theta,g,"['h', 'g']","['Chess', 'Go']","[-0.15, 0.5]","[0.15, 0.5]",1,1,0,16,16,16,0,0,0,2,,,,,,,,,,,,,,,,,,,,,,,,,,,,,,,,,,,,,,,,,,,,,,,,,,,,,,,,,,,,,,,262.1996545439997,None,262.1996545439997,None,262.1996545439997,None,g,1,0.6895319610011938,263.7327145220006,None,263.7327145220006,None,263.7327145220006,None,264.4827389479997,None,264.4827389479997,None,264.4827389479997,None,264.4827389479997,None,,,,,,,,,,,,,,,,,,,,,,,,,,,,,,,,,,,,,,,,,,,,001,82,2020_Feb_06_1058,spring_faces,3.1.5,60.07360422230028,
condition files/Stage0c_1.xlsx,0c,alpha,phi,h,"['h', 'g']","['Chess', 'Go']","[-0.15, 0.5]","[0.15, 0.5]",1,1,0,16,16,16,0,1,1,1,,,,,,,,,,,,,,,,,,,,,,,,,,,,,,,,,,,,,,,,,,,,,,,,,,,,,,,,,,,,,,,266.4490072820008,None,266.4490072820008,None,266.4490072820008,None,h,1,0.6472223000000668,267.98301069400077,None,267.98301069400077,None,267.98301069400077,None,268.68254565999996,None,268.68254565999996,None,268.68254565999996,None,268.68254565999996,None,,,,,,,,,,,,,,,,,,,,,,,,,,,,,,,,,,,,,,,,,,,,001,82,2020_Feb_06_1058,spring_faces,3.1.5,60.07360422230028,
condition files/Stage0c_1.xlsx,0c,theta,alpha,h,"['h', 'g']","['Chess', 'Go']","[-0.15, 0.5]","[0.15, 0.5]",1,1,0,16,16,16,0,2,2,0,,,,,,,,,,,,,,,,,,,,,,,,,,,,,,,,,,,,,,,,,,,,,,,,,,,,,,,,,,,,,,,270.649235750001,None,270.649235750001,None,270.649235750001,None,h,1,0.7193563040000299,272.18290020099994,None,272.18290020099994,None,272.18290020099994,None,272.94941828300034,None,272.94941828300034,None,272.94941828300034,None,272.94941828300034,None,,,,,,,,,,,,,,,,,,,,,,,,,,,,,,,,,,,,,,,,,,,,001,82,2020_Feb_06_1058,spring_faces,3.1.5,60.07360422230028,
condition files/Stage0c_1.xlsx,0c,phi,beta,g,"['h', 'g']","['Chess', 'Go']","[-0.15, 0.5]","[0.15, 0.5]",1,1,0,16,16,16,0,3,3,3,,,,,,,,,,,,,,,,,,,,,,,,,,,,,,,,,,,,,,,,,,,,,,,,,,,,,,,,,,,,,,,274.933446256,None,274.933446256,None,274.933446256,None,g,1,0.7078109829999448,276.46648701699996,None,276.46648701699996,None,276.46648701699996,None,277.2324621480002,None,277.2324621480002,None,277.2324621480002,None,277.2324621480002,None,,,,,,,,,,,,,,,,,,,,,,,,,,,,,,,,,,,,,,,,,,,,001,82,2020_Feb_06_1058,spring_faces,3.1.5,60.07360422230028,
condition files/Stage0c_2.xlsx,0c,beta,phi,g,"['h', 'g']","['Chess', 'Go']","[-0.15, 0.5]","[0.15, 0.5]",1,1,0,17,17,17,0,0,0,3,,,,,,,,,,,,,,,,,,,,,,,,,,,,,,,,,,,,,,,,,,,,,,,,,,,,,,,,,,,,,,,279.216370569,None,279.216370569,None,279.216370569,None,h,0,0.9526538509999227,280.74959372800004,None,280.74959372800004,None,280.74959372800004,None,281.75220967800124,None,281.75220967800124,None,281.75220967800124,None,281.75220967800124,None,,,,,,,,,,,,,,,,,,,,,,,,,,,,,,,,,,,,,,,,,,,,001,82,2020_Feb_06_1058,spring_faces,3.1.5,60.07360422230028,
condition files/Stage0c_2.xlsx,0c,theta,beta,g,"['h', 'g']","['Chess', 'Go']","[-0.15, 0.5]","[0.15, 0.5]",1,1,0,17,17,17,0,1,1,2,,,,,,,,,,,,,,,,,,,,,,,,,,,,,,,,,,,,,,,,,,,,,,,,,,,,,,,,,,,,,,,283.73255160699955,None,283.73255160699955,None,283.73255160699955,None,g,1,0.659700783999142,285.26659785300035,None,285.26659785300035,None,285.26659785300035,None,285.98254730900044,None,285.98254730900044,None,285.98254730900044,None,285.98254730900044,None,,,,,,,,,,,,,,,,,,,,,,,,,,,,,,,,,,,,,,,,,,,,001,82,2020_Feb_06_1058,spring_faces,3.1.5,60.07360422230028,
condition files/Stage0c_2.xlsx,0c,alpha,theta,h,"['h', 'g']","['Chess', 'Go']","[-0.15, 0.5]","[0.15, 0.5]",1,1,0,17,17,17,0,2,2,0,,,,,,,,,,,,,,,,,,,,,,,,,,,,,,,,,,,,,,,,,,,,,,,,,,,,,,,,,,,,,,,287.94917915100086,None,287.94917915100086,None,287.94917915100086,None,h,1,0.667339236000771,289.4828706370008,None,289.4828706370008,None,289.4828706370008,None,290.2163178190003,None,290.2163178190003,None,290.2163178190003,None,290.2163178190003,None,,,,,,,,,,,,,,,,,,,,,,,,,,,,,,,,,,,,,,,,,,,,001,82,2020_Feb_06_1058,spring_faces,3.1.5,60.07360422230028,
condition files/Stage0c_2.xlsx,0c,phi,alpha,h,"['h', 'g']","['Chess', 'Go']","[-0.15, 0.5]","[0.15, 0.5]",1,1,0,17,17,17,0,3,3,1,,,,,,,,,,,,,,,,,,,,,,,,,,,,,,,,,,,,,,,,,,,,,,,,,,,,,,,,,,,,,,,292.182529523001,None,292.182529523001,None,292.182529523001,None,h,1,0.6738016079998488,293.71640862499953,None,293.71640862499953,None,293.71640862499953,None,294.4345835740005,None,294.4345835740005,None,294.4345835740005,None,294.4345835740005,None,,,,,,,,,,,,,,,,,,,,,,,,,,,,,,,,,,,,,,,,,,,,001,82,2020_Feb_06_1058,spring_faces,3.1.5,60.07360422230028,
,,,,,,,,,,,,,,,,,,,,,,,,,,,,,,,,,,,,,,,,,,,,,,,,,,,,,,,,,,,,,,,,,,,,,,,,,,,,,,,,,,,,,,,,,,,,,,,,,,,,,,,,296.43259441699956,None,space,1.0216196090004814,301.4326429440007,None,,,,,,,,,,,,,,,,,,,,,,,,,,,,,,,,,,,,,,001,82,2020_Feb_06_1058,spring_faces,3.1.5,60.07360422230028,
condition files/Stage1_1.xlsx,,B4,T4,m,"['c', 'm']","['Clue', 'Monopoly']","[-0.15, 0.5]","[0.15, 0.5]",1,1,,,,,,,,,0,0,0,0,0,0,0,7,,,,,,,,,,,,,,,,,,,,,,,,,,,,,,,,,,,,,,,,,,,,,,,,,,,,,,,302.51581587700093,None,302.51581587700093,None,302.51581587700093,None,c,0,1.3486375460015552,304.049556381,None,304.049556381,None,304.049556381,None,305.4656717500002,None,305.4656717500002,None,305.4656717500002,None,305.4656717500002,None,,,,,,,301.4326429440007,None,,,,,,,,,,,,,,,,,,,,,,,,,,,,,,,,,,,,001,82,2020_Feb_06_1058,spring_faces,3.1.5,60.07360422230028,
condition files/Stage1_1.xlsx,,T1,B1,c,"['c', 'm']","['Clue', 'Monopoly']","[-0.15, 0.5]","[0.15, 0.5]",1,1,,,,,,,,,0,0,0,0,0,1,1,0,,,,,,,,,,,,,,,,,,,,,,,,,,,,,,,,,,,,,,,,,,,,,,,,,,,,,,,307.4157862539996,None,307.4157862539996,None,307.4157862539996,None,c,1,0.8314225550002448,308.9828112209998,None,308.9828112209998,None,308.9828112209998,None,309.8654952600009,None,309.8654952600009,None,309.8654952600009,None,309.8654952600009,None,,,,,,,,,,,,,,,,,,,,,,,,,,,,,,,,,,,,,,,,,,,,001,82,2020_Feb_06_1058,spring_faces,3.1.5,60.07360422230028,
condition files/Stage1_1.xlsx,,T2,B2,m,"['c', 'm']","['Clue', 'Monopoly']","[-0.15, 0.5]","[0.15, 0.5]",1,1,,,,,,,,,0,0,0,0,0,2,2,3,,,,,,,,,,,,,,,,,,,,,,,,,,,,,,,,,,,,,,,,,,,,,,,,,,,,,,,311.8327228630005,None,311.8327228630005,None,311.8327228630005,None,m,1,0.8621933459999127,313.3680587729996,None,313.3680587729996,None,313.3680587729996,None,314.2828970700011,None,314.2828970700011,None,314.2828970700011,None,314.2828970700011,None,,,,,,,,,,,,,,,,,,,,,,,,,,,,,,,,,,,,,,,,,,,,001,82,2020_Feb_06_1058,spring_faces,3.1.5,60.07360422230028,
condition files/Stage1_1.xlsx,,B2,T1,m,"['c', 'm']","['Clue', 'Monopoly']","[-0.15, 0.5]","[0.15, 0.5]",1,1,,,,,,,,,0,0,0,0,0,3,3,2,,,,,,,,,,,,,,,,,,,,,,,,,,,,,,,,,,,,,,,,,,,,,,,,,,,,,,,316.2492658230003,None,316.2492658230003,None,316.2492658230003,None,m,1,0.9919986340009928,317.78233091699985,None,317.78233091699985,None,317.78233091699985,None,318.83253575399976,None,318.83253575399976,None,318.83253575399976,None,318.83253575399976,None,,,,,,,,,,,,,,,,,,,,,,,,,,,,,,,,,,,,,,,,,,,,001,82,2020_Feb_06_1058,spring_faces,3.1.5,60.07360422230028,
condition files/Stage1_1.xlsx,,T4,B3,m,"['c', 'm']","['Clue', 'Monopoly']","[-0.15, 0.5]","[0.15, 0.5]",1,1,,,,,,,,,0,0,0,0,0,4,4,6,,,,,,,,,,,,,,,,,,,,,,,,,,,,,,,,,,,,,,,,,,,,,,,,,,,,,,,320.7992346539995,None,320.7992346539995,None,320.7992346539995,None,c,0,1.0497736750003241,322.3324739030013,None,322.3324739030013,None,322.3324739030013,None,323.4326749989996,None,323.4326749989996,None,323.4326749989996,None,323.4326749989996,None,,,,,,,,,,,,,,,,,,,,,,,,,,,,,,,,,,,,,,,,,,,,001,82,2020_Feb_06_1058,spring_faces,3.1.5,60.07360422230028,
condition files/Stage1_1.xlsx,,B1,T2,c,"['c', 'm']","['Clue', 'Monopoly']","[-0.15, 0.5]","[0.15, 0.5]",1,1,,,,,,,,,0,0,0,0,0,5,5,1,,,,,,,,,,,,,,,,,,,,,,,,,,,,,,,,,,,,,,,,,,,,,,,,,,,,,,,325.3990437709999,None,325.3990437709999,None,325.3990437709999,None,c,1,0.6257934410004964,326.9325311650009,None,326.9325311650009,None,326.9325311650009,None,327.6158882060008,None,327.6158882060008,None,327.6158882060008,None,327.6158882060008,None,,,,,,,,,,,,,,,,,,,,,,,,,,,,,,,,,,,,,,,,,,,,001,82,2020_Feb_06_1058,spring_faces,3.1.5,60.07360422230028,
condition files/Stage1_1.xlsx,,T3,B4,c,"['c', 'm']","['Clue', 'Monopoly']","[-0.15, 0.5]","[0.15, 0.5]",1,1,,,,,,,,,0,0,0,0,0,6,6,5,,,,,,,,,,,,,,,,,,,,,,,,,,,,,,,,,,,,,,,,,,,,,,,,,,,,,,,329.5827281109996,None,329.5827281109996,None,329.5827281109996,None,m,0,1.066638715001318,331.11561106500085,None,331.11561106500085,None,331.11561106500085,None,332.2330157939996,None,332.2330157939996,None,332.2330157939996,None,332.2330157939996,None,,,,,,,,,,,,,,,,,,,,,,,,,,,,,,,,,,,,,,,,,,,,001,82,2020_Feb_06_1058,spring_faces,3.1.5,60.07360422230028,
condition files/Stage1_1.xlsx,,B3,T3,c,"['c', 'm']","['Clue', 'Monopoly']","[-0.15, 0.5]","[0.15, 0.5]",1,1,,,,,,,,,0,0,0,0,0,7,7,4,,,,,,,,,,,,,,,,,,,,,,,,,,,,,,,,,,,,,,,,,,,,,,,,,,,,,,,334.1990585599997,None,334.1990585599997,None,334.1990585599997,None,m,0,1.2815205930000957,335.7327309909997,None,335.7327309909997,None,335.7327309909997,None,337.06595252700026,None,337.06595252700026,None,337.06595252700026,None,337.06595252700026,None,,,,,,,,,,,,,,,,,,,,,,,,,,,,,,,,,,,,,,,,,,,,001,82,2020_Feb_06_1058,spring_faces,3.1.5,60.07360422230028,
condition files/Stage1_2.xlsx,,T3,B3,c,"['c', 'm']","['Clue', 'Monopoly']","[-0.15, 0.5]","[0.15, 0.5]",1,1,,,,,,,,,0,1,1,1,0,0,0,4,,,,,,,,,,,,,,,,,,,,,,,,,,,,,,,,,,,,,,,,,,,,,,,,,,,,,,,339.0491691850002,None,339.0491691850002,None,339.0491691850002,None,c,1,1.0389738410012797,340.599295168,None,340.599295168,None,340.599295168,None,341.69986322099976,None,341.69986322099976,None,341.69986322099976,None,341.69986322099976,None,,,,,,,,,,,,,,,,,,,,,,,,,,,,,,,,,,,,,,,,,,,,001,82,2020_Feb_06_1058,spring_faces,3.1.5,60.07360422230028,
condition files/Stage1_2.xlsx,,T4,B4,m,"['c', 'm']","['Clue', 'Monopoly']","[-0.15, 0.5]","[0.15, 0.5]",1,1,,,,,,,,,0,1,1,1,0,1,1,7,,,,,,,,,,,,,,,,,,,,,,,,,,,,,,,,,,,,,,,,,,,,,,,,,,,,,,,343.6658752679996,None,343.6658752679996,None,343.6658752679996,None,m,1,2.3274580350007454,345.1988673249998,None,345.1988673249998,None,345.1988673249998,None,347.58276653400026,None,347.58276653400026,None,347.58276653400026,None,347.58276653400026,None,,,,,,,,,,,,,,,,,,,,,,,,,,,,,,,,,,,,,,,,,,,,001,82,2020_Feb_06_1058,spring_faces,3.1.5,60.07360422230028,
condition files/Stage1_2.xlsx,,B3,T4,m,"['c', 'm']","['Clue', 'Monopoly']","[-0.15, 0.5]","[0.15, 0.5]",1,1,,,,,,,,,0,1,1,1,0,2,2,6,,,,,,,,,,,,,,,,,,,,,,,,,,,,,,,,,,,,,,,,,,,,,,,,,,,,,,,349.54941668799984,None,349.54941668799984,None,349.54941668799984,None,m,1,0.8270938810001098,351.0831626199997,None,351.0831626199997,None,351.0831626199997,None,351.9659745200006,None,351.9659745200006,None,351.9659745200006,None,351.9659745200006,None,,,,,,,,,,,,,,,,,,,,,,,,,,,,,,,,,,,,,,,,,,,,001,82,2020_Feb_06_1058,spring_faces,3.1.5,60.07360422230028,
condition files/Stage1_2.xlsx,,B2,T2,m,"['c', 'm']","['Clue', 'Monopoly']","[-0.15, 0.5]","[0.15, 0.5]",1,1,,,,,,,,,0,1,1,1,0,3,3,3,,,,,,,,,,,,,,,,,,,,,,,,,,,,,,,,,,,,,,,,,,,,,,,,,,,,,,,353.9322893820008,None,353.9322893820008,None,353.9322893820008,None,c,0,1.3080453719994694,355.4822461010008,None,355.4822461010008,None,355.4822461010008,None,356.84958271600044,None,356.84958271600044,None,356.84958271600044,None,356.84958271600044,None,,,,,,,,,,,,,,,,,,,,,,,,,,,,,,,,,,,,,,,,,,,,001,82,2020_Feb_06_1058,spring_faces,3.1.5,60.07360422230028,
condition files/Stage1_2.xlsx,,B4,T3,c,"['c', 'm']","['Clue', 'Monopoly']","[-0.15, 0.5]","[0.15, 0.5]",1,1,,,,,,,,,0,1,1,1,0,4,4,5,,,,,,,,,,,,,,,,,,,,,,,,,,,,,,,,,,,,,,,,,,,,,,,,,,,,,,,358.8158719189996,None,358.8158719189996,None,358.8158719189996,None,c,1,1.3205182969995803,360.36572258399974,None,360.36572258399974,None,360.36572258399974,None,361.75075244300024,None,361.75075244300024,None,361.75075244300024,None,361.75075244300024,None,,,,,,,,,,,,,,,,,,,,,,,,,,,,,,,,,,,,,,,,,,,,001,82,2020_Feb_06_1058,spring_faces,3.1.5,60.07360422230028,
condition files/Stage1_2.xlsx,,B1,T1,c,"['c', 'm']","['Clue', 'Monopoly']","[-0.15, 0.5]","[0.15, 0.5]",1,1,,,,,,,,,0,1,1,1,0,5,5,0,,,,,,,,,,,,,,,,,,,,,,,,,,,,,,,,,,,,,,,,,,,,,,,,,,,,,,,363.71593459200085,None,363.71593459200085,None,363.71593459200085,None,c,1,1.0269175720004569,365.2513132740005,None,365.2513132740005,None,365.2513132740005,None,366.3326008240001,None,366.3326008240001,None,366.3326008240001,None,366.3326008240001,None,,,,,,,,,,,,,,,,,,,,,,,,,,,,,,,,,,,,,,,,,,,,001,82,2020_Feb_06_1058,spring_faces,3.1.5,60.07360422230028,
condition files/Stage1_2.xlsx,,T1,B2,m,"['c', 'm']","['Clue', 'Monopoly']","[-0.15, 0.5]","[0.15, 0.5]",1,1,,,,,,,,,0,1,1,1,0,6,6,2,,,,,,,,,,,,,,,,,,,,,,,,,,,,,,,,,,,,,,,,,,,,,,,,,,,,,,,368.29928765600016,None,368.29928765600016,None,368.29928765600016,None,c,0,1.0838502599999629,369.834407063001,None,369.834407063001,None,369.834407063001,None,370.9823884770012,None,370.9823884770012,None,370.9823884770012,None,370.9823884770012,None,,,,,,,,,,,,,,,,,,,,,,,,,,,,,,,,,,,,,,,,,,,,001,82,2020_Feb_06_1058,spring_faces,3.1.5,60.07360422230028,
condition files/Stage1_2.xlsx,,T2,B1,c,"['c', 'm']","['Clue', 'Monopoly']","[-0.15, 0.5]","[0.15, 0.5]",1,1,,,,,,,,,0,1,1,1,0,7,7,1,,,,,,,,,,,,,,,,,,,,,,,,,,,,,,,,,,,,,,,,,,,,,,,,,,,,,,,372.9492342850008,None,372.9492342850008,None,372.9492342850008,None,c,1,1.042601551998814,374.4995930240002,None,374.4995930240002,None,374.4995930240002,None,375.615595528001,None,375.615595528001,None,375.615595528001,None,375.615595528001,None,,,,,,,,,,,,,,,,,,,,,,,,,,,,,,,,,,,,,,,,,,,,001,82,2020_Feb_06_1058,spring_faces,3.1.5,60.07360422230028,
condition files/Stage1_1.xlsx,,B2,T1,m,"['c', 'm']","['Clue', 'Monopoly']","[-0.15, 0.5]","[0.15, 0.5]",1,1,,,,,,,,,0,2,2,2,0,0,0,2,,,,,,,,,,,,,,,,,,,,,,,,,,,,,,,,,,,,,,,,,,,,,,,,,,,,,,,377.5826513960001,None,377.5826513960001,None,377.5826513960001,None,m,1,0.522100190000856,379.1161716580009,None,379.1161716580009,None,379.1161716580009,None,379.7005723860002,None,379.7005723860002,None,379.7005723860002,None,379.7005723860002,None,,,,,,,,,,,,,,,,,,,,,,,,,,,,,,,,,,,,,,,,,,,,001,82,2020_Feb_06_1058,spring_faces,3.1.5,60.07360422230028,
condition files/Stage1_1.xlsx,,T4,B3,m,"['c', 'm']","['Clue', 'Monopoly']","[-0.15, 0.5]","[0.15, 0.5]",1,1,,,,,,,,,0,2,2,2,0,1,1,6,,,,,,,,,,,,,,,,,,,,,,,,,,,,,,,,,,,,,,,,,,,,,,,,,,,,,,,381.66583724700104,None,381.66583724700104,None,381.66583724700104,None,m,1,2.790578057998573,383.19974392900076,None,383.19974392900076,None,383.19974392900076,None,386.04888253300123,None,386.04888253300123,None,386.04888253300123,None,386.04888253300123,None,,,,,,,,,,,,,,,,,,,,,,,,,,,,,,,,,,,,,,,,,,,,001,82,2020_Feb_06_1058,spring_faces,3.1.5,60.07360422230028,
condition files/Stage1_1.xlsx,,T2,B2,m,"['c', 'm']","['Clue', 'Monopoly']","[-0.15, 0.5]","[0.15, 0.5]",1,1,,,,,,,,,0,2,2,2,0,2,2,3,,,,,,,,,,,,,,,,,,,,,,,,,,,,,,,,,,,,,,,,,,,,,,,,,,,,,,,388.0157116440005,None,388.0157116440005,None,388.0157116440005,None,m,1,0.856042391000301,389.5502798590005,None,389.5502798590005,None,389.5502798590005,None,390.4662370540009,None,390.4662370540009,None,390.4662370540009,None,390.4662370540009,None,,,,,,,,,,,,,,,,,,,,,,,,,,,,,,,,,,,,,,,,,,,,001,82,2020_Feb_06_1058,spring_faces,3.1.5,60.07360422230028,
condition files/Stage1_1.xlsx,,T3,B4,c,"['c', 'm']","['Clue', 'Monopoly']","[-0.15, 0.5]","[0.15, 0.5]",1,1,,,,,,,,,0,2,2,2,0,3,3,5,,,,,,,,,,,,,,,,,,,,,,,,,,,,,,,,,,,,,,,,,,,,,,,,,,,,,,,392.43233715000133,None,392.43233715000133,None,392.43233715000133,None,c,1,0.6958448920013325,393.9663935999997,None,393.9663935999997,None,393.9663935999997,None,394.73247074200117,None,394.73247074200117,None,394.73247074200117,None,394.73247074200117,None,,,,,,,,,,,,,,,,,,,,,,,,,,,,,,,,,,,,,,,,,,,,001,82,2020_Feb_06_1058,spring_faces,3.1.5,60.07360422230028,
condition files/Stage1_1.xlsx,,T1,B1,c,"['c', 'm']","['Clue', 'Monopoly']","[-0.15, 0.5]","[0.15, 0.5]",1,1,,,,,,,,,0,2,2,2,0,4,4,0,,,,,,,,,,,,,,,,,,,,,,,,,,,,,,,,,,,,,,,,,,,,,,,,,,,,,,,396.682592399,None,396.682592399,None,396.682592399,None,c,1,0.8144691770012287,398.21576484599973,None,398.21576484599973,None,398.21576484599973,None,399.08273425399966,None,399.08273425399966,None,399.08273425399966,None,399.08273425399966,None,,,,,,,,,,,,,,,,,,,,,,,,,,,,,,,,,,,,,,,,,,,,001,82,2020_Feb_06_1058,spring_faces,3.1.5,60.07360422230028,
condition files/Stage1_1.xlsx,,B1,T2,c,"['c', 'm']","['Clue', 'Monopoly']","[-0.15, 0.5]","[0.15, 0.5]",1,1,,,,,,,,,0,2,2,2,0,5,5,1,,,,,,,,,,,,,,,,,,,,,,,,,,,,,,,,,,,,,,,,,,,,,,,,,,,,,,,401.04935481600114,None,401.04935481600114,None,401.04935481600114,None,c,1,1.0236326480007847,402.58269391900103,None,402.58269391900103,None,402.58269391900103,None,403.666309739001,None,403.666309739001,None,403.666309739001,None,403.666309739001,None,,,,,,,,,,,,,,,,,,,,,,,,,,,,,,,,,,,,,,,,,,,,001,82,2020_Feb_06_1058,spring_faces,3.1.5,60.07360422230028,
condition files/Stage1_1.xlsx,,B4,T4,m,"['c', 'm']","['Clue', 'Monopoly']","[-0.15, 0.5]","[0.15, 0.5]",1,1,,,,,,,,,0,2,2,2,0,6,6,7,,,,,,,,,,,,,,,,,,,,,,,,,,,,,,,,,,,,,,,,,,,,,,,,,,,,,,,405.63265730900093,None,405.63265730900093,None,405.63265730900093,None,m,1,2.9359188890011865,407.1663361049996,None,407.1663361049996,None,407.1663361049996,None,410.1665745850005,None,410.1665745850005,None,410.1665745850005,None,410.1665745850005,None,,,,,,,,,,,,,,,,,,,,,,,,,,,,,,,,,,,,,,,,,,,,001,82,2020_Feb_06_1058,spring_faces,3.1.5,60.07360422230028,
condition files/Stage1_1.xlsx,,B3,T3,c,"['c', 'm']","['Clue', 'Monopoly']","[-0.15, 0.5]","[0.15, 0.5]",1,1,,,,,,,,,0,2,2,2,0,7,7,4,,,,,,,,,,,,,,,,,,,,,,,,,,,,,,,,,,,,,,,,,,,,,,,,,,,,,,,412.1325111620008,None,412.1325111620008,None,412.1325111620008,None,c,1,1.0434690820002288,413.66673991300013,None,413.66673991300013,None,413.66673991300013,None,414.76759360399956,None,414.76759360399956,None,414.76759360399956,None,414.76759360399956,None,,,,,,,,,,,,,,,,,,,,,,,,,,,,,,,,,,,,,,,,,,,,001,82,2020_Feb_06_1058,spring_faces,3.1.5,60.07360422230028,
condition files/Stage1_2.xlsx,,B2,T2,m,"['c', 'm']","['Clue', 'Monopoly']","[-0.15, 0.5]","[0.15, 0.5]",1,1,,,,,,,,,0,3,3,3,0,0,0,3,,,,,,,,,,,,,,,,,,,,,,,,,,,,,,,,,,,,,,,,,,,,,,,,,,,,,,,416.74973239800056,None,416.74973239800056,None,416.74973239800056,None,m,1,1.0997859299986885,418.2824739050011,None,418.2824739050011,None,418.2824739050011,None,419.4493273870012,None,419.4493273870012,None,419.4493273870012,None,419.4493273870012,None,,,,,,,,,,,,,,,,,,,,,,,,,,,,,,,,,,,,,,,,,,,,001,82,2020_Feb_06_1058,spring_faces,3.1.5,60.07360422230028,
condition files/Stage1_2.xlsx,,T2,B1,c,"['c', 'm']","['Clue', 'Monopoly']","[-0.15, 0.5]","[0.15, 0.5]",1,1,,,,,,,,,0,3,3,3,0,1,1,1,,,,,,,,,,,,,,,,,,,,,,,,,,,,,,,,,,,,,,,,,,,,,,,,,,,,,,,421.398519108001,None,421.398519108001,None,421.398519108001,None,c,1,0.8334460910009511,422.93274745000053,None,422.93274745000053,None,422.93274745000053,None,423.8334375329996,None,423.8334375329996,None,423.8334375329996,None,423.8334375329996,None,,,,,,,,,,,,,,,,,,,,,,,,,,,,,,,,,,,,,,,,,,,,001,82,2020_Feb_06_1058,spring_faces,3.1.5,60.07360422230028,
condition files/Stage1_2.xlsx,,T1,B2,m,"['c', 'm']","['Clue', 'Monopoly']","[-0.15, 0.5]","[0.15, 0.5]",1,1,,,,,,,,,0,3,3,3,0,2,2,2,,,,,,,,,,,,,,,,,,,,,,,,,,,,,,,,,,,,,,,,,,,,,,,,,,,,,,,425.79919829400023,None,425.79919829400023,None,425.79919829400023,None,m,1,0.9433771920012077,427.3348321120011,None,427.3348321120011,None,427.3348321120011,None,428.3340812860006,None,428.3340812860006,None,428.3340812860006,None,428.3340812860006,None,,,,,,,,,,,,,,,,,,,,,,,,,,,,,,,,,,,,,,,,,,,,001,82,2020_Feb_06_1058,spring_faces,3.1.5,60.07360422230028,
condition files/Stage1_2.xlsx,,B4,T3,c,"['c', 'm']","['Clue', 'Monopoly']","[-0.15, 0.5]","[0.15, 0.5]",1,1,,,,,,,,,0,3,3,3,0,3,3,5,,,,,,,,,,,,,,,,,,,,,,,,,,,,,,,,,,,,,,,,,,,,,,,,,,,,,,,430.299394484,None,430.299394484,None,430.299394484,None,c,1,0.9578413079998427,431.83247436999955,None,431.83247436999955,None,431.83247436999955,None,432.8661841590001,None,432.8661841590001,None,432.8661841590001,None,432.8661841590001,None,,,,,,,,,,,,,,,,,,,,,,,,,,,,,,,,,,,,,,,,,,,,001,82,2020_Feb_06_1058,spring_faces,3.1.5,60.07360422230028,
condition files/Stage1_2.xlsx,,T3,B3,c,"['c', 'm']","['Clue', 'Monopoly']","[-0.15, 0.5]","[0.15, 0.5]",1,1,,,,,,,,,0,3,3,3,0,4,4,4,,,,,,,,,,,,,,,,,,,,,,,,,,,,,,,,,,,,,,,,,,,,,,,,,,,,,,,434.81533387499985,None,434.81533387499985,None,434.81533387499985,None,c,1,0.807769590001044,436.3505599600012,None,436.3505599600012,None,436.3505599600012,None,437.2158012260006,None,437.2158012260006,None,437.2158012260006,None,437.2158012260006,None,,,,,,,,,,,,,,,,,,,,,,,,,,,,,,,,,,,,,,,,,,,,001,82,2020_Feb_06_1058,spring_faces,3.1.5,60.07360422230028,
condition files/Stage1_2.xlsx,,T4,B4,m,"['c', 'm']","['Clue', 'Monopoly']","[-0.15, 0.5]","[0.15, 0.5]",1,1,,,,,,,,,0,3,3,3,0,5,5,7,,,,,,,,,,,,,,,,,,,,,,,,,,,,,,,,,,,,,,,,,,,,,,,,,,,,,,,439.1820341340008,None,439.1820341340008,None,439.1820341340008,None,m,1,1.5940024510000512,440.71625308700095,None,440.71625308700095,None,440.71625308700095,None,442.38278370900116,None,442.38278370900116,None,442.38278370900116,None,442.38278370900116,None,,,,,,,,,,,,,,,,,,,,,,,,,,,,,,,,,,,,,,,,,,,,001,82,2020_Feb_06_1058,spring_faces,3.1.5,60.07360422230028,
condition files/Stage1_2.xlsx,,B3,T4,m,"['c', 'm']","['Clue', 'Monopoly']","[-0.15, 0.5]","[0.15, 0.5]",1,1,,,,,,,,,0,3,3,3,0,6,6,6,,,,,,,,,,,,,,,,,,,,,,,,,,,,,,,,,,,,,,,,,,,,,,,,,,,,,,,444.33197925999957,None,444.33197925999957,None,444.33197925999957,None,m,1,0.7808218580012181,445.86542294100036,None,445.86542294100036,None,445.86542294100036,None,446.6996101530003,None,446.6996101530003,None,446.6996101530003,None,446.6996101530003,None,,,,,,,,,,,,,,,,,,,,,,,,,,,,,,,,,,,,,,,,,,,,001,82,2020_Feb_06_1058,spring_faces,3.1.5,60.07360422230028,
condition files/Stage1_2.xlsx,,B1,T1,c,"['c', 'm']","['Clue', 'Monopoly']","[-0.15, 0.5]","[0.15, 0.5]",1,1,,,,,,,,,0,3,3,3,0,7,7,0,,,,,,,,,,,,,,,,,,,,,,,,,,,,,,,,,,,,,,,,,,,,,,,,,,,,,,,448.66590468600043,None,448.66590468600043,None,448.66590468600043,None,c,1,1.199613707000026,450.19864449800116,None,450.19864449800116,None,450.19864449800116,None,451.44936819800023,None,451.44936819800023,None,451.44936819800023,None,451.44936819800023,None,,,,,,,,,,,,,,,,,,,,,,,,,,,,,,,,,,,,,,,,,,,,001,82,2020_Feb_06_1058,spring_faces,3.1.5,60.07360422230028,
condition files/Stage1_1.xlsx,,B3,T3,c,"['c', 'm']","['Clue', 'Monopoly']","[-0.15, 0.5]","[0.15, 0.5]",1,1,,,,,,,,,0,4,4,4,0,0,0,4,,,,,,,,,,,,,,,,,,,,,,,,,,,,,,,,,,,,,,,,,,,,,,,,,,,,,,,453.4327717510005,None,453.4327717510005,None,453.4327717510005,None,c,1,0.9115929679992405,454.9666637299997,None,454.9666637299997,None,454.9666637299997,None,455.9324982400012,None,455.9324982400012,None,455.9324982400012,None,455.9324982400012,None,,,,,,,,,,,,,,,,,,,,,,,,,,,,,,,,,,,,,,,,,,,,001,82,2020_Feb_06_1058,spring_faces,3.1.5,60.07360422230028,
condition files/Stage1_1.xlsx,,B2,T1,m,"['c', 'm']","['Clue', 'Monopoly']","[-0.15, 0.5]","[0.15, 0.5]",1,1,,,,,,,,,0,4,4,4,0,1,1,2,,,,,,,,,,,,,,,,,,,,,,,,,,,,,,,,,,,,,,,,,,,,,,,,,,,,,,,457.89889078000124,None,457.89889078000124,None,457.89889078000124,None,m,1,0.9235538369994174,459.434766235001,None,459.434766235001,None,459.434766235001,None,460.417301028001,None,460.417301028001,None,460.417301028001,None,460.417301028001,None,,,,,,,,,,,,,,,,,,,,,,,,,,,,,,,,,,,,,,,,,,,,001,82,2020_Feb_06_1058,spring_faces,3.1.5,60.07360422230028,
condition files/Stage1_1.xlsx,,T4,B3,m,"['c', 'm']","['Clue', 'Monopoly']","[-0.15, 0.5]","[0.15, 0.5]",1,1,,,,,,,,,0,4,4,4,0,2,2,6,,,,,,,,,,,,,,,,,,,,,,,,,,,,,,,,,,,,,,,,,,,,,,,,,,,,,,,462.38270915199973,None,462.38270915199973,None,462.38270915199973,None,m,1,1.1941474580016802,463.9160698800006,None,463.9160698800006,None,463.9160698800006,None,465.16598496200095,None,465.16598496200095,None,465.16598496200095,None,465.16598496200095,None,,,,,,,,,,,,,,,,,,,,,,,,,,,,,,,,,,,,,,,,,,,,001,82,2020_Feb_06_1058,spring_faces,3.1.5,60.07360422230028,
condition files/Stage1_1.xlsx,,B1,T2,c,"['c', 'm']","['Clue', 'Monopoly']","[-0.15, 0.5]","[0.15, 0.5]",1,1,,,,,,,,,0,4,4,4,0,3,3,1,,,,,,,,,,,,,,,,,,,,,,,,,,,,,,,,,,,,,,,,,,,,,,,,,,,,,,,467.13250205500117,None,467.13250205500117,None,467.13250205500117,None,c,1,0.7951050249994296,468.68311825099954,None,468.68311825099954,None,468.68311825099954,None,469.5494442119998,None,469.5494442119998,None,469.5494442119998,None,469.5494442119998,None,,,,,,,,,,,,,,,,,,,,,,,,,,,,,,,,,,,,,,,,,,,,001,82,2020_Feb_06_1058,spring_faces,3.1.5,60.07360422230028,
condition files/Stage1_1.xlsx,,B4,T4,m,"['c', 'm']","['Clue', 'Monopoly']","[-0.15, 0.5]","[0.15, 0.5]",1,1,,,,,,,,,0,4,4,4,0,4,4,7,,,,,,,,,,,,,,,,,,,,,,,,,,,,,,,,,,,,,,,,,,,,,,,,,,,,,,,471.4993861060011,None,471.4993861060011,None,471.4993861060011,None,m,1,1.4533310659990093,473.0329304400002,None,473.0329304400002,None,473.0329304400002,None,474.56635894899955,None,474.56635894899955,None,474.56635894899955,None,474.56635894899955,None,,,,,,,,,,,,,,,,,,,,,,,,,,,,,,,,,,,,,,,,,,,,001,82,2020_Feb_06_1058,spring_faces,3.1.5,60.07360422230028,
condition files/Stage1_1.xlsx,,T3,B4,c,"['c', 'm']","['Clue', 'Monopoly']","[-0.15, 0.5]","[0.15, 0.5]",1,1,,,,,,,,,0,4,4,4,0,5,5,5,,,,,,,,,,,,,,,,,,,,,,,,,,,,,,,,,,,,,,,,,,,,,,,,,,,,,,,476.515300381001,None,476.515300381001,None,476.515300381001,None,c,1,0.6933860270000878,478.04884412400133,None,478.04884412400133,None,478.04884412400133,None,478.8161161930002,None,478.8161161930002,None,478.8161161930002,None,478.8161161930002,None,,,,,,,,,,,,,,,,,,,,,,,,,,,,,,,,,,,,,,,,,,,,001,82,2020_Feb_06_1058,spring_faces,3.1.5,60.07360422230028,
condition files/Stage1_1.xlsx,,T1,B1,c,"['c', 'm']","['Clue', 'Monopoly']","[-0.15, 0.5]","[0.15, 0.5]",1,1,,,,,,,,,0,4,4,4,0,6,6,0,,,,,,,,,,,,,,,,,,,,,,,,,,,,,,,,,,,,,,,,,,,,,,,,,,,,,,,480.7656380410008,None,480.7656380410008,None,480.7656380410008,None,c,1,0.5870209349996003,482.2992399200011,None,482.2992399200011,None,482.2992399200011,None,482.94938430100046,None,482.94938430100046,None,482.94938430100046,None,482.94938430100046,None,,,,,,,,,,,,,,,,,,,,,,,,,,,,,,,,,,,,,,,,,,,,001,82,2020_Feb_06_1058,spring_faces,3.1.5,60.07360422230028,
condition files/Stage1_1.xlsx,,T2,B2,m,"['c', 'm']","['Clue', 'Monopoly']","[-0.15, 0.5]","[0.15, 0.5]",1,1,,,,,,,,,0,4,4,4,0,7,7,3,,,,,,,,,,,,,,,,,,,,,,,,,,,,,,,,,,,,,,,,,,,,,,,,,,,,,,,484.9159889720013,None,484.9159889720013,None,484.9159889720013,None,m,1,1.0769164290013578,486.4494058100008,None,486.4494058100008,None,486.4494058100008,None,487.5837640820009,None,487.5837640820009,None,487.5837640820009,None,487.5837640820009,None,,,,,,,,,,,,,,,,,,,,,,,,,,,,,,,,,,,,,,,,,,,,001,82,2020_Feb_06_1058,spring_faces,3.1.5,60.07360422230028,
condition files/Stage1_2.xlsx,,B2,T2,m,"['c', 'm']","['Clue', 'Monopoly']","[-0.15, 0.5]","[0.15, 0.5]",1,1,,,,,,,,,0,5,5,5,0,0,0,3,,,,,,,,,,,,,,,,,,,,,,,,,,,,,,,,,,,,,,,,,,,,,,,,,,,,,,,489.56618334500126,None,489.56618334500126,None,489.56618334500126,None,m,1,0.5378650329985248,491.11639367600037,None,491.11639367600037,None,491.11639367600037,None,491.7166324990012,None,491.7166324990012,None,491.7166324990012,None,491.7166324990012,None,,,,,,,,,,,,,,,,,,,,,,,,,,,,,,,,,,,,,,,,,,,,001,82,2020_Feb_06_1058,spring_faces,3.1.5,60.07360422230028,
condition files/Stage1_2.xlsx,,T4,B4,m,"['c', 'm']","['Clue', 'Monopoly']","[-0.15, 0.5]","[0.15, 0.5]",1,1,,,,,,,,,0,5,5,5,0,1,1,7,,,,,,,,,,,,,,,,,,,,,,,,,,,,,,,,,,,,,,,,,,,,,,,,,,,,,,,493.6825392459996,None,493.6825392459996,None,493.6825392459996,None,c,0,0.6933220760001859,495.2329970949995,None,495.2329970949995,None,495.2329970949995,None,495.98268070300037,None,495.98268070300037,None,495.98268070300037,None,495.98268070300037,None,,,,,,,,,,,,,,,,,,,,,,,,,,,,,,,,,,,,,,,,,,,,001,82,2020_Feb_06_1058,spring_faces,3.1.5,60.07360422230028,
condition files/Stage1_2.xlsx,,B4,T3,c,"['c', 'm']","['Clue', 'Monopoly']","[-0.15, 0.5]","[0.15, 0.5]",1,1,,,,,,,,,0,5,5,5,0,2,2,5,,,,,,,,,,,,,,,,,,,,,,,,,,,,,,,,,,,,,,,,,,,,,,,,,,,,,,,497.9493619770001,None,497.9493619770001,None,497.9493619770001,None,c,1,0.9386310280006,499.483705218001,None,499.483705218001,None,499.483705218001,None,500.4827826210003,None,500.4827826210003,None,500.4827826210003,None,500.4827826210003,None,,,,,,,,,,,,,,,,,,,,,,,,,,,,,,,,,,,,,,,,,,,,001,82,2020_Feb_06_1058,spring_faces,3.1.5,60.07360422230028,
condition files/Stage1_2.xlsx,,T3,B3,c,"['c', 'm']","['Clue', 'Monopoly']","[-0.15, 0.5]","[0.15, 0.5]",1,1,,,,,,,,,0,5,5,5,0,3,3,4,,,,,,,,,,,,,,,,,,,,,,,,,,,,,,,,,,,,,,,,,,,,,,,,,,,,,,,502.44922285100074,None,502.44922285100074,None,502.44922285100074,None,c,1,0.9025751910012332,503.99967686200034,None,503.99967686200034,None,503.99967686200034,None,504.9658366470012,None,504.9658366470012,None,504.9658366470012,None,504.9658366470012,None,,,,,,,,,,,,,,,,,,,,,,,,,,,,,,,,,,,,,,,,,,,,001,82,2020_Feb_06_1058,spring_faces,3.1.5,60.07360422230028,
condition files/Stage1_2.xlsx,,B1,T1,c,"['c', 'm']","['Clue', 'Monopoly']","[-0.15, 0.5]","[0.15, 0.5]",1,1,,,,,,,,,0,5,5,5,0,4,4,0,,,,,,,,,,,,,,,,,,,,,,,,,,,,,,,,,,,,,,,,,,,,,,,,,,,,,,,506.9325007820007,None,506.9325007820007,None,506.9325007820007,None,c,1,0.8836023780004325,508.4825965070013,None,508.4825965070013,None,508.4825965070013,None,509.41539484200075,None,509.41539484200075,None,509.41539484200075,None,509.41539484200075,None,,,,,,,,,,,,,,,,,,,,,,,,,,,,,,,,,,,,,,,,,,,,001,82,2020_Feb_06_1058,spring_faces,3.1.5,60.07360422230028,
condition files/Stage1_2.xlsx,,T2,B1,c,"['c', 'm']","['Clue', 'Monopoly']","[-0.15, 0.5]","[0.15, 0.5]",1,1,,,,,,,,,0,5,5,5,0,5,5,1,,,,,,,,,,,,,,,,,,,,,,,,,,,,,,,,,,,,,,,,,,,,,,,,,,,,,,,511.38229401399985,None,511.38229401399985,None,511.38229401399985,None,c,1,0.6879903959998046,512.9183388340007,None,512.9183388340007,None,512.9183388340007,None,513.665488998,None,513.665488998,None,513.665488998,None,513.665488998,None,,,,,,,,,,,,,,,,,,,,,,,,,,,,,,,,,,,,,,,,,,,,001,82,2020_Feb_06_1058,spring_faces,3.1.5,60.07360422230028,
condition files/Stage1_2.xlsx,,B3,T4,m,"['c', 'm']","['Clue', 'Monopoly']","[-0.15, 0.5]","[0.15, 0.5]",1,1,,,,,,,,,0,5,5,5,0,6,6,6,,,,,,,,,,,,,,,,,,,,,,,,,,,,,,,,,,,,,,,,,,,,,,,,,,,,,,,515.6319794700012,None,515.6319794700012,None,515.6319794700012,None,m,1,1.5117015199994057,517.1665497869999,None,517.1665497869999,None,517.1665497869999,None,518.7324464539997,None,518.7324464539997,None,518.7324464539997,None,518.7324464539997,None,,,,,,,,,,,,,,,,,,,,,,,,,,,,,,,,,,,,,,,,,,,,001,82,2020_Feb_06_1058,spring_faces,3.1.5,60.07360422230028,
condition files/Stage1_2.xlsx,,T1,B2,m,"['c', 'm']","['Clue', 'Monopoly']","[-0.15, 0.5]","[0.15, 0.5]",1,1,,,,,,,,,0,5,5,5,0,7,7,2,,,,,,,,,,,,,,,,,,,,,,,,,,,,,,,,,,,,,,,,,,,,,,,,,,,,,,,520.6993148670008,None,520.6993148670008,None,520.6993148670008,None,m,1,0.6538316210007906,522.2324282490008,None,522.2324282490008,None,522.2324282490008,None,522.9496089269996,None,522.9496089269996,None,522.9496089269996,None,522.9496089269996,None,,,,,,,,,,,,,,,,,,,,,,,,,,,,,,,,,,,,,,,,,,,,001,82,2020_Feb_06_1058,spring_faces,3.1.5,60.07360422230028,
condition files/Stage1_1.xlsx,,T2,B2,m,"['c', 'm']","['Clue', 'Monopoly']","[-0.15, 0.5]","[0.15, 0.5]",1,1,,,,,,,,,0,6,6,6,0,0,0,3,,,,,,,,,,,,,,,,,,,,,,,,,,,,,,,,,,,,,,,,,,,,,,,,,,,,,,,524.9327867030006,None,524.9327867030006,None,524.9327867030006,None,m,1,0.5482872510001471,526.4659724009998,None,526.4659724009998,None,526.4659724009998,None,527.065517731,None,527.065517731,None,527.065517731,None,527.065517731,None,,,,,,,,,,,,,,,,,,,,,,,,,,,,,,,,,,,,,,,,,,,,001,82,2020_Feb_06_1058,spring_faces,3.1.5,60.07360422230028,
condition files/Stage1_1.xlsx,,T4,B3,m,"['c', 'm']","['Clue', 'Monopoly']","[-0.15, 0.5]","[0.15, 0.5]",1,1,,,,,,,,,0,6,6,6,0,1,1,6,,,,,,,,,,,,,,,,,,,,,,,,,,,,,,,,,,,,,,,,,,,,,,,,,,,,,,,529.0317324740008,None,529.0317324740008,None,529.0317324740008,None,m,1,0.5759116819990595,530.5662949770012,None,530.5662949770012,None,530.5662949770012,None,531.1993183049999,None,531.1993183049999,None,531.1993183049999,None,531.1993183049999,None,,,,,,,,,,,,,,,,,,,,,,,,,,,,,,,,,,,,,,,,,,,,001,82,2020_Feb_06_1058,spring_faces,3.1.5,60.07360422230028,
condition files/Stage1_1.xlsx,,T3,B4,c,"['c', 'm']","['Clue', 'Monopoly']","[-0.15, 0.5]","[0.15, 0.5]",1,1,,,,,,,,,0,6,6,6,0,2,2,5,,,,,,,,,,,,,,,,,,,,,,,,,,,,,,,,,,,,,,,,,,,,,,,,,,,,,,,533.1660930920007,None,533.1660930920007,None,533.1660930920007,None,c,1,1.0032042399998318,534.6990490560001,None,534.6990490560001,None,534.6990490560001,None,535.7827418870002,None,535.7827418870002,None,535.7827418870002,None,535.7827418870002,None,,,,,,,,,,,,,,,,,,,,,,,,,,,,,,,,,,,,,,,,,,,,001,82,2020_Feb_06_1058,spring_faces,3.1.5,60.07360422230028,
condition files/Stage1_1.xlsx,,B4,T4,m,"['c', 'm']","['Clue', 'Monopoly']","[-0.15, 0.5]","[0.15, 0.5]",1,1,,,,,,,,,0,6,6,6,0,3,3,7,,,,,,,,,,,,,,,,,,,,,,,,,,,,,,,,,,,,,,,,,,,,,,,,,,,,,,,537.7326500090003,None,537.7326500090003,None,537.7326500090003,None,m,1,1.028573644998687,539.2655915329997,None,539.2655915329997,None,539.2655915329997,None,540.3495579610008,None,540.3495579610008,None,540.3495579610008,None,540.3495579610008,None,,,,,,,,,,,,,,,,,,,,,,,,,,,,,,,,,,,,,,,,,,,,001,82,2020_Feb_06_1058,spring_faces,3.1.5,60.07360422230028,
condition files/Stage1_1.xlsx,,B3,T3,c,"['c', 'm']","['Clue', 'Monopoly']","[-0.15, 0.5]","[0.15, 0.5]",1,1,,,,,,,,,0,6,6,6,0,4,4,4,,,,,,,,,,,,,,,,,,,,,,,,,,,,,,,,,,,,,,,,,,,,,,,,,,,,,,,542.3160352560008,None,542.3160352560008,None,542.3160352560008,None,c,1,0.7647975219988439,543.8494609130012,None,543.8494609130012,None,543.8494609130012,None,544.6678628230002,None,544.6678628230002,None,544.6678628230002,None,544.6678628230002,None,,,,,,,,,,,,,,,,,,,,,,,,,,,,,,,,,,,,,,,,,,,,001,82,2020_Feb_06_1058,spring_faces,3.1.5,60.07360422230028,
condition files/Stage1_1.xlsx,,B1,T2,c,"['c', 'm']","['Clue', 'Monopoly']","[-0.15, 0.5]","[0.15, 0.5]",1,1,,,,,,,,,0,6,6,6,0,5,5,1,,,,,,,,,,,,,,,,,,,,,,,,,,,,,,,,,,,,,,,,,,,,,,,,,,,,,,,546.6325521380004,None,546.6325521380004,None,546.6325521380004,None,c,1,0.9436847769993619,548.1665400010006,None,548.1665400010006,None,548.1665400010006,None,549.1661319530012,None,549.1661319530012,None,549.1661319530012,None,549.1661319530012,None,,,,,,,,,,,,,,,,,,,,,,,,,,,,,,,,,,,,,,,,,,,,001,82,2020_Feb_06_1058,spring_faces,3.1.5,60.07360422230028,
condition files/Stage1_1.xlsx,,B2,T1,m,"['c', 'm']","['Clue', 'Monopoly']","[-0.15, 0.5]","[0.15, 0.5]",1,1,,,,,,,,,0,6,6,6,0,6,6,2,,,,,,,,,,,,,,,,,,,,,,,,,,,,,,,,,,,,,,,,,,,,,,,,,,,,,,,551.1325670389997,None,551.1325670389997,None,551.1325670389997,None,m,1,0.6500550589989871,552.6682168219995,None,552.6682168219995,None,552.6682168219995,None,553.3994406410002,None,553.3994406410002,None,553.3994406410002,None,553.3994406410002,None,,,,,,,,,,,,,,,,,,,,,,,,,,,,,,,,,,,,,,,,,,,,001,82,2020_Feb_06_1058,spring_faces,3.1.5,60.07360422230028,
condition files/Stage1_1.xlsx,,T1,B1,c,"['c', 'm']","['Clue', 'Monopoly']","[-0.15, 0.5]","[0.15, 0.5]",1,1,,,,,,,,,0,6,6,6,0,7,7,0,,,,,,,,,,,,,,,,,,,,,,,,,,,,,,,,,,,,,,,,,,,,,,,,,,,,,,,555.3494426720008,None,555.3494426720008,None,555.3494426720008,None,c,1,0.9478827169987198,556.882382490001,None,556.882382490001,None,556.882382490001,None,557.8846677260008,None,557.8846677260008,None,557.8846677260008,None,557.8846677260008,None,,,,,,,,,,,,,,,,,,,,,,,,,,,,,,,,,,,,,,,,,,,,001,82,2020_Feb_06_1058,spring_faces,3.1.5,60.07360422230028,
condition files/Stage1_2.xlsx,,T2,B1,c,"['c', 'm']","['Clue', 'Monopoly']","[-0.15, 0.5]","[0.15, 0.5]",1,1,,,,,,,,,0,7,7,7,0,0,0,1,,,,,,,,,,,,,,,,,,,,,,,,,,,,,,,,,,,,,,,,,,,,,,,,,,,,,,,559.8661368789999,None,559.8661368789999,None,559.8661368789999,None,c,1,0.8783254390000366,561.3998804760013,None,561.3998804760013,None,561.3998804760013,None,562.3325535250005,None,562.3325535250005,None,562.3325535250005,None,562.3325535250005,None,,,,,,,,,,,,,,,,,,,,,,,,,,,,,,,,,,,,,,,,,,,,001,82,2020_Feb_06_1058,spring_faces,3.1.5,60.07360422230028,
condition files/Stage1_2.xlsx,,B2,T2,m,"['c', 'm']","['Clue', 'Monopoly']","[-0.15, 0.5]","[0.15, 0.5]",1,1,,,,,,,,,0,7,7,7,0,1,1,3,,,,,,,,,,,,,,,,,,,,,,,,,,,,,,,,,,,,,,,,,,,,,,,,,,,,,,,564.2990506570004,None,564.2990506570004,None,564.2990506570004,None,m,1,0.9894428710013017,565.848812061,None,565.848812061,None,565.848812061,None,566.9162298760002,None,566.9162298760002,None,566.9162298760002,None,566.9162298760002,None,,,,,,,,,,,,,,,,,,,,,,,,,,,,,,,,,,,,,,,,,,,,001,82,2020_Feb_06_1058,spring_faces,3.1.5,60.07360422230028,
condition files/Stage1_2.xlsx,,T3,B3,c,"['c', 'm']","['Clue', 'Monopoly']","[-0.15, 0.5]","[0.15, 0.5]",1,1,,,,,,,,,0,7,7,7,0,2,2,4,,,,,,,,,,,,,,,,,,,,,,,,,,,,,,,,,,,,,,,,,,,,,,,,,,,,,,,568.8656403260011,None,568.8656403260011,None,568.8656403260011,None,c,1,0.7900029150005139,570.4163124839997,None,570.4163124839997,None,570.4163124839997,None,571.2683251840008,None,571.2683251840008,None,571.2683251840008,None,571.2683251840008,None,,,,,,,,,,,,,,,,,,,,,,,,,,,,,,,,,,,,,,,,,,,,001,82,2020_Feb_06_1058,spring_faces,3.1.5,60.07360422230028,
condition files/Stage1_2.xlsx,,B4,T3,c,"['c', 'm']","['Clue', 'Monopoly']","[-0.15, 0.5]","[0.15, 0.5]",1,1,,,,,,,,,0,7,7,7,0,3,3,5,,,,,,,,,,,,,,,,,,,,,,,,,,,,,,,,,,,,,,,,,,,,,,,,,,,,,,,573.232691950001,None,573.232691950001,None,573.232691950001,None,c,1,1.032027035000283,574.7662249160003,None,574.7662249160003,None,574.7662249160003,None,575.8493281310002,None,575.8493281310002,None,575.8493281310002,None,575.8493281310002,None,,,,,,,,,,,,,,,,,,,,,,,,,,,,,,,,,,,,,,,,,,,,001,82,2020_Feb_06_1058,spring_faces,3.1.5,60.07360422230028,
condition files/Stage1_2.xlsx,,T1,B2,m,"['c', 'm']","['Clue', 'Monopoly']","[-0.15, 0.5]","[0.15, 0.5]",1,1,,,,,,,,,0,7,7,7,0,4,4,2,,,,,,,,,,,,,,,,,,,,,,,,,,,,,,,,,,,,,,,,,,,,,,,,,,,,,,,577.8159002209995,None,577.8159002209995,None,577.8159002209995,None,m,1,0.704824723999991,579.3654247470004,None,579.3654247470004,None,579.3654247470004,None,580.1330451550002,None,580.1330451550002,None,580.1330451550002,None,580.1330451550002,None,,,,,,,,,,,,,,,,,,,,,,,,,,,,,,,,,,,,,,,,,,,,001,82,2020_Feb_06_1058,spring_faces,3.1.5,60.07360422230028,
condition files/Stage1_2.xlsx,,B1,T1,c,"['c', 'm']","['Clue', 'Monopoly']","[-0.15, 0.5]","[0.15, 0.5]",1,1,,,,,,,,,0,7,7,7,0,5,5,0,,,,,,,,,,,,,,,,,,,,,,,,,,,,,,,,,,,,,,,,,,,,,,,,,,,,,,,582.0989533960001,None,582.0989533960001,None,582.0989533960001,None,c,1,0.629714418999356,583.6325472549997,None,583.6325472549997,None,583.6325472549997,None,584.3152947920007,None,584.3152947920007,None,584.3152947920007,None,584.3152947920007,None,,,,,,,,,,,,,,,,,,,,,,,,,,,,,,,,,,,,,,,,,,,,001,82,2020_Feb_06_1058,spring_faces,3.1.5,60.07360422230028,
condition files/Stage1_2.xlsx,,T4,B4,m,"['c', 'm']","['Clue', 'Monopoly']","[-0.15, 0.5]","[0.15, 0.5]",1,1,,,,,,,,,0,7,7,7,0,6,6,7,,,,,,,,,,,,,,,,,,,,,,,,,,,,,,,,,,,,,,,,,,,,,,,,,,,,,,,586.2821960439996,None,586.2821960439996,None,586.2821960439996,None,m,1,1.821986023998761,587.8162007680003,None,587.8162007680003,None,587.8162007680003,None,589.716232787001,None,589.716232787001,None,589.716232787001,None,589.716232787001,None,,,,,,,,,,,,,,,,,,,,,,,,,,,,,,,,,,,,,,,,,,,,001,82,2020_Feb_06_1058,spring_faces,3.1.5,60.07360422230028,
condition files/Stage1_2.xlsx,,B3,T4,m,"['c', 'm']","['Clue', 'Monopoly']","[-0.15, 0.5]","[0.15, 0.5]",1,1,,,,,,,,,0,7,7,7,0,7,7,6,,,,,,,,,,,,,,,,,,,,,,,,,,,,,,,,,,,,,,,,,,,,,,,,,,,,,,,591.6659595700003,None,591.6659595700003,None,591.6659595700003,None,m,1,0.8854790169989428,593.200790588,None,593.200790588,None,593.200790588,None,594.1495224200007,None,594.1495224200007,None,594.1495224200007,None,594.1495224200007,None,,,,,,,,,,,,,,,,,,,,,,,,,,,,,,,,,,,,,,,,,,,,001,82,2020_Feb_06_1058,spring_faces,3.1.5,60.07360422230028,
condition files/Stage1_1.xlsx,,T4,B3,m,"['c', 'm']","['Clue', 'Monopoly']","[-0.15, 0.5]","[0.15, 0.5]",1,1,,,,,,,,,0,8,8,8,0,0,0,6,,,,,,,,,,,,,,,,,,,,,,,,,,,,,,,,,,,,,,,,,,,,,,,,,,,,,,,596.1325927649996,None,596.1325927649996,None,596.1325927649996,None,m,1,0.5798912360005488,597.6663783390013,None,597.6663783390013,None,597.6663783390013,None,598.2994817050003,None,598.2994817050003,None,598.2994817050003,None,598.2994817050003,None,,,,,,,,,,,,,,,,,,,,,,,,,,,,,,,,,,,,,,,,,,,,001,82,2020_Feb_06_1058,spring_faces,3.1.5,60.07360422230028,
condition files/Stage1_1.xlsx,,B2,T1,m,"['c', 'm']","['Clue', 'Monopoly']","[-0.15, 0.5]","[0.15, 0.5]",1,1,,,,,,,,,0,8,8,8,0,1,1,2,,,,,,,,,,,,,,,,,,,,,,,,,,,,,,,,,,,,,,,,,,,,,,,,,,,,,,,600.265962413001,None,600.265962413001,None,600.265962413001,None,m,1,0.7808161840002867,601.8014367110009,None,601.8014367110009,None,601.8014367110009,None,602.6328904880011,None,602.6328904880011,None,602.6328904880011,None,602.6328904880011,None,,,,,,,,,,,,,,,,,,,,,,,,,,,,,,,,,,,,,,,,,,,,001,82,2020_Feb_06_1058,spring_faces,3.1.5,60.07360422230028,
condition files/Stage1_1.xlsx,,B3,T3,c,"['c', 'm']","['Clue', 'Monopoly']","[-0.15, 0.5]","[0.15, 0.5]",1,1,,,,,,,,,0,8,8,8,0,2,2,4,,,,,,,,,,,,,,,,,,,,,,,,,,,,,,,,,,,,,,,,,,,,,,,,,,,,,,,604.5993253920005,None,604.5993253920005,None,604.5993253920005,None,c,1,0.8801464789994498,606.1340996470008,None,606.1340996470008,None,606.1340996470008,None,607.0683783900004,None,607.0683783900004,None,607.0683783900004,None,607.0683783900004,None,,,,,,,,,,,,,,,,,,,,,,,,,,,,,,,,,,,,,,,,,,,,001,82,2020_Feb_06_1058,spring_faces,3.1.5,60.07360422230028,
condition files/Stage1_1.xlsx,,B4,T4,m,"['c', 'm']","['Clue', 'Monopoly']","[-0.15, 0.5]","[0.15, 0.5]",1,1,,,,,,,,,0,8,8,8,0,3,3,7,,,,,,,,,,,,,,,,,,,,,,,,,,,,,,,,,,,,,,,,,,,,,,,,,,,,,,,609.0320704770002,None,609.0320704770002,None,609.0320704770002,None,m,1,1.1186861109999882,610.5675772970008,None,610.5675772970008,None,610.5675772970008,None,611.7519267690004,None,611.7519267690004,None,611.7519267690004,None,611.7519267690004,None,,,,,,,,,,,,,,,,,,,,,,,,,,,,,,,,,,,,,,,,,,,,001,82,2020_Feb_06_1058,spring_faces,3.1.5,60.07360422230028,
condition files/Stage1_1.xlsx,,B1,T2,c,"['c', 'm']","['Clue', 'Monopoly']","[-0.15, 0.5]","[0.15, 0.5]",1,1,,,,,,,,,0,8,8,8,0,4,4,1,,,,,,,,,,,,,,,,,,,,,,,,,,,,,,,,,,,,,,,,,,,,,,,,,,,,,,,613.7156936390002,None,613.7156936390002,None,613.7156936390002,None,c,1,0.6132013549995463,615.2490546690005,None,615.2490546690005,None,615.2490546690005,None,615.9331812170003,None,615.9331812170003,None,615.9331812170003,None,615.9331812170003,None,,,,,,,,,,,,,,,,,,,,,,,,,,,,,,,,,,,,,,,,,,,,001,82,2020_Feb_06_1058,spring_faces,3.1.5,60.07360422230028,
condition files/Stage1_1.xlsx,,T3,B4,c,"['c', 'm']","['Clue', 'Monopoly']","[-0.15, 0.5]","[0.15, 0.5]",1,1,,,,,,,,,0,8,8,8,0,5,5,5,,,,,,,,,,,,,,,,,,,,,,,,,,,,,,,,,,,,,,,,,,,,,,,,,,,,,,,617.8820228530003,None,617.8820228530003,None,617.8820228530003,None,c,1,0.4774432459998934,619.4328102520012,None,619.4328102520012,None,619.4328102520012,None,619.9665254049996,None,619.9665254049996,None,619.9665254049996,None,619.9665254049996,None,,,,,,,,,,,,,,,,,,,,,,,,,,,,,,,,,,,,,,,,,,,,001,82,2020_Feb_06_1058,spring_faces,3.1.5,60.07360422230028,
condition files/Stage1_1.xlsx,,T1,B1,c,"['c', 'm']","['Clue', 'Monopoly']","[-0.15, 0.5]","[0.15, 0.5]",1,1,,,,,,,,,0,8,8,8,0,6,6,0,,,,,,,,,,,,,,,,,,,,,,,,,,,,,,,,,,,,,,,,,,,,,,,,,,,,,,,621.932137328,None,621.932137328,None,621.932137328,None,c,1,1.1313023269995028,623.466956100001,None,623.466956100001,None,623.466956100001,None,624.6490821040006,None,624.6490821040006,None,624.6490821040006,None,624.6490821040006,None,,,,,,,,,,,,,,,,,,,,,,,,,,,,,,,,,,,,,,,,,,,,001,82,2020_Feb_06_1058,spring_faces,3.1.5,60.07360422230028,
condition files/Stage1_1.xlsx,,T2,B2,m,"['c', 'm']","['Clue', 'Monopoly']","[-0.15, 0.5]","[0.15, 0.5]",1,1,,,,,,,,,0,8,8,8,0,7,7,3,,,,,,,,,,,,,,,,,,,,,,,,,,,,,,,,,,,,,,,,,,,,,,,,,,,,,,,626.6159612909996,None,626.6159612909996,None,626.6159612909996,None,m,1,0.5278597390006325,628.1663455730013,None,628.1663455730013,None,628.1663455730013,None,628.7511351320009,None,628.7511351320009,None,628.7511351320009,None,628.7511351320009,None,,,,,,,,,,,,,,,,,,,,,,,,,,,,,,,,,,,,,,,,,,,,001,82,2020_Feb_06_1058,spring_faces,3.1.5,60.07360422230028,
condition files/Stage1_2.xlsx,,B1,T1,c,"['c', 'm']","['Clue', 'Monopoly']","[-0.15, 0.5]","[0.15, 0.5]",1,1,,,,,,,,,0,9,9,9,0,0,0,0,,,,,,,,,,,,,,,,,,,,,,,,,,,,,,,,,,,,,,,,,,,,,,,,,,,,,,,630.732885976,None,630.732885976,None,630.732885976,None,c,1,0.5085991659998399,632.2657456979996,None,632.2657456979996,None,632.2657456979996,None,632.8318843060006,None,632.8318843060006,None,632.8318843060006,None,632.8318843060006,None,,,,,,,,,,,,,,,,,,,,,,,,,,,,,,,,,,,,,,,,,,,,001,82,2020_Feb_06_1058,spring_faces,3.1.5,60.07360422230028,
condition files/Stage1_2.xlsx,,T2,B1,c,"['c', 'm']","['Clue', 'Monopoly']","[-0.15, 0.5]","[0.15, 0.5]",1,1,,,,,,,,,0,9,9,9,0,1,1,1,,,,,,,,,,,,,,,,,,,,,,,,,,,,,,,,,,,,,,,,,,,,,,,,,,,,,,,634.7992452890012,None,634.7992452890012,None,634.7992452890012,None,c,1,0.8086261389998981,636.3496919099998,None,636.3496919099998,None,636.3496919099998,None,637.2161806960012,None,637.2161806960012,None,637.2161806960012,None,637.2161806960012,None,,,,,,,,,,,,,,,,,,,,,,,,,,,,,,,,,,,,,,,,,,,,001,82,2020_Feb_06_1058,spring_faces,3.1.5,60.07360422230028,
condition files/Stage1_2.xlsx,,B2,T2,m,"['c', 'm']","['Clue', 'Monopoly']","[-0.15, 0.5]","[0.15, 0.5]",1,1,,,,,,,,,0,9,9,9,0,2,2,3,,,,,,,,,,,,,,,,,,,,,,,,,,,,,,,,,,,,,,,,,,,,,,,,,,,,,,,639.1827257220011,None,639.1827257220011,None,639.1827257220011,None,m,1,0.6494287370005623,640.7167743730006,None,640.7167743730006,None,640.7167743730006,None,641.4330378040013,None,641.4330378040013,None,641.4330378040013,None,641.4330378040013,None,,,,,,,,,,,,,,,,,,,,,,,,,,,,,,,,,,,,,,,,,,,,001,82,2020_Feb_06_1058,spring_faces,3.1.5,60.07360422230028,
condition files/Stage1_2.xlsx,,T1,B2,m,"['c', 'm']","['Clue', 'Monopoly']","[-0.15, 0.5]","[0.15, 0.5]",1,1,,,,,,,,,0,9,9,9,0,3,3,2,,,,,,,,,,,,,,,,,,,,,,,,,,,,,,,,,,,,,,,,,,,,,,,,,,,,,,,643.3993555890011,None,643.3993555890011,None,643.3993555890011,None,m,1,0.8335109340005147,644.9327218770013,None,644.9327218770013,None,644.9327218770013,None,645.8161932750008,None,645.8161932750008,None,645.8161932750008,None,645.8161932750008,None,,,,,,,,,,,,,,,,,,,,,,,,,,,,,,,,,,,,,,,,,,,,001,82,2020_Feb_06_1058,spring_faces,3.1.5,60.07360422230028,
condition files/Stage1_2.xlsx,,T3,B3,c,"['c', 'm']","['Clue', 'Monopoly']","[-0.15, 0.5]","[0.15, 0.5]",1,1,,,,,,,,,0,9,9,9,0,4,4,4,,,,,,,,,,,,,,,,,,,,,,,,,,,,,,,,,,,,,,,,,,,,,,,,,,,,,,,647.7823275379997,None,647.7823275379997,None,647.7823275379997,None,c,1,0.8652509249986906,649.3329912990012,None,649.3329912990012,None,649.3329912990012,None,650.266477481,None,650.266477481,None,650.266477481,None,650.266477481,None,,,,,,,,,,,,,,,,,,,,,,,,,,,,,,,,,,,,,,,,,,,,001,82,2020_Feb_06_1058,spring_faces,3.1.5,60.07360422230028,
condition files/Stage1_2.xlsx,,T4,B4,m,"['c', 'm']","['Clue', 'Monopoly']","[-0.15, 0.5]","[0.15, 0.5]",1,1,,,,,,,,,0,9,9,9,0,5,5,7,,,,,,,,,,,,,,,,,,,,,,,,,,,,,,,,,,,,,,,,,,,,,,,,,,,,,,,652.2159608090005,None,652.2159608090005,None,652.2159608090005,None,m,1,0.5280560610008251,653.750204811,None,653.750204811,None,653.750204811,None,654.3322309840005,None,654.3322309840005,None,654.3322309840005,None,654.3322309840005,None,,,,,,,,,,,,,,,,,,,,,,,,,,,,,,,,,,,,,,,,,,,,001,82,2020_Feb_06_1058,spring_faces,3.1.5,60.07360422230028,
condition files/Stage1_2.xlsx,,B4,T3,c,"['c', 'm']","['Clue', 'Monopoly']","[-0.15, 0.5]","[0.15, 0.5]",1,1,,,,,,,,,0,9,9,9,0,6,6,5,,,,,,,,,,,,,,,,,,,,,,,,,,,,,,,,,,,,,,,,,,,,,,,,,,,,,,,656.2992524519996,None,656.2992524519996,None,656.2992524519996,None,c,1,1.1008398399990256,657.8333904089995,None,657.8333904089995,None,657.8333904089995,None,658.9990261530002,None,658.9990261530002,None,658.9990261530002,None,658.9990261530002,None,,,,,,,,,,,,,,,,,,,,,,,,,,,,,,,,,,,,,,,,,,,,001,82,2020_Feb_06_1058,spring_faces,3.1.5,60.07360422230028,
condition files/Stage1_2.xlsx,,B3,T4,m,"['c', 'm']","['Clue', 'Monopoly']","[-0.15, 0.5]","[0.15, 0.5]",1,1,,,,,,,,,0,9,9,9,0,7,7,6,,,,,,,,,,,,,,,,,,,,,,,,,,,,,,,,,,,,,,,,,,,,,,,,,,,,,,,660.9661747350001,None,660.9661747350001,None,660.9661747350001,None,m,1,0.9148821859998861,662.4993555849996,None,662.4993555849996,None,662.4993555849996,None,663.4661853779999,None,663.4661853779999,None,663.4661853779999,None,663.4661853779999,None,,,,,,,,,,,,,,,,,,,,,,,,,,,,,,,,,,,,,,,,,,,,001,82,2020_Feb_06_1058,spring_faces,3.1.5,60.07360422230028,
condition files/Stage1_1.xlsx,,T2,B2,m,"['c', 'm']","['Clue', 'Monopoly']","[-0.15, 0.5]","[0.15, 0.5]",1,1,,,,,,,,,0,10,10,10,0,0,0,3,,,,,,,,,,,,,,,,,,,,,,,,,,,,,,,,,,,,,,,,,,,,,,,,,,,,,,,665.4493340170011,None,665.4493340170011,None,665.4493340170011,None,m,1,0.638858229998732,666.9993893379997,None,666.9993893379997,None,666.9993893379997,None,667.6999999210002,None,667.6999999210002,None,667.6999999210002,None,667.6999999210002,None,,,,,,,,,,,,,,,,,,,,,,,,,,,,,,,,,,,,,,,,,,,,001,82,2020_Feb_06_1058,spring_faces,3.1.5,60.07360422230028,
condition files/Stage1_1.xlsx,,B2,T1,m,"['c', 'm']","['Clue', 'Monopoly']","[-0.15, 0.5]","[0.15, 0.5]",1,1,,,,,,,,,0,10,10,10,0,1,1,2,,,,,,,,,,,,,,,,,,,,,,,,,,,,,,,,,,,,,,,,,,,,,,,,,,,,,,,669.6654640910001,None,669.6654640910001,None,669.6654640910001,None,m,1,0.5170136479991925,671.2012551600001,None,671.2012551600001,None,671.2012551600001,None,671.7830681280011,None,671.7830681280011,None,671.7830681280011,None,671.7830681280011,None,,,,,,,,,,,,,,,,,,,,,,,,,,,,,,,,,,,,,,,,,,,,001,82,2020_Feb_06_1058,spring_faces,3.1.5,60.07360422230028,
condition files/Stage1_1.xlsx,,B1,T2,c,"['c', 'm']","['Clue', 'Monopoly']","[-0.15, 0.5]","[0.15, 0.5]",1,1,,,,,,,,,0,10,10,10,0,2,2,1,,,,,,,,,,,,,,,,,,,,,,,,,,,,,,,,,,,,,,,,,,,,,,,,,,,,,,,673.7488820409999,None,673.7488820409999,None,673.7488820409999,None,c,1,0.6915365250006289,675.2827804070002,None,675.2827804070002,None,675.2827804070002,None,676.0328228010003,None,676.0328228010003,None,676.0328228010003,None,676.0328228010003,None,,,,,,,,,,,,,,,,,,,,,,,,,,,,,,,,,,,,,,,,,,,,001,82,2020_Feb_06_1058,spring_faces,3.1.5,60.07360422230028,
condition files/Stage1_1.xlsx,,T3,B4,c,"['c', 'm']","['Clue', 'Monopoly']","[-0.15, 0.5]","[0.15, 0.5]",1,1,,,,,,,,,0,10,10,10,0,3,3,5,,,,,,,,,,,,,,,,,,,,,,,,,,,,,,,,,,,,,,,,,,,,,,,,,,,,,,,677.999105207,None,677.999105207,None,677.999105207,None,c,1,0.7134508999988611,679.5328164490002,None,679.5328164490002,None,679.5328164490002,None,680.299113856001,None,680.299113856001,None,680.299113856001,None,680.299113856001,None,,,,,,,,,,,,,,,,,,,,,,,,,,,,,,,,,,,,,,,,,,,,001,82,2020_Feb_06_1058,spring_faces,3.1.5,60.07360422230028,
condition files/Stage1_1.xlsx,,B3,T3,c,"['c', 'm']","['Clue', 'Monopoly']","[-0.15, 0.5]","[0.15, 0.5]",1,1,,,,,,,,,0,10,10,10,0,4,4,4,,,,,,,,,,,,,,,,,,,,,,,,,,,,,,,,,,,,,,,,,,,,,,,,,,,,,,,682.2660913630007,None,682.2660913630007,None,682.2660913630007,None,c,1,0.5901821679999557,683.816132715001,None,683.816132715001,None,683.816132715001,None,684.4663462490007,None,684.4663462490007,None,684.4663462490007,None,684.4663462490007,None,,,,,,,,,,,,,,,,,,,,,,,,,,,,,,,,,,,,,,,,,,,,001,82,2020_Feb_06_1058,spring_faces,3.1.5,60.07360422230028,
condition files/Stage1_1.xlsx,,T1,B1,c,"['c', 'm']","['Clue', 'Monopoly']","[-0.15, 0.5]","[0.15, 0.5]",1,1,,,,,,,,,0,10,10,10,0,5,5,0,,,,,,,,,,,,,,,,,,,,,,,,,,,,,,,,,,,,,,,,,,,,,,,,,,,,,,,686.4325909199997,None,686.4325909199997,None,686.4325909199997,None,c,1,0.600276085000587,687.9659306550002,None,687.9659306550002,None,687.9659306550002,None,688.6327926590002,None,688.6327926590002,None,688.6327926590002,None,688.6327926590002,None,,,,,,,,,,,,,,,,,,,,,,,,,,,,,,,,,,,,,,,,,,,,001,82,2020_Feb_06_1058,spring_faces,3.1.5,60.07360422230028,
condition files/Stage1_1.xlsx,,T4,B3,m,"['c', 'm']","['Clue', 'Monopoly']","[-0.15, 0.5]","[0.15, 0.5]",1,1,,,,,,,,,0,10,10,10,0,6,6,6,,,,,,,,,,,,,,,,,,,,,,,,,,,,,,,,,,,,,,,,,,,,,,,,,,,,,,,690.5994242140005,None,690.5994242140005,None,690.5994242140005,None,m,1,0.9458325220002735,692.132414474001,None,692.132414474001,None,692.132414474001,None,693.1323007200008,None,693.1323007200008,None,693.1323007200008,None,693.1323007200008,None,,,,,,,,,,,,,,,,,,,,,,,,,,,,,,,,,,,,,,,,,,,,001,82,2020_Feb_06_1058,spring_faces,3.1.5,60.07360422230028,
condition files/Stage1_1.xlsx,,B4,T4,m,"['c', 'm']","['Clue', 'Monopoly']","[-0.15, 0.5]","[0.15, 0.5]",1,1,,,,,,,,,0,10,10,10,0,7,7,7,,,,,,,,,,,,,,,,,,,,,,,,,,,,,,,,,,,,,,,,,,,,,,,,,,,,,,,695.0992575150012,None,695.0992575150012,None,695.0992575150012,None,m,1,0.6693782349993853,696.6328884860013,None,696.6328884860013,None,696.6328884860013,None,697.3660230740006,None,697.3660230740006,None,697.3660230740006,None,697.3660230740006,None,,,,,,,,,,,,,,,,,,,,,,,,,,,,,,,,,,,,,,,,,,,,001,82,2020_Feb_06_1058,spring_faces,3.1.5,60.07360422230028,
condition files/Stage1_2.xlsx,,B1,T1,c,"['c', 'm']","['Clue', 'Monopoly']","[-0.15, 0.5]","[0.15, 0.5]",1,1,,,,,,,,,0,11,11,11,0,0,0,0,,,,,,,,,,,,,,,,,,,,,,,,,,,,,,,,,,,,,,,,,,,,,,,,,,,,,,,699.3496985050006,None,699.3496985050006,None,699.3496985050006,None,c,1,0.38778049199936504,700.8824795809996,None,700.8824795809996,None,700.8824795809996,None,701.3496807890006,None,701.3496807890006,None,701.3496807890006,None,701.3496807890006,None,,,,,,,,,,,,,,,,,,,,,,,,,,,,,,,,,,,,,,,,,,,,001,82,2020_Feb_06_1058,spring_faces,3.1.5,60.07360422230028,
condition files/Stage1_2.xlsx,,B4,T3,c,"['c', 'm']","['Clue', 'Monopoly']","[-0.15, 0.5]","[0.15, 0.5]",1,1,,,,,,,,,0,11,11,11,0,1,1,5,,,,,,,,,,,,,,,,,,,,,,,,,,,,,,,,,,,,,,,,,,,,,,,,,,,,,,,703.2992603980001,None,703.2992603980001,None,703.2992603980001,None,c,1,0.5815858510013641,704.8326689269998,None,704.8326689269998,None,704.8326689269998,None,705.4660882530006,None,705.4660882530006,None,705.4660882530006,None,705.4660882530006,None,,,,,,,,,,,,,,,,,,,,,,,,,,,,,,,,,,,,,,,,,,,,001,82,2020_Feb_06_1058,spring_faces,3.1.5,60.07360422230028,
condition files/Stage1_2.xlsx,,T4,B4,m,"['c', 'm']","['Clue', 'Monopoly']","[-0.15, 0.5]","[0.15, 0.5]",1,1,,,,,,,,,0,11,11,11,0,2,2,7,,,,,,,,,,,,,,,,,,,,,,,,,,,,,,,,,,,,,,,,,,,,,,,,,,,,,,,707.4325748270003,None,707.4325748270003,None,707.4325748270003,None,c,0,0.6870612200000323,708.9672171910006,None,708.9672171910006,None,708.9672171910006,None,709.7175069410005,None,709.7175069410005,None,709.7175069410005,None,709.7175069410005,None,,,,,,,,,,,,,,,,,,,,,,,,,,,,,,,,,,,,,,,,,,,,001,82,2020_Feb_06_1058,spring_faces,3.1.5,60.07360422230028,
condition files/Stage1_2.xlsx,,B2,T2,m,"['c', 'm']","['Clue', 'Monopoly']","[-0.15, 0.5]","[0.15, 0.5]",1,1,,,,,,,,,0,11,11,11,0,3,3,3,,,,,,,,,,,,,,,,,,,,,,,,,,,,,,,,,,,,,,,,,,,,,,,,,,,,,,,711.6821978700009,None,711.6821978700009,None,711.6821978700009,None,m,1,0.5340154229998006,713.2321962180013,None,713.2321962180013,None,713.2321962180013,None,713.8165110310001,None,713.8165110310001,None,713.8165110310001,None,713.8165110310001,None,,,,,,,,,,,,,,,,,,,,,,,,,,,,,,,,,,,,,,,,,,,,001,82,2020_Feb_06_1058,spring_faces,3.1.5,60.07360422230028,
condition files/Stage1_2.xlsx,,T3,B3,c,"['c', 'm']","['Clue', 'Monopoly']","[-0.15, 0.5]","[0.15, 0.5]",1,1,,,,,,,,,0,11,11,11,0,4,4,4,,,,,,,,,,,,,,,,,,,,,,,,,,,,,,,,,,,,,,,,,,,,,,,,,,,,,,,715.7825739079999,None,715.7825739079999,None,715.7825739079999,None,c,1,0.6580132790004427,717.3323026779999,None,717.3323026779999,None,717.3323026779999,None,718.0662463090011,None,718.0662463090011,None,718.0662463090011,None,718.0662463090011,None,,,,,,,,,,,,,,,,,,,,,,,,,,,,,,,,,,,,,,,,,,,,001,82,2020_Feb_06_1058,spring_faces,3.1.5,60.07360422230028,
condition files/Stage1_2.xlsx,,T2,B1,c,"['c', 'm']","['Clue', 'Monopoly']","[-0.15, 0.5]","[0.15, 0.5]",1,1,,,,,,,,,0,11,11,11,0,5,5,1,,,,,,,,,,,,,,,,,,,,,,,,,,,,,,,,,,,,,,,,,,,,,,,,,,,,,,,720.0152422430001,None,720.0152422430001,None,720.0152422430001,None,c,1,1.0169876529998874,721.549224927001,None,721.549224927001,None,721.549224927001,None,722.632713035,None,722.632713035,None,722.632713035,None,722.632713035,None,,,,,,,,,,,,,,,,,,,,,,,,,,,,,,,,,,,,,,,,,,,,001,82,2020_Feb_06_1058,spring_faces,3.1.5,60.07360422230028,
condition files/Stage1_2.xlsx,,T1,B2,m,"['c', 'm']","['Clue', 'Monopoly']","[-0.15, 0.5]","[0.15, 0.5]",1,1,,,,,,,,,0,11,11,11,0,6,6,2,,,,,,,,,,,,,,,,,,,,,,,,,,,,,,,,,,,,,,,,,,,,,,,,,,,,,,,724.5988979970007,None,724.5988979970007,None,724.5988979970007,None,m,1,0.8014767799995752,726.1327272630006,None,726.1327272630006,None,726.1327272630006,None,727.0015268490006,None,727.0015268490006,None,727.0015268490006,None,727.0015268490006,None,,,,,,,,,,,,,,,,,,,,,,,,,,,,,,,,,,,,,,,,,,,,001,82,2020_Feb_06_1058,spring_faces,3.1.5,60.07360422230028,
condition files/Stage1_2.xlsx,,B3,T4,m,"['c', 'm']","['Clue', 'Monopoly']","[-0.15, 0.5]","[0.15, 0.5]",1,1,,,,,,,,,0,11,11,11,0,7,7,6,,,,,,,,,,,,,,,,,,,,,,,,,,,,,,,,,,,,,,,,,,,,,,,,,,,,,,,728.9654969910007,None,728.9654969910007,None,728.9654969910007,None,m,1,0.9776414869993459,730.5006149100009,None,730.5006149100009,None,730.5006149100009,None,731.5325998970002,None,731.5325998970002,None,731.5325998970002,None,731.5325998970002,None,,,,,,,,,,,,,,,,,,,,,,,,,,,,,,,,,,,,,,,,,,,,001,82,2020_Feb_06_1058,spring_faces,3.1.5,60.07360422230028,
,,,,,,,,,,,,,,,,,,,,,,,,,,,,,,,,,,,,,,,,,,,,,,,,,,,,,,,,,,,,,,,,,,,,,,,,,,,,,,,,,,,,,,,,,,,,,,,,,,,,,,,,,,,,,,,,733.5161104630006,None,space,2.0343872270004795,738.5158301210013,None,,,,,,,,,,,,,,,,,,,,,,,,,,,,,,001,82,2020_Feb_06_1058,spring_faces,3.1.5,60.07360422230028,
condition files/Stage2_1.xlsx,,T1,B1,s,"['s', 'r']","['Stratego', 'Risk']","[-0.15, 0.5]","[0.15, 0.5]",1,1,,,,,,,,,,,,,,,,,0,0,0,0,0,0,0,2,,,,,,,,,,,,,,,,,,,,,,,,,,,,,,,,,,,,,,,,,,,,,,,740.616382264001,None,740.616382264001,None,740.616382264001,None,s,1,2.5459884280007827,742.1162748759998,None,742.1162748759998,None,742.1162748759998,None,744.7164086030007,None,744.7164086030007,None,744.7164086030007,None,744.7164086030007,None,,,,,,,,,,,,,,,738.5158301210013,None,,,,,,,,,,,,,,,,,,,,,,,,,,,,001,82,2020_Feb_06_1058,spring_faces,3.1.5,60.07360422230028,
condition files/Stage2_1.xlsx,,T5,B5,s,"['s', 'r']","['Stratego', 'Risk']","[-0.15, 0.5]","[0.15, 0.5]",1,1,,,,,,,,,,,,,,,,,0,0,0,0,0,1,1,0,,,,,,,,,,,,,,,,,,,,,,,,,,,,,,,,,,,,,,,,,,,,,,,746.6825529859998,None,746.6825529859998,None,746.6825529859998,None,r,0,0.9082025070001691,748.266116353001,None,748.266116353001,None,748.266116353001,None,749.2328084670007,None,749.2328084670007,None,749.2328084670007,None,749.2328084670007,None,,,,,,,,,,,,,,,,,,,,,,,,,,,,,,,,,,,,,,,,,,,,001,82,2020_Feb_06_1058,spring_faces,3.1.5,60.07360422230028,
condition files/Stage2_1.xlsx,,B2,T2,r,"['s', 'r']","['Stratego', 'Risk']","[-0.15, 0.5]","[0.15, 0.5]",1,1,,,,,,,,,,,,,,,,,0,0,0,0,0,2,2,3,,,,,,,,,,,,,,,,,,,,,,,,,,,,,,,,,,,,,,,,,,,,,,,751.1984597690007,None,751.1984597690007,None,751.1984597690007,None,r,1,0.5844633840006281,752.7497836149996,None,752.7497836149996,None,752.7497836149996,None,753.4162096560012,None,753.4162096560012,None,753.4162096560012,None,753.4162096560012,None,,,,,,,,,,,,,,,,,,,,,,,,,,,,,,,,,,,,,,,,,,,,001,82,2020_Feb_06_1058,spring_faces,3.1.5,60.07360422230028,
condition files/Stage2_1.xlsx,,B6,T6,r,"['s', 'r']","['Stratego', 'Risk']","[-0.15, 0.5]","[0.15, 0.5]",1,1,,,,,,,,,,,,,,,,,0,0,0,0,0,3,3,1,,,,,,,,,,,,,,,,,,,,,,,,,,,,,,,,,,,,,,,,,,,,,,,755.3658722290002,None,755.3658722290002,None,755.3658722290002,None,s,0,1.474022906000755,756.900306077001,None,756.900306077001,None,756.900306077001,None,758.4330596260006,None,758.4330596260006,None,758.4330596260006,None,758.4330596260006,None,,,,,,,,,,,,,,,,,,,,,,,,,,,,,,,,,,,,,,,,,,,,001,82,2020_Feb_06_1058,spring_faces,3.1.5,60.07360422230028,
condition files/Stage2_1.xlsx,,T3,B3,s,"['s', 'r']","['Stratego', 'Risk']","[-0.15, 0.5]","[0.15, 0.5]",1,1,,,,,,,,,,,,,,,,,0,0,0,0,0,4,4,4,,,,,,,,,,,,,,,,,,,,,,,,,,,,,,,,,,,,,,,,,,,,,,,760.3992948710002,None,760.3992948710002,None,760.3992948710002,None,r,0,1.7061985260006622,761.9320411400004,None,761.9320411400004,None,761.9320411400004,None,763.7015484710009,None,763.7015484710009,None,763.7015484710009,None,763.7015484710009,None,,,,,,,,,,,,,,,,,,,,,,,,,,,,,,,,,,,,,,,,,,,,001,82,2020_Feb_06_1058,spring_faces,3.1.5,60.07360422230028,
condition files/Stage2_1.xlsx,,B4,T4,r,"['s', 'r']","['Stratego', 'Risk']","[-0.15, 0.5]","[0.15, 0.5]",1,1,,,,,,,,,,,,,,,,,0,0,0,0,0,5,5,5,,,,,,,,,,,,,,,,,,,,,,,,,,,,,,,,,,,,,,,,,,,,,,,765.6658440270003,None,765.6658440270003,None,765.6658440270003,None,s,0,1.7969707409993134,767.2012868310012,None,767.2012868310012,None,767.2012868310012,None,769.0517991960005,None,769.0517991960005,None,769.0517991960005,None,769.0517991960005,None,,,,,,,,,,,,,,,,,,,,,,,,,,,,,,,,,,,,,,,,,,,,001,82,2020_Feb_06_1058,spring_faces,3.1.5,60.07360422230028,
condition files/Stage2_2.xlsx,,T4,B4,r,"['s', 'r']","['Stratego', 'Risk']","[-0.15, 0.5]","[0.15, 0.5]",1,1,,,,,,,,,,,,,,,,,0,1,1,1,0,0,0,5,,,,,,,,,,,,,,,,,,,,,,,,,,,,,,,,,,,,,,,,,,,,,,,771.0329438709996,None,771.0329438709996,None,771.0329438709996,None,r,1,2.096653647999119,772.5656048100009,None,772.5656048100009,None,772.5656048100009,None,774.7164650960003,None,774.7164650960003,None,774.7164650960003,None,774.7164650960003,None,,,,,,,,,,,,,,,,,,,,,,,,,,,,,,,,,,,,,,,,,,,,001,82,2020_Feb_06_1058,spring_faces,3.1.5,60.07360422230028,
condition files/Stage2_2.xlsx,,T6,B6,r,"['s', 'r']","['Stratego', 'Risk']","[-0.15, 0.5]","[0.15, 0.5]",1,1,,,,,,,,,,,,,,,,,0,1,1,1,0,1,1,1,,,,,,,,,,,,,,,,,,,,,,,,,,,,,,,,,,,,,,,,,,,,,,,776.6823978780012,None,776.6823978780012,None,776.6823978780012,None,r,1,1.7726177830008965,778.2177194619999,None,778.2177194619999,None,778.2177194619999,None,780.0496645420008,None,780.0496645420008,None,780.0496645420008,None,780.0496645420008,None,,,,,,,,,,,,,,,,,,,,,,,,,,,,,,,,,,,,,,,,,,,,001,82,2020_Feb_06_1058,spring_faces,3.1.5,60.07360422230028,
condition files/Stage2_2.xlsx,,B5,T5,s,"['s', 'r']","['Stratego', 'Risk']","[-0.15, 0.5]","[0.15, 0.5]",1,1,,,,,,,,,,,,,,,,,0,1,1,1,0,2,2,0,,,,,,,,,,,,,,,,,,,,,,,,,,,,,,,,,,,,,,,,,,,,,,,782.0160789740003,None,782.0160789740003,None,782.0160789740003,None,s,1,1.0809604920013953,783.5492547120011,None,783.5492547120011,None,783.5492547120011,None,784.6855654089995,None,784.6855654089995,None,784.6855654089995,None,784.6855654089995,None,,,,,,,,,,,,,,,,,,,,,,,,,,,,,,,,,,,,,,,,,,,,001,82,2020_Feb_06_1058,spring_faces,3.1.5,60.07360422230028,
condition files/Stage2_2.xlsx,,B1,T1,s,"['s', 'r']","['Stratego', 'Risk']","[-0.15, 0.5]","[0.15, 0.5]",1,1,,,,,,,,,,,,,,,,,0,1,1,1,0,3,3,2,,,,,,,,,,,,,,,,,,,,,,,,,,,,,,,,,,,,,,,,,,,,,,,786.6491119210004,None,786.6491119210004,None,786.6491119210004,None,s,1,0.479885305998323,788.1823374920004,None,788.1823374920004,None,788.1823374920004,None,788.7161133219997,None,788.7161133219997,None,788.7161133219997,None,788.7161133219997,None,,,,,,,,,,,,,,,,,,,,,,,,,,,,,,,,,,,,,,,,,,,,001,82,2020_Feb_06_1058,spring_faces,3.1.5,60.07360422230028,
condition files/Stage2_2.xlsx,,B3,T3,s,"['s', 'r']","['Stratego', 'Risk']","[-0.15, 0.5]","[0.15, 0.5]",1,1,,,,,,,,,,,,,,,,,0,1,1,1,0,4,4,4,,,,,,,,,,,,,,,,,,,,,,,,,,,,,,,,,,,,,,,,,,,,,,,790.682751444001,None,790.682751444001,None,790.682751444001,None,r,0,1.164710245000606,792.2175544769998,None,792.2175544769998,None,792.2175544769998,None,793.4329270390008,None,793.4329270390008,None,793.4329270390008,None,793.4329270390008,None,,,,,,,,,,,,,,,,,,,,,,,,,,,,,,,,,,,,,,,,,,,,001,82,2020_Feb_06_1058,spring_faces,3.1.5,60.07360422230028,
condition files/Stage2_2.xlsx,,T2,B2,r,"['s', 'r']","['Stratego', 'Risk']","[-0.15, 0.5]","[0.15, 0.5]",1,1,,,,,,,,,,,,,,,,,0,1,1,1,0,5,5,3,,,,,,,,,,,,,,,,,,,,,,,,,,,,,,,,,,,,,,,,,,,,,,,795.3988005290012,None,795.3988005290012,None,795.3988005290012,None,r,1,1.1995583450006961,796.9346554290005,None,796.9346554290005,None,796.9346554290005,None,798.1997991280004,None,798.1997991280004,None,798.1997991280004,None,798.1997991280004,None,,,,,,,,,,,,,,,,,,,,,,,,,,,,,,,,,,,,,,,,,,,,001,82,2020_Feb_06_1058,spring_faces,3.1.5,60.07360422230028,
condition files/Stage2_1.xlsx,,T1,B1,s,"['s', 'r']","['Stratego', 'Risk']","[-0.15, 0.5]","[0.15, 0.5]",1,1,,,,,,,,,,,,,,,,,0,2,2,2,0,0,0,2,,,,,,,,,,,,,,,,,,,,,,,,,,,,,,,,,,,,,,,,,,,,,,,800.1828461460009,None,800.1828461460009,None,800.1828461460009,None,s,1,0.9305872810000437,801.7156737910009,None,801.7156737910009,None,801.7156737910009,None,802.7162415029998,None,802.7162415029998,None,802.7162415029998,None,802.7162415029998,None,,,,,,,,,,,,,,,,,,,,,,,,,,,,,,,,,,,,,,,,,,,,001,82,2020_Feb_06_1058,spring_faces,3.1.5,60.07360422230028,
condition files/Stage2_1.xlsx,,T3,B3,s,"['s', 'r']","['Stratego', 'Risk']","[-0.15, 0.5]","[0.15, 0.5]",1,1,,,,,,,,,,,,,,,,,0,2,2,2,0,1,1,4,,,,,,,,,,,,,,,,,,,,,,,,,,,,,,,,,,,,,,,,,,,,,,,804.6659682150002,None,804.6659682150002,None,804.6659682150002,None,s,1,0.5271394819992565,806.1991764670001,None,806.1991764670001,None,806.1991764670001,None,806.7830829409995,None,806.7830829409995,None,806.7830829409995,None,806.7830829409995,None,,,,,,,,,,,,,,,,,,,,,,,,,,,,,,,,,,,,,,,,,,,,001,82,2020_Feb_06_1058,spring_faces,3.1.5,60.07360422230028,
condition files/Stage2_1.xlsx,,B6,T6,r,"['s', 'r']","['Stratego', 'Risk']","[-0.15, 0.5]","[0.15, 0.5]",1,1,,,,,,,,,,,,,,,,,0,2,2,2,0,2,2,1,,,,,,,,,,,,,,,,,,,,,,,,,,,,,,,,,,,,,,,,,,,,,,,808.7492972399996,None,808.7492972399996,None,808.7492972399996,None,r,1,0.650686103001135,810.2995103770008,None,810.2995103770008,None,810.2995103770008,None,811.0329657460006,None,811.0329657460006,None,811.0329657460006,None,811.0329657460006,None,,,,,,,,,,,,,,,,,,,,,,,,,,,,,,,,,,,,,,,,,,,,001,82,2020_Feb_06_1058,spring_faces,3.1.5,60.07360422230028,
condition files/Stage2_1.xlsx,,B4,T4,r,"['s', 'r']","['Stratego', 'Risk']","[-0.15, 0.5]","[0.15, 0.5]",1,1,,,,,,,,,,,,,,,,,0,2,2,2,0,3,3,5,,,,,,,,,,,,,,,,,,,,,,,,,,,,,,,,,,,,,,,,,,,,,,,812.9826913310008,None,812.9826913310008,None,812.9826913310008,None,r,1,0.9933875909991912,814.532924399,None,814.532924399,None,814.532924399,None,815.5831552100008,None,815.5831552100008,None,815.5831552100008,None,815.5831552100008,None,,,,,,,,,,,,,,,,,,,,,,,,,,,,,,,,,,,,,,,,,,,,001,82,2020_Feb_06_1058,spring_faces,3.1.5,60.07360422230028,
condition files/Stage2_1.xlsx,,B2,T2,r,"['s', 'r']","['Stratego', 'Risk']","[-0.15, 0.5]","[0.15, 0.5]",1,1,,,,,,,,,,,,,,,,,0,2,2,2,0,4,4,3,,,,,,,,,,,,,,,,,,,,,,,,,,,,,,,,,,,,,,,,,,,,,,,817.5494320710004,None,817.5494320710004,None,817.5494320710004,None,r,1,0.5876502600003732,819.0826186140002,None,819.0826186140002,None,819.0826186140002,None,819.732593050001,None,819.732593050001,None,819.732593050001,None,819.732593050001,None,,,,,,,,,,,,,,,,,,,,,,,,,,,,,,,,,,,,,,,,,,,,001,82,2020_Feb_06_1058,spring_faces,3.1.5,60.07360422230028,
condition files/Stage2_1.xlsx,,T5,B5,s,"['s', 'r']","['Stratego', 'Risk']","[-0.15, 0.5]","[0.15, 0.5]",1,1,,,,,,,,,,,,,,,,,0,2,2,2,0,5,5,0,,,,,,,,,,,,,,,,,,,,,,,,,,,,,,,,,,,,,,,,,,,,,,,821.6992633320006,None,821.6992633320006,None,821.6992633320006,None,s,1,0.6940204570000787,823.2323312749995,None,823.2323312749995,None,823.2323312749995,None,823.9823183080007,None,823.9823183080007,None,823.9823183080007,None,823.9823183080007,None,,,,,,,,,,,,,,,,,,,,,,,,,,,,,,,,,,,,,,,,,,,,001,82,2020_Feb_06_1058,spring_faces,3.1.5,60.07360422230028,
condition files/Stage2_2.xlsx,,T4,B4,r,"['s', 'r']","['Stratego', 'Risk']","[-0.15, 0.5]","[0.15, 0.5]",1,1,,,,,,,,,,,,,,,,,0,3,3,3,0,0,0,5,,,,,,,,,,,,,,,,,,,,,,,,,,,,,,,,,,,,,,,,,,,,,,,825.9661632070001,None,825.9661632070001,None,825.9661632070001,None,r,1,0.8112162070010527,827.4990291760005,None,827.4990291760005,None,827.4990291760005,None,828.3679653020008,None,828.3679653020008,None,828.3679653020008,None,828.3679653020008,None,,,,,,,,,,,,,,,,,,,,,,,,,,,,,,,,,,,,,,,,,,,,001,82,2020_Feb_06_1058,spring_faces,3.1.5,60.07360422230028,
condition files/Stage2_2.xlsx,,B1,T1,s,"['s', 'r']","['Stratego', 'Risk']","[-0.15, 0.5]","[0.15, 0.5]",1,1,,,,,,,,,,,,,,,,,0,3,3,3,0,1,1,2,,,,,,,,,,,,,,,,,,,,,,,,,,,,,,,,,,,,,,,,,,,,,,,830.332230379001,None,830.332230379001,None,830.332230379001,None,s,1,0.5718361119998008,831.8824406420008,None,831.8824406420008,None,831.8824406420008,None,832.5161418879998,None,832.5161418879998,None,832.5161418879998,None,832.5161418879998,None,,,,,,,,,,,,,,,,,,,,,,,,,,,,,,,,,,,,,,,,,,,,001,82,2020_Feb_06_1058,spring_faces,3.1.5,60.07360422230028,
condition files/Stage2_2.xlsx,,B3,T3,s,"['s', 'r']","['Stratego', 'Risk']","[-0.15, 0.5]","[0.15, 0.5]",1,1,,,,,,,,,,,,,,,,,0,3,3,3,0,2,2,4,,,,,,,,,,,,,,,,,,,,,,,,,,,,,,,,,,,,,,,,,,,,,,,834.482528726001,None,834.482528726001,None,834.482528726001,None,r,0,0.7896875019996514,836.0326275560001,None,836.0326275560001,None,836.0326275560001,None,836.8823711770001,None,836.8823711770001,None,836.8823711770001,None,836.8823711770001,None,,,,,,,,,,,,,,,,,,,,,,,,,,,,,,,,,,,,,,,,,,,,001,82,2020_Feb_06_1058,spring_faces,3.1.5,60.07360422230028,
condition files/Stage2_2.xlsx,,T6,B6,r,"['s', 'r']","['Stratego', 'Risk']","[-0.15, 0.5]","[0.15, 0.5]",1,1,,,,,,,,,,,,,,,,,0,3,3,3,0,3,3,1,,,,,,,,,,,,,,,,,,,,,,,,,,,,,,,,,,,,,,,,,,,,,,,838.8487491739997,None,838.8487491739997,None,838.8487491739997,None,r,1,1.0311532270006865,840.3831081080007,None,840.3831081080007,None,840.3831081080007,None,841.4676793590006,None,841.4676793590006,None,841.4676793590006,None,841.4676793590006,None,,,,,,,,,,,,,,,,,,,,,,,,,,,,,,,,,,,,,,,,,,,,001,82,2020_Feb_06_1058,spring_faces,3.1.5,60.07360422230028,
condition files/Stage2_2.xlsx,,T2,B2,r,"['s', 'r']","['Stratego', 'Risk']","[-0.15, 0.5]","[0.15, 0.5]",1,1,,,,,,,,,,,,,,,,,0,3,3,3,0,4,4,3,,,,,,,,,,,,,,,,,,,,,,,,,,,,,,,,,,,,,,,,,,,,,,,843.4325951360006,None,843.4325951360006,None,843.4325951360006,None,r,1,1.183273229000406,844.9829043549998,None,844.9829043549998,None,844.9829043549998,None,846.2329679249997,None,846.2329679249997,None,846.2329679249997,None,846.2329679249997,None,,,,,,,,,,,,,,,,,,,,,,,,,,,,,,,,,,,,,,,,,,,,001,82,2020_Feb_06_1058,spring_faces,3.1.5,60.07360422230028,
condition files/Stage2_2.xlsx,,B5,T5,s,"['s', 'r']","['Stratego', 'Risk']","[-0.15, 0.5]","[0.15, 0.5]",1,1,,,,,,,,,,,,,,,,,0,3,3,3,0,5,5,0,,,,,,,,,,,,,,,,,,,,,,,,,,,,,,,,,,,,,,,,,,,,,,,848.1993553150005,None,848.1993553150005,None,848.1993553150005,None,s,1,0.753387347998796,849.7328815220008,None,849.7328815220008,None,849.7328815220008,None,850.5490330450011,None,850.5490330450011,None,850.5490330450011,None,850.5490330450011,None,,,,,,,,,,,,,,,,,,,,,,,,,,,,,,,,,,,,,,,,,,,,001,82,2020_Feb_06_1058,spring_faces,3.1.5,60.07360422230028,
condition files/Stage2_1.xlsx,,T3,B3,s,"['s', 'r']","['Stratego', 'Risk']","[-0.15, 0.5]","[0.15, 0.5]",1,1,,,,,,,,,,,,,,,,,0,4,4,4,0,0,0,4,,,,,,,,,,,,,,,,,,,,,,,,,,,,,,,,,,,,,,,,,,,,,,,852.5328511700009,None,852.5328511700009,None,852.5328511700009,None,s,1,0.7705197149989544,854.0677655070012,None,854.0677655070012,None,854.0677655070012,None,854.8993539040002,None,854.8993539040002,None,854.8993539040002,None,854.8993539040002,None,,,,,,,,,,,,,,,,,,,,,,,,,,,,,,,,,,,,,,,,,,,,001,82,2020_Feb_06_1058,spring_faces,3.1.5,60.07360422230028,
condition files/Stage2_1.xlsx,,T1,B1,s,"['s', 'r']","['Stratego', 'Risk']","[-0.15, 0.5]","[0.15, 0.5]",1,1,,,,,,,,,,,,,,,,,0,4,4,4,0,1,1,2,,,,,,,,,,,,,,,,,,,,,,,,,,,,,,,,,,,,,,,,,,,,,,,856.8657302520005,None,856.8657302520005,None,856.8657302520005,None,s,1,0.6773628650007595,858.4009137530011,None,858.4009137530011,None,858.4009137530011,None,859.132681907,None,859.132681907,None,859.132681907,None,859.132681907,None,,,,,,,,,,,,,,,,,,,,,,,,,,,,,,,,,,,,,,,,,,,,001,82,2020_Feb_06_1058,spring_faces,3.1.5,60.07360422230028,
condition files/Stage2_1.xlsx,,B4,T4,r,"['s', 'r']","['Stratego', 'Risk']","[-0.15, 0.5]","[0.15, 0.5]",1,1,,,,,,,,,,,,,,,,,0,4,4,4,0,2,2,5,,,,,,,,,,,,,,,,,,,,,,,,,,,,,,,,,,,,,,,,,,,,,,,861.0985711089997,None,861.0985711089997,None,861.0985711089997,None,r,1,0.62150481900062,862.6327743760012,None,862.6327743760012,None,862.6327743760012,None,863.3158196069999,None,863.3158196069999,None,863.3158196069999,None,863.3158196069999,None,,,,,,,,,,,,,,,,,,,,,,,,,,,,,,,,,,,,,,,,,,,,001,82,2020_Feb_06_1058,spring_faces,3.1.5,60.07360422230028,
condition files/Stage2_1.xlsx,,B6,T6,r,"['s', 'r']","['Stratego', 'Risk']","[-0.15, 0.5]","[0.15, 0.5]",1,1,,,,,,,,,,,,,,,,,0,4,4,4,0,3,3,1,,,,,,,,,,,,,,,,,,,,,,,,,,,,,,,,,,,,,,,,,,,,,,,865.282533646001,None,865.282533646001,None,865.282533646001,None,r,1,0.8868949360003171,866.8153684150002,None,866.8153684150002,None,866.8153684150002,None,867.7664182870012,None,867.7664182870012,None,867.7664182870012,None,867.7664182870012,None,,,,,,,,,,,,,,,,,,,,,,,,,,,,,,,,,,,,,,,,,,,,001,82,2020_Feb_06_1058,spring_faces,3.1.5,60.07360422230028,
