condsFile,subStage,cue1,cue2,correct,responseKeys,responseNames,cue1Position,cue2Position,cue1Opacity,cue2Opacity,stageLoop0.thisRepN,stageLoop0.thisTrialN,stageLoop0.thisN,stageLoop0.thisIndex,blockLoop0.thisRepN,blockLoop0.thisTrialN,blockLoop0.thisN,blockLoop0.thisIndex,stage1Loop.thisRepN,stage1Loop.thisTrialN,stage1Loop.thisN,stage1Loop.thisIndex,blockLoop1.thisRepN,blockLoop1.thisTrialN,blockLoop1.thisN,blockLoop1.thisIndex,stage2Loop.thisRepN,stage2Loop.thisTrialN,stage2Loop.thisN,stage2Loop.thisIndex,blockLoop2.thisRepN,blockLoop2.thisTrialN,blockLoop2.thisN,blockLoop2.thisIndex,testLoop.thisRepN,testLoop.thisTrialN,testLoop.thisN,testLoop.thisIndex,blockLoopTest.thisRepN,blockLoopTest.thisTrialN,blockLoopTest.thisN,blockLoopTest.thisIndex,cuePics,id_instr_text.started,id_instr_text.stopped,space_to_continue_2.started,space_to_continue_2.stopped,end_instructions_resp_3.keys,end_instructions_resp_3.rt,end_instructions_resp_3.started,end_instructions_resp_3.stopped,id_input_instr.started,id_input_instr.stopped,id_input_rect.started,id_input_rect.stopped,id_input_resp.keys,id_input_resp.rt,id_input_resp.started,id_input_resp.stopped,sonaID,id_input_text.started,id_input_text.stopped,final_text.started,final_text.stopped,instructions.started,instructions.stopped,end_instructions_resp.keys,end_instructions_resp.rt,end_instructions_resp.started,end_instructions_resp.stopped,space_to_continue.started,space_to_continue.stopped,instructions_stage0.started,instructions_stage0.stopped,end_instructions_resp_stage0.keys,end_instructions_resp_stage0.rt,end_instructions_resp_stage0.started,end_instructions_resp_stage0.stopped,space_to_continue_stage0.started,space_to_continue_stage0.stopped,text.started,text.stopped,resp_text1.started,resp_text1.stopped,resp_text2.started,resp_text2.stopped,trial_resp.keys,trial_resp.corr,trial_resp.rt,trial_resp.started,trial_resp.stopped,cue1Image.started,cue1Image.stopped,cue2Image.started,cue2Image.stopped,cue1Image_fb.started,cue1Image_fb.stopped,cue2Image_fb.started,cue2Image_fb.stopped,fb_text_answer.started,fb_text_answer.stopped,feedback_image.started,feedback_image.stopped,instructions_stage1.started,instructions_stage1.stopped,end_instructions_resp_stage1.keys,end_instructions_resp_stage1.rt,end_instructions_resp_stage1.started,end_instructions_resp_stage1.stopped,space_to_continue_stage1.started,space_to_continue_stage1.stopped,instructions_2.started,instructions_2.stopped,end_instructions_resp_2.keys,end_instructions_resp_2.rt,end_instructions_resp_2.started,end_instructions_resp_2.stopped,press_space_to_continue_stage2.started,press_space_to_continue_stage2.stopped,instructions_testStage1.started,instructions_testStage1.stopped,end_instructions_resp_test1.keys,end_instructions_resp_test1.rt,end_instructions_resp_test1.started,end_instructions_resp_test1.stopped,press_space_to_continue_test1.started,press_space_to_continue_test1.stopped,cue1Image_testChoice.started,cue1Image_testChoice.stopped,cue2Image_testChoice.started,cue2Image_testChoice.stopped,test_resp.keys,test_resp.corr,test_resp.rt,test_resp.started,test_resp.stopped,cue1Image_testConf.started,cue1Image_testConf.stopped,cue2Image_testConf.started,cue2Image_testConf.stopped,conf_reminder.started,conf_reminder.stopped,conf_rating.response,conf_rating.rt,conf_rating.started,conf_rating.stopped,session,participant,date,expName,psychopyVersion,frameRate,
,,,,,,,,,,,,,,,,,,,,,,,,,,,,,,,,,,,,,,,,,,,"{'none': 'pictures/20M_AN_C.png', 'alpha': 'pictures/SHINEd_apple.png', 'beta': 'pictures/SHINEd_pepper.png', 'theta': 'pictures/SHINEd_melon.png', 'phi': 'pictures/SHINEd_pear.png', 'T1': 'pictures/32M_AN_C.png', 'T2': 'pictures/26M_AN_C.png', 'T3': 'pictures/34M_AN_C.png', 'T4': 'pictures/20M_AN_C.png', 'T5': 'pictures/23M_AN_C.png', 'T6': 'pictures/38M_AN_C.png', 'B1': 'pictures/22M_NE_C.png', 'B2': 'pictures/25M_NE_C.png', 'B3': 'pictures/37M_NE_C.png', 'B4': 'pictures/31M_NE_C.png', 'B5': 'pictures/36M_NE_C.png', 'B6': 'pictures/33M_NE_C.png'}",17.373891106000883,None,22.37276049399952,None,space,104.76349959099934,22.37276049399952,None,,,,,,,,,,,,,,,,,,,,,,,,,,,,,,,,,,,,,,,,,,,,,,,,,,,,,,,,,,,,,,,,,,,,,,,,,,,,,,,,,,,,,,,,,,,,,,,,001,84,2020_Feb_06_1125,spring_faces,3.1.5,59.918454219609366,
,,,,,,,,,,,,,,,,,,,,,,,,,,,,,,,,,,,,,,,,,,,,,,,,,,,,127.52273455400064,None,127.52273455400064,None,"['0', '3', '0', '8', 't', 'i', 'l', 'e', 'g']","[11.261504546999276, 11.67750832299862, 15.037542740999925, 15.693569096998544, 18.86146827399898, 19.293568609999056, 22.845462474999294, 23.181536101999882, 23.837552408000192]",127.52273455400064,None,,,,,,,,,,,,,,,,,,,,,,,,,,,,,,,,,,,,,,,,,,,,,,,,,,,,,,,,,,,,,,,,,,,,,,,,,,,,,,,,,,,,,,,,001,84,2020_Feb_06_1125,spring_faces,3.1.5,59.918454219609366,
,,,,,,,,,,,,,,,,,,,,,,,,,,,,,,,,,,,,,,,,,,,,,,,,,,,,,,,,,,,,0308tileg,127.52273455400064,None,127.52273455400064,None,156.43960917200093,None,space,1.3449306570000772,161.43926488100078,None,,,,,,,,,,,,,,,,,,,,,,,,,,,,,,,,,,,,,,,,,,,,,,,,,,,,,,,,,,,,,,,,,,,,,,,,,,,,,001,84,2020_Feb_06_1125,spring_faces,3.1.5,59.918454219609366,
,,,,,,,,,,,,,,,,,,,,,,,,,,,,,,,,,,,,,,,,,,,,,,,,,,,,,,,,,,,,,,,,,,,,,,,161.43926488100078,None,162.82255974200052,None,space,1.6658386790004442,167.82245893500112,None,,,,,,,,,,,,,,,,,,,,,,,,,,,,,,,,,,,,,,,,,,,,,,,,,,,,,,,,,,,,,,,,,,,,,001,84,2020_Feb_06_1125,spring_faces,3.1.5,59.918454219609366,
condition files/Stage0a.xlsx,0a,beta,none,g,"['h', 'g']","['Chess', 'Go']","[0, 0.5]","[0, 0]",1,0,0,0,0,0,0,0,0,1,,,,,,,,,,,,,,,,,,,,,,,,,,,,,,,,,,,,,,,,,,,,,,,,,,,,,,,,,,,,,167.82245893500112,None,169.539404991001,None,169.539404991001,None,169.539404991001,None,h,0,1.7418457540006784,171.12248514100065,None,171.12248514100065,None,171.12248514100065,None,172.93947626500085,None,172.93947626500085,None,172.93947626500085,None,172.93947626500085,None,,,,,,,,,,,,,,,,,,,,,,,,,,,,,,,,,,,,,,,,,,,,001,84,2020_Feb_06_1125,spring_faces,3.1.5,59.918454219609366,
condition files/Stage0a.xlsx,0a,alpha,none,h,"['h', 'g']","['Chess', 'Go']","[0, 0.5]","[0, 0]",1,0,0,0,0,0,0,1,1,0,,,,,,,,,,,,,,,,,,,,,,,,,,,,,,,,,,,,,,,,,,,,,,,,,,,,,,,,,,,,,,,174.8891946420008,None,174.8891946420008,None,174.8891946420008,None,h,1,1.7678981600001862,176.4403287469995,None,176.4403287469995,None,176.4403287469995,None,178.27422421099982,None,178.27422421099982,None,178.27422421099982,None,178.27422421099982,None,,,,,,,,,,,,,,,,,,,,,,,,,,,,,,,,,,,,,,,,,,,,001,84,2020_Feb_06_1125,spring_faces,3.1.5,59.918454219609366,
condition files/Stage0a.xlsx,0a,alpha,none,h,"['h', 'g']","['Chess', 'Go']","[0, 0.5]","[0, 0]",1,0,0,1,1,1,0,0,0,0,,,,,,,,,,,,,,,,,,,,,,,,,,,,,,,,,,,,,,,,,,,,,,,,,,,,,,,,,,,,,,,180.2562944149995,None,180.2562944149995,None,180.2562944149995,None,h,1,0.8024069490002148,181.78987253200103,None,181.78987253200103,None,181.78987253200103,None,182.65601438200065,None,182.65601438200065,None,182.65601438200065,None,182.65601438200065,None,,,,,,,,,,,,,,,,,,,,,,,,,,,,,,,,,,,,,,,,,,,,001,84,2020_Feb_06_1125,spring_faces,3.1.5,59.918454219609366,
condition files/Stage0a.xlsx,0a,beta,none,g,"['h', 'g']","['Chess', 'Go']","[0, 0.5]","[0, 0]",1,0,0,1,1,1,0,1,1,1,,,,,,,,,,,,,,,,,,,,,,,,,,,,,,,,,,,,,,,,,,,,,,,,,,,,,,,,,,,,,,,184.62259842800086,None,184.62259842800086,None,184.62259842800086,None,g,1,0.6601717960002134,186.15613262999977,None,186.15613262999977,None,186.15613262999977,None,186.87303250200057,None,186.87303250200057,None,186.87303250200057,None,186.87303250200057,None,,,,,,,,,,,,,,,,,,,,,,,,,,,,,,,,,,,,,,,,,,,,001,84,2020_Feb_06_1125,spring_faces,3.1.5,59.918454219609366,
condition files/Stage0a.xlsx,0a,beta,none,g,"['h', 'g']","['Chess', 'Go']","[0, 0.5]","[0, 0]",1,0,0,2,2,2,0,0,0,1,,,,,,,,,,,,,,,,,,,,,,,,,,,,,,,,,,,,,,,,,,,,,,,,,,,,,,,,,,,,,,,188.85620805600047,None,188.85620805600047,None,188.85620805600047,None,g,1,0.6191394590005075,190.3891285690006,None,190.3891285690006,None,190.3891285690006,None,191.07247837199975,None,191.07247837199975,None,191.07247837199975,None,191.07247837199975,None,,,,,,,,,,,,,,,,,,,,,,,,,,,,,,,,,,,,,,,,,,,,001,84,2020_Feb_06_1125,spring_faces,3.1.5,59.918454219609366,
condition files/Stage0a.xlsx,0a,alpha,none,h,"['h', 'g']","['Chess', 'Go']","[0, 0.5]","[0, 0]",1,0,0,2,2,2,0,1,1,0,,,,,,,,,,,,,,,,,,,,,,,,,,,,,,,,,,,,,,,,,,,,,,,,,,,,,,,,,,,,,,,193.03920181099966,None,193.03920181099966,None,193.03920181099966,None,h,1,0.9003207570003724,194.57193444599943,None,194.57193444599943,None,194.57193444599943,None,195.52235481299977,None,195.52235481299977,None,195.52235481299977,None,195.52235481299977,None,,,,,,,,,,,,,,,,,,,,,,,,,,,,,,,,,,,,,,,,,,,,001,84,2020_Feb_06_1125,spring_faces,3.1.5,59.918454219609366,
condition files/Stage0a.xlsx,0a,beta,none,g,"['h', 'g']","['Chess', 'Go']","[0, 0.5]","[0, 0]",1,0,0,3,3,3,0,0,0,1,,,,,,,,,,,,,,,,,,,,,,,,,,,,,,,,,,,,,,,,,,,,,,,,,,,,,,,,,,,,,,,197.5060870590005,None,197.5060870590005,None,197.5060870590005,None,g,1,0.5927324130007037,199.03949434599963,None,199.03949434599963,None,199.03949434599963,None,199.68916692700077,None,199.68916692700077,None,199.68916692700077,None,199.68916692700077,None,,,,,,,,,,,,,,,,,,,,,,,,,,,,,,,,,,,,,,,,,,,,001,84,2020_Feb_06_1125,spring_faces,3.1.5,59.918454219609366,
condition files/Stage0a.xlsx,0a,alpha,none,h,"['h', 'g']","['Chess', 'Go']","[0, 0.5]","[0, 0]",1,0,0,3,3,3,0,1,1,0,,,,,,,,,,,,,,,,,,,,,,,,,,,,,,,,,,,,,,,,,,,,,,,,,,,,,,,,,,,,,,,201.65590357899964,None,201.65590357899964,None,201.65590357899964,None,h,1,0.6356038459998672,203.18866932499986,None,203.18866932499986,None,203.18866932499986,None,203.88923964700007,None,203.88923964700007,None,203.88923964700007,None,203.88923964700007,None,,,,,,,,,,,,,,,,,,,,,,,,,,,,,,,,,,,,,,,,,,,,001,84,2020_Feb_06_1125,spring_faces,3.1.5,59.918454219609366,
condition files/Stage0a.xlsx,0a,alpha,none,h,"['h', 'g']","['Chess', 'Go']","[0, 0.5]","[0, 0]",1,0,0,4,4,4,0,0,0,0,,,,,,,,,,,,,,,,,,,,,,,,,,,,,,,,,,,,,,,,,,,,,,,,,,,,,,,,,,,,,,,205.87238391100072,None,205.87238391100072,None,205.87238391100072,None,h,1,0.6105609339992952,207.4057627910006,None,207.4057627910006,None,207.4057627910006,None,208.07271385199965,None,208.07271385199965,None,208.07271385199965,None,208.07271385199965,None,,,,,,,,,,,,,,,,,,,,,,,,,,,,,,,,,,,,,,,,,,,,001,84,2020_Feb_06_1125,spring_faces,3.1.5,59.918454219609366,
condition files/Stage0a.xlsx,0a,beta,none,g,"['h', 'g']","['Chess', 'Go']","[0, 0.5]","[0, 0]",1,0,0,4,4,4,0,1,1,1,,,,,,,,,,,,,,,,,,,,,,,,,,,,,,,,,,,,,,,,,,,,,,,,,,,,,,,,,,,,,,,210.03958484600116,None,210.03958484600116,None,210.03958484600116,None,g,1,0.7001064989999577,211.57217554599993,None,211.57217554599993,None,211.57217554599993,None,212.3223673930006,None,212.3223673930006,None,212.3223673930006,None,212.3223673930006,None,,,,,,,,,,,,,,,,,,,,,,,,,,,,,,,,,,,,,,,,,,,,001,84,2020_Feb_06_1125,spring_faces,3.1.5,59.918454219609366,
condition files/Stage0a.xlsx,0a,alpha,none,h,"['h', 'g']","['Chess', 'Go']","[0, 0.5]","[0, 0]",1,0,0,5,5,5,0,0,0,0,,,,,,,,,,,,,,,,,,,,,,,,,,,,,,,,,,,,,,,,,,,,,,,,,,,,,,,,,,,,,,,214.3063414240005,None,214.3063414240005,None,214.3063414240005,None,h,1,0.5132202099994174,215.83905453599982,None,215.83905453599982,None,215.83905453599982,None,216.40585473600004,None,216.40585473600004,None,216.40585473600004,None,216.40585473600004,None,,,,,,,,,,,,,,,,,,,,,,,,,,,,,,,,,,,,,,,,,,,,001,84,2020_Feb_06_1125,spring_faces,3.1.5,59.918454219609366,
condition files/Stage0a.xlsx,0a,beta,none,g,"['h', 'g']","['Chess', 'Go']","[0, 0.5]","[0, 0]",1,0,0,5,5,5,0,1,1,1,,,,,,,,,,,,,,,,,,,,,,,,,,,,,,,,,,,,,,,,,,,,,,,,,,,,,,,,,,,,,,,218.37259317499957,None,218.37259317499957,None,218.37259317499957,None,g,1,0.6219278579992533,219.9063743959996,None,219.9063743959996,None,219.9063743959996,None,220.58947425400038,None,220.58947425400038,None,220.58947425400038,None,220.58947425400038,None,,,,,,,,,,,,,,,,,,,,,,,,,,,,,,,,,,,,,,,,,,,,001,84,2020_Feb_06_1125,spring_faces,3.1.5,59.918454219609366,
condition files/Stage0b_1.xlsx,0b,none,beta,g,"['h', 'g']","['Chess', 'Go']","[-0.15, 0.5]","[0.15, 0.5]",0,1,0,6,6,6,0,0,0,1,,,,,,,,,,,,,,,,,,,,,,,,,,,,,,,,,,,,,,,,,,,,,,,,,,,,,,,,,,,,,,,222.57235589999982,None,222.57235589999982,None,222.57235589999982,None,g,1,0.6454076540012466,224.12283632400067,None,224.12283632400067,None,224.12283632400067,None,224.82330547499987,None,224.82330547499987,None,224.82330547499987,None,224.82330547499987,None,,,,,,,,,,,,,,,,,,,,,,,,,,,,,,,,,,,,,,,,,,,,001,84,2020_Feb_06_1125,spring_faces,3.1.5,59.918454219609366,
condition files/Stage0b_1.xlsx,0b,alpha,none,h,"['h', 'g']","['Chess', 'Go']","[-0.15, 0.5]","[0.15, 0.5]",1,0,0,6,6,6,0,1,1,0,,,,,,,,,,,,,,,,,,,,,,,,,,,,,,,,,,,,,,,,,,,,,,,,,,,,,,,,,,,,,,,226.788783082,None,226.788783082,None,226.788783082,None,h,1,0.6206091379990539,228.33967614799985,None,228.33967614799985,None,228.33967614799985,None,229.02331622699967,None,229.02331622699967,None,229.02331622699967,None,229.02331622699967,None,,,,,,,,,,,,,,,,,,,,,,,,,,,,,,,,,,,,,,,,,,,,001,84,2020_Feb_06_1125,spring_faces,3.1.5,59.918454219609366,
condition files/Stage0b_2.xlsx,0b,beta,none,g,"['h', 'g']","['Chess', 'Go']","[-0.15, 0.5]","[0.15, 0.5]",1,0,0,7,7,7,0,0,0,1,,,,,,,,,,,,,,,,,,,,,,,,,,,,,,,,,,,,,,,,,,,,,,,,,,,,,,,,,,,,,,,231.00550954600112,None,231.00550954600112,None,231.00550954600112,None,g,1,0.9175527269999293,232.53869000300074,None,232.53869000300074,None,232.53869000300074,None,233.5056248130004,None,233.5056248130004,None,233.5056248130004,None,233.5056248130004,None,,,,,,,,,,,,,,,,,,,,,,,,,,,,,,,,,,,,,,,,,,,,001,84,2020_Feb_06_1125,spring_faces,3.1.5,59.918454219609366,
condition files/Stage0b_2.xlsx,0b,none,alpha,h,"['h', 'g']","['Chess', 'Go']","[-0.15, 0.5]","[0.15, 0.5]",0,1,0,7,7,7,0,1,1,0,,,,,,,,,,,,,,,,,,,,,,,,,,,,,,,,,,,,,,,,,,,,,,,,,,,,,,,,,,,,,,,235.4727386150007,None,235.4727386150007,None,235.4727386150007,None,h,1,0.49748317299963674,237.02274844699969,None,237.02274844699969,None,237.02274844699969,None,237.57756908800002,None,237.57756908800002,None,237.57756908800002,None,237.57756908800002,None,,,,,,,,,,,,,,,,,,,,,,,,,,,,,,,,,,,,,,,,,,,,001,84,2020_Feb_06_1125,spring_faces,3.1.5,59.918454219609366,
condition files/Stage0b_1.xlsx,0b,none,beta,g,"['h', 'g']","['Chess', 'Go']","[-0.15, 0.5]","[0.15, 0.5]",0,1,0,8,8,8,0,0,0,1,,,,,,,,,,,,,,,,,,,,,,,,,,,,,,,,,,,,,,,,,,,,,,,,,,,,,,,,,,,,,,,239.55616114000077,None,239.55616114000077,None,239.55616114000077,None,g,1,1.2952109920006478,241.08900164199986,None,241.08900164199986,None,241.08900164199986,None,242.4396777180009,None,242.4396777180009,None,242.4396777180009,None,242.4396777180009,None,,,,,,,,,,,,,,,,,,,,,,,,,,,,,,,,,,,,,,,,,,,,001,84,2020_Feb_06_1125,spring_faces,3.1.5,59.918454219609366,
condition files/Stage0b_1.xlsx,0b,alpha,none,h,"['h', 'g']","['Chess', 'Go']","[-0.15, 0.5]","[0.15, 0.5]",1,0,0,8,8,8,0,1,1,0,,,,,,,,,,,,,,,,,,,,,,,,,,,,,,,,,,,,,,,,,,,,,,,,,,,,,,,,,,,,,,,244.40549357599957,None,244.40549357599957,None,244.40549357599957,None,h,1,0.49199615299949073,245.9563115710007,None,245.9563115710007,None,245.9563115710007,None,246.51014474300064,None,246.51014474300064,None,246.51014474300064,None,246.51014474300064,None,,,,,,,,,,,,,,,,,,,,,,,,,,,,,,,,,,,,,,,,,,,,001,84,2020_Feb_06_1125,spring_faces,3.1.5,59.918454219609366,
condition files/Stage0b_2.xlsx,0b,none,alpha,h,"['h', 'g']","['Chess', 'Go']","[-0.15, 0.5]","[0.15, 0.5]",0,1,0,9,9,9,0,0,0,0,,,,,,,,,,,,,,,,,,,,,,,,,,,,,,,,,,,,,,,,,,,,,,,,,,,,,,,,,,,,,,,248.4889292500011,None,248.4889292500011,None,248.4889292500011,None,h,1,0.5181195919994934,250.02618023700052,None,250.02618023700052,None,250.02618023700052,None,250.60607358900052,None,250.60607358900052,None,250.60607358900052,None,250.60607358900052,None,,,,,,,,,,,,,,,,,,,,,,,,,,,,,,,,,,,,,,,,,,,,001,84,2020_Feb_06_1125,spring_faces,3.1.5,59.918454219609366,
condition files/Stage0b_2.xlsx,0b,beta,none,g,"['h', 'g']","['Chess', 'Go']","[-0.15, 0.5]","[0.15, 0.5]",1,0,0,9,9,9,0,1,1,1,,,,,,,,,,,,,,,,,,,,,,,,,,,,,,,,,,,,,,,,,,,,,,,,,,,,,,,,,,,,,,,252.57193526400079,None,252.57193526400079,None,252.57193526400079,None,g,1,0.6613636180009053,254.12286889200004,None,254.12286889200004,None,254.12286889200004,None,254.84265979500015,None,254.84265979500015,None,254.84265979500015,None,254.84265979500015,None,,,,,,,,,,,,,,,,,,,,,,,,,,,,,,,,,,,,,,,,,,,,001,84,2020_Feb_06_1125,spring_faces,3.1.5,59.918454219609366,
condition files/Stage0b_1.xlsx,0b,alpha,none,h,"['h', 'g']","['Chess', 'Go']","[-0.15, 0.5]","[0.15, 0.5]",1,0,0,10,10,10,0,0,0,0,,,,,,,,,,,,,,,,,,,,,,,,,,,,,,,,,,,,,,,,,,,,,,,,,,,,,,,,,,,,,,,256.822786009001,None,256.822786009001,None,256.822786009001,None,h,1,0.5884881589990982,258.35581103000004,None,258.35581103000004,None,258.35581103000004,None,259.0066166830002,None,259.0066166830002,None,259.0066166830002,None,259.0066166830002,None,,,,,,,,,,,,,,,,,,,,,,,,,,,,,,,,,,,,,,,,,,,,001,84,2020_Feb_06_1125,spring_faces,3.1.5,59.918454219609366,
condition files/Stage0b_1.xlsx,0b,none,beta,g,"['h', 'g']","['Chess', 'Go']","[-0.15, 0.5]","[0.15, 0.5]",0,1,0,10,10,10,0,1,1,1,,,,,,,,,,,,,,,,,,,,,,,,,,,,,,,,,,,,,,,,,,,,,,,,,,,,,,,,,,,,,,,260.9724837720005,None,260.9724837720005,None,260.9724837720005,None,g,1,0.6263171199989301,262.51008071400065,None,262.51008071400065,None,262.51008071400065,None,263.1933702260012,None,263.1933702260012,None,263.1933702260012,None,263.1933702260012,None,,,,,,,,,,,,,,,,,,,,,,,,,,,,,,,,,,,,,,,,,,,,001,84,2020_Feb_06_1125,spring_faces,3.1.5,59.918454219609366,
condition files/Stage0b_2.xlsx,0b,none,alpha,h,"['h', 'g']","['Chess', 'Go']","[-0.15, 0.5]","[0.15, 0.5]",0,1,0,11,11,11,0,0,0,0,,,,,,,,,,,,,,,,,,,,,,,,,,,,,,,,,,,,,,,,,,,,,,,,,,,,,,,,,,,,,,,265.1725325790012,None,265.1725325790012,None,265.1725325790012,None,h,1,0.44491173700043873,266.7073515480006,None,266.7073515480006,None,266.7073515480006,None,267.20606944000065,None,267.20606944000065,None,267.20606944000065,None,267.20606944000065,None,,,,,,,,,,,,,,,,,,,,,,,,,,,,,,,,,,,,,,,,,,,,001,84,2020_Feb_06_1125,spring_faces,3.1.5,59.918454219609366,
condition files/Stage0b_2.xlsx,0b,beta,none,g,"['h', 'g']","['Chess', 'Go']","[-0.15, 0.5]","[0.15, 0.5]",1,0,0,11,11,11,0,1,1,1,,,,,,,,,,,,,,,,,,,,,,,,,,,,,,,,,,,,,,,,,,,,,,,,,,,,,,,,,,,,,,,269.17256742500103,None,269.17256742500103,None,269.17256742500103,None,g,1,0.5254451219989278,270.72286473500026,None,270.72286473500026,None,270.72286473500026,None,271.309507031001,None,271.309507031001,None,271.309507031001,None,271.309507031001,None,,,,,,,,,,,,,,,,,,,,,,,,,,,,,,,,,,,,,,,,,,,,001,84,2020_Feb_06_1125,spring_faces,3.1.5,59.918454219609366,
condition files/Stage0c_1.xlsx,0c,theta,alpha,h,"['h', 'g']","['Chess', 'Go']","[-0.15, 0.5]","[0.15, 0.5]",1,1,0,12,12,12,0,0,0,0,,,,,,,,,,,,,,,,,,,,,,,,,,,,,,,,,,,,,,,,,,,,,,,,,,,,,,,,,,,,,,,273.2892476880006,None,273.2892476880006,None,273.2892476880006,None,h,1,2.5051971259999846,274.8230911560004,None,274.8230911560004,None,274.8230911560004,None,277.38906567699996,None,277.38906567699996,None,277.38906567699996,None,277.38906567699996,None,,,,,,,,,,,,,,,,,,,,,,,,,,,,,,,,,,,,,,,,,,,,001,84,2020_Feb_06_1125,spring_faces,3.1.5,59.918454219609366,
condition files/Stage0c_1.xlsx,0c,phi,beta,g,"['h', 'g']","['Chess', 'Go']","[-0.15, 0.5]","[0.15, 0.5]",1,1,0,12,12,12,0,1,1,3,,,,,,,,,,,,,,,,,,,,,,,,,,,,,,,,,,,,,,,,,,,,,,,,,,,,,,,,,,,,,,,279.3555469490002,None,279.3555469490002,None,279.3555469490002,None,g,1,1.2386497250008688,280.8896565390005,None,280.8896565390005,None,280.8896565390005,None,282.1897771060012,None,282.1897771060012,None,282.1897771060012,None,282.1897771060012,None,,,,,,,,,,,,,,,,,,,,,,,,,,,,,,,,,,,,,,,,,,,,001,84,2020_Feb_06_1125,spring_faces,3.1.5,59.918454219609366,
condition files/Stage0c_1.xlsx,0c,alpha,phi,h,"['h', 'g']","['Chess', 'Go']","[-0.15, 0.5]","[0.15, 0.5]",1,1,0,12,12,12,0,2,2,1,,,,,,,,,,,,,,,,,,,,,,,,,,,,,,,,,,,,,,,,,,,,,,,,,,,,,,,,,,,,,,,284.1559197250008,None,284.1559197250008,None,284.1559197250008,None,h,1,0.9344760559997667,285.689745529,None,285.689745529,None,285.689745529,None,286.6895771239997,None,286.6895771239997,None,286.6895771239997,None,286.6895771239997,None,,,,,,,,,,,,,,,,,,,,,,,,,,,,,,,,,,,,,,,,,,,,001,84,2020_Feb_06_1125,spring_faces,3.1.5,59.918454219609366,
condition files/Stage0c_1.xlsx,0c,beta,theta,g,"['h', 'g']","['Chess', 'Go']","[-0.15, 0.5]","[0.15, 0.5]",1,1,0,12,12,12,0,3,3,2,,,,,,,,,,,,,,,,,,,,,,,,,,,,,,,,,,,,,,,,,,,,,,,,,,,,,,,,,,,,,,,288.65586223100036,None,288.65586223100036,None,288.65586223100036,None,g,1,1.122670509999807,290.18960250999953,None,290.18960250999953,None,290.18960250999953,None,291.3727717080001,None,291.3727717080001,None,291.3727717080001,None,291.3727717080001,None,,,,,,,,,,,,,,,,,,,,,,,,,,,,,,,,,,,,,,,,,,,,001,84,2020_Feb_06_1125,spring_faces,3.1.5,59.918454219609366,
condition files/Stage0c_2.xlsx,0c,theta,beta,g,"['h', 'g']","['Chess', 'Go']","[-0.15, 0.5]","[0.15, 0.5]",1,1,0,13,13,13,0,0,0,2,,,,,,,,,,,,,,,,,,,,,,,,,,,,,,,,,,,,,,,,,,,,,,,,,,,,,,,,,,,,,,,293.3559556700002,None,293.3559556700002,None,293.3559556700002,None,g,1,1.1914186619997054,294.87287283099977,None,294.87287283099977,None,294.87287283099977,None,296.107951805001,None,296.107951805001,None,296.107951805001,None,296.107951805001,None,,,,,,,,,,,,,,,,,,,,,,,,,,,,,,,,,,,,,,,,,,,,001,84,2020_Feb_06_1125,spring_faces,3.1.5,59.918454219609366,
condition files/Stage0c_2.xlsx,0c,beta,phi,g,"['h', 'g']","['Chess', 'Go']","[-0.15, 0.5]","[0.15, 0.5]",1,1,0,13,13,13,0,1,1,3,,,,,,,,,,,,,,,,,,,,,,,,,,,,,,,,,,,,,,,,,,,,,,,,,,,,,,,,,,,,,,,298.0888139110011,None,298.0888139110011,None,298.0888139110011,None,g,1,1.145450792999327,299.6227835089994,None,299.6227835089994,None,299.6227835089994,None,300.8081699249997,None,300.8081699249997,None,300.8081699249997,None,300.8081699249997,None,,,,,,,,,,,,,,,,,,,,,,,,,,,,,,,,,,,,,,,,,,,,001,84,2020_Feb_06_1125,spring_faces,3.1.5,59.918454219609366,
condition files/Stage0c_2.xlsx,0c,alpha,theta,h,"['h', 'g']","['Chess', 'Go']","[-0.15, 0.5]","[0.15, 0.5]",1,1,0,13,13,13,0,2,2,0,,,,,,,,,,,,,,,,,,,,,,,,,,,,,,,,,,,,,,,,,,,,,,,,,,,,,,,,,,,,,,,302.78930895899975,None,302.78930895899975,None,302.78930895899975,None,h,1,0.7178996839993488,304.32231879400024,None,304.32231879400024,None,304.32231879400024,None,305.10619761700036,None,305.10619761700036,None,305.10619761700036,None,305.10619761700036,None,,,,,,,,,,,,,,,,,,,,,,,,,,,,,,,,,,,,,,,,,,,,001,84,2020_Feb_06_1125,spring_faces,3.1.5,59.918454219609366,
condition files/Stage0c_2.xlsx,0c,phi,alpha,h,"['h', 'g']","['Chess', 'Go']","[-0.15, 0.5]","[0.15, 0.5]",1,1,0,13,13,13,0,3,3,1,,,,,,,,,,,,,,,,,,,,,,,,,,,,,,,,,,,,,,,,,,,,,,,,,,,,,,,,,,,,,,,307.0721339869997,None,307.0721339869997,None,307.0721339869997,None,g,0,0.929932106000706,308.6062436539996,None,308.6062436539996,None,308.6062436539996,None,309.57454402000076,None,309.57454402000076,None,309.57454402000076,None,309.57454402000076,None,,,,,,,,,,,,,,,,,,,,,,,,,,,,,,,,,,,,,,,,,,,,001,84,2020_Feb_06_1125,spring_faces,3.1.5,59.918454219609366,
condition files/Stage0c_1.xlsx,0c,theta,alpha,h,"['h', 'g']","['Chess', 'Go']","[-0.15, 0.5]","[0.15, 0.5]",1,1,0,14,14,14,0,0,0,0,,,,,,,,,,,,,,,,,,,,,,,,,,,,,,,,,,,,,,,,,,,,,,,,,,,,,,,,,,,,,,,311.57252644599976,None,311.57252644599976,None,311.57252644599976,None,h,1,1.6622264249999716,313.1060107360008,None,313.1060107360008,None,313.1060107360008,None,314.8086166360008,None,314.8086166360008,None,314.8086166360008,None,314.8086166360008,None,,,,,,,,,,,,,,,,,,,,,,,,,,,,,,,,,,,,,,,,,,,,001,84,2020_Feb_06_1125,spring_faces,3.1.5,59.918454219609366,
condition files/Stage0c_1.xlsx,0c,alpha,phi,h,"['h', 'g']","['Chess', 'Go']","[-0.15, 0.5]","[0.15, 0.5]",1,1,0,14,14,14,0,1,1,1,,,,,,,,,,,,,,,,,,,,,,,,,,,,,,,,,,,,,,,,,,,,,,,,,,,,,,,,,,,,,,,316.7892639399997,None,316.7892639399997,None,316.7892639399997,None,h,1,1.5014421329997276,318.3227570609997,None,318.3227570609997,None,318.3227570609997,None,319.8754647850001,None,319.8754647850001,None,319.8754647850001,None,319.8754647850001,None,,,,,,,,,,,,,,,,,,,,,,,,,,,,,,,,,,,,,,,,,,,,001,84,2020_Feb_06_1125,spring_faces,3.1.5,59.918454219609366,
condition files/Stage0c_1.xlsx,0c,phi,beta,g,"['h', 'g']","['Chess', 'Go']","[-0.15, 0.5]","[0.15, 0.5]",1,1,0,14,14,14,0,2,2,3,,,,,,,,,,,,,,,,,,,,,,,,,,,,,,,,,,,,,,,,,,,,,,,,,,,,,,,,,,,,,,,321.85593561899987,None,321.85593561899987,None,321.85593561899987,None,g,1,1.0427773039991735,323.38942301099996,None,323.38942301099996,None,323.38942301099996,None,324.4895463369994,None,324.4895463369994,None,324.4895463369994,None,324.4895463369994,None,,,,,,,,,,,,,,,,,,,,,,,,,,,,,,,,,,,,,,,,,,,,001,84,2020_Feb_06_1125,spring_faces,3.1.5,59.918454219609366,
condition files/Stage0c_1.xlsx,0c,beta,theta,g,"['h', 'g']","['Chess', 'Go']","[-0.15, 0.5]","[0.15, 0.5]",1,1,0,14,14,14,0,3,3,2,,,,,,,,,,,,,,,,,,,,,,,,,,,,,,,,,,,,,,,,,,,,,,,,,,,,,,,,,,,,,,,326.4559661880012,None,326.4559661880012,None,326.4559661880012,None,g,1,0.6508090740007901,327.9894157460003,None,327.9894157460003,None,327.9894157460003,None,328.7054003739995,None,328.7054003739995,None,328.7054003739995,None,328.7054003739995,None,,,,,,,,,,,,,,,,,,,,,,,,,,,,,,,,,,,,,,,,,,,,001,84,2020_Feb_06_1125,spring_faces,3.1.5,59.918454219609366,
condition files/Stage0c_2.xlsx,0c,theta,beta,g,"['h', 'g']","['Chess', 'Go']","[-0.15, 0.5]","[0.15, 0.5]",1,1,0,15,15,15,0,0,0,2,,,,,,,,,,,,,,,,,,,,,,,,,,,,,,,,,,,,,,,,,,,,,,,,,,,,,,,,,,,,,,,330.68962921599996,None,330.68962921599996,None,330.68962921599996,None,g,1,0.9294824309999967,332.2227808610005,None,332.2227808610005,None,332.2227808610005,None,333.192665640001,None,333.192665640001,None,333.192665640001,None,333.192665640001,None,,,,,,,,,,,,,,,,,,,,,,,,,,,,,,,,,,,,,,,,,,,,001,84,2020_Feb_06_1125,spring_faces,3.1.5,59.918454219609366,
condition files/Stage0c_2.xlsx,0c,phi,alpha,h,"['h', 'g']","['Chess', 'Go']","[-0.15, 0.5]","[0.15, 0.5]",1,1,0,15,15,15,0,1,1,1,,,,,,,,,,,,,,,,,,,,,,,,,,,,,,,,,,,,,,,,,,,,,,,,,,,,,,,,,,,,,,,335.17246633000104,None,335.17246633000104,None,335.17246633000104,None,h,1,0.526186171999143,336.70602509499986,None,336.70602509499986,None,336.70602509499986,None,337.289516963001,None,337.289516963001,None,337.289516963001,None,337.289516963001,None,,,,,,,,,,,,,,,,,,,,,,,,,,,,,,,,,,,,,,,,,,,,001,84,2020_Feb_06_1125,spring_faces,3.1.5,59.918454219609366,
condition files/Stage0c_2.xlsx,0c,beta,phi,g,"['h', 'g']","['Chess', 'Go']","[-0.15, 0.5]","[0.15, 0.5]",1,1,0,15,15,15,0,2,2,3,,,,,,,,,,,,,,,,,,,,,,,,,,,,,,,,,,,,,,,,,,,,,,,,,,,,,,,,,,,,,,,339.2555470010011,None,339.2555470010011,None,339.2555470010011,None,g,1,0.5708255620011187,340.7894613869994,None,340.7894613869994,None,340.7894613869994,None,341.4225460870002,None,341.4225460870002,None,341.4225460870002,None,341.4225460870002,None,,,,,,,,,,,,,,,,,,,,,,,,,,,,,,,,,,,,,,,,,,,,001,84,2020_Feb_06_1125,spring_faces,3.1.5,59.918454219609366,
condition files/Stage0c_2.xlsx,0c,alpha,theta,h,"['h', 'g']","['Chess', 'Go']","[-0.15, 0.5]","[0.15, 0.5]",1,1,0,15,15,15,0,3,3,0,,,,,,,,,,,,,,,,,,,,,,,,,,,,,,,,,,,,,,,,,,,,,,,,,,,,,,,,,,,,,,,343.3892219850004,None,343.3892219850004,None,343.3892219850004,None,h,1,0.9174833739998576,344.9227223729995,None,344.9227223729995,None,344.9227223729995,None,345.9060352710003,None,345.9060352710003,None,345.9060352710003,None,345.9060352710003,None,,,,,,,,,,,,,,,,,,,,,,,,,,,,,,,,,,,,,,,,,,,,001,84,2020_Feb_06_1125,spring_faces,3.1.5,59.918454219609366,
condition files/Stage0c_1.xlsx,0c,phi,beta,g,"['h', 'g']","['Chess', 'Go']","[-0.15, 0.5]","[0.15, 0.5]",1,1,0,16,16,16,0,0,0,3,,,,,,,,,,,,,,,,,,,,,,,,,,,,,,,,,,,,,,,,,,,,,,,,,,,,,,,,,,,,,,,347.88985684100044,None,347.88985684100044,None,347.88985684100044,None,g,1,0.9460941029992682,349.42216318899955,None,349.42216318899955,None,349.42216318899955,None,350.42254480500014,None,350.42254480500014,None,350.42254480500014,None,350.42254480500014,None,,,,,,,,,,,,,,,,,,,,,,,,,,,,,,,,,,,,,,,,,,,,001,84,2020_Feb_06_1125,spring_faces,3.1.5,59.918454219609366,
condition files/Stage0c_1.xlsx,0c,alpha,phi,h,"['h', 'g']","['Chess', 'Go']","[-0.15, 0.5]","[0.15, 0.5]",1,1,0,16,16,16,0,1,1,1,,,,,,,,,,,,,,,,,,,,,,,,,,,,,,,,,,,,,,,,,,,,,,,,,,,,,,,,,,,,,,,352.3897056879996,None,352.3897056879996,None,352.3897056879996,None,h,1,0.6855554489993665,353.922707265001,None,353.922707265001,None,353.922707265001,None,354.672855756,None,354.672855756,None,354.672855756,None,354.672855756,None,,,,,,,,,,,,,,,,,,,,,,,,,,,,,,,,,,,,,,,,,,,,001,84,2020_Feb_06_1125,spring_faces,3.1.5,59.918454219609366,
condition files/Stage0c_1.xlsx,0c,beta,theta,g,"['h', 'g']","['Chess', 'Go']","[-0.15, 0.5]","[0.15, 0.5]",1,1,0,16,16,16,0,2,2,2,,,,,,,,,,,,,,,,,,,,,,,,,,,,,,,,,,,,,,,,,,,,,,,,,,,,,,,,,,,,,,,356.6391210310012,None,356.6391210310012,None,356.6391210310012,None,g,1,0.9311522560001322,358.17311825900106,None,358.17311825900106,None,358.17311825900106,None,359.15551934200084,None,359.15551934200084,None,359.15551934200084,None,359.15551934200084,None,,,,,,,,,,,,,,,,,,,,,,,,,,,,,,,,,,,,,,,,,,,,001,84,2020_Feb_06_1125,spring_faces,3.1.5,59.918454219609366,
condition files/Stage0c_1.xlsx,0c,theta,alpha,h,"['h', 'g']","['Chess', 'Go']","[-0.15, 0.5]","[0.15, 0.5]",1,1,0,16,16,16,0,3,3,0,,,,,,,,,,,,,,,,,,,,,,,,,,,,,,,,,,,,,,,,,,,,,,,,,,,,,,,,,,,,,,,361.12231424700076,None,361.12231424700076,None,361.12231424700076,None,h,1,1.1841151769986027,362.65610388499954,None,362.65610388499954,None,362.65610388499954,None,363.90630138800043,None,363.90630138800043,None,363.90630138800043,None,363.90630138800043,None,,,,,,,,,,,,,,,,,,,,,,,,,,,,,,,,,,,,,,,,,,,,001,84,2020_Feb_06_1125,spring_faces,3.1.5,59.918454219609366,
condition files/Stage0c_2.xlsx,0c,theta,beta,g,"['h', 'g']","['Chess', 'Go']","[-0.15, 0.5]","[0.15, 0.5]",1,1,0,17,17,17,0,0,0,2,,,,,,,,,,,,,,,,,,,,,,,,,,,,,,,,,,,,,,,,,,,,,,,,,,,,,,,,,,,,,,,365.8891788740002,None,365.8891788740002,None,365.8891788740002,None,g,1,0.8975489910008037,367.4227101430006,None,367.4227101430006,None,367.4227101430006,None,368.3725269780007,None,368.3725269780007,None,368.3725269780007,None,368.3725269780007,None,,,,,,,,,,,,,,,,,,,,,,,,,,,,,,,,,,,,,,,,,,,,001,84,2020_Feb_06_1125,spring_faces,3.1.5,59.918454219609366,
condition files/Stage0c_2.xlsx,0c,alpha,theta,h,"['h', 'g']","['Chess', 'Go']","[-0.15, 0.5]","[0.15, 0.5]",1,1,0,17,17,17,0,1,1,0,,,,,,,,,,,,,,,,,,,,,,,,,,,,,,,,,,,,,,,,,,,,,,,,,,,,,,,,,,,,,,,370.33927494899945,None,370.33927494899945,None,370.33927494899945,None,h,1,1.7110643769992748,371.87316316000033,None,371.87316316000033,None,371.87316316000033,None,373.639548653,None,373.639548653,None,373.639548653,None,373.639548653,None,,,,,,,,,,,,,,,,,,,,,,,,,,,,,,,,,,,,,,,,,,,,001,84,2020_Feb_06_1125,spring_faces,3.1.5,59.918454219609366,
condition files/Stage0c_2.xlsx,0c,beta,phi,g,"['h', 'g']","['Chess', 'Go']","[-0.15, 0.5]","[0.15, 0.5]",1,1,0,17,17,17,0,2,2,3,,,,,,,,,,,,,,,,,,,,,,,,,,,,,,,,,,,,,,,,,,,,,,,,,,,,,,,,,,,,,,,375.6059034250011,None,375.6059034250011,None,375.6059034250011,None,g,1,0.6693896400010999,377.1388809830005,None,377.1388809830005,None,377.1388809830005,None,377.8724256959995,None,377.8724256959995,None,377.8724256959995,None,377.8724256959995,None,,,,,,,,,,,,,,,,,,,,,,,,,,,,,,,,,,,,,,,,,,,,001,84,2020_Feb_06_1125,spring_faces,3.1.5,59.918454219609366,
condition files/Stage0c_2.xlsx,0c,phi,alpha,h,"['h', 'g']","['Chess', 'Go']","[-0.15, 0.5]","[0.15, 0.5]",1,1,0,17,17,17,0,3,3,1,,,,,,,,,,,,,,,,,,,,,,,,,,,,,,,,,,,,,,,,,,,,,,,,,,,,,,,,,,,,,,,379.83898194500034,None,379.83898194500034,None,379.83898194500034,None,h,1,1.0921682110001711,381.37213610800063,None,381.37213610800063,None,381.37213610800063,None,382.5222795610007,None,382.5222795610007,None,382.5222795610007,None,382.5222795610007,None,,,,,,,,,,,,,,,,,,,,,,,,,,,,,,,,,,,,,,,,,,,,001,84,2020_Feb_06_1125,spring_faces,3.1.5,59.918454219609366,
,,,,,,,,,,,,,,,,,,,,,,,,,,,,,,,,,,,,,,,,,,,,,,,,,,,,,,,,,,,,,,,,,,,,,,,,,,,,,,,,,,,,,,,,,,,,,,,,,,,,,,,,384.5059388280006,None,space,1.1183326289992692,389.505880783001,None,,,,,,,,,,,,,,,,,,,,,,,,,,,,,,,,,,,,,,001,84,2020_Feb_06_1125,spring_faces,3.1.5,59.918454219609366,
condition files/Stage1_1.xlsx,,B2,T1,m,"['c', 'm']","['Clue', 'Monopoly']","[-0.15, 0.5]","[0.15, 0.5]",1,1,,,,,,,,,0,0,0,0,0,0,0,2,,,,,,,,,,,,,,,,,,,,,,,,,,,,,,,,,,,,,,,,,,,,,,,,,,,,,,,390.6895321160009,None,390.6895321160009,None,390.6895321160009,None,c,0,0.8661286869992182,392.22216703400045,None,392.22216703400045,None,392.22216703400045,None,393.1574189080002,None,393.1574189080002,None,393.1574189080002,None,393.1574189080002,None,,,,,,,389.505880783001,None,,,,,,,,,,,,,,,,,,,,,,,,,,,,,,,,,,,,001,84,2020_Feb_06_1125,spring_faces,3.1.5,59.918454219609366,
condition files/Stage1_1.xlsx,,T3,B4,c,"['c', 'm']","['Clue', 'Monopoly']","[-0.15, 0.5]","[0.15, 0.5]",1,1,,,,,,,,,0,0,0,0,0,1,1,5,,,,,,,,,,,,,,,,,,,,,,,,,,,,,,,,,,,,,,,,,,,,,,,,,,,,,,,395.10599297299996,None,395.10599297299996,None,395.10599297299996,None,c,1,3.3280787780004175,396.6561221000011,None,396.6561221000011,None,396.6561221000011,None,400.0406384550006,None,400.0406384550006,None,400.0406384550006,None,400.0406384550006,None,,,,,,,,,,,,,,,,,,,,,,,,,,,,,,,,,,,,,,,,,,,,001,84,2020_Feb_06_1125,spring_faces,3.1.5,59.918454219609366,
condition files/Stage1_1.xlsx,,B3,T3,c,"['c', 'm']","['Clue', 'Monopoly']","[-0.15, 0.5]","[0.15, 0.5]",1,1,,,,,,,,,0,0,0,0,0,2,2,4,,,,,,,,,,,,,,,,,,,,,,,,,,,,,,,,,,,,,,,,,,,,,,,,,,,,,,,402.0052460530005,None,402.0052460530005,None,402.0052460530005,None,m,0,0.764154745000269,403.55609741400076,None,403.55609741400076,None,403.55609741400076,None,404.3726796780011,None,404.3726796780011,None,404.3726796780011,None,404.3726796780011,None,,,,,,,,,,,,,,,,,,,,,,,,,,,,,,,,,,,,,,,,,,,,001,84,2020_Feb_06_1125,spring_faces,3.1.5,59.918454219609366,
condition files/Stage1_1.xlsx,,B4,T4,m,"['c', 'm']","['Clue', 'Monopoly']","[-0.15, 0.5]","[0.15, 0.5]",1,1,,,,,,,,,0,0,0,0,0,3,3,7,,,,,,,,,,,,,,,,,,,,,,,,,,,,,,,,,,,,,,,,,,,,,,,,,,,,,,,406.3393169629999,None,406.3393169629999,None,406.3393169629999,None,m,1,0.9108346180000808,407.8893673920011,None,407.8893673920011,None,407.8893673920011,None,408.857160077001,None,408.857160077001,None,408.857160077001,None,408.857160077001,None,,,,,,,,,,,,,,,,,,,,,,,,,,,,,,,,,,,,,,,,,,,,001,84,2020_Feb_06_1125,spring_faces,3.1.5,59.918454219609366,
condition files/Stage1_1.xlsx,,T2,B2,m,"['c', 'm']","['Clue', 'Monopoly']","[-0.15, 0.5]","[0.15, 0.5]",1,1,,,,,,,,,0,0,0,0,0,4,4,3,,,,,,,,,,,,,,,,,,,,,,,,,,,,,,,,,,,,,,,,,,,,,,,,,,,,,,,410.8226884579999,None,410.8226884579999,None,410.8226884579999,None,c,0,1.4666229150006984,412.35762912800055,None,412.35762912800055,None,412.35762912800055,None,413.8896058320006,None,413.8896058320006,None,413.8896058320006,None,413.8896058320006,None,,,,,,,,,,,,,,,,,,,,,,,,,,,,,,,,,,,,,,,,,,,,001,84,2020_Feb_06_1125,spring_faces,3.1.5,59.918454219609366,
condition files/Stage1_1.xlsx,,T1,B1,c,"['c', 'm']","['Clue', 'Monopoly']","[-0.15, 0.5]","[0.15, 0.5]",1,1,,,,,,,,,0,0,0,0,0,5,5,0,,,,,,,,,,,,,,,,,,,,,,,,,,,,,,,,,,,,,,,,,,,,,,,,,,,,,,,415.8553178439997,None,415.8553178439997,None,415.8553178439997,None,c,1,1.7781367520001368,417.4060858440007,None,417.4060858440007,None,417.4060858440007,None,419.24042936099977,None,419.24042936099977,None,419.24042936099977,None,419.24042936099977,None,,,,,,,,,,,,,,,,,,,,,,,,,,,,,,,,,,,,,,,,,,,,001,84,2020_Feb_06_1125,spring_faces,3.1.5,59.918454219609366,
condition files/Stage1_1.xlsx,,B1,T2,c,"['c', 'm']","['Clue', 'Monopoly']","[-0.15, 0.5]","[0.15, 0.5]",1,1,,,,,,,,,0,0,0,0,0,6,6,1,,,,,,,,,,,,,,,,,,,,,,,,,,,,,,,,,,,,,,,,,,,,,,,,,,,,,,,421.20546503600053,None,421.20546503600053,None,421.20546503600053,None,c,1,1.0688077229988266,422.73948936600027,None,422.73948936600027,None,422.73948936600027,None,423.8730036400011,None,423.8730036400011,None,423.8730036400011,None,423.8730036400011,None,,,,,,,,,,,,,,,,,,,,,,,,,,,,,,,,,,,,,,,,,,,,001,84,2020_Feb_06_1125,spring_faces,3.1.5,59.918454219609366,
condition files/Stage1_1.xlsx,,T4,B3,m,"['c', 'm']","['Clue', 'Monopoly']","[-0.15, 0.5]","[0.15, 0.5]",1,1,,,,,,,,,0,0,0,0,0,7,7,6,,,,,,,,,,,,,,,,,,,,,,,,,,,,,,,,,,,,,,,,,,,,,,,,,,,,,,,425.839224274001,None,425.839224274001,None,425.839224274001,None,m,1,1.1233973809994495,427.3729211509999,None,427.3729211509999,None,427.3729211509999,None,428.5579908670006,None,428.5579908670006,None,428.5579908670006,None,428.5579908670006,None,,,,,,,,,,,,,,,,,,,,,,,,,,,,,,,,,,,,,,,,,,,,001,84,2020_Feb_06_1125,spring_faces,3.1.5,59.918454219609366,
condition files/Stage1_2.xlsx,,T3,B3,c,"['c', 'm']","['Clue', 'Monopoly']","[-0.15, 0.5]","[0.15, 0.5]",1,1,,,,,,,,,0,1,1,1,0,0,0,4,,,,,,,,,,,,,,,,,,,,,,,,,,,,,,,,,,,,,,,,,,,,,,,,,,,,,,,430.53952183,None,430.53952183,None,430.53952183,None,m,0,0.9832464669998444,432.08904936900035,None,432.08904936900035,None,432.08904936900035,None,433.1398606060011,None,433.1398606060011,None,433.1398606060011,None,433.1398606060011,None,,,,,,,,,,,,,,,,,,,,,,,,,,,,,,,,,,,,,,,,,,,,001,84,2020_Feb_06_1125,spring_faces,3.1.5,59.918454219609366,
condition files/Stage1_2.xlsx,,B2,T2,m,"['c', 'm']","['Clue', 'Monopoly']","[-0.15, 0.5]","[0.15, 0.5]",1,1,,,,,,,,,0,1,1,1,0,1,1,3,,,,,,,,,,,,,,,,,,,,,,,,,,,,,,,,,,,,,,,,,,,,,,,,,,,,,,,435.08888169999955,None,435.08888169999955,None,435.08888169999955,None,c,0,2.49677341899951,436.6394164120011,None,436.6394164120011,None,436.6394164120011,None,439.20598841299943,None,439.20598841299943,None,439.20598841299943,None,439.20598841299943,None,,,,,,,,,,,,,,,,,,,,,,,,,,,,,,,,,,,,,,,,,,,,001,84,2020_Feb_06_1125,spring_faces,3.1.5,59.918454219609366,
condition files/Stage1_2.xlsx,,T2,B1,c,"['c', 'm']","['Clue', 'Monopoly']","[-0.15, 0.5]","[0.15, 0.5]",1,1,,,,,,,,,0,1,1,1,0,2,2,1,,,,,,,,,,,,,,,,,,,,,,,,,,,,,,,,,,,,,,,,,,,,,,,,,,,,,,,441.1559705870004,None,441.1559705870004,None,441.1559705870004,None,m,0,1.0524213730004703,442.691871766001,None,442.691871766001,None,442.691871766001,None,443.80820144000063,None,443.80820144000063,None,443.80820144000063,None,443.80820144000063,None,,,,,,,,,,,,,,,,,,,,,,,,,,,,,,,,,,,,,,,,,,,,001,84,2020_Feb_06_1125,spring_faces,3.1.5,59.918454219609366,
condition files/Stage1_2.xlsx,,B3,T4,m,"['c', 'm']","['Clue', 'Monopoly']","[-0.15, 0.5]","[0.15, 0.5]",1,1,,,,,,,,,0,1,1,1,0,3,3,6,,,,,,,,,,,,,,,,,,,,,,,,,,,,,,,,,,,,,,,,,,,,,,,,,,,,,,,445.77230595400033,None,445.77230595400033,None,445.77230595400033,None,c,0,1.204726349998964,447.3075848509998,None,447.3075848509998,None,447.3075848509998,None,448.57493419099956,None,448.57493419099956,None,448.57493419099956,None,448.57493419099956,None,,,,,,,,,,,,,,,,,,,,,,,,,,,,,,,,,,,,,,,,,,,,001,84,2020_Feb_06_1125,spring_faces,3.1.5,59.918454219609366,
condition files/Stage1_2.xlsx,,T4,B4,m,"['c', 'm']","['Clue', 'Monopoly']","[-0.15, 0.5]","[0.15, 0.5]",1,1,,,,,,,,,0,1,1,1,0,4,4,7,,,,,,,,,,,,,,,,,,,,,,,,,,,,,,,,,,,,,,,,,,,,,,,,,,,,,,,450.53926575100013,None,450.53926575100013,None,450.53926575100013,None,c,0,2.149776030999419,452.074450438,None,452.074450438,None,452.074450438,None,454.2891080520003,None,454.2891080520003,None,454.2891080520003,None,454.2891080520003,None,,,,,,,,,,,,,,,,,,,,,,,,,,,,,,,,,,,,,,,,,,,,001,84,2020_Feb_06_1125,spring_faces,3.1.5,59.918454219609366,
condition files/Stage1_2.xlsx,,B4,T3,c,"['c', 'm']","['Clue', 'Monopoly']","[-0.15, 0.5]","[0.15, 0.5]",1,1,,,,,,,,,0,1,1,1,0,5,5,5,,,,,,,,,,,,,,,,,,,,,,,,,,,,,,,,,,,,,,,,,,,,,,,,,,,,,,,456.2560255589997,None,456.2560255589997,None,456.2560255589997,None,c,1,1.9227588250014378,457.80552845999955,None,457.80552845999955,None,457.80552845999955,None,459.78889146500114,None,459.78889146500114,None,459.78889146500114,None,459.78889146500114,None,,,,,,,,,,,,,,,,,,,,,,,,,,,,,,,,,,,,,,,,,,,,001,84,2020_Feb_06_1125,spring_faces,3.1.5,59.918454219609366,
condition files/Stage1_2.xlsx,,B1,T1,c,"['c', 'm']","['Clue', 'Monopoly']","[-0.15, 0.5]","[0.15, 0.5]",1,1,,,,,,,,,0,1,1,1,0,6,6,0,,,,,,,,,,,,,,,,,,,,,,,,,,,,,,,,,,,,,,,,,,,,,,,,,,,,,,,461.7559577289994,None,461.7559577289994,None,461.7559577289994,None,m,0,0.4062609859993245,463.30603132000033,None,463.30603132000033,None,463.30603132000033,None,463.77260722200117,None,463.77260722200117,None,463.77260722200117,None,463.77260722200117,None,,,,,,,,,,,,,,,,,,,,,,,,,,,,,,,,,,,,,,,,,,,,001,84,2020_Feb_06_1125,spring_faces,3.1.5,59.918454219609366,
condition files/Stage1_2.xlsx,,T1,B2,m,"['c', 'm']","['Clue', 'Monopoly']","[-0.15, 0.5]","[0.15, 0.5]",1,1,,,,,,,,,0,1,1,1,0,7,7,2,,,,,,,,,,,,,,,,,,,,,,,,,,,,,,,,,,,,,,,,,,,,,,,,,,,,,,,465.7389589430004,None,465.7389589430004,None,465.7389589430004,None,m,1,0.7113189740011876,467.2889429629995,None,467.2889429629995,None,467.2889429629995,None,468.07260755900097,None,468.07260755900097,None,468.07260755900097,None,468.07260755900097,None,,,,,,,,,,,,,,,,,,,,,,,,,,,,,,,,,,,,,,,,,,,,001,84,2020_Feb_06_1125,spring_faces,3.1.5,59.918454219609366,
condition files/Stage1_1.xlsx,,B4,T4,m,"['c', 'm']","['Clue', 'Monopoly']","[-0.15, 0.5]","[0.15, 0.5]",1,1,,,,,,,,,0,2,2,2,0,0,0,7,,,,,,,,,,,,,,,,,,,,,,,,,,,,,,,,,,,,,,,,,,,,,,,,,,,,,,,470.03935512099997,None,470.03935512099997,None,470.03935512099997,None,m,1,0.9225897800006351,471.5896624880006,None,471.5896624880006,None,471.5896624880006,None,472.5731211000002,None,472.5731211000002,None,472.5731211000002,None,472.5731211000002,None,,,,,,,,,,,,,,,,,,,,,,,,,,,,,,,,,,,,,,,,,,,,001,84,2020_Feb_06_1125,spring_faces,3.1.5,59.918454219609366,
condition files/Stage1_1.xlsx,,T4,B3,m,"['c', 'm']","['Clue', 'Monopoly']","[-0.15, 0.5]","[0.15, 0.5]",1,1,,,,,,,,,0,2,2,2,0,1,1,6,,,,,,,,,,,,,,,,,,,,,,,,,,,,,,,,,,,,,,,,,,,,,,,,,,,,,,,474.5393533660008,None,474.5393533660008,None,474.5393533660008,None,m,1,1.0632140550005715,476.0729750589999,None,476.0729750589999,None,476.0729750589999,None,477.188877038001,None,477.188877038001,None,477.188877038001,None,477.188877038001,None,,,,,,,,,,,,,,,,,,,,,,,,,,,,,,,,,,,,,,,,,,,,001,84,2020_Feb_06_1125,spring_faces,3.1.5,59.918454219609366,
condition files/Stage1_1.xlsx,,B3,T3,c,"['c', 'm']","['Clue', 'Monopoly']","[-0.15, 0.5]","[0.15, 0.5]",1,1,,,,,,,,,0,2,2,2,0,2,2,4,,,,,,,,,,,,,,,,,,,,,,,,,,,,,,,,,,,,,,,,,,,,,,,,,,,,,,,479.155872456,None,479.155872456,None,479.155872456,None,c,1,0.9107758450008987,480.70554826400075,None,480.70554826400075,None,480.70554826400075,None,481.6727858530012,None,481.6727858530012,None,481.6727858530012,None,481.6727858530012,None,,,,,,,,,,,,,,,,,,,,,,,,,,,,,,,,,,,,,,,,,,,,001,84,2020_Feb_06_1125,spring_faces,3.1.5,59.918454219609366,
condition files/Stage1_1.xlsx,,T3,B4,c,"['c', 'm']","['Clue', 'Monopoly']","[-0.15, 0.5]","[0.15, 0.5]",1,1,,,,,,,,,0,2,2,2,0,3,3,5,,,,,,,,,,,,,,,,,,,,,,,,,,,,,,,,,,,,,,,,,,,,,,,,,,,,,,,483.63885337300053,None,483.63885337300053,None,483.63885337300053,None,c,1,0.8734903969998413,485.1748245250001,None,485.1748245250001,None,485.1748245250001,None,486.10565981699983,None,486.10565981699983,None,486.10565981699983,None,486.10565981699983,None,,,,,,,,,,,,,,,,,,,,,,,,,,,,,,,,,,,,,,,,,,,,001,84,2020_Feb_06_1125,spring_faces,3.1.5,59.918454219609366,
condition files/Stage1_1.xlsx,,B2,T1,m,"['c', 'm']","['Clue', 'Monopoly']","[-0.15, 0.5]","[0.15, 0.5]",1,1,,,,,,,,,0,2,2,2,0,4,4,2,,,,,,,,,,,,,,,,,,,,,,,,,,,,,,,,,,,,,,,,,,,,,,,,,,,,,,,488.07253278999997,None,488.07253278999997,None,488.07253278999997,None,m,1,0.7618221140000969,489.62240853000003,None,489.62240853000003,None,489.62240853000003,None,490.4561984459997,None,490.4561984459997,None,490.4561984459997,None,490.4561984459997,None,,,,,,,,,,,,,,,,,,,,,,,,,,,,,,,,,,,,,,,,,,,,001,84,2020_Feb_06_1125,spring_faces,3.1.5,59.918454219609366,
condition files/Stage1_1.xlsx,,T1,B1,c,"['c', 'm']","['Clue', 'Monopoly']","[-0.15, 0.5]","[0.15, 0.5]",1,1,,,,,,,,,0,2,2,2,0,5,5,0,,,,,,,,,,,,,,,,,,,,,,,,,,,,,,,,,,,,,,,,,,,,,,,,,,,,,,,492.4059417059998,None,492.4059417059998,None,492.4059417059998,None,c,1,1.6767039249989466,493.9396192759996,None,493.9396192759996,None,493.9396192759996,None,495.674198308001,None,495.674198308001,None,495.674198308001,None,495.674198308001,None,,,,,,,,,,,,,,,,,,,,,,,,,,,,,,,,,,,,,,,,,,,,001,84,2020_Feb_06_1125,spring_faces,3.1.5,59.918454219609366,
condition files/Stage1_1.xlsx,,B1,T2,c,"['c', 'm']","['Clue', 'Monopoly']","[-0.15, 0.5]","[0.15, 0.5]",1,1,,,,,,,,,0,2,2,2,0,6,6,1,,,,,,,,,,,,,,,,,,,,,,,,,,,,,,,,,,,,,,,,,,,,,,,,,,,,,,,497.63933068200095,None,497.63933068200095,None,497.63933068200095,None,c,1,0.8911025910001626,499.17322953500116,None,499.17322953500116,None,499.17322953500116,None,500.12286159500036,None,500.12286159500036,None,500.12286159500036,None,500.12286159500036,None,,,,,,,,,,,,,,,,,,,,,,,,,,,,,,,,,,,,,,,,,,,,001,84,2020_Feb_06_1125,spring_faces,3.1.5,59.918454219609366,
condition files/Stage1_1.xlsx,,T2,B2,m,"['c', 'm']","['Clue', 'Monopoly']","[-0.15, 0.5]","[0.15, 0.5]",1,1,,,,,,,,,0,2,2,2,0,7,7,3,,,,,,,,,,,,,,,,,,,,,,,,,,,,,,,,,,,,,,,,,,,,,,,,,,,,,,,502.0889414680005,None,502.0889414680005,None,502.0889414680005,None,c,0,0.8092266680014291,503.6230237519994,None,503.6230237519994,None,503.6230237519994,None,504.5059554929994,None,504.5059554929994,None,504.5059554929994,None,504.5059554929994,None,,,,,,,,,,,,,,,,,,,,,,,,,,,,,,,,,,,,,,,,,,,,001,84,2020_Feb_06_1125,spring_faces,3.1.5,59.918454219609366,
condition files/Stage1_2.xlsx,,B4,T3,c,"['c', 'm']","['Clue', 'Monopoly']","[-0.15, 0.5]","[0.15, 0.5]",1,1,,,,,,,,,0,3,3,3,0,0,0,5,,,,,,,,,,,,,,,,,,,,,,,,,,,,,,,,,,,,,,,,,,,,,,,,,,,,,,,506.4725608160006,None,506.4725608160006,None,506.4725608160006,None,m,0,0.7624054600000818,508.0058330459997,None,508.0058330459997,None,508.0058330459997,None,508.82474146999994,None,508.82474146999994,None,508.82474146999994,None,508.82474146999994,None,,,,,,,,,,,,,,,,,,,,,,,,,,,,,,,,,,,,,,,,,,,,001,84,2020_Feb_06_1125,spring_faces,3.1.5,59.918454219609366,
condition files/Stage1_2.xlsx,,T4,B4,m,"['c', 'm']","['Clue', 'Monopoly']","[-0.15, 0.5]","[0.15, 0.5]",1,1,,,,,,,,,0,3,3,3,0,1,1,7,,,,,,,,,,,,,,,,,,,,,,,,,,,,,,,,,,,,,,,,,,,,,,,,,,,,,,,510.78919595499974,None,510.78919595499974,None,510.78919595499974,None,m,1,0.7492005389995029,512.3230921539998,None,512.3230921539998,None,512.3230921539998,None,513.1394379499998,None,513.1394379499998,None,513.1394379499998,None,513.1394379499998,None,,,,,,,,,,,,,,,,,,,,,,,,,,,,,,,,,,,,,,,,,,,,001,84,2020_Feb_06_1125,spring_faces,3.1.5,59.918454219609366,
condition files/Stage1_2.xlsx,,B2,T2,m,"['c', 'm']","['Clue', 'Monopoly']","[-0.15, 0.5]","[0.15, 0.5]",1,1,,,,,,,,,0,3,3,3,0,2,2,3,,,,,,,,,,,,,,,,,,,,,,,,,,,,,,,,,,,,,,,,,,,,,,,,,,,,,,,515.0891970800003,None,515.0891970800003,None,515.0891970800003,None,c,0,0.7688007609995111,516.6394674130006,None,516.6394674130006,None,516.6394674130006,None,517.4724225499995,None,517.4724225499995,None,517.4724225499995,None,517.4724225499995,None,,,,,,,,,,,,,,,,,,,,,,,,,,,,,,,,,,,,,,,,,,,,001,84,2020_Feb_06_1125,spring_faces,3.1.5,59.918454219609366,
condition files/Stage1_2.xlsx,,T1,B2,m,"['c', 'm']","['Clue', 'Monopoly']","[-0.15, 0.5]","[0.15, 0.5]",1,1,,,,,,,,,0,3,3,3,0,3,3,2,,,,,,,,,,,,,,,,,,,,,,,,,,,,,,,,,,,,,,,,,,,,,,,,,,,,,,,519.4389145590012,None,519.4389145590012,None,519.4389145590012,None,m,1,1.3146990459990775,520.9736117600005,None,520.9736117600005,None,520.9736117600005,None,522.3390649169996,None,522.3390649169996,None,522.3390649169996,None,522.3390649169996,None,,,,,,,,,,,,,,,,,,,,,,,,,,,,,,,,,,,,,,,,,,,,001,84,2020_Feb_06_1125,spring_faces,3.1.5,59.918454219609366,
condition files/Stage1_2.xlsx,,T3,B3,c,"['c', 'm']","['Clue', 'Monopoly']","[-0.15, 0.5]","[0.15, 0.5]",1,1,,,,,,,,,0,3,3,3,0,4,4,4,,,,,,,,,,,,,,,,,,,,,,,,,,,,,,,,,,,,,,,,,,,,,,,,,,,,,,,524.305553993001,None,524.305553993001,None,524.305553993001,None,c,1,0.8480411609998555,525.8562365489997,None,525.8562365489997,None,525.8562365489997,None,526.7559715179996,None,526.7559715179996,None,526.7559715179996,None,526.7559715179996,None,,,,,,,,,,,,,,,,,,,,,,,,,,,,,,,,,,,,,,,,,,,,001,84,2020_Feb_06_1125,spring_faces,3.1.5,59.918454219609366,
condition files/Stage1_2.xlsx,,T2,B1,c,"['c', 'm']","['Clue', 'Monopoly']","[-0.15, 0.5]","[0.15, 0.5]",1,1,,,,,,,,,0,3,3,3,0,5,5,1,,,,,,,,,,,,,,,,,,,,,,,,,,,,,,,,,,,,,,,,,,,,,,,,,,,,,,,528.7222216860009,None,528.7222216860009,None,528.7222216860009,None,m,0,1.0556987460004166,530.2725814950008,None,530.2725814950008,None,530.2725814950008,None,531.3896458159998,None,531.3896458159998,None,531.3896458159998,None,531.3896458159998,None,,,,,,,,,,,,,,,,,,,,,,,,,,,,,,,,,,,,,,,,,,,,001,84,2020_Feb_06_1125,spring_faces,3.1.5,59.918454219609366,
condition files/Stage1_2.xlsx,,B3,T4,m,"['c', 'm']","['Clue', 'Monopoly']","[-0.15, 0.5]","[0.15, 0.5]",1,1,,,,,,,,,0,3,3,3,0,6,6,6,,,,,,,,,,,,,,,,,,,,,,,,,,,,,,,,,,,,,,,,,,,,,,,,,,,,,,,533.355899817001,None,533.355899817001,None,533.355899817001,None,c,0,0.27650104600070335,534.8917112489999,None,534.8917112489999,None,534.8917112489999,None,535.2243777330004,None,535.2243777330004,None,535.2243777330004,None,535.2243777330004,None,,,,,,,,,,,,,,,,,,,,,,,,,,,,,,,,,,,,,,,,,,,,001,84,2020_Feb_06_1125,spring_faces,3.1.5,59.918454219609366,
condition files/Stage1_2.xlsx,,B1,T1,c,"['c', 'm']","['Clue', 'Monopoly']","[-0.15, 0.5]","[0.15, 0.5]",1,1,,,,,,,,,0,3,3,3,0,7,7,0,,,,,,,,,,,,,,,,,,,,,,,,,,,,,,,,,,,,,,,,,,,,,,,,,,,,,,,537.1892223650011,None,537.1892223650011,None,537.1892223650011,None,m,0,2.0275300119992608,538.7247510870002,None,538.7247510870002,None,538.7247510870002,None,540.8059300200002,None,540.8059300200002,None,540.8059300200002,None,540.8059300200002,None,,,,,,,,,,,,,,,,,,,,,,,,,,,,,,,,,,,,,,,,,,,,001,84,2020_Feb_06_1125,spring_faces,3.1.5,59.918454219609366,
condition files/Stage1_1.xlsx,,B4,T4,m,"['c', 'm']","['Clue', 'Monopoly']","[-0.15, 0.5]","[0.15, 0.5]",1,1,,,,,,,,,0,4,4,4,0,0,0,7,,,,,,,,,,,,,,,,,,,,,,,,,,,,,,,,,,,,,,,,,,,,,,,,,,,,,,,542.7894490720009,None,542.7894490720009,None,542.7894490720009,None,m,1,0.4925776309992216,544.3237504150002,None,544.3237504150002,None,544.3237504150002,None,544.8895326639995,None,544.8895326639995,None,544.8895326639995,None,544.8895326639995,None,,,,,,,,,,,,,,,,,,,,,,,,,,,,,,,,,,,,,,,,,,,,001,84,2020_Feb_06_1125,spring_faces,3.1.5,59.918454219609366,
condition files/Stage1_1.xlsx,,B1,T2,c,"['c', 'm']","['Clue', 'Monopoly']","[-0.15, 0.5]","[0.15, 0.5]",1,1,,,,,,,,,0,4,4,4,0,1,1,1,,,,,,,,,,,,,,,,,,,,,,,,,,,,,,,,,,,,,,,,,,,,,,,,,,,,,,,546.8392116920004,None,546.8392116920004,None,546.8392116920004,None,m,0,1.147356633999152,548.388879864,None,548.388879864,None,548.388879864,None,549.591370862001,None,549.591370862001,None,549.591370862001,None,549.591370862001,None,,,,,,,,,,,,,,,,,,,,,,,,,,,,,,,,,,,,,,,,,,,,001,84,2020_Feb_06_1125,spring_faces,3.1.5,59.918454219609366,
condition files/Stage1_1.xlsx,,T2,B2,m,"['c', 'm']","['Clue', 'Monopoly']","[-0.15, 0.5]","[0.15, 0.5]",1,1,,,,,,,,,0,4,4,4,0,2,2,3,,,,,,,,,,,,,,,,,,,,,,,,,,,,,,,,,,,,,,,,,,,,,,,,,,,,,,,551.5560234759996,None,551.5560234759996,None,551.5560234759996,None,c,0,0.5743198380005197,553.0900162910002,None,553.0900162910002,None,553.0900162910002,None,553.7393638180001,None,553.7393638180001,None,553.7393638180001,None,553.7393638180001,None,,,,,,,,,,,,,,,,,,,,,,,,,,,,,,,,,,,,,,,,,,,,001,84,2020_Feb_06_1125,spring_faces,3.1.5,59.918454219609366,
condition files/Stage1_1.xlsx,,B2,T1,m,"['c', 'm']","['Clue', 'Monopoly']","[-0.15, 0.5]","[0.15, 0.5]",1,1,,,,,,,,,0,4,4,4,0,3,3,2,,,,,,,,,,,,,,,,,,,,,,,,,,,,,,,,,,,,,,,,,,,,,,,,,,,,,,,555.6892575490001,None,555.6892575490001,None,555.6892575490001,None,m,1,0.665414757999315,557.2388567390008,None,557.2388567390008,None,557.2388567390008,None,557.9562903240003,None,557.9562903240003,None,557.9562903240003,None,557.9562903240003,None,,,,,,,,,,,,,,,,,,,,,,,,,,,,,,,,,,,,,,,,,,,,001,84,2020_Feb_06_1125,spring_faces,3.1.5,59.918454219609366,
condition files/Stage1_1.xlsx,,T3,B4,c,"['c', 'm']","['Clue', 'Monopoly']","[-0.15, 0.5]","[0.15, 0.5]",1,1,,,,,,,,,0,4,4,4,0,4,4,5,,,,,,,,,,,,,,,,,,,,,,,,,,,,,,,,,,,,,,,,,,,,,,,,,,,,,,,559.9220858950011,None,559.9220858950011,None,559.9220858950011,None,m,0,0.4630373800009693,561.473200683,None,561.473200683,None,561.473200683,None,561.9919826940004,None,561.9919826940004,None,561.9919826940004,None,561.9919826940004,None,,,,,,,,,,,,,,,,,,,,,,,,,,,,,,,,,,,,,,,,,,,,001,84,2020_Feb_06_1125,spring_faces,3.1.5,59.918454219609366,
condition files/Stage1_1.xlsx,,T4,B3,m,"['c', 'm']","['Clue', 'Monopoly']","[-0.15, 0.5]","[0.15, 0.5]",1,1,,,,,,,,,0,4,4,4,0,5,5,6,,,,,,,,,,,,,,,,,,,,,,,,,,,,,,,,,,,,,,,,,,,,,,,,,,,,,,,563.9555912150008,None,563.9555912150008,None,563.9555912150008,None,m,1,0.5428187039997283,565.5054968580007,None,565.5054968580007,None,565.5054968580007,None,566.1081437840003,None,566.1081437840003,None,566.1081437840003,None,566.1081437840003,None,,,,,,,,,,,,,,,,,,,,,,,,,,,,,,,,,,,,,,,,,,,,001,84,2020_Feb_06_1125,spring_faces,3.1.5,59.918454219609366,
condition files/Stage1_1.xlsx,,B3,T3,c,"['c', 'm']","['Clue', 'Monopoly']","[-0.15, 0.5]","[0.15, 0.5]",1,1,,,,,,,,,0,4,4,4,0,6,6,4,,,,,,,,,,,,,,,,,,,,,,,,,,,,,,,,,,,,,,,,,,,,,,,,,,,,,,,568.0721215980011,None,568.0721215980011,None,568.0721215980011,None,c,1,1.0497417589995166,569.6225545489997,None,569.6225545489997,None,569.6225545489997,None,570.7394002319998,None,570.7394002319998,None,570.7394002319998,None,570.7394002319998,None,,,,,,,,,,,,,,,,,,,,,,,,,,,,,,,,,,,,,,,,,,,,001,84,2020_Feb_06_1125,spring_faces,3.1.5,59.918454219609366,
condition files/Stage1_1.xlsx,,T1,B1,c,"['c', 'm']","['Clue', 'Monopoly']","[-0.15, 0.5]","[0.15, 0.5]",1,1,,,,,,,,,0,4,4,4,0,7,7,0,,,,,,,,,,,,,,,,,,,,,,,,,,,,,,,,,,,,,,,,,,,,,,,,,,,,,,,572.689194214001,None,572.689194214001,None,572.689194214001,None,m,0,3.1045522749991505,574.2397418550008,None,574.2397418550008,None,574.2397418550008,None,577.4059478199997,None,577.4059478199997,None,577.4059478199997,None,577.4059478199997,None,,,,,,,,,,,,,,,,,,,,,,,,,,,,,,,,,,,,,,,,,,,,001,84,2020_Feb_06_1125,spring_faces,3.1.5,59.918454219609366,
condition files/Stage1_2.xlsx,,B3,T4,m,"['c', 'm']","['Clue', 'Monopoly']","[-0.15, 0.5]","[0.15, 0.5]",1,1,,,,,,,,,0,5,5,5,0,0,0,6,,,,,,,,,,,,,,,,,,,,,,,,,,,,,,,,,,,,,,,,,,,,,,,,,,,,,,,579.3895011149998,None,579.3895011149998,None,579.3895011149998,None,m,1,0.5633160910001607,580.9249987460007,None,580.9249987460007,None,580.9249987460007,None,581.5557509940008,None,581.5557509940008,None,581.5557509940008,None,581.5557509940008,None,,,,,,,,,,,,,,,,,,,,,,,,,,,,,,,,,,,,,,,,,,,,001,84,2020_Feb_06_1125,spring_faces,3.1.5,59.918454219609366,
condition files/Stage1_2.xlsx,,T3,B3,c,"['c', 'm']","['Clue', 'Monopoly']","[-0.15, 0.5]","[0.15, 0.5]",1,1,,,,,,,,,0,5,5,5,0,1,1,4,,,,,,,,,,,,,,,,,,,,,,,,,,,,,,,,,,,,,,,,,,,,,,,,,,,,,,,583.5059024530001,None,583.5059024530001,None,583.5059024530001,None,c,1,0.7681342060004681,585.0561321559999,None,585.0561321559999,None,585.0561321559999,None,585.9063961270003,None,585.9063961270003,None,585.9063961270003,None,585.9063961270003,None,,,,,,,,,,,,,,,,,,,,,,,,,,,,,,,,,,,,,,,,,,,,001,84,2020_Feb_06_1125,spring_faces,3.1.5,59.918454219609366,
condition files/Stage1_2.xlsx,,T2,B1,c,"['c', 'm']","['Clue', 'Monopoly']","[-0.15, 0.5]","[0.15, 0.5]",1,1,,,,,,,,,0,5,5,5,0,2,2,1,,,,,,,,,,,,,,,,,,,,,,,,,,,,,,,,,,,,,,,,,,,,,,,,,,,,,,,587.8561096049998,None,587.8561096049998,None,587.8561096049998,None,m,0,1.1537329029997636,589.4065418949995,None,589.4065418949995,None,589.4065418949995,None,590.6221986920009,None,590.6221986920009,None,590.6221986920009,None,590.6221986920009,None,,,,,,,,,,,,,,,,,,,,,,,,,,,,,,,,,,,,,,,,,,,,001,84,2020_Feb_06_1125,spring_faces,3.1.5,59.918454219609366,
condition files/Stage1_2.xlsx,,B1,T1,c,"['c', 'm']","['Clue', 'Monopoly']","[-0.15, 0.5]","[0.15, 0.5]",1,1,,,,,,,,,0,5,5,5,0,3,3,0,,,,,,,,,,,,,,,,,,,,,,,,,,,,,,,,,,,,,,,,,,,,,,,,,,,,,,,592.5892816169999,None,592.5892816169999,None,592.5892816169999,None,c,1,1.1729724209999404,594.1393087470005,None,594.1393087470005,None,594.1393087470005,None,595.372529274,None,595.372529274,None,595.372529274,None,595.372529274,None,,,,,,,,,,,,,,,,,,,,,,,,,,,,,,,,,,,,,,,,,,,,001,84,2020_Feb_06_1125,spring_faces,3.1.5,59.918454219609366,
condition files/Stage1_2.xlsx,,B4,T3,c,"['c', 'm']","['Clue', 'Monopoly']","[-0.15, 0.5]","[0.15, 0.5]",1,1,,,,,,,,,0,5,5,5,0,4,4,5,,,,,,,,,,,,,,,,,,,,,,,,,,,,,,,,,,,,,,,,,,,,,,,,,,,,,,,597.3391592330008,None,597.3391592330008,None,597.3391592330008,None,m,0,0.6629839100005483,598.8892793400009,None,598.8892793400009,None,598.8892793400009,None,599.6058484530004,None,599.6058484530004,None,599.6058484530004,None,599.6058484530004,None,,,,,,,,,,,,,,,,,,,,,,,,,,,,,,,,,,,,,,,,,,,,001,84,2020_Feb_06_1125,spring_faces,3.1.5,59.918454219609366,
condition files/Stage1_2.xlsx,,T1,B2,m,"['c', 'm']","['Clue', 'Monopoly']","[-0.15, 0.5]","[0.15, 0.5]",1,1,,,,,,,,,0,5,5,5,0,5,5,2,,,,,,,,,,,,,,,,,,,,,,,,,,,,,,,,,,,,,,,,,,,,,,,,,,,,,,,601.5719652299995,None,601.5719652299995,None,601.5719652299995,None,m,1,0.9570018190006522,603.1233120590005,None,603.1233120590005,None,603.1233120590005,None,604.1563318150002,None,604.1563318150002,None,604.1563318150002,None,604.1563318150002,None,,,,,,,,,,,,,,,,,,,,,,,,,,,,,,,,,,,,,,,,,,,,001,84,2020_Feb_06_1125,spring_faces,3.1.5,59.918454219609366,
condition files/Stage1_2.xlsx,,T4,B4,m,"['c', 'm']","['Clue', 'Monopoly']","[-0.15, 0.5]","[0.15, 0.5]",1,1,,,,,,,,,0,5,5,5,0,6,6,7,,,,,,,,,,,,,,,,,,,,,,,,,,,,,,,,,,,,,,,,,,,,,,,,,,,,,,,606.1058969139995,None,606.1058969139995,None,606.1058969139995,None,m,1,0.7594774300014251,607.6407961599998,None,607.6407961599998,None,607.6407961599998,None,608.456042658001,None,608.456042658001,None,608.456042658001,None,608.456042658001,None,,,,,,,,,,,,,,,,,,,,,,,,,,,,,,,,,,,,,,,,,,,,001,84,2020_Feb_06_1125,spring_faces,3.1.5,59.918454219609366,
condition files/Stage1_2.xlsx,,B2,T2,m,"['c', 'm']","['Clue', 'Monopoly']","[-0.15, 0.5]","[0.15, 0.5]",1,1,,,,,,,,,0,5,5,5,0,7,7,3,,,,,,,,,,,,,,,,,,,,,,,,,,,,,,,,,,,,,,,,,,,,,,,,,,,,,,,610.4222399620012,None,610.4222399620012,None,610.4222399620012,None,c,0,2.427018468000824,611.9572380999998,None,611.9572380999998,None,611.9572380999998,None,614.4395059970011,None,614.4395059970011,None,614.4395059970011,None,614.4395059970011,None,,,,,,,,,,,,,,,,,,,,,,,,,,,,,,,,,,,,,,,,,,,,001,84,2020_Feb_06_1125,spring_faces,3.1.5,59.918454219609366,
condition files/Stage1_1.xlsx,,B2,T1,m,"['c', 'm']","['Clue', 'Monopoly']","[-0.15, 0.5]","[0.15, 0.5]",1,1,,,,,,,,,0,6,6,6,0,0,0,2,,,,,,,,,,,,,,,,,,,,,,,,,,,,,,,,,,,,,,,,,,,,,,,,,,,,,,,616.4225152840008,None,616.4225152840008,None,616.4225152840008,None,c,0,1.291479146999336,617.956858253001,None,617.956858253001,None,617.956858253001,None,619.3058050439995,None,619.3058050439995,None,619.3058050439995,None,619.3058050439995,None,,,,,,,,,,,,,,,,,,,,,,,,,,,,,,,,,,,,,,,,,,,,001,84,2020_Feb_06_1125,spring_faces,3.1.5,59.918454219609366,
condition files/Stage1_1.xlsx,,B4,T4,m,"['c', 'm']","['Clue', 'Monopoly']","[-0.15, 0.5]","[0.15, 0.5]",1,1,,,,,,,,,0,6,6,6,0,1,1,7,,,,,,,,,,,,,,,,,,,,,,,,,,,,,,,,,,,,,,,,,,,,,,,,,,,,,,,621.2728044129999,None,621.2728044129999,None,621.2728044129999,None,m,1,0.5383997650005767,622.8059142350012,None,622.8059142350012,None,622.8059142350012,None,623.4062334909995,None,623.4062334909995,None,623.4062334909995,None,623.4062334909995,None,,,,,,,,,,,,,,,,,,,,,,,,,,,,,,,,,,,,,,,,,,,,001,84,2020_Feb_06_1125,spring_faces,3.1.5,59.918454219609366,
condition files/Stage1_1.xlsx,,T1,B1,c,"['c', 'm']","['Clue', 'Monopoly']","[-0.15, 0.5]","[0.15, 0.5]",1,1,,,,,,,,,0,6,6,6,0,2,2,0,,,,,,,,,,,,,,,,,,,,,,,,,,,,,,,,,,,,,,,,,,,,,,,,,,,,,,,625.3727522459994,None,625.3727522459994,None,625.3727522459994,None,c,1,4.150912062001225,626.9053171920004,None,626.9053171920004,None,626.9053171920004,None,631.1395157229999,None,631.1395157229999,None,631.1395157229999,None,631.1395157229999,None,,,,,,,,,,,,,,,,,,,,,,,,,,,,,,,,,,,,,,,,,,,,001,84,2020_Feb_06_1125,spring_faces,3.1.5,59.918454219609366,
condition files/Stage1_1.xlsx,,T2,B2,m,"['c', 'm']","['Clue', 'Monopoly']","[-0.15, 0.5]","[0.15, 0.5]",1,1,,,,,,,,,0,6,6,6,0,3,3,3,,,,,,,,,,,,,,,,,,,,,,,,,,,,,,,,,,,,,,,,,,,,,,,,,,,,,,,633.0888454340002,None,633.0888454340002,None,633.0888454340002,None,c,0,0.46459815700109175,634.6396708499997,None,634.6396708499997,None,634.6396708499997,None,635.1726061139998,None,635.1726061139998,None,635.1726061139998,None,635.1726061139998,None,,,,,,,,,,,,,,,,,,,,,,,,,,,,,,,,,,,,,,,,,,,,001,84,2020_Feb_06_1125,spring_faces,3.1.5,59.918454219609366,
condition files/Stage1_1.xlsx,,T4,B3,m,"['c', 'm']","['Clue', 'Monopoly']","[-0.15, 0.5]","[0.15, 0.5]",1,1,,,,,,,,,0,6,6,6,0,4,4,6,,,,,,,,,,,,,,,,,,,,,,,,,,,,,,,,,,,,,,,,,,,,,,,,,,,,,,,637.1220684700002,None,637.1220684700002,None,637.1220684700002,None,m,1,0.6863999920005881,638.6579019680012,None,638.6579019680012,None,638.6579019680012,None,639.4057095349999,None,639.4057095349999,None,639.4057095349999,None,639.4057095349999,None,,,,,,,,,,,,,,,,,,,,,,,,,,,,,,,,,,,,,,,,,,,,001,84,2020_Feb_06_1125,spring_faces,3.1.5,59.918454219609366,
condition files/Stage1_1.xlsx,,T3,B4,c,"['c', 'm']","['Clue', 'Monopoly']","[-0.15, 0.5]","[0.15, 0.5]",1,1,,,,,,,,,0,6,6,6,0,5,5,5,,,,,,,,,,,,,,,,,,,,,,,,,,,,,,,,,,,,,,,,,,,,,,,,,,,,,,,641.3725519470008,None,641.3725519470008,None,641.3725519470008,None,c,1,0.6460588440004358,642.9062252170006,None,642.9062252170006,None,642.9062252170006,None,643.6072625840006,None,643.6072625840006,None,643.6072625840006,None,643.6072625840006,None,,,,,,,,,,,,,,,,,,,,,,,,,,,,,,,,,,,,,,,,,,,,001,84,2020_Feb_06_1125,spring_faces,3.1.5,59.918454219609366,
condition files/Stage1_1.xlsx,,B3,T3,c,"['c', 'm']","['Clue', 'Monopoly']","[-0.15, 0.5]","[0.15, 0.5]",1,1,,,,,,,,,0,6,6,6,0,6,6,4,,,,,,,,,,,,,,,,,,,,,,,,,,,,,,,,,,,,,,,,,,,,,,,,,,,,,,,645.5725892650007,None,645.5725892650007,None,645.5725892650007,None,c,1,1.6456406939996668,647.1225844109995,None,647.1225844109995,None,647.1225844109995,None,648.8227933670005,None,648.8227933670005,None,648.8227933670005,None,648.8227933670005,None,,,,,,,,,,,,,,,,,,,,,,,,,,,,,,,,,,,,,,,,,,,,001,84,2020_Feb_06_1125,spring_faces,3.1.5,59.918454219609366,
condition files/Stage1_1.xlsx,,B1,T2,c,"['c', 'm']","['Clue', 'Monopoly']","[-0.15, 0.5]","[0.15, 0.5]",1,1,,,,,,,,,0,6,6,6,0,7,7,1,,,,,,,,,,,,,,,,,,,,,,,,,,,,,,,,,,,,,,,,,,,,,,,,,,,,,,,650.7896231480008,None,650.7896231480008,None,650.7896231480008,None,c,1,0.8290008069998294,652.3232804250001,None,652.3232804250001,None,652.3232804250001,None,653.2063193819995,None,653.2063193819995,None,653.2063193819995,None,653.2063193819995,None,,,,,,,,,,,,,,,,,,,,,,,,,,,,,,,,,,,,,,,,,,,,001,84,2020_Feb_06_1125,spring_faces,3.1.5,59.918454219609366,
condition files/Stage1_2.xlsx,,T4,B4,m,"['c', 'm']","['Clue', 'Monopoly']","[-0.15, 0.5]","[0.15, 0.5]",1,1,,,,,,,,,0,7,7,7,0,0,0,7,,,,,,,,,,,,,,,,,,,,,,,,,,,,,,,,,,,,,,,,,,,,,,,,,,,,,,,655.1894592440003,None,655.1894592440003,None,655.1894592440003,None,m,1,0.8602502880003158,656.7239501929998,None,656.7239501929998,None,656.7239501929998,None,657.6421408890001,None,657.6421408890001,None,657.6421408890001,None,657.6421408890001,None,,,,,,,,,,,,,,,,,,,,,,,,,,,,,,,,,,,,,,,,,,,,001,84,2020_Feb_06_1125,spring_faces,3.1.5,59.918454219609366,
condition files/Stage1_2.xlsx,,T2,B1,c,"['c', 'm']","['Clue', 'Monopoly']","[-0.15, 0.5]","[0.15, 0.5]",1,1,,,,,,,,,0,7,7,7,0,1,1,1,,,,,,,,,,,,,,,,,,,,,,,,,,,,,,,,,,,,,,,,,,,,,,,,,,,,,,,659.6059818480007,None,659.6059818480007,None,659.6059818480007,None,c,1,0.8111455319995002,661.1411528389999,None,661.1411528389999,None,661.1411528389999,None,662.0088923780004,None,662.0088923780004,None,662.0088923780004,None,662.0088923780004,None,,,,,,,,,,,,,,,,,,,,,,,,,,,,,,,,,,,,,,,,,,,,001,84,2020_Feb_06_1125,spring_faces,3.1.5,59.918454219609366,
condition files/Stage1_2.xlsx,,T1,B2,m,"['c', 'm']","['Clue', 'Monopoly']","[-0.15, 0.5]","[0.15, 0.5]",1,1,,,,,,,,,0,7,7,7,0,2,2,2,,,,,,,,,,,,,,,,,,,,,,,,,,,,,,,,,,,,,,,,,,,,,,,,,,,,,,,663.9725928870012,None,663.9725928870012,None,663.9725928870012,None,c,0,1.628198001999408,665.5080102160009,None,665.5080102160009,None,665.5080102160009,None,667.2062354410009,None,667.2062354410009,None,667.2062354410009,None,667.2062354410009,None,,,,,,,,,,,,,,,,,,,,,,,,,,,,,,,,,,,,,,,,,,,,001,84,2020_Feb_06_1125,spring_faces,3.1.5,59.918454219609366,
condition files/Stage1_2.xlsx,,B4,T3,c,"['c', 'm']","['Clue', 'Monopoly']","[-0.15, 0.5]","[0.15, 0.5]",1,1,,,,,,,,,0,7,7,7,0,3,3,5,,,,,,,,,,,,,,,,,,,,,,,,,,,,,,,,,,,,,,,,,,,,,,,,,,,,,,,669.1559787719998,None,669.1559787719998,None,669.1559787719998,None,m,0,0.7026492389995838,670.7056096220003,None,670.7056096220003,None,670.7056096220003,None,671.4738708040004,None,671.4738708040004,None,671.4738708040004,None,671.4738708040004,None,,,,,,,,,,,,,,,,,,,,,,,,,,,,,,,,,,,,,,,,,,,,001,84,2020_Feb_06_1125,spring_faces,3.1.5,59.918454219609366,
condition files/Stage1_2.xlsx,,B2,T2,m,"['c', 'm']","['Clue', 'Monopoly']","[-0.15, 0.5]","[0.15, 0.5]",1,1,,,,,,,,,0,7,7,7,0,4,4,3,,,,,,,,,,,,,,,,,,,,,,,,,,,,,,,,,,,,,,,,,,,,,,,,,,,,,,,673.4391691260007,None,673.4391691260007,None,673.4391691260007,None,c,0,1.9394128940002702,674.9888765329997,None,674.9888765329997,None,674.9888765329997,None,677.0062804930003,None,677.0062804930003,None,677.0062804930003,None,677.0062804930003,None,,,,,,,,,,,,,,,,,,,,,,,,,,,,,,,,,,,,,,,,,,,,001,84,2020_Feb_06_1125,spring_faces,3.1.5,59.918454219609366,
condition files/Stage1_2.xlsx,,B3,T4,m,"['c', 'm']","['Clue', 'Monopoly']","[-0.15, 0.5]","[0.15, 0.5]",1,1,,,,,,,,,0,7,7,7,0,5,5,6,,,,,,,,,,,,,,,,,,,,,,,,,,,,,,,,,,,,,,,,,,,,,,,,,,,,,,,678.9556800800001,None,678.9556800800001,None,678.9556800800001,None,m,1,0.7085143959993729,680.4917580960009,None,680.4917580960009,None,680.4917580960009,None,681.2565314839994,None,681.2565314839994,None,681.2565314839994,None,681.2565314839994,None,,,,,,,,,,,,,,,,,,,,,,,,,,,,,,,,,,,,,,,,,,,,001,84,2020_Feb_06_1125,spring_faces,3.1.5,59.918454219609366,
condition files/Stage1_2.xlsx,,T3,B3,c,"['c', 'm']","['Clue', 'Monopoly']","[-0.15, 0.5]","[0.15, 0.5]",1,1,,,,,,,,,0,7,7,7,0,6,6,4,,,,,,,,,,,,,,,,,,,,,,,,,,,,,,,,,,,,,,,,,,,,,,,,,,,,,,,683.2225792259997,None,683.2225792259997,None,683.2225792259997,None,c,1,0.6357917719997204,684.7724831289997,None,684.7724831289997,None,684.7724831289997,None,685.4740240940009,None,685.4740240940009,None,685.4740240940009,None,685.4740240940009,None,,,,,,,,,,,,,,,,,,,,,,,,,,,,,,,,,,,,,,,,,,,,001,84,2020_Feb_06_1125,spring_faces,3.1.5,59.918454219609366,
condition files/Stage1_2.xlsx,,B1,T1,c,"['c', 'm']","['Clue', 'Monopoly']","[-0.15, 0.5]","[0.15, 0.5]",1,1,,,,,,,,,0,7,7,7,0,7,7,0,,,,,,,,,,,,,,,,,,,,,,,,,,,,,,,,,,,,,,,,,,,,,,,,,,,,,,,687.4392116920008,None,687.4392116920008,None,687.4392116920008,None,m,0,1.3609335029996146,688.9752565970011,None,688.9752565970011,None,688.9752565970011,None,690.3892133019999,None,690.3892133019999,None,690.3892133019999,None,690.3892133019999,None,,,,,,,,,,,,,,,,,,,,,,,,,,,,,,,,,,,,,,,,,,,,001,84,2020_Feb_06_1125,spring_faces,3.1.5,59.918454219609366,
condition files/Stage1_1.xlsx,,T4,B3,m,"['c', 'm']","['Clue', 'Monopoly']","[-0.15, 0.5]","[0.15, 0.5]",1,1,,,,,,,,,0,8,8,8,0,0,0,6,,,,,,,,,,,,,,,,,,,,,,,,,,,,,,,,,,,,,,,,,,,,,,,,,,,,,,,692.3725714699995,None,692.3725714699995,None,692.3725714699995,None,m,1,0.7020774130014615,693.9222013569997,None,693.9222013569997,None,693.9222013569997,None,694.7061290760012,None,694.7061290760012,None,694.7061290760012,None,694.7061290760012,None,,,,,,,,,,,,,,,,,,,,,,,,,,,,,,,,,,,,,,,,,,,,001,84,2020_Feb_06_1125,spring_faces,3.1.5,59.918454219609366,
condition files/Stage1_1.xlsx,,B3,T3,c,"['c', 'm']","['Clue', 'Monopoly']","[-0.15, 0.5]","[0.15, 0.5]",1,1,,,,,,,,,0,8,8,8,0,1,1,4,,,,,,,,,,,,,,,,,,,,,,,,,,,,,,,,,,,,,,,,,,,,,,,,,,,,,,,696.6561145270007,None,696.6561145270007,None,696.6561145270007,None,m,0,0.6745728389996657,698.2057464280006,None,698.2057464280006,None,698.2057464280006,None,698.9561182680009,None,698.9561182680009,None,698.9561182680009,None,698.9561182680009,None,,,,,,,,,,,,,,,,,,,,,,,,,,,,,,,,,,,,,,,,,,,,001,84,2020_Feb_06_1125,spring_faces,3.1.5,59.918454219609366,
condition files/Stage1_1.xlsx,,B2,T1,m,"['c', 'm']","['Clue', 'Monopoly']","[-0.15, 0.5]","[0.15, 0.5]",1,1,,,,,,,,,0,8,8,8,0,2,2,2,,,,,,,,,,,,,,,,,,,,,,,,,,,,,,,,,,,,,,,,,,,,,,,,,,,,,,,700.90598718,None,700.90598718,None,700.90598718,None,m,1,0.8244823800014274,702.4558383590011,None,702.4558383590011,None,702.4558383590011,None,703.3561946219997,None,703.3561946219997,None,703.3561946219997,None,703.3561946219997,None,,,,,,,,,,,,,,,,,,,,,,,,,,,,,,,,,,,,,,,,,,,,001,84,2020_Feb_06_1125,spring_faces,3.1.5,59.918454219609366,
condition files/Stage1_1.xlsx,,B1,T2,c,"['c', 'm']","['Clue', 'Monopoly']","[-0.15, 0.5]","[0.15, 0.5]",1,1,,,,,,,,,0,8,8,8,0,3,3,1,,,,,,,,,,,,,,,,,,,,,,,,,,,,,,,,,,,,,,,,,,,,,,,,,,,,,,,705.3058828530011,None,705.3058828530011,None,705.3058828530011,None,c,1,0.9988015210001322,706.8414486250003,None,706.8414486250003,None,706.8414486250003,None,707.9064395969999,None,707.9064395969999,None,707.9064395969999,None,707.9064395969999,None,,,,,,,,,,,,,,,,,,,,,,,,,,,,,,,,,,,,,,,,,,,,001,84,2020_Feb_06_1125,spring_faces,3.1.5,59.918454219609366,
condition files/Stage1_1.xlsx,,T1,B1,c,"['c', 'm']","['Clue', 'Monopoly']","[-0.15, 0.5]","[0.15, 0.5]",1,1,,,,,,,,,0,8,8,8,0,4,4,0,,,,,,,,,,,,,,,,,,,,,,,,,,,,,,,,,,,,,,,,,,,,,,,,,,,,,,,709.8721648330011,None,709.8721648330011,None,709.8721648330011,None,m,0,1.1216079590012669,711.4226918189997,None,711.4226918189997,None,711.4226918189997,None,712.6059643520002,None,712.6059643520002,None,712.6059643520002,None,712.6059643520002,None,,,,,,,,,,,,,,,,,,,,,,,,,,,,,,,,,,,,,,,,,,,,001,84,2020_Feb_06_1125,spring_faces,3.1.5,59.918454219609366,
condition files/Stage1_1.xlsx,,B4,T4,m,"['c', 'm']","['Clue', 'Monopoly']","[-0.15, 0.5]","[0.15, 0.5]",1,1,,,,,,,,,0,8,8,8,0,5,5,7,,,,,,,,,,,,,,,,,,,,,,,,,,,,,,,,,,,,,,,,,,,,,,,,,,,,,,,714.5730595780005,None,714.5730595780005,None,714.5730595780005,None,m,1,0.5174991320000117,716.1227178540012,None,716.1227178540012,None,716.1227178540012,None,716.7226108510004,None,716.7226108510004,None,716.7226108510004,None,716.7226108510004,None,,,,,,,,,,,,,,,,,,,,,,,,,,,,,,,,,,,,,,,,,,,,001,84,2020_Feb_06_1125,spring_faces,3.1.5,59.918454219609366,
condition files/Stage1_1.xlsx,,T2,B2,m,"['c', 'm']","['Clue', 'Monopoly']","[-0.15, 0.5]","[0.15, 0.5]",1,1,,,,,,,,,0,8,8,8,0,6,6,3,,,,,,,,,,,,,,,,,,,,,,,,,,,,,,,,,,,,,,,,,,,,,,,,,,,,,,,718.6719433560011,None,718.6719433560011,None,718.6719433560011,None,m,1,2.3217731050008297,720.2225141830004,None,720.2225141830004,None,720.2225141830004,None,722.6056937510002,None,722.6056937510002,None,722.6056937510002,None,722.6056937510002,None,,,,,,,,,,,,,,,,,,,,,,,,,,,,,,,,,,,,,,,,,,,,001,84,2020_Feb_06_1125,spring_faces,3.1.5,59.918454219609366,
condition files/Stage1_1.xlsx,,T3,B4,c,"['c', 'm']","['Clue', 'Monopoly']","[-0.15, 0.5]","[0.15, 0.5]",1,1,,,,,,,,,0,8,8,8,0,7,7,5,,,,,,,,,,,,,,,,,,,,,,,,,,,,,,,,,,,,,,,,,,,,,,,,,,,,,,,724.572173089,None,724.572173089,None,724.572173089,None,c,1,0.8206598669985397,726.107647199,None,726.107647199,None,726.107647199,None,726.9905230349996,None,726.9905230349996,None,726.9905230349996,None,726.9905230349996,None,,,,,,,,,,,,,,,,,,,,,,,,,,,,,,,,,,,,,,,,,,,,001,84,2020_Feb_06_1125,spring_faces,3.1.5,59.918454219609366,
condition files/Stage1_2.xlsx,,B1,T1,c,"['c', 'm']","['Clue', 'Monopoly']","[-0.15, 0.5]","[0.15, 0.5]",1,1,,,,,,,,,0,9,9,9,0,0,0,0,,,,,,,,,,,,,,,,,,,,,,,,,,,,,,,,,,,,,,,,,,,,,,,,,,,,,,,728.9729742710006,None,728.9729742710006,None,728.9729742710006,None,m,0,0.9656626920004783,730.5226410489995,None,730.5226410489995,None,730.5226410489995,None,731.539120802001,None,731.539120802001,None,731.539120802001,None,731.539120802001,None,,,,,,,,,,,,,,,,,,,,,,,,,,,,,,,,,,,,,,,,,,,,001,84,2020_Feb_06_1125,spring_faces,3.1.5,59.918454219609366,
condition files/Stage1_2.xlsx,,B4,T3,c,"['c', 'm']","['Clue', 'Monopoly']","[-0.15, 0.5]","[0.15, 0.5]",1,1,,,,,,,,,0,9,9,9,0,1,1,5,,,,,,,,,,,,,,,,,,,,,,,,,,,,,,,,,,,,,,,,,,,,,,,,,,,,,,,733.5059436579995,None,733.5059436579995,None,733.5059436579995,None,m,0,0.7189952530006849,735.0413134940009,None,735.0413134940009,None,735.0413134940009,None,735.8229664900009,None,735.8229664900009,None,735.8229664900009,None,735.8229664900009,None,,,,,,,,,,,,,,,,,,,,,,,,,,,,,,,,,,,,,,,,,,,,001,84,2020_Feb_06_1125,spring_faces,3.1.5,59.918454219609366,
condition files/Stage1_2.xlsx,,T2,B1,c,"['c', 'm']","['Clue', 'Monopoly']","[-0.15, 0.5]","[0.15, 0.5]",1,1,,,,,,,,,0,9,9,9,0,2,2,1,,,,,,,,,,,,,,,,,,,,,,,,,,,,,,,,,,,,,,,,,,,,,,,,,,,,,,,737.7894382909999,None,737.7894382909999,None,737.7894382909999,None,c,1,1.6361557839991292,739.3241614279996,None,739.3241614279996,None,739.3241614279996,None,741.0223646400009,None,741.0223646400009,None,741.0223646400009,None,741.0223646400009,None,,,,,,,,,,,,,,,,,,,,,,,,,,,,,,,,,,,,,,,,,,,,001,84,2020_Feb_06_1125,spring_faces,3.1.5,59.918454219609366,
condition files/Stage1_2.xlsx,,T1,B2,m,"['c', 'm']","['Clue', 'Monopoly']","[-0.15, 0.5]","[0.15, 0.5]",1,1,,,,,,,,,0,9,9,9,0,3,3,2,,,,,,,,,,,,,,,,,,,,,,,,,,,,,,,,,,,,,,,,,,,,,,,,,,,,,,,742.9892171690008,None,742.9892171690008,None,742.9892171690008,None,m,1,1.109561835999557,744.5227017420002,None,744.5227017420002,None,744.5227017420002,None,745.7061729369998,None,745.7061729369998,None,745.7061729369998,None,745.7061729369998,None,,,,,,,,,,,,,,,,,,,,,,,,,,,,,,,,,,,,,,,,,,,,001,84,2020_Feb_06_1125,spring_faces,3.1.5,59.918454219609366,
condition files/Stage1_2.xlsx,,T3,B3,c,"['c', 'm']","['Clue', 'Monopoly']","[-0.15, 0.5]","[0.15, 0.5]",1,1,,,,,,,,,0,9,9,9,0,4,4,4,,,,,,,,,,,,,,,,,,,,,,,,,,,,,,,,,,,,,,,,,,,,,,,,,,,,,,,747.6562740940008,None,747.6562740940008,None,747.6562740940008,None,c,1,0.6990870939989691,749.189219336,None,749.189219336,None,749.189219336,None,749.9395336090001,None,749.9395336090001,None,749.9395336090001,None,749.9395336090001,None,,,,,,,,,,,,,,,,,,,,,,,,,,,,,,,,,,,,,,,,,,,,001,84,2020_Feb_06_1125,spring_faces,3.1.5,59.918454219609366,
condition files/Stage1_2.xlsx,,B2,T2,m,"['c', 'm']","['Clue', 'Monopoly']","[-0.15, 0.5]","[0.15, 0.5]",1,1,,,,,,,,,0,9,9,9,0,5,5,3,,,,,,,,,,,,,,,,,,,,,,,,,,,,,,,,,,,,,,,,,,,,,,,,,,,,,,,751.905477788001,None,751.905477788001,None,751.905477788001,None,m,1,1.1528607879990886,753.4394189129998,None,753.4394189129998,None,753.4394189129998,None,754.657538685,None,754.657538685,None,754.657538685,None,754.657538685,None,,,,,,,,,,,,,,,,,,,,,,,,,,,,,,,,,,,,,,,,,,,,001,84,2020_Feb_06_1125,spring_faces,3.1.5,59.918454219609366,
condition files/Stage1_2.xlsx,,T4,B4,m,"['c', 'm']","['Clue', 'Monopoly']","[-0.15, 0.5]","[0.15, 0.5]",1,1,,,,,,,,,0,9,9,9,0,6,6,7,,,,,,,,,,,,,,,,,,,,,,,,,,,,,,,,,,,,,,,,,,,,,,,,,,,,,,,756.6224656610011,None,756.6224656610011,None,756.6224656610011,None,m,1,0.6110633270000108,758.1571766750003,None,758.1571766750003,None,758.1571766750003,None,758.8224724510001,None,758.8224724510001,None,758.8224724510001,None,758.8224724510001,None,,,,,,,,,,,,,,,,,,,,,,,,,,,,,,,,,,,,,,,,,,,,001,84,2020_Feb_06_1125,spring_faces,3.1.5,59.918454219609366,
condition files/Stage1_2.xlsx,,B3,T4,m,"['c', 'm']","['Clue', 'Monopoly']","[-0.15, 0.5]","[0.15, 0.5]",1,1,,,,,,,,,0,9,9,9,0,7,7,6,,,,,,,,,,,,,,,,,,,,,,,,,,,,,,,,,,,,,,,,,,,,,,,,,,,,,,,760.7892800570007,None,760.7892800570007,None,760.7892800570007,None,m,1,1.0845857849999447,762.3396487270002,None,762.3396487270002,None,762.3396487270002,None,763.4893798810008,None,763.4893798810008,None,763.4893798810008,None,763.4893798810008,None,,,,,,,,,,,,,,,,,,,,,,,,,,,,,,,,,,,,,,,,,,,,001,84,2020_Feb_06_1125,spring_faces,3.1.5,59.918454219609366,
condition files/Stage1_1.xlsx,,B2,T1,m,"['c', 'm']","['Clue', 'Monopoly']","[-0.15, 0.5]","[0.15, 0.5]",1,1,,,,,,,,,0,10,10,10,0,0,0,2,,,,,,,,,,,,,,,,,,,,,,,,,,,,,,,,,,,,,,,,,,,,,,,,,,,,,,,765.472506125001,None,765.472506125001,None,765.472506125001,None,m,1,0.8964613129992358,767.0078341580011,None,767.0078341580011,None,767.0078341580011,None,767.9556543849994,None,767.9556543849994,None,767.9556543849994,None,767.9556543849994,None,,,,,,,,,,,,,,,,,,,,,,,,,,,,,,,,,,,,,,,,,,,,001,84,2020_Feb_06_1125,spring_faces,3.1.5,59.918454219609366,
condition files/Stage1_1.xlsx,,T4,B3,m,"['c', 'm']","['Clue', 'Monopoly']","[-0.15, 0.5]","[0.15, 0.5]",1,1,,,,,,,,,0,10,10,10,0,1,1,6,,,,,,,,,,,,,,,,,,,,,,,,,,,,,,,,,,,,,,,,,,,,,,,,,,,,,,,769.9228010629995,None,769.9228010629995,None,769.9228010629995,None,m,1,0.7339840029999323,771.4583278669998,None,771.4583278669998,None,771.4583278669998,None,772.256064307001,None,772.256064307001,None,772.256064307001,None,772.256064307001,None,,,,,,,,,,,,,,,,,,,,,,,,,,,,,,,,,,,,,,,,,,,,001,84,2020_Feb_06_1125,spring_faces,3.1.5,59.918454219609366,
condition files/Stage1_1.xlsx,,T2,B2,m,"['c', 'm']","['Clue', 'Monopoly']","[-0.15, 0.5]","[0.15, 0.5]",1,1,,,,,,,,,0,10,10,10,0,2,2,3,,,,,,,,,,,,,,,,,,,,,,,,,,,,,,,,,,,,,,,,,,,,,,,,,,,,,,,774.2231375470001,None,774.2231375470001,None,774.2231375470001,None,m,1,1.1072562730005302,775.7730672020007,None,775.7730672020007,None,775.7730672020007,None,776.9393784650001,None,776.9393784650001,None,776.9393784650001,None,776.9393784650001,None,,,,,,,,,,,,,,,,,,,,,,,,,,,,,,,,,,,,,,,,,,,,001,84,2020_Feb_06_1125,spring_faces,3.1.5,59.918454219609366,
condition files/Stage1_1.xlsx,,B1,T2,c,"['c', 'm']","['Clue', 'Monopoly']","[-0.15, 0.5]","[0.15, 0.5]",1,1,,,,,,,,,0,10,10,10,0,3,3,1,,,,,,,,,,,,,,,,,,,,,,,,,,,,,,,,,,,,,,,,,,,,,,,,,,,,,,,778.9056357419995,None,778.9056357419995,None,778.9056357419995,None,c,1,0.7281170660007774,780.4561635280006,None,780.4561635280006,None,780.4561635280006,None,781.2561006390006,None,781.2561006390006,None,781.2561006390006,None,781.2561006390006,None,,,,,,,,,,,,,,,,,,,,,,,,,,,,,,,,,,,,,,,,,,,,001,84,2020_Feb_06_1125,spring_faces,3.1.5,59.918454219609366,
condition files/Stage1_1.xlsx,,B3,T3,c,"['c', 'm']","['Clue', 'Monopoly']","[-0.15, 0.5]","[0.15, 0.5]",1,1,,,,,,,,,0,10,10,10,0,4,4,4,,,,,,,,,,,,,,,,,,,,,,,,,,,,,,,,,,,,,,,,,,,,,,,,,,,,,,,783.2055456420003,None,783.2055456420003,None,783.2055456420003,None,c,1,0.9400315599996247,784.7403044420007,None,784.7403044420007,None,784.7403044420007,None,785.7391335360007,None,785.7391335360007,None,785.7391335360007,None,785.7391335360007,None,,,,,,,,,,,,,,,,,,,,,,,,,,,,,,,,,,,,,,,,,,,,001,84,2020_Feb_06_1125,spring_faces,3.1.5,59.918454219609366,
condition files/Stage1_1.xlsx,,T3,B4,c,"['c', 'm']","['Clue', 'Monopoly']","[-0.15, 0.5]","[0.15, 0.5]",1,1,,,,,,,,,0,10,10,10,0,5,5,5,,,,,,,,,,,,,,,,,,,,,,,,,,,,,,,,,,,,,,,,,,,,,,,,,,,,,,,787.7053776789999,None,787.7053776789999,None,787.7053776789999,None,c,1,0.5839754610005912,789.2562429509999,None,789.2562429509999,None,789.2562429509999,None,789.9055382229999,None,789.9055382229999,None,789.9055382229999,None,789.9055382229999,None,,,,,,,,,,,,,,,,,,,,,,,,,,,,,,,,,,,,,,,,,,,,001,84,2020_Feb_06_1125,spring_faces,3.1.5,59.918454219609366,
condition files/Stage1_1.xlsx,,T1,B1,c,"['c', 'm']","['Clue', 'Monopoly']","[-0.15, 0.5]","[0.15, 0.5]",1,1,,,,,,,,,0,10,10,10,0,6,6,0,,,,,,,,,,,,,,,,,,,,,,,,,,,,,,,,,,,,,,,,,,,,,,,,,,,,,,,791.8728139039995,None,791.8728139039995,None,791.8728139039995,None,c,1,1.489387337998778,793.4229261410001,None,793.4229261410001,None,793.4229261410001,None,794.9725468300003,None,794.9725468300003,None,794.9725468300003,None,794.9725468300003,None,,,,,,,,,,,,,,,,,,,,,,,,,,,,,,,,,,,,,,,,,,,,001,84,2020_Feb_06_1125,spring_faces,3.1.5,59.918454219609366,
condition files/Stage1_1.xlsx,,B4,T4,m,"['c', 'm']","['Clue', 'Monopoly']","[-0.15, 0.5]","[0.15, 0.5]",1,1,,,,,,,,,0,10,10,10,0,7,7,7,,,,,,,,,,,,,,,,,,,,,,,,,,,,,,,,,,,,,,,,,,,,,,,,,,,,,,,796.9394372850002,None,796.9394372850002,None,796.9394372850002,None,m,1,1.2390339479989052,798.4733010159998,None,798.4733010159998,None,798.4733010159998,None,799.775262004001,None,799.775262004001,None,799.775262004001,None,799.775262004001,None,,,,,,,,,,,,,,,,,,,,,,,,,,,,,,,,,,,,,,,,,,,,001,84,2020_Feb_06_1125,spring_faces,3.1.5,59.918454219609366,
condition files/Stage1_2.xlsx,,T4,B4,m,"['c', 'm']","['Clue', 'Monopoly']","[-0.15, 0.5]","[0.15, 0.5]",1,1,,,,,,,,,0,11,11,11,0,0,0,7,,,,,,,,,,,,,,,,,,,,,,,,,,,,,,,,,,,,,,,,,,,,,,,,,,,,,,,801.7563204159997,None,801.7563204159997,None,801.7563204159997,None,m,1,1.9565288449994114,803.2918121330003,None,803.2918121330003,None,803.2918121330003,None,805.3054726640003,None,805.3054726640003,None,805.3054726640003,None,805.3054726640003,None,,,,,,,,,,,,,,,,,,,,,,,,,,,,,,,,,,,,,,,,,,,,001,84,2020_Feb_06_1125,spring_faces,3.1.5,59.918454219609366,
condition files/Stage1_2.xlsx,,B4,T3,c,"['c', 'm']","['Clue', 'Monopoly']","[-0.15, 0.5]","[0.15, 0.5]",1,1,,,,,,,,,0,11,11,11,0,1,1,5,,,,,,,,,,,,,,,,,,,,,,,,,,,,,,,,,,,,,,,,,,,,,,,,,,,,,,,807.272674023001,None,807.272674023001,None,807.272674023001,None,c,1,0.5865386329987814,808.805764050001,None,808.805764050001,None,808.805764050001,None,809.4561597739994,None,809.4561597739994,None,809.4561597739994,None,809.4561597739994,None,,,,,,,,,,,,,,,,,,,,,,,,,,,,,,,,,,,,,,,,,,,,001,84,2020_Feb_06_1125,spring_faces,3.1.5,59.918454219609366,
condition files/Stage1_2.xlsx,,B2,T2,m,"['c', 'm']","['Clue', 'Monopoly']","[-0.15, 0.5]","[0.15, 0.5]",1,1,,,,,,,,,0,11,11,11,0,2,2,3,,,,,,,,,,,,,,,,,,,,,,,,,,,,,,,,,,,,,,,,,,,,,,,,,,,,,,,811.4222078309995,None,811.4222078309995,None,811.4222078309995,None,c,0,0.75440560899915,812.9578999980004,None,812.9578999980004,None,812.9578999980004,None,813.7894817520009,None,813.7894817520009,None,813.7894817520009,None,813.7894817520009,None,,,,,,,,,,,,,,,,,,,,,,,,,,,,,,,,,,,,,,,,,,,,001,84,2020_Feb_06_1125,spring_faces,3.1.5,59.918454219609366,
condition files/Stage1_2.xlsx,,T3,B3,c,"['c', 'm']","['Clue', 'Monopoly']","[-0.15, 0.5]","[0.15, 0.5]",1,1,,,,,,,,,0,11,11,11,0,3,3,4,,,,,,,,,,,,,,,,,,,,,,,,,,,,,,,,,,,,,,,,,,,,,,,,,,,,,,,815.7392004800004,None,815.7392004800004,None,815.7392004800004,None,c,1,0.7264069640004891,817.2738450140005,None,817.2738450140005,None,817.2738450140005,None,818.0729884289995,None,818.0729884289995,None,818.0729884289995,None,818.0729884289995,None,,,,,,,,,,,,,,,,,,,,,,,,,,,,,,,,,,,,,,,,,,,,001,84,2020_Feb_06_1125,spring_faces,3.1.5,59.918454219609366,
condition files/Stage1_2.xlsx,,T1,B2,m,"['c', 'm']","['Clue', 'Monopoly']","[-0.15, 0.5]","[0.15, 0.5]",1,1,,,,,,,,,0,11,11,11,0,4,4,2,,,,,,,,,,,,,,,,,,,,,,,,,,,,,,,,,,,,,,,,,,,,,,,,,,,,,,,820.0220747950007,None,820.0220747950007,None,820.0220747950007,None,m,1,1.85170363799989,821.5565759870005,None,821.5565759870005,None,821.5565759870005,None,823.4892956250005,None,823.4892956250005,None,823.4892956250005,None,823.4892956250005,None,,,,,,,,,,,,,,,,,,,,,,,,,,,,,,,,,,,,,,,,,,,,001,84,2020_Feb_06_1125,spring_faces,3.1.5,59.918454219609366,
condition files/Stage1_2.xlsx,,T2,B1,c,"['c', 'm']","['Clue', 'Monopoly']","[-0.15, 0.5]","[0.15, 0.5]",1,1,,,,,,,,,0,11,11,11,0,5,5,1,,,,,,,,,,,,,,,,,,,,,,,,,,,,,,,,,,,,,,,,,,,,,,,,,,,,,,,825.4394613879995,None,825.4394613879995,None,825.4394613879995,None,c,1,1.2512689220002358,826.9889649800007,None,826.9889649800007,None,826.9889649800007,None,828.3055712660007,None,828.3055712660007,None,828.3055712660007,None,828.3055712660007,None,,,,,,,,,,,,,,,,,,,,,,,,,,,,,,,,,,,,,,,,,,,,001,84,2020_Feb_06_1125,spring_faces,3.1.5,59.918454219609366,
condition files/Stage1_2.xlsx,,B3,T4,m,"['c', 'm']","['Clue', 'Monopoly']","[-0.15, 0.5]","[0.15, 0.5]",1,1,,,,,,,,,0,11,11,11,0,6,6,6,,,,,,,,,,,,,,,,,,,,,,,,,,,,,,,,,,,,,,,,,,,,,,,,,,,,,,,830.2723941229997,None,830.2723941229997,None,830.2723941229997,None,m,1,0.6096746319999511,831.8225476589996,None,831.8225476589996,None,831.8225476589996,None,832.5054565560004,None,832.5054565560004,None,832.5054565560004,None,832.5054565560004,None,,,,,,,,,,,,,,,,,,,,,,,,,,,,,,,,,,,,,,,,,,,,001,84,2020_Feb_06_1125,spring_faces,3.1.5,59.918454219609366,
condition files/Stage1_2.xlsx,,B1,T1,c,"['c', 'm']","['Clue', 'Monopoly']","[-0.15, 0.5]","[0.15, 0.5]",1,1,,,,,,,,,0,11,11,11,0,7,7,0,,,,,,,,,,,,,,,,,,,,,,,,,,,,,,,,,,,,,,,,,,,,,,,,,,,,,,,834.4556796440011,None,834.4556796440011,None,834.4556796440011,None,c,1,1.2419989900008659,836.0063092750006,None,836.0063092750006,None,836.0063092750006,None,837.3057222179996,None,837.3057222179996,None,837.3057222179996,None,837.3057222179996,None,,,,,,,,,,,,,,,,,,,,,,,,,,,,,,,,,,,,,,,,,,,,001,84,2020_Feb_06_1125,spring_faces,3.1.5,59.918454219609366,
,,,,,,,,,,,,,,,,,,,,,,,,,,,,,,,,,,,,,,,,,,,,,,,,,,,,,,,,,,,,,,,,,,,,,,,,,,,,,,,,,,,,,,,,,,,,,,,,,,,,,,,,,,,,,,,,839.2891660719997,None,space,6.942945784998301,844.2892856100007,None,,,,,,,,,,,,,,,,,,,,,,,,,,,,,,001,84,2020_Feb_06_1125,spring_faces,3.1.5,59.918454219609366,
condition files/Stage2_1.xlsx,,B4,T4,r,"['s', 'r']","['Stratego', 'Risk']","[-0.15, 0.5]","[0.15, 0.5]",1,1,,,,,,,,,,,,,,,,,0,0,0,0,0,0,0,5,,,,,,,,,,,,,,,,,,,,,,,,,,,,,,,,,,,,,,,,,,,,,,,851.2893491989998,None,851.2893491989998,None,851.2893491989998,None,r,1,1.0174322979983117,852.7908414770009,None,852.7908414770009,None,852.7908414770009,None,853.8896522160012,None,853.8896522160012,None,853.8896522160012,None,853.8896522160012,None,,,,,,,,,,,,,,,844.2892856100007,None,,,,,,,,,,,,,,,,,,,,,,,,,,,,001,84,2020_Feb_06_1125,spring_faces,3.1.5,59.918454219609366,
condition files/Stage2_1.xlsx,,B2,T2,r,"['s', 'r']","['Stratego', 'Risk']","[-0.15, 0.5]","[0.15, 0.5]",1,1,,,,,,,,,,,,,,,,,0,0,0,0,0,1,1,3,,,,,,,,,,,,,,,,,,,,,,,,,,,,,,,,,,,,,,,,,,,,,,,855.8392278940009,None,855.8392278940009,None,855.8392278940009,None,s,0,0.6746551090000139,857.3896618630006,None,857.3896618630006,None,857.3896618630006,None,858.1226397579994,None,858.1226397579994,None,858.1226397579994,None,858.1226397579994,None,,,,,,,,,,,,,,,,,,,,,,,,,,,,,,,,,,,,,,,,,,,,001,84,2020_Feb_06_1125,spring_faces,3.1.5,59.918454219609366,
condition files/Stage2_1.xlsx,,B6,T6,r,"['s', 'r']","['Stratego', 'Risk']","[-0.15, 0.5]","[0.15, 0.5]",1,1,,,,,,,,,,,,,,,,,0,0,0,0,0,2,2,1,,,,,,,,,,,,,,,,,,,,,,,,,,,,,,,,,,,,,,,,,,,,,,,860.0887307940011,None,860.0887307940011,None,860.0887307940011,None,s,0,0.5027109130005556,861.6895575540002,None,861.6895575540002,None,861.6895575540002,None,862.2554491720002,None,862.2554491720002,None,862.2554491720002,None,862.2554491720002,None,,,,,,,,,,,,,,,,,,,,,,,,,,,,,,,,,,,,,,,,,,,,001,84,2020_Feb_06_1125,spring_faces,3.1.5,59.918454219609366,
condition files/Stage2_1.xlsx,,T5,B5,s,"['s', 'r']","['Stratego', 'Risk']","[-0.15, 0.5]","[0.15, 0.5]",1,1,,,,,,,,,,,,,,,,,0,0,0,0,0,3,3,0,,,,,,,,,,,,,,,,,,,,,,,,,,,,,,,,,,,,,,,,,,,,,,,864.2224999650007,None,864.2224999650007,None,864.2224999650007,None,s,1,0.9309678290010197,865.7573432379995,None,865.7573432379995,None,865.7573432379995,None,866.7418488570002,None,866.7418488570002,None,866.7418488570002,None,866.7418488570002,None,,,,,,,,,,,,,,,,,,,,,,,,,,,,,,,,,,,,,,,,,,,,001,84,2020_Feb_06_1125,spring_faces,3.1.5,59.918454219609366,
condition files/Stage2_1.xlsx,,T3,B3,s,"['s', 'r']","['Stratego', 'Risk']","[-0.15, 0.5]","[0.15, 0.5]",1,1,,,,,,,,,,,,,,,,,0,0,0,0,0,4,4,4,,,,,,,,,,,,,,,,,,,,,,,,,,,,,,,,,,,,,,,,,,,,,,,868.7052988150008,None,868.7052988150008,None,868.7052988150008,None,s,1,0.8463829770007578,870.241906483001,None,870.241906483001,None,870.241906483001,None,871.1390919820005,None,871.1390919820005,None,871.1390919820005,None,871.1390919820005,None,,,,,,,,,,,,,,,,,,,,,,,,,,,,,,,,,,,,,,,,,,,,001,84,2020_Feb_06_1125,spring_faces,3.1.5,59.918454219609366,
condition files/Stage2_1.xlsx,,T1,B1,s,"['s', 'r']","['Stratego', 'Risk']","[-0.15, 0.5]","[0.15, 0.5]",1,1,,,,,,,,,,,,,,,,,0,0,0,0,0,5,5,2,,,,,,,,,,,,,,,,,,,,,,,,,,,,,,,,,,,,,,,,,,,,,,,873.1058428449996,None,873.1058428449996,None,873.1058428449996,None,r,0,0.17739595400053076,874.6389249920012,None,874.6389249920012,None,874.6389249920012,None,874.872285282001,None,874.872285282001,None,874.872285282001,None,874.872285282001,None,,,,,,,,,,,,,,,,,,,,,,,,,,,,,,,,,,,,,,,,,,,,001,84,2020_Feb_06_1125,spring_faces,3.1.5,59.918454219609366,
condition files/Stage2_2.xlsx,,B3,T3,s,"['s', 'r']","['Stratego', 'Risk']","[-0.15, 0.5]","[0.15, 0.5]",1,1,,,,,,,,,,,,,,,,,0,1,1,1,0,0,0,4,,,,,,,,,,,,,,,,,,,,,,,,,,,,,,,,,,,,,,,,,,,,,,,876.8564116890011,None,876.8564116890011,None,876.8564116890011,None,s,1,0.2512092489996576,878.3890430320007,None,878.3890430320007,None,878.3890430320007,None,878.705925481001,None,878.705925481001,None,878.705925481001,None,878.705925481001,None,,,,,,,,,,,,,,,,,,,,,,,,,,,,,,,,,,,,,,,,,,,,001,84,2020_Feb_06_1125,spring_faces,3.1.5,59.918454219609366,
condition files/Stage2_2.xlsx,,T2,B2,r,"['s', 'r']","['Stratego', 'Risk']","[-0.15, 0.5]","[0.15, 0.5]",1,1,,,,,,,,,,,,,,,,,0,1,1,1,0,1,1,3,,,,,,,,,,,,,,,,,,,,,,,,,,,,,,,,,,,,,,,,,,,,,,,880.6721826379999,None,880.6721826379999,None,880.6721826379999,None,s,0,0.09765700199932326,882.2226029779995,None,882.2226029779995,None,882.2226029779995,None,882.3896658539998,None,882.3896658539998,None,882.3896658539998,None,882.3896658539998,None,,,,,,,,,,,,,,,,,,,,,,,,,,,,,,,,,,,,,,,,,,,,001,84,2020_Feb_06_1125,spring_faces,3.1.5,59.918454219609366,
condition files/Stage2_2.xlsx,,B5,T5,s,"['s', 'r']","['Stratego', 'Risk']","[-0.15, 0.5]","[0.15, 0.5]",1,1,,,,,,,,,,,,,,,,,0,1,1,1,0,2,2,0,,,,,,,,,,,,,,,,,,,,,,,,,,,,,,,,,,,,,,,,,,,,,,,884.33922652,None,884.33922652,None,884.33922652,None,r,0,0.20673782099947857,885.8895758119997,None,885.8895758119997,None,885.8895758119997,None,886.1727900160004,None,886.1727900160004,None,886.1727900160004,None,886.1727900160004,None,,,,,,,,,,,,,,,,,,,,,,,,,,,,,,,,,,,,,,,,,,,,001,84,2020_Feb_06_1125,spring_faces,3.1.5,59.918454219609366,
condition files/Stage2_2.xlsx,,T4,B4,r,"['s', 'r']","['Stratego', 'Risk']","[-0.15, 0.5]","[0.15, 0.5]",1,1,,,,,,,,,,,,,,,,,0,1,1,1,0,3,3,5,,,,,,,,,,,,,,,,,,,,,,,,,,,,,,,,,,,,,,,,,,,,,,,888.1226012259995,None,888.1226012259995,None,888.1226012259995,None,s,0,0.3118084319994523,889.672443540001,None,889.672443540001,None,889.672443540001,None,890.0419841740004,None,890.0419841740004,None,890.0419841740004,None,890.0419841740004,None,,,,,,,,,,,,,,,,,,,,,,,,,,,,,,,,,,,,,,,,,,,,001,84,2020_Feb_06_1125,spring_faces,3.1.5,59.918454219609366,
condition files/Stage2_2.xlsx,,B1,T1,s,"['s', 'r']","['Stratego', 'Risk']","[-0.15, 0.5]","[0.15, 0.5]",1,1,,,,,,,,,,,,,,,,,0,1,1,1,0,4,4,2,,,,,,,,,,,,,,,,,,,,,,,,,,,,,,,,,,,,,,,,,,,,,,,892.0055151249999,None,892.0055151249999,None,892.0055151249999,None,s,1,0.49239527999998245,893.5559429420009,None,893.5559429420009,None,893.5559429420009,None,894.1228507760006,None,894.1228507760006,None,894.1228507760006,None,894.1228507760006,None,,,,,,,,,,,,,,,,,,,,,,,,,,,,,,,,,,,,,,,,,,,,001,84,2020_Feb_06_1125,spring_faces,3.1.5,59.918454219609366,
condition files/Stage2_2.xlsx,,T6,B6,r,"['s', 'r']","['Stratego', 'Risk']","[-0.15, 0.5]","[0.15, 0.5]",1,1,,,,,,,,,,,,,,,,,0,1,1,1,0,5,5,1,,,,,,,,,,,,,,,,,,,,,,,,,,,,,,,,,,,,,,,,,,,,,,,896.0721872089998,None,896.0721872089998,None,896.0721872089998,None,s,0,0.2184610589993099,897.6057743420006,None,897.6057743420006,None,897.6057743420006,None,897.8895286780007,None,897.8895286780007,None,897.8895286780007,None,897.8895286780007,None,,,,,,,,,,,,,,,,,,,,,,,,,,,,,,,,,,,,,,,,,,,,001,84,2020_Feb_06_1125,spring_faces,3.1.5,59.918454219609366,
condition files/Stage2_1.xlsx,,B2,T2,r,"['s', 'r']","['Stratego', 'Risk']","[-0.15, 0.5]","[0.15, 0.5]",1,1,,,,,,,,,,,,,,,,,0,2,2,2,0,0,0,3,,,,,,,,,,,,,,,,,,,,,,,,,,,,,,,,,,,,,,,,,,,,,,,899.8728408890001,None,899.8728408890001,None,899.8728408890001,None,r,1,0.03199434099951759,901.4082654320009,None,901.4082654320009,None,901.4082654320009,None,901.5228273369994,None,901.5228273369994,None,901.5228273369994,None,901.5228273369994,None,,,,,,,,,,,,,,,,,,,,,,,,,,,,,,,,,,,,,,,,,,,,001,84,2020_Feb_06_1125,spring_faces,3.1.5,59.918454219609366,
condition files/Stage2_1.xlsx,,B6,T6,r,"['s', 'r']","['Stratego', 'Risk']","[-0.15, 0.5]","[0.15, 0.5]",1,1,,,,,,,,,,,,,,,,,0,2,2,2,0,1,1,1,,,,,,,,,,,,,,,,,,,,,,,,,,,,,,,,,,,,,,,,,,,,,,,903.4724686949994,None,903.4724686949994,None,903.4724686949994,None,s,0,0.5464372350015765,905.0058420300011,None,905.0058420300011,None,905.0058420300011,None,905.6059329769996,None,905.6059329769996,None,905.6059329769996,None,905.6059329769996,None,,,,,,,,,,,,,,,,,,,,,,,,,,,,,,,,,,,,,,,,,,,,001,84,2020_Feb_06_1125,spring_faces,3.1.5,59.918454219609366,
condition files/Stage2_1.xlsx,,B4,T4,r,"['s', 'r']","['Stratego', 'Risk']","[-0.15, 0.5]","[0.15, 0.5]",1,1,,,,,,,,,,,,,,,,,0,2,2,2,0,2,2,5,,,,,,,,,,,,,,,,,,,,,,,,,,,,,,,,,,,,,,,,,,,,,,,907.5725960119998,None,907.5725960119998,None,907.5725960119998,None,r,1,0.3176860620005755,909.106578076,None,909.106578076,None,909.106578076,None,909.4892696370007,None,909.4892696370007,None,909.4892696370007,None,909.4892696370007,None,,,,,,,,,,,,,,,,,,,,,,,,,,,,,,,,,,,,,,,,,,,,001,84,2020_Feb_06_1125,spring_faces,3.1.5,59.918454219609366,
condition files/Stage2_1.xlsx,,T1,B1,s,"['s', 'r']","['Stratego', 'Risk']","[-0.15, 0.5]","[0.15, 0.5]",1,1,,,,,,,,,,,,,,,,,0,2,2,2,0,3,3,2,,,,,,,,,,,,,,,,,,,,,,,,,,,,,,,,,,,,,,,,,,,,,,,911.4552942999999,None,911.4552942999999,None,911.4552942999999,None,r,0,0.22676215799947386,912.98957109,None,912.98957109,None,912.98957109,None,913.289089803,None,913.289089803,None,913.289089803,None,913.289089803,None,,,,,,,,,,,,,,,,,,,,,,,,,,,,,,,,,,,,,,,,,,,,001,84,2020_Feb_06_1125,spring_faces,3.1.5,59.918454219609366,
condition files/Stage2_1.xlsx,,T5,B5,s,"['s', 'r']","['Stratego', 'Risk']","[-0.15, 0.5]","[0.15, 0.5]",1,1,,,,,,,,,,,,,,,,,0,2,2,2,0,4,4,0,,,,,,,,,,,,,,,,,,,,,,,,,,,,,,,,,,,,,,,,,,,,,,,915.2386740849997,None,915.2386740849997,None,915.2386740849997,None,r,0,0.28352649599946744,916.7727105089998,None,916.7727105089998,None,916.7727105089998,None,917.1228537549996,None,917.1228537549996,None,917.1228537549996,None,917.1228537549996,None,,,,,,,,,,,,,,,,,,,,,,,,,,,,,,,,,,,,,,,,,,,,001,84,2020_Feb_06_1125,spring_faces,3.1.5,59.918454219609366,
condition files/Stage2_1.xlsx,,T3,B3,s,"['s', 'r']","['Stratego', 'Risk']","[-0.15, 0.5]","[0.15, 0.5]",1,1,,,,,,,,,,,,,,,,,0,2,2,2,0,5,5,4,,,,,,,,,,,,,,,,,,,,,,,,,,,,,,,,,,,,,,,,,,,,,,,919.0892338220001,None,919.0892338220001,None,919.0892338220001,None,r,0,0.28906673199890065,920.623211645001,None,920.623211645001,None,920.623211645001,None,920.9729858539995,None,920.9729858539995,None,920.9729858539995,None,920.9729858539995,None,,,,,,,,,,,,,,,,,,,,,,,,,,,,,,,,,,,,,,,,,,,,001,84,2020_Feb_06_1125,spring_faces,3.1.5,59.918454219609366,
condition files/Stage2_2.xlsx,,B1,T1,s,"['s', 'r']","['Stratego', 'Risk']","[-0.15, 0.5]","[0.15, 0.5]",1,1,,,,,,,,,,,,,,,,,0,3,3,3,0,0,0,2,,,,,,,,,,,,,,,,,,,,,,,,,,,,,,,,,,,,,,,,,,,,,,,922.9563133760003,None,922.9563133760003,None,922.9563133760003,None,r,0,0.22969197999918833,924.4905941819998,None,924.4905941819998,None,924.4905941819998,None,924.7728003510001,None,924.7728003510001,None,924.7728003510001,None,924.7728003510001,None,,,,,,,,,,,,,,,,,,,,,,,,,,,,,,,,,,,,,,,,,,,,001,84,2020_Feb_06_1125,spring_faces,3.1.5,59.918454219609366,
condition files/Stage2_2.xlsx,,B5,T5,s,"['s', 'r']","['Stratego', 'Risk']","[-0.15, 0.5]","[0.15, 0.5]",1,1,,,,,,,,,,,,,,,,,0,3,3,3,0,1,1,0,,,,,,,,,,,,,,,,,,,,,,,,,,,,,,,,,,,,,,,,,,,,,,,926.7388487749995,None,926.7388487749995,None,926.7388487749995,None,s,1,0.7662282839992258,928.2740112360007,None,928.2740112360007,None,928.2740112360007,None,929.1060855579999,None,929.1060855579999,None,929.1060855579999,None,929.1060855579999,None,,,,,,,,,,,,,,,,,,,,,,,,,,,,,,,,,,,,,,,,,,,,001,84,2020_Feb_06_1125,spring_faces,3.1.5,59.918454219609366,
condition files/Stage2_2.xlsx,,B3,T3,s,"['s', 'r']","['Stratego', 'Risk']","[-0.15, 0.5]","[0.15, 0.5]",1,1,,,,,,,,,,,,,,,,,0,3,3,3,0,2,2,4,,,,,,,,,,,,,,,,,,,,,,,,,,,,,,,,,,,,,,,,,,,,,,,931.0720579410008,None,931.0720579410008,None,931.0720579410008,None,s,1,0.2744830589999765,932.6058605529997,None,932.6058605529997,None,932.6058605529997,None,932.9395390680002,None,932.9395390680002,None,932.9395390680002,None,932.9395390680002,None,,,,,,,,,,,,,,,,,,,,,,,,,,,,,,,,,,,,,,,,,,,,001,84,2020_Feb_06_1125,spring_faces,3.1.5,59.918454219609366,
condition files/Stage2_2.xlsx,,T4,B4,r,"['s', 'r']","['Stratego', 'Risk']","[-0.15, 0.5]","[0.15, 0.5]",1,1,,,,,,,,,,,,,,,,,0,3,3,3,0,3,3,5,,,,,,,,,,,,,,,,,,,,,,,,,,,,,,,,,,,,,,,,,,,,,,,934.9059170960008,None,934.9059170960008,None,934.9059170960008,None,r,1,0.5368471520014282,936.4394655209999,None,936.4394655209999,None,936.4394655209999,None,937.0408817959997,None,937.0408817959997,None,937.0408817959997,None,937.0408817959997,None,,,,,,,,,,,,,,,,,,,,,,,,,,,,,,,,,,,,,,,,,,,,001,84,2020_Feb_06_1125,spring_faces,3.1.5,59.918454219609366,
condition files/Stage2_2.xlsx,,T6,B6,r,"['s', 'r']","['Stratego', 'Risk']","[-0.15, 0.5]","[0.15, 0.5]",1,1,,,,,,,,,,,,,,,,,0,3,3,3,0,4,4,1,,,,,,,,,,,,,,,,,,,,,,,,,,,,,,,,,,,,,,,,,,,,,,,939.0058255610002,None,939.0058255610002,None,939.0058255610002,None,s,0,0.6770926760000293,940.5392424300007,None,940.5392424300007,None,940.5392424300007,None,941.2728368480002,None,941.2728368480002,None,941.2728368480002,None,941.2728368480002,None,,,,,,,,,,,,,,,,,,,,,,,,,,,,,,,,,,,,,,,,,,,,001,84,2020_Feb_06_1125,spring_faces,3.1.5,59.918454219609366,
condition files/Stage2_2.xlsx,,T2,B2,r,"['s', 'r']","['Stratego', 'Risk']","[-0.15, 0.5]","[0.15, 0.5]",1,1,,,,,,,,,,,,,,,,,0,3,3,3,0,5,5,3,,,,,,,,,,,,,,,,,,,,,,,,,,,,,,,,,,,,,,,,,,,,,,,943.239375823001,None,943.239375823001,None,943.239375823001,None,s,0,0.5708324459992582,944.7894600849995,None,944.7894600849995,None,944.7894600849995,None,945.4225399070001,None,945.4225399070001,None,945.4225399070001,None,945.4225399070001,None,,,,,,,,,,,,,,,,,,,,,,,,,,,,,,,,,,,,,,,,,,,,001,84,2020_Feb_06_1125,spring_faces,3.1.5,59.918454219609366,
condition files/Stage2_1.xlsx,,B2,T2,r,"['s', 'r']","['Stratego', 'Risk']","[-0.15, 0.5]","[0.15, 0.5]",1,1,,,,,,,,,,,,,,,,,0,4,4,4,0,0,0,3,,,,,,,,,,,,,,,,,,,,,,,,,,,,,,,,,,,,,,,,,,,,,,,947.405992422,None,947.405992422,None,947.405992422,None,s,0,0.7707628339994699,948.9415154809994,None,948.9415154809994,None,948.9415154809994,None,949.7723403729997,None,949.7723403729997,None,949.7723403729997,None,949.7723403729997,None,,,,,,,,,,,,,,,,,,,,,,,,,,,,,,,,,,,,,,,,,,,,001,84,2020_Feb_06_1125,spring_faces,3.1.5,59.918454219609366,
condition files/Stage2_1.xlsx,,T3,B3,s,"['s', 'r']","['Stratego', 'Risk']","[-0.15, 0.5]","[0.15, 0.5]",1,1,,,,,,,,,,,,,,,,,0,4,4,4,0,1,1,4,,,,,,,,,,,,,,,,,,,,,,,,,,,,,,,,,,,,,,,,,,,,,,,951.7391731940006,None,951.7391731940006,None,951.7391731940006,None,s,1,0.5349154209998233,953.2893231170001,None,953.2893231170001,None,953.2893231170001,None,953.891806656,None,953.891806656,None,953.891806656,None,953.891806656,None,,,,,,,,,,,,,,,,,,,,,,,,,,,,,,,,,,,,,,,,,,,,001,84,2020_Feb_06_1125,spring_faces,3.1.5,59.918454219609366,
condition files/Stage2_1.xlsx,,B6,T6,r,"['s', 'r']","['Stratego', 'Risk']","[-0.15, 0.5]","[0.15, 0.5]",1,1,,,,,,,,,,,,,,,,,0,4,4,4,0,2,2,1,,,,,,,,,,,,,,,,,,,,,,,,,,,,,,,,,,,,,,,,,,,,,,,955.8559257510005,None,955.8559257510005,None,955.8559257510005,None,r,1,0.691208304000611,957.3891357100001,None,957.3891357100001,None,957.3891357100001,None,958.1409125530008,None,958.1409125530008,None,958.1409125530008,None,958.1409125530008,None,,,,,,,,,,,,,,,,,,,,,,,,,,,,,,,,,,,,,,,,,,,,001,84,2020_Feb_06_1125,spring_faces,3.1.5,59.918454219609366,
condition files/Stage2_1.xlsx,,B4,T4,r,"['s', 'r']","['Stratego', 'Risk']","[-0.15, 0.5]","[0.15, 0.5]",1,1,,,,,,,,,,,,,,,,,0,4,4,4,0,3,3,5,,,,,,,,,,,,,,,,,,,,,,,,,,,,,,,,,,,,,,,,,,,,,,,960.1059963429998,None,960.1059963429998,None,960.1059963429998,None,s,0,0.2482700999989902,961.6400408059999,None,961.6400408059999,None,961.6400408059999,None,961.9390064290001,None,961.9390064290001,None,961.9390064290001,None,961.9390064290001,None,,,,,,,,,,,,,,,,,,,,,,,,,,,,,,,,,,,,,,,,,,,,001,84,2020_Feb_06_1125,spring_faces,3.1.5,59.918454219609366,
