condsFile,subStage,cue1,cue2,correct,responseKeys,responseNames,cue1Position,cue2Position,cue1Opacity,cue2Opacity,stageLoop0.thisRepN,stageLoop0.thisTrialN,stageLoop0.thisN,stageLoop0.thisIndex,blockLoop0.thisRepN,blockLoop0.thisTrialN,blockLoop0.thisN,blockLoop0.thisIndex,stage1Loop.thisRepN,stage1Loop.thisTrialN,stage1Loop.thisN,stage1Loop.thisIndex,blockLoop1.thisRepN,blockLoop1.thisTrialN,blockLoop1.thisN,blockLoop1.thisIndex,stage2Loop.thisRepN,stage2Loop.thisTrialN,stage2Loop.thisN,stage2Loop.thisIndex,blockLoop2.thisRepN,blockLoop2.thisTrialN,blockLoop2.thisN,blockLoop2.thisIndex,testLoop.thisRepN,testLoop.thisTrialN,testLoop.thisN,testLoop.thisIndex,blockLoopTest.thisRepN,blockLoopTest.thisTrialN,blockLoopTest.thisN,blockLoopTest.thisIndex,cuePics,id_instr_text.started,id_instr_text.stopped,space_to_continue_2.started,space_to_continue_2.stopped,end_instructions_resp_3.keys,end_instructions_resp_3.rt,end_instructions_resp_3.started,end_instructions_resp_3.stopped,id_input_instr.started,id_input_instr.stopped,id_input_rect.started,id_input_rect.stopped,id_input_resp.keys,id_input_resp.rt,id_input_resp.started,id_input_resp.stopped,sonaID,id_input_text.started,id_input_text.stopped,final_text.started,final_text.stopped,instructions.started,instructions.stopped,end_instructions_resp.keys,end_instructions_resp.rt,end_instructions_resp.started,end_instructions_resp.stopped,space_to_continue.started,space_to_continue.stopped,instructions_stage0.started,instructions_stage0.stopped,end_instructions_resp_stage0.keys,end_instructions_resp_stage0.rt,end_instructions_resp_stage0.started,end_instructions_resp_stage0.stopped,space_to_continue_stage0.started,space_to_continue_stage0.stopped,text.started,text.stopped,resp_text1.started,resp_text1.stopped,resp_text2.started,resp_text2.stopped,trial_resp.keys,trial_resp.corr,trial_resp.rt,trial_resp.started,trial_resp.stopped,cue1Image.started,cue1Image.stopped,cue2Image.started,cue2Image.stopped,cue1Image_fb.started,cue1Image_fb.stopped,cue2Image_fb.started,cue2Image_fb.stopped,fb_text_answer.started,fb_text_answer.stopped,feedback_image.started,feedback_image.stopped,instructions_stage1.started,instructions_stage1.stopped,end_instructions_resp_stage1.keys,end_instructions_resp_stage1.rt,end_instructions_resp_stage1.started,end_instructions_resp_stage1.stopped,space_to_continue_stage1.started,space_to_continue_stage1.stopped,instructions_2.started,instructions_2.stopped,end_instructions_resp_2.keys,end_instructions_resp_2.rt,end_instructions_resp_2.started,end_instructions_resp_2.stopped,press_space_to_continue_stage2.started,press_space_to_continue_stage2.stopped,instructions_testStage1.started,instructions_testStage1.stopped,end_instructions_resp_test1.keys,end_instructions_resp_test1.rt,end_instructions_resp_test1.started,end_instructions_resp_test1.stopped,press_space_to_continue_test1.started,press_space_to_continue_test1.stopped,cue1Image_testChoice.started,cue1Image_testChoice.stopped,cue2Image_testChoice.started,cue2Image_testChoice.stopped,test_resp.keys,test_resp.corr,test_resp.rt,test_resp.started,test_resp.stopped,cue1Image_testConf.started,cue1Image_testConf.stopped,cue2Image_testConf.started,cue2Image_testConf.stopped,conf_reminder.started,conf_reminder.stopped,conf_rating.response,conf_rating.rt,conf_rating.started,conf_rating.stopped,session,participant,date,expName,psychopyVersion,frameRate,
,,,,,,,,,,,,,,,,,,,,,,,,,,,,,,,,,,,,,,,,,,,"{'none': 'pictures/20M_AN_C.png', 'alpha': 'pictures/SHINEd_melon.png', 'beta': 'pictures/SHINEd_pear.png', 'theta': 'pictures/SHINEd_pepper.png', 'phi': 'pictures/SHINEd_apple.png', 'T1': 'pictures/23M_AN_C.png', 'T2': 'pictures/33M_AN_C.png', 'T3': 'pictures/34M_AN_C.png', 'T4': 'pictures/25M_AN_C.png', 'T5': 'pictures/20M_AN_C.png', 'T6': 'pictures/36M_AN_C.png', 'B1': 'pictures/37M_NE_C.png', 'B2': 'pictures/32M_NE_C.png', 'B3': 'pictures/26M_NE_C.png', 'B4': 'pictures/31M_NE_C.png', 'B5': 'pictures/38M_NE_C.png', 'B6': 'pictures/22M_NE_C.png'}",11.438066976999835,None,16.42154925199975,None,space,16.745090397998865,16.42154925199975,None,,,,,,,,,,,,,,,,,,,,,,,,,,,,,,,,,,,,,,,,,,,,,,,,,,,,,,,,,,,,,,,,,,,,,,,,,,,,,,,,,,,,,,,,,,,,,,,,001,85,2020_Feb_06_1220,spring_faces,3.1.5,60.00965519325312,
,,,,,,,,,,,,,,,,,,,,,,,,,,,,,,,,,,,,,,,,,,,,,,,,,,,,33.53857106000032,None,33.53857106000032,None,"['0', '7', '2', '4', 'b', 'r', 'o', 'backspace', 'backspace', 'backspace', 'a', 'l', 'b', 'r', 'o']","[7.0840519329995, 11.10008255199864, 14.444110644999455, 14.828094287999193, 17.21207170499838, 17.916105515998424, 18.108178559999942, 23.00411103299848, 23.292176229999313, 23.580049388998304, 25.53210292499898, 25.740120620999733, 26.38010445999862, 26.716101835998415, 27.036105089999182]",33.53857106000032,None,,,,,,,,,,,,,,,,,,,,,,,,,,,,,,,,,,,,,,,,,,,,,,,,,,,,,,,,,,,,,,,,,,,,,,,,,,,,,,,,,,,,,,,,001,85,2020_Feb_06_1220,spring_faces,3.1.5,60.00965519325312,
,,,,,,,,,,,,,,,,,,,,,,,,,,,,,,,,,,,,,,,,,,,,,,,,,,,,,,,,,,,,0724albro,33.53857106000032,None,33.53857106000032,None,65.65478402100052,None,space,5.5996294020005735,70.65504199099996,None,,,,,,,,,,,,,,,,,,,,,,,,,,,,,,,,,,,,,,,,,,,,,,,,,,,,,,,,,,,,,,,,,,,,,,,,,,,,,001,85,2020_Feb_06_1220,spring_faces,3.1.5,60.00965519325312,
,,,,,,,,,,,,,,,,,,,,,,,,,,,,,,,,,,,,,,,,,,,,,,,,,,,,,,,,,,,,,,,,,,,,,,,70.65504199099996,None,76.28848709900012,None,space,6.054394845999923,81.28831194600025,None,,,,,,,,,,,,,,,,,,,,,,,,,,,,,,,,,,,,,,,,,,,,,,,,,,,,,,,,,,,,,,,,,,,,,001,85,2020_Feb_06_1220,spring_faces,3.1.5,60.00965519325312,
condition files/Stage0a.xlsx,0a,beta,none,g,"['h', 'g']","['Chess', 'Go']","[0, 0.5]","[0, 0]",1,0,0,0,0,0,0,0,0,1,,,,,,,,,,,,,,,,,,,,,,,,,,,,,,,,,,,,,,,,,,,,,,,,,,,,,,,,,,,,,81.28831194600025,None,87.40471559399884,None,87.40471559399884,None,87.40471559399884,None,h,0,2.114136234000398,88.98853089399927,None,88.98853089399927,None,88.98853089399927,None,91.17151887900036,None,91.17151887900036,None,91.17151887900036,None,91.17151887900036,None,,,,,,,,,,,,,,,,,,,,,,,,,,,,,,,,,,,,,,,,,,,,001,85,2020_Feb_06_1220,spring_faces,3.1.5,60.00965519325312,
condition files/Stage0a.xlsx,0a,alpha,none,h,"['h', 'g']","['Chess', 'Go']","[0, 0.5]","[0, 0]",1,0,0,0,0,0,0,1,1,0,,,,,,,,,,,,,,,,,,,,,,,,,,,,,,,,,,,,,,,,,,,,,,,,,,,,,,,,,,,,,,,93.12087068399887,None,93.12087068399887,None,93.12087068399887,None,h,1,1.8546333639988006,94.67204347400002,None,94.67204347400002,None,94.67204347400002,None,96.58825513900047,None,96.58825513900047,None,96.58825513900047,None,96.58825513900047,None,,,,,,,,,,,,,,,,,,,,,,,,,,,,,,,,,,,,,,,,,,,,001,85,2020_Feb_06_1220,spring_faces,3.1.5,60.00965519325312,
condition files/Stage0a.xlsx,0a,alpha,none,h,"['h', 'g']","['Chess', 'Go']","[0, 0.5]","[0, 0]",1,0,0,1,1,1,0,0,0,0,,,,,,,,,,,,,,,,,,,,,,,,,,,,,,,,,,,,,,,,,,,,,,,,,,,,,,,,,,,,,,,98.57184627400056,None,98.57184627400056,None,98.57184627400056,None,h,1,1.173231984999802,100.10550424299981,None,100.10550424299981,None,100.10550424299981,None,101.33865328499996,None,101.33865328499996,None,101.33865328499996,None,101.33865328499996,None,,,,,,,,,,,,,,,,,,,,,,,,,,,,,,,,,,,,,,,,,,,,001,85,2020_Feb_06_1220,spring_faces,3.1.5,60.00965519325312,
condition files/Stage0a.xlsx,0a,beta,none,g,"['h', 'g']","['Chess', 'Go']","[0, 0.5]","[0, 0]",1,0,0,1,1,1,0,1,1,1,,,,,,,,,,,,,,,,,,,,,,,,,,,,,,,,,,,,,,,,,,,,,,,,,,,,,,,,,,,,,,,103.30544098700011,None,103.30544098700011,None,103.30544098700011,None,g,1,0.8881482550004876,104.83851924400005,None,104.83851924400005,None,104.83851924400005,None,105.78854494599909,None,105.78854494599909,None,105.78854494599909,None,105.78854494599909,None,,,,,,,,,,,,,,,,,,,,,,,,,,,,,,,,,,,,,,,,,,,,001,85,2020_Feb_06_1220,spring_faces,3.1.5,60.00965519325312,
condition files/Stage0a.xlsx,0a,alpha,none,h,"['h', 'g']","['Chess', 'Go']","[0, 0.5]","[0, 0]",1,0,0,2,2,2,0,0,0,0,,,,,,,,,,,,,,,,,,,,,,,,,,,,,,,,,,,,,,,,,,,,,,,,,,,,,,,,,,,,,,,107.77147962699928,None,107.77147962699928,None,107.77147962699928,None,h,1,1.2216103699993255,109.3050581080006,None,109.3050581080006,None,109.3050581080006,None,110.58844669099926,None,110.58844669099926,None,110.58844669099926,None,110.58844669099926,None,,,,,,,,,,,,,,,,,,,,,,,,,,,,,,,,,,,,,,,,,,,,001,85,2020_Feb_06_1220,spring_faces,3.1.5,60.00965519325312,
condition files/Stage0a.xlsx,0a,beta,none,g,"['h', 'g']","['Chess', 'Go']","[0, 0.5]","[0, 0]",1,0,0,2,2,2,0,1,1,1,,,,,,,,,,,,,,,,,,,,,,,,,,,,,,,,,,,,,,,,,,,,,,,,,,,,,,,,,,,,,,,112.5549533279991,None,112.5549533279991,None,112.5549533279991,None,g,1,0.854530184999021,114.08815021800001,None,114.08815021800001,None,114.08815021800001,None,115.00459430499905,None,115.00459430499905,None,115.00459430499905,None,115.00459430499905,None,,,,,,,,,,,,,,,,,,,,,,,,,,,,,,,,,,,,,,,,,,,,001,85,2020_Feb_06_1220,spring_faces,3.1.5,60.00965519325312,
condition files/Stage0a.xlsx,0a,beta,none,g,"['h', 'g']","['Chess', 'Go']","[0, 0.5]","[0, 0]",1,0,0,3,3,3,0,0,0,1,,,,,,,,,,,,,,,,,,,,,,,,,,,,,,,,,,,,,,,,,,,,,,,,,,,,,,,,,,,,,,,116.98788562799928,None,116.98788562799928,None,116.98788562799928,None,g,1,1.0125702209988958,118.52210113299952,None,118.52210113299952,None,118.52210113299952,None,119.58834416399986,None,119.58834416399986,None,119.58834416399986,None,119.58834416399986,None,,,,,,,,,,,,,,,,,,,,,,,,,,,,,,,,,,,,,,,,,,,,001,85,2020_Feb_06_1220,spring_faces,3.1.5,60.00965519325312,
condition files/Stage0a.xlsx,0a,alpha,none,h,"['h', 'g']","['Chess', 'Go']","[0, 0.5]","[0, 0]",1,0,0,3,3,3,0,1,1,0,,,,,,,,,,,,,,,,,,,,,,,,,,,,,,,,,,,,,,,,,,,,,,,,,,,,,,,,,,,,,,,121.55498508100027,None,121.55498508100027,None,121.55498508100027,None,h,1,0.7341657050001231,123.08846479900058,None,123.08846479900058,None,123.08846479900058,None,123.88806207699963,None,123.88806207699963,None,123.88806207699963,None,123.88806207699963,None,,,,,,,,,,,,,,,,,,,,,,,,,,,,,,,,,,,,,,,,,,,,001,85,2020_Feb_06_1220,spring_faces,3.1.5,60.00965519325312,
condition files/Stage0a.xlsx,0a,beta,none,g,"['h', 'g']","['Chess', 'Go']","[0, 0.5]","[0, 0]",1,0,0,4,4,4,0,0,0,1,,,,,,,,,,,,,,,,,,,,,,,,,,,,,,,,,,,,,,,,,,,,,,,,,,,,,,,,,,,,,,,125.87194109699885,None,125.87194109699885,None,125.87194109699885,None,g,1,1.025737959998878,127.40500032399905,None,127.40500032399905,None,127.40500032399905,None,128.4879811640003,None,128.4879811640003,None,128.4879811640003,None,128.4879811640003,None,,,,,,,,,,,,,,,,,,,,,,,,,,,,,,,,,,,,,,,,,,,,001,85,2020_Feb_06_1220,spring_faces,3.1.5,60.00965519325312,
condition files/Stage0a.xlsx,0a,alpha,none,h,"['h', 'g']","['Chess', 'Go']","[0, 0.5]","[0, 0]",1,0,0,4,4,4,0,1,1,0,,,,,,,,,,,,,,,,,,,,,,,,,,,,,,,,,,,,,,,,,,,,,,,,,,,,,,,,,,,,,,,130.4546891480004,None,130.4546891480004,None,130.4546891480004,None,h,1,0.8426900699996622,131.98804241799917,None,131.98804241799917,None,131.98804241799917,None,132.8882975029992,None,132.8882975029992,None,132.8882975029992,None,132.8882975029992,None,,,,,,,,,,,,,,,,,,,,,,,,,,,,,,,,,,,,,,,,,,,,001,85,2020_Feb_06_1220,spring_faces,3.1.5,60.00965519325312,
condition files/Stage0a.xlsx,0a,alpha,none,h,"['h', 'g']","['Chess', 'Go']","[0, 0.5]","[0, 0]",1,0,0,5,5,5,0,0,0,0,,,,,,,,,,,,,,,,,,,,,,,,,,,,,,,,,,,,,,,,,,,,,,,,,,,,,,,,,,,,,,,134.8718704419989,None,134.8718704419989,None,134.8718704419989,None,h,1,0.8578101200000674,136.40492797299885,None,136.40492797299885,None,136.40492797299885,None,137.3218590359993,None,137.3218590359993,None,137.3218590359993,None,137.3218590359993,None,,,,,,,,,,,,,,,,,,,,,,,,,,,,,,,,,,,,,,,,,,,,001,85,2020_Feb_06_1220,spring_faces,3.1.5,60.00965519325312,
condition files/Stage0a.xlsx,0a,beta,none,g,"['h', 'g']","['Chess', 'Go']","[0, 0.5]","[0, 0]",1,0,0,5,5,5,0,1,1,1,,,,,,,,,,,,,,,,,,,,,,,,,,,,,,,,,,,,,,,,,,,,,,,,,,,,,,,,,,,,,,,139.28806108900062,None,139.28806108900062,None,139.28806108900062,None,g,1,0.7608319470000424,140.82187537299978,None,140.82187537299978,None,140.82187537299978,None,141.63809170899913,None,141.63809170899913,None,141.63809170899913,None,141.63809170899913,None,,,,,,,,,,,,,,,,,,,,,,,,,,,,,,,,,,,,,,,,,,,,001,85,2020_Feb_06_1220,spring_faces,3.1.5,60.00965519325312,
condition files/Stage0b_1.xlsx,0b,none,beta,g,"['h', 'g']","['Chess', 'Go']","[-0.15, 0.5]","[0.15, 0.5]",0,1,0,6,6,6,0,0,0,1,,,,,,,,,,,,,,,,,,,,,,,,,,,,,,,,,,,,,,,,,,,,,,,,,,,,,,,,,,,,,,,143.62141370000063,None,143.62141370000063,None,143.62141370000063,None,g,1,0.9389843089993519,145.17169532700063,None,145.17169532700063,None,145.17169532700063,None,146.18846138799927,None,146.18846138799927,None,146.18846138799927,None,146.18846138799927,None,,,,,,,,,,,,,,,,,,,,,,,,,,,,,,,,,,,,,,,,,,,,001,85,2020_Feb_06_1220,spring_faces,3.1.5,60.00965519325312,
condition files/Stage0b_1.xlsx,0b,alpha,none,h,"['h', 'g']","['Chess', 'Go']","[-0.15, 0.5]","[0.15, 0.5]",1,0,0,6,6,6,0,1,1,0,,,,,,,,,,,,,,,,,,,,,,,,,,,,,,,,,,,,,,,,,,,,,,,,,,,,,,,,,,,,,,,148.13830242099903,None,148.13830242099903,None,148.13830242099903,None,h,1,1.0899611200002255,149.67666039200049,None,149.67666039200049,None,149.67666039200049,None,150.82273530199927,None,150.82273530199927,None,150.82273530199927,None,150.82273530199927,None,,,,,,,,,,,,,,,,,,,,,,,,,,,,,,,,,,,,,,,,,,,,001,85,2020_Feb_06_1220,spring_faces,3.1.5,60.00965519325312,
condition files/Stage0b_2.xlsx,0b,none,alpha,h,"['h', 'g']","['Chess', 'Go']","[-0.15, 0.5]","[0.15, 0.5]",0,1,0,7,7,7,0,0,0,0,,,,,,,,,,,,,,,,,,,,,,,,,,,,,,,,,,,,,,,,,,,,,,,,,,,,,,,,,,,,,,,152.8050866350004,None,152.8050866350004,None,152.8050866350004,None,h,1,1.3045083260003594,154.34224324500065,None,154.34224324500065,None,154.34224324500065,None,155.70513269799994,None,155.70513269799994,None,155.70513269799994,None,155.70513269799994,None,,,,,,,,,,,,,,,,,,,,,,,,,,,,,,,,,,,,,,,,,,,,001,85,2020_Feb_06_1220,spring_faces,3.1.5,60.00965519325312,
condition files/Stage0b_2.xlsx,0b,beta,none,g,"['h', 'g']","['Chess', 'Go']","[-0.15, 0.5]","[0.15, 0.5]",1,0,0,7,7,7,0,1,1,1,,,,,,,,,,,,,,,,,,,,,,,,,,,,,,,,,,,,,,,,,,,,,,,,,,,,,,,,,,,,,,,157.67154435799966,None,157.67154435799966,None,157.67154435799966,None,g,1,0.7592507099998329,159.2074150669996,None,159.2074150669996,None,159.2074150669996,None,160.02313929000047,None,160.02313929000047,None,160.02313929000047,None,160.02313929000047,None,,,,,,,,,,,,,,,,,,,,,,,,,,,,,,,,,,,,,,,,,,,,001,85,2020_Feb_06_1220,spring_faces,3.1.5,60.00965519325312,
condition files/Stage0b_1.xlsx,0b,none,beta,g,"['h', 'g']","['Chess', 'Go']","[-0.15, 0.5]","[0.15, 0.5]",0,1,0,8,8,8,0,0,0,1,,,,,,,,,,,,,,,,,,,,,,,,,,,,,,,,,,,,,,,,,,,,,,,,,,,,,,,,,,,,,,,162.0052003790006,None,162.0052003790006,None,162.0052003790006,None,g,1,1.259554804999425,163.53919037299966,None,163.53919037299966,None,163.53919037299966,None,164.85809585899915,None,164.85809585899915,None,164.85809585899915,None,164.85809585899915,None,,,,,,,,,,,,,,,,,,,,,,,,,,,,,,,,,,,,,,,,,,,,001,85,2020_Feb_06_1220,spring_faces,3.1.5,60.00965519325312,
condition files/Stage0b_1.xlsx,0b,alpha,none,h,"['h', 'g']","['Chess', 'Go']","[-0.15, 0.5]","[0.15, 0.5]",1,0,0,8,8,8,0,1,1,0,,,,,,,,,,,,,,,,,,,,,,,,,,,,,,,,,,,,,,,,,,,,,,,,,,,,,,,,,,,,,,,166.8215999389995,None,166.8215999389995,None,166.8215999389995,None,h,1,1.2113535349999438,168.3553002890003,None,168.3553002890003,None,168.3553002890003,None,169.62357029600025,None,169.62357029600025,None,169.62357029600025,None,169.62357029600025,None,,,,,,,,,,,,,,,,,,,,,,,,,,,,,,,,,,,,,,,,,,,,001,85,2020_Feb_06_1220,spring_faces,3.1.5,60.00965519325312,
condition files/Stage0b_2.xlsx,0b,beta,none,g,"['h', 'g']","['Chess', 'Go']","[-0.15, 0.5]","[0.15, 0.5]",1,0,0,9,9,9,0,0,0,1,,,,,,,,,,,,,,,,,,,,,,,,,,,,,,,,,,,,,,,,,,,,,,,,,,,,,,,,,,,,,,,171.60471700800008,None,171.60471700800008,None,171.60471700800008,None,g,1,0.9562495440004568,173.13842554300027,None,173.13842554300027,None,173.13842554300027,None,174.154828576,None,174.154828576,None,174.154828576,None,174.154828576,None,,,,,,,,,,,,,,,,,,,,,,,,,,,,,,,,,,,,,,,,,,,,001,85,2020_Feb_06_1220,spring_faces,3.1.5,60.00965519325312,
condition files/Stage0b_2.xlsx,0b,none,alpha,h,"['h', 'g']","['Chess', 'Go']","[-0.15, 0.5]","[0.15, 0.5]",0,1,0,9,9,9,0,1,1,0,,,,,,,,,,,,,,,,,,,,,,,,,,,,,,,,,,,,,,,,,,,,,,,,,,,,,,,,,,,,,,,176.12165321199973,None,176.12165321199973,None,176.12165321199973,None,h,1,0.7874953999998979,177.6592170290005,None,177.6592170290005,None,177.6592170290005,None,178.50936995200027,None,178.50936995200027,None,178.50936995200027,None,178.50936995200027,None,,,,,,,,,,,,,,,,,,,,,,,,,,,,,,,,,,,,,,,,,,,,001,85,2020_Feb_06_1220,spring_faces,3.1.5,60.00965519325312,
condition files/Stage0b_1.xlsx,0b,alpha,none,h,"['h', 'g']","['Chess', 'Go']","[-0.15, 0.5]","[0.15, 0.5]",1,0,0,10,10,10,0,0,0,0,,,,,,,,,,,,,,,,,,,,,,,,,,,,,,,,,,,,,,,,,,,,,,,,,,,,,,,,,,,,,,,180.4882603219994,None,180.4882603219994,None,180.4882603219994,None,h,1,0.8847262890012644,182.02594748299998,None,182.02594748299998,None,182.02594748299998,None,182.97210259500025,None,182.97210259500025,None,182.97210259500025,None,182.97210259500025,None,,,,,,,,,,,,,,,,,,,,,,,,,,,,,,,,,,,,,,,,,,,,001,85,2020_Feb_06_1220,spring_faces,3.1.5,60.00965519325312,
condition files/Stage0b_1.xlsx,0b,none,beta,g,"['h', 'g']","['Chess', 'Go']","[-0.15, 0.5]","[0.15, 0.5]",0,1,0,10,10,10,0,1,1,1,,,,,,,,,,,,,,,,,,,,,,,,,,,,,,,,,,,,,,,,,,,,,,,,,,,,,,,,,,,,,,,184.938797711,None,184.938797711,None,184.938797711,None,g,1,0.9672692260010081,186.47139649900055,None,186.47139649900055,None,186.47139649900055,None,187.49359041199932,None,187.49359041199932,None,187.49359041199932,None,187.49359041199932,None,,,,,,,,,,,,,,,,,,,,,,,,,,,,,,,,,,,,,,,,,,,,001,85,2020_Feb_06_1220,spring_faces,3.1.5,60.00965519325312,
condition files/Stage0b_2.xlsx,0b,beta,none,g,"['h', 'g']","['Chess', 'Go']","[-0.15, 0.5]","[0.15, 0.5]",1,0,0,11,11,11,0,0,0,1,,,,,,,,,,,,,,,,,,,,,,,,,,,,,,,,,,,,,,,,,,,,,,,,,,,,,,,,,,,,,,,189.47192358699976,None,189.47192358699976,None,189.47192358699976,None,g,1,0.9760865849984839,191.00659829299912,None,191.00659829299912,None,191.00659829299912,None,192.03857995100043,None,192.03857995100043,None,192.03857995100043,None,192.03857995100043,None,,,,,,,,,,,,,,,,,,,,,,,,,,,,,,,,,,,,,,,,,,,,001,85,2020_Feb_06_1220,spring_faces,3.1.5,60.00965519325312,
condition files/Stage0b_2.xlsx,0b,none,alpha,h,"['h', 'g']","['Chess', 'Go']","[-0.15, 0.5]","[0.15, 0.5]",0,1,0,11,11,11,0,1,1,0,,,,,,,,,,,,,,,,,,,,,,,,,,,,,,,,,,,,,,,,,,,,,,,,,,,,,,,,,,,,,,,194.00481636199947,None,194.00481636199947,None,194.00481636199947,None,h,1,0.7805526360007207,195.53805222499977,None,195.53805222499977,None,195.53805222499977,None,196.377183306,None,196.377183306,None,196.377183306,None,196.377183306,None,,,,,,,,,,,,,,,,,,,,,,,,,,,,,,,,,,,,,,,,,,,,001,85,2020_Feb_06_1220,spring_faces,3.1.5,60.00965519325312,
condition files/Stage0c_1.xlsx,0c,phi,beta,g,"['h', 'g']","['Chess', 'Go']","[-0.15, 0.5]","[0.15, 0.5]",1,1,0,12,12,12,0,0,0,3,,,,,,,,,,,,,,,,,,,,,,,,,,,,,,,,,,,,,,,,,,,,,,,,,,,,,,,,,,,,,,,198.35503655299908,None,198.35503655299908,None,198.35503655299908,None,g,1,3.998460779001107,199.8882237809994,None,199.8882237809994,None,199.8882237809994,None,203.9379113920004,None,203.9379113920004,None,203.9379113920004,None,203.9379113920004,None,,,,,,,,,,,,,,,,,,,,,,,,,,,,,,,,,,,,,,,,,,,,001,85,2020_Feb_06_1220,spring_faces,3.1.5,60.00965519325312,
condition files/Stage0c_1.xlsx,0c,theta,alpha,h,"['h', 'g']","['Chess', 'Go']","[-0.15, 0.5]","[0.15, 0.5]",1,1,0,12,12,12,0,1,1,0,,,,,,,,,,,,,,,,,,,,,,,,,,,,,,,,,,,,,,,,,,,,,,,,,,,,,,,,,,,,,,,205.90412722200017,None,205.90412722200017,None,205.90412722200017,None,h,1,1.3278423459996702,207.43881027099997,None,207.43881027099997,None,207.43881027099997,None,208.82233124499908,None,208.82233124499908,None,208.82233124499908,None,208.82233124499908,None,,,,,,,,,,,,,,,,,,,,,,,,,,,,,,,,,,,,,,,,,,,,001,85,2020_Feb_06_1220,spring_faces,3.1.5,60.00965519325312,
condition files/Stage0c_1.xlsx,0c,beta,theta,g,"['h', 'g']","['Chess', 'Go']","[-0.15, 0.5]","[0.15, 0.5]",1,1,0,12,12,12,0,2,2,2,,,,,,,,,,,,,,,,,,,,,,,,,,,,,,,,,,,,,,,,,,,,,,,,,,,,,,,,,,,,,,,210.78828937599974,None,210.78828937599974,None,210.78828937599974,None,g,1,3.56454428699908,212.3221162989994,None,212.3221162989994,None,212.3221162989994,None,215.93864361799933,None,215.93864361799933,None,215.93864361799933,None,215.93864361799933,None,,,,,,,,,,,,,,,,,,,,,,,,,,,,,,,,,,,,,,,,,,,,001,85,2020_Feb_06_1220,spring_faces,3.1.5,60.00965519325312,
condition files/Stage0c_1.xlsx,0c,alpha,phi,h,"['h', 'g']","['Chess', 'Go']","[-0.15, 0.5]","[0.15, 0.5]",1,1,0,12,12,12,0,3,3,1,,,,,,,,,,,,,,,,,,,,,,,,,,,,,,,,,,,,,,,,,,,,,,,,,,,,,,,,,,,,,,,217.90494525899885,None,217.90494525899885,None,217.90494525899885,None,h,1,0.9445003920009185,219.43817110800046,None,219.43817110800046,None,219.43817110800046,None,220.43795655899885,None,220.43795655899885,None,220.43795655899885,None,220.43795655899885,None,,,,,,,,,,,,,,,,,,,,,,,,,,,,,,,,,,,,,,,,,,,,001,85,2020_Feb_06_1220,spring_faces,3.1.5,60.00965519325312,
condition files/Stage0c_2.xlsx,0c,phi,alpha,h,"['h', 'g']","['Chess', 'Go']","[-0.15, 0.5]","[0.15, 0.5]",1,1,0,13,13,13,0,0,0,1,,,,,,,,,,,,,,,,,,,,,,,,,,,,,,,,,,,,,,,,,,,,,,,,,,,,,,,,,,,,,,,222.42172484500043,None,222.42172484500043,None,222.42172484500043,None,h,1,1.4674197189997358,223.95523128599962,None,223.95523128599962,None,223.95523128599962,None,225.4738753090005,None,225.4738753090005,None,225.4738753090005,None,225.4738753090005,None,,,,,,,,,,,,,,,,,,,,,,,,,,,,,,,,,,,,,,,,,,,,001,85,2020_Feb_06_1220,spring_faces,3.1.5,60.00965519325312,
condition files/Stage0c_2.xlsx,0c,theta,beta,g,"['h', 'g']","['Chess', 'Go']","[-0.15, 0.5]","[0.15, 0.5]",1,1,0,13,13,13,0,1,1,2,,,,,,,,,,,,,,,,,,,,,,,,,,,,,,,,,,,,,,,,,,,,,,,,,,,,,,,,,,,,,,,227.4548707819995,None,227.4548707819995,None,227.4548707819995,None,g,1,1.0742262459989433,228.98850249799943,None,228.98850249799943,None,228.98850249799943,None,230.1219059619998,None,230.1219059619998,None,230.1219059619998,None,230.1219059619998,None,,,,,,,,,,,,,,,,,,,,,,,,,,,,,,,,,,,,,,,,,,,,001,85,2020_Feb_06_1220,spring_faces,3.1.5,60.00965519325312,
condition files/Stage0c_2.xlsx,0c,beta,phi,g,"['h', 'g']","['Chess', 'Go']","[-0.15, 0.5]","[0.15, 0.5]",1,1,0,13,13,13,0,2,2,3,,,,,,,,,,,,,,,,,,,,,,,,,,,,,,,,,,,,,,,,,,,,,,,,,,,,,,,,,,,,,,,232.08801601899904,None,232.08801601899904,None,232.08801601899904,None,g,1,0.9526027200008684,233.62206938899908,None,233.62206938899908,None,233.62206938899908,None,234.62150122799903,None,234.62150122799903,None,234.62150122799903,None,234.62150122799903,None,,,,,,,,,,,,,,,,,,,,,,,,,,,,,,,,,,,,,,,,,,,,001,85,2020_Feb_06_1220,spring_faces,3.1.5,60.00965519325312,
condition files/Stage0c_2.xlsx,0c,alpha,theta,h,"['h', 'g']","['Chess', 'Go']","[-0.15, 0.5]","[0.15, 0.5]",1,1,0,13,13,13,0,3,3,0,,,,,,,,,,,,,,,,,,,,,,,,,,,,,,,,,,,,,,,,,,,,,,,,,,,,,,,,,,,,,,,236.6047361259989,None,236.6047361259989,None,236.6047361259989,None,h,1,0.7880273239989037,238.13864510699932,None,238.13864510699932,None,238.13864510699932,None,238.9885202509995,None,238.9885202509995,None,238.9885202509995,None,238.9885202509995,None,,,,,,,,,,,,,,,,,,,,,,,,,,,,,,,,,,,,,,,,,,,,001,85,2020_Feb_06_1220,spring_faces,3.1.5,60.00965519325312,
condition files/Stage0c_1.xlsx,0c,phi,beta,g,"['h', 'g']","['Chess', 'Go']","[-0.15, 0.5]","[0.15, 0.5]",1,1,0,14,14,14,0,0,0,3,,,,,,,,,,,,,,,,,,,,,,,,,,,,,,,,,,,,,,,,,,,,,,,,,,,,,,,,,,,,,,,240.97157388599953,None,240.97157388599953,None,240.97157388599953,None,g,1,0.9656411630003277,242.50503334099994,None,242.50503334099994,None,242.50503334099994,None,243.5212524769995,None,243.5212524769995,None,243.5212524769995,None,243.5212524769995,None,,,,,,,,,,,,,,,,,,,,,,,,,,,,,,,,,,,,,,,,,,,,001,85,2020_Feb_06_1220,spring_faces,3.1.5,60.00965519325312,
condition files/Stage0c_1.xlsx,0c,beta,theta,g,"['h', 'g']","['Chess', 'Go']","[-0.15, 0.5]","[0.15, 0.5]",1,1,0,14,14,14,0,1,1,2,,,,,,,,,,,,,,,,,,,,,,,,,,,,,,,,,,,,,,,,,,,,,,,,,,,,,,,,,,,,,,,245.48841049899966,None,245.48841049899966,None,245.48841049899966,None,g,1,1.0893184449996625,247.02134854500036,None,247.02134854500036,None,247.02134854500036,None,248.15475025199885,None,248.15475025199885,None,248.15475025199885,None,248.15475025199885,None,,,,,,,,,,,,,,,,,,,,,,,,,,,,,,,,,,,,,,,,,,,,001,85,2020_Feb_06_1220,spring_faces,3.1.5,60.00965519325312,
condition files/Stage0c_1.xlsx,0c,theta,alpha,h,"['h', 'g']","['Chess', 'Go']","[-0.15, 0.5]","[0.15, 0.5]",1,1,0,14,14,14,0,2,2,0,,,,,,,,,,,,,,,,,,,,,,,,,,,,,,,,,,,,,,,,,,,,,,,,,,,,,,,,,,,,,,,250.1381305449995,None,250.1381305449995,None,250.1381305449995,None,h,1,1.0150672820000182,251.6715871209999,None,251.6715871209999,None,251.6715871209999,None,252.7384994919994,None,252.7384994919994,None,252.7384994919994,None,252.7384994919994,None,,,,,,,,,,,,,,,,,,,,,,,,,,,,,,,,,,,,,,,,,,,,001,85,2020_Feb_06_1220,spring_faces,3.1.5,60.00965519325312,
condition files/Stage0c_1.xlsx,0c,alpha,phi,h,"['h', 'g']","['Chess', 'Go']","[-0.15, 0.5]","[0.15, 0.5]",1,1,0,14,14,14,0,3,3,1,,,,,,,,,,,,,,,,,,,,,,,,,,,,,,,,,,,,,,,,,,,,,,,,,,,,,,,,,,,,,,,254.70497074999912,None,254.70497074999912,None,254.70497074999912,None,h,1,0.8963053389998095,256.2383532969998,None,256.2383532969998,None,256.2383532969998,None,257.17358724099904,None,257.17358724099904,None,257.17358724099904,None,257.17358724099904,None,,,,,,,,,,,,,,,,,,,,,,,,,,,,,,,,,,,,,,,,,,,,001,85,2020_Feb_06_1220,spring_faces,3.1.5,60.00965519325312,
condition files/Stage0c_2.xlsx,0c,alpha,theta,h,"['h', 'g']","['Chess', 'Go']","[-0.15, 0.5]","[0.15, 0.5]",1,1,0,15,15,15,0,0,0,0,,,,,,,,,,,,,,,,,,,,,,,,,,,,,,,,,,,,,,,,,,,,,,,,,,,,,,,,,,,,,,,259.17207811799926,None,259.17207811799926,None,259.17207811799926,None,h,1,0.7974806389993319,260.7051922840001,None,260.7051922840001,None,260.7051922840001,None,261.5402262619991,None,261.5402262619991,None,261.5402262619991,None,261.5402262619991,None,,,,,,,,,,,,,,,,,,,,,,,,,,,,,,,,,,,,,,,,,,,,001,85,2020_Feb_06_1220,spring_faces,3.1.5,60.00965519325312,
condition files/Stage0c_2.xlsx,0c,beta,phi,g,"['h', 'g']","['Chess', 'Go']","[-0.15, 0.5]","[0.15, 0.5]",1,1,0,15,15,15,0,1,1,3,,,,,,,,,,,,,,,,,,,,,,,,,,,,,,,,,,,,,,,,,,,,,,,,,,,,,,,,,,,,,,,263.5212565990005,None,263.5212565990005,None,263.5212565990005,None,g,1,1.0074617079990276,265.05526704300064,None,265.05526704300064,None,265.05526704300064,None,266.12167357999897,None,266.12167357999897,None,266.12167357999897,None,266.12167357999897,None,,,,,,,,,,,,,,,,,,,,,,,,,,,,,,,,,,,,,,,,,,,,001,85,2020_Feb_06_1220,spring_faces,3.1.5,60.00965519325312,
condition files/Stage0c_2.xlsx,0c,theta,beta,g,"['h', 'g']","['Chess', 'Go']","[-0.15, 0.5]","[0.15, 0.5]",1,1,0,15,15,15,0,2,2,2,,,,,,,,,,,,,,,,,,,,,,,,,,,,,,,,,,,,,,,,,,,,,,,,,,,,,,,,,,,,,,,268.0884974469991,None,268.0884974469991,None,268.0884974469991,None,g,1,0.9688080840005568,269.62186264999946,None,269.62186264999946,None,269.62186264999946,None,270.63951696799995,None,270.63951696799995,None,270.63951696799995,None,270.63951696799995,None,,,,,,,,,,,,,,,,,,,,,,,,,,,,,,,,,,,,,,,,,,,,001,85,2020_Feb_06_1220,spring_faces,3.1.5,60.00965519325312,
condition files/Stage0c_2.xlsx,0c,phi,alpha,h,"['h', 'g']","['Chess', 'Go']","[-0.15, 0.5]","[0.15, 0.5]",1,1,0,15,15,15,0,3,3,1,,,,,,,,,,,,,,,,,,,,,,,,,,,,,,,,,,,,,,,,,,,,,,,,,,,,,,,,,,,,,,,272.62140745099896,None,272.62140745099896,None,272.62140745099896,None,h,1,0.6594807909987139,274.1551603930002,None,274.1551603930002,None,274.1551603930002,None,274.87219666499914,None,274.87219666499914,None,274.87219666499914,None,274.87219666499914,None,,,,,,,,,,,,,,,,,,,,,,,,,,,,,,,,,,,,,,,,,,,,001,85,2020_Feb_06_1220,spring_faces,3.1.5,60.00965519325312,
condition files/Stage0c_1.xlsx,0c,phi,beta,g,"['h', 'g']","['Chess', 'Go']","[-0.15, 0.5]","[0.15, 0.5]",1,1,0,16,16,16,0,0,0,3,,,,,,,,,,,,,,,,,,,,,,,,,,,,,,,,,,,,,,,,,,,,,,,,,,,,,,,,,,,,,,,276.8548395710004,None,276.8548395710004,None,276.8548395710004,None,g,1,0.8585604820000299,278.38818480199916,None,278.38818480199916,None,278.38818480199916,None,279.30500364699947,None,279.30500364699947,None,279.30500364699947,None,279.30500364699947,None,,,,,,,,,,,,,,,,,,,,,,,,,,,,,,,,,,,,,,,,,,,,001,85,2020_Feb_06_1220,spring_faces,3.1.5,60.00965519325312,
condition files/Stage0c_1.xlsx,0c,beta,theta,g,"['h', 'g']","['Chess', 'Go']","[-0.15, 0.5]","[0.15, 0.5]",1,1,0,16,16,16,0,1,1,2,,,,,,,,,,,,,,,,,,,,,,,,,,,,,,,,,,,,,,,,,,,,,,,,,,,,,,,,,,,,,,,281.2716250779995,None,281.2716250779995,None,281.2716250779995,None,g,1,0.8417775030011398,282.80494222699963,None,282.80494222699963,None,282.80494222699963,None,283.68991148999885,None,283.68991148999885,None,283.68991148999885,None,283.68991148999885,None,,,,,,,,,,,,,,,,,,,,,,,,,,,,,,,,,,,,,,,,,,,,001,85,2020_Feb_06_1220,spring_faces,3.1.5,60.00965519325312,
condition files/Stage0c_1.xlsx,0c,alpha,phi,h,"['h', 'g']","['Chess', 'Go']","[-0.15, 0.5]","[0.15, 0.5]",1,1,0,16,16,16,0,2,2,1,,,,,,,,,,,,,,,,,,,,,,,,,,,,,,,,,,,,,,,,,,,,,,,,,,,,,,,,,,,,,,,285.67129857799955,None,285.67129857799955,None,285.67129857799955,None,h,1,0.6978250579995802,287.2048343059996,None,287.2048343059996,None,287.2048343059996,None,287.9548223130005,None,287.9548223130005,None,287.9548223130005,None,287.9548223130005,None,,,,,,,,,,,,,,,,,,,,,,,,,,,,,,,,,,,,,,,,,,,,001,85,2020_Feb_06_1220,spring_faces,3.1.5,60.00965519325312,
condition files/Stage0c_1.xlsx,0c,theta,alpha,h,"['h', 'g']","['Chess', 'Go']","[-0.15, 0.5]","[0.15, 0.5]",1,1,0,16,16,16,0,3,3,0,,,,,,,,,,,,,,,,,,,,,,,,,,,,,,,,,,,,,,,,,,,,,,,,,,,,,,,,,,,,,,,289.9220263110001,None,289.9220263110001,None,289.9220263110001,None,h,1,0.8957614190003369,291.4548888339996,None,291.4548888339996,None,291.4548888339996,None,292.38953290300014,None,292.38953290300014,None,292.38953290300014,None,292.38953290300014,None,,,,,,,,,,,,,,,,,,,,,,,,,,,,,,,,,,,,,,,,,,,,001,85,2020_Feb_06_1220,spring_faces,3.1.5,60.00965519325312,
condition files/Stage0c_2.xlsx,0c,theta,beta,g,"['h', 'g']","['Chess', 'Go']","[-0.15, 0.5]","[0.15, 0.5]",1,1,0,17,17,17,0,0,0,2,,,,,,,,,,,,,,,,,,,,,,,,,,,,,,,,,,,,,,,,,,,,,,,,,,,,,,,,,,,,,,,294.3879555349995,None,294.3879555349995,None,294.3879555349995,None,g,1,0.7649070909992588,295.9217683269999,None,295.9217683269999,None,295.9217683269999,None,296.7381426430002,None,296.7381426430002,None,296.7381426430002,None,296.7381426430002,None,,,,,,,,,,,,,,,,,,,,,,,,,,,,,,,,,,,,,,,,,,,,001,85,2020_Feb_06_1220,spring_faces,3.1.5,60.00965519325312,
condition files/Stage0c_2.xlsx,0c,phi,alpha,h,"['h', 'g']","['Chess', 'Go']","[-0.15, 0.5]","[0.15, 0.5]",1,1,0,17,17,17,0,1,1,1,,,,,,,,,,,,,,,,,,,,,,,,,,,,,,,,,,,,,,,,,,,,,,,,,,,,,,,,,,,,,,,298.7049908270001,None,298.7049908270001,None,298.7049908270001,None,h,1,0.6727647240004444,300.23789902799945,None,300.23789902799945,None,300.23789902799945,None,300.97191780699904,None,300.97191780699904,None,300.97191780699904,None,300.97191780699904,None,,,,,,,,,,,,,,,,,,,,,,,,,,,,,,,,,,,,,,,,,,,,001,85,2020_Feb_06_1220,spring_faces,3.1.5,60.00965519325312,
condition files/Stage0c_2.xlsx,0c,beta,phi,g,"['h', 'g']","['Chess', 'Go']","[-0.15, 0.5]","[0.15, 0.5]",1,1,0,17,17,17,0,2,2,3,,,,,,,,,,,,,,,,,,,,,,,,,,,,,,,,,,,,,,,,,,,,,,,,,,,,,,,,,,,,,,,302.9384746220003,None,302.9384746220003,None,302.9384746220003,None,g,1,0.7274291510002513,304.471300109999,None,304.471300109999,None,304.471300109999,None,305.25535062999916,None,305.25535062999916,None,305.25535062999916,None,305.25535062999916,None,,,,,,,,,,,,,,,,,,,,,,,,,,,,,,,,,,,,,,,,,,,,001,85,2020_Feb_06_1220,spring_faces,3.1.5,60.00965519325312,
condition files/Stage0c_2.xlsx,0c,alpha,theta,h,"['h', 'g']","['Chess', 'Go']","[-0.15, 0.5]","[0.15, 0.5]",1,1,0,17,17,17,0,3,3,0,,,,,,,,,,,,,,,,,,,,,,,,,,,,,,,,,,,,,,,,,,,,,,,,,,,,,,,,,,,,,,,307.22121619599966,None,307.22121619599966,None,307.22121619599966,None,h,1,0.7154247890011902,308.75521645499975,None,308.75521645499975,None,308.75521645499975,None,309.521674145999,None,309.521674145999,None,309.521674145999,None,309.521674145999,None,,,,,,,,,,,,,,,,,,,,,,,,,,,,,,,,,,,,,,,,,,,,001,85,2020_Feb_06_1220,spring_faces,3.1.5,60.00965519325312,
,,,,,,,,,,,,,,,,,,,,,,,,,,,,,,,,,,,,,,,,,,,,,,,,,,,,,,,,,,,,,,,,,,,,,,,,,,,,,,,,,,,,,,,,,,,,,,,,,,,,,,,,311.50523300699933,None,space,2.085642365998865,316.5050017889989,None,,,,,,,,,,,,,,,,,,,,,,,,,,,,,,,,,,,,,,001,85,2020_Feb_06_1220,spring_faces,3.1.5,60.00965519325312,
condition files/Stage1_1.xlsx,,B3,T3,c,"['c', 'm']","['Clue', 'Monopoly']","[-0.15, 0.5]","[0.15, 0.5]",1,1,,,,,,,,,0,0,0,0,0,0,0,4,,,,,,,,,,,,,,,,,,,,,,,,,,,,,,,,,,,,,,,,,,,,,,,,,,,,,,,318.6554704859991,None,318.6554704859991,None,318.6554704859991,None,c,1,2.9946485689997644,320.1880234559994,None,320.1880234559994,None,320.1880234559994,None,323.25523732200054,None,323.25523732200054,None,323.25523732200054,None,323.25523732200054,None,,,,,,,316.5050017889989,None,,,,,,,,,,,,,,,,,,,,,,,,,,,,,,,,,,,,001,85,2020_Feb_06_1220,spring_faces,3.1.5,60.00965519325312,
condition files/Stage1_1.xlsx,,T1,B1,c,"['c', 'm']","['Clue', 'Monopoly']","[-0.15, 0.5]","[0.15, 0.5]",1,1,,,,,,,,,0,0,0,0,0,1,1,0,,,,,,,,,,,,,,,,,,,,,,,,,,,,,,,,,,,,,,,,,,,,,,,,,,,,,,,325.20487012299964,None,325.20487012299964,None,325.20487012299964,None,m,0,3.468594532998395,326.73806052299915,None,326.73806052299915,None,326.73806052299915,None,330.272020381999,None,330.272020381999,None,330.272020381999,None,330.272020381999,None,,,,,,,,,,,,,,,,,,,,,,,,,,,,,,,,,,,,,,,,,,,,001,85,2020_Feb_06_1220,spring_faces,3.1.5,60.00965519325312,
condition files/Stage1_1.xlsx,,T2,B2,m,"['c', 'm']","['Clue', 'Monopoly']","[-0.15, 0.5]","[0.15, 0.5]",1,1,,,,,,,,,0,0,0,0,0,2,2,3,,,,,,,,,,,,,,,,,,,,,,,,,,,,,,,,,,,,,,,,,,,,,,,,,,,,,,,332.23770082900046,None,332.23770082900046,None,332.23770082900046,None,c,0,1.235344487000475,333.7712560580003,None,333.7712560580003,None,333.7712560580003,None,335.07164733100035,None,335.07164733100035,None,335.07164733100035,None,335.07164733100035,None,,,,,,,,,,,,,,,,,,,,,,,,,,,,,,,,,,,,,,,,,,,,001,85,2020_Feb_06_1220,spring_faces,3.1.5,60.00965519325312,
condition files/Stage1_1.xlsx,,B4,T4,m,"['c', 'm']","['Clue', 'Monopoly']","[-0.15, 0.5]","[0.15, 0.5]",1,1,,,,,,,,,0,0,0,0,0,3,3,7,,,,,,,,,,,,,,,,,,,,,,,,,,,,,,,,,,,,,,,,,,,,,,,,,,,,,,,337.03816316899974,None,337.03816316899974,None,337.03816316899974,None,m,1,2.2732922609993693,338.6214840249995,None,338.6214840249995,None,338.6214840249995,None,340.9552910839993,None,340.9552910839993,None,340.9552910839993,None,340.9552910839993,None,,,,,,,,,,,,,,,,,,,,,,,,,,,,,,,,,,,,,,,,,,,,001,85,2020_Feb_06_1220,spring_faces,3.1.5,60.00965519325312,
condition files/Stage1_1.xlsx,,T4,B3,m,"['c', 'm']","['Clue', 'Monopoly']","[-0.15, 0.5]","[0.15, 0.5]",1,1,,,,,,,,,0,0,0,0,0,4,4,6,,,,,,,,,,,,,,,,,,,,,,,,,,,,,,,,,,,,,,,,,,,,,,,,,,,,,,,342.9218089669994,None,342.9218089669994,None,342.9218089669994,None,c,0,2.4395690580004157,344.45517501799986,None,344.45517501799986,None,344.45517501799986,None,346.9553124230006,None,346.9553124230006,None,346.9553124230006,None,346.9553124230006,None,,,,,,,,,,,,,,,,,,,,,,,,,,,,,,,,,,,,,,,,,,,,001,85,2020_Feb_06_1220,spring_faces,3.1.5,60.00965519325312,
condition files/Stage1_1.xlsx,,T3,B4,c,"['c', 'm']","['Clue', 'Monopoly']","[-0.15, 0.5]","[0.15, 0.5]",1,1,,,,,,,,,0,0,0,0,0,5,5,5,,,,,,,,,,,,,,,,,,,,,,,,,,,,,,,,,,,,,,,,,,,,,,,,,,,,,,,348.9217757360002,None,348.9217757360002,None,348.9217757360002,None,m,0,2.294432575999963,350.45621592099997,None,350.45621592099997,None,350.45621592099997,None,352.8219476159993,None,352.8219476159993,None,352.8219476159993,None,352.8219476159993,None,,,,,,,,,,,,,,,,,,,,,,,,,,,,,,,,,,,,,,,,,,,,001,85,2020_Feb_06_1220,spring_faces,3.1.5,60.00965519325312,
condition files/Stage1_1.xlsx,,B2,T1,m,"['c', 'm']","['Clue', 'Monopoly']","[-0.15, 0.5]","[0.15, 0.5]",1,1,,,,,,,,,0,0,0,0,0,6,6,2,,,,,,,,,,,,,,,,,,,,,,,,,,,,,,,,,,,,,,,,,,,,,,,,,,,,,,,354.7711222630005,None,354.7711222630005,None,354.7711222630005,None,m,1,1.8205299929995817,356.3061578859997,None,356.3061578859997,None,356.3061578859997,None,358.1878382590003,None,358.1878382590003,None,358.1878382590003,None,358.1878382590003,None,,,,,,,,,,,,,,,,,,,,,,,,,,,,,,,,,,,,,,,,,,,,001,85,2020_Feb_06_1220,spring_faces,3.1.5,60.00965519325312,
condition files/Stage1_1.xlsx,,B1,T2,c,"['c', 'm']","['Clue', 'Monopoly']","[-0.15, 0.5]","[0.15, 0.5]",1,1,,,,,,,,,0,0,0,0,0,7,7,1,,,,,,,,,,,,,,,,,,,,,,,,,,,,,,,,,,,,,,,,,,,,,,,,,,,,,,,360.15488488200026,None,360.15488488200026,None,360.15488488200026,None,m,0,2.822559801999887,361.68818365900006,None,361.68818365900006,None,361.68818365900006,None,364.5736419290006,None,364.5736419290006,None,364.5736419290006,None,364.5736419290006,None,,,,,,,,,,,,,,,,,,,,,,,,,,,,,,,,,,,,,,,,,,,,001,85,2020_Feb_06_1220,spring_faces,3.1.5,60.00965519325312,
condition files/Stage1_2.xlsx,,T4,B4,m,"['c', 'm']","['Clue', 'Monopoly']","[-0.15, 0.5]","[0.15, 0.5]",1,1,,,,,,,,,0,1,1,1,0,0,0,7,,,,,,,,,,,,,,,,,,,,,,,,,,,,,,,,,,,,,,,,,,,,,,,,,,,,,,,366.5552497389999,None,366.5552497389999,None,366.5552497389999,None,m,1,1.9099773670004652,368.1046534069992,None,368.1046534069992,None,368.1046534069992,None,370.07147330000043,None,370.07147330000043,None,370.07147330000043,None,370.07147330000043,None,,,,,,,,,,,,,,,,,,,,,,,,,,,,,,,,,,,,,,,,,,,,001,85,2020_Feb_06_1220,spring_faces,3.1.5,60.00965519325312,
condition files/Stage1_2.xlsx,,T2,B1,c,"['c', 'm']","['Clue', 'Monopoly']","[-0.15, 0.5]","[0.15, 0.5]",1,1,,,,,,,,,0,1,1,1,0,1,1,1,,,,,,,,,,,,,,,,,,,,,,,,,,,,,,,,,,,,,,,,,,,,,,,,,,,,,,,372.0377843739989,None,372.0377843739989,None,372.0377843739989,None,c,1,1.3072429200001352,373.57151567599976,None,373.57151567599976,None,373.57151567599976,None,374.9380701680002,None,374.9380701680002,None,374.9380701680002,None,374.9380701680002,None,,,,,,,,,,,,,,,,,,,,,,,,,,,,,,,,,,,,,,,,,,,,001,85,2020_Feb_06_1220,spring_faces,3.1.5,60.00965519325312,
condition files/Stage1_2.xlsx,,B4,T3,c,"['c', 'm']","['Clue', 'Monopoly']","[-0.15, 0.5]","[0.15, 0.5]",1,1,,,,,,,,,0,1,1,1,0,2,2,5,,,,,,,,,,,,,,,,,,,,,,,,,,,,,,,,,,,,,,,,,,,,,,,,,,,,,,,376.9049917480006,None,376.9049917480006,None,376.9049917480006,None,c,1,1.5100504530000762,378.44064359599906,None,378.44064359599906,None,378.44064359599906,None,380.0045463860006,None,380.0045463860006,None,380.0045463860006,None,380.0045463860006,None,,,,,,,,,,,,,,,,,,,,,,,,,,,,,,,,,,,,,,,,,,,,001,85,2020_Feb_06_1220,spring_faces,3.1.5,60.00965519325312,
condition files/Stage1_2.xlsx,,T1,B2,m,"['c', 'm']","['Clue', 'Monopoly']","[-0.15, 0.5]","[0.15, 0.5]",1,1,,,,,,,,,0,1,1,1,0,3,3,2,,,,,,,,,,,,,,,,,,,,,,,,,,,,,,,,,,,,,,,,,,,,,,,,,,,,,,,381.97162394899897,None,381.97162394899897,None,381.97162394899897,None,m,1,1.581318590000592,383.52134283399937,None,383.52134283399937,None,383.52134283399937,None,385.1573873109992,None,385.1573873109992,None,385.1573873109992,None,385.1573873109992,None,,,,,,,,,,,,,,,,,,,,,,,,,,,,,,,,,,,,,,,,,,,,001,85,2020_Feb_06_1220,spring_faces,3.1.5,60.00965519325312,
condition files/Stage1_2.xlsx,,B2,T2,m,"['c', 'm']","['Clue', 'Monopoly']","[-0.15, 0.5]","[0.15, 0.5]",1,1,,,,,,,,,0,1,1,1,0,4,4,3,,,,,,,,,,,,,,,,,,,,,,,,,,,,,,,,,,,,,,,,,,,,,,,,,,,,,,,387.121839763,None,387.121839763,None,387.121839763,None,m,1,1.9357417970004462,388.65493201699974,None,388.65493201699974,None,388.65493201699974,None,390.6550396090006,None,390.6550396090006,None,390.6550396090006,None,390.6550396090006,None,,,,,,,,,,,,,,,,,,,,,,,,,,,,,,,,,,,,,,,,,,,,001,85,2020_Feb_06_1220,spring_faces,3.1.5,60.00965519325312,
condition files/Stage1_2.xlsx,,B3,T4,m,"['c', 'm']","['Clue', 'Monopoly']","[-0.15, 0.5]","[0.15, 0.5]",1,1,,,,,,,,,0,1,1,1,0,5,5,6,,,,,,,,,,,,,,,,,,,,,,,,,,,,,,,,,,,,,,,,,,,,,,,,,,,,,,,392.6219302949994,None,392.6219302949994,None,392.6219302949994,None,c,0,1.1698003779983992,394.1569011800002,None,394.1569011800002,None,394.1569011800002,None,395.3880158560005,None,395.3880158560005,None,395.3880158560005,None,395.3880158560005,None,,,,,,,,,,,,,,,,,,,,,,,,,,,,,,,,,,,,,,,,,,,,001,85,2020_Feb_06_1220,spring_faces,3.1.5,60.00965519325312,
condition files/Stage1_2.xlsx,,B1,T1,c,"['c', 'm']","['Clue', 'Monopoly']","[-0.15, 0.5]","[0.15, 0.5]",1,1,,,,,,,,,0,1,1,1,0,6,6,0,,,,,,,,,,,,,,,,,,,,,,,,,,,,,,,,,,,,,,,,,,,,,,,,,,,,,,,397.354425223999,None,397.354425223999,None,397.354425223999,None,c,1,2.1346194360012305,398.88803798700064,None,398.88803798700064,None,398.88803798700064,None,401.1048004999993,None,401.1048004999993,None,401.1048004999993,None,401.1048004999993,None,,,,,,,,,,,,,,,,,,,,,,,,,,,,,,,,,,,,,,,,,,,,001,85,2020_Feb_06_1220,spring_faces,3.1.5,60.00965519325312,
condition files/Stage1_2.xlsx,,T3,B3,c,"['c', 'm']","['Clue', 'Monopoly']","[-0.15, 0.5]","[0.15, 0.5]",1,1,,,,,,,,,0,1,1,1,0,7,7,4,,,,,,,,,,,,,,,,,,,,,,,,,,,,,,,,,,,,,,,,,,,,,,,,,,,,,,,403.0547180649992,None,403.0547180649992,None,403.0547180649992,None,c,1,1.955085922998478,404.5876009170006,None,404.5876009170006,None,404.5876009170006,None,406.604927118,None,406.604927118,None,406.604927118,None,406.604927118,None,,,,,,,,,,,,,,,,,,,,,,,,,,,,,,,,,,,,,,,,,,,,001,85,2020_Feb_06_1220,spring_faces,3.1.5,60.00965519325312,
condition files/Stage1_1.xlsx,,T3,B4,c,"['c', 'm']","['Clue', 'Monopoly']","[-0.15, 0.5]","[0.15, 0.5]",1,1,,,,,,,,,0,2,2,2,0,0,0,5,,,,,,,,,,,,,,,,,,,,,,,,,,,,,,,,,,,,,,,,,,,,,,,,,,,,,,,408.58848902200043,None,408.58848902200043,None,408.58848902200043,None,c,1,1.923912978001681,410.1388429309991,None,410.1388429309991,None,410.1388429309991,None,412.121733082,None,412.121733082,None,412.121733082,None,412.121733082,None,,,,,,,,,,,,,,,,,,,,,,,,,,,,,,,,,,,,,,,,,,,,001,85,2020_Feb_06_1220,spring_faces,3.1.5,60.00965519325312,
condition files/Stage1_1.xlsx,,B4,T4,m,"['c', 'm']","['Clue', 'Monopoly']","[-0.15, 0.5]","[0.15, 0.5]",1,1,,,,,,,,,0,2,2,2,0,1,1,7,,,,,,,,,,,,,,,,,,,,,,,,,,,,,,,,,,,,,,,,,,,,,,,,,,,,,,,414.0876801939994,None,414.0876801939994,None,414.0876801939994,None,m,1,1.1933803590000025,415.6212555339989,None,415.6212555339989,None,415.6212555339989,None,416.8712727379989,None,416.8712727379989,None,416.8712727379989,None,416.8712727379989,None,,,,,,,,,,,,,,,,,,,,,,,,,,,,,,,,,,,,,,,,,,,,001,85,2020_Feb_06_1220,spring_faces,3.1.5,60.00965519325312,
condition files/Stage1_1.xlsx,,B1,T2,c,"['c', 'm']","['Clue', 'Monopoly']","[-0.15, 0.5]","[0.15, 0.5]",1,1,,,,,,,,,0,2,2,2,0,2,2,1,,,,,,,,,,,,,,,,,,,,,,,,,,,,,,,,,,,,,,,,,,,,,,,,,,,,,,,418.8382967130001,None,418.8382967130001,None,418.8382967130001,None,m,0,1.9623433090000617,420.37234323899975,None,420.37234323899975,None,420.37234323899975,None,422.3888774669995,None,422.3888774669995,None,422.3888774669995,None,422.3888774669995,None,,,,,,,,,,,,,,,,,,,,,,,,,,,,,,,,,,,,,,,,,,,,001,85,2020_Feb_06_1220,spring_faces,3.1.5,60.00965519325312,
condition files/Stage1_1.xlsx,,T4,B3,m,"['c', 'm']","['Clue', 'Monopoly']","[-0.15, 0.5]","[0.15, 0.5]",1,1,,,,,,,,,0,2,2,2,0,3,3,6,,,,,,,,,,,,,,,,,,,,,,,,,,,,,,,,,,,,,,,,,,,,,,,,,,,,,,,424.3546293870004,None,424.3546293870004,None,424.3546293870004,None,m,1,2.2690713919982954,425.8896127749995,None,425.8896127749995,None,425.8896127749995,None,428.238562216,None,428.238562216,None,428.238562216,None,428.238562216,None,,,,,,,,,,,,,,,,,,,,,,,,,,,,,,,,,,,,,,,,,,,,001,85,2020_Feb_06_1220,spring_faces,3.1.5,60.00965519325312,
condition files/Stage1_1.xlsx,,T1,B1,c,"['c', 'm']","['Clue', 'Monopoly']","[-0.15, 0.5]","[0.15, 0.5]",1,1,,,,,,,,,0,2,2,2,0,4,4,0,,,,,,,,,,,,,,,,,,,,,,,,,,,,,,,,,,,,,,,,,,,,,,,,,,,,,,,430.18825565800034,None,430.18825565800034,None,430.18825565800034,None,c,1,2.7572772660005285,431.721465016999,None,431.721465016999,None,431.721465016999,None,434.5549464989999,None,434.5549464989999,None,434.5549464989999,None,434.5549464989999,None,,,,,,,,,,,,,,,,,,,,,,,,,,,,,,,,,,,,,,,,,,,,001,85,2020_Feb_06_1220,spring_faces,3.1.5,60.00965519325312,
condition files/Stage1_1.xlsx,,B3,T3,c,"['c', 'm']","['Clue', 'Monopoly']","[-0.15, 0.5]","[0.15, 0.5]",1,1,,,,,,,,,0,2,2,2,0,5,5,4,,,,,,,,,,,,,,,,,,,,,,,,,,,,,,,,,,,,,,,,,,,,,,,,,,,,,,,436.5050204670006,None,436.5050204670006,None,436.5050204670006,None,c,1,0.9200211110000964,438.0546586290002,None,438.0546586290002,None,438.0546586290002,None,439.0387615439995,None,439.0387615439995,None,439.0387615439995,None,439.0387615439995,None,,,,,,,,,,,,,,,,,,,,,,,,,,,,,,,,,,,,,,,,,,,,001,85,2020_Feb_06_1220,spring_faces,3.1.5,60.00965519325312,
condition files/Stage1_1.xlsx,,T2,B2,m,"['c', 'm']","['Clue', 'Monopoly']","[-0.15, 0.5]","[0.15, 0.5]",1,1,,,,,,,,,0,2,2,2,0,6,6,3,,,,,,,,,,,,,,,,,,,,,,,,,,,,,,,,,,,,,,,,,,,,,,,,,,,,,,,441.0049422789998,None,441.0049422789998,None,441.0049422789998,None,m,1,1.3163448630002677,442.538336566,None,442.538336566,None,442.538336566,None,443.92125070399925,None,443.92125070399925,None,443.92125070399925,None,443.92125070399925,None,,,,,,,,,,,,,,,,,,,,,,,,,,,,,,,,,,,,,,,,,,,,001,85,2020_Feb_06_1220,spring_faces,3.1.5,60.00965519325312,
condition files/Stage1_1.xlsx,,B2,T1,m,"['c', 'm']","['Clue', 'Monopoly']","[-0.15, 0.5]","[0.15, 0.5]",1,1,,,,,,,,,0,2,2,2,0,7,7,2,,,,,,,,,,,,,,,,,,,,,,,,,,,,,,,,,,,,,,,,,,,,,,,,,,,,,,,445.8712448850001,None,445.8712448850001,None,445.8712448850001,None,m,1,1.4575819980000233,447.40515144799974,None,447.40515144799974,None,447.40515144799974,None,448.92213135400016,None,448.92213135400016,None,448.92213135400016,None,448.92213135400016,None,,,,,,,,,,,,,,,,,,,,,,,,,,,,,,,,,,,,,,,,,,,,001,85,2020_Feb_06_1220,spring_faces,3.1.5,60.00965519325312,
condition files/Stage1_2.xlsx,,T3,B3,c,"['c', 'm']","['Clue', 'Monopoly']","[-0.15, 0.5]","[0.15, 0.5]",1,1,,,,,,,,,0,3,3,3,0,0,0,4,,,,,,,,,,,,,,,,,,,,,,,,,,,,,,,,,,,,,,,,,,,,,,,,,,,,,,,450.9054590649994,None,450.9054590649994,None,450.9054590649994,None,c,1,2.774447080000755,452.4401885360003,None,452.4401885360003,None,452.4401885360003,None,455.2714242809998,None,455.2714242809998,None,455.2714242809998,None,455.2714242809998,None,,,,,,,,,,,,,,,,,,,,,,,,,,,,,,,,,,,,,,,,,,,,001,85,2020_Feb_06_1220,spring_faces,3.1.5,60.00965519325312,
condition files/Stage1_2.xlsx,,B3,T4,m,"['c', 'm']","['Clue', 'Monopoly']","[-0.15, 0.5]","[0.15, 0.5]",1,1,,,,,,,,,0,3,3,3,0,1,1,6,,,,,,,,,,,,,,,,,,,,,,,,,,,,,,,,,,,,,,,,,,,,,,,,,,,,,,,457.23833468500015,None,457.23833468500015,None,457.23833468500015,None,m,1,2.200831050000488,458.7738565359996,None,458.7738565359996,None,458.7738565359996,None,461.03950426399933,None,461.03950426399933,None,461.03950426399933,None,461.03950426399933,None,,,,,,,,,,,,,,,,,,,,,,,,,,,,,,,,,,,,,,,,,,,,001,85,2020_Feb_06_1220,spring_faces,3.1.5,60.00965519325312,
condition files/Stage1_2.xlsx,,T4,B4,m,"['c', 'm']","['Clue', 'Monopoly']","[-0.15, 0.5]","[0.15, 0.5]",1,1,,,,,,,,,0,3,3,3,0,2,2,7,,,,,,,,,,,,,,,,,,,,,,,,,,,,,,,,,,,,,,,,,,,,,,,,,,,,,,,463.0049450909992,None,463.0049450909992,None,463.0049450909992,None,m,1,2.0346366929989017,464.54005052499997,None,464.54005052499997,None,464.54005052499997,None,466.6385334509996,None,466.6385334509996,None,466.6385334509996,None,466.6385334509996,None,,,,,,,,,,,,,,,,,,,,,,,,,,,,,,,,,,,,,,,,,,,,001,85,2020_Feb_06_1220,spring_faces,3.1.5,60.00965519325312,
condition files/Stage1_2.xlsx,,T2,B1,c,"['c', 'm']","['Clue', 'Monopoly']","[-0.15, 0.5]","[0.15, 0.5]",1,1,,,,,,,,,0,3,3,3,0,3,3,1,,,,,,,,,,,,,,,,,,,,,,,,,,,,,,,,,,,,,,,,,,,,,,,,,,,,,,,468.60466453299887,None,468.60466453299887,None,468.60466453299887,None,c,1,2.356588421000197,470.1381645420006,None,470.1381645420006,None,470.1381645420006,None,472.5724435789998,None,472.5724435789998,None,472.5724435789998,None,472.5724435789998,None,,,,,,,,,,,,,,,,,,,,,,,,,,,,,,,,,,,,,,,,,,,,001,85,2020_Feb_06_1220,spring_faces,3.1.5,60.00965519325312,
condition files/Stage1_2.xlsx,,B2,T2,m,"['c', 'm']","['Clue', 'Monopoly']","[-0.15, 0.5]","[0.15, 0.5]",1,1,,,,,,,,,0,3,3,3,0,4,4,3,,,,,,,,,,,,,,,,,,,,,,,,,,,,,,,,,,,,,,,,,,,,,,,,,,,,,,,474.5212317679998,None,474.5212317679998,None,474.5212317679998,None,c,0,3.7196936970012757,476.055004541,None,476.055004541,None,476.055004541,None,479.84032321499944,None,479.84032321499944,None,479.84032321499944,None,479.84032321499944,None,,,,,,,,,,,,,,,,,,,,,,,,,,,,,,,,,,,,,,,,,,,,001,85,2020_Feb_06_1220,spring_faces,3.1.5,60.00965519325312,
condition files/Stage1_2.xlsx,,T1,B2,m,"['c', 'm']","['Clue', 'Monopoly']","[-0.15, 0.5]","[0.15, 0.5]",1,1,,,,,,,,,0,3,3,3,0,5,5,2,,,,,,,,,,,,,,,,,,,,,,,,,,,,,,,,,,,,,,,,,,,,,,,,,,,,,,,481.8047427469992,None,481.8047427469992,None,481.8047427469992,None,m,1,1.3323117559993989,483.3383530560004,None,483.3383530560004,None,483.3383530560004,None,484.722099012999,None,484.722099012999,None,484.722099012999,None,484.722099012999,None,,,,,,,,,,,,,,,,,,,,,,,,,,,,,,,,,,,,,,,,,,,,001,85,2020_Feb_06_1220,spring_faces,3.1.5,60.00965519325312,
condition files/Stage1_2.xlsx,,B4,T3,c,"['c', 'm']","['Clue', 'Monopoly']","[-0.15, 0.5]","[0.15, 0.5]",1,1,,,,,,,,,0,3,3,3,0,6,6,5,,,,,,,,,,,,,,,,,,,,,,,,,,,,,,,,,,,,,,,,,,,,,,,,,,,,,,,486.6883164890005,None,486.6883164890005,None,486.6883164890005,None,c,1,2.5906503240003076,488.2239902349993,None,488.2239902349993,None,488.2239902349993,None,490.87323433500023,None,490.87323433500023,None,490.87323433500023,None,490.87323433500023,None,,,,,,,,,,,,,,,,,,,,,,,,,,,,,,,,,,,,,,,,,,,,001,85,2020_Feb_06_1220,spring_faces,3.1.5,60.00965519325312,
condition files/Stage1_2.xlsx,,B1,T1,c,"['c', 'm']","['Clue', 'Monopoly']","[-0.15, 0.5]","[0.15, 0.5]",1,1,,,,,,,,,0,3,3,3,0,7,7,0,,,,,,,,,,,,,,,,,,,,,,,,,,,,,,,,,,,,,,,,,,,,,,,,,,,,,,,492.83826206400045,None,492.83826206400045,None,492.83826206400045,None,m,0,2.3638097470011417,494.37087622999934,None,494.37087622999934,None,494.37087622999934,None,496.78846668999904,None,496.78846668999904,None,496.78846668999904,None,496.78846668999904,None,,,,,,,,,,,,,,,,,,,,,,,,,,,,,,,,,,,,,,,,,,,,001,85,2020_Feb_06_1220,spring_faces,3.1.5,60.00965519325312,
condition files/Stage1_1.xlsx,,T3,B4,c,"['c', 'm']","['Clue', 'Monopoly']","[-0.15, 0.5]","[0.15, 0.5]",1,1,,,,,,,,,0,4,4,4,0,0,0,5,,,,,,,,,,,,,,,,,,,,,,,,,,,,,,,,,,,,,,,,,,,,,,,,,,,,,,,498.7718730100005,None,498.7718730100005,None,498.7718730100005,None,c,1,1.8852771319998283,500.30541542100036,None,500.30541542100036,None,500.30541542100036,None,502.25504922300024,None,502.25504922300024,None,502.25504922300024,None,502.25504922300024,None,,,,,,,,,,,,,,,,,,,,,,,,,,,,,,,,,,,,,,,,,,,,001,85,2020_Feb_06_1220,spring_faces,3.1.5,60.00965519325312,
condition files/Stage1_1.xlsx,,B2,T1,m,"['c', 'm']","['Clue', 'Monopoly']","[-0.15, 0.5]","[0.15, 0.5]",1,1,,,,,,,,,0,4,4,4,0,1,1,2,,,,,,,,,,,,,,,,,,,,,,,,,,,,,,,,,,,,,,,,,,,,,,,,,,,,,,,504.22134700099923,None,504.22134700099923,None,504.22134700099923,None,m,1,2.4997643570004584,505.75489969299997,None,505.75489969299997,None,505.75489969299997,None,508.30730869299987,None,508.30730869299987,None,508.30730869299987,None,508.30730869299987,None,,,,,,,,,,,,,,,,,,,,,,,,,,,,,,,,,,,,,,,,,,,,001,85,2020_Feb_06_1220,spring_faces,3.1.5,60.00965519325312,
condition files/Stage1_1.xlsx,,T1,B1,c,"['c', 'm']","['Clue', 'Monopoly']","[-0.15, 0.5]","[0.15, 0.5]",1,1,,,,,,,,,0,4,4,4,0,2,2,0,,,,,,,,,,,,,,,,,,,,,,,,,,,,,,,,,,,,,,,,,,,,,,,,,,,,,,,510.27179483500004,None,510.27179483500004,None,510.27179483500004,None,m,0,2.1604430500010494,511.80620736699893,None,511.80620736699893,None,511.80620736699893,None,514.0385936160001,None,514.0385936160001,None,514.0385936160001,None,514.0385936160001,None,,,,,,,,,,,,,,,,,,,,,,,,,,,,,,,,,,,,,,,,,,,,001,85,2020_Feb_06_1220,spring_faces,3.1.5,60.00965519325312,
condition files/Stage1_1.xlsx,,T2,B2,m,"['c', 'm']","['Clue', 'Monopoly']","[-0.15, 0.5]","[0.15, 0.5]",1,1,,,,,,,,,0,4,4,4,0,3,3,3,,,,,,,,,,,,,,,,,,,,,,,,,,,,,,,,,,,,,,,,,,,,,,,,,,,,,,,515.9882100569994,None,515.9882100569994,None,515.9882100569994,None,m,1,1.7711615660009556,517.5235897279999,None,517.5235897279999,None,517.5235897279999,None,519.371671502,None,519.371671502,None,519.371671502,None,519.371671502,None,,,,,,,,,,,,,,,,,,,,,,,,,,,,,,,,,,,,,,,,,,,,001,85,2020_Feb_06_1220,spring_faces,3.1.5,60.00965519325312,
condition files/Stage1_1.xlsx,,B1,T2,c,"['c', 'm']","['Clue', 'Monopoly']","[-0.15, 0.5]","[0.15, 0.5]",1,1,,,,,,,,,0,4,4,4,0,4,4,1,,,,,,,,,,,,,,,,,,,,,,,,,,,,,,,,,,,,,,,,,,,,,,,,,,,,,,,521.321635078999,None,521.321635078999,None,521.321635078999,None,c,1,2.503449764999459,522.8552457699989,None,522.8552457699989,None,522.8552457699989,None,525.4381464679991,None,525.4381464679991,None,525.4381464679991,None,525.4381464679991,None,,,,,,,,,,,,,,,,,,,,,,,,,,,,,,,,,,,,,,,,,,,,001,85,2020_Feb_06_1220,spring_faces,3.1.5,60.00965519325312,
condition files/Stage1_1.xlsx,,T4,B3,m,"['c', 'm']","['Clue', 'Monopoly']","[-0.15, 0.5]","[0.15, 0.5]",1,1,,,,,,,,,0,4,4,4,0,5,5,6,,,,,,,,,,,,,,,,,,,,,,,,,,,,,,,,,,,,,,,,,,,,,,,,,,,,,,,527.3881777759998,None,527.3881777759998,None,527.3881777759998,None,m,1,3.1880423390011856,528.9386246739996,None,528.9386246739996,None,528.9386246739996,None,532.1892224359999,None,532.1892224359999,None,532.1892224359999,None,532.1892224359999,None,,,,,,,,,,,,,,,,,,,,,,,,,,,,,,,,,,,,,,,,,,,,001,85,2020_Feb_06_1220,spring_faces,3.1.5,60.00965519325312,
condition files/Stage1_1.xlsx,,B3,T3,c,"['c', 'm']","['Clue', 'Monopoly']","[-0.15, 0.5]","[0.15, 0.5]",1,1,,,,,,,,,0,4,4,4,0,6,6,4,,,,,,,,,,,,,,,,,,,,,,,,,,,,,,,,,,,,,,,,,,,,,,,,,,,,,,,534.1549675419992,None,534.1549675419992,None,534.1549675419992,None,c,1,1.7639007399993716,535.6907756689998,None,535.6907756689998,None,535.6907756689998,None,537.521866834999,None,537.521866834999,None,537.521866834999,None,537.521866834999,None,,,,,,,,,,,,,,,,,,,,,,,,,,,,,,,,,,,,,,,,,,,,001,85,2020_Feb_06_1220,spring_faces,3.1.5,60.00965519325312,
condition files/Stage1_1.xlsx,,B4,T4,m,"['c', 'm']","['Clue', 'Monopoly']","[-0.15, 0.5]","[0.15, 0.5]",1,1,,,,,,,,,0,4,4,4,0,7,7,7,,,,,,,,,,,,,,,,,,,,,,,,,,,,,,,,,,,,,,,,,,,,,,,,,,,,,,,539.4718436200001,None,539.4718436200001,None,539.4718436200001,None,m,1,1.601307861999885,541.021308166999,None,541.021308166999,None,541.021308166999,None,542.6893874039997,None,542.6893874039997,None,542.6893874039997,None,542.6893874039997,None,,,,,,,,,,,,,,,,,,,,,,,,,,,,,,,,,,,,,,,,,,,,001,85,2020_Feb_06_1220,spring_faces,3.1.5,60.00965519325312,
condition files/Stage1_2.xlsx,,B1,T1,c,"['c', 'm']","['Clue', 'Monopoly']","[-0.15, 0.5]","[0.15, 0.5]",1,1,,,,,,,,,0,5,5,5,0,0,0,0,,,,,,,,,,,,,,,,,,,,,,,,,,,,,,,,,,,,,,,,,,,,,,,,,,,,,,,544.671933141999,None,544.671933141999,None,544.671933141999,None,c,1,2.8334046509990003,546.2052329029993,None,546.2052329029993,None,546.2052329029993,None,549.1076837349992,None,549.1076837349992,None,549.1076837349992,None,549.1076837349992,None,,,,,,,,,,,,,,,,,,,,,,,,,,,,,,,,,,,,,,,,,,,,001,85,2020_Feb_06_1220,spring_faces,3.1.5,60.00965519325312,
condition files/Stage1_2.xlsx,,T3,B3,c,"['c', 'm']","['Clue', 'Monopoly']","[-0.15, 0.5]","[0.15, 0.5]",1,1,,,,,,,,,0,5,5,5,0,1,1,4,,,,,,,,,,,,,,,,,,,,,,,,,,,,,,,,,,,,,,,,,,,,,,,,,,,,,,,551.0715061409992,None,551.0715061409992,None,551.0715061409992,None,c,1,2.2397840120011097,552.606964356999,None,552.606964356999,None,552.606964356999,None,554.9050481510003,None,554.9050481510003,None,554.9050481510003,None,554.9050481510003,None,,,,,,,,,,,,,,,,,,,,,,,,,,,,,,,,,,,,,,,,,,,,001,85,2020_Feb_06_1220,spring_faces,3.1.5,60.00965519325312,
condition files/Stage1_2.xlsx,,B4,T3,c,"['c', 'm']","['Clue', 'Monopoly']","[-0.15, 0.5]","[0.15, 0.5]",1,1,,,,,,,,,0,5,5,5,0,2,2,5,,,,,,,,,,,,,,,,,,,,,,,,,,,,,,,,,,,,,,,,,,,,,,,,,,,,,,,556.8716558870001,None,556.8716558870001,None,556.8716558870001,None,c,1,1.4634586350002792,558.4072204099994,None,558.4072204099994,None,558.4072204099994,None,559.921880169999,None,559.921880169999,None,559.921880169999,None,559.921880169999,None,,,,,,,,,,,,,,,,,,,,,,,,,,,,,,,,,,,,,,,,,,,,001,85,2020_Feb_06_1220,spring_faces,3.1.5,60.00965519325312,
condition files/Stage1_2.xlsx,,B3,T4,m,"['c', 'm']","['Clue', 'Monopoly']","[-0.15, 0.5]","[0.15, 0.5]",1,1,,,,,,,,,0,5,5,5,0,3,3,6,,,,,,,,,,,,,,,,,,,,,,,,,,,,,,,,,,,,,,,,,,,,,,,,,,,,,,,561.8884612059992,None,561.8884612059992,None,561.8884612059992,None,m,1,1.6490055989997927,563.4216726129998,None,563.4216726129998,None,563.4216726129998,None,565.1381936229991,None,565.1381936229991,None,565.1381936229991,None,565.1381936229991,None,,,,,,,,,,,,,,,,,,,,,,,,,,,,,,,,,,,,,,,,,,,,001,85,2020_Feb_06_1220,spring_faces,3.1.5,60.00965519325312,
condition files/Stage1_2.xlsx,,T2,B1,c,"['c', 'm']","['Clue', 'Monopoly']","[-0.15, 0.5]","[0.15, 0.5]",1,1,,,,,,,,,0,5,5,5,0,4,4,1,,,,,,,,,,,,,,,,,,,,,,,,,,,,,,,,,,,,,,,,,,,,,,,,,,,,,,,567.0880384899992,None,567.0880384899992,None,567.0880384899992,None,c,1,2.4327782330001355,568.6219088639991,None,568.6219088639991,None,568.6219088639991,None,571.1068061330006,None,571.1068061330006,None,571.1068061330006,None,571.1068061330006,None,,,,,,,,,,,,,,,,,,,,,,,,,,,,,,,,,,,,,,,,,,,,001,85,2020_Feb_06_1220,spring_faces,3.1.5,60.00965519325312,
condition files/Stage1_2.xlsx,,B2,T2,m,"['c', 'm']","['Clue', 'Monopoly']","[-0.15, 0.5]","[0.15, 0.5]",1,1,,,,,,,,,0,5,5,5,0,5,5,3,,,,,,,,,,,,,,,,,,,,,,,,,,,,,,,,,,,,,,,,,,,,,,,,,,,,,,,573.0713984689992,None,573.0713984689992,None,573.0713984689992,None,m,1,2.527297381999233,574.6073877220006,None,574.6073877220006,None,574.6073877220006,None,577.1907137879989,None,577.1907137879989,None,577.1907137879989,None,577.1907137879989,None,,,,,,,,,,,,,,,,,,,,,,,,,,,,,,,,,,,,,,,,,,,,001,85,2020_Feb_06_1220,spring_faces,3.1.5,60.00965519325312,
condition files/Stage1_2.xlsx,,T4,B4,m,"['c', 'm']","['Clue', 'Monopoly']","[-0.15, 0.5]","[0.15, 0.5]",1,1,,,,,,,,,0,5,5,5,0,6,6,7,,,,,,,,,,,,,,,,,,,,,,,,,,,,,,,,,,,,,,,,,,,,,,,,,,,,,,,579.1545810419993,None,579.1545810419993,None,579.1545810419993,None,m,1,2.093701420000798,580.6890255849994,None,580.6890255849994,None,580.6890255849994,None,582.8385120999992,None,582.8385120999992,None,582.8385120999992,None,582.8385120999992,None,,,,,,,,,,,,,,,,,,,,,,,,,,,,,,,,,,,,,,,,,,,,001,85,2020_Feb_06_1220,spring_faces,3.1.5,60.00965519325312,
condition files/Stage1_2.xlsx,,T1,B2,m,"['c', 'm']","['Clue', 'Monopoly']","[-0.15, 0.5]","[0.15, 0.5]",1,1,,,,,,,,,0,5,5,5,0,7,7,2,,,,,,,,,,,,,,,,,,,,,,,,,,,,,,,,,,,,,,,,,,,,,,,,,,,,,,,584.8048132499989,None,584.8048132499989,None,584.8048132499989,None,m,1,1.7403982340001676,586.3383654089994,None,586.3383654089994,None,586.3383654089994,None,588.1386576940004,None,588.1386576940004,None,588.1386576940004,None,588.1386576940004,None,,,,,,,,,,,,,,,,,,,,,,,,,,,,,,,,,,,,,,,,,,,,001,85,2020_Feb_06_1220,spring_faces,3.1.5,60.00965519325312,
condition files/Stage1_1.xlsx,,T2,B2,m,"['c', 'm']","['Clue', 'Monopoly']","[-0.15, 0.5]","[0.15, 0.5]",1,1,,,,,,,,,0,6,6,6,0,0,0,3,,,,,,,,,,,,,,,,,,,,,,,,,,,,,,,,,,,,,,,,,,,,,,,,,,,,,,,590.1218673509993,None,590.1218673509993,None,590.1218673509993,None,m,1,1.062832408999384,591.6718515659995,None,591.6718515659995,None,591.6718515659995,None,592.7884560900002,None,592.7884560900002,None,592.7884560900002,None,592.7884560900002,None,,,,,,,,,,,,,,,,,,,,,,,,,,,,,,,,,,,,,,,,,,,,001,85,2020_Feb_06_1220,spring_faces,3.1.5,60.00965519325312,
condition files/Stage1_1.xlsx,,B4,T4,m,"['c', 'm']","['Clue', 'Monopoly']","[-0.15, 0.5]","[0.15, 0.5]",1,1,,,,,,,,,0,6,6,6,0,1,1,7,,,,,,,,,,,,,,,,,,,,,,,,,,,,,,,,,,,,,,,,,,,,,,,,,,,,,,,594.7548035290001,None,594.7548035290001,None,594.7548035290001,None,m,1,1.05357702999936,596.2891209879999,None,596.2891209879999,None,596.2891209879999,None,597.4050295050001,None,597.4050295050001,None,597.4050295050001,None,597.4050295050001,None,,,,,,,,,,,,,,,,,,,,,,,,,,,,,,,,,,,,,,,,,,,,001,85,2020_Feb_06_1220,spring_faces,3.1.5,60.00965519325312,
condition files/Stage1_1.xlsx,,T4,B3,m,"['c', 'm']","['Clue', 'Monopoly']","[-0.15, 0.5]","[0.15, 0.5]",1,1,,,,,,,,,0,6,6,6,0,2,2,6,,,,,,,,,,,,,,,,,,,,,,,,,,,,,,,,,,,,,,,,,,,,,,,,,,,,,,,599.3716169210002,None,599.3716169210002,None,599.3716169210002,None,m,1,1.604261405998841,600.906434257,None,600.906434257,None,600.906434257,None,602.5718389949998,None,602.5718389949998,None,602.5718389949998,None,602.5718389949998,None,,,,,,,,,,,,,,,,,,,,,,,,,,,,,,,,,,,,,,,,,,,,001,85,2020_Feb_06_1220,spring_faces,3.1.5,60.00965519325312,
condition files/Stage1_1.xlsx,,T3,B4,c,"['c', 'm']","['Clue', 'Monopoly']","[-0.15, 0.5]","[0.15, 0.5]",1,1,,,,,,,,,0,6,6,6,0,3,3,5,,,,,,,,,,,,,,,,,,,,,,,,,,,,,,,,,,,,,,,,,,,,,,,,,,,,,,,604.5381056370006,None,604.5381056370006,None,604.5381056370006,None,c,1,1.5267929159999767,606.0878312989989,None,606.0878312989989,None,606.0878312989989,None,607.6714357540004,None,607.6714357540004,None,607.6714357540004,None,607.6714357540004,None,,,,,,,,,,,,,,,,,,,,,,,,,,,,,,,,,,,,,,,,,,,,001,85,2020_Feb_06_1220,spring_faces,3.1.5,60.00965519325312,
condition files/Stage1_1.xlsx,,B2,T1,m,"['c', 'm']","['Clue', 'Monopoly']","[-0.15, 0.5]","[0.15, 0.5]",1,1,,,,,,,,,0,6,6,6,0,4,4,2,,,,,,,,,,,,,,,,,,,,,,,,,,,,,,,,,,,,,,,,,,,,,,,,,,,,,,,609.6382527049991,None,609.6382527049991,None,609.6382527049991,None,m,1,1.337631873000646,611.173082551999,None,611.173082551999,None,611.173082551999,None,612.5730769679994,None,612.5730769679994,None,612.5730769679994,None,612.5730769679994,None,,,,,,,,,,,,,,,,,,,,,,,,,,,,,,,,,,,,,,,,,,,,001,85,2020_Feb_06_1220,spring_faces,3.1.5,60.00965519325312,
condition files/Stage1_1.xlsx,,B1,T2,c,"['c', 'm']","['Clue', 'Monopoly']","[-0.15, 0.5]","[0.15, 0.5]",1,1,,,,,,,,,0,6,6,6,0,5,5,1,,,,,,,,,,,,,,,,,,,,,,,,,,,,,,,,,,,,,,,,,,,,,,,,,,,,,,,614.5380084110002,None,614.5380084110002,None,614.5380084110002,None,c,1,1.8792576110008667,616.0713918929996,None,616.0713918929996,None,616.0713918929996,None,618.0071069810001,None,618.0071069810001,None,618.0071069810001,None,618.0071069810001,None,,,,,,,,,,,,,,,,,,,,,,,,,,,,,,,,,,,,,,,,,,,,001,85,2020_Feb_06_1220,spring_faces,3.1.5,60.00965519325312,
condition files/Stage1_1.xlsx,,B3,T3,c,"['c', 'm']","['Clue', 'Monopoly']","[-0.15, 0.5]","[0.15, 0.5]",1,1,,,,,,,,,0,6,6,6,0,6,6,4,,,,,,,,,,,,,,,,,,,,,,,,,,,,,,,,,,,,,,,,,,,,,,,,,,,,,,,619.9716245119998,None,619.9716245119998,None,619.9716245119998,None,c,1,1.5327044700006809,621.5059809359991,None,621.5059809359991,None,621.5059809359991,None,623.0878057059999,None,623.0878057059999,None,623.0878057059999,None,623.0878057059999,None,,,,,,,,,,,,,,,,,,,,,,,,,,,,,,,,,,,,,,,,,,,,001,85,2020_Feb_06_1220,spring_faces,3.1.5,60.00965519325312,
condition files/Stage1_1.xlsx,,T1,B1,c,"['c', 'm']","['Clue', 'Monopoly']","[-0.15, 0.5]","[0.15, 0.5]",1,1,,,,,,,,,0,6,6,6,0,7,7,0,,,,,,,,,,,,,,,,,,,,,,,,,,,,,,,,,,,,,,,,,,,,,,,,,,,,,,,625.0549965009996,None,625.0549965009996,None,625.0549965009996,None,c,1,2.8013432699990517,626.5893490929993,None,626.5893490929993,None,626.5893490929993,None,629.455411297,None,629.455411297,None,629.455411297,None,629.455411297,None,,,,,,,,,,,,,,,,,,,,,,,,,,,,,,,,,,,,,,,,,,,,001,85,2020_Feb_06_1220,spring_faces,3.1.5,60.00965519325312,
condition files/Stage1_2.xlsx,,T3,B3,c,"['c', 'm']","['Clue', 'Monopoly']","[-0.15, 0.5]","[0.15, 0.5]",1,1,,,,,,,,,0,7,7,7,0,0,0,4,,,,,,,,,,,,,,,,,,,,,,,,,,,,,,,,,,,,,,,,,,,,,,,,,,,,,,,631.4388028720005,None,631.4388028720005,None,631.4388028720005,None,c,1,1.538148444999024,632.9885343459991,None,632.9885343459991,None,632.9885343459991,None,634.588146746999,None,634.588146746999,None,634.588146746999,None,634.588146746999,None,,,,,,,,,,,,,,,,,,,,,,,,,,,,,,,,,,,,,,,,,,,,001,85,2020_Feb_06_1220,spring_faces,3.1.5,60.00965519325312,
condition files/Stage1_2.xlsx,,T1,B2,m,"['c', 'm']","['Clue', 'Monopoly']","[-0.15, 0.5]","[0.15, 0.5]",1,1,,,,,,,,,0,7,7,7,0,1,1,2,,,,,,,,,,,,,,,,,,,,,,,,,,,,,,,,,,,,,,,,,,,,,,,,,,,,,,,636.555146843999,None,636.555146843999,None,636.555146843999,None,m,1,1.2537221200000204,638.0889626009994,None,638.0889626009994,None,638.0889626009994,None,639.4056660820006,None,639.4056660820006,None,639.4056660820006,None,639.4056660820006,None,,,,,,,,,,,,,,,,,,,,,,,,,,,,,,,,,,,,,,,,,,,,001,85,2020_Feb_06_1220,spring_faces,3.1.5,60.00965519325312,
condition files/Stage1_2.xlsx,,B4,T3,c,"['c', 'm']","['Clue', 'Monopoly']","[-0.15, 0.5]","[0.15, 0.5]",1,1,,,,,,,,,0,7,7,7,0,2,2,5,,,,,,,,,,,,,,,,,,,,,,,,,,,,,,,,,,,,,,,,,,,,,,,,,,,,,,,641.3717113210005,None,641.3717113210005,None,641.3717113210005,None,c,1,1.6036584150006092,642.9070757249992,None,642.9070757249992,None,642.9070757249992,None,644.5740506479997,None,644.5740506479997,None,644.5740506479997,None,644.5740506479997,None,,,,,,,,,,,,,,,,,,,,,,,,,,,,,,,,,,,,,,,,,,,,001,85,2020_Feb_06_1220,spring_faces,3.1.5,60.00965519325312,
condition files/Stage1_2.xlsx,,B3,T4,m,"['c', 'm']","['Clue', 'Monopoly']","[-0.15, 0.5]","[0.15, 0.5]",1,1,,,,,,,,,0,7,7,7,0,3,3,6,,,,,,,,,,,,,,,,,,,,,,,,,,,,,,,,,,,,,,,,,,,,,,,,,,,,,,,646.5383192699992,None,646.5383192699992,None,646.5383192699992,None,m,1,1.766171213999769,648.0884972660006,None,648.0884972660006,None,648.0884972660006,None,649.9074090359991,None,649.9074090359991,None,649.9074090359991,None,649.9074090359991,None,,,,,,,,,,,,,,,,,,,,,,,,,,,,,,,,,,,,,,,,,,,,001,85,2020_Feb_06_1220,spring_faces,3.1.5,60.00965519325312,
condition files/Stage1_2.xlsx,,T4,B4,m,"['c', 'm']","['Clue', 'Monopoly']","[-0.15, 0.5]","[0.15, 0.5]",1,1,,,,,,,,,0,7,7,7,0,4,4,7,,,,,,,,,,,,,,,,,,,,,,,,,,,,,,,,,,,,,,,,,,,,,,,,,,,,,,,651.8718319899999,None,651.8718319899999,None,651.8718319899999,None,m,1,2.2725330630000826,653.4062268019989,None,653.4062268019989,None,653.4062268019989,None,655.7385506800001,None,655.7385506800001,None,655.7385506800001,None,655.7385506800001,None,,,,,,,,,,,,,,,,,,,,,,,,,,,,,,,,,,,,,,,,,,,,001,85,2020_Feb_06_1220,spring_faces,3.1.5,60.00965519325312,
condition files/Stage1_2.xlsx,,B2,T2,m,"['c', 'm']","['Clue', 'Monopoly']","[-0.15, 0.5]","[0.15, 0.5]",1,1,,,,,,,,,0,7,7,7,0,5,5,3,,,,,,,,,,,,,,,,,,,,,,,,,,,,,,,,,,,,,,,,,,,,,,,,,,,,,,,657.7045795239992,None,657.7045795239992,None,657.7045795239992,None,m,1,1.8474067020015355,659.2552562410001,None,659.2552562410001,None,659.2552562410001,None,661.1550391729998,None,661.1550391729998,None,661.1550391729998,None,661.1550391729998,None,,,,,,,,,,,,,,,,,,,,,,,,,,,,,,,,,,,,,,,,,,,,001,85,2020_Feb_06_1220,spring_faces,3.1.5,60.00965519325312,
condition files/Stage1_2.xlsx,,B1,T1,c,"['c', 'm']","['Clue', 'Monopoly']","[-0.15, 0.5]","[0.15, 0.5]",1,1,,,,,,,,,0,7,7,7,0,6,6,0,,,,,,,,,,,,,,,,,,,,,,,,,,,,,,,,,,,,,,,,,,,,,,,,,,,,,,,663.1213013380002,None,663.1213013380002,None,663.1213013380002,None,c,1,2.958540734000053,664.6560823799991,None,664.6560823799991,None,664.6560823799991,None,667.6743184900006,None,667.6743184900006,None,667.6743184900006,None,667.6743184900006,None,,,,,,,,,,,,,,,,,,,,,,,,,,,,,,,,,,,,,,,,,,,,001,85,2020_Feb_06_1220,spring_faces,3.1.5,60.00965519325312,
condition files/Stage1_2.xlsx,,T2,B1,c,"['c', 'm']","['Clue', 'Monopoly']","[-0.15, 0.5]","[0.15, 0.5]",1,1,,,,,,,,,0,7,7,7,0,7,7,1,,,,,,,,,,,,,,,,,,,,,,,,,,,,,,,,,,,,,,,,,,,,,,,,,,,,,,,669.638386708999,None,669.638386708999,None,669.638386708999,None,c,1,1.9152740299996367,671.1714070399994,None,671.1714070399994,None,671.1714070399994,None,673.1385748499997,None,673.1385748499997,None,673.1385748499997,None,673.1385748499997,None,,,,,,,,,,,,,,,,,,,,,,,,,,,,,,,,,,,,,,,,,,,,001,85,2020_Feb_06_1220,spring_faces,3.1.5,60.00965519325312,
condition files/Stage1_1.xlsx,,B4,T4,m,"['c', 'm']","['Clue', 'Monopoly']","[-0.15, 0.5]","[0.15, 0.5]",1,1,,,,,,,,,0,8,8,8,0,0,0,7,,,,,,,,,,,,,,,,,,,,,,,,,,,,,,,,,,,,,,,,,,,,,,,,,,,,,,,675.1217738619998,None,675.1217738619998,None,675.1217738619998,None,m,1,1.7279175219991885,676.6547802839996,None,676.6547802839996,None,676.6547802839996,None,678.4552764939999,None,678.4552764939999,None,678.4552764939999,None,678.4552764939999,None,,,,,,,,,,,,,,,,,,,,,,,,,,,,,,,,,,,,,,,,,,,,001,85,2020_Feb_06_1220,spring_faces,3.1.5,60.00965519325312,
condition files/Stage1_1.xlsx,,T4,B3,m,"['c', 'm']","['Clue', 'Monopoly']","[-0.15, 0.5]","[0.15, 0.5]",1,1,,,,,,,,,0,8,8,8,0,1,1,6,,,,,,,,,,,,,,,,,,,,,,,,,,,,,,,,,,,,,,,,,,,,,,,,,,,,,,,680.4049947610001,None,680.4049947610001,None,680.4049947610001,None,m,1,2.235740282001643,681.9549326609995,None,681.9549326609995,None,681.9549326609995,None,684.2555324610003,None,684.2555324610003,None,684.2555324610003,None,684.2555324610003,None,,,,,,,,,,,,,,,,,,,,,,,,,,,,,,,,,,,,,,,,,,,,001,85,2020_Feb_06_1220,spring_faces,3.1.5,60.00965519325312,
condition files/Stage1_1.xlsx,,B1,T2,c,"['c', 'm']","['Clue', 'Monopoly']","[-0.15, 0.5]","[0.15, 0.5]",1,1,,,,,,,,,0,8,8,8,0,2,2,1,,,,,,,,,,,,,,,,,,,,,,,,,,,,,,,,,,,,,,,,,,,,,,,,,,,,,,,686.221768469999,None,686.221768469999,None,686.221768469999,None,c,1,2.530441482000242,687.7722282880004,None,687.7722282880004,None,687.7722282880004,None,690.3713854279995,None,690.3713854279995,None,690.3713854279995,None,690.3713854279995,None,,,,,,,,,,,,,,,,,,,,,,,,,,,,,,,,,,,,,,,,,,,,001,85,2020_Feb_06_1220,spring_faces,3.1.5,60.00965519325312,
condition files/Stage1_1.xlsx,,B2,T1,m,"['c', 'm']","['Clue', 'Monopoly']","[-0.15, 0.5]","[0.15, 0.5]",1,1,,,,,,,,,0,8,8,8,0,3,3,2,,,,,,,,,,,,,,,,,,,,,,,,,,,,,,,,,,,,,,,,,,,,,,,,,,,,,,,692.3216440889992,None,692.3216440889992,None,692.3216440889992,None,m,1,1.6307881150005414,693.871883578,None,693.871883578,None,693.871883578,None,695.5558187160004,None,695.5558187160004,None,695.5558187160004,None,695.5558187160004,None,,,,,,,,,,,,,,,,,,,,,,,,,,,,,,,,,,,,,,,,,,,,001,85,2020_Feb_06_1220,spring_faces,3.1.5,60.00965519325312,
condition files/Stage1_1.xlsx,,T1,B1,c,"['c', 'm']","['Clue', 'Monopoly']","[-0.15, 0.5]","[0.15, 0.5]",1,1,,,,,,,,,0,8,8,8,0,4,4,0,,,,,,,,,,,,,,,,,,,,,,,,,,,,,,,,,,,,,,,,,,,,,,,,,,,,,,,697.5212652779992,None,697.5212652779992,None,697.5212652779992,None,c,1,4.09516772400093,699.0555127409989,None,699.0555127409989,None,699.0555127409989,None,703.206643128,None,703.206643128,None,703.206643128,None,703.206643128,None,,,,,,,,,,,,,,,,,,,,,,,,,,,,,,,,,,,,,,,,,,,,001,85,2020_Feb_06_1220,spring_faces,3.1.5,60.00965519325312,
condition files/Stage1_1.xlsx,,T2,B2,m,"['c', 'm']","['Clue', 'Monopoly']","[-0.15, 0.5]","[0.15, 0.5]",1,1,,,,,,,,,0,8,8,8,0,5,5,3,,,,,,,,,,,,,,,,,,,,,,,,,,,,,,,,,,,,,,,,,,,,,,,,,,,,,,,705.1712424199995,None,705.1712424199995,None,705.1712424199995,None,m,1,0.9721615110011044,706.706596467,None,706.706596467,None,706.706596467,None,707.738615590999,None,707.738615590999,None,707.738615590999,None,707.738615590999,None,,,,,,,,,,,,,,,,,,,,,,,,,,,,,,,,,,,,,,,,,,,,001,85,2020_Feb_06_1220,spring_faces,3.1.5,60.00965519325312,
condition files/Stage1_1.xlsx,,T3,B4,c,"['c', 'm']","['Clue', 'Monopoly']","[-0.15, 0.5]","[0.15, 0.5]",1,1,,,,,,,,,0,8,8,8,0,6,6,5,,,,,,,,,,,,,,,,,,,,,,,,,,,,,,,,,,,,,,,,,,,,,,,,,,,,,,,709.7049273600005,None,709.7049273600005,None,709.7049273600005,None,c,1,1.3042024429996673,711.2385028869994,None,711.2385028869994,None,711.2385028869994,None,712.6048052799997,None,712.6048052799997,None,712.6048052799997,None,712.6048052799997,None,,,,,,,,,,,,,,,,,,,,,,,,,,,,,,,,,,,,,,,,,,,,001,85,2020_Feb_06_1220,spring_faces,3.1.5,60.00965519325312,
condition files/Stage1_1.xlsx,,B3,T3,c,"['c', 'm']","['Clue', 'Monopoly']","[-0.15, 0.5]","[0.15, 0.5]",1,1,,,,,,,,,0,8,8,8,0,7,7,4,,,,,,,,,,,,,,,,,,,,,,,,,,,,,,,,,,,,,,,,,,,,,,,,,,,,,,,714.5717358359998,None,714.5717358359998,None,714.5717358359998,None,c,1,0.6934240249993309,716.1053337470003,None,716.1053337470003,None,716.1053337470003,None,716.8550153180004,None,716.8550153180004,None,716.8550153180004,None,716.8550153180004,None,,,,,,,,,,,,,,,,,,,,,,,,,,,,,,,,,,,,,,,,,,,,001,85,2020_Feb_06_1220,spring_faces,3.1.5,60.00965519325312,
condition files/Stage1_2.xlsx,,B1,T1,c,"['c', 'm']","['Clue', 'Monopoly']","[-0.15, 0.5]","[0.15, 0.5]",1,1,,,,,,,,,0,9,9,9,0,0,0,0,,,,,,,,,,,,,,,,,,,,,,,,,,,,,,,,,,,,,,,,,,,,,,,,,,,,,,,718.8380591610003,None,718.8380591610003,None,718.8380591610003,None,c,1,2.2326292260004266,720.3740205089998,None,720.3740205089998,None,720.3740205089998,None,722.6713195920001,None,722.6713195920001,None,722.6713195920001,None,722.6713195920001,None,,,,,,,,,,,,,,,,,,,,,,,,,,,,,,,,,,,,,,,,,,,,001,85,2020_Feb_06_1220,spring_faces,3.1.5,60.00965519325312,
condition files/Stage1_2.xlsx,,T3,B3,c,"['c', 'm']","['Clue', 'Monopoly']","[-0.15, 0.5]","[0.15, 0.5]",1,1,,,,,,,,,0,9,9,9,0,1,1,4,,,,,,,,,,,,,,,,,,,,,,,,,,,,,,,,,,,,,,,,,,,,,,,,,,,,,,,724.6374335010005,None,724.6374335010005,None,724.6374335010005,None,c,1,1.4588874000000942,726.1718752090001,None,726.1718752090001,None,726.1718752090001,None,727.6884573160005,None,727.6884573160005,None,727.6884573160005,None,727.6884573160005,None,,,,,,,,,,,,,,,,,,,,,,,,,,,,,,,,,,,,,,,,,,,,001,85,2020_Feb_06_1220,spring_faces,3.1.5,60.00965519325312,
condition files/Stage1_2.xlsx,,T4,B4,m,"['c', 'm']","['Clue', 'Monopoly']","[-0.15, 0.5]","[0.15, 0.5]",1,1,,,,,,,,,0,9,9,9,0,2,2,7,,,,,,,,,,,,,,,,,,,,,,,,,,,,,,,,,,,,,,,,,,,,,,,,,,,,,,,729.6550368999997,None,729.6550368999997,None,729.6550368999997,None,m,1,1.0495073630008847,731.2051575499991,None,731.2051575499991,None,731.2051575499991,None,732.3221597669999,None,732.3221597669999,None,732.3221597669999,None,732.3221597669999,None,,,,,,,,,,,,,,,,,,,,,,,,,,,,,,,,,,,,,,,,,,,,001,85,2020_Feb_06_1220,spring_faces,3.1.5,60.00965519325312,
condition files/Stage1_2.xlsx,,B4,T3,c,"['c', 'm']","['Clue', 'Monopoly']","[-0.15, 0.5]","[0.15, 0.5]",1,1,,,,,,,,,0,9,9,9,0,3,3,5,,,,,,,,,,,,,,,,,,,,,,,,,,,,,,,,,,,,,,,,,,,,,,,,,,,,,,,734.2717134720006,None,734.2717134720006,None,734.2717134720006,None,c,1,0.7211747590008599,735.8055171659998,None,735.8055171659998,None,735.8055171659998,None,736.6049924269992,None,736.6049924269992,None,736.6049924269992,None,736.6049924269992,None,,,,,,,,,,,,,,,,,,,,,,,,,,,,,,,,,,,,,,,,,,,,001,85,2020_Feb_06_1220,spring_faces,3.1.5,60.00965519325312,
condition files/Stage1_2.xlsx,,B2,T2,m,"['c', 'm']","['Clue', 'Monopoly']","[-0.15, 0.5]","[0.15, 0.5]",1,1,,,,,,,,,0,9,9,9,0,4,4,3,,,,,,,,,,,,,,,,,,,,,,,,,,,,,,,,,,,,,,,,,,,,,,,,,,,,,,,738.5544061990004,None,738.5544061990004,None,738.5544061990004,None,m,1,1.0947159070001362,740.0879850849997,None,740.0879850849997,None,740.0879850849997,None,741.255426193,None,741.255426193,None,741.255426193,None,741.255426193,None,,,,,,,,,,,,,,,,,,,,,,,,,,,,,,,,,,,,,,,,,,,,001,85,2020_Feb_06_1220,spring_faces,3.1.5,60.00965519325312,
condition files/Stage1_2.xlsx,,B3,T4,m,"['c', 'm']","['Clue', 'Monopoly']","[-0.15, 0.5]","[0.15, 0.5]",1,1,,,,,,,,,0,9,9,9,0,5,5,6,,,,,,,,,,,,,,,,,,,,,,,,,,,,,,,,,,,,,,,,,,,,,,,,,,,,,,,743.204880584999,None,743.204880584999,None,743.204880584999,None,m,1,2.251103096001316,744.7555325180001,None,744.7555325180001,None,744.7555325180001,None,747.0720401269991,None,747.0720401269991,None,747.0720401269991,None,747.0720401269991,None,,,,,,,,,,,,,,,,,,,,,,,,,,,,,,,,,,,,,,,,,,,,001,85,2020_Feb_06_1220,spring_faces,3.1.5,60.00965519325312,
condition files/Stage1_2.xlsx,,T2,B1,c,"['c', 'm']","['Clue', 'Monopoly']","[-0.15, 0.5]","[0.15, 0.5]",1,1,,,,,,,,,0,9,9,9,0,6,6,1,,,,,,,,,,,,,,,,,,,,,,,,,,,,,,,,,,,,,,,,,,,,,,,,,,,,,,,749.0378334920006,None,749.0378334920006,None,749.0378334920006,None,c,1,1.5709688210008608,750.5717331849992,None,750.5717331849992,None,750.5717331849992,None,752.2220263220006,None,752.2220263220006,None,752.2220263220006,None,752.2220263220006,None,,,,,,,,,,,,,,,,,,,,,,,,,,,,,,,,,,,,,,,,,,,,001,85,2020_Feb_06_1220,spring_faces,3.1.5,60.00965519325312,
condition files/Stage1_2.xlsx,,T1,B2,m,"['c', 'm']","['Clue', 'Monopoly']","[-0.15, 0.5]","[0.15, 0.5]",1,1,,,,,,,,,0,9,9,9,0,7,7,2,,,,,,,,,,,,,,,,,,,,,,,,,,,,,,,,,,,,,,,,,,,,,,,,,,,,,,,754.1718209339997,None,754.1718209339997,None,754.1718209339997,None,m,1,1.38083260699932,755.7218439320004,None,755.7218439320004,None,755.7218439320004,None,757.1561362899993,None,757.1561362899993,None,757.1561362899993,None,757.1561362899993,None,,,,,,,,,,,,,,,,,,,,,,,,,,,,,,,,,,,,,,,,,,,,001,85,2020_Feb_06_1220,spring_faces,3.1.5,60.00965519325312,
condition files/Stage1_1.xlsx,,T4,B3,m,"['c', 'm']","['Clue', 'Monopoly']","[-0.15, 0.5]","[0.15, 0.5]",1,1,,,,,,,,,0,10,10,10,0,0,0,6,,,,,,,,,,,,,,,,,,,,,,,,,,,,,,,,,,,,,,,,,,,,,,,,,,,,,,,759.1383575750006,None,759.1383575750006,None,759.1383575750006,None,m,1,1.2307165050006006,760.6879694580002,None,760.6879694580002,None,760.6879694580002,None,761.9714847329997,None,761.9714847329997,None,761.9714847329997,None,761.9714847329997,None,,,,,,,,,,,,,,,,,,,,,,,,,,,,,,,,,,,,,,,,,,,,001,85,2020_Feb_06_1220,spring_faces,3.1.5,60.00965519325312,
condition files/Stage1_1.xlsx,,T1,B1,c,"['c', 'm']","['Clue', 'Monopoly']","[-0.15, 0.5]","[0.15, 0.5]",1,1,,,,,,,,,0,10,10,10,0,1,1,0,,,,,,,,,,,,,,,,,,,,,,,,,,,,,,,,,,,,,,,,,,,,,,,,,,,,,,,763.9383243960001,None,763.9383243960001,None,763.9383243960001,None,c,1,2.1260476460010977,765.4727041739989,None,765.4727041739989,None,765.4727041739989,None,767.656921324,None,767.656921324,None,767.656921324,None,767.656921324,None,,,,,,,,,,,,,,,,,,,,,,,,,,,,,,,,,,,,,,,,,,,,001,85,2020_Feb_06_1220,spring_faces,3.1.5,60.00965519325312,
condition files/Stage1_1.xlsx,,B3,T3,c,"['c', 'm']","['Clue', 'Monopoly']","[-0.15, 0.5]","[0.15, 0.5]",1,1,,,,,,,,,0,10,10,10,0,2,2,4,,,,,,,,,,,,,,,,,,,,,,,,,,,,,,,,,,,,,,,,,,,,,,,,,,,,,,,769.6210272429998,None,769.6210272429998,None,769.6210272429998,None,c,1,0.970830914000544,771.1558773279994,None,771.1558773279994,None,771.1558773279994,None,772.1881503589993,None,772.1881503589993,None,772.1881503589993,None,772.1881503589993,None,,,,,,,,,,,,,,,,,,,,,,,,,,,,,,,,,,,,,,,,,,,,001,85,2020_Feb_06_1220,spring_faces,3.1.5,60.00965519325312,
condition files/Stage1_1.xlsx,,T2,B2,m,"['c', 'm']","['Clue', 'Monopoly']","[-0.15, 0.5]","[0.15, 0.5]",1,1,,,,,,,,,0,10,10,10,0,3,3,3,,,,,,,,,,,,,,,,,,,,,,,,,,,,,,,,,,,,,,,,,,,,,,,,,,,,,,,774.1549506709998,None,774.1549506709998,None,774.1549506709998,None,m,1,1.0460321250011475,775.6886559609993,None,775.6886559609993,None,775.6886559609993,None,776.790408937999,None,776.790408937999,None,776.790408937999,None,776.790408937999,None,,,,,,,,,,,,,,,,,,,,,,,,,,,,,,,,,,,,,,,,,,,,001,85,2020_Feb_06_1220,spring_faces,3.1.5,60.00965519325312,
condition files/Stage1_1.xlsx,,B4,T4,m,"['c', 'm']","['Clue', 'Monopoly']","[-0.15, 0.5]","[0.15, 0.5]",1,1,,,,,,,,,0,10,10,10,0,4,4,7,,,,,,,,,,,,,,,,,,,,,,,,,,,,,,,,,,,,,,,,,,,,,,,,,,,,,,,778.7547425510002,None,778.7547425510002,None,778.7547425510002,None,m,1,2.6382931589996588,780.2884023579991,None,780.2884023579991,None,780.2884023579991,None,782.9880807730005,None,782.9880807730005,None,782.9880807730005,None,782.9880807730005,None,,,,,,,,,,,,,,,,,,,,,,,,,,,,,,,,,,,,,,,,,,,,001,85,2020_Feb_06_1220,spring_faces,3.1.5,60.00965519325312,
condition files/Stage1_1.xlsx,,B1,T2,c,"['c', 'm']","['Clue', 'Monopoly']","[-0.15, 0.5]","[0.15, 0.5]",1,1,,,,,,,,,0,10,10,10,0,5,5,1,,,,,,,,,,,,,,,,,,,,,,,,,,,,,,,,,,,,,,,,,,,,,,,,,,,,,,,784.9549380570006,None,784.9549380570006,None,784.9549380570006,None,c,1,1.7499947929991322,786.4886652330006,None,786.4886652330006,None,786.4886652330006,None,788.3062342110006,None,788.3062342110006,None,788.3062342110006,None,788.3062342110006,None,,,,,,,,,,,,,,,,,,,,,,,,,,,,,,,,,,,,,,,,,,,,001,85,2020_Feb_06_1220,spring_faces,3.1.5,60.00965519325312,
condition files/Stage1_1.xlsx,,B2,T1,m,"['c', 'm']","['Clue', 'Monopoly']","[-0.15, 0.5]","[0.15, 0.5]",1,1,,,,,,,,,0,10,10,10,0,6,6,2,,,,,,,,,,,,,,,,,,,,,,,,,,,,,,,,,,,,,,,,,,,,,,,,,,,,,,,790.2717181709995,None,790.2717181709995,None,790.2717181709995,None,m,1,1.4893888400001742,791.8213355009993,None,791.8213355009993,None,791.8213355009993,None,793.3736201899992,None,793.3736201899992,None,793.3736201899992,None,793.3736201899992,None,,,,,,,,,,,,,,,,,,,,,,,,,,,,,,,,,,,,,,,,,,,,001,85,2020_Feb_06_1220,spring_faces,3.1.5,60.00965519325312,
condition files/Stage1_1.xlsx,,T3,B4,c,"['c', 'm']","['Clue', 'Monopoly']","[-0.15, 0.5]","[0.15, 0.5]",1,1,,,,,,,,,0,10,10,10,0,7,7,5,,,,,,,,,,,,,,,,,,,,,,,,,,,,,,,,,,,,,,,,,,,,,,,,,,,,,,,795.3381398879992,None,795.3381398879992,None,795.3381398879992,None,c,1,1.782635007000863,796.8880379759994,None,796.8880379759994,None,796.8880379759994,None,798.7220733510003,None,798.7220733510003,None,798.7220733510003,None,798.7220733510003,None,,,,,,,,,,,,,,,,,,,,,,,,,,,,,,,,,,,,,,,,,,,,001,85,2020_Feb_06_1220,spring_faces,3.1.5,60.00965519325312,
condition files/Stage1_2.xlsx,,T3,B3,c,"['c', 'm']","['Clue', 'Monopoly']","[-0.15, 0.5]","[0.15, 0.5]",1,1,,,,,,,,,0,11,11,11,0,0,0,4,,,,,,,,,,,,,,,,,,,,,,,,,,,,,,,,,,,,,,,,,,,,,,,,,,,,,,,800.7048033419997,None,800.7048033419997,None,800.7048033419997,None,c,1,0.8640333429993916,802.2386384549991,None,802.2386384549991,None,802.2386384549991,None,803.154938189,None,803.154938189,None,803.154938189,None,803.154938189,None,,,,,,,,,,,,,,,,,,,,,,,,,,,,,,,,,,,,,,,,,,,,001,85,2020_Feb_06_1220,spring_faces,3.1.5,60.00965519325312,
condition files/Stage1_2.xlsx,,T4,B4,m,"['c', 'm']","['Clue', 'Monopoly']","[-0.15, 0.5]","[0.15, 0.5]",1,1,,,,,,,,,0,11,11,11,0,1,1,7,,,,,,,,,,,,,,,,,,,,,,,,,,,,,,,,,,,,,,,,,,,,,,,,,,,,,,,805.1218007240004,None,805.1218007240004,None,805.1218007240004,None,m,1,1.7267503929997474,806.6559407370005,None,806.6559407370005,None,806.6559407370005,None,808.4549946549996,None,808.4549946549996,None,808.4549946549996,None,808.4549946549996,None,,,,,,,,,,,,,,,,,,,,,,,,,,,,,,,,,,,,,,,,,,,,001,85,2020_Feb_06_1220,spring_faces,3.1.5,60.00965519325312,
condition files/Stage1_2.xlsx,,T2,B1,c,"['c', 'm']","['Clue', 'Monopoly']","[-0.15, 0.5]","[0.15, 0.5]",1,1,,,,,,,,,0,11,11,11,0,2,2,1,,,,,,,,,,,,,,,,,,,,,,,,,,,,,,,,,,,,,,,,,,,,,,,,,,,,,,,810.4046600589991,None,810.4046600589991,None,810.4046600589991,None,c,1,1.4828609619999042,811.9397780969994,None,811.9397780969994,None,811.9397780969994,None,813.491047477999,None,813.491047477999,None,813.491047477999,None,813.491047477999,None,,,,,,,,,,,,,,,,,,,,,,,,,,,,,,,,,,,,,,,,,,,,001,85,2020_Feb_06_1220,spring_faces,3.1.5,60.00965519325312,
condition files/Stage1_2.xlsx,,T1,B2,m,"['c', 'm']","['Clue', 'Monopoly']","[-0.15, 0.5]","[0.15, 0.5]",1,1,,,,,,,,,0,11,11,11,0,3,3,2,,,,,,,,,,,,,,,,,,,,,,,,,,,,,,,,,,,,,,,,,,,,,,,,,,,,,,,815.4541977709996,None,815.4541977709996,None,815.4541977709996,None,m,1,1.2488582890000544,816.989783605999,None,816.989783605999,None,816.989783605999,None,818.3049150980005,None,818.3049150980005,None,818.3049150980005,None,818.3049150980005,None,,,,,,,,,,,,,,,,,,,,,,,,,,,,,,,,,,,,,,,,,,,,001,85,2020_Feb_06_1220,spring_faces,3.1.5,60.00965519325312,
condition files/Stage1_2.xlsx,,B3,T4,m,"['c', 'm']","['Clue', 'Monopoly']","[-0.15, 0.5]","[0.15, 0.5]",1,1,,,,,,,,,0,11,11,11,0,4,4,6,,,,,,,,,,,,,,,,,,,,,,,,,,,,,,,,,,,,,,,,,,,,,,,,,,,,,,,820.2713190729992,None,820.2713190729992,None,820.2713190729992,None,m,1,1.7759436959986488,821.8067475970001,None,821.8067475970001,None,821.8067475970001,None,823.6382924579993,None,823.6382924579993,None,823.6382924579993,None,823.6382924579993,None,,,,,,,,,,,,,,,,,,,,,,,,,,,,,,,,,,,,,,,,,,,,001,85,2020_Feb_06_1220,spring_faces,3.1.5,60.00965519325312,
condition files/Stage1_2.xlsx,,B4,T3,c,"['c', 'm']","['Clue', 'Monopoly']","[-0.15, 0.5]","[0.15, 0.5]",1,1,,,,,,,,,0,11,11,11,0,5,5,5,,,,,,,,,,,,,,,,,,,,,,,,,,,,,,,,,,,,,,,,,,,,,,,,,,,,,,,825.6046558180005,None,825.6046558180005,None,825.6046558180005,None,c,1,1.580087440999705,827.1385472700003,None,827.1385472700003,None,827.1385472700003,None,828.7729923120005,None,828.7729923120005,None,828.7729923120005,None,828.7729923120005,None,,,,,,,,,,,,,,,,,,,,,,,,,,,,,,,,,,,,,,,,,,,,001,85,2020_Feb_06_1220,spring_faces,3.1.5,60.00965519325312,
condition files/Stage1_2.xlsx,,B1,T1,c,"['c', 'm']","['Clue', 'Monopoly']","[-0.15, 0.5]","[0.15, 0.5]",1,1,,,,,,,,,0,11,11,11,0,6,6,0,,,,,,,,,,,,,,,,,,,,,,,,,,,,,,,,,,,,,,,,,,,,,,,,,,,,,,,830.7380062809989,None,830.7380062809989,None,830.7380062809989,None,c,1,1.4393612610001583,832.2713488070003,None,832.2713488070003,None,832.2713488070003,None,833.7713228339999,None,833.7713228339999,None,833.7713228339999,None,833.7713228339999,None,,,,,,,,,,,,,,,,,,,,,,,,,,,,,,,,,,,,,,,,,,,,001,85,2020_Feb_06_1220,spring_faces,3.1.5,60.00965519325312,
condition files/Stage1_2.xlsx,,B2,T2,m,"['c', 'm']","['Clue', 'Monopoly']","[-0.15, 0.5]","[0.15, 0.5]",1,1,,,,,,,,,0,11,11,11,0,7,7,3,,,,,,,,,,,,,,,,,,,,,,,,,,,,,,,,,,,,,,,,,,,,,,,,,,,,,,,835.7381951879997,None,835.7381951879997,None,835.7381951879997,None,m,1,1.382313204001548,837.2883590099991,None,837.2883590099991,None,837.2883590099991,None,838.7388238479998,None,838.7388238479998,None,838.7388238479998,None,838.7388238479998,None,,,,,,,,,,,,,,,,,,,,,,,,,,,,,,,,,,,,,,,,,,,,001,85,2020_Feb_06_1220,spring_faces,3.1.5,60.00965519325312,
,,,,,,,,,,,,,,,,,,,,,,,,,,,,,,,,,,,,,,,,,,,,,,,,,,,,,,,,,,,,,,,,,,,,,,,,,,,,,,,,,,,,,,,,,,,,,,,,,,,,,,,,,,,,,,,,840.7049375779989,None,space,6.373476777000178,845.7052450949996,None,,,,,,,,,,,,,,,,,,,,,,,,,,,,,,001,85,2020_Feb_06_1220,spring_faces,3.1.5,60.00965519325312,
condition files/Stage2_1.xlsx,,B6,T6,r,"['s', 'r']","['Stratego', 'Risk']","[-0.15, 0.5]","[0.15, 0.5]",1,1,,,,,,,,,,,,,,,,,0,0,0,0,0,0,0,1,,,,,,,,,,,,,,,,,,,,,,,,,,,,,,,,,,,,,,,,,,,,,,,852.138686278,None,852.138686278,None,852.138686278,None,s,0,2.2138771810004982,853.6408277089995,None,853.6408277089995,None,853.6408277089995,None,855.9050048139998,None,855.9050048139998,None,855.9050048139998,None,855.9050048139998,None,,,,,,,,,,,,,,,845.7052450949996,None,,,,,,,,,,,,,,,,,,,,,,,,,,,,001,85,2020_Feb_06_1220,spring_faces,3.1.5,60.00965519325312,
condition files/Stage2_1.xlsx,,B4,T4,r,"['s', 'r']","['Stratego', 'Risk']","[-0.15, 0.5]","[0.15, 0.5]",1,1,,,,,,,,,,,,,,,,,0,0,0,0,0,1,1,5,,,,,,,,,,,,,,,,,,,,,,,,,,,,,,,,,,,,,,,,,,,,,,,857.8717200009996,None,857.8717200009996,None,857.8717200009996,None,s,0,3.1049059699998907,859.4217919919993,None,859.4217919919993,None,859.4217919919993,None,862.5885354860002,None,862.5885354860002,None,862.5885354860002,None,862.5885354860002,None,,,,,,,,,,,,,,,,,,,,,,,,,,,,,,,,,,,,,,,,,,,,001,85,2020_Feb_06_1220,spring_faces,3.1.5,60.00965519325312,
condition files/Stage2_1.xlsx,,T1,B1,s,"['s', 'r']","['Stratego', 'Risk']","[-0.15, 0.5]","[0.15, 0.5]",1,1,,,,,,,,,,,,,,,,,0,0,0,0,0,2,2,2,,,,,,,,,,,,,,,,,,,,,,,,,,,,,,,,,,,,,,,,,,,,,,,864.5548849890001,None,864.5548849890001,None,864.5548849890001,None,s,1,1.3661628640002164,866.1045108929993,None,866.1045108929993,None,866.1045108929993,None,867.5240741830003,None,867.5240741830003,None,867.5240741830003,None,867.5240741830003,None,,,,,,,,,,,,,,,,,,,,,,,,,,,,,,,,,,,,,,,,,,,,001,85,2020_Feb_06_1220,spring_faces,3.1.5,60.00965519325312,
condition files/Stage2_1.xlsx,,B2,T2,r,"['s', 'r']","['Stratego', 'Risk']","[-0.15, 0.5]","[0.15, 0.5]",1,1,,,,,,,,,,,,,,,,,0,0,0,0,0,3,3,3,,,,,,,,,,,,,,,,,,,,,,,,,,,,,,,,,,,,,,,,,,,,,,,869.4882841340004,None,869.4882841340004,None,869.4882841340004,None,r,1,2.494666362001226,871.0240411340001,None,871.0240411340001,None,871.0240411340001,None,873.5734891110005,None,873.5734891110005,None,873.5734891110005,None,873.5734891110005,None,,,,,,,,,,,,,,,,,,,,,,,,,,,,,,,,,,,,,,,,,,,,001,85,2020_Feb_06_1220,spring_faces,3.1.5,60.00965519325312,
condition files/Stage2_1.xlsx,,T5,B5,s,"['s', 'r']","['Stratego', 'Risk']","[-0.15, 0.5]","[0.15, 0.5]",1,1,,,,,,,,,,,,,,,,,0,0,0,0,0,4,4,0,,,,,,,,,,,,,,,,,,,,,,,,,,,,,,,,,,,,,,,,,,,,,,,875.5384640569991,None,875.5384640569991,None,875.5384640569991,None,r,0,1.853083443000287,877.0736206679994,None,877.0736206679994,None,877.0736206679994,None,878.9901171799993,None,878.9901171799993,None,878.9901171799993,None,878.9901171799993,None,,,,,,,,,,,,,,,,,,,,,,,,,,,,,,,,,,,,,,,,,,,,001,85,2020_Feb_06_1220,spring_faces,3.1.5,60.00965519325312,
condition files/Stage2_1.xlsx,,T3,B3,s,"['s', 'r']","['Stratego', 'Risk']","[-0.15, 0.5]","[0.15, 0.5]",1,1,,,,,,,,,,,,,,,,,0,0,0,0,0,5,5,4,,,,,,,,,,,,,,,,,,,,,,,,,,,,,,,,,,,,,,,,,,,,,,,880.9549459589998,None,880.9549459589998,None,880.9549459589998,None,s,1,1.2853267329992377,882.4893686380001,None,882.4893686380001,None,882.4893686380001,None,883.8385223000005,None,883.8385223000005,None,883.8385223000005,None,883.8385223000005,None,,,,,,,,,,,,,,,,,,,,,,,,,,,,,,,,,,,,,,,,,,,,001,85,2020_Feb_06_1220,spring_faces,3.1.5,60.00965519325312,
condition files/Stage2_2.xlsx,,B3,T3,s,"['s', 'r']","['Stratego', 'Risk']","[-0.15, 0.5]","[0.15, 0.5]",1,1,,,,,,,,,,,,,,,,,0,1,1,1,0,0,0,4,,,,,,,,,,,,,,,,,,,,,,,,,,,,,,,,,,,,,,,,,,,,,,,885.8216724720005,None,885.8216724720005,None,885.8216724720005,None,s,1,1.2992059129992413,887.3554858259995,None,887.3554858259995,None,887.3554858259995,None,888.7055115069998,None,888.7055115069998,None,888.7055115069998,None,888.7055115069998,None,,,,,,,,,,,,,,,,,,,,,,,,,,,,,,,,,,,,,,,,,,,,001,85,2020_Feb_06_1220,spring_faces,3.1.5,60.00965519325312,
condition files/Stage2_2.xlsx,,T6,B6,r,"['s', 'r']","['Stratego', 'Risk']","[-0.15, 0.5]","[0.15, 0.5]",1,1,,,,,,,,,,,,,,,,,0,1,1,1,0,1,1,1,,,,,,,,,,,,,,,,,,,,,,,,,,,,,,,,,,,,,,,,,,,,,,,890.6707479369998,None,890.6707479369998,None,890.6707479369998,None,s,0,1.711974387999362,892.2066628829998,None,892.2066628829998,None,892.2066628829998,None,893.9889283350003,None,893.9889283350003,None,893.9889283350003,None,893.9889283350003,None,,,,,,,,,,,,,,,,,,,,,,,,,,,,,,,,,,,,,,,,,,,,001,85,2020_Feb_06_1220,spring_faces,3.1.5,60.00965519325312,
condition files/Stage2_2.xlsx,,B1,T1,s,"['s', 'r']","['Stratego', 'Risk']","[-0.15, 0.5]","[0.15, 0.5]",1,1,,,,,,,,,,,,,,,,,0,1,1,1,0,2,2,2,,,,,,,,,,,,,,,,,,,,,,,,,,,,,,,,,,,,,,,,,,,,,,,895.938007200999,None,895.938007200999,None,895.938007200999,None,s,1,1.726643314001194,897.472124725,None,897.472124725,None,897.472124725,None,899.2566773599992,None,899.2566773599992,None,899.2566773599992,None,899.2566773599992,None,,,,,,,,,,,,,,,,,,,,,,,,,,,,,,,,,,,,,,,,,,,,001,85,2020_Feb_06_1220,spring_faces,3.1.5,60.00965519325312,
condition files/Stage2_2.xlsx,,T2,B2,r,"['s', 'r']","['Stratego', 'Risk']","[-0.15, 0.5]","[0.15, 0.5]",1,1,,,,,,,,,,,,,,,,,0,1,1,1,0,3,3,3,,,,,,,,,,,,,,,,,,,,,,,,,,,,,,,,,,,,,,,,,,,,,,,901.2209957499999,None,901.2209957499999,None,901.2209957499999,None,r,1,1.8834183759990992,902.7551999339994,None,902.7551999339994,None,902.7551999339994,None,904.7051734109991,None,904.7051734109991,None,904.7051734109991,None,904.7051734109991,None,,,,,,,,,,,,,,,,,,,,,,,,,,,,,,,,,,,,,,,,,,,,001,85,2020_Feb_06_1220,spring_faces,3.1.5,60.00965519325312,
condition files/Stage2_2.xlsx,,T4,B4,r,"['s', 'r']","['Stratego', 'Risk']","[-0.15, 0.5]","[0.15, 0.5]",1,1,,,,,,,,,,,,,,,,,0,1,1,1,0,4,4,5,,,,,,,,,,,,,,,,,,,,,,,,,,,,,,,,,,,,,,,,,,,,,,,906.671291233999,None,906.671291233999,None,906.671291233999,None,r,1,1.4255593199995928,908.2052042060004,None,908.2052042060004,None,908.2052042060004,None,909.6888297839996,None,909.6888297839996,None,909.6888297839996,None,909.6888297839996,None,,,,,,,,,,,,,,,,,,,,,,,,,,,,,,,,,,,,,,,,,,,,001,85,2020_Feb_06_1220,spring_faces,3.1.5,60.00965519325312,
condition files/Stage2_2.xlsx,,B5,T5,s,"['s', 'r']","['Stratego', 'Risk']","[-0.15, 0.5]","[0.15, 0.5]",1,1,,,,,,,,,,,,,,,,,0,1,1,1,0,5,5,0,,,,,,,,,,,,,,,,,,,,,,,,,,,,,,,,,,,,,,,,,,,,,,,911.6550257889994,None,911.6550257889994,None,911.6550257889994,None,s,1,2.458291246999579,913.1884742429993,None,913.1884742429993,None,913.1884742429993,None,915.7044199480006,None,915.7044199480006,None,915.7044199480006,None,915.7044199480006,None,,,,,,,,,,,,,,,,,,,,,,,,,,,,,,,,,,,,,,,,,,,,001,85,2020_Feb_06_1220,spring_faces,3.1.5,60.00965519325312,
condition files/Stage2_1.xlsx,,B4,T4,r,"['s', 'r']","['Stratego', 'Risk']","[-0.15, 0.5]","[0.15, 0.5]",1,1,,,,,,,,,,,,,,,,,0,2,2,2,0,0,0,5,,,,,,,,,,,,,,,,,,,,,,,,,,,,,,,,,,,,,,,,,,,,,,,917.6888254940004,None,917.6888254940004,None,917.6888254940004,None,r,1,1.464652661999935,919.2220458020001,None,919.2220458020001,None,919.2220458020001,None,920.7553793839998,None,920.7553793839998,None,920.7553793839998,None,920.7553793839998,None,,,,,,,,,,,,,,,,,,,,,,,,,,,,,,,,,,,,,,,,,,,,001,85,2020_Feb_06_1220,spring_faces,3.1.5,60.00965519325312,
condition files/Stage2_1.xlsx,,T5,B5,s,"['s', 'r']","['Stratego', 'Risk']","[-0.15, 0.5]","[0.15, 0.5]",1,1,,,,,,,,,,,,,,,,,0,2,2,2,0,1,1,0,,,,,,,,,,,,,,,,,,,,,,,,,,,,,,,,,,,,,,,,,,,,,,,922.7049210619989,None,922.7049210619989,None,922.7049210619989,None,s,1,0.9260249799990561,924.2406442840002,None,924.2406442840002,None,924.2406442840002,None,925.2245219430006,None,925.2245219430006,None,925.2245219430006,None,925.2245219430006,None,,,,,,,,,,,,,,,,,,,,,,,,,,,,,,,,,,,,,,,,,,,,001,85,2020_Feb_06_1220,spring_faces,3.1.5,60.00965519325312,
condition files/Stage2_1.xlsx,,T1,B1,s,"['s', 'r']","['Stratego', 'Risk']","[-0.15, 0.5]","[0.15, 0.5]",1,1,,,,,,,,,,,,,,,,,0,2,2,2,0,2,2,2,,,,,,,,,,,,,,,,,,,,,,,,,,,,,,,,,,,,,,,,,,,,,,,927.1877791240004,None,927.1877791240004,None,927.1877791240004,None,r,0,2.7162405730014143,928.7224035389991,None,928.7224035389991,None,928.7224035389991,None,931.5046552949989,None,931.5046552949989,None,931.5046552949989,None,931.5046552949989,None,,,,,,,,,,,,,,,,,,,,,,,,,,,,,,,,,,,,,,,,,,,,001,85,2020_Feb_06_1220,spring_faces,3.1.5,60.00965519325312,
condition files/Stage2_1.xlsx,,B2,T2,r,"['s', 'r']","['Stratego', 'Risk']","[-0.15, 0.5]","[0.15, 0.5]",1,1,,,,,,,,,,,,,,,,,0,2,2,2,0,3,3,3,,,,,,,,,,,,,,,,,,,,,,,,,,,,,,,,,,,,,,,,,,,,,,,933.4717223610005,None,933.4717223610005,None,933.4717223610005,None,r,1,1.48945122600162,935.0212938919994,None,935.0212938919994,None,935.0212938919994,None,936.5738940020001,None,936.5738940020001,None,936.5738940020001,None,936.5738940020001,None,,,,,,,,,,,,,,,,,,,,,,,,,,,,,,,,,,,,,,,,,,,,001,85,2020_Feb_06_1220,spring_faces,3.1.5,60.00965519325312,
condition files/Stage2_1.xlsx,,B6,T6,r,"['s', 'r']","['Stratego', 'Risk']","[-0.15, 0.5]","[0.15, 0.5]",1,1,,,,,,,,,,,,,,,,,0,2,2,2,0,4,4,1,,,,,,,,,,,,,,,,,,,,,,,,,,,,,,,,,,,,,,,,,,,,,,,938.5383321829995,None,938.5383321829995,None,938.5383321829995,None,r,1,1.9904584400010208,940.0882877349995,None,940.0882877349995,None,940.0882877349995,None,942.1381488839997,None,942.1381488839997,None,942.1381488839997,None,942.1381488839997,None,,,,,,,,,,,,,,,,,,,,,,,,,,,,,,,,,,,,,,,,,,,,001,85,2020_Feb_06_1220,spring_faces,3.1.5,60.00965519325312,
condition files/Stage2_1.xlsx,,T3,B3,s,"['s', 'r']","['Stratego', 'Risk']","[-0.15, 0.5]","[0.15, 0.5]",1,1,,,,,,,,,,,,,,,,,0,2,2,2,0,5,5,4,,,,,,,,,,,,,,,,,,,,,,,,,,,,,,,,,,,,,,,,,,,,,,,944.104688211999,None,944.104688211999,None,944.104688211999,None,s,1,1.9122766349992162,945.6384388009992,None,945.6384388009992,None,945.6384388009992,None,947.6077002010006,None,947.6077002010006,None,947.6077002010006,None,947.6077002010006,None,,,,,,,,,,,,,,,,,,,,,,,,,,,,,,,,,,,,,,,,,,,,001,85,2020_Feb_06_1220,spring_faces,3.1.5,60.00965519325312,
condition files/Stage2_2.xlsx,,B1,T1,s,"['s', 'r']","['Stratego', 'Risk']","[-0.15, 0.5]","[0.15, 0.5]",1,1,,,,,,,,,,,,,,,,,0,3,3,3,0,0,0,2,,,,,,,,,,,,,,,,,,,,,,,,,,,,,,,,,,,,,,,,,,,,,,,949.5885943630001,None,949.5885943630001,None,949.5885943630001,None,r,0,2.7475445849995594,951.1231531889989,None,951.1231531889989,None,951.1231531889989,None,953.9219481500004,None,953.9219481500004,None,953.9219481500004,None,953.9219481500004,None,,,,,,,,,,,,,,,,,,,,,,,,,,,,,,,,,,,,,,,,,,,,001,85,2020_Feb_06_1220,spring_faces,3.1.5,60.00965519325312,
condition files/Stage2_2.xlsx,,T6,B6,r,"['s', 'r']","['Stratego', 'Risk']","[-0.15, 0.5]","[0.15, 0.5]",1,1,,,,,,,,,,,,,,,,,0,3,3,3,0,1,1,1,,,,,,,,,,,,,,,,,,,,,,,,,,,,,,,,,,,,,,,,,,,,,,,955.8882497300001,None,955.8882497300001,None,955.8882497300001,None,r,1,2.3846854210005404,957.4219710060006,None,957.4219710060006,None,957.4219710060006,None,959.8884961940003,None,959.8884961940003,None,959.8884961940003,None,959.8884961940003,None,,,,,,,,,,,,,,,,,,,,,,,,,,,,,,,,,,,,,,,,,,,,001,85,2020_Feb_06_1220,spring_faces,3.1.5,60.00965519325312,
condition files/Stage2_2.xlsx,,B3,T3,s,"['s', 'r']","['Stratego', 'Risk']","[-0.15, 0.5]","[0.15, 0.5]",1,1,,,,,,,,,,,,,,,,,0,3,3,3,0,2,2,4,,,,,,,,,,,,,,,,,,,,,,,,,,,,,,,,,,,,,,,,,,,,,,,961.8380553400002,None,961.8380553400002,None,961.8380553400002,None,s,1,1.1225167559987312,963.372252358,None,963.372252358,None,963.372252358,None,964.5559524079999,None,964.5559524079999,None,964.5559524079999,None,964.5559524079999,None,,,,,,,,,,,,,,,,,,,,,,,,,,,,,,,,,,,,,,,,,,,,001,85,2020_Feb_06_1220,spring_faces,3.1.5,60.00965519325312,
condition files/Stage2_2.xlsx,,B5,T5,s,"['s', 'r']","['Stratego', 'Risk']","[-0.15, 0.5]","[0.15, 0.5]",1,1,,,,,,,,,,,,,,,,,0,3,3,3,0,3,3,0,,,,,,,,,,,,,,,,,,,,,,,,,,,,,,,,,,,,,,,,,,,,,,,966.5212740839997,None,966.5212740839997,None,966.5212740839997,None,s,1,2.1513293770003656,968.0552938769997,None,968.0552938769997,None,968.0552938769997,None,970.2720477309995,None,970.2720477309995,None,970.2720477309995,None,970.2720477309995,None,,,,,,,,,,,,,,,,,,,,,,,,,,,,,,,,,,,,,,,,,,,,001,85,2020_Feb_06_1220,spring_faces,3.1.5,60.00965519325312,
condition files/Stage2_2.xlsx,,T4,B4,r,"['s', 'r']","['Stratego', 'Risk']","[-0.15, 0.5]","[0.15, 0.5]",1,1,,,,,,,,,,,,,,,,,0,3,3,3,0,4,4,5,,,,,,,,,,,,,,,,,,,,,,,,,,,,,,,,,,,,,,,,,,,,,,,972.2379127709992,None,972.2379127709992,None,972.2379127709992,None,r,1,1.5231524640003045,973.7716050509989,None,973.7716050509989,None,973.7716050509989,None,975.355584592,None,975.355584592,None,975.355584592,None,975.355584592,None,,,,,,,,,,,,,,,,,,,,,,,,,,,,,,,,,,,,,,,,,,,,001,85,2020_Feb_06_1220,spring_faces,3.1.5,60.00965519325312,
condition files/Stage2_2.xlsx,,T2,B2,r,"['s', 'r']","['Stratego', 'Risk']","[-0.15, 0.5]","[0.15, 0.5]",1,1,,,,,,,,,,,,,,,,,0,3,3,3,0,5,5,3,,,,,,,,,,,,,,,,,,,,,,,,,,,,,,,,,,,,,,,,,,,,,,,977.3215480719991,None,977.3215480719991,None,977.3215480719991,None,r,1,1.9918925959991611,978.854856721,None,978.854856721,None,978.854856721,None,980.9045995529996,None,980.9045995529996,None,980.9045995529996,None,980.9045995529996,None,,,,,,,,,,,,,,,,,,,,,,,,,,,,,,,,,,,,,,,,,,,,001,85,2020_Feb_06_1220,spring_faces,3.1.5,60.00965519325312,
condition files/Stage2_1.xlsx,,B6,T6,r,"['s', 'r']","['Stratego', 'Risk']","[-0.15, 0.5]","[0.15, 0.5]",1,1,,,,,,,,,,,,,,,,,0,4,4,4,0,0,0,1,,,,,,,,,,,,,,,,,,,,,,,,,,,,,,,,,,,,,,,,,,,,,,,982.8882070130003,None,982.8882070130003,None,982.8882070130003,None,r,1,2.934946374998617,984.4237665290002,None,984.4237665290002,None,984.4237665290002,None,987.4217358149999,None,987.4217358149999,None,987.4217358149999,None,987.4217358149999,None,,,,,,,,,,,,,,,,,,,,,,,,,,,,,,,,,,,,,,,,,,,,001,85,2020_Feb_06_1220,spring_faces,3.1.5,60.00965519325312,
condition files/Stage2_1.xlsx,,B4,T4,r,"['s', 'r']","['Stratego', 'Risk']","[-0.15, 0.5]","[0.15, 0.5]",1,1,,,,,,,,,,,,,,,,,0,4,4,4,0,1,1,5,,,,,,,,,,,,,,,,,,,,,,,,,,,,,,,,,,,,,,,,,,,,,,,989.3882375169997,None,989.3882375169997,None,989.3882375169997,None,r,1,1.2674012379993655,990.9232990990004,None,990.9232990990004,None,990.9232990990004,None,992.2546624259994,None,992.2546624259994,None,992.2546624259994,None,992.2546624259994,None,,,,,,,,,,,,,,,,,,,,,,,,,,,,,,,,,,,,,,,,,,,,001,85,2020_Feb_06_1220,spring_faces,3.1.5,60.00965519325312,
condition files/Stage2_1.xlsx,,T5,B5,s,"['s', 'r']","['Stratego', 'Risk']","[-0.15, 0.5]","[0.15, 0.5]",1,1,,,,,,,,,,,,,,,,,0,4,4,4,0,2,2,0,,,,,,,,,,,,,,,,,,,,,,,,,,,,,,,,,,,,,,,,,,,,,,,994.2216671400001,None,994.2216671400001,None,994.2216671400001,None,s,1,1.28282662699894,995.755806318999,None,995.755806318999,None,995.755806318999,None,997.1074155059996,None,997.1074155059996,None,997.1074155059996,None,997.1074155059996,None,,,,,,,,,,,,,,,,,,,,,,,,,,,,,,,,,,,,,,,,,,,,001,85,2020_Feb_06_1220,spring_faces,3.1.5,60.00965519325312,
condition files/Stage2_1.xlsx,,T3,B3,s,"['s', 'r']","['Stratego', 'Risk']","[-0.15, 0.5]","[0.15, 0.5]",1,1,,,,,,,,,,,,,,,,,0,4,4,4,0,3,3,4,,,,,,,,,,,,,,,,,,,,,,,,,,,,,,,,,,,,,,,,,,,,,,,999.0714233359995,None,999.0714233359995,None,999.0714233359995,None,s,1,1.1361576060007792,1000.6065478219989,None,1000.6065478219989,None,1000.6065478219989,None,1001.8045518729996,None,1001.8045518729996,None,1001.8045518729996,None,1001.8045518729996,None,,,,,,,,,,,,,,,,,,,,,,,,,,,,,,,,,,,,,,,,,,,,001,85,2020_Feb_06_1220,spring_faces,3.1.5,60.00965519325312,
