condsFile,subStage,cue1,cue2,correct,responseKeys,responseNames,cue1Position,cue2Position,cue1Opacity,cue2Opacity,stageLoop0.thisRepN,stageLoop0.thisTrialN,stageLoop0.thisN,stageLoop0.thisIndex,blockLoop0.thisRepN,blockLoop0.thisTrialN,blockLoop0.thisN,blockLoop0.thisIndex,stage1Loop.thisRepN,stage1Loop.thisTrialN,stage1Loop.thisN,stage1Loop.thisIndex,blockLoop1.thisRepN,blockLoop1.thisTrialN,blockLoop1.thisN,blockLoop1.thisIndex,stage2Loop.thisRepN,stage2Loop.thisTrialN,stage2Loop.thisN,stage2Loop.thisIndex,blockLoop2.thisRepN,blockLoop2.thisTrialN,blockLoop2.thisN,blockLoop2.thisIndex,testLoop.thisRepN,testLoop.thisTrialN,testLoop.thisN,testLoop.thisIndex,blockLoopTest.thisRepN,blockLoopTest.thisTrialN,blockLoopTest.thisN,blockLoopTest.thisIndex,cuePics,id_instr_text.started,id_instr_text.stopped,space_to_continue_2.started,space_to_continue_2.stopped,end_instructions_resp_3.keys,end_instructions_resp_3.rt,end_instructions_resp_3.started,end_instructions_resp_3.stopped,id_input_instr.started,id_input_instr.stopped,id_input_rect.started,id_input_rect.stopped,id_input_resp.keys,id_input_resp.rt,id_input_resp.started,id_input_resp.stopped,sonaID,id_input_text.started,id_input_text.stopped,final_text.started,final_text.stopped,instructions.started,instructions.stopped,end_instructions_resp.keys,end_instructions_resp.rt,end_instructions_resp.started,end_instructions_resp.stopped,space_to_continue.started,space_to_continue.stopped,instructions_stage0.started,instructions_stage0.stopped,end_instructions_resp_stage0.keys,end_instructions_resp_stage0.rt,end_instructions_resp_stage0.started,end_instructions_resp_stage0.stopped,space_to_continue_stage0.started,space_to_continue_stage0.stopped,text.started,text.stopped,resp_text1.started,resp_text1.stopped,resp_text2.started,resp_text2.stopped,trial_resp.keys,trial_resp.corr,trial_resp.rt,trial_resp.started,trial_resp.stopped,cue1Image.started,cue1Image.stopped,cue2Image.started,cue2Image.stopped,cue1Image_fb.started,cue1Image_fb.stopped,cue2Image_fb.started,cue2Image_fb.stopped,fb_text_answer.started,fb_text_answer.stopped,feedback_image.started,feedback_image.stopped,instructions_stage1.started,instructions_stage1.stopped,end_instructions_resp_stage1.keys,end_instructions_resp_stage1.rt,end_instructions_resp_stage1.started,end_instructions_resp_stage1.stopped,space_to_continue_stage1.started,space_to_continue_stage1.stopped,instructions_2.started,instructions_2.stopped,end_instructions_resp_2.keys,end_instructions_resp_2.rt,end_instructions_resp_2.started,end_instructions_resp_2.stopped,press_space_to_continue_stage2.started,press_space_to_continue_stage2.stopped,instructions_testStage1.started,instructions_testStage1.stopped,end_instructions_resp_test1.keys,end_instructions_resp_test1.rt,end_instructions_resp_test1.started,end_instructions_resp_test1.stopped,press_space_to_continue_test1.started,press_space_to_continue_test1.stopped,cue1Image_testChoice.started,cue1Image_testChoice.stopped,cue2Image_testChoice.started,cue2Image_testChoice.stopped,test_resp.keys,test_resp.corr,test_resp.rt,test_resp.started,test_resp.stopped,cue1Image_testConf.started,cue1Image_testConf.stopped,cue2Image_testConf.started,cue2Image_testConf.stopped,conf_reminder.started,conf_reminder.stopped,conf_rating.response,conf_rating.rt,conf_rating.started,conf_rating.stopped,session,participant,date,expName,psychopyVersion,frameRate,
,,,,,,,,,,,,,,,,,,,,,,,,,,,,,,,,,,,,,,,,,,,"{'none': 'pictures/20M_AN_C.png', 'alpha': 'pictures/SHINEd_pear.png', 'beta': 'pictures/SHINEd_pepper.png', 'theta': 'pictures/SHINEd_melon.png', 'phi': 'pictures/SHINEd_apple.png', 'T1': 'pictures/31M_AN_C.png', 'T2': 'pictures/26M_AN_C.png', 'T3': 'pictures/38M_AN_C.png', 'T4': 'pictures/22M_AN_C.png', 'T5': 'pictures/25M_AN_C.png', 'T6': 'pictures/33M_AN_C.png', 'B1': 'pictures/20M_NE_C.png', 'B2': 'pictures/37M_NE_C.png', 'B3': 'pictures/23M_NE_C.png', 'B4': 'pictures/34M_NE_C.png', 'B5': 'pictures/36M_NE_C.png', 'B6': 'pictures/32M_NE_C.png'}",14.27145329599989,None,19.254160668000623,None,space,13.11493573000007,19.254160668000623,None,,,,,,,,,,,,,,,,,,,,,,,,,,,,,,,,,,,,,,,,,,,,,,,,,,,,,,,,,,,,,,,,,,,,,,,,,,,,,,,,,,,,,,,,,,,,,,,,001,86,2020_Feb_06_1225,spring_faces,3.1.5,59.97730650646876,
,,,,,,,,,,,,,,,,,,,,,,,,,,,,,,,,,,,,,,,,,,,,,,,,,,,,32.75411307500144,None,32.75411307500144,None,"['1', '2', '0', '3', 'm', 'i', 'h', 'o', 'l']","[8.638985046000016, 9.03898681499959, 13.038987732999885, 13.375040650000301, 16.350917843999923, 16.670983883999725, 26.078966817000037, 26.55904101899978, 27.45499385199946]",32.75411307500144,None,,,,,,,,,,,,,,,,,,,,,,,,,,,,,,,,,,,,,,,,,,,,,,,,,,,,,,,,,,,,,,,,,,,,,,,,,,,,,,,,,,,,,,,,001,86,2020_Feb_06_1225,spring_faces,3.1.5,59.97730650646876,
,,,,,,,,,,,,,,,,,,,,,,,,,,,,,,,,,,,,,,,,,,,,,,,,,,,,,,,,,,,,1203mihol,32.75411307500144,None,32.75411307500144,None,65.28790256400134,None,space,11.713347507000435,70.28768087200115,None,,,,,,,,,,,,,,,,,,,,,,,,,,,,,,,,,,,,,,,,,,,,,,,,,,,,,,,,,,,,,,,,,,,,,,,,,,,,,001,86,2020_Feb_06_1225,spring_faces,3.1.5,59.97730650646876,
,,,,,,,,,,,,,,,,,,,,,,,,,,,,,,,,,,,,,,,,,,,,,,,,,,,,,,,,,,,,,,,,,,,,,,,70.28768087200115,None,82.03801792200102,None,space,8.275485960999504,87.03768032300104,None,,,,,,,,,,,,,,,,,,,,,,,,,,,,,,,,,,,,,,,,,,,,,,,,,,,,,,,,,,,,,,,,,,,,,001,86,2020_Feb_06_1225,spring_faces,3.1.5,59.97730650646876,
condition files/Stage0a.xlsx,0a,alpha,none,h,"['h', 'g']","['Chess', 'Go']","[0, 0.5]","[0, 0]",1,0,0,0,0,0,0,0,0,0,,,,,,,,,,,,,,,,,,,,,,,,,,,,,,,,,,,,,,,,,,,,,,,,,,,,,,,,,,,,,87.03768032300104,None,95.3712143770008,None,95.3712143770008,None,95.3712143770008,None,h,1,3.462449104999905,96.95459207100066,None,96.95459207100066,None,96.95459207100066,None,100.48785657100052,None,100.48785657100052,None,100.48785657100052,None,100.48785657100052,None,,,,,,,,,,,,,,,,,,,,,,,,,,,,,,,,,,,,,,,,,,,,001,86,2020_Feb_06_1225,spring_faces,3.1.5,59.97730650646876,
condition files/Stage0a.xlsx,0a,beta,none,g,"['h', 'g']","['Chess', 'Go']","[0, 0.5]","[0, 0]",1,0,0,0,0,0,0,1,1,1,,,,,,,,,,,,,,,,,,,,,,,,,,,,,,,,,,,,,,,,,,,,,,,,,,,,,,,,,,,,,,,102.43737628800045,None,102.43737628800045,None,102.43737628800045,None,g,1,1.564284439000403,103.98884186700161,None,103.98884186700161,None,103.98884186700161,None,105.60373946500113,None,105.60373946500113,None,105.60373946500113,None,105.60373946500113,None,,,,,,,,,,,,,,,,,,,,,,,,,,,,,,,,,,,,,,,,,,,,001,86,2020_Feb_06_1225,spring_faces,3.1.5,59.97730650646876,
condition files/Stage0a.xlsx,0a,beta,none,g,"['h', 'g']","['Chess', 'Go']","[0, 0.5]","[0, 0]",1,0,0,1,1,1,0,0,0,1,,,,,,,,,,,,,,,,,,,,,,,,,,,,,,,,,,,,,,,,,,,,,,,,,,,,,,,,,,,,,,,107.58805865000068,None,107.58805865000068,None,107.58805865000068,None,g,1,0.848023185000784,109.12114414400094,None,109.12114414400094,None,109.12114414400094,None,110.02143409700147,None,110.02143409700147,None,110.02143409700147,None,110.02143409700147,None,,,,,,,,,,,,,,,,,,,,,,,,,,,,,,,,,,,,,,,,,,,,001,86,2020_Feb_06_1225,spring_faces,3.1.5,59.97730650646876,
condition files/Stage0a.xlsx,0a,alpha,none,h,"['h', 'g']","['Chess', 'Go']","[0, 0.5]","[0, 0]",1,0,0,1,1,1,0,1,1,0,,,,,,,,,,,,,,,,,,,,,,,,,,,,,,,,,,,,,,,,,,,,,,,,,,,,,,,,,,,,,,,111.98795016900112,None,111.98795016900112,None,111.98795016900112,None,h,1,0.5279981839994434,113.52108694600065,None,113.52108694600065,None,113.52108694600065,None,114.10538365899993,None,114.10538365899993,None,114.10538365899993,None,114.10538365899993,None,,,,,,,,,,,,,,,,,,,,,,,,,,,,,,,,,,,,,,,,,,,,001,86,2020_Feb_06_1225,spring_faces,3.1.5,59.97730650646876,
condition files/Stage0a.xlsx,0a,beta,none,g,"['h', 'g']","['Chess', 'Go']","[0, 0.5]","[0, 0]",1,0,0,2,2,2,0,0,0,1,,,,,,,,,,,,,,,,,,,,,,,,,,,,,,,,,,,,,,,,,,,,,,,,,,,,,,,,,,,,,,,116.08786205600154,None,116.08786205600154,None,116.08786205600154,None,g,1,0.63596715300082,117.62116041199988,None,117.62116041199988,None,117.62116041199988,None,118.32084817900068,None,118.32084817900068,None,118.32084817900068,None,118.32084817900068,None,,,,,,,,,,,,,,,,,,,,,,,,,,,,,,,,,,,,,,,,,,,,001,86,2020_Feb_06_1225,spring_faces,3.1.5,59.97730650646876,
condition files/Stage0a.xlsx,0a,alpha,none,h,"['h', 'g']","['Chess', 'Go']","[0, 0.5]","[0, 0]",1,0,0,2,2,2,0,1,1,0,,,,,,,,,,,,,,,,,,,,,,,,,,,,,,,,,,,,,,,,,,,,,,,,,,,,,,,,,,,,,,,120.28693349600144,None,120.28693349600144,None,120.28693349600144,None,h,1,0.4843403679988114,121.82074202700096,None,121.82074202700096,None,121.82074202700096,None,122.371091772,None,122.371091772,None,122.371091772,None,122.371091772,None,,,,,,,,,,,,,,,,,,,,,,,,,,,,,,,,,,,,,,,,,,,,001,86,2020_Feb_06_1225,spring_faces,3.1.5,59.97730650646876,
condition files/Stage0a.xlsx,0a,alpha,none,h,"['h', 'g']","['Chess', 'Go']","[0, 0.5]","[0, 0]",1,0,0,3,3,3,0,0,0,0,,,,,,,,,,,,,,,,,,,,,,,,,,,,,,,,,,,,,,,,,,,,,,,,,,,,,,,,,,,,,,,124.35452507500122,None,124.35452507500122,None,124.35452507500122,None,h,1,1.6333444449992385,125.88777713800118,None,125.88777713800118,None,125.88777713800118,None,127.5711951760004,None,127.5711951760004,None,127.5711951760004,None,127.5711951760004,None,,,,,,,,,,,,,,,,,,,,,,,,,,,,,,,,,,,,,,,,,,,,001,86,2020_Feb_06_1225,spring_faces,3.1.5,59.97730650646876,
condition files/Stage0a.xlsx,0a,beta,none,g,"['h', 'g']","['Chess', 'Go']","[0, 0.5]","[0, 0]",1,0,0,3,3,3,0,1,1,1,,,,,,,,,,,,,,,,,,,,,,,,,,,,,,,,,,,,,,,,,,,,,,,,,,,,,,,,,,,,,,,129.53668049000044,None,129.53668049000044,None,129.53668049000044,None,g,1,0.3535769549998804,131.0715440640015,None,131.0715440640015,None,131.0715440640015,None,131.4873072290011,None,131.4873072290011,None,131.4873072290011,None,131.4873072290011,None,,,,,,,,,,,,,,,,,,,,,,,,,,,,,,,,,,,,,,,,,,,,001,86,2020_Feb_06_1225,spring_faces,3.1.5,59.97730650646876,
condition files/Stage0a.xlsx,0a,alpha,none,h,"['h', 'g']","['Chess', 'Go']","[0, 0.5]","[0, 0]",1,0,0,4,4,4,0,0,0,0,,,,,,,,,,,,,,,,,,,,,,,,,,,,,,,,,,,,,,,,,,,,,,,,,,,,,,,,,,,,,,,133.47098987800018,None,133.47098987800018,None,133.47098987800018,None,h,1,0.6457694199998514,134.98734710100143,None,134.98734710100143,None,134.98734710100143,None,135.68831886000044,None,135.68831886000044,None,135.68831886000044,None,135.68831886000044,None,,,,,,,,,,,,,,,,,,,,,,,,,,,,,,,,,,,,,,,,,,,,001,86,2020_Feb_06_1225,spring_faces,3.1.5,59.97730650646876,
condition files/Stage0a.xlsx,0a,beta,none,g,"['h', 'g']","['Chess', 'Go']","[0, 0.5]","[0, 0]",1,0,0,4,4,4,0,1,1,1,,,,,,,,,,,,,,,,,,,,,,,,,,,,,,,,,,,,,,,,,,,,,,,,,,,,,,,,,,,,,,,137.65427564900165,None,137.65427564900165,None,137.65427564900165,None,g,1,4.445375539000452,139.1877276660016,None,139.1877276660016,None,139.1877276660016,None,143.68740055600028,None,143.68740055600028,None,143.68740055600028,None,143.68740055600028,None,,,,,,,,,,,,,,,,,,,,,,,,,,,,,,,,,,,,,,,,,,,,001,86,2020_Feb_06_1225,spring_faces,3.1.5,59.97730650646876,
condition files/Stage0a.xlsx,0a,beta,none,g,"['h', 'g']","['Chess', 'Go']","[0, 0.5]","[0, 0]",1,0,0,5,5,5,0,0,0,1,,,,,,,,,,,,,,,,,,,,,,,,,,,,,,,,,,,,,,,,,,,,,,,,,,,,,,,,,,,,,,,145.67121349199988,None,145.67121349199988,None,145.67121349199988,None,g,1,0.41260263600088365,147.20446203300162,None,147.20446203300162,None,147.20446203300162,None,147.67077779900137,None,147.67077779900137,None,147.67077779900137,None,147.67077779900137,None,,,,,,,,,,,,,,,,,,,,,,,,,,,,,,,,,,,,,,,,,,,,001,86,2020_Feb_06_1225,spring_faces,3.1.5,59.97730650646876,
condition files/Stage0a.xlsx,0a,alpha,none,h,"['h', 'g']","['Chess', 'Go']","[0, 0.5]","[0, 0]",1,0,0,5,5,5,0,1,1,0,,,,,,,,,,,,,,,,,,,,,,,,,,,,,,,,,,,,,,,,,,,,,,,,,,,,,,,,,,,,,,,149.63749145200018,None,149.63749145200018,None,149.63749145200018,None,h,1,1.1817654299993592,151.17135710500042,None,151.17135710500042,None,151.17135710500042,None,152.404234353,None,152.404234353,None,152.404234353,None,152.404234353,None,,,,,,,,,,,,,,,,,,,,,,,,,,,,,,,,,,,,,,,,,,,,001,86,2020_Feb_06_1225,spring_faces,3.1.5,59.97730650646876,
condition files/Stage0b_1.xlsx,0b,alpha,none,h,"['h', 'g']","['Chess', 'Go']","[-0.15, 0.5]","[0.15, 0.5]",1,0,0,6,6,6,0,0,0,0,,,,,,,,,,,,,,,,,,,,,,,,,,,,,,,,,,,,,,,,,,,,,,,,,,,,,,,,,,,,,,,154.38853617800123,None,154.38853617800123,None,154.38853617800123,None,h,1,1.5034025859986286,155.92172555800062,None,155.92172555800062,None,155.92172555800062,None,157.48765220300083,None,157.48765220300083,None,157.48765220300083,None,157.48765220300083,None,,,,,,,,,,,,,,,,,,,,,,,,,,,,,,,,,,,,,,,,,,,,001,86,2020_Feb_06_1225,spring_faces,3.1.5,59.97730650646876,
condition files/Stage0b_1.xlsx,0b,none,beta,g,"['h', 'g']","['Chess', 'Go']","[-0.15, 0.5]","[0.15, 0.5]",0,1,0,6,6,6,0,1,1,1,,,,,,,,,,,,,,,,,,,,,,,,,,,,,,,,,,,,,,,,,,,,,,,,,,,,,,,,,,,,,,,159.45457553900087,None,159.45457553900087,None,159.45457553900087,None,g,1,0.6285698819992831,161.0045422410003,None,161.0045422410003,None,161.0045422410003,None,161.6924022050007,None,161.6924022050007,None,161.6924022050007,None,161.6924022050007,None,,,,,,,,,,,,,,,,,,,,,,,,,,,,,,,,,,,,,,,,,,,,001,86,2020_Feb_06_1225,spring_faces,3.1.5,59.97730650646876,
condition files/Stage0b_2.xlsx,0b,beta,none,g,"['h', 'g']","['Chess', 'Go']","[-0.15, 0.5]","[0.15, 0.5]",1,0,0,7,7,7,0,0,0,1,,,,,,,,,,,,,,,,,,,,,,,,,,,,,,,,,,,,,,,,,,,,,,,,,,,,,,,,,,,,,,,163.67094803500004,None,163.67094803500004,None,163.67094803500004,None,g,1,0.3922828799986746,165.20895539400044,None,165.20895539400044,None,165.20895539400044,None,165.65470361700136,None,165.65470361700136,None,165.65470361700136,None,165.65470361700136,None,,,,,,,,,,,,,,,,,,,,,,,,,,,,,,,,,,,,,,,,,,,,001,86,2020_Feb_06_1225,spring_faces,3.1.5,59.97730650646876,
condition files/Stage0b_2.xlsx,0b,none,alpha,h,"['h', 'g']","['Chess', 'Go']","[-0.15, 0.5]","[0.15, 0.5]",0,1,0,7,7,7,0,1,1,0,,,,,,,,,,,,,,,,,,,,,,,,,,,,,,,,,,,,,,,,,,,,,,,,,,,,,,,,,,,,,,,167.62046217900024,None,167.62046217900024,None,167.62046217900024,None,h,1,0.5908857100002933,169.15427674600141,None,169.15427674600141,None,169.15427674600141,None,169.82068553300087,None,169.82068553300087,None,169.82068553300087,None,169.82068553300087,None,,,,,,,,,,,,,,,,,,,,,,,,,,,,,,,,,,,,,,,,,,,,001,86,2020_Feb_06_1225,spring_faces,3.1.5,59.97730650646876,
condition files/Stage0b_1.xlsx,0b,alpha,none,h,"['h', 'g']","['Chess', 'Go']","[-0.15, 0.5]","[0.15, 0.5]",1,0,0,8,8,8,0,0,0,0,,,,,,,,,,,,,,,,,,,,,,,,,,,,,,,,,,,,,,,,,,,,,,,,,,,,,,,,,,,,,,,171.78713821200108,None,171.78713821200108,None,171.78713821200108,None,h,1,0.724332896001215,173.32474979500148,None,173.32474979500148,None,173.32474979500148,None,174.10468736500115,None,174.10468736500115,None,174.10468736500115,None,174.10468736500115,None,,,,,,,,,,,,,,,,,,,,,,,,,,,,,,,,,,,,,,,,,,,,001,86,2020_Feb_06_1225,spring_faces,3.1.5,59.97730650646876,
condition files/Stage0b_1.xlsx,0b,none,beta,g,"['h', 'g']","['Chess', 'Go']","[-0.15, 0.5]","[0.15, 0.5]",0,1,0,8,8,8,0,1,1,1,,,,,,,,,,,,,,,,,,,,,,,,,,,,,,,,,,,,,,,,,,,,,,,,,,,,,,,,,,,,,,,176.070899757,None,176.070899757,None,176.070899757,None,g,1,0.5095496239991917,177.60362921900014,None,177.60362921900014,None,177.60362921900014,None,178.17388118000054,None,178.17388118000054,None,178.17388118000054,None,178.17388118000054,None,,,,,,,,,,,,,,,,,,,,,,,,,,,,,,,,,,,,,,,,,,,,001,86,2020_Feb_06_1225,spring_faces,3.1.5,59.97730650646876,
condition files/Stage0b_2.xlsx,0b,none,alpha,h,"['h', 'g']","['Chess', 'Go']","[-0.15, 0.5]","[0.15, 0.5]",0,1,0,9,9,9,0,0,0,0,,,,,,,,,,,,,,,,,,,,,,,,,,,,,,,,,,,,,,,,,,,,,,,,,,,,,,,,,,,,,,,180.15415668400055,None,180.15415668400055,None,180.15415668400055,None,h,1,0.6818347560001712,181.68727218000095,None,181.68727218000095,None,181.68727218000095,None,182.4206386140013,None,182.4206386140013,None,182.4206386140013,None,182.4206386140013,None,,,,,,,,,,,,,,,,,,,,,,,,,,,,,,,,,,,,,,,,,,,,001,86,2020_Feb_06_1225,spring_faces,3.1.5,59.97730650646876,
condition files/Stage0b_2.xlsx,0b,beta,none,g,"['h', 'g']","['Chess', 'Go']","[-0.15, 0.5]","[0.15, 0.5]",1,0,0,9,9,9,0,1,1,1,,,,,,,,,,,,,,,,,,,,,,,,,,,,,,,,,,,,,,,,,,,,,,,,,,,,,,,,,,,,,,,184.38743699500083,None,184.38743699500083,None,184.38743699500083,None,g,1,0.6184855770006834,185.92668059300013,None,185.92668059300013,None,185.92668059300013,None,186.60673482600032,None,186.60673482600032,None,186.60673482600032,None,186.60673482600032,None,,,,,,,,,,,,,,,,,,,,,,,,,,,,,,,,,,,,,,,,,,,,001,86,2020_Feb_06_1225,spring_faces,3.1.5,59.97730650646876,
condition files/Stage0b_1.xlsx,0b,alpha,none,h,"['h', 'g']","['Chess', 'Go']","[-0.15, 0.5]","[0.15, 0.5]",1,0,0,10,10,10,0,0,0,0,,,,,,,,,,,,,,,,,,,,,,,,,,,,,,,,,,,,,,,,,,,,,,,,,,,,,,,,,,,,,,,188.58774064400131,None,188.58774064400131,None,188.58774064400131,None,h,1,0.5996795800001564,190.12144952800008,None,190.12144952800008,None,190.12144952800008,None,190.77081000300132,None,190.77081000300132,None,190.77081000300132,None,190.77081000300132,None,,,,,,,,,,,,,,,,,,,,,,,,,,,,,,,,,,,,,,,,,,,,001,86,2020_Feb_06_1225,spring_faces,3.1.5,59.97730650646876,
condition files/Stage0b_1.xlsx,0b,none,beta,g,"['h', 'g']","['Chess', 'Go']","[-0.15, 0.5]","[0.15, 0.5]",0,1,0,10,10,10,0,1,1,1,,,,,,,,,,,,,,,,,,,,,,,,,,,,,,,,,,,,,,,,,,,,,,,,,,,,,,,,,,,,,,,192.73758277900015,None,192.73758277900015,None,192.73758277900015,None,g,1,0.5452604019992577,194.28783509800087,None,194.28783509800087,None,194.28783509800087,None,194.8908837380004,None,194.8908837380004,None,194.8908837380004,None,194.8908837380004,None,,,,,,,,,,,,,,,,,,,,,,,,,,,,,,,,,,,,,,,,,,,,001,86,2020_Feb_06_1225,spring_faces,3.1.5,59.97730650646876,
condition files/Stage0b_2.xlsx,0b,none,alpha,h,"['h', 'g']","['Chess', 'Go']","[-0.15, 0.5]","[0.15, 0.5]",0,1,0,11,11,11,0,0,0,0,,,,,,,,,,,,,,,,,,,,,,,,,,,,,,,,,,,,,,,,,,,,,,,,,,,,,,,,,,,,,,,196.87160172699987,None,196.87160172699987,None,196.87160172699987,None,h,1,0.700342358000853,198.40473173100145,None,198.40473173100145,None,198.40473173100145,None,199.17104051800015,None,199.17104051800015,None,199.17104051800015,None,199.17104051800015,None,,,,,,,,,,,,,,,,,,,,,,,,,,,,,,,,,,,,,,,,,,,,001,86,2020_Feb_06_1225,spring_faces,3.1.5,59.97730650646876,
condition files/Stage0b_2.xlsx,0b,beta,none,g,"['h', 'g']","['Chess', 'Go']","[-0.15, 0.5]","[0.15, 0.5]",1,0,0,11,11,11,0,1,1,1,,,,,,,,,,,,,,,,,,,,,,,,,,,,,,,,,,,,,,,,,,,,,,,,,,,,,,,,,,,,,,,201.1376293680005,None,201.1376293680005,None,201.1376293680005,None,g,1,0.7054361009995773,202.68767218500034,None,202.68767218500034,None,202.68767218500034,None,203.45623602900014,None,203.45623602900014,None,203.45623602900014,None,203.45623602900014,None,,,,,,,,,,,,,,,,,,,,,,,,,,,,,,,,,,,,,,,,,,,,001,86,2020_Feb_06_1225,spring_faces,3.1.5,59.97730650646876,
condition files/Stage0c_1.xlsx,0c,alpha,phi,h,"['h', 'g']","['Chess', 'Go']","[-0.15, 0.5]","[0.15, 0.5]",1,1,0,12,12,12,0,0,0,1,,,,,,,,,,,,,,,,,,,,,,,,,,,,,,,,,,,,,,,,,,,,,,,,,,,,,,,,,,,,,,,205.43756858800043,None,205.43756858800043,None,205.43756858800043,None,h,1,4.645741112000906,206.97137272200052,None,206.97137272200052,None,206.97137272200052,None,211.67068861200096,None,211.67068861200096,None,211.67068861200096,None,211.67068861200096,None,,,,,,,,,,,,,,,,,,,,,,,,,,,,,,,,,,,,,,,,,,,,001,86,2020_Feb_06_1225,spring_faces,3.1.5,59.97730650646876,
condition files/Stage0c_1.xlsx,0c,beta,theta,g,"['h', 'g']","['Chess', 'Go']","[-0.15, 0.5]","[0.15, 0.5]",1,1,0,12,12,12,0,1,1,2,,,,,,,,,,,,,,,,,,,,,,,,,,,,,,,,,,,,,,,,,,,,,,,,,,,,,,,,,,,,,,,213.6374953170016,None,213.6374953170016,None,213.6374953170016,None,g,1,0.5425033080009598,215.17065771200032,None,215.17065771200032,None,215.17065771200032,None,215.770815373,None,215.770815373,None,215.770815373,None,215.770815373,None,,,,,,,,,,,,,,,,,,,,,,,,,,,,,,,,,,,,,,,,,,,,001,86,2020_Feb_06_1225,spring_faces,3.1.5,59.97730650646876,
condition files/Stage0c_1.xlsx,0c,theta,alpha,h,"['h', 'g']","['Chess', 'Go']","[-0.15, 0.5]","[0.15, 0.5]",1,1,0,12,12,12,0,2,2,0,,,,,,,,,,,,,,,,,,,,,,,,,,,,,,,,,,,,,,,,,,,,,,,,,,,,,,,,,,,,,,,217.73762419300147,None,217.73762419300147,None,217.73762419300147,None,h,1,1.6582816139998613,219.27087834600025,None,219.27087834600025,None,219.27087834600025,None,220.98900851600047,None,220.98900851600047,None,220.98900851600047,None,220.98900851600047,None,,,,,,,,,,,,,,,,,,,,,,,,,,,,,,,,,,,,,,,,,,,,001,86,2020_Feb_06_1225,spring_faces,3.1.5,59.97730650646876,
condition files/Stage0c_1.xlsx,0c,phi,beta,g,"['h', 'g']","['Chess', 'Go']","[-0.15, 0.5]","[0.15, 0.5]",1,1,0,12,12,12,0,3,3,3,,,,,,,,,,,,,,,,,,,,,,,,,,,,,,,,,,,,,,,,,,,,,,,,,,,,,,,,,,,,,,,222.95418701200106,None,222.95418701200106,None,222.95418701200106,None,g,1,0.5054748090005887,224.48768889300118,None,224.48768889300118,None,224.48768889300118,None,225.05461257300158,None,225.05461257300158,None,225.05461257300158,None,225.05461257300158,None,,,,,,,,,,,,,,,,,,,,,,,,,,,,,,,,,,,,,,,,,,,,001,86,2020_Feb_06_1225,spring_faces,3.1.5,59.97730650646876,
condition files/Stage0c_2.xlsx,0c,theta,beta,g,"['h', 'g']","['Chess', 'Go']","[-0.15, 0.5]","[0.15, 0.5]",1,1,0,13,13,13,0,0,0,2,,,,,,,,,,,,,,,,,,,,,,,,,,,,,,,,,,,,,,,,,,,,,,,,,,,,,,,,,,,,,,,227.0376670550013,None,227.0376670550013,None,227.0376670550013,None,g,1,0.9507394709999062,228.55433054600144,None,228.55433054600144,None,228.55433054600144,None,229.55486999700042,None,229.55486999700042,None,229.55486999700042,None,229.55486999700042,None,,,,,,,,,,,,,,,,,,,,,,,,,,,,,,,,,,,,,,,,,,,,001,86,2020_Feb_06_1225,spring_faces,3.1.5,59.97730650646876,
condition files/Stage0c_2.xlsx,0c,alpha,theta,h,"['h', 'g']","['Chess', 'Go']","[-0.15, 0.5]","[0.15, 0.5]",1,1,0,13,13,13,0,1,1,0,,,,,,,,,,,,,,,,,,,,,,,,,,,,,,,,,,,,,,,,,,,,,,,,,,,,,,,,,,,,,,,231.5371764470001,None,231.5371764470001,None,231.5371764470001,None,h,1,0.7056549509998149,233.0714631560004,None,233.0714631560004,None,233.0714631560004,None,233.83729661800135,None,233.83729661800135,None,233.83729661800135,None,233.83729661800135,None,,,,,,,,,,,,,,,,,,,,,,,,,,,,,,,,,,,,,,,,,,,,001,86,2020_Feb_06_1225,spring_faces,3.1.5,59.97730650646876,
condition files/Stage0c_2.xlsx,0c,phi,alpha,h,"['h', 'g']","['Chess', 'Go']","[-0.15, 0.5]","[0.15, 0.5]",1,1,0,13,13,13,0,2,2,1,,,,,,,,,,,,,,,,,,,,,,,,,,,,,,,,,,,,,,,,,,,,,,,,,,,,,,,,,,,,,,,235.804096707001,None,235.804096707001,None,235.804096707001,None,h,1,1.767639453000811,237.33741108300092,None,237.33741108300092,None,237.33741108300092,None,239.15457535400128,None,239.15457535400128,None,239.15457535400128,None,239.15457535400128,None,,,,,,,,,,,,,,,,,,,,,,,,,,,,,,,,,,,,,,,,,,,,001,86,2020_Feb_06_1225,spring_faces,3.1.5,59.97730650646876,
condition files/Stage0c_2.xlsx,0c,beta,phi,g,"['h', 'g']","['Chess', 'Go']","[-0.15, 0.5]","[0.15, 0.5]",1,1,0,13,13,13,0,3,3,3,,,,,,,,,,,,,,,,,,,,,,,,,,,,,,,,,,,,,,,,,,,,,,,,,,,,,,,,,,,,,,,241.1381565160009,None,241.1381565160009,None,241.1381565160009,None,g,1,0.6899235839991888,242.67118735199983,None,242.67118735199983,None,242.67118735199983,None,243.4212595500012,None,243.4212595500012,None,243.4212595500012,None,243.4212595500012,None,,,,,,,,,,,,,,,,,,,,,,,,,,,,,,,,,,,,,,,,,,,,001,86,2020_Feb_06_1225,spring_faces,3.1.5,59.97730650646876,
condition files/Stage0c_1.xlsx,0c,theta,alpha,h,"['h', 'g']","['Chess', 'Go']","[-0.15, 0.5]","[0.15, 0.5]",1,1,0,14,14,14,0,0,0,0,,,,,,,,,,,,,,,,,,,,,,,,,,,,,,,,,,,,,,,,,,,,,,,,,,,,,,,,,,,,,,,245.40410117400097,None,245.40410117400097,None,245.40410117400097,None,h,1,1.079185073998815,246.93788964000123,None,246.93788964000123,None,246.93788964000123,None,248.07109112200123,None,248.07109112200123,None,248.07109112200123,None,248.07109112200123,None,,,,,,,,,,,,,,,,,,,,,,,,,,,,,,,,,,,,,,,,,,,,001,86,2020_Feb_06_1225,spring_faces,3.1.5,59.97730650646876,
condition files/Stage0c_1.xlsx,0c,beta,theta,g,"['h', 'g']","['Chess', 'Go']","[-0.15, 0.5]","[0.15, 0.5]",1,1,0,14,14,14,0,1,1,2,,,,,,,,,,,,,,,,,,,,,,,,,,,,,,,,,,,,,,,,,,,,,,,,,,,,,,,,,,,,,,,250.0371079530014,None,250.0371079530014,None,250.0371079530014,None,g,1,0.5577630550014874,251.5713983730002,None,251.5713983730002,None,251.5713983730002,None,252.18759227300143,None,252.18759227300143,None,252.18759227300143,None,252.18759227300143,None,,,,,,,,,,,,,,,,,,,,,,,,,,,,,,,,,,,,,,,,,,,,001,86,2020_Feb_06_1225,spring_faces,3.1.5,59.97730650646876,
condition files/Stage0c_1.xlsx,0c,phi,beta,g,"['h', 'g']","['Chess', 'Go']","[-0.15, 0.5]","[0.15, 0.5]",1,1,0,14,14,14,0,2,2,3,,,,,,,,,,,,,,,,,,,,,,,,,,,,,,,,,,,,,,,,,,,,,,,,,,,,,,,,,,,,,,,254.15435154600164,None,254.15435154600164,None,254.15435154600164,None,g,1,1.0173823659988557,255.6876845300012,None,255.6876845300012,None,255.6876845300012,None,256.75420805700014,None,256.75420805700014,None,256.75420805700014,None,256.75420805700014,None,,,,,,,,,,,,,,,,,,,,,,,,,,,,,,,,,,,,,,,,,,,,001,86,2020_Feb_06_1225,spring_faces,3.1.5,59.97730650646876,
condition files/Stage0c_1.xlsx,0c,alpha,phi,h,"['h', 'g']","['Chess', 'Go']","[-0.15, 0.5]","[0.15, 0.5]",1,1,0,14,14,14,0,3,3,1,,,,,,,,,,,,,,,,,,,,,,,,,,,,,,,,,,,,,,,,,,,,,,,,,,,,,,,,,,,,,,,258.73747556700073,None,258.73747556700073,None,258.73747556700073,None,h,1,0.7700381419999758,260.27108246600073,None,260.27108246600073,None,260.27108246600073,None,261.1038217940004,None,261.1038217940004,None,261.1038217940004,None,261.1038217940004,None,,,,,,,,,,,,,,,,,,,,,,,,,,,,,,,,,,,,,,,,,,,,001,86,2020_Feb_06_1225,spring_faces,3.1.5,59.97730650646876,
condition files/Stage0c_2.xlsx,0c,theta,beta,g,"['h', 'g']","['Chess', 'Go']","[-0.15, 0.5]","[0.15, 0.5]",1,1,0,15,15,15,0,0,0,2,,,,,,,,,,,,,,,,,,,,,,,,,,,,,,,,,,,,,,,,,,,,,,,,,,,,,,,,,,,,,,,263.0878078300011,None,263.0878078300011,None,263.0878078300011,None,g,1,0.8205675070003053,264.60455435900076,None,264.60455435900076,None,264.60455435900076,None,265.4876844970004,None,265.4876844970004,None,265.4876844970004,None,265.4876844970004,None,,,,,,,,,,,,,,,,,,,,,,,,,,,,,,,,,,,,,,,,,,,,001,86,2020_Feb_06_1225,spring_faces,3.1.5,59.97730650646876,
condition files/Stage0c_2.xlsx,0c,beta,phi,g,"['h', 'g']","['Chess', 'Go']","[-0.15, 0.5]","[0.15, 0.5]",1,1,0,15,15,15,0,1,1,3,,,,,,,,,,,,,,,,,,,,,,,,,,,,,,,,,,,,,,,,,,,,,,,,,,,,,,,,,,,,,,,267.45372030399994,None,267.45372030399994,None,267.45372030399994,None,g,1,0.7732263680009055,268.9878583940008,None,268.9878583940008,None,268.9878583940008,None,269.80513886300105,None,269.80513886300105,None,269.80513886300105,None,269.80513886300105,None,,,,,,,,,,,,,,,,,,,,,,,,,,,,,,,,,,,,,,,,,,,,001,86,2020_Feb_06_1225,spring_faces,3.1.5,59.97730650646876,
condition files/Stage0c_2.xlsx,0c,phi,alpha,h,"['h', 'g']","['Chess', 'Go']","[-0.15, 0.5]","[0.15, 0.5]",1,1,0,15,15,15,0,2,2,1,,,,,,,,,,,,,,,,,,,,,,,,,,,,,,,,,,,,,,,,,,,,,,,,,,,,,,,,,,,,,,,271.7875652790008,None,271.7875652790008,None,271.7875652790008,None,h,1,1.255950444001428,273.32116357000086,None,273.32116357000086,None,273.32116357000086,None,274.63798334400053,None,274.63798334400053,None,274.63798334400053,None,274.63798334400053,None,,,,,,,,,,,,,,,,,,,,,,,,,,,,,,,,,,,,,,,,,,,,001,86,2020_Feb_06_1225,spring_faces,3.1.5,59.97730650646876,
condition files/Stage0c_2.xlsx,0c,alpha,theta,h,"['h', 'g']","['Chess', 'Go']","[-0.15, 0.5]","[0.15, 0.5]",1,1,0,15,15,15,0,3,3,0,,,,,,,,,,,,,,,,,,,,,,,,,,,,,,,,,,,,,,,,,,,,,,,,,,,,,,,,,,,,,,,276.6041237130012,None,276.6041237130012,None,276.6041237130012,None,h,1,1.0633643469991512,278.1378389500005,None,278.1378389500005,None,278.1378389500005,None,279.2389123870016,None,279.2389123870016,None,279.2389123870016,None,279.2389123870016,None,,,,,,,,,,,,,,,,,,,,,,,,,,,,,,,,,,,,,,,,,,,,001,86,2020_Feb_06_1225,spring_faces,3.1.5,59.97730650646876,
condition files/Stage0c_1.xlsx,0c,phi,beta,g,"['h', 'g']","['Chess', 'Go']","[-0.15, 0.5]","[0.15, 0.5]",1,1,0,16,16,16,0,0,0,3,,,,,,,,,,,,,,,,,,,,,,,,,,,,,,,,,,,,,,,,,,,,,,,,,,,,,,,,,,,,,,,281.2374934240015,None,281.2374934240015,None,281.2374934240015,None,g,1,1.054186896999454,282.7709518390002,None,282.7709518390002,None,282.7709518390002,None,283.8880691250015,None,283.8880691250015,None,283.8880691250015,None,283.8880691250015,None,,,,,,,,,,,,,,,,,,,,,,,,,,,,,,,,,,,,,,,,,,,,001,86,2020_Feb_06_1225,spring_faces,3.1.5,59.97730650646876,
condition files/Stage0c_1.xlsx,0c,alpha,phi,h,"['h', 'g']","['Chess', 'Go']","[-0.15, 0.5]","[0.15, 0.5]",1,1,0,16,16,16,0,1,1,1,,,,,,,,,,,,,,,,,,,,,,,,,,,,,,,,,,,,,,,,,,,,,,,,,,,,,,,,,,,,,,,285.8540928400016,None,285.8540928400016,None,285.8540928400016,None,h,1,1.365238987000339,287.3878814970012,None,287.3878814970012,None,287.3878814970012,None,288.8044408630012,None,288.8044408630012,None,288.8044408630012,None,288.8044408630012,None,,,,,,,,,,,,,,,,,,,,,,,,,,,,,,,,,,,,,,,,,,,,001,86,2020_Feb_06_1225,spring_faces,3.1.5,59.97730650646876,
condition files/Stage0c_1.xlsx,0c,beta,theta,g,"['h', 'g']","['Chess', 'Go']","[-0.15, 0.5]","[0.15, 0.5]",1,1,0,16,16,16,0,2,2,2,,,,,,,,,,,,,,,,,,,,,,,,,,,,,,,,,,,,,,,,,,,,,,,,,,,,,,,,,,,,,,,290.7709224070004,None,290.7709224070004,None,290.7709224070004,None,g,1,0.832540417999553,292.30458559600083,None,292.30458559600083,None,292.30458559600083,None,293.18789067800026,None,293.18789067800026,None,293.18789067800026,None,293.18789067800026,None,,,,,,,,,,,,,,,,,,,,,,,,,,,,,,,,,,,,,,,,,,,,001,86,2020_Feb_06_1225,spring_faces,3.1.5,59.97730650646876,
condition files/Stage0c_1.xlsx,0c,theta,alpha,h,"['h', 'g']","['Chess', 'Go']","[-0.15, 0.5]","[0.15, 0.5]",1,1,0,16,16,16,0,3,3,0,,,,,,,,,,,,,,,,,,,,,,,,,,,,,,,,,,,,,,,,,,,,,,,,,,,,,,,,,,,,,,,295.15419738900164,None,295.15419738900164,None,295.15419738900164,None,h,1,0.9932121700003336,296.6879486910002,None,296.6879486910002,None,296.6879486910002,None,297.7382246160014,None,297.7382246160014,None,297.7382246160014,None,297.7382246160014,None,,,,,,,,,,,,,,,,,,,,,,,,,,,,,,,,,,,,,,,,,,,,001,86,2020_Feb_06_1225,spring_faces,3.1.5,59.97730650646876,
condition files/Stage0c_2.xlsx,0c,alpha,theta,h,"['h', 'g']","['Chess', 'Go']","[-0.15, 0.5]","[0.15, 0.5]",1,1,0,17,17,17,0,0,0,0,,,,,,,,,,,,,,,,,,,,,,,,,,,,,,,,,,,,,,,,,,,,,,,,,,,,,,,,,,,,,,,299.7209721320014,None,299.7209721320014,None,299.7209721320014,None,h,1,1.0342687020001904,301.25476422800057,None,301.25476422800057,None,301.25476422800057,None,302.3406088110005,None,302.3406088110005,None,302.3406088110005,None,302.3406088110005,None,,,,,,,,,,,,,,,,,,,,,,,,,,,,,,,,,,,,,,,,,,,,001,86,2020_Feb_06_1225,spring_faces,3.1.5,59.97730650646876,
condition files/Stage0c_2.xlsx,0c,beta,phi,g,"['h', 'g']","['Chess', 'Go']","[-0.15, 0.5]","[0.15, 0.5]",1,1,0,17,17,17,0,1,1,3,,,,,,,,,,,,,,,,,,,,,,,,,,,,,,,,,,,,,,,,,,,,,,,,,,,,,,,,,,,,,,,304.32113810600094,None,304.32113810600094,None,304.32113810600094,None,g,1,0.5944368630007375,305.85465791200113,None,305.85465791200113,None,305.85465791200113,None,306.50444347100165,None,306.50444347100165,None,306.50444347100165,None,306.50444347100165,None,,,,,,,,,,,,,,,,,,,,,,,,,,,,,,,,,,,,,,,,,,,,001,86,2020_Feb_06_1225,spring_faces,3.1.5,59.97730650646876,
condition files/Stage0c_2.xlsx,0c,phi,alpha,h,"['h', 'g']","['Chess', 'Go']","[-0.15, 0.5]","[0.15, 0.5]",1,1,0,17,17,17,0,2,2,1,,,,,,,,,,,,,,,,,,,,,,,,,,,,,,,,,,,,,,,,,,,,,,,,,,,,,,,,,,,,,,,308.4707175910007,None,308.4707175910007,None,308.4707175910007,None,h,1,0.8125278360002994,310.0045683320004,None,310.0045683320004,None,310.0045683320004,None,310.87059534500077,None,310.87059534500077,None,310.87059534500077,None,310.87059534500077,None,,,,,,,,,,,,,,,,,,,,,,,,,,,,,,,,,,,,,,,,,,,,001,86,2020_Feb_06_1225,spring_faces,3.1.5,59.97730650646876,
condition files/Stage0c_2.xlsx,0c,theta,beta,g,"['h', 'g']","['Chess', 'Go']","[-0.15, 0.5]","[0.15, 0.5]",1,1,0,17,17,17,0,3,3,2,,,,,,,,,,,,,,,,,,,,,,,,,,,,,,,,,,,,,,,,,,,,,,,,,,,,,,,,,,,,,,,312.83714572900135,None,312.83714572900135,None,312.83714572900135,None,g,1,0.8779861900002288,314.3710968539999,None,314.3710968539999,None,314.3710968539999,None,315.30484802400133,None,315.30484802400133,None,315.30484802400133,None,315.30484802400133,None,,,,,,,,,,,,,,,,,,,,,,,,,,,,,,,,,,,,,,,,,,,,001,86,2020_Feb_06_1225,spring_faces,3.1.5,59.97730650646876,
,,,,,,,,,,,,,,,,,,,,,,,,,,,,,,,,,,,,,,,,,,,,,,,,,,,,,,,,,,,,,,,,,,,,,,,,,,,,,,,,,,,,,,,,,,,,,,,,,,,,,,,,317.2876282800007,None,space,4.097435389998282,322.2876777700003,None,,,,,,,,,,,,,,,,,,,,,,,,,,,,,,,,,,,,,,001,86,2020_Feb_06_1225,spring_faces,3.1.5,59.97730650646876,
condition files/Stage1_1.xlsx,,B3,T3,c,"['c', 'm']","['Clue', 'Monopoly']","[-0.15, 0.5]","[0.15, 0.5]",1,1,,,,,,,,,0,0,0,0,0,0,0,4,,,,,,,,,,,,,,,,,,,,,,,,,,,,,,,,,,,,,,,,,,,,,,,,,,,,,,,326.43732182400163,None,326.43732182400163,None,326.43732182400163,None,m,0,2.909933197999635,327.971243254,None,327.971243254,None,327.971243254,None,330.9538932260002,None,330.9538932260002,None,330.9538932260002,None,330.9538932260002,None,,,,,,,322.2876777700003,None,,,,,,,,,,,,,,,,,,,,,,,,,,,,,,,,,,,,001,86,2020_Feb_06_1225,spring_faces,3.1.5,59.97730650646876,
condition files/Stage1_1.xlsx,,T2,B2,m,"['c', 'm']","['Clue', 'Monopoly']","[-0.15, 0.5]","[0.15, 0.5]",1,1,,,,,,,,,0,0,0,0,0,1,1,3,,,,,,,,,,,,,,,,,,,,,,,,,,,,,,,,,,,,,,,,,,,,,,,,,,,,,,,332.9047766350013,None,332.9047766350013,None,332.9047766350013,None,c,0,4.409641027001271,334.4394361270006,None,334.4394361270006,None,334.4394361270006,None,338.92128867800056,None,338.92128867800056,None,338.92128867800056,None,338.92128867800056,None,,,,,,,,,,,,,,,,,,,,,,,,,,,,,,,,,,,,,,,,,,,,001,86,2020_Feb_06_1225,spring_faces,3.1.5,59.97730650646876,
condition files/Stage1_1.xlsx,,T1,B1,c,"['c', 'm']","['Clue', 'Monopoly']","[-0.15, 0.5]","[0.15, 0.5]",1,1,,,,,,,,,0,0,0,0,0,2,2,0,,,,,,,,,,,,,,,,,,,,,,,,,,,,,,,,,,,,,,,,,,,,,,,,,,,,,,,340.8709327810011,None,340.8709327810011,None,340.8709327810011,None,m,0,2.3954890389995853,342.4058166450013,None,342.4058166450013,None,342.4058166450013,None,344.8713194540014,None,344.8713194540014,None,344.8713194540014,None,344.8713194540014,None,,,,,,,,,,,,,,,,,,,,,,,,,,,,,,,,,,,,,,,,,,,,001,86,2020_Feb_06_1225,spring_faces,3.1.5,59.97730650646876,
condition files/Stage1_1.xlsx,,B1,T2,c,"['c', 'm']","['Clue', 'Monopoly']","[-0.15, 0.5]","[0.15, 0.5]",1,1,,,,,,,,,0,0,0,0,0,3,3,1,,,,,,,,,,,,,,,,,,,,,,,,,,,,,,,,,,,,,,,,,,,,,,,,,,,,,,,346.8206045900006,None,346.8206045900006,None,346.8206045900006,None,c,1,2.3506641540006967,348.35441933400034,None,348.35441933400034,None,348.35441933400034,None,350.7711743540003,None,350.7711743540003,None,350.7711743540003,None,350.7711743540003,None,,,,,,,,,,,,,,,,,,,,,,,,,,,,,,,,,,,,,,,,,,,,001,86,2020_Feb_06_1225,spring_faces,3.1.5,59.97730650646876,
condition files/Stage1_1.xlsx,,B4,T4,m,"['c', 'm']","['Clue', 'Monopoly']","[-0.15, 0.5]","[0.15, 0.5]",1,1,,,,,,,,,0,0,0,0,0,4,4,7,,,,,,,,,,,,,,,,,,,,,,,,,,,,,,,,,,,,,,,,,,,,,,,,,,,,,,,352.7371772580009,None,352.7371772580009,None,352.7371772580009,None,c,0,1.1202907509996294,354.2728408480016,None,354.2728408480016,None,354.2728408480016,None,355.4547001460014,None,355.4547001460014,None,355.4547001460014,None,355.4547001460014,None,,,,,,,,,,,,,,,,,,,,,,,,,,,,,,,,,,,,,,,,,,,,001,86,2020_Feb_06_1225,spring_faces,3.1.5,59.97730650646876,
condition files/Stage1_1.xlsx,,B2,T1,m,"['c', 'm']","['Clue', 'Monopoly']","[-0.15, 0.5]","[0.15, 0.5]",1,1,,,,,,,,,0,0,0,0,0,5,5,2,,,,,,,,,,,,,,,,,,,,,,,,,,,,,,,,,,,,,,,,,,,,,,,,,,,,,,,357.4208823610006,None,357.4208823610006,None,357.4208823610006,None,c,0,2.724773367001035,358.9563922640009,None,358.9563922640009,None,358.9563922640009,None,361.73745039700043,None,361.73745039700043,None,361.73745039700043,None,361.73745039700043,None,,,,,,,,,,,,,,,,,,,,,,,,,,,,,,,,,,,,,,,,,,,,001,86,2020_Feb_06_1225,spring_faces,3.1.5,59.97730650646876,
condition files/Stage1_1.xlsx,,T4,B3,m,"['c', 'm']","['Clue', 'Monopoly']","[-0.15, 0.5]","[0.15, 0.5]",1,1,,,,,,,,,0,0,0,0,0,6,6,6,,,,,,,,,,,,,,,,,,,,,,,,,,,,,,,,,,,,,,,,,,,,,,,,,,,,,,,363.7036552940008,None,363.7036552940008,None,363.7036552940008,None,c,0,1.4035837820010784,365.2375451630014,None,365.2375451630014,None,365.2375451630014,None,366.70414326600076,None,366.70414326600076,None,366.70414326600076,None,366.70414326600076,None,,,,,,,,,,,,,,,,,,,,,,,,,,,,,,,,,,,,,,,,,,,,001,86,2020_Feb_06_1225,spring_faces,3.1.5,59.97730650646876,
condition files/Stage1_1.xlsx,,T3,B4,c,"['c', 'm']","['Clue', 'Monopoly']","[-0.15, 0.5]","[0.15, 0.5]",1,1,,,,,,,,,0,0,0,0,0,7,7,5,,,,,,,,,,,,,,,,,,,,,,,,,,,,,,,,,,,,,,,,,,,,,,,,,,,,,,,368.67094742300105,None,368.67094742300105,None,368.67094742300105,None,c,1,2.004810427000848,370.2043195040005,None,370.2043195040005,None,370.2043195040005,None,372.2714062570012,None,372.2714062570012,None,372.2714062570012,None,372.2714062570012,None,,,,,,,,,,,,,,,,,,,,,,,,,,,,,,,,,,,,,,,,,,,,001,86,2020_Feb_06_1225,spring_faces,3.1.5,59.97730650646876,
condition files/Stage1_2.xlsx,,T4,B4,m,"['c', 'm']","['Clue', 'Monopoly']","[-0.15, 0.5]","[0.15, 0.5]",1,1,,,,,,,,,0,1,1,1,0,0,0,7,,,,,,,,,,,,,,,,,,,,,,,,,,,,,,,,,,,,,,,,,,,,,,,,,,,,,,,374.2542168070013,None,374.2542168070013,None,374.2542168070013,None,c,0,2.9658908630008227,375.7872266300001,None,375.7872266300001,None,375.7872266300001,None,378.8204319690012,None,378.8204319690012,None,378.8204319690012,None,378.8204319690012,None,,,,,,,,,,,,,,,,,,,,,,,,,,,,,,,,,,,,,,,,,,,,001,86,2020_Feb_06_1225,spring_faces,3.1.5,59.97730650646876,
condition files/Stage1_2.xlsx,,B2,T2,m,"['c', 'm']","['Clue', 'Monopoly']","[-0.15, 0.5]","[0.15, 0.5]",1,1,,,,,,,,,0,1,1,1,0,1,1,3,,,,,,,,,,,,,,,,,,,,,,,,,,,,,,,,,,,,,,,,,,,,,,,,,,,,,,,380.77075930400133,None,380.77075930400133,None,380.77075930400133,None,m,1,1.8398960489994352,382.3212702380006,None,382.3212702380006,None,382.3212702380006,None,384.2211065620013,None,384.2211065620013,None,384.2211065620013,None,384.2211065620013,None,,,,,,,,,,,,,,,,,,,,,,,,,,,,,,,,,,,,,,,,,,,,001,86,2020_Feb_06_1225,spring_faces,3.1.5,59.97730650646876,
condition files/Stage1_2.xlsx,,B1,T1,c,"['c', 'm']","['Clue', 'Monopoly']","[-0.15, 0.5]","[0.15, 0.5]",1,1,,,,,,,,,0,1,1,1,0,2,2,0,,,,,,,,,,,,,,,,,,,,,,,,,,,,,,,,,,,,,,,,,,,,,,,,,,,,,,,386.1868681770011,None,386.1868681770011,None,386.1868681770011,None,m,0,2.6802091310000833,387.72101446500164,None,387.72101446500164,None,387.72101446500164,None,390.4569732880009,None,390.4569732880009,None,390.4569732880009,None,390.4569732880009,None,,,,,,,,,,,,,,,,,,,,,,,,,,,,,,,,,,,,,,,,,,,,001,86,2020_Feb_06_1225,spring_faces,3.1.5,59.97730650646876,
condition files/Stage1_2.xlsx,,T1,B2,m,"['c', 'm']","['Clue', 'Monopoly']","[-0.15, 0.5]","[0.15, 0.5]",1,1,,,,,,,,,0,1,1,1,0,3,3,2,,,,,,,,,,,,,,,,,,,,,,,,,,,,,,,,,,,,,,,,,,,,,,,,,,,,,,,392.4208971759999,None,392.4208971759999,None,392.4208971759999,None,m,1,3.58112173399968,393.95599831100117,None,393.95599831100117,None,393.95599831100117,None,397.5890693860001,None,397.5890693860001,None,397.5890693860001,None,397.5890693860001,None,,,,,,,,,,,,,,,,,,,,,,,,,,,,,,,,,,,,,,,,,,,,001,86,2020_Feb_06_1225,spring_faces,3.1.5,59.97730650646876,
condition files/Stage1_2.xlsx,,B4,T3,c,"['c', 'm']","['Clue', 'Monopoly']","[-0.15, 0.5]","[0.15, 0.5]",1,1,,,,,,,,,0,1,1,1,0,4,4,5,,,,,,,,,,,,,,,,,,,,,,,,,,,,,,,,,,,,,,,,,,,,,,,,,,,,,,,399.55456233100085,None,399.55456233100085,None,399.55456233100085,None,c,1,1.0416785839988734,401.08750510700156,None,401.08750510700156,None,401.08750510700156,None,402.188303379,None,402.188303379,None,402.188303379,None,402.188303379,None,,,,,,,,,,,,,,,,,,,,,,,,,,,,,,,,,,,,,,,,,,,,001,86,2020_Feb_06_1225,spring_faces,3.1.5,59.97730650646876,
condition files/Stage1_2.xlsx,,T2,B1,c,"['c', 'm']","['Clue', 'Monopoly']","[-0.15, 0.5]","[0.15, 0.5]",1,1,,,,,,,,,0,1,1,1,0,5,5,1,,,,,,,,,,,,,,,,,,,,,,,,,,,,,,,,,,,,,,,,,,,,,,,,,,,,,,,404.15407539900116,None,404.15407539900116,None,404.15407539900116,None,m,0,2.361222187999374,405.6878792290008,None,405.6878792290008,None,405.6878792290008,None,408.1040976510012,None,408.1040976510012,None,408.1040976510012,None,408.1040976510012,None,,,,,,,,,,,,,,,,,,,,,,,,,,,,,,,,,,,,,,,,,,,,001,86,2020_Feb_06_1225,spring_faces,3.1.5,59.97730650646876,
condition files/Stage1_2.xlsx,,B3,T4,m,"['c', 'm']","['Clue', 'Monopoly']","[-0.15, 0.5]","[0.15, 0.5]",1,1,,,,,,,,,0,1,1,1,0,6,6,6,,,,,,,,,,,,,,,,,,,,,,,,,,,,,,,,,,,,,,,,,,,,,,,,,,,,,,,410.07084810700144,None,410.07084810700144,None,410.07084810700144,None,m,1,2.700660083999537,411.60441173300023,None,411.60441173300023,None,411.60441173300023,None,414.38780930600115,None,414.38780930600115,None,414.38780930600115,None,414.38780930600115,None,,,,,,,,,,,,,,,,,,,,,,,,,,,,,,,,,,,,,,,,,,,,001,86,2020_Feb_06_1225,spring_faces,3.1.5,59.97730650646876,
condition files/Stage1_2.xlsx,,T3,B3,c,"['c', 'm']","['Clue', 'Monopoly']","[-0.15, 0.5]","[0.15, 0.5]",1,1,,,,,,,,,0,1,1,1,0,7,7,4,,,,,,,,,,,,,,,,,,,,,,,,,,,,,,,,,,,,,,,,,,,,,,,,,,,,,,,416.33723636600007,None,416.33723636600007,None,416.33723636600007,None,c,1,2.3048127580004802,417.87236744500115,None,417.87236744500115,None,417.87236744500115,None,420.2384452590013,None,420.2384452590013,None,420.2384452590013,None,420.2384452590013,None,,,,,,,,,,,,,,,,,,,,,,,,,,,,,,,,,,,,,,,,,,,,001,86,2020_Feb_06_1225,spring_faces,3.1.5,59.97730650646876,
condition files/Stage1_1.xlsx,,B4,T4,m,"['c', 'm']","['Clue', 'Monopoly']","[-0.15, 0.5]","[0.15, 0.5]",1,1,,,,,,,,,0,2,2,2,0,0,0,7,,,,,,,,,,,,,,,,,,,,,,,,,,,,,,,,,,,,,,,,,,,,,,,,,,,,,,,422.2215956910004,None,422.2215956910004,None,422.2215956910004,None,m,1,0.9180922110008396,423.75504836300024,None,423.75504836300024,None,423.75504836300024,None,424.73712265799986,None,424.73712265799986,None,424.73712265799986,None,424.73712265799986,None,,,,,,,,,,,,,,,,,,,,,,,,,,,,,,,,,,,,,,,,,,,,001,86,2020_Feb_06_1225,spring_faces,3.1.5,59.97730650646876,
condition files/Stage1_1.xlsx,,T3,B4,c,"['c', 'm']","['Clue', 'Monopoly']","[-0.15, 0.5]","[0.15, 0.5]",1,1,,,,,,,,,0,2,2,2,0,1,1,5,,,,,,,,,,,,,,,,,,,,,,,,,,,,,,,,,,,,,,,,,,,,,,,,,,,,,,,426.70408119700005,None,426.70408119700005,None,426.70408119700005,None,c,1,0.9152956150010141,428.2378203690005,None,428.2378203690005,None,428.2378203690005,None,429.20524236300116,None,429.20524236300116,None,429.20524236300116,None,429.20524236300116,None,,,,,,,,,,,,,,,,,,,,,,,,,,,,,,,,,,,,,,,,,,,,001,86,2020_Feb_06_1225,spring_faces,3.1.5,59.97730650646876,
condition files/Stage1_1.xlsx,,T1,B1,c,"['c', 'm']","['Clue', 'Monopoly']","[-0.15, 0.5]","[0.15, 0.5]",1,1,,,,,,,,,0,2,2,2,0,2,2,0,,,,,,,,,,,,,,,,,,,,,,,,,,,,,,,,,,,,,,,,,,,,,,,,,,,,,,,431.170551919,None,431.170551919,None,431.170551919,None,c,1,1.8571765969991247,432.7039944830012,None,432.7039944830012,None,432.7039944830012,None,434.62059132500144,None,434.62059132500144,None,434.62059132500144,None,434.62059132500144,None,,,,,,,,,,,,,,,,,,,,,,,,,,,,,,,,,,,,,,,,,,,,001,86,2020_Feb_06_1225,spring_faces,3.1.5,59.97730650646876,
condition files/Stage1_1.xlsx,,B2,T1,m,"['c', 'm']","['Clue', 'Monopoly']","[-0.15, 0.5]","[0.15, 0.5]",1,1,,,,,,,,,0,2,2,2,0,3,3,2,,,,,,,,,,,,,,,,,,,,,,,,,,,,,,,,,,,,,,,,,,,,,,,,,,,,,,,436.58658263899997,None,436.58658263899997,None,436.58658263899997,None,m,1,1.0946291300006123,438.1224845200013,None,438.1224845200013,None,438.1224845200013,None,439.2872188930014,None,439.2872188930014,None,439.2872188930014,None,439.2872188930014,None,,,,,,,,,,,,,,,,,,,,,,,,,,,,,,,,,,,,,,,,,,,,001,86,2020_Feb_06_1225,spring_faces,3.1.5,59.97730650646876,
condition files/Stage1_1.xlsx,,B1,T2,c,"['c', 'm']","['Clue', 'Monopoly']","[-0.15, 0.5]","[0.15, 0.5]",1,1,,,,,,,,,0,2,2,2,0,4,4,1,,,,,,,,,,,,,,,,,,,,,,,,,,,,,,,,,,,,,,,,,,,,,,,,,,,,,,,441.2371162500003,None,441.2371162500003,None,441.2371162500003,None,m,0,0.7178547980001895,442.7711903600011,None,442.7711903600011,None,442.7711903600011,None,443.55437673100096,None,443.55437673100096,None,443.55437673100096,None,443.55437673100096,None,,,,,,,,,,,,,,,,,,,,,,,,,,,,,,,,,,,,,,,,,,,,001,86,2020_Feb_06_1225,spring_faces,3.1.5,59.97730650646876,
condition files/Stage1_1.xlsx,,T4,B3,m,"['c', 'm']","['Clue', 'Monopoly']","[-0.15, 0.5]","[0.15, 0.5]",1,1,,,,,,,,,0,2,2,2,0,5,5,6,,,,,,,,,,,,,,,,,,,,,,,,,,,,,,,,,,,,,,,,,,,,,,,,,,,,,,,445.5209256980015,None,445.5209256980015,None,445.5209256980015,None,c,0,1.6330555330005154,447.05605768200076,None,447.05605768200076,None,447.05605768200076,None,448.77102833000026,None,448.77102833000026,None,448.77102833000026,None,448.77102833000026,None,,,,,,,,,,,,,,,,,,,,,,,,,,,,,,,,,,,,,,,,,,,,001,86,2020_Feb_06_1225,spring_faces,3.1.5,59.97730650646876,
condition files/Stage1_1.xlsx,,B3,T3,c,"['c', 'm']","['Clue', 'Monopoly']","[-0.15, 0.5]","[0.15, 0.5]",1,1,,,,,,,,,0,2,2,2,0,6,6,4,,,,,,,,,,,,,,,,,,,,,,,,,,,,,,,,,,,,,,,,,,,,,,,,,,,,,,,450.72111428600147,None,450.72111428600147,None,450.72111428600147,None,m,0,1.7627485989996785,452.2543666370002,None,452.2543666370002,None,452.2543666370002,None,454.07236860800003,None,454.07236860800003,None,454.07236860800003,None,454.07236860800003,None,,,,,,,,,,,,,,,,,,,,,,,,,,,,,,,,,,,,,,,,,,,,001,86,2020_Feb_06_1225,spring_faces,3.1.5,59.97730650646876,
condition files/Stage1_1.xlsx,,T2,B2,m,"['c', 'm']","['Clue', 'Monopoly']","[-0.15, 0.5]","[0.15, 0.5]",1,1,,,,,,,,,0,2,2,2,0,7,7,3,,,,,,,,,,,,,,,,,,,,,,,,,,,,,,,,,,,,,,,,,,,,,,,,,,,,,,,456.0371387089999,None,456.0371387089999,None,456.0371387089999,None,c,0,2.1093746480000846,457.571810499001,None,457.571810499001,None,457.571810499001,None,459.73992773100144,None,459.73992773100144,None,459.73992773100144,None,459.73992773100144,None,,,,,,,,,,,,,,,,,,,,,,,,,,,,,,,,,,,,,,,,,,,,001,86,2020_Feb_06_1225,spring_faces,3.1.5,59.97730650646876,
condition files/Stage1_2.xlsx,,T3,B3,c,"['c', 'm']","['Clue', 'Monopoly']","[-0.15, 0.5]","[0.15, 0.5]",1,1,,,,,,,,,0,3,3,3,0,0,0,4,,,,,,,,,,,,,,,,,,,,,,,,,,,,,,,,,,,,,,,,,,,,,,,,,,,,,,,461.7212842890003,None,461.7212842890003,None,461.7212842890003,None,m,0,1.5938806430003751,463.27119855300043,None,463.27119855300043,None,463.27119855300043,None,464.9225861499999,None,464.9225861499999,None,464.9225861499999,None,464.9225861499999,None,,,,,,,,,,,,,,,,,,,,,,,,,,,,,,,,,,,,,,,,,,,,001,86,2020_Feb_06_1225,spring_faces,3.1.5,59.97730650646876,
condition files/Stage1_2.xlsx,,T4,B4,m,"['c', 'm']","['Clue', 'Monopoly']","[-0.15, 0.5]","[0.15, 0.5]",1,1,,,,,,,,,0,3,3,3,0,1,1,7,,,,,,,,,,,,,,,,,,,,,,,,,,,,,,,,,,,,,,,,,,,,,,,,,,,,,,,466.88776094700006,None,466.88776094700006,None,466.88776094700006,None,c,0,1.7571056849992601,468.42006978300014,None,468.42006978300014,None,468.42006978300014,None,470.2377304670008,None,470.2377304670008,None,470.2377304670008,None,470.2377304670008,None,,,,,,,,,,,,,,,,,,,,,,,,,,,,,,,,,,,,,,,,,,,,001,86,2020_Feb_06_1225,spring_faces,3.1.5,59.97730650646876,
condition files/Stage1_2.xlsx,,T1,B2,m,"['c', 'm']","['Clue', 'Monopoly']","[-0.15, 0.5]","[0.15, 0.5]",1,1,,,,,,,,,0,3,3,3,0,2,2,2,,,,,,,,,,,,,,,,,,,,,,,,,,,,,,,,,,,,,,,,,,,,,,,,,,,,,,,472.2043861330003,None,472.2043861330003,None,472.2043861330003,None,m,1,2.823587917999248,473.73759734000123,None,473.73759734000123,None,473.73759734000123,None,476.62075385700155,None,476.62075385700155,None,476.62075385700155,None,476.62075385700155,None,,,,,,,,,,,,,,,,,,,,,,,,,,,,,,,,,,,,,,,,,,,,001,86,2020_Feb_06_1225,spring_faces,3.1.5,59.97730650646876,
condition files/Stage1_2.xlsx,,B3,T4,m,"['c', 'm']","['Clue', 'Monopoly']","[-0.15, 0.5]","[0.15, 0.5]",1,1,,,,,,,,,0,3,3,3,0,3,3,6,,,,,,,,,,,,,,,,,,,,,,,,,,,,,,,,,,,,,,,,,,,,,,,,,,,,,,,478.58698450000156,None,478.58698450000156,None,478.58698450000156,None,c,0,0.8218360709997796,480.1233520149999,None,480.1233520149999,None,480.1233520149999,None,481.00420560900056,None,481.00420560900056,None,481.00420560900056,None,481.00420560900056,None,,,,,,,,,,,,,,,,,,,,,,,,,,,,,,,,,,,,,,,,,,,,001,86,2020_Feb_06_1225,spring_faces,3.1.5,59.97730650646876,
condition files/Stage1_2.xlsx,,B4,T3,c,"['c', 'm']","['Clue', 'Monopoly']","[-0.15, 0.5]","[0.15, 0.5]",1,1,,,,,,,,,0,3,3,3,0,4,4,5,,,,,,,,,,,,,,,,,,,,,,,,,,,,,,,,,,,,,,,,,,,,,,,,,,,,,,,482.9708680980002,None,482.9708680980002,None,482.9708680980002,None,c,1,2.184641873998771,484.50440072700076,None,484.50440072700076,None,484.50440072700076,None,486.75400635200094,None,486.75400635200094,None,486.75400635200094,None,486.75400635200094,None,,,,,,,,,,,,,,,,,,,,,,,,,,,,,,,,,,,,,,,,,,,,001,86,2020_Feb_06_1225,spring_faces,3.1.5,59.97730650646876,
condition files/Stage1_2.xlsx,,B1,T1,c,"['c', 'm']","['Clue', 'Monopoly']","[-0.15, 0.5]","[0.15, 0.5]",1,1,,,,,,,,,0,3,3,3,0,5,5,0,,,,,,,,,,,,,,,,,,,,,,,,,,,,,,,,,,,,,,,,,,,,,,,,,,,,,,,488.72045695900124,None,488.72045695900124,None,488.72045695900124,None,m,0,3.1377373449995503,490.27137551099986,None,490.27137551099986,None,490.27137551099986,None,493.4714913530006,None,493.4714913530006,None,493.4714913530006,None,493.4714913530006,None,,,,,,,,,,,,,,,,,,,,,,,,,,,,,,,,,,,,,,,,,,,,001,86,2020_Feb_06_1225,spring_faces,3.1.5,59.97730650646876,
condition files/Stage1_2.xlsx,,B2,T2,m,"['c', 'm']","['Clue', 'Monopoly']","[-0.15, 0.5]","[0.15, 0.5]",1,1,,,,,,,,,0,3,3,3,0,6,6,3,,,,,,,,,,,,,,,,,,,,,,,,,,,,,,,,,,,,,,,,,,,,,,,,,,,,,,,495.4374699320015,None,495.4374699320015,None,495.4374699320015,None,c,0,1.6210184150004352,496.9720918570001,None,496.9720918570001,None,496.9720918570001,None,498.67129819300135,None,498.67129819300135,None,498.67129819300135,None,498.67129819300135,None,,,,,,,,,,,,,,,,,,,,,,,,,,,,,,,,,,,,,,,,,,,,001,86,2020_Feb_06_1225,spring_faces,3.1.5,59.97730650646876,
condition files/Stage1_2.xlsx,,T2,B1,c,"['c', 'm']","['Clue', 'Monopoly']","[-0.15, 0.5]","[0.15, 0.5]",1,1,,,,,,,,,0,3,3,3,0,7,7,1,,,,,,,,,,,,,,,,,,,,,,,,,,,,,,,,,,,,,,,,,,,,,,,,,,,,,,,500.6207897180011,None,500.6207897180011,None,500.6207897180011,None,m,0,3.6076259769997705,502.1535629600003,None,502.1535629600003,None,502.1535629600003,None,505.8375463090015,None,505.8375463090015,None,505.8375463090015,None,505.8375463090015,None,,,,,,,,,,,,,,,,,,,,,,,,,,,,,,,,,,,,,,,,,,,,001,86,2020_Feb_06_1225,spring_faces,3.1.5,59.97730650646876,
condition files/Stage1_1.xlsx,,B3,T3,c,"['c', 'm']","['Clue', 'Monopoly']","[-0.15, 0.5]","[0.15, 0.5]",1,1,,,,,,,,,0,4,4,4,0,0,0,4,,,,,,,,,,,,,,,,,,,,,,,,,,,,,,,,,,,,,,,,,,,,,,,,,,,,,,,507.80469908300074,None,507.80469908300074,None,507.80469908300074,None,m,0,1.4948047540001426,509.3383200010012,None,509.3383200010012,None,509.3383200010012,None,510.8877330539999,None,510.8877330539999,None,510.8877330539999,None,510.8877330539999,None,,,,,,,,,,,,,,,,,,,,,,,,,,,,,,,,,,,,,,,,,,,,001,86,2020_Feb_06_1225,spring_faces,3.1.5,59.97730650646876,
condition files/Stage1_1.xlsx,,B1,T2,c,"['c', 'm']","['Clue', 'Monopoly']","[-0.15, 0.5]","[0.15, 0.5]",1,1,,,,,,,,,0,4,4,4,0,1,1,1,,,,,,,,,,,,,,,,,,,,,,,,,,,,,,,,,,,,,,,,,,,,,,,,,,,,,,,512.8539510629998,None,512.8539510629998,None,512.8539510629998,None,m,0,2.1885505659993214,514.4045632020006,None,514.4045632020006,None,514.4045632020006,None,516.6545776700004,None,516.6545776700004,None,516.6545776700004,None,516.6545776700004,None,,,,,,,,,,,,,,,,,,,,,,,,,,,,,,,,,,,,,,,,,,,,001,86,2020_Feb_06_1225,spring_faces,3.1.5,59.97730650646876,
condition files/Stage1_1.xlsx,,T2,B2,m,"['c', 'm']","['Clue', 'Monopoly']","[-0.15, 0.5]","[0.15, 0.5]",1,1,,,,,,,,,0,4,4,4,0,2,2,3,,,,,,,,,,,,,,,,,,,,,,,,,,,,,,,,,,,,,,,,,,,,,,,,,,,,,,,518.6209186310007,None,518.6209186310007,None,518.6209186310007,None,m,1,1.5405619050015957,520.1565379480016,None,520.1565379480016,None,520.1565379480016,None,521.7560314790007,None,521.7560314790007,None,521.7560314790007,None,521.7560314790007,None,,,,,,,,,,,,,,,,,,,,,,,,,,,,,,,,,,,,,,,,,,,,001,86,2020_Feb_06_1225,spring_faces,3.1.5,59.97730650646876,
condition files/Stage1_1.xlsx,,T1,B1,c,"['c', 'm']","['Clue', 'Monopoly']","[-0.15, 0.5]","[0.15, 0.5]",1,1,,,,,,,,,0,4,4,4,0,3,3,0,,,,,,,,,,,,,,,,,,,,,,,,,,,,,,,,,,,,,,,,,,,,,,,,,,,,,,,523.7207228290008,None,523.7207228290008,None,523.7207228290008,None,m,0,1.2568946050014347,525.2562807990016,None,525.2562807990016,None,525.2562807990016,None,526.5878322450008,None,526.5878322450008,None,526.5878322450008,None,526.5878322450008,None,,,,,,,,,,,,,,,,,,,,,,,,,,,,,,,,,,,,,,,,,,,,001,86,2020_Feb_06_1225,spring_faces,3.1.5,59.97730650646876,
condition files/Stage1_1.xlsx,,B2,T1,m,"['c', 'm']","['Clue', 'Monopoly']","[-0.15, 0.5]","[0.15, 0.5]",1,1,,,,,,,,,0,4,4,4,0,4,4,2,,,,,,,,,,,,,,,,,,,,,,,,,,,,,,,,,,,,,,,,,,,,,,,,,,,,,,,528.5376523470004,None,528.5376523470004,None,528.5376523470004,None,c,0,1.1457465240000602,530.0713677500007,None,530.0713677500007,None,530.0713677500007,None,531.2729745659999,None,531.2729745659999,None,531.2729745659999,None,531.2729745659999,None,,,,,,,,,,,,,,,,,,,,,,,,,,,,,,,,,,,,,,,,,,,,001,86,2020_Feb_06_1225,spring_faces,3.1.5,59.97730650646876,
condition files/Stage1_1.xlsx,,T4,B3,m,"['c', 'm']","['Clue', 'Monopoly']","[-0.15, 0.5]","[0.15, 0.5]",1,1,,,,,,,,,0,4,4,4,0,5,5,6,,,,,,,,,,,,,,,,,,,,,,,,,,,,,,,,,,,,,,,,,,,,,,,,,,,,,,,533.2373913340016,None,533.2373913340016,None,533.2373913340016,None,m,1,0.8620782899997721,534.7709913380004,None,534.7709913380004,None,534.7709913380004,None,535.6877348080016,None,535.6877348080016,None,535.6877348080016,None,535.6877348080016,None,,,,,,,,,,,,,,,,,,,,,,,,,,,,,,,,,,,,,,,,,,,,001,86,2020_Feb_06_1225,spring_faces,3.1.5,59.97730650646876,
condition files/Stage1_1.xlsx,,T3,B4,c,"['c', 'm']","['Clue', 'Monopoly']","[-0.15, 0.5]","[0.15, 0.5]",1,1,,,,,,,,,0,4,4,4,0,6,6,5,,,,,,,,,,,,,,,,,,,,,,,,,,,,,,,,,,,,,,,,,,,,,,,,,,,,,,,537.6542344010013,None,537.6542344010013,None,537.6542344010013,None,c,1,2.1416538800003764,539.187532670001,None,539.187532670001,None,539.187532670001,None,541.3875831060013,None,541.3875831060013,None,541.3875831060013,None,541.3875831060013,None,,,,,,,,,,,,,,,,,,,,,,,,,,,,,,,,,,,,,,,,,,,,001,86,2020_Feb_06_1225,spring_faces,3.1.5,59.97730650646876,
condition files/Stage1_1.xlsx,,B4,T4,m,"['c', 'm']","['Clue', 'Monopoly']","[-0.15, 0.5]","[0.15, 0.5]",1,1,,,,,,,,,0,4,4,4,0,7,7,7,,,,,,,,,,,,,,,,,,,,,,,,,,,,,,,,,,,,,,,,,,,,,,,,,,,,,,,543.3541855640015,None,543.3541855640015,None,543.3541855640015,None,m,1,1.3843377379998856,544.9047600869999,None,544.9047600869999,None,544.9047600869999,None,546.3713679190005,None,546.3713679190005,None,546.3713679190005,None,546.3713679190005,None,,,,,,,,,,,,,,,,,,,,,,,,,,,,,,,,,,,,,,,,,,,,001,86,2020_Feb_06_1225,spring_faces,3.1.5,59.97730650646876,
condition files/Stage1_2.xlsx,,B4,T3,c,"['c', 'm']","['Clue', 'Monopoly']","[-0.15, 0.5]","[0.15, 0.5]",1,1,,,,,,,,,0,5,5,5,0,0,0,5,,,,,,,,,,,,,,,,,,,,,,,,,,,,,,,,,,,,,,,,,,,,,,,,,,,,,,,548.337471062001,None,548.337471062001,None,548.337471062001,None,c,1,1.569194024999888,549.8879219800001,None,549.8879219800001,None,549.8879219800001,None,551.52120062,None,551.52120062,None,551.52120062,None,551.52120062,None,,,,,,,,,,,,,,,,,,,,,,,,,,,,,,,,,,,,,,,,,,,,001,86,2020_Feb_06_1225,spring_faces,3.1.5,59.97730650646876,
condition files/Stage1_2.xlsx,,B2,T2,m,"['c', 'm']","['Clue', 'Monopoly']","[-0.15, 0.5]","[0.15, 0.5]",1,1,,,,,,,,,0,5,5,5,0,1,1,3,,,,,,,,,,,,,,,,,,,,,,,,,,,,,,,,,,,,,,,,,,,,,,,,,,,,,,,553.4872375350005,None,553.4872375350005,None,553.4872375350005,None,c,0,1.2820367730000726,555.0230396620009,None,555.0230396620009,None,555.0230396620009,None,556.3872272580011,None,556.3872272580011,None,556.3872272580011,None,556.3872272580011,None,,,,,,,,,,,,,,,,,,,,,,,,,,,,,,,,,,,,,,,,,,,,001,86,2020_Feb_06_1225,spring_faces,3.1.5,59.97730650646876,
condition files/Stage1_2.xlsx,,B3,T4,m,"['c', 'm']","['Clue', 'Monopoly']","[-0.15, 0.5]","[0.15, 0.5]",1,1,,,,,,,,,0,5,5,5,0,2,2,6,,,,,,,,,,,,,,,,,,,,,,,,,,,,,,,,,,,,,,,,,,,,,,,,,,,,,,,558.3375257210009,None,558.3375257210009,None,558.3375257210009,None,m,1,0.882075077999616,559.8870309090016,None,559.8870309090016,None,559.8870309090016,None,560.8202265330001,None,560.8202265330001,None,560.8202265330001,None,560.8202265330001,None,,,,,,,,,,,,,,,,,,,,,,,,,,,,,,,,,,,,,,,,,,,,001,86,2020_Feb_06_1225,spring_faces,3.1.5,59.97730650646876,
condition files/Stage1_2.xlsx,,T2,B1,c,"['c', 'm']","['Clue', 'Monopoly']","[-0.15, 0.5]","[0.15, 0.5]",1,1,,,,,,,,,0,5,5,5,0,3,3,1,,,,,,,,,,,,,,,,,,,,,,,,,,,,,,,,,,,,,,,,,,,,,,,,,,,,,,,562.787956487,None,562.787956487,None,562.787956487,None,c,1,4.367210688998966,564.337835241,None,564.337835241,None,564.337835241,None,568.7878919120012,None,568.7878919120012,None,568.7878919120012,None,568.7878919120012,None,,,,,,,,,,,,,,,,,,,,,,,,,,,,,,,,,,,,,,,,,,,,001,86,2020_Feb_06_1225,spring_faces,3.1.5,59.97730650646876,
condition files/Stage1_2.xlsx,,B1,T1,c,"['c', 'm']","['Clue', 'Monopoly']","[-0.15, 0.5]","[0.15, 0.5]",1,1,,,,,,,,,0,5,5,5,0,4,4,0,,,,,,,,,,,,,,,,,,,,,,,,,,,,,,,,,,,,,,,,,,,,,,,,,,,,,,,570.7376377620003,None,570.7376377620003,None,570.7376377620003,None,m,0,1.937822204999975,572.2872893240001,None,572.2872893240001,None,572.2872893240001,None,574.2871488170003,None,574.2871488170003,None,574.2871488170003,None,574.2871488170003,None,,,,,,,,,,,,,,,,,,,,,,,,,,,,,,,,,,,,,,,,,,,,001,86,2020_Feb_06_1225,spring_faces,3.1.5,59.97730650646876,
condition files/Stage1_2.xlsx,,T1,B2,m,"['c', 'm']","['Clue', 'Monopoly']","[-0.15, 0.5]","[0.15, 0.5]",1,1,,,,,,,,,0,5,5,5,0,5,5,2,,,,,,,,,,,,,,,,,,,,,,,,,,,,,,,,,,,,,,,,,,,,,,,,,,,,,,,576.254394339001,None,576.254394339001,None,576.254394339001,None,m,1,1.9087744749995181,577.8043975340006,None,577.8043975340006,None,577.8043975340006,None,579.7714796330001,None,579.7714796330001,None,579.7714796330001,None,579.7714796330001,None,,,,,,,,,,,,,,,,,,,,,,,,,,,,,,,,,,,,,,,,,,,,001,86,2020_Feb_06_1225,spring_faces,3.1.5,59.97730650646876,
condition files/Stage1_2.xlsx,,T4,B4,m,"['c', 'm']","['Clue', 'Monopoly']","[-0.15, 0.5]","[0.15, 0.5]",1,1,,,,,,,,,0,5,5,5,0,6,6,7,,,,,,,,,,,,,,,,,,,,,,,,,,,,,,,,,,,,,,,,,,,,,,,,,,,,,,,581.7370139680006,None,581.7370139680006,None,581.7370139680006,None,m,1,2.5869785630002298,583.2701407230015,None,583.2701407230015,None,583.2701407230015,None,585.9213128680003,None,585.9213128680003,None,585.9213128680003,None,585.9213128680003,None,,,,,,,,,,,,,,,,,,,,,,,,,,,,,,,,,,,,,,,,,,,,001,86,2020_Feb_06_1225,spring_faces,3.1.5,59.97730650646876,
condition files/Stage1_2.xlsx,,T3,B3,c,"['c', 'm']","['Clue', 'Monopoly']","[-0.15, 0.5]","[0.15, 0.5]",1,1,,,,,,,,,0,5,5,5,0,7,7,4,,,,,,,,,,,,,,,,,,,,,,,,,,,,,,,,,,,,,,,,,,,,,,,,,,,,,,,587.8871232890015,None,587.8871232890015,None,587.8871232890015,None,c,1,1.9885530550000112,589.4205751099998,None,589.4205751099998,None,589.4205751099998,None,591.4709925380012,None,591.4709925380012,None,591.4709925380012,None,591.4709925380012,None,,,,,,,,,,,,,,,,,,,,,,,,,,,,,,,,,,,,,,,,,,,,001,86,2020_Feb_06_1225,spring_faces,3.1.5,59.97730650646876,
condition files/Stage1_1.xlsx,,B1,T2,c,"['c', 'm']","['Clue', 'Monopoly']","[-0.15, 0.5]","[0.15, 0.5]",1,1,,,,,,,,,0,6,6,6,0,0,0,1,,,,,,,,,,,,,,,,,,,,,,,,,,,,,,,,,,,,,,,,,,,,,,,,,,,,,,,593.4540498670012,None,593.4540498670012,None,593.4540498670012,None,c,1,1.8603806179999083,594.9887381380013,None,594.9887381380013,None,594.9887381380013,None,596.9042649110015,None,596.9042649110015,None,596.9042649110015,None,596.9042649110015,None,,,,,,,,,,,,,,,,,,,,,,,,,,,,,,,,,,,,,,,,,,,,001,86,2020_Feb_06_1225,spring_faces,3.1.5,59.97730650646876,
condition files/Stage1_1.xlsx,,B4,T4,m,"['c', 'm']","['Clue', 'Monopoly']","[-0.15, 0.5]","[0.15, 0.5]",1,1,,,,,,,,,0,6,6,6,0,1,1,7,,,,,,,,,,,,,,,,,,,,,,,,,,,,,,,,,,,,,,,,,,,,,,,,,,,,,,,598.8710080910005,None,598.8710080910005,None,598.8710080910005,None,m,1,5.548526258000493,600.4045696730009,None,600.4045696730009,None,600.4045696730009,None,606.0043232950011,None,606.0043232950011,None,606.0043232950011,None,606.0043232950011,None,,,,,,,,,,,,,,,,,,,,,,,,,,,,,,,,,,,,,,,,,,,,001,86,2020_Feb_06_1225,spring_faces,3.1.5,59.97730650646876,
condition files/Stage1_1.xlsx,,B2,T1,m,"['c', 'm']","['Clue', 'Monopoly']","[-0.15, 0.5]","[0.15, 0.5]",1,1,,,,,,,,,0,6,6,6,0,2,2,2,,,,,,,,,,,,,,,,,,,,,,,,,,,,,,,,,,,,,,,,,,,,,,,,,,,,,,,607.9708904400013,None,607.9708904400013,None,607.9708904400013,None,c,0,1.809487036000064,609.5037059900005,None,609.5037059900005,None,609.5037059900005,None,611.3706059720007,None,611.3706059720007,None,611.3706059720007,None,611.3706059720007,None,,,,,,,,,,,,,,,,,,,,,,,,,,,,,,,,,,,,,,,,,,,,001,86,2020_Feb_06_1225,spring_faces,3.1.5,59.97730650646876,
condition files/Stage1_1.xlsx,,T1,B1,c,"['c', 'm']","['Clue', 'Monopoly']","[-0.15, 0.5]","[0.15, 0.5]",1,1,,,,,,,,,0,6,6,6,0,3,3,0,,,,,,,,,,,,,,,,,,,,,,,,,,,,,,,,,,,,,,,,,,,,,,,,,,,,,,,613.3369306240002,None,613.3369306240002,None,613.3369306240002,None,c,1,1.2901686380009778,614.8710107860006,None,614.8710107860006,None,614.8710107860006,None,616.2379471700006,None,616.2379471700006,None,616.2379471700006,None,616.2379471700006,None,,,,,,,,,,,,,,,,,,,,,,,,,,,,,,,,,,,,,,,,,,,,001,86,2020_Feb_06_1225,spring_faces,3.1.5,59.97730650646876,
condition files/Stage1_1.xlsx,,T3,B4,c,"['c', 'm']","['Clue', 'Monopoly']","[-0.15, 0.5]","[0.15, 0.5]",1,1,,,,,,,,,0,6,6,6,0,4,4,5,,,,,,,,,,,,,,,,,,,,,,,,,,,,,,,,,,,,,,,,,,,,,,,,,,,,,,,618.1876673780007,None,618.1876673780007,None,618.1876673780007,None,m,0,1.6242870719997882,619.7209032970004,None,619.7209032970004,None,619.7209032970004,None,621.4040888250001,None,621.4040888250001,None,621.4040888250001,None,621.4040888250001,None,,,,,,,,,,,,,,,,,,,,,,,,,,,,,,,,,,,,,,,,,,,,001,86,2020_Feb_06_1225,spring_faces,3.1.5,59.97730650646876,
condition files/Stage1_1.xlsx,,T4,B3,m,"['c', 'm']","['Clue', 'Monopoly']","[-0.15, 0.5]","[0.15, 0.5]",1,1,,,,,,,,,0,6,6,6,0,5,5,6,,,,,,,,,,,,,,,,,,,,,,,,,,,,,,,,,,,,,,,,,,,,,,,,,,,,,,,623.3711749110007,None,623.3711749110007,None,623.3711749110007,None,c,0,1.3211724039992987,624.9039572970014,None,624.9039572970014,None,624.9039572970014,None,626.3037686000007,None,626.3037686000007,None,626.3037686000007,None,626.3037686000007,None,,,,,,,,,,,,,,,,,,,,,,,,,,,,,,,,,,,,,,,,,,,,001,86,2020_Feb_06_1225,spring_faces,3.1.5,59.97730650646876,
condition files/Stage1_1.xlsx,,B3,T3,c,"['c', 'm']","['Clue', 'Monopoly']","[-0.15, 0.5]","[0.15, 0.5]",1,1,,,,,,,,,0,6,6,6,0,6,6,4,,,,,,,,,,,,,,,,,,,,,,,,,,,,,,,,,,,,,,,,,,,,,,,,,,,,,,,628.2543539920007,None,628.2543539920007,None,628.2543539920007,None,c,1,1.909553417001007,629.7875016409998,None,629.7875016409998,None,629.7875016409998,None,631.7555647990011,None,631.7555647990011,None,631.7555647990011,None,631.7555647990011,None,,,,,,,,,,,,,,,,,,,,,,,,,,,,,,,,,,,,,,,,,,,,001,86,2020_Feb_06_1225,spring_faces,3.1.5,59.97730650646876,
condition files/Stage1_1.xlsx,,T2,B2,m,"['c', 'm']","['Clue', 'Monopoly']","[-0.15, 0.5]","[0.15, 0.5]",1,1,,,,,,,,,0,6,6,6,0,7,7,3,,,,,,,,,,,,,,,,,,,,,,,,,,,,,,,,,,,,,,,,,,,,,,,,,,,,,,,633.7209220100012,None,633.7209220100012,None,633.7209220100012,None,m,1,2.6179138740008057,635.2552028080008,None,635.2552028080008,None,635.2552028080008,None,637.9390111370012,None,637.9390111370012,None,637.9390111370012,None,637.9390111370012,None,,,,,,,,,,,,,,,,,,,,,,,,,,,,,,,,,,,,,,,,,,,,001,86,2020_Feb_06_1225,spring_faces,3.1.5,59.97730650646876,
condition files/Stage1_2.xlsx,,T4,B4,m,"['c', 'm']","['Clue', 'Monopoly']","[-0.15, 0.5]","[0.15, 0.5]",1,1,,,,,,,,,0,7,7,7,0,0,0,7,,,,,,,,,,,,,,,,,,,,,,,,,,,,,,,,,,,,,,,,,,,,,,,,,,,,,,,639.9210843410001,None,639.9210843410001,None,639.9210843410001,None,c,0,3.408988490000411,641.4561348320003,None,641.4561348320003,None,641.4561348320003,None,644.9212985780014,None,644.9212985780014,None,644.9212985780014,None,644.9212985780014,None,,,,,,,,,,,,,,,,,,,,,,,,,,,,,,,,,,,,,,,,,,,,001,86,2020_Feb_06_1225,spring_faces,3.1.5,59.97730650646876,
condition files/Stage1_2.xlsx,,B4,T3,c,"['c', 'm']","['Clue', 'Monopoly']","[-0.15, 0.5]","[0.15, 0.5]",1,1,,,,,,,,,0,7,7,7,0,1,1,5,,,,,,,,,,,,,,,,,,,,,,,,,,,,,,,,,,,,,,,,,,,,,,,,,,,,,,,646.8873780360009,None,646.8873780360009,None,646.8873780360009,None,m,0,0.6037350800015702,648.4214042310014,None,648.4214042310014,None,648.4214042310014,None,649.0868233010005,None,649.0868233010005,None,649.0868233010005,None,649.0868233010005,None,,,,,,,,,,,,,,,,,,,,,,,,,,,,,,,,,,,,,,,,,,,,001,86,2020_Feb_06_1225,spring_faces,3.1.5,59.97730650646876,
condition files/Stage1_2.xlsx,,T3,B3,c,"['c', 'm']","['Clue', 'Monopoly']","[-0.15, 0.5]","[0.15, 0.5]",1,1,,,,,,,,,0,7,7,7,0,2,2,4,,,,,,,,,,,,,,,,,,,,,,,,,,,,,,,,,,,,,,,,,,,,,,,,,,,,,,,651.0541235000001,None,651.0541235000001,None,651.0541235000001,None,c,1,1.4277897970005142,652.5893306000016,None,652.5893306000016,None,652.5893306000016,None,654.0712797619999,None,654.0712797619999,None,654.0712797619999,None,654.0712797619999,None,,,,,,,,,,,,,,,,,,,,,,,,,,,,,,,,,,,,,,,,,,,,001,86,2020_Feb_06_1225,spring_faces,3.1.5,59.97730650646876,
condition files/Stage1_2.xlsx,,B2,T2,m,"['c', 'm']","['Clue', 'Monopoly']","[-0.15, 0.5]","[0.15, 0.5]",1,1,,,,,,,,,0,7,7,7,0,3,3,3,,,,,,,,,,,,,,,,,,,,,,,,,,,,,,,,,,,,,,,,,,,,,,,,,,,,,,,656.0371592320007,None,656.0371592320007,None,656.0371592320007,None,m,1,1.8386129909995361,657.5705265410015,None,657.5705265410015,None,657.5705265410015,None,659.4872035520002,None,659.4872035520002,None,659.4872035520002,None,659.4872035520002,None,,,,,,,,,,,,,,,,,,,,,,,,,,,,,,,,,,,,,,,,,,,,001,86,2020_Feb_06_1225,spring_faces,3.1.5,59.97730650646876,
condition files/Stage1_2.xlsx,,B3,T4,m,"['c', 'm']","['Clue', 'Monopoly']","[-0.15, 0.5]","[0.15, 0.5]",1,1,,,,,,,,,0,7,7,7,0,4,4,6,,,,,,,,,,,,,,,,,,,,,,,,,,,,,,,,,,,,,,,,,,,,,,,,,,,,,,,661.4375838330016,None,661.4375838330016,None,661.4375838330016,None,m,1,2.1970192270000553,662.9720971740007,None,662.9720971740007,None,662.9720971740007,None,665.220993506,None,665.220993506,None,665.220993506,None,665.220993506,None,,,,,,,,,,,,,,,,,,,,,,,,,,,,,,,,,,,,,,,,,,,,001,86,2020_Feb_06_1225,spring_faces,3.1.5,59.97730650646876,
condition files/Stage1_2.xlsx,,T2,B1,c,"['c', 'm']","['Clue', 'Monopoly']","[-0.15, 0.5]","[0.15, 0.5]",1,1,,,,,,,,,0,7,7,7,0,5,5,1,,,,,,,,,,,,,,,,,,,,,,,,,,,,,,,,,,,,,,,,,,,,,,,,,,,,,,,667.1873328290003,None,667.1873328290003,None,667.1873328290003,None,m,0,1.2965641489990958,668.7205548260008,None,668.7205548260008,None,668.7205548260008,None,670.0713056860004,None,670.0713056860004,None,670.0713056860004,None,670.0713056860004,None,,,,,,,,,,,,,,,,,,,,,,,,,,,,,,,,,,,,,,,,,,,,001,86,2020_Feb_06_1225,spring_faces,3.1.5,59.97730650646876,
condition files/Stage1_2.xlsx,,T1,B2,m,"['c', 'm']","['Clue', 'Monopoly']","[-0.15, 0.5]","[0.15, 0.5]",1,1,,,,,,,,,0,7,7,7,0,6,6,2,,,,,,,,,,,,,,,,,,,,,,,,,,,,,,,,,,,,,,,,,,,,,,,,,,,,,,,672.0373182820003,None,672.0373182820003,None,672.0373182820003,None,c,0,1.4690096829999675,673.588103989001,None,673.588103989001,None,673.588103989001,None,675.1229796560001,None,675.1229796560001,None,675.1229796560001,None,675.1229796560001,None,,,,,,,,,,,,,,,,,,,,,,,,,,,,,,,,,,,,,,,,,,,,001,86,2020_Feb_06_1225,spring_faces,3.1.5,59.97730650646876,
condition files/Stage1_2.xlsx,,B1,T1,c,"['c', 'm']","['Clue', 'Monopoly']","[-0.15, 0.5]","[0.15, 0.5]",1,1,,,,,,,,,0,7,7,7,0,7,7,0,,,,,,,,,,,,,,,,,,,,,,,,,,,,,,,,,,,,,,,,,,,,,,,,,,,,,,,677.0875674360013,None,677.0875674360013,None,677.0875674360013,None,m,0,1.1406177420012682,678.6205579340003,None,678.6205579340003,None,678.6205579340003,None,679.8380470460015,None,679.8380470460015,None,679.8380470460015,None,679.8380470460015,None,,,,,,,,,,,,,,,,,,,,,,,,,,,,,,,,,,,,,,,,,,,,001,86,2020_Feb_06_1225,spring_faces,3.1.5,59.97730650646876,
condition files/Stage1_1.xlsx,,B2,T1,m,"['c', 'm']","['Clue', 'Monopoly']","[-0.15, 0.5]","[0.15, 0.5]",1,1,,,,,,,,,0,8,8,8,0,0,0,2,,,,,,,,,,,,,,,,,,,,,,,,,,,,,,,,,,,,,,,,,,,,,,,,,,,,,,,681.8041574560011,None,681.8041574560011,None,681.8041574560011,None,m,1,4.823038768001425,683.3381572590006,None,683.3381572590006,None,683.3381572590006,None,688.2230005370002,None,688.2230005370002,None,688.2230005370002,None,688.2230005370002,None,,,,,,,,,,,,,,,,,,,,,,,,,,,,,,,,,,,,,,,,,,,,001,86,2020_Feb_06_1225,spring_faces,3.1.5,59.97730650646876,
condition files/Stage1_1.xlsx,,T3,B4,c,"['c', 'm']","['Clue', 'Monopoly']","[-0.15, 0.5]","[0.15, 0.5]",1,1,,,,,,,,,0,8,8,8,0,1,1,5,,,,,,,,,,,,,,,,,,,,,,,,,,,,,,,,,,,,,,,,,,,,,,,,,,,,,,,690.1873639010009,None,690.1873639010009,None,690.1873639010009,None,c,1,1.4791069879993302,691.7219983020004,None,691.7219983020004,None,691.7219983020004,None,693.254350919,None,693.254350919,None,693.254350919,None,693.254350919,None,,,,,,,,,,,,,,,,,,,,,,,,,,,,,,,,,,,,,,,,,,,,001,86,2020_Feb_06_1225,spring_faces,3.1.5,59.97730650646876,
condition files/Stage1_1.xlsx,,B1,T2,c,"['c', 'm']","['Clue', 'Monopoly']","[-0.15, 0.5]","[0.15, 0.5]",1,1,,,,,,,,,0,8,8,8,0,2,2,1,,,,,,,,,,,,,,,,,,,,,,,,,,,,,,,,,,,,,,,,,,,,,,,,,,,,,,,695.2209241190012,None,695.2209241190012,None,695.2209241190012,None,m,0,1.7100775040016742,696.755050488,None,696.755050488,None,696.755050488,None,698.5200476860009,None,698.5200476860009,None,698.5200476860009,None,698.5200476860009,None,,,,,,,,,,,,,,,,,,,,,,,,,,,,,,,,,,,,,,,,,,,,001,86,2020_Feb_06_1225,spring_faces,3.1.5,59.97730650646876,
condition files/Stage1_1.xlsx,,T4,B3,m,"['c', 'm']","['Clue', 'Monopoly']","[-0.15, 0.5]","[0.15, 0.5]",1,1,,,,,,,,,0,8,8,8,0,3,3,6,,,,,,,,,,,,,,,,,,,,,,,,,,,,,,,,,,,,,,,,,,,,,,,,,,,,,,,700.4872376930016,None,700.4872376930016,None,700.4872376930016,None,c,0,1.5161521679983707,702.0209997720012,None,702.0209997720012,None,702.0209997720012,None,703.604462184001,None,703.604462184001,None,703.604462184001,None,703.604462184001,None,,,,,,,,,,,,,,,,,,,,,,,,,,,,,,,,,,,,,,,,,,,,001,86,2020_Feb_06_1225,spring_faces,3.1.5,59.97730650646876,
condition files/Stage1_1.xlsx,,B3,T3,c,"['c', 'm']","['Clue', 'Monopoly']","[-0.15, 0.5]","[0.15, 0.5]",1,1,,,,,,,,,0,8,8,8,0,4,4,4,,,,,,,,,,,,,,,,,,,,,,,,,,,,,,,,,,,,,,,,,,,,,,,,,,,,,,,705.5545093790006,None,705.5545093790006,None,705.5545093790006,None,m,0,2.191155095000795,707.0900267000015,None,707.0900267000015,None,707.0900267000015,None,709.3401251080013,None,709.3401251080013,None,709.3401251080013,None,709.3401251080013,None,,,,,,,,,,,,,,,,,,,,,,,,,,,,,,,,,,,,,,,,,,,,001,86,2020_Feb_06_1225,spring_faces,3.1.5,59.97730650646876,
condition files/Stage1_1.xlsx,,T2,B2,m,"['c', 'm']","['Clue', 'Monopoly']","[-0.15, 0.5]","[0.15, 0.5]",1,1,,,,,,,,,0,8,8,8,0,5,5,3,,,,,,,,,,,,,,,,,,,,,,,,,,,,,,,,,,,,,,,,,,,,,,,,,,,,,,,711.3045356830007,None,711.3045356830007,None,711.3045356830007,None,m,1,0.8911563199999364,712.8540169910011,None,712.8540169910011,None,712.8540169910011,None,713.8051874270004,None,713.8051874270004,None,713.8051874270004,None,713.8051874270004,None,,,,,,,,,,,,,,,,,,,,,,,,,,,,,,,,,,,,,,,,,,,,001,86,2020_Feb_06_1225,spring_faces,3.1.5,59.97730650646876,
condition files/Stage1_1.xlsx,,B4,T4,m,"['c', 'm']","['Clue', 'Monopoly']","[-0.15, 0.5]","[0.15, 0.5]",1,1,,,,,,,,,0,8,8,8,0,6,6,7,,,,,,,,,,,,,,,,,,,,,,,,,,,,,,,,,,,,,,,,,,,,,,,,,,,,,,,715.7708973070003,None,715.7708973070003,None,715.7708973070003,None,c,0,1.6726210519991582,717.3045353010002,None,717.3045353010002,None,717.3045353010002,None,719.0378865040002,None,719.0378865040002,None,719.0378865040002,None,719.0378865040002,None,,,,,,,,,,,,,,,,,,,,,,,,,,,,,,,,,,,,,,,,,,,,001,86,2020_Feb_06_1225,spring_faces,3.1.5,59.97730650646876,
condition files/Stage1_1.xlsx,,T1,B1,c,"['c', 'm']","['Clue', 'Monopoly']","[-0.15, 0.5]","[0.15, 0.5]",1,1,,,,,,,,,0,8,8,8,0,7,7,0,,,,,,,,,,,,,,,,,,,,,,,,,,,,,,,,,,,,,,,,,,,,,,,,,,,,,,,721.0041815670011,None,721.0041815670011,None,721.0041815670011,None,c,1,1.014783847000217,722.5543397800011,None,722.5543397800011,None,722.5543397800011,None,723.623503191,None,723.623503191,None,723.623503191,None,723.623503191,None,,,,,,,,,,,,,,,,,,,,,,,,,,,,,,,,,,,,,,,,,,,,001,86,2020_Feb_06_1225,spring_faces,3.1.5,59.97730650646876,
condition files/Stage1_2.xlsx,,B3,T4,m,"['c', 'm']","['Clue', 'Monopoly']","[-0.15, 0.5]","[0.15, 0.5]",1,1,,,,,,,,,0,9,9,9,0,0,0,6,,,,,,,,,,,,,,,,,,,,,,,,,,,,,,,,,,,,,,,,,,,,,,,,,,,,,,,725.6048032880008,None,725.6048032880008,None,725.6048032880008,None,c,0,2.4637840400009736,727.137363623,None,727.137363623,None,727.137363623,None,729.6559625530008,None,729.6559625530008,None,729.6559625530008,None,729.6559625530008,None,,,,,,,,,,,,,,,,,,,,,,,,,,,,,,,,,,,,,,,,,,,,001,86,2020_Feb_06_1225,spring_faces,3.1.5,59.97730650646876,
condition files/Stage1_2.xlsx,,T3,B3,c,"['c', 'm']","['Clue', 'Monopoly']","[-0.15, 0.5]","[0.15, 0.5]",1,1,,,,,,,,,0,9,9,9,0,1,1,4,,,,,,,,,,,,,,,,,,,,,,,,,,,,,,,,,,,,,,,,,,,,,,,,,,,,,,,731.6207927140003,None,731.6207927140003,None,731.6207927140003,None,c,1,1.7257428869997966,733.1713178270002,None,733.1713178270002,None,733.1713178270002,None,734.9539315740003,None,734.9539315740003,None,734.9539315740003,None,734.9539315740003,None,,,,,,,,,,,,,,,,,,,,,,,,,,,,,,,,,,,,,,,,,,,,001,86,2020_Feb_06_1225,spring_faces,3.1.5,59.97730650646876,
condition files/Stage1_2.xlsx,,B1,T1,c,"['c', 'm']","['Clue', 'Monopoly']","[-0.15, 0.5]","[0.15, 0.5]",1,1,,,,,,,,,0,9,9,9,0,2,2,0,,,,,,,,,,,,,,,,,,,,,,,,,,,,,,,,,,,,,,,,,,,,,,,,,,,,,,,736.9214829840002,None,736.9214829840002,None,736.9214829840002,None,m,0,1.2586389370007964,738.454556531,None,738.454556531,None,738.454556531,None,739.7708241620003,None,739.7708241620003,None,739.7708241620003,None,739.7708241620003,None,,,,,,,,,,,,,,,,,,,,,,,,,,,,,,,,,,,,,,,,,,,,001,86,2020_Feb_06_1225,spring_faces,3.1.5,59.97730650646876,
condition files/Stage1_2.xlsx,,B2,T2,m,"['c', 'm']","['Clue', 'Monopoly']","[-0.15, 0.5]","[0.15, 0.5]",1,1,,,,,,,,,0,9,9,9,0,3,3,3,,,,,,,,,,,,,,,,,,,,,,,,,,,,,,,,,,,,,,,,,,,,,,,,,,,,,,,741.7380443930015,None,741.7380443930015,None,741.7380443930015,None,m,1,1.9761623960002908,743.2729533080001,None,743.2729533080001,None,743.2729533080001,None,745.3210644040009,None,745.3210644040009,None,745.3210644040009,None,745.3210644040009,None,,,,,,,,,,,,,,,,,,,,,,,,,,,,,,,,,,,,,,,,,,,,001,86,2020_Feb_06_1225,spring_faces,3.1.5,59.97730650646876,
condition files/Stage1_2.xlsx,,T2,B1,c,"['c', 'm']","['Clue', 'Monopoly']","[-0.15, 0.5]","[0.15, 0.5]",1,1,,,,,,,,,0,9,9,9,0,4,4,1,,,,,,,,,,,,,,,,,,,,,,,,,,,,,,,,,,,,,,,,,,,,,,,,,,,,,,,747.2706871320006,None,747.2706871320006,None,747.2706871320006,None,c,1,3.019413377998717,748.8057105530006,None,748.8057105530006,None,748.8057105530006,None,751.8884832340009,None,751.8884832340009,None,751.8884832340009,None,751.8884832340009,None,,,,,,,,,,,,,,,,,,,,,,,,,,,,,,,,,,,,,,,,,,,,001,86,2020_Feb_06_1225,spring_faces,3.1.5,59.97730650646876,
condition files/Stage1_2.xlsx,,B4,T3,c,"['c', 'm']","['Clue', 'Monopoly']","[-0.15, 0.5]","[0.15, 0.5]",1,1,,,,,,,,,0,9,9,9,0,5,5,5,,,,,,,,,,,,,,,,,,,,,,,,,,,,,,,,,,,,,,,,,,,,,,,,,,,,,,,753.8542241520008,None,753.8542241520008,None,753.8542241520008,None,c,1,1.2205639849998988,755.4045664280002,None,755.4045664280002,None,755.4045664280002,None,756.6877683950006,None,756.6877683950006,None,756.6877683950006,None,756.6877683950006,None,,,,,,,,,,,,,,,,,,,,,,,,,,,,,,,,,,,,,,,,,,,,001,86,2020_Feb_06_1225,spring_faces,3.1.5,59.97730650646876,
condition files/Stage1_2.xlsx,,T4,B4,m,"['c', 'm']","['Clue', 'Monopoly']","[-0.15, 0.5]","[0.15, 0.5]",1,1,,,,,,,,,0,9,9,9,0,6,6,7,,,,,,,,,,,,,,,,,,,,,,,,,,,,,,,,,,,,,,,,,,,,,,,,,,,,,,,758.6543841950006,None,758.6543841950006,None,758.6543841950006,None,c,0,2.005119688999912,760.1880017870008,None,760.1880017870008,None,760.1880017870008,None,762.2706470749999,None,762.2706470749999,None,762.2706470749999,None,762.2706470749999,None,,,,,,,,,,,,,,,,,,,,,,,,,,,,,,,,,,,,,,,,,,,,001,86,2020_Feb_06_1225,spring_faces,3.1.5,59.97730650646876,
condition files/Stage1_2.xlsx,,T1,B2,m,"['c', 'm']","['Clue', 'Monopoly']","[-0.15, 0.5]","[0.15, 0.5]",1,1,,,,,,,,,0,9,9,9,0,7,7,2,,,,,,,,,,,,,,,,,,,,,,,,,,,,,,,,,,,,,,,,,,,,,,,,,,,,,,,764.2214399080003,None,764.2214399080003,None,764.2214399080003,None,c,0,2.2311501230014983,765.7539609530013,None,765.7539609530013,None,765.7539609530013,None,768.0374688380016,None,768.0374688380016,None,768.0374688380016,None,768.0374688380016,None,,,,,,,,,,,,,,,,,,,,,,,,,,,,,,,,,,,,,,,,,,,,001,86,2020_Feb_06_1225,spring_faces,3.1.5,59.97730650646876,
condition files/Stage1_1.xlsx,,B4,T4,m,"['c', 'm']","['Clue', 'Monopoly']","[-0.15, 0.5]","[0.15, 0.5]",1,1,,,,,,,,,0,10,10,10,0,0,0,7,,,,,,,,,,,,,,,,,,,,,,,,,,,,,,,,,,,,,,,,,,,,,,,,,,,,,,,770.0215476730009,None,770.0215476730009,None,770.0215476730009,None,m,1,1.9993093829998543,771.5538110880007,None,771.5538110880007,None,771.5538110880007,None,773.6046773300004,None,773.6046773300004,None,773.6046773300004,None,773.6046773300004,None,,,,,,,,,,,,,,,,,,,,,,,,,,,,,,,,,,,,,,,,,,,,001,86,2020_Feb_06_1225,spring_faces,3.1.5,59.97730650646876,
condition files/Stage1_1.xlsx,,B1,T2,c,"['c', 'm']","['Clue', 'Monopoly']","[-0.15, 0.5]","[0.15, 0.5]",1,1,,,,,,,,,0,10,10,10,0,1,1,1,,,,,,,,,,,,,,,,,,,,,,,,,,,,,,,,,,,,,,,,,,,,,,,,,,,,,,,775.5704122810002,None,775.5704122810002,None,775.5704122810002,None,m,0,1.6813916030005203,777.103727224001,None,777.103727224001,None,777.103727224001,None,778.8374975550014,None,778.8374975550014,None,778.8374975550014,None,778.8374975550014,None,,,,,,,,,,,,,,,,,,,,,,,,,,,,,,,,,,,,,,,,,,,,001,86,2020_Feb_06_1225,spring_faces,3.1.5,59.97730650646876,
condition files/Stage1_1.xlsx,,T4,B3,m,"['c', 'm']","['Clue', 'Monopoly']","[-0.15, 0.5]","[0.15, 0.5]",1,1,,,,,,,,,0,10,10,10,0,2,2,6,,,,,,,,,,,,,,,,,,,,,,,,,,,,,,,,,,,,,,,,,,,,,,,,,,,,,,,780.804105485,None,780.804105485,None,780.804105485,None,m,1,1.5502975219988002,782.3387871300001,None,782.3387871300001,None,782.3387871300001,None,783.9546862410007,None,783.9546862410007,None,783.9546862410007,None,783.9546862410007,None,,,,,,,,,,,,,,,,,,,,,,,,,,,,,,,,,,,,,,,,,,,,001,86,2020_Feb_06_1225,spring_faces,3.1.5,59.97730650646876,
condition files/Stage1_1.xlsx,,T3,B4,c,"['c', 'm']","['Clue', 'Monopoly']","[-0.15, 0.5]","[0.15, 0.5]",1,1,,,,,,,,,0,10,10,10,0,3,3,5,,,,,,,,,,,,,,,,,,,,,,,,,,,,,,,,,,,,,,,,,,,,,,,,,,,,,,,785.920954055,None,785.920954055,None,785.920954055,None,c,1,1.5233637709989125,787.4537498099999,None,787.4537498099999,None,787.4537498099999,None,789.0539006710005,None,789.0539006710005,None,789.0539006710005,None,789.0539006710005,None,,,,,,,,,,,,,,,,,,,,,,,,,,,,,,,,,,,,,,,,,,,,001,86,2020_Feb_06_1225,spring_faces,3.1.5,59.97730650646876,
condition files/Stage1_1.xlsx,,B2,T1,m,"['c', 'm']","['Clue', 'Monopoly']","[-0.15, 0.5]","[0.15, 0.5]",1,1,,,,,,,,,0,10,10,10,0,4,4,2,,,,,,,,,,,,,,,,,,,,,,,,,,,,,,,,,,,,,,,,,,,,,,,,,,,,,,,791.00432516,None,791.00432516,None,791.00432516,None,m,1,4.454445001001659,792.5546791590004,None,792.5546791590004,None,792.5546791590004,None,797.0713830230015,None,797.0713830230015,None,797.0713830230015,None,797.0713830230015,None,,,,,,,,,,,,,,,,,,,,,,,,,,,,,,,,,,,,,,,,,,,,001,86,2020_Feb_06_1225,spring_faces,3.1.5,59.97730650646876,
condition files/Stage1_1.xlsx,,B3,T3,c,"['c', 'm']","['Clue', 'Monopoly']","[-0.15, 0.5]","[0.15, 0.5]",1,1,,,,,,,,,0,10,10,10,0,5,5,4,,,,,,,,,,,,,,,,,,,,,,,,,,,,,,,,,,,,,,,,,,,,,,,,,,,,,,,799.0374628770005,None,799.0374628770005,None,799.0374628770005,None,c,1,1.173557152000285,800.5716338620005,None,800.5716338620005,None,800.5716338620005,None,801.820811218,None,801.820811218,None,801.820811218,None,801.820811218,None,,,,,,,,,,,,,,,,,,,,,,,,,,,,,,,,,,,,,,,,,,,,001,86,2020_Feb_06_1225,spring_faces,3.1.5,59.97730650646876,
condition files/Stage1_1.xlsx,,T2,B2,m,"['c', 'm']","['Clue', 'Monopoly']","[-0.15, 0.5]","[0.15, 0.5]",1,1,,,,,,,,,0,10,10,10,0,6,6,3,,,,,,,,,,,,,,,,,,,,,,,,,,,,,,,,,,,,,,,,,,,,,,,,,,,,,,,803.7705150420006,None,803.7705150420006,None,803.7705150420006,None,c,0,1.1604804600010539,805.3206994050015,None,805.3206994050015,None,805.3206994050015,None,806.5402880450001,None,806.5402880450001,None,806.5402880450001,None,806.5402880450001,None,,,,,,,,,,,,,,,,,,,,,,,,,,,,,,,,,,,,,,,,,,,,001,86,2020_Feb_06_1225,spring_faces,3.1.5,59.97730650646876,
condition files/Stage1_1.xlsx,,T1,B1,c,"['c', 'm']","['Clue', 'Monopoly']","[-0.15, 0.5]","[0.15, 0.5]",1,1,,,,,,,,,0,10,10,10,0,7,7,0,,,,,,,,,,,,,,,,,,,,,,,,,,,,,,,,,,,,,,,,,,,,,,,,,,,,,,,808.5044372040011,None,808.5044372040011,None,808.5044372040011,None,c,1,1.6912452289998328,810.0379249270009,None,810.0379249270009,None,810.0379249270009,None,811.7880737530013,None,811.7880737530013,None,811.7880737530013,None,811.7880737530013,None,,,,,,,,,,,,,,,,,,,,,,,,,,,,,,,,,,,,,,,,,,,,001,86,2020_Feb_06_1225,spring_faces,3.1.5,59.97730650646876,
condition files/Stage1_2.xlsx,,B3,T4,m,"['c', 'm']","['Clue', 'Monopoly']","[-0.15, 0.5]","[0.15, 0.5]",1,1,,,,,,,,,0,11,11,11,0,0,0,6,,,,,,,,,,,,,,,,,,,,,,,,,,,,,,,,,,,,,,,,,,,,,,,,,,,,,,,813.7712113410016,None,813.7712113410016,None,813.7712113410016,None,m,1,1.2386518069997692,815.3065459360005,None,815.3065459360005,None,815.3065459360005,None,816.6216018640007,None,816.6216018640007,None,816.6216018640007,None,816.6216018640007,None,,,,,,,,,,,,,,,,,,,,,,,,,,,,,,,,,,,,,,,,,,,,001,86,2020_Feb_06_1225,spring_faces,3.1.5,59.97730650646876,
condition files/Stage1_2.xlsx,,B4,T3,c,"['c', 'm']","['Clue', 'Monopoly']","[-0.15, 0.5]","[0.15, 0.5]",1,1,,,,,,,,,0,11,11,11,0,1,1,5,,,,,,,,,,,,,,,,,,,,,,,,,,,,,,,,,,,,,,,,,,,,,,,,,,,,,,,818.5708220190008,None,818.5708220190008,None,818.5708220190008,None,c,1,1.0166440759985562,820.1044659420004,None,820.1044659420004,None,820.1044659420004,None,821.1879201750016,None,821.1879201750016,None,821.1879201750016,None,821.1879201750016,None,,,,,,,,,,,,,,,,,,,,,,,,,,,,,,,,,,,,,,,,,,,,001,86,2020_Feb_06_1225,spring_faces,3.1.5,59.97730650646876,
condition files/Stage1_2.xlsx,,T3,B3,c,"['c', 'm']","['Clue', 'Monopoly']","[-0.15, 0.5]","[0.15, 0.5]",1,1,,,,,,,,,0,11,11,11,0,2,2,4,,,,,,,,,,,,,,,,,,,,,,,,,,,,,,,,,,,,,,,,,,,,,,,,,,,,,,,823.1374774300002,None,823.1374774300002,None,823.1374774300002,None,c,1,2.897403269998904,824.6877000439999,None,824.6877000439999,None,824.6877000439999,None,827.6380720120014,None,827.6380720120014,None,827.6380720120014,None,827.6380720120014,None,,,,,,,,,,,,,,,,,,,,,,,,,,,,,,,,,,,,,,,,,,,,001,86,2020_Feb_06_1225,spring_faces,3.1.5,59.97730650646876,
condition files/Stage1_2.xlsx,,B1,T1,c,"['c', 'm']","['Clue', 'Monopoly']","[-0.15, 0.5]","[0.15, 0.5]",1,1,,,,,,,,,0,11,11,11,0,3,3,0,,,,,,,,,,,,,,,,,,,,,,,,,,,,,,,,,,,,,,,,,,,,,,,,,,,,,,,829.6043658480012,None,829.6043658480012,None,829.6043658480012,None,m,0,1.1668698879984731,831.1541983719999,None,831.1541983719999,None,831.1541983719999,None,832.3709921210011,None,832.3709921210011,None,832.3709921210011,None,832.3709921210011,None,,,,,,,,,,,,,,,,,,,,,,,,,,,,,,,,,,,,,,,,,,,,001,86,2020_Feb_06_1225,spring_faces,3.1.5,59.97730650646876,
condition files/Stage1_2.xlsx,,T1,B2,m,"['c', 'm']","['Clue', 'Monopoly']","[-0.15, 0.5]","[0.15, 0.5]",1,1,,,,,,,,,0,11,11,11,0,4,4,2,,,,,,,,,,,,,,,,,,,,,,,,,,,,,,,,,,,,,,,,,,,,,,,,,,,,,,,834.3375609650011,None,834.3375609650011,None,834.3375609650011,None,m,1,1.2647144379989186,835.8724001330011,None,835.8724001330011,None,835.8724001330011,None,837.2038943450007,None,837.2038943450007,None,837.2038943450007,None,837.2038943450007,None,,,,,,,,,,,,,,,,,,,,,,,,,,,,,,,,,,,,,,,,,,,,001,86,2020_Feb_06_1225,spring_faces,3.1.5,59.97730650646876,
condition files/Stage1_2.xlsx,,T2,B1,c,"['c', 'm']","['Clue', 'Monopoly']","[-0.15, 0.5]","[0.15, 0.5]",1,1,,,,,,,,,0,11,11,11,0,5,5,1,,,,,,,,,,,,,,,,,,,,,,,,,,,,,,,,,,,,,,,,,,,,,,,,,,,,,,,839.1543541130013,None,839.1543541130013,None,839.1543541130013,None,m,0,2.320984079000482,840.7041400550006,None,840.7041400550006,None,840.7041400550006,None,843.0873039670005,None,843.0873039670005,None,843.0873039670005,None,843.0873039670005,None,,,,,,,,,,,,,,,,,,,,,,,,,,,,,,,,,,,,,,,,,,,,001,86,2020_Feb_06_1225,spring_faces,3.1.5,59.97730650646876,
condition files/Stage1_2.xlsx,,T4,B4,m,"['c', 'm']","['Clue', 'Monopoly']","[-0.15, 0.5]","[0.15, 0.5]",1,1,,,,,,,,,0,11,11,11,0,6,6,7,,,,,,,,,,,,,,,,,,,,,,,,,,,,,,,,,,,,,,,,,,,,,,,,,,,,,,,845.0543415840002,None,845.0543415840002,None,845.0543415840002,None,m,1,1.156562105001285,846.5886296190001,None,846.5886296190001,None,846.5886296190001,None,847.8214464110006,None,847.8214464110006,None,847.8214464110006,None,847.8214464110006,None,,,,,,,,,,,,,,,,,,,,,,,,,,,,,,,,,,,,,,,,,,,,001,86,2020_Feb_06_1225,spring_faces,3.1.5,59.97730650646876,
condition files/Stage1_2.xlsx,,B2,T2,m,"['c', 'm']","['Clue', 'Monopoly']","[-0.15, 0.5]","[0.15, 0.5]",1,1,,,,,,,,,0,11,11,11,0,7,7,3,,,,,,,,,,,,,,,,,,,,,,,,,,,,,,,,,,,,,,,,,,,,,,,,,,,,,,,849.7706627820007,None,849.7706627820007,None,849.7706627820007,None,c,0,1.4331846379991475,851.3039391279999,None,851.3039391279999,None,851.3039391279999,None,852.7877652200004,None,852.7877652200004,None,852.7877652200004,None,852.7877652200004,None,,,,,,,,,,,,,,,,,,,,,,,,,,,,,,,,,,,,,,,,,,,,001,86,2020_Feb_06_1225,spring_faces,3.1.5,59.97730650646876,
,,,,,,,,,,,,,,,,,,,,,,,,,,,,,,,,,,,,,,,,,,,,,,,,,,,,,,,,,,,,,,,,,,,,,,,,,,,,,,,,,,,,,,,,,,,,,,,,,,,,,,,,,,,,,,,,854.7709417060014,None,space,8.150116378999883,859.7709422890002,None,,,,,,,,,,,,,,,,,,,,,,,,,,,,,,001,86,2020_Feb_06_1225,spring_faces,3.1.5,59.97730650646876,
condition files/Stage2_1.xlsx,,B4,T4,r,"['s', 'r']","['Stratego', 'Risk']","[-0.15, 0.5]","[0.15, 0.5]",1,1,,,,,,,,,,,,,,,,,0,0,0,0,0,0,0,5,,,,,,,,,,,,,,,,,,,,,,,,,,,,,,,,,,,,,,,,,,,,,,,867.9872175930013,None,867.9872175930013,None,867.9872175930013,None,r,1,1.4411316260011517,869.5040734130016,None,869.5040734130016,None,869.5040734130016,None,871.0051574580011,None,871.0051574580011,None,871.0051574580011,None,871.0051574580011,None,,,,,,,,,,,,,,,859.7709422890002,None,,,,,,,,,,,,,,,,,,,,,,,,,,,,001,86,2020_Feb_06_1225,spring_faces,3.1.5,59.97730650646876,
condition files/Stage2_1.xlsx,,T3,B3,s,"['s', 'r']","['Stratego', 'Risk']","[-0.15, 0.5]","[0.15, 0.5]",1,1,,,,,,,,,,,,,,,,,0,0,0,0,0,1,1,4,,,,,,,,,,,,,,,,,,,,,,,,,,,,,,,,,,,,,,,,,,,,,,,872.9710038080011,None,872.9710038080011,None,872.9710038080011,None,s,1,1.064255775001584,874.5048478019999,None,874.5048478019999,None,874.5048478019999,None,875.6377959670008,None,875.6377959670008,None,875.6377959670008,None,875.6377959670008,None,,,,,,,,,,,,,,,,,,,,,,,,,,,,,,,,,,,,,,,,,,,,001,86,2020_Feb_06_1225,spring_faces,3.1.5,59.97730650646876,
condition files/Stage2_1.xlsx,,B2,T2,r,"['s', 'r']","['Stratego', 'Risk']","[-0.15, 0.5]","[0.15, 0.5]",1,1,,,,,,,,,,,,,,,,,0,0,0,0,0,2,2,3,,,,,,,,,,,,,,,,,,,,,,,,,,,,,,,,,,,,,,,,,,,,,,,877.5875540280013,None,877.5875540280013,None,877.5875540280013,None,r,1,1.4561730869991152,879.1209467560002,None,879.1209467560002,None,879.1209467560002,None,880.654474936,None,880.654474936,None,880.654474936,None,880.654474936,None,,,,,,,,,,,,,,,,,,,,,,,,,,,,,,,,,,,,,,,,,,,,001,86,2020_Feb_06_1225,spring_faces,3.1.5,59.97730650646876,
condition files/Stage2_1.xlsx,,B6,T6,r,"['s', 'r']","['Stratego', 'Risk']","[-0.15, 0.5]","[0.15, 0.5]",1,1,,,,,,,,,,,,,,,,,0,0,0,0,0,3,3,1,,,,,,,,,,,,,,,,,,,,,,,,,,,,,,,,,,,,,,,,,,,,,,,882.6042625890004,None,882.6042625890004,None,882.6042625890004,None,s,0,1.7353100729997095,884.1378159260003,None,884.1378159260003,None,884.1378159260003,None,885.9377389390011,None,885.9377389390011,None,885.9377389390011,None,885.9377389390011,None,,,,,,,,,,,,,,,,,,,,,,,,,,,,,,,,,,,,,,,,,,,,001,86,2020_Feb_06_1225,spring_faces,3.1.5,59.97730650646876,
condition files/Stage2_1.xlsx,,T5,B5,s,"['s', 'r']","['Stratego', 'Risk']","[-0.15, 0.5]","[0.15, 0.5]",1,1,,,,,,,,,,,,,,,,,0,0,0,0,0,4,4,0,,,,,,,,,,,,,,,,,,,,,,,,,,,,,,,,,,,,,,,,,,,,,,,887.9038564319999,None,887.9038564319999,None,887.9038564319999,None,s,1,3.1400445899998886,889.437143344001,None,889.437143344001,None,889.437143344001,None,892.6402843420001,None,892.6402843420001,None,892.6402843420001,None,892.6402843420001,None,,,,,,,,,,,,,,,,,,,,,,,,,,,,,,,,,,,,,,,,,,,,001,86,2020_Feb_06_1225,spring_faces,3.1.5,59.97730650646876,
condition files/Stage2_1.xlsx,,T1,B1,s,"['s', 'r']","['Stratego', 'Risk']","[-0.15, 0.5]","[0.15, 0.5]",1,1,,,,,,,,,,,,,,,,,0,0,0,0,0,5,5,2,,,,,,,,,,,,,,,,,,,,,,,,,,,,,,,,,,,,,,,,,,,,,,,894.6039590920009,None,894.6039590920009,None,894.6039590920009,None,r,0,1.0957747049997124,896.1373631060014,None,896.1373631060014,None,896.1373631060014,None,897.2876962730006,None,897.2876962730006,None,897.2876962730006,None,897.2876962730006,None,,,,,,,,,,,,,,,,,,,,,,,,,,,,,,,,,,,,,,,,,,,,001,86,2020_Feb_06_1225,spring_faces,3.1.5,59.97730650646876,
condition files/Stage2_2.xlsx,,B3,T3,s,"['s', 'r']","['Stratego', 'Risk']","[-0.15, 0.5]","[0.15, 0.5]",1,1,,,,,,,,,,,,,,,,,0,1,1,1,0,0,0,4,,,,,,,,,,,,,,,,,,,,,,,,,,,,,,,,,,,,,,,,,,,,,,,899.2713640180009,None,899.2713640180009,None,899.2713640180009,None,s,1,2.1087335359989083,900.8044652380013,None,900.8044652380013,None,900.8044652380013,None,902.9711348210003,None,902.9711348210003,None,902.9711348210003,None,902.9711348210003,None,,,,,,,,,,,,,,,,,,,,,,,,,,,,,,,,,,,,,,,,,,,,001,86,2020_Feb_06_1225,spring_faces,3.1.5,59.97730650646876,
condition files/Stage2_2.xlsx,,B1,T1,s,"['s', 'r']","['Stratego', 'Risk']","[-0.15, 0.5]","[0.15, 0.5]",1,1,,,,,,,,,,,,,,,,,0,1,1,1,0,1,1,2,,,,,,,,,,,,,,,,,,,,,,,,,,,,,,,,,,,,,,,,,,,,,,,904.9369791690006,None,904.9369791690006,None,904.9369791690006,None,r,0,2.8107049770005688,906.4704976370012,None,906.4704976370012,None,906.4704976370012,None,909.3381714380012,None,909.3381714380012,None,909.3381714380012,None,909.3381714380012,None,,,,,,,,,,,,,,,,,,,,,,,,,,,,,,,,,,,,,,,,,,,,001,86,2020_Feb_06_1225,spring_faces,3.1.5,59.97730650646876,
condition files/Stage2_2.xlsx,,B5,T5,s,"['s', 'r']","['Stratego', 'Risk']","[-0.15, 0.5]","[0.15, 0.5]",1,1,,,,,,,,,,,,,,,,,0,1,1,1,0,2,2,0,,,,,,,,,,,,,,,,,,,,,,,,,,,,,,,,,,,,,,,,,,,,,,,911.3037311150001,None,911.3037311150001,None,911.3037311150001,None,r,0,1.898556695001389,912.8385689740007,None,912.8385689740007,None,912.8385689740007,None,914.787203377,None,914.787203377,None,914.787203377,None,914.787203377,None,,,,,,,,,,,,,,,,,,,,,,,,,,,,,,,,,,,,,,,,,,,,001,86,2020_Feb_06_1225,spring_faces,3.1.5,59.97730650646876,
condition files/Stage2_2.xlsx,,T4,B4,r,"['s', 'r']","['Stratego', 'Risk']","[-0.15, 0.5]","[0.15, 0.5]",1,1,,,,,,,,,,,,,,,,,0,1,1,1,0,3,3,5,,,,,,,,,,,,,,,,,,,,,,,,,,,,,,,,,,,,,,,,,,,,,,,916.753595876,None,916.753595876,None,916.753595876,None,r,1,2.577791890998924,918.2873032250009,None,918.2873032250009,None,918.2873032250009,None,920.9213380460005,None,920.9213380460005,None,920.9213380460005,None,920.9213380460005,None,,,,,,,,,,,,,,,,,,,,,,,,,,,,,,,,,,,,,,,,,,,,001,86,2020_Feb_06_1225,spring_faces,3.1.5,59.97730650646876,
condition files/Stage2_2.xlsx,,T6,B6,r,"['s', 'r']","['Stratego', 'Risk']","[-0.15, 0.5]","[0.15, 0.5]",1,1,,,,,,,,,,,,,,,,,0,1,1,1,0,4,4,1,,,,,,,,,,,,,,,,,,,,,,,,,,,,,,,,,,,,,,,,,,,,,,,922.8876049610008,None,922.8876049610008,None,922.8876049610008,None,s,0,1.484193853000761,924.4208850040013,None,924.4208850040013,None,924.4208850040013,None,925.9712351180005,None,925.9712351180005,None,925.9712351180005,None,925.9712351180005,None,,,,,,,,,,,,,,,,,,,,,,,,,,,,,,,,,,,,,,,,,,,,001,86,2020_Feb_06_1225,spring_faces,3.1.5,59.97730650646876,
condition files/Stage2_2.xlsx,,T2,B2,r,"['s', 'r']","['Stratego', 'Risk']","[-0.15, 0.5]","[0.15, 0.5]",1,1,,,,,,,,,,,,,,,,,0,1,1,1,0,5,5,3,,,,,,,,,,,,,,,,,,,,,,,,,,,,,,,,,,,,,,,,,,,,,,,927.9377491660016,None,927.9377491660016,None,927.9377491660016,None,s,0,1.2334116689999064,929.4716721060013,None,929.4716721060013,None,929.4716721060013,None,930.7711138089999,None,930.7711138089999,None,930.7711138089999,None,930.7711138089999,None,,,,,,,,,,,,,,,,,,,,,,,,,,,,,,,,,,,,,,,,,,,,001,86,2020_Feb_06_1225,spring_faces,3.1.5,59.97730650646876,
condition files/Stage2_1.xlsx,,T5,B5,s,"['s', 'r']","['Stratego', 'Risk']","[-0.15, 0.5]","[0.15, 0.5]",1,1,,,,,,,,,,,,,,,,,0,2,2,2,0,0,0,0,,,,,,,,,,,,,,,,,,,,,,,,,,,,,,,,,,,,,,,,,,,,,,,932.7545223340003,None,932.7545223340003,None,932.7545223340003,None,r,0,1.9690631730009045,934.2880800450002,None,934.2880800450002,None,934.2880800450002,None,936.3225895270007,None,936.3225895270007,None,936.3225895270007,None,936.3225895270007,None,,,,,,,,,,,,,,,,,,,,,,,,,,,,,,,,,,,,,,,,,,,,001,86,2020_Feb_06_1225,spring_faces,3.1.5,59.97730650646876,
condition files/Stage2_1.xlsx,,B2,T2,r,"['s', 'r']","['Stratego', 'Risk']","[-0.15, 0.5]","[0.15, 0.5]",1,1,,,,,,,,,,,,,,,,,0,2,2,2,0,1,1,3,,,,,,,,,,,,,,,,,,,,,,,,,,,,,,,,,,,,,,,,,,,,,,,938.2875769030015,None,938.2875769030015,None,938.2875769030015,None,r,1,2.2118907969997963,939.8212303920009,None,939.8212303920009,None,939.8212303920009,None,942.1045421350009,None,942.1045421350009,None,942.1045421350009,None,942.1045421350009,None,,,,,,,,,,,,,,,,,,,,,,,,,,,,,,,,,,,,,,,,,,,,001,86,2020_Feb_06_1225,spring_faces,3.1.5,59.97730650646876,
condition files/Stage2_1.xlsx,,T3,B3,s,"['s', 'r']","['Stratego', 'Risk']","[-0.15, 0.5]","[0.15, 0.5]",1,1,,,,,,,,,,,,,,,,,0,2,2,2,0,2,2,4,,,,,,,,,,,,,,,,,,,,,,,,,,,,,,,,,,,,,,,,,,,,,,,944.0544027150008,None,944.0544027150008,None,944.0544027150008,None,s,1,1.1803671039997425,945.6047378740004,None,945.6047378740004,None,945.6047378740004,None,946.8546204419999,None,946.8546204419999,None,946.8546204419999,None,946.8546204419999,None,,,,,,,,,,,,,,,,,,,,,,,,,,,,,,,,,,,,,,,,,,,,001,86,2020_Feb_06_1225,spring_faces,3.1.5,59.97730650646876,
condition files/Stage2_1.xlsx,,T1,B1,s,"['s', 'r']","['Stratego', 'Risk']","[-0.15, 0.5]","[0.15, 0.5]",1,1,,,,,,,,,,,,,,,,,0,2,2,2,0,3,3,2,,,,,,,,,,,,,,,,,,,,,,,,,,,,,,,,,,,,,,,,,,,,,,,948.8042859010002,None,948.8042859010002,None,948.8042859010002,None,r,0,3.2309689199992135,950.3541383259999,None,950.3541383259999,None,950.3541383259999,None,953.6377912309999,None,953.6377912309999,None,953.6377912309999,None,953.6377912309999,None,,,,,,,,,,,,,,,,,,,,,,,,,,,,,,,,,,,,,,,,,,,,001,86,2020_Feb_06_1225,spring_faces,3.1.5,59.97730650646876,
condition files/Stage2_1.xlsx,,B4,T4,r,"['s', 'r']","['Stratego', 'Risk']","[-0.15, 0.5]","[0.15, 0.5]",1,1,,,,,,,,,,,,,,,,,0,2,2,2,0,4,4,5,,,,,,,,,,,,,,,,,,,,,,,,,,,,,,,,,,,,,,,,,,,,,,,955.603934914001,None,955.603934914001,None,955.603934914001,None,r,1,1.407336825001039,957.1538420050001,None,957.1538420050001,None,957.1538420050001,None,958.6209250850006,None,958.6209250850006,None,958.6209250850006,None,958.6209250850006,None,,,,,,,,,,,,,,,,,,,,,,,,,,,,,,,,,,,,,,,,,,,,001,86,2020_Feb_06_1225,spring_faces,3.1.5,59.97730650646876,
condition files/Stage2_1.xlsx,,B6,T6,r,"['s', 'r']","['Stratego', 'Risk']","[-0.15, 0.5]","[0.15, 0.5]",1,1,,,,,,,,,,,,,,,,,0,2,2,2,0,5,5,1,,,,,,,,,,,,,,,,,,,,,,,,,,,,,,,,,,,,,,,,,,,,,,,960.5871831490003,None,960.5871831490003,None,960.5871831490003,None,r,1,2.183188090999465,962.1378905620004,None,962.1378905620004,None,962.1378905620004,None,964.3878747580002,None,964.3878747580002,None,964.3878747580002,None,964.3878747580002,None,,,,,,,,,,,,,,,,,,,,,,,,,,,,,,,,,,,,,,,,,,,,001,86,2020_Feb_06_1225,spring_faces,3.1.5,59.97730650646876,
condition files/Stage2_2.xlsx,,B5,T5,s,"['s', 'r']","['Stratego', 'Risk']","[-0.15, 0.5]","[0.15, 0.5]",1,1,,,,,,,,,,,,,,,,,0,3,3,3,0,0,0,0,,,,,,,,,,,,,,,,,,,,,,,,,,,,,,,,,,,,,,,,,,,,,,,966.3706491930006,None,966.3706491930006,None,966.3706491930006,None,s,1,1.791684929999974,967.9215089420013,None,967.9215089420013,None,967.9215089420013,None,969.7879093400006,None,969.7879093400006,None,969.7879093400006,None,969.7879093400006,None,,,,,,,,,,,,,,,,,,,,,,,,,,,,,,,,,,,,,,,,,,,,001,86,2020_Feb_06_1225,spring_faces,3.1.5,59.97730650646876,
condition files/Stage2_2.xlsx,,B1,T1,s,"['s', 'r']","['Stratego', 'Risk']","[-0.15, 0.5]","[0.15, 0.5]",1,1,,,,,,,,,,,,,,,,,0,3,3,3,0,1,1,2,,,,,,,,,,,,,,,,,,,,,,,,,,,,,,,,,,,,,,,,,,,,,,,971.7379543060015,None,971.7379543060015,None,971.7379543060015,None,r,0,2.633538710999346,973.2875752060008,None,973.2875752060008,None,973.2875752060008,None,975.9712809090015,None,975.9712809090015,None,975.9712809090015,None,975.9712809090015,None,,,,,,,,,,,,,,,,,,,,,,,,,,,,,,,,,,,,,,,,,,,,001,86,2020_Feb_06_1225,spring_faces,3.1.5,59.97730650646876,
condition files/Stage2_2.xlsx,,B3,T3,s,"['s', 'r']","['Stratego', 'Risk']","[-0.15, 0.5]","[0.15, 0.5]",1,1,,,,,,,,,,,,,,,,,0,3,3,3,0,2,2,4,,,,,,,,,,,,,,,,,,,,,,,,,,,,,,,,,,,,,,,,,,,,,,,977.9370872180007,None,977.9370872180007,None,977.9370872180007,None,s,1,0.944363409998914,979.4887623210016,None,979.4887623210016,None,979.4887623210016,None,980.4876752880009,None,980.4876752880009,None,980.4876752880009,None,980.4876752880009,None,,,,,,,,,,,,,,,,,,,,,,,,,,,,,,,,,,,,,,,,,,,,001,86,2020_Feb_06_1225,spring_faces,3.1.5,59.97730650646876,
condition files/Stage2_2.xlsx,,T4,B4,r,"['s', 'r']","['Stratego', 'Risk']","[-0.15, 0.5]","[0.15, 0.5]",1,1,,,,,,,,,,,,,,,,,0,3,3,3,0,3,3,5,,,,,,,,,,,,,,,,,,,,,,,,,,,,,,,,,,,,,,,,,,,,,,,982.4545915120016,None,982.4545915120016,None,982.4545915120016,None,r,1,1.5168294189988956,983.9882537220001,None,983.9882537220001,None,983.9882537220001,None,985.58734835,None,985.58734835,None,985.58734835,None,985.58734835,None,,,,,,,,,,,,,,,,,,,,,,,,,,,,,,,,,,,,,,,,,,,,001,86,2020_Feb_06_1225,spring_faces,3.1.5,59.97730650646876,
condition files/Stage2_2.xlsx,,T6,B6,r,"['s', 'r']","['Stratego', 'Risk']","[-0.15, 0.5]","[0.15, 0.5]",1,1,,,,,,,,,,,,,,,,,0,3,3,3,0,4,4,1,,,,,,,,,,,,,,,,,,,,,,,,,,,,,,,,,,,,,,,,,,,,,,,987.5370785670002,None,987.5370785670002,None,987.5370785670002,None,r,1,0.9620168179990287,989.0711046380002,None,989.0711046380002,None,989.0711046380002,None,990.0873440579999,None,990.0873440579999,None,990.0873440579999,None,990.0873440579999,None,,,,,,,,,,,,,,,,,,,,,,,,,,,,,,,,,,,,,,,,,,,,001,86,2020_Feb_06_1225,spring_faces,3.1.5,59.97730650646876,
condition files/Stage2_2.xlsx,,T2,B2,r,"['s', 'r']","['Stratego', 'Risk']","[-0.15, 0.5]","[0.15, 0.5]",1,1,,,,,,,,,,,,,,,,,0,3,3,3,0,5,5,3,,,,,,,,,,,,,,,,,,,,,,,,,,,,,,,,,,,,,,,,,,,,,,,992.0541924059999,None,992.0541924059999,None,992.0541924059999,None,r,1,1.7241821500010701,993.5890138510003,None,993.5890138510003,None,993.5890138510003,None,995.3715599260013,None,995.3715599260013,None,995.3715599260013,None,995.3715599260013,None,,,,,,,,,,,,,,,,,,,,,,,,,,,,,,,,,,,,,,,,,,,,001,86,2020_Feb_06_1225,spring_faces,3.1.5,59.97730650646876,
condition files/Stage2_1.xlsx,,T5,B5,s,"['s', 'r']","['Stratego', 'Risk']","[-0.15, 0.5]","[0.15, 0.5]",1,1,,,,,,,,,,,,,,,,,0,4,4,4,0,0,0,0,,,,,,,,,,,,,,,,,,,,,,,,,,,,,,,,,,,,,,,,,,,,,,,997.3545578379999,None,997.3545578379999,None,997.3545578379999,None,s,1,1.207800431000578,998.8892598040002,None,998.8892598040002,None,998.8892598040002,None,1000.1565167890003,None,1000.1565167890003,None,1000.1565167890003,None,1000.1565167890003,None,,,,,,,,,,,,,,,,,,,,,,,,,,,,,,,,,,,,,,,,,,,,001,86,2020_Feb_06_1225,spring_faces,3.1.5,59.97730650646876,
condition files/Stage2_1.xlsx,,B6,T6,r,"['s', 'r']","['Stratego', 'Risk']","[-0.15, 0.5]","[0.15, 0.5]",1,1,,,,,,,,,,,,,,,,,0,4,4,4,0,1,1,1,,,,,,,,,,,,,,,,,,,,,,,,,,,,,,,,,,,,,,,,,,,,,,,1002.1202761040004,None,1002.1202761040004,None,1002.1202761040004,None,r,1,1.8506926699992619,1003.6543720580012,None,1003.6543720580012,None,1003.6543720580012,None,1005.5876171740001,None,1005.5876171740001,None,1005.5876171740001,None,1005.5876171740001,None,,,,,,,,,,,,,,,,,,,,,,,,,,,,,,,,,,,,,,,,,,,,001,86,2020_Feb_06_1225,spring_faces,3.1.5,59.97730650646876,
condition files/Stage2_1.xlsx,,T3,B3,s,"['s', 'r']","['Stratego', 'Risk']","[-0.15, 0.5]","[0.15, 0.5]",1,1,,,,,,,,,,,,,,,,,0,4,4,4,0,2,2,4,,,,,,,,,,,,,,,,,,,,,,,,,,,,,,,,,,,,,,,,,,,,,,,1007.5375656670003,None,1007.5375656670003,None,1007.5375656670003,None,s,1,1.2651330939988839,1009.0879777970003,None,1009.0879777970003,None,1009.0879777970003,None,1010.4062680920015,None,1010.4062680920015,None,1010.4062680920015,None,1010.4062680920015,None,,,,,,,,,,,,,,,,,,,,,,,,,,,,,,,,,,,,,,,,,,,,001,86,2020_Feb_06_1225,spring_faces,3.1.5,59.97730650646876,
condition files/Stage2_1.xlsx,,B2,T2,r,"['s', 'r']","['Stratego', 'Risk']","[-0.15, 0.5]","[0.15, 0.5]",1,1,,,,,,,,,,,,,,,,,0,4,4,4,0,3,3,3,,,,,,,,,,,,,,,,,,,,,,,,,,,,,,,,,,,,,,,,,,,,,,,1012.3709635499999,None,1012.3709635499999,None,1012.3709635499999,None,r,1,1.231698133999089,1013.921415918001,None,1013.921415918001,None,1013.921415918001,None,1015.2213271110013,None,1015.2213271110013,None,1015.2213271110013,None,1015.2213271110013,None,,,,,,,,,,,,,,,,,,,,,,,,,,,,,,,,,,,,,,,,,,,,001,86,2020_Feb_06_1225,spring_faces,3.1.5,59.97730650646876,
