condsFile,subStage,cue1,cue2,correct,responseKeys,responseNames,cue1Position,cue2Position,cue1Opacity,cue2Opacity,stageLoop0.thisRepN,stageLoop0.thisTrialN,stageLoop0.thisN,stageLoop0.thisIndex,blockLoop0.thisRepN,blockLoop0.thisTrialN,blockLoop0.thisN,blockLoop0.thisIndex,stage1Loop.thisRepN,stage1Loop.thisTrialN,stage1Loop.thisN,stage1Loop.thisIndex,blockLoop1.thisRepN,blockLoop1.thisTrialN,blockLoop1.thisN,blockLoop1.thisIndex,stage2Loop.thisRepN,stage2Loop.thisTrialN,stage2Loop.thisN,stage2Loop.thisIndex,blockLoop2.thisRepN,blockLoop2.thisTrialN,blockLoop2.thisN,blockLoop2.thisIndex,testLoop.thisRepN,testLoop.thisTrialN,testLoop.thisN,testLoop.thisIndex,blockLoopTest.thisRepN,blockLoopTest.thisTrialN,blockLoopTest.thisN,blockLoopTest.thisIndex,cuePics,id_instr_text.started,id_instr_text.stopped,space_to_continue_2.started,space_to_continue_2.stopped,end_instructions_resp_3.keys,end_instructions_resp_3.rt,end_instructions_resp_3.started,end_instructions_resp_3.stopped,id_input_instr.started,id_input_instr.stopped,id_input_rect.started,id_input_rect.stopped,id_input_resp.keys,id_input_resp.rt,id_input_resp.started,id_input_resp.stopped,sonaID,id_input_text.started,id_input_text.stopped,final_text.started,final_text.stopped,instructions.started,instructions.stopped,end_instructions_resp.keys,end_instructions_resp.rt,end_instructions_resp.started,end_instructions_resp.stopped,space_to_continue.started,space_to_continue.stopped,instructions_stage0.started,instructions_stage0.stopped,end_instructions_resp_stage0.keys,end_instructions_resp_stage0.rt,end_instructions_resp_stage0.started,end_instructions_resp_stage0.stopped,space_to_continue_stage0.started,space_to_continue_stage0.stopped,text.started,text.stopped,resp_text1.started,resp_text1.stopped,resp_text2.started,resp_text2.stopped,trial_resp.keys,trial_resp.corr,trial_resp.rt,trial_resp.started,trial_resp.stopped,cue1Image.started,cue1Image.stopped,cue2Image.started,cue2Image.stopped,cue1Image_fb.started,cue1Image_fb.stopped,cue2Image_fb.started,cue2Image_fb.stopped,fb_text_answer.started,fb_text_answer.stopped,feedback_image.started,feedback_image.stopped,instructions_stage1.started,instructions_stage1.stopped,end_instructions_resp_stage1.keys,end_instructions_resp_stage1.rt,end_instructions_resp_stage1.started,end_instructions_resp_stage1.stopped,space_to_continue_stage1.started,space_to_continue_stage1.stopped,instructions_2.started,instructions_2.stopped,end_instructions_resp_2.keys,end_instructions_resp_2.rt,end_instructions_resp_2.started,end_instructions_resp_2.stopped,press_space_to_continue_stage2.started,press_space_to_continue_stage2.stopped,instructions_testStage1.started,instructions_testStage1.stopped,end_instructions_resp_test1.keys,end_instructions_resp_test1.rt,end_instructions_resp_test1.started,end_instructions_resp_test1.stopped,press_space_to_continue_test1.started,press_space_to_continue_test1.stopped,cue1Image_testChoice.started,cue1Image_testChoice.stopped,cue2Image_testChoice.started,cue2Image_testChoice.stopped,test_resp.keys,test_resp.corr,test_resp.rt,test_resp.started,test_resp.stopped,cue1Image_testConf.started,cue1Image_testConf.stopped,cue2Image_testConf.started,cue2Image_testConf.stopped,conf_reminder.started,conf_reminder.stopped,conf_rating.response,conf_rating.rt,conf_rating.started,conf_rating.stopped,session,participant,date,expName,psychopyVersion,frameRate,
,,,,,,,,,,,,,,,,,,,,,,,,,,,,,,,,,,,,,,,,,,,"{'none': 'pictures/20M_AN_C.png', 'alpha': 'pictures/SHINEd_pear.png', 'beta': 'pictures/SHINEd_pepper.png', 'theta': 'pictures/SHINEd_apple.png', 'phi': 'pictures/SHINEd_melon.png', 'T1': 'pictures/25M_AN_C.png', 'T2': 'pictures/31M_AN_C.png', 'T3': 'pictures/38M_AN_C.png', 'T4': 'pictures/20M_AN_C.png', 'T5': 'pictures/36M_AN_C.png', 'T6': 'pictures/34M_AN_C.png', 'B1': 'pictures/26M_NE_C.png', 'B2': 'pictures/33M_NE_C.png', 'B3': 'pictures/22M_NE_C.png', 'B4': 'pictures/32M_NE_C.png', 'B5': 'pictures/37M_NE_C.png', 'B6': 'pictures/23M_NE_C.png'}",18.19625367899971,None,23.196607017000133,None,space,50.608304649000274,23.196607017000133,None,,,,,,,,,,,,,,,,,,,,,,,,,,,,,,,,,,,,,,,,,,,,,,,,,,,,,,,,,,,,,,,,,,,,,,,,,,,,,,,,,,,,,,,,,,,,,,,,001,87,2020_Feb_06_1229,spring_faces,3.1.5,60.004634157731566,
,,,,,,,,,,,,,,,,,,,,,,,,,,,,,,,,,,,,,,,,,,,,,,,,,,,,74.27957789100037,None,74.27957789100037,None,"['c', 'h', 'backspace', 'backspace', 'backspace', 'backspace', 'backspace', 'backspace', 'backspace', 'backspace', 'c', 'h', 'p', 'e', 'a', 'backspace', 'backspace', 'backspace', 'backspace', 'backspace', 'backspace', 'backspace', '7', '7', 'backspace', 'backspace', '1', '1', '1', '3', 'c', 'h', 'p', 'e', 'a']","[30.357298808999985, 31.637230775999342, 33.41328115900069, 33.63726864599994, 33.84520130400051, 33.989277541000774, 34.14927146899936, 34.293211076999796, 34.45326853900042, 34.59726483899976, 36.245246526999836, 37.109335241000736, 45.74927205300082, 45.95725121800024, 46.22927331900064, 53.7012140629995, 53.909333781000896, 54.08524656600093, 54.24522115500076, 54.405281194000054, 54.565269011000055, 54.96527276500092, 61.589294044999406, 61.84524820200022, 62.533272926999416, 63.061233611000716, 65.41327267300039, 65.62127746099941, 67.15732997099985, 67.28524668099999, 68.24526922800032, 68.43727681000018, 69.30121865500041, 69.44521457799965, 69.62127388199951]",74.27957789100037,None,,,,,,,,,,,,,,,,,,,,,,,,,,,,,,,,,,,,,,,,,,,,,,,,,,,,,,,,,,,,,,,,,,,,,,,,,,,,,,,,,,,,,,,,001,87,2020_Feb_06_1229,spring_faces,3.1.5,60.004634157731566,
,,,,,,,,,,,,,,,,,,,,,,,,,,,,,,,,,,,,,,,,,,,,,,,,,,,,,,,,,,,,1113chpea,74.27957789100037,None,74.27957789100037,None,148.98035744499975,None,space,0.7049101640004665,153.97994312500123,None,,,,,,,,,,,,,,,,,,,,,,,,,,,,,,,,,,,,,,,,,,,,,,,,,,,,,,,,,,,,,,,,,,,,,,,,,,,,,001,87,2020_Feb_06_1229,spring_faces,3.1.5,60.004634157731566,
,,,,,,,,,,,,,,,,,,,,,,,,,,,,,,,,,,,,,,,,,,,,,,,,,,,,,,,,,,,,,,,,,,,,,,,153.97994312500123,None,154.73012632599966,None,space,0.6355498499997339,159.71330774700073,None,,,,,,,,,,,,,,,,,,,,,,,,,,,,,,,,,,,,,,,,,,,,,,,,,,,,,,,,,,,,,,,,,,,,,001,87,2020_Feb_06_1229,spring_faces,3.1.5,60.004634157731566,
condition files/Stage0a.xlsx,0a,alpha,none,h,"['h', 'g']","['Chess', 'Go']","[0, 0.5]","[0, 0]",1,0,0,0,0,0,0,0,0,0,,,,,,,,,,,,,,,,,,,,,,,,,,,,,,,,,,,,,,,,,,,,,,,,,,,,,,,,,,,,,159.71330774700073,None,160.48061345099995,None,160.48061345099995,None,160.48061345099995,None,h,1,1.8691551279989653,162.07976548900115,None,162.07976548900115,None,162.07976548900115,None,164.0465022999997,None,164.0465022999997,None,164.0465022999997,None,164.0465022999997,None,,,,,,,,,,,,,,,,,,,,,,,,,,,,,,,,,,,,,,,,,,,,001,87,2020_Feb_06_1229,spring_faces,3.1.5,60.004634157731566,
condition files/Stage0a.xlsx,0a,beta,none,g,"['h', 'g']","['Chess', 'Go']","[0, 0.5]","[0, 0]",1,0,0,0,0,0,0,1,1,1,,,,,,,,,,,,,,,,,,,,,,,,,,,,,,,,,,,,,,,,,,,,,,,,,,,,,,,,,,,,,,,165.97996377399977,None,165.97996377399977,None,165.97996377399977,None,h,0,1.5700403539995023,167.5627974580002,None,167.5627974580002,None,167.5627974580002,None,169.2134935890008,None,169.2134935890008,None,169.2134935890008,None,169.2134935890008,None,,,,,,,,,,,,,,,,,,,,,,,,,,,,,,,,,,,,,,,,,,,,001,87,2020_Feb_06_1229,spring_faces,3.1.5,60.004634157731566,
condition files/Stage0a.xlsx,0a,alpha,none,h,"['h', 'g']","['Chess', 'Go']","[0, 0.5]","[0, 0]",1,0,0,1,1,1,0,0,0,0,,,,,,,,,,,,,,,,,,,,,,,,,,,,,,,,,,,,,,,,,,,,,,,,,,,,,,,,,,,,,,,171.1799840950007,None,171.1799840950007,None,171.1799840950007,None,h,1,1.0277950660001807,172.7130730709996,None,172.7130730709996,None,172.7130730709996,None,173.79634833900127,None,173.79634833900127,None,173.79634833900127,None,173.79634833900127,None,,,,,,,,,,,,,,,,,,,,,,,,,,,,,,,,,,,,,,,,,,,,001,87,2020_Feb_06_1229,spring_faces,3.1.5,60.004634157731566,
condition files/Stage0a.xlsx,0a,beta,none,g,"['h', 'g']","['Chess', 'Go']","[0, 0.5]","[0, 0]",1,0,0,1,1,1,0,1,1,1,,,,,,,,,,,,,,,,,,,,,,,,,,,,,,,,,,,,,,,,,,,,,,,,,,,,,,,,,,,,,,,175.76244989100087,None,175.76244989100087,None,175.76244989100087,None,g,1,0.6039346849993308,177.29692108600102,None,177.29692108600102,None,177.29692108600102,None,177.96346788600022,None,177.96346788600022,None,177.96346788600022,None,177.96346788600022,None,,,,,,,,,,,,,,,,,,,,,,,,,,,,,,,,,,,,,,,,,,,,001,87,2020_Feb_06_1229,spring_faces,3.1.5,60.004634157731566,
condition files/Stage0a.xlsx,0a,alpha,none,h,"['h', 'g']","['Chess', 'Go']","[0, 0.5]","[0, 0]",1,0,0,2,2,2,0,0,0,0,,,,,,,,,,,,,,,,,,,,,,,,,,,,,,,,,,,,,,,,,,,,,,,,,,,,,,,,,,,,,,,179.9462056070006,None,179.9462056070006,None,179.9462056070006,None,h,1,0.5498336820000986,181.46300229700137,None,181.46300229700137,None,181.46300229700137,None,182.06324146600127,None,182.06324146600127,None,182.06324146600127,None,182.06324146600127,None,,,,,,,,,,,,,,,,,,,,,,,,,,,,,,,,,,,,,,,,,,,,001,87,2020_Feb_06_1229,spring_faces,3.1.5,60.004634157731566,
condition files/Stage0a.xlsx,0a,beta,none,g,"['h', 'g']","['Chess', 'Go']","[0, 0.5]","[0, 0]",1,0,0,2,2,2,0,1,1,1,,,,,,,,,,,,,,,,,,,,,,,,,,,,,,,,,,,,,,,,,,,,,,,,,,,,,,,,,,,,,,,184.02989127100045,None,184.02989127100045,None,184.02989127100045,None,g,1,0.47998278200066125,185.5648468090003,None,185.5648468090003,None,185.5648468090003,None,186.09639393600082,None,186.09639393600082,None,186.09639393600082,None,186.09639393600082,None,,,,,,,,,,,,,,,,,,,,,,,,,,,,,,,,,,,,,,,,,,,,001,87,2020_Feb_06_1229,spring_faces,3.1.5,60.004634157731566,
condition files/Stage0a.xlsx,0a,alpha,none,h,"['h', 'g']","['Chess', 'Go']","[0, 0.5]","[0, 0]",1,0,0,3,3,3,0,0,0,0,,,,,,,,,,,,,,,,,,,,,,,,,,,,,,,,,,,,,,,,,,,,,,,,,,,,,,,,,,,,,,,188.07993244600038,None,188.07993244600038,None,188.07993244600038,None,h,1,0.7190550679988519,189.6138001979998,None,189.6138001979998,None,189.6138001979998,None,190.39669774800132,None,190.39669774800132,None,190.39669774800132,None,190.39669774800132,None,,,,,,,,,,,,,,,,,,,,,,,,,,,,,,,,,,,,,,,,,,,,001,87,2020_Feb_06_1229,spring_faces,3.1.5,60.004634157731566,
condition files/Stage0a.xlsx,0a,beta,none,g,"['h', 'g']","['Chess', 'Go']","[0, 0.5]","[0, 0]",1,0,0,3,3,3,0,1,1,1,,,,,,,,,,,,,,,,,,,,,,,,,,,,,,,,,,,,,,,,,,,,,,,,,,,,,,,,,,,,,,,192.36318924599982,None,192.36318924599982,None,192.36318924599982,None,g,1,0.7081610049990559,193.8967423560007,None,193.8967423560007,None,193.8967423560007,None,194.66306310000073,None,194.66306310000073,None,194.66306310000073,None,194.66306310000073,None,,,,,,,,,,,,,,,,,,,,,,,,,,,,,,,,,,,,,,,,,,,,001,87,2020_Feb_06_1229,spring_faces,3.1.5,60.004634157731566,
condition files/Stage0a.xlsx,0a,beta,none,g,"['h', 'g']","['Chess', 'Go']","[0, 0.5]","[0, 0]",1,0,0,4,4,4,0,0,0,1,,,,,,,,,,,,,,,,,,,,,,,,,,,,,,,,,,,,,,,,,,,,,,,,,,,,,,,,,,,,,,,196.64667791800093,None,196.64667791800093,None,196.64667791800093,None,h,0,0.34512594300031196,198.17971632400076,None,198.17971632400076,None,198.17971632400076,None,198.58036813000035,None,198.58036813000035,None,198.58036813000035,None,198.58036813000035,None,,,,,,,,,,,,,,,,,,,,,,,,,,,,,,,,,,,,,,,,,,,,001,87,2020_Feb_06_1229,spring_faces,3.1.5,60.004634157731566,
condition files/Stage0a.xlsx,0a,alpha,none,h,"['h', 'g']","['Chess', 'Go']","[0, 0.5]","[0, 0]",1,0,0,4,4,4,0,1,1,0,,,,,,,,,,,,,,,,,,,,,,,,,,,,,,,,,,,,,,,,,,,,,,,,,,,,,,,,,,,,,,,200.54643794500043,None,200.54643794500043,None,200.54643794500043,None,h,1,0.4127082169998175,202.08011633500064,None,202.08011633500064,None,202.08011633500064,None,202.54810229299983,None,202.54810229299983,None,202.54810229299983,None,202.54810229299983,None,,,,,,,,,,,,,,,,,,,,,,,,,,,,,,,,,,,,,,,,,,,,001,87,2020_Feb_06_1229,spring_faces,3.1.5,60.004634157731566,
condition files/Stage0a.xlsx,0a,alpha,none,h,"['h', 'g']","['Chess', 'Go']","[0, 0.5]","[0, 0]",1,0,0,5,5,5,0,0,0,0,,,,,,,,,,,,,,,,,,,,,,,,,,,,,,,,,,,,,,,,,,,,,,,,,,,,,,,,,,,,,,,204.5299029760008,None,204.5299029760008,None,204.5299029760008,None,h,1,0.7008336470007634,206.06400847300029,None,206.06400847300029,None,206.06400847300029,None,206.8297066920004,None,206.8297066920004,None,206.8297066920004,None,206.8297066920004,None,,,,,,,,,,,,,,,,,,,,,,,,,,,,,,,,,,,,,,,,,,,,001,87,2020_Feb_06_1229,spring_faces,3.1.5,60.004634157731566,
condition files/Stage0a.xlsx,0a,beta,none,g,"['h', 'g']","['Chess', 'Go']","[0, 0.5]","[0, 0]",1,0,0,5,5,5,0,1,1,1,,,,,,,,,,,,,,,,,,,,,,,,,,,,,,,,,,,,,,,,,,,,,,,,,,,,,,,,,,,,,,,208.79649648300074,None,208.79649648300074,None,208.79649648300074,None,g,1,0.8191574789998413,210.32967498000107,None,210.32967498000107,None,210.32967498000107,None,211.21381634099998,None,211.21381634099998,None,211.21381634099998,None,211.21381634099998,None,,,,,,,,,,,,,,,,,,,,,,,,,,,,,,,,,,,,,,,,,,,,001,87,2020_Feb_06_1229,spring_faces,3.1.5,60.004634157731566,
condition files/Stage0b_1.xlsx,0b,none,beta,g,"['h', 'g']","['Chess', 'Go']","[-0.15, 0.5]","[0.15, 0.5]",0,1,0,6,6,6,0,0,0,1,,,,,,,,,,,,,,,,,,,,,,,,,,,,,,,,,,,,,,,,,,,,,,,,,,,,,,,,,,,,,,,213.24651273200107,None,213.24651273200107,None,213.24651273200107,None,g,1,0.6910754729997279,214.74581856100122,None,214.74581856100122,None,214.74581856100122,None,215.49735343500106,None,215.49735343500106,None,215.49735343500106,None,215.49735343500106,None,,,,,,,,,,,,,,,,,,,,,,,,,,,,,,,,,,,,,,,,,,,,001,87,2020_Feb_06_1229,spring_faces,3.1.5,60.004634157731566,
condition files/Stage0b_1.xlsx,0b,alpha,none,h,"['h', 'g']","['Chess', 'Go']","[-0.15, 0.5]","[0.15, 0.5]",1,0,0,6,6,6,0,1,1,0,,,,,,,,,,,,,,,,,,,,,,,,,,,,,,,,,,,,,,,,,,,,,,,,,,,,,,,,,,,,,,,217.46307302599962,None,217.46307302599962,None,217.46307302599962,None,h,1,0.6904668930001208,219.00237710500005,None,219.00237710500005,None,219.00237710500005,None,219.74898724600098,None,219.74898724600098,None,219.74898724600098,None,219.74898724600098,None,,,,,,,,,,,,,,,,,,,,,,,,,,,,,,,,,,,,,,,,,,,,001,87,2020_Feb_06_1229,spring_faces,3.1.5,60.004634157731566,
condition files/Stage0b_2.xlsx,0b,none,alpha,h,"['h', 'g']","['Chess', 'Go']","[-0.15, 0.5]","[0.15, 0.5]",0,1,0,7,7,7,0,0,0,0,,,,,,,,,,,,,,,,,,,,,,,,,,,,,,,,,,,,,,,,,,,,,,,,,,,,,,,,,,,,,,,221.76273459500044,None,221.76273459500044,None,221.76273459500044,None,h,1,1.4646483750002517,223.2682158080006,None,223.2682158080006,None,223.2682158080006,None,224.79678281100132,None,224.79678281100132,None,224.79678281100132,None,224.79678281100132,None,,,,,,,,,,,,,,,,,,,,,,,,,,,,,,,,,,,,,,,,,,,,001,87,2020_Feb_06_1229,spring_faces,3.1.5,60.004634157731566,
condition files/Stage0b_2.xlsx,0b,beta,none,g,"['h', 'g']","['Chess', 'Go']","[-0.15, 0.5]","[0.15, 0.5]",1,0,0,7,7,7,0,1,1,1,,,,,,,,,,,,,,,,,,,,,,,,,,,,,,,,,,,,,,,,,,,,,,,,,,,,,,,,,,,,,,,226.76311203499972,None,226.76311203499972,None,226.76311203499972,None,g,1,0.5268150439987949,228.3020094530002,None,228.3020094530002,None,228.3020094530002,None,228.88193776200023,None,228.88193776200023,None,228.88193776200023,None,228.88193776200023,None,,,,,,,,,,,,,,,,,,,,,,,,,,,,,,,,,,,,,,,,,,,,001,87,2020_Feb_06_1229,spring_faces,3.1.5,60.004634157731566,
condition files/Stage0b_1.xlsx,0b,none,beta,g,"['h', 'g']","['Chess', 'Go']","[-0.15, 0.5]","[0.15, 0.5]",0,1,0,8,8,8,0,0,0,1,,,,,,,,,,,,,,,,,,,,,,,,,,,,,,,,,,,,,,,,,,,,,,,,,,,,,,,,,,,,,,,230.86364147200038,None,230.86364147200038,None,230.86364147200038,None,g,1,0.9595169399999577,232.41331913199974,None,232.41331913199974,None,232.41331913199974,None,233.43088656200052,None,233.43088656200052,None,233.43088656200052,None,233.43088656200052,None,,,,,,,,,,,,,,,,,,,,,,,,,,,,,,,,,,,,,,,,,,,,001,87,2020_Feb_06_1229,spring_faces,3.1.5,60.004634157731566,
condition files/Stage0b_1.xlsx,0b,alpha,none,h,"['h', 'g']","['Chess', 'Go']","[-0.15, 0.5]","[0.15, 0.5]",1,0,0,8,8,8,0,1,1,0,,,,,,,,,,,,,,,,,,,,,,,,,,,,,,,,,,,,,,,,,,,,,,,,,,,,,,,,,,,,,,,235.3965198349997,None,235.3965198349997,None,235.3965198349997,None,h,1,0.5217987870000798,236.9470442239999,None,236.9470442239999,None,236.9470442239999,None,237.53060348500003,None,237.53060348500003,None,237.53060348500003,None,237.53060348500003,None,,,,,,,,,,,,,,,,,,,,,,,,,,,,,,,,,,,,,,,,,,,,001,87,2020_Feb_06_1229,spring_faces,3.1.5,60.004634157731566,
condition files/Stage0b_2.xlsx,0b,beta,none,g,"['h', 'g']","['Chess', 'Go']","[-0.15, 0.5]","[0.15, 0.5]",1,0,0,9,9,9,0,0,0,1,,,,,,,,,,,,,,,,,,,,,,,,,,,,,,,,,,,,,,,,,,,,,,,,,,,,,,,,,,,,,,,239.51334064600087,None,239.51334064600087,None,239.51334064600087,None,g,1,0.8698452700009511,241.06300626099983,None,241.06300626099983,None,241.06300626099983,None,241.99636427600126,None,241.99636427600126,None,241.99636427600126,None,241.99636427600126,None,,,,,,,,,,,,,,,,,,,,,,,,,,,,,,,,,,,,,,,,,,,,001,87,2020_Feb_06_1229,spring_faces,3.1.5,60.004634157731566,
condition files/Stage0b_2.xlsx,0b,none,alpha,h,"['h', 'g']","['Chess', 'Go']","[-0.15, 0.5]","[0.15, 0.5]",0,1,0,9,9,9,0,1,1,0,,,,,,,,,,,,,,,,,,,,,,,,,,,,,,,,,,,,,,,,,,,,,,,,,,,,,,,,,,,,,,,243.96313517400085,None,243.96313517400085,None,243.96313517400085,None,h,1,0.6758963920001406,245.51301883999986,None,245.51301883999986,None,245.51301883999986,None,246.26305376600067,None,246.26305376600067,None,246.26305376600067,None,246.26305376600067,None,,,,,,,,,,,,,,,,,,,,,,,,,,,,,,,,,,,,,,,,,,,,001,87,2020_Feb_06_1229,spring_faces,3.1.5,60.004634157731566,
condition files/Stage0b_1.xlsx,0b,none,beta,g,"['h', 'g']","['Chess', 'Go']","[-0.15, 0.5]","[0.15, 0.5]",0,1,0,10,10,10,0,0,0,1,,,,,,,,,,,,,,,,,,,,,,,,,,,,,,,,,,,,,,,,,,,,,,,,,,,,,,,,,,,,,,,248.2301282999997,None,248.2301282999997,None,248.2301282999997,None,g,1,0.6342268429998512,249.76259745700008,None,249.76259745700008,None,249.76259745700008,None,250.4496720370007,None,250.4496720370007,None,250.4496720370007,None,250.4496720370007,None,,,,,,,,,,,,,,,,,,,,,,,,,,,,,,,,,,,,,,,,,,,,001,87,2020_Feb_06_1229,spring_faces,3.1.5,60.004634157731566,
condition files/Stage0b_1.xlsx,0b,alpha,none,h,"['h', 'g']","['Chess', 'Go']","[-0.15, 0.5]","[0.15, 0.5]",1,0,0,10,10,10,0,1,1,0,,,,,,,,,,,,,,,,,,,,,,,,,,,,,,,,,,,,,,,,,,,,,,,,,,,,,,,,,,,,,,,252.4124108240012,None,252.4124108240012,None,252.4124108240012,None,h,1,0.6695618860012473,253.95132798400118,None,253.95132798400118,None,253.95132798400118,None,254.69691418399998,None,254.69691418399998,None,254.69691418399998,None,254.69691418399998,None,,,,,,,,,,,,,,,,,,,,,,,,,,,,,,,,,,,,,,,,,,,,001,87,2020_Feb_06_1229,spring_faces,3.1.5,60.004634157731566,
condition files/Stage0b_2.xlsx,0b,none,alpha,h,"['h', 'g']","['Chess', 'Go']","[-0.15, 0.5]","[0.15, 0.5]",0,1,0,11,11,11,0,0,0,0,,,,,,,,,,,,,,,,,,,,,,,,,,,,,,,,,,,,,,,,,,,,,,,,,,,,,,,,,,,,,,,256.6630981489998,None,256.6630981489998,None,256.6630981489998,None,h,1,0.692759568000838,258.2000662419996,None,258.2000662419996,None,258.2000662419996,None,258.94624978200045,None,258.94624978200045,None,258.94624978200045,None,258.94624978200045,None,,,,,,,,,,,,,,,,,,,,,,,,,,,,,,,,,,,,,,,,,,,,001,87,2020_Feb_06_1229,spring_faces,3.1.5,60.004634157731566,
condition files/Stage0b_2.xlsx,0b,beta,none,g,"['h', 'g']","['Chess', 'Go']","[-0.15, 0.5]","[0.15, 0.5]",1,0,0,11,11,11,0,1,1,1,,,,,,,,,,,,,,,,,,,,,,,,,,,,,,,,,,,,,,,,,,,,,,,,,,,,,,,,,,,,,,,260.91316209900106,None,260.91316209900106,None,260.91316209900106,None,g,1,0.8422030069996254,262.4506454800012,None,262.4506454800012,None,262.4506454800012,None,263.348981223,None,263.348981223,None,263.348981223,None,263.348981223,None,,,,,,,,,,,,,,,,,,,,,,,,,,,,,,,,,,,,,,,,,,,,001,87,2020_Feb_06_1229,spring_faces,3.1.5,60.004634157731566,
condition files/Stage0c_1.xlsx,0c,phi,beta,g,"['h', 'g']","['Chess', 'Go']","[-0.15, 0.5]","[0.15, 0.5]",1,1,0,12,12,12,0,0,0,3,,,,,,,,,,,,,,,,,,,,,,,,,,,,,,,,,,,,,,,,,,,,,,,,,,,,,,,,,,,,,,,265.364653386001,None,265.364653386001,None,265.364653386001,None,g,1,1.8856823619989882,266.86316448599973,None,266.86316448599973,None,266.86316448599973,None,268.81341578700085,None,268.81341578700085,None,268.81341578700085,None,268.81341578700085,None,,,,,,,,,,,,,,,,,,,,,,,,,,,,,,,,,,,,,,,,,,,,001,87,2020_Feb_06_1229,spring_faces,3.1.5,60.004634157731566,
condition files/Stage0c_1.xlsx,0c,alpha,phi,h,"['h', 'g']","['Chess', 'Go']","[-0.15, 0.5]","[0.15, 0.5]",1,1,0,12,12,12,0,1,1,1,,,,,,,,,,,,,,,,,,,,,,,,,,,,,,,,,,,,,,,,,,,,,,,,,,,,,,,,,,,,,,,270.77946163399974,None,270.77946163399974,None,270.77946163399974,None,h,1,1.6194718820006528,272.31336731900046,None,272.31336731900046,None,272.31336731900046,None,273.99676626200016,None,273.99676626200016,None,273.99676626200016,None,273.99676626200016,None,,,,,,,,,,,,,,,,,,,,,,,,,,,,,,,,,,,,,,,,,,,,001,87,2020_Feb_06_1229,spring_faces,3.1.5,60.004634157731566,
condition files/Stage0c_1.xlsx,0c,beta,theta,g,"['h', 'g']","['Chess', 'Go']","[-0.15, 0.5]","[0.15, 0.5]",1,1,0,12,12,12,0,2,2,2,,,,,,,,,,,,,,,,,,,,,,,,,,,,,,,,,,,,,,,,,,,,,,,,,,,,,,,,,,,,,,,275.96286049800074,None,275.96286049800074,None,275.96286049800074,None,g,1,1.778748444001394,277.5460738230013,None,277.5460738230013,None,277.5460738230013,None,279.38011697799993,None,279.38011697799993,None,279.38011697799993,None,279.38011697799993,None,,,,,,,,,,,,,,,,,,,,,,,,,,,,,,,,,,,,,,,,,,,,001,87,2020_Feb_06_1229,spring_faces,3.1.5,60.004634157731566,
condition files/Stage0c_1.xlsx,0c,theta,alpha,h,"['h', 'g']","['Chess', 'Go']","[-0.15, 0.5]","[0.15, 0.5]",1,1,0,12,12,12,0,3,3,0,,,,,,,,,,,,,,,,,,,,,,,,,,,,,,,,,,,,,,,,,,,,,,,,,,,,,,,,,,,,,,,281.3461223200011,None,281.3461223200011,None,281.3461223200011,None,h,1,1.0526316770010453,282.88020035800037,None,282.88020035800037,None,282.88020035800037,None,283.9967073910011,None,283.9967073910011,None,283.9967073910011,None,283.9967073910011,None,,,,,,,,,,,,,,,,,,,,,,,,,,,,,,,,,,,,,,,,,,,,001,87,2020_Feb_06_1229,spring_faces,3.1.5,60.004634157731566,
condition files/Stage0c_2.xlsx,0c,alpha,theta,h,"['h', 'g']","['Chess', 'Go']","[-0.15, 0.5]","[0.15, 0.5]",1,1,0,13,13,13,0,0,0,0,,,,,,,,,,,,,,,,,,,,,,,,,,,,,,,,,,,,,,,,,,,,,,,,,,,,,,,,,,,,,,,285.99678021399995,None,285.99678021399995,None,285.99678021399995,None,h,1,1.3313006540010974,287.51354973100024,None,287.51354973100024,None,287.51354973100024,None,288.882519281,None,288.882519281,None,288.882519281,None,288.882519281,None,,,,,,,,,,,,,,,,,,,,,,,,,,,,,,,,,,,,,,,,,,,,001,87,2020_Feb_06_1229,spring_faces,3.1.5,60.004634157731566,
condition files/Stage0c_2.xlsx,0c,phi,alpha,h,"['h', 'g']","['Chess', 'Go']","[-0.15, 0.5]","[0.15, 0.5]",1,1,0,13,13,13,0,1,1,1,,,,,,,,,,,,,,,,,,,,,,,,,,,,,,,,,,,,,,,,,,,,,,,,,,,,,,,,,,,,,,,290.8625719130014,None,290.8625719130014,None,290.8625719130014,None,h,1,0.9921352530000149,292.3967710119996,None,292.3967710119996,None,292.3967710119996,None,293.43068736500027,None,293.43068736500027,None,293.43068736500027,None,293.43068736500027,None,,,,,,,,,,,,,,,,,,,,,,,,,,,,,,,,,,,,,,,,,,,,001,87,2020_Feb_06_1229,spring_faces,3.1.5,60.004634157731566,
condition files/Stage0c_2.xlsx,0c,beta,phi,g,"['h', 'g']","['Chess', 'Go']","[-0.15, 0.5]","[0.15, 0.5]",1,1,0,13,13,13,0,2,2,3,,,,,,,,,,,,,,,,,,,,,,,,,,,,,,,,,,,,,,,,,,,,,,,,,,,,,,,,,,,,,,,295.4128368519996,None,295.4128368519996,None,295.4128368519996,None,g,1,1.3700255200001266,296.9468221120005,None,296.9468221120005,None,296.9468221120005,None,298.38014128600116,None,298.38014128600116,None,298.38014128600116,None,298.38014128600116,None,,,,,,,,,,,,,,,,,,,,,,,,,,,,,,,,,,,,,,,,,,,,001,87,2020_Feb_06_1229,spring_faces,3.1.5,60.004634157731566,
condition files/Stage0c_2.xlsx,0c,theta,beta,g,"['h', 'g']","['Chess', 'Go']","[-0.15, 0.5]","[0.15, 0.5]",1,1,0,13,13,13,0,3,3,2,,,,,,,,,,,,,,,,,,,,,,,,,,,,,,,,,,,,,,,,,,,,,,,,,,,,,,,,,,,,,,,300.3460320970007,None,300.3460320970007,None,300.3460320970007,None,g,1,0.9327236659992195,301.8801616090004,None,301.8801616090004,None,301.8801616090004,None,302.84775010200065,None,302.84775010200065,None,302.84775010200065,None,302.84775010200065,None,,,,,,,,,,,,,,,,,,,,,,,,,,,,,,,,,,,,,,,,,,,,001,87,2020_Feb_06_1229,spring_faces,3.1.5,60.004634157731566,
condition files/Stage0c_1.xlsx,0c,alpha,phi,h,"['h', 'g']","['Chess', 'Go']","[-0.15, 0.5]","[0.15, 0.5]",1,1,0,14,14,14,0,0,0,1,,,,,,,,,,,,,,,,,,,,,,,,,,,,,,,,,,,,,,,,,,,,,,,,,,,,,,,,,,,,,,,304.8460517250005,None,304.8460517250005,None,304.8460517250005,None,h,1,0.7050142949992733,306.3798544380006,None,306.3798544380006,None,306.3798544380006,None,307.146746937,None,307.146746937,None,307.146746937,None,307.146746937,None,,,,,,,,,,,,,,,,,,,,,,,,,,,,,,,,,,,,,,,,,,,,001,87,2020_Feb_06_1229,spring_faces,3.1.5,60.004634157731566,
condition files/Stage0c_1.xlsx,0c,beta,theta,g,"['h', 'g']","['Chess', 'Go']","[-0.15, 0.5]","[0.15, 0.5]",1,1,0,14,14,14,0,1,1,2,,,,,,,,,,,,,,,,,,,,,,,,,,,,,,,,,,,,,,,,,,,,,,,,,,,,,,,,,,,,,,,309.11304284000107,None,309.11304284000107,None,309.11304284000107,None,g,1,0.6462407290000556,310.6466092040009,None,310.6466092040009,None,310.6466092040009,None,311.3463445240013,None,311.3463445240013,None,311.3463445240013,None,311.3463445240013,None,,,,,,,,,,,,,,,,,,,,,,,,,,,,,,,,,,,,,,,,,,,,001,87,2020_Feb_06_1229,spring_faces,3.1.5,60.004634157731566,
condition files/Stage0c_1.xlsx,0c,theta,alpha,h,"['h', 'g']","['Chess', 'Go']","[-0.15, 0.5]","[0.15, 0.5]",1,1,0,14,14,14,0,2,2,0,,,,,,,,,,,,,,,,,,,,,,,,,,,,,,,,,,,,,,,,,,,,,,,,,,,,,,,,,,,,,,,313.31315245100086,None,313.31315245100086,None,313.31315245100086,None,h,1,0.8938526970014209,314.8469955170003,None,314.8469955170003,None,314.8469955170003,None,315.7964574960006,None,315.7964574960006,None,315.7964574960006,None,315.7964574960006,None,,,,,,,,,,,,,,,,,,,,,,,,,,,,,,,,,,,,,,,,,,,,001,87,2020_Feb_06_1229,spring_faces,3.1.5,60.004634157731566,
condition files/Stage0c_1.xlsx,0c,phi,beta,g,"['h', 'g']","['Chess', 'Go']","[-0.15, 0.5]","[0.15, 0.5]",1,1,0,14,14,14,0,3,3,3,,,,,,,,,,,,,,,,,,,,,,,,,,,,,,,,,,,,,,,,,,,,,,,,,,,,,,,,,,,,,,,317.7625582849996,None,317.7625582849996,None,317.7625582849996,None,g,1,0.8602667180002754,319.2966269710014,None,319.2966269710014,None,319.2966269710014,None,320.2126929170008,None,320.2126929170008,None,320.2126929170008,None,320.2126929170008,None,,,,,,,,,,,,,,,,,,,,,,,,,,,,,,,,,,,,,,,,,,,,001,87,2020_Feb_06_1229,spring_faces,3.1.5,60.004634157731566,
condition files/Stage0c_2.xlsx,0c,theta,beta,g,"['h', 'g']","['Chess', 'Go']","[-0.15, 0.5]","[0.15, 0.5]",1,1,0,15,15,15,0,0,0,2,,,,,,,,,,,,,,,,,,,,,,,,,,,,,,,,,,,,,,,,,,,,,,,,,,,,,,,,,,,,,,,322.1963470589999,None,322.1963470589999,None,322.1963470589999,None,g,1,1.162864410000111,323.72996007300026,None,323.72996007300026,None,323.72996007300026,None,324.93189258799976,None,324.93189258799976,None,324.93189258799976,None,324.93189258799976,None,,,,,,,,,,,,,,,,,,,,,,,,,,,,,,,,,,,,,,,,,,,,001,87,2020_Feb_06_1229,spring_faces,3.1.5,60.004634157731566,
condition files/Stage0c_2.xlsx,0c,phi,alpha,h,"['h', 'g']","['Chess', 'Go']","[-0.15, 0.5]","[0.15, 0.5]",1,1,0,15,15,15,0,1,1,1,,,,,,,,,,,,,,,,,,,,,,,,,,,,,,,,,,,,,,,,,,,,,,,,,,,,,,,,,,,,,,,326.9133429600006,None,326.9133429600006,None,326.9133429600006,None,h,1,1.2305666859992925,328.446263885,None,328.446263885,None,328.446263885,None,329.73026971000036,None,329.73026971000036,None,329.73026971000036,None,329.73026971000036,None,,,,,,,,,,,,,,,,,,,,,,,,,,,,,,,,,,,,,,,,,,,,001,87,2020_Feb_06_1229,spring_faces,3.1.5,60.004634157731566,
condition files/Stage0c_2.xlsx,0c,beta,phi,g,"['h', 'g']","['Chess', 'Go']","[-0.15, 0.5]","[0.15, 0.5]",1,1,0,15,15,15,0,2,2,3,,,,,,,,,,,,,,,,,,,,,,,,,,,,,,,,,,,,,,,,,,,,,,,,,,,,,,,,,,,,,,,331.696053650001,None,331.696053650001,None,331.696053650001,None,g,1,0.8952403739986039,333.2295888300014,None,333.2295888300014,None,333.2295888300014,None,334.1802160870011,None,334.1802160870011,None,334.1802160870011,None,334.1802160870011,None,,,,,,,,,,,,,,,,,,,,,,,,,,,,,,,,,,,,,,,,,,,,001,87,2020_Feb_06_1229,spring_faces,3.1.5,60.004634157731566,
condition files/Stage0c_2.xlsx,0c,alpha,theta,h,"['h', 'g']","['Chess', 'Go']","[-0.15, 0.5]","[0.15, 0.5]",1,1,0,15,15,15,0,3,3,0,,,,,,,,,,,,,,,,,,,,,,,,,,,,,,,,,,,,,,,,,,,,,,,,,,,,,,,,,,,,,,,336.16354232600133,None,336.16354232600133,None,336.16354232600133,None,h,1,1.4364379979997466,337.68040409700006,None,337.68040409700006,None,337.68040409700006,None,339.18006652199983,None,339.18006652199983,None,339.18006652199983,None,339.18006652199983,None,,,,,,,,,,,,,,,,,,,,,,,,,,,,,,,,,,,,,,,,,,,,001,87,2020_Feb_06_1229,spring_faces,3.1.5,60.004634157731566,
condition files/Stage0c_1.xlsx,0c,beta,theta,g,"['h', 'g']","['Chess', 'Go']","[-0.15, 0.5]","[0.15, 0.5]",1,1,0,16,16,16,0,0,0,2,,,,,,,,,,,,,,,,,,,,,,,,,,,,,,,,,,,,,,,,,,,,,,,,,,,,,,,,,,,,,,,341.1634357519997,None,341.1634357519997,None,341.1634357519997,None,g,1,0.9324091300004511,342.696442628001,None,342.696442628001,None,342.696442628001,None,343.67984493900076,None,343.67984493900076,None,343.67984493900076,None,343.67984493900076,None,,,,,,,,,,,,,,,,,,,,,,,,,,,,,,,,,,,,,,,,,,,,001,87,2020_Feb_06_1229,spring_faces,3.1.5,60.004634157731566,
condition files/Stage0c_1.xlsx,0c,theta,alpha,h,"['h', 'g']","['Chess', 'Go']","[-0.15, 0.5]","[0.15, 0.5]",1,1,0,16,16,16,0,1,1,0,,,,,,,,,,,,,,,,,,,,,,,,,,,,,,,,,,,,,,,,,,,,,,,,,,,,,,,,,,,,,,,345.64646053700017,None,345.64646053700017,None,345.64646053700017,None,h,1,0.7048008159999881,347.1800483770003,None,347.1800483770003,None,347.1800483770003,None,347.94621352800095,None,347.94621352800095,None,347.94621352800095,None,347.94621352800095,None,,,,,,,,,,,,,,,,,,,,,,,,,,,,,,,,,,,,,,,,,,,,001,87,2020_Feb_06_1229,spring_faces,3.1.5,60.004634157731566,
condition files/Stage0c_1.xlsx,0c,alpha,phi,h,"['h', 'g']","['Chess', 'Go']","[-0.15, 0.5]","[0.15, 0.5]",1,1,0,16,16,16,0,2,2,1,,,,,,,,,,,,,,,,,,,,,,,,,,,,,,,,,,,,,,,,,,,,,,,,,,,,,,,,,,,,,,,349.9127296830011,None,349.9127296830011,None,349.9127296830011,None,h,1,0.8059309830005077,351.4469177970004,None,351.4469177970004,None,351.4469177970004,None,352.2982348839996,None,352.2982348839996,None,352.2982348839996,None,352.2982348839996,None,,,,,,,,,,,,,,,,,,,,,,,,,,,,,,,,,,,,,,,,,,,,001,87,2020_Feb_06_1229,spring_faces,3.1.5,60.004634157731566,
condition files/Stage0c_1.xlsx,0c,phi,beta,g,"['h', 'g']","['Chess', 'Go']","[-0.15, 0.5]","[0.15, 0.5]",1,1,0,16,16,16,0,3,3,3,,,,,,,,,,,,,,,,,,,,,,,,,,,,,,,,,,,,,,,,,,,,,,,,,,,,,,,,,,,,,,,354.27993991699987,None,354.27993991699987,None,354.27993991699987,None,g,1,1.0315517700000782,355.81328698000107,None,355.81328698000107,None,355.81328698000107,None,356.89642824099974,None,356.89642824099974,None,356.89642824099974,None,356.89642824099974,None,,,,,,,,,,,,,,,,,,,,,,,,,,,,,,,,,,,,,,,,,,,,001,87,2020_Feb_06_1229,spring_faces,3.1.5,60.004634157731566,
condition files/Stage0c_2.xlsx,0c,beta,phi,g,"['h', 'g']","['Chess', 'Go']","[-0.15, 0.5]","[0.15, 0.5]",1,1,0,17,17,17,0,0,0,3,,,,,,,,,,,,,,,,,,,,,,,,,,,,,,,,,,,,,,,,,,,,,,,,,,,,,,,,,,,,,,,358.88035978300104,None,358.88035978300104,None,358.88035978300104,None,g,1,0.6554869520005013,360.4133802739998,None,360.4133802739998,None,360.4133802739998,None,361.11343867600044,None,361.11343867600044,None,361.11343867600044,None,361.11343867600044,None,,,,,,,,,,,,,,,,,,,,,,,,,,,,,,,,,,,,,,,,,,,,001,87,2020_Feb_06_1229,spring_faces,3.1.5,60.004634157731566,
condition files/Stage0c_2.xlsx,0c,theta,beta,g,"['h', 'g']","['Chess', 'Go']","[-0.15, 0.5]","[0.15, 0.5]",1,1,0,17,17,17,0,1,1,2,,,,,,,,,,,,,,,,,,,,,,,,,,,,,,,,,,,,,,,,,,,,,,,,,,,,,,,,,,,,,,,363.0966396210006,None,363.0966396210006,None,363.0966396210006,None,g,1,1.2227316049993533,364.63011345500126,None,364.63011345500126,None,364.63011345500126,None,365.897828946001,None,365.897828946001,None,365.897828946001,None,365.897828946001,None,,,,,,,,,,,,,,,,,,,,,,,,,,,,,,,,,,,,,,,,,,,,001,87,2020_Feb_06_1229,spring_faces,3.1.5,60.004634157731566,
condition files/Stage0c_2.xlsx,0c,phi,alpha,h,"['h', 'g']","['Chess', 'Go']","[-0.15, 0.5]","[0.15, 0.5]",1,1,0,17,17,17,0,2,2,1,,,,,,,,,,,,,,,,,,,,,,,,,,,,,,,,,,,,,,,,,,,,,,,,,,,,,,,,,,,,,,,367.87955652300116,None,367.87955652300116,None,367.87955652300116,None,h,1,0.9037406259994896,369.41310273900126,None,369.41310273900126,None,369.41310273900126,None,370.3794328849999,None,370.3794328849999,None,370.3794328849999,None,370.3794328849999,None,,,,,,,,,,,,,,,,,,,,,,,,,,,,,,,,,,,,,,,,,,,,001,87,2020_Feb_06_1229,spring_faces,3.1.5,60.004634157731566,
condition files/Stage0c_2.xlsx,0c,alpha,theta,h,"['h', 'g']","['Chess', 'Go']","[-0.15, 0.5]","[0.15, 0.5]",1,1,0,17,17,17,0,3,3,0,,,,,,,,,,,,,,,,,,,,,,,,,,,,,,,,,,,,,,,,,,,,,,,,,,,,,,,,,,,,,,,372.3460547049999,None,372.3460547049999,None,372.3460547049999,None,h,1,1.12479422800061,373.880108673,None,373.880108673,None,373.880108673,None,375.06374050500017,None,375.06374050500017,None,375.06374050500017,None,375.06374050500017,None,,,,,,,,,,,,,,,,,,,,,,,,,,,,,,,,,,,,,,,,,,,,001,87,2020_Feb_06_1229,spring_faces,3.1.5,60.004634157731566,
,,,,,,,,,,,,,,,,,,,,,,,,,,,,,,,,,,,,,,,,,,,,,,,,,,,,,,,,,,,,,,,,,,,,,,,,,,,,,,,,,,,,,,,,,,,,,,,,,,,,,,,,377.0460174809996,None,space,0.2703049230003671,382.04658192200077,None,,,,,,,,,,,,,,,,,,,,,,,,,,,,,,,,,,,,,,001,87,2020_Feb_06_1229,spring_faces,3.1.5,60.004634157731566,
condition files/Stage1_1.xlsx,,B2,T1,m,"['c', 'm']","['Clue', 'Monopoly']","[-0.15, 0.5]","[0.15, 0.5]",1,1,,,,,,,,,0,0,0,0,0,0,0,2,,,,,,,,,,,,,,,,,,,,,,,,,,,,,,,,,,,,,,,,,,,,,,,,,,,,,,,382.4468191240012,None,382.4468191240012,None,382.4468191240012,None,c,0,2.513458219000313,383.96339196900044,None,383.96339196900044,None,383.96339196900044,None,386.54621667799984,None,386.54621667799984,None,386.54621667799984,None,386.54621667799984,None,,,,,,,382.04658192200077,None,,,,,,,,,,,,,,,,,,,,,,,,,,,,,,,,,,,,001,87,2020_Feb_06_1229,spring_faces,3.1.5,60.004634157731566,
condition files/Stage1_1.xlsx,,T4,B3,m,"['c', 'm']","['Clue', 'Monopoly']","[-0.15, 0.5]","[0.15, 0.5]",1,1,,,,,,,,,0,0,0,0,0,1,1,6,,,,,,,,,,,,,,,,,,,,,,,,,,,,,,,,,,,,,,,,,,,,,,,,,,,,,,,388.4968168560008,None,388.4968168560008,None,388.4968168560008,None,c,0,0.8933471989985264,390.06355344700023,None,390.06355344700023,None,390.06355344700023,None,391.01330320099987,None,391.01330320099987,None,391.01330320099987,None,391.01330320099987,None,,,,,,,,,,,,,,,,,,,,,,,,,,,,,,,,,,,,,,,,,,,,001,87,2020_Feb_06_1229,spring_faces,3.1.5,60.004634157731566,
condition files/Stage1_1.xlsx,,B1,T2,c,"['c', 'm']","['Clue', 'Monopoly']","[-0.15, 0.5]","[0.15, 0.5]",1,1,,,,,,,,,0,0,0,0,0,2,2,1,,,,,,,,,,,,,,,,,,,,,,,,,,,,,,,,,,,,,,,,,,,,,,,,,,,,,,,392.97974393700133,None,392.97974393700133,None,392.97974393700133,None,c,1,1.1138586520009994,394.5629886250008,None,394.5629886250008,None,394.5629886250008,None,395.7300658460008,None,395.7300658460008,None,395.7300658460008,None,395.7300658460008,None,,,,,,,,,,,,,,,,,,,,,,,,,,,,,,,,,,,,,,,,,,,,001,87,2020_Feb_06_1229,spring_faces,3.1.5,60.004634157731566,
condition files/Stage1_1.xlsx,,B4,T4,m,"['c', 'm']","['Clue', 'Monopoly']","[-0.15, 0.5]","[0.15, 0.5]",1,1,,,,,,,,,0,0,0,0,0,3,3,7,,,,,,,,,,,,,,,,,,,,,,,,,,,,,,,,,,,,,,,,,,,,,,,,,,,,,,,397.69663252099963,None,397.69663252099963,None,397.69663252099963,None,m,1,1.6451180160001968,399.27970901200024,None,399.27970901200024,None,399.27970901200024,None,400.9963582820001,None,400.9963582820001,None,400.9963582820001,None,400.9963582820001,None,,,,,,,,,,,,,,,,,,,,,,,,,,,,,,,,,,,,,,,,,,,,001,87,2020_Feb_06_1229,spring_faces,3.1.5,60.004634157731566,
condition files/Stage1_1.xlsx,,T2,B2,m,"['c', 'm']","['Clue', 'Monopoly']","[-0.15, 0.5]","[0.15, 0.5]",1,1,,,,,,,,,0,0,0,0,0,4,4,3,,,,,,,,,,,,,,,,,,,,,,,,,,,,,,,,,,,,,,,,,,,,,,,,,,,,,,,402.9468394980013,None,402.9468394980013,None,402.9468394980013,None,m,1,1.371710620000158,404.48119977700117,None,404.48119977700117,None,404.48119977700117,None,405.91337621800085,None,405.91337621800085,None,405.91337621800085,None,405.91337621800085,None,,,,,,,,,,,,,,,,,,,,,,,,,,,,,,,,,,,,,,,,,,,,001,87,2020_Feb_06_1229,spring_faces,3.1.5,60.004634157731566,
condition files/Stage1_1.xlsx,,B3,T3,c,"['c', 'm']","['Clue', 'Monopoly']","[-0.15, 0.5]","[0.15, 0.5]",1,1,,,,,,,,,0,0,0,0,0,5,5,4,,,,,,,,,,,,,,,,,,,,,,,,,,,,,,,,,,,,,,,,,,,,,,,,,,,,,,,407.8799770400001,None,407.8799770400001,None,407.8799770400001,None,c,1,1.3498578170001565,409.4629825009997,None,409.4629825009997,None,409.4629825009997,None,410.88000938200094,None,410.88000938200094,None,410.88000938200094,None,410.88000938200094,None,,,,,,,,,,,,,,,,,,,,,,,,,,,,,,,,,,,,,,,,,,,,001,87,2020_Feb_06_1229,spring_faces,3.1.5,60.004634157731566,
condition files/Stage1_1.xlsx,,T1,B1,c,"['c', 'm']","['Clue', 'Monopoly']","[-0.15, 0.5]","[0.15, 0.5]",1,1,,,,,,,,,0,0,0,0,0,6,6,0,,,,,,,,,,,,,,,,,,,,,,,,,,,,,,,,,,,,,,,,,,,,,,,,,,,,,,,412.82951164600127,None,412.82951164600127,None,412.82951164600127,None,m,0,1.2646902359992964,414.3801481299997,None,414.3801481299997,None,414.3801481299997,None,415.69704088599974,None,415.69704088599974,None,415.69704088599974,None,415.69704088599974,None,,,,,,,,,,,,,,,,,,,,,,,,,,,,,,,,,,,,,,,,,,,,001,87,2020_Feb_06_1229,spring_faces,3.1.5,60.004634157731566,
condition files/Stage1_1.xlsx,,T3,B4,c,"['c', 'm']","['Clue', 'Monopoly']","[-0.15, 0.5]","[0.15, 0.5]",1,1,,,,,,,,,0,0,0,0,0,7,7,5,,,,,,,,,,,,,,,,,,,,,,,,,,,,,,,,,,,,,,,,,,,,,,,,,,,,,,,417.6631538420006,None,417.6631538420006,None,417.6631538420006,None,m,0,2.541722789001142,419.19910660500136,None,419.19910660500136,None,419.19910660500136,None,421.796361142,None,421.796361142,None,421.796361142,None,421.796361142,None,,,,,,,,,,,,,,,,,,,,,,,,,,,,,,,,,,,,,,,,,,,,001,87,2020_Feb_06_1229,spring_faces,3.1.5,60.004634157731566,
condition files/Stage1_2.xlsx,,T1,B2,m,"['c', 'm']","['Clue', 'Monopoly']","[-0.15, 0.5]","[0.15, 0.5]",1,1,,,,,,,,,0,1,1,1,0,0,0,2,,,,,,,,,,,,,,,,,,,,,,,,,,,,,,,,,,,,,,,,,,,,,,,,,,,,,,,423.82994586800123,None,423.82994586800123,None,423.82994586800123,None,c,0,1.562600207998912,425.3302490799997,None,425.3302490799997,None,425.3302490799997,None,426.96354617200086,None,426.96354617200086,None,426.96354617200086,None,426.96354617200086,None,,,,,,,,,,,,,,,,,,,,,,,,,,,,,,,,,,,,,,,,,,,,001,87,2020_Feb_06_1229,spring_faces,3.1.5,60.004634157731566,
condition files/Stage1_2.xlsx,,T2,B1,c,"['c', 'm']","['Clue', 'Monopoly']","[-0.15, 0.5]","[0.15, 0.5]",1,1,,,,,,,,,0,1,1,1,0,1,1,1,,,,,,,,,,,,,,,,,,,,,,,,,,,,,,,,,,,,,,,,,,,,,,,,,,,,,,,428.9130852369999,None,428.9130852369999,None,428.9130852369999,None,m,0,2.7016181409999263,430.46327098300026,None,430.46327098300026,None,430.46327098300026,None,433.23132087500016,None,433.23132087500016,None,433.23132087500016,None,433.23132087500016,None,,,,,,,,,,,,,,,,,,,,,,,,,,,,,,,,,,,,,,,,,,,,001,87,2020_Feb_06_1229,spring_faces,3.1.5,60.004634157731566,
condition files/Stage1_2.xlsx,,B2,T2,m,"['c', 'm']","['Clue', 'Monopoly']","[-0.15, 0.5]","[0.15, 0.5]",1,1,,,,,,,,,0,1,1,1,0,2,2,3,,,,,,,,,,,,,,,,,,,,,,,,,,,,,,,,,,,,,,,,,,,,,,,,,,,,,,,435.196045304001,None,435.196045304001,None,435.196045304001,None,m,1,0.3703982549995999,436.73047167799996,None,436.73047167799996,None,436.73047167799996,None,437.1641608230002,None,437.1641608230002,None,437.1641608230002,None,437.1641608230002,None,,,,,,,,,,,,,,,,,,,,,,,,,,,,,,,,,,,,,,,,,,,,001,87,2020_Feb_06_1229,spring_faces,3.1.5,60.004634157731566,
condition files/Stage1_2.xlsx,,B4,T3,c,"['c', 'm']","['Clue', 'Monopoly']","[-0.15, 0.5]","[0.15, 0.5]",1,1,,,,,,,,,0,1,1,1,0,3,3,5,,,,,,,,,,,,,,,,,,,,,,,,,,,,,,,,,,,,,,,,,,,,,,,,,,,,,,,439.1298350320012,None,439.1298350320012,None,439.1298350320012,None,c,1,1.5412719439991633,440.6636468280012,None,440.6636468280012,None,440.6636468280012,None,442.2635068130003,None,442.2635068130003,None,442.2635068130003,None,442.2635068130003,None,,,,,,,,,,,,,,,,,,,,,,,,,,,,,,,,,,,,,,,,,,,,001,87,2020_Feb_06_1229,spring_faces,3.1.5,60.004634157731566,
condition files/Stage1_2.xlsx,,B1,T1,c,"['c', 'm']","['Clue', 'Monopoly']","[-0.15, 0.5]","[0.15, 0.5]",1,1,,,,,,,,,0,1,1,1,0,4,4,0,,,,,,,,,,,,,,,,,,,,,,,,,,,,,,,,,,,,,,,,,,,,,,,,,,,,,,,444.22955112100135,None,444.22955112100135,None,444.22955112100135,None,m,0,1.9122239910011558,445.7646181990003,None,445.7646181990003,None,445.7646181990003,None,447.7299302290012,None,447.7299302290012,None,447.7299302290012,None,447.7299302290012,None,,,,,,,,,,,,,,,,,,,,,,,,,,,,,,,,,,,,,,,,,,,,001,87,2020_Feb_06_1229,spring_faces,3.1.5,60.004634157731566,
condition files/Stage1_2.xlsx,,T4,B4,m,"['c', 'm']","['Clue', 'Monopoly']","[-0.15, 0.5]","[0.15, 0.5]",1,1,,,,,,,,,0,1,1,1,0,5,5,7,,,,,,,,,,,,,,,,,,,,,,,,,,,,,,,,,,,,,,,,,,,,,,,,,,,,,,,449.6966545590003,None,449.6966545590003,None,449.6966545590003,None,m,1,1.0393226629985293,451.22958994700093,None,451.22958994700093,None,451.22958994700093,None,452.34691632199974,None,452.34691632199974,None,452.34691632199974,None,452.34691632199974,None,,,,,,,,,,,,,,,,,,,,,,,,,,,,,,,,,,,,,,,,,,,,001,87,2020_Feb_06_1229,spring_faces,3.1.5,60.004634157731566,
condition files/Stage1_2.xlsx,,B3,T4,m,"['c', 'm']","['Clue', 'Monopoly']","[-0.15, 0.5]","[0.15, 0.5]",1,1,,,,,,,,,0,1,1,1,0,6,6,6,,,,,,,,,,,,,,,,,,,,,,,,,,,,,,,,,,,,,,,,,,,,,,,,,,,,,,,454.29649523900116,None,454.29649523900116,None,454.29649523900116,None,m,1,1.142225679999683,455.8466669980007,None,455.8466669980007,None,455.8466669980007,None,457.04628568000044,None,457.04628568000044,None,457.04628568000044,None,457.04628568000044,None,,,,,,,,,,,,,,,,,,,,,,,,,,,,,,,,,,,,,,,,,,,,001,87,2020_Feb_06_1229,spring_faces,3.1.5,60.004634157731566,
condition files/Stage1_2.xlsx,,T3,B3,c,"['c', 'm']","['Clue', 'Monopoly']","[-0.15, 0.5]","[0.15, 0.5]",1,1,,,,,,,,,0,1,1,1,0,7,7,4,,,,,,,,,,,,,,,,,,,,,,,,,,,,,,,,,,,,,,,,,,,,,,,,,,,,,,,459.01260218100106,None,459.01260218100106,None,459.01260218100106,None,c,1,1.2906262849992345,460.54630939300114,None,460.54630939300114,None,460.54630939300114,None,461.89679915800116,None,461.89679915800116,None,461.89679915800116,None,461.89679915800116,None,,,,,,,,,,,,,,,,,,,,,,,,,,,,,,,,,,,,,,,,,,,,001,87,2020_Feb_06_1229,spring_faces,3.1.5,60.004634157731566,
condition files/Stage1_1.xlsx,,T2,B2,m,"['c', 'm']","['Clue', 'Monopoly']","[-0.15, 0.5]","[0.15, 0.5]",1,1,,,,,,,,,0,2,2,2,0,0,0,3,,,,,,,,,,,,,,,,,,,,,,,,,,,,,,,,,,,,,,,,,,,,,,,,,,,,,,,463.87985637600104,None,463.87985637600104,None,463.87985637600104,None,m,1,1.5579351540000062,465.4148788120001,None,465.4148788120001,None,465.4148788120001,None,467.03261943800135,None,467.03261943800135,None,467.03261943800135,None,467.03261943800135,None,,,,,,,,,,,,,,,,,,,,,,,,,,,,,,,,,,,,,,,,,,,,001,87,2020_Feb_06_1229,spring_faces,3.1.5,60.004634157731566,
condition files/Stage1_1.xlsx,,B3,T3,c,"['c', 'm']","['Clue', 'Monopoly']","[-0.15, 0.5]","[0.15, 0.5]",1,1,,,,,,,,,0,2,2,2,0,1,1,4,,,,,,,,,,,,,,,,,,,,,,,,,,,,,,,,,,,,,,,,,,,,,,,,,,,,,,,468.9964419750013,None,468.9964419750013,None,468.9964419750013,None,c,1,2.169750352999472,470.5311127770001,None,470.5311127770001,None,470.5311127770001,None,472.7637529950007,None,472.7637529950007,None,472.7637529950007,None,472.7637529950007,None,,,,,,,,,,,,,,,,,,,,,,,,,,,,,,,,,,,,,,,,,,,,001,87,2020_Feb_06_1229,spring_faces,3.1.5,60.004634157731566,
condition files/Stage1_1.xlsx,,T3,B4,c,"['c', 'm']","['Clue', 'Monopoly']","[-0.15, 0.5]","[0.15, 0.5]",1,1,,,,,,,,,0,2,2,2,0,2,2,5,,,,,,,,,,,,,,,,,,,,,,,,,,,,,,,,,,,,,,,,,,,,,,,,,,,,,,,474.72974681900087,None,474.72974681900087,None,474.72974681900087,None,m,0,1.3645044589993631,476.28033285400124,None,476.28033285400124,None,476.28033285400124,None,477.6969217040005,None,477.6969217040005,None,477.6969217040005,None,477.6969217040005,None,,,,,,,,,,,,,,,,,,,,,,,,,,,,,,,,,,,,,,,,,,,,001,87,2020_Feb_06_1229,spring_faces,3.1.5,60.004634157731566,
condition files/Stage1_1.xlsx,,T4,B3,m,"['c', 'm']","['Clue', 'Monopoly']","[-0.15, 0.5]","[0.15, 0.5]",1,1,,,,,,,,,0,2,2,2,0,3,3,6,,,,,,,,,,,,,,,,,,,,,,,,,,,,,,,,,,,,,,,,,,,,,,,,,,,,,,,479.6629221830008,None,479.6629221830008,None,479.6629221830008,None,m,1,1.0543947630012553,481.19852310700117,None,481.19852310700117,None,481.19852310700117,None,482.3301930540001,None,482.3301930540001,None,482.3301930540001,None,482.3301930540001,None,,,,,,,,,,,,,,,,,,,,,,,,,,,,,,,,,,,,,,,,,,,,001,87,2020_Feb_06_1229,spring_faces,3.1.5,60.004634157731566,
condition files/Stage1_1.xlsx,,B1,T2,c,"['c', 'm']","['Clue', 'Monopoly']","[-0.15, 0.5]","[0.15, 0.5]",1,1,,,,,,,,,0,2,2,2,0,4,4,1,,,,,,,,,,,,,,,,,,,,,,,,,,,,,,,,,,,,,,,,,,,,,,,,,,,,,,,484.27995656799976,None,484.27995656799976,None,484.27995656799976,None,c,1,1.8630477290007548,485.8298049260011,None,485.8298049260011,None,485.8298049260011,None,487.76309205399957,None,487.76309205399957,None,487.76309205399957,None,487.76309205399957,None,,,,,,,,,,,,,,,,,,,,,,,,,,,,,,,,,,,,,,,,,,,,001,87,2020_Feb_06_1229,spring_faces,3.1.5,60.004634157731566,
condition files/Stage1_1.xlsx,,B4,T4,m,"['c', 'm']","['Clue', 'Monopoly']","[-0.15, 0.5]","[0.15, 0.5]",1,1,,,,,,,,,0,2,2,2,0,5,5,7,,,,,,,,,,,,,,,,,,,,,,,,,,,,,,,,,,,,,,,,,,,,,,,,,,,,,,,489.7135972320011,None,489.7135972320011,None,489.7135972320011,None,m,1,1.5500664430001052,491.2627776160007,None,491.2627776160007,None,491.2627776160007,None,492.865613811,None,492.865613811,None,492.865613811,None,492.865613811,None,,,,,,,,,,,,,,,,,,,,,,,,,,,,,,,,,,,,,,,,,,,,001,87,2020_Feb_06_1229,spring_faces,3.1.5,60.004634157731566,
condition files/Stage1_1.xlsx,,B2,T1,m,"['c', 'm']","['Clue', 'Monopoly']","[-0.15, 0.5]","[0.15, 0.5]",1,1,,,,,,,,,0,2,2,2,0,6,6,2,,,,,,,,,,,,,,,,,,,,,,,,,,,,,,,,,,,,,,,,,,,,,,,,,,,,,,,494.82981776700035,None,494.82981776700035,None,494.82981776700035,None,m,1,1.680750547999196,496.38008536800044,None,496.38008536800044,None,496.38008536800044,None,498.1133995710006,None,498.1133995710006,None,498.1133995710006,None,498.1133995710006,None,,,,,,,,,,,,,,,,,,,,,,,,,,,,,,,,,,,,,,,,,,,,001,87,2020_Feb_06_1229,spring_faces,3.1.5,60.004634157731566,
condition files/Stage1_1.xlsx,,T1,B1,c,"['c', 'm']","['Clue', 'Monopoly']","[-0.15, 0.5]","[0.15, 0.5]",1,1,,,,,,,,,0,2,2,2,0,7,7,0,,,,,,,,,,,,,,,,,,,,,,,,,,,,,,,,,,,,,,,,,,,,,,,,,,,,,,,500.07925098300075,None,500.07925098300075,None,500.07925098300075,None,c,1,1.13463271999899,501.6301578090006,None,501.6301578090006,None,501.6301578090006,None,502.83156896699984,None,502.83156896699984,None,502.83156896699984,None,502.83156896699984,None,,,,,,,,,,,,,,,,,,,,,,,,,,,,,,,,,,,,,,,,,,,,001,87,2020_Feb_06_1229,spring_faces,3.1.5,60.004634157731566,
condition files/Stage1_2.xlsx,,T2,B1,c,"['c', 'm']","['Clue', 'Monopoly']","[-0.15, 0.5]","[0.15, 0.5]",1,1,,,,,,,,,0,3,3,3,0,0,0,1,,,,,,,,,,,,,,,,,,,,,,,,,,,,,,,,,,,,,,,,,,,,,,,,,,,,,,,504.813692062,None,504.813692062,None,504.813692062,None,c,1,2.256661850000455,506.3482745140009,None,506.3482745140009,None,506.3482745140009,None,508.66299213800085,None,508.66299213800085,None,508.66299213800085,None,508.66299213800085,None,,,,,,,,,,,,,,,,,,,,,,,,,,,,,,,,,,,,,,,,,,,,001,87,2020_Feb_06_1229,spring_faces,3.1.5,60.004634157731566,
condition files/Stage1_2.xlsx,,B1,T1,c,"['c', 'm']","['Clue', 'Monopoly']","[-0.15, 0.5]","[0.15, 0.5]",1,1,,,,,,,,,0,3,3,3,0,1,1,0,,,,,,,,,,,,,,,,,,,,,,,,,,,,,,,,,,,,,,,,,,,,,,,,,,,,,,,510.62923504600076,None,510.62923504600076,None,510.62923504600076,None,c,1,1.5605465179996827,512.1803031550007,None,512.1803031550007,None,512.1803031550007,None,513.7963401569996,None,513.7963401569996,None,513.7963401569996,None,513.7963401569996,None,,,,,,,,,,,,,,,,,,,,,,,,,,,,,,,,,,,,,,,,,,,,001,87,2020_Feb_06_1229,spring_faces,3.1.5,60.004634157731566,
condition files/Stage1_2.xlsx,,T1,B2,m,"['c', 'm']","['Clue', 'Monopoly']","[-0.15, 0.5]","[0.15, 0.5]",1,1,,,,,,,,,0,3,3,3,0,2,2,2,,,,,,,,,,,,,,,,,,,,,,,,,,,,,,,,,,,,,,,,,,,,,,,,,,,,,,,515.7633288739999,None,515.7633288739999,None,515.7633288739999,None,m,1,1.4033870509992994,517.3134596790005,None,517.3134596790005,None,517.3134596790005,None,518.7824903119999,None,518.7824903119999,None,518.7824903119999,None,518.7824903119999,None,,,,,,,,,,,,,,,,,,,,,,,,,,,,,,,,,,,,,,,,,,,,001,87,2020_Feb_06_1229,spring_faces,3.1.5,60.004634157731566,
condition files/Stage1_2.xlsx,,T4,B4,m,"['c', 'm']","['Clue', 'Monopoly']","[-0.15, 0.5]","[0.15, 0.5]",1,1,,,,,,,,,0,3,3,3,0,3,3,7,,,,,,,,,,,,,,,,,,,,,,,,,,,,,,,,,,,,,,,,,,,,,,,,,,,,,,,520.7464775130011,None,520.7464775130011,None,520.7464775130011,None,m,1,1.3007866109983297,522.280017594001,None,522.280017594001,None,522.280017594001,None,523.648508065,None,523.648508065,None,523.648508065,None,523.648508065,None,,,,,,,,,,,,,,,,,,,,,,,,,,,,,,,,,,,,,,,,,,,,001,87,2020_Feb_06_1229,spring_faces,3.1.5,60.004634157731566,
condition files/Stage1_2.xlsx,,B4,T3,c,"['c', 'm']","['Clue', 'Monopoly']","[-0.15, 0.5]","[0.15, 0.5]",1,1,,,,,,,,,0,3,3,3,0,4,4,5,,,,,,,,,,,,,,,,,,,,,,,,,,,,,,,,,,,,,,,,,,,,,,,,,,,,,,,525.6132352349996,None,525.6132352349996,None,525.6132352349996,None,c,1,1.0404326950010727,527.1484859810007,None,527.1484859810007,None,527.1484859810007,None,528.2477004430002,None,528.2477004430002,None,528.2477004430002,None,528.2477004430002,None,,,,,,,,,,,,,,,,,,,,,,,,,,,,,,,,,,,,,,,,,,,,001,87,2020_Feb_06_1229,spring_faces,3.1.5,60.004634157731566,
condition files/Stage1_2.xlsx,,B2,T2,m,"['c', 'm']","['Clue', 'Monopoly']","[-0.15, 0.5]","[0.15, 0.5]",1,1,,,,,,,,,0,3,3,3,0,5,5,3,,,,,,,,,,,,,,,,,,,,,,,,,,,,,,,,,,,,,,,,,,,,,,,,,,,,,,,530.2132370170002,None,530.2132370170002,None,530.2132370170002,None,m,1,2.0089113089998136,531.7480061540009,None,531.7480061540009,None,531.7480061540009,None,533.8294900260007,None,533.8294900260007,None,533.8294900260007,None,533.8294900260007,None,,,,,,,,,,,,,,,,,,,,,,,,,,,,,,,,,,,,,,,,,,,,001,87,2020_Feb_06_1229,spring_faces,3.1.5,60.004634157731566,
condition files/Stage1_2.xlsx,,T3,B3,c,"['c', 'm']","['Clue', 'Monopoly']","[-0.15, 0.5]","[0.15, 0.5]",1,1,,,,,,,,,0,3,3,3,0,6,6,4,,,,,,,,,,,,,,,,,,,,,,,,,,,,,,,,,,,,,,,,,,,,,,,,,,,,,,,535.7794242050004,None,535.7794242050004,None,535.7794242050004,None,c,1,1.11330405300032,537.3155592080002,None,537.3155592080002,None,537.3155592080002,None,538.479381086001,None,538.479381086001,None,538.479381086001,None,538.479381086001,None,,,,,,,,,,,,,,,,,,,,,,,,,,,,,,,,,,,,,,,,,,,,001,87,2020_Feb_06_1229,spring_faces,3.1.5,60.004634157731566,
condition files/Stage1_2.xlsx,,B3,T4,m,"['c', 'm']","['Clue', 'Monopoly']","[-0.15, 0.5]","[0.15, 0.5]",1,1,,,,,,,,,0,3,3,3,0,7,7,6,,,,,,,,,,,,,,,,,,,,,,,,,,,,,,,,,,,,,,,,,,,,,,,,,,,,,,,540.4465250810008,None,540.4465250810008,None,540.4465250810008,None,m,1,0.9601628260006692,541.9967246880005,None,541.9967246880005,None,541.9967246880005,None,543.029740037,None,543.029740037,None,543.029740037,None,543.029740037,None,,,,,,,,,,,,,,,,,,,,,,,,,,,,,,,,,,,,,,,,,,,,001,87,2020_Feb_06_1229,spring_faces,3.1.5,60.004634157731566,
condition files/Stage1_1.xlsx,,B2,T1,m,"['c', 'm']","['Clue', 'Monopoly']","[-0.15, 0.5]","[0.15, 0.5]",1,1,,,,,,,,,0,4,4,4,0,0,0,2,,,,,,,,,,,,,,,,,,,,,,,,,,,,,,,,,,,,,,,,,,,,,,,,,,,,,,,544.9966741879998,None,544.9966741879998,None,544.9966741879998,None,m,1,0.8904781759993057,546.5464436670009,None,546.5464436670009,None,546.5464436670009,None,547.4966080670001,None,547.4966080670001,None,547.4966080670001,None,547.4966080670001,None,,,,,,,,,,,,,,,,,,,,,,,,,,,,,,,,,,,,,,,,,,,,001,87,2020_Feb_06_1229,spring_faces,3.1.5,60.004634157731566,
condition files/Stage1_1.xlsx,,T1,B1,c,"['c', 'm']","['Clue', 'Monopoly']","[-0.15, 0.5]","[0.15, 0.5]",1,1,,,,,,,,,0,4,4,4,0,1,1,0,,,,,,,,,,,,,,,,,,,,,,,,,,,,,,,,,,,,,,,,,,,,,,,,,,,,,,,549.463149651001,None,549.463149651001,None,549.463149651001,None,c,1,0.6305247179989237,550.9983376359996,None,550.9983376359996,None,550.9983376359996,None,551.6967430690001,None,551.6967430690001,None,551.6967430690001,None,551.6967430690001,None,,,,,,,,,,,,,,,,,,,,,,,,,,,,,,,,,,,,,,,,,,,,001,87,2020_Feb_06_1229,spring_faces,3.1.5,60.004634157731566,
condition files/Stage1_1.xlsx,,B4,T4,m,"['c', 'm']","['Clue', 'Monopoly']","[-0.15, 0.5]","[0.15, 0.5]",1,1,,,,,,,,,0,4,4,4,0,2,2,7,,,,,,,,,,,,,,,,,,,,,,,,,,,,,,,,,,,,,,,,,,,,,,,,,,,,,,,553.6465190070012,None,553.6465190070012,None,553.6465190070012,None,m,1,0.7042011519988591,555.1966437170013,None,555.1966437170013,None,555.1966437170013,None,555.9794932220011,None,555.9794932220011,None,555.9794932220011,None,555.9794932220011,None,,,,,,,,,,,,,,,,,,,,,,,,,,,,,,,,,,,,,,,,,,,,001,87,2020_Feb_06_1229,spring_faces,3.1.5,60.004634157731566,
condition files/Stage1_1.xlsx,,T4,B3,m,"['c', 'm']","['Clue', 'Monopoly']","[-0.15, 0.5]","[0.15, 0.5]",1,1,,,,,,,,,0,4,4,4,0,3,3,6,,,,,,,,,,,,,,,,,,,,,,,,,,,,,,,,,,,,,,,,,,,,,,,,,,,,,,,557.9298107800005,None,557.9298107800005,None,557.9298107800005,None,m,1,1.3643613759995787,559.4644993670008,None,559.4644993670008,None,559.4644993670008,None,560.8798609060013,None,560.8798609060013,None,560.8798609060013,None,560.8798609060013,None,,,,,,,,,,,,,,,,,,,,,,,,,,,,,,,,,,,,,,,,,,,,001,87,2020_Feb_06_1229,spring_faces,3.1.5,60.004634157731566,
condition files/Stage1_1.xlsx,,B3,T3,c,"['c', 'm']","['Clue', 'Monopoly']","[-0.15, 0.5]","[0.15, 0.5]",1,1,,,,,,,,,0,4,4,4,0,4,4,4,,,,,,,,,,,,,,,,,,,,,,,,,,,,,,,,,,,,,,,,,,,,,,,,,,,,,,,562.846480917,None,562.846480917,None,562.846480917,None,c,1,0.7040705500003241,564.3967807940007,None,564.3967807940007,None,564.3967807940007,None,565.1652705360011,None,565.1652705360011,None,565.1652705360011,None,565.1652705360011,None,,,,,,,,,,,,,,,,,,,,,,,,,,,,,,,,,,,,,,,,,,,,001,87,2020_Feb_06_1229,spring_faces,3.1.5,60.004634157731566,
condition files/Stage1_1.xlsx,,B1,T2,c,"['c', 'm']","['Clue', 'Monopoly']","[-0.15, 0.5]","[0.15, 0.5]",1,1,,,,,,,,,0,4,4,4,0,5,5,1,,,,,,,,,,,,,,,,,,,,,,,,,,,,,,,,,,,,,,,,,,,,,,,,,,,,,,,567.1298122340013,None,567.1298122340013,None,567.1298122340013,None,c,1,0.9964559360014391,568.6803515789998,None,568.6803515789998,None,568.6803515789998,None,569.7299351350011,None,569.7299351350011,None,569.7299351350011,None,569.7299351350011,None,,,,,,,,,,,,,,,,,,,,,,,,,,,,,,,,,,,,,,,,,,,,001,87,2020_Feb_06_1229,spring_faces,3.1.5,60.004634157731566,
condition files/Stage1_1.xlsx,,T3,B4,c,"['c', 'm']","['Clue', 'Monopoly']","[-0.15, 0.5]","[0.15, 0.5]",1,1,,,,,,,,,0,4,4,4,0,6,6,5,,,,,,,,,,,,,,,,,,,,,,,,,,,,,,,,,,,,,,,,,,,,,,,,,,,,,,,571.6962960720011,None,571.6962960720011,None,571.6962960720011,None,c,1,0.6712095429993497,573.2296626380012,None,573.2296626380012,None,573.2296626380012,None,573.9636648020005,None,573.9636648020005,None,573.9636648020005,None,573.9636648020005,None,,,,,,,,,,,,,,,,,,,,,,,,,,,,,,,,,,,,,,,,,,,,001,87,2020_Feb_06_1229,spring_faces,3.1.5,60.004634157731566,
condition files/Stage1_1.xlsx,,T2,B2,m,"['c', 'm']","['Clue', 'Monopoly']","[-0.15, 0.5]","[0.15, 0.5]",1,1,,,,,,,,,0,4,4,4,0,7,7,3,,,,,,,,,,,,,,,,,,,,,,,,,,,,,,,,,,,,,,,,,,,,,,,,,,,,,,,575.9298239870004,None,575.9298239870004,None,575.9298239870004,None,m,1,1.3970448069994745,577.463798625,None,577.463798625,None,577.463798625,None,578.9157318050002,None,578.9157318050002,None,578.9157318050002,None,578.9157318050002,None,,,,,,,,,,,,,,,,,,,,,,,,,,,,,,,,,,,,,,,,,,,,001,87,2020_Feb_06_1229,spring_faces,3.1.5,60.004634157731566,
condition files/Stage1_2.xlsx,,B2,T2,m,"['c', 'm']","['Clue', 'Monopoly']","[-0.15, 0.5]","[0.15, 0.5]",1,1,,,,,,,,,0,5,5,5,0,0,0,3,,,,,,,,,,,,,,,,,,,,,,,,,,,,,,,,,,,,,,,,,,,,,,,,,,,,,,,580.8967640080009,None,580.8967640080009,None,580.8967640080009,None,c,0,1.103470116000608,582.4293997220011,None,582.4293997220011,None,582.4293997220011,None,583.5968099929996,None,583.5968099929996,None,583.5968099929996,None,583.5968099929996,None,,,,,,,,,,,,,,,,,,,,,,,,,,,,,,,,,,,,,,,,,,,,001,87,2020_Feb_06_1229,spring_faces,3.1.5,60.004634157731566,
condition files/Stage1_2.xlsx,,B1,T1,c,"['c', 'm']","['Clue', 'Monopoly']","[-0.15, 0.5]","[0.15, 0.5]",1,1,,,,,,,,,0,5,5,5,0,1,1,0,,,,,,,,,,,,,,,,,,,,,,,,,,,,,,,,,,,,,,,,,,,,,,,,,,,,,,,585.5628759530009,None,585.5628759530009,None,585.5628759530009,None,c,1,0.8510002269995312,587.0978611360006,None,587.0978611360006,None,587.0978611360006,None,588.0159800680012,None,588.0159800680012,None,588.0159800680012,None,588.0159800680012,None,,,,,,,,,,,,,,,,,,,,,,,,,,,,,,,,,,,,,,,,,,,,001,87,2020_Feb_06_1229,spring_faces,3.1.5,60.004634157731566,
condition files/Stage1_2.xlsx,,B3,T4,m,"['c', 'm']","['Clue', 'Monopoly']","[-0.15, 0.5]","[0.15, 0.5]",1,1,,,,,,,,,0,5,5,5,0,2,2,6,,,,,,,,,,,,,,,,,,,,,,,,,,,,,,,,,,,,,,,,,,,,,,,,,,,,,,,589.9792351760007,None,589.9792351760007,None,589.9792351760007,None,m,1,0.7548964559991873,591.5139663959999,None,591.5139663959999,None,591.5139663959999,None,592.3307250079997,None,592.3307250079997,None,592.3307250079997,None,592.3307250079997,None,,,,,,,,,,,,,,,,,,,,,,,,,,,,,,,,,,,,,,,,,,,,001,87,2020_Feb_06_1229,spring_faces,3.1.5,60.004634157731566,
condition files/Stage1_2.xlsx,,T4,B4,m,"['c', 'm']","['Clue', 'Monopoly']","[-0.15, 0.5]","[0.15, 0.5]",1,1,,,,,,,,,0,5,5,5,0,3,3,7,,,,,,,,,,,,,,,,,,,,,,,,,,,,,,,,,,,,,,,,,,,,,,,,,,,,,,,594.2965424100003,None,594.2965424100003,None,594.2965424100003,None,m,1,1.702019869000651,595.8468272250011,None,595.8468272250011,None,595.8468272250011,None,597.6135332360009,None,597.6135332360009,None,597.6135332360009,None,597.6135332360009,None,,,,,,,,,,,,,,,,,,,,,,,,,,,,,,,,,,,,,,,,,,,,001,87,2020_Feb_06_1229,spring_faces,3.1.5,60.004634157731566,
condition files/Stage1_2.xlsx,,T3,B3,c,"['c', 'm']","['Clue', 'Monopoly']","[-0.15, 0.5]","[0.15, 0.5]",1,1,,,,,,,,,0,5,5,5,0,4,4,4,,,,,,,,,,,,,,,,,,,,,,,,,,,,,,,,,,,,,,,,,,,,,,,,,,,,,,,599.5795657990002,None,599.5795657990002,None,599.5795657990002,None,c,1,0.8992832700005238,601.1135607380002,None,601.1135607380002,None,601.1135607380002,None,602.0644729610012,None,602.0644729610012,None,602.0644729610012,None,602.0644729610012,None,,,,,,,,,,,,,,,,,,,,,,,,,,,,,,,,,,,,,,,,,,,,001,87,2020_Feb_06_1229,spring_faces,3.1.5,60.004634157731566,
condition files/Stage1_2.xlsx,,T1,B2,m,"['c', 'm']","['Clue', 'Monopoly']","[-0.15, 0.5]","[0.15, 0.5]",1,1,,,,,,,,,0,5,5,5,0,5,5,2,,,,,,,,,,,,,,,,,,,,,,,,,,,,,,,,,,,,,,,,,,,,,,,,,,,,,,,604.0299452430008,None,604.0299452430008,None,604.0299452430008,None,m,1,2.8801175970002078,605.5647332970002,None,605.5647332970002,None,605.5647332970002,None,608.5134343070004,None,608.5134343070004,None,608.5134343070004,None,608.5134343070004,None,,,,,,,,,,,,,,,,,,,,,,,,,,,,,,,,,,,,,,,,,,,,001,87,2020_Feb_06_1229,spring_faces,3.1.5,60.004634157731566,
condition files/Stage1_2.xlsx,,T2,B1,c,"['c', 'm']","['Clue', 'Monopoly']","[-0.15, 0.5]","[0.15, 0.5]",1,1,,,,,,,,,0,5,5,5,0,6,6,1,,,,,,,,,,,,,,,,,,,,,,,,,,,,,,,,,,,,,,,,,,,,,,,,,,,,,,,610.4629560490011,None,610.4629560490011,None,610.4629560490011,None,c,1,0.7023521539995272,611.998528170001,None,611.998528170001,None,611.998528170001,None,612.7800579610011,None,612.7800579610011,None,612.7800579610011,None,612.7800579610011,None,,,,,,,,,,,,,,,,,,,,,,,,,,,,,,,,,,,,,,,,,,,,001,87,2020_Feb_06_1229,spring_faces,3.1.5,60.004634157731566,
condition files/Stage1_2.xlsx,,B4,T3,c,"['c', 'm']","['Clue', 'Monopoly']","[-0.15, 0.5]","[0.15, 0.5]",1,1,,,,,,,,,0,5,5,5,0,7,7,5,,,,,,,,,,,,,,,,,,,,,,,,,,,,,,,,,,,,,,,,,,,,,,,,,,,,,,,614.729625461001,None,614.729625461001,None,614.729625461001,None,c,1,0.7243982140007574,616.2805195130004,None,616.2805195130004,None,616.2805195130004,None,617.0636163510007,None,617.0636163510007,None,617.0636163510007,None,617.0636163510007,None,,,,,,,,,,,,,,,,,,,,,,,,,,,,,,,,,,,,,,,,,,,,001,87,2020_Feb_06_1229,spring_faces,3.1.5,60.004634157731566,
condition files/Stage1_1.xlsx,,B4,T4,m,"['c', 'm']","['Clue', 'Monopoly']","[-0.15, 0.5]","[0.15, 0.5]",1,1,,,,,,,,,0,6,6,6,0,0,0,7,,,,,,,,,,,,,,,,,,,,,,,,,,,,,,,,,,,,,,,,,,,,,,,,,,,,,,,619.0469618620009,None,619.0469618620009,None,619.0469618620009,None,m,1,0.5044839470010629,620.5963884020002,None,620.5963884020002,None,620.5963884020002,None,621.1800555709997,None,621.1800555709997,None,621.1800555709997,None,621.1800555709997,None,,,,,,,,,,,,,,,,,,,,,,,,,,,,,,,,,,,,,,,,,,,,001,87,2020_Feb_06_1229,spring_faces,3.1.5,60.004634157731566,
condition files/Stage1_1.xlsx,,B2,T1,m,"['c', 'm']","['Clue', 'Monopoly']","[-0.15, 0.5]","[0.15, 0.5]",1,1,,,,,,,,,0,6,6,6,0,1,1,2,,,,,,,,,,,,,,,,,,,,,,,,,,,,,,,,,,,,,,,,,,,,,,,,,,,,,,,623.1299490550009,None,623.1299490550009,None,623.1299490550009,None,c,0,0.8528958860006242,624.6799600110007,None,624.6799600110007,None,624.6799600110007,None,625.5965262050013,None,625.5965262050013,None,625.5965262050013,None,625.5965262050013,None,,,,,,,,,,,,,,,,,,,,,,,,,,,,,,,,,,,,,,,,,,,,001,87,2020_Feb_06_1229,spring_faces,3.1.5,60.004634157731566,
condition files/Stage1_1.xlsx,,T3,B4,c,"['c', 'm']","['Clue', 'Monopoly']","[-0.15, 0.5]","[0.15, 0.5]",1,1,,,,,,,,,0,6,6,6,0,2,2,5,,,,,,,,,,,,,,,,,,,,,,,,,,,,,,,,,,,,,,,,,,,,,,,,,,,,,,,627.5630958250003,None,627.5630958250003,None,627.5630958250003,None,c,1,0.7399790449999273,629.096952422,None,629.096952422,None,629.096952422,None,629.8984027309998,None,629.8984027309998,None,629.8984027309998,None,629.8984027309998,None,,,,,,,,,,,,,,,,,,,,,,,,,,,,,,,,,,,,,,,,,,,,001,87,2020_Feb_06_1229,spring_faces,3.1.5,60.004634157731566,
condition files/Stage1_1.xlsx,,T2,B2,m,"['c', 'm']","['Clue', 'Monopoly']","[-0.15, 0.5]","[0.15, 0.5]",1,1,,,,,,,,,0,6,6,6,0,3,3,3,,,,,,,,,,,,,,,,,,,,,,,,,,,,,,,,,,,,,,,,,,,,,,,,,,,,,,,631.8628585260012,None,631.8628585260012,None,631.8628585260012,None,m,1,2.055242100999749,633.4135963170011,None,633.4135963170011,None,633.4135963170011,None,635.530990411,None,635.530990411,None,635.530990411,None,635.530990411,None,,,,,,,,,,,,,,,,,,,,,,,,,,,,,,,,,,,,,,,,,,,,001,87,2020_Feb_06_1229,spring_faces,3.1.5,60.004634157731566,
condition files/Stage1_1.xlsx,,T4,B3,m,"['c', 'm']","['Clue', 'Monopoly']","[-0.15, 0.5]","[0.15, 0.5]",1,1,,,,,,,,,0,6,6,6,0,4,4,6,,,,,,,,,,,,,,,,,,,,,,,,,,,,,,,,,,,,,,,,,,,,,,,,,,,,,,,637.4968380040009,None,637.4968380040009,None,637.4968380040009,None,m,1,0.661963401000321,639.0468623510005,None,639.0468623510005,None,639.0468623510005,None,639.7629239620001,None,639.7629239620001,None,639.7629239620001,None,639.7629239620001,None,,,,,,,,,,,,,,,,,,,,,,,,,,,,,,,,,,,,,,,,,,,,001,87,2020_Feb_06_1229,spring_faces,3.1.5,60.004634157731566,
condition files/Stage1_1.xlsx,,T1,B1,c,"['c', 'm']","['Clue', 'Monopoly']","[-0.15, 0.5]","[0.15, 0.5]",1,1,,,,,,,,,0,6,6,6,0,5,5,0,,,,,,,,,,,,,,,,,,,,,,,,,,,,,,,,,,,,,,,,,,,,,,,,,,,,,,,641.729987398001,None,641.729987398001,None,641.729987398001,None,c,1,0.7008848590012349,643.2799115840007,None,643.2799115840007,None,643.2799115840007,None,644.0465448400009,None,644.0465448400009,None,644.0465448400009,None,644.0465448400009,None,,,,,,,,,,,,,,,,,,,,,,,,,,,,,,,,,,,,,,,,,,,,001,87,2020_Feb_06_1229,spring_faces,3.1.5,60.004634157731566,
condition files/Stage1_1.xlsx,,B3,T3,c,"['c', 'm']","['Clue', 'Monopoly']","[-0.15, 0.5]","[0.15, 0.5]",1,1,,,,,,,,,0,6,6,6,0,6,6,4,,,,,,,,,,,,,,,,,,,,,,,,,,,,,,,,,,,,,,,,,,,,,,,,,,,,,,,646.0128306099996,None,646.0128306099996,None,646.0128306099996,None,c,1,0.8652941000000283,647.5635411069998,None,647.5635411069998,None,647.5635411069998,None,648.4802316010009,None,648.4802316010009,None,648.4802316010009,None,648.4802316010009,None,,,,,,,,,,,,,,,,,,,,,,,,,,,,,,,,,,,,,,,,,,,,001,87,2020_Feb_06_1229,spring_faces,3.1.5,60.004634157731566,
condition files/Stage1_1.xlsx,,B1,T2,c,"['c', 'm']","['Clue', 'Monopoly']","[-0.15, 0.5]","[0.15, 0.5]",1,1,,,,,,,,,0,6,6,6,0,7,7,1,,,,,,,,,,,,,,,,,,,,,,,,,,,,,,,,,,,,,,,,,,,,,,,,,,,,,,,650.4462753450007,None,650.4462753450007,None,650.4462753450007,None,c,1,1.104768678000255,651.9801172349999,None,651.9801172349999,None,651.9801172349999,None,653.146528878,None,653.146528878,None,653.146528878,None,653.146528878,None,,,,,,,,,,,,,,,,,,,,,,,,,,,,,,,,,,,,,,,,,,,,001,87,2020_Feb_06_1229,spring_faces,3.1.5,60.004634157731566,
condition files/Stage1_2.xlsx,,B4,T3,c,"['c', 'm']","['Clue', 'Monopoly']","[-0.15, 0.5]","[0.15, 0.5]",1,1,,,,,,,,,0,7,7,7,0,0,0,5,,,,,,,,,,,,,,,,,,,,,,,,,,,,,,,,,,,,,,,,,,,,,,,,,,,,,,,655.1301631530005,None,655.1301631530005,None,655.1301631530005,None,c,1,1.1096514799992292,656.663158714,None,656.663158714,None,656.663158714,None,657.8301577050006,None,657.8301577050006,None,657.8301577050006,None,657.8301577050006,None,,,,,,,,,,,,,,,,,,,,,,,,,,,,,,,,,,,,,,,,,,,,001,87,2020_Feb_06_1229,spring_faces,3.1.5,60.004634157731566,
condition files/Stage1_2.xlsx,,B2,T2,m,"['c', 'm']","['Clue', 'Monopoly']","[-0.15, 0.5]","[0.15, 0.5]",1,1,,,,,,,,,0,7,7,7,0,1,1,3,,,,,,,,,,,,,,,,,,,,,,,,,,,,,,,,,,,,,,,,,,,,,,,,,,,,,,,659.7965944719999,None,659.7965944719999,None,659.7965944719999,None,m,1,1.8033456689990999,661.329530332001,None,661.329530332001,None,661.329530332001,None,663.213032007001,None,663.213032007001,None,663.213032007001,None,663.213032007001,None,,,,,,,,,,,,,,,,,,,,,,,,,,,,,,,,,,,,,,,,,,,,001,87,2020_Feb_06_1229,spring_faces,3.1.5,60.004634157731566,
condition files/Stage1_2.xlsx,,T2,B1,c,"['c', 'm']","['Clue', 'Monopoly']","[-0.15, 0.5]","[0.15, 0.5]",1,1,,,,,,,,,0,7,7,7,0,2,2,1,,,,,,,,,,,,,,,,,,,,,,,,,,,,,,,,,,,,,,,,,,,,,,,,,,,,,,,665.1633479749999,None,665.1633479749999,None,665.1633479749999,None,c,1,0.6434683070001483,666.7134388720006,None,666.7134388720006,None,666.7134388720006,None,667.4159379720004,None,667.4159379720004,None,667.4159379720004,None,667.4159379720004,None,,,,,,,,,,,,,,,,,,,,,,,,,,,,,,,,,,,,,,,,,,,,001,87,2020_Feb_06_1229,spring_faces,3.1.5,60.004634157731566,
condition files/Stage1_2.xlsx,,B1,T1,c,"['c', 'm']","['Clue', 'Monopoly']","[-0.15, 0.5]","[0.15, 0.5]",1,1,,,,,,,,,0,7,7,7,0,3,3,0,,,,,,,,,,,,,,,,,,,,,,,,,,,,,,,,,,,,,,,,,,,,,,,,,,,,,,,669.3794680179999,None,669.3794680179999,None,669.3794680179999,None,c,1,2.6983378490003815,670.9145237539997,None,670.9145237539997,None,670.9145237539997,None,673.6635651300003,None,673.6635651300003,None,673.6635651300003,None,673.6635651300003,None,,,,,,,,,,,,,,,,,,,,,,,,,,,,,,,,,,,,,,,,,,,,001,87,2020_Feb_06_1229,spring_faces,3.1.5,60.004634157731566,
condition files/Stage1_2.xlsx,,T1,B2,m,"['c', 'm']","['Clue', 'Monopoly']","[-0.15, 0.5]","[0.15, 0.5]",1,1,,,,,,,,,0,7,7,7,0,4,4,2,,,,,,,,,,,,,,,,,,,,,,,,,,,,,,,,,,,,,,,,,,,,,,,,,,,,,,,675.6295919180011,None,675.6295919180011,None,675.6295919180011,None,m,1,1.1203338899995288,677.1645475349997,None,677.1645475349997,None,677.1645475349997,None,678.3459671640012,None,678.3459671640012,None,678.3459671640012,None,678.3459671640012,None,,,,,,,,,,,,,,,,,,,,,,,,,,,,,,,,,,,,,,,,,,,,001,87,2020_Feb_06_1229,spring_faces,3.1.5,60.004634157731566,
condition files/Stage1_2.xlsx,,T4,B4,m,"['c', 'm']","['Clue', 'Monopoly']","[-0.15, 0.5]","[0.15, 0.5]",1,1,,,,,,,,,0,7,7,7,0,5,5,7,,,,,,,,,,,,,,,,,,,,,,,,,,,,,,,,,,,,,,,,,,,,,,,,,,,,,,,680.313151667,None,680.313151667,None,680.313151667,None,m,1,1.4942071290006425,681.8466224889999,None,681.8466224889999,None,681.8466224889999,None,683.3967372830011,None,683.3967372830011,None,683.3967372830011,None,683.3967372830011,None,,,,,,,,,,,,,,,,,,,,,,,,,,,,,,,,,,,,,,,,,,,,001,87,2020_Feb_06_1229,spring_faces,3.1.5,60.004634157731566,
condition files/Stage1_2.xlsx,,T3,B3,c,"['c', 'm']","['Clue', 'Monopoly']","[-0.15, 0.5]","[0.15, 0.5]",1,1,,,,,,,,,0,7,7,7,0,6,6,4,,,,,,,,,,,,,,,,,,,,,,,,,,,,,,,,,,,,,,,,,,,,,,,,,,,,,,,685.3632410680002,None,685.3632410680002,None,685.3632410680002,None,c,1,0.6034267089999048,686.9134311830003,None,686.9134311830003,None,686.9134311830003,None,687.5803094900002,None,687.5803094900002,None,687.5803094900002,None,687.5803094900002,None,,,,,,,,,,,,,,,,,,,,,,,,,,,,,,,,,,,,,,,,,,,,001,87,2020_Feb_06_1229,spring_faces,3.1.5,60.004634157731566,
condition files/Stage1_2.xlsx,,B3,T4,m,"['c', 'm']","['Clue', 'Monopoly']","[-0.15, 0.5]","[0.15, 0.5]",1,1,,,,,,,,,0,7,7,7,0,7,7,6,,,,,,,,,,,,,,,,,,,,,,,,,,,,,,,,,,,,,,,,,,,,,,,,,,,,,,,689.5465231569997,None,689.5465231569997,None,689.5465231569997,None,m,1,0.5472586180003418,691.0816065609997,None,691.0816065609997,None,691.0816065609997,None,691.6966920800005,None,691.6966920800005,None,691.6966920800005,None,691.6966920800005,None,,,,,,,,,,,,,,,,,,,,,,,,,,,,,,,,,,,,,,,,,,,,001,87,2020_Feb_06_1229,spring_faces,3.1.5,60.004634157731566,
condition files/Stage1_1.xlsx,,T3,B4,c,"['c', 'm']","['Clue', 'Monopoly']","[-0.15, 0.5]","[0.15, 0.5]",1,1,,,,,,,,,0,8,8,8,0,0,0,5,,,,,,,,,,,,,,,,,,,,,,,,,,,,,,,,,,,,,,,,,,,,,,,,,,,,,,,693.66291542,None,693.66291542,None,693.66291542,None,c,1,0.6548414129993034,695.198098582001,None,695.198098582001,None,695.198098582001,None,695.929981489,None,695.929981489,None,695.929981489,None,695.929981489,None,,,,,,,,,,,,,,,,,,,,,,,,,,,,,,,,,,,,,,,,,,,,001,87,2020_Feb_06_1229,spring_faces,3.1.5,60.004634157731566,
condition files/Stage1_1.xlsx,,T4,B3,m,"['c', 'm']","['Clue', 'Monopoly']","[-0.15, 0.5]","[0.15, 0.5]",1,1,,,,,,,,,0,8,8,8,0,1,1,6,,,,,,,,,,,,,,,,,,,,,,,,,,,,,,,,,,,,,,,,,,,,,,,,,,,,,,,697.879906092001,None,697.879906092001,None,697.879906092001,None,m,1,0.7097919829993771,699.4150592540009,None,699.4150592540009,None,699.4150592540009,None,700.1959438410013,None,700.1959438410013,None,700.1959438410013,None,700.1959438410013,None,,,,,,,,,,,,,,,,,,,,,,,,,,,,,,,,,,,,,,,,,,,,001,87,2020_Feb_06_1229,spring_faces,3.1.5,60.004634157731566,
condition files/Stage1_1.xlsx,,B4,T4,m,"['c', 'm']","['Clue', 'Monopoly']","[-0.15, 0.5]","[0.15, 0.5]",1,1,,,,,,,,,0,8,8,8,0,2,2,7,,,,,,,,,,,,,,,,,,,,,,,,,,,,,,,,,,,,,,,,,,,,,,,,,,,,,,,702.1467061120002,None,702.1467061120002,None,702.1467061120002,None,m,1,1.1315805530011858,703.6972662890003,None,703.6972662890003,None,703.6972662890003,None,704.8798241910008,None,704.8798241910008,None,704.8798241910008,None,704.8798241910008,None,,,,,,,,,,,,,,,,,,,,,,,,,,,,,,,,,,,,,,,,,,,,001,87,2020_Feb_06_1229,spring_faces,3.1.5,60.004634157731566,
condition files/Stage1_1.xlsx,,B2,T1,m,"['c', 'm']","['Clue', 'Monopoly']","[-0.15, 0.5]","[0.15, 0.5]",1,1,,,,,,,,,0,8,8,8,0,3,3,2,,,,,,,,,,,,,,,,,,,,,,,,,,,,,,,,,,,,,,,,,,,,,,,,,,,,,,,706.8463890929997,None,706.8463890929997,None,706.8463890929997,None,m,1,0.6559264110001095,708.3969792500011,None,708.3969792500011,None,708.3969792500011,None,709.1131443949998,None,709.1131443949998,None,709.1131443949998,None,709.1131443949998,None,,,,,,,,,,,,,,,,,,,,,,,,,,,,,,,,,,,,,,,,,,,,001,87,2020_Feb_06_1229,spring_faces,3.1.5,60.004634157731566,
condition files/Stage1_1.xlsx,,T1,B1,c,"['c', 'm']","['Clue', 'Monopoly']","[-0.15, 0.5]","[0.15, 0.5]",1,1,,,,,,,,,0,8,8,8,0,4,4,0,,,,,,,,,,,,,,,,,,,,,,,,,,,,,,,,,,,,,,,,,,,,,,,,,,,,,,,711.0799091240006,None,711.0799091240006,None,711.0799091240006,None,c,1,0.8377656100001332,712.6151631650009,None,712.6151631650009,None,712.6151631650009,None,713.5301526029998,None,713.5301526029998,None,713.5301526029998,None,713.5301526029998,None,,,,,,,,,,,,,,,,,,,,,,,,,,,,,,,,,,,,,,,,,,,,001,87,2020_Feb_06_1229,spring_faces,3.1.5,60.004634157731566,
condition files/Stage1_1.xlsx,,B1,T2,c,"['c', 'm']","['Clue', 'Monopoly']","[-0.15, 0.5]","[0.15, 0.5]",1,1,,,,,,,,,0,8,8,8,0,5,5,1,,,,,,,,,,,,,,,,,,,,,,,,,,,,,,,,,,,,,,,,,,,,,,,,,,,,,,,715.4794941159998,None,715.4794941159998,None,715.4794941159998,None,c,1,1.2227707940000982,717.0300581020001,None,717.0300581020001,None,717.0300581020001,None,718.3129283510007,None,718.3129283510007,None,718.3129283510007,None,718.3129283510007,None,,,,,,,,,,,,,,,,,,,,,,,,,,,,,,,,,,,,,,,,,,,,001,87,2020_Feb_06_1229,spring_faces,3.1.5,60.004634157731566,
condition files/Stage1_1.xlsx,,T2,B2,m,"['c', 'm']","['Clue', 'Monopoly']","[-0.15, 0.5]","[0.15, 0.5]",1,1,,,,,,,,,0,8,8,8,0,6,6,3,,,,,,,,,,,,,,,,,,,,,,,,,,,,,,,,,,,,,,,,,,,,,,,,,,,,,,,720.2797776309999,None,720.2797776309999,None,720.2797776309999,None,m,1,1.0157943379999779,721.8130530609997,None,721.8130530609997,None,721.8130530609997,None,722.881291783,None,722.881291783,None,722.881291783,None,722.881291783,None,,,,,,,,,,,,,,,,,,,,,,,,,,,,,,,,,,,,,,,,,,,,001,87,2020_Feb_06_1229,spring_faces,3.1.5,60.004634157731566,
condition files/Stage1_1.xlsx,,B3,T3,c,"['c', 'm']","['Clue', 'Monopoly']","[-0.15, 0.5]","[0.15, 0.5]",1,1,,,,,,,,,0,8,8,8,0,7,7,4,,,,,,,,,,,,,,,,,,,,,,,,,,,,,,,,,,,,,,,,,,,,,,,,,,,,,,,724.8461623050007,None,724.8461623050007,None,724.8461623050007,None,c,1,1.7920740310000838,726.3807294800008,None,726.3807294800008,None,726.3807294800008,None,728.2303697300013,None,728.2303697300013,None,728.2303697300013,None,728.2303697300013,None,,,,,,,,,,,,,,,,,,,,,,,,,,,,,,,,,,,,,,,,,,,,001,87,2020_Feb_06_1229,spring_faces,3.1.5,60.004634157731566,
condition files/Stage1_2.xlsx,,T1,B2,m,"['c', 'm']","['Clue', 'Monopoly']","[-0.15, 0.5]","[0.15, 0.5]",1,1,,,,,,,,,0,9,9,9,0,0,0,2,,,,,,,,,,,,,,,,,,,,,,,,,,,,,,,,,,,,,,,,,,,,,,,,,,,,,,,730.2133638230007,None,730.2133638230007,None,730.2133638230007,None,m,1,0.7455915909995383,731.7632418110006,None,731.7632418110006,None,731.7632418110006,None,732.5644934299999,None,732.5644934299999,None,732.5644934299999,None,732.5644934299999,None,,,,,,,,,,,,,,,,,,,,,,,,,,,,,,,,,,,,,,,,,,,,001,87,2020_Feb_06_1229,spring_faces,3.1.5,60.004634157731566,
condition files/Stage1_2.xlsx,,B2,T2,m,"['c', 'm']","['Clue', 'Monopoly']","[-0.15, 0.5]","[0.15, 0.5]",1,1,,,,,,,,,0,9,9,9,0,1,1,3,,,,,,,,,,,,,,,,,,,,,,,,,,,,,,,,,,,,,,,,,,,,,,,,,,,,,,,734.5299099340009,None,734.5299099340009,None,734.5299099340009,None,m,1,0.7476247510003304,736.0652420839997,None,736.0652420839997,None,736.0652420839997,None,736.8635143730007,None,736.8635143730007,None,736.8635143730007,None,736.8635143730007,None,,,,,,,,,,,,,,,,,,,,,,,,,,,,,,,,,,,,,,,,,,,,001,87,2020_Feb_06_1229,spring_faces,3.1.5,60.004634157731566,
condition files/Stage1_2.xlsx,,T3,B3,c,"['c', 'm']","['Clue', 'Monopoly']","[-0.15, 0.5]","[0.15, 0.5]",1,1,,,,,,,,,0,9,9,9,0,2,2,4,,,,,,,,,,,,,,,,,,,,,,,,,,,,,,,,,,,,,,,,,,,,,,,,,,,,,,,738.8297887010012,None,738.8297887010012,None,738.8297887010012,None,c,1,0.5295417079996696,740.3633192289999,None,740.3633192289999,None,740.3633192289999,None,740.9469128350011,None,740.9469128350011,None,740.9469128350011,None,740.9469128350011,None,,,,,,,,,,,,,,,,,,,,,,,,,,,,,,,,,,,,,,,,,,,,001,87,2020_Feb_06_1229,spring_faces,3.1.5,60.004634157731566,
condition files/Stage1_2.xlsx,,T2,B1,c,"['c', 'm']","['Clue', 'Monopoly']","[-0.15, 0.5]","[0.15, 0.5]",1,1,,,,,,,,,0,9,9,9,0,3,3,1,,,,,,,,,,,,,,,,,,,,,,,,,,,,,,,,,,,,,,,,,,,,,,,,,,,,,,,742.9125556050003,None,742.9125556050003,None,742.9125556050003,None,c,1,0.7968382140006725,744.4640102430003,None,744.4640102430003,None,744.4640102430003,None,745.3138377369996,None,745.3138377369996,None,745.3138377369996,None,745.3138377369996,None,,,,,,,,,,,,,,,,,,,,,,,,,,,,,,,,,,,,,,,,,,,,001,87,2020_Feb_06_1229,spring_faces,3.1.5,60.004634157731566,
condition files/Stage1_2.xlsx,,T4,B4,m,"['c', 'm']","['Clue', 'Monopoly']","[-0.15, 0.5]","[0.15, 0.5]",1,1,,,,,,,,,0,9,9,9,0,4,4,7,,,,,,,,,,,,,,,,,,,,,,,,,,,,,,,,,,,,,,,,,,,,,,,,,,,,,,,747.2797498689997,None,747.2797498689997,None,747.2797498689997,None,m,1,0.6865792759999749,748.8302831350011,None,748.8302831350011,None,748.8302831350011,None,749.5809565740001,None,749.5809565740001,None,749.5809565740001,None,749.5809565740001,None,,,,,,,,,,,,,,,,,,,,,,,,,,,,,,,,,,,,,,,,,,,,001,87,2020_Feb_06_1229,spring_faces,3.1.5,60.004634157731566,
condition files/Stage1_2.xlsx,,B1,T1,c,"['c', 'm']","['Clue', 'Monopoly']","[-0.15, 0.5]","[0.15, 0.5]",1,1,,,,,,,,,0,9,9,9,0,5,5,0,,,,,,,,,,,,,,,,,,,,,,,,,,,,,,,,,,,,,,,,,,,,,,,,,,,,,,,751.5466833179999,None,751.5466833179999,None,751.5466833179999,None,c,1,1.5881081179995817,753.0967766350004,None,753.0967766350004,None,753.0967766350004,None,754.7467228799997,None,754.7467228799997,None,754.7467228799997,None,754.7467228799997,None,,,,,,,,,,,,,,,,,,,,,,,,,,,,,,,,,,,,,,,,,,,,001,87,2020_Feb_06_1229,spring_faces,3.1.5,60.004634157731566,
condition files/Stage1_2.xlsx,,B4,T3,c,"['c', 'm']","['Clue', 'Monopoly']","[-0.15, 0.5]","[0.15, 0.5]",1,1,,,,,,,,,0,9,9,9,0,6,6,5,,,,,,,,,,,,,,,,,,,,,,,,,,,,,,,,,,,,,,,,,,,,,,,,,,,,,,,756.7131801129999,None,756.7131801129999,None,756.7131801129999,None,c,1,1.189875676000156,758.2470421870003,None,758.2470421870003,None,758.2470421870003,None,759.4966909240011,None,759.4966909240011,None,759.4966909240011,None,759.4966909240011,None,,,,,,,,,,,,,,,,,,,,,,,,,,,,,,,,,,,,,,,,,,,,001,87,2020_Feb_06_1229,spring_faces,3.1.5,60.004634157731566,
condition files/Stage1_2.xlsx,,B3,T4,m,"['c', 'm']","['Clue', 'Monopoly']","[-0.15, 0.5]","[0.15, 0.5]",1,1,,,,,,,,,0,9,9,9,0,7,7,6,,,,,,,,,,,,,,,,,,,,,,,,,,,,,,,,,,,,,,,,,,,,,,,,,,,,,,,761.4631367170005,None,761.4631367170005,None,761.4631367170005,None,m,1,0.6470737800009374,762.9977743060008,None,762.9977743060008,None,762.9977743060008,None,763.6969143300012,None,763.6969143300012,None,763.6969143300012,None,763.6969143300012,None,,,,,,,,,,,,,,,,,,,,,,,,,,,,,,,,,,,,,,,,,,,,001,87,2020_Feb_06_1229,spring_faces,3.1.5,60.004634157731566,
condition files/Stage1_1.xlsx,,B4,T4,m,"['c', 'm']","['Clue', 'Monopoly']","[-0.15, 0.5]","[0.15, 0.5]",1,1,,,,,,,,,0,10,10,10,0,0,0,7,,,,,,,,,,,,,,,,,,,,,,,,,,,,,,,,,,,,,,,,,,,,,,,,,,,,,,,765.680154003001,None,765.680154003001,None,765.680154003001,None,m,1,1.039376409000397,767.2295278290003,None,767.2295278290003,None,767.2295278290003,None,768.329813579001,None,768.329813579001,None,768.329813579001,None,768.329813579001,None,,,,,,,,,,,,,,,,,,,,,,,,,,,,,,,,,,,,,,,,,,,,001,87,2020_Feb_06_1229,spring_faces,3.1.5,60.004634157731566,
condition files/Stage1_1.xlsx,,B3,T3,c,"['c', 'm']","['Clue', 'Monopoly']","[-0.15, 0.5]","[0.15, 0.5]",1,1,,,,,,,,,0,10,10,10,0,1,1,4,,,,,,,,,,,,,,,,,,,,,,,,,,,,,,,,,,,,,,,,,,,,,,,,,,,,,,,770.2965025640005,None,770.2965025640005,None,770.2965025640005,None,c,1,0.9507378670004982,771.8300758180012,None,771.8300758180012,None,771.8300758180012,None,772.8464794709998,None,772.8464794709998,None,772.8464794709998,None,772.8464794709998,None,,,,,,,,,,,,,,,,,,,,,,,,,,,,,,,,,,,,,,,,,,,,001,87,2020_Feb_06_1229,spring_faces,3.1.5,60.004634157731566,
condition files/Stage1_1.xlsx,,T1,B1,c,"['c', 'm']","['Clue', 'Monopoly']","[-0.15, 0.5]","[0.15, 0.5]",1,1,,,,,,,,,0,10,10,10,0,2,2,0,,,,,,,,,,,,,,,,,,,,,,,,,,,,,,,,,,,,,,,,,,,,,,,,,,,,,,,774.8126439509997,None,774.8126439509997,None,774.8126439509997,None,c,1,1.920466571000361,776.3484077550002,None,776.3484077550002,None,776.3484077550002,None,778.329504704001,None,778.329504704001,None,778.329504704001,None,778.329504704001,None,,,,,,,,,,,,,,,,,,,,,,,,,,,,,,,,,,,,,,,,,,,,001,87,2020_Feb_06_1229,spring_faces,3.1.5,60.004634157731566,
condition files/Stage1_1.xlsx,,B1,T2,c,"['c', 'm']","['Clue', 'Monopoly']","[-0.15, 0.5]","[0.15, 0.5]",1,1,,,,,,,,,0,10,10,10,0,3,3,1,,,,,,,,,,,,,,,,,,,,,,,,,,,,,,,,,,,,,,,,,,,,,,,,,,,,,,,780.2961059860008,None,780.2961059860008,None,780.2961059860008,None,c,1,1.3665013999998337,781.8303098220003,None,781.8303098220003,None,781.8303098220003,None,783.246401415001,None,783.246401415001,None,783.246401415001,None,783.246401415001,None,,,,,,,,,,,,,,,,,,,,,,,,,,,,,,,,,,,,,,,,,,,,001,87,2020_Feb_06_1229,spring_faces,3.1.5,60.004634157731566,
condition files/Stage1_1.xlsx,,T2,B2,m,"['c', 'm']","['Clue', 'Monopoly']","[-0.15, 0.5]","[0.15, 0.5]",1,1,,,,,,,,,0,10,10,10,0,4,4,3,,,,,,,,,,,,,,,,,,,,,,,,,,,,,,,,,,,,,,,,,,,,,,,,,,,,,,,785.2127935420012,None,785.2127935420012,None,785.2127935420012,None,m,1,1.72970651399919,786.7631599610013,None,786.7631599610013,None,786.7631599610013,None,788.5480677550004,None,788.5480677550004,None,788.5480677550004,None,788.5480677550004,None,,,,,,,,,,,,,,,,,,,,,,,,,,,,,,,,,,,,,,,,,,,,001,87,2020_Feb_06_1229,spring_faces,3.1.5,60.004634157731566,
condition files/Stage1_1.xlsx,,T4,B3,m,"['c', 'm']","['Clue', 'Monopoly']","[-0.15, 0.5]","[0.15, 0.5]",1,1,,,,,,,,,0,10,10,10,0,5,5,6,,,,,,,,,,,,,,,,,,,,,,,,,,,,,,,,,,,,,,,,,,,,,,,,,,,,,,,790.5127374610001,None,790.5127374610001,None,790.5127374610001,None,m,1,1.3251071510003385,792.0638140869996,None,792.0638140869996,None,792.0638140869996,None,793.4465520909998,None,793.4465520909998,None,793.4465520909998,None,793.4465520909998,None,,,,,,,,,,,,,,,,,,,,,,,,,,,,,,,,,,,,,,,,,,,,001,87,2020_Feb_06_1229,spring_faces,3.1.5,60.004634157731566,
condition files/Stage1_1.xlsx,,T3,B4,c,"['c', 'm']","['Clue', 'Monopoly']","[-0.15, 0.5]","[0.15, 0.5]",1,1,,,,,,,,,0,10,10,10,0,6,6,5,,,,,,,,,,,,,,,,,,,,,,,,,,,,,,,,,,,,,,,,,,,,,,,,,,,,,,,795.413223259,None,795.413223259,None,795.413223259,None,c,1,0.6175104280009691,796.9473141150011,None,796.9473141150011,None,796.9473141150011,None,797.6305645690009,None,797.6305645690009,None,797.6305645690009,None,797.6305645690009,None,,,,,,,,,,,,,,,,,,,,,,,,,,,,,,,,,,,,,,,,,,,,001,87,2020_Feb_06_1229,spring_faces,3.1.5,60.004634157731566,
condition files/Stage1_1.xlsx,,B2,T1,m,"['c', 'm']","['Clue', 'Monopoly']","[-0.15, 0.5]","[0.15, 0.5]",1,1,,,,,,,,,0,10,10,10,0,7,7,2,,,,,,,,,,,,,,,,,,,,,,,,,,,,,,,,,,,,,,,,,,,,,,,,,,,,,,,799.5961763739997,None,799.5961763739997,None,799.5961763739997,None,m,1,0.6260749460016086,801.1467191770007,None,801.1467191770007,None,801.1467191770007,None,801.8317372150013,None,801.8317372150013,None,801.8317372150013,None,801.8317372150013,None,,,,,,,,,,,,,,,,,,,,,,,,,,,,,,,,,,,,,,,,,,,,001,87,2020_Feb_06_1229,spring_faces,3.1.5,60.004634157731566,
condition files/Stage1_2.xlsx,,T3,B3,c,"['c', 'm']","['Clue', 'Monopoly']","[-0.15, 0.5]","[0.15, 0.5]",1,1,,,,,,,,,0,11,11,11,0,0,0,4,,,,,,,,,,,,,,,,,,,,,,,,,,,,,,,,,,,,,,,,,,,,,,,,,,,,,,,803.8131698640009,None,803.8131698640009,None,803.8131698640009,None,c,1,0.7137695510009507,805.3470985399999,None,805.3470985399999,None,805.3470985399999,None,806.1131204440007,None,806.1131204440007,None,806.1131204440007,None,806.1131204440007,None,,,,,,,,,,,,,,,,,,,,,,,,,,,,,,,,,,,,,,,,,,,,001,87,2020_Feb_06_1229,spring_faces,3.1.5,60.004634157731566,
condition files/Stage1_2.xlsx,,T2,B1,c,"['c', 'm']","['Clue', 'Monopoly']","[-0.15, 0.5]","[0.15, 0.5]",1,1,,,,,,,,,0,11,11,11,0,1,1,1,,,,,,,,,,,,,,,,,,,,,,,,,,,,,,,,,,,,,,,,,,,,,,,,,,,,,,,808.079826964,None,808.079826964,None,808.079826964,None,c,1,1.5185132030001114,809.6302729030012,None,809.6302729030012,None,809.6302729030012,None,811.2137104890007,None,811.2137104890007,None,811.2137104890007,None,811.2137104890007,None,,,,,,,,,,,,,,,,,,,,,,,,,,,,,,,,,,,,,,,,,,,,001,87,2020_Feb_06_1229,spring_faces,3.1.5,60.004634157731566,
condition files/Stage1_2.xlsx,,B4,T3,c,"['c', 'm']","['Clue', 'Monopoly']","[-0.15, 0.5]","[0.15, 0.5]",1,1,,,,,,,,,0,11,11,11,0,2,2,5,,,,,,,,,,,,,,,,,,,,,,,,,,,,,,,,,,,,,,,,,,,,,,,,,,,,,,,813.1794915419996,None,813.1794915419996,None,813.1794915419996,None,c,1,1.3452828139998019,814.7155819790005,None,814.7155819790005,None,814.7155819790005,None,816.1154716350011,None,816.1154716350011,None,816.1154716350011,None,816.1154716350011,None,,,,,,,,,,,,,,,,,,,,,,,,,,,,,,,,,,,,,,,,,,,,001,87,2020_Feb_06_1229,spring_faces,3.1.5,60.004634157731566,
condition files/Stage1_2.xlsx,,B3,T4,m,"['c', 'm']","['Clue', 'Monopoly']","[-0.15, 0.5]","[0.15, 0.5]",1,1,,,,,,,,,0,11,11,11,0,3,3,6,,,,,,,,,,,,,,,,,,,,,,,,,,,,,,,,,,,,,,,,,,,,,,,,,,,,,,,818.0798581560011,None,818.0798581560011,None,818.0798581560011,None,m,1,0.7658485859992652,819.6149930330012,None,819.6149930330012,None,819.6149930330012,None,820.4465171259999,None,820.4465171259999,None,820.4465171259999,None,820.4465171259999,None,,,,,,,,,,,,,,,,,,,,,,,,,,,,,,,,,,,,,,,,,,,,001,87,2020_Feb_06_1229,spring_faces,3.1.5,60.004634157731566,
condition files/Stage1_2.xlsx,,T4,B4,m,"['c', 'm']","['Clue', 'Monopoly']","[-0.15, 0.5]","[0.15, 0.5]",1,1,,,,,,,,,0,11,11,11,0,4,4,7,,,,,,,,,,,,,,,,,,,,,,,,,,,,,,,,,,,,,,,,,,,,,,,,,,,,,,,822.4127825619998,None,822.4127825619998,None,822.4127825619998,None,m,1,2.385905589999311,823.9629176320013,None,823.9629176320013,None,823.9629176320013,None,826.4132034430004,None,826.4132034430004,None,826.4132034430004,None,826.4132034430004,None,,,,,,,,,,,,,,,,,,,,,,,,,,,,,,,,,,,,,,,,,,,,001,87,2020_Feb_06_1229,spring_faces,3.1.5,60.004634157731566,
condition files/Stage1_2.xlsx,,B1,T1,c,"['c', 'm']","['Clue', 'Monopoly']","[-0.15, 0.5]","[0.15, 0.5]",1,1,,,,,,,,,0,11,11,11,0,5,5,0,,,,,,,,,,,,,,,,,,,,,,,,,,,,,,,,,,,,,,,,,,,,,,,,,,,,,,,828.3797781550002,None,828.3797781550002,None,828.3797781550002,None,c,1,1.60246052399998,829.9303947560002,None,829.9303947560002,None,829.9303947560002,None,831.6133617260002,None,831.6133617260002,None,831.6133617260002,None,831.6133617260002,None,,,,,,,,,,,,,,,,,,,,,,,,,,,,,,,,,,,,,,,,,,,,001,87,2020_Feb_06_1229,spring_faces,3.1.5,60.004634157731566,
condition files/Stage1_2.xlsx,,T1,B2,m,"['c', 'm']","['Clue', 'Monopoly']","[-0.15, 0.5]","[0.15, 0.5]",1,1,,,,,,,,,0,11,11,11,0,6,6,2,,,,,,,,,,,,,,,,,,,,,,,,,,,,,,,,,,,,,,,,,,,,,,,,,,,,,,,833.5632711960006,None,833.5632711960006,None,833.5632711960006,None,m,1,0.8363769370007503,835.096504733001,None,835.096504733001,None,835.096504733001,None,835.9966820040008,None,835.9966820040008,None,835.9966820040008,None,835.9966820040008,None,,,,,,,,,,,,,,,,,,,,,,,,,,,,,,,,,,,,,,,,,,,,001,87,2020_Feb_06_1229,spring_faces,3.1.5,60.004634157731566,
condition files/Stage1_2.xlsx,,B2,T2,m,"['c', 'm']","['Clue', 'Monopoly']","[-0.15, 0.5]","[0.15, 0.5]",1,1,,,,,,,,,0,11,11,11,0,7,7,3,,,,,,,,,,,,,,,,,,,,,,,,,,,,,,,,,,,,,,,,,,,,,,,,,,,,,,,837.9628084060005,None,837.9628084060005,None,837.9628084060005,None,m,1,1.0751023620014166,839.4977341670001,None,839.4977341670001,None,839.4977341670001,None,840.6298747260007,None,840.6298747260007,None,840.6298747260007,None,840.6298747260007,None,,,,,,,,,,,,,,,,,,,,,,,,,,,,,,,,,,,,,,,,,,,,001,87,2020_Feb_06_1229,spring_faces,3.1.5,60.004634157731566,
,,,,,,,,,,,,,,,,,,,,,,,,,,,,,,,,,,,,,,,,,,,,,,,,,,,,,,,,,,,,,,,,,,,,,,,,,,,,,,,,,,,,,,,,,,,,,,,,,,,,,,,,,,,,,,,,842.6136162470011,None,space,4.783682149000015,847.613163895001,None,,,,,,,,,,,,,,,,,,,,,,,,,,,,,,001,87,2020_Feb_06_1229,spring_faces,3.1.5,60.004634157731566,
condition files/Stage2_1.xlsx,,T5,B5,s,"['s', 'r']","['Stratego', 'Risk']","[-0.15, 0.5]","[0.15, 0.5]",1,1,,,,,,,,,,,,,,,,,0,0,0,0,0,0,0,0,,,,,,,,,,,,,,,,,,,,,,,,,,,,,,,,,,,,,,,,,,,,,,,852.5128767130009,None,852.5128767130009,None,852.5128767130009,None,r,0,2.494359465999878,854.0304266149997,None,854.0304266149997,None,854.0304266149997,None,856.5826667010006,None,856.5826667010006,None,856.5826667010006,None,856.5826667010006,None,,,,,,,,,,,,,,,847.613163895001,None,,,,,,,,,,,,,,,,,,,,,,,,,,,,001,87,2020_Feb_06_1229,spring_faces,3.1.5,60.004634157731566,
condition files/Stage2_1.xlsx,,B2,T2,r,"['s', 'r']","['Stratego', 'Risk']","[-0.15, 0.5]","[0.15, 0.5]",1,1,,,,,,,,,,,,,,,,,0,0,0,0,0,1,1,3,,,,,,,,,,,,,,,,,,,,,,,,,,,,,,,,,,,,,,,,,,,,,,,858.5464547009997,None,858.5464547009997,None,858.5464547009997,None,r,1,1.691119039998739,860.081718984,None,860.081718984,None,860.081718984,None,861.8321599660012,None,861.8321599660012,None,861.8321599660012,None,861.8321599660012,None,,,,,,,,,,,,,,,,,,,,,,,,,,,,,,,,,,,,,,,,,,,,001,87,2020_Feb_06_1229,spring_faces,3.1.5,60.004634157731566,
condition files/Stage2_1.xlsx,,B4,T4,r,"['s', 'r']","['Stratego', 'Risk']","[-0.15, 0.5]","[0.15, 0.5]",1,1,,,,,,,,,,,,,,,,,0,0,0,0,0,2,2,5,,,,,,,,,,,,,,,,,,,,,,,,,,,,,,,,,,,,,,,,,,,,,,,863.7962564200006,None,863.7962564200006,None,863.7962564200006,None,r,1,1.7374729169987404,865.3313992800013,None,865.3313992800013,None,865.3313992800013,None,867.130169727001,None,867.130169727001,None,867.130169727001,None,867.130169727001,None,,,,,,,,,,,,,,,,,,,,,,,,,,,,,,,,,,,,,,,,,,,,001,87,2020_Feb_06_1229,spring_faces,3.1.5,60.004634157731566,
condition files/Stage2_1.xlsx,,B6,T6,r,"['s', 'r']","['Stratego', 'Risk']","[-0.15, 0.5]","[0.15, 0.5]",1,1,,,,,,,,,,,,,,,,,0,0,0,0,0,3,3,1,,,,,,,,,,,,,,,,,,,,,,,,,,,,,,,,,,,,,,,,,,,,,,,869.0959940480006,None,869.0959940480006,None,869.0959940480006,None,s,0,0.901262282000971,870.6795681269996,None,870.6795681269996,None,870.6795681269996,None,871.6467922869997,None,871.6467922869997,None,871.6467922869997,None,871.6467922869997,None,,,,,,,,,,,,,,,,,,,,,,,,,,,,,,,,,,,,,,,,,,,,001,87,2020_Feb_06_1229,spring_faces,3.1.5,60.004634157731566,
condition files/Stage2_1.xlsx,,T3,B3,s,"['s', 'r']","['Stratego', 'Risk']","[-0.15, 0.5]","[0.15, 0.5]",1,1,,,,,,,,,,,,,,,,,0,0,0,0,0,4,4,4,,,,,,,,,,,,,,,,,,,,,,,,,,,,,,,,,,,,,,,,,,,,,,,873.6126631300012,None,873.6126631300012,None,873.6126631300012,None,r,0,1.168941960999291,875.1479344840009,None,875.1479344840009,None,875.1479344840009,None,876.381934387,None,876.381934387,None,876.381934387,None,876.381934387,None,,,,,,,,,,,,,,,,,,,,,,,,,,,,,,,,,,,,,,,,,,,,001,87,2020_Feb_06_1229,spring_faces,3.1.5,60.004634157731566,
condition files/Stage2_1.xlsx,,T1,B1,s,"['s', 'r']","['Stratego', 'Risk']","[-0.15, 0.5]","[0.15, 0.5]",1,1,,,,,,,,,,,,,,,,,0,0,0,0,0,5,5,2,,,,,,,,,,,,,,,,,,,,,,,,,,,,,,,,,,,,,,,,,,,,,,,878.3466095790009,None,878.3466095790009,None,878.3466095790009,None,r,0,1.3486291040007927,879.8802408330012,None,879.8802408330012,None,879.8802408330012,None,881.2800025980014,None,881.2800025980014,None,881.2800025980014,None,881.2800025980014,None,,,,,,,,,,,,,,,,,,,,,,,,,,,,,,,,,,,,,,,,,,,,001,87,2020_Feb_06_1229,spring_faces,3.1.5,60.004634157731566,
condition files/Stage2_2.xlsx,,B1,T1,s,"['s', 'r']","['Stratego', 'Risk']","[-0.15, 0.5]","[0.15, 0.5]",1,1,,,,,,,,,,,,,,,,,0,1,1,1,0,0,0,2,,,,,,,,,,,,,,,,,,,,,,,,,,,,,,,,,,,,,,,,,,,,,,,883.2964375680003,None,883.2964375680003,None,883.2964375680003,None,s,1,0.6396188729995629,884.8133039180011,None,884.8133039180011,None,884.8133039180011,None,885.5128554080002,None,885.5128554080002,None,885.5128554080002,None,885.5128554080002,None,,,,,,,,,,,,,,,,,,,,,,,,,,,,,,,,,,,,,,,,,,,,001,87,2020_Feb_06_1229,spring_faces,3.1.5,60.004634157731566,
condition files/Stage2_2.xlsx,,T6,B6,r,"['s', 'r']","['Stratego', 'Risk']","[-0.15, 0.5]","[0.15, 0.5]",1,1,,,,,,,,,,,,,,,,,0,1,1,1,0,1,1,1,,,,,,,,,,,,,,,,,,,,,,,,,,,,,,,,,,,,,,,,,,,,,,,887.4798483249997,None,887.4798483249997,None,887.4798483249997,None,s,0,1.1908136839992949,889.0141287140013,None,889.0141287140013,None,889.0141287140013,None,890.2628279930013,None,890.2628279930013,None,890.2628279930013,None,890.2628279930013,None,,,,,,,,,,,,,,,,,,,,,,,,,,,,,,,,,,,,,,,,,,,,001,87,2020_Feb_06_1229,spring_faces,3.1.5,60.004634157731566,
condition files/Stage2_2.xlsx,,T2,B2,r,"['s', 'r']","['Stratego', 'Risk']","[-0.15, 0.5]","[0.15, 0.5]",1,1,,,,,,,,,,,,,,,,,0,1,1,1,0,2,2,3,,,,,,,,,,,,,,,,,,,,,,,,,,,,,,,,,,,,,,,,,,,,,,,892.2299460080012,None,892.2299460080012,None,892.2299460080012,None,r,1,2.3138011480004934,893.7631504870005,None,893.7631504870005,None,893.7631504870005,None,896.1301838830004,None,896.1301838830004,None,896.1301838830004,None,896.1301838830004,None,,,,,,,,,,,,,,,,,,,,,,,,,,,,,,,,,,,,,,,,,,,,001,87,2020_Feb_06_1229,spring_faces,3.1.5,60.004634157731566,
condition files/Stage2_2.xlsx,,B5,T5,s,"['s', 'r']","['Stratego', 'Risk']","[-0.15, 0.5]","[0.15, 0.5]",1,1,,,,,,,,,,,,,,,,,0,1,1,1,0,3,3,0,,,,,,,,,,,,,,,,,,,,,,,,,,,,,,,,,,,,,,,,,,,,,,,898.096412633,None,898.096412633,None,898.096412633,None,s,1,2.030172701999618,899.6306830330013,None,899.6306830330013,None,899.6306830330013,None,901.7302857860013,None,901.7302857860013,None,901.7302857860013,None,901.7302857860013,None,,,,,,,,,,,,,,,,,,,,,,,,,,,,,,,,,,,,,,,,,,,,001,87,2020_Feb_06_1229,spring_faces,3.1.5,60.004634157731566,
condition files/Stage2_2.xlsx,,B3,T3,s,"['s', 'r']","['Stratego', 'Risk']","[-0.15, 0.5]","[0.15, 0.5]",1,1,,,,,,,,,,,,,,,,,0,1,1,1,0,4,4,4,,,,,,,,,,,,,,,,,,,,,,,,,,,,,,,,,,,,,,,,,,,,,,,903.679803201001,None,903.679803201001,None,903.679803201001,None,r,0,0.9907003809985326,905.2142340150003,None,905.2142340150003,None,905.2142340150003,None,906.2629755870003,None,906.2629755870003,None,906.2629755870003,None,906.2629755870003,None,,,,,,,,,,,,,,,,,,,,,,,,,,,,,,,,,,,,,,,,,,,,001,87,2020_Feb_06_1229,spring_faces,3.1.5,60.004634157731566,
condition files/Stage2_2.xlsx,,T4,B4,r,"['s', 'r']","['Stratego', 'Risk']","[-0.15, 0.5]","[0.15, 0.5]",1,1,,,,,,,,,,,,,,,,,0,1,1,1,0,5,5,5,,,,,,,,,,,,,,,,,,,,,,,,,,,,,,,,,,,,,,,,,,,,,,,908.2298379639997,None,908.2298379639997,None,908.2298379639997,None,s,0,0.6647287979994871,909.7801305890007,None,909.7801305890007,None,909.7801305890007,None,910.5127766799997,None,910.5127766799997,None,910.5127766799997,None,910.5127766799997,None,,,,,,,,,,,,,,,,,,,,,,,,,,,,,,,,,,,,,,,,,,,,001,87,2020_Feb_06_1229,spring_faces,3.1.5,60.004634157731566,
condition files/Stage2_1.xlsx,,T1,B1,s,"['s', 'r']","['Stratego', 'Risk']","[-0.15, 0.5]","[0.15, 0.5]",1,1,,,,,,,,,,,,,,,,,0,2,2,2,0,0,0,2,,,,,,,,,,,,,,,,,,,,,,,,,,,,,,,,,,,,,,,,,,,,,,,912.4801839070005,None,912.4801839070005,None,912.4801839070005,None,s,1,0.7190210389999265,914.0298144110002,None,914.0298144110002,None,914.0298144110002,None,914.8296379340009,None,914.8296379340009,None,914.8296379340009,None,914.8296379340009,None,,,,,,,,,,,,,,,,,,,,,,,,,,,,,,,,,,,,,,,,,,,,001,87,2020_Feb_06_1229,spring_faces,3.1.5,60.004634157731566,
condition files/Stage2_1.xlsx,,T3,B3,s,"['s', 'r']","['Stratego', 'Risk']","[-0.15, 0.5]","[0.15, 0.5]",1,1,,,,,,,,,,,,,,,,,0,2,2,2,0,1,1,4,,,,,,,,,,,,,,,,,,,,,,,,,,,,,,,,,,,,,,,,,,,,,,,916.7800074930001,None,916.7800074930001,None,916.7800074930001,None,r,0,1.6825249819994497,918.3303265200011,None,918.3303265200011,None,918.3303265200011,None,920.0634839080012,None,920.0634839080012,None,920.0634839080012,None,920.0634839080012,None,,,,,,,,,,,,,,,,,,,,,,,,,,,,,,,,,,,,,,,,,,,,001,87,2020_Feb_06_1229,spring_faces,3.1.5,60.004634157731566,
condition files/Stage2_1.xlsx,,B6,T6,r,"['s', 'r']","['Stratego', 'Risk']","[-0.15, 0.5]","[0.15, 0.5]",1,1,,,,,,,,,,,,,,,,,0,2,2,2,0,2,2,1,,,,,,,,,,,,,,,,,,,,,,,,,,,,,,,,,,,,,,,,,,,,,,,922.0300047060009,None,922.0300047060009,None,922.0300047060009,None,r,1,2.5759905479990266,923.564939201,None,923.564939201,None,923.564939201,None,926.2128821220012,None,926.2128821220012,None,926.2128821220012,None,926.2128821220012,None,,,,,,,,,,,,,,,,,,,,,,,,,,,,,,,,,,,,,,,,,,,,001,87,2020_Feb_06_1229,spring_faces,3.1.5,60.004634157731566,
condition files/Stage2_1.xlsx,,B4,T4,r,"['s', 'r']","['Stratego', 'Risk']","[-0.15, 0.5]","[0.15, 0.5]",1,1,,,,,,,,,,,,,,,,,0,2,2,2,0,3,3,5,,,,,,,,,,,,,,,,,,,,,,,,,,,,,,,,,,,,,,,,,,,,,,,928.1633459290006,None,928.1633459290006,None,928.1633459290006,None,r,1,1.9474585409989231,929.713386337,None,929.713386337,None,929.713386337,None,931.7133620210006,None,931.7133620210006,None,931.7133620210006,None,931.7133620210006,None,,,,,,,,,,,,,,,,,,,,,,,,,,,,,,,,,,,,,,,,,,,,001,87,2020_Feb_06_1229,spring_faces,3.1.5,60.004634157731566,
condition files/Stage2_1.xlsx,,T5,B5,s,"['s', 'r']","['Stratego', 'Risk']","[-0.15, 0.5]","[0.15, 0.5]",1,1,,,,,,,,,,,,,,,,,0,2,2,2,0,4,4,0,,,,,,,,,,,,,,,,,,,,,,,,,,,,,,,,,,,,,,,,,,,,,,,933.6800104699996,None,933.6800104699996,None,933.6800104699996,None,s,1,1.310650737999822,935.2301756770012,None,935.2301756770012,None,935.2301756770012,None,936.6134698320002,None,936.6134698320002,None,936.6134698320002,None,936.6134698320002,None,,,,,,,,,,,,,,,,,,,,,,,,,,,,,,,,,,,,,,,,,,,,001,87,2020_Feb_06_1229,spring_faces,3.1.5,60.004634157731566,
condition files/Stage2_1.xlsx,,B2,T2,r,"['s', 'r']","['Stratego', 'Risk']","[-0.15, 0.5]","[0.15, 0.5]",1,1,,,,,,,,,,,,,,,,,0,2,2,2,0,5,5,3,,,,,,,,,,,,,,,,,,,,,,,,,,,,,,,,,,,,,,,,,,,,,,,938.5627458529998,None,938.5627458529998,None,938.5627458529998,None,r,1,1.531314284000473,940.097507896,None,940.097507896,None,940.097507896,None,941.6798337260007,None,941.6798337260007,None,941.6798337260007,None,941.6798337260007,None,,,,,,,,,,,,,,,,,,,,,,,,,,,,,,,,,,,,,,,,,,,,001,87,2020_Feb_06_1229,spring_faces,3.1.5,60.004634157731566,
condition files/Stage2_2.xlsx,,T2,B2,r,"['s', 'r']","['Stratego', 'Risk']","[-0.15, 0.5]","[0.15, 0.5]",1,1,,,,,,,,,,,,,,,,,0,3,3,3,0,0,0,3,,,,,,,,,,,,,,,,,,,,,,,,,,,,,,,,,,,,,,,,,,,,,,,943.6631633840007,None,943.6631633840007,None,943.6631633840007,None,r,1,0.9434857880005438,945.2134439560014,None,945.2134439560014,None,945.2134439560014,None,946.2133516530012,None,946.2133516530012,None,946.2133516530012,None,946.2133516530012,None,,,,,,,,,,,,,,,,,,,,,,,,,,,,,,,,,,,,,,,,,,,,001,87,2020_Feb_06_1229,spring_faces,3.1.5,60.004634157731566,
condition files/Stage2_2.xlsx,,B3,T3,s,"['s', 'r']","['Stratego', 'Risk']","[-0.15, 0.5]","[0.15, 0.5]",1,1,,,,,,,,,,,,,,,,,0,3,3,3,0,1,1,4,,,,,,,,,,,,,,,,,,,,,,,,,,,,,,,,,,,,,,,,,,,,,,,948.1801362850001,None,948.1801362850001,None,948.1801362850001,None,s,1,1.0027458889999252,949.7301136360002,None,949.7301136360002,None,949.7301136360002,None,950.7968405560005,None,950.7968405560005,None,950.7968405560005,None,950.7968405560005,None,,,,,,,,,,,,,,,,,,,,,,,,,,,,,,,,,,,,,,,,,,,,001,87,2020_Feb_06_1229,spring_faces,3.1.5,60.004634157731566,
condition files/Stage2_2.xlsx,,B5,T5,s,"['s', 'r']","['Stratego', 'Risk']","[-0.15, 0.5]","[0.15, 0.5]",1,1,,,,,,,,,,,,,,,,,0,3,3,3,0,2,2,0,,,,,,,,,,,,,,,,,,,,,,,,,,,,,,,,,,,,,,,,,,,,,,,952.762771474001,None,952.762771474001,None,952.762771474001,None,s,1,1.0749420619995362,954.2978568060007,None,954.2978568060007,None,954.2978568060007,None,955.4300512990012,None,955.4300512990012,None,955.4300512990012,None,955.4300512990012,None,,,,,,,,,,,,,,,,,,,,,,,,,,,,,,,,,,,,,,,,,,,,001,87,2020_Feb_06_1229,spring_faces,3.1.5,60.004634157731566,
condition files/Stage2_2.xlsx,,T6,B6,r,"['s', 'r']","['Stratego', 'Risk']","[-0.15, 0.5]","[0.15, 0.5]",1,1,,,,,,,,,,,,,,,,,0,3,3,3,0,3,3,1,,,,,,,,,,,,,,,,,,,,,,,,,,,,,,,,,,,,,,,,,,,,,,,957.396482686001,None,957.396482686001,None,957.396482686001,None,s,0,1.3706796210008179,958.930200027,None,958.930200027,None,958.930200027,None,960.3802508099998,None,960.3802508099998,None,960.3802508099998,None,960.3802508099998,None,,,,,,,,,,,,,,,,,,,,,,,,,,,,,,,,,,,,,,,,,,,,001,87,2020_Feb_06_1229,spring_faces,3.1.5,60.004634157731566,
condition files/Stage2_2.xlsx,,T4,B4,r,"['s', 'r']","['Stratego', 'Risk']","[-0.15, 0.5]","[0.15, 0.5]",1,1,,,,,,,,,,,,,,,,,0,3,3,3,0,4,4,5,,,,,,,,,,,,,,,,,,,,,,,,,,,,,,,,,,,,,,,,,,,,,,,962.3293025060011,None,962.3293025060011,None,962.3293025060011,None,r,1,1.2834920490004151,963.8653682240001,None,963.8653682240001,None,963.8653682240001,None,965.213033637001,None,965.213033637001,None,965.213033637001,None,965.213033637001,None,,,,,,,,,,,,,,,,,,,,,,,,,,,,,,,,,,,,,,,,,,,,001,87,2020_Feb_06_1229,spring_faces,3.1.5,60.004634157731566,
condition files/Stage2_2.xlsx,,B1,T1,s,"['s', 'r']","['Stratego', 'Risk']","[-0.15, 0.5]","[0.15, 0.5]",1,1,,,,,,,,,,,,,,,,,0,3,3,3,0,5,5,2,,,,,,,,,,,,,,,,,,,,,,,,,,,,,,,,,,,,,,,,,,,,,,,967.1793137960012,None,967.1793137960012,None,967.1793137960012,None,s,1,1.0901890650002315,968.7147308490003,None,968.7147308490003,None,968.7147308490003,None,969.8647710040004,None,969.8647710040004,None,969.8647710040004,None,969.8647710040004,None,,,,,,,,,,,,,,,,,,,,,,,,,,,,,,,,,,,,,,,,,,,,001,87,2020_Feb_06_1229,spring_faces,3.1.5,60.004634157731566,
condition files/Stage2_1.xlsx,,B2,T2,r,"['s', 'r']","['Stratego', 'Risk']","[-0.15, 0.5]","[0.15, 0.5]",1,1,,,,,,,,,,,,,,,,,0,4,4,4,0,0,0,3,,,,,,,,,,,,,,,,,,,,,,,,,,,,,,,,,,,,,,,,,,,,,,,971.8466938190013,None,971.8466938190013,None,971.8466938190013,None,r,1,0.6481017349997273,973.396766838001,None,973.396766838001,None,973.396766838001,None,974.1135656040005,None,974.1135656040005,None,974.1135656040005,None,974.1135656040005,None,,,,,,,,,,,,,,,,,,,,,,,,,,,,,,,,,,,,,,,,,,,,001,87,2020_Feb_06_1229,spring_faces,3.1.5,60.004634157731566,
condition files/Stage2_1.xlsx,,B6,T6,r,"['s', 'r']","['Stratego', 'Risk']","[-0.15, 0.5]","[0.15, 0.5]",1,1,,,,,,,,,,,,,,,,,0,4,4,4,0,1,1,1,,,,,,,,,,,,,,,,,,,,,,,,,,,,,,,,,,,,,,,,,,,,,,,976.0624811140005,None,976.0624811140005,None,976.0624811140005,None,r,1,1.4550538179992145,977.6138042540006,None,977.6138042540006,None,977.6138042540006,None,979.1297055300001,None,979.1297055300001,None,979.1297055300001,None,979.1297055300001,None,,,,,,,,,,,,,,,,,,,,,,,,,,,,,,,,,,,,,,,,,,,,001,87,2020_Feb_06_1229,spring_faces,3.1.5,60.004634157731566,
condition files/Stage2_1.xlsx,,T3,B3,s,"['s', 'r']","['Stratego', 'Risk']","[-0.15, 0.5]","[0.15, 0.5]",1,1,,,,,,,,,,,,,,,,,0,4,4,4,0,2,2,4,,,,,,,,,,,,,,,,,,,,,,,,,,,,,,,,,,,,,,,,,,,,,,,981.0962588430011,None,981.0962588430011,None,981.0962588430011,None,s,1,1.4133740849993046,982.6314846839996,None,982.6314846839996,None,982.6314846839996,None,984.113555164,None,984.113555164,None,984.113555164,None,984.113555164,None,,,,,,,,,,,,,,,,,,,,,,,,,,,,,,,,,,,,,,,,,,,,001,87,2020_Feb_06_1229,spring_faces,3.1.5,60.004634157731566,
