condsFile,subStage,cue1,cue2,correct,responseKeys,responseNames,cue1Position,cue2Position,cue1Opacity,cue2Opacity,stageLoop0.thisRepN,stageLoop0.thisTrialN,stageLoop0.thisN,stageLoop0.thisIndex,blockLoop0.thisRepN,blockLoop0.thisTrialN,blockLoop0.thisN,blockLoop0.thisIndex,stage1Loop.thisRepN,stage1Loop.thisTrialN,stage1Loop.thisN,stage1Loop.thisIndex,blockLoop1.thisRepN,blockLoop1.thisTrialN,blockLoop1.thisN,blockLoop1.thisIndex,stage2Loop.thisRepN,stage2Loop.thisTrialN,stage2Loop.thisN,stage2Loop.thisIndex,blockLoop2.thisRepN,blockLoop2.thisTrialN,blockLoop2.thisN,blockLoop2.thisIndex,testLoop.thisRepN,testLoop.thisTrialN,testLoop.thisN,testLoop.thisIndex,blockLoopTest.thisRepN,blockLoopTest.thisTrialN,blockLoopTest.thisN,blockLoopTest.thisIndex,cuePics,id_instr_text.started,id_instr_text.stopped,space_to_continue_2.started,space_to_continue_2.stopped,end_instructions_resp_3.keys,end_instructions_resp_3.rt,end_instructions_resp_3.started,end_instructions_resp_3.stopped,id_input_instr.started,id_input_instr.stopped,id_input_rect.started,id_input_rect.stopped,id_input_resp.keys,id_input_resp.rt,id_input_resp.started,id_input_resp.stopped,sonaID,id_input_text.started,id_input_text.stopped,final_text.started,final_text.stopped,instructions.started,instructions.stopped,end_instructions_resp.keys,end_instructions_resp.rt,end_instructions_resp.started,end_instructions_resp.stopped,space_to_continue.started,space_to_continue.stopped,instructions_stage0.started,instructions_stage0.stopped,end_instructions_resp_stage0.keys,end_instructions_resp_stage0.rt,end_instructions_resp_stage0.started,end_instructions_resp_stage0.stopped,space_to_continue_stage0.started,space_to_continue_stage0.stopped,text.started,text.stopped,resp_text1.started,resp_text1.stopped,resp_text2.started,resp_text2.stopped,trial_resp.keys,trial_resp.corr,trial_resp.rt,trial_resp.started,trial_resp.stopped,cue1Image.started,cue1Image.stopped,cue2Image.started,cue2Image.stopped,cue1Image_fb.started,cue1Image_fb.stopped,cue2Image_fb.started,cue2Image_fb.stopped,fb_text_answer.started,fb_text_answer.stopped,feedback_image.started,feedback_image.stopped,instructions_stage1.started,instructions_stage1.stopped,end_instructions_resp_stage1.keys,end_instructions_resp_stage1.rt,end_instructions_resp_stage1.started,end_instructions_resp_stage1.stopped,space_to_continue_stage1.started,space_to_continue_stage1.stopped,instructions_2.started,instructions_2.stopped,end_instructions_resp_2.keys,end_instructions_resp_2.rt,end_instructions_resp_2.started,end_instructions_resp_2.stopped,press_space_to_continue_stage2.started,press_space_to_continue_stage2.stopped,instructions_testStage1.started,instructions_testStage1.stopped,end_instructions_resp_test1.keys,end_instructions_resp_test1.rt,end_instructions_resp_test1.started,end_instructions_resp_test1.stopped,press_space_to_continue_test1.started,press_space_to_continue_test1.stopped,cue1Image_testChoice.started,cue1Image_testChoice.stopped,cue2Image_testChoice.started,cue2Image_testChoice.stopped,test_resp.keys,test_resp.corr,test_resp.rt,test_resp.started,test_resp.stopped,cue1Image_testConf.started,cue1Image_testConf.stopped,cue2Image_testConf.started,cue2Image_testConf.stopped,conf_reminder.started,conf_reminder.stopped,conf_rating.response,conf_rating.rt,conf_rating.started,conf_rating.stopped,session,participant,date,expName,psychopyVersion,frameRate,
,,,,,,,,,,,,,,,,,,,,,,,,,,,,,,,,,,,,,,,,,,,"{'none': 'pictures/20M_AN_C.png', 'alpha': 'pictures/SHINEd_melon.png', 'beta': 'pictures/SHINEd_apple.png', 'theta': 'pictures/SHINEd_pear.png', 'phi': 'pictures/SHINEd_pepper.png', 'T1': 'pictures/25M_AN_C.png', 'T2': 'pictures/32M_AN_C.png', 'T3': 'pictures/34M_AN_C.png', 'T4': 'pictures/20M_AN_C.png', 'T5': 'pictures/23M_AN_C.png', 'T6': 'pictures/33M_AN_C.png', 'B1': 'pictures/36M_NE_C.png', 'B2': 'pictures/31M_NE_C.png', 'B3': 'pictures/26M_NE_C.png', 'B4': 'pictures/37M_NE_C.png', 'B5': 'pictures/38M_NE_C.png', 'B6': 'pictures/22M_NE_C.png'}",13.690769810000347,None,18.689975444000083,None,space,359.06502408400047,18.689975444000083,None,,,,,,,,,,,,,,,,,,,,,,,,,,,,,,,,,,,,,,,,,,,,,,,,,,,,,,,,,,,,,,,,,,,,,,,,,,,,,,,,,,,,,,,,,,,,,,,,001,89,2020_Feb_06_1250,spring_faces,3.1.5,60.12136435241451,
,,,,,,,,,,,,,,,,,,,,,,,,,,,,,,,,,,,,,,,,,,,,,,,,,,,,378.13984404499934,None,378.13984404499934,None,"['b', 'backspace', '0', 'backspace', '0', '2', '0', '7', 'k', 'i', 'c', 'h', 'e']","[23.279139897998903, 24.87911758500013, 26.447097041000234, 27.45518305099904, 28.095131672998832, 28.22317182000006, 34.86311284600015, 36.20709810599874, 40.847238033000394, 41.31115133200001, 51.29507112899955, 52.335100823000175, 52.75109074099964]",378.13984404499934,None,,,,,,,,,,,,,,,,,,,,,,,,,,,,,,,,,,,,,,,,,,,,,,,,,,,,,,,,,,,,,,,,,,,,,,,,,,,,,,,,,,,,,,,,001,89,2020_Feb_06_1250,spring_faces,3.1.5,60.12136435241451,
,,,,,,,,,,,,,,,,,,,,,,,,,,,,,,,,,,,,,,,,,,,,,,,,,,,,,,,,,,,,0207kiche,378.13984404499934,None,378.13984404499934,None,435.9739395590004,None,space,1.8054289869996865,440.97353923899936,None,,,,,,,,,,,,,,,,,,,,,,,,,,,,,,,,,,,,,,,,,,,,,,,,,,,,,,,,,,,,,,,,,,,,,,,,,,,,,001,89,2020_Feb_06_1250,spring_faces,3.1.5,60.12136435241451,
,,,,,,,,,,,,,,,,,,,,,,,,,,,,,,,,,,,,,,,,,,,,,,,,,,,,,,,,,,,,,,,,,,,,,,,440.97353923899936,None,442.8236812989999,None,space,2.587332442000843,447.8236735110004,None,,,,,,,,,,,,,,,,,,,,,,,,,,,,,,,,,,,,,,,,,,,,,,,,,,,,,,,,,,,,,,,,,,,,,001,89,2020_Feb_06_1250,spring_faces,3.1.5,60.12136435241451,
condition files/Stage0a.xlsx,0a,beta,none,g,"['h', 'g']","['Chess', 'Go']","[0, 0.5]","[0, 0]",1,0,0,0,0,0,0,0,0,1,,,,,,,,,,,,,,,,,,,,,,,,,,,,,,,,,,,,,,,,,,,,,,,,,,,,,,,,,,,,,447.8236735110004,None,450.4738751290006,None,450.4738751290006,None,450.4738751290006,None,h,0,6.017990311000176,452.05700951700055,None,452.05700951700055,None,452.05700951700055,None,458.1570891470001,None,458.1570891470001,None,458.1570891470001,None,458.1570891470001,None,,,,,,,,,,,,,,,,,,,,,,,,,,,,,,,,,,,,,,,,,,,,001,89,2020_Feb_06_1250,spring_faces,3.1.5,60.12136435241451,
condition files/Stage0a.xlsx,0a,alpha,none,h,"['h', 'g']","['Chess', 'Go']","[0, 0.5]","[0, 0]",1,0,0,0,0,0,0,1,1,0,,,,,,,,,,,,,,,,,,,,,,,,,,,,,,,,,,,,,,,,,,,,,,,,,,,,,,,,,,,,,,,460.10670327700063,None,460.10670327700063,None,460.10670327700063,None,h,1,1.2806409999993775,461.65834932799953,None,461.65834932799953,None,461.65834932799953,None,462.989812283,None,462.989812283,None,462.989812283,None,462.989812283,None,,,,,,,,,,,,,,,,,,,,,,,,,,,,,,,,,,,,,,,,,,,,001,89,2020_Feb_06_1250,spring_faces,3.1.5,60.12136435241451,
condition files/Stage0a.xlsx,0a,beta,none,g,"['h', 'g']","['Chess', 'Go']","[0, 0.5]","[0, 0]",1,0,0,1,1,1,0,0,0,1,,,,,,,,,,,,,,,,,,,,,,,,,,,,,,,,,,,,,,,,,,,,,,,,,,,,,,,,,,,,,,,464.9736537410008,None,464.9736537410008,None,464.9736537410008,None,g,1,0.7189072630008013,466.508114106,None,466.508114106,None,466.508114106,None,467.29031577599926,None,467.29031577599926,None,467.29031577599926,None,467.29031577599926,None,,,,,,,,,,,,,,,,,,,,,,,,,,,,,,,,,,,,,,,,,,,,001,89,2020_Feb_06_1250,spring_faces,3.1.5,60.12136435241451,
condition files/Stage0a.xlsx,0a,alpha,none,h,"['h', 'g']","['Chess', 'Go']","[0, 0.5]","[0, 0]",1,0,0,1,1,1,0,1,1,0,,,,,,,,,,,,,,,,,,,,,,,,,,,,,,,,,,,,,,,,,,,,,,,,,,,,,,,,,,,,,,,469.2567134559995,None,469.2567134559995,None,469.2567134559995,None,h,1,0.7410691420009243,470.78998654099996,None,470.78998654099996,None,470.78998654099996,None,471.5900116449993,None,471.5900116449993,None,471.5900116449993,None,471.5900116449993,None,,,,,,,,,,,,,,,,,,,,,,,,,,,,,,,,,,,,,,,,,,,,001,89,2020_Feb_06_1250,spring_faces,3.1.5,60.12136435241451,
condition files/Stage0a.xlsx,0a,alpha,none,h,"['h', 'g']","['Chess', 'Go']","[0, 0.5]","[0, 0]",1,0,0,2,2,2,0,0,0,0,,,,,,,,,,,,,,,,,,,,,,,,,,,,,,,,,,,,,,,,,,,,,,,,,,,,,,,,,,,,,,,473.5739163849994,None,473.5739163849994,None,473.5739163849994,None,h,1,0.615595299999768,475.10741299099936,None,475.10741299099936,None,475.10741299099936,None,475.7737629099993,None,475.7737629099993,None,475.7737629099993,None,475.7737629099993,None,,,,,,,,,,,,,,,,,,,,,,,,,,,,,,,,,,,,,,,,,,,,001,89,2020_Feb_06_1250,spring_faces,3.1.5,60.12136435241451,
condition files/Stage0a.xlsx,0a,beta,none,g,"['h', 'g']","['Chess', 'Go']","[0, 0.5]","[0, 0]",1,0,0,2,2,2,0,1,1,1,,,,,,,,,,,,,,,,,,,,,,,,,,,,,,,,,,,,,,,,,,,,,,,,,,,,,,,,,,,,,,,477.7400701160004,None,477.7400701160004,None,477.7400701160004,None,g,1,0.4655923869995604,479.27342019299977,None,479.27342019299977,None,479.27342019299977,None,479.7900925260001,None,479.7900925260001,None,479.7900925260001,None,479.7900925260001,None,,,,,,,,,,,,,,,,,,,,,,,,,,,,,,,,,,,,,,,,,,,,001,89,2020_Feb_06_1250,spring_faces,3.1.5,60.12136435241451,
condition files/Stage0a.xlsx,0a,alpha,none,h,"['h', 'g']","['Chess', 'Go']","[0, 0.5]","[0, 0]",1,0,0,3,3,3,0,0,0,0,,,,,,,,,,,,,,,,,,,,,,,,,,,,,,,,,,,,,,,,,,,,,,,,,,,,,,,,,,,,,,,481.7739080829997,None,481.7739080829997,None,481.7739080829997,None,h,1,0.5433389030004037,483.3237279040004,None,483.3237279040004,None,483.3237279040004,None,483.92300118099956,None,483.92300118099956,None,483.92300118099956,None,483.92300118099956,None,,,,,,,,,,,,,,,,,,,,,,,,,,,,,,,,,,,,,,,,,,,,001,89,2020_Feb_06_1250,spring_faces,3.1.5,60.12136435241451,
condition files/Stage0a.xlsx,0a,beta,none,g,"['h', 'g']","['Chess', 'Go']","[0, 0.5]","[0, 0]",1,0,0,3,3,3,0,1,1,1,,,,,,,,,,,,,,,,,,,,,,,,,,,,,,,,,,,,,,,,,,,,,,,,,,,,,,,,,,,,,,,485.89004344100067,None,485.89004344100067,None,485.89004344100067,None,g,1,0.4599094179993699,487.4230485299995,None,487.4230485299995,None,487.4230485299995,None,487.9401757169999,None,487.9401757169999,None,487.9401757169999,None,487.9401757169999,None,,,,,,,,,,,,,,,,,,,,,,,,,,,,,,,,,,,,,,,,,,,,001,89,2020_Feb_06_1250,spring_faces,3.1.5,60.12136435241451,
condition files/Stage0a.xlsx,0a,alpha,none,h,"['h', 'g']","['Chess', 'Go']","[0, 0.5]","[0, 0]",1,0,0,4,4,4,0,0,0,0,,,,,,,,,,,,,,,,,,,,,,,,,,,,,,,,,,,,,,,,,,,,,,,,,,,,,,,,,,,,,,,489.92388211099933,None,489.92388211099933,None,489.92388211099933,None,h,1,0.6339363280003454,491.457036709,None,491.457036709,None,491.457036709,None,492.15660224400017,None,492.15660224400017,None,492.15660224400017,None,492.15660224400017,None,,,,,,,,,,,,,,,,,,,,,,,,,,,,,,,,,,,,,,,,,,,,001,89,2020_Feb_06_1250,spring_faces,3.1.5,60.12136435241451,
condition files/Stage0a.xlsx,0a,beta,none,g,"['h', 'g']","['Chess', 'Go']","[0, 0.5]","[0, 0]",1,0,0,4,4,4,0,1,1,1,,,,,,,,,,,,,,,,,,,,,,,,,,,,,,,,,,,,,,,,,,,,,,,,,,,,,,,,,,,,,,,494.1235386219996,None,494.1235386219996,None,494.1235386219996,None,g,1,0.5463467339995987,495.6566386689992,None,495.6566386689992,None,495.6566386689992,None,496.2564350089997,None,496.2564350089997,None,496.2564350089997,None,496.2564350089997,None,,,,,,,,,,,,,,,,,,,,,,,,,,,,,,,,,,,,,,,,,,,,001,89,2020_Feb_06_1250,spring_faces,3.1.5,60.12136435241451,
condition files/Stage0a.xlsx,0a,beta,none,g,"['h', 'g']","['Chess', 'Go']","[0, 0.5]","[0, 0]",1,0,0,5,5,5,0,0,0,1,,,,,,,,,,,,,,,,,,,,,,,,,,,,,,,,,,,,,,,,,,,,,,,,,,,,,,,,,,,,,,,498.24062229099945,None,498.24062229099945,None,498.24062229099945,None,g,1,1.4536747769998328,499.7733426849991,None,499.7733426849991,None,499.7733426849991,None,501.2900265160006,None,501.2900265160006,None,501.2900265160006,None,501.2900265160006,None,,,,,,,,,,,,,,,,,,,,,,,,,,,,,,,,,,,,,,,,,,,,001,89,2020_Feb_06_1250,spring_faces,3.1.5,60.12136435241451,
condition files/Stage0a.xlsx,0a,alpha,none,h,"['h', 'g']","['Chess', 'Go']","[0, 0.5]","[0, 0]",1,0,0,5,5,5,0,1,1,0,,,,,,,,,,,,,,,,,,,,,,,,,,,,,,,,,,,,,,,,,,,,,,,,,,,,,,,,,,,,,,,503.25646143499944,None,503.25646143499944,None,503.25646143499944,None,h,1,0.5963568780007336,504.79069197399986,None,504.79069197399986,None,504.79069197399986,None,505.4415550520007,None,505.4415550520007,None,505.4415550520007,None,505.4415550520007,None,,,,,,,,,,,,,,,,,,,,,,,,,,,,,,,,,,,,,,,,,,,,001,89,2020_Feb_06_1250,spring_faces,3.1.5,60.12136435241451,
condition files/Stage0b_1.xlsx,0b,none,beta,g,"['h', 'g']","['Chess', 'Go']","[-0.15, 0.5]","[0.15, 0.5]",0,1,0,6,6,6,0,0,0,1,,,,,,,,,,,,,,,,,,,,,,,,,,,,,,,,,,,,,,,,,,,,,,,,,,,,,,,,,,,,,,,507.42340545499974,None,507.42340545499974,None,507.42340545499974,None,g,1,0.7171780750013568,508.97379115699914,None,508.97379115699914,None,508.97379115699914,None,509.7736798850001,None,509.7736798850001,None,509.7736798850001,None,509.7736798850001,None,,,,,,,,,,,,,,,,,,,,,,,,,,,,,,,,,,,,,,,,,,,,001,89,2020_Feb_06_1250,spring_faces,3.1.5,60.12136435241451,
condition files/Stage0b_1.xlsx,0b,alpha,none,h,"['h', 'g']","['Chess', 'Go']","[-0.15, 0.5]","[0.15, 0.5]",1,0,0,6,6,6,0,1,1,0,,,,,,,,,,,,,,,,,,,,,,,,,,,,,,,,,,,,,,,,,,,,,,,,,,,,,,,,,,,,,,,511.7227479339999,None,511.7227479339999,None,511.7227479339999,None,h,1,0.6224688000002061,513.2604882979995,None,513.2604882979995,None,513.2604882979995,None,513.9426502700007,None,513.9426502700007,None,513.9426502700007,None,513.9426502700007,None,,,,,,,,,,,,,,,,,,,,,,,,,,,,,,,,,,,,,,,,,,,,001,89,2020_Feb_06_1250,spring_faces,3.1.5,60.12136435241451,
condition files/Stage0b_2.xlsx,0b,beta,none,g,"['h', 'g']","['Chess', 'Go']","[-0.15, 0.5]","[0.15, 0.5]",1,0,0,7,7,7,0,0,0,1,,,,,,,,,,,,,,,,,,,,,,,,,,,,,,,,,,,,,,,,,,,,,,,,,,,,,,,,,,,,,,,515.9235129450008,None,515.9235129450008,None,515.9235129450008,None,g,1,1.017891334999149,517.457053139,None,517.457053139,None,517.457053139,None,518.5405916550008,None,518.5405916550008,None,518.5405916550008,None,518.5405916550008,None,,,,,,,,,,,,,,,,,,,,,,,,,,,,,,,,,,,,,,,,,,,,001,89,2020_Feb_06_1250,spring_faces,3.1.5,60.12136435241451,
condition files/Stage0b_2.xlsx,0b,none,alpha,h,"['h', 'g']","['Chess', 'Go']","[-0.15, 0.5]","[0.15, 0.5]",0,1,0,7,7,7,0,1,1,0,,,,,,,,,,,,,,,,,,,,,,,,,,,,,,,,,,,,,,,,,,,,,,,,,,,,,,,,,,,,,,,520.5067043210001,None,520.5067043210001,None,520.5067043210001,None,h,1,0.8338928449993546,522.0570698200008,None,522.0570698200008,None,522.0570698200008,None,522.9615920479991,None,522.9615920479991,None,522.9615920479991,None,522.9615920479991,None,,,,,,,,,,,,,,,,,,,,,,,,,,,,,,,,,,,,,,,,,,,,001,89,2020_Feb_06_1250,spring_faces,3.1.5,60.12136435241451,
condition files/Stage0b_1.xlsx,0b,alpha,none,h,"['h', 'g']","['Chess', 'Go']","[-0.15, 0.5]","[0.15, 0.5]",1,0,0,8,8,8,0,0,0,0,,,,,,,,,,,,,,,,,,,,,,,,,,,,,,,,,,,,,,,,,,,,,,,,,,,,,,,,,,,,,,,524.940330767,None,524.940330767,None,524.940330767,None,h,1,0.7355577960006485,526.4754638239992,None,526.4754638239992,None,526.4754638239992,None,527.2735304910002,None,527.2735304910002,None,527.2735304910002,None,527.2735304910002,None,,,,,,,,,,,,,,,,,,,,,,,,,,,,,,,,,,,,,,,,,,,,001,89,2020_Feb_06_1250,spring_faces,3.1.5,60.12136435241451,
condition files/Stage0b_1.xlsx,0b,none,beta,g,"['h', 'g']","['Chess', 'Go']","[-0.15, 0.5]","[0.15, 0.5]",0,1,0,8,8,8,0,1,1,1,,,,,,,,,,,,,,,,,,,,,,,,,,,,,,,,,,,,,,,,,,,,,,,,,,,,,,,,,,,,,,,529.2395306350008,None,529.2395306350008,None,529.2395306350008,None,g,1,0.7071872699998494,530.7757970250004,None,530.7757970250004,None,530.7757970250004,None,531.5571217159995,None,531.5571217159995,None,531.5571217159995,None,531.5571217159995,None,,,,,,,,,,,,,,,,,,,,,,,,,,,,,,,,,,,,,,,,,,,,001,89,2020_Feb_06_1250,spring_faces,3.1.5,60.12136435241451,
condition files/Stage0b_2.xlsx,0b,beta,none,g,"['h', 'g']","['Chess', 'Go']","[-0.15, 0.5]","[0.15, 0.5]",1,0,0,9,9,9,0,0,0,1,,,,,,,,,,,,,,,,,,,,,,,,,,,,,,,,,,,,,,,,,,,,,,,,,,,,,,,,,,,,,,,533.5240381580006,None,533.5240381580006,None,533.5240381580006,None,g,1,0.7418637400005537,535.0611316699997,None,535.0611316699997,None,535.0611316699997,None,535.8570033180004,None,535.8570033180004,None,535.8570033180004,None,535.8570033180004,None,,,,,,,,,,,,,,,,,,,,,,,,,,,,,,,,,,,,,,,,,,,,001,89,2020_Feb_06_1250,spring_faces,3.1.5,60.12136435241451,
condition files/Stage0b_2.xlsx,0b,none,alpha,h,"['h', 'g']","['Chess', 'Go']","[-0.15, 0.5]","[0.15, 0.5]",0,1,0,9,9,9,0,1,1,0,,,,,,,,,,,,,,,,,,,,,,,,,,,,,,,,,,,,,,,,,,,,,,,,,,,,,,,,,,,,,,,537.8235417880005,None,537.8235417880005,None,537.8235417880005,None,h,1,0.5379009719999885,539.3611725350002,None,539.3611725350002,None,539.3611725350002,None,539.9565651699995,None,539.9565651699995,None,539.9565651699995,None,539.9565651699995,None,,,,,,,,,,,,,,,,,,,,,,,,,,,,,,,,,,,,,,,,,,,,001,89,2020_Feb_06_1250,spring_faces,3.1.5,60.12136435241451,
condition files/Stage0b_1.xlsx,0b,none,beta,g,"['h', 'g']","['Chess', 'Go']","[-0.15, 0.5]","[0.15, 0.5]",0,1,0,10,10,10,0,0,0,1,,,,,,,,,,,,,,,,,,,,,,,,,,,,,,,,,,,,,,,,,,,,,,,,,,,,,,,,,,,,,,,541.9405409200008,None,541.9405409200008,None,541.9405409200008,None,g,1,0.6340271680001024,543.472984344,None,543.472984344,None,543.472984344,None,544.1569657660002,None,544.1569657660002,None,544.1569657660002,None,544.1569657660002,None,,,,,,,,,,,,,,,,,,,,,,,,,,,,,,,,,,,,,,,,,,,,001,89,2020_Feb_06_1250,spring_faces,3.1.5,60.12136435241451,
condition files/Stage0b_1.xlsx,0b,alpha,none,h,"['h', 'g']","['Chess', 'Go']","[-0.15, 0.5]","[0.15, 0.5]",1,0,0,10,10,10,0,1,1,0,,,,,,,,,,,,,,,,,,,,,,,,,,,,,,,,,,,,,,,,,,,,,,,,,,,,,,,,,,,,,,,546.1233698739998,None,546.1233698739998,None,546.1233698739998,None,h,1,0.6414643520001846,547.6735966199994,None,547.6735966199994,None,547.6735966199994,None,548.3766810950001,None,548.3766810950001,None,548.3766810950001,None,548.3766810950001,None,,,,,,,,,,,,,,,,,,,,,,,,,,,,,,,,,,,,,,,,,,,,001,89,2020_Feb_06_1250,spring_faces,3.1.5,60.12136435241451,
condition files/Stage0b_2.xlsx,0b,beta,none,g,"['h', 'g']","['Chess', 'Go']","[-0.15, 0.5]","[0.15, 0.5]",1,0,0,11,11,11,0,0,0,1,,,,,,,,,,,,,,,,,,,,,,,,,,,,,,,,,,,,,,,,,,,,,,,,,,,,,,,,,,,,,,,550.3570573779998,None,550.3570573779998,None,550.3570573779998,None,g,1,0.6483563319998211,551.8906435270001,None,551.8906435270001,None,551.8906435270001,None,552.5907528579992,None,552.5907528579992,None,552.5907528579992,None,552.5907528579992,None,,,,,,,,,,,,,,,,,,,,,,,,,,,,,,,,,,,,,,,,,,,,001,89,2020_Feb_06_1250,spring_faces,3.1.5,60.12136435241451,
condition files/Stage0b_2.xlsx,0b,none,alpha,h,"['h', 'g']","['Chess', 'Go']","[-0.15, 0.5]","[0.15, 0.5]",0,1,0,11,11,11,0,1,1,0,,,,,,,,,,,,,,,,,,,,,,,,,,,,,,,,,,,,,,,,,,,,,,,,,,,,,,,,,,,,,,,554.5566964779991,None,554.5566964779991,None,554.5566964779991,None,h,1,0.573425649001365,556.0936544939996,None,556.0936544939996,None,556.0936544939996,None,556.7262023669991,None,556.7262023669991,None,556.7262023669991,None,556.7262023669991,None,,,,,,,,,,,,,,,,,,,,,,,,,,,,,,,,,,,,,,,,,,,,001,89,2020_Feb_06_1250,spring_faces,3.1.5,60.12136435241451,
condition files/Stage0c_1.xlsx,0c,alpha,phi,h,"['h', 'g']","['Chess', 'Go']","[-0.15, 0.5]","[0.15, 0.5]",1,1,0,12,12,12,0,0,0,1,,,,,,,,,,,,,,,,,,,,,,,,,,,,,,,,,,,,,,,,,,,,,,,,,,,,,,,,,,,,,,,558.7069450580002,None,558.7069450580002,None,558.7069450580002,None,h,1,1.9786522480007989,560.2403468560005,None,560.2403468560005,None,560.2403468560005,None,562.2737881310004,None,562.2737881310004,None,562.2737881310004,None,562.2737881310004,None,,,,,,,,,,,,,,,,,,,,,,,,,,,,,,,,,,,,,,,,,,,,001,89,2020_Feb_06_1250,spring_faces,3.1.5,60.12136435241451,
condition files/Stage0c_1.xlsx,0c,beta,theta,g,"['h', 'g']","['Chess', 'Go']","[-0.15, 0.5]","[0.15, 0.5]",1,1,0,12,12,12,0,1,1,2,,,,,,,,,,,,,,,,,,,,,,,,,,,,,,,,,,,,,,,,,,,,,,,,,,,,,,,,,,,,,,,564.2400294729996,None,564.2400294729996,None,564.2400294729996,None,g,1,1.9332540600007633,565.7737521729996,None,565.7737521729996,None,565.7737521729996,None,567.7571197500001,None,567.7571197500001,None,567.7571197500001,None,567.7571197500001,None,,,,,,,,,,,,,,,,,,,,,,,,,,,,,,,,,,,,,,,,,,,,001,89,2020_Feb_06_1250,spring_faces,3.1.5,60.12136435241451,
condition files/Stage0c_1.xlsx,0c,phi,beta,g,"['h', 'g']","['Chess', 'Go']","[-0.15, 0.5]","[0.15, 0.5]",1,1,0,12,12,12,0,2,2,3,,,,,,,,,,,,,,,,,,,,,,,,,,,,,,,,,,,,,,,,,,,,,,,,,,,,,,,,,,,,,,,569.7231378199995,None,569.7231378199995,None,569.7231378199995,None,h,0,6.097983143999954,571.2570140900007,None,571.2570140900007,None,571.2570140900007,None,577.4071086460008,None,577.4071086460008,None,577.4071086460008,None,577.4071086460008,None,,,,,,,,,,,,,,,,,,,,,,,,,,,,,,,,,,,,,,,,,,,,001,89,2020_Feb_06_1250,spring_faces,3.1.5,60.12136435241451,
condition files/Stage0c_1.xlsx,0c,theta,alpha,h,"['h', 'g']","['Chess', 'Go']","[-0.15, 0.5]","[0.15, 0.5]",1,1,0,12,12,12,0,3,3,0,,,,,,,,,,,,,,,,,,,,,,,,,,,,,,,,,,,,,,,,,,,,,,,,,,,,,,,,,,,,,,,579.3733941400005,None,579.3733941400005,None,579.3733941400005,None,h,1,1.5518812849986716,580.9071106480005,None,580.9071106480005,None,580.9071106480005,None,582.5231933129999,None,582.5231933129999,None,582.5231933129999,None,582.5231933129999,None,,,,,,,,,,,,,,,,,,,,,,,,,,,,,,,,,,,,,,,,,,,,001,89,2020_Feb_06_1250,spring_faces,3.1.5,60.12136435241451,
condition files/Stage0c_2.xlsx,0c,alpha,theta,h,"['h', 'g']","['Chess', 'Go']","[-0.15, 0.5]","[0.15, 0.5]",1,1,0,13,13,13,0,0,0,0,,,,,,,,,,,,,,,,,,,,,,,,,,,,,,,,,,,,,,,,,,,,,,,,,,,,,,,,,,,,,,,584.5069368780005,None,584.5069368780005,None,584.5069368780005,None,h,1,1.2024877490002837,586.0405161660001,None,586.0405161660001,None,586.0405161660001,None,587.2903347859992,None,587.2903347859992,None,587.2903347859992,None,587.2903347859992,None,,,,,,,,,,,,,,,,,,,,,,,,,,,,,,,,,,,,,,,,,,,,001,89,2020_Feb_06_1250,spring_faces,3.1.5,60.12136435241451,
condition files/Stage0c_2.xlsx,0c,beta,phi,g,"['h', 'g']","['Chess', 'Go']","[-0.15, 0.5]","[0.15, 0.5]",1,1,0,13,13,13,0,1,1,3,,,,,,,,,,,,,,,,,,,,,,,,,,,,,,,,,,,,,,,,,,,,,,,,,,,,,,,,,,,,,,,589.2733876519997,None,589.2733876519997,None,589.2733876519997,None,g,1,1.1239921849992243,590.8070423049994,None,590.8070423049994,None,590.8070423049994,None,591.9903724880005,None,591.9903724880005,None,591.9903724880005,None,591.9903724880005,None,,,,,,,,,,,,,,,,,,,,,,,,,,,,,,,,,,,,,,,,,,,,001,89,2020_Feb_06_1250,spring_faces,3.1.5,60.12136435241451,
condition files/Stage0c_2.xlsx,0c,phi,alpha,h,"['h', 'g']","['Chess', 'Go']","[-0.15, 0.5]","[0.15, 0.5]",1,1,0,13,13,13,0,2,2,1,,,,,,,,,,,,,,,,,,,,,,,,,,,,,,,,,,,,,,,,,,,,,,,,,,,,,,,,,,,,,,,593.9565988729992,None,593.9565988729992,None,593.9565988729992,None,h,1,2.6485948270001245,595.4903922129997,None,595.4903922129997,None,595.4903922129997,None,598.1903146509994,None,598.1903146509994,None,598.1903146509994,None,598.1903146509994,None,,,,,,,,,,,,,,,,,,,,,,,,,,,,,,,,,,,,,,,,,,,,001,89,2020_Feb_06_1250,spring_faces,3.1.5,60.12136435241451,
condition files/Stage0c_2.xlsx,0c,theta,beta,g,"['h', 'g']","['Chess', 'Go']","[-0.15, 0.5]","[0.15, 0.5]",1,1,0,13,13,13,0,3,3,2,,,,,,,,,,,,,,,,,,,,,,,,,,,,,,,,,,,,,,,,,,,,,,,,,,,,,,,,,,,,,,,600.1564150880004,None,600.1564150880004,None,600.1564150880004,None,g,1,2.6729091849992983,601.6900921880006,None,601.6900921880006,None,601.6900921880006,None,604.4236239029997,None,604.4236239029997,None,604.4236239029997,None,604.4236239029997,None,,,,,,,,,,,,,,,,,,,,,,,,,,,,,,,,,,,,,,,,,,,,001,89,2020_Feb_06_1250,spring_faces,3.1.5,60.12136435241451,
condition files/Stage0c_1.xlsx,0c,alpha,phi,h,"['h', 'g']","['Chess', 'Go']","[-0.15, 0.5]","[0.15, 0.5]",1,1,0,14,14,14,0,0,0,1,,,,,,,,,,,,,,,,,,,,,,,,,,,,,,,,,,,,,,,,,,,,,,,,,,,,,,,,,,,,,,,606.4073499639999,None,606.4073499639999,None,606.4073499639999,None,h,1,2.774769591000222,607.9402891240006,None,607.9402891240006,None,607.9402891240006,None,610.7739224279994,None,610.7739224279994,None,610.7739224279994,None,610.7739224279994,None,,,,,,,,,,,,,,,,,,,,,,,,,,,,,,,,,,,,,,,,,,,,001,89,2020_Feb_06_1250,spring_faces,3.1.5,60.12136435241451,
condition files/Stage0c_1.xlsx,0c,beta,theta,g,"['h', 'g']","['Chess', 'Go']","[-0.15, 0.5]","[0.15, 0.5]",1,1,0,14,14,14,0,1,1,2,,,,,,,,,,,,,,,,,,,,,,,,,,,,,,,,,,,,,,,,,,,,,,,,,,,,,,,,,,,,,,,612.7399740349992,None,612.7399740349992,None,612.7399740349992,None,g,1,1.481932880000386,614.2730733209992,None,614.2730733209992,None,614.2730733209992,None,615.8071378889999,None,615.8071378889999,None,615.8071378889999,None,615.8071378889999,None,,,,,,,,,,,,,,,,,,,,,,,,,,,,,,,,,,,,,,,,,,,,001,89,2020_Feb_06_1250,spring_faces,3.1.5,60.12136435241451,
condition files/Stage0c_1.xlsx,0c,phi,beta,g,"['h', 'g']","['Chess', 'Go']","[-0.15, 0.5]","[0.15, 0.5]",1,1,0,14,14,14,0,2,2,3,,,,,,,,,,,,,,,,,,,,,,,,,,,,,,,,,,,,,,,,,,,,,,,,,,,,,,,,,,,,,,,617.7727899929996,None,617.7727899929996,None,617.7727899929996,None,g,1,0.8638498870004696,619.3071367800003,None,619.3071367800003,None,619.3071367800003,None,620.2071817239994,None,620.2071817239994,None,620.2071817239994,None,620.2071817239994,None,,,,,,,,,,,,,,,,,,,,,,,,,,,,,,,,,,,,,,,,,,,,001,89,2020_Feb_06_1250,spring_faces,3.1.5,60.12136435241451,
condition files/Stage0c_1.xlsx,0c,theta,alpha,h,"['h', 'g']","['Chess', 'Go']","[-0.15, 0.5]","[0.15, 0.5]",1,1,0,14,14,14,0,3,3,0,,,,,,,,,,,,,,,,,,,,,,,,,,,,,,,,,,,,,,,,,,,,,,,,,,,,,,,,,,,,,,,622.2067985619997,None,622.2067985619997,None,622.2067985619997,None,h,1,0.8471037839990458,623.7238879260003,None,623.7238879260003,None,623.7238879260003,None,624.624030162,None,624.624030162,None,624.624030162,None,624.624030162,None,,,,,,,,,,,,,,,,,,,,,,,,,,,,,,,,,,,,,,,,,,,,001,89,2020_Feb_06_1250,spring_faces,3.1.5,60.12136435241451,
condition files/Stage0c_2.xlsx,0c,phi,alpha,h,"['h', 'g']","['Chess', 'Go']","[-0.15, 0.5]","[0.15, 0.5]",1,1,0,15,15,15,0,0,0,1,,,,,,,,,,,,,,,,,,,,,,,,,,,,,,,,,,,,,,,,,,,,,,,,,,,,,,,,,,,,,,,626.6070498379995,None,626.6070498379995,None,626.6070498379995,None,h,1,1.4865494360001321,628.1404636019997,None,628.1404636019997,None,628.1404636019997,None,629.673891081,None,629.673891081,None,629.673891081,None,629.673891081,None,,,,,,,,,,,,,,,,,,,,,,,,,,,,,,,,,,,,,,,,,,,,001,89,2020_Feb_06_1250,spring_faces,3.1.5,60.12136435241451,
condition files/Stage0c_2.xlsx,0c,beta,phi,g,"['h', 'g']","['Chess', 'Go']","[-0.15, 0.5]","[0.15, 0.5]",1,1,0,15,15,15,0,1,1,3,,,,,,,,,,,,,,,,,,,,,,,,,,,,,,,,,,,,,,,,,,,,,,,,,,,,,,,,,,,,,,,631.6567331019996,None,631.6567331019996,None,631.6567331019996,None,g,1,0.932342306999999,633.1906477320008,None,633.1906477320008,None,633.1906477320008,None,634.1731055019991,None,634.1731055019991,None,634.1731055019991,None,634.1731055019991,None,,,,,,,,,,,,,,,,,,,,,,,,,,,,,,,,,,,,,,,,,,,,001,89,2020_Feb_06_1250,spring_faces,3.1.5,60.12136435241451,
condition files/Stage0c_2.xlsx,0c,alpha,theta,h,"['h', 'g']","['Chess', 'Go']","[-0.15, 0.5]","[0.15, 0.5]",1,1,0,15,15,15,0,2,2,0,,,,,,,,,,,,,,,,,,,,,,,,,,,,,,,,,,,,,,,,,,,,,,,,,,,,,,,,,,,,,,,636.1401039800003,None,636.1401039800003,None,636.1401039800003,None,h,1,0.8970665050001116,637.6739184969992,None,637.6739184969992,None,637.6739184969992,None,638.6238682780004,None,638.6238682780004,None,638.6238682780004,None,638.6238682780004,None,,,,,,,,,,,,,,,,,,,,,,,,,,,,,,,,,,,,,,,,,,,,001,89,2020_Feb_06_1250,spring_faces,3.1.5,60.12136435241451,
condition files/Stage0c_2.xlsx,0c,theta,beta,g,"['h', 'g']","['Chess', 'Go']","[-0.15, 0.5]","[0.15, 0.5]",1,1,0,15,15,15,0,3,3,2,,,,,,,,,,,,,,,,,,,,,,,,,,,,,,,,,,,,,,,,,,,,,,,,,,,,,,,,,,,,,,,640.5899899779997,None,640.5899899779997,None,640.5899899779997,None,g,1,0.7831136180011526,642.12387141,None,642.12387141,None,642.12387141,None,642.956840797,None,642.956840797,None,642.956840797,None,642.956840797,None,,,,,,,,,,,,,,,,,,,,,,,,,,,,,,,,,,,,,,,,,,,,001,89,2020_Feb_06_1250,spring_faces,3.1.5,60.12136435241451,
condition files/Stage0c_1.xlsx,0c,phi,beta,g,"['h', 'g']","['Chess', 'Go']","[-0.15, 0.5]","[0.15, 0.5]",1,1,0,16,16,16,0,0,0,3,,,,,,,,,,,,,,,,,,,,,,,,,,,,,,,,,,,,,,,,,,,,,,,,,,,,,,,,,,,,,,,644.9401017979999,None,644.9401017979999,None,644.9401017979999,None,h,0,0.9615628579995246,646.4734295380003,None,646.4734295380003,None,646.4734295380003,None,647.4743683880006,None,647.4743683880006,None,647.4743683880006,None,647.4743683880006,None,,,,,,,,,,,,,,,,,,,,,,,,,,,,,,,,,,,,,,,,,,,,001,89,2020_Feb_06_1250,spring_faces,3.1.5,60.12136435241451,
condition files/Stage0c_1.xlsx,0c,alpha,phi,h,"['h', 'g']","['Chess', 'Go']","[-0.15, 0.5]","[0.15, 0.5]",1,1,0,16,16,16,0,1,1,1,,,,,,,,,,,,,,,,,,,,,,,,,,,,,,,,,,,,,,,,,,,,,,,,,,,,,,,,,,,,,,,649.4558706150001,None,649.4558706150001,None,649.4558706150001,None,h,1,0.989181113000086,650.989823414,None,650.989823414,None,650.989823414,None,652.0403990670002,None,652.0403990670002,None,652.0403990670002,None,652.0403990670002,None,,,,,,,,,,,,,,,,,,,,,,,,,,,,,,,,,,,,,,,,,,,,001,89,2020_Feb_06_1250,spring_faces,3.1.5,60.12136435241451,
condition files/Stage0c_1.xlsx,0c,beta,theta,g,"['h', 'g']","['Chess', 'Go']","[-0.15, 0.5]","[0.15, 0.5]",1,1,0,16,16,16,0,2,2,2,,,,,,,,,,,,,,,,,,,,,,,,,,,,,,,,,,,,,,,,,,,,,,,,,,,,,,,,,,,,,,,654.0067000899999,None,654.0067000899999,None,654.0067000899999,None,g,1,0.34228692400029104,655.5406790979996,None,655.5406790979996,None,655.5406790979996,None,655.9407025050004,None,655.9407025050004,None,655.9407025050004,None,655.9407025050004,None,,,,,,,,,,,,,,,,,,,,,,,,,,,,,,,,,,,,,,,,,,,,001,89,2020_Feb_06_1250,spring_faces,3.1.5,60.12136435241451,
condition files/Stage0c_1.xlsx,0c,theta,alpha,h,"['h', 'g']","['Chess', 'Go']","[-0.15, 0.5]","[0.15, 0.5]",1,1,0,16,16,16,0,3,3,0,,,,,,,,,,,,,,,,,,,,,,,,,,,,,,,,,,,,,,,,,,,,,,,,,,,,,,,,,,,,,,,657.9064772399997,None,657.9064772399997,None,657.9064772399997,None,h,1,1.3705533319989627,659.4404522339992,None,659.4404522339992,None,659.4404522339992,None,660.8735938770005,None,660.8735938770005,None,660.8735938770005,None,660.8735938770005,None,,,,,,,,,,,,,,,,,,,,,,,,,,,,,,,,,,,,,,,,,,,,001,89,2020_Feb_06_1250,spring_faces,3.1.5,60.12136435241451,
condition files/Stage0c_2.xlsx,0c,beta,phi,g,"['h', 'g']","['Chess', 'Go']","[-0.15, 0.5]","[0.15, 0.5]",1,1,0,17,17,17,0,0,0,3,,,,,,,,,,,,,,,,,,,,,,,,,,,,,,,,,,,,,,,,,,,,,,,,,,,,,,,,,,,,,,,662.8571892460004,None,662.8571892460004,None,662.8571892460004,None,g,1,0.6291743170004338,664.3738214410005,None,664.3738214410005,None,664.3738214410005,None,665.0571399290002,None,665.0571399290002,None,665.0571399290002,None,665.0571399290002,None,,,,,,,,,,,,,,,,,,,,,,,,,,,,,,,,,,,,,,,,,,,,001,89,2020_Feb_06_1250,spring_faces,3.1.5,60.12136435241451,
condition files/Stage0c_2.xlsx,0c,alpha,theta,h,"['h', 'g']","['Chess', 'Go']","[-0.15, 0.5]","[0.15, 0.5]",1,1,0,17,17,17,0,1,1,0,,,,,,,,,,,,,,,,,,,,,,,,,,,,,,,,,,,,,,,,,,,,,,,,,,,,,,,,,,,,,,,667.0233385129995,None,667.0233385129995,None,667.0233385129995,None,h,1,1.3901315029997932,668.5568081239999,None,668.5568081239999,None,668.5568081239999,None,670.0070799580008,None,670.0070799580008,None,670.0070799580008,None,670.0070799580008,None,,,,,,,,,,,,,,,,,,,,,,,,,,,,,,,,,,,,,,,,,,,,001,89,2020_Feb_06_1250,spring_faces,3.1.5,60.12136435241451,
condition files/Stage0c_2.xlsx,0c,theta,beta,g,"['h', 'g']","['Chess', 'Go']","[-0.15, 0.5]","[0.15, 0.5]",1,1,0,17,17,17,0,2,2,2,,,,,,,,,,,,,,,,,,,,,,,,,,,,,,,,,,,,,,,,,,,,,,,,,,,,,,,,,,,,,,,671.9728718959996,None,671.9728718959996,None,671.9728718959996,None,g,1,0.7282045539996034,673.5067699039992,None,673.5067699039992,None,673.5067699039992,None,674.2905866799993,None,674.2905866799993,None,674.2905866799993,None,674.2905866799993,None,,,,,,,,,,,,,,,,,,,,,,,,,,,,,,,,,,,,,,,,,,,,001,89,2020_Feb_06_1250,spring_faces,3.1.5,60.12136435241451,
condition files/Stage0c_2.xlsx,0c,phi,alpha,h,"['h', 'g']","['Chess', 'Go']","[-0.15, 0.5]","[0.15, 0.5]",1,1,0,17,17,17,0,3,3,1,,,,,,,,,,,,,,,,,,,,,,,,,,,,,,,,,,,,,,,,,,,,,,,,,,,,,,,,,,,,,,,676.2560965840003,None,676.2560965840003,None,676.2560965840003,None,h,1,1.0687904869992053,677.7902007289995,None,677.7902007289995,None,677.7902007289995,None,678.9231191620001,None,678.9231191620001,None,678.9231191620001,None,678.9231191620001,None,,,,,,,,,,,,,,,,,,,,,,,,,,,,,,,,,,,,,,,,,,,,001,89,2020_Feb_06_1250,spring_faces,3.1.5,60.12136435241451,
,,,,,,,,,,,,,,,,,,,,,,,,,,,,,,,,,,,,,,,,,,,,,,,,,,,,,,,,,,,,,,,,,,,,,,,,,,,,,,,,,,,,,,,,,,,,,,,,,,,,,,,,680.9071045750006,None,space,0.9203654280008777,685.9066468469991,None,,,,,,,,,,,,,,,,,,,,,,,,,,,,,,,,,,,,,,001,89,2020_Feb_06_1250,spring_faces,3.1.5,60.12136435241451,
condition files/Stage1_1.xlsx,,T4,B3,m,"['c', 'm']","['Clue', 'Monopoly']","[-0.15, 0.5]","[0.15, 0.5]",1,1,,,,,,,,,0,0,0,0,0,0,0,6,,,,,,,,,,,,,,,,,,,,,,,,,,,,,,,,,,,,,,,,,,,,,,,,,,,,,,,686.890092439,None,686.890092439,None,686.890092439,None,c,0,7.107226973001161,688.4238433150003,None,688.4238433150003,None,688.4238433150003,None,695.6070383440001,None,695.6070383440001,None,695.6070383440001,None,695.6070383440001,None,,,,,,,685.9066468469991,None,,,,,,,,,,,,,,,,,,,,,,,,,,,,,,,,,,,,001,89,2020_Feb_06_1250,spring_faces,3.1.5,60.12136435241451,
condition files/Stage1_1.xlsx,,B4,T4,m,"['c', 'm']","['Clue', 'Monopoly']","[-0.15, 0.5]","[0.15, 0.5]",1,1,,,,,,,,,0,0,0,0,0,1,1,7,,,,,,,,,,,,,,,,,,,,,,,,,,,,,,,,,,,,,,,,,,,,,,,,,,,,,,,697.5562637570001,None,697.5562637570001,None,697.5562637570001,None,m,1,1.3033756029999495,699.0916402660005,None,699.0916402660005,None,699.0916402660005,None,700.4563727540008,None,700.4563727540008,None,700.4563727540008,None,700.4563727540008,None,,,,,,,,,,,,,,,,,,,,,,,,,,,,,,,,,,,,,,,,,,,,001,89,2020_Feb_06_1250,spring_faces,3.1.5,60.12136435241451,
condition files/Stage1_1.xlsx,,T3,B4,c,"['c', 'm']","['Clue', 'Monopoly']","[-0.15, 0.5]","[0.15, 0.5]",1,1,,,,,,,,,0,0,0,0,0,2,2,5,,,,,,,,,,,,,,,,,,,,,,,,,,,,,,,,,,,,,,,,,,,,,,,,,,,,,,,702.4228945449995,None,702.4228945449995,None,702.4228945449995,None,m,0,1.4284514390001277,703.9585565819998,None,703.9585565819998,None,703.9585565819998,None,705.4402615609997,None,705.4402615609997,None,705.4402615609997,None,705.4402615609997,None,,,,,,,,,,,,,,,,,,,,,,,,,,,,,,,,,,,,,,,,,,,,001,89,2020_Feb_06_1250,spring_faces,3.1.5,60.12136435241451,
condition files/Stage1_1.xlsx,,T1,B1,c,"['c', 'm']","['Clue', 'Monopoly']","[-0.15, 0.5]","[0.15, 0.5]",1,1,,,,,,,,,0,0,0,0,0,3,3,0,,,,,,,,,,,,,,,,,,,,,,,,,,,,,,,,,,,,,,,,,,,,,,,,,,,,,,,707.4061494729995,None,707.4061494729995,None,707.4061494729995,None,c,1,1.3739043139994465,708.9571509990001,None,708.9571509990001,None,708.9571509990001,None,710.3906870989995,None,710.3906870989995,None,710.3906870989995,None,710.3906870989995,None,,,,,,,,,,,,,,,,,,,,,,,,,,,,,,,,,,,,,,,,,,,,001,89,2020_Feb_06_1250,spring_faces,3.1.5,60.12136435241451,
condition files/Stage1_1.xlsx,,B1,T2,c,"['c', 'm']","['Clue', 'Monopoly']","[-0.15, 0.5]","[0.15, 0.5]",1,1,,,,,,,,,0,0,0,0,0,4,4,1,,,,,,,,,,,,,,,,,,,,,,,,,,,,,,,,,,,,,,,,,,,,,,,,,,,,,,,712.3560019779998,None,712.3560019779998,None,712.3560019779998,None,m,0,2.2961871229999815,713.9067779889992,None,713.9067779889992,None,713.9067779889992,None,716.2584541239994,None,716.2584541239994,None,716.2584541239994,None,716.2584541239994,None,,,,,,,,,,,,,,,,,,,,,,,,,,,,,,,,,,,,,,,,,,,,001,89,2020_Feb_06_1250,spring_faces,3.1.5,60.12136435241451,
condition files/Stage1_1.xlsx,,B3,T3,c,"['c', 'm']","['Clue', 'Monopoly']","[-0.15, 0.5]","[0.15, 0.5]",1,1,,,,,,,,,0,0,0,0,0,5,5,4,,,,,,,,,,,,,,,,,,,,,,,,,,,,,,,,,,,,,,,,,,,,,,,,,,,,,,,718.2231711969998,None,718.2231711969998,None,718.2231711969998,None,m,0,1.2300638700016862,719.7568683980007,None,719.7568683980007,None,719.7568683980007,None,721.040416373,None,721.040416373,None,721.040416373,None,721.040416373,None,,,,,,,,,,,,,,,,,,,,,,,,,,,,,,,,,,,,,,,,,,,,001,89,2020_Feb_06_1250,spring_faces,3.1.5,60.12136435241451,
condition files/Stage1_1.xlsx,,B2,T1,m,"['c', 'm']","['Clue', 'Monopoly']","[-0.15, 0.5]","[0.15, 0.5]",1,1,,,,,,,,,0,0,0,0,0,6,6,2,,,,,,,,,,,,,,,,,,,,,,,,,,,,,,,,,,,,,,,,,,,,,,,,,,,,,,,723.0066262790006,None,723.0066262790006,None,723.0066262790006,None,c,0,1.4387324230010563,724.5402752259997,None,724.5402752259997,None,724.5402752259997,None,726.04201723,None,726.04201723,None,726.04201723,None,726.04201723,None,,,,,,,,,,,,,,,,,,,,,,,,,,,,,,,,,,,,,,,,,,,,001,89,2020_Feb_06_1250,spring_faces,3.1.5,60.12136435241451,
condition files/Stage1_1.xlsx,,T2,B2,m,"['c', 'm']","['Clue', 'Monopoly']","[-0.15, 0.5]","[0.15, 0.5]",1,1,,,,,,,,,0,0,0,0,0,7,7,3,,,,,,,,,,,,,,,,,,,,,,,,,,,,,,,,,,,,,,,,,,,,,,,,,,,,,,,728.0068537700008,None,728.0068537700008,None,728.0068537700008,None,m,1,1.0151460439992661,729.5398084980006,None,729.5398084980006,None,729.5398084980006,None,730.6063707909998,None,730.6063707909998,None,730.6063707909998,None,730.6063707909998,None,,,,,,,,,,,,,,,,,,,,,,,,,,,,,,,,,,,,,,,,,,,,001,89,2020_Feb_06_1250,spring_faces,3.1.5,60.12136435241451,
condition files/Stage1_2.xlsx,,T3,B3,c,"['c', 'm']","['Clue', 'Monopoly']","[-0.15, 0.5]","[0.15, 0.5]",1,1,,,,,,,,,0,1,1,1,0,0,0,4,,,,,,,,,,,,,,,,,,,,,,,,,,,,,,,,,,,,,,,,,,,,,,,,,,,,,,,732.5904825319994,None,732.5904825319994,None,732.5904825319994,None,c,1,1.2623547969997162,734.1246658559994,None,734.1246658559994,None,734.1246658559994,None,735.4419277960005,None,735.4419277960005,None,735.4419277960005,None,735.4419277960005,None,,,,,,,,,,,,,,,,,,,,,,,,,,,,,,,,,,,,,,,,,,,,001,89,2020_Feb_06_1250,spring_faces,3.1.5,60.12136435241451,
condition files/Stage1_2.xlsx,,B1,T1,c,"['c', 'm']","['Clue', 'Monopoly']","[-0.15, 0.5]","[0.15, 0.5]",1,1,,,,,,,,,0,1,1,1,0,1,1,0,,,,,,,,,,,,,,,,,,,,,,,,,,,,,,,,,,,,,,,,,,,,,,,,,,,,,,,737.4066486800002,None,737.4066486800002,None,737.4066486800002,None,c,1,1.6939678690014262,738.9569962770001,None,738.9569962770001,None,738.9569962770001,None,740.7066563980006,None,740.7066563980006,None,740.7066563980006,None,740.7066563980006,None,,,,,,,,,,,,,,,,,,,,,,,,,,,,,,,,,,,,,,,,,,,,001,89,2020_Feb_06_1250,spring_faces,3.1.5,60.12136435241451,
condition files/Stage1_2.xlsx,,T4,B4,m,"['c', 'm']","['Clue', 'Monopoly']","[-0.15, 0.5]","[0.15, 0.5]",1,1,,,,,,,,,0,1,1,1,0,2,2,7,,,,,,,,,,,,,,,,,,,,,,,,,,,,,,,,,,,,,,,,,,,,,,,,,,,,,,,742.6733506630007,None,742.6733506630007,None,742.6733506630007,None,m,1,1.7234582979999686,744.2076440319997,None,744.2076440319997,None,744.2076440319997,None,746.0069923529991,None,746.0069923529991,None,746.0069923529991,None,746.0069923529991,None,,,,,,,,,,,,,,,,,,,,,,,,,,,,,,,,,,,,,,,,,,,,001,89,2020_Feb_06_1250,spring_faces,3.1.5,60.12136435241451,
condition files/Stage1_2.xlsx,,T2,B1,c,"['c', 'm']","['Clue', 'Monopoly']","[-0.15, 0.5]","[0.15, 0.5]",1,1,,,,,,,,,0,1,1,1,0,3,3,1,,,,,,,,,,,,,,,,,,,,,,,,,,,,,,,,,,,,,,,,,,,,,,,,,,,,,,,747.9565404549994,None,747.9565404549994,None,747.9565404549994,None,m,0,2.1681565390008473,749.4908651810001,None,749.4908651810001,None,749.4908651810001,None,751.7405761730006,None,751.7405761730006,None,751.7405761730006,None,751.7405761730006,None,,,,,,,,,,,,,,,,,,,,,,,,,,,,,,,,,,,,,,,,,,,,001,89,2020_Feb_06_1250,spring_faces,3.1.5,60.12136435241451,
condition files/Stage1_2.xlsx,,B3,T4,m,"['c', 'm']","['Clue', 'Monopoly']","[-0.15, 0.5]","[0.15, 0.5]",1,1,,,,,,,,,0,1,1,1,0,4,4,6,,,,,,,,,,,,,,,,,,,,,,,,,,,,,,,,,,,,,,,,,,,,,,,,,,,,,,,753.6901512339991,None,753.6901512339991,None,753.6901512339991,None,m,1,1.3785950829987996,755.2244272129992,None,755.2244272129992,None,755.2244272129992,None,756.673396491,None,756.673396491,None,756.673396491,None,756.673396491,None,,,,,,,,,,,,,,,,,,,,,,,,,,,,,,,,,,,,,,,,,,,,001,89,2020_Feb_06_1250,spring_faces,3.1.5,60.12136435241451,
condition files/Stage1_2.xlsx,,B4,T3,c,"['c', 'm']","['Clue', 'Monopoly']","[-0.15, 0.5]","[0.15, 0.5]",1,1,,,,,,,,,0,1,1,1,0,5,5,5,,,,,,,,,,,,,,,,,,,,,,,,,,,,,,,,,,,,,,,,,,,,,,,,,,,,,,,758.6234590690001,None,758.6234590690001,None,758.6234590690001,None,c,1,1.0852919239987386,760.1737076410009,None,760.1737076410009,None,760.1737076410009,None,761.3240480219993,None,761.3240480219993,None,761.3240480219993,None,761.3240480219993,None,,,,,,,,,,,,,,,,,,,,,,,,,,,,,,,,,,,,,,,,,,,,001,89,2020_Feb_06_1250,spring_faces,3.1.5,60.12136435241451,
condition files/Stage1_2.xlsx,,T1,B2,m,"['c', 'm']","['Clue', 'Monopoly']","[-0.15, 0.5]","[0.15, 0.5]",1,1,,,,,,,,,0,1,1,1,0,6,6,2,,,,,,,,,,,,,,,,,,,,,,,,,,,,,,,,,,,,,,,,,,,,,,,,,,,,,,,763.290031048,None,763.290031048,None,763.290031048,None,c,0,1.5862011270000949,764.8407960109998,None,764.8407960109998,None,764.8407960109998,None,766.4925637439992,None,766.4925637439992,None,766.4925637439992,None,766.4925637439992,None,,,,,,,,,,,,,,,,,,,,,,,,,,,,,,,,,,,,,,,,,,,,001,89,2020_Feb_06_1250,spring_faces,3.1.5,60.12136435241451,
condition files/Stage1_2.xlsx,,B2,T2,m,"['c', 'm']","['Clue', 'Monopoly']","[-0.15, 0.5]","[0.15, 0.5]",1,1,,,,,,,,,0,1,1,1,0,7,7,3,,,,,,,,,,,,,,,,,,,,,,,,,,,,,,,,,,,,,,,,,,,,,,,,,,,,,,,768.4565556760008,None,768.4565556760008,None,768.4565556760008,None,m,1,0.8675260720010556,769.9914827659995,None,769.9914827659995,None,769.9914827659995,None,770.9233553270005,None,770.9233553270005,None,770.9233553270005,None,770.9233553270005,None,,,,,,,,,,,,,,,,,,,,,,,,,,,,,,,,,,,,,,,,,,,,001,89,2020_Feb_06_1250,spring_faces,3.1.5,60.12136435241451,
condition files/Stage1_1.xlsx,,B4,T4,m,"['c', 'm']","['Clue', 'Monopoly']","[-0.15, 0.5]","[0.15, 0.5]",1,1,,,,,,,,,0,2,2,2,0,0,0,7,,,,,,,,,,,,,,,,,,,,,,,,,,,,,,,,,,,,,,,,,,,,,,,,,,,,,,,772.9066175429998,None,772.9066175429998,None,772.9066175429998,None,m,1,1.1854652949987212,774.4415492989992,None,774.4415492989992,None,774.4415492989992,None,775.6904640800003,None,775.6904640800003,None,775.6904640800003,None,775.6904640800003,None,,,,,,,,,,,,,,,,,,,,,,,,,,,,,,,,,,,,,,,,,,,,001,89,2020_Feb_06_1250,spring_faces,3.1.5,60.12136435241451,
condition files/Stage1_1.xlsx,,T2,B2,m,"['c', 'm']","['Clue', 'Monopoly']","[-0.15, 0.5]","[0.15, 0.5]",1,1,,,,,,,,,0,2,2,2,0,1,1,3,,,,,,,,,,,,,,,,,,,,,,,,,,,,,,,,,,,,,,,,,,,,,,,,,,,,,,,777.6567213159997,None,777.6567213159997,None,777.6567213159997,None,c,0,1.1085491070007265,779.1905366360006,None,779.1905366360006,None,779.1905366360006,None,780.3564626160005,None,780.3564626160005,None,780.3564626160005,None,780.3564626160005,None,,,,,,,,,,,,,,,,,,,,,,,,,,,,,,,,,,,,,,,,,,,,001,89,2020_Feb_06_1250,spring_faces,3.1.5,60.12136435241451,
condition files/Stage1_1.xlsx,,T3,B4,c,"['c', 'm']","['Clue', 'Monopoly']","[-0.15, 0.5]","[0.15, 0.5]",1,1,,,,,,,,,0,2,2,2,0,2,2,5,,,,,,,,,,,,,,,,,,,,,,,,,,,,,,,,,,,,,,,,,,,,,,,,,,,,,,,782.3228785289994,None,782.3228785289994,None,782.3228785289994,None,c,1,1.0654620540008182,783.8575380050006,None,783.8575380050006,None,783.8575380050006,None,784.9896940889994,None,784.9896940889994,None,784.9896940889994,None,784.9896940889994,None,,,,,,,,,,,,,,,,,,,,,,,,,,,,,,,,,,,,,,,,,,,,001,89,2020_Feb_06_1250,spring_faces,3.1.5,60.12136435241451,
condition files/Stage1_1.xlsx,,B3,T3,c,"['c', 'm']","['Clue', 'Monopoly']","[-0.15, 0.5]","[0.15, 0.5]",1,1,,,,,,,,,0,2,2,2,0,3,3,4,,,,,,,,,,,,,,,,,,,,,,,,,,,,,,,,,,,,,,,,,,,,,,,,,,,,,,,786.9398660169991,None,786.9398660169991,None,786.9398660169991,None,c,1,3.1377348819987674,788.4732489639991,None,788.4732489639991,None,788.4732489639991,None,791.6733689880002,None,791.6733689880002,None,791.6733689880002,None,791.6733689880002,None,,,,,,,,,,,,,,,,,,,,,,,,,,,,,,,,,,,,,,,,,,,,001,89,2020_Feb_06_1250,spring_faces,3.1.5,60.12136435241451,
condition files/Stage1_1.xlsx,,B1,T2,c,"['c', 'm']","['Clue', 'Monopoly']","[-0.15, 0.5]","[0.15, 0.5]",1,1,,,,,,,,,0,2,2,2,0,4,4,1,,,,,,,,,,,,,,,,,,,,,,,,,,,,,,,,,,,,,,,,,,,,,,,,,,,,,,,793.6401689089998,None,793.6401689089998,None,793.6401689089998,None,m,0,2.0682507469991833,795.1747612920008,None,795.1747612920008,None,795.1747612920008,None,797.3070594929995,None,797.3070594929995,None,797.3070594929995,None,797.3070594929995,None,,,,,,,,,,,,,,,,,,,,,,,,,,,,,,,,,,,,,,,,,,,,001,89,2020_Feb_06_1250,spring_faces,3.1.5,60.12136435241451,
condition files/Stage1_1.xlsx,,T4,B3,m,"['c', 'm']","['Clue', 'Monopoly']","[-0.15, 0.5]","[0.15, 0.5]",1,1,,,,,,,,,0,2,2,2,0,5,5,6,,,,,,,,,,,,,,,,,,,,,,,,,,,,,,,,,,,,,,,,,,,,,,,,,,,,,,,799.27310124,None,799.27310124,None,799.27310124,None,m,1,0.6908703330009303,800.8082089910004,None,800.8082089910004,None,800.8082089910004,None,801.5737736419997,None,801.5737736419997,None,801.5737736419997,None,801.5737736419997,None,,,,,,,,,,,,,,,,,,,,,,,,,,,,,,,,,,,,,,,,,,,,001,89,2020_Feb_06_1250,spring_faces,3.1.5,60.12136435241451,
condition files/Stage1_1.xlsx,,T1,B1,c,"['c', 'm']","['Clue', 'Monopoly']","[-0.15, 0.5]","[0.15, 0.5]",1,1,,,,,,,,,0,2,2,2,0,6,6,0,,,,,,,,,,,,,,,,,,,,,,,,,,,,,,,,,,,,,,,,,,,,,,,,,,,,,,,803.5231268690004,None,803.5231268690004,None,803.5231268690004,None,c,1,1.5125913609990675,805.0584032719999,None,805.0584032719999,None,805.0584032719999,None,806.6404626359999,None,806.6404626359999,None,806.6404626359999,None,806.6404626359999,None,,,,,,,,,,,,,,,,,,,,,,,,,,,,,,,,,,,,,,,,,,,,001,89,2020_Feb_06_1250,spring_faces,3.1.5,60.12136435241451,
condition files/Stage1_1.xlsx,,B2,T1,m,"['c', 'm']","['Clue', 'Monopoly']","[-0.15, 0.5]","[0.15, 0.5]",1,1,,,,,,,,,0,2,2,2,0,7,7,2,,,,,,,,,,,,,,,,,,,,,,,,,,,,,,,,,,,,,,,,,,,,,,,,,,,,,,,808.5894690299992,None,808.5894690299992,None,808.5894690299992,None,c,0,2.59045419100039,810.1406169860002,None,810.1406169860002,None,810.1406169860002,None,812.7925151380005,None,812.7925151380005,None,812.7925151380005,None,812.7925151380005,None,,,,,,,,,,,,,,,,,,,,,,,,,,,,,,,,,,,,,,,,,,,,001,89,2020_Feb_06_1250,spring_faces,3.1.5,60.12136435241451,
condition files/Stage1_2.xlsx,,T4,B4,m,"['c', 'm']","['Clue', 'Monopoly']","[-0.15, 0.5]","[0.15, 0.5]",1,1,,,,,,,,,0,3,3,3,0,0,0,7,,,,,,,,,,,,,,,,,,,,,,,,,,,,,,,,,,,,,,,,,,,,,,,,,,,,,,,814.7731061699997,None,814.7731061699997,None,814.7731061699997,None,m,1,1.1280440270002146,816.3069247950007,None,816.3069247950007,None,816.3069247950007,None,817.4905001080006,None,817.4905001080006,None,817.4905001080006,None,817.4905001080006,None,,,,,,,,,,,,,,,,,,,,,,,,,,,,,,,,,,,,,,,,,,,,001,89,2020_Feb_06_1250,spring_faces,3.1.5,60.12136435241451,
condition files/Stage1_2.xlsx,,T2,B1,c,"['c', 'm']","['Clue', 'Monopoly']","[-0.15, 0.5]","[0.15, 0.5]",1,1,,,,,,,,,0,3,3,3,0,1,1,1,,,,,,,,,,,,,,,,,,,,,,,,,,,,,,,,,,,,,,,,,,,,,,,,,,,,,,,819.4560930330008,None,819.4560930330008,None,819.4560930330008,None,c,1,3.052032940000572,821.0069678510008,None,821.0069678510008,None,821.0069678510008,None,824.124115089,None,824.124115089,None,824.124115089,None,824.124115089,None,,,,,,,,,,,,,,,,,,,,,,,,,,,,,,,,,,,,,,,,,,,,001,89,2020_Feb_06_1250,spring_faces,3.1.5,60.12136435241451,
condition files/Stage1_2.xlsx,,T3,B3,c,"['c', 'm']","['Clue', 'Monopoly']","[-0.15, 0.5]","[0.15, 0.5]",1,1,,,,,,,,,0,3,3,3,0,2,2,4,,,,,,,,,,,,,,,,,,,,,,,,,,,,,,,,,,,,,,,,,,,,,,,,,,,,,,,826.0894935180004,None,826.0894935180004,None,826.0894935180004,None,c,1,1.1546421139992162,827.6403445180003,None,827.6403445180003,None,827.6403445180003,None,828.8581058769996,None,828.8581058769996,None,828.8581058769996,None,828.8581058769996,None,,,,,,,,,,,,,,,,,,,,,,,,,,,,,,,,,,,,,,,,,,,,001,89,2020_Feb_06_1250,spring_faces,3.1.5,60.12136435241451,
condition files/Stage1_2.xlsx,,B1,T1,c,"['c', 'm']","['Clue', 'Monopoly']","[-0.15, 0.5]","[0.15, 0.5]",1,1,,,,,,,,,0,3,3,3,0,3,3,0,,,,,,,,,,,,,,,,,,,,,,,,,,,,,,,,,,,,,,,,,,,,,,,,,,,,,,,830.8234219909991,None,830.8234219909991,None,830.8234219909991,None,c,1,2.436516137999206,832.3585052769995,None,832.3585052769995,None,832.3585052769995,None,834.8570329689992,None,834.8570329689992,None,834.8570329689992,None,834.8570329689992,None,,,,,,,,,,,,,,,,,,,,,,,,,,,,,,,,,,,,,,,,,,,,001,89,2020_Feb_06_1250,spring_faces,3.1.5,60.12136435241451,
condition files/Stage1_2.xlsx,,B3,T4,m,"['c', 'm']","['Clue', 'Monopoly']","[-0.15, 0.5]","[0.15, 0.5]",1,1,,,,,,,,,0,3,3,3,0,4,4,6,,,,,,,,,,,,,,,,,,,,,,,,,,,,,,,,,,,,,,,,,,,,,,,,,,,,,,,836.8234275769992,None,836.8234275769992,None,836.8234275769992,None,m,1,2.9009993899999245,838.3580017229997,None,838.3580017229997,None,838.3580017229997,None,841.3247468819991,None,841.3247468819991,None,841.3247468819991,None,841.3247468819991,None,,,,,,,,,,,,,,,,,,,,,,,,,,,,,,,,,,,,,,,,,,,,001,89,2020_Feb_06_1250,spring_faces,3.1.5,60.12136435241451,
condition files/Stage1_2.xlsx,,B4,T3,c,"['c', 'm']","['Clue', 'Monopoly']","[-0.15, 0.5]","[0.15, 0.5]",1,1,,,,,,,,,0,3,3,3,0,5,5,5,,,,,,,,,,,,,,,,,,,,,,,,,,,,,,,,,,,,,,,,,,,,,,,,,,,,,,,843.2896790359991,None,843.2896790359991,None,843.2896790359991,None,c,1,1.0759932620003383,844.8230862500004,None,844.8230862500004,None,844.8230862500004,None,845.9735548480003,None,845.9735548480003,None,845.9735548480003,None,845.9735548480003,None,,,,,,,,,,,,,,,,,,,,,,,,,,,,,,,,,,,,,,,,,,,,001,89,2020_Feb_06_1250,spring_faces,3.1.5,60.12136435241451,
condition files/Stage1_2.xlsx,,T1,B2,m,"['c', 'm']","['Clue', 'Monopoly']","[-0.15, 0.5]","[0.15, 0.5]",1,1,,,,,,,,,0,3,3,3,0,6,6,2,,,,,,,,,,,,,,,,,,,,,,,,,,,,,,,,,,,,,,,,,,,,,,,,,,,,,,,847.9228334660002,None,847.9228334660002,None,847.9228334660002,None,m,1,0.6816116360005253,849.4574016570004,None,849.4574016570004,None,849.4574016570004,None,850.1903316850003,None,850.1903316850003,None,850.1903316850003,None,850.1903316850003,None,,,,,,,,,,,,,,,,,,,,,,,,,,,,,,,,,,,,,,,,,,,,001,89,2020_Feb_06_1250,spring_faces,3.1.5,60.12136435241451,
condition files/Stage1_2.xlsx,,B2,T2,m,"['c', 'm']","['Clue', 'Monopoly']","[-0.15, 0.5]","[0.15, 0.5]",1,1,,,,,,,,,0,3,3,3,0,7,7,3,,,,,,,,,,,,,,,,,,,,,,,,,,,,,,,,,,,,,,,,,,,,,,,,,,,,,,,852.1568849199994,None,852.1568849199994,None,852.1568849199994,None,m,1,0.8488737040006527,853.6901297929999,None,853.6901297929999,None,853.6901297929999,None,854.5900012599996,None,854.5900012599996,None,854.5900012599996,None,854.5900012599996,None,,,,,,,,,,,,,,,,,,,,,,,,,,,,,,,,,,,,,,,,,,,,001,89,2020_Feb_06_1250,spring_faces,3.1.5,60.12136435241451,
condition files/Stage1_1.xlsx,,B1,T2,c,"['c', 'm']","['Clue', 'Monopoly']","[-0.15, 0.5]","[0.15, 0.5]",1,1,,,,,,,,,0,4,4,4,0,0,0,1,,,,,,,,,,,,,,,,,,,,,,,,,,,,,,,,,,,,,,,,,,,,,,,,,,,,,,,856.5740642000001,None,856.5740642000001,None,856.5740642000001,None,c,1,2.0629530810001597,858.1080691749994,None,858.1080691749994,None,858.1080691749994,None,860.2404840479994,None,860.2404840479994,None,860.2404840479994,None,860.2404840479994,None,,,,,,,,,,,,,,,,,,,,,,,,,,,,,,,,,,,,,,,,,,,,001,89,2020_Feb_06_1250,spring_faces,3.1.5,60.12136435241451,
condition files/Stage1_1.xlsx,,B4,T4,m,"['c', 'm']","['Clue', 'Monopoly']","[-0.15, 0.5]","[0.15, 0.5]",1,1,,,,,,,,,0,4,4,4,0,1,1,7,,,,,,,,,,,,,,,,,,,,,,,,,,,,,,,,,,,,,,,,,,,,,,,,,,,,,,,862.189951884,None,862.189951884,None,862.189951884,None,m,1,0.8784692850003921,863.7245048959994,None,863.7245048959994,None,863.7245048959994,None,864.6734679450001,None,864.6734679450001,None,864.6734679450001,None,864.6734679450001,None,,,,,,,,,,,,,,,,,,,,,,,,,,,,,,,,,,,,,,,,,,,,001,89,2020_Feb_06_1250,spring_faces,3.1.5,60.12136435241451,
condition files/Stage1_1.xlsx,,T3,B4,c,"['c', 'm']","['Clue', 'Monopoly']","[-0.15, 0.5]","[0.15, 0.5]",1,1,,,,,,,,,0,4,4,4,0,2,2,5,,,,,,,,,,,,,,,,,,,,,,,,,,,,,,,,,,,,,,,,,,,,,,,,,,,,,,,866.6231018260005,None,866.6231018260005,None,866.6231018260005,None,c,1,1.0225532929998735,868.1565060779994,None,868.1565060779994,None,868.1565060779994,None,869.2571968529992,None,869.2571968529992,None,869.2571968529992,None,869.2571968529992,None,,,,,,,,,,,,,,,,,,,,,,,,,,,,,,,,,,,,,,,,,,,,001,89,2020_Feb_06_1250,spring_faces,3.1.5,60.12136435241451,
condition files/Stage1_1.xlsx,,T2,B2,m,"['c', 'm']","['Clue', 'Monopoly']","[-0.15, 0.5]","[0.15, 0.5]",1,1,,,,,,,,,0,4,4,4,0,3,3,3,,,,,,,,,,,,,,,,,,,,,,,,,,,,,,,,,,,,,,,,,,,,,,,,,,,,,,,871.2067821540004,None,871.2067821540004,None,871.2067821540004,None,m,1,0.6619980399991618,872.7410085249994,None,872.7410085249994,None,872.7410085249994,None,873.473747475,None,873.473747475,None,873.473747475,None,873.473747475,None,,,,,,,,,,,,,,,,,,,,,,,,,,,,,,,,,,,,,,,,,,,,001,89,2020_Feb_06_1250,spring_faces,3.1.5,60.12136435241451,
condition files/Stage1_1.xlsx,,B3,T3,c,"['c', 'm']","['Clue', 'Monopoly']","[-0.15, 0.5]","[0.15, 0.5]",1,1,,,,,,,,,0,4,4,4,0,4,4,4,,,,,,,,,,,,,,,,,,,,,,,,,,,,,,,,,,,,,,,,,,,,,,,,,,,,,,,875.4232430419997,None,875.4232430419997,None,875.4232430419997,None,c,1,1.2293263870014925,876.973672098,None,876.973672098,None,876.973672098,None,878.2592334740002,None,878.2592334740002,None,878.2592334740002,None,878.2592334740002,None,,,,,,,,,,,,,,,,,,,,,,,,,,,,,,,,,,,,,,,,,,,,001,89,2020_Feb_06_1250,spring_faces,3.1.5,60.12136435241451,
condition files/Stage1_1.xlsx,,T1,B1,c,"['c', 'm']","['Clue', 'Monopoly']","[-0.15, 0.5]","[0.15, 0.5]",1,1,,,,,,,,,0,4,4,4,0,5,5,0,,,,,,,,,,,,,,,,,,,,,,,,,,,,,,,,,,,,,,,,,,,,,,,,,,,,,,,880.2230212750001,None,880.2230212750001,None,880.2230212750001,None,c,1,1.804941874999713,881.7740642770004,None,881.7740642770004,None,881.7740642770004,None,883.6402889780002,None,883.6402889780002,None,883.6402889780002,None,883.6402889780002,None,,,,,,,,,,,,,,,,,,,,,,,,,,,,,,,,,,,,,,,,,,,,001,89,2020_Feb_06_1250,spring_faces,3.1.5,60.12136435241451,
condition files/Stage1_1.xlsx,,T4,B3,m,"['c', 'm']","['Clue', 'Monopoly']","[-0.15, 0.5]","[0.15, 0.5]",1,1,,,,,,,,,0,4,4,4,0,6,6,6,,,,,,,,,,,,,,,,,,,,,,,,,,,,,,,,,,,,,,,,,,,,,,,,,,,,,,,885.6067075030005,None,885.6067075030005,None,885.6067075030005,None,m,1,0.8686231450010382,887.1424065369993,None,887.1424065369993,None,887.1424065369993,None,888.0762936350002,None,888.0762936350002,None,888.0762936350002,None,888.0762936350002,None,,,,,,,,,,,,,,,,,,,,,,,,,,,,,,,,,,,,,,,,,,,,001,89,2020_Feb_06_1250,spring_faces,3.1.5,60.12136435241451,
condition files/Stage1_1.xlsx,,B2,T1,m,"['c', 'm']","['Clue', 'Monopoly']","[-0.15, 0.5]","[0.15, 0.5]",1,1,,,,,,,,,0,4,4,4,0,7,7,2,,,,,,,,,,,,,,,,,,,,,,,,,,,,,,,,,,,,,,,,,,,,,,,,,,,,,,,890.0400609970002,None,890.0400609970002,None,890.0400609970002,None,m,1,0.6766465370001242,891.574334252,None,891.574334252,None,891.574334252,None,892.3069047080007,None,892.3069047080007,None,892.3069047080007,None,892.3069047080007,None,,,,,,,,,,,,,,,,,,,,,,,,,,,,,,,,,,,,,,,,,,,,001,89,2020_Feb_06_1250,spring_faces,3.1.5,60.12136435241451,
condition files/Stage1_2.xlsx,,T2,B1,c,"['c', 'm']","['Clue', 'Monopoly']","[-0.15, 0.5]","[0.15, 0.5]",1,1,,,,,,,,,0,5,5,5,0,0,0,1,,,,,,,,,,,,,,,,,,,,,,,,,,,,,,,,,,,,,,,,,,,,,,,,,,,,,,,894.2897207229998,None,894.2897207229998,None,894.2897207229998,None,c,1,3.450462697999683,895.8404967440001,None,895.8404967440001,None,895.8404967440001,None,899.3595823889991,None,899.3595823889991,None,899.3595823889991,None,899.3595823889991,None,,,,,,,,,,,,,,,,,,,,,,,,,,,,,,,,,,,,,,,,,,,,001,89,2020_Feb_06_1250,spring_faces,3.1.5,60.12136435241451,
condition files/Stage1_2.xlsx,,T4,B4,m,"['c', 'm']","['Clue', 'Monopoly']","[-0.15, 0.5]","[0.15, 0.5]",1,1,,,,,,,,,0,5,5,5,0,1,1,7,,,,,,,,,,,,,,,,,,,,,,,,,,,,,,,,,,,,,,,,,,,,,,,,,,,,,,,901.3235356160003,None,901.3235356160003,None,901.3235356160003,None,m,1,0.7694139599989285,902.8576068370003,None,902.8576068370003,None,902.8576068370003,None,903.6926796970001,None,903.6926796970001,None,903.6926796970001,None,903.6926796970001,None,,,,,,,,,,,,,,,,,,,,,,,,,,,,,,,,,,,,,,,,,,,,001,89,2020_Feb_06_1250,spring_faces,3.1.5,60.12136435241451,
condition files/Stage1_2.xlsx,,B2,T2,m,"['c', 'm']","['Clue', 'Monopoly']","[-0.15, 0.5]","[0.15, 0.5]",1,1,,,,,,,,,0,5,5,5,0,2,2,3,,,,,,,,,,,,,,,,,,,,,,,,,,,,,,,,,,,,,,,,,,,,,,,,,,,,,,,905.6568051279992,None,905.6568051279992,None,905.6568051279992,None,m,1,1.268450211000527,907.1905042470007,None,907.1905042470007,None,907.1905042470007,None,908.5232273279998,None,908.5232273279998,None,908.5232273279998,None,908.5232273279998,None,,,,,,,,,,,,,,,,,,,,,,,,,,,,,,,,,,,,,,,,,,,,001,89,2020_Feb_06_1250,spring_faces,3.1.5,60.12136435241451,
condition files/Stage1_2.xlsx,,B3,T4,m,"['c', 'm']","['Clue', 'Monopoly']","[-0.15, 0.5]","[0.15, 0.5]",1,1,,,,,,,,,0,5,5,5,0,3,3,6,,,,,,,,,,,,,,,,,,,,,,,,,,,,,,,,,,,,,,,,,,,,,,,,,,,,,,,910.4894846290008,None,910.4894846290008,None,910.4894846290008,None,m,1,0.8665494130000297,912.0404595670007,None,912.0404595670007,None,912.0404595670007,None,912.9566584950007,None,912.9566584950007,None,912.9566584950007,None,912.9566584950007,None,,,,,,,,,,,,,,,,,,,,,,,,,,,,,,,,,,,,,,,,,,,,001,89,2020_Feb_06_1250,spring_faces,3.1.5,60.12136435241451,
condition files/Stage1_2.xlsx,,B4,T3,c,"['c', 'm']","['Clue', 'Monopoly']","[-0.15, 0.5]","[0.15, 0.5]",1,1,,,,,,,,,0,5,5,5,0,4,4,5,,,,,,,,,,,,,,,,,,,,,,,,,,,,,,,,,,,,,,,,,,,,,,,,,,,,,,,914.923366256,None,914.923366256,None,914.923366256,None,c,1,0.9611791549996269,916.4737384719992,None,916.4737384719992,None,916.4737384719992,None,917.5071869189997,None,917.5071869189997,None,917.5071869189997,None,917.5071869189997,None,,,,,,,,,,,,,,,,,,,,,,,,,,,,,,,,,,,,,,,,,,,,001,89,2020_Feb_06_1250,spring_faces,3.1.5,60.12136435241451,
condition files/Stage1_2.xlsx,,B1,T1,c,"['c', 'm']","['Clue', 'Monopoly']","[-0.15, 0.5]","[0.15, 0.5]",1,1,,,,,,,,,0,5,5,5,0,5,5,0,,,,,,,,,,,,,,,,,,,,,,,,,,,,,,,,,,,,,,,,,,,,,,,,,,,,,,,919.4569541380006,None,919.4569541380006,None,919.4569541380006,None,c,1,1.3080421479990036,921.0070270039996,None,921.0070270039996,None,921.0070270039996,None,922.3729351349994,None,922.3729351349994,None,922.3729351349994,None,922.3729351349994,None,,,,,,,,,,,,,,,,,,,,,,,,,,,,,,,,,,,,,,,,,,,,001,89,2020_Feb_06_1250,spring_faces,3.1.5,60.12136435241451,
condition files/Stage1_2.xlsx,,T1,B2,m,"['c', 'm']","['Clue', 'Monopoly']","[-0.15, 0.5]","[0.15, 0.5]",1,1,,,,,,,,,0,5,5,5,0,6,6,2,,,,,,,,,,,,,,,,,,,,,,,,,,,,,,,,,,,,,,,,,,,,,,,,,,,,,,,924.3399090019993,None,924.3399090019993,None,924.3399090019993,None,m,1,0.6494730630001868,925.8735288309999,None,925.8735288309999,None,925.8735288309999,None,926.5899643150005,None,926.5899643150005,None,926.5899643150005,None,926.5899643150005,None,,,,,,,,,,,,,,,,,,,,,,,,,,,,,,,,,,,,,,,,,,,,001,89,2020_Feb_06_1250,spring_faces,3.1.5,60.12136435241451,
condition files/Stage1_2.xlsx,,T3,B3,c,"['c', 'm']","['Clue', 'Monopoly']","[-0.15, 0.5]","[0.15, 0.5]",1,1,,,,,,,,,0,5,5,5,0,7,7,4,,,,,,,,,,,,,,,,,,,,,,,,,,,,,,,,,,,,,,,,,,,,,,,,,,,,,,,928.5398637679991,None,928.5398637679991,None,928.5398637679991,None,c,1,1.5206883500013646,930.0743267939997,None,930.0743267939997,None,930.0743267939997,None,931.6566372889993,None,931.6566372889993,None,931.6566372889993,None,931.6566372889993,None,,,,,,,,,,,,,,,,,,,,,,,,,,,,,,,,,,,,,,,,,,,,001,89,2020_Feb_06_1250,spring_faces,3.1.5,60.12136435241451,
condition files/Stage1_1.xlsx,,T4,B3,m,"['c', 'm']","['Clue', 'Monopoly']","[-0.15, 0.5]","[0.15, 0.5]",1,1,,,,,,,,,0,6,6,6,0,0,0,6,,,,,,,,,,,,,,,,,,,,,,,,,,,,,,,,,,,,,,,,,,,,,,,,,,,,,,,933.6404725140001,None,933.6404725140001,None,933.6404725140001,None,m,1,0.7565585529991949,935.1745400880009,None,935.1745400880009,None,935.1745400880009,None,936.0074007589992,None,936.0074007589992,None,936.0074007589992,None,936.0074007589992,None,,,,,,,,,,,,,,,,,,,,,,,,,,,,,,,,,,,,,,,,,,,,001,89,2020_Feb_06_1250,spring_faces,3.1.5,60.12136435241451,
condition files/Stage1_1.xlsx,,B3,T3,c,"['c', 'm']","['Clue', 'Monopoly']","[-0.15, 0.5]","[0.15, 0.5]",1,1,,,,,,,,,0,6,6,6,0,1,1,4,,,,,,,,,,,,,,,,,,,,,,,,,,,,,,,,,,,,,,,,,,,,,,,,,,,,,,,937.9566743680007,None,937.9566743680007,None,937.9566743680007,None,c,1,0.9046551280007407,939.4903623760001,None,939.4903623760001,None,939.4903623760001,None,940.4732029169991,None,940.4732029169991,None,940.4732029169991,None,940.4732029169991,None,,,,,,,,,,,,,,,,,,,,,,,,,,,,,,,,,,,,,,,,,,,,001,89,2020_Feb_06_1250,spring_faces,3.1.5,60.12136435241451,
condition files/Stage1_1.xlsx,,T3,B4,c,"['c', 'm']","['Clue', 'Monopoly']","[-0.15, 0.5]","[0.15, 0.5]",1,1,,,,,,,,,0,6,6,6,0,2,2,5,,,,,,,,,,,,,,,,,,,,,,,,,,,,,,,,,,,,,,,,,,,,,,,,,,,,,,,942.4233289189997,None,942.4233289189997,None,942.4233289189997,None,c,1,0.23039390499980072,943.9565474379997,None,943.9565474379997,None,943.9565474379997,None,944.2400680840001,None,944.2400680840001,None,944.2400680840001,None,944.2400680840001,None,,,,,,,,,,,,,,,,,,,,,,,,,,,,,,,,,,,,,,,,,,,,001,89,2020_Feb_06_1250,spring_faces,3.1.5,60.12136435241451,
condition files/Stage1_1.xlsx,,B2,T1,m,"['c', 'm']","['Clue', 'Monopoly']","[-0.15, 0.5]","[0.15, 0.5]",1,1,,,,,,,,,0,6,6,6,0,3,3,2,,,,,,,,,,,,,,,,,,,,,,,,,,,,,,,,,,,,,,,,,,,,,,,,,,,,,,,946.2064851300001,None,946.2064851300001,None,946.2064851300001,None,m,1,0.5901565240001219,947.7409267750008,None,947.7409267750008,None,947.7409267750008,None,948.4071133960006,None,948.4071133960006,None,948.4071133960006,None,948.4071133960006,None,,,,,,,,,,,,,,,,,,,,,,,,,,,,,,,,,,,,,,,,,,,,001,89,2020_Feb_06_1250,spring_faces,3.1.5,60.12136435241451,
condition files/Stage1_1.xlsx,,T1,B1,c,"['c', 'm']","['Clue', 'Monopoly']","[-0.15, 0.5]","[0.15, 0.5]",1,1,,,,,,,,,0,6,6,6,0,4,4,0,,,,,,,,,,,,,,,,,,,,,,,,,,,,,,,,,,,,,,,,,,,,,,,,,,,,,,,950.3563406140001,None,950.3563406140001,None,950.3563406140001,None,c,1,0.9194522259986115,951.8915760479995,None,951.8915760479995,None,951.8915760479995,None,952.8753062819997,None,952.8753062819997,None,952.8753062819997,None,952.8753062819997,None,,,,,,,,,,,,,,,,,,,,,,,,,,,,,,,,,,,,,,,,,,,,001,89,2020_Feb_06_1250,spring_faces,3.1.5,60.12136435241451,
condition files/Stage1_1.xlsx,,T2,B2,m,"['c', 'm']","['Clue', 'Monopoly']","[-0.15, 0.5]","[0.15, 0.5]",1,1,,,,,,,,,0,6,6,6,0,5,5,3,,,,,,,,,,,,,,,,,,,,,,,,,,,,,,,,,,,,,,,,,,,,,,,,,,,,,,,954.8402025800006,None,954.8402025800006,None,954.8402025800006,None,m,1,0.7891539400006877,956.3738734470007,None,956.3738734470007,None,956.3738734470007,None,957.2401072100001,None,957.2401072100001,None,957.2401072100001,None,957.2401072100001,None,,,,,,,,,,,,,,,,,,,,,,,,,,,,,,,,,,,,,,,,,,,,001,89,2020_Feb_06_1250,spring_faces,3.1.5,60.12136435241451,
condition files/Stage1_1.xlsx,,B4,T4,m,"['c', 'm']","['Clue', 'Monopoly']","[-0.15, 0.5]","[0.15, 0.5]",1,1,,,,,,,,,0,6,6,6,0,6,6,7,,,,,,,,,,,,,,,,,,,,,,,,,,,,,,,,,,,,,,,,,,,,,,,,,,,,,,,959.1898764969992,None,959.1898764969992,None,959.1898764969992,None,m,1,0.8708165749994805,960.7401828490001,None,960.7401828490001,None,960.7401828490001,None,961.6740975379998,None,961.6740975379998,None,961.6740975379998,None,961.6740975379998,None,,,,,,,,,,,,,,,,,,,,,,,,,,,,,,,,,,,,,,,,,,,,001,89,2020_Feb_06_1250,spring_faces,3.1.5,60.12136435241451,
condition files/Stage1_1.xlsx,,B1,T2,c,"['c', 'm']","['Clue', 'Monopoly']","[-0.15, 0.5]","[0.15, 0.5]",1,1,,,,,,,,,0,6,6,6,0,7,7,1,,,,,,,,,,,,,,,,,,,,,,,,,,,,,,,,,,,,,,,,,,,,,,,,,,,,,,,963.6400283269995,None,963.6400283269995,None,963.6400283269995,None,c,1,1.1248977289997129,965.1901547569996,None,965.1901547569996,None,965.1901547569996,None,966.3743591940001,None,966.3743591940001,None,966.3743591940001,None,966.3743591940001,None,,,,,,,,,,,,,,,,,,,,,,,,,,,,,,,,,,,,,,,,,,,,001,89,2020_Feb_06_1250,spring_faces,3.1.5,60.12136435241451,
condition files/Stage1_2.xlsx,,T4,B4,m,"['c', 'm']","['Clue', 'Monopoly']","[-0.15, 0.5]","[0.15, 0.5]",1,1,,,,,,,,,0,7,7,7,0,0,0,7,,,,,,,,,,,,,,,,,,,,,,,,,,,,,,,,,,,,,,,,,,,,,,,,,,,,,,,968.3560854589996,None,968.3560854589996,None,968.3560854589996,None,m,1,0.82421188599983,969.890886268,None,969.890886268,None,969.890886268,None,970.7904257549999,None,970.7904257549999,None,970.7904257549999,None,970.7904257549999,None,,,,,,,,,,,,,,,,,,,,,,,,,,,,,,,,,,,,,,,,,,,,001,89,2020_Feb_06_1250,spring_faces,3.1.5,60.12136435241451,
condition files/Stage1_2.xlsx,,B4,T3,c,"['c', 'm']","['Clue', 'Monopoly']","[-0.15, 0.5]","[0.15, 0.5]",1,1,,,,,,,,,0,7,7,7,0,1,1,5,,,,,,,,,,,,,,,,,,,,,,,,,,,,,,,,,,,,,,,,,,,,,,,,,,,,,,,972.7397425220006,None,972.7397425220006,None,972.7397425220006,None,c,1,0.8086816459999682,974.2742822510008,None,974.2742822510008,None,974.2742822510008,None,975.1418465869992,None,975.1418465869992,None,975.1418465869992,None,975.1418465869992,None,,,,,,,,,,,,,,,,,,,,,,,,,,,,,,,,,,,,,,,,,,,,001,89,2020_Feb_06_1250,spring_faces,3.1.5,60.12136435241451,
condition files/Stage1_2.xlsx,,T1,B2,m,"['c', 'm']","['Clue', 'Monopoly']","[-0.15, 0.5]","[0.15, 0.5]",1,1,,,,,,,,,0,7,7,7,0,2,2,2,,,,,,,,,,,,,,,,,,,,,,,,,,,,,,,,,,,,,,,,,,,,,,,,,,,,,,,977.1066035820004,None,977.1066035820004,None,977.1066035820004,None,m,1,0.8902984249998553,978.6407932519996,None,978.6407932519996,None,978.6407932519996,None,979.6063237079998,None,979.6063237079998,None,979.6063237079998,None,979.6063237079998,None,,,,,,,,,,,,,,,,,,,,,,,,,,,,,,,,,,,,,,,,,,,,001,89,2020_Feb_06_1250,spring_faces,3.1.5,60.12136435241451,
condition files/Stage1_2.xlsx,,B3,T4,m,"['c', 'm']","['Clue', 'Monopoly']","[-0.15, 0.5]","[0.15, 0.5]",1,1,,,,,,,,,0,7,7,7,0,3,3,6,,,,,,,,,,,,,,,,,,,,,,,,,,,,,,,,,,,,,,,,,,,,,,,,,,,,,,,981.5567507800006,None,981.5567507800006,None,981.5567507800006,None,m,1,0.8882729670003755,983.0907509959998,None,983.0907509959998,None,983.0907509959998,None,984.0421287009995,None,984.0421287009995,None,984.0421287009995,None,984.0421287009995,None,,,,,,,,,,,,,,,,,,,,,,,,,,,,,,,,,,,,,,,,,,,,001,89,2020_Feb_06_1250,spring_faces,3.1.5,60.12136435241451,
condition files/Stage1_2.xlsx,,B1,T1,c,"['c', 'm']","['Clue', 'Monopoly']","[-0.15, 0.5]","[0.15, 0.5]",1,1,,,,,,,,,0,7,7,7,0,4,4,0,,,,,,,,,,,,,,,,,,,,,,,,,,,,,,,,,,,,,,,,,,,,,,,,,,,,,,,986.0068732660002,None,986.0068732660002,None,986.0068732660002,None,c,1,0.9648942060011905,987.5420755920004,None,987.5420755920004,None,987.5420755920004,None,988.573075114,None,988.573075114,None,988.573075114,None,988.573075114,None,,,,,,,,,,,,,,,,,,,,,,,,,,,,,,,,,,,,,,,,,,,,001,89,2020_Feb_06_1250,spring_faces,3.1.5,60.12136435241451,
condition files/Stage1_2.xlsx,,T3,B3,c,"['c', 'm']","['Clue', 'Monopoly']","[-0.15, 0.5]","[0.15, 0.5]",1,1,,,,,,,,,0,7,7,7,0,5,5,4,,,,,,,,,,,,,,,,,,,,,,,,,,,,,,,,,,,,,,,,,,,,,,,,,,,,,,,990.5398344589994,None,990.5398344589994,None,990.5398344589994,None,c,1,1.1514233149991924,992.0755983809995,None,992.0755983809995,None,992.0755983809995,None,993.2902072109991,None,993.2902072109991,None,993.2902072109991,None,993.2902072109991,None,,,,,,,,,,,,,,,,,,,,,,,,,,,,,,,,,,,,,,,,,,,,001,89,2020_Feb_06_1250,spring_faces,3.1.5,60.12136435241451,
condition files/Stage1_2.xlsx,,T2,B1,c,"['c', 'm']","['Clue', 'Monopoly']","[-0.15, 0.5]","[0.15, 0.5]",1,1,,,,,,,,,0,7,7,7,0,6,6,1,,,,,,,,,,,,,,,,,,,,,,,,,,,,,,,,,,,,,,,,,,,,,,,,,,,,,,,995.2564000980001,None,995.2564000980001,None,995.2564000980001,None,c,1,1.0600238980005088,996.8070249020002,None,996.8070249020002,None,996.8070249020002,None,997.9238015459996,None,997.9238015459996,None,997.9238015459996,None,997.9238015459996,None,,,,,,,,,,,,,,,,,,,,,,,,,,,,,,,,,,,,,,,,,,,,001,89,2020_Feb_06_1250,spring_faces,3.1.5,60.12136435241451,
condition files/Stage1_2.xlsx,,B2,T2,m,"['c', 'm']","['Clue', 'Monopoly']","[-0.15, 0.5]","[0.15, 0.5]",1,1,,,,,,,,,0,7,7,7,0,7,7,3,,,,,,,,,,,,,,,,,,,,,,,,,,,,,,,,,,,,,,,,,,,,,,,,,,,,,,,999.8895976830008,None,999.8895976830008,None,999.8895976830008,None,m,1,0.8918453469996166,1001.4232449980009,None,1001.4232449980009,None,1001.4232449980009,None,1002.3903229000007,None,1002.3903229000007,None,1002.3903229000007,None,1002.3903229000007,None,,,,,,,,,,,,,,,,,,,,,,,,,,,,,,,,,,,,,,,,,,,,001,89,2020_Feb_06_1250,spring_faces,3.1.5,60.12136435241451,
condition files/Stage1_1.xlsx,,T1,B1,c,"['c', 'm']","['Clue', 'Monopoly']","[-0.15, 0.5]","[0.15, 0.5]",1,1,,,,,,,,,0,8,8,8,0,0,0,0,,,,,,,,,,,,,,,,,,,,,,,,,,,,,,,,,,,,,,,,,,,,,,,,,,,,,,,1004.3569266350005,None,1004.3569266350005,None,1004.3569266350005,None,c,1,0.9838317779995123,1005.8911912040003,None,1005.8911912040003,None,1005.8911912040003,None,1006.957117078,None,1006.957117078,None,1006.957117078,None,1006.957117078,None,,,,,,,,,,,,,,,,,,,,,,,,,,,,,,,,,,,,,,,,,,,,001,89,2020_Feb_06_1250,spring_faces,3.1.5,60.12136435241451,
condition files/Stage1_1.xlsx,,B4,T4,m,"['c', 'm']","['Clue', 'Monopoly']","[-0.15, 0.5]","[0.15, 0.5]",1,1,,,,,,,,,0,8,8,8,0,1,1,7,,,,,,,,,,,,,,,,,,,,,,,,,,,,,,,,,,,,,,,,,,,,,,,,,,,,,,,1008.9067145970002,None,1008.9067145970002,None,1008.9067145970002,None,m,1,0.8324226059994544,1010.4425744429991,None,1010.4425744429991,None,1010.4425744429991,None,1011.3570135059999,None,1011.3570135059999,None,1011.3570135059999,None,1011.3570135059999,None,,,,,,,,,,,,,,,,,,,,,,,,,,,,,,,,,,,,,,,,,,,,001,89,2020_Feb_06_1250,spring_faces,3.1.5,60.12136435241451,
condition files/Stage1_1.xlsx,,B1,T2,c,"['c', 'm']","['Clue', 'Monopoly']","[-0.15, 0.5]","[0.15, 0.5]",1,1,,,,,,,,,0,8,8,8,0,2,2,1,,,,,,,,,,,,,,,,,,,,,,,,,,,,,,,,,,,,,,,,,,,,,,,,,,,,,,,1013.3064253690009,None,1013.3064253690009,None,1013.3064253690009,None,c,1,0.9145357030010928,1014.8564214760008,None,1014.8564214760008,None,1014.8564214760008,None,1015.8401254370001,None,1015.8401254370001,None,1015.8401254370001,None,1015.8401254370001,None,,,,,,,,,,,,,,,,,,,,,,,,,,,,,,,,,,,,,,,,,,,,001,89,2020_Feb_06_1250,spring_faces,3.1.5,60.12136435241451,
condition files/Stage1_1.xlsx,,T3,B4,c,"['c', 'm']","['Clue', 'Monopoly']","[-0.15, 0.5]","[0.15, 0.5]",1,1,,,,,,,,,0,8,8,8,0,3,3,5,,,,,,,,,,,,,,,,,,,,,,,,,,,,,,,,,,,,,,,,,,,,,,,,,,,,,,,1017.789859085,None,1017.789859085,None,1017.789859085,None,c,1,0.862517100000332,1019.3244261519994,None,1019.3244261519994,None,1019.3244261519994,None,1020.2396908030005,None,1020.2396908030005,None,1020.2396908030005,None,1020.2396908030005,None,,,,,,,,,,,,,,,,,,,,,,,,,,,,,,,,,,,,,,,,,,,,001,89,2020_Feb_06_1250,spring_faces,3.1.5,60.12136435241451,
condition files/Stage1_1.xlsx,,T2,B2,m,"['c', 'm']","['Clue', 'Monopoly']","[-0.15, 0.5]","[0.15, 0.5]",1,1,,,,,,,,,0,8,8,8,0,4,4,3,,,,,,,,,,,,,,,,,,,,,,,,,,,,,,,,,,,,,,,,,,,,,,,,,,,,,,,1022.2064431470008,None,1022.2064431470008,None,1022.2064431470008,None,m,1,0.41386292100105493,1023.7571344619992,None,1023.7571344619992,None,1023.7571344619992,None,1024.2398306270006,None,1024.2398306270006,None,1024.2398306270006,None,1024.2398306270006,None,,,,,,,,,,,,,,,,,,,,,,,,,,,,,,,,,,,,,,,,,,,,001,89,2020_Feb_06_1250,spring_faces,3.1.5,60.12136435241451,
condition files/Stage1_1.xlsx,,T4,B3,m,"['c', 'm']","['Clue', 'Monopoly']","[-0.15, 0.5]","[0.15, 0.5]",1,1,,,,,,,,,0,8,8,8,0,5,5,6,,,,,,,,,,,,,,,,,,,,,,,,,,,,,,,,,,,,,,,,,,,,,,,,,,,,,,,1026.1900947920003,None,1026.1900947920003,None,1026.1900947920003,None,m,1,0.8464333710016945,1027.7404987900009,None,1027.7404987900009,None,1027.7404987900009,None,1028.6403744960007,None,1028.6403744960007,None,1028.6403744960007,None,1028.6403744960007,None,,,,,,,,,,,,,,,,,,,,,,,,,,,,,,,,,,,,,,,,,,,,001,89,2020_Feb_06_1250,spring_faces,3.1.5,60.12136435241451,
condition files/Stage1_1.xlsx,,B3,T3,c,"['c', 'm']","['Clue', 'Monopoly']","[-0.15, 0.5]","[0.15, 0.5]",1,1,,,,,,,,,0,8,8,8,0,6,6,4,,,,,,,,,,,,,,,,,,,,,,,,,,,,,,,,,,,,,,,,,,,,,,,,,,,,,,,1030.6066174970001,None,1030.6066174970001,None,1030.6066174970001,None,c,1,1.405040611000004,1032.142042642001,None,1032.142042642001,None,1032.142042642001,None,1033.623246923,None,1033.623246923,None,1033.623246923,None,1033.623246923,None,,,,,,,,,,,,,,,,,,,,,,,,,,,,,,,,,,,,,,,,,,,,001,89,2020_Feb_06_1250,spring_faces,3.1.5,60.12136435241451,
condition files/Stage1_1.xlsx,,B2,T1,m,"['c', 'm']","['Clue', 'Monopoly']","[-0.15, 0.5]","[0.15, 0.5]",1,1,,,,,,,,,0,8,8,8,0,7,7,2,,,,,,,,,,,,,,,,,,,,,,,,,,,,,,,,,,,,,,,,,,,,,,,,,,,,,,,1035.573187303,None,1035.573187303,None,1035.573187303,None,m,1,0.5518302389991732,1037.1231030559993,None,1037.1231030559993,None,1037.1231030559993,None,1037.7406367160002,None,1037.7406367160002,None,1037.7406367160002,None,1037.7406367160002,None,,,,,,,,,,,,,,,,,,,,,,,,,,,,,,,,,,,,,,,,,,,,001,89,2020_Feb_06_1250,spring_faces,3.1.5,60.12136435241451,
condition files/Stage1_2.xlsx,,B1,T1,c,"['c', 'm']","['Clue', 'Monopoly']","[-0.15, 0.5]","[0.15, 0.5]",1,1,,,,,,,,,0,9,9,9,0,0,0,0,,,,,,,,,,,,,,,,,,,,,,,,,,,,,,,,,,,,,,,,,,,,,,,,,,,,,,,1039.7240842560004,None,1039.7240842560004,None,1039.7240842560004,None,c,1,0.9452716929990856,1041.2737501709998,None,1041.2737501709998,None,1041.2737501709998,None,1042.2754278110006,None,1042.2754278110006,None,1042.2754278110006,None,1042.2754278110006,None,,,,,,,,,,,,,,,,,,,,,,,,,,,,,,,,,,,,,,,,,,,,001,89,2020_Feb_06_1250,spring_faces,3.1.5,60.12136435241451,
condition files/Stage1_2.xlsx,,B3,T4,m,"['c', 'm']","['Clue', 'Monopoly']","[-0.15, 0.5]","[0.15, 0.5]",1,1,,,,,,,,,0,9,9,9,0,1,1,6,,,,,,,,,,,,,,,,,,,,,,,,,,,,,,,,,,,,,,,,,,,,,,,,,,,,,,,1044.2401589370002,None,1044.2401589370002,None,1044.2401589370002,None,m,1,0.6516654509996442,1045.7753502359992,None,1045.7753502359992,None,1045.7753502359992,None,1046.4910373780003,None,1046.4910373780003,None,1046.4910373780003,None,1046.4910373780003,None,,,,,,,,,,,,,,,,,,,,,,,,,,,,,,,,,,,,,,,,,,,,001,89,2020_Feb_06_1250,spring_faces,3.1.5,60.12136435241451,
condition files/Stage1_2.xlsx,,B2,T2,m,"['c', 'm']","['Clue', 'Monopoly']","[-0.15, 0.5]","[0.15, 0.5]",1,1,,,,,,,,,0,9,9,9,0,2,2,3,,,,,,,,,,,,,,,,,,,,,,,,,,,,,,,,,,,,,,,,,,,,,,,,,,,,,,,1048.4567257039998,None,1048.4567257039998,None,1048.4567257039998,None,m,1,0.8211121019994607,1049.9899173890008,None,1049.9899173890008,None,1049.9899173890008,None,1050.873888528,None,1050.873888528,None,1050.873888528,None,1050.873888528,None,,,,,,,,,,,,,,,,,,,,,,,,,,,,,,,,,,,,,,,,,,,,001,89,2020_Feb_06_1250,spring_faces,3.1.5,60.12136435241451,
condition files/Stage1_2.xlsx,,T3,B3,c,"['c', 'm']","['Clue', 'Monopoly']","[-0.15, 0.5]","[0.15, 0.5]",1,1,,,,,,,,,0,9,9,9,0,3,3,4,,,,,,,,,,,,,,,,,,,,,,,,,,,,,,,,,,,,,,,,,,,,,,,,,,,,,,,1052.8400259810005,None,1052.8400259810005,None,1052.8400259810005,None,c,1,1.4285455490007735,1054.390425947,None,1054.390425947,None,1054.390425947,None,1055.8755141990005,None,1055.8755141990005,None,1055.8755141990005,None,1055.8755141990005,None,,,,,,,,,,,,,,,,,,,,,,,,,,,,,,,,,,,,,,,,,,,,001,89,2020_Feb_06_1250,spring_faces,3.1.5,60.12136435241451,
condition files/Stage1_2.xlsx,,T4,B4,m,"['c', 'm']","['Clue', 'Monopoly']","[-0.15, 0.5]","[0.15, 0.5]",1,1,,,,,,,,,0,9,9,9,0,4,4,7,,,,,,,,,,,,,,,,,,,,,,,,,,,,,,,,,,,,,,,,,,,,,,,,,,,,,,,1057.839999877,None,1057.839999877,None,1057.839999877,None,m,1,1.6607418869989488,1059.3742653169993,None,1059.3742653169993,None,1059.3742653169993,None,1061.107070733,None,1061.107070733,None,1061.107070733,None,1061.107070733,None,,,,,,,,,,,,,,,,,,,,,,,,,,,,,,,,,,,,,,,,,,,,001,89,2020_Feb_06_1250,spring_faces,3.1.5,60.12136435241451,
condition files/Stage1_2.xlsx,,T2,B1,c,"['c', 'm']","['Clue', 'Monopoly']","[-0.15, 0.5]","[0.15, 0.5]",1,1,,,,,,,,,0,9,9,9,0,5,5,1,,,,,,,,,,,,,,,,,,,,,,,,,,,,,,,,,,,,,,,,,,,,,,,,,,,,,,,1063.0562044170001,None,1063.0562044170001,None,1063.0562044170001,None,c,1,1.530547413000022,1064.5924597760004,None,1064.5924597760004,None,1064.5924597760004,None,1066.1898815580007,None,1066.1898815580007,None,1066.1898815580007,None,1066.1898815580007,None,,,,,,,,,,,,,,,,,,,,,,,,,,,,,,,,,,,,,,,,,,,,001,89,2020_Feb_06_1250,spring_faces,3.1.5,60.12136435241451,
condition files/Stage1_2.xlsx,,B4,T3,c,"['c', 'm']","['Clue', 'Monopoly']","[-0.15, 0.5]","[0.15, 0.5]",1,1,,,,,,,,,0,9,9,9,0,6,6,5,,,,,,,,,,,,,,,,,,,,,,,,,,,,,,,,,,,,,,,,,,,,,,,,,,,,,,,1068.1400589000004,None,1068.1400589000004,None,1068.1400589000004,None,c,1,0.9445668509997631,1069.6904231509998,None,1069.6904231509998,None,1069.6904231509998,None,1070.6906966770002,None,1070.6906966770002,None,1070.6906966770002,None,1070.6906966770002,None,,,,,,,,,,,,,,,,,,,,,,,,,,,,,,,,,,,,,,,,,,,,001,89,2020_Feb_06_1250,spring_faces,3.1.5,60.12136435241451,
condition files/Stage1_2.xlsx,,T1,B2,m,"['c', 'm']","['Clue', 'Monopoly']","[-0.15, 0.5]","[0.15, 0.5]",1,1,,,,,,,,,0,9,9,9,0,7,7,2,,,,,,,,,,,,,,,,,,,,,,,,,,,,,,,,,,,,,,,,,,,,,,,,,,,,,,,1072.6565356669998,None,1072.6565356669998,None,1072.6565356669998,None,m,1,0.7155057109994232,1074.1914723270002,None,1074.1914723270002,None,1074.1914723270002,None,1074.9732932200004,None,1074.9732932200004,None,1074.9732932200004,None,1074.9732932200004,None,,,,,,,,,,,,,,,,,,,,,,,,,,,,,,,,,,,,,,,,,,,,001,89,2020_Feb_06_1250,spring_faces,3.1.5,60.12136435241451,
condition files/Stage1_1.xlsx,,B3,T3,c,"['c', 'm']","['Clue', 'Monopoly']","[-0.15, 0.5]","[0.15, 0.5]",1,1,,,,,,,,,0,10,10,10,0,0,0,4,,,,,,,,,,,,,,,,,,,,,,,,,,,,,,,,,,,,,,,,,,,,,,,,,,,,,,,1076.9566989520008,None,1076.9566989520008,None,1076.9566989520008,None,c,1,0.9769977219984867,1078.4900985000004,None,1078.4900985000004,None,1078.4900985000004,None,1079.5243185870004,None,1079.5243185870004,None,1079.5243185870004,None,1079.5243185870004,None,,,,,,,,,,,,,,,,,,,,,,,,,,,,,,,,,,,,,,,,,,,,001,89,2020_Feb_06_1250,spring_faces,3.1.5,60.12136435241451,
condition files/Stage1_1.xlsx,,T2,B2,m,"['c', 'm']","['Clue', 'Monopoly']","[-0.15, 0.5]","[0.15, 0.5]",1,1,,,,,,,,,0,10,10,10,0,1,1,3,,,,,,,,,,,,,,,,,,,,,,,,,,,,,,,,,,,,,,,,,,,,,,,,,,,,,,,1081.4901908449992,None,1081.4901908449992,None,1081.4901908449992,None,m,1,0.9232522820002487,1083.0238253070002,None,1083.0238253070002,None,1083.0238253070002,None,1084.0084964779999,None,1084.0084964779999,None,1084.0084964779999,None,1084.0084964779999,None,,,,,,,,,,,,,,,,,,,,,,,,,,,,,,,,,,,,,,,,,,,,001,89,2020_Feb_06_1250,spring_faces,3.1.5,60.12136435241451,
condition files/Stage1_1.xlsx,,T4,B3,m,"['c', 'm']","['Clue', 'Monopoly']","[-0.15, 0.5]","[0.15, 0.5]",1,1,,,,,,,,,0,10,10,10,0,2,2,6,,,,,,,,,,,,,,,,,,,,,,,,,,,,,,,,,,,,,,,,,,,,,,,,,,,,,,,1085.9729961079993,None,1085.9729961079993,None,1085.9729961079993,None,m,1,1.0805004339999869,1087.5065134739998,None,1087.5065134739998,None,1087.5065134739998,None,1088.6403552720003,None,1088.6403552720003,None,1088.6403552720003,None,1088.6403552720003,None,,,,,,,,,,,,,,,,,,,,,,,,,,,,,,,,,,,,,,,,,,,,001,89,2020_Feb_06_1250,spring_faces,3.1.5,60.12136435241451,
condition files/Stage1_1.xlsx,,B2,T1,m,"['c', 'm']","['Clue', 'Monopoly']","[-0.15, 0.5]","[0.15, 0.5]",1,1,,,,,,,,,0,10,10,10,0,3,3,2,,,,,,,,,,,,,,,,,,,,,,,,,,,,,,,,,,,,,,,,,,,,,,,,,,,,,,,1090.6067188310008,None,1090.6067188310008,None,1090.6067188310008,None,m,1,0.7502045150013146,1092.1407958119999,None,1092.1407958119999,None,1092.1407958119999,None,1092.9565233440007,None,1092.9565233440007,None,1092.9565233440007,None,1092.9565233440007,None,,,,,,,,,,,,,,,,,,,,,,,,,,,,,,,,,,,,,,,,,,,,001,89,2020_Feb_06_1250,spring_faces,3.1.5,60.12136435241451,
condition files/Stage1_1.xlsx,,B4,T4,m,"['c', 'm']","['Clue', 'Monopoly']","[-0.15, 0.5]","[0.15, 0.5]",1,1,,,,,,,,,0,10,10,10,0,4,4,7,,,,,,,,,,,,,,,,,,,,,,,,,,,,,,,,,,,,,,,,,,,,,,,,,,,,,,,1094.9234396110005,None,1094.9234396110005,None,1094.9234396110005,None,m,1,0.7214237320004031,1096.473589911,None,1096.473589911,None,1096.473589911,None,1097.2571911689993,None,1097.2571911689993,None,1097.2571911689993,None,1097.2571911689993,None,,,,,,,,,,,,,,,,,,,,,,,,,,,,,,,,,,,,,,,,,,,,001,89,2020_Feb_06_1250,spring_faces,3.1.5,60.12136435241451,
condition files/Stage1_1.xlsx,,B1,T2,c,"['c', 'm']","['Clue', 'Monopoly']","[-0.15, 0.5]","[0.15, 0.5]",1,1,,,,,,,,,0,10,10,10,0,5,5,1,,,,,,,,,,,,,,,,,,,,,,,,,,,,,,,,,,,,,,,,,,,,,,,,,,,,,,,1099.2230473029995,None,1099.2230473029995,None,1099.2230473029995,None,c,1,0.7413636069995846,1100.7737130200003,None,1100.7737130200003,None,1100.7737130200003,None,1101.5759603309998,None,1101.5759603309998,None,1101.5759603309998,None,1101.5759603309998,None,,,,,,,,,,,,,,,,,,,,,,,,,,,,,,,,,,,,,,,,,,,,001,89,2020_Feb_06_1250,spring_faces,3.1.5,60.12136435241451,
condition files/Stage1_1.xlsx,,T3,B4,c,"['c', 'm']","['Clue', 'Monopoly']","[-0.15, 0.5]","[0.15, 0.5]",1,1,,,,,,,,,0,10,10,10,0,6,6,5,,,,,,,,,,,,,,,,,,,,,,,,,,,,,,,,,,,,,,,,,,,,,,,,,,,,,,,1103.5399779639993,None,1103.5399779639993,None,1103.5399779639993,None,c,1,0.9854645619998337,1105.0735136549993,None,1105.0735136549993,None,1105.0735136549993,None,1106.123996069,None,1106.123996069,None,1106.123996069,None,1106.123996069,None,,,,,,,,,,,,,,,,,,,,,,,,,,,,,,,,,,,,,,,,,,,,001,89,2020_Feb_06_1250,spring_faces,3.1.5,60.12136435241451,
condition files/Stage1_1.xlsx,,T1,B1,c,"['c', 'm']","['Clue', 'Monopoly']","[-0.15, 0.5]","[0.15, 0.5]",1,1,,,,,,,,,0,10,10,10,0,7,7,0,,,,,,,,,,,,,,,,,,,,,,,,,,,,,,,,,,,,,,,,,,,,,,,,,,,,,,,1108.0900567320004,None,1108.0900567320004,None,1108.0900567320004,None,c,1,1.5215942459999496,1109.6255028020005,None,1109.6255028020005,None,1109.6255028020005,None,1111.2069466880002,None,1111.2069466880002,None,1111.2069466880002,None,1111.2069466880002,None,,,,,,,,,,,,,,,,,,,,,,,,,,,,,,,,,,,,,,,,,,,,001,89,2020_Feb_06_1250,spring_faces,3.1.5,60.12136435241451,
condition files/Stage1_2.xlsx,,B2,T2,m,"['c', 'm']","['Clue', 'Monopoly']","[-0.15, 0.5]","[0.15, 0.5]",1,1,,,,,,,,,0,11,11,11,0,0,0,3,,,,,,,,,,,,,,,,,,,,,,,,,,,,,,,,,,,,,,,,,,,,,,,,,,,,,,,1113.1898718939992,None,1113.1898718939992,None,1113.1898718939992,None,m,1,0.6319637590004277,1114.7230692770008,None,1114.7230692770008,None,1114.7230692770008,None,1115.4235175939993,None,1115.4235175939993,None,1115.4235175939993,None,1115.4235175939993,None,,,,,,,,,,,,,,,,,,,,,,,,,,,,,,,,,,,,,,,,,,,,001,89,2020_Feb_06_1250,spring_faces,3.1.5,60.12136435241451,
condition files/Stage1_2.xlsx,,T3,B3,c,"['c', 'm']","['Clue', 'Monopoly']","[-0.15, 0.5]","[0.15, 0.5]",1,1,,,,,,,,,0,11,11,11,0,1,1,4,,,,,,,,,,,,,,,,,,,,,,,,,,,,,,,,,,,,,,,,,,,,,,,,,,,,,,,1117.3727971669996,None,1117.3727971669996,None,1117.3727971669996,None,c,1,1.7118636470004276,1118.9071069460006,None,1118.9071069460006,None,1118.9071069460006,None,1120.675667378,None,1120.675667378,None,1120.675667378,None,1120.675667378,None,,,,,,,,,,,,,,,,,,,,,,,,,,,,,,,,,,,,,,,,,,,,001,89,2020_Feb_06_1250,spring_faces,3.1.5,60.12136435241451,
condition files/Stage1_2.xlsx,,B1,T1,c,"['c', 'm']","['Clue', 'Monopoly']","[-0.15, 0.5]","[0.15, 0.5]",1,1,,,,,,,,,0,11,11,11,0,2,2,0,,,,,,,,,,,,,,,,,,,,,,,,,,,,,,,,,,,,,,,,,,,,,,,,,,,,,,,1122.6395280319994,None,1122.6395280319994,None,1122.6395280319994,None,c,1,0.8608163440003409,1124.1901886840005,None,1124.1901886840005,None,1124.1901886840005,None,1125.1065921190002,None,1125.1065921190002,None,1125.1065921190002,None,1125.1065921190002,None,,,,,,,,,,,,,,,,,,,,,,,,,,,,,,,,,,,,,,,,,,,,001,89,2020_Feb_06_1250,spring_faces,3.1.5,60.12136435241451,
condition files/Stage1_2.xlsx,,B3,T4,m,"['c', 'm']","['Clue', 'Monopoly']","[-0.15, 0.5]","[0.15, 0.5]",1,1,,,,,,,,,0,11,11,11,0,3,3,6,,,,,,,,,,,,,,,,,,,,,,,,,,,,,,,,,,,,,,,,,,,,,,,,,,,,,,,1127.0732795509994,None,1127.0732795509994,None,1127.0732795509994,None,m,1,0.6036211699993146,1128.6074029259998,None,1128.6074029259998,None,1128.6074029259998,None,1129.2761198919998,None,1129.2761198919998,None,1129.2761198919998,None,1129.2761198919998,None,,,,,,,,,,,,,,,,,,,,,,,,,,,,,,,,,,,,,,,,,,,,001,89,2020_Feb_06_1250,spring_faces,3.1.5,60.12136435241451,
condition files/Stage1_2.xlsx,,T4,B4,m,"['c', 'm']","['Clue', 'Monopoly']","[-0.15, 0.5]","[0.15, 0.5]",1,1,,,,,,,,,0,11,11,11,0,4,4,7,,,,,,,,,,,,,,,,,,,,,,,,,,,,,,,,,,,,,,,,,,,,,,,,,,,,,,,1131.2401710819995,None,1131.2401710819995,None,1131.2401710819995,None,m,1,0.6930200200004037,1132.7740737839995,None,1132.7740737839995,None,1132.7740737839995,None,1133.5238555800006,None,1133.5238555800006,None,1133.5238555800006,None,1133.5238555800006,None,,,,,,,,,,,,,,,,,,,,,,,,,,,,,,,,,,,,,,,,,,,,001,89,2020_Feb_06_1250,spring_faces,3.1.5,60.12136435241451,
condition files/Stage1_2.xlsx,,T2,B1,c,"['c', 'm']","['Clue', 'Monopoly']","[-0.15, 0.5]","[0.15, 0.5]",1,1,,,,,,,,,0,11,11,11,0,5,5,1,,,,,,,,,,,,,,,,,,,,,,,,,,,,,,,,,,,,,,,,,,,,,,,,,,,,,,,1135.4900825200002,None,1135.4900825200002,None,1135.4900825200002,None,c,1,0.9071401140008675,1137.0239570989997,None,1137.0239570989997,None,1137.0239570989997,None,1138.0065355610004,None,1138.0065355610004,None,1138.0065355610004,None,1138.0065355610004,None,,,,,,,,,,,,,,,,,,,,,,,,,,,,,,,,,,,,,,,,,,,,001,89,2020_Feb_06_1250,spring_faces,3.1.5,60.12136435241451,
condition files/Stage1_2.xlsx,,B4,T3,c,"['c', 'm']","['Clue', 'Monopoly']","[-0.15, 0.5]","[0.15, 0.5]",1,1,,,,,,,,,0,11,11,11,0,6,6,5,,,,,,,,,,,,,,,,,,,,,,,,,,,,,,,,,,,,,,,,,,,,,,,,,,,,,,,1139.9567390800003,None,1139.9567390800003,None,1139.9567390800003,None,c,1,0.9051178289992095,1141.4899102349991,None,1141.4899102349991,None,1141.4899102349991,None,1142.4570950039997,None,1142.4570950039997,None,1142.4570950039997,None,1142.4570950039997,None,,,,,,,,,,,,,,,,,,,,,,,,,,,,,,,,,,,,,,,,,,,,001,89,2020_Feb_06_1250,spring_faces,3.1.5,60.12136435241451,
condition files/Stage1_2.xlsx,,T1,B2,m,"['c', 'm']","['Clue', 'Monopoly']","[-0.15, 0.5]","[0.15, 0.5]",1,1,,,,,,,,,0,11,11,11,0,7,7,2,,,,,,,,,,,,,,,,,,,,,,,,,,,,,,,,,,,,,,,,,,,,,,,,,,,,,,,1144.4233870320004,None,1144.4233870320004,None,1144.4233870320004,None,m,1,0.5815981609994196,1145.9574194060006,None,1145.9574194060006,None,1145.9574194060006,None,1146.6065782820006,None,1146.6065782820006,None,1146.6065782820006,None,1146.6065782820006,None,,,,,,,,,,,,,,,,,,,,,,,,,,,,,,,,,,,,,,,,,,,,001,89,2020_Feb_06_1250,spring_faces,3.1.5,60.12136435241451,
,,,,,,,,,,,,,,,,,,,,,,,,,,,,,,,,,,,,,,,,,,,,,,,,,,,,,,,,,,,,,,,,,,,,,,,,,,,,,,,,,,,,,,,,,,,,,,,,,,,,,,,,,,,,,,,,1148.5736632659991,None,space,5.397619207000389,1153.5734075689998,None,,,,,,,,,,,,,,,,,,,,,,,,,,,,,,001,89,2020_Feb_06_1250,spring_faces,3.1.5,60.12136435241451,
condition files/Stage2_1.xlsx,,T5,B5,s,"['s', 'r']","['Stratego', 'Risk']","[-0.15, 0.5]","[0.15, 0.5]",1,1,,,,,,,,,,,,,,,,,0,0,0,0,0,0,0,0,,,,,,,,,,,,,,,,,,,,,,,,,,,,,,,,,,,,,,,,,,,,,,,1159.0230361409995,None,1159.0230361409995,None,1159.0230361409995,None,r,0,1.3905981249990873,1160.5564895040006,None,1160.5564895040006,None,1160.5564895040006,None,1162.0230346160006,None,1162.0230346160006,None,1162.0230346160006,None,1162.0230346160006,None,,,,,,,,,,,,,,,1153.5734075689998,None,,,,,,,,,,,,,,,,,,,,,,,,,,,,001,89,2020_Feb_06_1250,spring_faces,3.1.5,60.12136435241451,
condition files/Stage2_1.xlsx,,B6,T6,r,"['s', 'r']","['Stratego', 'Risk']","[-0.15, 0.5]","[0.15, 0.5]",1,1,,,,,,,,,,,,,,,,,0,0,0,0,0,1,1,1,,,,,,,,,,,,,,,,,,,,,,,,,,,,,,,,,,,,,,,,,,,,,,,1163.9735906810001,None,1163.9735906810001,None,1163.9735906810001,None,r,1,1.0481423260007432,1165.5068765439992,None,1165.5068765439992,None,1165.5068765439992,None,1166.609377441,None,1166.609377441,None,1166.609377441,None,1166.609377441,None,,,,,,,,,,,,,,,,,,,,,,,,,,,,,,,,,,,,,,,,,,,,001,89,2020_Feb_06_1250,spring_faces,3.1.5,60.12136435241451,
condition files/Stage2_1.xlsx,,T3,B3,s,"['s', 'r']","['Stratego', 'Risk']","[-0.15, 0.5]","[0.15, 0.5]",1,1,,,,,,,,,,,,,,,,,0,0,0,0,0,2,2,4,,,,,,,,,,,,,,,,,,,,,,,,,,,,,,,,,,,,,,,,,,,,,,,1168.573370909,None,1168.573370909,None,1168.573370909,None,s,1,2.479091058999984,1170.1078846220007,None,1170.1078846220007,None,1170.1078846220007,None,1172.6411805810003,None,1172.6411805810003,None,1172.6411805810003,None,1172.6411805810003,None,,,,,,,,,,,,,,,,,,,,,,,,,,,,,,,,,,,,,,,,,,,,001,89,2020_Feb_06_1250,spring_faces,3.1.5,60.12136435241451,
condition files/Stage2_1.xlsx,,B2,T2,r,"['s', 'r']","['Stratego', 'Risk']","[-0.15, 0.5]","[0.15, 0.5]",1,1,,,,,,,,,,,,,,,,,0,0,0,0,0,3,3,3,,,,,,,,,,,,,,,,,,,,,,,,,,,,,,,,,,,,,,,,,,,,,,,1174.6061703579999,None,1174.6061703579999,None,1174.6061703579999,None,r,1,1.07019625599969,1176.1568095999992,None,1176.1568095999992,None,1176.1568095999992,None,1177.2914132320002,None,1177.2914132320002,None,1177.2914132320002,None,1177.2914132320002,None,,,,,,,,,,,,,,,,,,,,,,,,,,,,,,,,,,,,,,,,,,,,001,89,2020_Feb_06_1250,spring_faces,3.1.5,60.12136435241451,
condition files/Stage2_1.xlsx,,T1,B1,s,"['s', 'r']","['Stratego', 'Risk']","[-0.15, 0.5]","[0.15, 0.5]",1,1,,,,,,,,,,,,,,,,,0,0,0,0,0,4,4,2,,,,,,,,,,,,,,,,,,,,,,,,,,,,,,,,,,,,,,,,,,,,,,,1179.2567173049993,None,1179.2567173049993,None,1179.2567173049993,None,s,1,0.8839108709998982,1180.8070810169993,None,1180.8070810169993,None,1180.8070810169993,None,1181.7581412960008,None,1181.7581412960008,None,1181.7581412960008,None,1181.7581412960008,None,,,,,,,,,,,,,,,,,,,,,,,,,,,,,,,,,,,,,,,,,,,,001,89,2020_Feb_06_1250,spring_faces,3.1.5,60.12136435241451,
condition files/Stage2_1.xlsx,,B4,T4,r,"['s', 'r']","['Stratego', 'Risk']","[-0.15, 0.5]","[0.15, 0.5]",1,1,,,,,,,,,,,,,,,,,0,0,0,0,0,5,5,5,,,,,,,,,,,,,,,,,,,,,,,,,,,,,,,,,,,,,,,,,,,,,,,1183.723453691,None,1183.723453691,None,1183.723453691,None,r,1,1.040291741999681,1185.2587991170003,None,1185.2587991170003,None,1185.2587991170003,None,1186.3737241439994,None,1186.3737241439994,None,1186.3737241439994,None,1186.3737241439994,None,,,,,,,,,,,,,,,,,,,,,,,,,,,,,,,,,,,,,,,,,,,,001,89,2020_Feb_06_1250,spring_faces,3.1.5,60.12136435241451,
condition files/Stage2_2.xlsx,,T4,B4,r,"['s', 'r']","['Stratego', 'Risk']","[-0.15, 0.5]","[0.15, 0.5]",1,1,,,,,,,,,,,,,,,,,0,1,1,1,0,0,0,5,,,,,,,,,,,,,,,,,,,,,,,,,,,,,,,,,,,,,,,,,,,,,,,1188.3403619130004,None,1188.3403619130004,None,1188.3403619130004,None,r,1,0.8725174070004869,1189.8905645550003,None,1189.8905645550003,None,1189.8905645550003,None,1190.8239600569996,None,1190.8239600569996,None,1190.8239600569996,None,1190.8239600569996,None,,,,,,,,,,,,,,,,,,,,,,,,,,,,,,,,,,,,,,,,,,,,001,89,2020_Feb_06_1250,spring_faces,3.1.5,60.12136435241451,
condition files/Stage2_2.xlsx,,T6,B6,r,"['s', 'r']","['Stratego', 'Risk']","[-0.15, 0.5]","[0.15, 0.5]",1,1,,,,,,,,,,,,,,,,,0,1,1,1,0,1,1,1,,,,,,,,,,,,,,,,,,,,,,,,,,,,,,,,,,,,,,,,,,,,,,,1192.7894065830005,None,1192.7894065830005,None,1192.7894065830005,None,s,0,0.5198063889984041,1194.3232284610003,None,1194.3232284610003,None,1194.3232284610003,None,1194.9067731100004,None,1194.9067731100004,None,1194.9067731100004,None,1194.9067731100004,None,,,,,,,,,,,,,,,,,,,,,,,,,,,,,,,,,,,,,,,,,,,,001,89,2020_Feb_06_1250,spring_faces,3.1.5,60.12136435241451,
condition files/Stage2_2.xlsx,,T2,B2,r,"['s', 'r']","['Stratego', 'Risk']","[-0.15, 0.5]","[0.15, 0.5]",1,1,,,,,,,,,,,,,,,,,0,1,1,1,0,2,2,3,,,,,,,,,,,,,,,,,,,,,,,,,,,,,,,,,,,,,,,,,,,,,,,1196.8733544059996,None,1196.8733544059996,None,1196.8733544059996,None,r,1,0.9628592590015614,1198.408158102,None,1198.408158102,None,1198.408158102,None,1199.4234164940008,None,1199.4234164940008,None,1199.4234164940008,None,1199.4234164940008,None,,,,,,,,,,,,,,,,,,,,,,,,,,,,,,,,,,,,,,,,,,,,001,89,2020_Feb_06_1250,spring_faces,3.1.5,60.12136435241451,
condition files/Stage2_2.xlsx,,B5,T5,s,"['s', 'r']","['Stratego', 'Risk']","[-0.15, 0.5]","[0.15, 0.5]",1,1,,,,,,,,,,,,,,,,,0,1,1,1,0,3,3,0,,,,,,,,,,,,,,,,,,,,,,,,,,,,,,,,,,,,,,,,,,,,,,,1201.3904101909993,None,1201.3904101909993,None,1201.3904101909993,None,s,1,1.9669428349989175,1202.9240501820004,None,1202.9240501820004,None,1202.9240501820004,None,1204.957420953,None,1204.957420953,None,1204.957420953,None,1204.957420953,None,,,,,,,,,,,,,,,,,,,,,,,,,,,,,,,,,,,,,,,,,,,,001,89,2020_Feb_06_1250,spring_faces,3.1.5,60.12136435241451,
condition files/Stage2_2.xlsx,,B3,T3,s,"['s', 'r']","['Stratego', 'Risk']","[-0.15, 0.5]","[0.15, 0.5]",1,1,,,,,,,,,,,,,,,,,0,1,1,1,0,4,4,4,,,,,,,,,,,,,,,,,,,,,,,,,,,,,,,,,,,,,,,,,,,,,,,1206.9236816699995,None,1206.9236816699995,None,1206.9236816699995,None,s,1,1.5707245359990338,1208.4562952180004,None,1208.4562952180004,None,1208.4562952180004,None,1210.0904507369996,None,1210.0904507369996,None,1210.0904507369996,None,1210.0904507369996,None,,,,,,,,,,,,,,,,,,,,,,,,,,,,,,,,,,,,,,,,,,,,001,89,2020_Feb_06_1250,spring_faces,3.1.5,60.12136435241451,
condition files/Stage2_2.xlsx,,B1,T1,s,"['s', 'r']","['Stratego', 'Risk']","[-0.15, 0.5]","[0.15, 0.5]",1,1,,,,,,,,,,,,,,,,,0,1,1,1,0,5,5,2,,,,,,,,,,,,,,,,,,,,,,,,,,,,,,,,,,,,,,,,,,,,,,,1212.0565861369996,None,1212.0565861369996,None,1212.0565861369996,None,s,1,0.8359998300002189,1213.6070128930005,None,1213.6070128930005,None,1213.6070128930005,None,1214.5069585149995,None,1214.5069585149995,None,1214.5069585149995,None,1214.5069585149995,None,,,,,,,,,,,,,,,,,,,,,,,,,,,,,,,,,,,,,,,,,,,,001,89,2020_Feb_06_1250,spring_faces,3.1.5,60.12136435241451,
condition files/Stage2_1.xlsx,,T1,B1,s,"['s', 'r']","['Stratego', 'Risk']","[-0.15, 0.5]","[0.15, 0.5]",1,1,,,,,,,,,,,,,,,,,0,2,2,2,0,0,0,2,,,,,,,,,,,,,,,,,,,,,,,,,,,,,,,,,,,,,,,,,,,,,,,1216.4901758119995,None,1216.4901758119995,None,1216.4901758119995,None,s,1,0.8032397229999333,1218.0397803739997,None,1218.0397803739997,None,1218.0397803739997,None,1218.9066648030002,None,1218.9066648030002,None,1218.9066648030002,None,1218.9066648030002,None,,,,,,,,,,,,,,,,,,,,,,,,,,,,,,,,,,,,,,,,,,,,001,89,2020_Feb_06_1250,spring_faces,3.1.5,60.12136435241451,
condition files/Stage2_1.xlsx,,T3,B3,s,"['s', 'r']","['Stratego', 'Risk']","[-0.15, 0.5]","[0.15, 0.5]",1,1,,,,,,,,,,,,,,,,,0,2,2,2,0,1,1,4,,,,,,,,,,,,,,,,,,,,,,,,,,,,,,,,,,,,,,,,,,,,,,,1220.872734867,None,1220.872734867,None,1220.872734867,None,s,1,0.6917000590001408,1222.4073886419992,None,1222.4073886419992,None,1222.4073886419992,None,1223.1566484600007,None,1223.1566484600007,None,1223.1566484600007,None,1223.1566484600007,None,,,,,,,,,,,,,,,,,,,,,,,,,,,,,,,,,,,,,,,,,,,,001,89,2020_Feb_06_1250,spring_faces,3.1.5,60.12136435241451,
condition files/Stage2_1.xlsx,,T5,B5,s,"['s', 'r']","['Stratego', 'Risk']","[-0.15, 0.5]","[0.15, 0.5]",1,1,,,,,,,,,,,,,,,,,0,2,2,2,0,2,2,0,,,,,,,,,,,,,,,,,,,,,,,,,,,,,,,,,,,,,,,,,,,,,,,1225.1233866870007,None,1225.1233866870007,None,1225.1233866870007,None,s,1,0.8898842409998906,1226.6571217870005,None,1226.6571217870005,None,1226.6571217870005,None,1227.6074508109996,None,1227.6074508109996,None,1227.6074508109996,None,1227.6074508109996,None,,,,,,,,,,,,,,,,,,,,,,,,,,,,,,,,,,,,,,,,,,,,001,89,2020_Feb_06_1250,spring_faces,3.1.5,60.12136435241451,
condition files/Stage2_1.xlsx,,B4,T4,r,"['s', 'r']","['Stratego', 'Risk']","[-0.15, 0.5]","[0.15, 0.5]",1,1,,,,,,,,,,,,,,,,,0,2,2,2,0,3,3,5,,,,,,,,,,,,,,,,,,,,,,,,,,,,,,,,,,,,,,,,,,,,,,,1229.5727947750001,None,1229.5727947750001,None,1229.5727947750001,None,r,1,0.9193572939984733,1231.107663801,None,1231.107663801,None,1231.107663801,None,1232.1071371899998,None,1232.1071371899998,None,1232.1071371899998,None,1232.1071371899998,None,,,,,,,,,,,,,,,,,,,,,,,,,,,,,,,,,,,,,,,,,,,,001,89,2020_Feb_06_1250,spring_faces,3.1.5,60.12136435241451,
condition files/Stage2_1.xlsx,,B6,T6,r,"['s', 'r']","['Stratego', 'Risk']","[-0.15, 0.5]","[0.15, 0.5]",1,1,,,,,,,,,,,,,,,,,0,2,2,2,0,4,4,1,,,,,,,,,,,,,,,,,,,,,,,,,,,,,,,,,,,,,,,,,,,,,,,1234.0568933600007,None,1234.0568933600007,None,1234.0568933600007,None,r,1,1.0118112769996515,1235.6071528039993,None,1235.6071528039993,None,1235.6071528039993,None,1236.6734861629993,None,1236.6734861629993,None,1236.6734861629993,None,1236.6734861629993,None,,,,,,,,,,,,,,,,,,,,,,,,,,,,,,,,,,,,,,,,,,,,001,89,2020_Feb_06_1250,spring_faces,3.1.5,60.12136435241451,
condition files/Stage2_1.xlsx,,B2,T2,r,"['s', 'r']","['Stratego', 'Risk']","[-0.15, 0.5]","[0.15, 0.5]",1,1,,,,,,,,,,,,,,,,,0,2,2,2,0,5,5,3,,,,,,,,,,,,,,,,,,,,,,,,,,,,,,,,,,,,,,,,,,,,,,,1238.6397197490005,None,1238.6397197490005,None,1238.6397197490005,None,s,0,0.6528618550000829,1240.1901500290005,None,1240.1901500290005,None,1240.1901500290005,None,1240.9069748130005,None,1240.9069748130005,None,1240.9069748130005,None,1240.9069748130005,None,,,,,,,,,,,,,,,,,,,,,,,,,,,,,,,,,,,,,,,,,,,,001,89,2020_Feb_06_1250,spring_faces,3.1.5,60.12136435241451,
condition files/Stage2_2.xlsx,,B5,T5,s,"['s', 'r']","['Stratego', 'Risk']","[-0.15, 0.5]","[0.15, 0.5]",1,1,,,,,,,,,,,,,,,,,0,3,3,3,0,0,0,0,,,,,,,,,,,,,,,,,,,,,,,,,,,,,,,,,,,,,,,,,,,,,,,1242.8903933069996,None,1242.8903933069996,None,1242.8903933069996,None,s,1,0.8199182020016451,1244.4231139099993,None,1244.4231139099993,None,1244.4231139099993,None,1245.3095575179996,None,1245.3095575179996,None,1245.3095575179996,None,1245.3095575179996,None,,,,,,,,,,,,,,,,,,,,,,,,,,,,,,,,,,,,,,,,,,,,001,89,2020_Feb_06_1250,spring_faces,3.1.5,60.12136435241451,
condition files/Stage2_2.xlsx,,T2,B2,r,"['s', 'r']","['Stratego', 'Risk']","[-0.15, 0.5]","[0.15, 0.5]",1,1,,,,,,,,,,,,,,,,,0,3,3,3,0,1,1,3,,,,,,,,,,,,,,,,,,,,,,,,,,,,,,,,,,,,,,,,,,,,,,,1247.2733656719993,None,1247.2733656719993,None,1247.2733656719993,None,r,1,0.851608261000365,1248.8074184680008,None,1248.8074184680008,None,1248.8074184680008,None,1249.7404310769998,None,1249.7404310769998,None,1249.7404310769998,None,1249.7404310769998,None,,,,,,,,,,,,,,,,,,,,,,,,,,,,,,,,,,,,,,,,,,,,001,89,2020_Feb_06_1250,spring_faces,3.1.5,60.12136435241451,
condition files/Stage2_2.xlsx,,T4,B4,r,"['s', 'r']","['Stratego', 'Risk']","[-0.15, 0.5]","[0.15, 0.5]",1,1,,,,,,,,,,,,,,,,,0,3,3,3,0,2,2,5,,,,,,,,,,,,,,,,,,,,,,,,,,,,,,,,,,,,,,,,,,,,,,,1251.6900300069992,None,1251.6900300069992,None,1251.6900300069992,None,r,1,0.626713577999908,1253.2403659749998,None,1253.2403659749998,None,1253.2403659749998,None,1253.9233418629992,None,1253.9233418629992,None,1253.9233418629992,None,1253.9233418629992,None,,,,,,,,,,,,,,,,,,,,,,,,,,,,,,,,,,,,,,,,,,,,001,89,2020_Feb_06_1250,spring_faces,3.1.5,60.12136435241451,
condition files/Stage2_2.xlsx,,T6,B6,r,"['s', 'r']","['Stratego', 'Risk']","[-0.15, 0.5]","[0.15, 0.5]",1,1,,,,,,,,,,,,,,,,,0,3,3,3,0,3,3,1,,,,,,,,,,,,,,,,,,,,,,,,,,,,,,,,,,,,,,,,,,,,,,,1255.8894710040004,None,1255.8894710040004,None,1255.8894710040004,None,r,1,0.8117564470012439,1257.4232447499999,None,1257.4232447499999,None,1257.4232447499999,None,1258.2906998390008,None,1258.2906998390008,None,1258.2906998390008,None,1258.2906998390008,None,,,,,,,,,,,,,,,,,,,,,,,,,,,,,,,,,,,,,,,,,,,,001,89,2020_Feb_06_1250,spring_faces,3.1.5,60.12136435241451,
condition files/Stage2_2.xlsx,,B1,T1,s,"['s', 'r']","['Stratego', 'Risk']","[-0.15, 0.5]","[0.15, 0.5]",1,1,,,,,,,,,,,,,,,,,0,3,3,3,0,4,4,2,,,,,,,,,,,,,,,,,,,,,,,,,,,,,,,,,,,,,,,,,,,,,,,1260.2568245509992,None,1260.2568245509992,None,1260.2568245509992,None,s,1,1.115355374999126,1261.7916357230006,None,1261.7916357230006,None,1261.7916357230006,None,1262.9737457909996,None,1262.9737457909996,None,1262.9737457909996,None,1262.9737457909996,None,,,,,,,,,,,,,,,,,,,,,,,,,,,,,,,,,,,,,,,,,,,,001,89,2020_Feb_06_1250,spring_faces,3.1.5,60.12136435241451,
condition files/Stage2_2.xlsx,,B3,T3,s,"['s', 'r']","['Stratego', 'Risk']","[-0.15, 0.5]","[0.15, 0.5]",1,1,,,,,,,,,,,,,,,,,0,3,3,3,0,5,5,4,,,,,,,,,,,,,,,,,,,,,,,,,,,,,,,,,,,,,,,,,,,,,,,1264.9235882699995,None,1264.9235882699995,None,1264.9235882699995,None,s,1,4.704933832001188,1266.4581544020002,None,1266.4581544020002,None,1266.4581544020002,None,1271.2233912840002,None,1271.2233912840002,None,1271.2233912840002,None,1271.2233912840002,None,,,,,,,,,,,,,,,,,,,,,,,,,,,,,,,,,,,,,,,,,,,,001,89,2020_Feb_06_1250,spring_faces,3.1.5,60.12136435241451,
condition files/Stage2_1.xlsx,,B2,T2,r,"['s', 'r']","['Stratego', 'Risk']","[-0.15, 0.5]","[0.15, 0.5]",1,1,,,,,,,,,,,,,,,,,0,4,4,4,0,0,0,3,,,,,,,,,,,,,,,,,,,,,,,,,,,,,,,,,,,,,,,,,,,,,,,1273.2072529359993,None,1273.2072529359993,None,1273.2072529359993,None,r,1,0.7258818169993901,1274.7571234160005,None,1274.7571234160005,None,1274.7571234160005,None,1275.5565980730007,None,1275.5565980730007,None,1275.5565980730007,None,1275.5565980730007,None,,,,,,,,,,,,,,,,,,,,,,,,,,,,,,,,,,,,,,,,,,,,001,89,2020_Feb_06_1250,spring_faces,3.1.5,60.12136435241451,
condition files/Stage2_1.xlsx,,B4,T4,r,"['s', 'r']","['Stratego', 'Risk']","[-0.15, 0.5]","[0.15, 0.5]",1,1,,,,,,,,,,,,,,,,,0,4,4,4,0,1,1,5,,,,,,,,,,,,,,,,,,,,,,,,,,,,,,,,,,,,,,,,,,,,,,,1277.5066373280006,None,1277.5066373280006,None,1277.5066373280006,None,r,1,0.778110729999753,1279.0408568919993,None,1279.0408568919993,None,1279.0408568919993,None,1279.8735487989998,None,1279.8735487989998,None,1279.8735487989998,None,1279.8735487989998,None,,,,,,,,,,,,,,,,,,,,,,,,,,,,,,,,,,,,,,,,,,,,001,89,2020_Feb_06_1250,spring_faces,3.1.5,60.12136435241451,
condition files/Stage2_1.xlsx,,B6,T6,r,"['s', 'r']","['Stratego', 'Risk']","[-0.15, 0.5]","[0.15, 0.5]",1,1,,,,,,,,,,,,,,,,,0,4,4,4,0,2,2,1,,,,,,,,,,,,,,,,,,,,,,,,,,,,,,,,,,,,,,,,,,,,,,,1281.8400603770006,None,1281.8400603770006,None,1281.8400603770006,None,r,1,0.7974785759997758,1283.3735439930006,None,1283.3735439930006,None,1283.3735439930006,None,1284.2230468720009,None,1284.2230468720009,None,1284.2230468720009,None,1284.2230468720009,None,,,,,,,,,,,,,,,,,,,,,,,,,,,,,,,,,,,,,,,,,,,,001,89,2020_Feb_06_1250,spring_faces,3.1.5,60.12136435241451,
condition files/Stage2_1.xlsx,,T5,B5,s,"['s', 'r']","['Stratego', 'Risk']","[-0.15, 0.5]","[0.15, 0.5]",1,1,,,,,,,,,,,,,,,,,0,4,4,4,0,3,3,0,,,,,,,,,,,,,,,,,,,,,,,,,,,,,,,,,,,,,,,,,,,,,,,1286.1898445730003,None,1286.1898445730003,None,1286.1898445730003,None,s,1,0.7979514439994091,1287.7250646240009,None,1287.7250646240009,None,1287.7250646240009,None,1288.5902629829998,None,1288.5902629829998,None,1288.5902629829998,None,1288.5902629829998,None,,,,,,,,,,,,,,,,,,,,,,,,,,,,,,,,,,,,,,,,,,,,001,89,2020_Feb_06_1250,spring_faces,3.1.5,60.12136435241451,
