condsFile,subStage,cue1,cue2,correct,responseKeys,responseNames,cue1Position,cue2Position,cue1Opacity,cue2Opacity,stageLoop0.thisRepN,stageLoop0.thisTrialN,stageLoop0.thisN,stageLoop0.thisIndex,blockLoop0.thisRepN,blockLoop0.thisTrialN,blockLoop0.thisN,blockLoop0.thisIndex,stage1Loop.thisRepN,stage1Loop.thisTrialN,stage1Loop.thisN,stage1Loop.thisIndex,blockLoop1.thisRepN,blockLoop1.thisTrialN,blockLoop1.thisN,blockLoop1.thisIndex,stage2Loop.thisRepN,stage2Loop.thisTrialN,stage2Loop.thisN,stage2Loop.thisIndex,blockLoop2.thisRepN,blockLoop2.thisTrialN,blockLoop2.thisN,blockLoop2.thisIndex,testLoop.thisRepN,testLoop.thisTrialN,testLoop.thisN,testLoop.thisIndex,blockLoopTest.thisRepN,blockLoopTest.thisTrialN,blockLoopTest.thisN,blockLoopTest.thisIndex,cuePics,id_instr_text.started,id_instr_text.stopped,space_to_continue_2.started,space_to_continue_2.stopped,end_instructions_resp_3.keys,end_instructions_resp_3.rt,end_instructions_resp_3.started,end_instructions_resp_3.stopped,id_input_instr.started,id_input_instr.stopped,id_input_rect.started,id_input_rect.stopped,id_input_resp.keys,id_input_resp.rt,id_input_resp.started,id_input_resp.stopped,sonaID,id_input_text.started,id_input_text.stopped,final_text.started,final_text.stopped,instructions.started,instructions.stopped,end_instructions_resp.keys,end_instructions_resp.rt,end_instructions_resp.started,end_instructions_resp.stopped,space_to_continue.started,space_to_continue.stopped,instructions_stage0.started,instructions_stage0.stopped,end_instructions_resp_stage0.keys,end_instructions_resp_stage0.rt,end_instructions_resp_stage0.started,end_instructions_resp_stage0.stopped,space_to_continue_stage0.started,space_to_continue_stage0.stopped,text.started,text.stopped,resp_text1.started,resp_text1.stopped,resp_text2.started,resp_text2.stopped,trial_resp.keys,trial_resp.corr,trial_resp.rt,trial_resp.started,trial_resp.stopped,cue1Image.started,cue1Image.stopped,cue2Image.started,cue2Image.stopped,cue1Image_fb.started,cue1Image_fb.stopped,cue2Image_fb.started,cue2Image_fb.stopped,fb_text_answer.started,fb_text_answer.stopped,feedback_image.started,feedback_image.stopped,instructions_stage1.started,instructions_stage1.stopped,end_instructions_resp_stage1.keys,end_instructions_resp_stage1.rt,end_instructions_resp_stage1.started,end_instructions_resp_stage1.stopped,space_to_continue_stage1.started,space_to_continue_stage1.stopped,instructions_2.started,instructions_2.stopped,end_instructions_resp_2.keys,end_instructions_resp_2.rt,end_instructions_resp_2.started,end_instructions_resp_2.stopped,press_space_to_continue_stage2.started,press_space_to_continue_stage2.stopped,instructions_testStage1.started,instructions_testStage1.stopped,end_instructions_resp_test1.keys,end_instructions_resp_test1.rt,end_instructions_resp_test1.started,end_instructions_resp_test1.stopped,press_space_to_continue_test1.started,press_space_to_continue_test1.stopped,cue1Image_testChoice.started,cue1Image_testChoice.stopped,cue2Image_testChoice.started,cue2Image_testChoice.stopped,test_resp.keys,test_resp.corr,test_resp.rt,test_resp.started,test_resp.stopped,cue1Image_testConf.started,cue1Image_testConf.stopped,cue2Image_testConf.started,cue2Image_testConf.stopped,conf_reminder.started,conf_reminder.stopped,conf_rating.response,conf_rating.rt,conf_rating.started,conf_rating.stopped,session,participant,date,expName,psychopyVersion,frameRate,
,,,,,,,,,,,,,,,,,,,,,,,,,,,,,,,,,,,,,,,,,,,"{'none': 'pictures/20M_AN_C.png', 'alpha': 'pictures/SHINEd_pear.png', 'beta': 'pictures/SHINEd_melon.png', 'theta': 'pictures/SHINEd_apple.png', 'phi': 'pictures/SHINEd_pepper.png', 'T1': 'pictures/20M_AN_C.png', 'T2': 'pictures/36M_AN_C.png', 'T3': 'pictures/22M_AN_C.png', 'T4': 'pictures/25M_AN_C.png', 'T5': 'pictures/32M_AN_C.png', 'T6': 'pictures/23M_AN_C.png', 'B1': 'pictures/37M_NE_C.png', 'B2': 'pictures/31M_NE_C.png', 'B3': 'pictures/38M_NE_C.png', 'B4': 'pictures/33M_NE_C.png', 'B5': 'pictures/26M_NE_C.png', 'B6': 'pictures/34M_NE_C.png'}",38.26053904999935,None,43.24401850199865,None,space,90.10491379199993,43.24401850199865,None,,,,,,,,,,,,,,,,,,,,,,,,,,,,,,,,,,,,,,,,,,,,,,,,,,,,,,,,,,,,,,,,,,,,,,,,,,,,,,,,,,,,,,,,,,,,,,,,001,8,2020_Jan_28_1050,spring_faces,3.1.5,59.966837019825775,
,,,,,,,,,,,,,,,,,,,,,,,,,,,,,,,,,,,,,,,,,,,,,,,,,,,,133.74423616999957,None,133.74423616999957,None,"['0', '4', '2', '6', 'l', 'i', 'n', 'i', 'w']","[20.19663774199944, 21.39667235899833, 26.51666834599928, 26.900653187998614, 31.68464267299896, 31.924758908999138, 34.6767578759991, 35.620693768998535, 36.19667664399822]",133.74423616999957,None,,,,,,,,,,,,,,,,,,,,,,,,,,,,,,,,,,,,,,,,,,,,,,,,,,,,,,,,,,,,,,,,,,,,,,,,,,,,,,,,,,,,,,,,001,8,2020_Jan_28_1050,spring_faces,3.1.5,59.966837019825775,
,,,,,,,,,,,,,,,,,,,,,,,,,,,,,,,,,,,,,,,,,,,,,,,,,,,,,,,,,,,,0426liniw,133.74423616999957,None,133.74423616999957,None,175.01107914400018,None,space,3.818283253998743,180.0106075779986,None,,,,,,,,,,,,,,,,,,,,,,,,,,,,,,,,,,,,,,,,,,,,,,,,,,,,,,,,,,,,,,,,,,,,,,,,,,,,,001,8,2020_Jan_28_1050,spring_faces,3.1.5,59.966837019825775,
,,,,,,,,,,,,,,,,,,,,,,,,,,,,,,,,,,,,,,,,,,,,,,,,,,,,,,,,,,,,,,,,,,,,,,,180.0106075779986,None,183.87740972499887,None,space,7.7196902640007465,188.87724052799967,None,,,,,,,,,,,,,,,,,,,,,,,,,,,,,,,,,,,,,,,,,,,,,,,,,,,,,,,,,,,,,,,,,,,,,001,8,2020_Jan_28_1050,spring_faces,3.1.5,59.966837019825775,
condition files/Stage0a.xlsx,0a,alpha,none,h,"['h', 'g']","['Chess', 'Go']","[0, 0.5]","[0, 0]",1,0,0,0,0,0,0,0,0,0,,,,,,,,,,,,,,,,,,,,,,,,,,,,,,,,,,,,,,,,,,,,,,,,,,,,,,,,,,,,,188.87724052799967,None,196.66070919399863,None,196.66070919399863,None,196.66070919399863,None,g,0,1.4409737370006042,198.24402513199857,None,198.24402513199857,None,198.24402513199857,None,199.76090078299967,None,199.76090078299967,None,199.76090078299967,None,199.76090078299967,None,,,,,,,,,,,,,,,,,,,,,,,,,,,,,,,,,,,,,,,,,,,,001,8,2020_Jan_28_1050,spring_faces,3.1.5,59.966837019825775,
condition files/Stage0a.xlsx,0a,beta,none,g,"['h', 'g']","['Chess', 'Go']","[0, 0.5]","[0, 0]",1,0,0,0,0,0,0,1,1,1,,,,,,,,,,,,,,,,,,,,,,,,,,,,,,,,,,,,,,,,,,,,,,,,,,,,,,,,,,,,,,,201.71042834299988,None,201.71042834299988,None,201.71042834299988,None,g,1,0.9831572269995377,203.26174268799878,None,203.26174268799878,None,203.26174268799878,None,204.31103229099972,None,204.31103229099972,None,204.31103229099972,None,204.31103229099972,None,,,,,,,,,,,,,,,,,,,,,,,,,,,,,,,,,,,,,,,,,,,,001,8,2020_Jan_28_1050,spring_faces,3.1.5,59.966837019825775,
condition files/Stage0a.xlsx,0a,alpha,none,h,"['h', 'g']","['Chess', 'Go']","[0, 0.5]","[0, 0]",1,0,0,1,1,1,0,0,0,0,,,,,,,,,,,,,,,,,,,,,,,,,,,,,,,,,,,,,,,,,,,,,,,,,,,,,,,,,,,,,,,206.2935416049986,None,206.2935416049986,None,206.2935416049986,None,g,0,1.4736403259994404,207.8273601839992,None,207.8273601839992,None,207.8273601839992,None,209.36031691599965,None,209.36031691599965,None,209.36031691599965,None,209.36031691599965,None,,,,,,,,,,,,,,,,,,,,,,,,,,,,,,,,,,,,,,,,,,,,001,8,2020_Jan_28_1050,spring_faces,3.1.5,59.966837019825775,
condition files/Stage0a.xlsx,0a,beta,none,g,"['h', 'g']","['Chess', 'Go']","[0, 0.5]","[0, 0]",1,0,0,1,1,1,0,1,1,1,,,,,,,,,,,,,,,,,,,,,,,,,,,,,,,,,,,,,,,,,,,,,,,,,,,,,,,,,,,,,,,211.32711779999954,None,211.32711779999954,None,211.32711779999954,None,g,1,1.2083514040004957,212.86063866399854,None,212.86063866399854,None,212.86063866399854,None,214.1268427599989,None,214.1268427599989,None,214.1268427599989,None,214.1268427599989,None,,,,,,,,,,,,,,,,,,,,,,,,,,,,,,,,,,,,,,,,,,,,001,8,2020_Jan_28_1050,spring_faces,3.1.5,59.966837019825775,
condition files/Stage0a.xlsx,0a,beta,none,g,"['h', 'g']","['Chess', 'Go']","[0, 0.5]","[0, 0]",1,0,0,2,2,2,0,0,0,1,,,,,,,,,,,,,,,,,,,,,,,,,,,,,,,,,,,,,,,,,,,,,,,,,,,,,,,,,,,,,,,216.11087518800014,None,216.11087518800014,None,216.11087518800014,None,g,1,1.1290172389999498,217.64387415099918,None,217.64387415099918,None,217.64387415099918,None,218.8270931449988,None,218.8270931449988,None,218.8270931449988,None,218.8270931449988,None,,,,,,,,,,,,,,,,,,,,,,,,,,,,,,,,,,,,,,,,,,,,001,8,2020_Jan_28_1050,spring_faces,3.1.5,59.966837019825775,
condition files/Stage0a.xlsx,0a,alpha,none,h,"['h', 'g']","['Chess', 'Go']","[0, 0.5]","[0, 0]",1,0,0,2,2,2,0,1,1,0,,,,,,,,,,,,,,,,,,,,,,,,,,,,,,,,,,,,,,,,,,,,,,,,,,,,,,,,,,,,,,,220.79384566499903,None,220.79384566499903,None,220.79384566499903,None,h,1,1.0860638369995286,222.32686158399883,None,222.32686158399883,None,222.32686158399883,None,223.47916433499995,None,223.47916433499995,None,223.47916433499995,None,223.47916433499995,None,,,,,,,,,,,,,,,,,,,,,,,,,,,,,,,,,,,,,,,,,,,,001,8,2020_Jan_28_1050,spring_faces,3.1.5,59.966837019825775,
condition files/Stage0a.xlsx,0a,beta,none,g,"['h', 'g']","['Chess', 'Go']","[0, 0.5]","[0, 0]",1,0,0,3,3,3,0,0,0,1,,,,,,,,,,,,,,,,,,,,,,,,,,,,,,,,,,,,,,,,,,,,,,,,,,,,,,,,,,,,,,,225.46011423299933,None,225.46011423299933,None,225.46011423299933,None,g,1,1.1705615970004146,226.99436155199874,None,226.99436155199874,None,226.99436155199874,None,228.22699660699982,None,228.22699660699982,None,228.22699660699982,None,228.22699660699982,None,,,,,,,,,,,,,,,,,,,,,,,,,,,,,,,,,,,,,,,,,,,,001,8,2020_Jan_28_1050,spring_faces,3.1.5,59.966837019825775,
condition files/Stage0a.xlsx,0a,alpha,none,h,"['h', 'g']","['Chess', 'Go']","[0, 0.5]","[0, 0]",1,0,0,3,3,3,0,1,1,0,,,,,,,,,,,,,,,,,,,,,,,,,,,,,,,,,,,,,,,,,,,,,,,,,,,,,,,,,,,,,,,230.1937919539996,None,230.1937919539996,None,230.1937919539996,None,g,0,2.517750793000232,231.72716049999872,None,231.72716049999872,None,231.72716049999872,None,234.31073233999996,None,234.31073233999996,None,234.31073233999996,None,234.31073233999996,None,,,,,,,,,,,,,,,,,,,,,,,,,,,,,,,,,,,,,,,,,,,,001,8,2020_Jan_28_1050,spring_faces,3.1.5,59.966837019825775,
condition files/Stage0a.xlsx,0a,alpha,none,h,"['h', 'g']","['Chess', 'Go']","[0, 0.5]","[0, 0]",1,0,0,4,4,4,0,0,0,0,,,,,,,,,,,,,,,,,,,,,,,,,,,,,,,,,,,,,,,,,,,,,,,,,,,,,,,,,,,,,,,236.29396077299862,None,236.29396077299862,None,236.29396077299862,None,h,1,1.6971184800004266,237.82780874899981,None,237.82780874899981,None,237.82780874899981,None,239.57733180600007,None,239.57733180600007,None,239.57733180600007,None,239.57733180600007,None,,,,,,,,,,,,,,,,,,,,,,,,,,,,,,,,,,,,,,,,,,,,001,8,2020_Jan_28_1050,spring_faces,3.1.5,59.966837019825775,
condition files/Stage0a.xlsx,0a,beta,none,g,"['h', 'g']","['Chess', 'Go']","[0, 0.5]","[0, 0]",1,0,0,4,4,4,0,1,1,1,,,,,,,,,,,,,,,,,,,,,,,,,,,,,,,,,,,,,,,,,,,,,,,,,,,,,,,,,,,,,,,241.5436188980002,None,241.5436188980002,None,241.5436188980002,None,g,1,0.7996325720014283,243.07728619799855,None,243.07728619799855,None,243.07728619799855,None,243.92700438099928,None,243.92700438099928,None,243.92700438099928,None,243.92700438099928,None,,,,,,,,,,,,,,,,,,,,,,,,,,,,,,,,,,,,,,,,,,,,001,8,2020_Jan_28_1050,spring_faces,3.1.5,59.966837019825775,
condition files/Stage0a.xlsx,0a,beta,none,g,"['h', 'g']","['Chess', 'Go']","[0, 0.5]","[0, 0]",1,0,0,5,5,5,0,0,0,1,,,,,,,,,,,,,,,,,,,,,,,,,,,,,,,,,,,,,,,,,,,,,,,,,,,,,,,,,,,,,,,245.910700344999,None,245.910700344999,None,245.910700344999,None,g,1,1.0892731900003128,247.4436667109985,None,247.4436667109985,None,247.4436667109985,None,248.59423262000018,None,248.59423262000018,None,248.59423262000018,None,248.59423262000018,None,,,,,,,,,,,,,,,,,,,,,,,,,,,,,,,,,,,,,,,,,,,,001,8,2020_Jan_28_1050,spring_faces,3.1.5,59.966837019825775,
condition files/Stage0a.xlsx,0a,alpha,none,h,"['h', 'g']","['Chess', 'Go']","[0, 0.5]","[0, 0]",1,0,0,5,5,5,0,1,1,0,,,,,,,,,,,,,,,,,,,,,,,,,,,,,,,,,,,,,,,,,,,,,,,,,,,,,,,,,,,,,,,250.56074143899968,None,250.56074143899968,None,250.56074143899968,None,h,1,0.6467522620005184,252.09409612699892,None,252.09409612699892,None,252.09409612699892,None,252.7940020799997,None,252.7940020799997,None,252.7940020799997,None,252.7940020799997,None,,,,,,,,,,,,,,,,,,,,,,,,,,,,,,,,,,,,,,,,,,,,001,8,2020_Jan_28_1050,spring_faces,3.1.5,59.966837019825775,
condition files/Stage0b_1.xlsx,0b,none,beta,g,"['h', 'g']","['Chess', 'Go']","[-0.15, 0.5]","[0.15, 0.5]",0,1,0,6,6,6,0,0,0,1,,,,,,,,,,,,,,,,,,,,,,,,,,,,,,,,,,,,,,,,,,,,,,,,,,,,,,,,,,,,,,,254.77740623999853,None,254.77740623999853,None,254.77740623999853,None,g,1,1.161047827999937,256.31589640899983,None,256.31589640899983,None,256.31589640899983,None,257.54335187499964,None,257.54335187499964,None,257.54335187499964,None,257.54335187499964,None,,,,,,,,,,,,,,,,,,,,,,,,,,,,,,,,,,,,,,,,,,,,001,8,2020_Jan_28_1050,spring_faces,3.1.5,59.966837019825775,
condition files/Stage0b_1.xlsx,0b,alpha,none,h,"['h', 'g']","['Chess', 'Go']","[-0.15, 0.5]","[0.15, 0.5]",1,0,0,6,6,6,0,1,1,0,,,,,,,,,,,,,,,,,,,,,,,,,,,,,,,,,,,,,,,,,,,,,,,,,,,,,,,,,,,,,,,259.4938276399989,None,259.4938276399989,None,259.4938276399989,None,h,1,0.7172215249993315,261.03171032799946,None,261.03171032799946,None,261.03171032799946,None,261.8110799239985,None,261.8110799239985,None,261.8110799239985,None,261.8110799239985,None,,,,,,,,,,,,,,,,,,,,,,,,,,,,,,,,,,,,,,,,,,,,001,8,2020_Jan_28_1050,spring_faces,3.1.5,59.966837019825775,
condition files/Stage0b_2.xlsx,0b,beta,none,g,"['h', 'g']","['Chess', 'Go']","[-0.15, 0.5]","[0.15, 0.5]",1,0,0,7,7,7,0,0,0,1,,,,,,,,,,,,,,,,,,,,,,,,,,,,,,,,,,,,,,,,,,,,,,,,,,,,,,,,,,,,,,,263.79412073599997,None,263.79412073599997,None,263.79412073599997,None,g,1,0.6301526879997255,265.326782832999,None,265.326782832999,None,265.326782832999,None,266.01009248899936,None,266.01009248899936,None,266.01009248899936,None,266.01009248899936,None,,,,,,,,,,,,,,,,,,,,,,,,,,,,,,,,,,,,,,,,,,,,001,8,2020_Jan_28_1050,spring_faces,3.1.5,59.966837019825775,
condition files/Stage0b_2.xlsx,0b,none,alpha,h,"['h', 'g']","['Chess', 'Go']","[-0.15, 0.5]","[0.15, 0.5]",0,1,0,7,7,7,0,1,1,0,,,,,,,,,,,,,,,,,,,,,,,,,,,,,,,,,,,,,,,,,,,,,,,,,,,,,,,,,,,,,,,267.97715798199897,None,267.97715798199897,None,267.97715798199897,None,h,1,1.2417035390008095,269.51523858899964,None,269.51523858899964,None,269.51523858899964,None,270.8273663379987,None,270.8273663379987,None,270.8273663379987,None,270.8273663379987,None,,,,,,,,,,,,,,,,,,,,,,,,,,,,,,,,,,,,,,,,,,,,001,8,2020_Jan_28_1050,spring_faces,3.1.5,59.966837019825775,
condition files/Stage0b_1.xlsx,0b,alpha,none,h,"['h', 'g']","['Chess', 'Go']","[-0.15, 0.5]","[0.15, 0.5]",1,0,0,8,8,8,0,0,0,0,,,,,,,,,,,,,,,,,,,,,,,,,,,,,,,,,,,,,,,,,,,,,,,,,,,,,,,,,,,,,,,272.79409176599984,None,272.79409176599984,None,272.79409176599984,None,h,1,0.6811674260006839,274.3317809979999,None,274.3317809979999,None,274.3317809979999,None,275.0774895839986,None,275.0774895839986,None,275.0774895839986,None,275.0774895839986,None,,,,,,,,,,,,,,,,,,,,,,,,,,,,,,,,,,,,,,,,,,,,001,8,2020_Jan_28_1050,spring_faces,3.1.5,59.966837019825775,
condition files/Stage0b_1.xlsx,0b,none,beta,g,"['h', 'g']","['Chess', 'Go']","[-0.15, 0.5]","[0.15, 0.5]",0,1,0,8,8,8,0,1,1,1,,,,,,,,,,,,,,,,,,,,,,,,,,,,,,,,,,,,,,,,,,,,,,,,,,,,,,,,,,,,,,,277.0438044909988,None,277.0438044909988,None,277.0438044909988,None,g,1,0.6257200760010164,278.57922575999874,None,278.57922575999874,None,278.57922575999874,None,279.2617289239988,None,279.2617289239988,None,279.2617289239988,None,279.2617289239988,None,,,,,,,,,,,,,,,,,,,,,,,,,,,,,,,,,,,,,,,,,,,,001,8,2020_Jan_28_1050,spring_faces,3.1.5,59.966837019825775,
condition files/Stage0b_2.xlsx,0b,beta,none,g,"['h', 'g']","['Chess', 'Go']","[-0.15, 0.5]","[0.15, 0.5]",1,0,0,9,9,9,0,0,0,1,,,,,,,,,,,,,,,,,,,,,,,,,,,,,,,,,,,,,,,,,,,,,,,,,,,,,,,,,,,,,,,281.24407182199866,None,281.24407182199866,None,281.24407182199866,None,g,1,0.5833223199988424,282.78164400399874,None,282.78164400399874,None,282.78164400399874,None,283.42705061999914,None,283.42705061999914,None,283.42705061999914,None,283.42705061999914,None,,,,,,,,,,,,,,,,,,,,,,,,,,,,,,,,,,,,,,,,,,,,001,8,2020_Jan_28_1050,spring_faces,3.1.5,59.966837019825775,
condition files/Stage0b_2.xlsx,0b,none,alpha,h,"['h', 'g']","['Chess', 'Go']","[-0.15, 0.5]","[0.15, 0.5]",0,1,0,9,9,9,0,1,1,0,,,,,,,,,,,,,,,,,,,,,,,,,,,,,,,,,,,,,,,,,,,,,,,,,,,,,,,,,,,,,,,285.39382453100006,None,285.39382453100006,None,285.39382453100006,None,h,1,0.7412718040013715,286.92772572299873,None,286.92772572299873,None,286.92772572299873,None,287.73140209099984,None,287.73140209099984,None,287.73140209099984,None,287.73140209099984,None,,,,,,,,,,,,,,,,,,,,,,,,,,,,,,,,,,,,,,,,,,,,001,8,2020_Jan_28_1050,spring_faces,3.1.5,59.966837019825775,
condition files/Stage0b_1.xlsx,0b,none,beta,g,"['h', 'g']","['Chess', 'Go']","[-0.15, 0.5]","[0.15, 0.5]",0,1,0,10,10,10,0,0,0,1,,,,,,,,,,,,,,,,,,,,,,,,,,,,,,,,,,,,,,,,,,,,,,,,,,,,,,,,,,,,,,,289.7105533969989,None,289.7105533969989,None,289.7105533969989,None,g,1,0.5529297529992618,291.24399266099863,None,291.24399266099863,None,291.24399266099863,None,291.8605120579996,None,291.8605120579996,None,291.8605120579996,None,291.8605120579996,None,,,,,,,,,,,,,,,,,,,,,,,,,,,,,,,,,,,,,,,,,,,,001,8,2020_Jan_28_1050,spring_faces,3.1.5,59.966837019825775,
condition files/Stage0b_1.xlsx,0b,alpha,none,h,"['h', 'g']","['Chess', 'Go']","[-0.15, 0.5]","[0.15, 0.5]",1,0,0,10,10,10,0,1,1,0,,,,,,,,,,,,,,,,,,,,,,,,,,,,,,,,,,,,,,,,,,,,,,,,,,,,,,,,,,,,,,,293.82703432199924,None,293.82703432199924,None,293.82703432199924,None,h,1,0.8195185189997574,295.3773992459992,None,295.3773992459992,None,295.3773992459992,None,296.263849682,None,296.263849682,None,296.263849682,None,296.263849682,None,,,,,,,,,,,,,,,,,,,,,,,,,,,,,,,,,,,,,,,,,,,,001,8,2020_Jan_28_1050,spring_faces,3.1.5,59.966837019825775,
condition files/Stage0b_2.xlsx,0b,beta,none,g,"['h', 'g']","['Chess', 'Go']","[-0.15, 0.5]","[0.15, 0.5]",1,0,0,11,11,11,0,0,0,1,,,,,,,,,,,,,,,,,,,,,,,,,,,,,,,,,,,,,,,,,,,,,,,,,,,,,,,,,,,,,,,298.2438207389987,None,298.2438207389987,None,298.2438207389987,None,g,1,0.5956913429999986,299.7772418509994,None,299.7772418509994,None,299.7772418509994,None,300.42767819599976,None,300.42767819599976,None,300.42767819599976,None,300.42767819599976,None,,,,,,,,,,,,,,,,,,,,,,,,,,,,,,,,,,,,,,,,,,,,001,8,2020_Jan_28_1050,spring_faces,3.1.5,59.966837019825775,
condition files/Stage0b_2.xlsx,0b,none,alpha,h,"['h', 'g']","['Chess', 'Go']","[-0.15, 0.5]","[0.15, 0.5]",0,1,0,11,11,11,0,1,1,0,,,,,,,,,,,,,,,,,,,,,,,,,,,,,,,,,,,,,,,,,,,,,,,,,,,,,,,,,,,,,,,302.3938190539993,None,302.3938190539993,None,302.3938190539993,None,h,1,0.876794734998839,303.9442034499989,None,303.9442034499989,None,303.9442034499989,None,304.88098555099896,None,304.88098555099896,None,304.88098555099896,None,304.88098555099896,None,,,,,,,,,,,,,,,,,,,,,,,,,,,,,,,,,,,,,,,,,,,,001,8,2020_Jan_28_1050,spring_faces,3.1.5,59.966837019825775,
condition files/Stage0c_1.xlsx,0c,beta,theta,g,"['h', 'g']","['Chess', 'Go']","[-0.15, 0.5]","[0.15, 0.5]",1,1,0,12,12,12,0,0,0,2,,,,,,,,,,,,,,,,,,,,,,,,,,,,,,,,,,,,,,,,,,,,,,,,,,,,,,,,,,,,,,,306.86067151099996,None,306.86067151099996,None,306.86067151099996,None,h,0,2.2994560499992076,308.3934710759986,None,308.3934710759986,None,308.3934710759986,None,310.74386068499916,None,310.74386068499916,None,310.74386068499916,None,310.74386068499916,None,,,,,,,,,,,,,,,,,,,,,,,,,,,,,,,,,,,,,,,,,,,,001,8,2020_Jan_28_1050,spring_faces,3.1.5,59.966837019825775,
condition files/Stage0c_1.xlsx,0c,alpha,phi,h,"['h', 'g']","['Chess', 'Go']","[-0.15, 0.5]","[0.15, 0.5]",1,1,0,12,12,12,0,1,1,1,,,,,,,,,,,,,,,,,,,,,,,,,,,,,,,,,,,,,,,,,,,,,,,,,,,,,,,,,,,,,,,312.7102827819999,None,312.7102827819999,None,312.7102827819999,None,h,1,2.160947529999248,314.24397669799873,None,314.24397669799873,None,314.24397669799873,None,316.4604181979994,None,316.4604181979994,None,316.4604181979994,None,316.4604181979994,None,,,,,,,,,,,,,,,,,,,,,,,,,,,,,,,,,,,,,,,,,,,,001,8,2020_Jan_28_1050,spring_faces,3.1.5,59.966837019825775,
condition files/Stage0c_1.xlsx,0c,theta,alpha,h,"['h', 'g']","['Chess', 'Go']","[-0.15, 0.5]","[0.15, 0.5]",1,1,0,12,12,12,0,2,2,0,,,,,,,,,,,,,,,,,,,,,,,,,,,,,,,,,,,,,,,,,,,,,,,,,,,,,,,,,,,,,,,318.4272526129989,None,318.4272526129989,None,318.4272526129989,None,g,0,1.9000455749992398,319.9608139869997,None,319.9608139869997,None,319.9608139869997,None,321.9103297749989,None,321.9103297749989,None,321.9103297749989,None,321.9103297749989,None,,,,,,,,,,,,,,,,,,,,,,,,,,,,,,,,,,,,,,,,,,,,001,8,2020_Jan_28_1050,spring_faces,3.1.5,59.966837019825775,
condition files/Stage0c_1.xlsx,0c,phi,beta,g,"['h', 'g']","['Chess', 'Go']","[-0.15, 0.5]","[0.15, 0.5]",1,1,0,12,12,12,0,3,3,3,,,,,,,,,,,,,,,,,,,,,,,,,,,,,,,,,,,,,,,,,,,,,,,,,,,,,,,,,,,,,,,323.8941136689991,None,323.8941136689991,None,323.8941136689991,None,g,1,1.6982890270010103,325.4106325449993,None,325.4106325449993,None,325.4106325449993,None,327.16061711699876,None,327.16061711699876,None,327.16061711699876,None,327.16061711699876,None,,,,,,,,,,,,,,,,,,,,,,,,,,,,,,,,,,,,,,,,,,,,001,8,2020_Jan_28_1050,spring_faces,3.1.5,59.966837019825775,
condition files/Stage0c_2.xlsx,0c,phi,alpha,h,"['h', 'g']","['Chess', 'Go']","[-0.15, 0.5]","[0.15, 0.5]",1,1,0,13,13,13,0,0,0,1,,,,,,,,,,,,,,,,,,,,,,,,,,,,,,,,,,,,,,,,,,,,,,,,,,,,,,,,,,,,,,,329.14348759899985,None,329.14348759899985,None,329.14348759899985,None,h,1,1.8875701369997842,330.67737256299915,None,330.67737256299915,None,330.67737256299915,None,332.6274400839993,None,332.6274400839993,None,332.6274400839993,None,332.6274400839993,None,,,,,,,,,,,,,,,,,,,,,,,,,,,,,,,,,,,,,,,,,,,,001,8,2020_Jan_28_1050,spring_faces,3.1.5,59.966837019825775,
condition files/Stage0c_2.xlsx,0c,alpha,theta,h,"['h', 'g']","['Chess', 'Go']","[-0.15, 0.5]","[0.15, 0.5]",1,1,0,13,13,13,0,1,1,0,,,,,,,,,,,,,,,,,,,,,,,,,,,,,,,,,,,,,,,,,,,,,,,,,,,,,,,,,,,,,,,334.5945682780002,None,334.5945682780002,None,334.5945682780002,None,h,1,2.149536895998608,336.1273892249992,None,336.1273892249992,None,336.1273892249992,None,338.3116918359992,None,338.3116918359992,None,338.3116918359992,None,338.3116918359992,None,,,,,,,,,,,,,,,,,,,,,,,,,,,,,,,,,,,,,,,,,,,,001,8,2020_Jan_28_1050,spring_faces,3.1.5,59.966837019825775,
condition files/Stage0c_2.xlsx,0c,beta,phi,g,"['h', 'g']","['Chess', 'Go']","[-0.15, 0.5]","[0.15, 0.5]",1,1,0,13,13,13,0,2,2,3,,,,,,,,,,,,,,,,,,,,,,,,,,,,,,,,,,,,,,,,,,,,,,,,,,,,,,,,,,,,,,,340.29404887499913,None,340.29404887499913,None,340.29404887499913,None,g,1,4.257558254999822,341.8274250989998,None,341.8274250989998,None,341.8274250989998,None,346.1435149199988,None,346.1435149199988,None,346.1435149199988,None,346.1435149199988,None,,,,,,,,,,,,,,,,,,,,,,,,,,,,,,,,,,,,,,,,,,,,001,8,2020_Jan_28_1050,spring_faces,3.1.5,59.966837019825775,
condition files/Stage0c_2.xlsx,0c,theta,beta,g,"['h', 'g']","['Chess', 'Go']","[-0.15, 0.5]","[0.15, 0.5]",1,1,0,13,13,13,0,3,3,2,,,,,,,,,,,,,,,,,,,,,,,,,,,,,,,,,,,,,,,,,,,,,,,,,,,,,,,,,,,,,,,348.11054000399963,None,348.11054000399963,None,348.11054000399963,None,h,0,2.073033636999753,349.6438874769992,None,349.6438874769992,None,349.6438874769992,None,351.7614058459985,None,351.7614058459985,None,351.7614058459985,None,351.7614058459985,None,,,,,,,,,,,,,,,,,,,,,,,,,,,,,,,,,,,,,,,,,,,,001,8,2020_Jan_28_1050,spring_faces,3.1.5,59.966837019825775,
condition files/Stage0c_1.xlsx,0c,beta,theta,g,"['h', 'g']","['Chess', 'Go']","[-0.15, 0.5]","[0.15, 0.5]",1,1,0,14,14,14,0,0,0,2,,,,,,,,,,,,,,,,,,,,,,,,,,,,,,,,,,,,,,,,,,,,,,,,,,,,,,,,,,,,,,,353.7607405990002,None,353.7607405990002,None,353.7607405990002,None,h,0,2.518910668999524,355.2940252059998,None,355.2940252059998,None,355.2940252059998,None,357.8608043229997,None,357.8608043229997,None,357.8608043229997,None,357.8608043229997,None,,,,,,,,,,,,,,,,,,,,,,,,,,,,,,,,,,,,,,,,,,,,001,8,2020_Jan_28_1050,spring_faces,3.1.5,59.966837019825775,
condition files/Stage0c_1.xlsx,0c,theta,alpha,h,"['h', 'g']","['Chess', 'Go']","[-0.15, 0.5]","[0.15, 0.5]",1,1,0,14,14,14,0,1,1,0,,,,,,,,,,,,,,,,,,,,,,,,,,,,,,,,,,,,,,,,,,,,,,,,,,,,,,,,,,,,,,,359.84299006499896,None,359.84299006499896,None,359.84299006499896,None,h,1,2.467848869999216,361.3770451579985,None,361.3770451579985,None,361.3770451579985,None,363.91081762499925,None,363.91081762499925,None,363.91081762499925,None,363.91081762499925,None,,,,,,,,,,,,,,,,,,,,,,,,,,,,,,,,,,,,,,,,,,,,001,8,2020_Jan_28_1050,spring_faces,3.1.5,59.966837019825775,
condition files/Stage0c_1.xlsx,0c,phi,beta,g,"['h', 'g']","['Chess', 'Go']","[-0.15, 0.5]","[0.15, 0.5]",1,1,0,14,14,14,0,2,2,3,,,,,,,,,,,,,,,,,,,,,,,,,,,,,,,,,,,,,,,,,,,,,,,,,,,,,,,,,,,,,,,365.8772129019999,None,365.8772129019999,None,365.8772129019999,None,g,1,1.7301623799994559,367.41071055799875,None,367.41071055799875,None,367.41071055799875,None,369.1943093109985,None,369.1943093109985,None,369.1943093109985,None,369.1943093109985,None,,,,,,,,,,,,,,,,,,,,,,,,,,,,,,,,,,,,,,,,,,,,001,8,2020_Jan_28_1050,spring_faces,3.1.5,59.966837019825775,
condition files/Stage0c_1.xlsx,0c,alpha,phi,h,"['h', 'g']","['Chess', 'Go']","[-0.15, 0.5]","[0.15, 0.5]",1,1,0,14,14,14,0,3,3,1,,,,,,,,,,,,,,,,,,,,,,,,,,,,,,,,,,,,,,,,,,,,,,,,,,,,,,,,,,,,,,,371.1604926309992,None,371.1604926309992,None,371.1604926309992,None,h,1,1.7595489640007145,372.6934442410002,None,372.6934442410002,None,372.6934442410002,None,374.510924881999,None,374.510924881999,None,374.510924881999,None,374.510924881999,None,,,,,,,,,,,,,,,,,,,,,,,,,,,,,,,,,,,,,,,,,,,,001,8,2020_Jan_28_1050,spring_faces,3.1.5,59.966837019825775,
condition files/Stage0c_2.xlsx,0c,alpha,theta,h,"['h', 'g']","['Chess', 'Go']","[-0.15, 0.5]","[0.15, 0.5]",1,1,0,15,15,15,0,0,0,0,,,,,,,,,,,,,,,,,,,,,,,,,,,,,,,,,,,,,,,,,,,,,,,,,,,,,,,,,,,,,,,376.49403906599946,None,376.49403906599946,None,376.49403906599946,None,h,1,0.9536059180009033,378.02733502499905,None,378.02733502499905,None,378.02733502499905,None,379.02835898299963,None,379.02835898299963,None,379.02835898299963,None,379.02835898299963,None,,,,,,,,,,,,,,,,,,,,,,,,,,,,,,,,,,,,,,,,,,,,001,8,2020_Jan_28_1050,spring_faces,3.1.5,59.966837019825775,
condition files/Stage0c_2.xlsx,0c,beta,phi,g,"['h', 'g']","['Chess', 'Go']","[-0.15, 0.5]","[0.15, 0.5]",1,1,0,15,15,15,0,1,1,3,,,,,,,,,,,,,,,,,,,,,,,,,,,,,,,,,,,,,,,,,,,,,,,,,,,,,,,,,,,,,,,381.0106108539985,None,381.0106108539985,None,381.0106108539985,None,g,1,0.8053349419988081,382.5436036359988,None,382.5436036359988,None,382.5436036359988,None,383.410521374999,None,383.410521374999,None,383.410521374999,None,383.410521374999,None,,,,,,,,,,,,,,,,,,,,,,,,,,,,,,,,,,,,,,,,,,,,001,8,2020_Jan_28_1050,spring_faces,3.1.5,59.966837019825775,
condition files/Stage0c_2.xlsx,0c,theta,beta,g,"['h', 'g']","['Chess', 'Go']","[-0.15, 0.5]","[0.15, 0.5]",1,1,0,15,15,15,0,2,2,2,,,,,,,,,,,,,,,,,,,,,,,,,,,,,,,,,,,,,,,,,,,,,,,,,,,,,,,,,,,,,,,385.37699725699895,None,385.37699725699895,None,385.37699725699895,None,g,1,0.9667385160009871,386.91018041299867,None,386.91018041299867,None,386.91018041299867,None,387.9119940599994,None,387.9119940599994,None,387.9119940599994,None,387.9119940599994,None,,,,,,,,,,,,,,,,,,,,,,,,,,,,,,,,,,,,,,,,,,,,001,8,2020_Jan_28_1050,spring_faces,3.1.5,59.966837019825775,
condition files/Stage0c_2.xlsx,0c,phi,alpha,h,"['h', 'g']","['Chess', 'Go']","[-0.15, 0.5]","[0.15, 0.5]",1,1,0,15,15,15,0,3,3,1,,,,,,,,,,,,,,,,,,,,,,,,,,,,,,,,,,,,,,,,,,,,,,,,,,,,,,,,,,,,,,,389.8941500619985,None,389.8941500619985,None,389.8941500619985,None,h,1,0.9137467299988202,391.42711836799936,None,391.42711836799936,None,391.42711836799936,None,392.3941395289985,None,392.3941395289985,None,392.3941395289985,None,392.3941395289985,None,,,,,,,,,,,,,,,,,,,,,,,,,,,,,,,,,,,,,,,,,,,,001,8,2020_Jan_28_1050,spring_faces,3.1.5,59.966837019825775,
condition files/Stage0c_1.xlsx,0c,theta,alpha,h,"['h', 'g']","['Chess', 'Go']","[-0.15, 0.5]","[0.15, 0.5]",1,1,0,16,16,16,0,0,0,0,,,,,,,,,,,,,,,,,,,,,,,,,,,,,,,,,,,,,,,,,,,,,,,,,,,,,,,,,,,,,,,394.37722434499847,None,394.37722434499847,None,394.37722434499847,None,h,1,0.7177390769993508,395.9111509759987,None,395.9111509759987,None,395.9111509759987,None,396.679362158,None,396.679362158,None,396.679362158,None,396.679362158,None,,,,,,,,,,,,,,,,,,,,,,,,,,,,,,,,,,,,,,,,,,,,001,8,2020_Jan_28_1050,spring_faces,3.1.5,59.966837019825775,
condition files/Stage0c_1.xlsx,0c,phi,beta,g,"['h', 'g']","['Chess', 'Go']","[-0.15, 0.5]","[0.15, 0.5]",1,1,0,16,16,16,0,1,1,3,,,,,,,,,,,,,,,,,,,,,,,,,,,,,,,,,,,,,,,,,,,,,,,,,,,,,,,,,,,,,,,398.66049532299985,None,398.66049532299985,None,398.66049532299985,None,g,1,0.6592631389994494,400.1937339449996,None,400.1937339449996,None,400.1937339449996,None,400.9104874409986,None,400.9104874409986,None,400.9104874409986,None,400.9104874409986,None,,,,,,,,,,,,,,,,,,,,,,,,,,,,,,,,,,,,,,,,,,,,001,8,2020_Jan_28_1050,spring_faces,3.1.5,59.966837019825775,
condition files/Stage0c_1.xlsx,0c,alpha,phi,h,"['h', 'g']","['Chess', 'Go']","[-0.15, 0.5]","[0.15, 0.5]",1,1,0,16,16,16,0,2,2,1,,,,,,,,,,,,,,,,,,,,,,,,,,,,,,,,,,,,,,,,,,,,,,,,,,,,,,,,,,,,,,,402.8771722169986,None,402.8771722169986,None,402.8771722169986,None,h,1,0.7145419650005351,404.41037841599973,None,404.41037841599973,None,404.41037841599973,None,405.1775321919995,None,405.1775321919995,None,405.1775321919995,None,405.1775321919995,None,,,,,,,,,,,,,,,,,,,,,,,,,,,,,,,,,,,,,,,,,,,,001,8,2020_Jan_28_1050,spring_faces,3.1.5,59.966837019825775,
condition files/Stage0c_1.xlsx,0c,beta,theta,g,"['h', 'g']","['Chess', 'Go']","[-0.15, 0.5]","[0.15, 0.5]",1,1,0,16,16,16,0,3,3,2,,,,,,,,,,,,,,,,,,,,,,,,,,,,,,,,,,,,,,,,,,,,,,,,,,,,,,,,,,,,,,,407.1438646179995,None,407.1438646179995,None,407.1438646179995,None,g,1,1.2481461180013866,408.67677059199923,None,408.67677059199923,None,408.67677059199923,None,409.9776743860002,None,409.9776743860002,None,409.9776743860002,None,409.9776743860002,None,,,,,,,,,,,,,,,,,,,,,,,,,,,,,,,,,,,,,,,,,,,,001,8,2020_Jan_28_1050,spring_faces,3.1.5,59.966837019825775,
condition files/Stage0c_2.xlsx,0c,beta,phi,g,"['h', 'g']","['Chess', 'Go']","[-0.15, 0.5]","[0.15, 0.5]",1,1,0,17,17,17,0,0,0,3,,,,,,,,,,,,,,,,,,,,,,,,,,,,,,,,,,,,,,,,,,,,,,,,,,,,,,,,,,,,,,,411.96065623399954,None,411.96065623399954,None,411.96065623399954,None,g,1,0.7510365950001869,413.493870721999,None,413.493870721999,None,413.493870721999,None,414.29550961899986,None,414.29550961899986,None,414.29550961899986,None,414.29550961899986,None,,,,,,,,,,,,,,,,,,,,,,,,,,,,,,,,,,,,,,,,,,,,001,8,2020_Jan_28_1050,spring_faces,3.1.5,59.966837019825775,
condition files/Stage0c_2.xlsx,0c,phi,alpha,h,"['h', 'g']","['Chess', 'Go']","[-0.15, 0.5]","[0.15, 0.5]",1,1,0,17,17,17,0,1,1,1,,,,,,,,,,,,,,,,,,,,,,,,,,,,,,,,,,,,,,,,,,,,,,,,,,,,,,,,,,,,,,,416.27723335500013,None,416.27723335500013,None,416.27723335500013,None,h,1,0.5941607050008315,417.81076649900024,None,417.81076649900024,None,417.81076649900024,None,418.4598012259994,None,418.4598012259994,None,418.4598012259994,None,418.4598012259994,None,,,,,,,,,,,,,,,,,,,,,,,,,,,,,,,,,,,,,,,,,,,,001,8,2020_Jan_28_1050,spring_faces,3.1.5,59.966837019825775,
condition files/Stage0c_2.xlsx,0c,theta,beta,g,"['h', 'g']","['Chess', 'Go']","[-0.15, 0.5]","[0.15, 0.5]",1,1,0,17,17,17,0,2,2,2,,,,,,,,,,,,,,,,,,,,,,,,,,,,,,,,,,,,,,,,,,,,,,,,,,,,,,,,,,,,,,,420.42720274400017,None,420.42720274400017,None,420.42720274400017,None,g,1,0.5881453429992689,421.9607878099996,None,421.9607878099996,None,421.9607878099996,None,422.6100162269995,None,422.6100162269995,None,422.6100162269995,None,422.6100162269995,None,,,,,,,,,,,,,,,,,,,,,,,,,,,,,,,,,,,,,,,,,,,,001,8,2020_Jan_28_1050,spring_faces,3.1.5,59.966837019825775,
condition files/Stage0c_2.xlsx,0c,alpha,theta,h,"['h', 'g']","['Chess', 'Go']","[-0.15, 0.5]","[0.15, 0.5]",1,1,0,17,17,17,0,3,3,0,,,,,,,,,,,,,,,,,,,,,,,,,,,,,,,,,,,,,,,,,,,,,,,,,,,,,,,,,,,,,,,424.5773551429993,None,424.5773551429993,None,424.5773551429993,None,h,1,0.678569593001157,426.11034966399893,None,426.11034966399893,None,426.11034966399893,None,426.8439743170002,None,426.8439743170002,None,426.8439743170002,None,426.8439743170002,None,,,,,,,,,,,,,,,,,,,,,,,,,,,,,,,,,,,,,,,,,,,,001,8,2020_Jan_28_1050,spring_faces,3.1.5,59.966837019825775,
,,,,,,,,,,,,,,,,,,,,,,,,,,,,,,,,,,,,,,,,,,,,,,,,,,,,,,,,,,,,,,,,,,,,,,,,,,,,,,,,,,,,,,,,,,,,,,,,,,,,,,,,428.8273133999992,None,space,0.9137135350010794,433.82721930299886,None,,,,,,,,,,,,,,,,,,,,,,,,,,,,,,,,,,,,,,001,8,2020_Jan_28_1050,spring_faces,3.1.5,59.966837019825775,
condition files/Stage1_1.xlsx,,B3,T3,c,"['c', 'm']","['Clue', 'Monopoly']","[-0.15, 0.5]","[0.15, 0.5]",1,1,,,,,,,,,0,0,0,0,0,0,0,4,,,,,,,,,,,,,,,,,,,,,,,,,,,,,,,,,,,,,,,,,,,,,,,,,,,,,,,434.79352766099873,None,434.79352766099873,None,434.79352766099873,None,c,1,0.989241162998951,436.3277581579987,None,436.3277581579987,None,436.3277581579987,None,437.39419590299985,None,437.39419590299985,None,437.39419590299985,None,437.39419590299985,None,,,,,,,433.82721930299886,None,,,,,,,,,,,,,,,,,,,,,,,,,,,,,,,,,,,,001,8,2020_Jan_28_1050,spring_faces,3.1.5,59.966837019825775,
condition files/Stage1_1.xlsx,,B2,T1,m,"['c', 'm']","['Clue', 'Monopoly']","[-0.15, 0.5]","[0.15, 0.5]",1,1,,,,,,,,,0,0,0,0,0,1,1,2,,,,,,,,,,,,,,,,,,,,,,,,,,,,,,,,,,,,,,,,,,,,,,,,,,,,,,,439.34385449899855,None,439.34385449899855,None,439.34385449899855,None,m,1,1.3993740510013595,440.87755953099986,None,440.87755953099986,None,440.87755953099986,None,442.3301544979986,None,442.3301544979986,None,442.3301544979986,None,442.3301544979986,None,,,,,,,,,,,,,,,,,,,,,,,,,,,,,,,,,,,,,,,,,,,,001,8,2020_Jan_28_1050,spring_faces,3.1.5,59.966837019825775,
condition files/Stage1_1.xlsx,,T4,B3,m,"['c', 'm']","['Clue', 'Monopoly']","[-0.15, 0.5]","[0.15, 0.5]",1,1,,,,,,,,,0,0,0,0,0,2,2,6,,,,,,,,,,,,,,,,,,,,,,,,,,,,,,,,,,,,,,,,,,,,,,,,,,,,,,,444.29331506699964,None,444.29331506699964,None,444.29331506699964,None,c,0,1.2017797230000724,445.8271366099998,None,445.8271366099998,None,445.8271366099998,None,447.0944015639998,None,447.0944015639998,None,447.0944015639998,None,447.0944015639998,None,,,,,,,,,,,,,,,,,,,,,,,,,,,,,,,,,,,,,,,,,,,,001,8,2020_Jan_28_1050,spring_faces,3.1.5,59.966837019825775,
condition files/Stage1_1.xlsx,,T2,B2,m,"['c', 'm']","['Clue', 'Monopoly']","[-0.15, 0.5]","[0.15, 0.5]",1,1,,,,,,,,,0,0,0,0,0,3,3,3,,,,,,,,,,,,,,,,,,,,,,,,,,,,,,,,,,,,,,,,,,,,,,,,,,,,,,,449.06063087799885,None,449.06063087799885,None,449.06063087799885,None,m,1,1.4415798999998515,450.59535551099907,None,450.59535551099907,None,450.59535551099907,None,452.0940282299998,None,452.0940282299998,None,452.0940282299998,None,452.0940282299998,None,,,,,,,,,,,,,,,,,,,,,,,,,,,,,,,,,,,,,,,,,,,,001,8,2020_Jan_28_1050,spring_faces,3.1.5,59.966837019825775,
condition files/Stage1_1.xlsx,,T3,B4,c,"['c', 'm']","['Clue', 'Monopoly']","[-0.15, 0.5]","[0.15, 0.5]",1,1,,,,,,,,,0,0,0,0,0,4,4,5,,,,,,,,,,,,,,,,,,,,,,,,,,,,,,,,,,,,,,,,,,,,,,,,,,,,,,,454.06054036299975,None,454.06054036299975,None,454.06054036299975,None,c,1,1.2745429470014642,455.61044664899964,None,455.61044664899964,None,455.61044664899964,None,456.9433849500001,None,456.9433849500001,None,456.9433849500001,None,456.9433849500001,None,,,,,,,,,,,,,,,,,,,,,,,,,,,,,,,,,,,,,,,,,,,,001,8,2020_Jan_28_1050,spring_faces,3.1.5,59.966837019825775,
condition files/Stage1_1.xlsx,,B1,T2,c,"['c', 'm']","['Clue', 'Monopoly']","[-0.15, 0.5]","[0.15, 0.5]",1,1,,,,,,,,,0,0,0,0,0,5,5,1,,,,,,,,,,,,,,,,,,,,,,,,,,,,,,,,,,,,,,,,,,,,,,,,,,,,,,,458.9105314619992,None,458.9105314619992,None,458.9105314619992,None,c,1,1.561589205999553,460.4434106110002,None,460.4434106110002,None,460.4434106110002,None,462.0607651699993,None,462.0607651699993,None,462.0607651699993,None,462.0607651699993,None,,,,,,,,,,,,,,,,,,,,,,,,,,,,,,,,,,,,,,,,,,,,001,8,2020_Jan_28_1050,spring_faces,3.1.5,59.966837019825775,
condition files/Stage1_1.xlsx,,B4,T4,m,"['c', 'm']","['Clue', 'Monopoly']","[-0.15, 0.5]","[0.15, 0.5]",1,1,,,,,,,,,0,0,0,0,0,6,6,7,,,,,,,,,,,,,,,,,,,,,,,,,,,,,,,,,,,,,,,,,,,,,,,,,,,,,,,464.02716528199926,None,464.02716528199926,None,464.02716528199926,None,c,0,0.779863681000279,465.5610845529991,None,465.5610845529991,None,465.5610845529991,None,466.3934643579996,None,466.3934643579996,None,466.3934643579996,None,466.3934643579996,None,,,,,,,,,,,,,,,,,,,,,,,,,,,,,,,,,,,,,,,,,,,,001,8,2020_Jan_28_1050,spring_faces,3.1.5,59.966837019825775,
condition files/Stage1_1.xlsx,,T1,B1,c,"['c', 'm']","['Clue', 'Monopoly']","[-0.15, 0.5]","[0.15, 0.5]",1,1,,,,,,,,,0,0,0,0,0,7,7,0,,,,,,,,,,,,,,,,,,,,,,,,,,,,,,,,,,,,,,,,,,,,,,,,,,,,,,,468.3606250389985,None,468.3606250389985,None,468.3606250389985,None,c,1,1.4531332120004663,469.8958346499985,None,469.8958346499985,None,469.8958346499985,None,471.41186612099955,None,471.41186612099955,None,471.41186612099955,None,471.41186612099955,None,,,,,,,,,,,,,,,,,,,,,,,,,,,,,,,,,,,,,,,,,,,,001,8,2020_Jan_28_1050,spring_faces,3.1.5,59.966837019825775,
condition files/Stage1_2.xlsx,,B3,T4,m,"['c', 'm']","['Clue', 'Monopoly']","[-0.15, 0.5]","[0.15, 0.5]",1,1,,,,,,,,,0,1,1,1,0,0,0,6,,,,,,,,,,,,,,,,,,,,,,,,,,,,,,,,,,,,,,,,,,,,,,,,,,,,,,,473.39370276499903,None,473.39370276499903,None,473.39370276499903,None,m,1,1.1088111689987272,474.9442018439986,None,474.9442018439986,None,474.9442018439986,None,476.1103598159989,None,476.1103598159989,None,476.1103598159989,None,476.1103598159989,None,,,,,,,,,,,,,,,,,,,,,,,,,,,,,,,,,,,,,,,,,,,,001,8,2020_Jan_28_1050,spring_faces,3.1.5,59.966837019825775,
condition files/Stage1_2.xlsx,,B4,T3,c,"['c', 'm']","['Clue', 'Monopoly']","[-0.15, 0.5]","[0.15, 0.5]",1,1,,,,,,,,,0,1,1,1,0,1,1,5,,,,,,,,,,,,,,,,,,,,,,,,,,,,,,,,,,,,,,,,,,,,,,,,,,,,,,,478.07766610399995,None,478.07766610399995,None,478.07766610399995,None,c,1,1.0016844250003487,479.61126028299987,None,479.61126028299987,None,479.61126028299987,None,480.6793117500001,None,480.6793117500001,None,480.6793117500001,None,480.6793117500001,None,,,,,,,,,,,,,,,,,,,,,,,,,,,,,,,,,,,,,,,,,,,,001,8,2020_Jan_28_1050,spring_faces,3.1.5,59.966837019825775,
condition files/Stage1_2.xlsx,,T2,B1,c,"['c', 'm']","['Clue', 'Monopoly']","[-0.15, 0.5]","[0.15, 0.5]",1,1,,,,,,,,,0,1,1,1,0,2,2,1,,,,,,,,,,,,,,,,,,,,,,,,,,,,,,,,,,,,,,,,,,,,,,,,,,,,,,,482.6438442189992,None,482.6438442189992,None,482.6438442189992,None,m,0,1.0587683960002323,484.1942304209988,None,484.1942304209988,None,484.1942304209988,None,485.3107886339985,None,485.3107886339985,None,485.3107886339985,None,485.3107886339985,None,,,,,,,,,,,,,,,,,,,,,,,,,,,,,,,,,,,,,,,,,,,,001,8,2020_Jan_28_1050,spring_faces,3.1.5,59.966837019825775,
condition files/Stage1_2.xlsx,,B1,T1,c,"['c', 'm']","['Clue', 'Monopoly']","[-0.15, 0.5]","[0.15, 0.5]",1,1,,,,,,,,,0,1,1,1,0,3,3,0,,,,,,,,,,,,,,,,,,,,,,,,,,,,,,,,,,,,,,,,,,,,,,,,,,,,,,,487.2771679439993,None,487.2771679439993,None,487.2771679439993,None,c,1,1.4662842770012503,488.8106588039991,None,488.8106588039991,None,488.8106588039991,None,490.3269353019987,None,490.3269353019987,None,490.3269353019987,None,490.3269353019987,None,,,,,,,,,,,,,,,,,,,,,,,,,,,,,,,,,,,,,,,,,,,,001,8,2020_Jan_28_1050,spring_faces,3.1.5,59.966837019825775,
condition files/Stage1_2.xlsx,,T3,B3,c,"['c', 'm']","['Clue', 'Monopoly']","[-0.15, 0.5]","[0.15, 0.5]",1,1,,,,,,,,,0,1,1,1,0,4,4,4,,,,,,,,,,,,,,,,,,,,,,,,,,,,,,,,,,,,,,,,,,,,,,,,,,,,,,,492.2939548409995,None,492.2939548409995,None,492.2939548409995,None,c,1,2.7371218879998196,493.82782064099956,None,493.82782064099956,None,493.82782064099956,None,496.627511785,None,496.627511785,None,496.627511785,None,496.627511785,None,,,,,,,,,,,,,,,,,,,,,,,,,,,,,,,,,,,,,,,,,,,,001,8,2020_Jan_28_1050,spring_faces,3.1.5,59.966837019825775,
condition files/Stage1_2.xlsx,,B2,T2,m,"['c', 'm']","['Clue', 'Monopoly']","[-0.15, 0.5]","[0.15, 0.5]",1,1,,,,,,,,,0,1,1,1,0,5,5,3,,,,,,,,,,,,,,,,,,,,,,,,,,,,,,,,,,,,,,,,,,,,,,,,,,,,,,,498.59384486899944,None,498.59384486899944,None,498.59384486899944,None,m,1,2.917504152001129,500.1274097709993,None,500.1274097709993,None,500.1274097709993,None,503.1136008229987,None,503.1136008229987,None,503.1136008229987,None,503.1136008229987,None,,,,,,,,,,,,,,,,,,,,,,,,,,,,,,,,,,,,,,,,,,,,001,8,2020_Jan_28_1050,spring_faces,3.1.5,59.966837019825775,
condition files/Stage1_2.xlsx,,T1,B2,m,"['c', 'm']","['Clue', 'Monopoly']","[-0.15, 0.5]","[0.15, 0.5]",1,1,,,,,,,,,0,1,1,1,0,6,6,2,,,,,,,,,,,,,,,,,,,,,,,,,,,,,,,,,,,,,,,,,,,,,,,,,,,,,,,505.0772276339994,None,505.0772276339994,None,505.0772276339994,None,m,1,0.9623003540000354,506.61064100899966,None,506.61064100899966,None,506.61064100899966,None,507.627133987,None,507.627133987,None,507.627133987,None,507.627133987,None,,,,,,,,,,,,,,,,,,,,,,,,,,,,,,,,,,,,,,,,,,,,001,8,2020_Jan_28_1050,spring_faces,3.1.5,59.966837019825775,
condition files/Stage1_2.xlsx,,T4,B4,m,"['c', 'm']","['Clue', 'Monopoly']","[-0.15, 0.5]","[0.15, 0.5]",1,1,,,,,,,,,0,1,1,1,0,7,7,7,,,,,,,,,,,,,,,,,,,,,,,,,,,,,,,,,,,,,,,,,,,,,,,,,,,,,,,509.5939163439998,None,509.5939163439998,None,509.5939163439998,None,c,0,2.189532637999946,511.1274718229997,None,511.1274718229997,None,511.1274718229997,None,513.3773819829985,None,513.3773819829985,None,513.3773819829985,None,513.3773819829985,None,,,,,,,,,,,,,,,,,,,,,,,,,,,,,,,,,,,,,,,,,,,,001,8,2020_Jan_28_1050,spring_faces,3.1.5,59.966837019825775,
condition files/Stage1_1.xlsx,,T4,B3,m,"['c', 'm']","['Clue', 'Monopoly']","[-0.15, 0.5]","[0.15, 0.5]",1,1,,,,,,,,,0,2,2,2,0,0,0,6,,,,,,,,,,,,,,,,,,,,,,,,,,,,,,,,,,,,,,,,,,,,,,,,,,,,,,,515.3611594229988,None,515.3611594229988,None,515.3611594229988,None,m,1,1.446201585999006,516.9107388229986,None,516.9107388229986,None,516.9107388229986,None,518.4108960499998,None,518.4108960499998,None,518.4108960499998,None,518.4108960499998,None,,,,,,,,,,,,,,,,,,,,,,,,,,,,,,,,,,,,,,,,,,,,001,8,2020_Jan_28_1050,spring_faces,3.1.5,59.966837019825775,
condition files/Stage1_1.xlsx,,B4,T4,m,"['c', 'm']","['Clue', 'Monopoly']","[-0.15, 0.5]","[0.15, 0.5]",1,1,,,,,,,,,0,2,2,2,0,1,1,7,,,,,,,,,,,,,,,,,,,,,,,,,,,,,,,,,,,,,,,,,,,,,,,,,,,,,,,520.3771371929997,None,520.3771371929997,None,520.3771371929997,None,c,0,1.5661575560006895,521.9107684379996,None,521.9107684379996,None,521.9107684379996,None,523.5273707689994,None,523.5273707689994,None,523.5273707689994,None,523.5273707689994,None,,,,,,,,,,,,,,,,,,,,,,,,,,,,,,,,,,,,,,,,,,,,001,8,2020_Jan_28_1050,spring_faces,3.1.5,59.966837019825775,
condition files/Stage1_1.xlsx,,T1,B1,c,"['c', 'm']","['Clue', 'Monopoly']","[-0.15, 0.5]","[0.15, 0.5]",1,1,,,,,,,,,0,2,2,2,0,2,2,0,,,,,,,,,,,,,,,,,,,,,,,,,,,,,,,,,,,,,,,,,,,,,,,,,,,,,,,525.4938374049998,None,525.4938374049998,None,525.4938374049998,None,c,1,1.6488562819995423,527.0440852309985,None,527.0440852309985,None,527.0440852309985,None,528.7458284039985,None,528.7458284039985,None,528.7458284039985,None,528.7458284039985,None,,,,,,,,,,,,,,,,,,,,,,,,,,,,,,,,,,,,,,,,,,,,001,8,2020_Jan_28_1050,spring_faces,3.1.5,59.966837019825775,
condition files/Stage1_1.xlsx,,T3,B4,c,"['c', 'm']","['Clue', 'Monopoly']","[-0.15, 0.5]","[0.15, 0.5]",1,1,,,,,,,,,0,2,2,2,0,3,3,5,,,,,,,,,,,,,,,,,,,,,,,,,,,,,,,,,,,,,,,,,,,,,,,,,,,,,,,530.7106913379994,None,530.7106913379994,None,530.7106913379994,None,c,1,2.00122486500004,532.2436939459985,None,532.2436939459985,None,532.2436939459985,None,534.310752035999,None,534.310752035999,None,534.310752035999,None,534.310752035999,None,,,,,,,,,,,,,,,,,,,,,,,,,,,,,,,,,,,,,,,,,,,,001,8,2020_Jan_28_1050,spring_faces,3.1.5,59.966837019825775,
condition files/Stage1_1.xlsx,,B3,T3,c,"['c', 'm']","['Clue', 'Monopoly']","[-0.15, 0.5]","[0.15, 0.5]",1,1,,,,,,,,,0,2,2,2,0,4,4,4,,,,,,,,,,,,,,,,,,,,,,,,,,,,,,,,,,,,,,,,,,,,,,,,,,,,,,,536.2772265980002,None,536.2772265980002,None,536.2772265980002,None,m,0,0.9312057180013653,537.8097312949994,None,537.8097312949994,None,537.8097312949994,None,538.7944880889991,None,538.7944880889991,None,538.7944880889991,None,538.7944880889991,None,,,,,,,,,,,,,,,,,,,,,,,,,,,,,,,,,,,,,,,,,,,,001,8,2020_Jan_28_1050,spring_faces,3.1.5,59.966837019825775,
condition files/Stage1_1.xlsx,,T2,B2,m,"['c', 'm']","['Clue', 'Monopoly']","[-0.15, 0.5]","[0.15, 0.5]",1,1,,,,,,,,,0,2,2,2,0,5,5,3,,,,,,,,,,,,,,,,,,,,,,,,,,,,,,,,,,,,,,,,,,,,,,,,,,,,,,,540.7605294019995,None,540.7605294019995,None,540.7605294019995,None,m,1,0.8942151129995182,542.2946689639994,None,542.2946689639994,None,542.2946689639994,None,543.2451409969999,None,543.2451409969999,None,543.2451409969999,None,543.2451409969999,None,,,,,,,,,,,,,,,,,,,,,,,,,,,,,,,,,,,,,,,,,,,,001,8,2020_Jan_28_1050,spring_faces,3.1.5,59.966837019825775,
condition files/Stage1_1.xlsx,,B2,T1,m,"['c', 'm']","['Clue', 'Monopoly']","[-0.15, 0.5]","[0.15, 0.5]",1,1,,,,,,,,,0,2,2,2,0,6,6,2,,,,,,,,,,,,,,,,,,,,,,,,,,,,,,,,,,,,,,,,,,,,,,,,,,,,,,,545.2105936600001,None,545.2105936600001,None,545.2105936600001,None,m,1,1.565137310000864,546.7438052119996,None,546.7438052119996,None,546.7438052119996,None,548.3603302470001,None,548.3603302470001,None,548.3603302470001,None,548.3603302470001,None,,,,,,,,,,,,,,,,,,,,,,,,,,,,,,,,,,,,,,,,,,,,001,8,2020_Jan_28_1050,spring_faces,3.1.5,59.966837019825775,
condition files/Stage1_1.xlsx,,B1,T2,c,"['c', 'm']","['Clue', 'Monopoly']","[-0.15, 0.5]","[0.15, 0.5]",1,1,,,,,,,,,0,2,2,2,0,7,7,1,,,,,,,,,,,,,,,,,,,,,,,,,,,,,,,,,,,,,,,,,,,,,,,,,,,,,,,550.3268791270002,None,550.3268791270002,None,550.3268791270002,None,m,0,2.527330556000379,551.8775830639988,None,551.8775830639988,None,551.8775830639988,None,554.4773342949993,None,554.4773342949993,None,554.4773342949993,None,554.4773342949993,None,,,,,,,,,,,,,,,,,,,,,,,,,,,,,,,,,,,,,,,,,,,,001,8,2020_Jan_28_1050,spring_faces,3.1.5,59.966837019825775,
condition files/Stage1_2.xlsx,,B4,T3,c,"['c', 'm']","['Clue', 'Monopoly']","[-0.15, 0.5]","[0.15, 0.5]",1,1,,,,,,,,,0,3,3,3,0,0,0,5,,,,,,,,,,,,,,,,,,,,,,,,,,,,,,,,,,,,,,,,,,,,,,,,,,,,,,,556.4438862389998,None,556.4438862389998,None,556.4438862389998,None,m,0,2.2836047900000267,557.9772763649999,None,557.9772763649999,None,557.9772763649999,None,560.3271257359993,None,560.3271257359993,None,560.3271257359993,None,560.3271257359993,None,,,,,,,,,,,,,,,,,,,,,,,,,,,,,,,,,,,,,,,,,,,,001,8,2020_Jan_28_1050,spring_faces,3.1.5,59.966837019825775,
condition files/Stage1_2.xlsx,,B3,T4,m,"['c', 'm']","['Clue', 'Monopoly']","[-0.15, 0.5]","[0.15, 0.5]",1,1,,,,,,,,,0,3,3,3,0,1,1,6,,,,,,,,,,,,,,,,,,,,,,,,,,,,,,,,,,,,,,,,,,,,,,,,,,,,,,,562.293701749999,None,562.293701749999,None,562.293701749999,None,m,1,1.6174824930003524,563.8274078449995,None,563.8274078449995,None,563.8274078449995,None,565.5124950569989,None,565.5124950569989,None,565.5124950569989,None,565.5124950569989,None,,,,,,,,,,,,,,,,,,,,,,,,,,,,,,,,,,,,,,,,,,,,001,8,2020_Jan_28_1050,spring_faces,3.1.5,59.966837019825775,
condition files/Stage1_2.xlsx,,T1,B2,m,"['c', 'm']","['Clue', 'Monopoly']","[-0.15, 0.5]","[0.15, 0.5]",1,1,,,,,,,,,0,3,3,3,0,2,2,2,,,,,,,,,,,,,,,,,,,,,,,,,,,,,,,,,,,,,,,,,,,,,,,,,,,,,,,567.4771773499997,None,567.4771773499997,None,567.4771773499997,None,m,1,1.6010375149999163,569.0119030049991,None,569.0119030049991,None,569.0119030049991,None,570.6772963839994,None,570.6772963839994,None,570.6772963839994,None,570.6772963839994,None,,,,,,,,,,,,,,,,,,,,,,,,,,,,,,,,,,,,,,,,,,,,001,8,2020_Jan_28_1050,spring_faces,3.1.5,59.966837019825775,
condition files/Stage1_2.xlsx,,T4,B4,m,"['c', 'm']","['Clue', 'Monopoly']","[-0.15, 0.5]","[0.15, 0.5]",1,1,,,,,,,,,0,3,3,3,0,3,3,7,,,,,,,,,,,,,,,,,,,,,,,,,,,,,,,,,,,,,,,,,,,,,,,,,,,,,,,572.6438996409997,None,572.6438996409997,None,572.6438996409997,None,m,1,3.1212609419999353,574.1797526479986,None,574.1797526479986,None,574.1797526479986,None,577.3604779039997,None,577.3604779039997,None,577.3604779039997,None,577.3604779039997,None,,,,,,,,,,,,,,,,,,,,,,,,,,,,,,,,,,,,,,,,,,,,001,8,2020_Jan_28_1050,spring_faces,3.1.5,59.966837019825775,
condition files/Stage1_2.xlsx,,B1,T1,c,"['c', 'm']","['Clue', 'Monopoly']","[-0.15, 0.5]","[0.15, 0.5]",1,1,,,,,,,,,0,3,3,3,0,4,4,0,,,,,,,,,,,,,,,,,,,,,,,,,,,,,,,,,,,,,,,,,,,,,,,,,,,,,,,579.3273203190001,None,579.3273203190001,None,579.3273203190001,None,c,1,1.9904992560004757,580.8625202779986,None,580.8625202779986,None,580.8625202779986,None,582.9274308570002,None,582.9274308570002,None,582.9274308570002,None,582.9274308570002,None,,,,,,,,,,,,,,,,,,,,,,,,,,,,,,,,,,,,,,,,,,,,001,8,2020_Jan_28_1050,spring_faces,3.1.5,59.966837019825775,
condition files/Stage1_2.xlsx,,B2,T2,m,"['c', 'm']","['Clue', 'Monopoly']","[-0.15, 0.5]","[0.15, 0.5]",1,1,,,,,,,,,0,3,3,3,0,5,5,3,,,,,,,,,,,,,,,,,,,,,,,,,,,,,,,,,,,,,,,,,,,,,,,,,,,,,,,584.8773196769998,None,584.8773196769998,None,584.8773196769998,None,m,1,1.097742169000412,586.4111802119987,None,586.4111802119987,None,586.4111802119987,None,587.5772664460001,None,587.5772664460001,None,587.5772664460001,None,587.5772664460001,None,,,,,,,,,,,,,,,,,,,,,,,,,,,,,,,,,,,,,,,,,,,,001,8,2020_Jan_28_1050,spring_faces,3.1.5,59.966837019825775,
condition files/Stage1_2.xlsx,,T2,B1,c,"['c', 'm']","['Clue', 'Monopoly']","[-0.15, 0.5]","[0.15, 0.5]",1,1,,,,,,,,,0,3,3,3,0,6,6,1,,,,,,,,,,,,,,,,,,,,,,,,,,,,,,,,,,,,,,,,,,,,,,,,,,,,,,,589.5268083459996,None,589.5268083459996,None,589.5268083459996,None,c,1,3.2155680670002766,591.077355681,None,591.077355681,None,591.077355681,None,594.3445129679985,None,594.3445129679985,None,594.3445129679985,None,594.3445129679985,None,,,,,,,,,,,,,,,,,,,,,,,,,,,,,,,,,,,,,,,,,,,,001,8,2020_Jan_28_1050,spring_faces,3.1.5,59.966837019825775,
condition files/Stage1_2.xlsx,,T3,B3,c,"['c', 'm']","['Clue', 'Monopoly']","[-0.15, 0.5]","[0.15, 0.5]",1,1,,,,,,,,,0,3,3,3,0,7,7,4,,,,,,,,,,,,,,,,,,,,,,,,,,,,,,,,,,,,,,,,,,,,,,,,,,,,,,,596.3106646939996,None,596.3106646939996,None,596.3106646939996,None,c,1,2.7853151290000824,597.8435868839988,None,597.8435868839988,None,597.8435868839988,None,600.6940773669994,None,600.6940773669994,None,600.6940773669994,None,600.6940773669994,None,,,,,,,,,,,,,,,,,,,,,,,,,,,,,,,,,,,,,,,,,,,,001,8,2020_Jan_28_1050,spring_faces,3.1.5,59.966837019825775,
condition files/Stage1_1.xlsx,,T4,B3,m,"['c', 'm']","['Clue', 'Monopoly']","[-0.15, 0.5]","[0.15, 0.5]",1,1,,,,,,,,,0,4,4,4,0,0,0,6,,,,,,,,,,,,,,,,,,,,,,,,,,,,,,,,,,,,,,,,,,,,,,,,,,,,,,,602.6774132289993,None,602.6774132289993,None,602.6774132289993,None,m,1,2.465386073001355,604.2115628339998,None,604.2115628339998,None,604.2115628339998,None,606.7443030590002,None,606.7443030590002,None,606.7443030590002,None,606.7443030590002,None,,,,,,,,,,,,,,,,,,,,,,,,,,,,,,,,,,,,,,,,,,,,001,8,2020_Jan_28_1050,spring_faces,3.1.5,59.966837019825775,
condition files/Stage1_1.xlsx,,B2,T1,m,"['c', 'm']","['Clue', 'Monopoly']","[-0.15, 0.5]","[0.15, 0.5]",1,1,,,,,,,,,0,4,4,4,0,1,1,2,,,,,,,,,,,,,,,,,,,,,,,,,,,,,,,,,,,,,,,,,,,,,,,,,,,,,,,608.6938063739999,None,608.6938063739999,None,608.6938063739999,None,m,1,1.760852760000489,610.2440490069985,None,610.2440490069985,None,610.2440490069985,None,612.060666669,None,612.060666669,None,612.060666669,None,612.060666669,None,,,,,,,,,,,,,,,,,,,,,,,,,,,,,,,,,,,,,,,,,,,,001,8,2020_Jan_28_1050,spring_faces,3.1.5,59.966837019825775,
condition files/Stage1_1.xlsx,,T3,B4,c,"['c', 'm']","['Clue', 'Monopoly']","[-0.15, 0.5]","[0.15, 0.5]",1,1,,,,,,,,,0,4,4,4,0,2,2,5,,,,,,,,,,,,,,,,,,,,,,,,,,,,,,,,,,,,,,,,,,,,,,,,,,,,,,,614.0273091179988,None,614.0273091179988,None,614.0273091179988,None,m,0,3.452366732999508,615.5605630259997,None,615.5605630259997,None,615.5605630259997,None,619.0790839019992,None,619.0790839019992,None,619.0790839019992,None,619.0790839019992,None,,,,,,,,,,,,,,,,,,,,,,,,,,,,,,,,,,,,,,,,,,,,001,8,2020_Jan_28_1050,spring_faces,3.1.5,59.966837019825775,
condition files/Stage1_1.xlsx,,B3,T3,c,"['c', 'm']","['Clue', 'Monopoly']","[-0.15, 0.5]","[0.15, 0.5]",1,1,,,,,,,,,0,4,4,4,0,3,3,4,,,,,,,,,,,,,,,,,,,,,,,,,,,,,,,,,,,,,,,,,,,,,,,,,,,,,,,621.0432103200001,None,621.0432103200001,None,621.0432103200001,None,c,1,1.283923834000234,622.5769624529985,None,622.5769624529985,None,622.5769624529985,None,623.9103613389998,None,623.9103613389998,None,623.9103613389998,None,623.9103613389998,None,,,,,,,,,,,,,,,,,,,,,,,,,,,,,,,,,,,,,,,,,,,,001,8,2020_Jan_28_1050,spring_faces,3.1.5,59.966837019825775,
condition files/Stage1_1.xlsx,,B1,T2,c,"['c', 'm']","['Clue', 'Monopoly']","[-0.15, 0.5]","[0.15, 0.5]",1,1,,,,,,,,,0,4,4,4,0,4,4,1,,,,,,,,,,,,,,,,,,,,,,,,,,,,,,,,,,,,,,,,,,,,,,,,,,,,,,,625.8768723499998,None,625.8768723499998,None,625.8768723499998,None,c,1,1.937392734000241,627.4115649809992,None,627.4115649809992,None,627.4115649809992,None,629.410657896,None,629.410657896,None,629.410657896,None,629.410657896,None,,,,,,,,,,,,,,,,,,,,,,,,,,,,,,,,,,,,,,,,,,,,001,8,2020_Jan_28_1050,spring_faces,3.1.5,59.966837019825775,
condition files/Stage1_1.xlsx,,T1,B1,c,"['c', 'm']","['Clue', 'Monopoly']","[-0.15, 0.5]","[0.15, 0.5]",1,1,,,,,,,,,0,4,4,4,0,5,5,0,,,,,,,,,,,,,,,,,,,,,,,,,,,,,,,,,,,,,,,,,,,,,,,,,,,,,,,631.3771845689989,None,631.3771845689989,None,631.3771845689989,None,c,1,2.15019313799894,632.9107114549988,None,632.9107114549988,None,632.9107114549988,None,635.1275322959991,None,635.1275322959991,None,635.1275322959991,None,635.1275322959991,None,,,,,,,,,,,,,,,,,,,,,,,,,,,,,,,,,,,,,,,,,,,,001,8,2020_Jan_28_1050,spring_faces,3.1.5,59.966837019825775,
condition files/Stage1_1.xlsx,,B4,T4,m,"['c', 'm']","['Clue', 'Monopoly']","[-0.15, 0.5]","[0.15, 0.5]",1,1,,,,,,,,,0,4,4,4,0,6,6,7,,,,,,,,,,,,,,,,,,,,,,,,,,,,,,,,,,,,,,,,,,,,,,,,,,,,,,,637.0932945669992,None,637.0932945669992,None,637.0932945669992,None,c,0,3.360426704999554,638.6284602739997,None,638.6284602739997,None,638.6284602739997,None,642.0455135020002,None,642.0455135020002,None,642.0455135020002,None,642.0455135020002,None,,,,,,,,,,,,,,,,,,,,,,,,,,,,,,,,,,,,,,,,,,,,001,8,2020_Jan_28_1050,spring_faces,3.1.5,59.966837019825775,
condition files/Stage1_1.xlsx,,T2,B2,m,"['c', 'm']","['Clue', 'Monopoly']","[-0.15, 0.5]","[0.15, 0.5]",1,1,,,,,,,,,0,4,4,4,0,7,7,3,,,,,,,,,,,,,,,,,,,,,,,,,,,,,,,,,,,,,,,,,,,,,,,,,,,,,,,644.010764871,None,644.010764871,None,644.010764871,None,m,1,1.7386201019999135,645.5464015389989,None,645.5464015389989,None,645.5464015389989,None,647.3439840849987,None,647.3439840849987,None,647.3439840849987,None,647.3439840849987,None,,,,,,,,,,,,,,,,,,,,,,,,,,,,,,,,,,,,,,,,,,,,001,8,2020_Jan_28_1050,spring_faces,3.1.5,59.966837019825775,
condition files/Stage1_2.xlsx,,B1,T1,c,"['c', 'm']","['Clue', 'Monopoly']","[-0.15, 0.5]","[0.15, 0.5]",1,1,,,,,,,,,0,5,5,5,0,0,0,0,,,,,,,,,,,,,,,,,,,,,,,,,,,,,,,,,,,,,,,,,,,,,,,,,,,,,,,649.3271625460002,None,649.3271625460002,None,649.3271625460002,None,c,1,2.2140609350008162,650.8628869339991,None,650.8628869339991,None,650.8628869339991,None,653.1442282859989,None,653.1442282859989,None,653.1442282859989,None,653.1442282859989,None,,,,,,,,,,,,,,,,,,,,,,,,,,,,,,,,,,,,,,,,,,,,001,8,2020_Jan_28_1050,spring_faces,3.1.5,59.966837019825775,
condition files/Stage1_2.xlsx,,T2,B1,c,"['c', 'm']","['Clue', 'Monopoly']","[-0.15, 0.5]","[0.15, 0.5]",1,1,,,,,,,,,0,5,5,5,0,1,1,1,,,,,,,,,,,,,,,,,,,,,,,,,,,,,,,,,,,,,,,,,,,,,,,,,,,,,,,655.0938321510002,None,655.0938321510002,None,655.0938321510002,None,c,1,2.625962749998507,656.6270610129995,None,656.6270610129995,None,656.6270610129995,None,659.3104047809993,None,659.3104047809993,None,659.3104047809993,None,659.3104047809993,None,,,,,,,,,,,,,,,,,,,,,,,,,,,,,,,,,,,,,,,,,,,,001,8,2020_Jan_28_1050,spring_faces,3.1.5,59.966837019825775,
condition files/Stage1_2.xlsx,,T1,B2,m,"['c', 'm']","['Clue', 'Monopoly']","[-0.15, 0.5]","[0.15, 0.5]",1,1,,,,,,,,,0,5,5,5,0,2,2,2,,,,,,,,,,,,,,,,,,,,,,,,,,,,,,,,,,,,,,,,,,,,,,,,,,,,,,,661.277214452999,None,661.277214452999,None,661.277214452999,None,m,1,0.9058182570006466,662.8112020259996,None,662.8112020259996,None,662.8112020259996,None,663.7775156359985,None,663.7775156359985,None,663.7775156359985,None,663.7775156359985,None,,,,,,,,,,,,,,,,,,,,,,,,,,,,,,,,,,,,,,,,,,,,001,8,2020_Jan_28_1050,spring_faces,3.1.5,59.966837019825775,
condition files/Stage1_2.xlsx,,T3,B3,c,"['c', 'm']","['Clue', 'Monopoly']","[-0.15, 0.5]","[0.15, 0.5]",1,1,,,,,,,,,0,5,5,5,0,3,3,4,,,,,,,,,,,,,,,,,,,,,,,,,,,,,,,,,,,,,,,,,,,,,,,,,,,,,,,665.7438609199999,None,665.7438609199999,None,665.7438609199999,None,c,1,1.7841662130012992,667.2767404699989,None,667.2767404699989,None,667.2767404699989,None,669.1273132459992,None,669.1273132459992,None,669.1273132459992,None,669.1273132459992,None,,,,,,,,,,,,,,,,,,,,,,,,,,,,,,,,,,,,,,,,,,,,001,8,2020_Jan_28_1050,spring_faces,3.1.5,59.966837019825775,
condition files/Stage1_2.xlsx,,B3,T4,m,"['c', 'm']","['Clue', 'Monopoly']","[-0.15, 0.5]","[0.15, 0.5]",1,1,,,,,,,,,0,5,5,5,0,4,4,6,,,,,,,,,,,,,,,,,,,,,,,,,,,,,,,,,,,,,,,,,,,,,,,,,,,,,,,671.0938783679994,None,671.0938783679994,None,671.0938783679994,None,m,1,2.5935401970000385,672.6274614180002,None,672.6274614180002,None,672.6274614180002,None,675.2779922259997,None,675.2779922259997,None,675.2779922259997,None,675.2779922259997,None,,,,,,,,,,,,,,,,,,,,,,,,,,,,,,,,,,,,,,,,,,,,001,8,2020_Jan_28_1050,spring_faces,3.1.5,59.966837019825775,
condition files/Stage1_2.xlsx,,B2,T2,m,"['c', 'm']","['Clue', 'Monopoly']","[-0.15, 0.5]","[0.15, 0.5]",1,1,,,,,,,,,0,5,5,5,0,5,5,3,,,,,,,,,,,,,,,,,,,,,,,,,,,,,,,,,,,,,,,,,,,,,,,,,,,,,,,677.2440237149985,None,677.2440237149985,None,677.2440237149985,None,m,1,1.5151470309992874,678.7777994070002,None,678.7777994070002,None,678.7777994070002,None,680.3438574880001,None,680.3438574880001,None,680.3438574880001,None,680.3438574880001,None,,,,,,,,,,,,,,,,,,,,,,,,,,,,,,,,,,,,,,,,,,,,001,8,2020_Jan_28_1050,spring_faces,3.1.5,59.966837019825775,
condition files/Stage1_2.xlsx,,T4,B4,m,"['c', 'm']","['Clue', 'Monopoly']","[-0.15, 0.5]","[0.15, 0.5]",1,1,,,,,,,,,0,5,5,5,0,6,6,7,,,,,,,,,,,,,,,,,,,,,,,,,,,,,,,,,,,,,,,,,,,,,,,,,,,,,,,682.3105772049985,None,682.3105772049985,None,682.3105772049985,None,m,1,4.478318948999004,683.846615041999,None,683.846615041999,None,683.846615041999,None,688.3773525099987,None,688.3773525099987,None,688.3773525099987,None,688.3773525099987,None,,,,,,,,,,,,,,,,,,,,,,,,,,,,,,,,,,,,,,,,,,,,001,8,2020_Jan_28_1050,spring_faces,3.1.5,59.966837019825775,
condition files/Stage1_2.xlsx,,B4,T3,c,"['c', 'm']","['Clue', 'Monopoly']","[-0.15, 0.5]","[0.15, 0.5]",1,1,,,,,,,,,0,5,5,5,0,7,7,5,,,,,,,,,,,,,,,,,,,,,,,,,,,,,,,,,,,,,,,,,,,,,,,,,,,,,,,690.3438706010002,None,690.3438706010002,None,690.3438706010002,None,m,0,4.111643919000926,691.8772648189988,None,691.8772648189988,None,691.8772648189988,None,696.043872921,None,696.043872921,None,696.043872921,None,696.043872921,None,,,,,,,,,,,,,,,,,,,,,,,,,,,,,,,,,,,,,,,,,,,,001,8,2020_Jan_28_1050,spring_faces,3.1.5,59.966837019825775,
condition files/Stage1_1.xlsx,,B2,T1,m,"['c', 'm']","['Clue', 'Monopoly']","[-0.15, 0.5]","[0.15, 0.5]",1,1,,,,,,,,,0,6,6,6,0,0,0,2,,,,,,,,,,,,,,,,,,,,,,,,,,,,,,,,,,,,,,,,,,,,,,,,,,,,,,,698.0269538749999,None,698.0269538749999,None,698.0269538749999,None,m,1,1.0031067170002643,699.5778293069998,None,699.5778293069998,None,699.5778293069998,None,700.660920508999,None,700.660920508999,None,700.660920508999,None,700.660920508999,None,,,,,,,,,,,,,,,,,,,,,,,,,,,,,,,,,,,,,,,,,,,,001,8,2020_Jan_28_1050,spring_faces,3.1.5,59.966837019825775,
condition files/Stage1_1.xlsx,,T1,B1,c,"['c', 'm']","['Clue', 'Monopoly']","[-0.15, 0.5]","[0.15, 0.5]",1,1,,,,,,,,,0,6,6,6,0,1,1,0,,,,,,,,,,,,,,,,,,,,,,,,,,,,,,,,,,,,,,,,,,,,,,,,,,,,,,,702.6103446859997,None,702.6103446859997,None,702.6103446859997,None,c,1,3.4129447380000784,704.1440020619993,None,704.1440020619993,None,704.1440020619993,None,707.6123950879992,None,707.6123950879992,None,707.6123950879992,None,707.6123950879992,None,,,,,,,,,,,,,,,,,,,,,,,,,,,,,,,,,,,,,,,,,,,,001,8,2020_Jan_28_1050,spring_faces,3.1.5,59.966837019825775,
condition files/Stage1_1.xlsx,,T2,B2,m,"['c', 'm']","['Clue', 'Monopoly']","[-0.15, 0.5]","[0.15, 0.5]",1,1,,,,,,,,,0,6,6,6,0,2,2,3,,,,,,,,,,,,,,,,,,,,,,,,,,,,,,,,,,,,,,,,,,,,,,,,,,,,,,,709.5767523239992,None,709.5767523239992,None,709.5767523239992,None,m,1,1.294569825000508,711.1103504829989,None,711.1103504829989,None,711.1103504829989,None,712.4769973019993,None,712.4769973019993,None,712.4769973019993,None,712.4769973019993,None,,,,,,,,,,,,,,,,,,,,,,,,,,,,,,,,,,,,,,,,,,,,001,8,2020_Jan_28_1050,spring_faces,3.1.5,59.966837019825775,
condition files/Stage1_1.xlsx,,T4,B3,m,"['c', 'm']","['Clue', 'Monopoly']","[-0.15, 0.5]","[0.15, 0.5]",1,1,,,,,,,,,0,6,6,6,0,3,3,6,,,,,,,,,,,,,,,,,,,,,,,,,,,,,,,,,,,,,,,,,,,,,,,,,,,,,,,714.4271474959987,None,714.4271474959987,None,714.4271474959987,None,m,1,3.1474947709994012,715.9774510549996,None,715.9774510549996,None,715.9774510549996,None,719.1774557959998,None,719.1774557959998,None,719.1774557959998,None,719.1774557959998,None,,,,,,,,,,,,,,,,,,,,,,,,,,,,,,,,,,,,,,,,,,,,001,8,2020_Jan_28_1050,spring_faces,3.1.5,59.966837019825775,
condition files/Stage1_1.xlsx,,T3,B4,c,"['c', 'm']","['Clue', 'Monopoly']","[-0.15, 0.5]","[0.15, 0.5]",1,1,,,,,,,,,0,6,6,6,0,4,4,5,,,,,,,,,,,,,,,,,,,,,,,,,,,,,,,,,,,,,,,,,,,,,,,,,,,,,,,721.1433684940002,None,721.1433684940002,None,721.1433684940002,None,m,0,4.848203899000509,722.6767428429994,None,722.6767428429994,None,722.6767428429994,None,727.5786170709998,None,727.5786170709998,None,727.5786170709998,None,727.5786170709998,None,,,,,,,,,,,,,,,,,,,,,,,,,,,,,,,,,,,,,,,,,,,,001,8,2020_Jan_28_1050,spring_faces,3.1.5,59.966837019825775,
condition files/Stage1_1.xlsx,,B3,T3,c,"['c', 'm']","['Clue', 'Monopoly']","[-0.15, 0.5]","[0.15, 0.5]",1,1,,,,,,,,,0,6,6,6,0,5,5,4,,,,,,,,,,,,,,,,,,,,,,,,,,,,,,,,,,,,,,,,,,,,,,,,,,,,,,,729.5439459619993,None,729.5439459619993,None,729.5439459619993,None,m,0,3.759881372001473,731.0770525070002,None,731.0770525070002,None,731.0770525070002,None,734.8934733409988,None,734.8934733409988,None,734.8934733409988,None,734.8934733409988,None,,,,,,,,,,,,,,,,,,,,,,,,,,,,,,,,,,,,,,,,,,,,001,8,2020_Jan_28_1050,spring_faces,3.1.5,59.966837019825775,
condition files/Stage1_1.xlsx,,B4,T4,m,"['c', 'm']","['Clue', 'Monopoly']","[-0.15, 0.5]","[0.15, 0.5]",1,1,,,,,,,,,0,6,6,6,0,6,6,7,,,,,,,,,,,,,,,,,,,,,,,,,,,,,,,,,,,,,,,,,,,,,,,,,,,,,,,736.860514087999,None,736.860514087999,None,736.860514087999,None,m,1,2.427519000999382,738.3935048289986,None,738.3935048289986,None,738.3935048289986,None,740.8782199359994,None,740.8782199359994,None,740.8782199359994,None,740.8782199359994,None,,,,,,,,,,,,,,,,,,,,,,,,,,,,,,,,,,,,,,,,,,,,001,8,2020_Jan_28_1050,spring_faces,3.1.5,59.966837019825775,
condition files/Stage1_1.xlsx,,B1,T2,c,"['c', 'm']","['Clue', 'Monopoly']","[-0.15, 0.5]","[0.15, 0.5]",1,1,,,,,,,,,0,6,6,6,0,7,7,1,,,,,,,,,,,,,,,,,,,,,,,,,,,,,,,,,,,,,,,,,,,,,,,,,,,,,,,742.8438591049999,None,742.8438591049999,None,742.8438591049999,None,c,1,1.7553040210004838,744.377585233,None,744.377585233,None,744.377585233,None,746.1941035239997,None,746.1941035239997,None,746.1941035239997,None,746.1941035239997,None,,,,,,,,,,,,,,,,,,,,,,,,,,,,,,,,,,,,,,,,,,,,001,8,2020_Jan_28_1050,spring_faces,3.1.5,59.966837019825775,
condition files/Stage1_2.xlsx,,T2,B1,c,"['c', 'm']","['Clue', 'Monopoly']","[-0.15, 0.5]","[0.15, 0.5]",1,1,,,,,,,,,0,7,7,7,0,0,0,1,,,,,,,,,,,,,,,,,,,,,,,,,,,,,,,,,,,,,,,,,,,,,,,,,,,,,,,748.1774471299996,None,748.1774471299996,None,748.1774471299996,None,c,1,2.8211872550000408,749.7118213189988,None,749.7118213189988,None,749.7118213189988,None,752.5940645689989,None,752.5940645689989,None,752.5940645689989,None,752.5940645689989,None,,,,,,,,,,,,,,,,,,,,,,,,,,,,,,,,,,,,,,,,,,,,001,8,2020_Jan_28_1050,spring_faces,3.1.5,59.966837019825775,
condition files/Stage1_2.xlsx,,T1,B2,m,"['c', 'm']","['Clue', 'Monopoly']","[-0.15, 0.5]","[0.15, 0.5]",1,1,,,,,,,,,0,7,7,7,0,1,1,2,,,,,,,,,,,,,,,,,,,,,,,,,,,,,,,,,,,,,,,,,,,,,,,,,,,,,,,754.5604843330002,None,754.5604843330002,None,754.5604843330002,None,m,1,1.3164745400008542,756.0964756719986,None,756.0964756719986,None,756.0964756719986,None,757.4771556119995,None,757.4771556119995,None,757.4771556119995,None,757.4771556119995,None,,,,,,,,,,,,,,,,,,,,,,,,,,,,,,,,,,,,,,,,,,,,001,8,2020_Jan_28_1050,spring_faces,3.1.5,59.966837019825775,
condition files/Stage1_2.xlsx,,B3,T4,m,"['c', 'm']","['Clue', 'Monopoly']","[-0.15, 0.5]","[0.15, 0.5]",1,1,,,,,,,,,0,7,7,7,0,2,2,6,,,,,,,,,,,,,,,,,,,,,,,,,,,,,,,,,,,,,,,,,,,,,,,,,,,,,,,759.4436424389987,None,759.4436424389987,None,759.4436424389987,None,m,1,6.818684396999743,760.9782564999987,None,760.9782564999987,None,760.9782564999987,None,767.8603465849992,None,767.8603465849992,None,767.8603465849992,None,767.8603465849992,None,,,,,,,,,,,,,,,,,,,,,,,,,,,,,,,,,,,,,,,,,,,,001,8,2020_Jan_28_1050,spring_faces,3.1.5,59.966837019825775,
condition files/Stage1_2.xlsx,,B4,T3,c,"['c', 'm']","['Clue', 'Monopoly']","[-0.15, 0.5]","[0.15, 0.5]",1,1,,,,,,,,,0,7,7,7,0,3,3,5,,,,,,,,,,,,,,,,,,,,,,,,,,,,,,,,,,,,,,,,,,,,,,,,,,,,,,,769.8271860009991,None,769.8271860009991,None,769.8271860009991,None,c,1,2.532589538999673,771.3603570119994,None,771.3603570119994,None,771.3603570119994,None,773.9454525559995,None,773.9454525559995,None,773.9454525559995,None,773.9454525559995,None,,,,,,,,,,,,,,,,,,,,,,,,,,,,,,,,,,,,,,,,,,,,001,8,2020_Jan_28_1050,spring_faces,3.1.5,59.966837019825775,
condition files/Stage1_2.xlsx,,T4,B4,m,"['c', 'm']","['Clue', 'Monopoly']","[-0.15, 0.5]","[0.15, 0.5]",1,1,,,,,,,,,0,7,7,7,0,4,4,7,,,,,,,,,,,,,,,,,,,,,,,,,,,,,,,,,,,,,,,,,,,,,,,,,,,,,,,775.9099213979989,None,775.9099213979989,None,775.9099213979989,None,c,0,2.369353478999983,777.4435785389996,None,777.4435785389996,None,777.4435785389996,None,779.8795492609988,None,779.8795492609988,None,779.8795492609988,None,779.8795492609988,None,,,,,,,,,,,,,,,,,,,,,,,,,,,,,,,,,,,,,,,,,,,,001,8,2020_Jan_28_1050,spring_faces,3.1.5,59.966837019825775,
condition files/Stage1_2.xlsx,,B1,T1,c,"['c', 'm']","['Clue', 'Monopoly']","[-0.15, 0.5]","[0.15, 0.5]",1,1,,,,,,,,,0,7,7,7,0,5,5,0,,,,,,,,,,,,,,,,,,,,,,,,,,,,,,,,,,,,,,,,,,,,,,,,,,,,,,,781.8436103299991,None,781.8436103299991,None,781.8436103299991,None,c,1,1.7152913680001802,783.3776547369998,None,783.3776547369998,None,783.3776547369998,None,785.1455074589994,None,785.1455074589994,None,785.1455074589994,None,785.1455074589994,None,,,,,,,,,,,,,,,,,,,,,,,,,,,,,,,,,,,,,,,,,,,,001,8,2020_Jan_28_1050,spring_faces,3.1.5,59.966837019825775,
condition files/Stage1_2.xlsx,,B2,T2,m,"['c', 'm']","['Clue', 'Monopoly']","[-0.15, 0.5]","[0.15, 0.5]",1,1,,,,,,,,,0,7,7,7,0,6,6,3,,,,,,,,,,,,,,,,,,,,,,,,,,,,,,,,,,,,,,,,,,,,,,,,,,,,,,,787.1105366869997,None,787.1105366869997,None,787.1105366869997,None,m,1,3.5830875219999143,788.6458191419988,None,788.6458191419988,None,788.6458191419988,None,792.2947641369992,None,792.2947641369992,None,792.2947641369992,None,792.2947641369992,None,,,,,,,,,,,,,,,,,,,,,,,,,,,,,,,,,,,,,,,,,,,,001,8,2020_Jan_28_1050,spring_faces,3.1.5,59.966837019825775,
condition files/Stage1_2.xlsx,,T3,B3,c,"['c', 'm']","['Clue', 'Monopoly']","[-0.15, 0.5]","[0.15, 0.5]",1,1,,,,,,,,,0,7,7,7,0,7,7,4,,,,,,,,,,,,,,,,,,,,,,,,,,,,,,,,,,,,,,,,,,,,,,,,,,,,,,,794.2605757059991,None,794.2605757059991,None,794.2605757059991,None,m,0,4.944342312001027,795.7965556049985,None,795.7965556049985,None,795.7965556049985,None,800.794681080999,None,800.794681080999,None,800.794681080999,None,800.794681080999,None,,,,,,,,,,,,,,,,,,,,,,,,,,,,,,,,,,,,,,,,,,,,001,8,2020_Jan_28_1050,spring_faces,3.1.5,59.966837019825775,
condition files/Stage1_1.xlsx,,B2,T1,m,"['c', 'm']","['Clue', 'Monopoly']","[-0.15, 0.5]","[0.15, 0.5]",1,1,,,,,,,,,0,8,8,8,0,0,0,2,,,,,,,,,,,,,,,,,,,,,,,,,,,,,,,,,,,,,,,,,,,,,,,,,,,,,,,802.7775969959985,None,802.7775969959985,None,802.7775969959985,None,m,1,0.8932840570014378,804.3116551459989,None,804.3116551459989,None,804.3116551459989,None,805.2775236149992,None,805.2775236149992,None,805.2775236149992,None,805.2775236149992,None,,,,,,,,,,,,,,,,,,,,,,,,,,,,,,,,,,,,,,,,,,,,001,8,2020_Jan_28_1050,spring_faces,3.1.5,59.966837019825775,
condition files/Stage1_1.xlsx,,T2,B2,m,"['c', 'm']","['Clue', 'Monopoly']","[-0.15, 0.5]","[0.15, 0.5]",1,1,,,,,,,,,0,8,8,8,0,1,1,3,,,,,,,,,,,,,,,,,,,,,,,,,,,,,,,,,,,,,,,,,,,,,,,,,,,,,,,807.2269551789996,None,807.2269551789996,None,807.2269551789996,None,m,1,1.0999626159991749,808.7609390639991,None,808.7609390639991,None,808.7609390639991,None,809.9273814589997,None,809.9273814589997,None,809.9273814589997,None,809.9273814589997,None,,,,,,,,,,,,,,,,,,,,,,,,,,,,,,,,,,,,,,,,,,,,001,8,2020_Jan_28_1050,spring_faces,3.1.5,59.966837019825775,
condition files/Stage1_1.xlsx,,B4,T4,m,"['c', 'm']","['Clue', 'Monopoly']","[-0.15, 0.5]","[0.15, 0.5]",1,1,,,,,,,,,0,8,8,8,0,2,2,7,,,,,,,,,,,,,,,,,,,,,,,,,,,,,,,,,,,,,,,,,,,,,,,,,,,,,,,811.8938763009992,None,811.8938763009992,None,811.8938763009992,None,m,1,6.511083029001384,813.4298017889996,None,813.4298017889996,None,813.4298017889996,None,819.9940936570001,None,819.9940936570001,None,819.9940936570001,None,819.9940936570001,None,,,,,,,,,,,,,,,,,,,,,,,,,,,,,,,,,,,,,,,,,,,,001,8,2020_Jan_28_1050,spring_faces,3.1.5,59.966837019825775,
condition files/Stage1_1.xlsx,,T1,B1,c,"['c', 'm']","['Clue', 'Monopoly']","[-0.15, 0.5]","[0.15, 0.5]",1,1,,,,,,,,,0,8,8,8,0,3,3,0,,,,,,,,,,,,,,,,,,,,,,,,,,,,,,,,,,,,,,,,,,,,,,,,,,,,,,,821.960526253999,None,821.960526253999,None,821.960526253999,None,c,1,2.077940631999809,823.4950243299991,None,823.4950243299991,None,823.4950243299991,None,825.628230328999,None,825.628230328999,None,825.628230328999,None,825.628230328999,None,,,,,,,,,,,,,,,,,,,,,,,,,,,,,,,,,,,,,,,,,,,,001,8,2020_Jan_28_1050,spring_faces,3.1.5,59.966837019825775,
condition files/Stage1_1.xlsx,,T4,B3,m,"['c', 'm']","['Clue', 'Monopoly']","[-0.15, 0.5]","[0.15, 0.5]",1,1,,,,,,,,,0,8,8,8,0,4,4,6,,,,,,,,,,,,,,,,,,,,,,,,,,,,,,,,,,,,,,,,,,,,,,,,,,,,,,,827.5938583139996,None,827.5938583139996,None,827.5938583139996,None,m,1,6.059331750999263,829.1295463869992,None,829.1295463869992,None,829.1295463869992,None,835.2456904459996,None,835.2456904459996,None,835.2456904459996,None,835.2456904459996,None,,,,,,,,,,,,,,,,,,,,,,,,,,,,,,,,,,,,,,,,,,,,001,8,2020_Jan_28_1050,spring_faces,3.1.5,59.966837019825775,
condition files/Stage1_1.xlsx,,B3,T3,c,"['c', 'm']","['Clue', 'Monopoly']","[-0.15, 0.5]","[0.15, 0.5]",1,1,,,,,,,,,0,8,8,8,0,5,5,4,,,,,,,,,,,,,,,,,,,,,,,,,,,,,,,,,,,,,,,,,,,,,,,,,,,,,,,837.2104837259994,None,837.2104837259994,None,837.2104837259994,None,c,1,3.7567698300008487,838.7442547720002,None,838.7442547720002,None,838.7442547720002,None,842.5608617749986,None,842.5608617749986,None,842.5608617749986,None,842.5608617749986,None,,,,,,,,,,,,,,,,,,,,,,,,,,,,,,,,,,,,,,,,,,,,001,8,2020_Jan_28_1050,spring_faces,3.1.5,59.966837019825775,
condition files/Stage1_1.xlsx,,B1,T2,c,"['c', 'm']","['Clue', 'Monopoly']","[-0.15, 0.5]","[0.15, 0.5]",1,1,,,,,,,,,0,8,8,8,0,6,6,1,,,,,,,,,,,,,,,,,,,,,,,,,,,,,,,,,,,,,,,,,,,,,,,,,,,,,,,844.5272063939992,None,844.5272063939992,None,844.5272063939992,None,c,1,3.0947898459999124,846.0621707659993,None,846.0621707659993,None,846.0621707659993,None,849.2108747080001,None,849.2108747080001,None,849.2108747080001,None,849.2108747080001,None,,,,,,,,,,,,,,,,,,,,,,,,,,,,,,,,,,,,,,,,,,,,001,8,2020_Jan_28_1050,spring_faces,3.1.5,59.966837019825775,
condition files/Stage1_1.xlsx,,T3,B4,c,"['c', 'm']","['Clue', 'Monopoly']","[-0.15, 0.5]","[0.15, 0.5]",1,1,,,,,,,,,0,8,8,8,0,7,7,5,,,,,,,,,,,,,,,,,,,,,,,,,,,,,,,,,,,,,,,,,,,,,,,,,,,,,,,851.177193223999,None,851.177193223999,None,851.177193223999,None,c,1,7.596726536999995,852.7122209729987,None,852.7122209729987,None,852.7122209729987,None,860.3606480919989,None,860.3606480919989,None,860.3606480919989,None,860.3606480919989,None,,,,,,,,,,,,,,,,,,,,,,,,,,,,,,,,,,,,,,,,,,,,001,8,2020_Jan_28_1050,spring_faces,3.1.5,59.966837019825775,
condition files/Stage1_2.xlsx,,T4,B4,m,"['c', 'm']","['Clue', 'Monopoly']","[-0.15, 0.5]","[0.15, 0.5]",1,1,,,,,,,,,0,9,9,9,0,0,0,7,,,,,,,,,,,,,,,,,,,,,,,,,,,,,,,,,,,,,,,,,,,,,,,,,,,,,,,862.3438036389998,None,862.3438036389998,None,862.3438036389998,None,m,1,4.7186265969994565,863.8943213589992,None,863.8943213589992,None,863.8943213589992,None,868.6934510749998,None,868.6934510749998,None,868.6934510749998,None,868.6934510749998,None,,,,,,,,,,,,,,,,,,,,,,,,,,,,,,,,,,,,,,,,,,,,001,8,2020_Jan_28_1050,spring_faces,3.1.5,59.966837019825775,
condition files/Stage1_2.xlsx,,B2,T2,m,"['c', 'm']","['Clue', 'Monopoly']","[-0.15, 0.5]","[0.15, 0.5]",1,1,,,,,,,,,0,9,9,9,0,1,1,3,,,,,,,,,,,,,,,,,,,,,,,,,,,,,,,,,,,,,,,,,,,,,,,,,,,,,,,870.6438317109987,None,870.6438317109987,None,870.6438317109987,None,m,1,1.0118164039995463,872.1770629929997,None,872.1770629929997,None,872.1770629929997,None,873.2438729749992,None,873.2438729749992,None,873.2438729749992,None,873.2438729749992,None,,,,,,,,,,,,,,,,,,,,,,,,,,,,,,,,,,,,,,,,,,,,001,8,2020_Jan_28_1050,spring_faces,3.1.5,59.966837019825775,
condition files/Stage1_2.xlsx,,B1,T1,c,"['c', 'm']","['Clue', 'Monopoly']","[-0.15, 0.5]","[0.15, 0.5]",1,1,,,,,,,,,0,9,9,9,0,2,2,0,,,,,,,,,,,,,,,,,,,,,,,,,,,,,,,,,,,,,,,,,,,,,,,,,,,,,,,875.2106203859985,None,875.2106203859985,None,875.2106203859985,None,c,1,2.8435909929994523,876.745328695999,None,876.745328695999,None,876.745328695999,None,879.6609620309991,None,879.6609620309991,None,879.6609620309991,None,879.6609620309991,None,,,,,,,,,,,,,,,,,,,,,,,,,,,,,,,,,,,,,,,,,,,,001,8,2020_Jan_28_1050,spring_faces,3.1.5,59.966837019825775,
condition files/Stage1_2.xlsx,,B4,T3,c,"['c', 'm']","['Clue', 'Monopoly']","[-0.15, 0.5]","[0.15, 0.5]",1,1,,,,,,,,,0,9,9,9,0,3,3,5,,,,,,,,,,,,,,,,,,,,,,,,,,,,,,,,,,,,,,,,,,,,,,,,,,,,,,,881.6105550609991,None,881.6105550609991,None,881.6105550609991,None,c,1,10.267161325000416,883.1457987119993,None,883.1457987119993,None,883.1457987119993,None,893.4774802979991,None,893.4774802979991,None,893.4774802979991,None,893.4774802979991,None,,,,,,,,,,,,,,,,,,,,,,,,,,,,,,,,,,,,,,,,,,,,001,8,2020_Jan_28_1050,spring_faces,3.1.5,59.966837019825775,
condition files/Stage1_2.xlsx,,T2,B1,c,"['c', 'm']","['Clue', 'Monopoly']","[-0.15, 0.5]","[0.15, 0.5]",1,1,,,,,,,,,0,9,9,9,0,4,4,1,,,,,,,,,,,,,,,,,,,,,,,,,,,,,,,,,,,,,,,,,,,,,,,,,,,,,,,895.443648032,None,895.443648032,None,895.443648032,None,c,1,5.939526180998655,896.993475031999,None,896.993475031999,None,896.993475031999,None,902.9938898069995,None,902.9938898069995,None,902.9938898069995,None,902.9938898069995,None,,,,,,,,,,,,,,,,,,,,,,,,,,,,,,,,,,,,,,,,,,,,001,8,2020_Jan_28_1050,spring_faces,3.1.5,59.966837019825775,
condition files/Stage1_2.xlsx,,T1,B2,m,"['c', 'm']","['Clue', 'Monopoly']","[-0.15, 0.5]","[0.15, 0.5]",1,1,,,,,,,,,0,9,9,9,0,5,5,2,,,,,,,,,,,,,,,,,,,,,,,,,,,,,,,,,,,,,,,,,,,,,,,,,,,,,,,904.9605324499989,None,904.9605324499989,None,904.9605324499989,None,m,1,2.917445205999684,906.4955069279986,None,906.4955069279986,None,906.4955069279986,None,909.4800427089995,None,909.4800427089995,None,909.4800427089995,None,909.4800427089995,None,,,,,,,,,,,,,,,,,,,,,,,,,,,,,,,,,,,,,,,,,,,,001,8,2020_Jan_28_1050,spring_faces,3.1.5,59.966837019825775,
condition files/Stage1_2.xlsx,,B3,T4,m,"['c', 'm']","['Clue', 'Monopoly']","[-0.15, 0.5]","[0.15, 0.5]",1,1,,,,,,,,,0,9,9,9,0,6,6,6,,,,,,,,,,,,,,,,,,,,,,,,,,,,,,,,,,,,,,,,,,,,,,,,,,,,,,,911.4441274250003,None,911.4441274250003,None,911.4441274250003,None,c,0,4.643804929999533,912.9771970919992,None,912.9771970919992,None,912.9771970919992,None,917.6767690659999,None,917.6767690659999,None,917.6767690659999,None,917.6767690659999,None,,,,,,,,,,,,,,,,,,,,,,,,,,,,,,,,,,,,,,,,,,,,001,8,2020_Jan_28_1050,spring_faces,3.1.5,59.966837019825775,
condition files/Stage1_2.xlsx,,T3,B3,c,"['c', 'm']","['Clue', 'Monopoly']","[-0.15, 0.5]","[0.15, 0.5]",1,1,,,,,,,,,0,9,9,9,0,7,7,4,,,,,,,,,,,,,,,,,,,,,,,,,,,,,,,,,,,,,,,,,,,,,,,,,,,,,,,919.6438656310002,None,919.6438656310002,None,919.6438656310002,None,m,0,1.4344680439990043,921.1784746659996,None,921.1784746659996,None,921.1784746659996,None,922.6775945519985,None,922.6775945519985,None,922.6775945519985,None,922.6775945519985,None,,,,,,,,,,,,,,,,,,,,,,,,,,,,,,,,,,,,,,,,,,,,001,8,2020_Jan_28_1050,spring_faces,3.1.5,59.966837019825775,
condition files/Stage1_1.xlsx,,B2,T1,m,"['c', 'm']","['Clue', 'Monopoly']","[-0.15, 0.5]","[0.15, 0.5]",1,1,,,,,,,,,0,10,10,10,0,0,0,2,,,,,,,,,,,,,,,,,,,,,,,,,,,,,,,,,,,,,,,,,,,,,,,,,,,,,,,924.6609741960001,None,924.6609741960001,None,924.6609741960001,None,m,1,2.994868198000404,926.1940194729996,None,926.1940194729996,None,926.1940194729996,None,929.2436295359985,None,929.2436295359985,None,929.2436295359985,None,929.2436295359985,None,,,,,,,,,,,,,,,,,,,,,,,,,,,,,,,,,,,,,,,,,,,,001,8,2020_Jan_28_1050,spring_faces,3.1.5,59.966837019825775,
condition files/Stage1_1.xlsx,,T4,B3,m,"['c', 'm']","['Clue', 'Monopoly']","[-0.15, 0.5]","[0.15, 0.5]",1,1,,,,,,,,,0,10,10,10,0,1,1,6,,,,,,,,,,,,,,,,,,,,,,,,,,,,,,,,,,,,,,,,,,,,,,,,,,,,,,,931.210447780999,None,931.210447780999,None,931.210447780999,None,c,0,3.6427902870000253,932.7461222269994,None,932.7461222269994,None,932.7461222269994,None,936.4439831740001,None,936.4439831740001,None,936.4439831740001,None,936.4439831740001,None,,,,,,,,,,,,,,,,,,,,,,,,,,,,,,,,,,,,,,,,,,,,001,8,2020_Jan_28_1050,spring_faces,3.1.5,59.966837019825775,
condition files/Stage1_1.xlsx,,B3,T3,c,"['c', 'm']","['Clue', 'Monopoly']","[-0.15, 0.5]","[0.15, 0.5]",1,1,,,,,,,,,0,10,10,10,0,2,2,4,,,,,,,,,,,,,,,,,,,,,,,,,,,,,,,,,,,,,,,,,,,,,,,,,,,,,,,938.4106012920001,None,938.4106012920001,None,938.4106012920001,None,m,0,3.3412053599986393,939.9438052149999,None,939.9438052149999,None,939.9438052149999,None,943.3443462659998,None,943.3443462659998,None,943.3443462659998,None,943.3443462659998,None,,,,,,,,,,,,,,,,,,,,,,,,,,,,,,,,,,,,,,,,,,,,001,8,2020_Jan_28_1050,spring_faces,3.1.5,59.966837019825775,
condition files/Stage1_1.xlsx,,B4,T4,m,"['c', 'm']","['Clue', 'Monopoly']","[-0.15, 0.5]","[0.15, 0.5]",1,1,,,,,,,,,0,10,10,10,0,3,3,7,,,,,,,,,,,,,,,,,,,,,,,,,,,,,,,,,,,,,,,,,,,,,,,,,,,,,,,945.3110920639992,None,945.3110920639992,None,945.3110920639992,None,c,0,4.521884654001042,946.843070642999,None,946.843070642999,None,946.843070642999,None,951.4445772969993,None,951.4445772969993,None,951.4445772969993,None,951.4445772969993,None,,,,,,,,,,,,,,,,,,,,,,,,,,,,,,,,,,,,,,,,,,,,001,8,2020_Jan_28_1050,spring_faces,3.1.5,59.966837019825775,
condition files/Stage1_1.xlsx,,B1,T2,c,"['c', 'm']","['Clue', 'Monopoly']","[-0.15, 0.5]","[0.15, 0.5]",1,1,,,,,,,,,0,10,10,10,0,4,4,1,,,,,,,,,,,,,,,,,,,,,,,,,,,,,,,,,,,,,,,,,,,,,,,,,,,,,,,953.3938572899988,None,953.3938572899988,None,953.3938572899988,None,c,1,1.5581508790000953,954.9268778099995,None,954.9268778099995,None,954.9268778099995,None,956.5602112309989,None,956.5602112309989,None,956.5602112309989,None,956.5602112309989,None,,,,,,,,,,,,,,,,,,,,,,,,,,,,,,,,,,,,,,,,,,,,001,8,2020_Jan_28_1050,spring_faces,3.1.5,59.966837019825775,
condition files/Stage1_1.xlsx,,T1,B1,c,"['c', 'm']","['Clue', 'Monopoly']","[-0.15, 0.5]","[0.15, 0.5]",1,1,,,,,,,,,0,10,10,10,0,5,5,0,,,,,,,,,,,,,,,,,,,,,,,,,,,,,,,,,,,,,,,,,,,,,,,,,,,,,,,958.5107790169986,None,958.5107790169986,None,958.5107790169986,None,c,1,2.0549654699989333,960.0460348149991,None,960.0460348149991,None,960.0460348149991,None,962.1604803149985,None,962.1604803149985,None,962.1604803149985,None,962.1604803149985,None,,,,,,,,,,,,,,,,,,,,,,,,,,,,,,,,,,,,,,,,,,,,001,8,2020_Jan_28_1050,spring_faces,3.1.5,59.966837019825775,
condition files/Stage1_1.xlsx,,T3,B4,c,"['c', 'm']","['Clue', 'Monopoly']","[-0.15, 0.5]","[0.15, 0.5]",1,1,,,,,,,,,0,10,10,10,0,6,6,5,,,,,,,,,,,,,,,,,,,,,,,,,,,,,,,,,,,,,,,,,,,,,,,,,,,,,,,964.1271913719993,None,964.1271913719993,None,964.1271913719993,None,c,1,9.064308003999031,965.6606424799993,None,965.6606424799993,None,965.6606424799993,None,974.7772112099992,None,974.7772112099992,None,974.7772112099992,None,974.7772112099992,None,,,,,,,,,,,,,,,,,,,,,,,,,,,,,,,,,,,,,,,,,,,,001,8,2020_Jan_28_1050,spring_faces,3.1.5,59.966837019825775,
condition files/Stage1_1.xlsx,,T2,B2,m,"['c', 'm']","['Clue', 'Monopoly']","[-0.15, 0.5]","[0.15, 0.5]",1,1,,,,,,,,,0,10,10,10,0,7,7,3,,,,,,,,,,,,,,,,,,,,,,,,,,,,,,,,,,,,,,,,,,,,,,,,,,,,,,,976.743832565,None,976.743832565,None,976.743832565,None,m,1,1.2301481399990735,978.278787633999,None,978.278787633999,None,978.278787633999,None,979.5619830899996,None,979.5619830899996,None,979.5619830899996,None,979.5619830899996,None,,,,,,,,,,,,,,,,,,,,,,,,,,,,,,,,,,,,,,,,,,,,001,8,2020_Jan_28_1050,spring_faces,3.1.5,59.966837019825775,
condition files/Stage1_2.xlsx,,B1,T1,c,"['c', 'm']","['Clue', 'Monopoly']","[-0.15, 0.5]","[0.15, 0.5]",1,1,,,,,,,,,0,11,11,11,0,0,0,0,,,,,,,,,,,,,,,,,,,,,,,,,,,,,,,,,,,,,,,,,,,,,,,,,,,,,,,981.543029032,None,981.543029032,None,981.543029032,None,c,1,4.798695019999286,983.078265488999,None,983.078265488999,None,983.078265488999,None,987.943962763,None,987.943962763,None,987.943962763,None,987.943962763,None,,,,,,,,,,,,,,,,,,,,,,,,,,,,,,,,,,,,,,,,,,,,001,8,2020_Jan_28_1050,spring_faces,3.1.5,59.966837019825775,
condition files/Stage1_2.xlsx,,T2,B1,c,"['c', 'm']","['Clue', 'Monopoly']","[-0.15, 0.5]","[0.15, 0.5]",1,1,,,,,,,,,0,11,11,11,0,1,1,1,,,,,,,,,,,,,,,,,,,,,,,,,,,,,,,,,,,,,,,,,,,,,,,,,,,,,,,989.8935614429993,None,989.8935614429993,None,989.8935614429993,None,c,1,3.0097562560004008,991.4271963369993,None,991.4271963369993,None,991.4271963369993,None,994.4933569739987,None,994.4933569739987,None,994.4933569739987,None,994.4933569739987,None,,,,,,,,,,,,,,,,,,,,,,,,,,,,,,,,,,,,,,,,,,,,001,8,2020_Jan_28_1050,spring_faces,3.1.5,59.966837019825775,
condition files/Stage1_2.xlsx,,T1,B2,m,"['c', 'm']","['Clue', 'Monopoly']","[-0.15, 0.5]","[0.15, 0.5]",1,1,,,,,,,,,0,11,11,11,0,2,2,2,,,,,,,,,,,,,,,,,,,,,,,,,,,,,,,,,,,,,,,,,,,,,,,,,,,,,,,996.4598312229991,None,996.4598312229991,None,996.4598312229991,None,m,1,1.642778741001166,997.9941741169987,None,997.9941741169987,None,997.9941741169987,None,999.6963531609999,None,999.6963531609999,None,999.6963531609999,None,999.6963531609999,None,,,,,,,,,,,,,,,,,,,,,,,,,,,,,,,,,,,,,,,,,,,,001,8,2020_Jan_28_1050,spring_faces,3.1.5,59.966837019825775,
condition files/Stage1_2.xlsx,,B4,T3,c,"['c', 'm']","['Clue', 'Monopoly']","[-0.15, 0.5]","[0.15, 0.5]",1,1,,,,,,,,,0,11,11,11,0,3,3,5,,,,,,,,,,,,,,,,,,,,,,,,,,,,,,,,,,,,,,,,,,,,,,,,,,,,,,,1001.6606952370003,None,1001.6606952370003,None,1001.6606952370003,None,m,0,7.35383713200099,1003.1951275829997,None,1003.1951275829997,None,1003.1951275829997,None,1010.6105332379993,None,1010.6105332379993,None,1010.6105332379993,None,1010.6105332379993,None,,,,,,,,,,,,,,,,,,,,,,,,,,,,,,,,,,,,,,,,,,,,001,8,2020_Jan_28_1050,spring_faces,3.1.5,59.966837019825775,
condition files/Stage1_2.xlsx,,B3,T4,m,"['c', 'm']","['Clue', 'Monopoly']","[-0.15, 0.5]","[0.15, 0.5]",1,1,,,,,,,,,0,11,11,11,0,4,4,6,,,,,,,,,,,,,,,,,,,,,,,,,,,,,,,,,,,,,,,,,,,,,,,,,,,,,,,1012.5770221219991,None,1012.5770221219991,None,1012.5770221219991,None,c,0,3.9428941769983794,1014.1101317829998,None,1014.1101317829998,None,1014.1101317829998,None,1018.1125973489998,None,1018.1125973489998,None,1018.1125973489998,None,1018.1125973489998,None,,,,,,,,,,,,,,,,,,,,,,,,,,,,,,,,,,,,,,,,,,,,001,8,2020_Jan_28_1050,spring_faces,3.1.5,59.966837019825775,
condition files/Stage1_2.xlsx,,B2,T2,m,"['c', 'm']","['Clue', 'Monopoly']","[-0.15, 0.5]","[0.15, 0.5]",1,1,,,,,,,,,0,11,11,11,0,5,5,3,,,,,,,,,,,,,,,,,,,,,,,,,,,,,,,,,,,,,,,,,,,,,,,,,,,,,,,1020.0771769709991,None,1020.0771769709991,None,1020.0771769709991,None,m,1,0.9222894629983784,1021.610674304,None,1021.610674304,None,1021.610674304,None,1022.594402875,None,1022.594402875,None,1022.594402875,None,1022.594402875,None,,,,,,,,,,,,,,,,,,,,,,,,,,,,,,,,,,,,,,,,,,,,001,8,2020_Jan_28_1050,spring_faces,3.1.5,59.966837019825775,
condition files/Stage1_2.xlsx,,T4,B4,m,"['c', 'm']","['Clue', 'Monopoly']","[-0.15, 0.5]","[0.15, 0.5]",1,1,,,,,,,,,0,11,11,11,0,6,6,7,,,,,,,,,,,,,,,,,,,,,,,,,,,,,,,,,,,,,,,,,,,,,,,,,,,,,,,1024.560542142999,None,1024.560542142999,None,1024.560542142999,None,m,1,3.078938171000118,1026.0939960029991,None,1026.0939960029991,None,1026.0939960029991,None,1029.2273322729998,None,1029.2273322729998,None,1029.2273322729998,None,1029.2273322729998,None,,,,,,,,,,,,,,,,,,,,,,,,,,,,,,,,,,,,,,,,,,,,001,8,2020_Jan_28_1050,spring_faces,3.1.5,59.966837019825775,
condition files/Stage1_2.xlsx,,T3,B3,c,"['c', 'm']","['Clue', 'Monopoly']","[-0.15, 0.5]","[0.15, 0.5]",1,1,,,,,,,,,0,11,11,11,0,7,7,4,,,,,,,,,,,,,,,,,,,,,,,,,,,,,,,,,,,,,,,,,,,,,,,,,,,,,,,1031.1939296709988,None,1031.1939296709988,None,1031.1939296709988,None,m,0,4.765808398000445,1032.727146624,None,1032.727146624,None,1032.727146624,None,1037.5441276799993,None,1037.5441276799993,None,1037.5441276799993,None,1037.5441276799993,None,,,,,,,,,,,,,,,,,,,,,,,,,,,,,,,,,,,,,,,,,,,,001,8,2020_Jan_28_1050,spring_faces,3.1.5,59.966837019825775,
,,,,,,,,,,,,,,,,,,,,,,,,,,,,,,,,,,,,,,,,,,,,,,,,,,,,,,,,,,,,,,,,,,,,,,,,,,,,,,,,,,,,,,,,,,,,,,,,,,,,,,,,,,,,,,,,1039.5273005,None,space,5.7017950839999685,1044.527129013999,None,,,,,,,,,,,,,,,,,,,,,,,,,,,,,,001,8,2020_Jan_28_1050,spring_faces,3.1.5,59.966837019825775,
condition files/Stage2_1.xlsx,,T5,B5,s,"['s', 'r']","['Stratego', 'Risk']","[-0.15, 0.5]","[0.15, 0.5]",1,1,,,,,,,,,,,,,,,,,0,0,0,0,0,0,0,0,,,,,,,,,,,,,,,,,,,,,,,,,,,,,,,,,,,,,,,,,,,,,,,1050.2938996089997,None,1050.2938996089997,None,1050.2938996089997,None,s,1,1.8416758189996472,1051.8273471060002,None,1051.8273471060002,None,1051.8273471060002,None,1053.726757602999,None,1053.726757602999,None,1053.726757602999,None,1053.726757602999,None,,,,,,,,,,,,,,,1044.527129013999,None,,,,,,,,,,,,,,,,,,,,,,,,,,,,001,8,2020_Jan_28_1050,spring_faces,3.1.5,59.966837019825775,
condition files/Stage2_1.xlsx,,B4,T4,r,"['s', 'r']","['Stratego', 'Risk']","[-0.15, 0.5]","[0.15, 0.5]",1,1,,,,,,,,,,,,,,,,,0,0,0,0,0,1,1,5,,,,,,,,,,,,,,,,,,,,,,,,,,,,,,,,,,,,,,,,,,,,,,,1055.6936917040002,None,1055.6936917040002,None,1055.6936917040002,None,r,1,1.6419970670012844,1057.227014479,None,1057.227014479,None,1057.227014479,None,1058.9275483129986,None,1058.9275483129986,None,1058.9275483129986,None,1058.9275483129986,None,,,,,,,,,,,,,,,,,,,,,,,,,,,,,,,,,,,,,,,,,,,,001,8,2020_Jan_28_1050,spring_faces,3.1.5,59.966837019825775,
condition files/Stage2_1.xlsx,,B6,T6,r,"['s', 'r']","['Stratego', 'Risk']","[-0.15, 0.5]","[0.15, 0.5]",1,1,,,,,,,,,,,,,,,,,0,0,0,0,0,2,2,1,,,,,,,,,,,,,,,,,,,,,,,,,,,,,,,,,,,,,,,,,,,,,,,1060.893777580999,None,1060.893777580999,None,1060.893777580999,None,s,0,2.5698967979988083,1062.4270578179985,None,1062.4270578179985,None,1062.4270578179985,None,1065.060358888999,None,1065.060358888999,None,1065.060358888999,None,1065.060358888999,None,,,,,,,,,,,,,,,,,,,,,,,,,,,,,,,,,,,,,,,,,,,,001,8,2020_Jan_28_1050,spring_faces,3.1.5,59.966837019825775,
condition files/Stage2_1.xlsx,,T3,B3,s,"['s', 'r']","['Stratego', 'Risk']","[-0.15, 0.5]","[0.15, 0.5]",1,1,,,,,,,,,,,,,,,,,0,0,0,0,0,3,3,4,,,,,,,,,,,,,,,,,,,,,,,,,,,,,,,,,,,,,,,,,,,,,,,1067.0270138239994,None,1067.0270138239994,None,1067.0270138239994,None,r,0,3.9885991139999533,1068.5603675579987,None,1068.5603675579987,None,1068.5603675579987,None,1072.6111691509996,None,1072.6111691509996,None,1072.6111691509996,None,1072.6111691509996,None,,,,,,,,,,,,,,,,,,,,,,,,,,,,,,,,,,,,,,,,,,,,001,8,2020_Jan_28_1050,spring_faces,3.1.5,59.966837019825775,
condition files/Stage2_1.xlsx,,T1,B1,s,"['s', 'r']","['Stratego', 'Risk']","[-0.15, 0.5]","[0.15, 0.5]",1,1,,,,,,,,,,,,,,,,,0,0,0,0,0,4,4,2,,,,,,,,,,,,,,,,,,,,,,,,,,,,,,,,,,,,,,,,,,,,,,,1074.5771920919997,None,1074.5771920919997,None,1074.5771920919997,None,r,0,2.454425458001424,1076.1105370899986,None,1076.1105370899986,None,1076.1105370899986,None,1078.6269660509988,None,1078.6269660509988,None,1078.6269660509988,None,1078.6269660509988,None,,,,,,,,,,,,,,,,,,,,,,,,,,,,,,,,,,,,,,,,,,,,001,8,2020_Jan_28_1050,spring_faces,3.1.5,59.966837019825775,
condition files/Stage2_1.xlsx,,B2,T2,r,"['s', 'r']","['Stratego', 'Risk']","[-0.15, 0.5]","[0.15, 0.5]",1,1,,,,,,,,,,,,,,,,,0,0,0,0,0,5,5,3,,,,,,,,,,,,,,,,,,,,,,,,,,,,,,,,,,,,,,,,,,,,,,,1080.593854839999,None,1080.593854839999,None,1080.593854839999,None,r,1,3.1572431290005625,1082.1277824970002,None,1082.1277824970002,None,1082.1277824970002,None,1085.3606815999992,None,1085.3606815999992,None,1085.3606815999992,None,1085.3606815999992,None,,,,,,,,,,,,,,,,,,,,,,,,,,,,,,,,,,,,,,,,,,,,001,8,2020_Jan_28_1050,spring_faces,3.1.5,59.966837019825775,
condition files/Stage2_2.xlsx,,T4,B4,r,"['s', 'r']","['Stratego', 'Risk']","[-0.15, 0.5]","[0.15, 0.5]",1,1,,,,,,,,,,,,,,,,,0,1,1,1,0,0,0,5,,,,,,,,,,,,,,,,,,,,,,,,,,,,,,,,,,,,,,,,,,,,,,,1087.327032846999,None,1087.327032846999,None,1087.327032846999,None,r,1,2.5205704899999546,1088.8603864259985,None,1088.8603864259985,None,1088.8603864259985,None,1091.4440787509993,None,1091.4440787509993,None,1091.4440787509993,None,1091.4440787509993,None,,,,,,,,,,,,,,,,,,,,,,,,,,,,,,,,,,,,,,,,,,,,001,8,2020_Jan_28_1050,spring_faces,3.1.5,59.966837019825775,
condition files/Stage2_2.xlsx,,B5,T5,s,"['s', 'r']","['Stratego', 'Risk']","[-0.15, 0.5]","[0.15, 0.5]",1,1,,,,,,,,,,,,,,,,,0,1,1,1,0,1,1,0,,,,,,,,,,,,,,,,,,,,,,,,,,,,,,,,,,,,,,,,,,,,,,,1093.410460011999,None,1093.410460011999,None,1093.410460011999,None,s,1,4.917007722000562,1094.9438838999995,None,1094.9438838999995,None,1094.9438838999995,None,1099.928974634,None,1099.928974634,None,1099.928974634,None,1099.928974634,None,,,,,,,,,,,,,,,,,,,,,,,,,,,,,,,,,,,,,,,,,,,,001,8,2020_Jan_28_1050,spring_faces,3.1.5,59.966837019825775,
condition files/Stage2_2.xlsx,,T2,B2,r,"['s', 'r']","['Stratego', 'Risk']","[-0.15, 0.5]","[0.15, 0.5]",1,1,,,,,,,,,,,,,,,,,0,1,1,1,0,2,2,3,,,,,,,,,,,,,,,,,,,,,,,,,,,,,,,,,,,,,,,,,,,,,,,1101.8934791009997,None,1101.8934791009997,None,1101.8934791009997,None,r,1,3.5367634649992397,1103.4282043919993,None,1103.4282043919993,None,1103.4282043919993,None,1107.0439874879994,None,1107.0439874879994,None,1107.0439874879994,None,1107.0439874879994,None,,,,,,,,,,,,,,,,,,,,,,,,,,,,,,,,,,,,,,,,,,,,001,8,2020_Jan_28_1050,spring_faces,3.1.5,59.966837019825775,
condition files/Stage2_2.xlsx,,B3,T3,s,"['s', 'r']","['Stratego', 'Risk']","[-0.15, 0.5]","[0.15, 0.5]",1,1,,,,,,,,,,,,,,,,,0,1,1,1,0,3,3,4,,,,,,,,,,,,,,,,,,,,,,,,,,,,,,,,,,,,,,,,,,,,,,,1108.9938061699995,None,1108.9938061699995,None,1108.9938061699995,None,r,0,2.2943176919998223,1110.5267222459988,None,1110.5267222459988,None,1110.5267222459988,None,1112.8774084460001,None,1112.8774084460001,None,1112.8774084460001,None,1112.8774084460001,None,,,,,,,,,,,,,,,,,,,,,,,,,,,,,,,,,,,,,,,,,,,,001,8,2020_Jan_28_1050,spring_faces,3.1.5,59.966837019825775,
condition files/Stage2_2.xlsx,,B1,T1,s,"['s', 'r']","['Stratego', 'Risk']","[-0.15, 0.5]","[0.15, 0.5]",1,1,,,,,,,,,,,,,,,,,0,1,1,1,0,4,4,2,,,,,,,,,,,,,,,,,,,,,,,,,,,,,,,,,,,,,,,,,,,,,,,1114.8438754419985,None,1114.8438754419985,None,1114.8438754419985,None,r,0,2.316003023999656,1116.3769322909993,None,1116.3769322909993,None,1116.3769322909993,None,1118.7436718579993,None,1118.7436718579993,None,1118.7436718579993,None,1118.7436718579993,None,,,,,,,,,,,,,,,,,,,,,,,,,,,,,,,,,,,,,,,,,,,,001,8,2020_Jan_28_1050,spring_faces,3.1.5,59.966837019825775,
condition files/Stage2_2.xlsx,,T6,B6,r,"['s', 'r']","['Stratego', 'Risk']","[-0.15, 0.5]","[0.15, 0.5]",1,1,,,,,,,,,,,,,,,,,0,1,1,1,0,5,5,1,,,,,,,,,,,,,,,,,,,,,,,,,,,,,,,,,,,,,,,,,,,,,,,1120.7105586090001,None,1120.7105586090001,None,1120.7105586090001,None,s,0,5.025533338999594,1122.2434901139986,None,1122.2434901139986,None,1122.2434901139986,None,1127.3282821389985,None,1127.3282821389985,None,1127.3282821389985,None,1127.3282821389985,None,,,,,,,,,,,,,,,,,,,,,,,,,,,,,,,,,,,,,,,,,,,,001,8,2020_Jan_28_1050,spring_faces,3.1.5,59.966837019825775,
condition files/Stage2_1.xlsx,,T1,B1,s,"['s', 'r']","['Stratego', 'Risk']","[-0.15, 0.5]","[0.15, 0.5]",1,1,,,,,,,,,,,,,,,,,0,2,2,2,0,0,0,2,,,,,,,,,,,,,,,,,,,,,,,,,,,,,,,,,,,,,,,,,,,,,,,1129.3109791899988,None,1129.3109791899988,None,1129.3109791899988,None,s,1,9.543757780000306,1130.8451621819986,None,1130.8451621819986,None,1130.8451621819986,None,1140.4462072609986,None,1140.4462072609986,None,1140.4462072609986,None,1140.4462072609986,None,,,,,,,,,,,,,,,,,,,,,,,,,,,,,,,,,,,,,,,,,,,,001,8,2020_Jan_28_1050,spring_faces,3.1.5,59.966837019825775,
condition files/Stage2_1.xlsx,,B6,T6,r,"['s', 'r']","['Stratego', 'Risk']","[-0.15, 0.5]","[0.15, 0.5]",1,1,,,,,,,,,,,,,,,,,0,2,2,2,0,1,1,1,,,,,,,,,,,,,,,,,,,,,,,,,,,,,,,,,,,,,,,,,,,,,,,1142.4099789880001,None,1142.4099789880001,None,1142.4099789880001,None,r,1,1.6444010230006825,1143.944496185999,None,1143.944496185999,None,1143.944496185999,None,1145.646468388999,None,1145.646468388999,None,1145.646468388999,None,1145.646468388999,None,,,,,,,,,,,,,,,,,,,,,,,,,,,,,,,,,,,,,,,,,,,,001,8,2020_Jan_28_1050,spring_faces,3.1.5,59.966837019825775,
condition files/Stage2_1.xlsx,,T5,B5,s,"['s', 'r']","['Stratego', 'Risk']","[-0.15, 0.5]","[0.15, 0.5]",1,1,,,,,,,,,,,,,,,,,0,2,2,2,0,2,2,0,,,,,,,,,,,,,,,,,,,,,,,,,,,,,,,,,,,,,,,,,,,,,,,1147.6105624989996,None,1147.6105624989996,None,1147.6105624989996,None,s,1,1.0036129649997747,1149.1453642029992,None,1149.1453642029992,None,1149.1453642029992,None,1150.2118677709987,None,1150.2118677709987,None,1150.2118677709987,None,1150.2118677709987,None,,,,,,,,,,,,,,,,,,,,,,,,,,,,,,,,,,,,,,,,,,,,001,8,2020_Jan_28_1050,spring_faces,3.1.5,59.966837019825775,
condition files/Stage2_1.xlsx,,B2,T2,r,"['s', 'r']","['Stratego', 'Risk']","[-0.15, 0.5]","[0.15, 0.5]",1,1,,,,,,,,,,,,,,,,,0,2,2,2,0,3,3,3,,,,,,,,,,,,,,,,,,,,,,,,,,,,,,,,,,,,,,,,,,,,,,,1152.1770564529998,None,1152.1770564529998,None,1152.1770564529998,None,r,1,2.0068604169991886,1153.7101747790002,None,1153.7101747790002,None,1153.7101747790002,None,1155.7769774339995,None,1155.7769774339995,None,1155.7769774339995,None,1155.7769774339995,None,,,,,,,,,,,,,,,,,,,,,,,,,,,,,,,,,,,,,,,,,,,,001,8,2020_Jan_28_1050,spring_faces,3.1.5,59.966837019825775,
condition files/Stage2_1.xlsx,,B4,T4,r,"['s', 'r']","['Stratego', 'Risk']","[-0.15, 0.5]","[0.15, 0.5]",1,1,,,,,,,,,,,,,,,,,0,2,2,2,0,4,4,5,,,,,,,,,,,,,,,,,,,,,,,,,,,,,,,,,,,,,,,,,,,,,,,1157.743857178999,None,1157.743857178999,None,1157.743857178999,None,r,1,6.007964710001033,1159.2770714379985,None,1159.2770714379985,None,1159.2770714379985,None,1165.344106147999,None,1165.344106147999,None,1165.344106147999,None,1165.344106147999,None,,,,,,,,,,,,,,,,,,,,,,,,,,,,,,,,,,,,,,,,,,,,001,8,2020_Jan_28_1050,spring_faces,3.1.5,59.966837019825775,
condition files/Stage2_1.xlsx,,T3,B3,s,"['s', 'r']","['Stratego', 'Risk']","[-0.15, 0.5]","[0.15, 0.5]",1,1,,,,,,,,,,,,,,,,,0,2,2,2,0,5,5,4,,,,,,,,,,,,,,,,,,,,,,,,,,,,,,,,,,,,,,,,,,,,,,,1167.3103872430002,None,1167.3103872430002,None,1167.3103872430002,None,s,1,3.3690129410006193,1168.8439480729994,None,1168.8439480729994,None,1168.8439480729994,None,1172.2800718549988,None,1172.2800718549988,None,1172.2800718549988,None,1172.2800718549988,None,,,,,,,,,,,,,,,,,,,,,,,,,,,,,,,,,,,,,,,,,,,,001,8,2020_Jan_28_1050,spring_faces,3.1.5,59.966837019825775,
condition files/Stage2_2.xlsx,,B3,T3,s,"['s', 'r']","['Stratego', 'Risk']","[-0.15, 0.5]","[0.15, 0.5]",1,1,,,,,,,,,,,,,,,,,0,3,3,3,0,0,0,4,,,,,,,,,,,,,,,,,,,,,,,,,,,,,,,,,,,,,,,,,,,,,,,1174.2609185860001,None,1174.2609185860001,None,1174.2609185860001,None,s,1,1.1867516590009473,1175.794213359999,None,1175.794213359999,None,1175.794213359999,None,1177.0440420289997,None,1177.0440420289997,None,1177.0440420289997,None,1177.0440420289997,None,,,,,,,,,,,,,,,,,,,,,,,,,,,,,,,,,,,,,,,,,,,,001,8,2020_Jan_28_1050,spring_faces,3.1.5,59.966837019825775,
condition files/Stage2_2.xlsx,,B5,T5,s,"['s', 'r']","['Stratego', 'Risk']","[-0.15, 0.5]","[0.15, 0.5]",1,1,,,,,,,,,,,,,,,,,0,3,3,3,0,1,1,0,,,,,,,,,,,,,,,,,,,,,,,,,,,,,,,,,,,,,,,,,,,,,,,1179.0105457209993,None,1179.0105457209993,None,1179.0105457209993,None,s,1,2.564385752999442,1180.5605523649992,None,1180.5605523649992,None,1180.5605523649992,None,1183.176969827,None,1183.176969827,None,1183.176969827,None,1183.176969827,None,,,,,,,,,,,,,,,,,,,,,,,,,,,,,,,,,,,,,,,,,,,,001,8,2020_Jan_28_1050,spring_faces,3.1.5,59.966837019825775,
condition files/Stage2_2.xlsx,,B1,T1,s,"['s', 'r']","['Stratego', 'Risk']","[-0.15, 0.5]","[0.15, 0.5]",1,1,,,,,,,,,,,,,,,,,0,3,3,3,0,2,2,2,,,,,,,,,,,,,,,,,,,,,,,,,,,,,,,,,,,,,,,,,,,,,,,1185.1439901209997,None,1185.1439901209997,None,1185.1439901209997,None,s,1,3.7586517429990636,1186.6783262199988,None,1186.6783262199988,None,1186.6783262199988,None,1190.493666884,None,1190.493666884,None,1190.493666884,None,1190.493666884,None,,,,,,,,,,,,,,,,,,,,,,,,,,,,,,,,,,,,,,,,,,,,001,8,2020_Jan_28_1050,spring_faces,3.1.5,59.966837019825775,
condition files/Stage2_2.xlsx,,T2,B2,r,"['s', 'r']","['Stratego', 'Risk']","[-0.15, 0.5]","[0.15, 0.5]",1,1,,,,,,,,,,,,,,,,,0,3,3,3,0,3,3,3,,,,,,,,,,,,,,,,,,,,,,,,,,,,,,,,,,,,,,,,,,,,,,,1192.4598264479991,None,1192.4598264479991,None,1192.4598264479991,None,r,1,2.0263446020017,1193.9946914269985,None,1193.9946914269985,None,1193.9946914269985,None,1196.0783734059987,None,1196.0783734059987,None,1196.0783734059987,None,1196.0783734059987,None,,,,,,,,,,,,,,,,,,,,,,,,,,,,,,,,,,,,,,,,,,,,001,8,2020_Jan_28_1050,spring_faces,3.1.5,59.966837019825775,
condition files/Stage2_2.xlsx,,T6,B6,r,"['s', 'r']","['Stratego', 'Risk']","[-0.15, 0.5]","[0.15, 0.5]",1,1,,,,,,,,,,,,,,,,,0,3,3,3,0,4,4,1,,,,,,,,,,,,,,,,,,,,,,,,,,,,,,,,,,,,,,,,,,,,,,,1198.0440245649988,None,1198.0440245649988,None,1198.0440245649988,None,r,1,1.27550640499976,1199.577509966999,None,1199.577509966999,None,1199.577509966999,None,1200.9106829849989,None,1200.9106829849989,None,1200.9106829849989,None,1200.9106829849989,None,,,,,,,,,,,,,,,,,,,,,,,,,,,,,,,,,,,,,,,,,,,,001,8,2020_Jan_28_1050,spring_faces,3.1.5,59.966837019825775,
condition files/Stage2_2.xlsx,,T4,B4,r,"['s', 'r']","['Stratego', 'Risk']","[-0.15, 0.5]","[0.15, 0.5]",1,1,,,,,,,,,,,,,,,,,0,3,3,3,0,5,5,5,,,,,,,,,,,,,,,,,,,,,,,,,,,,,,,,,,,,,,,,,,,,,,,1202.8776472779991,None,1202.8776472779991,None,1202.8776472779991,None,r,1,1.7386511709992192,1204.4103180009988,None,1204.4103180009988,None,1204.4103180009988,None,1206.2112222019987,None,1206.2112222019987,None,1206.2112222019987,None,1206.2112222019987,None,,,,,,,,,,,,,,,,,,,,,,,,,,,,,,,,,,,,,,,,,,,,001,8,2020_Jan_28_1050,spring_faces,3.1.5,59.966837019825775,
condition files/Stage2_1.xlsx,,T1,B1,s,"['s', 'r']","['Stratego', 'Risk']","[-0.15, 0.5]","[0.15, 0.5]",1,1,,,,,,,,,,,,,,,,,0,4,4,4,0,0,0,2,,,,,,,,,,,,,,,,,,,,,,,,,,,,,,,,,,,,,,,,,,,,,,,1208.1936975179997,None,1208.1936975179997,None,1208.1936975179997,None,s,1,2.502047683001365,1209.7268964729992,None,1209.7268964729992,None,1209.7268964729992,None,1212.2965065829994,None,1212.2965065829994,None,1212.2965065829994,None,1212.2965065829994,None,,,,,,,,,,,,,,,,,,,,,,,,,,,,,,,,,,,,,,,,,,,,001,8,2020_Jan_28_1050,spring_faces,3.1.5,59.966837019825775,
condition files/Stage2_1.xlsx,,T5,B5,s,"['s', 'r']","['Stratego', 'Risk']","[-0.15, 0.5]","[0.15, 0.5]",1,1,,,,,,,,,,,,,,,,,0,4,4,4,0,1,1,0,,,,,,,,,,,,,,,,,,,,,,,,,,,,,,,,,,,,,,,,,,,,,,,1214.2604294439989,None,1214.2604294439989,None,1214.2604294439989,None,s,1,1.4568301159997645,1215.7962011359996,None,1215.7962011359996,None,1215.7962011359996,None,1217.3100400499989,None,1217.3100400499989,None,1217.3100400499989,None,1217.3100400499989,None,,,,,,,,,,,,,,,,,,,,,,,,,,,,,,,,,,,,,,,,,,,,001,8,2020_Jan_28_1050,spring_faces,3.1.5,59.966837019825775,
condition files/Stage2_1.xlsx,,B6,T6,r,"['s', 'r']","['Stratego', 'Risk']","[-0.15, 0.5]","[0.15, 0.5]",1,1,,,,,,,,,,,,,,,,,0,4,4,4,0,2,2,1,,,,,,,,,,,,,,,,,,,,,,,,,,,,,,,,,,,,,,,,,,,,,,,1219.2772811229988,None,1219.2772811229988,None,1219.2772811229988,None,r,1,1.5297453599996516,1220.8112106689987,None,1220.8112106689987,None,1220.8112106689987,None,1222.3961545429993,None,1222.3961545429993,None,1222.3961545429993,None,1222.3961545429993,None,,,,,,,,,,,,,,,,,,,,,,,,,,,,,,,,,,,,,,,,,,,,001,8,2020_Jan_28_1050,spring_faces,3.1.5,59.966837019825775,
condition files/Stage2_1.xlsx,,T3,B3,s,"['s', 'r']","['Stratego', 'Risk']","[-0.15, 0.5]","[0.15, 0.5]",1,1,,,,,,,,,,,,,,,,,0,4,4,4,0,3,3,4,,,,,,,,,,,,,,,,,,,,,,,,,,,,,,,,,,,,,,,,,,,,,,,1224.3605381739999,None,1224.3605381739999,None,1224.3605381739999,None,s,1,1.51752092300012,1225.8954214739988,None,1225.8954214739988,None,1225.8954214739988,None,1227.4775471739995,None,1227.4775471739995,None,1227.4775471739995,None,1227.4775471739995,None,,,,,,,,,,,,,,,,,,,,,,,,,,,,,,,,,,,,,,,,,,,,001,8,2020_Jan_28_1050,spring_faces,3.1.5,59.966837019825775,
