condsFile,subStage,cue1,cue2,correct,responseKeys,responseNames,cue1Position,cue2Position,cue1Opacity,cue2Opacity,stageLoop0.thisRepN,stageLoop0.thisTrialN,stageLoop0.thisN,stageLoop0.thisIndex,blockLoop0.thisRepN,blockLoop0.thisTrialN,blockLoop0.thisN,blockLoop0.thisIndex,stage1Loop.thisRepN,stage1Loop.thisTrialN,stage1Loop.thisN,stage1Loop.thisIndex,blockLoop1.thisRepN,blockLoop1.thisTrialN,blockLoop1.thisN,blockLoop1.thisIndex,stage2Loop.thisRepN,stage2Loop.thisTrialN,stage2Loop.thisN,stage2Loop.thisIndex,blockLoop2.thisRepN,blockLoop2.thisTrialN,blockLoop2.thisN,blockLoop2.thisIndex,testLoop.thisRepN,testLoop.thisTrialN,testLoop.thisN,testLoop.thisIndex,blockLoopTest.thisRepN,blockLoopTest.thisTrialN,blockLoopTest.thisN,blockLoopTest.thisIndex,cuePics,id_instr_text.started,id_instr_text.stopped,space_to_continue_2.started,space_to_continue_2.stopped,end_instructions_resp_3.keys,end_instructions_resp_3.rt,end_instructions_resp_3.started,end_instructions_resp_3.stopped,id_input_instr.started,id_input_instr.stopped,id_input_rect.started,id_input_rect.stopped,id_input_resp.keys,id_input_resp.rt,id_input_resp.started,id_input_resp.stopped,sonaID,id_input_text.started,id_input_text.stopped,final_text.started,final_text.stopped,instructions.started,instructions.stopped,end_instructions_resp.keys,end_instructions_resp.rt,end_instructions_resp.started,end_instructions_resp.stopped,space_to_continue.started,space_to_continue.stopped,instructions_stage0.started,instructions_stage0.stopped,end_instructions_resp_stage0.keys,end_instructions_resp_stage0.rt,end_instructions_resp_stage0.started,end_instructions_resp_stage0.stopped,space_to_continue_stage0.started,space_to_continue_stage0.stopped,text.started,text.stopped,resp_text1.started,resp_text1.stopped,resp_text2.started,resp_text2.stopped,trial_resp.keys,trial_resp.corr,trial_resp.rt,trial_resp.started,trial_resp.stopped,cue1Image.started,cue1Image.stopped,cue2Image.started,cue2Image.stopped,cue1Image_fb.started,cue1Image_fb.stopped,cue2Image_fb.started,cue2Image_fb.stopped,fb_text_answer.started,fb_text_answer.stopped,feedback_image.started,feedback_image.stopped,instructions_stage1.started,instructions_stage1.stopped,end_instructions_resp_stage1.keys,end_instructions_resp_stage1.rt,end_instructions_resp_stage1.started,end_instructions_resp_stage1.stopped,space_to_continue_stage1.started,space_to_continue_stage1.stopped,instructions_2.started,instructions_2.stopped,end_instructions_resp_2.keys,end_instructions_resp_2.rt,end_instructions_resp_2.started,end_instructions_resp_2.stopped,press_space_to_continue_stage2.started,press_space_to_continue_stage2.stopped,instructions_testStage1.started,instructions_testStage1.stopped,end_instructions_resp_test1.keys,end_instructions_resp_test1.rt,end_instructions_resp_test1.started,end_instructions_resp_test1.stopped,press_space_to_continue_test1.started,press_space_to_continue_test1.stopped,cue1Image_testChoice.started,cue1Image_testChoice.stopped,cue2Image_testChoice.started,cue2Image_testChoice.stopped,test_resp.keys,test_resp.corr,test_resp.rt,test_resp.started,test_resp.stopped,cue1Image_testConf.started,cue1Image_testConf.stopped,cue2Image_testConf.started,cue2Image_testConf.stopped,conf_reminder.started,conf_reminder.stopped,conf_rating.response,conf_rating.rt,conf_rating.started,conf_rating.stopped,session,participant,date,expName,psychopyVersion,frameRate,
,,,,,,,,,,,,,,,,,,,,,,,,,,,,,,,,,,,,,,,,,,,"{'none': 'pictures/20M_AN_C.png', 'alpha': 'pictures/SHINEd_apple.png', 'beta': 'pictures/SHINEd_pepper.png', 'theta': 'pictures/SHINEd_melon.png', 'phi': 'pictures/SHINEd_pear.png', 'T1': 'pictures/26M_AN_C.png', 'T2': 'pictures/20M_AN_C.png', 'T3': 'pictures/23M_AN_C.png', 'T4': 'pictures/33M_AN_C.png', 'T5': 'pictures/32M_AN_C.png', 'T6': 'pictures/22M_AN_C.png', 'B1': 'pictures/37M_NE_C.png', 'B2': 'pictures/31M_NE_C.png', 'B3': 'pictures/38M_NE_C.png', 'B4': 'pictures/25M_NE_C.png', 'B5': 'pictures/34M_NE_C.png', 'B6': 'pictures/36M_NE_C.png'}",8.60081140499824,None,13.583700986997428,None,space,27.2215516369979,13.583700986997428,None,,,,,,,,,,,,,,,,,,,,,,,,,,,,,,,,,,,,,,,,,,,,,,,,,,,,,,,,,,,,,,,,,,,,,,,,,,,,,,,,,,,,,,,,,,,,,,,,001,90,2020_Feb_06_1320,spring_faces,3.1.5,60.162347976536445,
,,,,,,,,,,,,,,,,,,,,,,,,,,,,,,,,,,,,,,,,,,,,,,,,,,,,41.20039497199832,None,41.20039497199832,None,"['w', 'backspace', '0', '1', 'backspace', '2', '2', '2', 'r', 'e', 'h', 'i', 'm', 'backspace', '0', '2', '2', '2', 'r', 'e', 'b', 'h', 'o', 'm', 'backspace', '0', '2', '2', '2', 'r', 'e', 'h', 'o', 'm']","[30.29280570699848, 31.20484440099972, 36.340839580996544, 37.10889159299768, 37.82883012399907, 37.9887575549983, 41.668831232997036, 41.87690329899851, 44.484812647999206, 44.628841138997814, 47.092789734997496, 47.188857498997095, 47.348828616999526, 48.70889188899673, 54.24482780799735, 54.56483853299869, 54.93283823499951, 55.20485703099985, 56.50082300599752, 56.88477960199816, 57.28478227499727, 57.89280572899952, 58.37284869599898, 58.72490357199786, 64.40485146899664, 65.9087592979995, 66.24475520699707, 67.02881686399996, 67.3968473299974, 68.13283693999983, 68.4687908349988, 69.12490124999749, 69.65282512999693, 70.03683450899916]",41.20039497199832,None,,,,,,,,,,,,,,,,,,,,,,,,,,,,,,,,,,,,,,,,,,,,,,,,,,,,,,,,,,,,,,,,,,,,,,,,,,,,,,,,,,,,,,,,001,90,2020_Feb_06_1320,spring_faces,3.1.5,60.162347976536445,
,,,,,,,,,,,,,,,,,,,,,,,,,,,,,,,,,,,,,,,,,,,,,,,,,,,,,,,,,,,,0222rehom,41.20039497199832,None,41.20039497199832,None,116.31719398899804,None,space,3.792074061002495,121.31723187899843,None,,,,,,,,,,,,,,,,,,,,,,,,,,,,,,,,,,,,,,,,,,,,,,,,,,,,,,,,,,,,,,,,,,,,,,,,,,,,,001,90,2020_Feb_06_1320,spring_faces,3.1.5,60.162347976536445,
,,,,,,,,,,,,,,,,,,,,,,,,,,,,,,,,,,,,,,,,,,,,,,,,,,,,,,,,,,,,,,,,,,,,,,,121.31723187899843,None,125.15058163999856,None,space,0.8311962679981661,130.1500537039974,None,,,,,,,,,,,,,,,,,,,,,,,,,,,,,,,,,,,,,,,,,,,,,,,,,,,,,,,,,,,,,,,,,,,,,001,90,2020_Feb_06_1320,spring_faces,3.1.5,60.162347976536445,
condition files/Stage0a.xlsx,0a,alpha,none,h,"['h', 'g']","['Chess', 'Go']","[0, 0.5]","[0, 0]",1,0,0,0,0,0,0,0,0,0,,,,,,,,,,,,,,,,,,,,,,,,,,,,,,,,,,,,,,,,,,,,,,,,,,,,,,,,,,,,,130.1500537039974,None,131.03395072000058,None,131.03395072000058,None,131.03395072000058,None,h,1,4.268105928997102,132.61711255499904,None,132.61711255499904,None,132.61711255499904,None,136.96691267799906,None,136.96691267799906,None,136.96691267799906,None,136.96691267799906,None,,,,,,,,,,,,,,,,,,,,,,,,,,,,,,,,,,,,,,,,,,,,001,90,2020_Feb_06_1320,spring_faces,3.1.5,60.162347976536445,
condition files/Stage0a.xlsx,0a,beta,none,g,"['h', 'g']","['Chess', 'Go']","[0, 0.5]","[0, 0]",1,0,0,0,0,0,0,1,1,1,,,,,,,,,,,,,,,,,,,,,,,,,,,,,,,,,,,,,,,,,,,,,,,,,,,,,,,,,,,,,,,138.9169783590005,None,138.9169783590005,None,138.9169783590005,None,g,1,1.2500881050000316,140.4671392429991,None,140.4671392429991,None,140.4671392429991,None,141.7680819870002,None,141.7680819870002,None,141.7680819870002,None,141.7680819870002,None,,,,,,,,,,,,,,,,,,,,,,,,,,,,,,,,,,,,,,,,,,,,001,90,2020_Feb_06_1320,spring_faces,3.1.5,60.162347976536445,
condition files/Stage0a.xlsx,0a,alpha,none,h,"['h', 'g']","['Chess', 'Go']","[0, 0.5]","[0, 0]",1,0,0,1,1,1,0,0,0,0,,,,,,,,,,,,,,,,,,,,,,,,,,,,,,,,,,,,,,,,,,,,,,,,,,,,,,,,,,,,,,,143.75071031100015,None,143.75071031100015,None,143.75071031100015,None,h,1,0.9452946509991307,145.28391987799841,None,145.28391987799841,None,145.28391987799841,None,146.28323959499903,None,146.28323959499903,None,146.28323959499903,None,146.28323959499903,None,,,,,,,,,,,,,,,,,,,,,,,,,,,,,,,,,,,,,,,,,,,,001,90,2020_Feb_06_1320,spring_faces,3.1.5,60.162347976536445,
condition files/Stage0a.xlsx,0a,beta,none,g,"['h', 'g']","['Chess', 'Go']","[0, 0.5]","[0, 0]",1,0,0,1,1,1,0,1,1,1,,,,,,,,,,,,,,,,,,,,,,,,,,,,,,,,,,,,,,,,,,,,,,,,,,,,,,,,,,,,,,,148.25023635400066,None,148.25023635400066,None,148.25023635400066,None,g,1,0.7978506210019987,149.78337664199717,None,149.78337664199717,None,149.78337664199717,None,150.63299868099784,None,150.63299868099784,None,150.63299868099784,None,150.63299868099784,None,,,,,,,,,,,,,,,,,,,,,,,,,,,,,,,,,,,,,,,,,,,,001,90,2020_Feb_06_1320,spring_faces,3.1.5,60.162347976536445,
condition files/Stage0a.xlsx,0a,beta,none,g,"['h', 'g']","['Chess', 'Go']","[0, 0.5]","[0, 0]",1,0,0,2,2,2,0,0,0,1,,,,,,,,,,,,,,,,,,,,,,,,,,,,,,,,,,,,,,,,,,,,,,,,,,,,,,,,,,,,,,,152.6167698169993,None,152.6167698169993,None,152.6167698169993,None,g,1,0.9910942739988968,154.1502110179972,None,154.1502110179972,None,154.1502110179972,None,155.20058638999762,None,155.20058638999762,None,155.20058638999762,None,155.20058638999762,None,,,,,,,,,,,,,,,,,,,,,,,,,,,,,,,,,,,,,,,,,,,,001,90,2020_Feb_06_1320,spring_faces,3.1.5,60.162347976536445,
condition files/Stage0a.xlsx,0a,alpha,none,h,"['h', 'g']","['Chess', 'Go']","[0, 0.5]","[0, 0]",1,0,0,2,2,2,0,1,1,0,,,,,,,,,,,,,,,,,,,,,,,,,,,,,,,,,,,,,,,,,,,,,,,,,,,,,,,,,,,,,,,157.16682787299942,None,157.16682787299942,None,157.16682787299942,None,h,1,0.8087799449967861,158.70051604099717,None,158.70051604099717,None,158.70051604099717,None,159.56662242299717,None,159.56662242299717,None,159.56662242299717,None,159.56662242299717,None,,,,,,,,,,,,,,,,,,,,,,,,,,,,,,,,,,,,,,,,,,,,001,90,2020_Feb_06_1320,spring_faces,3.1.5,60.162347976536445,
condition files/Stage0a.xlsx,0a,beta,none,g,"['h', 'g']","['Chess', 'Go']","[0, 0.5]","[0, 0]",1,0,0,3,3,3,0,0,0,1,,,,,,,,,,,,,,,,,,,,,,,,,,,,,,,,,,,,,,,,,,,,,,,,,,,,,,,,,,,,,,,161.55006424999738,None,161.55006424999738,None,161.55006424999738,None,g,1,0.5704398939997191,163.08282454299842,None,163.08282454299842,None,163.08282454299842,None,163.71687178299908,None,163.71687178299908,None,163.71687178299908,None,163.71687178299908,None,,,,,,,,,,,,,,,,,,,,,,,,,,,,,,,,,,,,,,,,,,,,001,90,2020_Feb_06_1320,spring_faces,3.1.5,60.162347976536445,
condition files/Stage0a.xlsx,0a,alpha,none,h,"['h', 'g']","['Chess', 'Go']","[0, 0.5]","[0, 0]",1,0,0,3,3,3,0,1,1,0,,,,,,,,,,,,,,,,,,,,,,,,,,,,,,,,,,,,,,,,,,,,,,,,,,,,,,,,,,,,,,,165.68369557599726,None,165.68369557599726,None,165.68369557599726,None,h,1,0.899577344996942,167.2176041599996,None,167.2176041599996,None,167.2176041599996,None,168.16731142500066,None,168.16731142500066,None,168.16731142500066,None,168.16731142500066,None,,,,,,,,,,,,,,,,,,,,,,,,,,,,,,,,,,,,,,,,,,,,001,90,2020_Feb_06_1320,spring_faces,3.1.5,60.162347976536445,
condition files/Stage0a.xlsx,0a,alpha,none,h,"['h', 'g']","['Chess', 'Go']","[0, 0.5]","[0, 0]",1,0,0,4,4,4,0,0,0,0,,,,,,,,,,,,,,,,,,,,,,,,,,,,,,,,,,,,,,,,,,,,,,,,,,,,,,,,,,,,,,,170.15038645999812,None,170.15038645999812,None,170.15038645999812,None,h,1,0.8337210630015761,171.68349670099997,None,171.68349670099997,None,171.68349670099997,None,172.56718451399865,None,172.56718451399865,None,172.56718451399865,None,172.56718451399865,None,,,,,,,,,,,,,,,,,,,,,,,,,,,,,,,,,,,,,,,,,,,,001,90,2020_Feb_06_1320,spring_faces,3.1.5,60.162347976536445,
condition files/Stage0a.xlsx,0a,beta,none,g,"['h', 'g']","['Chess', 'Go']","[0, 0.5]","[0, 0]",1,0,0,4,4,4,0,1,1,1,,,,,,,,,,,,,,,,,,,,,,,,,,,,,,,,,,,,,,,,,,,,,,,,,,,,,,,,,,,,,,,174.53285561699886,None,174.53285561699886,None,174.53285561699886,None,g,1,0.6738081660005264,176.0673492599999,None,176.0673492599999,None,176.0673492599999,None,176.79991480899844,None,176.79991480899844,None,176.79991480899844,None,176.79991480899844,None,,,,,,,,,,,,,,,,,,,,,,,,,,,,,,,,,,,,,,,,,,,,001,90,2020_Feb_06_1320,spring_faces,3.1.5,60.162347976536445,
condition files/Stage0a.xlsx,0a,beta,none,g,"['h', 'g']","['Chess', 'Go']","[0, 0.5]","[0, 0]",1,0,0,5,5,5,0,0,0,1,,,,,,,,,,,,,,,,,,,,,,,,,,,,,,,,,,,,,,,,,,,,,,,,,,,,,,,,,,,,,,,178.78362673199808,None,178.78362673199808,None,178.78362673199808,None,g,1,0.7282191009981034,180.31702042399775,None,180.31702042399775,None,180.31702042399775,None,181.10058167799798,None,181.10058167799798,None,181.10058167799798,None,181.10058167799798,None,,,,,,,,,,,,,,,,,,,,,,,,,,,,,,,,,,,,,,,,,,,,001,90,2020_Feb_06_1320,spring_faces,3.1.5,60.162347976536445,
condition files/Stage0a.xlsx,0a,alpha,none,h,"['h', 'g']","['Chess', 'Go']","[0, 0.5]","[0, 0]",1,0,0,5,5,5,0,1,1,0,,,,,,,,,,,,,,,,,,,,,,,,,,,,,,,,,,,,,,,,,,,,,,,,,,,,,,,,,,,,,,,183.06691394899826,None,183.06691394899826,None,183.06691394899826,None,h,1,0.8927375509992999,184.6004788729988,None,184.6004788729988,None,184.6004788729988,None,185.5501485959976,None,185.5501485959976,None,185.5501485959976,None,185.5501485959976,None,,,,,,,,,,,,,,,,,,,,,,,,,,,,,,,,,,,,,,,,,,,,001,90,2020_Feb_06_1320,spring_faces,3.1.5,60.162347976536445,
condition files/Stage0b_1.xlsx,0b,alpha,none,h,"['h', 'g']","['Chess', 'Go']","[-0.15, 0.5]","[0.15, 0.5]",1,0,0,6,6,6,0,0,0,0,,,,,,,,,,,,,,,,,,,,,,,,,,,,,,,,,,,,,,,,,,,,,,,,,,,,,,,,,,,,,,,187.53359844499937,None,187.53359844499937,None,187.53359844499937,None,h,1,1.5944973580008082,189.06674657999974,None,189.06674657999974,None,189.06674657999974,None,190.71696307599996,None,190.71696307599996,None,190.71696307599996,None,190.71696307599996,None,,,,,,,,,,,,,,,,,,,,,,,,,,,,,,,,,,,,,,,,,,,,001,90,2020_Feb_06_1320,spring_faces,3.1.5,60.162347976536445,
condition files/Stage0b_1.xlsx,0b,none,beta,g,"['h', 'g']","['Chess', 'Go']","[-0.15, 0.5]","[0.15, 0.5]",0,1,0,6,6,6,0,1,1,1,,,,,,,,,,,,,,,,,,,,,,,,,,,,,,,,,,,,,,,,,,,,,,,,,,,,,,,,,,,,,,,192.6836149849987,None,192.6836149849987,None,192.6836149849987,None,g,1,0.7958223870009533,194.2333859479986,None,194.2333859479986,None,194.2333859479986,None,195.08921111900054,None,195.08921111900054,None,195.08921111900054,None,195.08921111900054,None,,,,,,,,,,,,,,,,,,,,,,,,,,,,,,,,,,,,,,,,,,,,001,90,2020_Feb_06_1320,spring_faces,3.1.5,60.162347976536445,
condition files/Stage0b_2.xlsx,0b,beta,none,g,"['h', 'g']","['Chess', 'Go']","[-0.15, 0.5]","[0.15, 0.5]",1,0,0,7,7,7,0,0,0,1,,,,,,,,,,,,,,,,,,,,,,,,,,,,,,,,,,,,,,,,,,,,,,,,,,,,,,,,,,,,,,,197.06712304699977,None,197.06712304699977,None,197.06712304699977,None,g,1,0.8763179359993956,198.616899790999,None,198.616899790999,None,198.616899790999,None,199.5503730149976,None,199.5503730149976,None,199.5503730149976,None,199.5503730149976,None,,,,,,,,,,,,,,,,,,,,,,,,,,,,,,,,,,,,,,,,,,,,001,90,2020_Feb_06_1320,spring_faces,3.1.5,60.162347976536445,
condition files/Stage0b_2.xlsx,0b,none,alpha,h,"['h', 'g']","['Chess', 'Go']","[-0.15, 0.5]","[0.15, 0.5]",0,1,0,7,7,7,0,1,1,0,,,,,,,,,,,,,,,,,,,,,,,,,,,,,,,,,,,,,,,,,,,,,,,,,,,,,,,,,,,,,,,201.5168430579979,None,201.5168430579979,None,201.5168430579979,None,h,1,0.7792007360003481,203.05002667900044,None,203.05002667900044,None,203.05002667900044,None,203.8891732609991,None,203.8891732609991,None,203.8891732609991,None,203.8891732609991,None,,,,,,,,,,,,,,,,,,,,,,,,,,,,,,,,,,,,,,,,,,,,001,90,2020_Feb_06_1320,spring_faces,3.1.5,60.162347976536445,
condition files/Stage0b_1.xlsx,0b,alpha,none,h,"['h', 'g']","['Chess', 'Go']","[-0.15, 0.5]","[0.15, 0.5]",1,0,0,8,8,8,0,0,0,0,,,,,,,,,,,,,,,,,,,,,,,,,,,,,,,,,,,,,,,,,,,,,,,,,,,,,,,,,,,,,,,205.86681743499867,None,205.86681743499867,None,205.86681743499867,None,h,1,0.8746667669984163,207.4026496410006,None,207.4026496410006,None,207.4026496410006,None,208.333750769998,None,208.333750769998,None,208.333750769998,None,208.333750769998,None,,,,,,,,,,,,,,,,,,,,,,,,,,,,,,,,,,,,,,,,,,,,001,90,2020_Feb_06_1320,spring_faces,3.1.5,60.162347976536445,
condition files/Stage0b_1.xlsx,0b,none,beta,g,"['h', 'g']","['Chess', 'Go']","[-0.15, 0.5]","[0.15, 0.5]",0,1,0,8,8,8,0,1,1,1,,,,,,,,,,,,,,,,,,,,,,,,,,,,,,,,,,,,,,,,,,,,,,,,,,,,,,,,,,,,,,,210.30027675499878,None,210.30027675499878,None,210.30027675499878,None,g,1,0.5207343289985147,211.83656283600067,None,211.83656283600067,None,211.83656283600067,None,212.41969066299862,None,212.41969066299862,None,212.41969066299862,None,212.41969066299862,None,,,,,,,,,,,,,,,,,,,,,,,,,,,,,,,,,,,,,,,,,,,,001,90,2020_Feb_06_1320,spring_faces,3.1.5,60.162347976536445,
condition files/Stage0b_2.xlsx,0b,none,alpha,h,"['h', 'g']","['Chess', 'Go']","[-0.15, 0.5]","[0.15, 0.5]",0,1,0,9,9,9,0,0,0,0,,,,,,,,,,,,,,,,,,,,,,,,,,,,,,,,,,,,,,,,,,,,,,,,,,,,,,,,,,,,,,,214.40046864299802,None,214.40046864299802,None,214.40046864299802,None,h,1,0.7752837700027158,215.93400691699935,None,215.93400691699935,None,215.93400691699935,None,216.76647479500025,None,216.76647479500025,None,216.76647479500025,None,216.76647479500025,None,,,,,,,,,,,,,,,,,,,,,,,,,,,,,,,,,,,,,,,,,,,,001,90,2020_Feb_06_1320,spring_faces,3.1.5,60.162347976536445,
condition files/Stage0b_2.xlsx,0b,beta,none,g,"['h', 'g']","['Chess', 'Go']","[-0.15, 0.5]","[0.15, 0.5]",1,0,0,9,9,9,0,1,1,1,,,,,,,,,,,,,,,,,,,,,,,,,,,,,,,,,,,,,,,,,,,,,,,,,,,,,,,,,,,,,,,218.7333752179984,None,218.7333752179984,None,218.7333752179984,None,g,1,0.6622811540000839,220.27095400399776,None,220.27095400399776,None,220.27095400399776,None,220.98789547399792,None,220.98789547399792,None,220.98789547399792,None,220.98789547399792,None,,,,,,,,,,,,,,,,,,,,,,,,,,,,,,,,,,,,,,,,,,,,001,90,2020_Feb_06_1320,spring_faces,3.1.5,60.162347976536445,
condition files/Stage0b_1.xlsx,0b,none,beta,g,"['h', 'g']","['Chess', 'Go']","[-0.15, 0.5]","[0.15, 0.5]",0,1,0,10,10,10,0,0,0,1,,,,,,,,,,,,,,,,,,,,,,,,,,,,,,,,,,,,,,,,,,,,,,,,,,,,,,,,,,,,,,,222.96715661399867,None,222.96715661399867,None,222.96715661399867,None,g,1,0.6390693130015279,224.50224068899843,None,224.50224068899843,None,224.50224068899843,None,225.20344406599907,None,225.20344406599907,None,225.20344406599907,None,225.20344406599907,None,,,,,,,,,,,,,,,,,,,,,,,,,,,,,,,,,,,,,,,,,,,,001,90,2020_Feb_06_1320,spring_faces,3.1.5,60.162347976536445,
condition files/Stage0b_1.xlsx,0b,alpha,none,h,"['h', 'g']","['Chess', 'Go']","[-0.15, 0.5]","[0.15, 0.5]",1,0,0,10,10,10,0,1,1,0,,,,,,,,,,,,,,,,,,,,,,,,,,,,,,,,,,,,,,,,,,,,,,,,,,,,,,,,,,,,,,,227.16683759999796,None,227.16683759999796,None,227.16683759999796,None,h,1,1.1405052240006626,228.7047040639991,None,228.7047040639991,None,228.7047040639991,None,229.90275098499842,None,229.90275098499842,None,229.90275098499842,None,229.90275098499842,None,,,,,,,,,,,,,,,,,,,,,,,,,,,,,,,,,,,,,,,,,,,,001,90,2020_Feb_06_1320,spring_faces,3.1.5,60.162347976536445,
condition files/Stage0b_2.xlsx,0b,none,alpha,h,"['h', 'g']","['Chess', 'Go']","[-0.15, 0.5]","[0.15, 0.5]",0,1,0,11,11,11,0,0,0,0,,,,,,,,,,,,,,,,,,,,,,,,,,,,,,,,,,,,,,,,,,,,,,,,,,,,,,,,,,,,,,,231.88328745999752,None,231.88328745999752,None,231.88328745999752,None,h,1,0.826407698001276,233.41883485899962,None,233.41883485899962,None,233.41883485899962,None,234.300794322,None,234.300794322,None,234.300794322,None,234.300794322,None,,,,,,,,,,,,,,,,,,,,,,,,,,,,,,,,,,,,,,,,,,,,001,90,2020_Feb_06_1320,spring_faces,3.1.5,60.162347976536445,
condition files/Stage0b_2.xlsx,0b,beta,none,g,"['h', 'g']","['Chess', 'Go']","[-0.15, 0.5]","[0.15, 0.5]",1,0,0,11,11,11,0,1,1,1,,,,,,,,,,,,,,,,,,,,,,,,,,,,,,,,,,,,,,,,,,,,,,,,,,,,,,,,,,,,,,,236.26684913499776,None,236.26684913499776,None,236.26684913499776,None,g,1,0.8255678949972207,237.80363356700036,None,237.80363356700036,None,237.80363356700036,None,238.68629283599876,None,238.68629283599876,None,238.68629283599876,None,238.68629283599876,None,,,,,,,,,,,,,,,,,,,,,,,,,,,,,,,,,,,,,,,,,,,,001,90,2020_Feb_06_1320,spring_faces,3.1.5,60.162347976536445,
condition files/Stage0c_1.xlsx,0c,beta,theta,g,"['h', 'g']","['Chess', 'Go']","[-0.15, 0.5]","[0.15, 0.5]",1,1,0,12,12,12,0,0,0,2,,,,,,,,,,,,,,,,,,,,,,,,,,,,,,,,,,,,,,,,,,,,,,,,,,,,,,,,,,,,,,,240.6675265289996,None,240.6675265289996,None,240.6675265289996,None,g,1,4.18866968400107,242.20058008100023,None,242.20058008100023,None,242.20058008100023,None,246.4505028579988,None,246.4505028579988,None,246.4505028579988,None,246.4505028579988,None,,,,,,,,,,,,,,,,,,,,,,,,,,,,,,,,,,,,,,,,,,,,001,90,2020_Feb_06_1320,spring_faces,3.1.5,60.162347976536445,
condition files/Stage0c_1.xlsx,0c,phi,beta,g,"['h', 'g']","['Chess', 'Go']","[-0.15, 0.5]","[0.15, 0.5]",1,1,0,12,12,12,0,1,1,3,,,,,,,,,,,,,,,,,,,,,,,,,,,,,,,,,,,,,,,,,,,,,,,,,,,,,,,,,,,,,,,248.41657176999797,None,248.41657176999797,None,248.41657176999797,None,g,1,1.8473367529986717,249.95016302300064,None,249.95016302300064,None,249.95016302300064,None,251.85052884899778,None,251.85052884899778,None,251.85052884899778,None,251.85052884899778,None,,,,,,,,,,,,,,,,,,,,,,,,,,,,,,,,,,,,,,,,,,,,001,90,2020_Feb_06_1320,spring_faces,3.1.5,60.162347976536445,
condition files/Stage0c_1.xlsx,0c,alpha,phi,h,"['h', 'g']","['Chess', 'Go']","[-0.15, 0.5]","[0.15, 0.5]",1,1,0,12,12,12,0,2,2,1,,,,,,,,,,,,,,,,,,,,,,,,,,,,,,,,,,,,,,,,,,,,,,,,,,,,,,,,,,,,,,,253.8166543139996,None,253.8166543139996,None,253.8166543139996,None,h,1,1.758887058000255,255.350407867998,None,255.350407867998,None,255.350407867998,None,257.16706940699805,None,257.16706940699805,None,257.16706940699805,None,257.16706940699805,None,,,,,,,,,,,,,,,,,,,,,,,,,,,,,,,,,,,,,,,,,,,,001,90,2020_Feb_06_1320,spring_faces,3.1.5,60.162347976536445,
condition files/Stage0c_1.xlsx,0c,theta,alpha,h,"['h', 'g']","['Chess', 'Go']","[-0.15, 0.5]","[0.15, 0.5]",1,1,0,12,12,12,0,3,3,0,,,,,,,,,,,,,,,,,,,,,,,,,,,,,,,,,,,,,,,,,,,,,,,,,,,,,,,,,,,,,,,259.1331122289994,None,259.1331122289994,None,259.1331122289994,None,h,1,1.1460271030009608,260.66722017199936,None,260.66722017199936,None,260.66722017199936,None,261.8671331400001,None,261.8671331400001,None,261.8671331400001,None,261.8671331400001,None,,,,,,,,,,,,,,,,,,,,,,,,,,,,,,,,,,,,,,,,,,,,001,90,2020_Feb_06_1320,spring_faces,3.1.5,60.162347976536445,
condition files/Stage0c_2.xlsx,0c,beta,phi,g,"['h', 'g']","['Chess', 'Go']","[-0.15, 0.5]","[0.15, 0.5]",1,1,0,13,13,13,0,0,0,3,,,,,,,,,,,,,,,,,,,,,,,,,,,,,,,,,,,,,,,,,,,,,,,,,,,,,,,,,,,,,,,263.8505557169992,None,263.8505557169992,None,263.8505557169992,None,g,1,1.4053878549966612,265.3838667229975,None,265.3838667229975,None,265.3838667229975,None,266.8500016549988,None,266.8500016549988,None,266.8500016549988,None,266.8500016549988,None,,,,,,,,,,,,,,,,,,,,,,,,,,,,,,,,,,,,,,,,,,,,001,90,2020_Feb_06_1320,spring_faces,3.1.5,60.162347976536445,
condition files/Stage0c_2.xlsx,0c,alpha,theta,h,"['h', 'g']","['Chess', 'Go']","[-0.15, 0.5]","[0.15, 0.5]",1,1,0,13,13,13,0,1,1,0,,,,,,,,,,,,,,,,,,,,,,,,,,,,,,,,,,,,,,,,,,,,,,,,,,,,,,,,,,,,,,,268.81694724099725,None,268.81694724099725,None,268.81694724099725,None,h,1,0.998702796001453,270.3505253999974,None,270.3505253999974,None,270.3505253999974,None,271.40057529299884,None,271.40057529299884,None,271.40057529299884,None,271.40057529299884,None,,,,,,,,,,,,,,,,,,,,,,,,,,,,,,,,,,,,,,,,,,,,001,90,2020_Feb_06_1320,spring_faces,3.1.5,60.162347976536445,
condition files/Stage0c_2.xlsx,0c,theta,beta,g,"['h', 'g']","['Chess', 'Go']","[-0.15, 0.5]","[0.15, 0.5]",1,1,0,13,13,13,0,2,2,2,,,,,,,,,,,,,,,,,,,,,,,,,,,,,,,,,,,,,,,,,,,,,,,,,,,,,,,,,,,,,,,273.3665238879985,None,273.3665238879985,None,273.3665238879985,None,g,1,1.2009172159996524,274.9002891599994,None,274.9002891599994,None,274.9002891599994,None,276.15347759299766,None,276.15347759299766,None,276.15347759299766,None,276.15347759299766,None,,,,,,,,,,,,,,,,,,,,,,,,,,,,,,,,,,,,,,,,,,,,001,90,2020_Feb_06_1320,spring_faces,3.1.5,60.162347976536445,
condition files/Stage0c_2.xlsx,0c,phi,alpha,h,"['h', 'g']","['Chess', 'Go']","[-0.15, 0.5]","[0.15, 0.5]",1,1,0,13,13,13,0,3,3,1,,,,,,,,,,,,,,,,,,,,,,,,,,,,,,,,,,,,,,,,,,,,,,,,,,,,,,,,,,,,,,,278.13340109300043,None,278.13340109300043,None,278.13340109300043,None,h,1,1.057849881999573,279.6674501439993,None,279.6674501439993,None,279.6674501439993,None,280.7840264080005,None,280.7840264080005,None,280.7840264080005,None,280.7840264080005,None,,,,,,,,,,,,,,,,,,,,,,,,,,,,,,,,,,,,,,,,,,,,001,90,2020_Feb_06_1320,spring_faces,3.1.5,60.162347976536445,
condition files/Stage0c_1.xlsx,0c,beta,theta,g,"['h', 'g']","['Chess', 'Go']","[-0.15, 0.5]","[0.15, 0.5]",1,1,0,14,14,14,0,0,0,2,,,,,,,,,,,,,,,,,,,,,,,,,,,,,,,,,,,,,,,,,,,,,,,,,,,,,,,,,,,,,,,282.76664039299794,None,282.76664039299794,None,282.76664039299794,None,g,1,0.9046795319991361,284.3005763839974,None,284.3005763839974,None,284.3005763839974,None,285.26719167400006,None,285.26719167400006,None,285.26719167400006,None,285.26719167400006,None,,,,,,,,,,,,,,,,,,,,,,,,,,,,,,,,,,,,,,,,,,,,001,90,2020_Feb_06_1320,spring_faces,3.1.5,60.162347976536445,
condition files/Stage0c_1.xlsx,0c,alpha,phi,h,"['h', 'g']","['Chess', 'Go']","[-0.15, 0.5]","[0.15, 0.5]",1,1,0,14,14,14,0,1,1,1,,,,,,,,,,,,,,,,,,,,,,,,,,,,,,,,,,,,,,,,,,,,,,,,,,,,,,,,,,,,,,,287.23357844899874,None,287.23357844899874,None,287.23357844899874,None,h,1,1.222526861998631,288.7667127269997,None,288.7667127269997,None,288.7667127269997,None,290.05051126800026,None,290.05051126800026,None,290.05051126800026,None,290.05051126800026,None,,,,,,,,,,,,,,,,,,,,,,,,,,,,,,,,,,,,,,,,,,,,001,90,2020_Feb_06_1320,spring_faces,3.1.5,60.162347976536445,
condition files/Stage0c_1.xlsx,0c,theta,alpha,h,"['h', 'g']","['Chess', 'Go']","[-0.15, 0.5]","[0.15, 0.5]",1,1,0,14,14,14,0,2,2,0,,,,,,,,,,,,,,,,,,,,,,,,,,,,,,,,,,,,,,,,,,,,,,,,,,,,,,,,,,,,,,,292.0170620129975,None,292.0170620129975,None,292.0170620129975,None,h,1,0.9667522300005658,293.55048787600026,None,293.55048787600026,None,293.55048787600026,None,294.5671309520003,None,294.5671309520003,None,294.5671309520003,None,294.5671309520003,None,,,,,,,,,,,,,,,,,,,,,,,,,,,,,,,,,,,,,,,,,,,,001,90,2020_Feb_06_1320,spring_faces,3.1.5,60.162347976536445,
condition files/Stage0c_1.xlsx,0c,phi,beta,g,"['h', 'g']","['Chess', 'Go']","[-0.15, 0.5]","[0.15, 0.5]",1,1,0,14,14,14,0,3,3,3,,,,,,,,,,,,,,,,,,,,,,,,,,,,,,,,,,,,,,,,,,,,,,,,,,,,,,,,,,,,,,,296.53300729299735,None,296.53300729299735,None,296.53300729299735,None,g,1,1.346226834000845,298.0670141089977,None,298.0670141089977,None,298.0670141089977,None,299.466977262,None,299.466977262,None,299.466977262,None,299.466977262,None,,,,,,,,,,,,,,,,,,,,,,,,,,,,,,,,,,,,,,,,,,,,001,90,2020_Feb_06_1320,spring_faces,3.1.5,60.162347976536445,
condition files/Stage0c_2.xlsx,0c,phi,alpha,h,"['h', 'g']","['Chess', 'Go']","[-0.15, 0.5]","[0.15, 0.5]",1,1,0,15,15,15,0,0,0,1,,,,,,,,,,,,,,,,,,,,,,,,,,,,,,,,,,,,,,,,,,,,,,,,,,,,,,,,,,,,,,,301.44988793800076,None,301.44988793800076,None,301.44988793800076,None,h,1,0.9893824030004907,302.98387559899857,None,302.98387559899857,None,302.98387559899857,None,304.033423132998,None,304.033423132998,None,304.033423132998,None,304.033423132998,None,,,,,,,,,,,,,,,,,,,,,,,,,,,,,,,,,,,,,,,,,,,,001,90,2020_Feb_06_1320,spring_faces,3.1.5,60.162347976536445,
condition files/Stage0c_2.xlsx,0c,beta,phi,g,"['h', 'g']","['Chess', 'Go']","[-0.15, 0.5]","[0.15, 0.5]",1,1,0,15,15,15,0,1,1,3,,,,,,,,,,,,,,,,,,,,,,,,,,,,,,,,,,,,,,,,,,,,,,,,,,,,,,,,,,,,,,,306.00012373799836,None,306.00012373799836,None,306.00012373799836,None,g,1,0.7922815970014199,307.53301847699913,None,307.53301847699913,None,307.53301847699913,None,308.38332124599765,None,308.38332124599765,None,308.38332124599765,None,308.38332124599765,None,,,,,,,,,,,,,,,,,,,,,,,,,,,,,,,,,,,,,,,,,,,,001,90,2020_Feb_06_1320,spring_faces,3.1.5,60.162347976536445,
condition files/Stage0c_2.xlsx,0c,alpha,theta,h,"['h', 'g']","['Chess', 'Go']","[-0.15, 0.5]","[0.15, 0.5]",1,1,0,15,15,15,0,2,2,0,,,,,,,,,,,,,,,,,,,,,,,,,,,,,,,,,,,,,,,,,,,,,,,,,,,,,,,,,,,,,,,310.35041744499904,None,310.35041744499904,None,310.35041744499904,None,h,1,1.6412851629975194,311.8840131069992,None,311.8840131069992,None,311.8840131069992,None,313.5838699099986,None,313.5838699099986,None,313.5838699099986,None,313.5838699099986,None,,,,,,,,,,,,,,,,,,,,,,,,,,,,,,,,,,,,,,,,,,,,001,90,2020_Feb_06_1320,spring_faces,3.1.5,60.162347976536445,
condition files/Stage0c_2.xlsx,0c,theta,beta,g,"['h', 'g']","['Chess', 'Go']","[-0.15, 0.5]","[0.15, 0.5]",1,1,0,15,15,15,0,3,3,2,,,,,,,,,,,,,,,,,,,,,,,,,,,,,,,,,,,,,,,,,,,,,,,,,,,,,,,,,,,,,,,315.55047455100066,None,315.55047455100066,None,315.55047455100066,None,g,1,1.3694876199988357,317.0837622029976,None,317.0837622029976,None,317.0837622029976,None,318.5168581729995,None,318.5168581729995,None,318.5168581729995,None,318.5168581729995,None,,,,,,,,,,,,,,,,,,,,,,,,,,,,,,,,,,,,,,,,,,,,001,90,2020_Feb_06_1320,spring_faces,3.1.5,60.162347976536445,
condition files/Stage0c_1.xlsx,0c,theta,alpha,h,"['h', 'g']","['Chess', 'Go']","[-0.15, 0.5]","[0.15, 0.5]",1,1,0,16,16,16,0,0,0,0,,,,,,,,,,,,,,,,,,,,,,,,,,,,,,,,,,,,,,,,,,,,,,,,,,,,,,,,,,,,,,,320.5006931909993,None,320.5006931909993,None,320.5006931909993,None,h,1,1.1560270810005022,322.0172198479995,None,322.0172198479995,None,322.0172198479995,None,323.23385196399977,None,323.23385196399977,None,323.23385196399977,None,323.23385196399977,None,,,,,,,,,,,,,,,,,,,,,,,,,,,,,,,,,,,,,,,,,,,,001,90,2020_Feb_06_1320,spring_faces,3.1.5,60.162347976536445,
condition files/Stage0c_1.xlsx,0c,alpha,phi,h,"['h', 'g']","['Chess', 'Go']","[-0.15, 0.5]","[0.15, 0.5]",1,1,0,16,16,16,0,1,1,1,,,,,,,,,,,,,,,,,,,,,,,,,,,,,,,,,,,,,,,,,,,,,,,,,,,,,,,,,,,,,,,325.20019985699764,None,325.20019985699764,None,325.20019985699764,None,h,1,0.7432416970004851,326.73405218399785,None,326.73405218399785,None,326.73405218399785,None,327.51901589099725,None,327.51901589099725,None,327.51901589099725,None,327.51901589099725,None,,,,,,,,,,,,,,,,,,,,,,,,,,,,,,,,,,,,,,,,,,,,001,90,2020_Feb_06_1320,spring_faces,3.1.5,60.162347976536445,
condition files/Stage0c_1.xlsx,0c,phi,beta,g,"['h', 'g']","['Chess', 'Go']","[-0.15, 0.5]","[0.15, 0.5]",1,1,0,16,16,16,0,2,2,3,,,,,,,,,,,,,,,,,,,,,,,,,,,,,,,,,,,,,,,,,,,,,,,,,,,,,,,,,,,,,,,329.5000408989981,None,329.5000408989981,None,329.5000408989981,None,g,1,0.7312504269975761,331.03398585899777,None,331.03398585899777,None,331.03398585899777,None,331.81680913299715,None,331.81680913299715,None,331.81680913299715,None,331.81680913299715,None,,,,,,,,,,,,,,,,,,,,,,,,,,,,,,,,,,,,,,,,,,,,001,90,2020_Feb_06_1320,spring_faces,3.1.5,60.162347976536445,
condition files/Stage0c_1.xlsx,0c,beta,theta,g,"['h', 'g']","['Chess', 'Go']","[-0.15, 0.5]","[0.15, 0.5]",1,1,0,16,16,16,0,3,3,2,,,,,,,,,,,,,,,,,,,,,,,,,,,,,,,,,,,,,,,,,,,,,,,,,,,,,,,,,,,,,,,333.78360567100026,None,333.78360567100026,None,333.78360567100026,None,g,1,1.0560353940018103,335.3172058179989,None,335.3172058179989,None,335.3172058179989,None,336.4171255209985,None,336.4171255209985,None,336.4171255209985,None,336.4171255209985,None,,,,,,,,,,,,,,,,,,,,,,,,,,,,,,,,,,,,,,,,,,,,001,90,2020_Feb_06_1320,spring_faces,3.1.5,60.162347976536445,
condition files/Stage0c_2.xlsx,0c,phi,alpha,h,"['h', 'g']","['Chess', 'Go']","[-0.15, 0.5]","[0.15, 0.5]",1,1,0,17,17,17,0,0,0,1,,,,,,,,,,,,,,,,,,,,,,,,,,,,,,,,,,,,,,,,,,,,,,,,,,,,,,,,,,,,,,,338.41703283400057,None,338.41703283400057,None,338.41703283400057,None,h,1,1.7832990730021265,339.9339255559971,None,339.9339255559971,None,339.9339255559971,None,341.7666848899971,None,341.7666848899971,None,341.7666848899971,None,341.7666848899971,None,,,,,,,,,,,,,,,,,,,,,,,,,,,,,,,,,,,,,,,,,,,,001,90,2020_Feb_06_1320,spring_faces,3.1.5,60.162347976536445,
condition files/Stage0c_2.xlsx,0c,theta,beta,g,"['h', 'g']","['Chess', 'Go']","[-0.15, 0.5]","[0.15, 0.5]",1,1,0,17,17,17,0,1,1,2,,,,,,,,,,,,,,,,,,,,,,,,,,,,,,,,,,,,,,,,,,,,,,,,,,,,,,,,,,,,,,,343.73353904099713,None,343.73353904099713,None,343.73353904099713,None,g,1,0.689877645996603,345.26732032699874,None,345.26732032699874,None,345.26732032699874,None,346.01766031199804,None,346.01766031199804,None,346.01766031199804,None,346.01766031199804,None,,,,,,,,,,,,,,,,,,,,,,,,,,,,,,,,,,,,,,,,,,,,001,90,2020_Feb_06_1320,spring_faces,3.1.5,60.162347976536445,
condition files/Stage0c_2.xlsx,0c,alpha,theta,h,"['h', 'g']","['Chess', 'Go']","[-0.15, 0.5]","[0.15, 0.5]",1,1,0,17,17,17,0,2,2,0,,,,,,,,,,,,,,,,,,,,,,,,,,,,,,,,,,,,,,,,,,,,,,,,,,,,,,,,,,,,,,,347.98354040699996,None,347.98354040699996,None,347.98354040699996,None,h,1,0.8080144480009039,349.51727600199956,None,349.51727600199956,None,349.51727600199956,None,350.3834062999995,None,350.3834062999995,None,350.3834062999995,None,350.3834062999995,None,,,,,,,,,,,,,,,,,,,,,,,,,,,,,,,,,,,,,,,,,,,,001,90,2020_Feb_06_1320,spring_faces,3.1.5,60.162347976536445,
condition files/Stage0c_2.xlsx,0c,beta,phi,g,"['h', 'g']","['Chess', 'Go']","[-0.15, 0.5]","[0.15, 0.5]",1,1,0,17,17,17,0,3,3,3,,,,,,,,,,,,,,,,,,,,,,,,,,,,,,,,,,,,,,,,,,,,,,,,,,,,,,,,,,,,,,,352.3504271189995,None,352.3504271189995,None,352.3504271189995,None,g,1,0.8411847899988061,353.884106133999,None,353.884106133999,None,353.884106133999,None,354.78330325999923,None,354.78330325999923,None,354.78330325999923,None,354.78330325999923,None,,,,,,,,,,,,,,,,,,,,,,,,,,,,,,,,,,,,,,,,,,,,001,90,2020_Feb_06_1320,spring_faces,3.1.5,60.162347976536445,
,,,,,,,,,,,,,,,,,,,,,,,,,,,,,,,,,,,,,,,,,,,,,,,,,,,,,,,,,,,,,,,,,,,,,,,,,,,,,,,,,,,,,,,,,,,,,,,,,,,,,,,,356.7668117289977,None,space,2.318235143000493,361.76696529900073,None,,,,,,,,,,,,,,,,,,,,,,,,,,,,,,,,,,,,,,001,90,2020_Feb_06_1320,spring_faces,3.1.5,60.162347976536445,
condition files/Stage1_1.xlsx,,B4,T4,m,"['c', 'm']","['Clue', 'Monopoly']","[-0.15, 0.5]","[0.15, 0.5]",1,1,,,,,,,,,0,0,0,0,0,0,0,7,,,,,,,,,,,,,,,,,,,,,,,,,,,,,,,,,,,,,,,,,,,,,,,,,,,,,,,364.1505389749982,None,364.1505389749982,None,364.1505389749982,None,c,0,2.5133833620020596,365.68385728700014,None,365.68385728700014,None,365.68385728700014,None,368.266573642999,None,368.266573642999,None,368.266573642999,None,368.266573642999,None,,,,,,,361.76696529900073,None,,,,,,,,,,,,,,,,,,,,,,,,,,,,,,,,,,,,001,90,2020_Feb_06_1320,spring_faces,3.1.5,60.162347976536445,
condition files/Stage1_1.xlsx,,B3,T3,c,"['c', 'm']","['Clue', 'Monopoly']","[-0.15, 0.5]","[0.15, 0.5]",1,1,,,,,,,,,0,0,0,0,0,1,1,4,,,,,,,,,,,,,,,,,,,,,,,,,,,,,,,,,,,,,,,,,,,,,,,,,,,,,,,370.2163504220007,None,370.2163504220007,None,370.2163504220007,None,c,1,1.278171537000162,371.7670125099976,None,371.7670125099976,None,371.7670125099976,None,373.1026583649982,None,373.1026583649982,None,373.1026583649982,None,373.1026583649982,None,,,,,,,,,,,,,,,,,,,,,,,,,,,,,,,,,,,,,,,,,,,,001,90,2020_Feb_06_1320,spring_faces,3.1.5,60.162347976536445,
condition files/Stage1_1.xlsx,,T2,B2,m,"['c', 'm']","['Clue', 'Monopoly']","[-0.15, 0.5]","[0.15, 0.5]",1,1,,,,,,,,,0,0,0,0,0,2,2,3,,,,,,,,,,,,,,,,,,,,,,,,,,,,,,,,,,,,,,,,,,,,,,,,,,,,,,,375.06672697999966,None,375.06672697999966,None,375.06672697999966,None,m,1,2.8613325170008466,376.5998916069984,None,376.5998916069984,None,376.5998916069984,None,379.51671356899897,None,379.51671356899897,None,379.51671356899897,None,379.51671356899897,None,,,,,,,,,,,,,,,,,,,,,,,,,,,,,,,,,,,,,,,,,,,,001,90,2020_Feb_06_1320,spring_faces,3.1.5,60.162347976536445,
condition files/Stage1_1.xlsx,,T3,B4,c,"['c', 'm']","['Clue', 'Monopoly']","[-0.15, 0.5]","[0.15, 0.5]",1,1,,,,,,,,,0,0,0,0,0,3,3,5,,,,,,,,,,,,,,,,,,,,,,,,,,,,,,,,,,,,,,,,,,,,,,,,,,,,,,,381.4830666880007,None,381.4830666880007,None,381.4830666880007,None,m,0,1.8835183100018185,383.0336758689991,None,383.0336758689991,None,383.0336758689991,None,384.9856546289993,None,384.9856546289993,None,384.9856546289993,None,384.9856546289993,None,,,,,,,,,,,,,,,,,,,,,,,,,,,,,,,,,,,,,,,,,,,,001,90,2020_Feb_06_1320,spring_faces,3.1.5,60.162347976536445,
condition files/Stage1_1.xlsx,,B2,T1,m,"['c', 'm']","['Clue', 'Monopoly']","[-0.15, 0.5]","[0.15, 0.5]",1,1,,,,,,,,,0,0,0,0,0,4,4,2,,,,,,,,,,,,,,,,,,,,,,,,,,,,,,,,,,,,,,,,,,,,,,,,,,,,,,,386.950156865998,None,386.950156865998,None,386.950156865998,None,m,1,3.760949248000543,388.50029829999767,None,388.50029829999767,None,388.50029829999767,None,392.3338330359984,None,392.3338330359984,None,392.3338330359984,None,392.3338330359984,None,,,,,,,,,,,,,,,,,,,,,,,,,,,,,,,,,,,,,,,,,,,,001,90,2020_Feb_06_1320,spring_faces,3.1.5,60.162347976536445,
condition files/Stage1_1.xlsx,,B1,T2,c,"['c', 'm']","['Clue', 'Monopoly']","[-0.15, 0.5]","[0.15, 0.5]",1,1,,,,,,,,,0,0,0,0,0,5,5,1,,,,,,,,,,,,,,,,,,,,,,,,,,,,,,,,,,,,,,,,,,,,,,,,,,,,,,,394.28350274200056,None,394.28350274200056,None,394.28350274200056,None,m,0,2.539137142997788,395.818184380998,None,395.818184380998,None,395.818184380998,None,398.41961234799965,None,398.41961234799965,None,398.41961234799965,None,398.41961234799965,None,,,,,,,,,,,,,,,,,,,,,,,,,,,,,,,,,,,,,,,,,,,,001,90,2020_Feb_06_1320,spring_faces,3.1.5,60.162347976536445,
condition files/Stage1_1.xlsx,,T1,B1,c,"['c', 'm']","['Clue', 'Monopoly']","[-0.15, 0.5]","[0.15, 0.5]",1,1,,,,,,,,,0,0,0,0,0,6,6,0,,,,,,,,,,,,,,,,,,,,,,,,,,,,,,,,,,,,,,,,,,,,,,,,,,,,,,,400.3832938310006,None,400.3832938310006,None,400.3832938310006,None,m,0,2.1838617590001377,401.9333772539976,None,401.9333772539976,None,401.9333772539976,None,404.16668610899796,None,404.16668610899796,None,404.16668610899796,None,404.16668610899796,None,,,,,,,,,,,,,,,,,,,,,,,,,,,,,,,,,,,,,,,,,,,,001,90,2020_Feb_06_1320,spring_faces,3.1.5,60.162347976536445,
condition files/Stage1_1.xlsx,,T4,B3,m,"['c', 'm']","['Clue', 'Monopoly']","[-0.15, 0.5]","[0.15, 0.5]",1,1,,,,,,,,,0,0,0,0,0,7,7,6,,,,,,,,,,,,,,,,,,,,,,,,,,,,,,,,,,,,,,,,,,,,,,,,,,,,,,,406.13320895200013,None,406.13320895200013,None,406.13320895200013,None,m,1,1.778633294001338,407.6665448709973,None,407.6665448709973,None,407.6665448709973,None,409.5000706589999,None,409.5000706589999,None,409.5000706589999,None,409.5000706589999,None,,,,,,,,,,,,,,,,,,,,,,,,,,,,,,,,,,,,,,,,,,,,001,90,2020_Feb_06_1320,spring_faces,3.1.5,60.162347976536445,
condition files/Stage1_2.xlsx,,B3,T4,m,"['c', 'm']","['Clue', 'Monopoly']","[-0.15, 0.5]","[0.15, 0.5]",1,1,,,,,,,,,0,1,1,1,0,0,0,6,,,,,,,,,,,,,,,,,,,,,,,,,,,,,,,,,,,,,,,,,,,,,,,,,,,,,,,411.483538217999,None,411.483538217999,None,411.483538217999,None,m,1,1.4198632490006275,413.0333875260003,None,413.0333875260003,None,413.0333875260003,None,414.5170714039996,None,414.5170714039996,None,414.5170714039996,None,414.5170714039996,None,,,,,,,,,,,,,,,,,,,,,,,,,,,,,,,,,,,,,,,,,,,,001,90,2020_Feb_06_1320,spring_faces,3.1.5,60.162347976536445,
condition files/Stage1_2.xlsx,,T1,B2,m,"['c', 'm']","['Clue', 'Monopoly']","[-0.15, 0.5]","[0.15, 0.5]",1,1,,,,,,,,,0,1,1,1,0,1,1,2,,,,,,,,,,,,,,,,,,,,,,,,,,,,,,,,,,,,,,,,,,,,,,,,,,,,,,,416.4828476010007,None,416.4828476010007,None,416.4828476010007,None,c,0,1.9542913029981719,418.01894469299805,None,418.01894469299805,None,418.01894469299805,None,420.0341604389978,None,420.0341604389978,None,420.0341604389978,None,420.0341604389978,None,,,,,,,,,,,,,,,,,,,,,,,,,,,,,,,,,,,,,,,,,,,,001,90,2020_Feb_06_1320,spring_faces,3.1.5,60.162347976536445,
condition files/Stage1_2.xlsx,,B1,T1,c,"['c', 'm']","['Clue', 'Monopoly']","[-0.15, 0.5]","[0.15, 0.5]",1,1,,,,,,,,,0,1,1,1,0,2,2,0,,,,,,,,,,,,,,,,,,,,,,,,,,,,,,,,,,,,,,,,,,,,,,,,,,,,,,,421.9999154799989,None,421.9999154799989,None,421.9999154799989,None,m,0,2.1185722129994247,423.5506701640006,None,423.5506701640006,None,423.5506701640006,None,425.7356212470004,None,425.7356212470004,None,425.7356212470004,None,425.7356212470004,None,,,,,,,,,,,,,,,,,,,,,,,,,,,,,,,,,,,,,,,,,,,,001,90,2020_Feb_06_1320,spring_faces,3.1.5,60.162347976536445,
condition files/Stage1_2.xlsx,,T4,B4,m,"['c', 'm']","['Clue', 'Monopoly']","[-0.15, 0.5]","[0.15, 0.5]",1,1,,,,,,,,,0,1,1,1,0,3,3,7,,,,,,,,,,,,,,,,,,,,,,,,,,,,,,,,,,,,,,,,,,,,,,,,,,,,,,,427.7007017350006,None,427.7007017350006,None,427.7007017350006,None,m,1,3.105621496000822,429.23569910199876,None,429.23569910199876,None,429.23569910199876,None,432.40251729199736,None,432.40251729199736,None,432.40251729199736,None,432.40251729199736,None,,,,,,,,,,,,,,,,,,,,,,,,,,,,,,,,,,,,,,,,,,,,001,90,2020_Feb_06_1320,spring_faces,3.1.5,60.162347976536445,
condition files/Stage1_2.xlsx,,B4,T3,c,"['c', 'm']","['Clue', 'Monopoly']","[-0.15, 0.5]","[0.15, 0.5]",1,1,,,,,,,,,0,1,1,1,0,4,4,5,,,,,,,,,,,,,,,,,,,,,,,,,,,,,,,,,,,,,,,,,,,,,,,,,,,,,,,434.3663265670002,None,434.3663265670002,None,434.3663265670002,None,c,1,2.151610139000695,435.9016573899971,None,435.9016573899971,None,435.9016573899971,None,438.13370013500025,None,438.13370013500025,None,438.13370013500025,None,438.13370013500025,None,,,,,,,,,,,,,,,,,,,,,,,,,,,,,,,,,,,,,,,,,,,,001,90,2020_Feb_06_1320,spring_faces,3.1.5,60.162347976536445,
condition files/Stage1_2.xlsx,,B2,T2,m,"['c', 'm']","['Clue', 'Monopoly']","[-0.15, 0.5]","[0.15, 0.5]",1,1,,,,,,,,,0,1,1,1,0,5,5,3,,,,,,,,,,,,,,,,,,,,,,,,,,,,,,,,,,,,,,,,,,,,,,,,,,,,,,,440.0841458859977,None,440.0841458859977,None,440.0841458859977,None,c,0,1.4119699699986086,441.61728725899957,None,441.61728725899957,None,441.61728725899957,None,443.08411050799987,None,443.08411050799987,None,443.08411050799987,None,443.08411050799987,None,,,,,,,,,,,,,,,,,,,,,,,,,,,,,,,,,,,,,,,,,,,,001,90,2020_Feb_06_1320,spring_faces,3.1.5,60.162347976536445,
condition files/Stage1_2.xlsx,,T3,B3,c,"['c', 'm']","['Clue', 'Monopoly']","[-0.15, 0.5]","[0.15, 0.5]",1,1,,,,,,,,,0,1,1,1,0,6,6,4,,,,,,,,,,,,,,,,,,,,,,,,,,,,,,,,,,,,,,,,,,,,,,,,,,,,,,,445.05034373599847,None,445.05034373599847,None,445.05034373599847,None,c,1,2.3953934909986856,446.58586052600003,None,446.58586052600003,None,446.58586052600003,None,449.03421713900025,None,449.03421713900025,None,449.03421713900025,None,449.03421713900025,None,,,,,,,,,,,,,,,,,,,,,,,,,,,,,,,,,,,,,,,,,,,,001,90,2020_Feb_06_1320,spring_faces,3.1.5,60.162347976536445,
condition files/Stage1_2.xlsx,,T2,B1,c,"['c', 'm']","['Clue', 'Monopoly']","[-0.15, 0.5]","[0.15, 0.5]",1,1,,,,,,,,,0,1,1,1,0,7,7,1,,,,,,,,,,,,,,,,,,,,,,,,,,,,,,,,,,,,,,,,,,,,,,,,,,,,,,,451.00006685399785,None,451.00006685399785,None,451.00006685399785,None,c,1,0.9104052699985914,452.55079420199763,None,452.55079420199763,None,452.55079420199763,None,453.51720940700034,None,453.51720940700034,None,453.51720940700034,None,453.51720940700034,None,,,,,,,,,,,,,,,,,,,,,,,,,,,,,,,,,,,,,,,,,,,,001,90,2020_Feb_06_1320,spring_faces,3.1.5,60.162347976536445,
condition files/Stage1_1.xlsx,,T2,B2,m,"['c', 'm']","['Clue', 'Monopoly']","[-0.15, 0.5]","[0.15, 0.5]",1,1,,,,,,,,,0,2,2,2,0,0,0,3,,,,,,,,,,,,,,,,,,,,,,,,,,,,,,,,,,,,,,,,,,,,,,,,,,,,,,,455.5001798329977,None,455.5001798329977,None,455.5001798329977,None,c,0,0.8254401099984534,457.0357938149973,None,457.0357938149973,None,457.0357938149973,None,457.9336765879998,None,457.9336765879998,None,457.9336765879998,None,457.9336765879998,None,,,,,,,,,,,,,,,,,,,,,,,,,,,,,,,,,,,,,,,,,,,,001,90,2020_Feb_06_1320,spring_faces,3.1.5,60.162347976536445,
condition files/Stage1_1.xlsx,,B3,T3,c,"['c', 'm']","['Clue', 'Monopoly']","[-0.15, 0.5]","[0.15, 0.5]",1,1,,,,,,,,,0,2,2,2,0,1,1,4,,,,,,,,,,,,,,,,,,,,,,,,,,,,,,,,,,,,,,,,,,,,,,,,,,,,,,,459.8836010140003,None,459.8836010140003,None,459.8836010140003,None,m,0,2.6035713969977223,461.41768993000005,None,461.41768993000005,None,461.41768993000005,None,464.1000050379989,None,464.1000050379989,None,464.1000050379989,None,464.1000050379989,None,,,,,,,,,,,,,,,,,,,,,,,,,,,,,,,,,,,,,,,,,,,,001,90,2020_Feb_06_1320,spring_faces,3.1.5,60.162347976536445,
condition files/Stage1_1.xlsx,,T3,B4,c,"['c', 'm']","['Clue', 'Monopoly']","[-0.15, 0.5]","[0.15, 0.5]",1,1,,,,,,,,,0,2,2,2,0,2,2,5,,,,,,,,,,,,,,,,,,,,,,,,,,,,,,,,,,,,,,,,,,,,,,,,,,,,,,,466.050722639,None,466.050722639,None,466.050722639,None,c,1,1.5234615449990088,467.5858631459996,None,467.5858631459996,None,467.5858631459996,None,469.16732906700054,None,469.16732906700054,None,469.16732906700054,None,469.16732906700054,None,,,,,,,,,,,,,,,,,,,,,,,,,,,,,,,,,,,,,,,,,,,,001,90,2020_Feb_06_1320,spring_faces,3.1.5,60.162347976536445,
condition files/Stage1_1.xlsx,,B1,T2,c,"['c', 'm']","['Clue', 'Monopoly']","[-0.15, 0.5]","[0.15, 0.5]",1,1,,,,,,,,,0,2,2,2,0,3,3,1,,,,,,,,,,,,,,,,,,,,,,,,,,,,,,,,,,,,,,,,,,,,,,,,,,,,,,,471.13373474499895,None,471.13373474499895,None,471.13373474499895,None,m,0,2.6010406720015453,472.668217997998,None,472.668217997998,None,472.668217997998,None,475.33381899899905,None,475.33381899899905,None,475.33381899899905,None,475.33381899899905,None,,,,,,,,,,,,,,,,,,,,,,,,,,,,,,,,,,,,,,,,,,,,001,90,2020_Feb_06_1320,spring_faces,3.1.5,60.162347976536445,
condition files/Stage1_1.xlsx,,T1,B1,c,"['c', 'm']","['Clue', 'Monopoly']","[-0.15, 0.5]","[0.15, 0.5]",1,1,,,,,,,,,0,2,2,2,0,4,4,0,,,,,,,,,,,,,,,,,,,,,,,,,,,,,,,,,,,,,,,,,,,,,,,,,,,,,,,477.29987846199947,None,477.29987846199947,None,477.29987846199947,None,c,1,1.6186828589998186,478.8505634329995,None,478.8505634329995,None,478.8505634329995,None,480.53425210099886,None,480.53425210099886,None,480.53425210099886,None,480.53425210099886,None,,,,,,,,,,,,,,,,,,,,,,,,,,,,,,,,,,,,,,,,,,,,001,90,2020_Feb_06_1320,spring_faces,3.1.5,60.162347976536445,
condition files/Stage1_1.xlsx,,T4,B3,m,"['c', 'm']","['Clue', 'Monopoly']","[-0.15, 0.5]","[0.15, 0.5]",1,1,,,,,,,,,0,2,2,2,0,5,5,6,,,,,,,,,,,,,,,,,,,,,,,,,,,,,,,,,,,,,,,,,,,,,,,,,,,,,,,482.50025715099764,None,482.50025715099764,None,482.50025715099764,None,m,1,1.2839383879982051,484.03330463399834,None,484.03330463399834,None,484.03330463399834,None,485.36727522,None,485.36727522,None,485.36727522,None,485.36727522,None,,,,,,,,,,,,,,,,,,,,,,,,,,,,,,,,,,,,,,,,,,,,001,90,2020_Feb_06_1320,spring_faces,3.1.5,60.162347976536445,
condition files/Stage1_1.xlsx,,B4,T4,m,"['c', 'm']","['Clue', 'Monopoly']","[-0.15, 0.5]","[0.15, 0.5]",1,1,,,,,,,,,0,2,2,2,0,6,6,7,,,,,,,,,,,,,,,,,,,,,,,,,,,,,,,,,,,,,,,,,,,,,,,,,,,,,,,487.334111543998,None,487.334111543998,None,487.334111543998,None,c,0,3.585206678999384,488.8839682129983,None,488.8839682129983,None,488.8839682129983,None,492.5336546719991,None,492.5336546719991,None,492.5336546719991,None,492.5336546719991,None,,,,,,,,,,,,,,,,,,,,,,,,,,,,,,,,,,,,,,,,,,,,001,90,2020_Feb_06_1320,spring_faces,3.1.5,60.162347976536445,
condition files/Stage1_1.xlsx,,B2,T1,m,"['c', 'm']","['Clue', 'Monopoly']","[-0.15, 0.5]","[0.15, 0.5]",1,1,,,,,,,,,0,2,2,2,0,7,7,2,,,,,,,,,,,,,,,,,,,,,,,,,,,,,,,,,,,,,,,,,,,,,,,,,,,,,,,494.49993717399775,None,494.49993717399775,None,494.49993717399775,None,m,1,1.7130642070005706,496.0361915020003,None,496.0361915020003,None,496.0361915020003,None,497.8002219279988,None,497.8002219279988,None,497.8002219279988,None,497.8002219279988,None,,,,,,,,,,,,,,,,,,,,,,,,,,,,,,,,,,,,,,,,,,,,001,90,2020_Feb_06_1320,spring_faces,3.1.5,60.162347976536445,
condition files/Stage1_2.xlsx,,T4,B4,m,"['c', 'm']","['Clue', 'Monopoly']","[-0.15, 0.5]","[0.15, 0.5]",1,1,,,,,,,,,0,3,3,3,0,0,0,7,,,,,,,,,,,,,,,,,,,,,,,,,,,,,,,,,,,,,,,,,,,,,,,,,,,,,,,499.78388753299805,None,499.78388753299805,None,499.78388753299805,None,c,0,0.8157370720000472,501.3335141989992,None,501.3335141989992,None,501.3335141989992,None,502.2005786059999,None,502.2005786059999,None,502.2005786059999,None,502.2005786059999,None,,,,,,,,,,,,,,,,,,,,,,,,,,,,,,,,,,,,,,,,,,,,001,90,2020_Feb_06_1320,spring_faces,3.1.5,60.162347976536445,
condition files/Stage1_2.xlsx,,B4,T3,c,"['c', 'm']","['Clue', 'Monopoly']","[-0.15, 0.5]","[0.15, 0.5]",1,1,,,,,,,,,0,3,3,3,0,1,1,5,,,,,,,,,,,,,,,,,,,,,,,,,,,,,,,,,,,,,,,,,,,,,,,,,,,,,,,504.1671557769987,None,504.1671557769987,None,504.1671557769987,None,c,1,1.4885221699987596,505.700720154,None,505.700720154,None,505.700720154,None,507.2672557119986,None,507.2672557119986,None,507.2672557119986,None,507.2672557119986,None,,,,,,,,,,,,,,,,,,,,,,,,,,,,,,,,,,,,,,,,,,,,001,90,2020_Feb_06_1320,spring_faces,3.1.5,60.162347976536445,
condition files/Stage1_2.xlsx,,B1,T1,c,"['c', 'm']","['Clue', 'Monopoly']","[-0.15, 0.5]","[0.15, 0.5]",1,1,,,,,,,,,0,3,3,3,0,2,2,0,,,,,,,,,,,,,,,,,,,,,,,,,,,,,,,,,,,,,,,,,,,,,,,,,,,,,,,509.21709764099796,None,509.21709764099796,None,509.21709764099796,None,c,1,1.2209932350015151,510.7523229920007,None,510.7523229920007,None,510.7523229920007,None,512.0337487760007,None,512.0337487760007,None,512.0337487760007,None,512.0337487760007,None,,,,,,,,,,,,,,,,,,,,,,,,,,,,,,,,,,,,,,,,,,,,001,90,2020_Feb_06_1320,spring_faces,3.1.5,60.162347976536445,
condition files/Stage1_2.xlsx,,T1,B2,m,"['c', 'm']","['Clue', 'Monopoly']","[-0.15, 0.5]","[0.15, 0.5]",1,1,,,,,,,,,0,3,3,3,0,3,3,2,,,,,,,,,,,,,,,,,,,,,,,,,,,,,,,,,,,,,,,,,,,,,,,,,,,,,,,513.9997125169975,None,513.9997125169975,None,513.9997125169975,None,m,1,2.5347668139984307,515.5504720149984,None,515.5504720149984,None,515.5504720149984,None,518.1666855949989,None,518.1666855949989,None,518.1666855949989,None,518.1666855949989,None,,,,,,,,,,,,,,,,,,,,,,,,,,,,,,,,,,,,,,,,,,,,001,90,2020_Feb_06_1320,spring_faces,3.1.5,60.162347976536445,
condition files/Stage1_2.xlsx,,T3,B3,c,"['c', 'm']","['Clue', 'Monopoly']","[-0.15, 0.5]","[0.15, 0.5]",1,1,,,,,,,,,0,3,3,3,0,4,4,4,,,,,,,,,,,,,,,,,,,,,,,,,,,,,,,,,,,,,,,,,,,,,,,,,,,,,,,520.1170342799996,None,520.1170342799996,None,520.1170342799996,None,m,0,1.6965185170010955,521.6527327229996,None,521.6527327229996,None,521.6527327229996,None,523.4007302069986,None,523.4007302069986,None,523.4007302069986,None,523.4007302069986,None,,,,,,,,,,,,,,,,,,,,,,,,,,,,,,,,,,,,,,,,,,,,001,90,2020_Feb_06_1320,spring_faces,3.1.5,60.162347976536445,
condition files/Stage1_2.xlsx,,B3,T4,m,"['c', 'm']","['Clue', 'Monopoly']","[-0.15, 0.5]","[0.15, 0.5]",1,1,,,,,,,,,0,3,3,3,0,5,5,6,,,,,,,,,,,,,,,,,,,,,,,,,,,,,,,,,,,,,,,,,,,,,,,,,,,,,,,525.3666864449988,None,525.3666864449988,None,525.3666864449988,None,m,1,1.7767414869995264,526.9005621199976,None,526.9005621199976,None,526.9005621199976,None,528.7353713439988,None,528.7353713439988,None,528.7353713439988,None,528.7353713439988,None,,,,,,,,,,,,,,,,,,,,,,,,,,,,,,,,,,,,,,,,,,,,001,90,2020_Feb_06_1320,spring_faces,3.1.5,60.162347976536445,
condition files/Stage1_2.xlsx,,T2,B1,c,"['c', 'm']","['Clue', 'Monopoly']","[-0.15, 0.5]","[0.15, 0.5]",1,1,,,,,,,,,0,3,3,3,0,6,6,1,,,,,,,,,,,,,,,,,,,,,,,,,,,,,,,,,,,,,,,,,,,,,,,,,,,,,,,530.6999732660006,None,530.6999732660006,None,530.6999732660006,None,c,1,1.6253812850009126,532.2358230850004,None,532.2358230850004,None,532.2358230850004,None,533.9196686729993,None,533.9196686729993,None,533.9196686729993,None,533.9196686729993,None,,,,,,,,,,,,,,,,,,,,,,,,,,,,,,,,,,,,,,,,,,,,001,90,2020_Feb_06_1320,spring_faces,3.1.5,60.162347976536445,
condition files/Stage1_2.xlsx,,B2,T2,m,"['c', 'm']","['Clue', 'Monopoly']","[-0.15, 0.5]","[0.15, 0.5]",1,1,,,,,,,,,0,3,3,3,0,7,7,3,,,,,,,,,,,,,,,,,,,,,,,,,,,,,,,,,,,,,,,,,,,,,,,,,,,,,,,535.8830282220006,None,535.8830282220006,None,535.8830282220006,None,m,1,1.2444670920012868,537.4167517949973,None,537.4167517949973,None,537.4167517949973,None,538.7161965849991,None,538.7161965849991,None,538.7161965849991,None,538.7161965849991,None,,,,,,,,,,,,,,,,,,,,,,,,,,,,,,,,,,,,,,,,,,,,001,90,2020_Feb_06_1320,spring_faces,3.1.5,60.162347976536445,
condition files/Stage1_1.xlsx,,T1,B1,c,"['c', 'm']","['Clue', 'Monopoly']","[-0.15, 0.5]","[0.15, 0.5]",1,1,,,,,,,,,0,4,4,4,0,0,0,0,,,,,,,,,,,,,,,,,,,,,,,,,,,,,,,,,,,,,,,,,,,,,,,,,,,,,,,540.6999170870004,None,540.6999170870004,None,540.6999170870004,None,c,1,1.8508214870016673,542.2503683719988,None,542.2503683719988,None,542.2503683719988,None,544.1837489179998,None,544.1837489179998,None,544.1837489179998,None,544.1837489179998,None,,,,,,,,,,,,,,,,,,,,,,,,,,,,,,,,,,,,,,,,,,,,001,90,2020_Feb_06_1320,spring_faces,3.1.5,60.162347976536445,
condition files/Stage1_1.xlsx,,B2,T1,m,"['c', 'm']","['Clue', 'Monopoly']","[-0.15, 0.5]","[0.15, 0.5]",1,1,,,,,,,,,0,4,4,4,0,1,1,2,,,,,,,,,,,,,,,,,,,,,,,,,,,,,,,,,,,,,,,,,,,,,,,,,,,,,,,546.1329207380004,None,546.1329207380004,None,546.1329207380004,None,m,1,1.7453300819979631,547.6839121070007,None,547.6839121070007,None,547.6839121070007,None,549.4841551469981,None,549.4841551469981,None,549.4841551469981,None,549.4841551469981,None,,,,,,,,,,,,,,,,,,,,,,,,,,,,,,,,,,,,,,,,,,,,001,90,2020_Feb_06_1320,spring_faces,3.1.5,60.162347976536445,
condition files/Stage1_1.xlsx,,T4,B3,m,"['c', 'm']","['Clue', 'Monopoly']","[-0.15, 0.5]","[0.15, 0.5]",1,1,,,,,,,,,0,4,4,4,0,2,2,6,,,,,,,,,,,,,,,,,,,,,,,,,,,,,,,,,,,,,,,,,,,,,,,,,,,,,,,551.4499541379992,None,551.4499541379992,None,551.4499541379992,None,m,1,1.2604359420001856,552.9848082169992,None,552.9848082169992,None,552.9848082169992,None,554.3007276690005,None,554.3007276690005,None,554.3007276690005,None,554.3007276690005,None,,,,,,,,,,,,,,,,,,,,,,,,,,,,,,,,,,,,,,,,,,,,001,90,2020_Feb_06_1320,spring_faces,3.1.5,60.162347976536445,
condition files/Stage1_1.xlsx,,B3,T3,c,"['c', 'm']","['Clue', 'Monopoly']","[-0.15, 0.5]","[0.15, 0.5]",1,1,,,,,,,,,0,4,4,4,0,3,3,4,,,,,,,,,,,,,,,,,,,,,,,,,,,,,,,,,,,,,,,,,,,,,,,,,,,,,,,556.2668637699971,None,556.2668637699971,None,556.2668637699971,None,m,0,2.4908926209973288,557.8023198779993,None,557.8023198779993,None,557.8023198779993,None,560.3529655130005,None,560.3529655130005,None,560.3529655130005,None,560.3529655130005,None,,,,,,,,,,,,,,,,,,,,,,,,,,,,,,,,,,,,,,,,,,,,001,90,2020_Feb_06_1320,spring_faces,3.1.5,60.162347976536445,
condition files/Stage1_1.xlsx,,B4,T4,m,"['c', 'm']","['Clue', 'Monopoly']","[-0.15, 0.5]","[0.15, 0.5]",1,1,,,,,,,,,0,4,4,4,0,4,4,7,,,,,,,,,,,,,,,,,,,,,,,,,,,,,,,,,,,,,,,,,,,,,,,,,,,,,,,562.3169755870003,None,562.3169755870003,None,562.3169755870003,None,c,0,1.5617054129979806,563.8515546369999,None,563.8515546369999,None,563.8515546369999,None,565.4835783239978,None,565.4835783239978,None,565.4835783239978,None,565.4835783239978,None,,,,,,,,,,,,,,,,,,,,,,,,,,,,,,,,,,,,,,,,,,,,001,90,2020_Feb_06_1320,spring_faces,3.1.5,60.162347976536445,
condition files/Stage1_1.xlsx,,B1,T2,c,"['c', 'm']","['Clue', 'Monopoly']","[-0.15, 0.5]","[0.15, 0.5]",1,1,,,,,,,,,0,4,4,4,0,5,5,1,,,,,,,,,,,,,,,,,,,,,,,,,,,,,,,,,,,,,,,,,,,,,,,,,,,,,,,567.4330775399976,None,567.4330775399976,None,567.4330775399976,None,c,1,2.3011463250004454,568.9681057609996,None,568.9681057609996,None,568.9681057609996,None,571.3358078780002,None,571.3358078780002,None,571.3358078780002,None,571.3358078780002,None,,,,,,,,,,,,,,,,,,,,,,,,,,,,,,,,,,,,,,,,,,,,001,90,2020_Feb_06_1320,spring_faces,3.1.5,60.162347976536445,
condition files/Stage1_1.xlsx,,T3,B4,c,"['c', 'm']","['Clue', 'Monopoly']","[-0.15, 0.5]","[0.15, 0.5]",1,1,,,,,,,,,0,4,4,4,0,6,6,5,,,,,,,,,,,,,,,,,,,,,,,,,,,,,,,,,,,,,,,,,,,,,,,,,,,,,,,573.2997704059999,None,573.2997704059999,None,573.2997704059999,None,c,1,2.129666916000133,574.8355892279978,None,574.8355892279978,None,574.8355892279978,None,577.0173660949986,None,577.0173660949986,None,577.0173660949986,None,577.0173660949986,None,,,,,,,,,,,,,,,,,,,,,,,,,,,,,,,,,,,,,,,,,,,,001,90,2020_Feb_06_1320,spring_faces,3.1.5,60.162347976536445,
condition files/Stage1_1.xlsx,,T2,B2,m,"['c', 'm']","['Clue', 'Monopoly']","[-0.15, 0.5]","[0.15, 0.5]",1,1,,,,,,,,,0,4,4,4,0,7,7,3,,,,,,,,,,,,,,,,,,,,,,,,,,,,,,,,,,,,,,,,,,,,,,,,,,,,,,,578.9830833329979,None,578.9830833329979,None,578.9830833329979,None,c,0,1.7112116899988905,580.5339534349987,None,580.5339534349987,None,580.5339534349987,None,582.3173993819983,None,582.3173993819983,None,582.3173993819983,None,582.3173993819983,None,,,,,,,,,,,,,,,,,,,,,,,,,,,,,,,,,,,,,,,,,,,,001,90,2020_Feb_06_1320,spring_faces,3.1.5,60.162347976536445,
condition files/Stage1_2.xlsx,,B4,T3,c,"['c', 'm']","['Clue', 'Monopoly']","[-0.15, 0.5]","[0.15, 0.5]",1,1,,,,,,,,,0,5,5,5,0,0,0,5,,,,,,,,,,,,,,,,,,,,,,,,,,,,,,,,,,,,,,,,,,,,,,,,,,,,,,,584.2839825049996,None,584.2839825049996,None,584.2839825049996,None,c,1,1.8034032979994663,585.8338482170002,None,585.8338482170002,None,585.8338482170002,None,587.7023627439994,None,587.7023627439994,None,587.7023627439994,None,587.7023627439994,None,,,,,,,,,,,,,,,,,,,,,,,,,,,,,,,,,,,,,,,,,,,,001,90,2020_Feb_06_1320,spring_faces,3.1.5,60.162347976536445,
condition files/Stage1_2.xlsx,,B1,T1,c,"['c', 'm']","['Clue', 'Monopoly']","[-0.15, 0.5]","[0.15, 0.5]",1,1,,,,,,,,,0,5,5,5,0,1,1,0,,,,,,,,,,,,,,,,,,,,,,,,,,,,,,,,,,,,,,,,,,,,,,,,,,,,,,,589.6662190549978,None,589.6662190549978,None,589.6662190549978,None,c,1,1.636170147001394,591.2170900469973,None,591.2170900469973,None,591.2170900469973,None,592.9168694949985,None,592.9168694949985,None,592.9168694949985,None,592.9168694949985,None,,,,,,,,,,,,,,,,,,,,,,,,,,,,,,,,,,,,,,,,,,,,001,90,2020_Feb_06_1320,spring_faces,3.1.5,60.162347976536445,
condition files/Stage1_2.xlsx,,T3,B3,c,"['c', 'm']","['Clue', 'Monopoly']","[-0.15, 0.5]","[0.15, 0.5]",1,1,,,,,,,,,0,5,5,5,0,2,2,4,,,,,,,,,,,,,,,,,,,,,,,,,,,,,,,,,,,,,,,,,,,,,,,,,,,,,,,594.8835327779998,None,594.8835327779998,None,594.8835327779998,None,m,0,1.444217824999214,596.4170065929975,None,596.4170065929975,None,596.4170065929975,None,597.9173554879999,None,597.9173554879999,None,597.9173554879999,None,597.9173554879999,None,,,,,,,,,,,,,,,,,,,,,,,,,,,,,,,,,,,,,,,,,,,,001,90,2020_Feb_06_1320,spring_faces,3.1.5,60.162347976536445,
condition files/Stage1_2.xlsx,,B2,T2,m,"['c', 'm']","['Clue', 'Monopoly']","[-0.15, 0.5]","[0.15, 0.5]",1,1,,,,,,,,,0,5,5,5,0,3,3,3,,,,,,,,,,,,,,,,,,,,,,,,,,,,,,,,,,,,,,,,,,,,,,,,,,,,,,,599.8835338369972,None,599.8835338369972,None,599.8835338369972,None,m,1,1.6762075619990355,601.4169945239992,None,601.4169945239992,None,601.4169945239992,None,603.1667170029978,None,603.1667170029978,None,603.1667170029978,None,603.1667170029978,None,,,,,,,,,,,,,,,,,,,,,,,,,,,,,,,,,,,,,,,,,,,,001,90,2020_Feb_06_1320,spring_faces,3.1.5,60.162347976536445,
condition files/Stage1_2.xlsx,,T1,B2,m,"['c', 'm']","['Clue', 'Monopoly']","[-0.15, 0.5]","[0.15, 0.5]",1,1,,,,,,,,,0,5,5,5,0,4,4,2,,,,,,,,,,,,,,,,,,,,,,,,,,,,,,,,,,,,,,,,,,,,,,,,,,,,,,,605.1167872709993,None,605.1167872709993,None,605.1167872709993,None,m,1,2.074029087998497,606.6672812500001,None,606.6672812500001,None,606.6672812500001,None,608.7998029049995,None,608.7998029049995,None,608.7998029049995,None,608.7998029049995,None,,,,,,,,,,,,,,,,,,,,,,,,,,,,,,,,,,,,,,,,,,,,001,90,2020_Feb_06_1320,spring_faces,3.1.5,60.162347976536445,
condition files/Stage1_2.xlsx,,B3,T4,m,"['c', 'm']","['Clue', 'Monopoly']","[-0.15, 0.5]","[0.15, 0.5]",1,1,,,,,,,,,0,5,5,5,0,5,5,6,,,,,,,,,,,,,,,,,,,,,,,,,,,,,,,,,,,,,,,,,,,,,,,,,,,,,,,610.7672376209994,None,610.7672376209994,None,610.7672376209994,None,m,1,1.5439809140007128,612.3012606470002,None,612.3012606470002,None,612.3012606470002,None,613.9005254359981,None,613.9005254359981,None,613.9005254359981,None,613.9005254359981,None,,,,,,,,,,,,,,,,,,,,,,,,,,,,,,,,,,,,,,,,,,,,001,90,2020_Feb_06_1320,spring_faces,3.1.5,60.162347976536445,
condition files/Stage1_2.xlsx,,T4,B4,m,"['c', 'm']","['Clue', 'Monopoly']","[-0.15, 0.5]","[0.15, 0.5]",1,1,,,,,,,,,0,5,5,5,0,6,6,7,,,,,,,,,,,,,,,,,,,,,,,,,,,,,,,,,,,,,,,,,,,,,,,,,,,,,,,615.8666772219985,None,615.8666772219985,None,615.8666772219985,None,m,1,1.8527481720011565,617.4164923659991,None,617.4164923659991,None,617.4164923659991,None,619.3341082439983,None,619.3341082439983,None,619.3341082439983,None,619.3341082439983,None,,,,,,,,,,,,,,,,,,,,,,,,,,,,,,,,,,,,,,,,,,,,001,90,2020_Feb_06_1320,spring_faces,3.1.5,60.162347976536445,
condition files/Stage1_2.xlsx,,T2,B1,c,"['c', 'm']","['Clue', 'Monopoly']","[-0.15, 0.5]","[0.15, 0.5]",1,1,,,,,,,,,0,5,5,5,0,7,7,1,,,,,,,,,,,,,,,,,,,,,,,,,,,,,,,,,,,,,,,,,,,,,,,,,,,,,,,621.3002056250007,None,621.3002056250007,None,621.3002056250007,None,c,1,1.9068472190010652,622.8504606909992,None,622.8504606909992,None,622.8504606909992,None,624.833841615,None,624.833841615,None,624.833841615,None,624.833841615,None,,,,,,,,,,,,,,,,,,,,,,,,,,,,,,,,,,,,,,,,,,,,001,90,2020_Feb_06_1320,spring_faces,3.1.5,60.162347976536445,
condition files/Stage1_1.xlsx,,B2,T1,m,"['c', 'm']","['Clue', 'Monopoly']","[-0.15, 0.5]","[0.15, 0.5]",1,1,,,,,,,,,0,6,6,6,0,0,0,2,,,,,,,,,,,,,,,,,,,,,,,,,,,,,,,,,,,,,,,,,,,,,,,,,,,,,,,626.800602465999,None,626.800602465999,None,626.800602465999,None,m,1,0.9677378460000909,628.3334976879996,None,628.3334976879996,None,628.3334976879996,None,629.3667943330001,None,629.3667943330001,None,629.3667943330001,None,629.3667943330001,None,,,,,,,,,,,,,,,,,,,,,,,,,,,,,,,,,,,,,,,,,,,,001,90,2020_Feb_06_1320,spring_faces,3.1.5,60.162347976536445,
condition files/Stage1_1.xlsx,,T3,B4,c,"['c', 'm']","['Clue', 'Monopoly']","[-0.15, 0.5]","[0.15, 0.5]",1,1,,,,,,,,,0,6,6,6,0,1,1,5,,,,,,,,,,,,,,,,,,,,,,,,,,,,,,,,,,,,,,,,,,,,,,,,,,,,,,,631.3335957550007,None,631.3335957550007,None,631.3335957550007,None,m,0,2.098108926998975,632.8671474410003,None,632.8671474410003,None,632.8671474410003,None,635.0182013470003,None,635.0182013470003,None,635.0182013470003,None,635.0182013470003,None,,,,,,,,,,,,,,,,,,,,,,,,,,,,,,,,,,,,,,,,,,,,001,90,2020_Feb_06_1320,spring_faces,3.1.5,60.162347976536445,
condition files/Stage1_1.xlsx,,T2,B2,m,"['c', 'm']","['Clue', 'Monopoly']","[-0.15, 0.5]","[0.15, 0.5]",1,1,,,,,,,,,0,6,6,6,0,2,2,3,,,,,,,,,,,,,,,,,,,,,,,,,,,,,,,,,,,,,,,,,,,,,,,,,,,,,,,636.9834867919999,None,636.9834867919999,None,636.9834867919999,None,m,1,1.7583288539972273,638.5189898379977,None,638.5189898379977,None,638.5189898379977,None,640.350523451998,None,640.350523451998,None,640.350523451998,None,640.350523451998,None,,,,,,,,,,,,,,,,,,,,,,,,,,,,,,,,,,,,,,,,,,,,001,90,2020_Feb_06_1320,spring_faces,3.1.5,60.162347976536445,
condition files/Stage1_1.xlsx,,B3,T3,c,"['c', 'm']","['Clue', 'Monopoly']","[-0.15, 0.5]","[0.15, 0.5]",1,1,,,,,,,,,0,6,6,6,0,3,3,4,,,,,,,,,,,,,,,,,,,,,,,,,,,,,,,,,,,,,,,,,,,,,,,,,,,,,,,642.299987254999,None,642.299987254999,None,642.299987254999,None,c,1,1.9624480800011952,643.8347215609974,None,643.8347215609974,None,643.8347215609974,None,645.850335490999,None,645.850335490999,None,645.850335490999,None,645.850335490999,None,,,,,,,,,,,,,,,,,,,,,,,,,,,,,,,,,,,,,,,,,,,,001,90,2020_Feb_06_1320,spring_faces,3.1.5,60.162347976536445,
condition files/Stage1_1.xlsx,,T1,B1,c,"['c', 'm']","['Clue', 'Monopoly']","[-0.15, 0.5]","[0.15, 0.5]",1,1,,,,,,,,,0,6,6,6,0,4,4,0,,,,,,,,,,,,,,,,,,,,,,,,,,,,,,,,,,,,,,,,,,,,,,,,,,,,,,,647.8166896399998,None,647.8166896399998,None,647.8166896399998,None,c,1,2.142104881000705,649.3672077369993,None,649.3672077369993,None,649.3672077369993,None,651.5668079200004,None,651.5668079200004,None,651.5668079200004,None,651.5668079200004,None,,,,,,,,,,,,,,,,,,,,,,,,,,,,,,,,,,,,,,,,,,,,001,90,2020_Feb_06_1320,spring_faces,3.1.5,60.162347976536445,
condition files/Stage1_1.xlsx,,B1,T2,c,"['c', 'm']","['Clue', 'Monopoly']","[-0.15, 0.5]","[0.15, 0.5]",1,1,,,,,,,,,0,6,6,6,0,5,5,1,,,,,,,,,,,,,,,,,,,,,,,,,,,,,,,,,,,,,,,,,,,,,,,,,,,,,,,653.5330510499989,None,653.5330510499989,None,653.5330510499989,None,c,1,1.6905957929993747,655.0667489929983,None,655.0667489929983,None,655.0667489929983,None,656.817039652,None,656.817039652,None,656.817039652,None,656.817039652,None,,,,,,,,,,,,,,,,,,,,,,,,,,,,,,,,,,,,,,,,,,,,001,90,2020_Feb_06_1320,spring_faces,3.1.5,60.162347976536445,
condition files/Stage1_1.xlsx,,T4,B3,m,"['c', 'm']","['Clue', 'Monopoly']","[-0.15, 0.5]","[0.15, 0.5]",1,1,,,,,,,,,0,6,6,6,0,6,6,6,,,,,,,,,,,,,,,,,,,,,,,,,,,,,,,,,,,,,,,,,,,,,,,,,,,,,,,658.7835685520004,None,658.7835685520004,None,658.7835685520004,None,m,1,0.9351932490026229,660.334058982,None,660.334058982,None,660.334058982,None,661.3333375839975,None,661.3333375839975,None,661.3333375839975,None,661.3333375839975,None,,,,,,,,,,,,,,,,,,,,,,,,,,,,,,,,,,,,,,,,,,,,001,90,2020_Feb_06_1320,spring_faces,3.1.5,60.162347976536445,
condition files/Stage1_1.xlsx,,B4,T4,m,"['c', 'm']","['Clue', 'Monopoly']","[-0.15, 0.5]","[0.15, 0.5]",1,1,,,,,,,,,0,6,6,6,0,7,7,7,,,,,,,,,,,,,,,,,,,,,,,,,,,,,,,,,,,,,,,,,,,,,,,,,,,,,,,663.3002101109996,None,663.3002101109996,None,663.3002101109996,None,c,0,2.9957306750002317,664.8334937750005,None,664.8334937750005,None,664.8334937750005,None,667.8836529509972,None,667.8836529509972,None,667.8836529509972,None,667.8836529509972,None,,,,,,,,,,,,,,,,,,,,,,,,,,,,,,,,,,,,,,,,,,,,001,90,2020_Feb_06_1320,spring_faces,3.1.5,60.162347976536445,
condition files/Stage1_2.xlsx,,B4,T3,c,"['c', 'm']","['Clue', 'Monopoly']","[-0.15, 0.5]","[0.15, 0.5]",1,1,,,,,,,,,0,7,7,7,0,0,0,5,,,,,,,,,,,,,,,,,,,,,,,,,,,,,,,,,,,,,,,,,,,,,,,,,,,,,,,669.8669705920001,None,669.8669705920001,None,669.8669705920001,None,c,1,1.9323418809981376,671.4169091179974,None,671.4169091179974,None,671.4169091179974,None,673.4166448049982,None,673.4166448049982,None,673.4166448049982,None,673.4166448049982,None,,,,,,,,,,,,,,,,,,,,,,,,,,,,,,,,,,,,,,,,,,,,001,90,2020_Feb_06_1320,spring_faces,3.1.5,60.162347976536445,
condition files/Stage1_2.xlsx,,T1,B2,m,"['c', 'm']","['Clue', 'Monopoly']","[-0.15, 0.5]","[0.15, 0.5]",1,1,,,,,,,,,0,7,7,7,0,1,1,2,,,,,,,,,,,,,,,,,,,,,,,,,,,,,,,,,,,,,,,,,,,,,,,,,,,,,,,675.3664413379993,None,675.3664413379993,None,675.3664413379993,None,m,1,0.9282877769983315,676.9169538349997,None,676.9169538349997,None,676.9169538349997,None,677.9171716389974,None,677.9171716389974,None,677.9171716389974,None,677.9171716389974,None,,,,,,,,,,,,,,,,,,,,,,,,,,,,,,,,,,,,,,,,,,,,001,90,2020_Feb_06_1320,spring_faces,3.1.5,60.162347976536445,
condition files/Stage1_2.xlsx,,T3,B3,c,"['c', 'm']","['Clue', 'Monopoly']","[-0.15, 0.5]","[0.15, 0.5]",1,1,,,,,,,,,0,7,7,7,0,2,2,4,,,,,,,,,,,,,,,,,,,,,,,,,,,,,,,,,,,,,,,,,,,,,,,,,,,,,,,679.8669129549999,None,679.8669129549999,None,679.8669129549999,None,c,1,1.5160431770018477,681.4172054739975,None,681.4172054739975,None,681.4172054739975,None,682.9855630989987,None,682.9855630989987,None,682.9855630989987,None,682.9855630989987,None,,,,,,,,,,,,,,,,,,,,,,,,,,,,,,,,,,,,,,,,,,,,001,90,2020_Feb_06_1320,spring_faces,3.1.5,60.162347976536445,
condition files/Stage1_2.xlsx,,T4,B4,m,"['c', 'm']","['Clue', 'Monopoly']","[-0.15, 0.5]","[0.15, 0.5]",1,1,,,,,,,,,0,7,7,7,0,3,3,7,,,,,,,,,,,,,,,,,,,,,,,,,,,,,,,,,,,,,,,,,,,,,,,,,,,,,,,684.950298814998,None,684.950298814998,None,684.950298814998,None,m,1,1.3919426819993532,686.4853805409984,None,686.4853805409984,None,686.4853805409984,None,687.9348782199995,None,687.9348782199995,None,687.9348782199995,None,687.9348782199995,None,,,,,,,,,,,,,,,,,,,,,,,,,,,,,,,,,,,,,,,,,,,,001,90,2020_Feb_06_1320,spring_faces,3.1.5,60.162347976536445,
condition files/Stage1_2.xlsx,,T2,B1,c,"['c', 'm']","['Clue', 'Monopoly']","[-0.15, 0.5]","[0.15, 0.5]",1,1,,,,,,,,,0,7,7,7,0,4,4,1,,,,,,,,,,,,,,,,,,,,,,,,,,,,,,,,,,,,,,,,,,,,,,,,,,,,,,,689.900262056999,None,689.900262056999,None,689.900262056999,None,c,1,1.1462843109984533,691.4349715429998,None,691.4349715429998,None,691.4349715429998,None,692.6508062229987,None,692.6508062229987,None,692.6508062229987,None,692.6508062229987,None,,,,,,,,,,,,,,,,,,,,,,,,,,,,,,,,,,,,,,,,,,,,001,90,2020_Feb_06_1320,spring_faces,3.1.5,60.162347976536445,
condition files/Stage1_2.xlsx,,B3,T4,m,"['c', 'm']","['Clue', 'Monopoly']","[-0.15, 0.5]","[0.15, 0.5]",1,1,,,,,,,,,0,7,7,7,0,5,5,6,,,,,,,,,,,,,,,,,,,,,,,,,,,,,,,,,,,,,,,,,,,,,,,,,,,,,,,694.5996541569984,None,694.5996541569984,None,694.5996541569984,None,m,1,1.4395157180006208,696.1337966699975,None,696.1337966699975,None,696.1337966699975,None,697.6339242849972,None,697.6339242849972,None,697.6339242849972,None,697.6339242849972,None,,,,,,,,,,,,,,,,,,,,,,,,,,,,,,,,,,,,,,,,,,,,001,90,2020_Feb_06_1320,spring_faces,3.1.5,60.162347976536445,
condition files/Stage1_2.xlsx,,B2,T2,m,"['c', 'm']","['Clue', 'Monopoly']","[-0.15, 0.5]","[0.15, 0.5]",1,1,,,,,,,,,0,7,7,7,0,6,6,3,,,,,,,,,,,,,,,,,,,,,,,,,,,,,,,,,,,,,,,,,,,,,,,,,,,,,,,699.600279192,None,699.600279192,None,699.600279192,None,m,1,1.2705166289997578,701.1507477399973,None,701.1507477399973,None,701.1507477399973,None,702.4834645089977,None,702.4834645089977,None,702.4834645089977,None,702.4834645089977,None,,,,,,,,,,,,,,,,,,,,,,,,,,,,,,,,,,,,,,,,,,,,001,90,2020_Feb_06_1320,spring_faces,3.1.5,60.162347976536445,
condition files/Stage1_2.xlsx,,B1,T1,c,"['c', 'm']","['Clue', 'Monopoly']","[-0.15, 0.5]","[0.15, 0.5]",1,1,,,,,,,,,0,7,7,7,0,7,7,0,,,,,,,,,,,,,,,,,,,,,,,,,,,,,,,,,,,,,,,,,,,,,,,,,,,,,,,704.4503353019973,None,704.4503353019973,None,704.4503353019973,None,c,1,1.363511836003454,705.9857349979975,None,705.9857349979975,None,705.9857349979975,None,707.416981866998,None,707.416981866998,None,707.416981866998,None,707.416981866998,None,,,,,,,,,,,,,,,,,,,,,,,,,,,,,,,,,,,,,,,,,,,,001,90,2020_Feb_06_1320,spring_faces,3.1.5,60.162347976536445,
condition files/Stage1_1.xlsx,,T2,B2,m,"['c', 'm']","['Clue', 'Monopoly']","[-0.15, 0.5]","[0.15, 0.5]",1,1,,,,,,,,,0,8,8,8,0,0,0,3,,,,,,,,,,,,,,,,,,,,,,,,,,,,,,,,,,,,,,,,,,,,,,,,,,,,,,,709.3837523879993,None,709.3837523879993,None,709.3837523879993,None,m,1,2.367012208000233,710.9182530699982,None,710.9182530699982,None,710.9182530699982,None,713.3672541329979,None,713.3672541329979,None,713.3672541329979,None,713.3672541329979,None,,,,,,,,,,,,,,,,,,,,,,,,,,,,,,,,,,,,,,,,,,,,001,90,2020_Feb_06_1320,spring_faces,3.1.5,60.162347976536445,
condition files/Stage1_1.xlsx,,T4,B3,m,"['c', 'm']","['Clue', 'Monopoly']","[-0.15, 0.5]","[0.15, 0.5]",1,1,,,,,,,,,0,8,8,8,0,1,1,6,,,,,,,,,,,,,,,,,,,,,,,,,,,,,,,,,,,,,,,,,,,,,,,,,,,,,,,715.3168308299973,None,715.3168308299973,None,715.3168308299973,None,m,1,1.2350893830007408,716.8500764529999,None,716.8500764529999,None,716.8500764529999,None,718.1499718129999,None,718.1499718129999,None,718.1499718129999,None,718.1499718129999,None,,,,,,,,,,,,,,,,,,,,,,,,,,,,,,,,,,,,,,,,,,,,001,90,2020_Feb_06_1320,spring_faces,3.1.5,60.162347976536445,
condition files/Stage1_1.xlsx,,T1,B1,c,"['c', 'm']","['Clue', 'Monopoly']","[-0.15, 0.5]","[0.15, 0.5]",1,1,,,,,,,,,0,8,8,8,0,2,2,0,,,,,,,,,,,,,,,,,,,,,,,,,,,,,,,,,,,,,,,,,,,,,,,,,,,,,,,720.1170485000002,None,720.1170485000002,None,720.1170485000002,None,c,1,0.8347452260022692,721.6504753379995,None,721.6504753379995,None,721.6504753379995,None,722.5530581610001,None,722.5530581610001,None,722.5530581610001,None,722.5530581610001,None,,,,,,,,,,,,,,,,,,,,,,,,,,,,,,,,,,,,,,,,,,,,001,90,2020_Feb_06_1320,spring_faces,3.1.5,60.162347976536445,
condition files/Stage1_1.xlsx,,B3,T3,c,"['c', 'm']","['Clue', 'Monopoly']","[-0.15, 0.5]","[0.15, 0.5]",1,1,,,,,,,,,0,8,8,8,0,3,3,4,,,,,,,,,,,,,,,,,,,,,,,,,,,,,,,,,,,,,,,,,,,,,,,,,,,,,,,724.5167810669991,None,724.5167810669991,None,724.5167810669991,None,c,1,2.2586612819977745,726.0506614429978,None,726.0506614429978,None,726.0506614429978,None,728.3675218239987,None,728.3675218239987,None,728.3675218239987,None,728.3675218239987,None,,,,,,,,,,,,,,,,,,,,,,,,,,,,,,,,,,,,,,,,,,,,001,90,2020_Feb_06_1320,spring_faces,3.1.5,60.162347976536445,
condition files/Stage1_1.xlsx,,T3,B4,c,"['c', 'm']","['Clue', 'Monopoly']","[-0.15, 0.5]","[0.15, 0.5]",1,1,,,,,,,,,0,8,8,8,0,4,4,5,,,,,,,,,,,,,,,,,,,,,,,,,,,,,,,,,,,,,,,,,,,,,,,,,,,,,,,730.3333080999982,None,730.3333080999982,None,730.3333080999982,None,c,1,1.5444863240009,731.8687813379984,None,731.8687813379984,None,731.8687813379984,None,733.4667158150005,None,733.4667158150005,None,733.4667158150005,None,733.4667158150005,None,,,,,,,,,,,,,,,,,,,,,,,,,,,,,,,,,,,,,,,,,,,,001,90,2020_Feb_06_1320,spring_faces,3.1.5,60.162347976536445,
condition files/Stage1_1.xlsx,,B4,T4,m,"['c', 'm']","['Clue', 'Monopoly']","[-0.15, 0.5]","[0.15, 0.5]",1,1,,,,,,,,,0,8,8,8,0,5,5,7,,,,,,,,,,,,,,,,,,,,,,,,,,,,,,,,,,,,,,,,,,,,,,,,,,,,,,,735.4330969809998,None,735.4330969809998,None,735.4330969809998,None,m,1,0.9421234830006142,736.9831871179995,None,736.9831871179995,None,736.9831871179995,None,738.0005804020002,None,738.0005804020002,None,738.0005804020002,None,738.0005804020002,None,,,,,,,,,,,,,,,,,,,,,,,,,,,,,,,,,,,,,,,,,,,,001,90,2020_Feb_06_1320,spring_faces,3.1.5,60.162347976536445,
condition files/Stage1_1.xlsx,,B1,T2,c,"['c', 'm']","['Clue', 'Monopoly']","[-0.15, 0.5]","[0.15, 0.5]",1,1,,,,,,,,,0,8,8,8,0,6,6,1,,,,,,,,,,,,,,,,,,,,,,,,,,,,,,,,,,,,,,,,,,,,,,,,,,,,,,,739.9496338600002,None,739.9496338600002,None,739.9496338600002,None,c,1,1.2568711370004166,741.4844615319998,None,741.4844615319998,None,741.4844615319998,None,742.8171523889978,None,742.8171523889978,None,742.8171523889978,None,742.8171523889978,None,,,,,,,,,,,,,,,,,,,,,,,,,,,,,,,,,,,,,,,,,,,,001,90,2020_Feb_06_1320,spring_faces,3.1.5,60.162347976536445,
condition files/Stage1_1.xlsx,,B2,T1,m,"['c', 'm']","['Clue', 'Monopoly']","[-0.15, 0.5]","[0.15, 0.5]",1,1,,,,,,,,,0,8,8,8,0,7,7,2,,,,,,,,,,,,,,,,,,,,,,,,,,,,,,,,,,,,,,,,,,,,,,,,,,,,,,,744.7663850089994,None,744.7663850089994,None,744.7663850089994,None,m,1,1.3040406129985058,746.3172185629992,None,746.3172185629992,None,746.3172185629992,None,747.6860197019996,None,747.6860197019996,None,747.6860197019996,None,747.6860197019996,None,,,,,,,,,,,,,,,,,,,,,,,,,,,,,,,,,,,,,,,,,,,,001,90,2020_Feb_06_1320,spring_faces,3.1.5,60.162347976536445,
condition files/Stage1_2.xlsx,,T2,B1,c,"['c', 'm']","['Clue', 'Monopoly']","[-0.15, 0.5]","[0.15, 0.5]",1,1,,,,,,,,,0,9,9,9,0,0,0,1,,,,,,,,,,,,,,,,,,,,,,,,,,,,,,,,,,,,,,,,,,,,,,,,,,,,,,,749.667059129999,None,749.667059129999,None,749.667059129999,None,c,1,1.2829821790001006,751.2022894740003,None,751.2022894740003,None,751.2022894740003,None,752.5509071140004,None,752.5509071140004,None,752.5509071140004,None,752.5509071140004,None,,,,,,,,,,,,,,,,,,,,,,,,,,,,,,,,,,,,,,,,,,,,001,90,2020_Feb_06_1320,spring_faces,3.1.5,60.162347976536445,
condition files/Stage1_2.xlsx,,T3,B3,c,"['c', 'm']","['Clue', 'Monopoly']","[-0.15, 0.5]","[0.15, 0.5]",1,1,,,,,,,,,0,9,9,9,0,1,1,4,,,,,,,,,,,,,,,,,,,,,,,,,,,,,,,,,,,,,,,,,,,,,,,,,,,,,,,754.5173462239982,None,754.5173462239982,None,754.5173462239982,None,c,1,1.6512087509981939,756.0500126369989,None,756.0500126369989,None,756.0500126369989,None,757.7673510349996,None,757.7673510349996,None,757.7673510349996,None,757.7673510349996,None,,,,,,,,,,,,,,,,,,,,,,,,,,,,,,,,,,,,,,,,,,,,001,90,2020_Feb_06_1320,spring_faces,3.1.5,60.162347976536445,
condition files/Stage1_2.xlsx,,B2,T2,m,"['c', 'm']","['Clue', 'Monopoly']","[-0.15, 0.5]","[0.15, 0.5]",1,1,,,,,,,,,0,9,9,9,0,2,2,3,,,,,,,,,,,,,,,,,,,,,,,,,,,,,,,,,,,,,,,,,,,,,,,,,,,,,,,759.7336671480007,None,759.7336671480007,None,759.7336671480007,None,m,1,1.1535989500007418,761.2676302919972,None,761.2676302919972,None,761.2676302919972,None,762.4851798109994,None,762.4851798109994,None,762.4851798109994,None,762.4851798109994,None,,,,,,,,,,,,,,,,,,,,,,,,,,,,,,,,,,,,,,,,,,,,001,90,2020_Feb_06_1320,spring_faces,3.1.5,60.162347976536445,
condition files/Stage1_2.xlsx,,B3,T4,m,"['c', 'm']","['Clue', 'Monopoly']","[-0.15, 0.5]","[0.15, 0.5]",1,1,,,,,,,,,0,9,9,9,0,3,3,6,,,,,,,,,,,,,,,,,,,,,,,,,,,,,,,,,,,,,,,,,,,,,,,,,,,,,,,764.4504779279996,None,764.4504779279996,None,764.4504779279996,None,m,1,1.0918785180001578,765.9854438759976,None,765.9854438759976,None,765.9854438759976,None,767.1338854009991,None,767.1338854009991,None,767.1338854009991,None,767.1338854009991,None,,,,,,,,,,,,,,,,,,,,,,,,,,,,,,,,,,,,,,,,,,,,001,90,2020_Feb_06_1320,spring_faces,3.1.5,60.162347976536445,
condition files/Stage1_2.xlsx,,B1,T1,c,"['c', 'm']","['Clue', 'Monopoly']","[-0.15, 0.5]","[0.15, 0.5]",1,1,,,,,,,,,0,9,9,9,0,4,4,0,,,,,,,,,,,,,,,,,,,,,,,,,,,,,,,,,,,,,,,,,,,,,,,,,,,,,,,769.1002012489989,None,769.1002012489989,None,769.1002012489989,None,c,1,1.4654651499986358,770.6357451939984,None,770.6357451939984,None,770.6357451939984,None,772.1839332540003,None,772.1839332540003,None,772.1839332540003,None,772.1839332540003,None,,,,,,,,,,,,,,,,,,,,,,,,,,,,,,,,,,,,,,,,,,,,001,90,2020_Feb_06_1320,spring_faces,3.1.5,60.162347976536445,
condition files/Stage1_2.xlsx,,T4,B4,m,"['c', 'm']","['Clue', 'Monopoly']","[-0.15, 0.5]","[0.15, 0.5]",1,1,,,,,,,,,0,9,9,9,0,5,5,7,,,,,,,,,,,,,,,,,,,,,,,,,,,,,,,,,,,,,,,,,,,,,,,,,,,,,,,774.1337664409984,None,774.1337664409984,None,774.1337664409984,None,m,1,1.456240475999948,775.6690760599995,None,775.6690760599995,None,775.6690760599995,None,777.1834298680005,None,777.1834298680005,None,777.1834298680005,None,777.1834298680005,None,,,,,,,,,,,,,,,,,,,,,,,,,,,,,,,,,,,,,,,,,,,,001,90,2020_Feb_06_1320,spring_faces,3.1.5,60.162347976536445,
condition files/Stage1_2.xlsx,,T1,B2,m,"['c', 'm']","['Clue', 'Monopoly']","[-0.15, 0.5]","[0.15, 0.5]",1,1,,,,,,,,,0,9,9,9,0,6,6,2,,,,,,,,,,,,,,,,,,,,,,,,,,,,,,,,,,,,,,,,,,,,,,,,,,,,,,,779.1502241179987,None,779.1502241179987,None,779.1502241179987,None,m,1,1.5609074200001487,780.7003452879981,None,780.7003452879981,None,780.7003452879981,None,782.3175856109992,None,782.3175856109992,None,782.3175856109992,None,782.3175856109992,None,,,,,,,,,,,,,,,,,,,,,,,,,,,,,,,,,,,,,,,,,,,,001,90,2020_Feb_06_1320,spring_faces,3.1.5,60.162347976536445,
condition files/Stage1_2.xlsx,,B4,T3,c,"['c', 'm']","['Clue', 'Monopoly']","[-0.15, 0.5]","[0.15, 0.5]",1,1,,,,,,,,,0,9,9,9,0,7,7,5,,,,,,,,,,,,,,,,,,,,,,,,,,,,,,,,,,,,,,,,,,,,,,,,,,,,,,,784.2834906499993,None,784.2834906499993,None,784.2834906499993,None,c,1,1.3382336429967836,785.819098093998,None,785.819098093998,None,785.819098093998,None,787.2334484389976,None,787.2334484389976,None,787.2334484389976,None,787.2334484389976,None,,,,,,,,,,,,,,,,,,,,,,,,,,,,,,,,,,,,,,,,,,,,001,90,2020_Feb_06_1320,spring_faces,3.1.5,60.162347976536445,
condition files/Stage1_1.xlsx,,T4,B3,m,"['c', 'm']","['Clue', 'Monopoly']","[-0.15, 0.5]","[0.15, 0.5]",1,1,,,,,,,,,0,10,10,10,0,0,0,6,,,,,,,,,,,,,,,,,,,,,,,,,,,,,,,,,,,,,,,,,,,,,,,,,,,,,,,789.2005752679979,None,789.2005752679979,None,789.2005752679979,None,m,1,0.9184379590005847,790.7348371359985,None,790.7348371359985,None,790.7348371359985,None,791.7172878419988,None,791.7172878419988,None,791.7172878419988,None,791.7172878419988,None,,,,,,,,,,,,,,,,,,,,,,,,,,,,,,,,,,,,,,,,,,,,001,90,2020_Feb_06_1320,spring_faces,3.1.5,60.162347976536445,
condition files/Stage1_1.xlsx,,B2,T1,m,"['c', 'm']","['Clue', 'Monopoly']","[-0.15, 0.5]","[0.15, 0.5]",1,1,,,,,,,,,0,10,10,10,0,1,1,2,,,,,,,,,,,,,,,,,,,,,,,,,,,,,,,,,,,,,,,,,,,,,,,,,,,,,,,793.6834347059994,None,793.6834347059994,None,793.6834347059994,None,m,1,1.5407312930001353,795.2165911480006,None,795.2165911480006,None,795.2165911480006,None,796.8168200709988,None,796.8168200709988,None,796.8168200709988,None,796.8168200709988,None,,,,,,,,,,,,,,,,,,,,,,,,,,,,,,,,,,,,,,,,,,,,001,90,2020_Feb_06_1320,spring_faces,3.1.5,60.162347976536445,
condition files/Stage1_1.xlsx,,B1,T2,c,"['c', 'm']","['Clue', 'Monopoly']","[-0.15, 0.5]","[0.15, 0.5]",1,1,,,,,,,,,0,10,10,10,0,2,2,1,,,,,,,,,,,,,,,,,,,,,,,,,,,,,,,,,,,,,,,,,,,,,,,,,,,,,,,798.7830540670002,None,798.7830540670002,None,798.7830540670002,None,c,1,0.9668129549972946,800.3184529389982,None,800.3184529389982,None,800.3184529389982,None,801.3513291029994,None,801.3513291029994,None,801.3513291029994,None,801.3513291029994,None,,,,,,,,,,,,,,,,,,,,,,,,,,,,,,,,,,,,,,,,,,,,001,90,2020_Feb_06_1320,spring_faces,3.1.5,60.162347976536445,
condition files/Stage1_1.xlsx,,B4,T4,m,"['c', 'm']","['Clue', 'Monopoly']","[-0.15, 0.5]","[0.15, 0.5]",1,1,,,,,,,,,0,10,10,10,0,3,3,7,,,,,,,,,,,,,,,,,,,,,,,,,,,,,,,,,,,,,,,,,,,,,,,,,,,,,,,803.3169119800004,None,803.3169119800004,None,803.3169119800004,None,m,1,1.3627148929990653,804.85054734,None,804.85054734,None,804.85054734,None,806.2832982019972,None,806.2832982019972,None,806.2832982019972,None,806.2832982019972,None,,,,,,,,,,,,,,,,,,,,,,,,,,,,,,,,,,,,,,,,,,,,001,90,2020_Feb_06_1320,spring_faces,3.1.5,60.162347976536445,
condition files/Stage1_1.xlsx,,T1,B1,c,"['c', 'm']","['Clue', 'Monopoly']","[-0.15, 0.5]","[0.15, 0.5]",1,1,,,,,,,,,0,10,10,10,0,4,4,0,,,,,,,,,,,,,,,,,,,,,,,,,,,,,,,,,,,,,,,,,,,,,,,,,,,,,,,808.2330932320001,None,808.2330932320001,None,808.2330932320001,None,c,1,1.277280193000479,809.7839383690007,None,809.7839383690007,None,809.7839383690007,None,811.1338380699999,None,811.1338380699999,None,811.1338380699999,None,811.1338380699999,None,,,,,,,,,,,,,,,,,,,,,,,,,,,,,,,,,,,,,,,,,,,,001,90,2020_Feb_06_1320,spring_faces,3.1.5,60.162347976536445,
condition files/Stage1_1.xlsx,,B3,T3,c,"['c', 'm']","['Clue', 'Monopoly']","[-0.15, 0.5]","[0.15, 0.5]",1,1,,,,,,,,,0,10,10,10,0,5,5,4,,,,,,,,,,,,,,,,,,,,,,,,,,,,,,,,,,,,,,,,,,,,,,,,,,,,,,,813.0831414869972,None,813.0831414869972,None,813.0831414869972,None,c,1,1.1631385230029991,814.6181291100002,None,814.6181291100002,None,814.6181291100002,None,815.8336660719979,None,815.8336660719979,None,815.8336660719979,None,815.8336660719979,None,,,,,,,,,,,,,,,,,,,,,,,,,,,,,,,,,,,,,,,,,,,,001,90,2020_Feb_06_1320,spring_faces,3.1.5,60.162347976536445,
condition files/Stage1_1.xlsx,,T2,B2,m,"['c', 'm']","['Clue', 'Monopoly']","[-0.15, 0.5]","[0.15, 0.5]",1,1,,,,,,,,,0,10,10,10,0,6,6,3,,,,,,,,,,,,,,,,,,,,,,,,,,,,,,,,,,,,,,,,,,,,,,,,,,,,,,,817.8002954359981,None,817.8002954359981,None,817.8002954359981,None,m,1,0.8322154489978857,819.3330467939995,None,819.3330467939995,None,819.3330467939995,None,820.23393278,None,820.23393278,None,820.23393278,None,820.23393278,None,,,,,,,,,,,,,,,,,,,,,,,,,,,,,,,,,,,,,,,,,,,,001,90,2020_Feb_06_1320,spring_faces,3.1.5,60.162347976536445,
condition files/Stage1_1.xlsx,,T3,B4,c,"['c', 'm']","['Clue', 'Monopoly']","[-0.15, 0.5]","[0.15, 0.5]",1,1,,,,,,,,,0,10,10,10,0,7,7,5,,,,,,,,,,,,,,,,,,,,,,,,,,,,,,,,,,,,,,,,,,,,,,,,,,,,,,,822.1836545229999,None,822.1836545229999,None,822.1836545229999,None,c,1,0.9750660909994622,823.7181591439985,None,823.7181591439985,None,823.7181591439985,None,824.7668501909975,None,824.7668501909975,None,824.7668501909975,None,824.7668501909975,None,,,,,,,,,,,,,,,,,,,,,,,,,,,,,,,,,,,,,,,,,,,,001,90,2020_Feb_06_1320,spring_faces,3.1.5,60.162347976536445,
condition files/Stage1_2.xlsx,,T3,B3,c,"['c', 'm']","['Clue', 'Monopoly']","[-0.15, 0.5]","[0.15, 0.5]",1,1,,,,,,,,,0,11,11,11,0,0,0,4,,,,,,,,,,,,,,,,,,,,,,,,,,,,,,,,,,,,,,,,,,,,,,,,,,,,,,,826.7333849489987,None,826.7333849489987,None,826.7333849489987,None,c,1,1.5117360770018422,828.2695297190003,None,828.2695297190003,None,828.2695297190003,None,829.8337634300005,None,829.8337634300005,None,829.8337634300005,None,829.8337634300005,None,,,,,,,,,,,,,,,,,,,,,,,,,,,,,,,,,,,,,,,,,,,,001,90,2020_Feb_06_1320,spring_faces,3.1.5,60.162347976536445,
condition files/Stage1_2.xlsx,,B1,T1,c,"['c', 'm']","['Clue', 'Monopoly']","[-0.15, 0.5]","[0.15, 0.5]",1,1,,,,,,,,,0,11,11,11,0,1,1,0,,,,,,,,,,,,,,,,,,,,,,,,,,,,,,,,,,,,,,,,,,,,,,,,,,,,,,,831.8002192899985,None,831.8002192899985,None,831.8002192899985,None,c,1,1.1667287090022,833.3504807659992,None,833.3504807659992,None,833.3504807659992,None,834.5681915099995,None,834.5681915099995,None,834.5681915099995,None,834.5681915099995,None,,,,,,,,,,,,,,,,,,,,,,,,,,,,,,,,,,,,,,,,,,,,001,90,2020_Feb_06_1320,spring_faces,3.1.5,60.162347976536445,
condition files/Stage1_2.xlsx,,B4,T3,c,"['c', 'm']","['Clue', 'Monopoly']","[-0.15, 0.5]","[0.15, 0.5]",1,1,,,,,,,,,0,11,11,11,0,2,2,5,,,,,,,,,,,,,,,,,,,,,,,,,,,,,,,,,,,,,,,,,,,,,,,,,,,,,,,836.5335874449993,None,836.5335874449993,None,836.5335874449993,None,c,1,1.1840461320025497,838.0692302149982,None,838.0692302149982,None,838.0692302149982,None,839.3176197209978,None,839.3176197209978,None,839.3176197209978,None,839.3176197209978,None,,,,,,,,,,,,,,,,,,,,,,,,,,,,,,,,,,,,,,,,,,,,001,90,2020_Feb_06_1320,spring_faces,3.1.5,60.162347976536445,
condition files/Stage1_2.xlsx,,B3,T4,m,"['c', 'm']","['Clue', 'Monopoly']","[-0.15, 0.5]","[0.15, 0.5]",1,1,,,,,,,,,0,11,11,11,0,3,3,6,,,,,,,,,,,,,,,,,,,,,,,,,,,,,,,,,,,,,,,,,,,,,,,,,,,,,,,841.2835822509987,None,841.2835822509987,None,841.2835822509987,None,m,1,1.3006211219981196,842.8165685549975,None,842.8165685549975,None,842.8165685549975,None,844.2005187670002,None,844.2005187670002,None,844.2005187670002,None,844.2005187670002,None,,,,,,,,,,,,,,,,,,,,,,,,,,,,,,,,,,,,,,,,,,,,001,90,2020_Feb_06_1320,spring_faces,3.1.5,60.162347976536445,
condition files/Stage1_2.xlsx,,T2,B1,c,"['c', 'm']","['Clue', 'Monopoly']","[-0.15, 0.5]","[0.15, 0.5]",1,1,,,,,,,,,0,11,11,11,0,4,4,1,,,,,,,,,,,,,,,,,,,,,,,,,,,,,,,,,,,,,,,,,,,,,,,,,,,,,,,846.1501633240005,None,846.1501633240005,None,846.1501633240005,None,c,1,0.9298677679980756,847.6833933769994,None,847.6833933769994,None,847.6833933769994,None,848.6692266639984,None,848.6692266639984,None,848.6692266639984,None,848.6692266639984,None,,,,,,,,,,,,,,,,,,,,,,,,,,,,,,,,,,,,,,,,,,,,001,90,2020_Feb_06_1320,spring_faces,3.1.5,60.162347976536445,
condition files/Stage1_2.xlsx,,T4,B4,m,"['c', 'm']","['Clue', 'Monopoly']","[-0.15, 0.5]","[0.15, 0.5]",1,1,,,,,,,,,0,11,11,11,0,5,5,7,,,,,,,,,,,,,,,,,,,,,,,,,,,,,,,,,,,,,,,,,,,,,,,,,,,,,,,850.6335268330004,None,850.6335268330004,None,850.6335268330004,None,m,1,0.7025699650002935,852.1667034299971,None,852.1667034299971,None,852.1667034299971,None,852.9356944559986,None,852.9356944559986,None,852.9356944559986,None,852.9356944559986,None,,,,,,,,,,,,,,,,,,,,,,,,,,,,,,,,,,,,,,,,,,,,001,90,2020_Feb_06_1320,spring_faces,3.1.5,60.162347976536445,
condition files/Stage1_2.xlsx,,B2,T2,m,"['c', 'm']","['Clue', 'Monopoly']","[-0.15, 0.5]","[0.15, 0.5]",1,1,,,,,,,,,0,11,11,11,0,6,6,3,,,,,,,,,,,,,,,,,,,,,,,,,,,,,,,,,,,,,,,,,,,,,,,,,,,,,,,854.900416395998,None,854.900416395998,None,854.900416395998,None,m,1,0.803668213000492,856.4335995549991,None,856.4335995549991,None,856.4335995549991,None,857.300770908998,None,857.300770908998,None,857.300770908998,None,857.300770908998,None,,,,,,,,,,,,,,,,,,,,,,,,,,,,,,,,,,,,,,,,,,,,001,90,2020_Feb_06_1320,spring_faces,3.1.5,60.162347976536445,
condition files/Stage1_2.xlsx,,T1,B2,m,"['c', 'm']","['Clue', 'Monopoly']","[-0.15, 0.5]","[0.15, 0.5]",1,1,,,,,,,,,0,11,11,11,0,7,7,2,,,,,,,,,,,,,,,,,,,,,,,,,,,,,,,,,,,,,,,,,,,,,,,,,,,,,,,859.2671308869976,None,859.2671308869976,None,859.2671308869976,None,m,1,0.917225965000398,860.7999655729982,None,860.7999655729982,None,860.7999655729982,None,861.783483313,None,861.783483313,None,861.783483313,None,861.783483313,None,,,,,,,,,,,,,,,,,,,,,,,,,,,,,,,,,,,,,,,,,,,,001,90,2020_Feb_06_1320,spring_faces,3.1.5,60.162347976536445,
,,,,,,,,,,,,,,,,,,,,,,,,,,,,,,,,,,,,,,,,,,,,,,,,,,,,,,,,,,,,,,,,,,,,,,,,,,,,,,,,,,,,,,,,,,,,,,,,,,,,,,,,,,,,,,,,863.767324485998,None,space,4.054240109002421,868.7670557079982,None,,,,,,,,,,,,,,,,,,,,,,,,,,,,,,001,90,2020_Feb_06_1320,spring_faces,3.1.5,60.162347976536445,
condition files/Stage2_1.xlsx,,T5,B5,s,"['s', 'r']","['Stratego', 'Risk']","[-0.15, 0.5]","[0.15, 0.5]",1,1,,,,,,,,,,,,,,,,,0,0,0,0,0,0,0,0,,,,,,,,,,,,,,,,,,,,,,,,,,,,,,,,,,,,,,,,,,,,,,,872.883918784999,None,872.883918784999,None,872.883918784999,None,r,0,2.3087607089983067,874.4005731279976,None,874.4005731279976,None,874.4005731279976,None,876.7674372539987,None,876.7674372539987,None,876.7674372539987,None,876.7674372539987,None,,,,,,,,,,,,,,,868.7670557079982,None,,,,,,,,,,,,,,,,,,,,,,,,,,,,001,90,2020_Feb_06_1320,spring_faces,3.1.5,60.162347976536445,
condition files/Stage2_1.xlsx,,B2,T2,r,"['s', 'r']","['Stratego', 'Risk']","[-0.15, 0.5]","[0.15, 0.5]",1,1,,,,,,,,,,,,,,,,,0,0,0,0,0,1,1,3,,,,,,,,,,,,,,,,,,,,,,,,,,,,,,,,,,,,,,,,,,,,,,,878.7335843269975,None,878.7335843269975,None,878.7335843269975,None,r,1,1.0494123970020155,880.2678330380004,None,880.2678330380004,None,880.2678330380004,None,881.3839782289979,None,881.3839782289979,None,881.3839782289979,None,881.3839782289979,None,,,,,,,,,,,,,,,,,,,,,,,,,,,,,,,,,,,,,,,,,,,,001,90,2020_Feb_06_1320,spring_faces,3.1.5,60.162347976536445,
condition files/Stage2_1.xlsx,,B4,T4,r,"['s', 'r']","['Stratego', 'Risk']","[-0.15, 0.5]","[0.15, 0.5]",1,1,,,,,,,,,,,,,,,,,0,0,0,0,0,2,2,5,,,,,,,,,,,,,,,,,,,,,,,,,,,,,,,,,,,,,,,,,,,,,,,883.3502428469983,None,883.3502428469983,None,883.3502428469983,None,r,1,1.8874110549986653,884.8858937549994,None,884.8858937549994,None,884.8858937549994,None,886.8337904849977,None,886.8337904849977,None,886.8337904849977,None,886.8337904849977,None,,,,,,,,,,,,,,,,,,,,,,,,,,,,,,,,,,,,,,,,,,,,001,90,2020_Feb_06_1320,spring_faces,3.1.5,60.162347976536445,
condition files/Stage2_1.xlsx,,T3,B3,s,"['s', 'r']","['Stratego', 'Risk']","[-0.15, 0.5]","[0.15, 0.5]",1,1,,,,,,,,,,,,,,,,,0,0,0,0,0,3,3,4,,,,,,,,,,,,,,,,,,,,,,,,,,,,,,,,,,,,,,,,,,,,,,,888.8004314649988,None,888.8004314649988,None,888.8004314649988,None,r,0,1.4946006139980454,890.3505838769997,None,890.3505838769997,None,890.3505838769997,None,891.9167989809976,None,891.9167989809976,None,891.9167989809976,None,891.9167989809976,None,,,,,,,,,,,,,,,,,,,,,,,,,,,,,,,,,,,,,,,,,,,,001,90,2020_Feb_06_1320,spring_faces,3.1.5,60.162347976536445,
condition files/Stage2_1.xlsx,,T1,B1,s,"['s', 'r']","['Stratego', 'Risk']","[-0.15, 0.5]","[0.15, 0.5]",1,1,,,,,,,,,,,,,,,,,0,0,0,0,0,4,4,2,,,,,,,,,,,,,,,,,,,,,,,,,,,,,,,,,,,,,,,,,,,,,,,893.8666939159993,None,893.8666939159993,None,893.8666939159993,None,s,1,1.1965688999989652,895.4007067940001,None,895.4007067940001,None,895.4007067940001,None,896.6507334380003,None,896.6507334380003,None,896.6507334380003,None,896.6507334380003,None,,,,,,,,,,,,,,,,,,,,,,,,,,,,,,,,,,,,,,,,,,,,001,90,2020_Feb_06_1320,spring_faces,3.1.5,60.162347976536445,
condition files/Stage2_1.xlsx,,B6,T6,r,"['s', 'r']","['Stratego', 'Risk']","[-0.15, 0.5]","[0.15, 0.5]",1,1,,,,,,,,,,,,,,,,,0,0,0,0,0,5,5,1,,,,,,,,,,,,,,,,,,,,,,,,,,,,,,,,,,,,,,,,,,,,,,,898.6165058779989,None,898.6165058779989,None,898.6165058779989,None,s,0,1.164451568001823,900.1527619449989,None,900.1527619449989,None,900.1527619449989,None,901.368636064999,None,901.368636064999,None,901.368636064999,None,901.368636064999,None,,,,,,,,,,,,,,,,,,,,,,,,,,,,,,,,,,,,,,,,,,,,001,90,2020_Feb_06_1320,spring_faces,3.1.5,60.162347976536445,
condition files/Stage2_2.xlsx,,B3,T3,s,"['s', 'r']","['Stratego', 'Risk']","[-0.15, 0.5]","[0.15, 0.5]",1,1,,,,,,,,,,,,,,,,,0,1,1,1,0,0,0,4,,,,,,,,,,,,,,,,,,,,,,,,,,,,,,,,,,,,,,,,,,,,,,,903.3506181480006,None,903.3506181480006,None,903.3506181480006,None,s,1,2.736781586001598,904.9004969779999,None,904.9004969779999,None,904.9004969779999,None,907.7169435059986,None,907.7169435059986,None,907.7169435059986,None,907.7169435059986,None,,,,,,,,,,,,,,,,,,,,,,,,,,,,,,,,,,,,,,,,,,,,001,90,2020_Feb_06_1320,spring_faces,3.1.5,60.162347976536445,
condition files/Stage2_2.xlsx,,T4,B4,r,"['s', 'r']","['Stratego', 'Risk']","[-0.15, 0.5]","[0.15, 0.5]",1,1,,,,,,,,,,,,,,,,,0,1,1,1,0,1,1,5,,,,,,,,,,,,,,,,,,,,,,,,,,,,,,,,,,,,,,,,,,,,,,,909.666872818998,None,909.666872818998,None,909.666872818998,None,r,1,1.3157065350023913,911.2175421399988,None,911.2175421399988,None,911.2175421399988,None,912.5841999919976,None,912.5841999919976,None,912.5841999919976,None,912.5841999919976,None,,,,,,,,,,,,,,,,,,,,,,,,,,,,,,,,,,,,,,,,,,,,001,90,2020_Feb_06_1320,spring_faces,3.1.5,60.162347976536445,
condition files/Stage2_2.xlsx,,B5,T5,s,"['s', 'r']","['Stratego', 'Risk']","[-0.15, 0.5]","[0.15, 0.5]",1,1,,,,,,,,,,,,,,,,,0,1,1,1,0,2,2,0,,,,,,,,,,,,,,,,,,,,,,,,,,,,,,,,,,,,,,,,,,,,,,,914.5502360639985,None,914.5502360639985,None,914.5502360639985,None,s,1,2.289944956999534,916.0833809359974,None,916.0833809359974,None,916.0833809359974,None,918.4504291619996,None,918.4504291619996,None,918.4504291619996,None,918.4504291619996,None,,,,,,,,,,,,,,,,,,,,,,,,,,,,,,,,,,,,,,,,,,,,001,90,2020_Feb_06_1320,spring_faces,3.1.5,60.162347976536445,
condition files/Stage2_2.xlsx,,B1,T1,s,"['s', 'r']","['Stratego', 'Risk']","[-0.15, 0.5]","[0.15, 0.5]",1,1,,,,,,,,,,,,,,,,,0,1,1,1,0,3,3,2,,,,,,,,,,,,,,,,,,,,,,,,,,,,,,,,,,,,,,,,,,,,,,,920.4001263299979,None,920.4001263299979,None,920.4001263299979,None,r,0,1.014747658999113,921.950492824999,None,921.950492824999,None,921.950492824999,None,923.0167941129985,None,923.0167941129985,None,923.0167941129985,None,923.0167941129985,None,,,,,,,,,,,,,,,,,,,,,,,,,,,,,,,,,,,,,,,,,,,,001,90,2020_Feb_06_1320,spring_faces,3.1.5,60.162347976536445,
condition files/Stage2_2.xlsx,,T6,B6,r,"['s', 'r']","['Stratego', 'Risk']","[-0.15, 0.5]","[0.15, 0.5]",1,1,,,,,,,,,,,,,,,,,0,1,1,1,0,4,4,1,,,,,,,,,,,,,,,,,,,,,,,,,,,,,,,,,,,,,,,,,,,,,,,924.9837069099995,None,924.9837069099995,None,924.9837069099995,None,s,0,2.4953458160016453,926.5179188099974,None,926.5179188099974,None,926.5179188099974,None,929.0688062379995,None,929.0688062379995,None,929.0688062379995,None,929.0688062379995,None,,,,,,,,,,,,,,,,,,,,,,,,,,,,,,,,,,,,,,,,,,,,001,90,2020_Feb_06_1320,spring_faces,3.1.5,60.162347976536445,
condition files/Stage2_2.xlsx,,T2,B2,r,"['s', 'r']","['Stratego', 'Risk']","[-0.15, 0.5]","[0.15, 0.5]",1,1,,,,,,,,,,,,,,,,,0,1,1,1,0,5,5,3,,,,,,,,,,,,,,,,,,,,,,,,,,,,,,,,,,,,,,,,,,,,,,,931.0338397800006,None,931.0338397800006,None,931.0338397800006,None,r,1,1.2602916059986455,932.5689388729988,None,932.5689388729988,None,932.5689388729988,None,933.8837514599982,None,933.8837514599982,None,933.8837514599982,None,933.8837514599982,None,,,,,,,,,,,,,,,,,,,,,,,,,,,,,,,,,,,,,,,,,,,,001,90,2020_Feb_06_1320,spring_faces,3.1.5,60.162347976536445,
condition files/Stage2_1.xlsx,,T5,B5,s,"['s', 'r']","['Stratego', 'Risk']","[-0.15, 0.5]","[0.15, 0.5]",1,1,,,,,,,,,,,,,,,,,0,2,2,2,0,0,0,0,,,,,,,,,,,,,,,,,,,,,,,,,,,,,,,,,,,,,,,,,,,,,,,935.867192294998,None,935.867192294998,None,935.867192294998,None,s,1,1.1625031160001527,937.4027687329981,None,937.4027687329981,None,937.4027687329981,None,938.633781515,None,938.633781515,None,938.633781515,None,938.633781515,None,,,,,,,,,,,,,,,,,,,,,,,,,,,,,,,,,,,,,,,,,,,,001,90,2020_Feb_06_1320,spring_faces,3.1.5,60.162347976536445,
condition files/Stage2_1.xlsx,,B2,T2,r,"['s', 'r']","['Stratego', 'Risk']","[-0.15, 0.5]","[0.15, 0.5]",1,1,,,,,,,,,,,,,,,,,0,2,2,2,0,1,1,3,,,,,,,,,,,,,,,,,,,,,,,,,,,,,,,,,,,,,,,,,,,,,,,940.5828357449973,None,940.5828357449973,None,940.5828357449973,None,r,1,1.6157643799997459,942.133491362998,None,942.133491362998,None,942.133491362998,None,943.8019650509996,None,943.8019650509996,None,943.8019650509996,None,943.8019650509996,None,,,,,,,,,,,,,,,,,,,,,,,,,,,,,,,,,,,,,,,,,,,,001,90,2020_Feb_06_1320,spring_faces,3.1.5,60.162347976536445,
condition files/Stage2_1.xlsx,,B6,T6,r,"['s', 'r']","['Stratego', 'Risk']","[-0.15, 0.5]","[0.15, 0.5]",1,1,,,,,,,,,,,,,,,,,0,2,2,2,0,2,2,1,,,,,,,,,,,,,,,,,,,,,,,,,,,,,,,,,,,,,,,,,,,,,,,945.7669071380005,None,945.7669071380005,None,945.7669071380005,None,s,0,0.8167019979991892,947.3165554269981,None,947.3165554269981,None,947.3165554269981,None,948.1840187999987,None,948.1840187999987,None,948.1840187999987,None,948.1840187999987,None,,,,,,,,,,,,,,,,,,,,,,,,,,,,,,,,,,,,,,,,,,,,001,90,2020_Feb_06_1320,spring_faces,3.1.5,60.162347976536445,
condition files/Stage2_1.xlsx,,T3,B3,s,"['s', 'r']","['Stratego', 'Risk']","[-0.15, 0.5]","[0.15, 0.5]",1,1,,,,,,,,,,,,,,,,,0,2,2,2,0,3,3,4,,,,,,,,,,,,,,,,,,,,,,,,,,,,,,,,,,,,,,,,,,,,,,,950.1499920639981,None,950.1499920639981,None,950.1499920639981,None,s,1,1.2322498300018196,951.6849698669976,None,951.6849698669976,None,951.6849698669976,None,952.9847290409998,None,952.9847290409998,None,952.9847290409998,None,952.9847290409998,None,,,,,,,,,,,,,,,,,,,,,,,,,,,,,,,,,,,,,,,,,,,,001,90,2020_Feb_06_1320,spring_faces,3.1.5,60.162347976536445,
condition files/Stage2_1.xlsx,,T1,B1,s,"['s', 'r']","['Stratego', 'Risk']","[-0.15, 0.5]","[0.15, 0.5]",1,1,,,,,,,,,,,,,,,,,0,2,2,2,0,4,4,2,,,,,,,,,,,,,,,,,,,,,,,,,,,,,,,,,,,,,,,,,,,,,,,954.9504190769985,None,954.9504190769985,None,954.9504190769985,None,r,0,1.839200833997893,956.4861309419975,None,956.4861309419975,None,956.4861309419975,None,958.3834645339994,None,958.3834645339994,None,958.3834645339994,None,958.3834645339994,None,,,,,,,,,,,,,,,,,,,,,,,,,,,,,,,,,,,,,,,,,,,,001,90,2020_Feb_06_1320,spring_faces,3.1.5,60.162347976536445,
condition files/Stage2_1.xlsx,,B4,T4,r,"['s', 'r']","['Stratego', 'Risk']","[-0.15, 0.5]","[0.15, 0.5]",1,1,,,,,,,,,,,,,,,,,0,2,2,2,0,5,5,5,,,,,,,,,,,,,,,,,,,,,,,,,,,,,,,,,,,,,,,,,,,,,,,960.3499917299996,None,960.3499917299996,None,960.3499917299996,None,r,1,1.8976201890000084,961.8836309189974,None,961.8836309189974,None,961.8836309189974,None,963.8331247819988,None,963.8331247819988,None,963.8331247819988,None,963.8331247819988,None,,,,,,,,,,,,,,,,,,,,,,,,,,,,,,,,,,,,,,,,,,,,001,90,2020_Feb_06_1320,spring_faces,3.1.5,60.162347976536445,
condition files/Stage2_2.xlsx,,T6,B6,r,"['s', 'r']","['Stratego', 'Risk']","[-0.15, 0.5]","[0.15, 0.5]",1,1,,,,,,,,,,,,,,,,,0,3,3,3,0,0,0,1,,,,,,,,,,,,,,,,,,,,,,,,,,,,,,,,,,,,,,,,,,,,,,,965.8174054659976,None,965.8174054659976,None,965.8174054659976,None,r,1,1.1980690650016186,967.3512043189985,None,967.3512043189985,None,967.3512043189985,None,968.6006778839983,None,968.6006778839983,None,968.6006778839983,None,968.6006778839983,None,,,,,,,,,,,,,,,,,,,,,,,,,,,,,,,,,,,,,,,,,,,,001,90,2020_Feb_06_1320,spring_faces,3.1.5,60.162347976536445,
condition files/Stage2_2.xlsx,,B1,T1,s,"['s', 'r']","['Stratego', 'Risk']","[-0.15, 0.5]","[0.15, 0.5]",1,1,,,,,,,,,,,,,,,,,0,3,3,3,0,1,1,2,,,,,,,,,,,,,,,,,,,,,,,,,,,,,,,,,,,,,,,,,,,,,,,970.5664182629989,None,970.5664182629989,None,970.5664182629989,None,s,1,1.2318159569986165,972.1174334219977,None,972.1174334219977,None,972.1174334219977,None,973.4173162059997,None,973.4173162059997,None,973.4173162059997,None,973.4173162059997,None,,,,,,,,,,,,,,,,,,,,,,,,,,,,,,,,,,,,,,,,,,,,001,90,2020_Feb_06_1320,spring_faces,3.1.5,60.162347976536445,
condition files/Stage2_2.xlsx,,T4,B4,r,"['s', 'r']","['Stratego', 'Risk']","[-0.15, 0.5]","[0.15, 0.5]",1,1,,,,,,,,,,,,,,,,,0,3,3,3,0,2,2,5,,,,,,,,,,,,,,,,,,,,,,,,,,,,,,,,,,,,,,,,,,,,,,,975.3666106790006,None,975.3666106790006,None,975.3666106790006,None,r,1,1.2800518320000265,976.9172129429971,None,976.9172129429971,None,976.9172129429971,None,978.2528316770004,None,978.2528316770004,None,978.2528316770004,None,978.2528316770004,None,,,,,,,,,,,,,,,,,,,,,,,,,,,,,,,,,,,,,,,,,,,,001,90,2020_Feb_06_1320,spring_faces,3.1.5,60.162347976536445,
condition files/Stage2_2.xlsx,,T2,B2,r,"['s', 'r']","['Stratego', 'Risk']","[-0.15, 0.5]","[0.15, 0.5]",1,1,,,,,,,,,,,,,,,,,0,3,3,3,0,3,3,3,,,,,,,,,,,,,,,,,,,,,,,,,,,,,,,,,,,,,,,,,,,,,,,980.2164176570004,None,980.2164176570004,None,980.2164176570004,None,r,1,0.9257545719992777,981.7515741940006,None,981.7515741940006,None,981.7515741940006,None,982.7339456129994,None,982.7339456129994,None,982.7339456129994,None,982.7339456129994,None,,,,,,,,,,,,,,,,,,,,,,,,,,,,,,,,,,,,,,,,,,,,001,90,2020_Feb_06_1320,spring_faces,3.1.5,60.162347976536445,
condition files/Stage2_2.xlsx,,B5,T5,s,"['s', 'r']","['Stratego', 'Risk']","[-0.15, 0.5]","[0.15, 0.5]",1,1,,,,,,,,,,,,,,,,,0,3,3,3,0,4,4,0,,,,,,,,,,,,,,,,,,,,,,,,,,,,,,,,,,,,,,,,,,,,,,,984.6998320700004,None,984.6998320700004,None,984.6998320700004,None,s,1,0.922250276998966,986.2350726939985,None,986.2350726939985,None,986.2350726939985,None,987.2338715929982,None,987.2338715929982,None,987.2338715929982,None,987.2338715929982,None,,,,,,,,,,,,,,,,,,,,,,,,,,,,,,,,,,,,,,,,,,,,001,90,2020_Feb_06_1320,spring_faces,3.1.5,60.162347976536445,
condition files/Stage2_2.xlsx,,B3,T3,s,"['s', 'r']","['Stratego', 'Risk']","[-0.15, 0.5]","[0.15, 0.5]",1,1,,,,,,,,,,,,,,,,,0,3,3,3,0,5,5,4,,,,,,,,,,,,,,,,,,,,,,,,,,,,,,,,,,,,,,,,,,,,,,,989.1834330679994,None,989.1834330679994,None,989.1834330679994,None,s,1,1.2553395340000861,990.7179190839997,None,990.7179190839997,None,990.7179190839997,None,992.0339182110001,None,992.0339182110001,None,992.0339182110001,None,992.0339182110001,None,,,,,,,,,,,,,,,,,,,,,,,,,,,,,,,,,,,,,,,,,,,,001,90,2020_Feb_06_1320,spring_faces,3.1.5,60.162347976536445,
condition files/Stage2_1.xlsx,,T3,B3,s,"['s', 'r']","['Stratego', 'Risk']","[-0.15, 0.5]","[0.15, 0.5]",1,1,,,,,,,,,,,,,,,,,0,4,4,4,0,0,0,4,,,,,,,,,,,,,,,,,,,,,,,,,,,,,,,,,,,,,,,,,,,,,,,994.0173524409984,None,994.0173524409984,None,994.0173524409984,None,s,1,0.982147012000496,995.5511236419989,None,995.5511236419989,None,995.5511236419989,None,996.5839738359973,None,996.5839738359973,None,996.5839738359973,None,996.5839738359973,None,,,,,,,,,,,,,,,,,,,,,,,,,,,,,,,,,,,,,,,,,,,,001,90,2020_Feb_06_1320,spring_faces,3.1.5,60.162347976536445,
condition files/Stage2_1.xlsx,,T5,B5,s,"['s', 'r']","['Stratego', 'Risk']","[-0.15, 0.5]","[0.15, 0.5]",1,1,,,,,,,,,,,,,,,,,0,4,4,4,0,1,1,0,,,,,,,,,,,,,,,,,,,,,,,,,,,,,,,,,,,,,,,,,,,,,,,998.5495255629976,None,998.5495255629976,None,998.5495255629976,None,r,0,2.1448305470003106,1000.1003411450001,None,1000.1003411450001,None,1000.1003411450001,None,1002.3000948890003,None,1002.3000948890003,None,1002.3000948890003,None,1002.3000948890003,None,,,,,,,,,,,,,,,,,,,,,,,,,,,,,,,,,,,,,,,,,,,,001,90,2020_Feb_06_1320,spring_faces,3.1.5,60.162347976536445,
