condsFile,subStage,cue1,cue2,correct,responseKeys,responseNames,cue1Position,cue2Position,cue1Opacity,cue2Opacity,stageLoop0.thisRepN,stageLoop0.thisTrialN,stageLoop0.thisN,stageLoop0.thisIndex,blockLoop0.thisRepN,blockLoop0.thisTrialN,blockLoop0.thisN,blockLoop0.thisIndex,stage1Loop.thisRepN,stage1Loop.thisTrialN,stage1Loop.thisN,stage1Loop.thisIndex,blockLoop1.thisRepN,blockLoop1.thisTrialN,blockLoop1.thisN,blockLoop1.thisIndex,stage2Loop.thisRepN,stage2Loop.thisTrialN,stage2Loop.thisN,stage2Loop.thisIndex,blockLoop2.thisRepN,blockLoop2.thisTrialN,blockLoop2.thisN,blockLoop2.thisIndex,testLoop.thisRepN,testLoop.thisTrialN,testLoop.thisN,testLoop.thisIndex,blockLoopTest.thisRepN,blockLoopTest.thisTrialN,blockLoopTest.thisN,blockLoopTest.thisIndex,cuePics,id_instr_text.started,id_instr_text.stopped,space_to_continue_2.started,space_to_continue_2.stopped,end_instructions_resp_3.keys,end_instructions_resp_3.rt,end_instructions_resp_3.started,end_instructions_resp_3.stopped,id_input_instr.started,id_input_instr.stopped,id_input_rect.started,id_input_rect.stopped,id_input_resp.keys,id_input_resp.rt,id_input_resp.started,id_input_resp.stopped,sonaID,id_input_text.started,id_input_text.stopped,final_text.started,final_text.stopped,instructions.started,instructions.stopped,end_instructions_resp.keys,end_instructions_resp.rt,end_instructions_resp.started,end_instructions_resp.stopped,space_to_continue.started,space_to_continue.stopped,instructions_stage0.started,instructions_stage0.stopped,end_instructions_resp_stage0.keys,end_instructions_resp_stage0.rt,end_instructions_resp_stage0.started,end_instructions_resp_stage0.stopped,space_to_continue_stage0.started,space_to_continue_stage0.stopped,text.started,text.stopped,resp_text1.started,resp_text1.stopped,resp_text2.started,resp_text2.stopped,trial_resp.keys,trial_resp.corr,trial_resp.rt,trial_resp.started,trial_resp.stopped,cue1Image.started,cue1Image.stopped,cue2Image.started,cue2Image.stopped,cue1Image_fb.started,cue1Image_fb.stopped,cue2Image_fb.started,cue2Image_fb.stopped,fb_text_answer.started,fb_text_answer.stopped,feedback_image.started,feedback_image.stopped,instructions_stage1.started,instructions_stage1.stopped,end_instructions_resp_stage1.keys,end_instructions_resp_stage1.rt,end_instructions_resp_stage1.started,end_instructions_resp_stage1.stopped,space_to_continue_stage1.started,space_to_continue_stage1.stopped,instructions_2.started,instructions_2.stopped,end_instructions_resp_2.keys,end_instructions_resp_2.rt,end_instructions_resp_2.started,end_instructions_resp_2.stopped,press_space_to_continue_stage2.started,press_space_to_continue_stage2.stopped,instructions_testStage1.started,instructions_testStage1.stopped,end_instructions_resp_test1.keys,end_instructions_resp_test1.rt,end_instructions_resp_test1.started,end_instructions_resp_test1.stopped,press_space_to_continue_test1.started,press_space_to_continue_test1.stopped,cue1Image_testChoice.started,cue1Image_testChoice.stopped,cue2Image_testChoice.started,cue2Image_testChoice.stopped,test_resp.keys,test_resp.corr,test_resp.rt,test_resp.started,test_resp.stopped,cue1Image_testConf.started,cue1Image_testConf.stopped,cue2Image_testConf.started,cue2Image_testConf.stopped,conf_reminder.started,conf_reminder.stopped,conf_rating.response,conf_rating.rt,conf_rating.started,conf_rating.stopped,session,participant,date,expName,psychopyVersion,frameRate,
,,,,,,,,,,,,,,,,,,,,,,,,,,,,,,,,,,,,,,,,,,,"{'none': 'pictures/20M_AN_C.png', 'alpha': 'pictures/SHINEd_melon.png', 'beta': 'pictures/SHINEd_pepper.png', 'theta': 'pictures/SHINEd_pear.png', 'phi': 'pictures/SHINEd_apple.png', 'T1': 'pictures/32M_AN_C.png', 'T2': 'pictures/33M_AN_C.png', 'T3': 'pictures/22M_AN_C.png', 'T4': 'pictures/20M_AN_C.png', 'T5': 'pictures/23M_AN_C.png', 'T6': 'pictures/25M_AN_C.png', 'B1': 'pictures/31M_NE_C.png', 'B2': 'pictures/26M_NE_C.png', 'B3': 'pictures/34M_NE_C.png', 'B4': 'pictures/37M_NE_C.png', 'B5': 'pictures/38M_NE_C.png', 'B6': 'pictures/36M_NE_C.png'}",12.835279058999731,None,17.835699652001495,None,space,1813.4055998770018,17.835699652001495,None,,,,,,,,,,,,,,,,,,,,,,,,,,,,,,,,,,,,,,,,,,,,,,,,,,,,,,,,,,,,,,,,,,,,,,,,,,,,,,,,,,,,,,,,,,,,,,,,001,91,2020_Feb_06_1321,spring_faces,3.1.5,60.027574506551005,
,,,,,,,,,,,,,,,,,,,,,,,,,,,,,,,,,,,,,,,,,,,,,,,,,,,,1831.6360619810002,None,1831.6360619810002,None,"['0', '6', '0', '5', 'k', 'a', 'c', 'r', 'e']","[14.42122724300134, 15.045203123998363, 21.445213674000115, 21.89326403599989, 26.37320136999915, 26.773227206998854, 31.47720787399885, 31.7971895519986, 32.11716723800055]",1831.6360619810002,None,,,,,,,,,,,,,,,,,,,,,,,,,,,,,,,,,,,,,,,,,,,,,,,,,,,,,,,,,,,,,,,,,,,,,,,,,,,,,,,,,,,,,,,,001,91,2020_Feb_06_1321,spring_faces,3.1.5,60.027574506551005,
,,,,,,,,,,,,,,,,,,,,,,,,,,,,,,,,,,,,,,,,,,,,,,,,,,,,,,,,,,,,0605kacre,1831.6360619810002,None,1831.6360619810002,None,1868.8354399300006,None,space,5.037494077001611,1873.8358147380022,None,,,,,,,,,,,,,,,,,,,,,,,,,,,,,,,,,,,,,,,,,,,,,,,,,,,,,,,,,,,,,,,,,,,,,,,,,,,,,001,91,2020_Feb_06_1321,spring_faces,3.1.5,60.027574506551005,
,,,,,,,,,,,,,,,,,,,,,,,,,,,,,,,,,,,,,,,,,,,,,,,,,,,,,,,,,,,,,,,,,,,,,,,1873.8358147380022,None,1878.9189567720023,None,space,6.521995094997692,1883.9193077359996,None,,,,,,,,,,,,,,,,,,,,,,,,,,,,,,,,,,,,,,,,,,,,,,,,,,,,,,,,,,,,,,,,,,,,,001,91,2020_Feb_06_1321,spring_faces,3.1.5,60.027574506551005,
condition files/Stage0a.xlsx,0a,alpha,none,h,"['h', 'g']","['Chess', 'Go']","[0, 0.5]","[0, 0]",1,0,0,0,0,0,0,0,0,0,,,,,,,,,,,,,,,,,,,,,,,,,,,,,,,,,,,,,,,,,,,,,,,,,,,,,,,,,,,,,1883.9193077359996,None,1890.5527134539989,None,1890.5527134539989,None,1890.5527134539989,None,h,1,3.9071794359988417,1892.0861381310024,None,1892.0861381310024,None,1892.0861381310024,None,1896.0689819220024,None,1896.0689819220024,None,1896.0689819220024,None,1896.0689819220024,None,,,,,,,,,,,,,,,,,,,,,,,,,,,,,,,,,,,,,,,,,,,,001,91,2020_Feb_06_1321,spring_faces,3.1.5,60.027574506551005,
condition files/Stage0a.xlsx,0a,beta,none,g,"['h', 'g']","['Chess', 'Go']","[0, 0.5]","[0, 0]",1,0,0,0,0,0,0,1,1,1,,,,,,,,,,,,,,,,,,,,,,,,,,,,,,,,,,,,,,,,,,,,,,,,,,,,,,,,,,,,,,,1898.019161324999,None,1898.019161324999,None,1898.019161324999,None,g,1,2.1207928540025023,1899.5525132950024,None,1899.5525132950024,None,1899.5525132950024,None,1901.7358359130012,None,1901.7358359130012,None,1901.7358359130012,None,1901.7358359130012,None,,,,,,,,,,,,,,,,,,,,,,,,,,,,,,,,,,,,,,,,,,,,001,91,2020_Feb_06_1321,spring_faces,3.1.5,60.027574506551005,
condition files/Stage0a.xlsx,0a,alpha,none,h,"['h', 'g']","['Chess', 'Go']","[0, 0.5]","[0, 0]",1,0,0,1,1,1,0,0,0,0,,,,,,,,,,,,,,,,,,,,,,,,,,,,,,,,,,,,,,,,,,,,,,,,,,,,,,,,,,,,,,,1903.7196103429997,None,1903.7196103429997,None,1903.7196103429997,None,h,1,1.173730615999375,1905.235579127002,None,1905.235579127002,None,1905.235579127002,None,1906.469588627002,None,1906.469588627002,None,1906.469588627002,None,1906.469588627002,None,,,,,,,,,,,,,,,,,,,,,,,,,,,,,,,,,,,,,,,,,,,,001,91,2020_Feb_06_1321,spring_faces,3.1.5,60.027574506551005,
condition files/Stage0a.xlsx,0a,beta,none,g,"['h', 'g']","['Chess', 'Go']","[0, 0.5]","[0, 0]",1,0,0,1,1,1,0,1,1,1,,,,,,,,,,,,,,,,,,,,,,,,,,,,,,,,,,,,,,,,,,,,,,,,,,,,,,,,,,,,,,,1908.4357055710025,None,1908.4357055710025,None,1908.4357055710025,None,g,1,0.9685505470006319,1909.9686907140022,None,1909.9686907140022,None,1909.9686907140022,None,1911.0021204940022,None,1911.0021204940022,None,1911.0021204940022,None,1911.0021204940022,None,,,,,,,,,,,,,,,,,,,,,,,,,,,,,,,,,,,,,,,,,,,,001,91,2020_Feb_06_1321,spring_faces,3.1.5,60.027574506551005,
condition files/Stage0a.xlsx,0a,alpha,none,h,"['h', 'g']","['Chess', 'Go']","[0, 0.5]","[0, 0]",1,0,0,2,2,2,0,0,0,0,,,,,,,,,,,,,,,,,,,,,,,,,,,,,,,,,,,,,,,,,,,,,,,,,,,,,,,,,,,,,,,1912.9860307260024,None,1912.9860307260024,None,1912.9860307260024,None,h,1,0.8663126079991343,1914.518992600002,None,1914.518992600002,None,1914.518992600002,None,1915.4355280519994,None,1915.4355280519994,None,1915.4355280519994,None,1915.4355280519994,None,,,,,,,,,,,,,,,,,,,,,,,,,,,,,,,,,,,,,,,,,,,,001,91,2020_Feb_06_1321,spring_faces,3.1.5,60.027574506551005,
condition files/Stage0a.xlsx,0a,beta,none,g,"['h', 'g']","['Chess', 'Go']","[0, 0.5]","[0, 0]",1,0,0,2,2,2,0,1,1,1,,,,,,,,,,,,,,,,,,,,,,,,,,,,,,,,,,,,,,,,,,,,,,,,,,,,,,,,,,,,,,,1917.4022983290015,None,1917.4022983290015,None,1917.4022983290015,None,g,1,0.7377345539971429,1918.935578730001,None,1918.935578730001,None,1918.935578730001,None,1919.735855543,None,1919.735855543,None,1919.735855543,None,1919.735855543,None,,,,,,,,,,,,,,,,,,,,,,,,,,,,,,,,,,,,,,,,,,,,001,91,2020_Feb_06_1321,spring_faces,3.1.5,60.027574506551005,
condition files/Stage0a.xlsx,0a,alpha,none,h,"['h', 'g']","['Chess', 'Go']","[0, 0.5]","[0, 0]",1,0,0,3,3,3,0,0,0,0,,,,,,,,,,,,,,,,,,,,,,,,,,,,,,,,,,,,,,,,,,,,,,,,,,,,,,,,,,,,,,,1921.7190433840005,None,1921.7190433840005,None,1921.7190433840005,None,h,1,0.4845374949982215,1923.252720389999,None,1923.252720389999,None,1923.252720389999,None,1923.8034853499994,None,1923.8034853499994,None,1923.8034853499994,None,1923.8034853499994,None,,,,,,,,,,,,,,,,,,,,,,,,,,,,,,,,,,,,,,,,,,,,001,91,2020_Feb_06_1321,spring_faces,3.1.5,60.027574506551005,
condition files/Stage0a.xlsx,0a,beta,none,g,"['h', 'g']","['Chess', 'Go']","[0, 0.5]","[0, 0]",1,0,0,3,3,3,0,1,1,1,,,,,,,,,,,,,,,,,,,,,,,,,,,,,,,,,,,,,,,,,,,,,,,,,,,,,,,,,,,,,,,1925.7685574339994,None,1925.7685574339994,None,1925.7685574339994,None,g,1,0.5792041329987114,1927.3020675570006,None,1927.3020675570006,None,1927.3020675570006,None,1927.9356793379993,None,1927.9356793379993,None,1927.9356793379993,None,1927.9356793379993,None,,,,,,,,,,,,,,,,,,,,,,,,,,,,,,,,,,,,,,,,,,,,001,91,2020_Feb_06_1321,spring_faces,3.1.5,60.027574506551005,
condition files/Stage0a.xlsx,0a,beta,none,g,"['h', 'g']","['Chess', 'Go']","[0, 0.5]","[0, 0]",1,0,0,4,4,4,0,0,0,1,,,,,,,,,,,,,,,,,,,,,,,,,,,,,,,,,,,,,,,,,,,,,,,,,,,,,,,,,,,,,,,1929.9189429360013,None,1929.9189429360013,None,1929.9189429360013,None,g,1,0.7971990180012654,1931.4360569090022,None,1931.4360569090022,None,1931.4360569090022,None,1932.286050523002,None,1932.286050523002,None,1932.286050523002,None,1932.286050523002,None,,,,,,,,,,,,,,,,,,,,,,,,,,,,,,,,,,,,,,,,,,,,001,91,2020_Feb_06_1321,spring_faces,3.1.5,60.027574506551005,
condition files/Stage0a.xlsx,0a,alpha,none,h,"['h', 'g']","['Chess', 'Go']","[0, 0.5]","[0, 0]",1,0,0,4,4,4,0,1,1,0,,,,,,,,,,,,,,,,,,,,,,,,,,,,,,,,,,,,,,,,,,,,,,,,,,,,,,,,,,,,,,,1934.2523195870017,None,1934.2523195870017,None,1934.2523195870017,None,h,1,0.671266249002656,1935.786026414,None,1935.786026414,None,1935.786026414,None,1936.5195904909997,None,1936.5195904909997,None,1936.5195904909997,None,1936.5195904909997,None,,,,,,,,,,,,,,,,,,,,,,,,,,,,,,,,,,,,,,,,,,,,001,91,2020_Feb_06_1321,spring_faces,3.1.5,60.027574506551005,
condition files/Stage0a.xlsx,0a,beta,none,g,"['h', 'g']","['Chess', 'Go']","[0, 0.5]","[0, 0]",1,0,0,5,5,5,0,0,0,1,,,,,,,,,,,,,,,,,,,,,,,,,,,,,,,,,,,,,,,,,,,,,,,,,,,,,,,,,,,,,,,1938.502451946999,None,1938.502451946999,None,1938.502451946999,None,g,1,0.5983529609984544,1940.0189348990025,None,1940.0189348990025,None,1940.0189348990025,None,1940.6692552669992,None,1940.6692552669992,None,1940.6692552669992,None,1940.6692552669992,None,,,,,,,,,,,,,,,,,,,,,,,,,,,,,,,,,,,,,,,,,,,,001,91,2020_Feb_06_1321,spring_faces,3.1.5,60.027574506551005,
condition files/Stage0a.xlsx,0a,alpha,none,h,"['h', 'g']","['Chess', 'Go']","[0, 0.5]","[0, 0]",1,0,0,5,5,5,0,1,1,0,,,,,,,,,,,,,,,,,,,,,,,,,,,,,,,,,,,,,,,,,,,,,,,,,,,,,,,,,,,,,,,1942.635908332999,None,1942.635908332999,None,1942.635908332999,None,h,1,0.6241505920006603,1944.1691607020002,None,1944.1691607020002,None,1944.1691607020002,None,1944.8515553290017,None,1944.8515553290017,None,1944.8515553290017,None,1944.8515553290017,None,,,,,,,,,,,,,,,,,,,,,,,,,,,,,,,,,,,,,,,,,,,,001,91,2020_Feb_06_1321,spring_faces,3.1.5,60.027574506551005,
condition files/Stage0b_1.xlsx,0b,none,beta,g,"['h', 'g']","['Chess', 'Go']","[-0.15, 0.5]","[0.15, 0.5]",0,1,0,6,6,6,0,0,0,1,,,,,,,,,,,,,,,,,,,,,,,,,,,,,,,,,,,,,,,,,,,,,,,,,,,,,,,,,,,,,,,1946.8360162380013,None,1946.8360162380013,None,1946.8360162380013,None,g,1,0.77536962099839,1948.3859659810005,None,1948.3859659810005,None,1948.3859659810005,None,1949.2246865160014,None,1949.2246865160014,None,1949.2246865160014,None,1949.2246865160014,None,,,,,,,,,,,,,,,,,,,,,,,,,,,,,,,,,,,,,,,,,,,,001,91,2020_Feb_06_1321,spring_faces,3.1.5,60.027574506551005,
condition files/Stage0b_1.xlsx,0b,alpha,none,h,"['h', 'g']","['Chess', 'Go']","[-0.15, 0.5]","[0.15, 0.5]",1,0,0,6,6,6,0,1,1,0,,,,,,,,,,,,,,,,,,,,,,,,,,,,,,,,,,,,,,,,,,,,,,,,,,,,,,,,,,,,,,,1951.1856797,None,1951.1856797,None,1951.1856797,None,h,1,0.660759402999247,1952.7245028159996,None,1952.7245028159996,None,1952.7245028159996,None,1953.4397904270008,None,1953.4397904270008,None,1953.4397904270008,None,1953.4397904270008,None,,,,,,,,,,,,,,,,,,,,,,,,,,,,,,,,,,,,,,,,,,,,001,91,2020_Feb_06_1321,spring_faces,3.1.5,60.027574506551005,
condition files/Stage0b_2.xlsx,0b,none,alpha,h,"['h', 'g']","['Chess', 'Go']","[-0.15, 0.5]","[0.15, 0.5]",0,1,0,7,7,7,0,0,0,0,,,,,,,,,,,,,,,,,,,,,,,,,,,,,,,,,,,,,,,,,,,,,,,,,,,,,,,,,,,,,,,1955.4193809120006,None,1955.4193809120006,None,1955.4193809120006,None,h,1,0.9920381359988824,1956.9693139160008,None,1956.9693139160008,None,1956.9693139160008,None,1958.019374339001,None,1958.019374339001,None,1958.019374339001,None,1958.019374339001,None,,,,,,,,,,,,,,,,,,,,,,,,,,,,,,,,,,,,,,,,,,,,001,91,2020_Feb_06_1321,spring_faces,3.1.5,60.027574506551005,
condition files/Stage0b_2.xlsx,0b,beta,none,g,"['h', 'g']","['Chess', 'Go']","[-0.15, 0.5]","[0.15, 0.5]",1,0,0,7,7,7,0,1,1,1,,,,,,,,,,,,,,,,,,,,,,,,,,,,,,,,,,,,,,,,,,,,,,,,,,,,,,,,,,,,,,,1959.9857475179997,None,1959.9857475179997,None,1959.9857475179997,None,g,1,0.5547883099970932,1961.518508868001,None,1961.518508868001,None,1961.518508868001,None,1962.135633504,None,1962.135633504,None,1962.135633504,None,1962.135633504,None,,,,,,,,,,,,,,,,,,,,,,,,,,,,,,,,,,,,,,,,,,,,001,91,2020_Feb_06_1321,spring_faces,3.1.5,60.027574506551005,
condition files/Stage0b_1.xlsx,0b,none,beta,g,"['h', 'g']","['Chess', 'Go']","[-0.15, 0.5]","[0.15, 0.5]",0,1,0,8,8,8,0,0,0,1,,,,,,,,,,,,,,,,,,,,,,,,,,,,,,,,,,,,,,,,,,,,,,,,,,,,,,,,,,,,,,,1964.118771166999,None,1964.118771166999,None,1964.118771166999,None,g,1,0.7231577590027882,1965.638187820001,None,1965.638187820001,None,1965.638187820001,None,1966.4192604380005,None,1966.4192604380005,None,1966.4192604380005,None,1966.4192604380005,None,,,,,,,,,,,,,,,,,,,,,,,,,,,,,,,,,,,,,,,,,,,,001,91,2020_Feb_06_1321,spring_faces,3.1.5,60.027574506551005,
condition files/Stage0b_1.xlsx,0b,alpha,none,h,"['h', 'g']","['Chess', 'Go']","[-0.15, 0.5]","[0.15, 0.5]",1,0,0,8,8,8,0,1,1,0,,,,,,,,,,,,,,,,,,,,,,,,,,,,,,,,,,,,,,,,,,,,,,,,,,,,,,,,,,,,,,,1968.385629884,None,1968.385629884,None,1968.385629884,None,h,1,0.742650019001303,1969.922621214002,None,1969.922621214002,None,1969.922621214002,None,1970.7200251350005,None,1970.7200251350005,None,1970.7200251350005,None,1970.7200251350005,None,,,,,,,,,,,,,,,,,,,,,,,,,,,,,,,,,,,,,,,,,,,,001,91,2020_Feb_06_1321,spring_faces,3.1.5,60.027574506551005,
condition files/Stage0b_2.xlsx,0b,beta,none,g,"['h', 'g']","['Chess', 'Go']","[-0.15, 0.5]","[0.15, 0.5]",1,0,0,9,9,9,0,0,0,1,,,,,,,,,,,,,,,,,,,,,,,,,,,,,,,,,,,,,,,,,,,,,,,,,,,,,,,,,,,,,,,1972.7023117380013,None,1972.7023117380013,None,1972.7023117380013,None,g,1,1.0052140969964967,1974.236085831999,None,1974.236085831999,None,1974.236085831999,None,1975.302266114999,None,1975.302266114999,None,1975.302266114999,None,1975.302266114999,None,,,,,,,,,,,,,,,,,,,,,,,,,,,,,,,,,,,,,,,,,,,,001,91,2020_Feb_06_1321,spring_faces,3.1.5,60.027574506551005,
condition files/Stage0b_2.xlsx,0b,none,alpha,h,"['h', 'g']","['Chess', 'Go']","[-0.15, 0.5]","[0.15, 0.5]",0,1,0,9,9,9,0,1,1,0,,,,,,,,,,,,,,,,,,,,,,,,,,,,,,,,,,,,,,,,,,,,,,,,,,,,,,,,,,,,,,,1977.268990599001,None,1977.268990599001,None,1977.268990599001,None,h,1,0.4059983760016621,1978.8192832620007,None,1978.8192832620007,None,1978.8192832620007,None,1979.3021354340017,None,1979.3021354340017,None,1979.3021354340017,None,1979.3021354340017,None,,,,,,,,,,,,,,,,,,,,,,,,,,,,,,,,,,,,,,,,,,,,001,91,2020_Feb_06_1321,spring_faces,3.1.5,60.027574506551005,
condition files/Stage0b_1.xlsx,0b,alpha,none,h,"['h', 'g']","['Chess', 'Go']","[-0.15, 0.5]","[0.15, 0.5]",1,0,0,10,10,10,0,0,0,0,,,,,,,,,,,,,,,,,,,,,,,,,,,,,,,,,,,,,,,,,,,,,,,,,,,,,,,,,,,,,,,1981.2688135259996,None,1981.2688135259996,None,1981.2688135259996,None,h,1,0.8027358719991753,1982.806539538,None,1982.806539538,None,1982.806539538,None,1983.6693550000018,None,1983.6693550000018,None,1983.6693550000018,None,1983.6693550000018,None,,,,,,,,,,,,,,,,,,,,,,,,,,,,,,,,,,,,,,,,,,,,001,91,2020_Feb_06_1321,spring_faces,3.1.5,60.027574506551005,
condition files/Stage0b_1.xlsx,0b,none,beta,g,"['h', 'g']","['Chess', 'Go']","[-0.15, 0.5]","[0.15, 0.5]",0,1,0,10,10,10,0,1,1,1,,,,,,,,,,,,,,,,,,,,,,,,,,,,,,,,,,,,,,,,,,,,,,,,,,,,,,,,,,,,,,,1985.6357314410016,None,1985.6357314410016,None,1985.6357314410016,None,g,1,0.8057365959975868,1987.1716044950008,None,1987.1716044950008,None,1987.1716044950008,None,1988.0356606679998,None,1988.0356606679998,None,1988.0356606679998,None,1988.0356606679998,None,,,,,,,,,,,,,,,,,,,,,,,,,,,,,,,,,,,,,,,,,,,,001,91,2020_Feb_06_1321,spring_faces,3.1.5,60.027574506551005,
condition files/Stage0b_2.xlsx,0b,beta,none,g,"['h', 'g']","['Chess', 'Go']","[-0.15, 0.5]","[0.15, 0.5]",1,0,0,11,11,11,0,0,0,1,,,,,,,,,,,,,,,,,,,,,,,,,,,,,,,,,,,,,,,,,,,,,,,,,,,,,,,,,,,,,,,1990.0195072370007,None,1990.0195072370007,None,1990.0195072370007,None,g,1,0.5822412579982483,1991.5549938040022,None,1991.5549938040022,None,1991.5549938040022,None,1992.201945711,None,1992.201945711,None,1992.201945711,None,1992.201945711,None,,,,,,,,,,,,,,,,,,,,,,,,,,,,,,,,,,,,,,,,,,,,001,91,2020_Feb_06_1321,spring_faces,3.1.5,60.027574506551005,
condition files/Stage0b_2.xlsx,0b,none,alpha,h,"['h', 'g']","['Chess', 'Go']","[-0.15, 0.5]","[0.15, 0.5]",0,1,0,11,11,11,0,1,1,0,,,,,,,,,,,,,,,,,,,,,,,,,,,,,,,,,,,,,,,,,,,,,,,,,,,,,,,,,,,,,,,1994.1689433810025,None,1994.1689433810025,None,1994.1689433810025,None,h,1,0.4002424879981845,1995.705044921,None,1995.705044921,None,1995.705044921,None,1996.168649616,None,1996.168649616,None,1996.168649616,None,1996.168649616,None,,,,,,,,,,,,,,,,,,,,,,,,,,,,,,,,,,,,,,,,,,,,001,91,2020_Feb_06_1321,spring_faces,3.1.5,60.027574506551005,
condition files/Stage0c_1.xlsx,0c,theta,alpha,h,"['h', 'g']","['Chess', 'Go']","[-0.15, 0.5]","[0.15, 0.5]",1,1,0,12,12,12,0,0,0,0,,,,,,,,,,,,,,,,,,,,,,,,,,,,,,,,,,,,,,,,,,,,,,,,,,,,,,,,,,,,,,,1998.1522091940024,None,1998.1522091940024,None,1998.1522091940024,None,h,1,4.482051753002452,1999.6872477079996,None,1999.6872477079996,None,1999.6872477079996,None,2004.2188709750008,None,2004.2188709750008,None,2004.2188709750008,None,2004.2188709750008,None,,,,,,,,,,,,,,,,,,,,,,,,,,,,,,,,,,,,,,,,,,,,001,91,2020_Feb_06_1321,spring_faces,3.1.5,60.027574506551005,
condition files/Stage0c_1.xlsx,0c,alpha,phi,h,"['h', 'g']","['Chess', 'Go']","[-0.15, 0.5]","[0.15, 0.5]",1,1,0,12,12,12,0,1,1,1,,,,,,,,,,,,,,,,,,,,,,,,,,,,,,,,,,,,,,,,,,,,,,,,,,,,,,,,,,,,,,,2006.1853347590004,None,2006.1853347590004,None,2006.1853347590004,None,h,1,2.3223844459971588,2007.7189035510019,None,2007.7189035510019,None,2007.7189035510019,None,2010.1027818399998,None,2010.1027818399998,None,2010.1027818399998,None,2010.1027818399998,None,,,,,,,,,,,,,,,,,,,,,,,,,,,,,,,,,,,,,,,,,,,,001,91,2020_Feb_06_1321,spring_faces,3.1.5,60.027574506551005,
condition files/Stage0c_1.xlsx,0c,beta,theta,g,"['h', 'g']","['Chess', 'Go']","[-0.15, 0.5]","[0.15, 0.5]",1,1,0,12,12,12,0,2,2,2,,,,,,,,,,,,,,,,,,,,,,,,,,,,,,,,,,,,,,,,,,,,,,,,,,,,,,,,,,,,,,,2012.0690716890022,None,2012.0690716890022,None,2012.0690716890022,None,g,1,1.1268339520029258,2013.6024890209992,None,2013.6024890209992,None,2013.6024890209992,None,2014.7856174490007,None,2014.7856174490007,None,2014.7856174490007,None,2014.7856174490007,None,,,,,,,,,,,,,,,,,,,,,,,,,,,,,,,,,,,,,,,,,,,,001,91,2020_Feb_06_1321,spring_faces,3.1.5,60.027574506551005,
condition files/Stage0c_1.xlsx,0c,phi,beta,g,"['h', 'g']","['Chess', 'Go']","[-0.15, 0.5]","[0.15, 0.5]",1,1,0,12,12,12,0,3,3,3,,,,,,,,,,,,,,,,,,,,,,,,,,,,,,,,,,,,,,,,,,,,,,,,,,,,,,,,,,,,,,,2016.7520838769997,None,2016.7520838769997,None,2016.7520838769997,None,g,1,1.1477227229988785,2018.2855426900023,None,2018.2855426900023,None,2018.2855426900023,None,2019.4860770580017,None,2019.4860770580017,None,2019.4860770580017,None,2019.4860770580017,None,,,,,,,,,,,,,,,,,,,,,,,,,,,,,,,,,,,,,,,,,,,,001,91,2020_Feb_06_1321,spring_faces,3.1.5,60.027574506551005,
condition files/Stage0c_2.xlsx,0c,alpha,theta,h,"['h', 'g']","['Chess', 'Go']","[-0.15, 0.5]","[0.15, 0.5]",1,1,0,13,13,13,0,0,0,0,,,,,,,,,,,,,,,,,,,,,,,,,,,,,,,,,,,,,,,,,,,,,,,,,,,,,,,,,,,,,,,2021.4689697819995,None,2021.4689697819995,None,2021.4689697819995,None,h,1,1.310858195000037,2023.0024222339998,None,2023.0024222339998,None,2023.0024222339998,None,2024.3694371080019,None,2024.3694371080019,None,2024.3694371080019,None,2024.3694371080019,None,,,,,,,,,,,,,,,,,,,,,,,,,,,,,,,,,,,,,,,,,,,,001,91,2020_Feb_06_1321,spring_faces,3.1.5,60.027574506551005,
condition files/Stage0c_2.xlsx,0c,phi,alpha,h,"['h', 'g']","['Chess', 'Go']","[-0.15, 0.5]","[0.15, 0.5]",1,1,0,13,13,13,0,1,1,1,,,,,,,,,,,,,,,,,,,,,,,,,,,,,,,,,,,,,,,,,,,,,,,,,,,,,,,,,,,,,,,2026.3353034749998,None,2026.3353034749998,None,2026.3353034749998,None,h,1,1.02018138999847,2027.869102083001,None,2027.869102083001,None,2027.869102083001,None,2028.9365937520015,None,2028.9365937520015,None,2028.9365937520015,None,2028.9365937520015,None,,,,,,,,,,,,,,,,,,,,,,,,,,,,,,,,,,,,,,,,,,,,001,91,2020_Feb_06_1321,spring_faces,3.1.5,60.027574506551005,
condition files/Stage0c_2.xlsx,0c,beta,phi,g,"['h', 'g']","['Chess', 'Go']","[-0.15, 0.5]","[0.15, 0.5]",1,1,0,13,13,13,0,2,2,3,,,,,,,,,,,,,,,,,,,,,,,,,,,,,,,,,,,,,,,,,,,,,,,,,,,,,,,,,,,,,,,2030.918972055002,None,2030.918972055002,None,2030.918972055002,None,g,1,0.8845231220002461,2032.4526981800009,None,2032.4526981800009,None,2032.4526981800009,None,2033.4021822089999,None,2033.4021822089999,None,2033.4021822089999,None,2033.4021822089999,None,,,,,,,,,,,,,,,,,,,,,,,,,,,,,,,,,,,,,,,,,,,,001,91,2020_Feb_06_1321,spring_faces,3.1.5,60.027574506551005,
condition files/Stage0c_2.xlsx,0c,theta,beta,g,"['h', 'g']","['Chess', 'Go']","[-0.15, 0.5]","[0.15, 0.5]",1,1,0,13,13,13,0,3,3,2,,,,,,,,,,,,,,,,,,,,,,,,,,,,,,,,,,,,,,,,,,,,,,,,,,,,,,,,,,,,,,,2035.3689759890003,None,2035.3689759890003,None,2035.3689759890003,None,g,1,1.5706587439999566,2036.902628718999,None,2036.902628718999,None,2036.902628718999,None,2038.5196638870002,None,2038.5196638870002,None,2038.5196638870002,None,2038.5196638870002,None,,,,,,,,,,,,,,,,,,,,,,,,,,,,,,,,,,,,,,,,,,,,001,91,2020_Feb_06_1321,spring_faces,3.1.5,60.027574506551005,
condition files/Stage0c_1.xlsx,0c,theta,alpha,h,"['h', 'g']","['Chess', 'Go']","[-0.15, 0.5]","[0.15, 0.5]",1,1,0,14,14,14,0,0,0,0,,,,,,,,,,,,,,,,,,,,,,,,,,,,,,,,,,,,,,,,,,,,,,,,,,,,,,,,,,,,,,,2040.5194074380015,None,2040.5194074380015,None,2040.5194074380015,None,h,1,0.8686516039997514,2042.052618359001,None,2042.052618359001,None,2042.052618359001,None,2042.9854714370013,None,2042.9854714370013,None,2042.9854714370013,None,2042.9854714370013,None,,,,,,,,,,,,,,,,,,,,,,,,,,,,,,,,,,,,,,,,,,,,001,91,2020_Feb_06_1321,spring_faces,3.1.5,60.027574506551005,
condition files/Stage0c_1.xlsx,0c,phi,beta,g,"['h', 'g']","['Chess', 'Go']","[-0.15, 0.5]","[0.15, 0.5]",1,1,0,14,14,14,0,1,1,3,,,,,,,,,,,,,,,,,,,,,,,,,,,,,,,,,,,,,,,,,,,,,,,,,,,,,,,,,,,,,,,2044.9523403660023,None,2044.9523403660023,None,2044.9523403660023,None,g,1,0.7551817919993482,2046.4861087220015,None,2046.4861087220015,None,2046.4861087220015,None,2047.3023712190006,None,2047.3023712190006,None,2047.3023712190006,None,2047.3023712190006,None,,,,,,,,,,,,,,,,,,,,,,,,,,,,,,,,,,,,,,,,,,,,001,91,2020_Feb_06_1321,spring_faces,3.1.5,60.027574506551005,
condition files/Stage0c_1.xlsx,0c,beta,theta,g,"['h', 'g']","['Chess', 'Go']","[-0.15, 0.5]","[0.15, 0.5]",1,1,0,14,14,14,0,2,2,2,,,,,,,,,,,,,,,,,,,,,,,,,,,,,,,,,,,,,,,,,,,,,,,,,,,,,,,,,,,,,,,2049.268957035001,None,2049.268957035001,None,2049.268957035001,None,g,1,0.758445584000583,2050.802891616,None,2050.802891616,None,2050.802891616,None,2051.619417695001,None,2051.619417695001,None,2051.619417695001,None,2051.619417695001,None,,,,,,,,,,,,,,,,,,,,,,,,,,,,,,,,,,,,,,,,,,,,001,91,2020_Feb_06_1321,spring_faces,3.1.5,60.027574506551005,
condition files/Stage0c_1.xlsx,0c,alpha,phi,h,"['h', 'g']","['Chess', 'Go']","[-0.15, 0.5]","[0.15, 0.5]",1,1,0,14,14,14,0,3,3,1,,,,,,,,,,,,,,,,,,,,,,,,,,,,,,,,,,,,,,,,,,,,,,,,,,,,,,,,,,,,,,,2053.585756233002,None,2053.585756233002,None,2053.585756233002,None,h,1,0.9699315469988505,2055.119360632001,None,2055.119360632001,None,2055.119360632001,None,2056.1526745180017,None,2056.1526745180017,None,2056.1526745180017,None,2056.1526745180017,None,,,,,,,,,,,,,,,,,,,,,,,,,,,,,,,,,,,,,,,,,,,,001,91,2020_Feb_06_1321,spring_faces,3.1.5,60.027574506551005,
condition files/Stage0c_2.xlsx,0c,theta,beta,g,"['h', 'g']","['Chess', 'Go']","[-0.15, 0.5]","[0.15, 0.5]",1,1,0,15,15,15,0,0,0,2,,,,,,,,,,,,,,,,,,,,,,,,,,,,,,,,,,,,,,,,,,,,,,,,,,,,,,,,,,,,,,,2058.1360179420008,None,2058.1360179420008,None,2058.1360179420008,None,g,1,0.7724880099995062,2059.6527978660015,None,2059.6527978660015,None,2059.6527978660015,None,2060.4856223060015,None,2060.4856223060015,None,2060.4856223060015,None,2060.4856223060015,None,,,,,,,,,,,,,,,,,,,,,,,,,,,,,,,,,,,,,,,,,,,,001,91,2020_Feb_06_1321,spring_faces,3.1.5,60.027574506551005,
condition files/Stage0c_2.xlsx,0c,phi,alpha,h,"['h', 'g']","['Chess', 'Go']","[-0.15, 0.5]","[0.15, 0.5]",1,1,0,15,15,15,0,1,1,1,,,,,,,,,,,,,,,,,,,,,,,,,,,,,,,,,,,,,,,,,,,,,,,,,,,,,,,,,,,,,,,2062.452522937001,None,2062.452522937001,None,2062.452522937001,None,h,1,0.6789852420006355,2063.9862905869995,None,2063.9862905869995,None,2063.9862905869995,None,2064.719536905999,None,2064.719536905999,None,2064.719536905999,None,2064.719536905999,None,,,,,,,,,,,,,,,,,,,,,,,,,,,,,,,,,,,,,,,,,,,,001,91,2020_Feb_06_1321,spring_faces,3.1.5,60.027574506551005,
condition files/Stage0c_2.xlsx,0c,beta,phi,g,"['h', 'g']","['Chess', 'Go']","[-0.15, 0.5]","[0.15, 0.5]",1,1,0,15,15,15,0,2,2,3,,,,,,,,,,,,,,,,,,,,,,,,,,,,,,,,,,,,,,,,,,,,,,,,,,,,,,,,,,,,,,,2066.6858173719993,None,2066.6858173719993,None,2066.6858173719993,None,g,1,0.6539122430003772,2068.2193789890007,None,2068.2193789890007,None,2068.2193789890007,None,2068.9358670740003,None,2068.9358670740003,None,2068.9358670740003,None,2068.9358670740003,None,,,,,,,,,,,,,,,,,,,,,,,,,,,,,,,,,,,,,,,,,,,,001,91,2020_Feb_06_1321,spring_faces,3.1.5,60.027574506551005,
condition files/Stage0c_2.xlsx,0c,alpha,theta,h,"['h', 'g']","['Chess', 'Go']","[-0.15, 0.5]","[0.15, 0.5]",1,1,0,15,15,15,0,3,3,0,,,,,,,,,,,,,,,,,,,,,,,,,,,,,,,,,,,,,,,,,,,,,,,,,,,,,,,,,,,,,,,2070.9024263030005,None,2070.9024263030005,None,2070.9024263030005,None,h,1,0.9971300379984314,2072.4361232890005,None,2072.4361232890005,None,2072.4361232890005,None,2073.4858514379994,None,2073.4858514379994,None,2073.4858514379994,None,2073.4858514379994,None,,,,,,,,,,,,,,,,,,,,,,,,,,,,,,,,,,,,,,,,,,,,001,91,2020_Feb_06_1321,spring_faces,3.1.5,60.027574506551005,
condition files/Stage0c_1.xlsx,0c,alpha,phi,h,"['h', 'g']","['Chess', 'Go']","[-0.15, 0.5]","[0.15, 0.5]",1,1,0,16,16,16,0,0,0,1,,,,,,,,,,,,,,,,,,,,,,,,,,,,,,,,,,,,,,,,,,,,,,,,,,,,,,,,,,,,,,,2075.4691534660014,None,2075.4691534660014,None,2075.4691534660014,None,h,1,0.783078172000387,2077.0022190980017,None,2077.0022190980017,None,2077.0022190980017,None,2077.820882529002,None,2077.820882529002,None,2077.820882529002,None,2077.820882529002,None,,,,,,,,,,,,,,,,,,,,,,,,,,,,,,,,,,,,,,,,,,,,001,91,2020_Feb_06_1321,spring_faces,3.1.5,60.027574506551005,
condition files/Stage0c_1.xlsx,0c,beta,theta,g,"['h', 'g']","['Chess', 'Go']","[-0.15, 0.5]","[0.15, 0.5]",1,1,0,16,16,16,0,1,1,2,,,,,,,,,,,,,,,,,,,,,,,,,,,,,,,,,,,,,,,,,,,,,,,,,,,,,,,,,,,,,,,2079.8019047529997,None,2079.8019047529997,None,2079.8019047529997,None,g,1,1.1212793359991338,2081.336012633001,None,2081.336012633001,None,2081.336012633001,None,2082.5190050070014,None,2082.5190050070014,None,2082.5190050070014,None,2082.5190050070014,None,,,,,,,,,,,,,,,,,,,,,,,,,,,,,,,,,,,,,,,,,,,,001,91,2020_Feb_06_1321,spring_faces,3.1.5,60.027574506551005,
condition files/Stage0c_1.xlsx,0c,phi,beta,g,"['h', 'g']","['Chess', 'Go']","[-0.15, 0.5]","[0.15, 0.5]",1,1,0,16,16,16,0,2,2,3,,,,,,,,,,,,,,,,,,,,,,,,,,,,,,,,,,,,,,,,,,,,,,,,,,,,,,,,,,,,,,,2084.485735929,None,2084.485735929,None,2084.485735929,None,g,1,0.7906228360006935,2086.0186532940024,None,2086.0186532940024,None,2086.0186532940024,None,2086.869291660001,None,2086.869291660001,None,2086.869291660001,None,2086.869291660001,None,,,,,,,,,,,,,,,,,,,,,,,,,,,,,,,,,,,,,,,,,,,,001,91,2020_Feb_06_1321,spring_faces,3.1.5,60.027574506551005,
condition files/Stage0c_1.xlsx,0c,theta,alpha,h,"['h', 'g']","['Chess', 'Go']","[-0.15, 0.5]","[0.15, 0.5]",1,1,0,16,16,16,0,3,3,0,,,,,,,,,,,,,,,,,,,,,,,,,,,,,,,,,,,,,,,,,,,,,,,,,,,,,,,,,,,,,,,2088.8355269780004,None,2088.8355269780004,None,2088.8355269780004,None,h,1,0.8882711559999734,2090.369017000001,None,2090.369017000001,None,2090.369017000001,None,2091.3189179010005,None,2091.3189179010005,None,2091.3189179010005,None,2091.3189179010005,None,,,,,,,,,,,,,,,,,,,,,,,,,,,,,,,,,,,,,,,,,,,,001,91,2020_Feb_06_1321,spring_faces,3.1.5,60.027574506551005,
condition files/Stage0c_2.xlsx,0c,phi,alpha,h,"['h', 'g']","['Chess', 'Go']","[-0.15, 0.5]","[0.15, 0.5]",1,1,0,17,17,17,0,0,0,1,,,,,,,,,,,,,,,,,,,,,,,,,,,,,,,,,,,,,,,,,,,,,,,,,,,,,,,,,,,,,,,2093.302515569001,None,2093.302515569001,None,2093.302515569001,None,h,1,0.8372188829998777,2094.836088215001,None,2094.836088215001,None,2094.836088215001,None,2095.7208422309996,None,2095.7208422309996,None,2095.7208422309996,None,2095.7208422309996,None,,,,,,,,,,,,,,,,,,,,,,,,,,,,,,,,,,,,,,,,,,,,001,91,2020_Feb_06_1321,spring_faces,3.1.5,60.027574506551005,
condition files/Stage0c_2.xlsx,0c,theta,beta,g,"['h', 'g']","['Chess', 'Go']","[-0.15, 0.5]","[0.15, 0.5]",1,1,0,17,17,17,0,1,1,2,,,,,,,,,,,,,,,,,,,,,,,,,,,,,,,,,,,,,,,,,,,,,,,,,,,,,,,,,,,,,,,2097.702056770002,None,2097.702056770002,None,2097.702056770002,None,g,1,0.8057337539976288,2099.235563219001,None,2099.235563219001,None,2099.235563219001,None,2100.102704248002,None,2100.102704248002,None,2100.102704248002,None,2100.102704248002,None,,,,,,,,,,,,,,,,,,,,,,,,,,,,,,,,,,,,,,,,,,,,001,91,2020_Feb_06_1321,spring_faces,3.1.5,60.027574506551005,
condition files/Stage0c_2.xlsx,0c,alpha,theta,h,"['h', 'g']","['Chess', 'Go']","[-0.15, 0.5]","[0.15, 0.5]",1,1,0,17,17,17,0,2,2,0,,,,,,,,,,,,,,,,,,,,,,,,,,,,,,,,,,,,,,,,,,,,,,,,,,,,,,,,,,,,,,,2102.068766288001,None,2102.068766288001,None,2102.068766288001,None,h,1,1.4152066950009612,2103.6020646940015,None,2103.6020646940015,None,2103.6020646940015,None,2105.0687550850016,None,2105.0687550850016,None,2105.0687550850016,None,2105.0687550850016,None,,,,,,,,,,,,,,,,,,,,,,,,,,,,,,,,,,,,,,,,,,,,001,91,2020_Feb_06_1321,spring_faces,3.1.5,60.027574506551005,
condition files/Stage0c_2.xlsx,0c,beta,phi,g,"['h', 'g']","['Chess', 'Go']","[-0.15, 0.5]","[0.15, 0.5]",1,1,0,17,17,17,0,3,3,3,,,,,,,,,,,,,,,,,,,,,,,,,,,,,,,,,,,,,,,,,,,,,,,,,,,,,,,,,,,,,,,2107.035687296,None,2107.035687296,None,2107.035687296,None,g,1,0.975941590997536,2108.569301087002,None,2108.569301087002,None,2108.569301087002,None,2109.6031046669996,None,2109.6031046669996,None,2109.6031046669996,None,2109.6031046669996,None,,,,,,,,,,,,,,,,,,,,,,,,,,,,,,,,,,,,,,,,,,,,001,91,2020_Feb_06_1321,spring_faces,3.1.5,60.027574506551005,
,,,,,,,,,,,,,,,,,,,,,,,,,,,,,,,,,,,,,,,,,,,,,,,,,,,,,,,,,,,,,,,,,,,,,,,,,,,,,,,,,,,,,,,,,,,,,,,,,,,,,,,,2111.586013824999,None,space,2.1113199229985185,2116.585887568999,None,,,,,,,,,,,,,,,,,,,,,,,,,,,,,,,,,,,,,,001,91,2020_Feb_06_1321,spring_faces,3.1.5,60.027574506551005,
condition files/Stage1_1.xlsx,,T2,B2,m,"['c', 'm']","['Clue', 'Monopoly']","[-0.15, 0.5]","[0.15, 0.5]",1,1,,,,,,,,,0,0,0,0,0,0,0,3,,,,,,,,,,,,,,,,,,,,,,,,,,,,,,,,,,,,,,,,,,,,,,,,,,,,,,,2118.7526008610002,None,2118.7526008610002,None,2118.7526008610002,None,m,1,2.0275785209996684,2120.285705896,None,2120.285705896,None,2120.285705896,None,2122.386337453001,None,2122.386337453001,None,2122.386337453001,None,2122.386337453001,None,,,,,,,2116.585887568999,None,,,,,,,,,,,,,,,,,,,,,,,,,,,,,,,,,,,,001,91,2020_Feb_06_1321,spring_faces,3.1.5,60.027574506551005,
condition files/Stage1_1.xlsx,,B1,T2,c,"['c', 'm']","['Clue', 'Monopoly']","[-0.15, 0.5]","[0.15, 0.5]",1,1,,,,,,,,,0,0,0,0,0,1,1,1,,,,,,,,,,,,,,,,,,,,,,,,,,,,,,,,,,,,,,,,,,,,,,,,,,,,,,,2124.3357640190006,None,2124.3357640190006,None,2124.3357640190006,None,m,0,1.7226164499988954,2125.8707383790024,None,2125.8707383790024,None,2125.8707383790024,None,2127.6522682489995,None,2127.6522682489995,None,2127.6522682489995,None,2127.6522682489995,None,,,,,,,,,,,,,,,,,,,,,,,,,,,,,,,,,,,,,,,,,,,,001,91,2020_Feb_06_1321,spring_faces,3.1.5,60.027574506551005,
condition files/Stage1_1.xlsx,,B4,T4,m,"['c', 'm']","['Clue', 'Monopoly']","[-0.15, 0.5]","[0.15, 0.5]",1,1,,,,,,,,,0,0,0,0,0,2,2,7,,,,,,,,,,,,,,,,,,,,,,,,,,,,,,,,,,,,,,,,,,,,,,,,,,,,,,,2129.619077042,None,2129.619077042,None,2129.619077042,None,c,0,2.47293400000126,2131.1524195320017,None,2131.1524195320017,None,2131.1524195320017,None,2133.685976523,None,2133.685976523,None,2133.685976523,None,2133.685976523,None,,,,,,,,,,,,,,,,,,,,,,,,,,,,,,,,,,,,,,,,,,,,001,91,2020_Feb_06_1321,spring_faces,3.1.5,60.027574506551005,
condition files/Stage1_1.xlsx,,B2,T1,m,"['c', 'm']","['Clue', 'Monopoly']","[-0.15, 0.5]","[0.15, 0.5]",1,1,,,,,,,,,0,0,0,0,0,3,3,2,,,,,,,,,,,,,,,,,,,,,,,,,,,,,,,,,,,,,,,,,,,,,,,,,,,,,,,2135.652306330001,None,2135.652306330001,None,2135.652306330001,None,m,1,3.511757847998524,2137.1855231100017,None,2137.1855231100017,None,2137.1855231100017,None,2140.7529879249996,None,2140.7529879249996,None,2140.7529879249996,None,2140.7529879249996,None,,,,,,,,,,,,,,,,,,,,,,,,,,,,,,,,,,,,,,,,,,,,001,91,2020_Feb_06_1321,spring_faces,3.1.5,60.027574506551005,
condition files/Stage1_1.xlsx,,T4,B3,m,"['c', 'm']","['Clue', 'Monopoly']","[-0.15, 0.5]","[0.15, 0.5]",1,1,,,,,,,,,0,0,0,0,0,4,4,6,,,,,,,,,,,,,,,,,,,,,,,,,,,,,,,,,,,,,,,,,,,,,,,,,,,,,,,2142.7190113979996,None,2142.7190113979996,None,2142.7190113979996,None,m,1,2.4128893689994584,2144.2523433060014,None,2144.2523433060014,None,2144.2523433060014,None,2146.719697143999,None,2146.719697143999,None,2146.719697143999,None,2146.719697143999,None,,,,,,,,,,,,,,,,,,,,,,,,,,,,,,,,,,,,,,,,,,,,001,91,2020_Feb_06_1321,spring_faces,3.1.5,60.027574506551005,
condition files/Stage1_1.xlsx,,T3,B4,c,"['c', 'm']","['Clue', 'Monopoly']","[-0.15, 0.5]","[0.15, 0.5]",1,1,,,,,,,,,0,0,0,0,0,5,5,5,,,,,,,,,,,,,,,,,,,,,,,,,,,,,,,,,,,,,,,,,,,,,,,,,,,,,,,2148.685912159999,None,2148.685912159999,None,2148.685912159999,None,c,1,2.125197899000341,2150.2361307620013,None,2150.2361307620013,None,2150.2361307620013,None,2152.4208024729996,None,2152.4208024729996,None,2152.4208024729996,None,2152.4208024729996,None,,,,,,,,,,,,,,,,,,,,,,,,,,,,,,,,,,,,,,,,,,,,001,91,2020_Feb_06_1321,spring_faces,3.1.5,60.027574506551005,
condition files/Stage1_1.xlsx,,T1,B1,c,"['c', 'm']","['Clue', 'Monopoly']","[-0.15, 0.5]","[0.15, 0.5]",1,1,,,,,,,,,0,0,0,0,0,6,6,0,,,,,,,,,,,,,,,,,,,,,,,,,,,,,,,,,,,,,,,,,,,,,,,,,,,,,,,2154.3857676459993,None,2154.3857676459993,None,2154.3857676459993,None,m,0,3.081997892997606,2155.919303851002,None,2155.919303851002,None,2155.919303851002,None,2159.0528379919997,None,2159.0528379919997,None,2159.0528379919997,None,2159.0528379919997,None,,,,,,,,,,,,,,,,,,,,,,,,,,,,,,,,,,,,,,,,,,,,001,91,2020_Feb_06_1321,spring_faces,3.1.5,60.027574506551005,
condition files/Stage1_1.xlsx,,B3,T3,c,"['c', 'm']","['Clue', 'Monopoly']","[-0.15, 0.5]","[0.15, 0.5]",1,1,,,,,,,,,0,0,0,0,0,7,7,4,,,,,,,,,,,,,,,,,,,,,,,,,,,,,,,,,,,,,,,,,,,,,,,,,,,,,,,2161.019195287001,None,2161.019195287001,None,2161.019195287001,None,c,1,1.7290133540009265,2162.552272213001,None,2162.552272213001,None,2162.552272213001,None,2164.3360732460023,None,2164.3360732460023,None,2164.3360732460023,None,2164.3360732460023,None,,,,,,,,,,,,,,,,,,,,,,,,,,,,,,,,,,,,,,,,,,,,001,91,2020_Feb_06_1321,spring_faces,3.1.5,60.027574506551005,
condition files/Stage1_2.xlsx,,B3,T4,m,"['c', 'm']","['Clue', 'Monopoly']","[-0.15, 0.5]","[0.15, 0.5]",1,1,,,,,,,,,0,1,1,1,0,0,0,6,,,,,,,,,,,,,,,,,,,,,,,,,,,,,,,,,,,,,,,,,,,,,,,,,,,,,,,2166.3190874579996,None,2166.3190874579996,None,2166.3190874579996,None,m,1,1.3411473410014878,2167.852111693999,None,2167.852111693999,None,2167.852111693999,None,2169.2691041809994,None,2169.2691041809994,None,2169.2691041809994,None,2169.2691041809994,None,,,,,,,,,,,,,,,,,,,,,,,,,,,,,,,,,,,,,,,,,,,,001,91,2020_Feb_06_1321,spring_faces,3.1.5,60.027574506551005,
condition files/Stage1_2.xlsx,,T3,B3,c,"['c', 'm']","['Clue', 'Monopoly']","[-0.15, 0.5]","[0.15, 0.5]",1,1,,,,,,,,,0,1,1,1,0,1,1,4,,,,,,,,,,,,,,,,,,,,,,,,,,,,,,,,,,,,,,,,,,,,,,,,,,,,,,,2171.219243571002,None,2171.219243571002,None,2171.219243571002,None,c,1,2.3931162820008467,2172.752137659001,None,2172.752137659001,None,2172.752137659001,None,2175.202572279999,None,2175.202572279999,None,2175.202572279999,None,2175.202572279999,None,,,,,,,,,,,,,,,,,,,,,,,,,,,,,,,,,,,,,,,,,,,,001,91,2020_Feb_06_1321,spring_faces,3.1.5,60.027574506551005,
condition files/Stage1_2.xlsx,,B1,T1,c,"['c', 'm']","['Clue', 'Monopoly']","[-0.15, 0.5]","[0.15, 0.5]",1,1,,,,,,,,,0,1,1,1,0,2,2,0,,,,,,,,,,,,,,,,,,,,,,,,,,,,,,,,,,,,,,,,,,,,,,,,,,,,,,,2177.1684230499995,None,2177.1684230499995,None,2177.1684230499995,None,c,1,3.432653885000036,2178.704596186999,None,2178.704596186999,None,2178.704596186999,None,2182.202776716,None,2182.202776716,None,2182.202776716,None,2182.202776716,None,,,,,,,,,,,,,,,,,,,,,,,,,,,,,,,,,,,,,,,,,,,,001,91,2020_Feb_06_1321,spring_faces,3.1.5,60.027574506551005,
condition files/Stage1_2.xlsx,,T2,B1,c,"['c', 'm']","['Clue', 'Monopoly']","[-0.15, 0.5]","[0.15, 0.5]",1,1,,,,,,,,,0,1,1,1,0,3,3,1,,,,,,,,,,,,,,,,,,,,,,,,,,,,,,,,,,,,,,,,,,,,,,,,,,,,,,,2184.168334468999,None,2184.168334468999,None,2184.168334468999,None,c,1,1.1524800740007777,2185.7048276839996,None,2185.7048276839996,None,2185.7048276839996,None,2186.9193582570006,None,2186.9193582570006,None,2186.9193582570006,None,2186.9193582570006,None,,,,,,,,,,,,,,,,,,,,,,,,,,,,,,,,,,,,,,,,,,,,001,91,2020_Feb_06_1321,spring_faces,3.1.5,60.027574506551005,
condition files/Stage1_2.xlsx,,T4,B4,m,"['c', 'm']","['Clue', 'Monopoly']","[-0.15, 0.5]","[0.15, 0.5]",1,1,,,,,,,,,0,1,1,1,0,4,4,7,,,,,,,,,,,,,,,,,,,,,,,,,,,,,,,,,,,,,,,,,,,,,,,,,,,,,,,2188.8856675040006,None,2188.8856675040006,None,2188.8856675040006,None,m,1,1.3970474609996018,2190.4362128870016,None,2190.4362128870016,None,2190.4362128870016,None,2191.887696804002,None,2191.887696804002,None,2191.887696804002,None,2191.887696804002,None,,,,,,,,,,,,,,,,,,,,,,,,,,,,,,,,,,,,,,,,,,,,001,91,2020_Feb_06_1321,spring_faces,3.1.5,60.027574506551005,
condition files/Stage1_2.xlsx,,T1,B2,m,"['c', 'm']","['Clue', 'Monopoly']","[-0.15, 0.5]","[0.15, 0.5]",1,1,,,,,,,,,0,1,1,1,0,5,5,2,,,,,,,,,,,,,,,,,,,,,,,,,,,,,,,,,,,,,,,,,,,,,,,,,,,,,,,2193.8524188180018,None,2193.8524188180018,None,2193.8524188180018,None,c,0,2.670729030000075,2195.3865995510023,None,2195.3865995510023,None,2195.3865995510023,None,2198.119011428,None,2198.119011428,None,2198.119011428,None,2198.119011428,None,,,,,,,,,,,,,,,,,,,,,,,,,,,,,,,,,,,,,,,,,,,,001,91,2020_Feb_06_1321,spring_faces,3.1.5,60.027574506551005,
condition files/Stage1_2.xlsx,,B4,T3,c,"['c', 'm']","['Clue', 'Monopoly']","[-0.15, 0.5]","[0.15, 0.5]",1,1,,,,,,,,,0,1,1,1,0,6,6,5,,,,,,,,,,,,,,,,,,,,,,,,,,,,,,,,,,,,,,,,,,,,,,,,,,,,,,,2200.085387059,None,2200.085387059,None,2200.085387059,None,c,1,2.5814123480013222,2201.6198889049992,None,2201.6198889049992,None,2201.6198889049992,None,2204.254667125002,None,2204.254667125002,None,2204.254667125002,None,2204.254667125002,None,,,,,,,,,,,,,,,,,,,,,,,,,,,,,,,,,,,,,,,,,,,,001,91,2020_Feb_06_1321,spring_faces,3.1.5,60.027574506551005,
condition files/Stage1_2.xlsx,,B2,T2,m,"['c', 'm']","['Clue', 'Monopoly']","[-0.15, 0.5]","[0.15, 0.5]",1,1,,,,,,,,,0,1,1,1,0,7,7,3,,,,,,,,,,,,,,,,,,,,,,,,,,,,,,,,,,,,,,,,,,,,,,,,,,,,,,,2206.2186222130003,None,2206.2186222130003,None,2206.2186222130003,None,m,1,2.9122005340032047,2207.753051085001,None,2207.753051085001,None,2207.753051085001,None,2210.7196661820017,None,2210.7196661820017,None,2210.7196661820017,None,2210.7196661820017,None,,,,,,,,,,,,,,,,,,,,,,,,,,,,,,,,,,,,,,,,,,,,001,91,2020_Feb_06_1321,spring_faces,3.1.5,60.027574506551005,
condition files/Stage1_1.xlsx,,T3,B4,c,"['c', 'm']","['Clue', 'Monopoly']","[-0.15, 0.5]","[0.15, 0.5]",1,1,,,,,,,,,0,2,2,2,0,0,0,5,,,,,,,,,,,,,,,,,,,,,,,,,,,,,,,,,,,,,,,,,,,,,,,,,,,,,,,2212.7024941220006,None,2212.7024941220006,None,2212.7024941220006,None,c,1,1.8056902480020653,2214.235561963,None,2214.235561963,None,2214.235561963,None,2216.103440368999,None,2216.103440368999,None,2216.103440368999,None,2216.103440368999,None,,,,,,,,,,,,,,,,,,,,,,,,,,,,,,,,,,,,,,,,,,,,001,91,2020_Feb_06_1321,spring_faces,3.1.5,60.027574506551005,
condition files/Stage1_1.xlsx,,T1,B1,c,"['c', 'm']","['Clue', 'Monopoly']","[-0.15, 0.5]","[0.15, 0.5]",1,1,,,,,,,,,0,2,2,2,0,1,1,0,,,,,,,,,,,,,,,,,,,,,,,,,,,,,,,,,,,,,,,,,,,,,,,,,,,,,,,2218.0684306059993,None,2218.0684306059993,None,2218.0684306059993,None,c,1,1.046417386001849,2219.6030452740015,None,2219.6030452740015,None,2219.6030452740015,None,2220.7024240050014,None,2220.7024240050014,None,2220.7024240050014,None,2220.7024240050014,None,,,,,,,,,,,,,,,,,,,,,,,,,,,,,,,,,,,,,,,,,,,,001,91,2020_Feb_06_1321,spring_faces,3.1.5,60.027574506551005,
condition files/Stage1_1.xlsx,,B2,T1,m,"['c', 'm']","['Clue', 'Monopoly']","[-0.15, 0.5]","[0.15, 0.5]",1,1,,,,,,,,,0,2,2,2,0,2,2,2,,,,,,,,,,,,,,,,,,,,,,,,,,,,,,,,,,,,,,,,,,,,,,,,,,,,,,,2222.668741417001,None,2222.668741417001,None,2222.668741417001,None,m,1,3.7246071330009727,2224.204736806001,None,2224.204736806001,None,2224.204736806001,None,2228.0029056310013,None,2228.0029056310013,None,2228.0029056310013,None,2228.0029056310013,None,,,,,,,,,,,,,,,,,,,,,,,,,,,,,,,,,,,,,,,,,,,,001,91,2020_Feb_06_1321,spring_faces,3.1.5,60.027574506551005,
condition files/Stage1_1.xlsx,,B1,T2,c,"['c', 'm']","['Clue', 'Monopoly']","[-0.15, 0.5]","[0.15, 0.5]",1,1,,,,,,,,,0,2,2,2,0,3,3,1,,,,,,,,,,,,,,,,,,,,,,,,,,,,,,,,,,,,,,,,,,,,,,,,,,,,,,,2229.952419674002,None,2229.952419674002,None,2229.952419674002,None,c,1,1.435231957999349,2231.4860503570017,None,2231.4860503570017,None,2231.4860503570017,None,2233.0027461300015,None,2233.0027461300015,None,2233.0027461300015,None,2233.0027461300015,None,,,,,,,,,,,,,,,,,,,,,,,,,,,,,,,,,,,,,,,,,,,,001,91,2020_Feb_06_1321,spring_faces,3.1.5,60.027574506551005,
condition files/Stage1_1.xlsx,,B3,T3,c,"['c', 'm']","['Clue', 'Monopoly']","[-0.15, 0.5]","[0.15, 0.5]",1,1,,,,,,,,,0,2,2,2,0,4,4,4,,,,,,,,,,,,,,,,,,,,,,,,,,,,,,,,,,,,,,,,,,,,,,,,,,,,,,,2234.9519052780015,None,2234.9519052780015,None,2234.9519052780015,None,c,1,2.338714452002023,2236.502567424999,None,2236.502567424999,None,2236.502567424999,None,2238.9024888210006,None,2238.9024888210006,None,2238.9024888210006,None,2238.9024888210006,None,,,,,,,,,,,,,,,,,,,,,,,,,,,,,,,,,,,,,,,,,,,,001,91,2020_Feb_06_1321,spring_faces,3.1.5,60.027574506551005,
condition files/Stage1_1.xlsx,,T2,B2,m,"['c', 'm']","['Clue', 'Monopoly']","[-0.15, 0.5]","[0.15, 0.5]",1,1,,,,,,,,,0,2,2,2,0,5,5,3,,,,,,,,,,,,,,,,,,,,,,,,,,,,,,,,,,,,,,,,,,,,,,,,,,,,,,,2240.869253178,None,2240.869253178,None,2240.869253178,None,m,1,2.5502403030004643,2242.419073686,None,2242.419073686,None,2242.419073686,None,2245.0217927209997,None,2245.0217927209997,None,2245.0217927209997,None,2245.0217927209997,None,,,,,,,,,,,,,,,,,,,,,,,,,,,,,,,,,,,,,,,,,,,,001,91,2020_Feb_06_1321,spring_faces,3.1.5,60.027574506551005,
condition files/Stage1_1.xlsx,,B4,T4,m,"['c', 'm']","['Clue', 'Monopoly']","[-0.15, 0.5]","[0.15, 0.5]",1,1,,,,,,,,,0,2,2,2,0,6,6,7,,,,,,,,,,,,,,,,,,,,,,,,,,,,,,,,,,,,,,,,,,,,,,,,,,,,,,,2246.9853933970007,None,2246.9853933970007,None,2246.9853933970007,None,m,1,1.618030870999064,2248.519185680001,None,2248.519185680001,None,2248.519185680001,None,2250.202722440001,None,2250.202722440001,None,2250.202722440001,None,2250.202722440001,None,,,,,,,,,,,,,,,,,,,,,,,,,,,,,,,,,,,,,,,,,,,,001,91,2020_Feb_06_1321,spring_faces,3.1.5,60.027574506551005,
condition files/Stage1_1.xlsx,,T4,B3,m,"['c', 'm']","['Clue', 'Monopoly']","[-0.15, 0.5]","[0.15, 0.5]",1,1,,,,,,,,,0,2,2,2,0,7,7,6,,,,,,,,,,,,,,,,,,,,,,,,,,,,,,,,,,,,,,,,,,,,,,,,,,,,,,,2252.1684045010006,None,2252.1684045010006,None,2252.1684045010006,None,m,1,1.218987697000557,2253.702279805002,None,2253.702279805002,None,2253.702279805002,None,2254.985379493999,None,2254.985379493999,None,2254.985379493999,None,2254.985379493999,None,,,,,,,,,,,,,,,,,,,,,,,,,,,,,,,,,,,,,,,,,,,,001,91,2020_Feb_06_1321,spring_faces,3.1.5,60.027574506551005,
condition files/Stage1_2.xlsx,,B3,T4,m,"['c', 'm']","['Clue', 'Monopoly']","[-0.15, 0.5]","[0.15, 0.5]",1,1,,,,,,,,,0,3,3,3,0,0,0,6,,,,,,,,,,,,,,,,,,,,,,,,,,,,,,,,,,,,,,,,,,,,,,,,,,,,,,,2256.96917004,None,2256.96917004,None,2256.96917004,None,m,1,0.6263487090000126,2258.518887006001,None,2258.518887006001,None,2258.518887006001,None,2259.2020383080016,None,2259.2020383080016,None,2259.2020383080016,None,2259.2020383080016,None,,,,,,,,,,,,,,,,,,,,,,,,,,,,,,,,,,,,,,,,,,,,001,91,2020_Feb_06_1321,spring_faces,3.1.5,60.027574506551005,
condition files/Stage1_2.xlsx,,T2,B1,c,"['c', 'm']","['Clue', 'Monopoly']","[-0.15, 0.5]","[0.15, 0.5]",1,1,,,,,,,,,0,3,3,3,0,1,1,1,,,,,,,,,,,,,,,,,,,,,,,,,,,,,,,,,,,,,,,,,,,,,,,,,,,,,,,2261.1689105040023,None,2261.1689105040023,None,2261.1689105040023,None,c,1,1.0196149359981064,2262.7016696300016,None,2262.7016696300016,None,2262.7016696300016,None,2263.7862785200014,None,2263.7862785200014,None,2263.7862785200014,None,2263.7862785200014,None,,,,,,,,,,,,,,,,,,,,,,,,,,,,,,,,,,,,,,,,,,,,001,91,2020_Feb_06_1321,spring_faces,3.1.5,60.027574506551005,
condition files/Stage1_2.xlsx,,T3,B3,c,"['c', 'm']","['Clue', 'Monopoly']","[-0.15, 0.5]","[0.15, 0.5]",1,1,,,,,,,,,0,3,3,3,0,2,2,4,,,,,,,,,,,,,,,,,,,,,,,,,,,,,,,,,,,,,,,,,,,,,,,,,,,,,,,2265.752300073,None,2265.752300073,None,2265.752300073,None,c,1,2.7553872230018897,2267.2859074820008,None,2267.2859074820008,None,2267.2859074820008,None,2270.1027553970016,None,2270.1027553970016,None,2270.1027553970016,None,2270.1027553970016,None,,,,,,,,,,,,,,,,,,,,,,,,,,,,,,,,,,,,,,,,,,,,001,91,2020_Feb_06_1321,spring_faces,3.1.5,60.027574506551005,
condition files/Stage1_2.xlsx,,T4,B4,m,"['c', 'm']","['Clue', 'Monopoly']","[-0.15, 0.5]","[0.15, 0.5]",1,1,,,,,,,,,0,3,3,3,0,3,3,7,,,,,,,,,,,,,,,,,,,,,,,,,,,,,,,,,,,,,,,,,,,,,,,,,,,,,,,2272.068830586002,None,2272.068830586002,None,2272.068830586002,None,m,1,1.3658533939997142,2273.6194450600015,None,2273.6194450600015,None,2273.6194450600015,None,2275.0527830870014,None,2275.0527830870014,None,2275.0527830870014,None,2275.0527830870014,None,,,,,,,,,,,,,,,,,,,,,,,,,,,,,,,,,,,,,,,,,,,,001,91,2020_Feb_06_1321,spring_faces,3.1.5,60.027574506551005,
condition files/Stage1_2.xlsx,,B4,T3,c,"['c', 'm']","['Clue', 'Monopoly']","[-0.15, 0.5]","[0.15, 0.5]",1,1,,,,,,,,,0,3,3,3,0,4,4,5,,,,,,,,,,,,,,,,,,,,,,,,,,,,,,,,,,,,,,,,,,,,,,,,,,,,,,,2277.0017558710024,None,2277.0017558710024,None,2277.0017558710024,None,c,1,1.3126633419997233,2278.552574442001,None,2278.552574442001,None,2278.552574442001,None,2279.921555885001,None,2279.921555885001,None,2279.921555885001,None,2279.921555885001,None,,,,,,,,,,,,,,,,,,,,,,,,,,,,,,,,,,,,,,,,,,,,001,91,2020_Feb_06_1321,spring_faces,3.1.5,60.027574506551005,
condition files/Stage1_2.xlsx,,B2,T2,m,"['c', 'm']","['Clue', 'Monopoly']","[-0.15, 0.5]","[0.15, 0.5]",1,1,,,,,,,,,0,3,3,3,0,5,5,3,,,,,,,,,,,,,,,,,,,,,,,,,,,,,,,,,,,,,,,,,,,,,,,,,,,,,,,2281.8858704390004,None,2281.8858704390004,None,2281.8858704390004,None,m,1,1.3897372469982656,2283.4196145470014,None,2283.4196145470014,None,2283.4196145470014,None,2284.8852446460005,None,2284.8852446460005,None,2284.8852446460005,None,2284.8852446460005,None,,,,,,,,,,,,,,,,,,,,,,,,,,,,,,,,,,,,,,,,,,,,001,91,2020_Feb_06_1321,spring_faces,3.1.5,60.027574506551005,
condition files/Stage1_2.xlsx,,T1,B2,m,"['c', 'm']","['Clue', 'Monopoly']","[-0.15, 0.5]","[0.15, 0.5]",1,1,,,,,,,,,0,3,3,3,0,6,6,2,,,,,,,,,,,,,,,,,,,,,,,,,,,,,,,,,,,,,,,,,,,,,,,,,,,,,,,2286.835941751,None,2286.835941751,None,2286.835941751,None,m,1,1.1421179390017642,2288.3711242930003,None,2288.3711242930003,None,2288.3711242930003,None,2289.568909310001,None,2289.568909310001,None,2289.568909310001,None,2289.568909310001,None,,,,,,,,,,,,,,,,,,,,,,,,,,,,,,,,,,,,,,,,,,,,001,91,2020_Feb_06_1321,spring_faces,3.1.5,60.027574506551005,
condition files/Stage1_2.xlsx,,B1,T1,c,"['c', 'm']","['Clue', 'Monopoly']","[-0.15, 0.5]","[0.15, 0.5]",1,1,,,,,,,,,0,3,3,3,0,7,7,0,,,,,,,,,,,,,,,,,,,,,,,,,,,,,,,,,,,,,,,,,,,,,,,,,,,,,,,2291.5356682480015,None,2291.5356682480015,None,2291.5356682480015,None,c,1,0.5392154260007374,2293.0861096570006,None,2293.0861096570006,None,2293.0861096570006,None,2293.7020930200015,None,2293.7020930200015,None,2293.7020930200015,None,2293.7020930200015,None,,,,,,,,,,,,,,,,,,,,,,,,,,,,,,,,,,,,,,,,,,,,001,91,2020_Feb_06_1321,spring_faces,3.1.5,60.027574506551005,
condition files/Stage1_1.xlsx,,B4,T4,m,"['c', 'm']","['Clue', 'Monopoly']","[-0.15, 0.5]","[0.15, 0.5]",1,1,,,,,,,,,0,4,4,4,0,0,0,7,,,,,,,,,,,,,,,,,,,,,,,,,,,,,,,,,,,,,,,,,,,,,,,,,,,,,,,2295.668909508,None,2295.668909508,None,2295.668909508,None,m,1,0.8856858689978253,2297.2196149770025,None,2297.2196149770025,None,2297.2196149770025,None,2298.171087529001,None,2298.171087529001,None,2298.171087529001,None,2298.171087529001,None,,,,,,,,,,,,,,,,,,,,,,,,,,,,,,,,,,,,,,,,,,,,001,91,2020_Feb_06_1321,spring_faces,3.1.5,60.027574506551005,
condition files/Stage1_1.xlsx,,B3,T3,c,"['c', 'm']","['Clue', 'Monopoly']","[-0.15, 0.5]","[0.15, 0.5]",1,1,,,,,,,,,0,4,4,4,0,1,1,4,,,,,,,,,,,,,,,,,,,,,,,,,,,,,,,,,,,,,,,,,,,,,,,,,,,,,,,2300.1357045410005,None,2300.1357045410005,None,2300.1357045410005,None,m,0,2.164456826998503,2301.6688054780025,None,2301.6688054780025,None,2301.6688054780025,None,2303.887419441002,None,2303.887419441002,None,2303.887419441002,None,2303.887419441002,None,,,,,,,,,,,,,,,,,,,,,,,,,,,,,,,,,,,,,,,,,,,,001,91,2020_Feb_06_1321,spring_faces,3.1.5,60.027574506551005,
condition files/Stage1_1.xlsx,,T2,B2,m,"['c', 'm']","['Clue', 'Monopoly']","[-0.15, 0.5]","[0.15, 0.5]",1,1,,,,,,,,,0,4,4,4,0,2,2,3,,,,,,,,,,,,,,,,,,,,,,,,,,,,,,,,,,,,,,,,,,,,,,,,,,,,,,,2305.852266164002,None,2305.852266164002,None,2305.852266164002,None,m,1,0.8793593659975159,2307.385927362,None,2307.385927362,None,2307.385927362,None,2308.3362188460014,None,2308.3362188460014,None,2308.3362188460014,None,2308.3362188460014,None,,,,,,,,,,,,,,,,,,,,,,,,,,,,,,,,,,,,,,,,,,,,001,91,2020_Feb_06_1321,spring_faces,3.1.5,60.027574506551005,
condition files/Stage1_1.xlsx,,T1,B1,c,"['c', 'm']","['Clue', 'Monopoly']","[-0.15, 0.5]","[0.15, 0.5]",1,1,,,,,,,,,0,4,4,4,0,3,3,0,,,,,,,,,,,,,,,,,,,,,,,,,,,,,,,,,,,,,,,,,,,,,,,,,,,,,,,2310.2856873750025,None,2310.2856873750025,None,2310.2856873750025,None,c,1,0.8779833070002496,2311.8192483450002,None,2311.8192483450002,None,2311.8192483450002,None,2312.7539170490018,None,2312.7539170490018,None,2312.7539170490018,None,2312.7539170490018,None,,,,,,,,,,,,,,,,,,,,,,,,,,,,,,,,,,,,,,,,,,,,001,91,2020_Feb_06_1321,spring_faces,3.1.5,60.027574506551005,
condition files/Stage1_1.xlsx,,T4,B3,m,"['c', 'm']","['Clue', 'Monopoly']","[-0.15, 0.5]","[0.15, 0.5]",1,1,,,,,,,,,0,4,4,4,0,4,4,6,,,,,,,,,,,,,,,,,,,,,,,,,,,,,,,,,,,,,,,,,,,,,,,,,,,,,,,2314.718813145002,None,2314.718813145002,None,2314.718813145002,None,m,1,0.8439786290000484,2316.2693022509993,None,2316.2693022509993,None,2316.2693022509993,None,2317.186026773001,None,2317.186026773001,None,2317.186026773001,None,2317.186026773001,None,,,,,,,,,,,,,,,,,,,,,,,,,,,,,,,,,,,,,,,,,,,,001,91,2020_Feb_06_1321,spring_faces,3.1.5,60.027574506551005,
condition files/Stage1_1.xlsx,,T3,B4,c,"['c', 'm']","['Clue', 'Monopoly']","[-0.15, 0.5]","[0.15, 0.5]",1,1,,,,,,,,,0,4,4,4,0,5,5,5,,,,,,,,,,,,,,,,,,,,,,,,,,,,,,,,,,,,,,,,,,,,,,,,,,,,,,,2319.1350519750013,None,2319.1350519750013,None,2319.1350519750013,None,c,1,1.6604998750008235,2320.668862188999,None,2320.668862188999,None,2320.668862188999,None,2322.3871615630014,None,2322.3871615630014,None,2322.3871615630014,None,2322.3871615630014,None,,,,,,,,,,,,,,,,,,,,,,,,,,,,,,,,,,,,,,,,,,,,001,91,2020_Feb_06_1321,spring_faces,3.1.5,60.027574506551005,
condition files/Stage1_1.xlsx,,B1,T2,c,"['c', 'm']","['Clue', 'Monopoly']","[-0.15, 0.5]","[0.15, 0.5]",1,1,,,,,,,,,0,4,4,4,0,6,6,1,,,,,,,,,,,,,,,,,,,,,,,,,,,,,,,,,,,,,,,,,,,,,,,,,,,,,,,2324.3519175809997,None,2324.3519175809997,None,2324.3519175809997,None,c,1,1.2438325919974886,2325.885505779999,None,2325.885505779999,None,2325.885505779999,None,2327.185994907999,None,2327.185994907999,None,2327.185994907999,None,2327.185994907999,None,,,,,,,,,,,,,,,,,,,,,,,,,,,,,,,,,,,,,,,,,,,,001,91,2020_Feb_06_1321,spring_faces,3.1.5,60.027574506551005,
condition files/Stage1_1.xlsx,,B2,T1,m,"['c', 'm']","['Clue', 'Monopoly']","[-0.15, 0.5]","[0.15, 0.5]",1,1,,,,,,,,,0,4,4,4,0,7,7,2,,,,,,,,,,,,,,,,,,,,,,,,,,,,,,,,,,,,,,,,,,,,,,,,,,,,,,,2329.152240023999,None,2329.152240023999,None,2329.152240023999,None,m,1,1.0185987040022155,2330.7026887220018,None,2330.7026887220018,None,2330.7026887220018,None,2331.8030001219995,None,2331.8030001219995,None,2331.8030001219995,None,2331.8030001219995,None,,,,,,,,,,,,,,,,,,,,,,,,,,,,,,,,,,,,,,,,,,,,001,91,2020_Feb_06_1321,spring_faces,3.1.5,60.027574506551005,
condition files/Stage1_2.xlsx,,T1,B2,m,"['c', 'm']","['Clue', 'Monopoly']","[-0.15, 0.5]","[0.15, 0.5]",1,1,,,,,,,,,0,5,5,5,0,0,0,2,,,,,,,,,,,,,,,,,,,,,,,,,,,,,,,,,,,,,,,,,,,,,,,,,,,,,,,2333.768852608002,None,2333.768852608002,None,2333.768852608002,None,m,1,2.049270252999122,2335.320041498002,None,2335.320041498002,None,2335.320041498002,None,2337.4197127059997,None,2337.4197127059997,None,2337.4197127059997,None,2337.4197127059997,None,,,,,,,,,,,,,,,,,,,,,,,,,,,,,,,,,,,,,,,,,,,,001,91,2020_Feb_06_1321,spring_faces,3.1.5,60.027574506551005,
condition files/Stage1_2.xlsx,,T3,B3,c,"['c', 'm']","['Clue', 'Monopoly']","[-0.15, 0.5]","[0.15, 0.5]",1,1,,,,,,,,,0,5,5,5,0,1,1,4,,,,,,,,,,,,,,,,,,,,,,,,,,,,,,,,,,,,,,,,,,,,,,,,,,,,,,,2339.3851358110005,None,2339.3851358110005,None,2339.3851358110005,None,c,1,1.1216424089980137,2340.9196808720008,None,2340.9196808720008,None,2340.9196808720008,None,2342.102556373,None,2342.102556373,None,2342.102556373,None,2342.102556373,None,,,,,,,,,,,,,,,,,,,,,,,,,,,,,,,,,,,,,,,,,,,,001,91,2020_Feb_06_1321,spring_faces,3.1.5,60.027574506551005,
condition files/Stage1_2.xlsx,,T4,B4,m,"['c', 'm']","['Clue', 'Monopoly']","[-0.15, 0.5]","[0.15, 0.5]",1,1,,,,,,,,,0,5,5,5,0,2,2,7,,,,,,,,,,,,,,,,,,,,,,,,,,,,,,,,,,,,,,,,,,,,,,,,,,,,,,,2344.0685595310024,None,2344.0685595310024,None,2344.0685595310024,None,m,1,1.3018444379995344,2345.619432558,None,2345.619432558,None,2345.619432558,None,2346.9880707230004,None,2346.9880707230004,None,2346.9880707230004,None,2346.9880707230004,None,,,,,,,,,,,,,,,,,,,,,,,,,,,,,,,,,,,,,,,,,,,,001,91,2020_Feb_06_1321,spring_faces,3.1.5,60.027574506551005,
condition files/Stage1_2.xlsx,,B4,T3,c,"['c', 'm']","['Clue', 'Monopoly']","[-0.15, 0.5]","[0.15, 0.5]",1,1,,,,,,,,,0,5,5,5,0,3,3,5,,,,,,,,,,,,,,,,,,,,,,,,,,,,,,,,,,,,,,,,,,,,,,,,,,,,,,,2348.952536683002,None,2348.952536683002,None,2348.952536683002,None,c,1,1.170710324000538,2350.486594345999,None,2350.486594345999,None,2350.486594345999,None,2351.719896800001,None,2351.719896800001,None,2351.719896800001,None,2351.719896800001,None,,,,,,,,,,,,,,,,,,,,,,,,,,,,,,,,,,,,,,,,,,,,001,91,2020_Feb_06_1321,spring_faces,3.1.5,60.027574506551005,
condition files/Stage1_2.xlsx,,T2,B1,c,"['c', 'm']","['Clue', 'Monopoly']","[-0.15, 0.5]","[0.15, 0.5]",1,1,,,,,,,,,0,5,5,5,0,4,4,1,,,,,,,,,,,,,,,,,,,,,,,,,,,,,,,,,,,,,,,,,,,,,,,,,,,,,,,2353.685899338001,None,2353.685899338001,None,2353.685899338001,None,c,1,0.7734963539987803,2355.2198685900003,None,2355.2198685900003,None,2355.2198685900003,None,2356.052509109002,None,2356.052509109002,None,2356.052509109002,None,2356.052509109002,None,,,,,,,,,,,,,,,,,,,,,,,,,,,,,,,,,,,,,,,,,,,,001,91,2020_Feb_06_1321,spring_faces,3.1.5,60.027574506551005,
condition files/Stage1_2.xlsx,,B3,T4,m,"['c', 'm']","['Clue', 'Monopoly']","[-0.15, 0.5]","[0.15, 0.5]",1,1,,,,,,,,,0,5,5,5,0,5,5,6,,,,,,,,,,,,,,,,,,,,,,,,,,,,,,,,,,,,,,,,,,,,,,,,,,,,,,,2358.0185772020013,None,2358.0185772020013,None,2358.0185772020013,None,m,1,0.7292696660006186,2359.5519970589994,None,2359.5519970589994,None,2359.5519970589994,None,2360.3384470349993,None,2360.3384470349993,None,2360.3384470349993,None,2360.3384470349993,None,,,,,,,,,,,,,,,,,,,,,,,,,,,,,,,,,,,,,,,,,,,,001,91,2020_Feb_06_1321,spring_faces,3.1.5,60.027574506551005,
condition files/Stage1_2.xlsx,,B1,T1,c,"['c', 'm']","['Clue', 'Monopoly']","[-0.15, 0.5]","[0.15, 0.5]",1,1,,,,,,,,,0,5,5,5,0,6,6,0,,,,,,,,,,,,,,,,,,,,,,,,,,,,,,,,,,,,,,,,,,,,,,,,,,,,,,,2362.302381351001,None,2362.302381351001,None,2362.302381351001,None,c,1,0.797316807002062,2363.8359663539995,None,2363.8359663539995,None,2363.8359663539995,None,2364.7027057170017,None,2364.7027057170017,None,2364.7027057170017,None,2364.7027057170017,None,,,,,,,,,,,,,,,,,,,,,,,,,,,,,,,,,,,,,,,,,,,,001,91,2020_Feb_06_1321,spring_faces,3.1.5,60.027574506551005,
condition files/Stage1_2.xlsx,,B2,T2,m,"['c', 'm']","['Clue', 'Monopoly']","[-0.15, 0.5]","[0.15, 0.5]",1,1,,,,,,,,,0,5,5,5,0,7,7,3,,,,,,,,,,,,,,,,,,,,,,,,,,,,,,,,,,,,,,,,,,,,,,,,,,,,,,,2366.6522357989998,None,2366.6522357989998,None,2366.6522357989998,None,m,1,1.357977908999601,2368.187243102002,None,2368.187243102002,None,2368.187243102002,None,2369.6035943839997,None,2369.6035943839997,None,2369.6035943839997,None,2369.6035943839997,None,,,,,,,,,,,,,,,,,,,,,,,,,,,,,,,,,,,,,,,,,,,,001,91,2020_Feb_06_1321,spring_faces,3.1.5,60.027574506551005,
condition files/Stage1_1.xlsx,,B4,T4,m,"['c', 'm']","['Clue', 'Monopoly']","[-0.15, 0.5]","[0.15, 0.5]",1,1,,,,,,,,,0,6,6,6,0,0,0,7,,,,,,,,,,,,,,,,,,,,,,,,,,,,,,,,,,,,,,,,,,,,,,,,,,,,,,,2371.5855983460024,None,2371.5855983460024,None,2371.5855983460024,None,m,1,0.7611777639976935,2373.136059143002,None,2373.136059143002,None,2373.136059143002,None,2373.9526547700007,None,2373.9526547700007,None,2373.9526547700007,None,2373.9526547700007,None,,,,,,,,,,,,,,,,,,,,,,,,,,,,,,,,,,,,,,,,,,,,001,91,2020_Feb_06_1321,spring_faces,3.1.5,60.027574506551005,
condition files/Stage1_1.xlsx,,B3,T3,c,"['c', 'm']","['Clue', 'Monopoly']","[-0.15, 0.5]","[0.15, 0.5]",1,1,,,,,,,,,0,6,6,6,0,1,1,4,,,,,,,,,,,,,,,,,,,,,,,,,,,,,,,,,,,,,,,,,,,,,,,,,,,,,,,2375.919079689,None,2375.919079689,None,2375.919079689,None,c,1,1.2908711440031766,2377.4543580400023,None,2377.4543580400023,None,2377.4543580400023,None,2378.802065926,None,2378.802065926,None,2378.802065926,None,2378.802065926,None,,,,,,,,,,,,,,,,,,,,,,,,,,,,,,,,,,,,,,,,,,,,001,91,2020_Feb_06_1321,spring_faces,3.1.5,60.027574506551005,
condition files/Stage1_1.xlsx,,T3,B4,c,"['c', 'm']","['Clue', 'Monopoly']","[-0.15, 0.5]","[0.15, 0.5]",1,1,,,,,,,,,0,6,6,6,0,2,2,5,,,,,,,,,,,,,,,,,,,,,,,,,,,,,,,,,,,,,,,,,,,,,,,,,,,,,,,2380.768993952999,None,2380.768993952999,None,2380.768993952999,None,c,1,1.4185432199992647,2382.302731986001,None,2382.302731986001,None,2382.302731986001,None,2383.7861022510006,None,2383.7861022510006,None,2383.7861022510006,None,2383.7861022510006,None,,,,,,,,,,,,,,,,,,,,,,,,,,,,,,,,,,,,,,,,,,,,001,91,2020_Feb_06_1321,spring_faces,3.1.5,60.027574506551005,
condition files/Stage1_1.xlsx,,T1,B1,c,"['c', 'm']","['Clue', 'Monopoly']","[-0.15, 0.5]","[0.15, 0.5]",1,1,,,,,,,,,0,6,6,6,0,3,3,0,,,,,,,,,,,,,,,,,,,,,,,,,,,,,,,,,,,,,,,,,,,,,,,,,,,,,,,2385.7522732040015,None,2385.7522732040015,None,2385.7522732040015,None,c,1,0.8351683750006487,2387.2861222440006,None,2387.2861222440006,None,2387.2861222440006,None,2388.185430010002,None,2388.185430010002,None,2388.185430010002,None,2388.185430010002,None,,,,,,,,,,,,,,,,,,,,,,,,,,,,,,,,,,,,,,,,,,,,001,91,2020_Feb_06_1321,spring_faces,3.1.5,60.027574506551005,
condition files/Stage1_1.xlsx,,B1,T2,c,"['c', 'm']","['Clue', 'Monopoly']","[-0.15, 0.5]","[0.15, 0.5]",1,1,,,,,,,,,0,6,6,6,0,4,4,1,,,,,,,,,,,,,,,,,,,,,,,,,,,,,,,,,,,,,,,,,,,,,,,,,,,,,,,2390.152226205999,None,2390.152226205999,None,2390.152226205999,None,c,1,0.7873519740023767,2391.6859605030004,None,2391.6859605030004,None,2391.6859605030004,None,2392.5358203100004,None,2392.5358203100004,None,2392.5358203100004,None,2392.5358203100004,None,,,,,,,,,,,,,,,,,,,,,,,,,,,,,,,,,,,,,,,,,,,,001,91,2020_Feb_06_1321,spring_faces,3.1.5,60.027574506551005,
condition files/Stage1_1.xlsx,,T4,B3,m,"['c', 'm']","['Clue', 'Monopoly']","[-0.15, 0.5]","[0.15, 0.5]",1,1,,,,,,,,,0,6,6,6,0,5,5,6,,,,,,,,,,,,,,,,,,,,,,,,,,,,,,,,,,,,,,,,,,,,,,,,,,,,,,,2394.502421731002,None,2394.502421731002,None,2394.502421731002,None,m,1,0.8211776639982418,2396.0521222919997,None,2396.0521222919997,None,2396.0521222919997,None,2396.952740069999,None,2396.952740069999,None,2396.952740069999,None,2396.952740069999,None,,,,,,,,,,,,,,,,,,,,,,,,,,,,,,,,,,,,,,,,,,,,001,91,2020_Feb_06_1321,spring_faces,3.1.5,60.027574506551005,
condition files/Stage1_1.xlsx,,B2,T1,m,"['c', 'm']","['Clue', 'Monopoly']","[-0.15, 0.5]","[0.15, 0.5]",1,1,,,,,,,,,0,6,6,6,0,6,6,2,,,,,,,,,,,,,,,,,,,,,,,,,,,,,,,,,,,,,,,,,,,,,,,,,,,,,,,2398.902496390001,None,2398.902496390001,None,2398.902496390001,None,m,1,0.9975097320020723,2400.435772410001,None,2400.435772410001,None,2400.435772410001,None,2401.486045993999,None,2401.486045993999,None,2401.486045993999,None,2401.486045993999,None,,,,,,,,,,,,,,,,,,,,,,,,,,,,,,,,,,,,,,,,,,,,001,91,2020_Feb_06_1321,spring_faces,3.1.5,60.027574506551005,
condition files/Stage1_1.xlsx,,T2,B2,m,"['c', 'm']","['Clue', 'Monopoly']","[-0.15, 0.5]","[0.15, 0.5]",1,1,,,,,,,,,0,6,6,6,0,7,7,3,,,,,,,,,,,,,,,,,,,,,,,,,,,,,,,,,,,,,,,,,,,,,,,,,,,,,,,2403.452415304,None,2403.452415304,None,2403.452415304,None,m,1,0.5764637239990407,2404.9848939190015,None,2404.9848939190015,None,2404.9848939190015,None,2405.6193240700013,None,2405.6193240700013,None,2405.6193240700013,None,2405.6193240700013,None,,,,,,,,,,,,,,,,,,,,,,,,,,,,,,,,,,,,,,,,,,,,001,91,2020_Feb_06_1321,spring_faces,3.1.5,60.027574506551005,
condition files/Stage1_2.xlsx,,T3,B3,c,"['c', 'm']","['Clue', 'Monopoly']","[-0.15, 0.5]","[0.15, 0.5]",1,1,,,,,,,,,0,7,7,7,0,0,0,4,,,,,,,,,,,,,,,,,,,,,,,,,,,,,,,,,,,,,,,,,,,,,,,,,,,,,,,2407.6025030870005,None,2407.6025030870005,None,2407.6025030870005,None,c,1,1.0970804730022792,2409.136196108,None,2409.136196108,None,2409.136196108,None,2410.2863180150016,None,2410.2863180150016,None,2410.2863180150016,None,2410.2863180150016,None,,,,,,,,,,,,,,,,,,,,,,,,,,,,,,,,,,,,,,,,,,,,001,91,2020_Feb_06_1321,spring_faces,3.1.5,60.027574506551005,
condition files/Stage1_2.xlsx,,B1,T1,c,"['c', 'm']","['Clue', 'Monopoly']","[-0.15, 0.5]","[0.15, 0.5]",1,1,,,,,,,,,0,7,7,7,0,1,1,0,,,,,,,,,,,,,,,,,,,,,,,,,,,,,,,,,,,,,,,,,,,,,,,,,,,,,,,2412.2524760550004,None,2412.2524760550004,None,2412.2524760550004,None,c,1,0.8630991499994707,2413.78620133,None,2413.78620133,None,2413.78620133,None,2414.702568560002,None,2414.702568560002,None,2414.702568560002,None,2414.702568560002,None,,,,,,,,,,,,,,,,,,,,,,,,,,,,,,,,,,,,,,,,,,,,001,91,2020_Feb_06_1321,spring_faces,3.1.5,60.027574506551005,
condition files/Stage1_2.xlsx,,T2,B1,c,"['c', 'm']","['Clue', 'Monopoly']","[-0.15, 0.5]","[0.15, 0.5]",1,1,,,,,,,,,0,7,7,7,0,2,2,1,,,,,,,,,,,,,,,,,,,,,,,,,,,,,,,,,,,,,,,,,,,,,,,,,,,,,,,2416.668821067,None,2416.668821067,None,2416.668821067,None,c,1,0.7823196890021791,2418.2030498540007,None,2418.2030498540007,None,2418.2030498540007,None,2419.0363459300024,None,2419.0363459300024,None,2419.0363459300024,None,2419.0363459300024,None,,,,,,,,,,,,,,,,,,,,,,,,,,,,,,,,,,,,,,,,,,,,001,91,2020_Feb_06_1321,spring_faces,3.1.5,60.027574506551005,
condition files/Stage1_2.xlsx,,B4,T3,c,"['c', 'm']","['Clue', 'Monopoly']","[-0.15, 0.5]","[0.15, 0.5]",1,1,,,,,,,,,0,7,7,7,0,3,3,5,,,,,,,,,,,,,,,,,,,,,,,,,,,,,,,,,,,,,,,,,,,,,,,,,,,,,,,2421.0023571540005,None,2421.0023571540005,None,2421.0023571540005,None,c,1,1.1057490459970722,2422.535568757001,None,2422.535568757001,None,2422.535568757001,None,2423.702746289,None,2423.702746289,None,2423.702746289,None,2423.702746289,None,,,,,,,,,,,,,,,,,,,,,,,,,,,,,,,,,,,,,,,,,,,,001,91,2020_Feb_06_1321,spring_faces,3.1.5,60.027574506551005,
condition files/Stage1_2.xlsx,,T4,B4,m,"['c', 'm']","['Clue', 'Monopoly']","[-0.15, 0.5]","[0.15, 0.5]",1,1,,,,,,,,,0,7,7,7,0,4,4,7,,,,,,,,,,,,,,,,,,,,,,,,,,,,,,,,,,,,,,,,,,,,,,,,,,,,,,,2425.6691972590015,None,2425.6691972590015,None,2425.6691972590015,None,m,1,1.0628589350017137,2427.2024280370024,None,2427.2024280370024,None,2427.2024280370024,None,2428.3360196079993,None,2428.3360196079993,None,2428.3360196079993,None,2428.3360196079993,None,,,,,,,,,,,,,,,,,,,,,,,,,,,,,,,,,,,,,,,,,,,,001,91,2020_Feb_06_1321,spring_faces,3.1.5,60.027574506551005,
condition files/Stage1_2.xlsx,,B3,T4,m,"['c', 'm']","['Clue', 'Monopoly']","[-0.15, 0.5]","[0.15, 0.5]",1,1,,,,,,,,,0,7,7,7,0,5,5,6,,,,,,,,,,,,,,,,,,,,,,,,,,,,,,,,,,,,,,,,,,,,,,,,,,,,,,,2430.2857046009995,None,2430.2857046009995,None,2430.2857046009995,None,m,1,0.7811701739992714,2431.8201455529997,None,2431.8201455529997,None,2431.8201455529997,None,2432.652745121999,None,2432.652745121999,None,2432.652745121999,None,2432.652745121999,None,,,,,,,,,,,,,,,,,,,,,,,,,,,,,,,,,,,,,,,,,,,,001,91,2020_Feb_06_1321,spring_faces,3.1.5,60.027574506551005,
condition files/Stage1_2.xlsx,,B2,T2,m,"['c', 'm']","['Clue', 'Monopoly']","[-0.15, 0.5]","[0.15, 0.5]",1,1,,,,,,,,,0,7,7,7,0,6,6,3,,,,,,,,,,,,,,,,,,,,,,,,,,,,,,,,,,,,,,,,,,,,,,,,,,,,,,,2434.618462393999,None,2434.618462393999,None,2434.618462393999,None,m,1,0.991595462000987,2436.1536479470014,None,2436.1536479470014,None,2436.1536479470014,None,2437.202896562001,None,2437.202896562001,None,2437.202896562001,None,2437.202896562001,None,,,,,,,,,,,,,,,,,,,,,,,,,,,,,,,,,,,,,,,,,,,,001,91,2020_Feb_06_1321,spring_faces,3.1.5,60.027574506551005,
condition files/Stage1_2.xlsx,,T1,B2,m,"['c', 'm']","['Clue', 'Monopoly']","[-0.15, 0.5]","[0.15, 0.5]",1,1,,,,,,,,,0,7,7,7,0,7,7,2,,,,,,,,,,,,,,,,,,,,,,,,,,,,,,,,,,,,,,,,,,,,,,,,,,,,,,,2439.1687276390003,None,2439.1687276390003,None,2439.1687276390003,None,m,1,0.7625836430015625,2440.7026721500006,None,2440.7026721500006,None,2440.7026721500006,None,2441.518866606999,None,2441.518866606999,None,2441.518866606999,None,2441.518866606999,None,,,,,,,,,,,,,,,,,,,,,,,,,,,,,,,,,,,,,,,,,,,,001,91,2020_Feb_06_1321,spring_faces,3.1.5,60.027574506551005,
condition files/Stage1_1.xlsx,,T3,B4,c,"['c', 'm']","['Clue', 'Monopoly']","[-0.15, 0.5]","[0.15, 0.5]",1,1,,,,,,,,,0,8,8,8,0,0,0,5,,,,,,,,,,,,,,,,,,,,,,,,,,,,,,,,,,,,,,,,,,,,,,,,,,,,,,,2443.502740822001,None,2443.502740822001,None,2443.502740822001,None,c,1,1.1490220029991178,2445.0362945250017,None,2445.0362945250017,None,2445.0362945250017,None,2446.237257356999,None,2446.237257356999,None,2446.237257356999,None,2446.237257356999,None,,,,,,,,,,,,,,,,,,,,,,,,,,,,,,,,,,,,,,,,,,,,001,91,2020_Feb_06_1321,spring_faces,3.1.5,60.027574506551005,
condition files/Stage1_1.xlsx,,B1,T2,c,"['c', 'm']","['Clue', 'Monopoly']","[-0.15, 0.5]","[0.15, 0.5]",1,1,,,,,,,,,0,8,8,8,0,1,1,1,,,,,,,,,,,,,,,,,,,,,,,,,,,,,,,,,,,,,,,,,,,,,,,,,,,,,,,2448.2029414470016,None,2448.2029414470016,None,2448.2029414470016,None,c,1,1.0252376970020123,2449.736116696,None,2449.736116696,None,2449.736116696,None,2450.8190224140017,None,2450.8190224140017,None,2450.8190224140017,None,2450.8190224140017,None,,,,,,,,,,,,,,,,,,,,,,,,,,,,,,,,,,,,,,,,,,,,001,91,2020_Feb_06_1321,spring_faces,3.1.5,60.027574506551005,
condition files/Stage1_1.xlsx,,B2,T1,m,"['c', 'm']","['Clue', 'Monopoly']","[-0.15, 0.5]","[0.15, 0.5]",1,1,,,,,,,,,0,8,8,8,0,2,2,2,,,,,,,,,,,,,,,,,,,,,,,,,,,,,,,,,,,,,,,,,,,,,,,,,,,,,,,2452.785831923,None,2452.785831923,None,2452.785831923,None,m,1,1.3857018380003865,2454.3196032140004,None,2454.3196032140004,None,2454.3196032140004,None,2455.7708467010016,None,2455.7708467010016,None,2455.7708467010016,None,2455.7708467010016,None,,,,,,,,,,,,,,,,,,,,,,,,,,,,,,,,,,,,,,,,,,,,001,91,2020_Feb_06_1321,spring_faces,3.1.5,60.027574506551005,
condition files/Stage1_1.xlsx,,B4,T4,m,"['c', 'm']","['Clue', 'Monopoly']","[-0.15, 0.5]","[0.15, 0.5]",1,1,,,,,,,,,0,8,8,8,0,3,3,7,,,,,,,,,,,,,,,,,,,,,,,,,,,,,,,,,,,,,,,,,,,,,,,,,,,,,,,2457.7356579410007,None,2457.7356579410007,None,2457.7356579410007,None,m,1,0.6759138960005657,2459.269335035002,None,2459.269335035002,None,2459.269335035002,None,2460.001966120002,None,2460.001966120002,None,2460.001966120002,None,2460.001966120002,None,,,,,,,,,,,,,,,,,,,,,,,,,,,,,,,,,,,,,,,,,,,,001,91,2020_Feb_06_1321,spring_faces,3.1.5,60.027574506551005,
condition files/Stage1_1.xlsx,,T2,B2,m,"['c', 'm']","['Clue', 'Monopoly']","[-0.15, 0.5]","[0.15, 0.5]",1,1,,,,,,,,,0,8,8,8,0,4,4,3,,,,,,,,,,,,,,,,,,,,,,,,,,,,,,,,,,,,,,,,,,,,,,,,,,,,,,,2461.969033109999,None,2461.969033109999,None,2461.969033109999,None,m,1,0.9232737540005473,2463.502049289,None,2463.502049289,None,2463.502049289,None,2464.4861734799997,None,2464.4861734799997,None,2464.4861734799997,None,2464.4861734799997,None,,,,,,,,,,,,,,,,,,,,,,,,,,,,,,,,,,,,,,,,,,,,001,91,2020_Feb_06_1321,spring_faces,3.1.5,60.027574506551005,
condition files/Stage1_1.xlsx,,B3,T3,c,"['c', 'm']","['Clue', 'Monopoly']","[-0.15, 0.5]","[0.15, 0.5]",1,1,,,,,,,,,0,8,8,8,0,5,5,4,,,,,,,,,,,,,,,,,,,,,,,,,,,,,,,,,,,,,,,,,,,,,,,,,,,,,,,2466.4523076040023,None,2466.4523076040023,None,2466.4523076040023,None,c,1,0.8716992570007278,2467.9856125139995,None,2467.9856125139995,None,2467.9856125139995,None,2468.9188441139995,None,2468.9188441139995,None,2468.9188441139995,None,2468.9188441139995,None,,,,,,,,,,,,,,,,,,,,,,,,,,,,,,,,,,,,,,,,,,,,001,91,2020_Feb_06_1321,spring_faces,3.1.5,60.027574506551005,
condition files/Stage1_1.xlsx,,T4,B3,m,"['c', 'm']","['Clue', 'Monopoly']","[-0.15, 0.5]","[0.15, 0.5]",1,1,,,,,,,,,0,8,8,8,0,6,6,6,,,,,,,,,,,,,,,,,,,,,,,,,,,,,,,,,,,,,,,,,,,,,,,,,,,,,,,2470.885679575,None,2470.885679575,None,2470.885679575,None,m,1,0.9642546149989357,2472.4211020620023,None,2472.4211020620023,None,2472.4211020620023,None,2473.4369006310008,None,2473.4369006310008,None,2473.4369006310008,None,2473.4369006310008,None,,,,,,,,,,,,,,,,,,,,,,,,,,,,,,,,,,,,,,,,,,,,001,91,2020_Feb_06_1321,spring_faces,3.1.5,60.027574506551005,
condition files/Stage1_1.xlsx,,T1,B1,c,"['c', 'm']","['Clue', 'Monopoly']","[-0.15, 0.5]","[0.15, 0.5]",1,1,,,,,,,,,0,8,8,8,0,7,7,0,,,,,,,,,,,,,,,,,,,,,,,,,,,,,,,,,,,,,,,,,,,,,,,,,,,,,,,2475.402433309002,None,2475.402433309002,None,2475.402433309002,None,c,1,0.6398989139997866,2476.937461106001,None,2476.937461106001,None,2476.937461106001,None,2477.6354878970014,None,2477.6354878970014,None,2477.6354878970014,None,2477.6354878970014,None,,,,,,,,,,,,,,,,,,,,,,,,,,,,,,,,,,,,,,,,,,,,001,91,2020_Feb_06_1321,spring_faces,3.1.5,60.027574506551005,
condition files/Stage1_2.xlsx,,B1,T1,c,"['c', 'm']","['Clue', 'Monopoly']","[-0.15, 0.5]","[0.15, 0.5]",1,1,,,,,,,,,0,9,9,9,0,0,0,0,,,,,,,,,,,,,,,,,,,,,,,,,,,,,,,,,,,,,,,,,,,,,,,,,,,,,,,2479.6193638959994,None,2479.6193638959994,None,2479.6193638959994,None,c,1,0.7605070380013785,2481.168739083001,None,2481.168739083001,None,2481.168739083001,None,2481.985951800001,None,2481.985951800001,None,2481.985951800001,None,2481.985951800001,None,,,,,,,,,,,,,,,,,,,,,,,,,,,,,,,,,,,,,,,,,,,,001,91,2020_Feb_06_1321,spring_faces,3.1.5,60.027574506551005,
condition files/Stage1_2.xlsx,,B2,T2,m,"['c', 'm']","['Clue', 'Monopoly']","[-0.15, 0.5]","[0.15, 0.5]",1,1,,,,,,,,,0,9,9,9,0,1,1,3,,,,,,,,,,,,,,,,,,,,,,,,,,,,,,,,,,,,,,,,,,,,,,,,,,,,,,,2483.952366974001,None,2483.952366974001,None,2483.952366974001,None,m,1,0.7958344600010605,2485.4853935380015,None,2485.4853935380015,None,2485.4853935380015,None,2486.336302694999,None,2486.336302694999,None,2486.336302694999,None,2486.336302694999,None,,,,,,,,,,,,,,,,,,,,,,,,,,,,,,,,,,,,,,,,,,,,001,91,2020_Feb_06_1321,spring_faces,3.1.5,60.027574506551005,
condition files/Stage1_2.xlsx,,T2,B1,c,"['c', 'm']","['Clue', 'Monopoly']","[-0.15, 0.5]","[0.15, 0.5]",1,1,,,,,,,,,0,9,9,9,0,2,2,1,,,,,,,,,,,,,,,,,,,,,,,,,,,,,,,,,,,,,,,,,,,,,,,,,,,,,,,2488.3025610139994,None,2488.3025610139994,None,2488.3025610139994,None,c,1,0.8445985629987263,2489.836699724001,None,2489.836699724001,None,2489.836699724001,None,2490.7378851700014,None,2490.7378851700014,None,2490.7378851700014,None,2490.7378851700014,None,,,,,,,,,,,,,,,,,,,,,,,,,,,,,,,,,,,,,,,,,,,,001,91,2020_Feb_06_1321,spring_faces,3.1.5,60.027574506551005,
condition files/Stage1_2.xlsx,,B3,T4,m,"['c', 'm']","['Clue', 'Monopoly']","[-0.15, 0.5]","[0.15, 0.5]",1,1,,,,,,,,,0,9,9,9,0,3,3,6,,,,,,,,,,,,,,,,,,,,,,,,,,,,,,,,,,,,,,,,,,,,,,,,,,,,,,,2492.7023644030014,None,2492.7023644030014,None,2492.7023644030014,None,m,1,0.7645750509982463,2494.252706351999,None,2494.252706351999,None,2494.252706351999,None,2495.0717619829993,None,2495.0717619829993,None,2495.0717619829993,None,2495.0717619829993,None,,,,,,,,,,,,,,,,,,,,,,,,,,,,,,,,,,,,,,,,,,,,001,91,2020_Feb_06_1321,spring_faces,3.1.5,60.027574506551005,
condition files/Stage1_2.xlsx,,T1,B2,m,"['c', 'm']","['Clue', 'Monopoly']","[-0.15, 0.5]","[0.15, 0.5]",1,1,,,,,,,,,0,9,9,9,0,4,4,2,,,,,,,,,,,,,,,,,,,,,,,,,,,,,,,,,,,,,,,,,,,,,,,,,,,,,,,2497.0354065710017,None,2497.0354065710017,None,2497.0354065710017,None,m,1,0.9911520989990095,2498.586189067002,None,2498.586189067002,None,2498.586189067002,None,2499.6363253359996,None,2499.6363253359996,None,2499.6363253359996,None,2499.6363253359996,None,,,,,,,,,,,,,,,,,,,,,,,,,,,,,,,,,,,,,,,,,,,,001,91,2020_Feb_06_1321,spring_faces,3.1.5,60.027574506551005,
condition files/Stage1_2.xlsx,,T3,B3,c,"['c', 'm']","['Clue', 'Monopoly']","[-0.15, 0.5]","[0.15, 0.5]",1,1,,,,,,,,,0,9,9,9,0,5,5,4,,,,,,,,,,,,,,,,,,,,,,,,,,,,,,,,,,,,,,,,,,,,,,,,,,,,,,,2501.6024146010022,None,2501.6024146010022,None,2501.6024146010022,None,c,1,0.8393591830026708,2503.1379908900017,None,2503.1379908900017,None,2503.1379908900017,None,2504.0528989660015,None,2504.0528989660015,None,2504.0528989660015,None,2504.0528989660015,None,,,,,,,,,,,,,,,,,,,,,,,,,,,,,,,,,,,,,,,,,,,,001,91,2020_Feb_06_1321,spring_faces,3.1.5,60.027574506551005,
condition files/Stage1_2.xlsx,,B4,T3,c,"['c', 'm']","['Clue', 'Monopoly']","[-0.15, 0.5]","[0.15, 0.5]",1,1,,,,,,,,,0,9,9,9,0,6,6,5,,,,,,,,,,,,,,,,,,,,,,,,,,,,,,,,,,,,,,,,,,,,,,,,,,,,,,,2506.0023381320025,None,2506.0023381320025,None,2506.0023381320025,None,c,1,0.825359214002674,2507.535991782999,None,2507.535991782999,None,2507.535991782999,None,2508.419311296002,None,2508.419311296002,None,2508.419311296002,None,2508.419311296002,None,,,,,,,,,,,,,,,,,,,,,,,,,,,,,,,,,,,,,,,,,,,,001,91,2020_Feb_06_1321,spring_faces,3.1.5,60.027574506551005,
condition files/Stage1_2.xlsx,,T4,B4,m,"['c', 'm']","['Clue', 'Monopoly']","[-0.15, 0.5]","[0.15, 0.5]",1,1,,,,,,,,,0,9,9,9,0,7,7,7,,,,,,,,,,,,,,,,,,,,,,,,,,,,,,,,,,,,,,,,,,,,,,,,,,,,,,,2510.385718526002,None,2510.385718526002,None,2510.385718526002,None,m,1,0.9996773219972965,2511.921616748001,None,2511.921616748001,None,2511.921616748001,None,2512.9854537380015,None,2512.9854537380015,None,2512.9854537380015,None,2512.9854537380015,None,,,,,,,,,,,,,,,,,,,,,,,,,,,,,,,,,,,,,,,,,,,,001,91,2020_Feb_06_1321,spring_faces,3.1.5,60.027574506551005,
condition files/Stage1_1.xlsx,,B4,T4,m,"['c', 'm']","['Clue', 'Monopoly']","[-0.15, 0.5]","[0.15, 0.5]",1,1,,,,,,,,,0,10,10,10,0,0,0,7,,,,,,,,,,,,,,,,,,,,,,,,,,,,,,,,,,,,,,,,,,,,,,,,,,,,,,,2514.96953373,None,2514.96953373,None,2514.96953373,None,m,1,0.6580482500030485,2516.5192897590023,None,2516.5192897590023,None,2516.5192897590023,None,2517.2357421900015,None,2517.2357421900015,None,2517.2357421900015,None,2517.2357421900015,None,,,,,,,,,,,,,,,,,,,,,,,,,,,,,,,,,,,,,,,,,,,,001,91,2020_Feb_06_1321,spring_faces,3.1.5,60.027574506551005,
condition files/Stage1_1.xlsx,,B2,T1,m,"['c', 'm']","['Clue', 'Monopoly']","[-0.15, 0.5]","[0.15, 0.5]",1,1,,,,,,,,,0,10,10,10,0,1,1,2,,,,,,,,,,,,,,,,,,,,,,,,,,,,,,,,,,,,,,,,,,,,,,,,,,,,,,,2519.2022881400007,None,2519.2022881400007,None,2519.2022881400007,None,m,1,1.1457827289996203,2520.7355141400003,None,2520.7355141400003,None,2520.7355141400003,None,2521.935804479999,None,2521.935804479999,None,2521.935804479999,None,2521.935804479999,None,,,,,,,,,,,,,,,,,,,,,,,,,,,,,,,,,,,,,,,,,,,,001,91,2020_Feb_06_1321,spring_faces,3.1.5,60.027574506551005,
condition files/Stage1_1.xlsx,,T1,B1,c,"['c', 'm']","['Clue', 'Monopoly']","[-0.15, 0.5]","[0.15, 0.5]",1,1,,,,,,,,,0,10,10,10,0,2,2,0,,,,,,,,,,,,,,,,,,,,,,,,,,,,,,,,,,,,,,,,,,,,,,,,,,,,,,,2523.902412497002,None,2523.902412497002,None,2523.902412497002,None,c,1,1.211154994998651,2525.438164714,None,2525.438164714,None,2525.438164714,None,2526.7032818629996,None,2526.7032818629996,None,2526.7032818629996,None,2526.7032818629996,None,,,,,,,,,,,,,,,,,,,,,,,,,,,,,,,,,,,,,,,,,,,,001,91,2020_Feb_06_1321,spring_faces,3.1.5,60.027574506551005,
condition files/Stage1_1.xlsx,,B3,T3,c,"['c', 'm']","['Clue', 'Monopoly']","[-0.15, 0.5]","[0.15, 0.5]",1,1,,,,,,,,,0,10,10,10,0,3,3,4,,,,,,,,,,,,,,,,,,,,,,,,,,,,,,,,,,,,,,,,,,,,,,,,,,,,,,,2528.669123716001,None,2528.669123716001,None,2528.669123716001,None,c,1,0.7345177930001228,2530.2027680520005,None,2530.2027680520005,None,2530.2027680520005,None,2531.0031129540002,None,2531.0031129540002,None,2531.0031129540002,None,2531.0031129540002,None,,,,,,,,,,,,,,,,,,,,,,,,,,,,,,,,,,,,,,,,,,,,001,91,2020_Feb_06_1321,spring_faces,3.1.5,60.027574506551005,
condition files/Stage1_1.xlsx,,T4,B3,m,"['c', 'm']","['Clue', 'Monopoly']","[-0.15, 0.5]","[0.15, 0.5]",1,1,,,,,,,,,0,10,10,10,0,4,4,6,,,,,,,,,,,,,,,,,,,,,,,,,,,,,,,,,,,,,,,,,,,,,,,,,,,,,,,2532.969034253001,None,2532.969034253001,None,2532.969034253001,None,m,1,0.8510029729986854,2534.502274055001,None,2534.502274055001,None,2534.502274055001,None,2535.435736421001,None,2535.435736421001,None,2535.435736421001,None,2535.435736421001,None,,,,,,,,,,,,,,,,,,,,,,,,,,,,,,,,,,,,,,,,,,,,001,91,2020_Feb_06_1321,spring_faces,3.1.5,60.027574506551005,
condition files/Stage1_1.xlsx,,B1,T2,c,"['c', 'm']","['Clue', 'Monopoly']","[-0.15, 0.5]","[0.15, 0.5]",1,1,,,,,,,,,0,10,10,10,0,5,5,1,,,,,,,,,,,,,,,,,,,,,,,,,,,,,,,,,,,,,,,,,,,,,,,,,,,,,,,2537.3853932170023,None,2537.3853932170023,None,2537.3853932170023,None,c,1,0.7863801679995959,2538.918880781999,None,2538.918880781999,None,2538.918880781999,None,2539.769010422002,None,2539.769010422002,None,2539.769010422002,None,2539.769010422002,None,,,,,,,,,,,,,,,,,,,,,,,,,,,,,,,,,,,,,,,,,,,,001,91,2020_Feb_06_1321,spring_faces,3.1.5,60.027574506551005,
condition files/Stage1_1.xlsx,,T3,B4,c,"['c', 'm']","['Clue', 'Monopoly']","[-0.15, 0.5]","[0.15, 0.5]",1,1,,,,,,,,,0,10,10,10,0,6,6,5,,,,,,,,,,,,,,,,,,,,,,,,,,,,,,,,,,,,,,,,,,,,,,,,,,,,,,,2541.735133778002,None,2541.735133778002,None,2541.735133778002,None,c,1,1.107583318997058,2543.285747009002,None,2543.285747009002,None,2543.285747009002,None,2544.452769588999,None,2544.452769588999,None,2544.452769588999,None,2544.452769588999,None,,,,,,,,,,,,,,,,,,,,,,,,,,,,,,,,,,,,,,,,,,,,001,91,2020_Feb_06_1321,spring_faces,3.1.5,60.027574506551005,
condition files/Stage1_1.xlsx,,T2,B2,m,"['c', 'm']","['Clue', 'Monopoly']","[-0.15, 0.5]","[0.15, 0.5]",1,1,,,,,,,,,0,10,10,10,0,7,7,3,,,,,,,,,,,,,,,,,,,,,,,,,,,,,,,,,,,,,,,,,,,,,,,,,,,,,,,2546.4189315350013,None,2546.4189315350013,None,2546.4189315350013,None,m,1,0.8546909939977922,2547.954667522001,None,2547.954667522001,None,2547.954667522001,None,2548.871792490001,None,2548.871792490001,None,2548.871792490001,None,2548.871792490001,None,,,,,,,,,,,,,,,,,,,,,,,,,,,,,,,,,,,,,,,,,,,,001,91,2020_Feb_06_1321,spring_faces,3.1.5,60.027574506551005,
condition files/Stage1_2.xlsx,,T3,B3,c,"['c', 'm']","['Clue', 'Monopoly']","[-0.15, 0.5]","[0.15, 0.5]",1,1,,,,,,,,,0,11,11,11,0,0,0,4,,,,,,,,,,,,,,,,,,,,,,,,,,,,,,,,,,,,,,,,,,,,,,,,,,,,,,,2550.852646192001,None,2550.852646192001,None,2550.852646192001,None,c,1,0.6954129270015983,2552.3859085719996,None,2552.3859085719996,None,2552.3859085719996,None,2553.137136461999,None,2553.137136461999,None,2553.137136461999,None,2553.137136461999,None,,,,,,,,,,,,,,,,,,,,,,,,,,,,,,,,,,,,,,,,,,,,001,91,2020_Feb_06_1321,spring_faces,3.1.5,60.027574506551005,
condition files/Stage1_2.xlsx,,B4,T3,c,"['c', 'm']","['Clue', 'Monopoly']","[-0.15, 0.5]","[0.15, 0.5]",1,1,,,,,,,,,0,11,11,11,0,1,1,5,,,,,,,,,,,,,,,,,,,,,,,,,,,,,,,,,,,,,,,,,,,,,,,,,,,,,,,2555.102551541,None,2555.102551541,None,2555.102551541,None,c,1,0.6692011519990047,2556.6361101010007,None,2556.6361101010007,None,2556.6361101010007,None,2557.369547260001,None,2557.369547260001,None,2557.369547260001,None,2557.369547260001,None,,,,,,,,,,,,,,,,,,,,,,,,,,,,,,,,,,,,,,,,,,,,001,91,2020_Feb_06_1321,spring_faces,3.1.5,60.027574506551005,
condition files/Stage1_2.xlsx,,T4,B4,m,"['c', 'm']","['Clue', 'Monopoly']","[-0.15, 0.5]","[0.15, 0.5]",1,1,,,,,,,,,0,11,11,11,0,2,2,7,,,,,,,,,,,,,,,,,,,,,,,,,,,,,,,,,,,,,,,,,,,,,,,,,,,,,,,2559.3357854290007,None,2559.3357854290007,None,2559.3357854290007,None,m,1,1.5237187090024236,2560.869616725002,None,2560.869616725002,None,2560.869616725002,None,2562.4693617449993,None,2562.4693617449993,None,2562.4693617449993,None,2562.4693617449993,None,,,,,,,,,,,,,,,,,,,,,,,,,,,,,,,,,,,,,,,,,,,,001,91,2020_Feb_06_1321,spring_faces,3.1.5,60.027574506551005,
condition files/Stage1_2.xlsx,,B3,T4,m,"['c', 'm']","['Clue', 'Monopoly']","[-0.15, 0.5]","[0.15, 0.5]",1,1,,,,,,,,,0,11,11,11,0,3,3,6,,,,,,,,,,,,,,,,,,,,,,,,,,,,,,,,,,,,,,,,,,,,,,,,,,,,,,,2564.4184345169997,None,2564.4184345169997,None,2564.4184345169997,None,m,1,0.9670997269968211,2565.9542007189993,None,2565.9542007189993,None,2565.9542007189993,None,2566.986172273002,None,2566.986172273002,None,2566.986172273002,None,2566.986172273002,None,,,,,,,,,,,,,,,,,,,,,,,,,,,,,,,,,,,,,,,,,,,,001,91,2020_Feb_06_1321,spring_faces,3.1.5,60.027574506551005,
condition files/Stage1_2.xlsx,,B1,T1,c,"['c', 'm']","['Clue', 'Monopoly']","[-0.15, 0.5]","[0.15, 0.5]",1,1,,,,,,,,,0,11,11,11,0,4,4,0,,,,,,,,,,,,,,,,,,,,,,,,,,,,,,,,,,,,,,,,,,,,,,,,,,,,,,,2568.9523538780013,None,2568.9523538780013,None,2568.9523538780013,None,c,1,0.8197484379998059,2570.4855686619994,None,2570.4855686619994,None,2570.4855686619994,None,2571.369662268,None,2571.369662268,None,2571.369662268,None,2571.369662268,None,,,,,,,,,,,,,,,,,,,,,,,,,,,,,,,,,,,,,,,,,,,,001,91,2020_Feb_06_1321,spring_faces,3.1.5,60.027574506551005,
condition files/Stage1_2.xlsx,,B2,T2,m,"['c', 'm']","['Clue', 'Monopoly']","[-0.15, 0.5]","[0.15, 0.5]",1,1,,,,,,,,,0,11,11,11,0,5,5,3,,,,,,,,,,,,,,,,,,,,,,,,,,,,,,,,,,,,,,,,,,,,,,,,,,,,,,,2573.3355356480024,None,2573.3355356480024,None,2573.3355356480024,None,m,1,0.8518644469986612,2574.8694277430004,None,2574.8694277430004,None,2574.8694277430004,None,2575.7864936059996,None,2575.7864936059996,None,2575.7864936059996,None,2575.7864936059996,None,,,,,,,,,,,,,,,,,,,,,,,,,,,,,,,,,,,,,,,,,,,,001,91,2020_Feb_06_1321,spring_faces,3.1.5,60.027574506551005,
condition files/Stage1_2.xlsx,,T2,B1,c,"['c', 'm']","['Clue', 'Monopoly']","[-0.15, 0.5]","[0.15, 0.5]",1,1,,,,,,,,,0,11,11,11,0,6,6,1,,,,,,,,,,,,,,,,,,,,,,,,,,,,,,,,,,,,,,,,,,,,,,,,,,,,,,,2577.7518618079994,None,2577.7518618079994,None,2577.7518618079994,None,c,1,0.9955666589994507,2579.285691164001,None,2579.285691164001,None,2579.285691164001,None,2580.336287156002,None,2580.336287156002,None,2580.336287156002,None,2580.336287156002,None,,,,,,,,,,,,,,,,,,,,,,,,,,,,,,,,,,,,,,,,,,,,001,91,2020_Feb_06_1321,spring_faces,3.1.5,60.027574506551005,
condition files/Stage1_2.xlsx,,T1,B2,m,"['c', 'm']","['Clue', 'Monopoly']","[-0.15, 0.5]","[0.15, 0.5]",1,1,,,,,,,,,0,11,11,11,0,7,7,2,,,,,,,,,,,,,,,,,,,,,,,,,,,,,,,,,,,,,,,,,,,,,,,,,,,,,,,2582.3023945960012,None,2582.3023945960012,None,2582.3023945960012,None,m,1,0.8456059919990366,2583.835650074001,None,2583.835650074001,None,2583.835650074001,None,2584.736958630001,None,2584.736958630001,None,2584.736958630001,None,2584.736958630001,None,,,,,,,,,,,,,,,,,,,,,,,,,,,,,,,,,,,,,,,,,,,,001,91,2020_Feb_06_1321,spring_faces,3.1.5,60.027574506551005,
,,,,,,,,,,,,,,,,,,,,,,,,,,,,,,,,,,,,,,,,,,,,,,,,,,,,,,,,,,,,,,,,,,,,,,,,,,,,,,,,,,,,,,,,,,,,,,,,,,,,,,,,,,,,,,,,2586.719110348,None,space,5.810220792998734,2591.7191479230023,None,,,,,,,,,,,,,,,,,,,,,,,,,,,,,,001,91,2020_Feb_06_1321,spring_faces,3.1.5,60.027574506551005,
condition files/Stage2_1.xlsx,,B2,T2,r,"['s', 'r']","['Stratego', 'Risk']","[-0.15, 0.5]","[0.15, 0.5]",1,1,,,,,,,,,,,,,,,,,0,0,0,0,0,0,0,3,,,,,,,,,,,,,,,,,,,,,,,,,,,,,,,,,,,,,,,,,,,,,,,2597.5853962809997,None,2597.5853962809997,None,2597.5853962809997,None,s,0,1.8665972980015795,2599.102611499002,None,2599.102611499002,None,2599.102611499002,None,2601.0361452940015,None,2601.0361452940015,None,2601.0361452940015,None,2601.0361452940015,None,,,,,,,,,,,,,,,2591.7191479230023,None,,,,,,,,,,,,,,,,,,,,,,,,,,,,001,91,2020_Feb_06_1321,spring_faces,3.1.5,60.027574506551005,
condition files/Stage2_1.xlsx,,B4,T4,r,"['s', 'r']","['Stratego', 'Risk']","[-0.15, 0.5]","[0.15, 0.5]",1,1,,,,,,,,,,,,,,,,,0,0,0,0,0,1,1,5,,,,,,,,,,,,,,,,,,,,,,,,,,,,,,,,,,,,,,,,,,,,,,,2602.9850716770015,None,2602.9850716770015,None,2602.9850716770015,None,r,1,1.6658840329982922,2604.519426695002,None,2604.519426695002,None,2604.519426695002,None,2606.2361285330007,None,2606.2361285330007,None,2606.2361285330007,None,2606.2361285330007,None,,,,,,,,,,,,,,,,,,,,,,,,,,,,,,,,,,,,,,,,,,,,001,91,2020_Feb_06_1321,spring_faces,3.1.5,60.027574506551005,
condition files/Stage2_1.xlsx,,T3,B3,s,"['s', 'r']","['Stratego', 'Risk']","[-0.15, 0.5]","[0.15, 0.5]",1,1,,,,,,,,,,,,,,,,,0,0,0,0,0,2,2,4,,,,,,,,,,,,,,,,,,,,,,,,,,,,,,,,,,,,,,,,,,,,,,,2608.202346467002,None,2608.202346467002,None,2608.202346467002,None,s,1,1.4250405969978601,2609.7363192939993,None,2609.7363192939993,None,2609.7363192939993,None,2611.219936887999,None,2611.219936887999,None,2611.219936887999,None,2611.219936887999,None,,,,,,,,,,,,,,,,,,,,,,,,,,,,,,,,,,,,,,,,,,,,001,91,2020_Feb_06_1321,spring_faces,3.1.5,60.027574506551005,
condition files/Stage2_1.xlsx,,T5,B5,s,"['s', 'r']","['Stratego', 'Risk']","[-0.15, 0.5]","[0.15, 0.5]",1,1,,,,,,,,,,,,,,,,,0,0,0,0,0,3,3,0,,,,,,,,,,,,,,,,,,,,,,,,,,,,,,,,,,,,,,,,,,,,,,,2613.185760234999,None,2613.185760234999,None,2613.185760234999,None,r,0,3.353546660997381,2614.719755948001,None,2614.719755948001,None,2614.719755948001,None,2618.135874632,None,2618.135874632,None,2618.135874632,None,2618.135874632,None,,,,,,,,,,,,,,,,,,,,,,,,,,,,,,,,,,,,,,,,,,,,001,91,2020_Feb_06_1321,spring_faces,3.1.5,60.027574506551005,
condition files/Stage2_1.xlsx,,B6,T6,r,"['s', 'r']","['Stratego', 'Risk']","[-0.15, 0.5]","[0.15, 0.5]",1,1,,,,,,,,,,,,,,,,,0,0,0,0,0,4,4,1,,,,,,,,,,,,,,,,,,,,,,,,,,,,,,,,,,,,,,,,,,,,,,,2620.102329067002,None,2620.102329067002,None,2620.102329067002,None,r,1,2.292793549000635,2621.636562112002,None,2621.636562112002,None,2621.636562112002,None,2624.0026620390017,None,2624.0026620390017,None,2624.0026620390017,None,2624.0026620390017,None,,,,,,,,,,,,,,,,,,,,,,,,,,,,,,,,,,,,,,,,,,,,001,91,2020_Feb_06_1321,spring_faces,3.1.5,60.027574506551005,
condition files/Stage2_1.xlsx,,T1,B1,s,"['s', 'r']","['Stratego', 'Risk']","[-0.15, 0.5]","[0.15, 0.5]",1,1,,,,,,,,,,,,,,,,,0,0,0,0,0,5,5,2,,,,,,,,,,,,,,,,,,,,,,,,,,,,,,,,,,,,,,,,,,,,,,,2625.952173971,None,2625.952173971,None,2625.952173971,None,s,1,2.619945831000223,2627.485363762,None,2627.485363762,None,2627.485363762,None,2630.1683779680025,None,2630.1683779680025,None,2630.1683779680025,None,2630.1683779680025,None,,,,,,,,,,,,,,,,,,,,,,,,,,,,,,,,,,,,,,,,,,,,001,91,2020_Feb_06_1321,spring_faces,3.1.5,60.027574506551005,
condition files/Stage2_2.xlsx,,T2,B2,r,"['s', 'r']","['Stratego', 'Risk']","[-0.15, 0.5]","[0.15, 0.5]",1,1,,,,,,,,,,,,,,,,,0,1,1,1,0,0,0,3,,,,,,,,,,,,,,,,,,,,,,,,,,,,,,,,,,,,,,,,,,,,,,,2632.1527680010004,None,2632.1527680010004,None,2632.1527680010004,None,r,1,2.83578701100123,2633.6855144200017,None,2633.6855144200017,None,2633.6855144200017,None,2636.585424834,None,2636.585424834,None,2636.585424834,None,2636.585424834,None,,,,,,,,,,,,,,,,,,,,,,,,,,,,,,,,,,,,,,,,,,,,001,91,2020_Feb_06_1321,spring_faces,3.1.5,60.027574506551005,
condition files/Stage2_2.xlsx,,B3,T3,s,"['s', 'r']","['Stratego', 'Risk']","[-0.15, 0.5]","[0.15, 0.5]",1,1,,,,,,,,,,,,,,,,,0,1,1,1,0,1,1,4,,,,,,,,,,,,,,,,,,,,,,,,,,,,,,,,,,,,,,,,,,,,,,,2638.5523199540003,None,2638.5523199540003,None,2638.5523199540003,None,s,1,1.4593163560020912,2640.0859172519995,None,2640.0859172519995,None,2640.0859172519995,None,2641.6194390340024,None,2641.6194390340024,None,2641.6194390340024,None,2641.6194390340024,None,,,,,,,,,,,,,,,,,,,,,,,,,,,,,,,,,,,,,,,,,,,,001,91,2020_Feb_06_1321,spring_faces,3.1.5,60.027574506551005,
condition files/Stage2_2.xlsx,,B5,T5,s,"['s', 'r']","['Stratego', 'Risk']","[-0.15, 0.5]","[0.15, 0.5]",1,1,,,,,,,,,,,,,,,,,0,1,1,1,0,2,2,0,,,,,,,,,,,,,,,,,,,,,,,,,,,,,,,,,,,,,,,,,,,,,,,2643.569429714,None,2643.569429714,None,2643.569429714,None,r,0,2.537597601000016,2645.1037199400016,None,2645.1037199400016,None,2645.1037199400016,None,2647.7027606660013,None,2647.7027606660013,None,2647.7027606660013,None,2647.7027606660013,None,,,,,,,,,,,,,,,,,,,,,,,,,,,,,,,,,,,,,,,,,,,,001,91,2020_Feb_06_1321,spring_faces,3.1.5,60.027574506551005,
condition files/Stage2_2.xlsx,,T6,B6,r,"['s', 'r']","['Stratego', 'Risk']","[-0.15, 0.5]","[0.15, 0.5]",1,1,,,,,,,,,,,,,,,,,0,1,1,1,0,3,3,1,,,,,,,,,,,,,,,,,,,,,,,,,,,,,,,,,,,,,,,,,,,,,,,2649.668817378002,None,2649.668817378002,None,2649.668817378002,None,r,1,1.8144290639975225,2651.218818239002,None,2651.218818239002,None,2651.218818239002,None,2653.1028083420024,None,2653.1028083420024,None,2653.1028083420024,None,2653.1028083420024,None,,,,,,,,,,,,,,,,,,,,,,,,,,,,,,,,,,,,,,,,,,,,001,91,2020_Feb_06_1321,spring_faces,3.1.5,60.027574506551005,
condition files/Stage2_2.xlsx,,B1,T1,s,"['s', 'r']","['Stratego', 'Risk']","[-0.15, 0.5]","[0.15, 0.5]",1,1,,,,,,,,,,,,,,,,,0,1,1,1,0,4,4,2,,,,,,,,,,,,,,,,,,,,,,,,,,,,,,,,,,,,,,,,,,,,,,,2655.052424812002,None,2655.052424812002,None,2655.052424812002,None,s,1,2.8314147780001804,2656.585875372002,None,2656.585875372002,None,2656.585875372002,None,2659.485979148001,None,2659.485979148001,None,2659.485979148001,None,2659.485979148001,None,,,,,,,,,,,,,,,,,,,,,,,,,,,,,,,,,,,,,,,,,,,,001,91,2020_Feb_06_1321,spring_faces,3.1.5,60.027574506551005,
condition files/Stage2_2.xlsx,,T4,B4,r,"['s', 'r']","['Stratego', 'Risk']","[-0.15, 0.5]","[0.15, 0.5]",1,1,,,,,,,,,,,,,,,,,0,1,1,1,0,5,5,5,,,,,,,,,,,,,,,,,,,,,,,,,,,,,,,,,,,,,,,,,,,,,,,2661.435758497002,None,2661.435758497002,None,2661.435758497002,None,r,1,1.0553740210016258,2662.985920567,None,2662.985920567,None,2662.985920567,None,2664.1192214820003,None,2664.1192214820003,None,2664.1192214820003,None,2664.1192214820003,None,,,,,,,,,,,,,,,,,,,,,,,,,,,,,,,,,,,,,,,,,,,,001,91,2020_Feb_06_1321,spring_faces,3.1.5,60.027574506551005,
condition files/Stage2_1.xlsx,,B6,T6,r,"['s', 'r']","['Stratego', 'Risk']","[-0.15, 0.5]","[0.15, 0.5]",1,1,,,,,,,,,,,,,,,,,0,2,2,2,0,0,0,1,,,,,,,,,,,,,,,,,,,,,,,,,,,,,,,,,,,,,,,,,,,,,,,2666.086032735002,None,2666.086032735002,None,2666.086032735002,None,r,1,1.0615519320017484,2667.619731854,None,2667.619731854,None,2667.619731854,None,2668.7364774590023,None,2668.7364774590023,None,2668.7364774590023,None,2668.7364774590023,None,,,,,,,,,,,,,,,,,,,,,,,,,,,,,,,,,,,,,,,,,,,,001,91,2020_Feb_06_1321,spring_faces,3.1.5,60.027574506551005,
condition files/Stage2_1.xlsx,,B2,T2,r,"['s', 'r']","['Stratego', 'Risk']","[-0.15, 0.5]","[0.15, 0.5]",1,1,,,,,,,,,,,,,,,,,0,2,2,2,0,1,1,3,,,,,,,,,,,,,,,,,,,,,,,,,,,,,,,,,,,,,,,,,,,,,,,2670.7023995340023,None,2670.7023995340023,None,2670.7023995340023,None,r,1,1.2925548029998026,2672.252692995,None,2672.252692995,None,2672.252692995,None,2673.6023646739995,None,2673.6023646739995,None,2673.6023646739995,None,2673.6023646739995,None,,,,,,,,,,,,,,,,,,,,,,,,,,,,,,,,,,,,,,,,,,,,001,91,2020_Feb_06_1321,spring_faces,3.1.5,60.027574506551005,
condition files/Stage2_1.xlsx,,T3,B3,s,"['s', 'r']","['Stratego', 'Risk']","[-0.15, 0.5]","[0.15, 0.5]",1,1,,,,,,,,,,,,,,,,,0,2,2,2,0,2,2,4,,,,,,,,,,,,,,,,,,,,,,,,,,,,,,,,,,,,,,,,,,,,,,,2675.569195690001,None,2675.569195690001,None,2675.569195690001,None,s,1,1.0350795109989122,2677.102163642001,None,2677.102163642001,None,2677.102163642001,None,2678.2049674070004,None,2678.2049674070004,None,2678.2049674070004,None,2678.2049674070004,None,,,,,,,,,,,,,,,,,,,,,,,,,,,,,,,,,,,,,,,,,,,,001,91,2020_Feb_06_1321,spring_faces,3.1.5,60.027574506551005,
condition files/Stage2_1.xlsx,,T1,B1,s,"['s', 'r']","['Stratego', 'Risk']","[-0.15, 0.5]","[0.15, 0.5]",1,1,,,,,,,,,,,,,,,,,0,2,2,2,0,3,3,2,,,,,,,,,,,,,,,,,,,,,,,,,,,,,,,,,,,,,,,,,,,,,,,2680.1693136150025,None,2680.1693136150025,None,2680.1693136150025,None,s,1,1.6350404260010691,2681.702245966,None,2681.702245966,None,2681.702245966,None,2683.402300853999,None,2683.402300853999,None,2683.402300853999,None,2683.402300853999,None,,,,,,,,,,,,,,,,,,,,,,,,,,,,,,,,,,,,,,,,,,,,001,91,2020_Feb_06_1321,spring_faces,3.1.5,60.027574506551005,
condition files/Stage2_1.xlsx,,T5,B5,s,"['s', 'r']","['Stratego', 'Risk']","[-0.15, 0.5]","[0.15, 0.5]",1,1,,,,,,,,,,,,,,,,,0,2,2,2,0,4,4,0,,,,,,,,,,,,,,,,,,,,,,,,,,,,,,,,,,,,,,,,,,,,,,,2685.369163304,None,2685.369163304,None,2685.369163304,None,s,1,2.5464267669995024,2686.9188563570024,None,2686.9188563570024,None,2686.9188563570024,None,2689.5194579340023,None,2689.5194579340023,None,2689.5194579340023,None,2689.5194579340023,None,,,,,,,,,,,,,,,,,,,,,,,,,,,,,,,,,,,,,,,,,,,,001,91,2020_Feb_06_1321,spring_faces,3.1.5,60.027574506551005,
condition files/Stage2_1.xlsx,,B4,T4,r,"['s', 'r']","['Stratego', 'Risk']","[-0.15, 0.5]","[0.15, 0.5]",1,1,,,,,,,,,,,,,,,,,0,2,2,2,0,5,5,5,,,,,,,,,,,,,,,,,,,,,,,,,,,,,,,,,,,,,,,,,,,,,,,2691.4857379120003,None,2691.4857379120003,None,2691.4857379120003,None,r,1,1.901109924998309,2693.036141815999,None,2693.036141815999,None,2693.036141815999,None,2695.004988691002,None,2695.004988691002,None,2695.004988691002,None,2695.004988691002,None,,,,,,,,,,,,,,,,,,,,,,,,,,,,,,,,,,,,,,,,,,,,001,91,2020_Feb_06_1321,spring_faces,3.1.5,60.027574506551005,
condition files/Stage2_2.xlsx,,T6,B6,r,"['s', 'r']","['Stratego', 'Risk']","[-0.15, 0.5]","[0.15, 0.5]",1,1,,,,,,,,,,,,,,,,,0,3,3,3,0,0,0,1,,,,,,,,,,,,,,,,,,,,,,,,,,,,,,,,,,,,,,,,,,,,,,,2696.9860620010004,None,2696.9860620010004,None,2696.9860620010004,None,r,1,1.137295788001211,2698.536015133999,None,2698.536015133999,None,2698.536015133999,None,2699.7360393050003,None,2699.7360393050003,None,2699.7360393050003,None,2699.7360393050003,None,,,,,,,,,,,,,,,,,,,,,,,,,,,,,,,,,,,,,,,,,,,,001,91,2020_Feb_06_1321,spring_faces,3.1.5,60.027574506551005,
condition files/Stage2_2.xlsx,,B1,T1,s,"['s', 'r']","['Stratego', 'Risk']","[-0.15, 0.5]","[0.15, 0.5]",1,1,,,,,,,,,,,,,,,,,0,3,3,3,0,1,1,2,,,,,,,,,,,,,,,,,,,,,,,,,,,,,,,,,,,,,,,,,,,,,,,2701.702005739,None,2701.702005739,None,2701.702005739,None,s,1,0.9814377879993117,2703.2358606060006,None,2703.2358606060006,None,2703.2358606060006,None,2704.2714026380017,None,2704.2714026380017,None,2704.2714026380017,None,2704.2714026380017,None,,,,,,,,,,,,,,,,,,,,,,,,,,,,,,,,,,,,,,,,,,,,001,91,2020_Feb_06_1321,spring_faces,3.1.5,60.027574506551005,
condition files/Stage2_2.xlsx,,T4,B4,r,"['s', 'r']","['Stratego', 'Risk']","[-0.15, 0.5]","[0.15, 0.5]",1,1,,,,,,,,,,,,,,,,,0,3,3,3,0,2,2,5,,,,,,,,,,,,,,,,,,,,,,,,,,,,,,,,,,,,,,,,,,,,,,,2706.2352077530013,None,2706.2352077530013,None,2706.2352077530013,None,r,1,0.8318978810020781,2707.785387898999,None,2707.785387898999,None,2707.785387898999,None,2708.686311567999,None,2708.686311567999,None,2708.686311567999,None,2708.686311567999,None,,,,,,,,,,,,,,,,,,,,,,,,,,,,,,,,,,,,,,,,,,,,001,91,2020_Feb_06_1321,spring_faces,3.1.5,60.027574506551005,
condition files/Stage2_2.xlsx,,T2,B2,r,"['s', 'r']","['Stratego', 'Risk']","[-0.15, 0.5]","[0.15, 0.5]",1,1,,,,,,,,,,,,,,,,,0,3,3,3,0,3,3,3,,,,,,,,,,,,,,,,,,,,,,,,,,,,,,,,,,,,,,,,,,,,,,,2710.6355934950006,None,2710.6355934950006,None,2710.6355934950006,None,r,1,1.311775916001352,2712.1695292080003,None,2712.1695292080003,None,2712.1695292080003,None,2713.5353688040013,None,2713.5353688040013,None,2713.5353688040013,None,2713.5353688040013,None,,,,,,,,,,,,,,,,,,,,,,,,,,,,,,,,,,,,,,,,,,,,001,91,2020_Feb_06_1321,spring_faces,3.1.5,60.027574506551005,
condition files/Stage2_2.xlsx,,B5,T5,s,"['s', 'r']","['Stratego', 'Risk']","[-0.15, 0.5]","[0.15, 0.5]",1,1,,,,,,,,,,,,,,,,,0,3,3,3,0,4,4,0,,,,,,,,,,,,,,,,,,,,,,,,,,,,,,,,,,,,,,,,,,,,,,,2715.502115276002,None,2715.502115276002,None,2715.502115276002,None,s,1,1.037786610002513,2717.0355152720003,None,2717.0355152720003,None,2717.0355152720003,None,2718.136252772001,None,2718.136252772001,None,2718.136252772001,None,2718.136252772001,None,,,,,,,,,,,,,,,,,,,,,,,,,,,,,,,,,,,,,,,,,,,,001,91,2020_Feb_06_1321,spring_faces,3.1.5,60.027574506551005,
condition files/Stage2_2.xlsx,,B3,T3,s,"['s', 'r']","['Stratego', 'Risk']","[-0.15, 0.5]","[0.15, 0.5]",1,1,,,,,,,,,,,,,,,,,0,3,3,3,0,5,5,4,,,,,,,,,,,,,,,,,,,,,,,,,,,,,,,,,,,,,,,,,,,,,,,2720.1024164560004,None,2720.1024164560004,None,2720.1024164560004,None,s,1,1.5392200489986863,2721.6381374640005,None,2721.6381374640005,None,2721.6381374640005,None,2723.2353992259996,None,2723.2353992259996,None,2723.2353992259996,None,2723.2353992259996,None,,,,,,,,,,,,,,,,,,,,,,,,,,,,,,,,,,,,,,,,,,,,001,91,2020_Feb_06_1321,spring_faces,3.1.5,60.027574506551005,
condition files/Stage2_1.xlsx,,T1,B1,s,"['s', 'r']","['Stratego', 'Risk']","[-0.15, 0.5]","[0.15, 0.5]",1,1,,,,,,,,,,,,,,,,,0,4,4,4,0,0,0,2,,,,,,,,,,,,,,,,,,,,,,,,,,,,,,,,,,,,,,,,,,,,,,,2725.2196706350005,None,2725.2196706350005,None,2725.2196706350005,None,s,1,0.7749844240024686,2726.754399202,None,2726.754399202,None,2726.754399202,None,2727.585865883,None,2727.585865883,None,2727.585865883,None,2727.585865883,None,,,,,,,,,,,,,,,,,,,,,,,,,,,,,,,,,,,,,,,,,,,,001,91,2020_Feb_06_1321,spring_faces,3.1.5,60.027574506551005,
condition files/Stage2_1.xlsx,,B2,T2,r,"['s', 'r']","['Stratego', 'Risk']","[-0.15, 0.5]","[0.15, 0.5]",1,1,,,,,,,,,,,,,,,,,0,4,4,4,0,1,1,3,,,,,,,,,,,,,,,,,,,,,,,,,,,,,,,,,,,,,,,,,,,,,,,2729.5522176090017,None,2729.5522176090017,None,2729.5522176090017,None,r,1,0.7947189939986856,2731.1025285130017,None,2731.1025285130017,None,2731.1025285130017,None,2731.9540823390016,None,2731.9540823390016,None,2731.9540823390016,None,2731.9540823390016,None,,,,,,,,,,,,,,,,,,,,,,,,,,,,,,,,,,,,,,,,,,,,001,91,2020_Feb_06_1321,spring_faces,3.1.5,60.027574506551005,
condition files/Stage2_1.xlsx,,T5,B5,s,"['s', 'r']","['Stratego', 'Risk']","[-0.15, 0.5]","[0.15, 0.5]",1,1,,,,,,,,,,,,,,,,,0,4,4,4,0,2,2,0,,,,,,,,,,,,,,,,,,,,,,,,,,,,,,,,,,,,,,,,,,,,,,,2733.919229487001,None,2733.919229487001,None,2733.919229487001,None,s,1,1.5811148469983891,2735.452174746002,None,2735.452174746002,None,2735.452174746002,None,2737.0869874689997,None,2737.0869874689997,None,2737.0869874689997,None,2737.0869874689997,None,,,,,,,,,,,,,,,,,,,,,,,,,,,,,,,,,,,,,,,,,,,,001,91,2020_Feb_06_1321,spring_faces,3.1.5,60.027574506551005,
