condsFile,subStage,cue1,cue2,correct,responseKeys,responseNames,cue1Position,cue2Position,cue1Opacity,cue2Opacity,stageLoop0.thisRepN,stageLoop0.thisTrialN,stageLoop0.thisN,stageLoop0.thisIndex,blockLoop0.thisRepN,blockLoop0.thisTrialN,blockLoop0.thisN,blockLoop0.thisIndex,stage1Loop.thisRepN,stage1Loop.thisTrialN,stage1Loop.thisN,stage1Loop.thisIndex,blockLoop1.thisRepN,blockLoop1.thisTrialN,blockLoop1.thisN,blockLoop1.thisIndex,stage2Loop.thisRepN,stage2Loop.thisTrialN,stage2Loop.thisN,stage2Loop.thisIndex,blockLoop2.thisRepN,blockLoop2.thisTrialN,blockLoop2.thisN,blockLoop2.thisIndex,testLoop.thisRepN,testLoop.thisTrialN,testLoop.thisN,testLoop.thisIndex,blockLoopTest.thisRepN,blockLoopTest.thisTrialN,blockLoopTest.thisN,blockLoopTest.thisIndex,cuePics,id_instr_text.started,id_instr_text.stopped,space_to_continue_2.started,space_to_continue_2.stopped,end_instructions_resp_3.keys,end_instructions_resp_3.rt,end_instructions_resp_3.started,end_instructions_resp_3.stopped,id_input_instr.started,id_input_instr.stopped,id_input_rect.started,id_input_rect.stopped,id_input_resp.keys,id_input_resp.rt,id_input_resp.started,id_input_resp.stopped,sonaID,id_input_text.started,id_input_text.stopped,final_text.started,final_text.stopped,instructions.started,instructions.stopped,end_instructions_resp.keys,end_instructions_resp.rt,end_instructions_resp.started,end_instructions_resp.stopped,space_to_continue.started,space_to_continue.stopped,instructions_stage0.started,instructions_stage0.stopped,end_instructions_resp_stage0.keys,end_instructions_resp_stage0.rt,end_instructions_resp_stage0.started,end_instructions_resp_stage0.stopped,space_to_continue_stage0.started,space_to_continue_stage0.stopped,text.started,text.stopped,resp_text1.started,resp_text1.stopped,resp_text2.started,resp_text2.stopped,trial_resp.keys,trial_resp.corr,trial_resp.rt,trial_resp.started,trial_resp.stopped,cue1Image.started,cue1Image.stopped,cue2Image.started,cue2Image.stopped,cue1Image_fb.started,cue1Image_fb.stopped,cue2Image_fb.started,cue2Image_fb.stopped,fb_text_answer.started,fb_text_answer.stopped,feedback_image.started,feedback_image.stopped,instructions_stage1.started,instructions_stage1.stopped,end_instructions_resp_stage1.keys,end_instructions_resp_stage1.rt,end_instructions_resp_stage1.started,end_instructions_resp_stage1.stopped,space_to_continue_stage1.started,space_to_continue_stage1.stopped,instructions_2.started,instructions_2.stopped,end_instructions_resp_2.keys,end_instructions_resp_2.rt,end_instructions_resp_2.started,end_instructions_resp_2.stopped,press_space_to_continue_stage2.started,press_space_to_continue_stage2.stopped,instructions_testStage1.started,instructions_testStage1.stopped,end_instructions_resp_test1.keys,end_instructions_resp_test1.rt,end_instructions_resp_test1.started,end_instructions_resp_test1.stopped,press_space_to_continue_test1.started,press_space_to_continue_test1.stopped,cue1Image_testChoice.started,cue1Image_testChoice.stopped,cue2Image_testChoice.started,cue2Image_testChoice.stopped,test_resp.keys,test_resp.corr,test_resp.rt,test_resp.started,test_resp.stopped,cue1Image_testConf.started,cue1Image_testConf.stopped,cue2Image_testConf.started,cue2Image_testConf.stopped,conf_reminder.started,conf_reminder.stopped,conf_rating.response,conf_rating.rt,conf_rating.started,conf_rating.stopped,session,participant,date,expName,psychopyVersion,frameRate,
,,,,,,,,,,,,,,,,,,,,,,,,,,,,,,,,,,,,,,,,,,,"{'none': 'pictures/20M_AN_C.png', 'alpha': 'pictures/SHINEd_melon.png', 'beta': 'pictures/SHINEd_pepper.png', 'theta': 'pictures/SHINEd_pear.png', 'phi': 'pictures/SHINEd_apple.png', 'T1': 'pictures/33M_AN_C.png', 'T2': 'pictures/37M_AN_C.png', 'T3': 'pictures/34M_AN_C.png', 'T4': 'pictures/38M_AN_C.png', 'T5': 'pictures/20M_AN_C.png', 'T6': 'pictures/23M_AN_C.png', 'B1': 'pictures/31M_NE_C.png', 'B2': 'pictures/32M_NE_C.png', 'B3': 'pictures/22M_NE_C.png', 'B4': 'pictures/26M_NE_C.png', 'B5': 'pictures/36M_NE_C.png', 'B6': 'pictures/25M_NE_C.png'}",13.500267598999926,None,18.50092826800028,None,space,439.33862637700076,18.50092826800028,None,,,,,,,,,,,,,,,,,,,,,,,,,,,,,,,,,,,,,,,,,,,,,,,,,,,,,,,,,,,,,,,,,,,,,,,,,,,,,,,,,,,,,,,,,,,,,,,,001,9,2020_Jan_28_1057,spring_faces,3.1.5,59.947930426244355,
,,,,,,,,,,,,,,,,,,,,,,,,,,,,,,,,,,,,,,,,,,,,,,,,,,,,458.23415882100016,None,458.23415882100016,None,"['0', '4', '0', '6', 'v', 'a', 's', 'u', 'm']","[10.789397881000696, 11.669384458000422, 20.421398140999372, 21.109449863999544, 25.1733688660006, 25.62138993299959, 30.629336322999734, 30.917346235999503, 31.749359749999712]",458.23415882100016,None,,,,,,,,,,,,,,,,,,,,,,,,,,,,,,,,,,,,,,,,,,,,,,,,,,,,,,,,,,,,,,,,,,,,,,,,,,,,,,,,,,,,,,,,001,9,2020_Jan_28_1057,spring_faces,3.1.5,59.947930426244355,
,,,,,,,,,,,,,,,,,,,,,,,,,,,,,,,,,,,,,,,,,,,,,,,,,,,,,,,,,,,,0406vasum,458.23415882100016,None,458.23415882100016,None,495.0509750759993,None,space,2.348887480000485,500.0506692359995,None,,,,,,,,,,,,,,,,,,,,,,,,,,,,,,,,,,,,,,,,,,,,,,,,,,,,,,,,,,,,,,,,,,,,,,,,,,,,,001,9,2020_Jan_28_1057,spring_faces,3.1.5,59.947930426244355,
,,,,,,,,,,,,,,,,,,,,,,,,,,,,,,,,,,,,,,,,,,,,,,,,,,,,,,,,,,,,,,,,,,,,,,,500.0506692359995,None,502.43426326900044,None,space,2.1810725439991074,507.4344655629993,None,,,,,,,,,,,,,,,,,,,,,,,,,,,,,,,,,,,,,,,,,,,,,,,,,,,,,,,,,,,,,,,,,,,,,001,9,2020_Jan_28_1057,spring_faces,3.1.5,59.947930426244355,
condition files/Stage0a.xlsx,0a,alpha,none,h,"['h', 'g']","['Chess', 'Go']","[0, 0.5]","[0, 0]",1,0,0,0,0,0,0,0,0,0,,,,,,,,,,,,,,,,,,,,,,,,,,,,,,,,,,,,,,,,,,,,,,,,,,,,,,,,,,,,,507.4344655629993,None,509.6676093039987,None,509.6676093039987,None,509.6676093039987,None,g,0,2.044479300999228,511.2510549519993,None,511.2510549519993,None,511.2510549519993,None,513.3670048679996,None,513.3670048679996,None,513.3670048679996,None,513.3670048679996,None,,,,,,,,,,,,,,,,,,,,,,,,,,,,,,,,,,,,,,,,,,,,001,9,2020_Jan_28_1057,spring_faces,3.1.5,59.947930426244355,
condition files/Stage0a.xlsx,0a,beta,none,g,"['h', 'g']","['Chess', 'Go']","[0, 0.5]","[0, 0]",1,0,0,0,0,0,0,1,1,1,,,,,,,,,,,,,,,,,,,,,,,,,,,,,,,,,,,,,,,,,,,,,,,,,,,,,,,,,,,,,,,515.3173844189987,None,515.3173844189987,None,515.3173844189987,None,h,0,2.5708780610002577,516.8526850369999,None,516.8526850369999,None,516.8526850369999,None,519.4837464529992,None,519.4837464529992,None,519.4837464529992,None,519.4837464529992,None,,,,,,,,,,,,,,,,,,,,,,,,,,,,,,,,,,,,,,,,,,,,001,9,2020_Jan_28_1057,spring_faces,3.1.5,59.947930426244355,
condition files/Stage0a.xlsx,0a,alpha,none,h,"['h', 'g']","['Chess', 'Go']","[0, 0.5]","[0, 0]",1,0,0,1,1,1,0,0,0,0,,,,,,,,,,,,,,,,,,,,,,,,,,,,,,,,,,,,,,,,,,,,,,,,,,,,,,,,,,,,,,,521.4674298509999,None,521.4674298509999,None,521.4674298509999,None,h,1,1.4950136749994272,523.0005212319993,None,523.0005212319993,None,523.0005212319993,None,524.5508174959996,None,524.5508174959996,None,524.5508174959996,None,524.5508174959996,None,,,,,,,,,,,,,,,,,,,,,,,,,,,,,,,,,,,,,,,,,,,,001,9,2020_Jan_28_1057,spring_faces,3.1.5,59.947930426244355,
condition files/Stage0a.xlsx,0a,beta,none,g,"['h', 'g']","['Chess', 'Go']","[0, 0.5]","[0, 0]",1,0,0,1,1,1,0,1,1,1,,,,,,,,,,,,,,,,,,,,,,,,,,,,,,,,,,,,,,,,,,,,,,,,,,,,,,,,,,,,,,,526.5175184559994,None,526.5175184559994,None,526.5175184559994,None,g,1,0.5889743490006367,528.050570379999,None,528.050570379999,None,528.050570379999,None,528.7008277999994,None,528.7008277999994,None,528.7008277999994,None,528.7008277999994,None,,,,,,,,,,,,,,,,,,,,,,,,,,,,,,,,,,,,,,,,,,,,001,9,2020_Jan_28_1057,spring_faces,3.1.5,59.947930426244355,
condition files/Stage0a.xlsx,0a,beta,none,g,"['h', 'g']","['Chess', 'Go']","[0, 0.5]","[0, 0]",1,0,0,2,2,2,0,0,0,1,,,,,,,,,,,,,,,,,,,,,,,,,,,,,,,,,,,,,,,,,,,,,,,,,,,,,,,,,,,,,,,530.6842828459994,None,530.6842828459994,None,530.6842828459994,None,g,1,0.7102650830001949,532.2172804469992,None,532.2172804469992,None,532.2172804469992,None,532.9843303809994,None,532.9843303809994,None,532.9843303809994,None,532.9843303809994,None,,,,,,,,,,,,,,,,,,,,,,,,,,,,,,,,,,,,,,,,,,,,001,9,2020_Jan_28_1057,spring_faces,3.1.5,59.947930426244355,
condition files/Stage0a.xlsx,0a,alpha,none,h,"['h', 'g']","['Chess', 'Go']","[0, 0.5]","[0, 0]",1,0,0,2,2,2,0,1,1,0,,,,,,,,,,,,,,,,,,,,,,,,,,,,,,,,,,,,,,,,,,,,,,,,,,,,,,,,,,,,,,,534.9504580329994,None,534.9504580329994,None,534.9504580329994,None,h,1,0.7470241259998147,536.4845074719997,None,536.4845074719997,None,536.4845074719997,None,537.2838102759997,None,537.2838102759997,None,537.2838102759997,None,537.2838102759997,None,,,,,,,,,,,,,,,,,,,,,,,,,,,,,,,,,,,,,,,,,,,,001,9,2020_Jan_28_1057,spring_faces,3.1.5,59.947930426244355,
condition files/Stage0a.xlsx,0a,beta,none,g,"['h', 'g']","['Chess', 'Go']","[0, 0.5]","[0, 0]",1,0,0,3,3,3,0,0,0,1,,,,,,,,,,,,,,,,,,,,,,,,,,,,,,,,,,,,,,,,,,,,,,,,,,,,,,,,,,,,,,,539.2676659099998,None,539.2676659099998,None,539.2676659099998,None,g,1,0.6866961310006445,540.8008597119988,None,540.8008597119988,None,540.8008597119988,None,541.5509220679996,None,541.5509220679996,None,541.5509220679996,None,541.5509220679996,None,,,,,,,,,,,,,,,,,,,,,,,,,,,,,,,,,,,,,,,,,,,,001,9,2020_Jan_28_1057,spring_faces,3.1.5,59.947930426244355,
condition files/Stage0a.xlsx,0a,alpha,none,h,"['h', 'g']","['Chess', 'Go']","[0, 0.5]","[0, 0]",1,0,0,3,3,3,0,1,1,0,,,,,,,,,,,,,,,,,,,,,,,,,,,,,,,,,,,,,,,,,,,,,,,,,,,,,,,,,,,,,,,543.5175063679999,None,543.5175063679999,None,543.5175063679999,None,h,1,1.1087434159999248,545.0508712999999,None,545.0508712999999,None,545.0508712999999,None,546.2174078459993,None,546.2174078459993,None,546.2174078459993,None,546.2174078459993,None,,,,,,,,,,,,,,,,,,,,,,,,,,,,,,,,,,,,,,,,,,,,001,9,2020_Jan_28_1057,spring_faces,3.1.5,59.947930426244355,
condition files/Stage0a.xlsx,0a,alpha,none,h,"['h', 'g']","['Chess', 'Go']","[0, 0.5]","[0, 0]",1,0,0,4,4,4,0,0,0,0,,,,,,,,,,,,,,,,,,,,,,,,,,,,,,,,,,,,,,,,,,,,,,,,,,,,,,,,,,,,,,,548.2008364939993,None,548.2008364939993,None,548.2008364939993,None,g,0,0.6180299980005657,549.7334854910005,None,549.7334854910005,None,549.7334854910005,None,550.4179335959998,None,550.4179335959998,None,550.4179335959998,None,550.4179335959998,None,,,,,,,,,,,,,,,,,,,,,,,,,,,,,,,,,,,,,,,,,,,,001,9,2020_Jan_28_1057,spring_faces,3.1.5,59.947930426244355,
condition files/Stage0a.xlsx,0a,beta,none,g,"['h', 'g']","['Chess', 'Go']","[0, 0.5]","[0, 0]",1,0,0,4,4,4,0,1,1,1,,,,,,,,,,,,,,,,,,,,,,,,,,,,,,,,,,,,,,,,,,,,,,,,,,,,,,,,,,,,,,,552.3839412830002,None,552.3839412830002,None,552.3839412830002,None,g,1,0.45030012899951544,553.9172208029995,None,553.9172208029995,None,553.9172208029995,None,554.4170920659999,None,554.4170920659999,None,554.4170920659999,None,554.4170920659999,None,,,,,,,,,,,,,,,,,,,,,,,,,,,,,,,,,,,,,,,,,,,,001,9,2020_Jan_28_1057,spring_faces,3.1.5,59.947930426244355,
condition files/Stage0a.xlsx,0a,alpha,none,h,"['h', 'g']","['Chess', 'Go']","[0, 0.5]","[0, 0]",1,0,0,5,5,5,0,0,0,0,,,,,,,,,,,,,,,,,,,,,,,,,,,,,,,,,,,,,,,,,,,,,,,,,,,,,,,,,,,,,,,556.4008116469995,None,556.4008116469995,None,556.4008116469995,None,h,1,0.8653715229993395,557.9341749819996,None,557.9341749819996,None,557.9341749819996,None,558.8503748619987,None,558.8503748619987,None,558.8503748619987,None,558.8503748619987,None,,,,,,,,,,,,,,,,,,,,,,,,,,,,,,,,,,,,,,,,,,,,001,9,2020_Jan_28_1057,spring_faces,3.1.5,59.947930426244355,
condition files/Stage0a.xlsx,0a,beta,none,g,"['h', 'g']","['Chess', 'Go']","[0, 0.5]","[0, 0]",1,0,0,5,5,5,0,1,1,1,,,,,,,,,,,,,,,,,,,,,,,,,,,,,,,,,,,,,,,,,,,,,,,,,,,,,,,,,,,,,,,560.8173254899993,None,560.8173254899993,None,560.8173254899993,None,g,1,0.3365591220008355,562.3509767269989,None,562.3509767269989,None,562.3509767269989,None,562.7512076619987,None,562.7512076619987,None,562.7512076619987,None,562.7512076619987,None,,,,,,,,,,,,,,,,,,,,,,,,,,,,,,,,,,,,,,,,,,,,001,9,2020_Jan_28_1057,spring_faces,3.1.5,59.947930426244355,
condition files/Stage0b_1.xlsx,0b,alpha,none,h,"['h', 'g']","['Chess', 'Go']","[-0.15, 0.5]","[0.15, 0.5]",1,0,0,6,6,6,0,0,0,0,,,,,,,,,,,,,,,,,,,,,,,,,,,,,,,,,,,,,,,,,,,,,,,,,,,,,,,,,,,,,,,564.7337679329994,None,564.7337679329994,None,564.7337679329994,None,h,1,0.7084307429995533,566.267167263999,None,566.267167263999,None,566.267167263999,None,567.0341200579987,None,567.0341200579987,None,567.0341200579987,None,567.0341200579987,None,,,,,,,,,,,,,,,,,,,,,,,,,,,,,,,,,,,,,,,,,,,,001,9,2020_Jan_28_1057,spring_faces,3.1.5,59.947930426244355,
condition files/Stage0b_1.xlsx,0b,none,beta,g,"['h', 'g']","['Chess', 'Go']","[-0.15, 0.5]","[0.15, 0.5]",0,1,0,6,6,6,0,1,1,1,,,,,,,,,,,,,,,,,,,,,,,,,,,,,,,,,,,,,,,,,,,,,,,,,,,,,,,,,,,,,,,569.0008413300002,None,569.0008413300002,None,569.0008413300002,None,g,1,0.34423468000022694,570.5512864270004,None,570.5512864270004,None,570.5512864270004,None,570.9538410530004,None,570.9538410530004,None,570.9538410530004,None,570.9538410530004,None,,,,,,,,,,,,,,,,,,,,,,,,,,,,,,,,,,,,,,,,,,,,001,9,2020_Jan_28_1057,spring_faces,3.1.5,59.947930426244355,
condition files/Stage0b_2.xlsx,0b,beta,none,g,"['h', 'g']","['Chess', 'Go']","[-0.15, 0.5]","[0.15, 0.5]",1,0,0,7,7,7,0,0,0,1,,,,,,,,,,,,,,,,,,,,,,,,,,,,,,,,,,,,,,,,,,,,,,,,,,,,,,,,,,,,,,,572.9344367149988,None,572.9344367149988,None,572.9344367149988,None,g,1,0.7746949330012285,574.4730906589994,None,574.4730906589994,None,574.4730906589994,None,575.3012666060004,None,575.3012666060004,None,575.3012666060004,None,575.3012666060004,None,,,,,,,,,,,,,,,,,,,,,,,,,,,,,,,,,,,,,,,,,,,,001,9,2020_Jan_28_1057,spring_faces,3.1.5,59.947930426244355,
condition files/Stage0b_2.xlsx,0b,none,alpha,h,"['h', 'g']","['Chess', 'Go']","[-0.15, 0.5]","[0.15, 0.5]",0,1,0,7,7,7,0,1,1,0,,,,,,,,,,,,,,,,,,,,,,,,,,,,,,,,,,,,,,,,,,,,,,,,,,,,,,,,,,,,,,,577.2676151100004,None,577.2676151100004,None,577.2676151100004,None,h,1,0.5885720040005253,578.8030511460001,None,578.8030511460001,None,578.8030511460001,None,579.4513770779995,None,579.4513770779995,None,579.4513770779995,None,579.4513770779995,None,,,,,,,,,,,,,,,,,,,,,,,,,,,,,,,,,,,,,,,,,,,,001,9,2020_Jan_28_1057,spring_faces,3.1.5,59.947930426244355,
condition files/Stage0b_1.xlsx,0b,none,beta,g,"['h', 'g']","['Chess', 'Go']","[-0.15, 0.5]","[0.15, 0.5]",0,1,0,8,8,8,0,0,0,1,,,,,,,,,,,,,,,,,,,,,,,,,,,,,,,,,,,,,,,,,,,,,,,,,,,,,,,,,,,,,,,581.4338382139995,None,581.4338382139995,None,581.4338382139995,None,g,1,0.7919882869991852,582.9676292289987,None,582.9676292289987,None,582.9676292289987,None,583.8180670860002,None,583.8180670860002,None,583.8180670860002,None,583.8180670860002,None,,,,,,,,,,,,,,,,,,,,,,,,,,,,,,,,,,,,,,,,,,,,001,9,2020_Jan_28_1057,spring_faces,3.1.5,59.947930426244355,
condition files/Stage0b_1.xlsx,0b,alpha,none,h,"['h', 'g']","['Chess', 'Go']","[-0.15, 0.5]","[0.15, 0.5]",1,0,0,8,8,8,0,1,1,0,,,,,,,,,,,,,,,,,,,,,,,,,,,,,,,,,,,,,,,,,,,,,,,,,,,,,,,,,,,,,,,585.7838472129988,None,585.7838472129988,None,585.7838472129988,None,h,1,0.7741953700005979,587.3213487969988,None,587.3213487969988,None,587.3213487969988,None,588.156537892999,None,588.156537892999,None,588.156537892999,None,588.156537892999,None,,,,,,,,,,,,,,,,,,,,,,,,,,,,,,,,,,,,,,,,,,,,001,9,2020_Jan_28_1057,spring_faces,3.1.5,59.947930426244355,
condition files/Stage0b_2.xlsx,0b,none,alpha,h,"['h', 'g']","['Chess', 'Go']","[-0.15, 0.5]","[0.15, 0.5]",0,1,0,9,9,9,0,0,0,0,,,,,,,,,,,,,,,,,,,,,,,,,,,,,,,,,,,,,,,,,,,,,,,,,,,,,,,,,,,,,,,590.1336921149996,None,590.1336921149996,None,590.1336921149996,None,h,1,0.6482944399995176,591.6712479489997,None,591.6712479489997,None,591.6712479489997,None,592.3843349349991,None,592.3843349349991,None,592.3843349349991,None,592.3843349349991,None,,,,,,,,,,,,,,,,,,,,,,,,,,,,,,,,,,,,,,,,,,,,001,9,2020_Jan_28_1057,spring_faces,3.1.5,59.947930426244355,
condition files/Stage0b_2.xlsx,0b,beta,none,g,"['h', 'g']","['Chess', 'Go']","[-0.15, 0.5]","[0.15, 0.5]",1,0,0,9,9,9,0,1,1,1,,,,,,,,,,,,,,,,,,,,,,,,,,,,,,,,,,,,,,,,,,,,,,,,,,,,,,,,,,,,,,,594.3507415889999,None,594.3507415889999,None,594.3507415889999,None,g,1,0.6230278109997016,595.8885909649998,None,595.8885909649998,None,595.8885909649998,None,596.5724072449993,None,596.5724072449993,None,596.5724072449993,None,596.5724072449993,None,,,,,,,,,,,,,,,,,,,,,,,,,,,,,,,,,,,,,,,,,,,,001,9,2020_Jan_28_1057,spring_faces,3.1.5,59.947930426244355,
condition files/Stage0b_1.xlsx,0b,none,beta,g,"['h', 'g']","['Chess', 'Go']","[-0.15, 0.5]","[0.15, 0.5]",0,1,0,10,10,10,0,0,0,1,,,,,,,,,,,,,,,,,,,,,,,,,,,,,,,,,,,,,,,,,,,,,,,,,,,,,,,,,,,,,,,598.550842749999,None,598.550842749999,None,598.550842749999,None,g,1,2.090637389001131,600.1009689860002,None,600.1009689860002,None,600.1009689860002,None,602.2506273439994,None,602.2506273439994,None,602.2506273439994,None,602.2506273439994,None,,,,,,,,,,,,,,,,,,,,,,,,,,,,,,,,,,,,,,,,,,,,001,9,2020_Jan_28_1057,spring_faces,3.1.5,59.947930426244355,
condition files/Stage0b_1.xlsx,0b,alpha,none,h,"['h', 'g']","['Chess', 'Go']","[-0.15, 0.5]","[0.15, 0.5]",1,0,0,10,10,10,0,1,1,0,,,,,,,,,,,,,,,,,,,,,,,,,,,,,,,,,,,,,,,,,,,,,,,,,,,,,,,,,,,,,,,604.2175114469992,None,604.2175114469992,None,604.2175114469992,None,h,1,0.48477129400089325,605.7548305299988,None,605.7548305299988,None,605.7548305299988,None,606.2997492369996,None,606.2997492369996,None,606.2997492369996,None,606.2997492369996,None,,,,,,,,,,,,,,,,,,,,,,,,,,,,,,,,,,,,,,,,,,,,001,9,2020_Jan_28_1057,spring_faces,3.1.5,59.947930426244355,
condition files/Stage0b_2.xlsx,0b,none,alpha,h,"['h', 'g']","['Chess', 'Go']","[-0.15, 0.5]","[0.15, 0.5]",0,1,0,11,11,11,0,0,0,0,,,,,,,,,,,,,,,,,,,,,,,,,,,,,,,,,,,,,,,,,,,,,,,,,,,,,,,,,,,,,,,608.2837032989992,None,608.2837032989992,None,608.2837032989992,None,h,1,0.45294184799968207,609.8186304539995,None,609.8186304539995,None,609.8186304539995,None,610.334696296999,None,610.334696296999,None,610.334696296999,None,610.334696296999,None,,,,,,,,,,,,,,,,,,,,,,,,,,,,,,,,,,,,,,,,,,,,001,9,2020_Jan_28_1057,spring_faces,3.1.5,59.947930426244355,
condition files/Stage0b_2.xlsx,0b,beta,none,g,"['h', 'g']","['Chess', 'Go']","[-0.15, 0.5]","[0.15, 0.5]",1,0,0,11,11,11,0,1,1,1,,,,,,,,,,,,,,,,,,,,,,,,,,,,,,,,,,,,,,,,,,,,,,,,,,,,,,,,,,,,,,,612.3007915489998,None,612.3007915489998,None,612.3007915489998,None,g,1,0.6591138999992836,613.8364324119993,None,613.8364324119993,None,613.8364324119993,None,614.5515922060004,None,614.5515922060004,None,614.5515922060004,None,614.5515922060004,None,,,,,,,,,,,,,,,,,,,,,,,,,,,,,,,,,,,,,,,,,,,,001,9,2020_Jan_28_1057,spring_faces,3.1.5,59.947930426244355,
condition files/Stage0c_1.xlsx,0c,alpha,phi,h,"['h', 'g']","['Chess', 'Go']","[-0.15, 0.5]","[0.15, 0.5]",1,1,0,12,12,12,0,0,0,1,,,,,,,,,,,,,,,,,,,,,,,,,,,,,,,,,,,,,,,,,,,,,,,,,,,,,,,,,,,,,,,616.5337828439988,None,616.5337828439988,None,616.5337828439988,None,h,1,3.404548901000453,618.0670079419997,None,618.0670079419997,None,618.0670079419997,None,621.5342733899997,None,621.5342733899997,None,621.5342733899997,None,621.5342733899997,None,,,,,,,,,,,,,,,,,,,,,,,,,,,,,,,,,,,,,,,,,,,,001,9,2020_Jan_28_1057,spring_faces,3.1.5,59.947930426244355,
condition files/Stage0c_1.xlsx,0c,theta,alpha,h,"['h', 'g']","['Chess', 'Go']","[-0.15, 0.5]","[0.15, 0.5]",1,1,0,12,12,12,0,1,1,0,,,,,,,,,,,,,,,,,,,,,,,,,,,,,,,,,,,,,,,,,,,,,,,,,,,,,,,,,,,,,,,623.5006149639994,None,623.5006149639994,None,623.5006149639994,None,h,1,1.4453078779988573,625.0342158650001,None,625.0342158650001,None,625.0342158650001,None,626.5344788619987,None,626.5344788619987,None,626.5344788619987,None,626.5344788619987,None,,,,,,,,,,,,,,,,,,,,,,,,,,,,,,,,,,,,,,,,,,,,001,9,2020_Jan_28_1057,spring_faces,3.1.5,59.947930426244355,
condition files/Stage0c_1.xlsx,0c,phi,beta,g,"['h', 'g']","['Chess', 'Go']","[-0.15, 0.5]","[0.15, 0.5]",1,1,0,12,12,12,0,2,2,3,,,,,,,,,,,,,,,,,,,,,,,,,,,,,,,,,,,,,,,,,,,,,,,,,,,,,,,,,,,,,,,628.500205459999,None,628.500205459999,None,628.500205459999,None,h,0,2.717083117000584,630.0344401579987,None,630.0344401579987,None,630.0344401579987,None,632.8172998419996,None,632.8172998419996,None,632.8172998419996,None,632.8172998419996,None,,,,,,,,,,,,,,,,,,,,,,,,,,,,,,,,,,,,,,,,,,,,001,9,2020_Jan_28_1057,spring_faces,3.1.5,59.947930426244355,
condition files/Stage0c_1.xlsx,0c,beta,theta,g,"['h', 'g']","['Chess', 'Go']","[-0.15, 0.5]","[0.15, 0.5]",1,1,0,12,12,12,0,3,3,2,,,,,,,,,,,,,,,,,,,,,,,,,,,,,,,,,,,,,,,,,,,,,,,,,,,,,,,,,,,,,,,634.7841761,None,634.7841761,None,634.7841761,None,g,1,1.169664779001323,636.31788108,None,636.31788108,None,636.31788108,None,637.5336237529991,None,637.5336237529991,None,637.5336237529991,None,637.5336237529991,None,,,,,,,,,,,,,,,,,,,,,,,,,,,,,,,,,,,,,,,,,,,,001,9,2020_Jan_28_1057,spring_faces,3.1.5,59.947930426244355,
condition files/Stage0c_2.xlsx,0c,phi,alpha,h,"['h', 'g']","['Chess', 'Go']","[-0.15, 0.5]","[0.15, 0.5]",1,1,0,13,13,13,0,0,0,1,,,,,,,,,,,,,,,,,,,,,,,,,,,,,,,,,,,,,,,,,,,,,,,,,,,,,,,,,,,,,,,639.5343933240001,None,639.5343933240001,None,639.5343933240001,None,h,1,1.2354640520006797,641.0680860289995,None,641.0680860289995,None,641.0680860289995,None,642.3670061619996,None,642.3670061619996,None,642.3670061619996,None,642.3670061619996,None,,,,,,,,,,,,,,,,,,,,,,,,,,,,,,,,,,,,,,,,,,,,001,9,2020_Jan_28_1057,spring_faces,3.1.5,59.947930426244355,
condition files/Stage0c_2.xlsx,0c,alpha,theta,h,"['h', 'g']","['Chess', 'Go']","[-0.15, 0.5]","[0.15, 0.5]",1,1,0,13,13,13,0,1,1,0,,,,,,,,,,,,,,,,,,,,,,,,,,,,,,,,,,,,,,,,,,,,,,,,,,,,,,,,,,,,,,,644.3338912489999,None,644.3338912489999,None,644.3338912489999,None,h,1,0.7719490979998227,645.8676002479988,None,645.8676002479988,None,645.8676002479988,None,646.6862030969987,None,646.6862030969987,None,646.6862030969987,None,646.6862030969987,None,,,,,,,,,,,,,,,,,,,,,,,,,,,,,,,,,,,,,,,,,,,,001,9,2020_Jan_28_1057,spring_faces,3.1.5,59.947930426244355,
condition files/Stage0c_2.xlsx,0c,beta,phi,g,"['h', 'g']","['Chess', 'Go']","[-0.15, 0.5]","[0.15, 0.5]",1,1,0,13,13,13,0,2,2,3,,,,,,,,,,,,,,,,,,,,,,,,,,,,,,,,,,,,,,,,,,,,,,,,,,,,,,,,,,,,,,,648.6673418809987,None,648.6673418809987,None,648.6673418809987,None,g,1,0.7908970239986957,650.2007080929998,None,650.2007080929998,None,650.2007080929998,None,651.0511873960004,None,651.0511873960004,None,651.0511873960004,None,651.0511873960004,None,,,,,,,,,,,,,,,,,,,,,,,,,,,,,,,,,,,,,,,,,,,,001,9,2020_Jan_28_1057,spring_faces,3.1.5,59.947930426244355,
condition files/Stage0c_2.xlsx,0c,theta,beta,g,"['h', 'g']","['Chess', 'Go']","[-0.15, 0.5]","[0.15, 0.5]",1,1,0,13,13,13,0,3,3,2,,,,,,,,,,,,,,,,,,,,,,,,,,,,,,,,,,,,,,,,,,,,,,,,,,,,,,,,,,,,,,,653.0171574609994,None,653.0171574609994,None,653.0171574609994,None,g,1,0.9366116490000422,654.550941128,None,654.550941128,None,654.550941128,None,655.5346680869989,None,655.5346680869989,None,655.5346680869989,None,655.5346680869989,None,,,,,,,,,,,,,,,,,,,,,,,,,,,,,,,,,,,,,,,,,,,,001,9,2020_Jan_28_1057,spring_faces,3.1.5,59.947930426244355,
condition files/Stage0c_1.xlsx,0c,phi,beta,g,"['h', 'g']","['Chess', 'Go']","[-0.15, 0.5]","[0.15, 0.5]",1,1,0,14,14,14,0,0,0,3,,,,,,,,,,,,,,,,,,,,,,,,,,,,,,,,,,,,,,,,,,,,,,,,,,,,,,,,,,,,,,,657.5343393269995,None,657.5343393269995,None,657.5343393269995,None,g,1,1.2998090849996515,659.0677399269989,None,659.0677399269989,None,659.0677399269989,None,660.4026089079998,None,660.4026089079998,None,660.4026089079998,None,660.4026089079998,None,,,,,,,,,,,,,,,,,,,,,,,,,,,,,,,,,,,,,,,,,,,,001,9,2020_Jan_28_1057,spring_faces,3.1.5,59.947930426244355,
condition files/Stage0c_1.xlsx,0c,beta,theta,g,"['h', 'g']","['Chess', 'Go']","[-0.15, 0.5]","[0.15, 0.5]",1,1,0,14,14,14,0,1,1,2,,,,,,,,,,,,,,,,,,,,,,,,,,,,,,,,,,,,,,,,,,,,,,,,,,,,,,,,,,,,,,,662.3838616039993,None,662.3838616039993,None,662.3838616039993,None,g,1,0.8496318319994316,663.9179056859994,None,663.9179056859994,None,663.9179056859994,None,664.8020281619993,None,664.8020281619993,None,664.8020281619993,None,664.8020281619993,None,,,,,,,,,,,,,,,,,,,,,,,,,,,,,,,,,,,,,,,,,,,,001,9,2020_Jan_28_1057,spring_faces,3.1.5,59.947930426244355,
condition files/Stage0c_1.xlsx,0c,theta,alpha,h,"['h', 'g']","['Chess', 'Go']","[-0.15, 0.5]","[0.15, 0.5]",1,1,0,14,14,14,0,2,2,0,,,,,,,,,,,,,,,,,,,,,,,,,,,,,,,,,,,,,,,,,,,,,,,,,,,,,,,,,,,,,,,666.7841616419992,None,666.7841616419992,None,666.7841616419992,None,h,1,1.3782752389997768,668.3172554060002,None,668.3172554060002,None,668.3172554060002,None,669.7509180059988,None,669.7509180059988,None,669.7509180059988,None,669.7509180059988,None,,,,,,,,,,,,,,,,,,,,,,,,,,,,,,,,,,,,,,,,,,,,001,9,2020_Jan_28_1057,spring_faces,3.1.5,59.947930426244355,
condition files/Stage0c_1.xlsx,0c,alpha,phi,h,"['h', 'g']","['Chess', 'Go']","[-0.15, 0.5]","[0.15, 0.5]",1,1,0,14,14,14,0,3,3,1,,,,,,,,,,,,,,,,,,,,,,,,,,,,,,,,,,,,,,,,,,,,,,,,,,,,,,,,,,,,,,,671.7176167879988,None,671.7176167879988,None,671.7176167879988,None,h,1,1.548519796000619,673.2510187609987,None,673.2510187609987,None,673.2510187609987,None,674.8509380569994,None,674.8509380569994,None,674.8509380569994,None,674.8509380569994,None,,,,,,,,,,,,,,,,,,,,,,,,,,,,,,,,,,,,,,,,,,,,001,9,2020_Jan_28_1057,spring_faces,3.1.5,59.947930426244355,
condition files/Stage0c_2.xlsx,0c,theta,beta,g,"['h', 'g']","['Chess', 'Go']","[-0.15, 0.5]","[0.15, 0.5]",1,1,0,15,15,15,0,0,0,2,,,,,,,,,,,,,,,,,,,,,,,,,,,,,,,,,,,,,,,,,,,,,,,,,,,,,,,,,,,,,,,676.8342242929994,None,676.8342242929994,None,676.8342242929994,None,g,1,1.744367721999879,678.3672591399991,None,678.3672591399991,None,678.3672591399991,None,680.1677074649997,None,680.1677074649997,None,680.1677074649997,None,680.1677074649997,None,,,,,,,,,,,,,,,,,,,,,,,,,,,,,,,,,,,,,,,,,,,,001,9,2020_Jan_28_1057,spring_faces,3.1.5,59.947930426244355,
condition files/Stage0c_2.xlsx,0c,beta,phi,g,"['h', 'g']","['Chess', 'Go']","[-0.15, 0.5]","[0.15, 0.5]",1,1,0,15,15,15,0,1,1,3,,,,,,,,,,,,,,,,,,,,,,,,,,,,,,,,,,,,,,,,,,,,,,,,,,,,,,,,,,,,,,,682.1344737119998,None,682.1344737119998,None,682.1344737119998,None,g,1,1.0360845920004067,683.667464438,None,683.667464438,None,683.667464438,None,684.7525526669997,None,684.7525526669997,None,684.7525526669997,None,684.7525526669997,None,,,,,,,,,,,,,,,,,,,,,,,,,,,,,,,,,,,,,,,,,,,,001,9,2020_Jan_28_1057,spring_faces,3.1.5,59.947930426244355,
condition files/Stage0c_2.xlsx,0c,phi,alpha,h,"['h', 'g']","['Chess', 'Go']","[-0.15, 0.5]","[0.15, 0.5]",1,1,0,15,15,15,0,2,2,1,,,,,,,,,,,,,,,,,,,,,,,,,,,,,,,,,,,,,,,,,,,,,,,,,,,,,,,,,,,,,,,686.7341924159991,None,686.7341924159991,None,686.7341924159991,None,h,1,1.2358723369998188,688.267658118999,None,688.267658118999,None,688.267658118999,None,689.5678673879993,None,689.5678673879993,None,689.5678673879993,None,689.5678673879993,None,,,,,,,,,,,,,,,,,,,,,,,,,,,,,,,,,,,,,,,,,,,,001,9,2020_Jan_28_1057,spring_faces,3.1.5,59.947930426244355,
condition files/Stage0c_2.xlsx,0c,alpha,theta,h,"['h', 'g']","['Chess', 'Go']","[-0.15, 0.5]","[0.15, 0.5]",1,1,0,15,15,15,0,3,3,0,,,,,,,,,,,,,,,,,,,,,,,,,,,,,,,,,,,,,,,,,,,,,,,,,,,,,,,,,,,,,,,691.5342985499992,None,691.5342985499992,None,691.5342985499992,None,h,1,0.9324461920004978,693.067092715999,None,693.067092715999,None,693.067092715999,None,694.0355593889999,None,694.0355593889999,None,694.0355593889999,None,694.0355593889999,None,,,,,,,,,,,,,,,,,,,,,,,,,,,,,,,,,,,,,,,,,,,,001,9,2020_Jan_28_1057,spring_faces,3.1.5,59.947930426244355,
condition files/Stage0c_1.xlsx,0c,theta,alpha,h,"['h', 'g']","['Chess', 'Go']","[-0.15, 0.5]","[0.15, 0.5]",1,1,0,16,16,16,0,0,0,0,,,,,,,,,,,,,,,,,,,,,,,,,,,,,,,,,,,,,,,,,,,,,,,,,,,,,,,,,,,,,,,696.0342280779987,None,696.0342280779987,None,696.0342280779987,None,h,1,0.9925877719997516,697.5670392409993,None,697.5670392409993,None,697.5670392409993,None,698.6037283109999,None,698.6037283109999,None,698.6037283109999,None,698.6037283109999,None,,,,,,,,,,,,,,,,,,,,,,,,,,,,,,,,,,,,,,,,,,,,001,9,2020_Jan_28_1057,spring_faces,3.1.5,59.947930426244355,
condition files/Stage0c_1.xlsx,0c,phi,beta,g,"['h', 'g']","['Chess', 'Go']","[-0.15, 0.5]","[0.15, 0.5]",1,1,0,16,16,16,0,1,1,3,,,,,,,,,,,,,,,,,,,,,,,,,,,,,,,,,,,,,,,,,,,,,,,,,,,,,,,,,,,,,,,700.5840475009991,None,700.5840475009991,None,700.5840475009991,None,g,1,1.0025232659991161,702.1170120009992,None,702.1170120009992,None,702.1170120009992,None,703.184624002999,None,703.184624002999,None,703.184624002999,None,703.184624002999,None,,,,,,,,,,,,,,,,,,,,,,,,,,,,,,,,,,,,,,,,,,,,001,9,2020_Jan_28_1057,spring_faces,3.1.5,59.947930426244355,
condition files/Stage0c_1.xlsx,0c,alpha,phi,h,"['h', 'g']","['Chess', 'Go']","[-0.15, 0.5]","[0.15, 0.5]",1,1,0,16,16,16,0,2,2,1,,,,,,,,,,,,,,,,,,,,,,,,,,,,,,,,,,,,,,,,,,,,,,,,,,,,,,,,,,,,,,,705.1509275129993,None,705.1509275129993,None,705.1509275129993,None,h,1,0.9951603800000157,706.6843867759999,None,706.6843867759999,None,706.6843867759999,None,707.7342565420004,None,707.7342565420004,None,707.7342565420004,None,707.7342565420004,None,,,,,,,,,,,,,,,,,,,,,,,,,,,,,,,,,,,,,,,,,,,,001,9,2020_Jan_28_1057,spring_faces,3.1.5,59.947930426244355,
condition files/Stage0c_1.xlsx,0c,beta,theta,g,"['h', 'g']","['Chess', 'Go']","[-0.15, 0.5]","[0.15, 0.5]",1,1,0,16,16,16,0,3,3,2,,,,,,,,,,,,,,,,,,,,,,,,,,,,,,,,,,,,,,,,,,,,,,,,,,,,,,,,,,,,,,,709.7005295689996,None,709.7005295689996,None,709.7005295689996,None,g,1,2.477222626999719,711.2343874559992,None,711.2343874559992,None,711.2343874559992,None,713.7676524729995,None,713.7676524729995,None,713.7676524729995,None,713.7676524729995,None,,,,,,,,,,,,,,,,,,,,,,,,,,,,,,,,,,,,,,,,,,,,001,9,2020_Jan_28_1057,spring_faces,3.1.5,59.947930426244355,
condition files/Stage0c_2.xlsx,0c,beta,phi,g,"['h', 'g']","['Chess', 'Go']","[-0.15, 0.5]","[0.15, 0.5]",1,1,0,17,17,17,0,0,0,3,,,,,,,,,,,,,,,,,,,,,,,,,,,,,,,,,,,,,,,,,,,,,,,,,,,,,,,,,,,,,,,715.7508649989995,None,715.7508649989995,None,715.7508649989995,None,g,1,0.7471323760000814,717.2844198479997,None,717.2844198479997,None,717.2844198479997,None,718.0685757449992,None,718.0685757449992,None,718.0685757449992,None,718.0685757449992,None,,,,,,,,,,,,,,,,,,,,,,,,,,,,,,,,,,,,,,,,,,,,001,9,2020_Jan_28_1057,spring_faces,3.1.5,59.947930426244355,
condition files/Stage0c_2.xlsx,0c,phi,alpha,h,"['h', 'g']","['Chess', 'Go']","[-0.15, 0.5]","[0.15, 0.5]",1,1,0,17,17,17,0,1,1,1,,,,,,,,,,,,,,,,,,,,,,,,,,,,,,,,,,,,,,,,,,,,,,,,,,,,,,,,,,,,,,,720.0506951829993,None,720.0506951829993,None,720.0506951829993,None,h,1,0.7198568950007029,721.5836895159991,None,721.5836895159991,None,721.5836895159991,None,722.3674220169996,None,722.3674220169996,None,722.3674220169996,None,722.3674220169996,None,,,,,,,,,,,,,,,,,,,,,,,,,,,,,,,,,,,,,,,,,,,,001,9,2020_Jan_28_1057,spring_faces,3.1.5,59.947930426244355,
condition files/Stage0c_2.xlsx,0c,theta,beta,g,"['h', 'g']","['Chess', 'Go']","[-0.15, 0.5]","[0.15, 0.5]",1,1,0,17,17,17,0,2,2,2,,,,,,,,,,,,,,,,,,,,,,,,,,,,,,,,,,,,,,,,,,,,,,,,,,,,,,,,,,,,,,,724.3345459419997,None,724.3345459419997,None,724.3345459419997,None,g,1,1.5242773710015172,725.8673134029996,None,725.8673134029996,None,725.8673134029996,None,727.4509591980004,None,727.4509591980004,None,727.4509591980004,None,727.4509591980004,None,,,,,,,,,,,,,,,,,,,,,,,,,,,,,,,,,,,,,,,,,,,,001,9,2020_Jan_28_1057,spring_faces,3.1.5,59.947930426244355,
condition files/Stage0c_2.xlsx,0c,alpha,theta,h,"['h', 'g']","['Chess', 'Go']","[-0.15, 0.5]","[0.15, 0.5]",1,1,0,17,17,17,0,3,3,0,,,,,,,,,,,,,,,,,,,,,,,,,,,,,,,,,,,,,,,,,,,,,,,,,,,,,,,,,,,,,,,729.4175110689994,None,729.4175110689994,None,729.4175110689994,None,h,1,0.7447060340000462,730.950828641,None,730.950828641,None,730.950828641,None,731.7510426279987,None,731.7510426279987,None,731.7510426279987,None,731.7510426279987,None,,,,,,,,,,,,,,,,,,,,,,,,,,,,,,,,,,,,,,,,,,,,001,9,2020_Jan_28_1057,spring_faces,3.1.5,59.947930426244355,
,,,,,,,,,,,,,,,,,,,,,,,,,,,,,,,,,,,,,,,,,,,,,,,,,,,,,,,,,,,,,,,,,,,,,,,,,,,,,,,,,,,,,,,,,,,,,,,,,,,,,,,,733.7337013309989,None,space,3.0093323750006675,738.7343023539997,None,,,,,,,,,,,,,,,,,,,,,,,,,,,,,,,,,,,,,,001,9,2020_Jan_28_1057,spring_faces,3.1.5,59.947930426244355,
condition files/Stage1_1.xlsx,,T4,B3,m,"['c', 'm']","['Clue', 'Monopoly']","[-0.15, 0.5]","[0.15, 0.5]",1,1,,,,,,,,,0,0,0,0,0,0,0,6,,,,,,,,,,,,,,,,,,,,,,,,,,,,,,,,,,,,,,,,,,,,,,,,,,,,,,,741.8009850729995,None,741.8009850729995,None,741.8009850729995,None,m,1,2.006560329999047,743.4010581189996,None,743.4010581189996,None,743.4010581189996,None,745.4859019260002,None,745.4859019260002,None,745.4859019260002,None,745.4859019260002,None,,,,,,,738.7343023539997,None,,,,,,,,,,,,,,,,,,,,,,,,,,,,,,,,,,,,001,9,2020_Jan_28_1057,spring_faces,3.1.5,59.947930426244355,
condition files/Stage1_1.xlsx,,T3,B4,c,"['c', 'm']","['Clue', 'Monopoly']","[-0.15, 0.5]","[0.15, 0.5]",1,1,,,,,,,,,0,0,0,0,0,1,1,5,,,,,,,,,,,,,,,,,,,,,,,,,,,,,,,,,,,,,,,,,,,,,,,,,,,,,,,747.4340467900001,None,747.4340467900001,None,747.4340467900001,None,c,1,0.8696908219990291,749.0178606369991,None,749.0178606369991,None,749.0178606369991,None,749.951101613,None,749.951101613,None,749.951101613,None,749.951101613,None,,,,,,,,,,,,,,,,,,,,,,,,,,,,,,,,,,,,,,,,,,,,001,9,2020_Jan_28_1057,spring_faces,3.1.5,59.947930426244355,
condition files/Stage1_1.xlsx,,T1,B1,c,"['c', 'm']","['Clue', 'Monopoly']","[-0.15, 0.5]","[0.15, 0.5]",1,1,,,,,,,,,0,0,0,0,0,2,2,0,,,,,,,,,,,,,,,,,,,,,,,,,,,,,,,,,,,,,,,,,,,,,,,,,,,,,,,751.9174785949999,None,751.9174785949999,None,751.9174785949999,None,m,0,0.9772391459991923,753.5343816069999,None,753.5343816069999,None,753.5343816069999,None,754.5676579899991,None,754.5676579899991,None,754.5676579899991,None,754.5676579899991,None,,,,,,,,,,,,,,,,,,,,,,,,,,,,,,,,,,,,,,,,,,,,001,9,2020_Jan_28_1057,spring_faces,3.1.5,59.947930426244355,
condition files/Stage1_1.xlsx,,B1,T2,c,"['c', 'm']","['Clue', 'Monopoly']","[-0.15, 0.5]","[0.15, 0.5]",1,1,,,,,,,,,0,0,0,0,0,3,3,1,,,,,,,,,,,,,,,,,,,,,,,,,,,,,,,,,,,,,,,,,,,,,,,,,,,,,,,756.5343322529989,None,756.5343322529989,None,756.5343322529989,None,m,0,2.891235187998973,758.084364250999,None,758.084364250999,None,758.084364250999,None,761.0339319449995,None,761.0339319449995,None,761.0339319449995,None,761.0339319449995,None,,,,,,,,,,,,,,,,,,,,,,,,,,,,,,,,,,,,,,,,,,,,001,9,2020_Jan_28_1057,spring_faces,3.1.5,59.947930426244355,
condition files/Stage1_1.xlsx,,B3,T3,c,"['c', 'm']","['Clue', 'Monopoly']","[-0.15, 0.5]","[0.15, 0.5]",1,1,,,,,,,,,0,0,0,0,0,4,4,4,,,,,,,,,,,,,,,,,,,,,,,,,,,,,,,,,,,,,,,,,,,,,,,,,,,,,,,763.0008208219988,None,763.0008208219988,None,763.0008208219988,None,c,1,1.3676205000010668,764.5359328639988,None,764.5359328639988,None,764.5359328639988,None,765.9669335210001,None,765.9669335210001,None,765.9669335210001,None,765.9669335210001,None,,,,,,,,,,,,,,,,,,,,,,,,,,,,,,,,,,,,,,,,,,,,001,9,2020_Jan_28_1057,spring_faces,3.1.5,59.947930426244355,
condition files/Stage1_1.xlsx,,T2,B2,m,"['c', 'm']","['Clue', 'Monopoly']","[-0.15, 0.5]","[0.15, 0.5]",1,1,,,,,,,,,0,0,0,0,0,5,5,3,,,,,,,,,,,,,,,,,,,,,,,,,,,,,,,,,,,,,,,,,,,,,,,,,,,,,,,767.9335554190002,None,767.9335554190002,None,767.9335554190002,None,c,0,1.2185919720013771,769.516924214,None,769.516924214,None,769.516924214,None,770.8027472840004,None,770.8027472840004,None,770.8027472840004,None,770.8027472840004,None,,,,,,,,,,,,,,,,,,,,,,,,,,,,,,,,,,,,,,,,,,,,001,9,2020_Jan_28_1057,spring_faces,3.1.5,59.947930426244355,
condition files/Stage1_1.xlsx,,B4,T4,m,"['c', 'm']","['Clue', 'Monopoly']","[-0.15, 0.5]","[0.15, 0.5]",1,1,,,,,,,,,0,0,0,0,0,6,6,7,,,,,,,,,,,,,,,,,,,,,,,,,,,,,,,,,,,,,,,,,,,,,,,,,,,,,,,772.7674990140004,None,772.7674990140004,None,772.7674990140004,None,m,1,1.218866748999062,774.3006427740002,None,774.3006427740002,None,774.3006427740002,None,775.5847091719988,None,775.5847091719988,None,775.5847091719988,None,775.5847091719988,None,,,,,,,,,,,,,,,,,,,,,,,,,,,,,,,,,,,,,,,,,,,,001,9,2020_Jan_28_1057,spring_faces,3.1.5,59.947930426244355,
condition files/Stage1_1.xlsx,,B2,T1,m,"['c', 'm']","['Clue', 'Monopoly']","[-0.15, 0.5]","[0.15, 0.5]",1,1,,,,,,,,,0,0,0,0,0,7,7,2,,,,,,,,,,,,,,,,,,,,,,,,,,,,,,,,,,,,,,,,,,,,,,,,,,,,,,,777.5507591099995,None,777.5507591099995,None,777.5507591099995,None,c,0,1.3474926199996844,779.0840373769988,None,779.0840373769988,None,779.0840373769988,None,780.4841357080004,None,780.4841357080004,None,780.4841357080004,None,780.4841357080004,None,,,,,,,,,,,,,,,,,,,,,,,,,,,,,,,,,,,,,,,,,,,,001,9,2020_Jan_28_1057,spring_faces,3.1.5,59.947930426244355,
condition files/Stage1_2.xlsx,,T4,B4,m,"['c', 'm']","['Clue', 'Monopoly']","[-0.15, 0.5]","[0.15, 0.5]",1,1,,,,,,,,,0,1,1,1,0,0,0,7,,,,,,,,,,,,,,,,,,,,,,,,,,,,,,,,,,,,,,,,,,,,,,,,,,,,,,,782.4670543199991,None,782.4670543199991,None,782.4670543199991,None,m,1,1.0372402760003752,784.0023359669995,None,784.0023359669995,None,784.0023359669995,None,785.100728043999,None,785.100728043999,None,785.100728043999,None,785.100728043999,None,,,,,,,,,,,,,,,,,,,,,,,,,,,,,,,,,,,,,,,,,,,,001,9,2020_Jan_28_1057,spring_faces,3.1.5,59.947930426244355,
condition files/Stage1_2.xlsx,,B3,T4,m,"['c', 'm']","['Clue', 'Monopoly']","[-0.15, 0.5]","[0.15, 0.5]",1,1,,,,,,,,,0,1,1,1,0,1,1,6,,,,,,,,,,,,,,,,,,,,,,,,,,,,,,,,,,,,,,,,,,,,,,,,,,,,,,,787.067547409999,None,787.067547409999,None,787.067547409999,None,m,1,0.8531780249995791,788.602378874999,None,788.602378874999,None,788.602378874999,None,789.5178534509996,None,789.5178534509996,None,789.5178534509996,None,789.5178534509996,None,,,,,,,,,,,,,,,,,,,,,,,,,,,,,,,,,,,,,,,,,,,,001,9,2020_Jan_28_1057,spring_faces,3.1.5,59.947930426244355,
condition files/Stage1_2.xlsx,,T3,B3,c,"['c', 'm']","['Clue', 'Monopoly']","[-0.15, 0.5]","[0.15, 0.5]",1,1,,,,,,,,,0,1,1,1,0,2,2,4,,,,,,,,,,,,,,,,,,,,,,,,,,,,,,,,,,,,,,,,,,,,,,,,,,,,,,,791.4841185389996,None,791.4841185389996,None,791.4841185389996,None,c,1,1.9103290299990476,793.0172814010002,None,793.0172814010002,None,793.0172814010002,None,794.9838223079987,None,794.9838223079987,None,794.9838223079987,None,794.9838223079987,None,,,,,,,,,,,,,,,,,,,,,,,,,,,,,,,,,,,,,,,,,,,,001,9,2020_Jan_28_1057,spring_faces,3.1.5,59.947930426244355,
condition files/Stage1_2.xlsx,,B2,T2,m,"['c', 'm']","['Clue', 'Monopoly']","[-0.15, 0.5]","[0.15, 0.5]",1,1,,,,,,,,,0,1,1,1,0,3,3,3,,,,,,,,,,,,,,,,,,,,,,,,,,,,,,,,,,,,,,,,,,,,,,,,,,,,,,,796.9508774259994,None,796.9508774259994,None,796.9508774259994,None,c,0,1.70593637499951,798.4856625800003,None,798.4856625800003,None,798.4856625800003,None,800.2676665609997,None,800.2676665609997,None,800.2676665609997,None,800.2676665609997,None,,,,,,,,,,,,,,,,,,,,,,,,,,,,,,,,,,,,,,,,,,,,001,9,2020_Jan_28_1057,spring_faces,3.1.5,59.947930426244355,
condition files/Stage1_2.xlsx,,T1,B2,m,"['c', 'm']","['Clue', 'Monopoly']","[-0.15, 0.5]","[0.15, 0.5]",1,1,,,,,,,,,0,1,1,1,0,4,4,2,,,,,,,,,,,,,,,,,,,,,,,,,,,,,,,,,,,,,,,,,,,,,,,,,,,,,,,802.2175008189988,None,802.2175008189988,None,802.2175008189988,None,m,1,3.382745459999569,803.7527834779994,None,803.7527834779994,None,803.7527834779994,None,807.2011227940002,None,807.2011227940002,None,807.2011227940002,None,807.2011227940002,None,,,,,,,,,,,,,,,,,,,,,,,,,,,,,,,,,,,,,,,,,,,,001,9,2020_Jan_28_1057,spring_faces,3.1.5,59.947930426244355,
condition files/Stage1_2.xlsx,,B1,T1,c,"['c', 'm']","['Clue', 'Monopoly']","[-0.15, 0.5]","[0.15, 0.5]",1,1,,,,,,,,,0,1,1,1,0,5,5,0,,,,,,,,,,,,,,,,,,,,,,,,,,,,,,,,,,,,,,,,,,,,,,,,,,,,,,,809.1669574949992,None,809.1669574949992,None,809.1669574949992,None,m,0,2.002763878001133,810.7007909439999,None,810.7007909439999,None,810.7007909439999,None,812.7685598159987,None,812.7685598159987,None,812.7685598159987,None,812.7685598159987,None,,,,,,,,,,,,,,,,,,,,,,,,,,,,,,,,,,,,,,,,,,,,001,9,2020_Jan_28_1057,spring_faces,3.1.5,59.947930426244355,
condition files/Stage1_2.xlsx,,B4,T3,c,"['c', 'm']","['Clue', 'Monopoly']","[-0.15, 0.5]","[0.15, 0.5]",1,1,,,,,,,,,0,1,1,1,0,6,6,5,,,,,,,,,,,,,,,,,,,,,,,,,,,,,,,,,,,,,,,,,,,,,,,,,,,,,,,814.7341253699997,None,814.7341253699997,None,814.7341253699997,None,m,0,2.0836233049994917,816.267909451999,None,816.267909451999,None,816.267909451999,None,818.4170990229995,None,818.4170990229995,None,818.4170990229995,None,818.4170990229995,None,,,,,,,,,,,,,,,,,,,,,,,,,,,,,,,,,,,,,,,,,,,,001,9,2020_Jan_28_1057,spring_faces,3.1.5,59.947930426244355,
condition files/Stage1_2.xlsx,,T2,B1,c,"['c', 'm']","['Clue', 'Monopoly']","[-0.15, 0.5]","[0.15, 0.5]",1,1,,,,,,,,,0,1,1,1,0,7,7,1,,,,,,,,,,,,,,,,,,,,,,,,,,,,,,,,,,,,,,,,,,,,,,,,,,,,,,,820.3841164409987,None,820.3841164409987,None,820.3841164409987,None,c,1,1.9210119190011028,821.9184964010001,None,821.9184964010001,None,821.9184964010001,None,823.9010013119987,None,823.9010013119987,None,823.9010013119987,None,823.9010013119987,None,,,,,,,,,,,,,,,,,,,,,,,,,,,,,,,,,,,,,,,,,,,,001,9,2020_Jan_28_1057,spring_faces,3.1.5,59.947930426244355,
condition files/Stage1_1.xlsx,,B4,T4,m,"['c', 'm']","['Clue', 'Monopoly']","[-0.15, 0.5]","[0.15, 0.5]",1,1,,,,,,,,,0,2,2,2,0,0,0,7,,,,,,,,,,,,,,,,,,,,,,,,,,,,,,,,,,,,,,,,,,,,,,,,,,,,,,,825.8845838919988,None,825.8845838919988,None,825.8845838919988,None,m,1,1.4295517200007453,827.4180431120003,None,827.4180431120003,None,827.4180431120003,None,828.9015006199988,None,828.9015006199988,None,828.9015006199988,None,828.9015006199988,None,,,,,,,,,,,,,,,,,,,,,,,,,,,,,,,,,,,,,,,,,,,,001,9,2020_Jan_28_1057,spring_faces,3.1.5,59.947930426244355,
condition files/Stage1_1.xlsx,,T3,B4,c,"['c', 'm']","['Clue', 'Monopoly']","[-0.15, 0.5]","[0.15, 0.5]",1,1,,,,,,,,,0,2,2,2,0,1,1,5,,,,,,,,,,,,,,,,,,,,,,,,,,,,,,,,,,,,,,,,,,,,,,,,,,,,,,,830.8674802009991,None,830.8674802009991,None,830.8674802009991,None,m,0,2.4942510569999286,832.401229309,None,832.401229309,None,832.401229309,None,834.9513418229999,None,834.9513418229999,None,834.9513418229999,None,834.9513418229999,None,,,,,,,,,,,,,,,,,,,,,,,,,,,,,,,,,,,,,,,,,,,,001,9,2020_Jan_28_1057,spring_faces,3.1.5,59.947930426244355,
condition files/Stage1_1.xlsx,,T1,B1,c,"['c', 'm']","['Clue', 'Monopoly']","[-0.15, 0.5]","[0.15, 0.5]",1,1,,,,,,,,,0,2,2,2,0,2,2,0,,,,,,,,,,,,,,,,,,,,,,,,,,,,,,,,,,,,,,,,,,,,,,,,,,,,,,,836.9174662389996,None,836.9174662389996,None,836.9174662389996,None,c,1,3.2614335300004313,838.4502009349999,None,838.4502009349999,None,838.4502009349999,None,841.767497064,None,841.767497064,None,841.767497064,None,841.767497064,None,,,,,,,,,,,,,,,,,,,,,,,,,,,,,,,,,,,,,,,,,,,,001,9,2020_Jan_28_1057,spring_faces,3.1.5,59.947930426244355,
condition files/Stage1_1.xlsx,,B3,T3,c,"['c', 'm']","['Clue', 'Monopoly']","[-0.15, 0.5]","[0.15, 0.5]",1,1,,,,,,,,,0,2,2,2,0,3,3,4,,,,,,,,,,,,,,,,,,,,,,,,,,,,,,,,,,,,,,,,,,,,,,,,,,,,,,,843.7341572919995,None,843.7341572919995,None,843.7341572919995,None,c,1,2.7162060470000142,845.2673513869995,None,845.2673513869995,None,845.2673513869995,None,848.0346460509991,None,848.0346460509991,None,848.0346460509991,None,848.0346460509991,None,,,,,,,,,,,,,,,,,,,,,,,,,,,,,,,,,,,,,,,,,,,,001,9,2020_Jan_28_1057,spring_faces,3.1.5,59.947930426244355,
condition files/Stage1_1.xlsx,,T4,B3,m,"['c', 'm']","['Clue', 'Monopoly']","[-0.15, 0.5]","[0.15, 0.5]",1,1,,,,,,,,,0,2,2,2,0,4,4,6,,,,,,,,,,,,,,,,,,,,,,,,,,,,,,,,,,,,,,,,,,,,,,,,,,,,,,,850.0008735899992,None,850.0008735899992,None,850.0008735899992,None,m,1,1.0098838710000564,851.5337183150004,None,851.5337183150004,None,851.5337183150004,None,852.600365929,None,852.600365929,None,852.600365929,None,852.600365929,None,,,,,,,,,,,,,,,,,,,,,,,,,,,,,,,,,,,,,,,,,,,,001,9,2020_Jan_28_1057,spring_faces,3.1.5,59.947930426244355,
condition files/Stage1_1.xlsx,,B2,T1,m,"['c', 'm']","['Clue', 'Monopoly']","[-0.15, 0.5]","[0.15, 0.5]",1,1,,,,,,,,,0,2,2,2,0,5,5,2,,,,,,,,,,,,,,,,,,,,,,,,,,,,,,,,,,,,,,,,,,,,,,,,,,,,,,,854.5676137070004,None,854.5676137070004,None,854.5676137070004,None,m,1,2.826677582001139,856.1009272390002,None,856.1009272390002,None,856.1009272390002,None,858.9846547630004,None,858.9846547630004,None,858.9846547630004,None,858.9846547630004,None,,,,,,,,,,,,,,,,,,,,,,,,,,,,,,,,,,,,,,,,,,,,001,9,2020_Jan_28_1057,spring_faces,3.1.5,59.947930426244355,
condition files/Stage1_1.xlsx,,B1,T2,c,"['c', 'm']","['Clue', 'Monopoly']","[-0.15, 0.5]","[0.15, 0.5]",1,1,,,,,,,,,0,2,2,2,0,6,6,1,,,,,,,,,,,,,,,,,,,,,,,,,,,,,,,,,,,,,,,,,,,,,,,,,,,,,,,860.950874479,None,860.950874479,None,860.950874479,None,c,1,1.2582728729994415,862.4853566279999,None,862.4853566279999,None,862.4853566279999,None,863.8016681429999,None,863.8016681429999,None,863.8016681429999,None,863.8016681429999,None,,,,,,,,,,,,,,,,,,,,,,,,,,,,,,,,,,,,,,,,,,,,001,9,2020_Jan_28_1057,spring_faces,3.1.5,59.947930426244355,
condition files/Stage1_1.xlsx,,T2,B2,m,"['c', 'm']","['Clue', 'Monopoly']","[-0.15, 0.5]","[0.15, 0.5]",1,1,,,,,,,,,0,2,2,2,0,7,7,3,,,,,,,,,,,,,,,,,,,,,,,,,,,,,,,,,,,,,,,,,,,,,,,,,,,,,,,865.7676042969997,None,865.7676042969997,None,865.7676042969997,None,m,1,2.555032891999872,867.300547195,None,867.300547195,None,867.300547195,None,869.9337343489988,None,869.9337343489988,None,869.9337343489988,None,869.9337343489988,None,,,,,,,,,,,,,,,,,,,,,,,,,,,,,,,,,,,,,,,,,,,,001,9,2020_Jan_28_1057,spring_faces,3.1.5,59.947930426244355,
condition files/Stage1_2.xlsx,,T1,B2,m,"['c', 'm']","['Clue', 'Monopoly']","[-0.15, 0.5]","[0.15, 0.5]",1,1,,,,,,,,,0,3,3,3,0,0,0,2,,,,,,,,,,,,,,,,,,,,,,,,,,,,,,,,,,,,,,,,,,,,,,,,,,,,,,,871.9011850650004,None,871.9011850650004,None,871.9011850650004,None,m,1,1.285616299999674,873.4339099009994,None,873.4339099009994,None,873.4339099009994,None,874.7844486679987,None,874.7844486679987,None,874.7844486679987,None,874.7844486679987,None,,,,,,,,,,,,,,,,,,,,,,,,,,,,,,,,,,,,,,,,,,,,001,9,2020_Jan_28_1057,spring_faces,3.1.5,59.947930426244355,
condition files/Stage1_2.xlsx,,T4,B4,m,"['c', 'm']","['Clue', 'Monopoly']","[-0.15, 0.5]","[0.15, 0.5]",1,1,,,,,,,,,0,3,3,3,0,1,1,7,,,,,,,,,,,,,,,,,,,,,,,,,,,,,,,,,,,,,,,,,,,,,,,,,,,,,,,876.7508194879993,None,876.7508194879993,None,876.7508194879993,None,m,1,0.9788548659998924,878.2847005610001,None,878.2847005610001,None,878.2847005610001,None,879.3174009550003,None,879.3174009550003,None,879.3174009550003,None,879.3174009550003,None,,,,,,,,,,,,,,,,,,,,,,,,,,,,,,,,,,,,,,,,,,,,001,9,2020_Jan_28_1057,spring_faces,3.1.5,59.947930426244355,
condition files/Stage1_2.xlsx,,B1,T1,c,"['c', 'm']","['Clue', 'Monopoly']","[-0.15, 0.5]","[0.15, 0.5]",1,1,,,,,,,,,0,3,3,3,0,2,2,0,,,,,,,,,,,,,,,,,,,,,,,,,,,,,,,,,,,,,,,,,,,,,,,,,,,,,,,881.2841273430004,None,881.2841273430004,None,881.2841273430004,None,c,1,5.197917270999824,882.8176304770004,None,882.8176304770004,None,882.8176304770004,None,888.0702367599988,None,888.0702367599988,None,888.0702367599988,None,888.0702367599988,None,,,,,,,,,,,,,,,,,,,,,,,,,,,,,,,,,,,,,,,,,,,,001,9,2020_Jan_28_1057,spring_faces,3.1.5,59.947930426244355,
condition files/Stage1_2.xlsx,,T3,B3,c,"['c', 'm']","['Clue', 'Monopoly']","[-0.15, 0.5]","[0.15, 0.5]",1,1,,,,,,,,,0,3,3,3,0,3,3,4,,,,,,,,,,,,,,,,,,,,,,,,,,,,,,,,,,,,,,,,,,,,,,,,,,,,,,,890.0341556179992,None,890.0341556179992,None,890.0341556179992,None,c,1,2.2564150569996855,891.5671904939991,None,891.5671904939991,None,891.5671904939991,None,893.8839746739995,None,893.8839746739995,None,893.8839746739995,None,893.8839746739995,None,,,,,,,,,,,,,,,,,,,,,,,,,,,,,,,,,,,,,,,,,,,,001,9,2020_Jan_28_1057,spring_faces,3.1.5,59.947930426244355,
condition files/Stage1_2.xlsx,,T2,B1,c,"['c', 'm']","['Clue', 'Monopoly']","[-0.15, 0.5]","[0.15, 0.5]",1,1,,,,,,,,,0,3,3,3,0,4,4,1,,,,,,,,,,,,,,,,,,,,,,,,,,,,,,,,,,,,,,,,,,,,,,,,,,,,,,,895.8510143869989,None,895.8510143869989,None,895.8510143869989,None,c,1,5.542669084001318,897.3849493489997,None,897.3849493489997,None,897.3849493489997,None,902.984708476999,None,902.984708476999,None,902.984708476999,None,902.984708476999,None,,,,,,,,,,,,,,,,,,,,,,,,,,,,,,,,,,,,,,,,,,,,001,9,2020_Jan_28_1057,spring_faces,3.1.5,59.947930426244355,
condition files/Stage1_2.xlsx,,B2,T2,m,"['c', 'm']","['Clue', 'Monopoly']","[-0.15, 0.5]","[0.15, 0.5]",1,1,,,,,,,,,0,3,3,3,0,5,5,3,,,,,,,,,,,,,,,,,,,,,,,,,,,,,,,,,,,,,,,,,,,,,,,,,,,,,,,904.950635576999,None,904.950635576999,None,904.950635576999,None,m,1,3.6263755149993813,906.5011667580002,None,906.5011667580002,None,906.5011667580002,None,910.201164262,None,910.201164262,None,910.201164262,None,910.201164262,None,,,,,,,,,,,,,,,,,,,,,,,,,,,,,,,,,,,,,,,,,,,,001,9,2020_Jan_28_1057,spring_faces,3.1.5,59.947930426244355,
condition files/Stage1_2.xlsx,,B4,T3,c,"['c', 'm']","['Clue', 'Monopoly']","[-0.15, 0.5]","[0.15, 0.5]",1,1,,,,,,,,,0,3,3,3,0,6,6,5,,,,,,,,,,,,,,,,,,,,,,,,,,,,,,,,,,,,,,,,,,,,,,,,,,,,,,,912.1508011499991,None,912.1508011499991,None,912.1508011499991,None,m,0,1.1297603240000171,913.6857968059994,None,913.6857968059994,None,913.6857968059994,None,914.8677143269997,None,914.8677143269997,None,914.8677143269997,None,914.8677143269997,None,,,,,,,,,,,,,,,,,,,,,,,,,,,,,,,,,,,,,,,,,,,,001,9,2020_Jan_28_1057,spring_faces,3.1.5,59.947930426244355,
condition files/Stage1_2.xlsx,,B3,T4,m,"['c', 'm']","['Clue', 'Monopoly']","[-0.15, 0.5]","[0.15, 0.5]",1,1,,,,,,,,,0,3,3,3,0,7,7,6,,,,,,,,,,,,,,,,,,,,,,,,,,,,,,,,,,,,,,,,,,,,,,,,,,,,,,,916.834359729999,None,916.834359729999,None,916.834359729999,None,m,1,3.1672360699994897,918.384257501999,None,918.384257501999,None,918.384257501999,None,921.634553119,None,921.634553119,None,921.634553119,None,921.634553119,None,,,,,,,,,,,,,,,,,,,,,,,,,,,,,,,,,,,,,,,,,,,,001,9,2020_Jan_28_1057,spring_faces,3.1.5,59.947930426244355,
condition files/Stage1_1.xlsx,,B4,T4,m,"['c', 'm']","['Clue', 'Monopoly']","[-0.15, 0.5]","[0.15, 0.5]",1,1,,,,,,,,,0,4,4,4,0,0,0,7,,,,,,,,,,,,,,,,,,,,,,,,,,,,,,,,,,,,,,,,,,,,,,,,,,,,,,,923.6013572319989,None,923.6013572319989,None,923.6013572319989,None,m,1,2.7525810910010478,925.1509735719992,None,925.1509735719992,None,925.1509735719992,None,927.9676417760002,None,927.9676417760002,None,927.9676417760002,None,927.9676417760002,None,,,,,,,,,,,,,,,,,,,,,,,,,,,,,,,,,,,,,,,,,,,,001,9,2020_Jan_28_1057,spring_faces,3.1.5,59.947930426244355,
condition files/Stage1_1.xlsx,,T2,B2,m,"['c', 'm']","['Clue', 'Monopoly']","[-0.15, 0.5]","[0.15, 0.5]",1,1,,,,,,,,,0,4,4,4,0,1,1,3,,,,,,,,,,,,,,,,,,,,,,,,,,,,,,,,,,,,,,,,,,,,,,,,,,,,,,,929.9342310470001,None,929.9342310470001,None,929.9342310470001,None,c,0,1.7781956729995727,931.4695170689993,None,931.4695170689993,None,931.4695170689993,None,933.3010685879999,None,933.3010685879999,None,933.3010685879999,None,933.3010685879999,None,,,,,,,,,,,,,,,,,,,,,,,,,,,,,,,,,,,,,,,,,,,,001,9,2020_Jan_28_1057,spring_faces,3.1.5,59.947930426244355,
condition files/Stage1_1.xlsx,,T3,B4,c,"['c', 'm']","['Clue', 'Monopoly']","[-0.15, 0.5]","[0.15, 0.5]",1,1,,,,,,,,,0,4,4,4,0,2,2,5,,,,,,,,,,,,,,,,,,,,,,,,,,,,,,,,,,,,,,,,,,,,,,,,,,,,,,,935.2667113009993,None,935.2667113009993,None,935.2667113009993,None,c,1,2.7182460719996016,936.8012957669998,None,936.8012957669998,None,936.8012957669998,None,939.6009808059989,None,939.6009808059989,None,939.6009808059989,None,939.6009808059989,None,,,,,,,,,,,,,,,,,,,,,,,,,,,,,,,,,,,,,,,,,,,,001,9,2020_Jan_28_1057,spring_faces,3.1.5,59.947930426244355,
condition files/Stage1_1.xlsx,,B1,T2,c,"['c', 'm']","['Clue', 'Monopoly']","[-0.15, 0.5]","[0.15, 0.5]",1,1,,,,,,,,,0,4,4,4,0,3,3,1,,,,,,,,,,,,,,,,,,,,,,,,,,,,,,,,,,,,,,,,,,,,,,,,,,,,,,,941.5509887129992,None,941.5509887129992,None,941.5509887129992,None,c,1,1.4596781709988136,943.083954529,None,943.083954529,None,943.083954529,None,944.6005468229996,None,944.6005468229996,None,944.6005468229996,None,944.6005468229996,None,,,,,,,,,,,,,,,,,,,,,,,,,,,,,,,,,,,,,,,,,,,,001,9,2020_Jan_28_1057,spring_faces,3.1.5,59.947930426244355,
condition files/Stage1_1.xlsx,,B3,T3,c,"['c', 'm']","['Clue', 'Monopoly']","[-0.15, 0.5]","[0.15, 0.5]",1,1,,,,,,,,,0,4,4,4,0,4,4,4,,,,,,,,,,,,,,,,,,,,,,,,,,,,,,,,,,,,,,,,,,,,,,,,,,,,,,,946.5675306449994,None,946.5675306449994,None,946.5675306449994,None,m,0,1.1951999090015306,948.100328519,None,948.100328519,None,948.100328519,None,949.3512776440002,None,949.3512776440002,None,949.3512776440002,None,949.3512776440002,None,,,,,,,,,,,,,,,,,,,,,,,,,,,,,,,,,,,,,,,,,,,,001,9,2020_Jan_28_1057,spring_faces,3.1.5,59.947930426244355,
condition files/Stage1_1.xlsx,,T4,B3,m,"['c', 'm']","['Clue', 'Monopoly']","[-0.15, 0.5]","[0.15, 0.5]",1,1,,,,,,,,,0,4,4,4,0,5,5,6,,,,,,,,,,,,,,,,,,,,,,,,,,,,,,,,,,,,,,,,,,,,,,,,,,,,,,,951.3174439309987,None,951.3174439309987,None,951.3174439309987,None,m,1,0.9085929670000041,952.8510293139989,None,952.8510293139989,None,952.8510293139989,None,953.8174179329999,None,953.8174179329999,None,953.8174179329999,None,953.8174179329999,None,,,,,,,,,,,,,,,,,,,,,,,,,,,,,,,,,,,,,,,,,,,,001,9,2020_Jan_28_1057,spring_faces,3.1.5,59.947930426244355,
condition files/Stage1_1.xlsx,,T1,B1,c,"['c', 'm']","['Clue', 'Monopoly']","[-0.15, 0.5]","[0.15, 0.5]",1,1,,,,,,,,,0,4,4,4,0,6,6,0,,,,,,,,,,,,,,,,,,,,,,,,,,,,,,,,,,,,,,,,,,,,,,,,,,,,,,,955.7842206019996,None,955.7842206019996,None,955.7842206019996,None,c,1,1.1464481120001437,957.317103592999,None,957.317103592999,None,957.317103592999,None,958.5195278619994,None,958.5195278619994,None,958.5195278619994,None,958.5195278619994,None,,,,,,,,,,,,,,,,,,,,,,,,,,,,,,,,,,,,,,,,,,,,001,9,2020_Jan_28_1057,spring_faces,3.1.5,59.947930426244355,
condition files/Stage1_1.xlsx,,B2,T1,m,"['c', 'm']","['Clue', 'Monopoly']","[-0.15, 0.5]","[0.15, 0.5]",1,1,,,,,,,,,0,4,4,4,0,7,7,2,,,,,,,,,,,,,,,,,,,,,,,,,,,,,,,,,,,,,,,,,,,,,,,,,,,,,,,960.4843382069994,None,960.4843382069994,None,960.4843382069994,None,m,1,2.429059590000179,962.0184889579996,None,962.0184889579996,None,962.0184889579996,None,964.500547018999,None,964.500547018999,None,964.500547018999,None,964.500547018999,None,,,,,,,,,,,,,,,,,,,,,,,,,,,,,,,,,,,,,,,,,,,,001,9,2020_Jan_28_1057,spring_faces,3.1.5,59.947930426244355,
condition files/Stage1_2.xlsx,,T1,B2,m,"['c', 'm']","['Clue', 'Monopoly']","[-0.15, 0.5]","[0.15, 0.5]",1,1,,,,,,,,,0,5,5,5,0,0,0,2,,,,,,,,,,,,,,,,,,,,,,,,,,,,,,,,,,,,,,,,,,,,,,,,,,,,,,,966.484613052,None,966.484613052,None,966.484613052,None,m,1,1.5183649850005168,968.0171795589995,None,968.0171795589995,None,968.0171795589995,None,969.600770441999,None,969.600770441999,None,969.600770441999,None,969.600770441999,None,,,,,,,,,,,,,,,,,,,,,,,,,,,,,,,,,,,,,,,,,,,,001,9,2020_Jan_28_1057,spring_faces,3.1.5,59.947930426244355,
condition files/Stage1_2.xlsx,,B4,T3,c,"['c', 'm']","['Clue', 'Monopoly']","[-0.15, 0.5]","[0.15, 0.5]",1,1,,,,,,,,,0,5,5,5,0,1,1,5,,,,,,,,,,,,,,,,,,,,,,,,,,,,,,,,,,,,,,,,,,,,,,,,,,,,,,,971.5675409279993,None,971.5675409279993,None,971.5675409279993,None,c,1,3.360991073999685,973.1026075869995,None,973.1026075869995,None,973.1026075869995,None,976.5176245949988,None,976.5176245949988,None,976.5176245949988,None,976.5176245949988,None,,,,,,,,,,,,,,,,,,,,,,,,,,,,,,,,,,,,,,,,,,,,001,9,2020_Jan_28_1057,spring_faces,3.1.5,59.947930426244355,
condition files/Stage1_2.xlsx,,B1,T1,c,"['c', 'm']","['Clue', 'Monopoly']","[-0.15, 0.5]","[0.15, 0.5]",1,1,,,,,,,,,0,5,5,5,0,2,2,0,,,,,,,,,,,,,,,,,,,,,,,,,,,,,,,,,,,,,,,,,,,,,,,,,,,,,,,978.484306119999,None,978.484306119999,None,978.484306119999,None,c,1,1.2620250750005653,980.0174805930001,None,980.0174805930001,None,980.0174805930001,None,981.3347061900004,None,981.3347061900004,None,981.3347061900004,None,981.3347061900004,None,,,,,,,,,,,,,,,,,,,,,,,,,,,,,,,,,,,,,,,,,,,,001,9,2020_Jan_28_1057,spring_faces,3.1.5,59.947930426244355,
condition files/Stage1_2.xlsx,,T2,B1,c,"['c', 'm']","['Clue', 'Monopoly']","[-0.15, 0.5]","[0.15, 0.5]",1,1,,,,,,,,,0,5,5,5,0,3,3,1,,,,,,,,,,,,,,,,,,,,,,,,,,,,,,,,,,,,,,,,,,,,,,,,,,,,,,,983.3008584380004,None,983.3008584380004,None,983.3008584380004,None,c,1,3.6755207030000747,984.8361222759995,None,984.8361222759995,None,984.8361222759995,None,988.5676049719987,None,988.5676049719987,None,988.5676049719987,None,988.5676049719987,None,,,,,,,,,,,,,,,,,,,,,,,,,,,,,,,,,,,,,,,,,,,,001,9,2020_Jan_28_1057,spring_faces,3.1.5,59.947930426244355,
condition files/Stage1_2.xlsx,,T4,B4,m,"['c', 'm']","['Clue', 'Monopoly']","[-0.15, 0.5]","[0.15, 0.5]",1,1,,,,,,,,,0,5,5,5,0,4,4,7,,,,,,,,,,,,,,,,,,,,,,,,,,,,,,,,,,,,,,,,,,,,,,,,,,,,,,,990.534140279,None,990.534140279,None,990.534140279,None,m,1,0.9559758010000223,992.0835856889989,None,992.0835856889989,None,992.0835856889989,None,993.1014109810003,None,993.1014109810003,None,993.1014109810003,None,993.1014109810003,None,,,,,,,,,,,,,,,,,,,,,,,,,,,,,,,,,,,,,,,,,,,,001,9,2020_Jan_28_1057,spring_faces,3.1.5,59.947930426244355,
condition files/Stage1_2.xlsx,,B3,T4,m,"['c', 'm']","['Clue', 'Monopoly']","[-0.15, 0.5]","[0.15, 0.5]",1,1,,,,,,,,,0,5,5,5,0,5,5,6,,,,,,,,,,,,,,,,,,,,,,,,,,,,,,,,,,,,,,,,,,,,,,,,,,,,,,,995.0674656169995,None,995.0674656169995,None,995.0674656169995,None,m,1,1.1910218789998908,996.6006124529995,None,996.6006124529995,None,996.6006124529995,None,997.8508966299996,None,997.8508966299996,None,997.8508966299996,None,997.8508966299996,None,,,,,,,,,,,,,,,,,,,,,,,,,,,,,,,,,,,,,,,,,,,,001,9,2020_Jan_28_1057,spring_faces,3.1.5,59.947930426244355,
condition files/Stage1_2.xlsx,,B2,T2,m,"['c', 'm']","['Clue', 'Monopoly']","[-0.15, 0.5]","[0.15, 0.5]",1,1,,,,,,,,,0,5,5,5,0,6,6,3,,,,,,,,,,,,,,,,,,,,,,,,,,,,,,,,,,,,,,,,,,,,,,,,,,,,,,,999.8175350490001,None,999.8175350490001,None,999.8175350490001,None,c,0,1.9123802170015551,1001.3671539459992,None,1001.3671539459992,None,1001.3671539459992,None,1003.3345324089987,None,1003.3345324089987,None,1003.3345324089987,None,1003.3345324089987,None,,,,,,,,,,,,,,,,,,,,,,,,,,,,,,,,,,,,,,,,,,,,001,9,2020_Jan_28_1057,spring_faces,3.1.5,59.947930426244355,
condition files/Stage1_2.xlsx,,T3,B3,c,"['c', 'm']","['Clue', 'Monopoly']","[-0.15, 0.5]","[0.15, 0.5]",1,1,,,,,,,,,0,5,5,5,0,7,7,4,,,,,,,,,,,,,,,,,,,,,,,,,,,,,,,,,,,,,,,,,,,,,,,,,,,,,,,1005.3009332499987,None,1005.3009332499987,None,1005.3009332499987,None,c,1,2.1556492729996535,1006.8359728679989,None,1006.8359728679989,None,1006.8359728679989,None,1009.0676687209998,None,1009.0676687209998,None,1009.0676687209998,None,1009.0676687209998,None,,,,,,,,,,,,,,,,,,,,,,,,,,,,,,,,,,,,,,,,,,,,001,9,2020_Jan_28_1057,spring_faces,3.1.5,59.947930426244355,
condition files/Stage1_1.xlsx,,T4,B3,m,"['c', 'm']","['Clue', 'Monopoly']","[-0.15, 0.5]","[0.15, 0.5]",1,1,,,,,,,,,0,6,6,6,0,0,0,6,,,,,,,,,,,,,,,,,,,,,,,,,,,,,,,,,,,,,,,,,,,,,,,,,,,,,,,1011.034324246999,None,1011.034324246999,None,1011.034324246999,None,m,1,0.91998982000041,1012.5675771030001,None,1012.5675771030001,None,1012.5675771030001,None,1013.5518551009991,None,1013.5518551009991,None,1013.5518551009991,None,1013.5518551009991,None,,,,,,,,,,,,,,,,,,,,,,,,,,,,,,,,,,,,,,,,,,,,001,9,2020_Jan_28_1057,spring_faces,3.1.5,59.947930426244355,
condition files/Stage1_1.xlsx,,B3,T3,c,"['c', 'm']","['Clue', 'Monopoly']","[-0.15, 0.5]","[0.15, 0.5]",1,1,,,,,,,,,0,6,6,6,0,1,1,4,,,,,,,,,,,,,,,,,,,,,,,,,,,,,,,,,,,,,,,,,,,,,,,,,,,,,,,1015.5174648129996,None,1015.5174648129996,None,1015.5174648129996,None,m,0,1.7488398689984024,1017.0507308460001,None,1017.0507308460001,None,1017.0507308460001,None,1018.8523519779992,None,1018.8523519779992,None,1018.8523519779992,None,1018.8523519779992,None,,,,,,,,,,,,,,,,,,,,,,,,,,,,,,,,,,,,,,,,,,,,001,9,2020_Jan_28_1057,spring_faces,3.1.5,59.947930426244355,
condition files/Stage1_1.xlsx,,T1,B1,c,"['c', 'm']","['Clue', 'Monopoly']","[-0.15, 0.5]","[0.15, 0.5]",1,1,,,,,,,,,0,6,6,6,0,2,2,0,,,,,,,,,,,,,,,,,,,,,,,,,,,,,,,,,,,,,,,,,,,,,,,,,,,,,,,1020.8175040610004,None,1020.8175040610004,None,1020.8175040610004,None,c,1,2.944855642999755,1022.350675575999,None,1022.350675575999,None,1022.350675575999,None,1025.350860724,None,1025.350860724,None,1025.350860724,None,1025.350860724,None,,,,,,,,,,,,,,,,,,,,,,,,,,,,,,,,,,,,,,,,,,,,001,9,2020_Jan_28_1057,spring_faces,3.1.5,59.947930426244355,
condition files/Stage1_1.xlsx,,T2,B2,m,"['c', 'm']","['Clue', 'Monopoly']","[-0.15, 0.5]","[0.15, 0.5]",1,1,,,,,,,,,0,6,6,6,0,3,3,3,,,,,,,,,,,,,,,,,,,,,,,,,,,,,,,,,,,,,,,,,,,,,,,,,,,,,,,1027.317502897,None,1027.317502897,None,1027.317502897,None,c,0,3.099194616999739,1028.8523278079992,None,1028.8523278079992,None,1028.8523278079992,None,1032.0197334040004,None,1032.0197334040004,None,1032.0197334040004,None,1032.0197334040004,None,,,,,,,,,,,,,,,,,,,,,,,,,,,,,,,,,,,,,,,,,,,,001,9,2020_Jan_28_1057,spring_faces,3.1.5,59.947930426244355,
condition files/Stage1_1.xlsx,,B1,T2,c,"['c', 'm']","['Clue', 'Monopoly']","[-0.15, 0.5]","[0.15, 0.5]",1,1,,,,,,,,,0,6,6,6,0,4,4,1,,,,,,,,,,,,,,,,,,,,,,,,,,,,,,,,,,,,,,,,,,,,,,,,,,,,,,,1033.9841495799992,None,1033.9841495799992,None,1033.9841495799992,None,c,1,1.4419300419995125,1035.517691912999,None,1035.517691912999,None,1035.517691912999,None,1037.0182989059995,None,1037.0182989059995,None,1037.0182989059995,None,1037.0182989059995,None,,,,,,,,,,,,,,,,,,,,,,,,,,,,,,,,,,,,,,,,,,,,001,9,2020_Jan_28_1057,spring_faces,3.1.5,59.947930426244355,
condition files/Stage1_1.xlsx,,B2,T1,m,"['c', 'm']","['Clue', 'Monopoly']","[-0.15, 0.5]","[0.15, 0.5]",1,1,,,,,,,,,0,6,6,6,0,5,5,2,,,,,,,,,,,,,,,,,,,,,,,,,,,,,,,,,,,,,,,,,,,,,,,,,,,,,,,1038.984279553999,None,1038.984279553999,None,1038.984279553999,None,c,0,1.288836330999402,1040.5187719160003,None,1040.5187719160003,None,1040.5187719160003,None,1041.8844558599994,None,1041.8844558599994,None,1041.8844558599994,None,1041.8844558599994,None,,,,,,,,,,,,,,,,,,,,,,,,,,,,,,,,,,,,,,,,,,,,001,9,2020_Jan_28_1057,spring_faces,3.1.5,59.947930426244355,
condition files/Stage1_1.xlsx,,T3,B4,c,"['c', 'm']","['Clue', 'Monopoly']","[-0.15, 0.5]","[0.15, 0.5]",1,1,,,,,,,,,0,6,6,6,0,6,6,5,,,,,,,,,,,,,,,,,,,,,,,,,,,,,,,,,,,,,,,,,,,,,,,,,,,,,,,1043.834239927999,None,1043.834239927999,None,1043.834239927999,None,m,0,1.9576014670001314,1045.369989838,None,1045.369989838,None,1045.369989838,None,1047.3868942600002,None,1047.3868942600002,None,1047.3868942600002,None,1047.3868942600002,None,,,,,,,,,,,,,,,,,,,,,,,,,,,,,,,,,,,,,,,,,,,,001,9,2020_Jan_28_1057,spring_faces,3.1.5,59.947930426244355,
condition files/Stage1_1.xlsx,,B4,T4,m,"['c', 'm']","['Clue', 'Monopoly']","[-0.15, 0.5]","[0.15, 0.5]",1,1,,,,,,,,,0,6,6,6,0,7,7,7,,,,,,,,,,,,,,,,,,,,,,,,,,,,,,,,,,,,,,,,,,,,,,,,,,,,,,,1049.3507743970004,None,1049.3507743970004,None,1049.3507743970004,None,m,1,0.9053247649990226,1050.8862949659997,None,1050.8862949659997,None,1050.8862949659997,None,1051.8513466759996,None,1051.8513466759996,None,1051.8513466759996,None,1051.8513466759996,None,,,,,,,,,,,,,,,,,,,,,,,,,,,,,,,,,,,,,,,,,,,,001,9,2020_Jan_28_1057,spring_faces,3.1.5,59.947930426244355,
condition files/Stage1_2.xlsx,,B3,T4,m,"['c', 'm']","['Clue', 'Monopoly']","[-0.15, 0.5]","[0.15, 0.5]",1,1,,,,,,,,,0,7,7,7,0,0,0,6,,,,,,,,,,,,,,,,,,,,,,,,,,,,,,,,,,,,,,,,,,,,,,,,,,,,,,,1053.8345345629987,None,1053.8345345629987,None,1053.8345345629987,None,m,1,1.4619966199988994,1055.3695683429996,None,1055.3695683429996,None,1055.3695683429996,None,1056.8842848669992,None,1056.8842848669992,None,1056.8842848669992,None,1056.8842848669992,None,,,,,,,,,,,,,,,,,,,,,,,,,,,,,,,,,,,,,,,,,,,,001,9,2020_Jan_28_1057,spring_faces,3.1.5,59.947930426244355,
condition files/Stage1_2.xlsx,,B2,T2,m,"['c', 'm']","['Clue', 'Monopoly']","[-0.15, 0.5]","[0.15, 0.5]",1,1,,,,,,,,,0,7,7,7,0,1,1,3,,,,,,,,,,,,,,,,,,,,,,,,,,,,,,,,,,,,,,,,,,,,,,,,,,,,,,,1058.850445271999,None,1058.850445271999,None,1058.850445271999,None,m,1,3.0867434079991654,1060.4008076480004,None,1060.4008076480004,None,1060.4008076480004,None,1063.5510547249996,None,1063.5510547249996,None,1063.5510547249996,None,1063.5510547249996,None,,,,,,,,,,,,,,,,,,,,,,,,,,,,,,,,,,,,,,,,,,,,001,9,2020_Jan_28_1057,spring_faces,3.1.5,59.947930426244355,
condition files/Stage1_2.xlsx,,T4,B4,m,"['c', 'm']","['Clue', 'Monopoly']","[-0.15, 0.5]","[0.15, 0.5]",1,1,,,,,,,,,0,7,7,7,0,2,2,7,,,,,,,,,,,,,,,,,,,,,,,,,,,,,,,,,,,,,,,,,,,,,,,,,,,,,,,1065.5174898059995,None,1065.5174898059995,None,1065.5174898059995,None,m,1,0.8202357640002447,1067.0513410249987,None,1067.0513410249987,None,1067.0513410249987,None,1067.9340886379996,None,1067.9340886379996,None,1067.9340886379996,None,1067.9340886379996,None,,,,,,,,,,,,,,,,,,,,,,,,,,,,,,,,,,,,,,,,,,,,001,9,2020_Jan_28_1057,spring_faces,3.1.5,59.947930426244355,
condition files/Stage1_2.xlsx,,B1,T1,c,"['c', 'm']","['Clue', 'Monopoly']","[-0.15, 0.5]","[0.15, 0.5]",1,1,,,,,,,,,0,7,7,7,0,3,3,0,,,,,,,,,,,,,,,,,,,,,,,,,,,,,,,,,,,,,,,,,,,,,,,,,,,,,,,1069.900664540999,None,1069.900664540999,None,1069.900664540999,None,c,1,4.5174954810008785,1071.4340265070005,None,1071.4340265070005,None,1071.4340265070005,None,1076.020315287,None,1076.020315287,None,1076.020315287,None,1076.020315287,None,,,,,,,,,,,,,,,,,,,,,,,,,,,,,,,,,,,,,,,,,,,,001,9,2020_Jan_28_1057,spring_faces,3.1.5,59.947930426244355,
condition files/Stage1_2.xlsx,,B4,T3,c,"['c', 'm']","['Clue', 'Monopoly']","[-0.15, 0.5]","[0.15, 0.5]",1,1,,,,,,,,,0,7,7,7,0,4,4,5,,,,,,,,,,,,,,,,,,,,,,,,,,,,,,,,,,,,,,,,,,,,,,,,,,,,,,,1077.9841489150003,None,1077.9841489150003,None,1077.9841489150003,None,m,0,1.3137010229984298,1079.5178453970002,None,1079.5178453970002,None,1079.5178453970002,None,1080.8842055280002,None,1080.8842055280002,None,1080.8842055280002,None,1080.8842055280002,None,,,,,,,,,,,,,,,,,,,,,,,,,,,,,,,,,,,,,,,,,,,,001,9,2020_Jan_28_1057,spring_faces,3.1.5,59.947930426244355,
condition files/Stage1_2.xlsx,,T3,B3,c,"['c', 'm']","['Clue', 'Monopoly']","[-0.15, 0.5]","[0.15, 0.5]",1,1,,,,,,,,,0,7,7,7,0,5,5,4,,,,,,,,,,,,,,,,,,,,,,,,,,,,,,,,,,,,,,,,,,,,,,,,,,,,,,,1082.8508934580004,None,1082.8508934580004,None,1082.8508934580004,None,c,1,5.055588807999811,1084.3839696309988,None,1084.3839696309988,None,1084.3839696309988,None,1089.501056829,None,1089.501056829,None,1089.501056829,None,1089.501056829,None,,,,,,,,,,,,,,,,,,,,,,,,,,,,,,,,,,,,,,,,,,,,001,9,2020_Jan_28_1057,spring_faces,3.1.5,59.947930426244355,
condition files/Stage1_2.xlsx,,T1,B2,m,"['c', 'm']","['Clue', 'Monopoly']","[-0.15, 0.5]","[0.15, 0.5]",1,1,,,,,,,,,0,7,7,7,0,6,6,2,,,,,,,,,,,,,,,,,,,,,,,,,,,,,,,,,,,,,,,,,,,,,,,,,,,,,,,1091.4675430810003,None,1091.4675430810003,None,1091.4675430810003,None,c,0,1.1276668919999793,1092.999932663999,None,1092.999932663999,None,1092.999932663999,None,1094.185003307999,None,1094.185003307999,None,1094.185003307999,None,1094.185003307999,None,,,,,,,,,,,,,,,,,,,,,,,,,,,,,,,,,,,,,,,,,,,,001,9,2020_Jan_28_1057,spring_faces,3.1.5,59.947930426244355,
condition files/Stage1_2.xlsx,,T2,B1,c,"['c', 'm']","['Clue', 'Monopoly']","[-0.15, 0.5]","[0.15, 0.5]",1,1,,,,,,,,,0,7,7,7,0,7,7,1,,,,,,,,,,,,,,,,,,,,,,,,,,,,,,,,,,,,,,,,,,,,,,,,,,,,,,,1096.1508120849994,None,1096.1508120849994,None,1096.1508120849994,None,c,1,2.025298157001089,1097.6863466510003,None,1097.6863466510003,None,1097.6863466510003,None,1099.7699283879992,None,1099.7699283879992,None,1099.7699283879992,None,1099.7699283879992,None,,,,,,,,,,,,,,,,,,,,,,,,,,,,,,,,,,,,,,,,,,,,001,9,2020_Jan_28_1057,spring_faces,3.1.5,59.947930426244355,
condition files/Stage1_1.xlsx,,T1,B1,c,"['c', 'm']","['Clue', 'Monopoly']","[-0.15, 0.5]","[0.15, 0.5]",1,1,,,,,,,,,0,8,8,8,0,0,0,0,,,,,,,,,,,,,,,,,,,,,,,,,,,,,,,,,,,,,,,,,,,,,,,,,,,,,,,1101.7507693019998,None,1101.7507693019998,None,1101.7507693019998,None,c,1,1.0347795210000186,1103.2847955649995,None,1103.2847955649995,None,1103.2847955649995,None,1104.3847769200001,None,1104.3847769200001,None,1104.3847769200001,None,1104.3847769200001,None,,,,,,,,,,,,,,,,,,,,,,,,,,,,,,,,,,,,,,,,,,,,001,9,2020_Jan_28_1057,spring_faces,3.1.5,59.947930426244355,
condition files/Stage1_1.xlsx,,T4,B3,m,"['c', 'm']","['Clue', 'Monopoly']","[-0.15, 0.5]","[0.15, 0.5]",1,1,,,,,,,,,0,8,8,8,0,1,1,6,,,,,,,,,,,,,,,,,,,,,,,,,,,,,,,,,,,,,,,,,,,,,,,,,,,,,,,1106.3507647770002,None,1106.3507647770002,None,1106.3507647770002,None,m,1,1.107513103999736,1107.8841297849995,None,1107.8841297849995,None,1107.8841297849995,None,1109.0506130819995,None,1109.0506130819995,None,1109.0506130819995,None,1109.0506130819995,None,,,,,,,,,,,,,,,,,,,,,,,,,,,,,,,,,,,,,,,,,,,,001,9,2020_Jan_28_1057,spring_faces,3.1.5,59.947930426244355,
condition files/Stage1_1.xlsx,,B4,T4,m,"['c', 'm']","['Clue', 'Monopoly']","[-0.15, 0.5]","[0.15, 0.5]",1,1,,,,,,,,,0,8,8,8,0,2,2,7,,,,,,,,,,,,,,,,,,,,,,,,,,,,,,,,,,,,,,,,,,,,,,,,,,,,,,,1111.0174740479997,None,1111.0174740479997,None,1111.0174740479997,None,m,1,0.9680924220010638,1112.5514645349995,None,1112.5514645349995,None,1112.5514645349995,None,1113.5836437149992,None,1113.5836437149992,None,1113.5836437149992,None,1113.5836437149992,None,,,,,,,,,,,,,,,,,,,,,,,,,,,,,,,,,,,,,,,,,,,,001,9,2020_Jan_28_1057,spring_faces,3.1.5,59.947930426244355,
condition files/Stage1_1.xlsx,,T3,B4,c,"['c', 'm']","['Clue', 'Monopoly']","[-0.15, 0.5]","[0.15, 0.5]",1,1,,,,,,,,,0,8,8,8,0,3,3,5,,,,,,,,,,,,,,,,,,,,,,,,,,,,,,,,,,,,,,,,,,,,,,,,,,,,,,,1115.5502765509991,None,1115.5502765509991,None,1115.5502765509991,None,m,0,1.42646582999987,1117.0851702299988,None,1117.0851702299988,None,1117.0851702299988,None,1118.569465384,None,1118.569465384,None,1118.569465384,None,1118.569465384,None,,,,,,,,,,,,,,,,,,,,,,,,,,,,,,,,,,,,,,,,,,,,001,9,2020_Jan_28_1057,spring_faces,3.1.5,59.947930426244355,
condition files/Stage1_1.xlsx,,B1,T2,c,"['c', 'm']","['Clue', 'Monopoly']","[-0.15, 0.5]","[0.15, 0.5]",1,1,,,,,,,,,0,8,8,8,0,4,4,1,,,,,,,,,,,,,,,,,,,,,,,,,,,,,,,,,,,,,,,,,,,,,,,,,,,,,,,1120.5342226020002,None,1120.5342226020002,None,1120.5342226020002,None,c,1,0.8122786829990218,1122.0672595359993,None,1122.0672595359993,None,1122.0672595359993,None,1122.9344089160004,None,1122.9344089160004,None,1122.9344089160004,None,1122.9344089160004,None,,,,,,,,,,,,,,,,,,,,,,,,,,,,,,,,,,,,,,,,,,,,001,9,2020_Jan_28_1057,spring_faces,3.1.5,59.947930426244355,
condition files/Stage1_1.xlsx,,B2,T1,m,"['c', 'm']","['Clue', 'Monopoly']","[-0.15, 0.5]","[0.15, 0.5]",1,1,,,,,,,,,0,8,8,8,0,5,5,2,,,,,,,,,,,,,,,,,,,,,,,,,,,,,,,,,,,,,,,,,,,,,,,,,,,,,,,1124.9009158219997,None,1124.9009158219997,None,1124.9009158219997,None,m,1,4.572774143000061,1126.4348531739997,None,1126.4348531739997,None,1126.4348531739997,None,1131.0837688600004,None,1131.0837688600004,None,1131.0837688600004,None,1131.0837688600004,None,,,,,,,,,,,,,,,,,,,,,,,,,,,,,,,,,,,,,,,,,,,,001,9,2020_Jan_28_1057,spring_faces,3.1.5,59.947930426244355,
condition files/Stage1_1.xlsx,,B3,T3,c,"['c', 'm']","['Clue', 'Monopoly']","[-0.15, 0.5]","[0.15, 0.5]",1,1,,,,,,,,,0,8,8,8,0,6,6,4,,,,,,,,,,,,,,,,,,,,,,,,,,,,,,,,,,,,,,,,,,,,,,,,,,,,,,,1133.0341047069996,None,1133.0341047069996,None,1133.0341047069996,None,m,0,1.9116555839991634,1134.5679652959989,None,1134.5679652959989,None,1134.5679652959989,None,1136.534212487999,None,1136.534212487999,None,1136.534212487999,None,1136.534212487999,None,,,,,,,,,,,,,,,,,,,,,,,,,,,,,,,,,,,,,,,,,,,,001,9,2020_Jan_28_1057,spring_faces,3.1.5,59.947930426244355,
condition files/Stage1_1.xlsx,,T2,B2,m,"['c', 'm']","['Clue', 'Monopoly']","[-0.15, 0.5]","[0.15, 0.5]",1,1,,,,,,,,,0,8,8,8,0,7,7,3,,,,,,,,,,,,,,,,,,,,,,,,,,,,,,,,,,,,,,,,,,,,,,,,,,,,,,,1138.5008394059987,None,1138.5008394059987,None,1138.5008394059987,None,c,0,3.0056251369987876,1140.0339571980003,None,1140.0339571980003,None,1140.0339571980003,None,1143.1014346119991,None,1143.1014346119991,None,1143.1014346119991,None,1143.1014346119991,None,,,,,,,,,,,,,,,,,,,,,,,,,,,,,,,,,,,,,,,,,,,,001,9,2020_Jan_28_1057,spring_faces,3.1.5,59.947930426244355,
condition files/Stage1_2.xlsx,,T1,B2,m,"['c', 'm']","['Clue', 'Monopoly']","[-0.15, 0.5]","[0.15, 0.5]",1,1,,,,,,,,,0,9,9,9,0,0,0,2,,,,,,,,,,,,,,,,,,,,,,,,,,,,,,,,,,,,,,,,,,,,,,,,,,,,,,,1145.084119752999,None,1145.084119752999,None,1145.084119752999,None,m,1,7.523889219999546,1146.6197541009988,None,1146.6197541009988,None,1146.6197541009988,None,1154.2006943349988,None,1154.2006943349988,None,1154.2006943349988,None,1154.2006943349988,None,,,,,,,,,,,,,,,,,,,,,,,,,,,,,,,,,,,,,,,,,,,,001,9,2020_Jan_28_1057,spring_faces,3.1.5,59.947930426244355,
condition files/Stage1_2.xlsx,,B4,T3,c,"['c', 'm']","['Clue', 'Monopoly']","[-0.15, 0.5]","[0.15, 0.5]",1,1,,,,,,,,,0,9,9,9,0,1,1,5,,,,,,,,,,,,,,,,,,,,,,,,,,,,,,,,,,,,,,,,,,,,,,,,,,,,,,,1156.1672611199992,None,1156.1672611199992,None,1156.1672611199992,None,c,1,2.3147281060009846,1157.700839518,None,1157.700839518,None,1157.700839518,None,1160.0684489279993,None,1160.0684489279993,None,1160.0684489279993,None,1160.0684489279993,None,,,,,,,,,,,,,,,,,,,,,,,,,,,,,,,,,,,,,,,,,,,,001,9,2020_Jan_28_1057,spring_faces,3.1.5,59.947930426244355,
condition files/Stage1_2.xlsx,,B1,T1,c,"['c', 'm']","['Clue', 'Monopoly']","[-0.15, 0.5]","[0.15, 0.5]",1,1,,,,,,,,,0,9,9,9,0,2,2,0,,,,,,,,,,,,,,,,,,,,,,,,,,,,,,,,,,,,,,,,,,,,,,,,,,,,,,,1162.0341661639995,None,1162.0341661639995,None,1162.0341661639995,None,c,1,1.3923187220007094,1163.567316822,None,1163.567316822,None,1163.567316822,None,1165.0176856340004,None,1165.0176856340004,None,1165.0176856340004,None,1165.0176856340004,None,,,,,,,,,,,,,,,,,,,,,,,,,,,,,,,,,,,,,,,,,,,,001,9,2020_Jan_28_1057,spring_faces,3.1.5,59.947930426244355,
condition files/Stage1_2.xlsx,,T4,B4,m,"['c', 'm']","['Clue', 'Monopoly']","[-0.15, 0.5]","[0.15, 0.5]",1,1,,,,,,,,,0,9,9,9,0,3,3,7,,,,,,,,,,,,,,,,,,,,,,,,,,,,,,,,,,,,,,,,,,,,,,,,,,,,,,,1166.984158551999,None,1166.984158551999,None,1166.984158551999,None,m,1,0.730637601998751,1168.5169027089996,None,1168.5169027089996,None,1168.5169027089996,None,1169.3028391349999,None,1169.3028391349999,None,1169.3028391349999,None,1169.3028391349999,None,,,,,,,,,,,,,,,,,,,,,,,,,,,,,,,,,,,,,,,,,,,,001,9,2020_Jan_28_1057,spring_faces,3.1.5,59.947930426244355,
condition files/Stage1_2.xlsx,,B3,T4,m,"['c', 'm']","['Clue', 'Monopoly']","[-0.15, 0.5]","[0.15, 0.5]",1,1,,,,,,,,,0,9,9,9,0,4,4,6,,,,,,,,,,,,,,,,,,,,,,,,,,,,,,,,,,,,,,,,,,,,,,,,,,,,,,,1171.2675585029992,None,1171.2675585029992,None,1171.2675585029992,None,m,1,1.9811150959994848,1172.8024470929995,None,1172.8024470929995,None,1172.8024470929995,None,1174.834676266999,None,1174.834676266999,None,1174.834676266999,None,1174.834676266999,None,,,,,,,,,,,,,,,,,,,,,,,,,,,,,,,,,,,,,,,,,,,,001,9,2020_Jan_28_1057,spring_faces,3.1.5,59.947930426244355,
condition files/Stage1_2.xlsx,,T3,B3,c,"['c', 'm']","['Clue', 'Monopoly']","[-0.15, 0.5]","[0.15, 0.5]",1,1,,,,,,,,,0,9,9,9,0,5,5,4,,,,,,,,,,,,,,,,,,,,,,,,,,,,,,,,,,,,,,,,,,,,,,,,,,,,,,,1176.800971146,None,1176.800971146,None,1176.800971146,None,c,1,1.0877650099992024,1178.3358723860001,None,1178.3358723860001,None,1178.3358723860001,None,1179.4834032929994,None,1179.4834032929994,None,1179.4834032929994,None,1179.4834032929994,None,,,,,,,,,,,,,,,,,,,,,,,,,,,,,,,,,,,,,,,,,,,,001,9,2020_Jan_28_1057,spring_faces,3.1.5,59.947930426244355,
condition files/Stage1_2.xlsx,,B2,T2,m,"['c', 'm']","['Clue', 'Monopoly']","[-0.15, 0.5]","[0.15, 0.5]",1,1,,,,,,,,,0,9,9,9,0,6,6,3,,,,,,,,,,,,,,,,,,,,,,,,,,,,,,,,,,,,,,,,,,,,,,,,,,,,,,,1181.4507989569993,None,1181.4507989569993,None,1181.4507989569993,None,c,0,1.4127925409993622,1182.9867704129992,None,1182.9867704129992,None,1182.9867704129992,None,1184.467685272999,None,1184.467685272999,None,1184.467685272999,None,1184.467685272999,None,,,,,,,,,,,,,,,,,,,,,,,,,,,,,,,,,,,,,,,,,,,,001,9,2020_Jan_28_1057,spring_faces,3.1.5,59.947930426244355,
condition files/Stage1_2.xlsx,,T2,B1,c,"['c', 'm']","['Clue', 'Monopoly']","[-0.15, 0.5]","[0.15, 0.5]",1,1,,,,,,,,,0,9,9,9,0,7,7,1,,,,,,,,,,,,,,,,,,,,,,,,,,,,,,,,,,,,,,,,,,,,,,,,,,,,,,,1186.4170032149996,None,1186.4170032149996,None,1186.4170032149996,None,c,1,3.215931130998797,1187.9676065610001,None,1187.9676065610001,None,1187.9676065610001,None,1191.2507729209992,None,1191.2507729209992,None,1191.2507729209992,None,1191.2507729209992,None,,,,,,,,,,,,,,,,,,,,,,,,,,,,,,,,,,,,,,,,,,,,001,9,2020_Jan_28_1057,spring_faces,3.1.5,59.947930426244355,
condition files/Stage1_1.xlsx,,T2,B2,m,"['c', 'm']","['Clue', 'Monopoly']","[-0.15, 0.5]","[0.15, 0.5]",1,1,,,,,,,,,0,10,10,10,0,0,0,3,,,,,,,,,,,,,,,,,,,,,,,,,,,,,,,,,,,,,,,,,,,,,,,,,,,,,,,1193.2178568139989,None,1193.2178568139989,None,1193.2178568139989,None,m,1,1.776013423999757,1194.7516593029995,None,1194.7516593029995,None,1194.7516593029995,None,1196.5861545320004,None,1196.5861545320004,None,1196.5861545320004,None,1196.5861545320004,None,,,,,,,,,,,,,,,,,,,,,,,,,,,,,,,,,,,,,,,,,,,,001,9,2020_Jan_28_1057,spring_faces,3.1.5,59.947930426244355,
condition files/Stage1_1.xlsx,,B3,T3,c,"['c', 'm']","['Clue', 'Monopoly']","[-0.15, 0.5]","[0.15, 0.5]",1,1,,,,,,,,,0,10,10,10,0,1,1,4,,,,,,,,,,,,,,,,,,,,,,,,,,,,,,,,,,,,,,,,,,,,,,,,,,,,,,,1198.5504768029987,None,1198.5504768029987,None,1198.5504768029987,None,m,0,3.194425522999154,1200.101115563999,None,1200.101115563999,None,1200.101115563999,None,1203.3675096259994,None,1203.3675096259994,None,1203.3675096259994,None,1203.3675096259994,None,,,,,,,,,,,,,,,,,,,,,,,,,,,,,,,,,,,,,,,,,,,,001,9,2020_Jan_28_1057,spring_faces,3.1.5,59.947930426244355,
condition files/Stage1_1.xlsx,,T3,B4,c,"['c', 'm']","['Clue', 'Monopoly']","[-0.15, 0.5]","[0.15, 0.5]",1,1,,,,,,,,,0,10,10,10,0,2,2,5,,,,,,,,,,,,,,,,,,,,,,,,,,,,,,,,,,,,,,,,,,,,,,,,,,,,,,,1205.3173907419987,None,1205.3173907419987,None,1205.3173907419987,None,c,1,2.0276684229993407,1206.867844676999,None,1206.867844676999,None,1206.867844676999,None,1208.9510918029991,None,1208.9510918029991,None,1208.9510918029991,None,1208.9510918029991,None,,,,,,,,,,,,,,,,,,,,,,,,,,,,,,,,,,,,,,,,,,,,001,9,2020_Jan_28_1057,spring_faces,3.1.5,59.947930426244355,
condition files/Stage1_1.xlsx,,B2,T1,m,"['c', 'm']","['Clue', 'Monopoly']","[-0.15, 0.5]","[0.15, 0.5]",1,1,,,,,,,,,0,10,10,10,0,3,3,2,,,,,,,,,,,,,,,,,,,,,,,,,,,,,,,,,,,,,,,,,,,,,,,,,,,,,,,1210.9174527129999,None,1210.9174527129999,None,1210.9174527129999,None,c,0,2.940914883000005,1212.4507213959987,None,1212.4507213959987,None,1212.4507213959987,None,1215.4538851569996,None,1215.4538851569996,None,1215.4538851569996,None,1215.4538851569996,None,,,,,,,,,,,,,,,,,,,,,,,,,,,,,,,,,,,,,,,,,,,,001,9,2020_Jan_28_1057,spring_faces,3.1.5,59.947930426244355,
condition files/Stage1_1.xlsx,,T4,B3,m,"['c', 'm']","['Clue', 'Monopoly']","[-0.15, 0.5]","[0.15, 0.5]",1,1,,,,,,,,,0,10,10,10,0,4,4,6,,,,,,,,,,,,,,,,,,,,,,,,,,,,,,,,,,,,,,,,,,,,,,,,,,,,,,,1217.4175047159988,None,1217.4175047159988,None,1217.4175047159988,None,m,1,1.9427760890011996,1218.9527929719989,None,1218.9527929719989,None,1218.9527929719989,None,1220.9511728059988,None,1220.9511728059988,None,1220.9511728059988,None,1220.9511728059988,None,,,,,,,,,,,,,,,,,,,,,,,,,,,,,,,,,,,,,,,,,,,,001,9,2020_Jan_28_1057,spring_faces,3.1.5,59.947930426244355,
condition files/Stage1_1.xlsx,,B1,T2,c,"['c', 'm']","['Clue', 'Monopoly']","[-0.15, 0.5]","[0.15, 0.5]",1,1,,,,,,,,,0,10,10,10,0,5,5,1,,,,,,,,,,,,,,,,,,,,,,,,,,,,,,,,,,,,,,,,,,,,,,,,,,,,,,,1222.916817846999,None,1222.916817846999,None,1222.916817846999,None,c,1,1.2764178540001012,1224.4512210869998,None,1224.4512210869998,None,1224.4512210869998,None,1225.7851186089993,None,1225.7851186089993,None,1225.7851186089993,None,1225.7851186089993,None,,,,,,,,,,,,,,,,,,,,,,,,,,,,,,,,,,,,,,,,,,,,001,9,2020_Jan_28_1057,spring_faces,3.1.5,59.947930426244355,
condition files/Stage1_1.xlsx,,T1,B1,c,"['c', 'm']","['Clue', 'Monopoly']","[-0.15, 0.5]","[0.15, 0.5]",1,1,,,,,,,,,0,10,10,10,0,6,6,0,,,,,,,,,,,,,,,,,,,,,,,,,,,,,,,,,,,,,,,,,,,,,,,,,,,,,,,1227.7508686149995,None,1227.7508686149995,None,1227.7508686149995,None,c,1,1.8834742740000365,1229.284110692999,None,1229.284110692999,None,1229.284110692999,None,1231.2181047939994,None,1231.2181047939994,None,1231.2181047939994,None,1231.2181047939994,None,,,,,,,,,,,,,,,,,,,,,,,,,,,,,,,,,,,,,,,,,,,,001,9,2020_Jan_28_1057,spring_faces,3.1.5,59.947930426244355,
condition files/Stage1_1.xlsx,,B4,T4,m,"['c', 'm']","['Clue', 'Monopoly']","[-0.15, 0.5]","[0.15, 0.5]",1,1,,,,,,,,,0,10,10,10,0,7,7,7,,,,,,,,,,,,,,,,,,,,,,,,,,,,,,,,,,,,,,,,,,,,,,,,,,,,,,,1233.184563241999,None,1233.184563241999,None,1233.184563241999,None,m,1,3.3781598570003553,1234.7173798959993,None,1234.7173798959993,None,1234.7173798959993,None,1238.1509752410002,None,1238.1509752410002,None,1238.1509752410002,None,1238.1509752410002,None,,,,,,,,,,,,,,,,,,,,,,,,,,,,,,,,,,,,,,,,,,,,001,9,2020_Jan_28_1057,spring_faces,3.1.5,59.947930426244355,
condition files/Stage1_2.xlsx,,T4,B4,m,"['c', 'm']","['Clue', 'Monopoly']","[-0.15, 0.5]","[0.15, 0.5]",1,1,,,,,,,,,0,11,11,11,0,0,0,7,,,,,,,,,,,,,,,,,,,,,,,,,,,,,,,,,,,,,,,,,,,,,,,,,,,,,,,1240.1336504230003,None,1240.1336504230003,None,1240.1336504230003,None,m,1,2.5553295579993573,1241.6682696449989,None,1241.6682696449989,None,1241.6682696449989,None,1244.2844965679997,None,1244.2844965679997,None,1244.2844965679997,None,1244.2844965679997,None,,,,,,,,,,,,,,,,,,,,,,,,,,,,,,,,,,,,,,,,,,,,001,9,2020_Jan_28_1057,spring_faces,3.1.5,59.947930426244355,
condition files/Stage1_2.xlsx,,B1,T1,c,"['c', 'm']","['Clue', 'Monopoly']","[-0.15, 0.5]","[0.15, 0.5]",1,1,,,,,,,,,0,11,11,11,0,1,1,0,,,,,,,,,,,,,,,,,,,,,,,,,,,,,,,,,,,,,,,,,,,,,,,,,,,,,,,1246.2506271459988,None,1246.2506271459988,None,1246.2506271459988,None,c,1,5.46335828699921,1247.7843746679991,None,1247.7843746679991,None,1247.7843746679991,None,1253.301523455999,None,1253.301523455999,None,1253.301523455999,None,1253.301523455999,None,,,,,,,,,,,,,,,,,,,,,,,,,,,,,,,,,,,,,,,,,,,,001,9,2020_Jan_28_1057,spring_faces,3.1.5,59.947930426244355,
condition files/Stage1_2.xlsx,,T3,B3,c,"['c', 'm']","['Clue', 'Monopoly']","[-0.15, 0.5]","[0.15, 0.5]",1,1,,,,,,,,,0,11,11,11,0,2,2,4,,,,,,,,,,,,,,,,,,,,,,,,,,,,,,,,,,,,,,,,,,,,,,,,,,,,,,,1255.2675494409996,None,1255.2675494409996,None,1255.2675494409996,None,c,1,3.6787486960001843,1256.800799101,None,1256.800799101,None,1256.800799101,None,1260.5343491659987,None,1260.5343491659987,None,1260.5343491659987,None,1260.5343491659987,None,,,,,,,,,,,,,,,,,,,,,,,,,,,,,,,,,,,,,,,,,,,,001,9,2020_Jan_28_1057,spring_faces,3.1.5,59.947930426244355,
condition files/Stage1_2.xlsx,,B2,T2,m,"['c', 'm']","['Clue', 'Monopoly']","[-0.15, 0.5]","[0.15, 0.5]",1,1,,,,,,,,,0,11,11,11,0,3,3,3,,,,,,,,,,,,,,,,,,,,,,,,,,,,,,,,,,,,,,,,,,,,,,,,,,,,,,,1262.5008396929989,None,1262.5008396929989,None,1262.5008396929989,None,c,0,1.72553450399937,1264.034101698,None,1264.034101698,None,1264.034101698,None,1265.820027419999,None,1265.820027419999,None,1265.820027419999,None,1265.820027419999,None,,,,,,,,,,,,,,,,,,,,,,,,,,,,,,,,,,,,,,,,,,,,001,9,2020_Jan_28_1057,spring_faces,3.1.5,59.947930426244355,
condition files/Stage1_2.xlsx,,B4,T3,c,"['c', 'm']","['Clue', 'Monopoly']","[-0.15, 0.5]","[0.15, 0.5]",1,1,,,,,,,,,0,11,11,11,0,4,4,5,,,,,,,,,,,,,,,,,,,,,,,,,,,,,,,,,,,,,,,,,,,,,,,,,,,,,,,1267.7841370339993,None,1267.7841370339993,None,1267.7841370339993,None,m,0,1.8172310180016211,1269.318314221,None,1269.318314221,None,1269.318314221,None,1271.2030563389999,None,1271.2030563389999,None,1271.2030563389999,None,1271.2030563389999,None,,,,,,,,,,,,,,,,,,,,,,,,,,,,,,,,,,,,,,,,,,,,001,9,2020_Jan_28_1057,spring_faces,3.1.5,59.947930426244355,
condition files/Stage1_2.xlsx,,B3,T4,m,"['c', 'm']","['Clue', 'Monopoly']","[-0.15, 0.5]","[0.15, 0.5]",1,1,,,,,,,,,0,11,11,11,0,5,5,6,,,,,,,,,,,,,,,,,,,,,,,,,,,,,,,,,,,,,,,,,,,,,,,,,,,,,,,1273.167662284999,None,1273.167662284999,None,1273.167662284999,None,m,1,6.849672345000727,1274.70187445,None,1274.70187445,None,1274.70187445,None,1281.6171039799992,None,1281.6171039799992,None,1281.6171039799992,None,1281.6171039799992,None,,,,,,,,,,,,,,,,,,,,,,,,,,,,,,,,,,,,,,,,,,,,001,9,2020_Jan_28_1057,spring_faces,3.1.5,59.947930426244355,
condition files/Stage1_2.xlsx,,T1,B2,m,"['c', 'm']","['Clue', 'Monopoly']","[-0.15, 0.5]","[0.15, 0.5]",1,1,,,,,,,,,0,11,11,11,0,6,6,2,,,,,,,,,,,,,,,,,,,,,,,,,,,,,,,,,,,,,,,,,,,,,,,,,,,,,,,1283.5843759,None,1283.5843759,None,1283.5843759,None,c,0,1.3942197079995822,1285.1174266380003,None,1285.1174266380003,None,1285.1174266380003,None,1286.5675642639999,None,1286.5675642639999,None,1286.5675642639999,None,1286.5675642639999,None,,,,,,,,,,,,,,,,,,,,,,,,,,,,,,,,,,,,,,,,,,,,001,9,2020_Jan_28_1057,spring_faces,3.1.5,59.947930426244355,
condition files/Stage1_2.xlsx,,T2,B1,c,"['c', 'm']","['Clue', 'Monopoly']","[-0.15, 0.5]","[0.15, 0.5]",1,1,,,,,,,,,0,11,11,11,0,7,7,1,,,,,,,,,,,,,,,,,,,,,,,,,,,,,,,,,,,,,,,,,,,,,,,,,,,,,,,1288.5340464299989,None,1288.5340464299989,None,1288.5340464299989,None,c,1,0.9230935770010547,1290.084518579999,None,1290.084518579999,None,1290.084518579999,None,1291.0704968030004,None,1291.0704968030004,None,1291.0704968030004,None,1291.0704968030004,None,,,,,,,,,,,,,,,,,,,,,,,,,,,,,,,,,,,,,,,,,,,,001,9,2020_Jan_28_1057,spring_faces,3.1.5,59.947930426244355,
,,,,,,,,,,,,,,,,,,,,,,,,,,,,,,,,,,,,,,,,,,,,,,,,,,,,,,,,,,,,,,,,,,,,,,,,,,,,,,,,,,,,,,,,,,,,,,,,,,,,,,,,,,,,,,,,1293.0510015629989,None,space,7.004783864000274,1298.0507939199997,None,,,,,,,,,,,,,,,,,,,,,,,,,,,,,,001,9,2020_Jan_28_1057,spring_faces,3.1.5,59.947930426244355,
condition files/Stage2_1.xlsx,,T1,B1,s,"['s', 'r']","['Stratego', 'Risk']","[-0.15, 0.5]","[0.15, 0.5]",1,1,,,,,,,,,,,,,,,,,0,0,0,0,0,0,0,2,,,,,,,,,,,,,,,,,,,,,,,,,,,,,,,,,,,,,,,,,,,,,,,1305.1171846969992,None,1305.1171846969992,None,1305.1171846969992,None,r,0,3.5400114090007264,1306.6356275519993,None,1306.6356275519993,None,1306.6356275519993,None,1310.2350320839996,None,1310.2350320839996,None,1310.2350320839996,None,1310.2350320839996,None,,,,,,,,,,,,,,,1298.0507939199997,None,,,,,,,,,,,,,,,,,,,,,,,,,,,,001,9,2020_Jan_28_1057,spring_faces,3.1.5,59.947930426244355,
condition files/Stage2_1.xlsx,,B4,T4,r,"['s', 'r']","['Stratego', 'Risk']","[-0.15, 0.5]","[0.15, 0.5]",1,1,,,,,,,,,,,,,,,,,0,0,0,0,0,1,1,5,,,,,,,,,,,,,,,,,,,,,,,,,,,,,,,,,,,,,,,,,,,,,,,1312.2007904000002,None,1312.2007904000002,None,1312.2007904000002,None,r,1,2.1061303160004172,1313.7334344769988,None,1313.7334344769988,None,1313.7334344769988,None,1315.9178902389995,None,1315.9178902389995,None,1315.9178902389995,None,1315.9178902389995,None,,,,,,,,,,,,,,,,,,,,,,,,,,,,,,,,,,,,,,,,,,,,001,9,2020_Jan_28_1057,spring_faces,3.1.5,59.947930426244355,
condition files/Stage2_1.xlsx,,B6,T6,r,"['s', 'r']","['Stratego', 'Risk']","[-0.15, 0.5]","[0.15, 0.5]",1,1,,,,,,,,,,,,,,,,,0,0,0,0,0,2,2,1,,,,,,,,,,,,,,,,,,,,,,,,,,,,,,,,,,,,,,,,,,,,,,,1317.8674336229997,None,1317.8674336229997,None,1317.8674336229997,None,s,0,1.4280427849989792,1319.4675026149998,None,1319.4675026149998,None,1319.4675026149998,None,1320.9508763350004,None,1320.9508763350004,None,1320.9508763350004,None,1320.9508763350004,None,,,,,,,,,,,,,,,,,,,,,,,,,,,,,,,,,,,,,,,,,,,,001,9,2020_Jan_28_1057,spring_faces,3.1.5,59.947930426244355,
condition files/Stage2_1.xlsx,,T5,B5,s,"['s', 'r']","['Stratego', 'Risk']","[-0.15, 0.5]","[0.15, 0.5]",1,1,,,,,,,,,,,,,,,,,0,0,0,0,0,3,3,0,,,,,,,,,,,,,,,,,,,,,,,,,,,,,,,,,,,,,,,,,,,,,,,1322.917503278999,None,1322.917503278999,None,1322.917503278999,None,s,1,1.5323366669999814,1324.451226997,None,1324.451226997,None,1324.451226997,None,1326.051256244,None,1326.051256244,None,1326.051256244,None,1326.051256244,None,,,,,,,,,,,,,,,,,,,,,,,,,,,,,,,,,,,,,,,,,,,,001,9,2020_Jan_28_1057,spring_faces,3.1.5,59.947930426244355,
condition files/Stage2_1.xlsx,,T3,B3,s,"['s', 'r']","['Stratego', 'Risk']","[-0.15, 0.5]","[0.15, 0.5]",1,1,,,,,,,,,,,,,,,,,0,0,0,0,0,4,4,4,,,,,,,,,,,,,,,,,,,,,,,,,,,,,,,,,,,,,,,,,,,,,,,1328.000846265999,None,1328.000846265999,None,1328.000846265999,None,r,0,2.0310199269988516,1329.5365412350002,None,1329.5365412350002,None,1329.5365412350002,None,1331.617608606999,None,1331.617608606999,None,1331.617608606999,None,1331.617608606999,None,,,,,,,,,,,,,,,,,,,,,,,,,,,,,,,,,,,,,,,,,,,,001,9,2020_Jan_28_1057,spring_faces,3.1.5,59.947930426244355,
condition files/Stage2_1.xlsx,,B2,T2,r,"['s', 'r']","['Stratego', 'Risk']","[-0.15, 0.5]","[0.15, 0.5]",1,1,,,,,,,,,,,,,,,,,0,0,0,0,0,5,5,3,,,,,,,,,,,,,,,,,,,,,,,,,,,,,,,,,,,,,,,,,,,,,,,1333.5843375679997,None,1333.5843375679997,None,1333.5843375679997,None,s,0,4.704033944000912,1335.1195140910004,None,1335.1195140910004,None,1335.1195140910004,None,1339.8862375480003,None,1339.8862375480003,None,1339.8862375480003,None,1339.8862375480003,None,,,,,,,,,,,,,,,,,,,,,,,,,,,,,,,,,,,,,,,,,,,,001,9,2020_Jan_28_1057,spring_faces,3.1.5,59.947930426244355,
condition files/Stage2_2.xlsx,,T6,B6,r,"['s', 'r']","['Stratego', 'Risk']","[-0.15, 0.5]","[0.15, 0.5]",1,1,,,,,,,,,,,,,,,,,0,1,1,1,0,0,0,1,,,,,,,,,,,,,,,,,,,,,,,,,,,,,,,,,,,,,,,,,,,,,,,1341.8675132030003,None,1341.8675132030003,None,1341.8675132030003,None,s,0,2.3430203539992362,1343.4006166149993,None,1343.4006166149993,None,1343.4006166149993,None,1345.8008316710002,None,1345.8008316710002,None,1345.8008316710002,None,1345.8008316710002,None,,,,,,,,,,,,,,,,,,,,,,,,,,,,,,,,,,,,,,,,,,,,001,9,2020_Jan_28_1057,spring_faces,3.1.5,59.947930426244355,
condition files/Stage2_2.xlsx,,T4,B4,r,"['s', 'r']","['Stratego', 'Risk']","[-0.15, 0.5]","[0.15, 0.5]",1,1,,,,,,,,,,,,,,,,,0,1,1,1,0,1,1,5,,,,,,,,,,,,,,,,,,,,,,,,,,,,,,,,,,,,,,,,,,,,,,,1347.767413173,None,1347.767413173,None,1347.767413173,None,r,1,1.0336361220015533,1349.3018598170001,None,1349.3018598170001,None,1349.3018598170001,None,1350.400676752999,None,1350.400676752999,None,1350.400676752999,None,1350.400676752999,None,,,,,,,,,,,,,,,,,,,,,,,,,,,,,,,,,,,,,,,,,,,,001,9,2020_Jan_28_1057,spring_faces,3.1.5,59.947930426244355,
condition files/Stage2_2.xlsx,,B5,T5,s,"['s', 'r']","['Stratego', 'Risk']","[-0.15, 0.5]","[0.15, 0.5]",1,1,,,,,,,,,,,,,,,,,0,1,1,1,0,2,2,0,,,,,,,,,,,,,,,,,,,,,,,,,,,,,,,,,,,,,,,,,,,,,,,1352.367127677,None,1352.367127677,None,1352.367127677,None,s,1,2.2262671050011704,1353.9013590220002,None,1353.9013590220002,None,1353.9013590220002,None,1356.1856669789995,None,1356.1856669789995,None,1356.1856669789995,None,1356.1856669789995,None,,,,,,,,,,,,,,,,,,,,,,,,,,,,,,,,,,,,,,,,,,,,001,9,2020_Jan_28_1057,spring_faces,3.1.5,59.947930426244355,
condition files/Stage2_2.xlsx,,T2,B2,r,"['s', 'r']","['Stratego', 'Risk']","[-0.15, 0.5]","[0.15, 0.5]",1,1,,,,,,,,,,,,,,,,,0,1,1,1,0,3,3,3,,,,,,,,,,,,,,,,,,,,,,,,,,,,,,,,,,,,,,,,,,,,,,,1358.150650476,None,1358.150650476,None,1358.150650476,None,r,1,1.7071272549983405,1359.6845027,None,1359.6845027,None,1359.6845027,None,1361.4538336200003,None,1361.4538336200003,None,1361.4538336200003,None,1361.4538336200003,None,,,,,,,,,,,,,,,,,,,,,,,,,,,,,,,,,,,,,,,,,,,,001,9,2020_Jan_28_1057,spring_faces,3.1.5,59.947930426244355,
condition files/Stage2_2.xlsx,,B1,T1,s,"['s', 'r']","['Stratego', 'Risk']","[-0.15, 0.5]","[0.15, 0.5]",1,1,,,,,,,,,,,,,,,,,0,1,1,1,0,4,4,2,,,,,,,,,,,,,,,,,,,,,,,,,,,,,,,,,,,,,,,,,,,,,,,1363.4177134429992,None,1363.4177134429992,None,1363.4177134429992,None,r,0,3.0802340760001243,1364.9513372829988,None,1364.9513372829988,None,1364.9513372829988,None,1368.084495007999,None,1368.084495007999,None,1368.084495007999,None,1368.084495007999,None,,,,,,,,,,,,,,,,,,,,,,,,,,,,,,,,,,,,,,,,,,,,001,9,2020_Jan_28_1057,spring_faces,3.1.5,59.947930426244355,
condition files/Stage2_2.xlsx,,B3,T3,s,"['s', 'r']","['Stratego', 'Risk']","[-0.15, 0.5]","[0.15, 0.5]",1,1,,,,,,,,,,,,,,,,,0,1,1,1,0,5,5,4,,,,,,,,,,,,,,,,,,,,,,,,,,,,,,,,,,,,,,,,,,,,,,,1370.0504918730003,None,1370.0504918730003,None,1370.0504918730003,None,r,0,1.2954934980007238,1371.5840384969997,None,1371.5840384969997,None,1371.5840384969997,None,1372.9343570679994,None,1372.9343570679994,None,1372.9343570679994,None,1372.9343570679994,None,,,,,,,,,,,,,,,,,,,,,,,,,,,,,,,,,,,,,,,,,,,,001,9,2020_Jan_28_1057,spring_faces,3.1.5,59.947930426244355,
condition files/Stage2_1.xlsx,,B6,T6,r,"['s', 'r']","['Stratego', 'Risk']","[-0.15, 0.5]","[0.15, 0.5]",1,1,,,,,,,,,,,,,,,,,0,2,2,2,0,0,0,1,,,,,,,,,,,,,,,,,,,,,,,,,,,,,,,,,,,,,,,,,,,,,,,1374.917785214,None,1374.917785214,None,1374.917785214,None,s,0,1.3880394770003477,1376.4675369359993,None,1376.4675369359993,None,1376.4675369359993,None,1377.9344332399996,None,1377.9344332399996,None,1377.9344332399996,None,1377.9344332399996,None,,,,,,,,,,,,,,,,,,,,,,,,,,,,,,,,,,,,,,,,,,,,001,9,2020_Jan_28_1057,spring_faces,3.1.5,59.947930426244355,
condition files/Stage2_1.xlsx,,T1,B1,s,"['s', 'r']","['Stratego', 'Risk']","[-0.15, 0.5]","[0.15, 0.5]",1,1,,,,,,,,,,,,,,,,,0,2,2,2,0,1,1,2,,,,,,,,,,,,,,,,,,,,,,,,,,,,,,,,,,,,,,,,,,,,,,,1379.8840660829992,None,1379.8840660829992,None,1379.8840660829992,None,s,1,4.342554654000196,1381.4170895539992,None,1381.4170895539992,None,1381.4170895539992,None,1385.8195263950001,None,1385.8195263950001,None,1385.8195263950001,None,1385.8195263950001,None,,,,,,,,,,,,,,,,,,,,,,,,,,,,,,,,,,,,,,,,,,,,001,9,2020_Jan_28_1057,spring_faces,3.1.5,59.947930426244355,
condition files/Stage2_1.xlsx,,B4,T4,r,"['s', 'r']","['Stratego', 'Risk']","[-0.15, 0.5]","[0.15, 0.5]",1,1,,,,,,,,,,,,,,,,,0,2,2,2,0,2,2,5,,,,,,,,,,,,,,,,,,,,,,,,,,,,,,,,,,,,,,,,,,,,,,,1387.7837924279993,None,1387.7837924279993,None,1387.7837924279993,None,r,1,0.8555813630009652,1389.3200574359998,None,1389.3200574359998,None,1389.3200574359998,None,1390.235901697999,None,1390.235901697999,None,1390.235901697999,None,1390.235901697999,None,,,,,,,,,,,,,,,,,,,,,,,,,,,,,,,,,,,,,,,,,,,,001,9,2020_Jan_28_1057,spring_faces,3.1.5,59.947930426244355,
condition files/Stage2_1.xlsx,,T3,B3,s,"['s', 'r']","['Stratego', 'Risk']","[-0.15, 0.5]","[0.15, 0.5]",1,1,,,,,,,,,,,,,,,,,0,2,2,2,0,3,3,4,,,,,,,,,,,,,,,,,,,,,,,,,,,,,,,,,,,,,,,,,,,,,,,1392.200829075,None,1392.200829075,None,1392.200829075,None,r,0,2.265826337999897,1393.7337428049996,None,1393.7337428049996,None,1393.7337428049996,None,1396.0520572009991,None,1396.0520572009991,None,1396.0520572009991,None,1396.0520572009991,None,,,,,,,,,,,,,,,,,,,,,,,,,,,,,,,,,,,,,,,,,,,,001,9,2020_Jan_28_1057,spring_faces,3.1.5,59.947930426244355,
condition files/Stage2_1.xlsx,,B2,T2,r,"['s', 'r']","['Stratego', 'Risk']","[-0.15, 0.5]","[0.15, 0.5]",1,1,,,,,,,,,,,,,,,,,0,2,2,2,0,4,4,3,,,,,,,,,,,,,,,,,,,,,,,,,,,,,,,,,,,,,,,,,,,,,,,1398.017508559,None,1398.017508559,None,1398.017508559,None,s,0,1.6956327419993613,1399.567888567999,None,1399.567888567999,None,1399.567888567999,None,1401.319031334,None,1401.319031334,None,1401.319031334,None,1401.319031334,None,,,,,,,,,,,,,,,,,,,,,,,,,,,,,,,,,,,,,,,,,,,,001,9,2020_Jan_28_1057,spring_faces,3.1.5,59.947930426244355,
condition files/Stage2_1.xlsx,,T5,B5,s,"['s', 'r']","['Stratego', 'Risk']","[-0.15, 0.5]","[0.15, 0.5]",1,1,,,,,,,,,,,,,,,,,0,2,2,2,0,5,5,0,,,,,,,,,,,,,,,,,,,,,,,,,,,,,,,,,,,,,,,,,,,,,,,1403.283694803,None,1403.283694803,None,1403.283694803,None,r,0,1.3250577390008402,1404.834573537999,None,1404.834573537999,None,1404.834573537999,None,1406.2190443,None,1406.2190443,None,1406.2190443,None,1406.2190443,None,,,,,,,,,,,,,,,,,,,,,,,,,,,,,,,,,,,,,,,,,,,,001,9,2020_Jan_28_1057,spring_faces,3.1.5,59.947930426244355,
condition files/Stage2_2.xlsx,,B1,T1,s,"['s', 'r']","['Stratego', 'Risk']","[-0.15, 0.5]","[0.15, 0.5]",1,1,,,,,,,,,,,,,,,,,0,3,3,3,0,0,0,2,,,,,,,,,,,,,,,,,,,,,,,,,,,,,,,,,,,,,,,,,,,,,,,1408.2012124569992,None,1408.2012124569992,None,1408.2012124569992,None,s,1,6.167316106999351,1409.7362622429991,None,1409.7362622429991,None,1409.7362622429991,None,1415.9678849519987,None,1415.9678849519987,None,1415.9678849519987,None,1415.9678849519987,None,,,,,,,,,,,,,,,,,,,,,,,,,,,,,,,,,,,,,,,,,,,,001,9,2020_Jan_28_1057,spring_faces,3.1.5,59.947930426244355,
condition files/Stage2_2.xlsx,,B5,T5,s,"['s', 'r']","['Stratego', 'Risk']","[-0.15, 0.5]","[0.15, 0.5]",1,1,,,,,,,,,,,,,,,,,0,3,3,3,0,1,1,0,,,,,,,,,,,,,,,,,,,,,,,,,,,,,,,,,,,,,,,,,,,,,,,1417.9337790659993,None,1417.9337790659993,None,1417.9337790659993,None,r,0,2.131772946999263,1419.4677944649993,None,1419.4677944649993,None,1419.4677944649993,None,1421.6514281559994,None,1421.6514281559994,None,1421.6514281559994,None,1421.6514281559994,None,,,,,,,,,,,,,,,,,,,,,,,,,,,,,,,,,,,,,,,,,,,,001,9,2020_Jan_28_1057,spring_faces,3.1.5,59.947930426244355,
condition files/Stage2_2.xlsx,,B3,T3,s,"['s', 'r']","['Stratego', 'Risk']","[-0.15, 0.5]","[0.15, 0.5]",1,1,,,,,,,,,,,,,,,,,0,3,3,3,0,2,2,4,,,,,,,,,,,,,,,,,,,,,,,,,,,,,,,,,,,,,,,,,,,,,,,1423.617105162999,None,1423.617105162999,None,1423.617105162999,None,r,0,1.9368428479992872,1425.150733392,None,1425.150733392,None,1425.150733392,None,1427.1509933460002,None,1427.1509933460002,None,1427.1509933460002,None,1427.1509933460002,None,,,,,,,,,,,,,,,,,,,,,,,,,,,,,,,,,,,,,,,,,,,,001,9,2020_Jan_28_1057,spring_faces,3.1.5,59.947930426244355,
condition files/Stage2_2.xlsx,,T2,B2,r,"['s', 'r']","['Stratego', 'Risk']","[-0.15, 0.5]","[0.15, 0.5]",1,1,,,,,,,,,,,,,,,,,0,3,3,3,0,3,3,3,,,,,,,,,,,,,,,,,,,,,,,,,,,,,,,,,,,,,,,,,,,,,,,1429.117274188,None,1429.117274188,None,1429.117274188,None,r,1,1.2046000810005353,1430.6509606789987,None,1430.6509606789987,None,1430.6509606789987,None,1431.9343607049996,None,1431.9343607049996,None,1431.9343607049996,None,1431.9343607049996,None,,,,,,,,,,,,,,,,,,,,,,,,,,,,,,,,,,,,,,,,,,,,001,9,2020_Jan_28_1057,spring_faces,3.1.5,59.947930426244355,
condition files/Stage2_2.xlsx,,T4,B4,r,"['s', 'r']","['Stratego', 'Risk']","[-0.15, 0.5]","[0.15, 0.5]",1,1,,,,,,,,,,,,,,,,,0,3,3,3,0,4,4,5,,,,,,,,,,,,,,,,,,,,,,,,,,,,,,,,,,,,,,,,,,,,,,,1433.884114696999,None,1433.884114696999,None,1433.884114696999,None,r,1,0.774339723000594,1435.4173126899987,None,1435.4173126899987,None,1435.4173126899987,None,1436.2506768080002,None,1436.2506768080002,None,1436.2506768080002,None,1436.2506768080002,None,,,,,,,,,,,,,,,,,,,,,,,,,,,,,,,,,,,,,,,,,,,,001,9,2020_Jan_28_1057,spring_faces,3.1.5,59.947930426244355,
condition files/Stage2_2.xlsx,,T6,B6,r,"['s', 'r']","['Stratego', 'Risk']","[-0.15, 0.5]","[0.15, 0.5]",1,1,,,,,,,,,,,,,,,,,0,3,3,3,0,5,5,1,,,,,,,,,,,,,,,,,,,,,,,,,,,,,,,,,,,,,,,,,,,,,,,1438.2175774909992,None,1438.2175774909992,None,1438.2175774909992,None,s,0,0.7927689900006953,1439.750863068999,None,1439.750863068999,None,1439.750863068999,None,1440.600710204999,None,1440.600710204999,None,1440.600710204999,None,1440.600710204999,None,,,,,,,,,,,,,,,,,,,,,,,,,,,,,,,,,,,,,,,,,,,,001,9,2020_Jan_28_1057,spring_faces,3.1.5,59.947930426244355,
condition files/Stage2_1.xlsx,,B6,T6,r,"['s', 'r']","['Stratego', 'Risk']","[-0.15, 0.5]","[0.15, 0.5]",1,1,,,,,,,,,,,,,,,,,0,4,4,4,0,0,0,1,,,,,,,,,,,,,,,,,,,,,,,,,,,,,,,,,,,,,,,,,,,,,,,1442.5845515499987,None,1442.5845515499987,None,1442.5845515499987,None,r,1,1.2579059970012167,1444.1177446290003,None,1444.1177446290003,None,1444.1177446290003,None,1445.4342958399993,None,1445.4342958399993,None,1445.4342958399993,None,1445.4342958399993,None,,,,,,,,,,,,,,,,,,,,,,,,,,,,,,,,,,,,,,,,,,,,001,9,2020_Jan_28_1057,spring_faces,3.1.5,59.947930426244355,
condition files/Stage2_1.xlsx,,T1,B1,s,"['s', 'r']","['Stratego', 'Risk']","[-0.15, 0.5]","[0.15, 0.5]",1,1,,,,,,,,,,,,,,,,,0,4,4,4,0,1,1,2,,,,,,,,,,,,,,,,,,,,,,,,,,,,,,,,,,,,,,,,,,,,,,,1447.400621228,None,1447.400621228,None,1447.400621228,None,s,1,1.1601271420004196,1448.9354172619987,None,1448.9354172619987,None,1448.9354172619987,None,1450.150841835999,None,1450.150841835999,None,1450.150841835999,None,1450.150841835999,None,,,,,,,,,,,,,,,,,,,,,,,,,,,,,,,,,,,,,,,,,,,,001,9,2020_Jan_28_1057,spring_faces,3.1.5,59.947930426244355,
condition files/Stage2_1.xlsx,,B2,T2,r,"['s', 'r']","['Stratego', 'Risk']","[-0.15, 0.5]","[0.15, 0.5]",1,1,,,,,,,,,,,,,,,,,0,4,4,4,0,2,2,3,,,,,,,,,,,,,,,,,,,,,,,,,,,,,,,,,,,,,,,,,,,,,,,1452.1174433399992,None,1452.1174433399992,None,1452.1174433399992,None,s,0,1.5645287169991207,1453.6510453930005,None,1453.6510453930005,None,1453.6510453930005,None,1455.2845837309997,None,1455.2845837309997,None,1455.2845837309997,None,1455.2845837309997,None,,,,,,,,,,,,,,,,,,,,,,,,,,,,,,,,,,,,,,,,,,,,001,9,2020_Jan_28_1057,spring_faces,3.1.5,59.947930426244355,
condition files/Stage2_1.xlsx,,B4,T4,r,"['s', 'r']","['Stratego', 'Risk']","[-0.15, 0.5]","[0.15, 0.5]",1,1,,,,,,,,,,,,,,,,,0,4,4,4,0,3,3,5,,,,,,,,,,,,,,,,,,,,,,,,,,,,,,,,,,,,,,,,,,,,,,,1457.2336079359993,None,1457.2336079359993,None,1457.2336079359993,None,r,1,0.7992860470003507,1458.7683251279996,None,1458.7683251279996,None,1458.7683251279996,None,1459.6176954740004,None,1459.6176954740004,None,1459.6176954740004,None,1459.6176954740004,None,,,,,,,,,,,,,,,,,,,,,,,,,,,,,,,,,,,,,,,,,,,,001,9,2020_Jan_28_1057,spring_faces,3.1.5,59.947930426244355,
