condsFile,subStage,cue1,cue2,correct,responseKeys,responseNames,cue1Position,cue2Position,cue1Opacity,cue2Opacity,stageLoop0.thisRepN,stageLoop0.thisTrialN,stageLoop0.thisN,stageLoop0.thisIndex,blockLoop0.thisRepN,blockLoop0.thisTrialN,blockLoop0.thisN,blockLoop0.thisIndex,stage1Loop.thisRepN,stage1Loop.thisTrialN,stage1Loop.thisN,stage1Loop.thisIndex,blockLoop1.thisRepN,blockLoop1.thisTrialN,blockLoop1.thisN,blockLoop1.thisIndex,stage2Loop.thisRepN,stage2Loop.thisTrialN,stage2Loop.thisN,stage2Loop.thisIndex,blockLoop2.thisRepN,blockLoop2.thisTrialN,blockLoop2.thisN,blockLoop2.thisIndex,testLoop.thisRepN,testLoop.thisTrialN,testLoop.thisN,testLoop.thisIndex,blockLoopTest.thisRepN,blockLoopTest.thisTrialN,blockLoopTest.thisN,blockLoopTest.thisIndex,cuePics,id_instr_text.started,id_instr_text.stopped,space_to_continue_2.started,space_to_continue_2.stopped,end_instructions_resp_3.keys,end_instructions_resp_3.rt,end_instructions_resp_3.started,end_instructions_resp_3.stopped,id_input_instr.started,id_input_instr.stopped,id_input_rect.started,id_input_rect.stopped,id_input_resp.keys,id_input_resp.rt,id_input_resp.started,id_input_resp.stopped,sonaID,id_input_text.started,id_input_text.stopped,final_text.started,final_text.stopped,instructions.started,instructions.stopped,end_instructions_resp.keys,end_instructions_resp.rt,end_instructions_resp.started,end_instructions_resp.stopped,space_to_continue.started,space_to_continue.stopped,instructions_stage0.started,instructions_stage0.stopped,end_instructions_resp_stage0.keys,end_instructions_resp_stage0.rt,end_instructions_resp_stage0.started,end_instructions_resp_stage0.stopped,space_to_continue_stage0.started,space_to_continue_stage0.stopped,text.started,text.stopped,resp_text1.started,resp_text1.stopped,resp_text2.started,resp_text2.stopped,trial_resp.keys,trial_resp.corr,trial_resp.rt,trial_resp.started,trial_resp.stopped,cue1Image.started,cue1Image.stopped,cue2Image.started,cue2Image.stopped,cue1Image_fb.started,cue1Image_fb.stopped,cue2Image_fb.started,cue2Image_fb.stopped,fb_text_answer.started,fb_text_answer.stopped,feedback_image.started,feedback_image.stopped,instructions_stage1.started,instructions_stage1.stopped,end_instructions_resp_stage1.keys,end_instructions_resp_stage1.rt,end_instructions_resp_stage1.started,end_instructions_resp_stage1.stopped,space_to_continue_stage1.started,space_to_continue_stage1.stopped,instructions_2.started,instructions_2.stopped,end_instructions_resp_2.keys,end_instructions_resp_2.rt,end_instructions_resp_2.started,end_instructions_resp_2.stopped,press_space_to_continue_stage2.started,press_space_to_continue_stage2.stopped,instructions_testStage1.started,instructions_testStage1.stopped,end_instructions_resp_test1.keys,end_instructions_resp_test1.rt,end_instructions_resp_test1.started,end_instructions_resp_test1.stopped,press_space_to_continue_test1.started,press_space_to_continue_test1.stopped,cue1Image_testChoice.started,cue1Image_testChoice.stopped,cue2Image_testChoice.started,cue2Image_testChoice.stopped,test_resp.keys,test_resp.corr,test_resp.rt,test_resp.started,test_resp.stopped,cue1Image_testConf.started,cue1Image_testConf.stopped,cue2Image_testConf.started,cue2Image_testConf.stopped,conf_reminder.started,conf_reminder.stopped,conf_rating.response,conf_rating.rt,conf_rating.started,conf_rating.stopped,session,participant,date,expName,psychopyVersion,frameRate,
,,,,,,,,,,,,,,,,,,,,,,,,,,,,,,,,,,,,,,,,,,,"{'none': 'pictures/20M_AN_C.png', 'alpha': 'pictures/SHINEd_pear.png', 'beta': 'pictures/SHINEd_melon.png', 'theta': 'pictures/SHINEd_apple.png', 'phi': 'pictures/SHINEd_pepper.png', 'T1': 'pictures/26M_AN_C.png', 'T2': 'pictures/31M_AN_C.png', 'T3': 'pictures/34M_AN_C.png', 'T4': 'pictures/36M_AN_C.png', 'T5': 'pictures/20M_AN_C.png', 'T6': 'pictures/25M_AN_C.png', 'B1': 'pictures/23M_NE_C.png', 'B2': 'pictures/37M_NE_C.png', 'B3': 'pictures/32M_NE_C.png', 'B4': 'pictures/33M_NE_C.png', 'B5': 'pictures/22M_NE_C.png', 'B6': 'pictures/38M_NE_C.png'}",17.520360311998957,None,22.504183479999483,None,space,1276.8652243849992,22.504183479999483,None,,,,,,,,,,,,,,,,,,,,,,,,,,,,,,,,,,,,,,,,,,,,,,,,,,,,,,,,,,,,,,,,,,,,,,,,,,,,,,,,,,,,,,,,,,,,,,,,001,106,2020_Feb_11_1143,spring_faces,3.1.5,59.98600490491215,
,,,,,,,,,,,,,,,,,,,,,,,,,,,,,,,,,,,,,,,,,,,,,,,,,,,,1299.9043941649998,None,1299.9043941649998,None,"['0', '4', '2', '4', 'p', 'a', 'h', 'i', 'g']","[10.665006820998315, 11.016985315998681, 16.60098441199989, 17.000965018998613, 20.329017135998583, 20.69700787900001, 34.729014672999256, 37.14499778699974, 37.89701238199996]",1299.9043941649998,None,,,,,,,,,,,,,,,,,,,,,,,,,,,,,,,,,,,,,,,,,,,,,,,,,,,,,,,,,,,,,,,,,,,,,,,,,,,,,,,,,,,,,,,,001,106,2020_Feb_11_1143,spring_faces,3.1.5,59.98600490491215,
,,,,,,,,,,,,,,,,,,,,,,,,,,,,,,,,,,,,,,,,,,,,,,,,,,,,,,,,,,,,0424pahig,1299.9043941649998,None,1299.9043941649998,None,1342.871077275,None,space,0.7790211679985077,1347.8703994669995,None,,,,,,,,,,,,,,,,,,,,,,,,,,,,,,,,,,,,,,,,,,,,,,,,,,,,,,,,,,,,,,,,,,,,,,,,,,,,,001,106,2020_Feb_11_1143,spring_faces,3.1.5,59.98600490491215,
,,,,,,,,,,,,,,,,,,,,,,,,,,,,,,,,,,,,,,,,,,,,,,,,,,,,,,,,,,,,,,,,,,,,,,,1347.8703994669995,None,1348.6872621229995,None,space,9.905882973000189,1353.68752519,None,,,,,,,,,,,,,,,,,,,,,,,,,,,,,,,,,,,,,,,,,,,,,,,,,,,,,,,,,,,,,,,,,,,,,001,106,2020_Feb_11_1143,spring_faces,3.1.5,59.98600490491215,
condition files/Stage0a.xlsx,0a,alpha,none,h,"['h', 'g']","['Chess', 'Go']","[0, 0.5]","[0, 0]",1,0,0,0,0,0,0,0,0,0,,,,,,,,,,,,,,,,,,,,,,,,,,,,,,,,,,,,,,,,,,,,,,,,,,,,,,,,,,,,,1353.68752519,None,1363.7205200059998,None,1363.7205200059998,None,1363.7205200059998,None,h,1,2.466853097999774,1365.2865670379997,None,1365.2865670379997,None,1365.2865670379997,None,1367.8707757369993,None,1367.8707757369993,None,1367.8707757369993,None,1367.8707757369993,None,,,,,,,,,,,,,,,,,,,,,,,,,,,,,,,,,,,,,,,,,,,,001,106,2020_Feb_11_1143,spring_faces,3.1.5,59.98600490491215,
condition files/Stage0a.xlsx,0a,beta,none,g,"['h', 'g']","['Chess', 'Go']","[0, 0.5]","[0, 0]",1,0,0,0,0,0,0,1,1,1,,,,,,,,,,,,,,,,,,,,,,,,,,,,,,,,,,,,,,,,,,,,,,,,,,,,,,,,,,,,,,,1369.770749113999,None,1369.770749113999,None,1369.770749113999,None,g,1,1.2161191390005115,1371.3052636800003,None,1371.3052636800003,None,1371.3052636800003,None,1372.587091624,None,1372.587091624,None,1372.587091624,None,1372.587091624,None,,,,,,,,,,,,,,,,,,,,,,,,,,,,,,,,,,,,,,,,,,,,001,106,2020_Feb_11_1143,spring_faces,3.1.5,59.98600490491215,
condition files/Stage0a.xlsx,0a,alpha,none,h,"['h', 'g']","['Chess', 'Go']","[0, 0.5]","[0, 0]",1,0,0,1,1,1,0,0,0,0,,,,,,,,,,,,,,,,,,,,,,,,,,,,,,,,,,,,,,,,,,,,,,,,,,,,,,,,,,,,,,,1374.5709062009992,None,1374.5709062009992,None,1374.5709062009992,None,h,1,1.1371527860010247,1376.1042572240003,None,1376.1042572240003,None,1376.1042572240003,None,1377.3041692940005,None,1377.3041692940005,None,1377.3041692940005,None,1377.3041692940005,None,,,,,,,,,,,,,,,,,,,,,,,,,,,,,,,,,,,,,,,,,,,,001,106,2020_Feb_11_1143,spring_faces,3.1.5,59.98600490491215,
condition files/Stage0a.xlsx,0a,beta,none,g,"['h', 'g']","['Chess', 'Go']","[0, 0.5]","[0, 0]",1,0,0,1,1,1,0,1,1,1,,,,,,,,,,,,,,,,,,,,,,,,,,,,,,,,,,,,,,,,,,,,,,,,,,,,,,,,,,,,,,,1379.2705193719994,None,1379.2705193719994,None,1379.2705193719994,None,h,0,0.3727347549993283,1380.804661611999,None,1380.804661611999,None,1380.804661611999,None,1381.2387275700003,None,1381.2387275700003,None,1381.2387275700003,None,1381.2387275700003,None,,,,,,,,,,,,,,,,,,,,,,,,,,,,,,,,,,,,,,,,,,,,001,106,2020_Feb_11_1143,spring_faces,3.1.5,59.98600490491215,
condition files/Stage0a.xlsx,0a,beta,none,g,"['h', 'g']","['Chess', 'Go']","[0, 0.5]","[0, 0]",1,0,0,2,2,2,0,0,0,1,,,,,,,,,,,,,,,,,,,,,,,,,,,,,,,,,,,,,,,,,,,,,,,,,,,,,,,,,,,,,,,1383.2204787360006,None,1383.2204787360006,None,1383.2204787360006,None,h,0,1.3030870999991748,1384.7543174679995,None,1384.7543174679995,None,1384.7543174679995,None,1386.1212885450004,None,1386.1212885450004,None,1386.1212885450004,None,1386.1212885450004,None,,,,,,,,,,,,,,,,,,,,,,,,,,,,,,,,,,,,,,,,,,,,001,106,2020_Feb_11_1143,spring_faces,3.1.5,59.98600490491215,
condition files/Stage0a.xlsx,0a,alpha,none,h,"['h', 'g']","['Chess', 'Go']","[0, 0.5]","[0, 0]",1,0,0,2,2,2,0,1,1,0,,,,,,,,,,,,,,,,,,,,,,,,,,,,,,,,,,,,,,,,,,,,,,,,,,,,,,,,,,,,,,,1388.0875381639999,None,1388.0875381639999,None,1388.0875381639999,None,g,0,0.7086497559994314,1389.620801879999,None,1389.620801879999,None,1389.620801879999,None,1390.3893714530004,None,1390.3893714530004,None,1390.3893714530004,None,1390.3893714530004,None,,,,,,,,,,,,,,,,,,,,,,,,,,,,,,,,,,,,,,,,,,,,001,106,2020_Feb_11_1143,spring_faces,3.1.5,59.98600490491215,
condition files/Stage0a.xlsx,0a,beta,none,g,"['h', 'g']","['Chess', 'Go']","[0, 0.5]","[0, 0]",1,0,0,3,3,3,0,0,0,1,,,,,,,,,,,,,,,,,,,,,,,,,,,,,,,,,,,,,,,,,,,,,,,,,,,,,,,,,,,,,,,1392.3709671809993,None,1392.3709671809993,None,1392.3709671809993,None,g,1,0.36211771000125736,1393.9032936820004,None,1393.9032936820004,None,1393.9032936820004,None,1394.3205493959995,None,1394.3205493959995,None,1394.3205493959995,None,1394.3205493959995,None,,,,,,,,,,,,,,,,,,,,,,,,,,,,,,,,,,,,,,,,,,,,001,106,2020_Feb_11_1143,spring_faces,3.1.5,59.98600490491215,
condition files/Stage0a.xlsx,0a,alpha,none,h,"['h', 'g']","['Chess', 'Go']","[0, 0.5]","[0, 0]",1,0,0,3,3,3,0,1,1,0,,,,,,,,,,,,,,,,,,,,,,,,,,,,,,,,,,,,,,,,,,,,,,,,,,,,,,,,,,,,,,,1396.2874328569997,None,1396.2874328569997,None,1396.2874328569997,None,h,1,0.5405112370008283,1397.8209372969995,None,1397.8209372969995,None,1397.8209372969995,None,1398.4206589589994,None,1398.4206589589994,None,1398.4206589589994,None,1398.4206589589994,None,,,,,,,,,,,,,,,,,,,,,,,,,,,,,,,,,,,,,,,,,,,,001,106,2020_Feb_11_1143,spring_faces,3.1.5,59.98600490491215,
condition files/Stage0a.xlsx,0a,alpha,none,h,"['h', 'g']","['Chess', 'Go']","[0, 0.5]","[0, 0]",1,0,0,4,4,4,0,0,0,0,,,,,,,,,,,,,,,,,,,,,,,,,,,,,,,,,,,,,,,,,,,,,,,,,,,,,,,,,,,,,,,1400.4040618630006,None,1400.4040618630006,None,1400.4040618630006,None,h,1,0.7439066859988088,1401.937571639999,None,1401.937571639999,None,1401.937571639999,None,1402.7371935840001,None,1402.7371935840001,None,1402.7371935840001,None,1402.7371935840001,None,,,,,,,,,,,,,,,,,,,,,,,,,,,,,,,,,,,,,,,,,,,,001,106,2020_Feb_11_1143,spring_faces,3.1.5,59.98600490491215,
condition files/Stage0a.xlsx,0a,beta,none,g,"['h', 'g']","['Chess', 'Go']","[0, 0.5]","[0, 0]",1,0,0,4,4,4,0,1,1,1,,,,,,,,,,,,,,,,,,,,,,,,,,,,,,,,,,,,,,,,,,,,,,,,,,,,,,,,,,,,,,,1404.7042268570003,None,1404.7042268570003,None,1404.7042268570003,None,g,1,0.811936264999531,1406.2373995449998,None,1406.2373995449998,None,1406.2373995449998,None,1407.103790445999,None,1407.103790445999,None,1407.103790445999,None,1407.103790445999,None,,,,,,,,,,,,,,,,,,,,,,,,,,,,,,,,,,,,,,,,,,,,001,106,2020_Feb_11_1143,spring_faces,3.1.5,59.98600490491215,
condition files/Stage0a.xlsx,0a,alpha,none,h,"['h', 'g']","['Chess', 'Go']","[0, 0.5]","[0, 0]",1,0,0,5,5,5,0,0,0,0,,,,,,,,,,,,,,,,,,,,,,,,,,,,,,,,,,,,,,,,,,,,,,,,,,,,,,,,,,,,,,,1409.0876883780002,None,1409.0876883780002,None,1409.0876883780002,None,h,1,0.7324734550002177,1410.620931387999,None,1410.620931387999,None,1410.620931387999,None,1411.4040330169992,None,1411.4040330169992,None,1411.4040330169992,None,1411.4040330169992,None,,,,,,,,,,,,,,,,,,,,,,,,,,,,,,,,,,,,,,,,,,,,001,106,2020_Feb_11_1143,spring_faces,3.1.5,59.98600490491215,
condition files/Stage0a.xlsx,0a,beta,none,g,"['h', 'g']","['Chess', 'Go']","[0, 0.5]","[0, 0]",1,0,0,5,5,5,0,1,1,1,,,,,,,,,,,,,,,,,,,,,,,,,,,,,,,,,,,,,,,,,,,,,,,,,,,,,,,,,,,,,,,1413.3706882419992,None,1413.3706882419992,None,1413.3706882419992,None,g,1,0.752860939999664,1414.9045413740005,None,1414.9045413740005,None,1414.9045413740005,None,1415.7204252150004,None,1415.7204252150004,None,1415.7204252150004,None,1415.7204252150004,None,,,,,,,,,,,,,,,,,,,,,,,,,,,,,,,,,,,,,,,,,,,,001,106,2020_Feb_11_1143,spring_faces,3.1.5,59.98600490491215,
condition files/Stage0b_1.xlsx,0b,alpha,none,h,"['h', 'g']","['Chess', 'Go']","[-0.15, 0.5]","[0.15, 0.5]",1,0,0,6,6,6,0,0,0,0,,,,,,,,,,,,,,,,,,,,,,,,,,,,,,,,,,,,,,,,,,,,,,,,,,,,,,,,,,,,,,,1417.7541828929989,None,1417.7541828929989,None,1417.7541828929989,None,h,1,0.820212263999565,1419.2372072090002,None,1419.2372072090002,None,1419.2372072090002,None,1420.121028951,None,1420.121028951,None,1420.121028951,None,1420.121028951,None,,,,,,,,,,,,,,,,,,,,,,,,,,,,,,,,,,,,,,,,,,,,001,106,2020_Feb_11_1143,spring_faces,3.1.5,59.98600490491215,
condition files/Stage0b_1.xlsx,0b,none,beta,g,"['h', 'g']","['Chess', 'Go']","[-0.15, 0.5]","[0.15, 0.5]",0,1,0,6,6,6,0,1,1,1,,,,,,,,,,,,,,,,,,,,,,,,,,,,,,,,,,,,,,,,,,,,,,,,,,,,,,,,,,,,,,,1422.087235301,None,1422.087235301,None,1422.087235301,None,g,1,1.2999653820006642,1423.6374315190005,None,1423.6374315190005,None,1423.6374315190005,None,1424.9929929579994,None,1424.9929929579994,None,1424.9929929579994,None,1424.9929929579994,None,,,,,,,,,,,,,,,,,,,,,,,,,,,,,,,,,,,,,,,,,,,,001,106,2020_Feb_11_1143,spring_faces,3.1.5,59.98600490491215,
condition files/Stage0b_2.xlsx,0b,none,alpha,h,"['h', 'g']","['Chess', 'Go']","[-0.15, 0.5]","[0.15, 0.5]",0,1,0,7,7,7,0,0,0,0,,,,,,,,,,,,,,,,,,,,,,,,,,,,,,,,,,,,,,,,,,,,,,,,,,,,,,,,,,,,,,,1427.003894387999,None,1427.003894387999,None,1427.003894387999,None,h,1,0.7209623310009192,1428.504466896,None,1428.504466896,None,1428.504466896,None,1429.2885418860005,None,1429.2885418860005,None,1429.2885418860005,None,1429.2885418860005,None,,,,,,,,,,,,,,,,,,,,,,,,,,,,,,,,,,,,,,,,,,,,001,106,2020_Feb_11_1143,spring_faces,3.1.5,59.98600490491215,
condition files/Stage0b_2.xlsx,0b,beta,none,g,"['h', 'g']","['Chess', 'Go']","[-0.15, 0.5]","[0.15, 0.5]",1,0,0,7,7,7,0,1,1,1,,,,,,,,,,,,,,,,,,,,,,,,,,,,,,,,,,,,,,,,,,,,,,,,,,,,,,,,,,,,,,,1431.25400841,None,1431.25400841,None,1431.25400841,None,g,1,0.9438376580001204,1432.7935453329992,None,1432.7935453329992,None,1432.7935453329992,None,1433.792699927999,None,1433.792699927999,None,1433.792699927999,None,1433.792699927999,None,,,,,,,,,,,,,,,,,,,,,,,,,,,,,,,,,,,,,,,,,,,,001,106,2020_Feb_11_1143,spring_faces,3.1.5,59.98600490491215,
condition files/Stage0b_1.xlsx,0b,alpha,none,h,"['h', 'g']","['Chess', 'Go']","[-0.15, 0.5]","[0.15, 0.5]",1,0,0,8,8,8,0,0,0,0,,,,,,,,,,,,,,,,,,,,,,,,,,,,,,,,,,,,,,,,,,,,,,,,,,,,,,,,,,,,,,,1435.7710891980005,None,1435.7710891980005,None,1435.7710891980005,None,h,1,0.6578258010013087,1437.303633001,None,1437.303633001,None,1437.303633001,None,1438.0202690179995,None,1438.0202690179995,None,1438.0202690179995,None,1438.0202690179995,None,,,,,,,,,,,,,,,,,,,,,,,,,,,,,,,,,,,,,,,,,,,,001,106,2020_Feb_11_1143,spring_faces,3.1.5,59.98600490491215,
condition files/Stage0b_1.xlsx,0b,none,beta,g,"['h', 'g']","['Chess', 'Go']","[-0.15, 0.5]","[0.15, 0.5]",0,1,0,8,8,8,0,1,1,1,,,,,,,,,,,,,,,,,,,,,,,,,,,,,,,,,,,,,,,,,,,,,,,,,,,,,,,,,,,,,,,1439.987336221,None,1439.987336221,None,1439.987336221,None,g,1,0.9998966490002203,1441.5374965270003,None,1441.5374965270003,None,1441.5374965270003,None,1442.5930636600006,None,1442.5930636600006,None,1442.5930636600006,None,1442.5930636600006,None,,,,,,,,,,,,,,,,,,,,,,,,,,,,,,,,,,,,,,,,,,,,001,106,2020_Feb_11_1143,spring_faces,3.1.5,59.98600490491215,
condition files/Stage0b_2.xlsx,0b,none,alpha,h,"['h', 'g']","['Chess', 'Go']","[-0.15, 0.5]","[0.15, 0.5]",0,1,0,9,9,9,0,0,0,0,,,,,,,,,,,,,,,,,,,,,,,,,,,,,,,,,,,,,,,,,,,,,,,,,,,,,,,,,,,,,,,1444.570941213,None,1444.570941213,None,1444.570941213,None,h,1,0.5618210609991365,1446.1035719089996,None,1446.1035719089996,None,1446.1035719089996,None,1446.7204276350003,None,1446.7204276350003,None,1446.7204276350003,None,1446.7204276350003,None,,,,,,,,,,,,,,,,,,,,,,,,,,,,,,,,,,,,,,,,,,,,001,106,2020_Feb_11_1143,spring_faces,3.1.5,59.98600490491215,
condition files/Stage0b_2.xlsx,0b,beta,none,g,"['h', 'g']","['Chess', 'Go']","[-0.15, 0.5]","[0.15, 0.5]",1,0,0,9,9,9,0,1,1,1,,,,,,,,,,,,,,,,,,,,,,,,,,,,,,,,,,,,,,,,,,,,,,,,,,,,,,,,,,,,,,,1448.6873572109998,None,1448.6873572109998,None,1448.6873572109998,None,g,1,0.7963995059999434,1450.2369977130002,None,1450.2369977130002,None,1450.2369977130002,None,1451.0922046289998,None,1451.0922046289998,None,1451.0922046289998,None,1451.0922046289998,None,,,,,,,,,,,,,,,,,,,,,,,,,,,,,,,,,,,,,,,,,,,,001,106,2020_Feb_11_1143,spring_faces,3.1.5,59.98600490491215,
condition files/Stage0b_1.xlsx,0b,none,beta,g,"['h', 'g']","['Chess', 'Go']","[-0.15, 0.5]","[0.15, 0.5]",0,1,0,10,10,10,0,0,0,1,,,,,,,,,,,,,,,,,,,,,,,,,,,,,,,,,,,,,,,,,,,,,,,,,,,,,,,,,,,,,,,1453.0711819589997,None,1453.0711819589997,None,1453.0711819589997,None,g,1,0.715803703000347,1454.605549983,None,1454.605549983,None,1454.605549983,None,1455.3876136189992,None,1455.3876136189992,None,1455.3876136189992,None,1455.3876136189992,None,,,,,,,,,,,,,,,,,,,,,,,,,,,,,,,,,,,,,,,,,,,,001,106,2020_Feb_11_1143,spring_faces,3.1.5,59.98600490491215,
condition files/Stage0b_1.xlsx,0b,alpha,none,h,"['h', 'g']","['Chess', 'Go']","[-0.15, 0.5]","[0.15, 0.5]",1,0,0,10,10,10,0,1,1,0,,,,,,,,,,,,,,,,,,,,,,,,,,,,,,,,,,,,,,,,,,,,,,,,,,,,,,,,,,,,,,,1457.354125157999,None,1457.354125157999,None,1457.354125157999,None,h,1,0.6421248639999249,1458.8873520069992,None,1458.8873520069992,None,1458.8873520069992,None,1459.5898563779992,None,1459.5898563779992,None,1459.5898563779992,None,1459.5898563779992,None,,,,,,,,,,,,,,,,,,,,,,,,,,,,,,,,,,,,,,,,,,,,001,106,2020_Feb_11_1143,spring_faces,3.1.5,59.98600490491215,
condition files/Stage0b_2.xlsx,0b,none,alpha,h,"['h', 'g']","['Chess', 'Go']","[-0.15, 0.5]","[0.15, 0.5]",0,1,0,11,11,11,0,0,0,0,,,,,,,,,,,,,,,,,,,,,,,,,,,,,,,,,,,,,,,,,,,,,,,,,,,,,,,,,,,,,,,1461.570732962,None,1461.570732962,None,1461.570732962,None,h,1,0.6942725640001299,1463.1070917630004,None,1463.1070917630004,None,1463.1070917630004,None,1463.854336986,None,1463.854336986,None,1463.854336986,None,1463.854336986,None,,,,,,,,,,,,,,,,,,,,,,,,,,,,,,,,,,,,,,,,,,,,001,106,2020_Feb_11_1143,spring_faces,3.1.5,59.98600490491215,
condition files/Stage0b_2.xlsx,0b,beta,none,g,"['h', 'g']","['Chess', 'Go']","[-0.15, 0.5]","[0.15, 0.5]",1,0,0,11,11,11,0,1,1,1,,,,,,,,,,,,,,,,,,,,,,,,,,,,,,,,,,,,,,,,,,,,,,,,,,,,,,,,,,,,,,,1465.8207915130006,None,1465.8207915130006,None,1465.8207915130006,None,g,1,0.6193029149999347,1467.358028880999,None,1467.358028880999,None,1467.358028880999,None,1468.0388927639997,None,1468.0388927639997,None,1468.0388927639997,None,1468.0388927639997,None,,,,,,,,,,,,,,,,,,,,,,,,,,,,,,,,,,,,,,,,,,,,001,106,2020_Feb_11_1143,spring_faces,3.1.5,59.98600490491215,
condition files/Stage0c_1.xlsx,0c,alpha,phi,h,"['h', 'g']","['Chess', 'Go']","[-0.15, 0.5]","[0.15, 0.5]",1,1,0,12,12,12,0,0,0,1,,,,,,,,,,,,,,,,,,,,,,,,,,,,,,,,,,,,,,,,,,,,,,,,,,,,,,,,,,,,,,,1470.0709653880003,None,1470.0709653880003,None,1470.0709653880003,None,g,0,1.9414239980014827,1471.5880584349998,None,1471.5880584349998,None,1471.5880584349998,None,1473.587085149,None,1473.587085149,None,1473.587085149,None,1473.587085149,None,,,,,,,,,,,,,,,,,,,,,,,,,,,,,,,,,,,,,,,,,,,,001,106,2020_Feb_11_1143,spring_faces,3.1.5,59.98600490491215,
condition files/Stage0c_1.xlsx,0c,theta,alpha,h,"['h', 'g']","['Chess', 'Go']","[-0.15, 0.5]","[0.15, 0.5]",1,1,0,12,12,12,0,1,1,0,,,,,,,,,,,,,,,,,,,,,,,,,,,,,,,,,,,,,,,,,,,,,,,,,,,,,,,,,,,,,,,1475.554016778,None,1475.554016778,None,1475.554016778,None,h,1,1.0809596210001473,1477.1204330019991,None,1477.1204330019991,None,1477.1204330019991,None,1478.2542671970004,None,1478.2542671970004,None,1478.2542671970004,None,1478.2542671970004,None,,,,,,,,,,,,,,,,,,,,,,,,,,,,,,,,,,,,,,,,,,,,001,106,2020_Feb_11_1143,spring_faces,3.1.5,59.98600490491215,
condition files/Stage0c_1.xlsx,0c,phi,beta,g,"['h', 'g']","['Chess', 'Go']","[-0.15, 0.5]","[0.15, 0.5]",1,1,0,12,12,12,0,2,2,3,,,,,,,,,,,,,,,,,,,,,,,,,,,,,,,,,,,,,,,,,,,,,,,,,,,,,,,,,,,,,,,1480.2207264150002,None,1480.2207264150002,None,1480.2207264150002,None,g,1,0.9756339839987049,1481.7538212210002,None,1481.7538212210002,None,1481.7538212210002,None,1482.787727817,None,1482.787727817,None,1482.787727817,None,1482.787727817,None,,,,,,,,,,,,,,,,,,,,,,,,,,,,,,,,,,,,,,,,,,,,001,106,2020_Feb_11_1143,spring_faces,3.1.5,59.98600490491215,
condition files/Stage0c_1.xlsx,0c,beta,theta,g,"['h', 'g']","['Chess', 'Go']","[-0.15, 0.5]","[0.15, 0.5]",1,1,0,12,12,12,0,3,3,2,,,,,,,,,,,,,,,,,,,,,,,,,,,,,,,,,,,,,,,,,,,,,,,,,,,,,,,,,,,,,,,1484.753521101,None,1484.753521101,None,1484.753521101,None,g,1,1.225743295999564,1486.2877626209993,None,1486.2877626209993,None,1486.2877626209993,None,1487.554602139,None,1487.554602139,None,1487.554602139,None,1487.554602139,None,,,,,,,,,,,,,,,,,,,,,,,,,,,,,,,,,,,,,,,,,,,,001,106,2020_Feb_11_1143,spring_faces,3.1.5,59.98600490491215,
condition files/Stage0c_2.xlsx,0c,alpha,theta,h,"['h', 'g']","['Chess', 'Go']","[-0.15, 0.5]","[0.15, 0.5]",1,1,0,13,13,13,0,0,0,0,,,,,,,,,,,,,,,,,,,,,,,,,,,,,,,,,,,,,,,,,,,,,,,,,,,,,,,,,,,,,,,1489.5872951389993,None,1489.5872951389993,None,1489.5872951389993,None,h,1,1.5462205830008315,1491.087169946999,None,1491.087169946999,None,1491.087169946999,None,1492.6876175429989,None,1492.6876175429989,None,1492.6876175429989,None,1492.6876175429989,None,,,,,,,,,,,,,,,,,,,,,,,,,,,,,,,,,,,,,,,,,,,,001,106,2020_Feb_11_1143,spring_faces,3.1.5,59.98600490491215,
condition files/Stage0c_2.xlsx,0c,phi,alpha,h,"['h', 'g']","['Chess', 'Go']","[-0.15, 0.5]","[0.15, 0.5]",1,1,0,13,13,13,0,1,1,1,,,,,,,,,,,,,,,,,,,,,,,,,,,,,,,,,,,,,,,,,,,,,,,,,,,,,,,,,,,,,,,1494.6542025569997,None,1494.6542025569997,None,1494.6542025569997,None,h,1,1.006203518001712,1496.1871988549992,None,1496.1871988549992,None,1496.1871988549992,None,1497.2382827029996,None,1497.2382827029996,None,1497.2382827029996,None,1497.2382827029996,None,,,,,,,,,,,,,,,,,,,,,,,,,,,,,,,,,,,,,,,,,,,,001,106,2020_Feb_11_1143,spring_faces,3.1.5,59.98600490491215,
condition files/Stage0c_2.xlsx,0c,theta,beta,g,"['h', 'g']","['Chess', 'Go']","[-0.15, 0.5]","[0.15, 0.5]",1,1,0,13,13,13,0,2,2,2,,,,,,,,,,,,,,,,,,,,,,,,,,,,,,,,,,,,,,,,,,,,,,,,,,,,,,,,,,,,,,,1499.2206848229998,None,1499.2206848229998,None,1499.2206848229998,None,g,1,1.0790257070002554,1500.7543346679995,None,1500.7543346679995,None,1500.7543346679995,None,1501.8873278720002,None,1501.8873278720002,None,1501.8873278720002,None,1501.8873278720002,None,,,,,,,,,,,,,,,,,,,,,,,,,,,,,,,,,,,,,,,,,,,,001,106,2020_Feb_11_1143,spring_faces,3.1.5,59.98600490491215,
condition files/Stage0c_2.xlsx,0c,beta,phi,g,"['h', 'g']","['Chess', 'Go']","[-0.15, 0.5]","[0.15, 0.5]",1,1,0,13,13,13,0,3,3,3,,,,,,,,,,,,,,,,,,,,,,,,,,,,,,,,,,,,,,,,,,,,,,,,,,,,,,,,,,,,,,,1503.8535303200006,None,1503.8535303200006,None,1503.8535303200006,None,h,0,0.9257294039998669,1505.3877638689992,None,1505.3877638689992,None,1505.3877638689992,None,1506.3544497620005,None,1506.3544497620005,None,1506.3544497620005,None,1506.3544497620005,None,,,,,,,,,,,,,,,,,,,,,,,,,,,,,,,,,,,,,,,,,,,,001,106,2020_Feb_11_1143,spring_faces,3.1.5,59.98600490491215,
condition files/Stage0c_1.xlsx,0c,phi,beta,g,"['h', 'g']","['Chess', 'Go']","[-0.15, 0.5]","[0.15, 0.5]",1,1,0,14,14,14,0,0,0,3,,,,,,,,,,,,,,,,,,,,,,,,,,,,,,,,,,,,,,,,,,,,,,,,,,,,,,,,,,,,,,,1508.3538299939992,None,1508.3538299939992,None,1508.3538299939992,None,g,1,0.8419444149985793,1509.8875210080005,None,1509.8875210080005,None,1509.8875210080005,None,1510.772389803,None,1510.772389803,None,1510.772389803,None,1510.772389803,None,,,,,,,,,,,,,,,,,,,,,,,,,,,,,,,,,,,,,,,,,,,,001,106,2020_Feb_11_1143,spring_faces,3.1.5,59.98600490491215,
condition files/Stage0c_1.xlsx,0c,beta,theta,g,"['h', 'g']","['Chess', 'Go']","[-0.15, 0.5]","[0.15, 0.5]",1,1,0,14,14,14,0,1,1,2,,,,,,,,,,,,,,,,,,,,,,,,,,,,,,,,,,,,,,,,,,,,,,,,,,,,,,,,,,,,,,,1512.7538020890006,None,1512.7538020890006,None,1512.7538020890006,None,g,1,0.7934953430012683,1514.287900248999,None,1514.287900248999,None,1514.287900248999,None,1515.1212534869992,None,1515.1212534869992,None,1515.1212534869992,None,1515.1212534869992,None,,,,,,,,,,,,,,,,,,,,,,,,,,,,,,,,,,,,,,,,,,,,001,106,2020_Feb_11_1143,spring_faces,3.1.5,59.98600490491215,
condition files/Stage0c_1.xlsx,0c,alpha,phi,h,"['h', 'g']","['Chess', 'Go']","[-0.15, 0.5]","[0.15, 0.5]",1,1,0,14,14,14,0,2,2,1,,,,,,,,,,,,,,,,,,,,,,,,,,,,,,,,,,,,,,,,,,,,,,,,,,,,,,,,,,,,,,,1517.1039808740006,None,1517.1039808740006,None,1517.1039808740006,None,h,1,0.8916192540000338,1518.6378326449994,None,1518.6378326449994,None,1518.6378326449994,None,1519.5876217860005,None,1519.5876217860005,None,1519.5876217860005,None,1519.5876217860005,None,,,,,,,,,,,,,,,,,,,,,,,,,,,,,,,,,,,,,,,,,,,,001,106,2020_Feb_11_1143,spring_faces,3.1.5,59.98600490491215,
condition files/Stage0c_1.xlsx,0c,theta,alpha,h,"['h', 'g']","['Chess', 'Go']","[-0.15, 0.5]","[0.15, 0.5]",1,1,0,14,14,14,0,3,3,0,,,,,,,,,,,,,,,,,,,,,,,,,,,,,,,,,,,,,,,,,,,,,,,,,,,,,,,,,,,,,,,1521.553784505999,None,1521.553784505999,None,1521.553784505999,None,h,1,1.0337717689999408,1523.0876141200006,None,1523.0876141200006,None,1523.0876141200006,None,1524.1878459569998,None,1524.1878459569998,None,1524.1878459569998,None,1524.1878459569998,None,,,,,,,,,,,,,,,,,,,,,,,,,,,,,,,,,,,,,,,,,,,,001,106,2020_Feb_11_1143,spring_faces,3.1.5,59.98600490491215,
condition files/Stage0c_2.xlsx,0c,beta,phi,g,"['h', 'g']","['Chess', 'Go']","[-0.15, 0.5]","[0.15, 0.5]",1,1,0,15,15,15,0,0,0,3,,,,,,,,,,,,,,,,,,,,,,,,,,,,,,,,,,,,,,,,,,,,,,,,,,,,,,,,,,,,,,,1526.1707809609998,None,1526.1707809609998,None,1526.1707809609998,None,g,1,1.3769416909999563,1527.7045279350004,None,1527.7045279350004,None,1527.7045279350004,None,1529.137580401999,None,1529.137580401999,None,1529.137580401999,None,1529.137580401999,None,,,,,,,,,,,,,,,,,,,,,,,,,,,,,,,,,,,,,,,,,,,,001,106,2020_Feb_11_1143,spring_faces,3.1.5,59.98600490491215,
condition files/Stage0c_2.xlsx,0c,phi,alpha,h,"['h', 'g']","['Chess', 'Go']","[-0.15, 0.5]","[0.15, 0.5]",1,1,0,15,15,15,0,1,1,1,,,,,,,,,,,,,,,,,,,,,,,,,,,,,,,,,,,,,,,,,,,,,,,,,,,,,,,,,,,,,,,1531.1033916289998,None,1531.1033916289998,None,1531.1033916289998,None,h,1,0.7796667799993884,1532.6377355860004,None,1532.6377355860004,None,1532.6377355860004,None,1533.4706285329994,None,1533.4706285329994,None,1533.4706285329994,None,1533.4706285329994,None,,,,,,,,,,,,,,,,,,,,,,,,,,,,,,,,,,,,,,,,,,,,001,106,2020_Feb_11_1143,spring_faces,3.1.5,59.98600490491215,
condition files/Stage0c_2.xlsx,0c,theta,beta,g,"['h', 'g']","['Chess', 'Go']","[-0.15, 0.5]","[0.15, 0.5]",1,1,0,15,15,15,0,2,2,2,,,,,,,,,,,,,,,,,,,,,,,,,,,,,,,,,,,,,,,,,,,,,,,,,,,,,,,,,,,,,,,1535.437525636,None,1535.437525636,None,1535.437525636,None,g,1,0.9107719889998407,1536.970688505,None,1536.970688505,None,1536.970688505,None,1537.937955898,None,1537.937955898,None,1537.937955898,None,1537.937955898,None,,,,,,,,,,,,,,,,,,,,,,,,,,,,,,,,,,,,,,,,,,,,001,106,2020_Feb_11_1143,spring_faces,3.1.5,59.98600490491215,
condition files/Stage0c_2.xlsx,0c,alpha,theta,h,"['h', 'g']","['Chess', 'Go']","[-0.15, 0.5]","[0.15, 0.5]",1,1,0,15,15,15,0,3,3,0,,,,,,,,,,,,,,,,,,,,,,,,,,,,,,,,,,,,,,,,,,,,,,,,,,,,,,,,,,,,,,,1539.9033397130006,None,1539.9033397130006,None,1539.9033397130006,None,h,1,1.0037301070005924,1541.437679151999,None,1541.437679151999,None,1541.437679151999,None,1542.5044014760006,None,1542.5044014760006,None,1542.5044014760006,None,1542.5044014760006,None,,,,,,,,,,,,,,,,,,,,,,,,,,,,,,,,,,,,,,,,,,,,001,106,2020_Feb_11_1143,spring_faces,3.1.5,59.98600490491215,
condition files/Stage0c_1.xlsx,0c,beta,theta,g,"['h', 'g']","['Chess', 'Go']","[-0.15, 0.5]","[0.15, 0.5]",1,1,0,16,16,16,0,0,0,2,,,,,,,,,,,,,,,,,,,,,,,,,,,,,,,,,,,,,,,,,,,,,,,,,,,,,,,,,,,,,,,1544.4873200040001,None,1544.4873200040001,None,1544.4873200040001,None,g,1,0.788456631000372,1546.0209612769995,None,1546.0209612769995,None,1546.0209612769995,None,1546.8714114279992,None,1546.8714114279992,None,1546.8714114279992,None,1546.8714114279992,None,,,,,,,,,,,,,,,,,,,,,,,,,,,,,,,,,,,,,,,,,,,,001,106,2020_Feb_11_1143,spring_faces,3.1.5,59.98600490491215,
condition files/Stage0c_1.xlsx,0c,theta,alpha,h,"['h', 'g']","['Chess', 'Go']","[-0.15, 0.5]","[0.15, 0.5]",1,1,0,16,16,16,0,1,1,0,,,,,,,,,,,,,,,,,,,,,,,,,,,,,,,,,,,,,,,,,,,,,,,,,,,,,,,,,,,,,,,1548.8375911860003,None,1548.8375911860003,None,1548.8375911860003,None,h,1,0.8225154209994798,1550.3708887150005,None,1550.3708887150005,None,1550.3708887150005,None,1551.2541992869992,None,1551.2541992869992,None,1551.2541992869992,None,1551.2541992869992,None,,,,,,,,,,,,,,,,,,,,,,,,,,,,,,,,,,,,,,,,,,,,001,106,2020_Feb_11_1143,spring_faces,3.1.5,59.98600490491215,
condition files/Stage0c_1.xlsx,0c,alpha,phi,h,"['h', 'g']","['Chess', 'Go']","[-0.15, 0.5]","[0.15, 0.5]",1,1,0,16,16,16,0,2,2,1,,,,,,,,,,,,,,,,,,,,,,,,,,,,,,,,,,,,,,,,,,,,,,,,,,,,,,,,,,,,,,,1553.2206851299998,None,1553.2206851299998,None,1553.2206851299998,None,h,1,0.8869096870002977,1554.754501264999,None,1554.754501264999,None,1554.754501264999,None,1555.6892696769992,None,1555.6892696769992,None,1555.6892696769992,None,1555.6892696769992,None,,,,,,,,,,,,,,,,,,,,,,,,,,,,,,,,,,,,,,,,,,,,001,106,2020_Feb_11_1143,spring_faces,3.1.5,59.98600490491215,
condition files/Stage0c_1.xlsx,0c,phi,beta,g,"['h', 'g']","['Chess', 'Go']","[-0.15, 0.5]","[0.15, 0.5]",1,1,0,16,16,16,0,3,3,3,,,,,,,,,,,,,,,,,,,,,,,,,,,,,,,,,,,,,,,,,,,,,,,,,,,,,,,,,,,,,,,1557.6706459279994,None,1557.6706459279994,None,1557.6706459279994,None,g,1,0.9973285399992164,1559.2040764840003,None,1559.2040764840003,None,1559.2040764840003,None,1560.2545531369997,None,1560.2545531369997,None,1560.2545531369997,None,1560.2545531369997,None,,,,,,,,,,,,,,,,,,,,,,,,,,,,,,,,,,,,,,,,,,,,001,106,2020_Feb_11_1143,spring_faces,3.1.5,59.98600490491215,
condition files/Stage0c_2.xlsx,0c,alpha,theta,h,"['h', 'g']","['Chess', 'Go']","[-0.15, 0.5]","[0.15, 0.5]",1,1,0,17,17,17,0,0,0,0,,,,,,,,,,,,,,,,,,,,,,,,,,,,,,,,,,,,,,,,,,,,,,,,,,,,,,,,,,,,,,,1562.237649535,None,1562.237649535,None,1562.237649535,None,h,1,0.9905247180013248,1563.7709525369992,None,1563.7709525369992,None,1563.7709525369992,None,1564.8209722930005,None,1564.8209722930005,None,1564.8209722930005,None,1564.8209722930005,None,,,,,,,,,,,,,,,,,,,,,,,,,,,,,,,,,,,,,,,,,,,,001,106,2020_Feb_11_1143,spring_faces,3.1.5,59.98600490491215,
condition files/Stage0c_2.xlsx,0c,phi,alpha,h,"['h', 'g']","['Chess', 'Go']","[-0.15, 0.5]","[0.15, 0.5]",1,1,0,17,17,17,0,1,1,1,,,,,,,,,,,,,,,,,,,,,,,,,,,,,,,,,,,,,,,,,,,,,,,,,,,,,,,,,,,,,,,1566.7873385540006,None,1566.7873385540006,None,1566.7873385540006,None,h,1,0.9687700599988602,1568.3206431859999,None,1568.3206431859999,None,1568.3206431859999,None,1569.3370259469993,None,1569.3370259469993,None,1569.3370259469993,None,1569.3370259469993,None,,,,,,,,,,,,,,,,,,,,,,,,,,,,,,,,,,,,,,,,,,,,001,106,2020_Feb_11_1143,spring_faces,3.1.5,59.98600490491215,
condition files/Stage0c_2.xlsx,0c,theta,beta,g,"['h', 'g']","['Chess', 'Go']","[-0.15, 0.5]","[0.15, 0.5]",1,1,0,17,17,17,0,2,2,2,,,,,,,,,,,,,,,,,,,,,,,,,,,,,,,,,,,,,,,,,,,,,,,,,,,,,,,,,,,,,,,1571.3207133239994,None,1571.3207133239994,None,1571.3207133239994,None,g,1,0.8512812509998184,1572.854056492999,None,1572.854056492999,None,1572.854056492999,None,1573.7708826449998,None,1573.7708826449998,None,1573.7708826449998,None,1573.7708826449998,None,,,,,,,,,,,,,,,,,,,,,,,,,,,,,,,,,,,,,,,,,,,,001,106,2020_Feb_11_1143,spring_faces,3.1.5,59.98600490491215,
condition files/Stage0c_2.xlsx,0c,beta,phi,g,"['h', 'g']","['Chess', 'Go']","[-0.15, 0.5]","[0.15, 0.5]",1,1,0,17,17,17,0,3,3,3,,,,,,,,,,,,,,,,,,,,,,,,,,,,,,,,,,,,,,,,,,,,,,,,,,,,,,,,,,,,,,,1575.7374184050004,None,1575.7374184050004,None,1575.7374184050004,None,g,1,0.9144245790012064,1577.2709699499992,None,1577.2709699499992,None,1577.2709699499992,None,1578.2212283850004,None,1578.2212283850004,None,1578.2212283850004,None,1578.2212283850004,None,,,,,,,,,,,,,,,,,,,,,,,,,,,,,,,,,,,,,,,,,,,,001,106,2020_Feb_11_1143,spring_faces,3.1.5,59.98600490491215,
,,,,,,,,,,,,,,,,,,,,,,,,,,,,,,,,,,,,,,,,,,,,,,,,,,,,,,,,,,,,,,,,,,,,,,,,,,,,,,,,,,,,,,,,,,,,,,,,,,,,,,,,1580.2211527130003,None,space,1.8285543980000512,1585.2208683520003,None,,,,,,,,,,,,,,,,,,,,,,,,,,,,,,,,,,,,,,001,106,2020_Feb_11_1143,spring_faces,3.1.5,59.98600490491215,
condition files/Stage1_1.xlsx,,B4,T4,m,"['c', 'm']","['Clue', 'Monopoly']","[-0.15, 0.5]","[0.15, 0.5]",1,1,,,,,,,,,0,0,0,0,0,0,0,7,,,,,,,,,,,,,,,,,,,,,,,,,,,,,,,,,,,,,,,,,,,,,,,,,,,,,,,1587.1709048960001,None,1587.1709048960001,None,1587.1709048960001,None,c,0,1.8021014719997765,1588.671304739999,None,1588.671304739999,None,1588.671304739999,None,1590.5553799089994,None,1590.5553799089994,None,1590.5553799089994,None,1590.5553799089994,None,,,,,,,1585.2208683520003,None,,,,,,,,,,,,,,,,,,,,,,,,,,,,,,,,,,,,001,106,2020_Feb_11_1143,spring_faces,3.1.5,59.98600490491215,
condition files/Stage1_1.xlsx,,T1,B1,c,"['c', 'm']","['Clue', 'Monopoly']","[-0.15, 0.5]","[0.15, 0.5]",1,1,,,,,,,,,0,0,0,0,0,1,1,0,,,,,,,,,,,,,,,,,,,,,,,,,,,,,,,,,,,,,,,,,,,,,,,,,,,,,,,1592.504077624999,None,1592.504077624999,None,1592.504077624999,None,c,1,1.202291024999795,1594.087127937999,None,1594.087127937999,None,1594.087127937999,None,1595.3702522759995,None,1595.3702522759995,None,1595.3702522759995,None,1595.3702522759995,None,,,,,,,,,,,,,,,,,,,,,,,,,,,,,,,,,,,,,,,,,,,,001,106,2020_Feb_11_1143,spring_faces,3.1.5,59.98600490491215,
condition files/Stage1_1.xlsx,,T2,B2,m,"['c', 'm']","['Clue', 'Monopoly']","[-0.15, 0.5]","[0.15, 0.5]",1,1,,,,,,,,,0,0,0,0,0,2,2,3,,,,,,,,,,,,,,,,,,,,,,,,,,,,,,,,,,,,,,,,,,,,,,,,,,,,,,,1597.320706118,None,1597.320706118,None,1597.320706118,None,m,1,1.072699508000369,1598.9047651170004,None,1598.9047651170004,None,1598.9047651170004,None,1600.037845335999,None,1600.037845335999,None,1600.037845335999,None,1600.037845335999,None,,,,,,,,,,,,,,,,,,,,,,,,,,,,,,,,,,,,,,,,,,,,001,106,2020_Feb_11_1143,spring_faces,3.1.5,59.98600490491215,
condition files/Stage1_1.xlsx,,B2,T1,m,"['c', 'm']","['Clue', 'Monopoly']","[-0.15, 0.5]","[0.15, 0.5]",1,1,,,,,,,,,0,0,0,0,0,3,3,2,,,,,,,,,,,,,,,,,,,,,,,,,,,,,,,,,,,,,,,,,,,,,,,,,,,,,,,1602.0040467649997,None,1602.0040467649997,None,1602.0040467649997,None,m,1,1.27189906500098,1603.5375303330002,None,1603.5375303330002,None,1603.5375303330002,None,1604.8702660889994,None,1604.8702660889994,None,1604.8702660889994,None,1604.8702660889994,None,,,,,,,,,,,,,,,,,,,,,,,,,,,,,,,,,,,,,,,,,,,,001,106,2020_Feb_11_1143,spring_faces,3.1.5,59.98600490491215,
condition files/Stage1_1.xlsx,,T3,B4,c,"['c', 'm']","['Clue', 'Monopoly']","[-0.15, 0.5]","[0.15, 0.5]",1,1,,,,,,,,,0,0,0,0,0,4,4,5,,,,,,,,,,,,,,,,,,,,,,,,,,,,,,,,,,,,,,,,,,,,,,,,,,,,,,,1606.836877747999,None,1606.836877747999,None,1606.836877747999,None,c,1,0.9987552570000844,1608.3706432489998,None,1608.3706432489998,None,1608.3706432489998,None,1609.4208708179995,None,1609.4208708179995,None,1609.4208708179995,None,1609.4208708179995,None,,,,,,,,,,,,,,,,,,,,,,,,,,,,,,,,,,,,,,,,,,,,001,106,2020_Feb_11_1143,spring_faces,3.1.5,59.98600490491215,
condition files/Stage1_1.xlsx,,T4,B3,m,"['c', 'm']","['Clue', 'Monopoly']","[-0.15, 0.5]","[0.15, 0.5]",1,1,,,,,,,,,0,0,0,0,0,5,5,6,,,,,,,,,,,,,,,,,,,,,,,,,,,,,,,,,,,,,,,,,,,,,,,,,,,,,,,1611.3867816349994,None,1611.3867816349994,None,1611.3867816349994,None,c,0,0.9755438960000902,1612.9539114769996,None,1612.9539114769996,None,1612.9539114769996,None,1613.9880254460004,None,1613.9880254460004,None,1613.9880254460004,None,1613.9880254460004,None,,,,,,,,,,,,,,,,,,,,,,,,,,,,,,,,,,,,,,,,,,,,001,106,2020_Feb_11_1143,spring_faces,3.1.5,59.98600490491215,
condition files/Stage1_1.xlsx,,B1,T2,c,"['c', 'm']","['Clue', 'Monopoly']","[-0.15, 0.5]","[0.15, 0.5]",1,1,,,,,,,,,0,0,0,0,0,6,6,1,,,,,,,,,,,,,,,,,,,,,,,,,,,,,,,,,,,,,,,,,,,,,,,,,,,,,,,1615.9542552080002,None,1615.9542552080002,None,1615.9542552080002,None,m,0,1.0320244590002403,1617.4893564499998,None,1617.4893564499998,None,1617.4893564499998,None,1618.5880104280004,None,1618.5880104280004,None,1618.5880104280004,None,1618.5880104280004,None,,,,,,,,,,,,,,,,,,,,,,,,,,,,,,,,,,,,,,,,,,,,001,106,2020_Feb_11_1143,spring_faces,3.1.5,59.98600490491215,
condition files/Stage1_1.xlsx,,B3,T3,c,"['c', 'm']","['Clue', 'Monopoly']","[-0.15, 0.5]","[0.15, 0.5]",1,1,,,,,,,,,0,0,0,0,0,7,7,4,,,,,,,,,,,,,,,,,,,,,,,,,,,,,,,,,,,,,,,,,,,,,,,,,,,,,,,1620.554213039999,None,1620.554213039999,None,1620.554213039999,None,m,0,1.2821496410015243,1622.0872646730004,None,1622.0872646730004,None,1622.0872646730004,None,1623.4203624389993,None,1623.4203624389993,None,1623.4203624389993,None,1623.4203624389993,None,,,,,,,,,,,,,,,,,,,,,,,,,,,,,,,,,,,,,,,,,,,,001,106,2020_Feb_11_1143,spring_faces,3.1.5,59.98600490491215,
condition files/Stage1_2.xlsx,,T3,B3,c,"['c', 'm']","['Clue', 'Monopoly']","[-0.15, 0.5]","[0.15, 0.5]",1,1,,,,,,,,,0,1,1,1,0,0,0,4,,,,,,,,,,,,,,,,,,,,,,,,,,,,,,,,,,,,,,,,,,,,,,,,,,,,,,,1625.4542389109993,None,1625.4542389109993,None,1625.4542389109993,None,c,1,1.3271690700003091,1626.938226766999,None,1626.938226766999,None,1626.938226766999,None,1628.3210036239998,None,1628.3210036239998,None,1628.3210036239998,None,1628.3210036239998,None,,,,,,,,,,,,,,,,,,,,,,,,,,,,,,,,,,,,,,,,,,,,001,106,2020_Feb_11_1143,spring_faces,3.1.5,59.98600490491215,
condition files/Stage1_2.xlsx,,T4,B4,m,"['c', 'm']","['Clue', 'Monopoly']","[-0.15, 0.5]","[0.15, 0.5]",1,1,,,,,,,,,0,1,1,1,0,1,1,7,,,,,,,,,,,,,,,,,,,,,,,,,,,,,,,,,,,,,,,,,,,,,,,,,,,,,,,1630.2873549840006,None,1630.2873549840006,None,1630.2873549840006,None,m,1,1.531371996999951,1631.8220210639993,None,1631.8220210639993,None,1631.8220210639993,None,1633.4051922859999,None,1633.4051922859999,None,1633.4051922859999,None,1633.4051922859999,None,,,,,,,,,,,,,,,,,,,,,,,,,,,,,,,,,,,,,,,,,,,,001,106,2020_Feb_11_1143,spring_faces,3.1.5,59.98600490491215,
condition files/Stage1_2.xlsx,,T1,B2,m,"['c', 'm']","['Clue', 'Monopoly']","[-0.15, 0.5]","[0.15, 0.5]",1,1,,,,,,,,,0,1,1,1,0,2,2,2,,,,,,,,,,,,,,,,,,,,,,,,,,,,,,,,,,,,,,,,,,,,,,,,,,,,,,,1635.3708821359996,None,1635.3708821359996,None,1635.3708821359996,None,m,1,2.2242592290003813,1636.9212044670003,None,1636.9212044670003,None,1636.9212044670003,None,1639.203956035999,None,1639.203956035999,None,1639.203956035999,None,1639.203956035999,None,,,,,,,,,,,,,,,,,,,,,,,,,,,,,,,,,,,,,,,,,,,,001,106,2020_Feb_11_1143,spring_faces,3.1.5,59.98600490491215,
condition files/Stage1_2.xlsx,,B3,T4,m,"['c', 'm']","['Clue', 'Monopoly']","[-0.15, 0.5]","[0.15, 0.5]",1,1,,,,,,,,,0,1,1,1,0,3,3,6,,,,,,,,,,,,,,,,,,,,,,,,,,,,,,,,,,,,,,,,,,,,,,,,,,,,,,,1641.1703318,None,1641.1703318,None,1641.1703318,None,c,0,1.3843943920001038,1642.720959037999,None,1642.720959037999,None,1642.720959037999,None,1644.1703470190005,None,1644.1703470190005,None,1644.1703470190005,None,1644.1703470190005,None,,,,,,,,,,,,,,,,,,,,,,,,,,,,,,,,,,,,,,,,,,,,001,106,2020_Feb_11_1143,spring_faces,3.1.5,59.98600490491215,
condition files/Stage1_2.xlsx,,B2,T2,m,"['c', 'm']","['Clue', 'Monopoly']","[-0.15, 0.5]","[0.15, 0.5]",1,1,,,,,,,,,0,1,1,1,0,4,4,3,,,,,,,,,,,,,,,,,,,,,,,,,,,,,,,,,,,,,,,,,,,,,,,,,,,,,,,1646.137391668999,None,1646.137391668999,None,1646.137391668999,None,c,0,0.8657371820008848,1647.6876626840003,None,1647.6876626840003,None,1647.6876626840003,None,1648.604304987999,None,1648.604304987999,None,1648.604304987999,None,1648.604304987999,None,,,,,,,,,,,,,,,,,,,,,,,,,,,,,,,,,,,,,,,,,,,,001,106,2020_Feb_11_1143,spring_faces,3.1.5,59.98600490491215,
condition files/Stage1_2.xlsx,,B1,T1,c,"['c', 'm']","['Clue', 'Monopoly']","[-0.15, 0.5]","[0.15, 0.5]",1,1,,,,,,,,,0,1,1,1,0,5,5,0,,,,,,,,,,,,,,,,,,,,,,,,,,,,,,,,,,,,,,,,,,,,,,,,,,,,,,,1650.5709513040001,None,1650.5709513040001,None,1650.5709513040001,None,c,1,0.41737697099961224,1652.104014430999,None,1652.104014430999,None,1652.104014430999,None,1652.5876670489997,None,1652.5876670489997,None,1652.5876670489997,None,1652.5876670489997,None,,,,,,,,,,,,,,,,,,,,,,,,,,,,,,,,,,,,,,,,,,,,001,106,2020_Feb_11_1143,spring_faces,3.1.5,59.98600490491215,
condition files/Stage1_2.xlsx,,T2,B1,c,"['c', 'm']","['Clue', 'Monopoly']","[-0.15, 0.5]","[0.15, 0.5]",1,1,,,,,,,,,0,1,1,1,0,6,6,1,,,,,,,,,,,,,,,,,,,,,,,,,,,,,,,,,,,,,,,,,,,,,,,,,,,,,,,1654.5551987979998,None,1654.5551987979998,None,1654.5551987979998,None,m,0,4.001783047000572,1656.0875890759999,None,1656.0875890759999,None,1656.0875890759999,None,1660.1541540929993,None,1660.1541540929993,None,1660.1541540929993,None,1660.1541540929993,None,,,,,,,,,,,,,,,,,,,,,,,,,,,,,,,,,,,,,,,,,,,,001,106,2020_Feb_11_1143,spring_faces,3.1.5,59.98600490491215,
condition files/Stage1_2.xlsx,,B4,T3,c,"['c', 'm']","['Clue', 'Monopoly']","[-0.15, 0.5]","[0.15, 0.5]",1,1,,,,,,,,,0,1,1,1,0,7,7,5,,,,,,,,,,,,,,,,,,,,,,,,,,,,,,,,,,,,,,,,,,,,,,,,,,,,,,,1662.120838891,None,1662.120838891,None,1662.120838891,None,m,0,1.0593657680001343,1663.654112877999,None,1663.654112877999,None,1663.654112877999,None,1664.7710254499998,None,1664.7710254499998,None,1664.7710254499998,None,1664.7710254499998,None,,,,,,,,,,,,,,,,,,,,,,,,,,,,,,,,,,,,,,,,,,,,001,106,2020_Feb_11_1143,spring_faces,3.1.5,59.98600490491215,
condition files/Stage1_1.xlsx,,T4,B3,m,"['c', 'm']","['Clue', 'Monopoly']","[-0.15, 0.5]","[0.15, 0.5]",1,1,,,,,,,,,0,2,2,2,0,0,0,6,,,,,,,,,,,,,,,,,,,,,,,,,,,,,,,,,,,,,,,,,,,,,,,,,,,,,,,1666.7543749819997,None,1666.7543749819997,None,1666.7543749819997,None,m,1,1.0163942899998801,1668.2890002780005,None,1668.2890002780005,None,1668.2890002780005,None,1669.3876531299993,None,1669.3876531299993,None,1669.3876531299993,None,1669.3876531299993,None,,,,,,,,,,,,,,,,,,,,,,,,,,,,,,,,,,,,,,,,,,,,001,106,2020_Feb_11_1143,spring_faces,3.1.5,59.98600490491215,
condition files/Stage1_1.xlsx,,B2,T1,m,"['c', 'm']","['Clue', 'Monopoly']","[-0.15, 0.5]","[0.15, 0.5]",1,1,,,,,,,,,0,2,2,2,0,1,1,2,,,,,,,,,,,,,,,,,,,,,,,,,,,,,,,,,,,,,,,,,,,,,,,,,,,,,,,1671.337307111,None,1671.337307111,None,1671.337307111,None,c,0,1.1220981490005215,1672.8713539259988,None,1672.8713539259988,None,1672.8713539259988,None,1674.0545459309997,None,1674.0545459309997,None,1674.0545459309997,None,1674.0545459309997,None,,,,,,,,,,,,,,,,,,,,,,,,,,,,,,,,,,,,,,,,,,,,001,106,2020_Feb_11_1143,spring_faces,3.1.5,59.98600490491215,
condition files/Stage1_1.xlsx,,B4,T4,m,"['c', 'm']","['Clue', 'Monopoly']","[-0.15, 0.5]","[0.15, 0.5]",1,1,,,,,,,,,0,2,2,2,0,2,2,7,,,,,,,,,,,,,,,,,,,,,,,,,,,,,,,,,,,,,,,,,,,,,,,,,,,,,,,1676.0208424070006,None,1676.0208424070006,None,1676.0208424070006,None,c,0,0.791291026998806,1677.5541815849992,None,1677.5541815849992,None,1677.5541815849992,None,1678.4045484649996,None,1678.4045484649996,None,1678.4045484649996,None,1678.4045484649996,None,,,,,,,,,,,,,,,,,,,,,,,,,,,,,,,,,,,,,,,,,,,,001,106,2020_Feb_11_1143,spring_faces,3.1.5,59.98600490491215,
condition files/Stage1_1.xlsx,,B1,T2,c,"['c', 'm']","['Clue', 'Monopoly']","[-0.15, 0.5]","[0.15, 0.5]",1,1,,,,,,,,,0,2,2,2,0,3,3,1,,,,,,,,,,,,,,,,,,,,,,,,,,,,,,,,,,,,,,,,,,,,,,,,,,,,,,,1680.3701269100002,None,1680.3701269100002,None,1680.3701269100002,None,c,1,1.3848852170012833,1681.9045224330002,None,1681.9045224330002,None,1681.9045224330002,None,1683.3706833819997,None,1683.3706833819997,None,1683.3706833819997,None,1683.3706833819997,None,,,,,,,,,,,,,,,,,,,,,,,,,,,,,,,,,,,,,,,,,,,,001,106,2020_Feb_11_1143,spring_faces,3.1.5,59.98600490491215,
condition files/Stage1_1.xlsx,,B3,T3,c,"['c', 'm']","['Clue', 'Monopoly']","[-0.15, 0.5]","[0.15, 0.5]",1,1,,,,,,,,,0,2,2,2,0,4,4,4,,,,,,,,,,,,,,,,,,,,,,,,,,,,,,,,,,,,,,,,,,,,,,,,,,,,,,,1685.3207538879997,None,1685.3207538879997,None,1685.3207538879997,None,m,0,1.7463681789995462,1686.871076039999,None,1686.871076039999,None,1686.871076039999,None,1688.6709834129997,None,1688.6709834129997,None,1688.6709834129997,None,1688.6709834129997,None,,,,,,,,,,,,,,,,,,,,,,,,,,,,,,,,,,,,,,,,,,,,001,106,2020_Feb_11_1143,spring_faces,3.1.5,59.98600490491215,
condition files/Stage1_1.xlsx,,T2,B2,m,"['c', 'm']","['Clue', 'Monopoly']","[-0.15, 0.5]","[0.15, 0.5]",1,1,,,,,,,,,0,2,2,2,0,5,5,3,,,,,,,,,,,,,,,,,,,,,,,,,,,,,,,,,,,,,,,,,,,,,,,,,,,,,,,1690.636809001,None,1690.636809001,None,1690.636809001,None,c,0,1.6141037990000768,1692.1713186449997,None,1692.1713186449997,None,1692.1713186449997,None,1693.8386126419991,None,1693.8386126419991,None,1693.8386126419991,None,1693.8386126419991,None,,,,,,,,,,,,,,,,,,,,,,,,,,,,,,,,,,,,,,,,,,,,001,106,2020_Feb_11_1143,spring_faces,3.1.5,59.98600490491215,
condition files/Stage1_1.xlsx,,T3,B4,c,"['c', 'm']","['Clue', 'Monopoly']","[-0.15, 0.5]","[0.15, 0.5]",1,1,,,,,,,,,0,2,2,2,0,6,6,5,,,,,,,,,,,,,,,,,,,,,,,,,,,,,,,,,,,,,,,,,,,,,,,,,,,,,,,1695.8035536669995,None,1695.8035536669995,None,1695.8035536669995,None,c,1,1.6304819050001242,1697.3389306810004,None,1697.3389306810004,None,1697.3389306810004,None,1699.0220013149992,None,1699.0220013149992,None,1699.0220013149992,None,1699.0220013149992,None,,,,,,,,,,,,,,,,,,,,,,,,,,,,,,,,,,,,,,,,,,,,001,106,2020_Feb_11_1143,spring_faces,3.1.5,59.98600490491215,
condition files/Stage1_1.xlsx,,T1,B1,c,"['c', 'm']","['Clue', 'Monopoly']","[-0.15, 0.5]","[0.15, 0.5]",1,1,,,,,,,,,0,2,2,2,0,7,7,0,,,,,,,,,,,,,,,,,,,,,,,,,,,,,,,,,,,,,,,,,,,,,,,,,,,,,,,1700.9875649240003,None,1700.9875649240003,None,1700.9875649240003,None,c,1,1.5356958219999797,1702.5377222819989,None,1702.5377222819989,None,1702.5377222819989,None,1704.1372269089989,None,1704.1372269089989,None,1704.1372269089989,None,1704.1372269089989,None,,,,,,,,,,,,,,,,,,,,,,,,,,,,,,,,,,,,,,,,,,,,001,106,2020_Feb_11_1143,spring_faces,3.1.5,59.98600490491215,
condition files/Stage1_2.xlsx,,B4,T3,c,"['c', 'm']","['Clue', 'Monopoly']","[-0.15, 0.5]","[0.15, 0.5]",1,1,,,,,,,,,0,3,3,3,0,0,0,5,,,,,,,,,,,,,,,,,,,,,,,,,,,,,,,,,,,,,,,,,,,,,,,,,,,,,,,1706.1209913389994,None,1706.1209913389994,None,1706.1209913389994,None,c,1,1.4111595989998023,1707.6542381069994,None,1707.6542381069994,None,1707.6542381069994,None,1709.1210716629994,None,1709.1210716629994,None,1709.1210716629994,None,1709.1210716629994,None,,,,,,,,,,,,,,,,,,,,,,,,,,,,,,,,,,,,,,,,,,,,001,106,2020_Feb_11_1143,spring_faces,3.1.5,59.98600490491215,
condition files/Stage1_2.xlsx,,T4,B4,m,"['c', 'm']","['Clue', 'Monopoly']","[-0.15, 0.5]","[0.15, 0.5]",1,1,,,,,,,,,0,3,3,3,0,1,1,7,,,,,,,,,,,,,,,,,,,,,,,,,,,,,,,,,,,,,,,,,,,,,,,,,,,,,,,1711.0873471880004,None,1711.0873471880004,None,1711.0873471880004,None,m,1,1.6768111290002707,1712.62066169,None,1712.62066169,None,1712.62066169,None,1714.370986353999,None,1714.370986353999,None,1714.370986353999,None,1714.370986353999,None,,,,,,,,,,,,,,,,,,,,,,,,,,,,,,,,,,,,,,,,,,,,001,106,2020_Feb_11_1143,spring_faces,3.1.5,59.98600490491215,
condition files/Stage1_2.xlsx,,T3,B3,c,"['c', 'm']","['Clue', 'Monopoly']","[-0.15, 0.5]","[0.15, 0.5]",1,1,,,,,,,,,0,3,3,3,0,2,2,4,,,,,,,,,,,,,,,,,,,,,,,,,,,,,,,,,,,,,,,,,,,,,,,,,,,,,,,1716.3208518859992,None,1716.3208518859992,None,1716.3208518859992,None,c,1,1.384819481001614,1717.8565997280002,None,1717.8565997280002,None,1717.8565997280002,None,1719.304973537999,None,1719.304973537999,None,1719.304973537999,None,1719.304973537999,None,,,,,,,,,,,,,,,,,,,,,,,,,,,,,,,,,,,,,,,,,,,,001,106,2020_Feb_11_1143,spring_faces,3.1.5,59.98600490491215,
condition files/Stage1_2.xlsx,,T2,B1,c,"['c', 'm']","['Clue', 'Monopoly']","[-0.15, 0.5]","[0.15, 0.5]",1,1,,,,,,,,,0,3,3,3,0,3,3,1,,,,,,,,,,,,,,,,,,,,,,,,,,,,,,,,,,,,,,,,,,,,,,,,,,,,,,,1721.270782993999,None,1721.270782993999,None,1721.270782993999,None,c,1,1.5890018610007246,1722.804412571999,None,1722.804412571999,None,1722.804412571999,None,1724.454445301999,None,1724.454445301999,None,1724.454445301999,None,1724.454445301999,None,,,,,,,,,,,,,,,,,,,,,,,,,,,,,,,,,,,,,,,,,,,,001,106,2020_Feb_11_1143,spring_faces,3.1.5,59.98600490491215,
condition files/Stage1_2.xlsx,,B1,T1,c,"['c', 'm']","['Clue', 'Monopoly']","[-0.15, 0.5]","[0.15, 0.5]",1,1,,,,,,,,,0,3,3,3,0,4,4,0,,,,,,,,,,,,,,,,,,,,,,,,,,,,,,,,,,,,,,,,,,,,,,,,,,,,,,,1726.4206987439993,None,1726.4206987439993,None,1726.4206987439993,None,c,1,2.086739115000455,1727.9706654950005,None,1727.9706654950005,None,1727.9706654950005,None,1730.1210149519993,None,1730.1210149519993,None,1730.1210149519993,None,1730.1210149519993,None,,,,,,,,,,,,,,,,,,,,,,,,,,,,,,,,,,,,,,,,,,,,001,106,2020_Feb_11_1143,spring_faces,3.1.5,59.98600490491215,
condition files/Stage1_2.xlsx,,B2,T2,m,"['c', 'm']","['Clue', 'Monopoly']","[-0.15, 0.5]","[0.15, 0.5]",1,1,,,,,,,,,0,3,3,3,0,5,5,3,,,,,,,,,,,,,,,,,,,,,,,,,,,,,,,,,,,,,,,,,,,,,,,,,,,,,,,1732.087459884,None,1732.087459884,None,1732.087459884,None,m,1,1.4597103710002557,1733.621760857999,None,1733.621760857999,None,1733.621760857999,None,1735.1544866299992,None,1735.1544866299992,None,1735.1544866299992,None,1735.1544866299992,None,,,,,,,,,,,,,,,,,,,,,,,,,,,,,,,,,,,,,,,,,,,,001,106,2020_Feb_11_1143,spring_faces,3.1.5,59.98600490491215,
condition files/Stage1_2.xlsx,,B3,T4,m,"['c', 'm']","['Clue', 'Monopoly']","[-0.15, 0.5]","[0.15, 0.5]",1,1,,,,,,,,,0,3,3,3,0,6,6,6,,,,,,,,,,,,,,,,,,,,,,,,,,,,,,,,,,,,,,,,,,,,,,,,,,,,,,,1737.1043701010003,None,1737.1043701010003,None,1737.1043701010003,None,m,1,1.8364672209991113,1738.6369523409994,None,1738.6369523409994,None,1738.6369523409994,None,1740.537147215,None,1740.537147215,None,1740.537147215,None,1740.537147215,None,,,,,,,,,,,,,,,,,,,,,,,,,,,,,,,,,,,,,,,,,,,,001,106,2020_Feb_11_1143,spring_faces,3.1.5,59.98600490491215,
condition files/Stage1_2.xlsx,,T1,B2,m,"['c', 'm']","['Clue', 'Monopoly']","[-0.15, 0.5]","[0.15, 0.5]",1,1,,,,,,,,,0,3,3,3,0,7,7,2,,,,,,,,,,,,,,,,,,,,,,,,,,,,,,,,,,,,,,,,,,,,,,,,,,,,,,,1742.5040989299996,None,1742.5040989299996,None,1742.5040989299996,None,c,0,1.8443039989997487,1744.0371814329992,None,1744.0371814329992,None,1744.0371814329992,None,1745.9375698940003,None,1745.9375698940003,None,1745.9375698940003,None,1745.9375698940003,None,,,,,,,,,,,,,,,,,,,,,,,,,,,,,,,,,,,,,,,,,,,,001,106,2020_Feb_11_1143,spring_faces,3.1.5,59.98600490491215,
condition files/Stage1_1.xlsx,,T2,B2,m,"['c', 'm']","['Clue', 'Monopoly']","[-0.15, 0.5]","[0.15, 0.5]",1,1,,,,,,,,,0,4,4,4,0,0,0,3,,,,,,,,,,,,,,,,,,,,,,,,,,,,,,,,,,,,,,,,,,,,,,,,,,,,,,,1747.9207944369991,None,1747.9207944369991,None,1747.9207944369991,None,m,1,1.0496927969998069,1749.4556601429995,None,1749.4556601429995,None,1749.4556601429995,None,1750.571395301,None,1750.571395301,None,1750.571395301,None,1750.571395301,None,,,,,,,,,,,,,,,,,,,,,,,,,,,,,,,,,,,,,,,,,,,,001,106,2020_Feb_11_1143,spring_faces,3.1.5,59.98600490491215,
condition files/Stage1_1.xlsx,,T4,B3,m,"['c', 'm']","['Clue', 'Monopoly']","[-0.15, 0.5]","[0.15, 0.5]",1,1,,,,,,,,,0,4,4,4,0,1,1,6,,,,,,,,,,,,,,,,,,,,,,,,,,,,,,,,,,,,,,,,,,,,,,,,,,,,,,,1752.5373917689994,None,1752.5373917689994,None,1752.5373917689994,None,c,0,0.8985583740013681,1754.070854574,None,1754.070854574,None,1754.070854574,None,1755.0207453229996,None,1755.0207453229996,None,1755.0207453229996,None,1755.0207453229996,None,,,,,,,,,,,,,,,,,,,,,,,,,,,,,,,,,,,,,,,,,,,,001,106,2020_Feb_11_1143,spring_faces,3.1.5,59.98600490491215,
condition files/Stage1_1.xlsx,,T3,B4,c,"['c', 'm']","['Clue', 'Monopoly']","[-0.15, 0.5]","[0.15, 0.5]",1,1,,,,,,,,,0,4,4,4,0,2,2,5,,,,,,,,,,,,,,,,,,,,,,,,,,,,,,,,,,,,,,,,,,,,,,,,,,,,,,,1756.9875773639997,None,1756.9875773639997,None,1756.9875773639997,None,c,1,0.9425384210007905,1758.5228577500002,None,1758.5228577500002,None,1758.5228577500002,None,1759.5204535119992,None,1759.5204535119992,None,1759.5204535119992,None,1759.5204535119992,None,,,,,,,,,,,,,,,,,,,,,,,,,,,,,,,,,,,,,,,,,,,,001,106,2020_Feb_11_1143,spring_faces,3.1.5,59.98600490491215,
condition files/Stage1_1.xlsx,,B2,T1,m,"['c', 'm']","['Clue', 'Monopoly']","[-0.15, 0.5]","[0.15, 0.5]",1,1,,,,,,,,,0,4,4,4,0,3,3,2,,,,,,,,,,,,,,,,,,,,,,,,,,,,,,,,,,,,,,,,,,,,,,,,,,,,,,,1761.4875197870006,None,1761.4875197870006,None,1761.4875197870006,None,m,1,0.7485700809993432,1763.020845096,None,1763.020845096,None,1763.020845096,None,1763.8236672120001,None,1763.8236672120001,None,1763.8236672120001,None,1763.8236672120001,None,,,,,,,,,,,,,,,,,,,,,,,,,,,,,,,,,,,,,,,,,,,,001,106,2020_Feb_11_1143,spring_faces,3.1.5,59.98600490491215,
condition files/Stage1_1.xlsx,,T1,B1,c,"['c', 'm']","['Clue', 'Monopoly']","[-0.15, 0.5]","[0.15, 0.5]",1,1,,,,,,,,,0,4,4,4,0,4,4,0,,,,,,,,,,,,,,,,,,,,,,,,,,,,,,,,,,,,,,,,,,,,,,,,,,,,,,,1765.7871136459999,None,1765.7871136459999,None,1765.7871136459999,None,m,0,0.8636817429996881,1767.3377166669998,None,1767.3377166669998,None,1767.3377166669998,None,1768.2544073730005,None,1768.2544073730005,None,1768.2544073730005,None,1768.2544073730005,None,,,,,,,,,,,,,,,,,,,,,,,,,,,,,,,,,,,,,,,,,,,,001,106,2020_Feb_11_1143,spring_faces,3.1.5,59.98600490491215,
condition files/Stage1_1.xlsx,,B1,T2,c,"['c', 'm']","['Clue', 'Monopoly']","[-0.15, 0.5]","[0.15, 0.5]",1,1,,,,,,,,,0,4,4,4,0,5,5,1,,,,,,,,,,,,,,,,,,,,,,,,,,,,,,,,,,,,,,,,,,,,,,,,,,,,,,,1770.2208852820004,None,1770.2208852820004,None,1770.2208852820004,None,c,1,0.91101505000006,1771.7543385320005,None,1771.7543385320005,None,1771.7543385320005,None,1772.7210797099997,None,1772.7210797099997,None,1772.7210797099997,None,1772.7210797099997,None,,,,,,,,,,,,,,,,,,,,,,,,,,,,,,,,,,,,,,,,,,,,001,106,2020_Feb_11_1143,spring_faces,3.1.5,59.98600490491215,
condition files/Stage1_1.xlsx,,B3,T3,c,"['c', 'm']","['Clue', 'Monopoly']","[-0.15, 0.5]","[0.15, 0.5]",1,1,,,,,,,,,0,4,4,4,0,6,6,4,,,,,,,,,,,,,,,,,,,,,,,,,,,,,,,,,,,,,,,,,,,,,,,,,,,,,,,1774.6873346680004,None,1774.6873346680004,None,1774.6873346680004,None,c,1,0.9395947170014551,1776.2378741039993,None,1776.2378741039993,None,1776.2378741039993,None,1777.2375266910003,None,1777.2375266910003,None,1777.2375266910003,None,1777.2375266910003,None,,,,,,,,,,,,,,,,,,,,,,,,,,,,,,,,,,,,,,,,,,,,001,106,2020_Feb_11_1143,spring_faces,3.1.5,59.98600490491215,
condition files/Stage1_1.xlsx,,B4,T4,m,"['c', 'm']","['Clue', 'Monopoly']","[-0.15, 0.5]","[0.15, 0.5]",1,1,,,,,,,,,0,4,4,4,0,7,7,7,,,,,,,,,,,,,,,,,,,,,,,,,,,,,,,,,,,,,,,,,,,,,,,,,,,,,,,1779.2041610279994,None,1779.2041610279994,None,1779.2041610279994,None,c,0,0.6639798279993556,1780.737429626999,None,1780.737429626999,None,1780.737429626999,None,1781.455104913999,None,1781.455104913999,None,1781.455104913999,None,1781.455104913999,None,,,,,,,,,,,,,,,,,,,,,,,,,,,,,,,,,,,,,,,,,,,,001,106,2020_Feb_11_1143,spring_faces,3.1.5,59.98600490491215,
condition files/Stage1_2.xlsx,,T2,B1,c,"['c', 'm']","['Clue', 'Monopoly']","[-0.15, 0.5]","[0.15, 0.5]",1,1,,,,,,,,,0,5,5,5,0,0,0,1,,,,,,,,,,,,,,,,,,,,,,,,,,,,,,,,,,,,,,,,,,,,,,,,,,,,,,,1783.4379762749995,None,1783.4379762749995,None,1783.4379762749995,None,m,0,0.8135724439998739,1784.9718520450006,None,1784.9718520450006,None,1784.9718520450006,None,1785.8388548639996,None,1785.8388548639996,None,1785.8388548639996,None,1785.8388548639996,None,,,,,,,,,,,,,,,,,,,,,,,,,,,,,,,,,,,,,,,,,,,,001,106,2020_Feb_11_1143,spring_faces,3.1.5,59.98600490491215,
condition files/Stage1_2.xlsx,,B2,T2,m,"['c', 'm']","['Clue', 'Monopoly']","[-0.15, 0.5]","[0.15, 0.5]",1,1,,,,,,,,,0,5,5,5,0,1,1,3,,,,,,,,,,,,,,,,,,,,,,,,,,,,,,,,,,,,,,,,,,,,,,,,,,,,,,,1787.8040139019995,None,1787.8040139019995,None,1787.8040139019995,None,m,1,0.9905595250002079,1789.3389168979993,None,1789.3389168979993,None,1789.3389168979993,None,1790.404012891,None,1790.404012891,None,1790.404012891,None,1790.404012891,None,,,,,,,,,,,,,,,,,,,,,,,,,,,,,,,,,,,,,,,,,,,,001,106,2020_Feb_11_1143,spring_faces,3.1.5,59.98600490491215,
condition files/Stage1_2.xlsx,,T4,B4,m,"['c', 'm']","['Clue', 'Monopoly']","[-0.15, 0.5]","[0.15, 0.5]",1,1,,,,,,,,,0,5,5,5,0,2,2,7,,,,,,,,,,,,,,,,,,,,,,,,,,,,,,,,,,,,,,,,,,,,,,,,,,,,,,,1792.3540023780006,None,1792.3540023780006,None,1792.3540023780006,None,c,0,2.4884215140009474,1793.8890767640005,None,1793.8890767640005,None,1793.8890767640005,None,1796.4375672229999,None,1796.4375672229999,None,1796.4375672229999,None,1796.4375672229999,None,,,,,,,,,,,,,,,,,,,,,,,,,,,,,,,,,,,,,,,,,,,,001,106,2020_Feb_11_1143,spring_faces,3.1.5,59.98600490491215,
condition files/Stage1_2.xlsx,,T1,B2,m,"['c', 'm']","['Clue', 'Monopoly']","[-0.15, 0.5]","[0.15, 0.5]",1,1,,,,,,,,,0,5,5,5,0,3,3,2,,,,,,,,,,,,,,,,,,,,,,,,,,,,,,,,,,,,,,,,,,,,,,,,,,,,,,,1798.4036533679991,None,1798.4036533679991,None,1798.4036533679991,None,m,1,0.6790861670015147,1799.938370288999,None,1799.938370288999,None,1799.938370288999,None,1800.6709939899993,None,1800.6709939899993,None,1800.6709939899993,None,1800.6709939899993,None,,,,,,,,,,,,,,,,,,,,,,,,,,,,,,,,,,,,,,,,,,,,001,106,2020_Feb_11_1143,spring_faces,3.1.5,59.98600490491215,
condition files/Stage1_2.xlsx,,B4,T3,c,"['c', 'm']","['Clue', 'Monopoly']","[-0.15, 0.5]","[0.15, 0.5]",1,1,,,,,,,,,0,5,5,5,0,4,4,5,,,,,,,,,,,,,,,,,,,,,,,,,,,,,,,,,,,,,,,,,,,,,,,,,,,,,,,1802.6367929690005,None,1802.6367929690005,None,1802.6367929690005,None,c,1,1.0223906920000445,1804.1710081319998,None,1804.1710081319998,None,1804.1710081319998,None,1805.2553571579992,None,1805.2553571579992,None,1805.2553571579992,None,1805.2553571579992,None,,,,,,,,,,,,,,,,,,,,,,,,,,,,,,,,,,,,,,,,,,,,001,106,2020_Feb_11_1143,spring_faces,3.1.5,59.98600490491215,
condition files/Stage1_2.xlsx,,B1,T1,c,"['c', 'm']","['Clue', 'Monopoly']","[-0.15, 0.5]","[0.15, 0.5]",1,1,,,,,,,,,0,5,5,5,0,5,5,0,,,,,,,,,,,,,,,,,,,,,,,,,,,,,,,,,,,,,,,,,,,,,,,,,,,,,,,1807.220848077999,None,1807.220848077999,None,1807.220848077999,None,c,1,1.719550634999905,1808.753866691999,None,1808.753866691999,None,1808.753866691999,None,1810.5375478120004,None,1810.5375478120004,None,1810.5375478120004,None,1810.5375478120004,None,,,,,,,,,,,,,,,,,,,,,,,,,,,,,,,,,,,,,,,,,,,,001,106,2020_Feb_11_1143,spring_faces,3.1.5,59.98600490491215,
condition files/Stage1_2.xlsx,,B3,T4,m,"['c', 'm']","['Clue', 'Monopoly']","[-0.15, 0.5]","[0.15, 0.5]",1,1,,,,,,,,,0,5,5,5,0,6,6,6,,,,,,,,,,,,,,,,,,,,,,,,,,,,,,,,,,,,,,,,,,,,,,,,,,,,,,,1812.5042082580003,None,1812.5042082580003,None,1812.5042082580003,None,c,0,1.7478403250006522,1814.037574656999,None,1814.037574656999,None,1814.037574656999,None,1815.8372222159996,None,1815.8372222159996,None,1815.8372222159996,None,1815.8372222159996,None,,,,,,,,,,,,,,,,,,,,,,,,,,,,,,,,,,,,,,,,,,,,001,106,2020_Feb_11_1143,spring_faces,3.1.5,59.98600490491215,
condition files/Stage1_2.xlsx,,T3,B3,c,"['c', 'm']","['Clue', 'Monopoly']","[-0.15, 0.5]","[0.15, 0.5]",1,1,,,,,,,,,0,5,5,5,0,7,7,4,,,,,,,,,,,,,,,,,,,,,,,,,,,,,,,,,,,,,,,,,,,,,,,,,,,,,,,1817.8035084740004,None,1817.8035084740004,None,1817.8035084740004,None,c,1,1.0060650240011455,1819.3394142020006,None,1819.3394142020006,None,1819.3394142020006,None,1820.4205893359995,None,1820.4205893359995,None,1820.4205893359995,None,1820.4205893359995,None,,,,,,,,,,,,,,,,,,,,,,,,,,,,,,,,,,,,,,,,,,,,001,106,2020_Feb_11_1143,spring_faces,3.1.5,59.98600490491215,
condition files/Stage1_1.xlsx,,B1,T2,c,"['c', 'm']","['Clue', 'Monopoly']","[-0.15, 0.5]","[0.15, 0.5]",1,1,,,,,,,,,0,6,6,6,0,0,0,1,,,,,,,,,,,,,,,,,,,,,,,,,,,,,,,,,,,,,,,,,,,,,,,,,,,,,,,1822.3877292739999,None,1822.3877292739999,None,1822.3877292739999,None,c,1,0.8567849039991415,1823.9206989989998,None,1823.9206989989998,None,1823.9206989989998,None,1824.8375210230006,None,1824.8375210230006,None,1824.8375210230006,None,1824.8375210230006,None,,,,,,,,,,,,,,,,,,,,,,,,,,,,,,,,,,,,,,,,,,,,001,106,2020_Feb_11_1143,spring_faces,3.1.5,59.98600490491215,
condition files/Stage1_1.xlsx,,B4,T4,m,"['c', 'm']","['Clue', 'Monopoly']","[-0.15, 0.5]","[0.15, 0.5]",1,1,,,,,,,,,0,6,6,6,0,1,1,7,,,,,,,,,,,,,,,,,,,,,,,,,,,,,,,,,,,,,,,,,,,,,,,,,,,,,,,1826.8040520619998,None,1826.8040520619998,None,1826.8040520619998,None,m,1,0.8084193609993235,1828.3370719359991,None,1828.3370719359991,None,1828.3370719359991,None,1829.2042862439994,None,1829.2042862439994,None,1829.2042862439994,None,1829.2042862439994,None,,,,,,,,,,,,,,,,,,,,,,,,,,,,,,,,,,,,,,,,,,,,001,106,2020_Feb_11_1143,spring_faces,3.1.5,59.98600490491215,
condition files/Stage1_1.xlsx,,T1,B1,c,"['c', 'm']","['Clue', 'Monopoly']","[-0.15, 0.5]","[0.15, 0.5]",1,1,,,,,,,,,0,6,6,6,0,2,2,0,,,,,,,,,,,,,,,,,,,,,,,,,,,,,,,,,,,,,,,,,,,,,,,,,,,,,,,1831.1705197270003,None,1831.1705197270003,None,1831.1705197270003,None,c,1,0.6172239719999197,1832.704171718,None,1832.704171718,None,1832.704171718,None,1833.387126828,None,1833.387126828,None,1833.387126828,None,1833.387126828,None,,,,,,,,,,,,,,,,,,,,,,,,,,,,,,,,,,,,,,,,,,,,001,106,2020_Feb_11_1143,spring_faces,3.1.5,59.98600490491215,
condition files/Stage1_1.xlsx,,T2,B2,m,"['c', 'm']","['Clue', 'Monopoly']","[-0.15, 0.5]","[0.15, 0.5]",1,1,,,,,,,,,0,6,6,6,0,3,3,3,,,,,,,,,,,,,,,,,,,,,,,,,,,,,,,,,,,,,,,,,,,,,,,,,,,,,,,1835.3535104860002,None,1835.3535104860002,None,1835.3535104860002,None,m,1,1.2011242680000578,1836.8882403650005,None,1836.8882403650005,None,1836.8882403650005,None,1838.1710455289995,None,1838.1710455289995,None,1838.1710455289995,None,1838.1710455289995,None,,,,,,,,,,,,,,,,,,,,,,,,,,,,,,,,,,,,,,,,,,,,001,106,2020_Feb_11_1143,spring_faces,3.1.5,59.98600490491215,
condition files/Stage1_1.xlsx,,B3,T3,c,"['c', 'm']","['Clue', 'Monopoly']","[-0.15, 0.5]","[0.15, 0.5]",1,1,,,,,,,,,0,6,6,6,0,4,4,4,,,,,,,,,,,,,,,,,,,,,,,,,,,,,,,,,,,,,,,,,,,,,,,,,,,,,,,1840.1208822150002,None,1840.1208822150002,None,1840.1208822150002,None,c,1,0.8994847789999767,1841.6539365280005,None,1841.6539365280005,None,1841.6539365280005,None,1842.605265017999,None,1842.605265017999,None,1842.605265017999,None,1842.605265017999,None,,,,,,,,,,,,,,,,,,,,,,,,,,,,,,,,,,,,,,,,,,,,001,106,2020_Feb_11_1143,spring_faces,3.1.5,59.98600490491215,
condition files/Stage1_1.xlsx,,T3,B4,c,"['c', 'm']","['Clue', 'Monopoly']","[-0.15, 0.5]","[0.15, 0.5]",1,1,,,,,,,,,0,6,6,6,0,5,5,5,,,,,,,,,,,,,,,,,,,,,,,,,,,,,,,,,,,,,,,,,,,,,,,,,,,,,,,1844.5702271739992,None,1844.5702271739992,None,1844.5702271739992,None,m,0,6.5456829400009156,1846.1036715440005,None,1846.1036715440005,None,1846.1036715440005,None,1852.703641991,None,1852.703641991,None,1852.703641991,None,1852.703641991,None,,,,,,,,,,,,,,,,,,,,,,,,,,,,,,,,,,,,,,,,,,,,001,106,2020_Feb_11_1143,spring_faces,3.1.5,59.98600490491215,
condition files/Stage1_1.xlsx,,B2,T1,m,"['c', 'm']","['Clue', 'Monopoly']","[-0.15, 0.5]","[0.15, 0.5]",1,1,,,,,,,,,0,6,6,6,0,6,6,2,,,,,,,,,,,,,,,,,,,,,,,,,,,,,,,,,,,,,,,,,,,,,,,,,,,,,,,1854.670930188,None,1854.670930188,None,1854.670930188,None,c,0,1.2433837890002906,1856.206049888,None,1856.206049888,None,1856.206049888,None,1857.5209108589988,None,1857.5209108589988,None,1857.5209108589988,None,1857.5209108589988,None,,,,,,,,,,,,,,,,,,,,,,,,,,,,,,,,,,,,,,,,,,,,001,106,2020_Feb_11_1143,spring_faces,3.1.5,59.98600490491215,
condition files/Stage1_1.xlsx,,T4,B3,m,"['c', 'm']","['Clue', 'Monopoly']","[-0.15, 0.5]","[0.15, 0.5]",1,1,,,,,,,,,0,6,6,6,0,7,7,6,,,,,,,,,,,,,,,,,,,,,,,,,,,,,,,,,,,,,,,,,,,,,,,,,,,,,,,1859.4708266529997,None,1859.4708266529997,None,1859.4708266529997,None,c,0,1.8216307550010242,1861.0037915449993,None,1861.0037915449993,None,1861.0037915449993,None,1862.887666880999,None,1862.887666880999,None,1862.887666880999,None,1862.887666880999,None,,,,,,,,,,,,,,,,,,,,,,,,,,,,,,,,,,,,,,,,,,,,001,106,2020_Feb_11_1143,spring_faces,3.1.5,59.98600490491215,
condition files/Stage1_2.xlsx,,T4,B4,m,"['c', 'm']","['Clue', 'Monopoly']","[-0.15, 0.5]","[0.15, 0.5]",1,1,,,,,,,,,0,7,7,7,0,0,0,7,,,,,,,,,,,,,,,,,,,,,,,,,,,,,,,,,,,,,,,,,,,,,,,,,,,,,,,1864.8706058839998,None,1864.8706058839998,None,1864.8706058839998,None,m,1,1.2854956139999558,1866.4039226080004,None,1866.4039226080004,None,1866.4039226080004,None,1867.7543416909994,None,1867.7543416909994,None,1867.7543416909994,None,1867.7543416909994,None,,,,,,,,,,,,,,,,,,,,,,,,,,,,,,,,,,,,,,,,,,,,001,106,2020_Feb_11_1143,spring_faces,3.1.5,59.98600490491215,
condition files/Stage1_2.xlsx,,B1,T1,c,"['c', 'm']","['Clue', 'Monopoly']","[-0.15, 0.5]","[0.15, 0.5]",1,1,,,,,,,,,0,7,7,7,0,1,1,0,,,,,,,,,,,,,,,,,,,,,,,,,,,,,,,,,,,,,,,,,,,,,,,,,,,,,,,1869.7206729930003,None,1869.7206729930003,None,1869.7206729930003,None,c,1,1.3622643549988425,1871.255151936999,None,1871.255151936999,None,1871.255151936999,None,1872.688106649999,None,1872.688106649999,None,1872.688106649999,None,1872.688106649999,None,,,,,,,,,,,,,,,,,,,,,,,,,,,,,,,,,,,,,,,,,,,,001,106,2020_Feb_11_1143,spring_faces,3.1.5,59.98600490491215,
condition files/Stage1_2.xlsx,,B3,T4,m,"['c', 'm']","['Clue', 'Monopoly']","[-0.15, 0.5]","[0.15, 0.5]",1,1,,,,,,,,,0,7,7,7,0,2,2,6,,,,,,,,,,,,,,,,,,,,,,,,,,,,,,,,,,,,,,,,,,,,,,,,,,,,,,,1874.6374170359995,None,1874.6374170359995,None,1874.6374170359995,None,m,1,4.253928393000024,1876.171492690999,None,1876.171492690999,None,1876.171492690999,None,1880.4890284209996,None,1880.4890284209996,None,1880.4890284209996,None,1880.4890284209996,None,,,,,,,,,,,,,,,,,,,,,,,,,,,,,,,,,,,,,,,,,,,,001,106,2020_Feb_11_1143,spring_faces,3.1.5,59.98600490491215,
condition files/Stage1_2.xlsx,,T2,B1,c,"['c', 'm']","['Clue', 'Monopoly']","[-0.15, 0.5]","[0.15, 0.5]",1,1,,,,,,,,,0,7,7,7,0,3,3,1,,,,,,,,,,,,,,,,,,,,,,,,,,,,,,,,,,,,,,,,,,,,,,,,,,,,,,,1882.4541982419996,None,1882.4541982419996,None,1882.4541982419996,None,c,1,1.125998075998723,1883.987506075,None,1883.987506075,None,1883.987506075,None,1885.1876939869999,None,1885.1876939869999,None,1885.1876939869999,None,1885.1876939869999,None,,,,,,,,,,,,,,,,,,,,,,,,,,,,,,,,,,,,,,,,,,,,001,106,2020_Feb_11_1143,spring_faces,3.1.5,59.98600490491215,
condition files/Stage1_2.xlsx,,T1,B2,m,"['c', 'm']","['Clue', 'Monopoly']","[-0.15, 0.5]","[0.15, 0.5]",1,1,,,,,,,,,0,7,7,7,0,4,4,2,,,,,,,,,,,,,,,,,,,,,,,,,,,,,,,,,,,,,,,,,,,,,,,,,,,,,,,1887.136901373,None,1887.136901373,None,1887.136901373,None,c,0,0.7929678979999153,1888.6724459300003,None,1888.6724459300003,None,1888.6724459300003,None,1889.5370827019997,None,1889.5370827019997,None,1889.5370827019997,None,1889.5370827019997,None,,,,,,,,,,,,,,,,,,,,,,,,,,,,,,,,,,,,,,,,,,,,001,106,2020_Feb_11_1143,spring_faces,3.1.5,59.98600490491215,
condition files/Stage1_2.xlsx,,T3,B3,c,"['c', 'm']","['Clue', 'Monopoly']","[-0.15, 0.5]","[0.15, 0.5]",1,1,,,,,,,,,0,7,7,7,0,5,5,4,,,,,,,,,,,,,,,,,,,,,,,,,,,,,,,,,,,,,,,,,,,,,,,,,,,,,,,1891.4872972459998,None,1891.4872972459998,None,1891.4872972459998,None,c,1,4.027621006000118,1893.0377765159992,None,1893.0377765159992,None,1893.0377765159992,None,1897.1374054179996,None,1897.1374054179996,None,1897.1374054179996,None,1897.1374054179996,None,,,,,,,,,,,,,,,,,,,,,,,,,,,,,,,,,,,,,,,,,,,,001,106,2020_Feb_11_1143,spring_faces,3.1.5,59.98600490491215,
condition files/Stage1_2.xlsx,,B4,T3,c,"['c', 'm']","['Clue', 'Monopoly']","[-0.15, 0.5]","[0.15, 0.5]",1,1,,,,,,,,,0,7,7,7,0,6,6,5,,,,,,,,,,,,,,,,,,,,,,,,,,,,,,,,,,,,,,,,,,,,,,,,,,,,,,,1899.087496004,None,1899.087496004,None,1899.087496004,None,c,1,1.419075638999857,1900.6223548500002,None,1900.6223548500002,None,1900.6223548500002,None,1902.103842728,None,1902.103842728,None,1902.103842728,None,1902.103842728,None,,,,,,,,,,,,,,,,,,,,,,,,,,,,,,,,,,,,,,,,,,,,001,106,2020_Feb_11_1143,spring_faces,3.1.5,59.98600490491215,
condition files/Stage1_2.xlsx,,B2,T2,m,"['c', 'm']","['Clue', 'Monopoly']","[-0.15, 0.5]","[0.15, 0.5]",1,1,,,,,,,,,0,7,7,7,0,7,7,3,,,,,,,,,,,,,,,,,,,,,,,,,,,,,,,,,,,,,,,,,,,,,,,,,,,,,,,1904.0703947599995,None,1904.0703947599995,None,1904.0703947599995,None,m,1,2.0530025650004973,1905.620404665,None,1905.620404665,None,1905.620404665,None,1907.7400288930003,None,1907.7400288930003,None,1907.7400288930003,None,1907.7400288930003,None,,,,,,,,,,,,,,,,,,,,,,,,,,,,,,,,,,,,,,,,,,,,001,106,2020_Feb_11_1143,spring_faces,3.1.5,59.98600490491215,
condition files/Stage1_1.xlsx,,T3,B4,c,"['c', 'm']","['Clue', 'Monopoly']","[-0.15, 0.5]","[0.15, 0.5]",1,1,,,,,,,,,0,8,8,8,0,0,0,5,,,,,,,,,,,,,,,,,,,,,,,,,,,,,,,,,,,,,,,,,,,,,,,,,,,,,,,1909.7207087049992,None,1909.7207087049992,None,1909.7207087049992,None,c,1,0.928925028998492,1911.2564984990004,None,1911.2564984990004,None,1911.2564984990004,None,1912.2394568750005,None,1912.2394568750005,None,1912.2394568750005,None,1912.2394568750005,None,,,,,,,,,,,,,,,,,,,,,,,,,,,,,,,,,,,,,,,,,,,,001,106,2020_Feb_11_1143,spring_faces,3.1.5,59.98600490491215,
condition files/Stage1_1.xlsx,,B4,T4,m,"['c', 'm']","['Clue', 'Monopoly']","[-0.15, 0.5]","[0.15, 0.5]",1,1,,,,,,,,,0,8,8,8,0,1,1,7,,,,,,,,,,,,,,,,,,,,,,,,,,,,,,,,,,,,,,,,,,,,,,,,,,,,,,,1914.2042475359995,None,1914.2042475359995,None,1914.2042475359995,None,m,1,1.360736115999316,1915.7367467919994,None,1915.7367467919994,None,1915.7367467919994,None,1917.1713358849993,None,1917.1713358849993,None,1917.1713358849993,None,1917.1713358849993,None,,,,,,,,,,,,,,,,,,,,,,,,,,,,,,,,,,,,,,,,,,,,001,106,2020_Feb_11_1143,spring_faces,3.1.5,59.98600490491215,
condition files/Stage1_1.xlsx,,B1,T2,c,"['c', 'm']","['Clue', 'Monopoly']","[-0.15, 0.5]","[0.15, 0.5]",1,1,,,,,,,,,0,8,8,8,0,2,2,1,,,,,,,,,,,,,,,,,,,,,,,,,,,,,,,,,,,,,,,,,,,,,,,,,,,,,,,1919.1203825739994,None,1919.1203825739994,None,1919.1203825739994,None,c,1,0.8750173349999386,1920.670446447999,None,1920.670446447999,None,1920.670446447999,None,1921.6211299690003,None,1921.6211299690003,None,1921.6211299690003,None,1921.6211299690003,None,,,,,,,,,,,,,,,,,,,,,,,,,,,,,,,,,,,,,,,,,,,,001,106,2020_Feb_11_1143,spring_faces,3.1.5,59.98600490491215,
condition files/Stage1_1.xlsx,,T2,B2,m,"['c', 'm']","['Clue', 'Monopoly']","[-0.15, 0.5]","[0.15, 0.5]",1,1,,,,,,,,,0,8,8,8,0,3,3,3,,,,,,,,,,,,,,,,,,,,,,,,,,,,,,,,,,,,,,,,,,,,,,,,,,,,,,,1923.5701101230006,None,1923.5701101230006,None,1923.5701101230006,None,m,1,1.0653128459998698,1925.104108436999,None,1925.104108436999,None,1925.104108436999,None,1926.2376644260003,None,1926.2376644260003,None,1926.2376644260003,None,1926.2376644260003,None,,,,,,,,,,,,,,,,,,,,,,,,,,,,,,,,,,,,,,,,,,,,001,106,2020_Feb_11_1143,spring_faces,3.1.5,59.98600490491215,
condition files/Stage1_1.xlsx,,B3,T3,c,"['c', 'm']","['Clue', 'Monopoly']","[-0.15, 0.5]","[0.15, 0.5]",1,1,,,,,,,,,0,8,8,8,0,4,4,4,,,,,,,,,,,,,,,,,,,,,,,,,,,,,,,,,,,,,,,,,,,,,,,,,,,,,,,1928.1878131039994,None,1928.1878131039994,None,1928.1878131039994,None,c,1,1.360714802000075,1929.720773854,None,1929.720773854,None,1929.720773854,None,1931.153841845,None,1931.153841845,None,1931.153841845,None,1931.153841845,None,,,,,,,,,,,,,,,,,,,,,,,,,,,,,,,,,,,,,,,,,,,,001,106,2020_Feb_11_1143,spring_faces,3.1.5,59.98600490491215,
condition files/Stage1_1.xlsx,,T1,B1,c,"['c', 'm']","['Clue', 'Monopoly']","[-0.15, 0.5]","[0.15, 0.5]",1,1,,,,,,,,,0,8,8,8,0,5,5,0,,,,,,,,,,,,,,,,,,,,,,,,,,,,,,,,,,,,,,,,,,,,,,,,,,,,,,,1933.1040362370004,None,1933.1040362370004,None,1933.1040362370004,None,c,1,1.4357177900001261,1934.637716719999,None,1934.637716719999,None,1934.637716719999,None,1936.1374990570002,None,1936.1374990570002,None,1936.1374990570002,None,1936.1374990570002,None,,,,,,,,,,,,,,,,,,,,,,,,,,,,,,,,,,,,,,,,,,,,001,106,2020_Feb_11_1143,spring_faces,3.1.5,59.98600490491215,
condition files/Stage1_1.xlsx,,B2,T1,m,"['c', 'm']","['Clue', 'Monopoly']","[-0.15, 0.5]","[0.15, 0.5]",1,1,,,,,,,,,0,8,8,8,0,6,6,2,,,,,,,,,,,,,,,,,,,,,,,,,,,,,,,,,,,,,,,,,,,,,,,,,,,,,,,1938.1041482839992,None,1938.1041482839992,None,1938.1041482839992,None,c,0,1.0895327180005552,1939.6399535649998,None,1939.6399535649998,None,1939.6399535649998,None,1940.8036310900006,None,1940.8036310900006,None,1940.8036310900006,None,1940.8036310900006,None,,,,,,,,,,,,,,,,,,,,,,,,,,,,,,,,,,,,,,,,,,,,001,106,2020_Feb_11_1143,spring_faces,3.1.5,59.98600490491215,
condition files/Stage1_1.xlsx,,T4,B3,m,"['c', 'm']","['Clue', 'Monopoly']","[-0.15, 0.5]","[0.15, 0.5]",1,1,,,,,,,,,0,8,8,8,0,7,7,6,,,,,,,,,,,,,,,,,,,,,,,,,,,,,,,,,,,,,,,,,,,,,,,,,,,,,,,1942.7542988669993,None,1942.7542988669993,None,1942.7542988669993,None,m,1,1.7688851740003884,1944.2885361520002,None,1944.2885361520002,None,1944.2885361520002,None,1946.1208889419995,None,1946.1208889419995,None,1946.1208889419995,None,1946.1208889419995,None,,,,,,,,,,,,,,,,,,,,,,,,,,,,,,,,,,,,,,,,,,,,001,106,2020_Feb_11_1143,spring_faces,3.1.5,59.98600490491215,
condition files/Stage1_2.xlsx,,T3,B3,c,"['c', 'm']","['Clue', 'Monopoly']","[-0.15, 0.5]","[0.15, 0.5]",1,1,,,,,,,,,0,9,9,9,0,0,0,4,,,,,,,,,,,,,,,,,,,,,,,,,,,,,,,,,,,,,,,,,,,,,,,,,,,,,,,1948.1043721900005,None,1948.1043721900005,None,1948.1043721900005,None,c,1,2.5800485590007156,1949.6373739699993,None,1949.6373739699993,None,1949.6373739699993,None,1952.287642850999,None,1952.287642850999,None,1952.287642850999,None,1952.287642850999,None,,,,,,,,,,,,,,,,,,,,,,,,,,,,,,,,,,,,,,,,,,,,001,106,2020_Feb_11_1143,spring_faces,3.1.5,59.98600490491215,
condition files/Stage1_2.xlsx,,T4,B4,m,"['c', 'm']","['Clue', 'Monopoly']","[-0.15, 0.5]","[0.15, 0.5]",1,1,,,,,,,,,0,9,9,9,0,1,1,7,,,,,,,,,,,,,,,,,,,,,,,,,,,,,,,,,,,,,,,,,,,,,,,,,,,,,,,1954.237142729,None,1954.237142729,None,1954.237142729,None,m,1,2.766129435000039,1955.7712774769989,None,1955.7712774769989,None,1955.7712774769989,None,1958.6043849910002,None,1958.6043849910002,None,1958.6043849910002,None,1958.6043849910002,None,,,,,,,,,,,,,,,,,,,,,,,,,,,,,,,,,,,,,,,,,,,,001,106,2020_Feb_11_1143,spring_faces,3.1.5,59.98600490491215,
condition files/Stage1_2.xlsx,,T2,B1,c,"['c', 'm']","['Clue', 'Monopoly']","[-0.15, 0.5]","[0.15, 0.5]",1,1,,,,,,,,,0,9,9,9,0,2,2,1,,,,,,,,,,,,,,,,,,,,,,,,,,,,,,,,,,,,,,,,,,,,,,,,,,,,,,,1960.5543000119997,None,1960.5543000119997,None,1960.5543000119997,None,m,0,0.9140681139997469,1962.0873512449998,None,1962.0873512449998,None,1962.0873512449998,None,1963.0711196789998,None,1963.0711196789998,None,1963.0711196789998,None,1963.0711196789998,None,,,,,,,,,,,,,,,,,,,,,,,,,,,,,,,,,,,,,,,,,,,,001,106,2020_Feb_11_1143,spring_faces,3.1.5,59.98600490491215,
condition files/Stage1_2.xlsx,,T1,B2,m,"['c', 'm']","['Clue', 'Monopoly']","[-0.15, 0.5]","[0.15, 0.5]",1,1,,,,,,,,,0,9,9,9,0,3,3,2,,,,,,,,,,,,,,,,,,,,,,,,,,,,,,,,,,,,,,,,,,,,,,,,,,,,,,,1965.0209068759996,None,1965.0209068759996,None,1965.0209068759996,None,c,0,1.4534833710004023,1966.555950037,None,1966.555950037,None,1966.555950037,None,1968.073219288999,None,1968.073219288999,None,1968.073219288999,None,1968.073219288999,None,,,,,,,,,,,,,,,,,,,,,,,,,,,,,,,,,,,,,,,,,,,,001,106,2020_Feb_11_1143,spring_faces,3.1.5,59.98600490491215,
condition files/Stage1_2.xlsx,,B4,T3,c,"['c', 'm']","['Clue', 'Monopoly']","[-0.15, 0.5]","[0.15, 0.5]",1,1,,,,,,,,,0,9,9,9,0,4,4,5,,,,,,,,,,,,,,,,,,,,,,,,,,,,,,,,,,,,,,,,,,,,,,,,,,,,,,,1970.0373308420003,None,1970.0373308420003,None,1970.0373308420003,None,c,1,0.9668175820006581,1971.570605347999,None,1971.570605347999,None,1971.570605347999,None,1972.6044418460006,None,1972.6044418460006,None,1972.6044418460006,None,1972.6044418460006,None,,,,,,,,,,,,,,,,,,,,,,,,,,,,,,,,,,,,,,,,,,,,001,106,2020_Feb_11_1143,spring_faces,3.1.5,59.98600490491215,
condition files/Stage1_2.xlsx,,B3,T4,m,"['c', 'm']","['Clue', 'Monopoly']","[-0.15, 0.5]","[0.15, 0.5]",1,1,,,,,,,,,0,9,9,9,0,5,5,6,,,,,,,,,,,,,,,,,,,,,,,,,,,,,,,,,,,,,,,,,,,,,,,,,,,,,,,1974.5542071769996,None,1974.5542071769996,None,1974.5542071769996,None,m,1,1.3145612979988073,1976.0868588939993,None,1976.0868588939993,None,1976.0868588939993,None,1977.4711829899989,None,1977.4711829899989,None,1977.4711829899989,None,1977.4711829899989,None,,,,,,,,,,,,,,,,,,,,,,,,,,,,,,,,,,,,,,,,,,,,001,106,2020_Feb_11_1143,spring_faces,3.1.5,59.98600490491215,
condition files/Stage1_2.xlsx,,B1,T1,c,"['c', 'm']","['Clue', 'Monopoly']","[-0.15, 0.5]","[0.15, 0.5]",1,1,,,,,,,,,0,9,9,9,0,6,6,0,,,,,,,,,,,,,,,,,,,,,,,,,,,,,,,,,,,,,,,,,,,,,,,,,,,,,,,1979.420266527999,None,1979.420266527999,None,1979.420266527999,None,c,1,2.206297620999976,1980.955187878999,None,1980.955187878999,None,1980.955187878999,None,1983.22301754,None,1983.22301754,None,1983.22301754,None,1983.22301754,None,,,,,,,,,,,,,,,,,,,,,,,,,,,,,,,,,,,,,,,,,,,,001,106,2020_Feb_11_1143,spring_faces,3.1.5,59.98600490491215,
condition files/Stage1_2.xlsx,,B2,T2,m,"['c', 'm']","['Clue', 'Monopoly']","[-0.15, 0.5]","[0.15, 0.5]",1,1,,,,,,,,,0,9,9,9,0,7,7,3,,,,,,,,,,,,,,,,,,,,,,,,,,,,,,,,,,,,,,,,,,,,,,,,,,,,,,,1985.187552796,None,1985.187552796,None,1985.187552796,None,m,1,1.9922251290008717,1986.721273834999,None,1986.721273834999,None,1986.721273834999,None,1988.7737527379995,None,1988.7737527379995,None,1988.7737527379995,None,1988.7737527379995,None,,,,,,,,,,,,,,,,,,,,,,,,,,,,,,,,,,,,,,,,,,,,001,106,2020_Feb_11_1143,spring_faces,3.1.5,59.98600490491215,
condition files/Stage1_1.xlsx,,T4,B3,m,"['c', 'm']","['Clue', 'Monopoly']","[-0.15, 0.5]","[0.15, 0.5]",1,1,,,,,,,,,0,10,10,10,0,0,0,6,,,,,,,,,,,,,,,,,,,,,,,,,,,,,,,,,,,,,,,,,,,,,,,,,,,,,,,1990.7545111420004,None,1990.7545111420004,None,1990.7545111420004,None,m,1,1.7537192160016275,1992.303706147999,None,1992.303706147999,None,1992.303706147999,None,1994.1212291979991,None,1994.1212291979991,None,1994.1212291979991,None,1994.1212291979991,None,,,,,,,,,,,,,,,,,,,,,,,,,,,,,,,,,,,,,,,,,,,,001,106,2020_Feb_11_1143,spring_faces,3.1.5,59.98600490491215,
condition files/Stage1_1.xlsx,,T1,B1,c,"['c', 'm']","['Clue', 'Monopoly']","[-0.15, 0.5]","[0.15, 0.5]",1,1,,,,,,,,,0,10,10,10,0,1,1,0,,,,,,,,,,,,,,,,,,,,,,,,,,,,,,,,,,,,,,,,,,,,,,,,,,,,,,,1996.087453774,None,1996.087453774,None,1996.087453774,None,c,1,1.3001900100007333,1997.6212122359993,None,1997.6212122359993,None,1997.6212122359993,None,1998.988121815999,None,1998.988121815999,None,1998.988121815999,None,1998.988121815999,None,,,,,,,,,,,,,,,,,,,,,,,,,,,,,,,,,,,,,,,,,,,,001,106,2020_Feb_11_1143,spring_faces,3.1.5,59.98600490491215,
condition files/Stage1_1.xlsx,,T2,B2,m,"['c', 'm']","['Clue', 'Monopoly']","[-0.15, 0.5]","[0.15, 0.5]",1,1,,,,,,,,,0,10,10,10,0,2,2,3,,,,,,,,,,,,,,,,,,,,,,,,,,,,,,,,,,,,,,,,,,,,,,,,,,,,,,,2000.9540320840006,None,2000.9540320840006,None,2000.9540320840006,None,m,1,0.8797745570009283,2002.4896222409989,None,2002.4896222409989,None,2002.4896222409989,None,2003.4376969629993,None,2003.4376969629993,None,2003.4376969629993,None,2003.4376969629993,None,,,,,,,,,,,,,,,,,,,,,,,,,,,,,,,,,,,,,,,,,,,,001,106,2020_Feb_11_1143,spring_faces,3.1.5,59.98600490491215,
condition files/Stage1_1.xlsx,,B3,T3,c,"['c', 'm']","['Clue', 'Monopoly']","[-0.15, 0.5]","[0.15, 0.5]",1,1,,,,,,,,,0,10,10,10,0,3,3,4,,,,,,,,,,,,,,,,,,,,,,,,,,,,,,,,,,,,,,,,,,,,,,,,,,,,,,,2005.3873955380004,None,2005.3873955380004,None,2005.3873955380004,None,m,0,3.87184601700028,2006.9375717559997,None,2006.9375717559997,None,2006.9375717559997,None,2010.8869552569995,None,2010.8869552569995,None,2010.8869552569995,None,2010.8869552569995,None,,,,,,,,,,,,,,,,,,,,,,,,,,,,,,,,,,,,,,,,,,,,001,106,2020_Feb_11_1143,spring_faces,3.1.5,59.98600490491215,
condition files/Stage1_1.xlsx,,B1,T2,c,"['c', 'm']","['Clue', 'Monopoly']","[-0.15, 0.5]","[0.15, 0.5]",1,1,,,,,,,,,0,10,10,10,0,4,4,1,,,,,,,,,,,,,,,,,,,,,,,,,,,,,,,,,,,,,,,,,,,,,,,,,,,,,,,2012.8374945619998,None,2012.8374945619998,None,2012.8374945619998,None,c,1,1.2685943209999095,2014.3728406360005,None,2014.3728406360005,None,2014.3728406360005,None,2015.703883483,None,2015.703883483,None,2015.703883483,None,2015.703883483,None,,,,,,,,,,,,,,,,,,,,,,,,,,,,,,,,,,,,,,,,,,,,001,106,2020_Feb_11_1143,spring_faces,3.1.5,59.98600490491215,
condition files/Stage1_1.xlsx,,T3,B4,c,"['c', 'm']","['Clue', 'Monopoly']","[-0.15, 0.5]","[0.15, 0.5]",1,1,,,,,,,,,0,10,10,10,0,5,5,5,,,,,,,,,,,,,,,,,,,,,,,,,,,,,,,,,,,,,,,,,,,,,,,,,,,,,,,2017.6709279779989,None,2017.6709279779989,None,2017.6709279779989,None,c,1,1.331956154999716,2019.2054600009997,None,2019.2054600009997,None,2019.2054600009997,None,2020.5878497899994,None,2020.5878497899994,None,2020.5878497899994,None,2020.5878497899994,None,,,,,,,,,,,,,,,,,,,,,,,,,,,,,,,,,,,,,,,,,,,,001,106,2020_Feb_11_1143,spring_faces,3.1.5,59.98600490491215,
condition files/Stage1_1.xlsx,,B2,T1,m,"['c', 'm']","['Clue', 'Monopoly']","[-0.15, 0.5]","[0.15, 0.5]",1,1,,,,,,,,,0,10,10,10,0,6,6,2,,,,,,,,,,,,,,,,,,,,,,,,,,,,,,,,,,,,,,,,,,,,,,,,,,,,,,,2022.5538464870006,None,2022.5538464870006,None,2022.5538464870006,None,m,1,1.3449943350005924,2024.104365752999,None,2024.104365752999,None,2024.104365752999,None,2025.5208200819998,None,2025.5208200819998,None,2025.5208200819998,None,2025.5208200819998,None,,,,,,,,,,,,,,,,,,,,,,,,,,,,,,,,,,,,,,,,,,,,001,106,2020_Feb_11_1143,spring_faces,3.1.5,59.98600490491215,
condition files/Stage1_1.xlsx,,B4,T4,m,"['c', 'm']","['Clue', 'Monopoly']","[-0.15, 0.5]","[0.15, 0.5]",1,1,,,,,,,,,0,10,10,10,0,7,7,7,,,,,,,,,,,,,,,,,,,,,,,,,,,,,,,,,,,,,,,,,,,,,,,,,,,,,,,2027.470776750999,None,2027.470776750999,None,2027.470776750999,None,m,1,1.2454774859997997,2029.0039039849999,None,2029.0039039849999,None,2029.0039039849999,None,2030.3036356409993,None,2030.3036356409993,None,2030.3036356409993,None,2030.3036356409993,None,,,,,,,,,,,,,,,,,,,,,,,,,,,,,,,,,,,,,,,,,,,,001,106,2020_Feb_11_1143,spring_faces,3.1.5,59.98600490491215,
condition files/Stage1_2.xlsx,,B4,T3,c,"['c', 'm']","['Clue', 'Monopoly']","[-0.15, 0.5]","[0.15, 0.5]",1,1,,,,,,,,,0,11,11,11,0,0,0,5,,,,,,,,,,,,,,,,,,,,,,,,,,,,,,,,,,,,,,,,,,,,,,,,,,,,,,,2032.287636084,None,2032.287636084,None,2032.287636084,None,m,0,0.8439674910005124,2033.8214376209999,None,2033.8214376209999,None,2033.8214376209999,None,2034.7210791599991,None,2034.7210791599991,None,2034.7210791599991,None,2034.7210791599991,None,,,,,,,,,,,,,,,,,,,,,,,,,,,,,,,,,,,,,,,,,,,,001,106,2020_Feb_11_1143,spring_faces,3.1.5,59.98600490491215,
condition files/Stage1_2.xlsx,,T1,B2,m,"['c', 'm']","['Clue', 'Monopoly']","[-0.15, 0.5]","[0.15, 0.5]",1,1,,,,,,,,,0,11,11,11,0,1,1,2,,,,,,,,,,,,,,,,,,,,,,,,,,,,,,,,,,,,,,,,,,,,,,,,,,,,,,,2036.687451771999,None,2036.687451771999,None,2036.687451771999,None,m,1,1.6427405590002309,2038.222683210999,None,2038.222683210999,None,2038.222683210999,None,2039.937821473999,None,2039.937821473999,None,2039.937821473999,None,2039.937821473999,None,,,,,,,,,,,,,,,,,,,,,,,,,,,,,,,,,,,,,,,,,,,,001,106,2020_Feb_11_1143,spring_faces,3.1.5,59.98600490491215,
condition files/Stage1_2.xlsx,,B1,T1,c,"['c', 'm']","['Clue', 'Monopoly']","[-0.15, 0.5]","[0.15, 0.5]",1,1,,,,,,,,,0,11,11,11,0,2,2,0,,,,,,,,,,,,,,,,,,,,,,,,,,,,,,,,,,,,,,,,,,,,,,,,,,,,,,,2041.8871726220004,None,2041.8871726220004,None,2041.8871726220004,None,c,1,1.1162168750015553,2043.4371968430005,None,2043.4371968430005,None,2043.4371968430005,None,2044.6209132259992,None,2044.6209132259992,None,2044.6209132259992,None,2044.6209132259992,None,,,,,,,,,,,,,,,,,,,,,,,,,,,,,,,,,,,,,,,,,,,,001,106,2020_Feb_11_1143,spring_faces,3.1.5,59.98600490491215,
condition files/Stage1_2.xlsx,,B2,T2,m,"['c', 'm']","['Clue', 'Monopoly']","[-0.15, 0.5]","[0.15, 0.5]",1,1,,,,,,,,,0,11,11,11,0,3,3,3,,,,,,,,,,,,,,,,,,,,,,,,,,,,,,,,,,,,,,,,,,,,,,,,,,,,,,,2046.570821813999,None,2046.570821813999,None,2046.570821813999,None,m,1,1.5203875620009057,2048.105035257,None,2048.105035257,None,2048.105035257,None,2049.687841560999,None,2049.687841560999,None,2049.687841560999,None,2049.687841560999,None,,,,,,,,,,,,,,,,,,,,,,,,,,,,,,,,,,,,,,,,,,,,001,106,2020_Feb_11_1143,spring_faces,3.1.5,59.98600490491215,
condition files/Stage1_2.xlsx,,T3,B3,c,"['c', 'm']","['Clue', 'Monopoly']","[-0.15, 0.5]","[0.15, 0.5]",1,1,,,,,,,,,0,11,11,11,0,4,4,4,,,,,,,,,,,,,,,,,,,,,,,,,,,,,,,,,,,,,,,,,,,,,,,,,,,,,,,2051.6542338010004,None,2051.6542338010004,None,2051.6542338010004,None,c,1,1.0461392409997643,2053.1872925419993,None,2053.1872925419993,None,2053.1872925419993,None,2054.304473996999,None,2054.304473996999,None,2054.304473996999,None,2054.304473996999,None,,,,,,,,,,,,,,,,,,,,,,,,,,,,,,,,,,,,,,,,,,,,001,106,2020_Feb_11_1143,spring_faces,3.1.5,59.98600490491215,
condition files/Stage1_2.xlsx,,T4,B4,m,"['c', 'm']","['Clue', 'Monopoly']","[-0.15, 0.5]","[0.15, 0.5]",1,1,,,,,,,,,0,11,11,11,0,5,5,7,,,,,,,,,,,,,,,,,,,,,,,,,,,,,,,,,,,,,,,,,,,,,,,,,,,,,,,2056.2540973060004,None,2056.2540973060004,None,2056.2540973060004,None,c,0,0.9564417590008816,2057.789061558,None,2057.789061558,None,2057.789061558,None,2058.8037998170003,None,2058.8037998170003,None,2058.8037998170003,None,2058.8037998170003,None,,,,,,,,,,,,,,,,,,,,,,,,,,,,,,,,,,,,,,,,,,,,001,106,2020_Feb_11_1143,spring_faces,3.1.5,59.98600490491215,
condition files/Stage1_2.xlsx,,T2,B1,c,"['c', 'm']","['Clue', 'Monopoly']","[-0.15, 0.5]","[0.15, 0.5]",1,1,,,,,,,,,0,11,11,11,0,6,6,1,,,,,,,,,,,,,,,,,,,,,,,,,,,,,,,,,,,,,,,,,,,,,,,,,,,,,,,2060.7709550639993,None,2060.7709550639993,None,2060.7709550639993,None,m,0,0.7281873700012511,2062.321173148999,None,2062.321173148999,None,2062.321173148999,None,2063.1045185479998,None,2063.1045185479998,None,2063.1045185479998,None,2063.1045185479998,None,,,,,,,,,,,,,,,,,,,,,,,,,,,,,,,,,,,,,,,,,,,,001,106,2020_Feb_11_1143,spring_faces,3.1.5,59.98600490491215,
condition files/Stage1_2.xlsx,,B3,T4,m,"['c', 'm']","['Clue', 'Monopoly']","[-0.15, 0.5]","[0.15, 0.5]",1,1,,,,,,,,,0,11,11,11,0,7,7,6,,,,,,,,,,,,,,,,,,,,,,,,,,,,,,,,,,,,,,,,,,,,,,,,,,,,,,,2065.070697456,None,2065.070697456,None,2065.070697456,None,m,1,0.7809009029988374,2066.6205037750005,None,2066.6205037750005,None,2066.6205037750005,None,2067.4703250029997,None,2067.4703250029997,None,2067.4703250029997,None,2067.4703250029997,None,,,,,,,,,,,,,,,,,,,,,,,,,,,,,,,,,,,,,,,,,,,,001,106,2020_Feb_11_1143,spring_faces,3.1.5,59.98600490491215,
,,,,,,,,,,,,,,,,,,,,,,,,,,,,,,,,,,,,,,,,,,,,,,,,,,,,,,,,,,,,,,,,,,,,,,,,,,,,,,,,,,,,,,,,,,,,,,,,,,,,,,,,,,,,,,,,2069.4370054230003,None,space,2.8040707310010475,2074.437360419999,None,,,,,,,,,,,,,,,,,,,,,,,,,,,,,,001,106,2020_Feb_11_1143,spring_faces,3.1.5,59.98600490491215,
condition files/Stage2_1.xlsx,,T5,B5,s,"['s', 'r']","['Stratego', 'Risk']","[-0.15, 0.5]","[0.15, 0.5]",1,1,,,,,,,,,,,,,,,,,0,0,0,0,0,0,0,0,,,,,,,,,,,,,,,,,,,,,,,,,,,,,,,,,,,,,,,,,,,,,,,2077.3372419200005,None,2077.3372419200005,None,2077.3372419200005,None,s,1,3.443110467000224,2078.8543597320004,None,2078.8543597320004,None,2078.8543597320004,None,2082.370923303999,None,2082.370923303999,None,2082.370923303999,None,2082.370923303999,None,,,,,,,,,,,,,,,2074.437360419999,None,,,,,,,,,,,,,,,,,,,,,,,,,,,,001,106,2020_Feb_11_1143,spring_faces,3.1.5,59.98600490491215,
condition files/Stage2_1.xlsx,,T1,B1,s,"['s', 'r']","['Stratego', 'Risk']","[-0.15, 0.5]","[0.15, 0.5]",1,1,,,,,,,,,,,,,,,,,0,0,0,0,0,1,1,2,,,,,,,,,,,,,,,,,,,,,,,,,,,,,,,,,,,,,,,,,,,,,,,2084.3207434119995,None,2084.3207434119995,None,2084.3207434119995,None,r,0,1.2743990140006645,2085.8710725149995,None,2085.8710725149995,None,2085.8710725149995,None,2087.204312811,None,2087.204312811,None,2087.204312811,None,2087.204312811,None,,,,,,,,,,,,,,,,,,,,,,,,,,,,,,,,,,,,,,,,,,,,001,106,2020_Feb_11_1143,spring_faces,3.1.5,59.98600490491215,
condition files/Stage2_1.xlsx,,B2,T2,r,"['s', 'r']","['Stratego', 'Risk']","[-0.15, 0.5]","[0.15, 0.5]",1,1,,,,,,,,,,,,,,,,,0,0,0,0,0,2,2,3,,,,,,,,,,,,,,,,,,,,,,,,,,,,,,,,,,,,,,,,,,,,,,,2089.1701742650002,None,2089.1701742650002,None,2089.1701742650002,None,r,1,0.4070297549988027,2090.706481772,None,2090.706481772,None,2090.706481772,None,2091.170525648,None,2091.170525648,None,2091.170525648,None,2091.170525648,None,,,,,,,,,,,,,,,,,,,,,,,,,,,,,,,,,,,,,,,,,,,,001,106,2020_Feb_11_1143,spring_faces,3.1.5,59.98600490491215,
condition files/Stage2_1.xlsx,,B4,T4,r,"['s', 'r']","['Stratego', 'Risk']","[-0.15, 0.5]","[0.15, 0.5]",1,1,,,,,,,,,,,,,,,,,0,0,0,0,0,3,3,5,,,,,,,,,,,,,,,,,,,,,,,,,,,,,,,,,,,,,,,,,,,,,,,2093.1373507379994,None,2093.1373507379994,None,2093.1373507379994,None,s,0,3.6754656070006604,2094.6700265790005,None,2094.6700265790005,None,2094.6700265790005,None,2098.403800324999,None,2098.403800324999,None,2098.403800324999,None,2098.403800324999,None,,,,,,,,,,,,,,,,,,,,,,,,,,,,,,,,,,,,,,,,,,,,001,106,2020_Feb_11_1143,spring_faces,3.1.5,59.98600490491215,
condition files/Stage2_1.xlsx,,B6,T6,r,"['s', 'r']","['Stratego', 'Risk']","[-0.15, 0.5]","[0.15, 0.5]",1,1,,,,,,,,,,,,,,,,,0,0,0,0,0,4,4,1,,,,,,,,,,,,,,,,,,,,,,,,,,,,,,,,,,,,,,,,,,,,,,,2100.371122315999,None,2100.371122315999,None,2100.371122315999,None,s,0,1.574685393999971,2101.970783274999,None,2101.970783274999,None,2101.970783274999,None,2103.603945413999,None,2103.603945413999,None,2103.603945413999,None,2103.603945413999,None,,,,,,,,,,,,,,,,,,,,,,,,,,,,,,,,,,,,,,,,,,,,001,106,2020_Feb_11_1143,spring_faces,3.1.5,59.98600490491215,
condition files/Stage2_1.xlsx,,T3,B3,s,"['s', 'r']","['Stratego', 'Risk']","[-0.15, 0.5]","[0.15, 0.5]",1,1,,,,,,,,,,,,,,,,,0,0,0,0,0,5,5,4,,,,,,,,,,,,,,,,,,,,,,,,,,,,,,,,,,,,,,,,,,,,,,,2105.5706830950003,None,2105.5706830950003,None,2105.5706830950003,None,r,0,1.6575988469994627,2107.1038898789993,None,2107.1038898789993,None,2107.1038898789993,None,2108.820881197,None,2108.820881197,None,2108.820881197,None,2108.820881197,None,,,,,,,,,,,,,,,,,,,,,,,,,,,,,,,,,,,,,,,,,,,,001,106,2020_Feb_11_1143,spring_faces,3.1.5,59.98600490491215,
condition files/Stage2_2.xlsx,,B5,T5,s,"['s', 'r']","['Stratego', 'Risk']","[-0.15, 0.5]","[0.15, 0.5]",1,1,,,,,,,,,,,,,,,,,0,1,1,1,0,0,0,0,,,,,,,,,,,,,,,,,,,,,,,,,,,,,,,,,,,,,,,,,,,,,,,2110.854149965,None,2110.854149965,None,2110.854149965,None,s,1,2.3277171930003533,2112.337699219999,None,2112.337699219999,None,2112.337699219999,None,2114.7209877629994,None,2114.7209877629994,None,2114.7209877629994,None,2114.7209877629994,None,,,,,,,,,,,,,,,,,,,,,,,,,,,,,,,,,,,,,,,,,,,,001,106,2020_Feb_11_1143,spring_faces,3.1.5,59.98600490491215,
condition files/Stage2_2.xlsx,,T2,B2,r,"['s', 'r']","['Stratego', 'Risk']","[-0.15, 0.5]","[0.15, 0.5]",1,1,,,,,,,,,,,,,,,,,0,1,1,1,0,1,1,3,,,,,,,,,,,,,,,,,,,,,,,,,,,,,,,,,,,,,,,,,,,,,,,2116.6873664779996,None,2116.6873664779996,None,2116.6873664779996,None,r,1,1.62776741900052,2118.221646173999,None,2118.221646173999,None,2118.221646173999,None,2119.9044951220003,None,2119.9044951220003,None,2119.9044951220003,None,2119.9044951220003,None,,,,,,,,,,,,,,,,,,,,,,,,,,,,,,,,,,,,,,,,,,,,001,106,2020_Feb_11_1143,spring_faces,3.1.5,59.98600490491215,
condition files/Stage2_2.xlsx,,B1,T1,s,"['s', 'r']","['Stratego', 'Risk']","[-0.15, 0.5]","[0.15, 0.5]",1,1,,,,,,,,,,,,,,,,,0,1,1,1,0,2,2,2,,,,,,,,,,,,,,,,,,,,,,,,,,,,,,,,,,,,,,,,,,,,,,,2121.871022146999,None,2121.871022146999,None,2121.871022146999,None,s,1,1.1643178559988883,2123.4050924839994,None,2123.4050924839994,None,2123.4050924839994,None,2124.6221180350003,None,2124.6221180350003,None,2124.6221180350003,None,2124.6221180350003,None,,,,,,,,,,,,,,,,,,,,,,,,,,,,,,,,,,,,,,,,,,,,001,106,2020_Feb_11_1143,spring_faces,3.1.5,59.98600490491215,
condition files/Stage2_2.xlsx,,B3,T3,s,"['s', 'r']","['Stratego', 'Risk']","[-0.15, 0.5]","[0.15, 0.5]",1,1,,,,,,,,,,,,,,,,,0,1,1,1,0,3,3,4,,,,,,,,,,,,,,,,,,,,,,,,,,,,,,,,,,,,,,,,,,,,,,,2126.587439457,None,2126.587439457,None,2126.587439457,None,r,0,1.0565616589992715,2128.120921164,None,2128.120921164,None,2128.120921164,None,2129.2373578280003,None,2129.2373578280003,None,2129.2373578280003,None,2129.2373578280003,None,,,,,,,,,,,,,,,,,,,,,,,,,,,,,,,,,,,,,,,,,,,,001,106,2020_Feb_11_1143,spring_faces,3.1.5,59.98600490491215,
condition files/Stage2_2.xlsx,,T6,B6,r,"['s', 'r']","['Stratego', 'Risk']","[-0.15, 0.5]","[0.15, 0.5]",1,1,,,,,,,,,,,,,,,,,0,1,1,1,0,4,4,1,,,,,,,,,,,,,,,,,,,,,,,,,,,,,,,,,,,,,,,,,,,,,,,2131.2042324680006,None,2131.2042324680006,None,2131.2042324680006,None,r,1,0.9993623430000298,2132.7540328569994,None,2132.7540328569994,None,2132.7540328569994,None,2133.80389474,None,2133.80389474,None,2133.80389474,None,2133.80389474,None,,,,,,,,,,,,,,,,,,,,,,,,,,,,,,,,,,,,,,,,,,,,001,106,2020_Feb_11_1143,spring_faces,3.1.5,59.98600490491215,
condition files/Stage2_2.xlsx,,T4,B4,r,"['s', 'r']","['Stratego', 'Risk']","[-0.15, 0.5]","[0.15, 0.5]",1,1,,,,,,,,,,,,,,,,,0,1,1,1,0,5,5,5,,,,,,,,,,,,,,,,,,,,,,,,,,,,,,,,,,,,,,,,,,,,,,,2135.770961475,None,2135.770961475,None,2135.770961475,None,s,0,2.3206881080004678,2137.3047219950004,None,2137.3047219950004,None,2137.3047219950004,None,2139.687690307999,None,2139.687690307999,None,2139.687690307999,None,2139.687690307999,None,,,,,,,,,,,,,,,,,,,,,,,,,,,,,,,,,,,,,,,,,,,,001,106,2020_Feb_11_1143,spring_faces,3.1.5,59.98600490491215,
condition files/Stage2_1.xlsx,,T3,B3,s,"['s', 'r']","['Stratego', 'Risk']","[-0.15, 0.5]","[0.15, 0.5]",1,1,,,,,,,,,,,,,,,,,0,2,2,2,0,0,0,4,,,,,,,,,,,,,,,,,,,,,,,,,,,,,,,,,,,,,,,,,,,,,,,2141.6710831679993,None,2141.6710831679993,None,2141.6710831679993,None,s,1,2.917098468000404,2143.220323166999,None,2143.220323166999,None,2143.220323166999,None,2146.203788568,None,2146.203788568,None,2146.203788568,None,2146.203788568,None,,,,,,,,,,,,,,,,,,,,,,,,,,,,,,,,,,,,,,,,,,,,001,106,2020_Feb_11_1143,spring_faces,3.1.5,59.98600490491215,
condition files/Stage2_1.xlsx,,B6,T6,r,"['s', 'r']","['Stratego', 'Risk']","[-0.15, 0.5]","[0.15, 0.5]",1,1,,,,,,,,,,,,,,,,,0,2,2,2,0,1,1,1,,,,,,,,,,,,,,,,,,,,,,,,,,,,,,,,,,,,,,,,,,,,,,,2148.153315435,None,2148.153315435,None,2148.153315435,None,r,1,0.9128978360004112,2149.704518921999,None,2149.704518921999,None,2149.704518921999,None,2150.687199897,None,2150.687199897,None,2150.687199897,None,2150.687199897,None,,,,,,,,,,,,,,,,,,,,,,,,,,,,,,,,,,,,,,,,,,,,001,106,2020_Feb_11_1143,spring_faces,3.1.5,59.98600490491215,
condition files/Stage2_1.xlsx,,T1,B1,s,"['s', 'r']","['Stratego', 'Risk']","[-0.15, 0.5]","[0.15, 0.5]",1,1,,,,,,,,,,,,,,,,,0,2,2,2,0,2,2,2,,,,,,,,,,,,,,,,,,,,,,,,,,,,,,,,,,,,,,,,,,,,,,,2152.636918679,None,2152.636918679,None,2152.636918679,None,s,1,1.3266314869997586,2154.1708612069997,None,2154.1708612069997,None,2154.1708612069997,None,2155.571205286,None,2155.571205286,None,2155.571205286,None,2155.571205286,None,,,,,,,,,,,,,,,,,,,,,,,,,,,,,,,,,,,,,,,,,,,,001,106,2020_Feb_11_1143,spring_faces,3.1.5,59.98600490491215,
condition files/Stage2_1.xlsx,,B2,T2,r,"['s', 'r']","['Stratego', 'Risk']","[-0.15, 0.5]","[0.15, 0.5]",1,1,,,,,,,,,,,,,,,,,0,2,2,2,0,3,3,3,,,,,,,,,,,,,,,,,,,,,,,,,,,,,,,,,,,,,,,,,,,,,,,2157.520696345,None,2157.520696345,None,2157.520696345,None,r,1,3.3386635079987173,2159.07075721,None,2159.07075721,None,2159.07075721,None,2162.4874236199994,None,2162.4874236199994,None,2162.4874236199994,None,2162.4874236199994,None,,,,,,,,,,,,,,,,,,,,,,,,,,,,,,,,,,,,,,,,,,,,001,106,2020_Feb_11_1143,spring_faces,3.1.5,59.98600490491215,
condition files/Stage2_1.xlsx,,T5,B5,s,"['s', 'r']","['Stratego', 'Risk']","[-0.15, 0.5]","[0.15, 0.5]",1,1,,,,,,,,,,,,,,,,,0,2,2,2,0,4,4,0,,,,,,,,,,,,,,,,,,,,,,,,,,,,,,,,,,,,,,,,,,,,,,,2164.437383422999,None,2164.437383422999,None,2164.437383422999,None,s,1,1.8947821509991627,2165.970621781,None,2165.970621781,None,2165.970621781,None,2167.9371769789996,None,2167.9371769789996,None,2167.9371769789996,None,2167.9371769789996,None,,,,,,,,,,,,,,,,,,,,,,,,,,,,,,,,,,,,,,,,,,,,001,106,2020_Feb_11_1143,spring_faces,3.1.5,59.98600490491215,
condition files/Stage2_1.xlsx,,B4,T4,r,"['s', 'r']","['Stratego', 'Risk']","[-0.15, 0.5]","[0.15, 0.5]",1,1,,,,,,,,,,,,,,,,,0,2,2,2,0,5,5,5,,,,,,,,,,,,,,,,,,,,,,,,,,,,,,,,,,,,,,,,,,,,,,,2169.8868698059996,None,2169.8868698059996,None,2169.8868698059996,None,r,1,2.3483390569999756,2171.421082691999,None,2171.421082691999,None,2171.421082691999,None,2173.837506123,None,2173.837506123,None,2173.837506123,None,2173.837506123,None,,,,,,,,,,,,,,,,,,,,,,,,,,,,,,,,,,,,,,,,,,,,001,106,2020_Feb_11_1143,spring_faces,3.1.5,59.98600490491215,
condition files/Stage2_2.xlsx,,B1,T1,s,"['s', 'r']","['Stratego', 'Risk']","[-0.15, 0.5]","[0.15, 0.5]",1,1,,,,,,,,,,,,,,,,,0,3,3,3,0,0,0,2,,,,,,,,,,,,,,,,,,,,,,,,,,,,,,,,,,,,,,,,,,,,,,,2175.8038813799994,None,2175.8038813799994,None,2175.8038813799994,None,s,1,1.4384893140013446,2177.3390058780005,None,2177.3390058780005,None,2177.3390058780005,None,2178.853651510999,None,2178.853651510999,None,2178.853651510999,None,2178.853651510999,None,,,,,,,,,,,,,,,,,,,,,,,,,,,,,,,,,,,,,,,,,,,,001,106,2020_Feb_11_1143,spring_faces,3.1.5,59.98600490491215,
condition files/Stage2_2.xlsx,,T2,B2,r,"['s', 'r']","['Stratego', 'Risk']","[-0.15, 0.5]","[0.15, 0.5]",1,1,,,,,,,,,,,,,,,,,0,3,3,3,0,1,1,3,,,,,,,,,,,,,,,,,,,,,,,,,,,,,,,,,,,,,,,,,,,,,,,2180.804026538999,None,2180.804026538999,None,2180.804026538999,None,r,1,0.6158950779990846,2182.3375231709997,None,2182.3375231709997,None,2182.3375231709997,None,2183.0204612929992,None,2183.0204612929992,None,2183.0204612929992,None,2183.0204612929992,None,,,,,,,,,,,,,,,,,,,,,,,,,,,,,,,,,,,,,,,,,,,,001,106,2020_Feb_11_1143,spring_faces,3.1.5,59.98600490491215,
condition files/Stage2_2.xlsx,,B3,T3,s,"['s', 'r']","['Stratego', 'Risk']","[-0.15, 0.5]","[0.15, 0.5]",1,1,,,,,,,,,,,,,,,,,0,3,3,3,0,2,2,4,,,,,,,,,,,,,,,,,,,,,,,,,,,,,,,,,,,,,,,,,,,,,,,2184.9703467870004,None,2184.9703467870004,None,2184.9703467870004,None,s,1,2.1914576109993504,2186.5060190099994,None,2186.5060190099994,None,2186.5060190099994,None,2188.7706655309994,None,2188.7706655309994,None,2188.7706655309994,None,2188.7706655309994,None,,,,,,,,,,,,,,,,,,,,,,,,,,,,,,,,,,,,,,,,,,,,001,106,2020_Feb_11_1143,spring_faces,3.1.5,59.98600490491215,
condition files/Stage2_2.xlsx,,T6,B6,r,"['s', 'r']","['Stratego', 'Risk']","[-0.15, 0.5]","[0.15, 0.5]",1,1,,,,,,,,,,,,,,,,,0,3,3,3,0,3,3,1,,,,,,,,,,,,,,,,,,,,,,,,,,,,,,,,,,,,,,,,,,,,,,,2190.720643667999,None,2190.720643667999,None,2190.720643667999,None,r,1,1.0824978639993788,2192.2549181169998,None,2192.2549181169998,None,2192.2549181169998,None,2193.3892323479995,None,2193.3892323479995,None,2193.3892323479995,None,2193.3892323479995,None,,,,,,,,,,,,,,,,,,,,,,,,,,,,,,,,,,,,,,,,,,,,001,106,2020_Feb_11_1143,spring_faces,3.1.5,59.98600490491215,
condition files/Stage2_2.xlsx,,T4,B4,r,"['s', 'r']","['Stratego', 'Risk']","[-0.15, 0.5]","[0.15, 0.5]",1,1,,,,,,,,,,,,,,,,,0,3,3,3,0,4,4,5,,,,,,,,,,,,,,,,,,,,,,,,,,,,,,,,,,,,,,,,,,,,,,,2195.3541457369993,None,2195.3541457369993,None,2195.3541457369993,None,r,1,1.5221694809988549,2196.887278417,None,2196.887278417,None,2196.887278417,None,2198.4709823899993,None,2198.4709823899993,None,2198.4709823899993,None,2198.4709823899993,None,,,,,,,,,,,,,,,,,,,,,,,,,,,,,,,,,,,,,,,,,,,,001,106,2020_Feb_11_1143,spring_faces,3.1.5,59.98600490491215,
condition files/Stage2_2.xlsx,,B5,T5,s,"['s', 'r']","['Stratego', 'Risk']","[-0.15, 0.5]","[0.15, 0.5]",1,1,,,,,,,,,,,,,,,,,0,3,3,3,0,5,5,0,,,,,,,,,,,,,,,,,,,,,,,,,,,,,,,,,,,,,,,,,,,,,,,2200.437330478,None,2200.437330478,None,2200.437330478,None,s,1,2.502321996998944,2201.971107694999,None,2201.971107694999,None,2201.971107694999,None,2204.5545255729994,None,2204.5545255729994,None,2204.5545255729994,None,2204.5545255729994,None,,,,,,,,,,,,,,,,,,,,,,,,,,,,,,,,,,,,,,,,,,,,001,106,2020_Feb_11_1143,spring_faces,3.1.5,59.98600490491215,
condition files/Stage2_1.xlsx,,B4,T4,r,"['s', 'r']","['Stratego', 'Risk']","[-0.15, 0.5]","[0.15, 0.5]",1,1,,,,,,,,,,,,,,,,,0,4,4,4,0,0,0,5,,,,,,,,,,,,,,,,,,,,,,,,,,,,,,,,,,,,,,,,,,,,,,,2206.5208703610006,None,2206.5208703610006,None,2206.5208703610006,None,r,1,1.7621116870013793,2208.071309363,None,2208.071309363,None,2208.071309363,None,2209.903791408,None,2209.903791408,None,2209.903791408,None,2209.903791408,None,,,,,,,,,,,,,,,,,,,,,,,,,,,,,,,,,,,,,,,,,,,,001,106,2020_Feb_11_1143,spring_faces,3.1.5,59.98600490491215,
condition files/Stage2_1.xlsx,,T1,B1,s,"['s', 'r']","['Stratego', 'Risk']","[-0.15, 0.5]","[0.15, 0.5]",1,1,,,,,,,,,,,,,,,,,0,4,4,4,0,1,1,2,,,,,,,,,,,,,,,,,,,,,,,,,,,,,,,,,,,,,,,,,,,,,,,2211.8541538030004,None,2211.8541538030004,None,2211.8541538030004,None,s,1,0.7333981619995029,2213.388001796,None,2213.388001796,None,2213.388001796,None,2214.18719651,None,2214.18719651,None,2214.18719651,None,2214.18719651,None,,,,,,,,,,,,,,,,,,,,,,,,,,,,,,,,,,,,,,,,,,,,001,106,2020_Feb_11_1143,spring_faces,3.1.5,59.98600490491215,
condition files/Stage2_1.xlsx,,B2,T2,r,"['s', 'r']","['Stratego', 'Risk']","[-0.15, 0.5]","[0.15, 0.5]",1,1,,,,,,,,,,,,,,,,,0,4,4,4,0,2,2,3,,,,,,,,,,,,,,,,,,,,,,,,,,,,,,,,,,,,,,,,,,,,,,,2216.1542205570004,None,2216.1542205570004,None,2216.1542205570004,None,r,1,0.7696128850002424,2217.687829680999,None,2217.687829680999,None,2217.687829680999,None,2218.537327271999,None,2218.537327271999,None,2218.537327271999,None,2218.537327271999,None,,,,,,,,,,,,,,,,,,,,,,,,,,,,,,,,,,,,,,,,,,,,001,106,2020_Feb_11_1143,spring_faces,3.1.5,59.98600490491215,
