condsFile,subStage,cue1,cue2,correct,responseKeys,responseNames,cue1Position,cue2Position,cue1Opacity,cue2Opacity,stageLoop0.thisRepN,stageLoop0.thisTrialN,stageLoop0.thisN,stageLoop0.thisIndex,blockLoop0.thisRepN,blockLoop0.thisTrialN,blockLoop0.thisN,blockLoop0.thisIndex,stage1Loop.thisRepN,stage1Loop.thisTrialN,stage1Loop.thisN,stage1Loop.thisIndex,blockLoop1.thisRepN,blockLoop1.thisTrialN,blockLoop1.thisN,blockLoop1.thisIndex,stage2Loop.thisRepN,stage2Loop.thisTrialN,stage2Loop.thisN,stage2Loop.thisIndex,blockLoop2.thisRepN,blockLoop2.thisTrialN,blockLoop2.thisN,blockLoop2.thisIndex,testLoop.thisRepN,testLoop.thisTrialN,testLoop.thisN,testLoop.thisIndex,blockLoopTest.thisRepN,blockLoopTest.thisTrialN,blockLoopTest.thisN,blockLoopTest.thisIndex,cuePics,id_instr_text.started,id_instr_text.stopped,space_to_continue_2.started,space_to_continue_2.stopped,end_instructions_resp_3.keys,end_instructions_resp_3.rt,end_instructions_resp_3.started,end_instructions_resp_3.stopped,id_input_instr.started,id_input_instr.stopped,id_input_rect.started,id_input_rect.stopped,id_input_resp.keys,id_input_resp.rt,id_input_resp.started,id_input_resp.stopped,sonaID,id_input_text.started,id_input_text.stopped,final_text.started,final_text.stopped,instructions.started,instructions.stopped,end_instructions_resp.keys,end_instructions_resp.rt,end_instructions_resp.started,end_instructions_resp.stopped,space_to_continue.started,space_to_continue.stopped,instructions_stage0.started,instructions_stage0.stopped,end_instructions_resp_stage0.keys,end_instructions_resp_stage0.rt,end_instructions_resp_stage0.started,end_instructions_resp_stage0.stopped,space_to_continue_stage0.started,space_to_continue_stage0.stopped,text.started,text.stopped,resp_text1.started,resp_text1.stopped,resp_text2.started,resp_text2.stopped,trial_resp.keys,trial_resp.corr,trial_resp.rt,trial_resp.started,trial_resp.stopped,cue1Image.started,cue1Image.stopped,cue2Image.started,cue2Image.stopped,cue1Image_fb.started,cue1Image_fb.stopped,cue2Image_fb.started,cue2Image_fb.stopped,fb_text_answer.started,fb_text_answer.stopped,feedback_image.started,feedback_image.stopped,instructions_stage1.started,instructions_stage1.stopped,end_instructions_resp_stage1.keys,end_instructions_resp_stage1.rt,end_instructions_resp_stage1.started,end_instructions_resp_stage1.stopped,space_to_continue_stage1.started,space_to_continue_stage1.stopped,instructions_2.started,instructions_2.stopped,end_instructions_resp_2.keys,end_instructions_resp_2.rt,end_instructions_resp_2.started,end_instructions_resp_2.stopped,press_space_to_continue_stage2.started,press_space_to_continue_stage2.stopped,instructions_testStage1.started,instructions_testStage1.stopped,end_instructions_resp_test1.keys,end_instructions_resp_test1.rt,end_instructions_resp_test1.started,end_instructions_resp_test1.stopped,press_space_to_continue_test1.started,press_space_to_continue_test1.stopped,cue1Image_testChoice.started,cue1Image_testChoice.stopped,cue2Image_testChoice.started,cue2Image_testChoice.stopped,test_resp.keys,test_resp.corr,test_resp.rt,test_resp.started,test_resp.stopped,cue1Image_testConf.started,cue1Image_testConf.stopped,cue2Image_testConf.started,cue2Image_testConf.stopped,conf_reminder.started,conf_reminder.stopped,conf_rating.response,conf_rating.rt,conf_rating.started,conf_rating.stopped,session,participant,date,expName,psychopyVersion,frameRate,
,,,,,,,,,,,,,,,,,,,,,,,,,,,,,,,,,,,,,,,,,,,"{'none': 'pictures/20M_AN_C.png', 'alpha': 'pictures/SHINEd_apple.png', 'beta': 'pictures/SHINEd_melon.png', 'theta': 'pictures/SHINEd_pepper.png', 'phi': 'pictures/SHINEd_pear.png', 'T1': 'pictures/36M_AN_C.png', 'T2': 'pictures/20M_AN_C.png', 'T3': 'pictures/38M_AN_C.png', 'T4': 'pictures/34M_AN_C.png', 'T5': 'pictures/31M_AN_C.png', 'T6': 'pictures/32M_AN_C.png', 'B1': 'pictures/23M_NE_C.png', 'B2': 'pictures/37M_NE_C.png', 'B3': 'pictures/25M_NE_C.png', 'B4': 'pictures/33M_NE_C.png', 'B5': 'pictures/22M_NE_C.png', 'B6': 'pictures/26M_NE_C.png'}",31.541123064000203,None,36.52512799100077,None,space,1872.9910678769993,36.52512799100077,None,,,,,,,,,,,,,,,,,,,,,,,,,,,,,,,,,,,,,,,,,,,,,,,,,,,,,,,,,,,,,,,,,,,,,,,,,,,,,,,,,,,,,,,,,,,,,,,,001,107,2020_Feb_11_1143,spring_faces,3.1.5,59.933581126036195,
,,,,,,,,,,,,,,,,,,,,,,,,,,,,,,,,,,,,,,,,,,,,,,,,,,,,1909.908289803001,None,1909.908289803001,None,"['1', '1', '1', '1', 'j', 'e', 'h', 'o', 'e', 'backspace', '1', '1', '1', '1', 'j', 'e', 'a', 'r', 'a']","[16.53587140899981, 16.759936219999872, 21.8958773989998, 22.08787116699932, 25.76782393599933, 25.927867566000714, 32.39193939699908, 32.48788841900023, 32.631869798999105, 34.93592960299975, 39.239882599998964, 39.44786733699948, 40.26387076500032, 40.53587763199903, 52.135876145999646, 52.29586631500024, 64.23187329400025, 64.56782839699918, 65.07994693699948]",1909.908289803001,None,,,,,,,,,,,,,,,,,,,,,,,,,,,,,,,,,,,,,,,,,,,,,,,,,,,,,,,,,,,,,,,,,,,,,,,,,,,,,,,,,,,,,,,,001,107,2020_Feb_11_1143,spring_faces,3.1.5,59.933581126036195,
,,,,,,,,,,,,,,,,,,,,,,,,,,,,,,,,,,,,,,,,,,,,,,,,,,,,,,,,,,,,1111jeara,1909.908289803001,None,1909.908289803001,None,1980.0583458180008,None,space,0.8261118150003313,1985.058151749001,None,,,,,,,,,,,,,,,,,,,,,,,,,,,,,,,,,,,,,,,,,,,,,,,,,,,,,,,,,,,,,,,,,,,,,,,,,,,,,001,107,2020_Feb_11_1143,spring_faces,3.1.5,59.933581126036195,
,,,,,,,,,,,,,,,,,,,,,,,,,,,,,,,,,,,,,,,,,,,,,,,,,,,,,,,,,,,,,,,,,,,,,,,1985.058151749001,None,1985.9250502760005,None,space,1.3279845470005966,1990.908188372001,None,,,,,,,,,,,,,,,,,,,,,,,,,,,,,,,,,,,,,,,,,,,,,,,,,,,,,,,,,,,,,,,,,,,,,001,107,2020_Feb_11_1143,spring_faces,3.1.5,59.933581126036195,
condition files/Stage0a.xlsx,0a,beta,none,g,"['h', 'g']","['Chess', 'Go']","[0, 0.5]","[0, 0]",1,0,0,0,0,0,0,0,0,1,,,,,,,,,,,,,,,,,,,,,,,,,,,,,,,,,,,,,,,,,,,,,,,,,,,,,,,,,,,,,1990.908188372001,None,1992.2916431060003,None,1992.2916431060003,None,1992.2916431060003,None,h,0,3.7692028639994533,1993.8749639870002,None,1993.8749639870002,None,1993.8749639870002,None,1997.7249751850013,None,1997.7249751850013,None,1997.7249751850013,None,1997.7249751850013,None,,,,,,,,,,,,,,,,,,,,,,,,,,,,,,,,,,,,,,,,,,,,001,107,2020_Feb_11_1143,spring_faces,3.1.5,59.933581126036195,
condition files/Stage0a.xlsx,0a,alpha,none,h,"['h', 'g']","['Chess', 'Go']","[0, 0.5]","[0, 0]",1,0,0,0,0,0,0,1,1,0,,,,,,,,,,,,,,,,,,,,,,,,,,,,,,,,,,,,,,,,,,,,,,,,,,,,,,,,,,,,,,,1999.6749115420007,None,1999.6749115420007,None,1999.6749115420007,None,h,1,1.282283782000377,2001.2258679790011,None,2001.2258679790011,None,2001.2258679790011,None,2002.5587732000004,None,2002.5587732000004,None,2002.5587732000004,None,2002.5587732000004,None,,,,,,,,,,,,,,,,,,,,,,,,,,,,,,,,,,,,,,,,,,,,001,107,2020_Feb_11_1143,spring_faces,3.1.5,59.933581126036195,
condition files/Stage0a.xlsx,0a,alpha,none,h,"['h', 'g']","['Chess', 'Go']","[0, 0.5]","[0, 0]",1,0,0,1,1,1,0,0,0,0,,,,,,,,,,,,,,,,,,,,,,,,,,,,,,,,,,,,,,,,,,,,,,,,,,,,,,,,,,,,,,,2004.5417282220005,None,2004.5417282220005,None,2004.5417282220005,None,h,1,2.8975020729994867,2006.0746636740005,None,2006.0746636740005,None,2006.0746636740005,None,2009.0250107480006,None,2009.0250107480006,None,2009.0250107480006,None,2009.0250107480006,None,,,,,,,,,,,,,,,,,,,,,,,,,,,,,,,,,,,,,,,,,,,,001,107,2020_Feb_11_1143,spring_faces,3.1.5,59.933581126036195,
condition files/Stage0a.xlsx,0a,beta,none,g,"['h', 'g']","['Chess', 'Go']","[0, 0.5]","[0, 0]",1,0,0,1,1,1,0,1,1,1,,,,,,,,,,,,,,,,,,,,,,,,,,,,,,,,,,,,,,,,,,,,,,,,,,,,,,,,,,,,,,,2010.9914258480003,None,2010.9914258480003,None,2010.9914258480003,None,g,1,0.9912355270007538,2012.5249932610004,None,2012.5249932610004,None,2012.5249932610004,None,2013.5752329190018,None,2013.5752329190018,None,2013.5752329190018,None,2013.5752329190018,None,,,,,,,,,,,,,,,,,,,,,,,,,,,,,,,,,,,,,,,,,,,,001,107,2020_Feb_11_1143,spring_faces,3.1.5,59.933581126036195,
condition files/Stage0a.xlsx,0a,alpha,none,h,"['h', 'g']","['Chess', 'Go']","[0, 0.5]","[0, 0]",1,0,0,2,2,2,0,0,0,0,,,,,,,,,,,,,,,,,,,,,,,,,,,,,,,,,,,,,,,,,,,,,,,,,,,,,,,,,,,,,,,2015.5578430060013,None,2015.5578430060013,None,2015.5578430060013,None,h,1,1.0166013200014277,2017.0915657560017,None,2017.0915657560017,None,2017.0915657560017,None,2018.1582019120015,None,2018.1582019120015,None,2018.1582019120015,None,2018.1582019120015,None,,,,,,,,,,,,,,,,,,,,,,,,,,,,,,,,,,,,,,,,,,,,001,107,2020_Feb_11_1143,spring_faces,3.1.5,59.933581126036195,
condition files/Stage0a.xlsx,0a,beta,none,g,"['h', 'g']","['Chess', 'Go']","[0, 0.5]","[0, 0]",1,0,0,2,2,2,0,1,1,1,,,,,,,,,,,,,,,,,,,,,,,,,,,,,,,,,,,,,,,,,,,,,,,,,,,,,,,,,,,,,,,2020.1247085650011,None,2020.1247085650011,None,2020.1247085650011,None,g,1,0.7060017859985237,2021.6581544590008,None,2021.6581544590008,None,2021.6581544590008,None,2022.425120537,None,2022.425120537,None,2022.425120537,None,2022.425120537,None,,,,,,,,,,,,,,,,,,,,,,,,,,,,,,,,,,,,,,,,,,,,001,107,2020_Feb_11_1143,spring_faces,3.1.5,59.933581126036195,
condition files/Stage0a.xlsx,0a,beta,none,g,"['h', 'g']","['Chess', 'Go']","[0, 0.5]","[0, 0]",1,0,0,3,3,3,0,0,0,1,,,,,,,,,,,,,,,,,,,,,,,,,,,,,,,,,,,,,,,,,,,,,,,,,,,,,,,,,,,,,,,2024.4077193510002,None,2024.4077193510002,None,2024.4077193510002,None,g,1,0.8384828990001552,2025.9416975780005,None,2025.9416975780005,None,2025.9416975780005,None,2026.8413430910005,None,2026.8413430910005,None,2026.8413430910005,None,2026.8413430910005,None,,,,,,,,,,,,,,,,,,,,,,,,,,,,,,,,,,,,,,,,,,,,001,107,2020_Feb_11_1143,spring_faces,3.1.5,59.933581126036195,
condition files/Stage0a.xlsx,0a,alpha,none,h,"['h', 'g']","['Chess', 'Go']","[0, 0.5]","[0, 0]",1,0,0,3,3,3,0,1,1,0,,,,,,,,,,,,,,,,,,,,,,,,,,,,,,,,,,,,,,,,,,,,,,,,,,,,,,,,,,,,,,,2028.8079588750006,None,2028.8079588750006,None,2028.8079588750006,None,h,1,0.6784345109990682,2030.3417142460003,None,2030.3417142460003,None,2030.3417142460003,None,2031.0753625750003,None,2031.0753625750003,None,2031.0753625750003,None,2031.0753625750003,None,,,,,,,,,,,,,,,,,,,,,,,,,,,,,,,,,,,,,,,,,,,,001,107,2020_Feb_11_1143,spring_faces,3.1.5,59.933581126036195,
condition files/Stage0a.xlsx,0a,alpha,none,h,"['h', 'g']","['Chess', 'Go']","[0, 0.5]","[0, 0]",1,0,0,4,4,4,0,0,0,0,,,,,,,,,,,,,,,,,,,,,,,,,,,,,,,,,,,,,,,,,,,,,,,,,,,,,,,,,,,,,,,2033.0580297880006,None,2033.0580297880006,None,2033.0580297880006,None,h,1,0.7965131920009298,2034.591923674001,None,2034.591923674001,None,2034.591923674001,None,2035.4419060930013,None,2035.4419060930013,None,2035.4419060930013,None,2035.4419060930013,None,,,,,,,,,,,,,,,,,,,,,,,,,,,,,,,,,,,,,,,,,,,,001,107,2020_Feb_11_1143,spring_faces,3.1.5,59.933581126036195,
condition files/Stage0a.xlsx,0a,beta,none,g,"['h', 'g']","['Chess', 'Go']","[0, 0.5]","[0, 0]",1,0,0,4,4,4,0,1,1,1,,,,,,,,,,,,,,,,,,,,,,,,,,,,,,,,,,,,,,,,,,,,,,,,,,,,,,,,,,,,,,,2037.4081015740012,None,2037.4081015740012,None,2037.4081015740012,None,g,1,0.6704993479997938,2038.941673098001,None,2038.941673098001,None,2038.941673098001,None,2039.6749435560014,None,2039.6749435560014,None,2039.6749435560014,None,2039.6749435560014,None,,,,,,,,,,,,,,,,,,,,,,,,,,,,,,,,,,,,,,,,,,,,001,107,2020_Feb_11_1143,spring_faces,3.1.5,59.933581126036195,
condition files/Stage0a.xlsx,0a,beta,none,g,"['h', 'g']","['Chess', 'Go']","[0, 0.5]","[0, 0]",1,0,0,5,5,5,0,0,0,1,,,,,,,,,,,,,,,,,,,,,,,,,,,,,,,,,,,,,,,,,,,,,,,,,,,,,,,,,,,,,,,2041.6576665390003,None,2041.6576665390003,None,2041.6576665390003,None,g,1,0.7729688119998173,2043.1912268720007,None,2043.1912268720007,None,2043.1912268720007,None,2044.0245152820007,None,2044.0245152820007,None,2044.0245152820007,None,2044.0245152820007,None,,,,,,,,,,,,,,,,,,,,,,,,,,,,,,,,,,,,,,,,,,,,001,107,2020_Feb_11_1143,spring_faces,3.1.5,59.933581126036195,
condition files/Stage0a.xlsx,0a,alpha,none,h,"['h', 'g']","['Chess', 'Go']","[0, 0.5]","[0, 0]",1,0,0,5,5,5,0,1,1,0,,,,,,,,,,,,,,,,,,,,,,,,,,,,,,,,,,,,,,,,,,,,,,,,,,,,,,,,,,,,,,,2045.9914136080006,None,2045.9914136080006,None,2045.9914136080006,None,h,1,0.7592394610001065,2047.5249983640006,None,2047.5249983640006,None,2047.5249983640006,None,2048.3410784370008,None,2048.3410784370008,None,2048.3410784370008,None,2048.3410784370008,None,,,,,,,,,,,,,,,,,,,,,,,,,,,,,,,,,,,,,,,,,,,,001,107,2020_Feb_11_1143,spring_faces,3.1.5,59.933581126036195,
condition files/Stage0b_1.xlsx,0b,alpha,none,h,"['h', 'g']","['Chess', 'Go']","[-0.15, 0.5]","[0.15, 0.5]",1,0,0,6,6,6,0,0,0,0,,,,,,,,,,,,,,,,,,,,,,,,,,,,,,,,,,,,,,,,,,,,,,,,,,,,,,,,,,,,,,,2050.3247091620015,None,2050.3247091620015,None,2050.3247091620015,None,h,1,0.840905704000761,2051.859347206,None,2051.859347206,None,2051.859347206,None,2052.7578523990014,None,2052.7578523990014,None,2052.7578523990014,None,2052.7578523990014,None,,,,,,,,,,,,,,,,,,,,,,,,,,,,,,,,,,,,,,,,,,,,001,107,2020_Feb_11_1143,spring_faces,3.1.5,59.933581126036195,
condition files/Stage0b_1.xlsx,0b,none,beta,g,"['h', 'g']","['Chess', 'Go']","[-0.15, 0.5]","[0.15, 0.5]",0,1,0,6,6,6,0,1,1,1,,,,,,,,,,,,,,,,,,,,,,,,,,,,,,,,,,,,,,,,,,,,,,,,,,,,,,,,,,,,,,,2054.724387809001,None,2054.724387809001,None,2054.724387809001,None,g,1,0.9535999300005642,2056.2745609510002,None,2056.2745609510002,None,2056.2745609510002,None,2057.294709257001,None,2057.294709257001,None,2057.294709257001,None,2057.294709257001,None,,,,,,,,,,,,,,,,,,,,,,,,,,,,,,,,,,,,,,,,,,,,001,107,2020_Feb_11_1143,spring_faces,3.1.5,59.933581126036195,
condition files/Stage0b_2.xlsx,0b,none,alpha,h,"['h', 'g']","['Chess', 'Go']","[-0.15, 0.5]","[0.15, 0.5]",0,1,0,7,7,7,0,0,0,0,,,,,,,,,,,,,,,,,,,,,,,,,,,,,,,,,,,,,,,,,,,,,,,,,,,,,,,,,,,,,,,2059.2749493300016,None,2059.2749493300016,None,2059.2749493300016,None,h,1,0.9313834849999694,2060.8087977290015,None,2060.8087977290015,None,2060.8087977290015,None,2061.7926863600005,None,2061.7926863600005,None,2061.7926863600005,None,2061.7926863600005,None,,,,,,,,,,,,,,,,,,,,,,,,,,,,,,,,,,,,,,,,,,,,001,107,2020_Feb_11_1143,spring_faces,3.1.5,59.933581126036195,
condition files/Stage0b_2.xlsx,0b,beta,none,g,"['h', 'g']","['Chess', 'Go']","[-0.15, 0.5]","[0.15, 0.5]",1,0,0,7,7,7,0,1,1,1,,,,,,,,,,,,,,,,,,,,,,,,,,,,,,,,,,,,,,,,,,,,,,,,,,,,,,,,,,,,,,,2063.757370507001,None,2063.757370507001,None,2063.757370507001,None,g,1,0.8636974300006841,2065.308464302001,None,2065.308464302001,None,2065.308464302001,None,2066.2269922620017,None,2066.2269922620017,None,2066.2269922620017,None,2066.2269922620017,None,,,,,,,,,,,,,,,,,,,,,,,,,,,,,,,,,,,,,,,,,,,,001,107,2020_Feb_11_1143,spring_faces,3.1.5,59.933581126036195,
condition files/Stage0b_1.xlsx,0b,alpha,none,h,"['h', 'g']","['Chess', 'Go']","[-0.15, 0.5]","[0.15, 0.5]",1,0,0,8,8,8,0,0,0,0,,,,,,,,,,,,,,,,,,,,,,,,,,,,,,,,,,,,,,,,,,,,,,,,,,,,,,,,,,,,,,,2068.2081554000015,None,2068.2081554000015,None,2068.2081554000015,None,h,1,0.8615763819998392,2069.7426134900015,None,2069.7426134900015,None,2069.7426134900015,None,2070.6582307800018,None,2070.6582307800018,None,2070.6582307800018,None,2070.6582307800018,None,,,,,,,,,,,,,,,,,,,,,,,,,,,,,,,,,,,,,,,,,,,,001,107,2020_Feb_11_1143,spring_faces,3.1.5,59.933581126036195,
condition files/Stage0b_1.xlsx,0b,none,beta,g,"['h', 'g']","['Chess', 'Go']","[-0.15, 0.5]","[0.15, 0.5]",0,1,0,8,8,8,0,1,1,1,,,,,,,,,,,,,,,,,,,,,,,,,,,,,,,,,,,,,,,,,,,,,,,,,,,,,,,,,,,,,,,2072.6247148520015,None,2072.6247148520015,None,2072.6247148520015,None,g,1,0.6809511219998967,2074.1632309080014,None,2074.1632309080014,None,2074.1632309080014,None,2074.9131336500013,None,2074.9131336500013,None,2074.9131336500013,None,2074.9131336500013,None,,,,,,,,,,,,,,,,,,,,,,,,,,,,,,,,,,,,,,,,,,,,001,107,2020_Feb_11_1143,spring_faces,3.1.5,59.933581126036195,
condition files/Stage0b_2.xlsx,0b,beta,none,g,"['h', 'g']","['Chess', 'Go']","[-0.15, 0.5]","[0.15, 0.5]",1,0,0,9,9,9,0,0,0,1,,,,,,,,,,,,,,,,,,,,,,,,,,,,,,,,,,,,,,,,,,,,,,,,,,,,,,,,,,,,,,,2076.891675158,None,2076.891675158,None,2076.891675158,None,g,1,0.8187195829996199,2078.425465645001,None,2078.425465645001,None,2078.425465645001,None,2079.3084746780005,None,2079.3084746780005,None,2079.3084746780005,None,2079.3084746780005,None,,,,,,,,,,,,,,,,,,,,,,,,,,,,,,,,,,,,,,,,,,,,001,107,2020_Feb_11_1143,spring_faces,3.1.5,59.933581126036195,
condition files/Stage0b_2.xlsx,0b,none,alpha,h,"['h', 'g']","['Chess', 'Go']","[-0.15, 0.5]","[0.15, 0.5]",0,1,0,9,9,9,0,1,1,0,,,,,,,,,,,,,,,,,,,,,,,,,,,,,,,,,,,,,,,,,,,,,,,,,,,,,,,,,,,,,,,2081.2749543770005,None,2081.2749543770005,None,2081.2749543770005,None,h,1,0.6761174189996382,2082.808117136001,None,2082.808117136001,None,2082.808117136001,None,2083.5462110340013,None,2083.5462110340013,None,2083.5462110340013,None,2083.5462110340013,None,,,,,,,,,,,,,,,,,,,,,,,,,,,,,,,,,,,,,,,,,,,,001,107,2020_Feb_11_1143,spring_faces,3.1.5,59.933581126036195,
condition files/Stage0b_1.xlsx,0b,alpha,none,h,"['h', 'g']","['Chess', 'Go']","[-0.15, 0.5]","[0.15, 0.5]",1,0,0,10,10,10,0,0,0,0,,,,,,,,,,,,,,,,,,,,,,,,,,,,,,,,,,,,,,,,,,,,,,,,,,,,,,,,,,,,,,,2085.524521000001,None,2085.524521000001,None,2085.524521000001,None,h,1,0.6812254069991468,2087.0589598730003,None,2087.0589598730003,None,2087.0589598730003,None,2087.791703328001,None,2087.791703328001,None,2087.791703328001,None,2087.791703328001,None,,,,,,,,,,,,,,,,,,,,,,,,,,,,,,,,,,,,,,,,,,,,001,107,2020_Feb_11_1143,spring_faces,3.1.5,59.933581126036195,
condition files/Stage0b_1.xlsx,0b,none,beta,g,"['h', 'g']","['Chess', 'Go']","[-0.15, 0.5]","[0.15, 0.5]",0,1,0,10,10,10,0,1,1,1,,,,,,,,,,,,,,,,,,,,,,,,,,,,,,,,,,,,,,,,,,,,,,,,,,,,,,,,,,,,,,,2089.7576707120006,None,2089.7576707120006,None,2089.7576707120006,None,g,1,0.7500744750013837,2091.2941026450007,None,2091.2941026450007,None,2091.2941026450007,None,2092.1082442080005,None,2092.1082442080005,None,2092.1082442080005,None,2092.1082442080005,None,,,,,,,,,,,,,,,,,,,,,,,,,,,,,,,,,,,,,,,,,,,,001,107,2020_Feb_11_1143,spring_faces,3.1.5,59.933581126036195,
condition files/Stage0b_2.xlsx,0b,beta,none,g,"['h', 'g']","['Chess', 'Go']","[-0.15, 0.5]","[0.15, 0.5]",1,0,0,11,11,11,0,0,0,1,,,,,,,,,,,,,,,,,,,,,,,,,,,,,,,,,,,,,,,,,,,,,,,,,,,,,,,,,,,,,,,2094.091742806,None,2094.091742806,None,2094.091742806,None,g,1,0.8027785790000053,2095.6253931600004,None,2095.6253931600004,None,2095.6253931600004,None,2096.4914492550015,None,2096.4914492550015,None,2096.4914492550015,None,2096.4914492550015,None,,,,,,,,,,,,,,,,,,,,,,,,,,,,,,,,,,,,,,,,,,,,001,107,2020_Feb_11_1143,spring_faces,3.1.5,59.933581126036195,
condition files/Stage0b_2.xlsx,0b,none,alpha,h,"['h', 'g']","['Chess', 'Go']","[-0.15, 0.5]","[0.15, 0.5]",0,1,0,11,11,11,0,1,1,0,,,,,,,,,,,,,,,,,,,,,,,,,,,,,,,,,,,,,,,,,,,,,,,,,,,,,,,,,,,,,,,2098.4582283830005,None,2098.4582283830005,None,2098.4582283830005,None,h,1,0.660356601998501,2099.9918213810015,None,2099.9918213810015,None,2099.9918213810015,None,2100.7096722410006,None,2100.7096722410006,None,2100.7096722410006,None,2100.7096722410006,None,,,,,,,,,,,,,,,,,,,,,,,,,,,,,,,,,,,,,,,,,,,,001,107,2020_Feb_11_1143,spring_faces,3.1.5,59.933581126036195,
condition files/Stage0c_1.xlsx,0c,beta,theta,g,"['h', 'g']","['Chess', 'Go']","[-0.15, 0.5]","[0.15, 0.5]",1,1,0,12,12,12,0,0,0,2,,,,,,,,,,,,,,,,,,,,,,,,,,,,,,,,,,,,,,,,,,,,,,,,,,,,,,,,,,,,,,,2102.6917288840013,None,2102.6917288840013,None,2102.6917288840013,None,g,1,2.187240950001069,2104.2249439510015,None,2104.2249439510015,None,2104.2249439510015,None,2106.4750559620006,None,2106.4750559620006,None,2106.4750559620006,None,2106.4750559620006,None,,,,,,,,,,,,,,,,,,,,,,,,,,,,,,,,,,,,,,,,,,,,001,107,2020_Feb_11_1143,spring_faces,3.1.5,59.933581126036195,
condition files/Stage0c_1.xlsx,0c,theta,alpha,h,"['h', 'g']","['Chess', 'Go']","[-0.15, 0.5]","[0.15, 0.5]",1,1,0,12,12,12,0,1,1,0,,,,,,,,,,,,,,,,,,,,,,,,,,,,,,,,,,,,,,,,,,,,,,,,,,,,,,,,,,,,,,,2108.4412392960003,None,2108.4412392960003,None,2108.4412392960003,None,h,1,1.3654249710016302,2109.9747529470005,None,2109.9747529470005,None,2109.9747529470005,None,2111.3912661550003,None,2111.3912661550003,None,2111.3912661550003,None,2111.3912661550003,None,,,,,,,,,,,,,,,,,,,,,,,,,,,,,,,,,,,,,,,,,,,,001,107,2020_Feb_11_1143,spring_faces,3.1.5,59.933581126036195,
condition files/Stage0c_1.xlsx,0c,alpha,phi,h,"['h', 'g']","['Chess', 'Go']","[-0.15, 0.5]","[0.15, 0.5]",1,1,0,12,12,12,0,2,2,1,,,,,,,,,,,,,,,,,,,,,,,,,,,,,,,,,,,,,,,,,,,,,,,,,,,,,,,,,,,,,,,2113.3578502010005,None,2113.3578502010005,None,2113.3578502010005,None,h,1,1.0722206169994024,2114.8919478840016,None,2114.8919478840016,None,2114.8919478840016,None,2116.025225954001,None,2116.025225954001,None,2116.025225954001,None,2116.025225954001,None,,,,,,,,,,,,,,,,,,,,,,,,,,,,,,,,,,,,,,,,,,,,001,107,2020_Feb_11_1143,spring_faces,3.1.5,59.933581126036195,
condition files/Stage0c_1.xlsx,0c,phi,beta,g,"['h', 'g']","['Chess', 'Go']","[-0.15, 0.5]","[0.15, 0.5]",1,1,0,12,12,12,0,3,3,3,,,,,,,,,,,,,,,,,,,,,,,,,,,,,,,,,,,,,,,,,,,,,,,,,,,,,,,,,,,,,,,2117.9911490140003,None,2117.9911490140003,None,2117.9911490140003,None,g,1,0.9514371749992279,2119.5247048190013,None,2119.5247048190013,None,2119.5247048190013,None,2120.5418399500013,None,2120.5418399500013,None,2120.5418399500013,None,2120.5418399500013,None,,,,,,,,,,,,,,,,,,,,,,,,,,,,,,,,,,,,,,,,,,,,001,107,2020_Feb_11_1143,spring_faces,3.1.5,59.933581126036195,
condition files/Stage0c_2.xlsx,0c,alpha,theta,h,"['h', 'g']","['Chess', 'Go']","[-0.15, 0.5]","[0.15, 0.5]",1,1,0,13,13,13,0,0,0,0,,,,,,,,,,,,,,,,,,,,,,,,,,,,,,,,,,,,,,,,,,,,,,,,,,,,,,,,,,,,,,,2122.5245464910004,None,2122.5245464910004,None,2122.5245464910004,None,h,1,0.9304015649995563,2124.057773697001,None,2124.057773697001,None,2124.057773697001,None,2125.041382485,None,2125.041382485,None,2125.041382485,None,2125.041382485,None,,,,,,,,,,,,,,,,,,,,,,,,,,,,,,,,,,,,,,,,,,,,001,107,2020_Feb_11_1143,spring_faces,3.1.5,59.933581126036195,
condition files/Stage0c_2.xlsx,0c,theta,beta,g,"['h', 'g']","['Chess', 'Go']","[-0.15, 0.5]","[0.15, 0.5]",1,1,0,13,13,13,0,1,1,2,,,,,,,,,,,,,,,,,,,,,,,,,,,,,,,,,,,,,,,,,,,,,,,,,,,,,,,,,,,,,,,2127.0079356920014,None,2127.0079356920014,None,2127.0079356920014,None,g,1,1.2141557830000238,2128.5420035430016,None,2128.5420035430016,None,2128.5420035430016,None,2129.8085441230014,None,2129.8085441230014,None,2129.8085441230014,None,2129.8085441230014,None,,,,,,,,,,,,,,,,,,,,,,,,,,,,,,,,,,,,,,,,,,,,001,107,2020_Feb_11_1143,spring_faces,3.1.5,59.933581126036195,
condition files/Stage0c_2.xlsx,0c,phi,alpha,h,"['h', 'g']","['Chess', 'Go']","[-0.15, 0.5]","[0.15, 0.5]",1,1,0,13,13,13,0,2,2,1,,,,,,,,,,,,,,,,,,,,,,,,,,,,,,,,,,,,,,,,,,,,,,,,,,,,,,,,,,,,,,,2131.774775277001,None,2131.774775277001,None,2131.774775277001,None,h,1,0.9598501679993205,2133.3083753090013,None,2133.3083753090013,None,2133.3083753090013,None,2134.3243890680005,None,2134.3243890680005,None,2134.3243890680005,None,2134.3243890680005,None,,,,,,,,,,,,,,,,,,,,,,,,,,,,,,,,,,,,,,,,,,,,001,107,2020_Feb_11_1143,spring_faces,3.1.5,59.933581126036195,
condition files/Stage0c_2.xlsx,0c,beta,phi,g,"['h', 'g']","['Chess', 'Go']","[-0.15, 0.5]","[0.15, 0.5]",1,1,0,13,13,13,0,3,3,3,,,,,,,,,,,,,,,,,,,,,,,,,,,,,,,,,,,,,,,,,,,,,,,,,,,,,,,,,,,,,,,2136.2913812270017,None,2136.2913812270017,None,2136.2913812270017,None,g,1,0.8277084230012406,2137.824524087,None,2137.824524087,None,2137.824524087,None,2138.7076458720003,None,2138.7076458720003,None,2138.7076458720003,None,2138.7076458720003,None,,,,,,,,,,,,,,,,,,,,,,,,,,,,,,,,,,,,,,,,,,,,001,107,2020_Feb_11_1143,spring_faces,3.1.5,59.933581126036195,
condition files/Stage0c_1.xlsx,0c,theta,alpha,h,"['h', 'g']","['Chess', 'Go']","[-0.15, 0.5]","[0.15, 0.5]",1,1,0,14,14,14,0,0,0,0,,,,,,,,,,,,,,,,,,,,,,,,,,,,,,,,,,,,,,,,,,,,,,,,,,,,,,,,,,,,,,,2140.691407776001,None,2140.691407776001,None,2140.691407776001,None,h,1,0.7948183909993531,2142.2253355850007,None,2142.2253355850007,None,2142.2253355850007,None,2143.0747660380002,None,2143.0747660380002,None,2143.0747660380002,None,2143.0747660380002,None,,,,,,,,,,,,,,,,,,,,,,,,,,,,,,,,,,,,,,,,,,,,001,107,2020_Feb_11_1143,spring_faces,3.1.5,59.933581126036195,
condition files/Stage0c_1.xlsx,0c,alpha,phi,h,"['h', 'g']","['Chess', 'Go']","[-0.15, 0.5]","[0.15, 0.5]",1,1,0,14,14,14,0,1,1,1,,,,,,,,,,,,,,,,,,,,,,,,,,,,,,,,,,,,,,,,,,,,,,,,,,,,,,,,,,,,,,,2145.041351836,None,2145.041351836,None,2145.041351836,None,h,1,0.7809252810002363,2146.575236910001,None,2146.575236910001,None,2146.575236910001,None,2147.392151434002,None,2147.392151434002,None,2147.392151434002,None,2147.392151434002,None,,,,,,,,,,,,,,,,,,,,,,,,,,,,,,,,,,,,,,,,,,,,001,107,2020_Feb_11_1143,spring_faces,3.1.5,59.933581126036195,
condition files/Stage0c_1.xlsx,0c,phi,beta,g,"['h', 'g']","['Chess', 'Go']","[-0.15, 0.5]","[0.15, 0.5]",1,1,0,14,14,14,0,2,2,3,,,,,,,,,,,,,,,,,,,,,,,,,,,,,,,,,,,,,,,,,,,,,,,,,,,,,,,,,,,,,,,2149.374210242,None,2149.374210242,None,2149.374210242,None,g,1,0.800327818000369,2150.9078341940003,None,2150.9078341940003,None,2150.9078341940003,None,2151.758377207001,None,2151.758377207001,None,2151.758377207001,None,2151.758377207001,None,,,,,,,,,,,,,,,,,,,,,,,,,,,,,,,,,,,,,,,,,,,,001,107,2020_Feb_11_1143,spring_faces,3.1.5,59.933581126036195,
condition files/Stage0c_1.xlsx,0c,beta,theta,g,"['h', 'g']","['Chess', 'Go']","[-0.15, 0.5]","[0.15, 0.5]",1,1,0,14,14,14,0,3,3,2,,,,,,,,,,,,,,,,,,,,,,,,,,,,,,,,,,,,,,,,,,,,,,,,,,,,,,,,,,,,,,,2153.72437541,None,2153.72437541,None,2153.72437541,None,g,1,0.9463249839991477,2155.257807858001,None,2155.257807858001,None,2155.257807858001,None,2156.2419247200014,None,2156.2419247200014,None,2156.2419247200014,None,2156.2419247200014,None,,,,,,,,,,,,,,,,,,,,,,,,,,,,,,,,,,,,,,,,,,,,001,107,2020_Feb_11_1143,spring_faces,3.1.5,59.933581126036195,
condition files/Stage0c_2.xlsx,0c,phi,alpha,h,"['h', 'g']","['Chess', 'Go']","[-0.15, 0.5]","[0.15, 0.5]",1,1,0,15,15,15,0,0,0,1,,,,,,,,,,,,,,,,,,,,,,,,,,,,,,,,,,,,,,,,,,,,,,,,,,,,,,,,,,,,,,,2158.241878541001,None,2158.241878541001,None,2158.241878541001,None,h,1,1.1333731199993053,2159.7747984410016,None,2159.7747984410016,None,2159.7747984410016,None,2160.9585807990006,None,2160.9585807990006,None,2160.9585807990006,None,2160.9585807990006,None,,,,,,,,,,,,,,,,,,,,,,,,,,,,,,,,,,,,,,,,,,,,001,107,2020_Feb_11_1143,spring_faces,3.1.5,59.933581126036195,
condition files/Stage0c_2.xlsx,0c,alpha,theta,h,"['h', 'g']","['Chess', 'Go']","[-0.15, 0.5]","[0.15, 0.5]",1,1,0,15,15,15,0,1,1,0,,,,,,,,,,,,,,,,,,,,,,,,,,,,,,,,,,,,,,,,,,,,,,,,,,,,,,,,,,,,,,,2162.9242953010016,None,2162.9242953010016,None,2162.9242953010016,None,h,1,1.1378807239998423,2164.4582862140014,None,2164.4582862140014,None,2164.4582862140014,None,2165.6418803410015,None,2165.6418803410015,None,2165.6418803410015,None,2165.6418803410015,None,,,,,,,,,,,,,,,,,,,,,,,,,,,,,,,,,,,,,,,,,,,,001,107,2020_Feb_11_1143,spring_faces,3.1.5,59.933581126036195,
condition files/Stage0c_2.xlsx,0c,beta,phi,g,"['h', 'g']","['Chess', 'Go']","[-0.15, 0.5]","[0.15, 0.5]",1,1,0,15,15,15,0,2,2,3,,,,,,,,,,,,,,,,,,,,,,,,,,,,,,,,,,,,,,,,,,,,,,,,,,,,,,,,,,,,,,,2167.6257638630013,None,2167.6257638630013,None,2167.6257638630013,None,g,1,0.9979148669990536,2169.1582485900017,None,2169.1582485900017,None,2169.1582485900017,None,2170.208644352,None,2170.208644352,None,2170.208644352,None,2170.208644352,None,,,,,,,,,,,,,,,,,,,,,,,,,,,,,,,,,,,,,,,,,,,,001,107,2020_Feb_11_1143,spring_faces,3.1.5,59.933581126036195,
condition files/Stage0c_2.xlsx,0c,theta,beta,g,"['h', 'g']","['Chess', 'Go']","[-0.15, 0.5]","[0.15, 0.5]",1,1,0,15,15,15,0,3,3,2,,,,,,,,,,,,,,,,,,,,,,,,,,,,,,,,,,,,,,,,,,,,,,,,,,,,,,,,,,,,,,,2172.1746010360002,None,2172.1746010360002,None,2172.1746010360002,None,g,1,1.9035675220002304,2173.708608926001,None,2173.708608926001,None,2173.708608926001,None,2175.6579730990015,None,2175.6579730990015,None,2175.6579730990015,None,2175.6579730990015,None,,,,,,,,,,,,,,,,,,,,,,,,,,,,,,,,,,,,,,,,,,,,001,107,2020_Feb_11_1143,spring_faces,3.1.5,59.933581126036195,
condition files/Stage0c_1.xlsx,0c,theta,alpha,h,"['h', 'g']","['Chess', 'Go']","[-0.15, 0.5]","[0.15, 0.5]",1,1,0,16,16,16,0,0,0,0,,,,,,,,,,,,,,,,,,,,,,,,,,,,,,,,,,,,,,,,,,,,,,,,,,,,,,,,,,,,,,,2177.6582963990004,None,2177.6582963990004,None,2177.6582963990004,None,h,1,0.9484106170002633,2179.1917458610005,None,2179.1917458610005,None,2179.1917458610005,None,2180.1912288910007,None,2180.1912288910007,None,2180.1912288910007,None,2180.1912288910007,None,,,,,,,,,,,,,,,,,,,,,,,,,,,,,,,,,,,,,,,,,,,,001,107,2020_Feb_11_1143,spring_faces,3.1.5,59.933581126036195,
condition files/Stage0c_1.xlsx,0c,beta,theta,g,"['h', 'g']","['Chess', 'Go']","[-0.15, 0.5]","[0.15, 0.5]",1,1,0,16,16,16,0,1,1,2,,,,,,,,,,,,,,,,,,,,,,,,,,,,,,,,,,,,,,,,,,,,,,,,,,,,,,,,,,,,,,,2182.1579771370016,None,2182.1579771370016,None,2182.1579771370016,None,g,1,1.0085575470002368,2183.691677279001,None,2183.691677279001,None,2183.691677279001,None,2184.7582559780003,None,2184.7582559780003,None,2184.7582559780003,None,2184.7582559780003,None,,,,,,,,,,,,,,,,,,,,,,,,,,,,,,,,,,,,,,,,,,,,001,107,2020_Feb_11_1143,spring_faces,3.1.5,59.933581126036195,
condition files/Stage0c_1.xlsx,0c,alpha,phi,h,"['h', 'g']","['Chess', 'Go']","[-0.15, 0.5]","[0.15, 0.5]",1,1,0,16,16,16,0,2,2,1,,,,,,,,,,,,,,,,,,,,,,,,,,,,,,,,,,,,,,,,,,,,,,,,,,,,,,,,,,,,,,,2186.7245436130015,None,2186.7245436130015,None,2186.7245436130015,None,h,1,0.9219658510010049,2188.2581817240007,None,2188.2581817240007,None,2188.2581817240007,None,2189.2418497750004,None,2189.2418497750004,None,2189.2418497750004,None,2189.2418497750004,None,,,,,,,,,,,,,,,,,,,,,,,,,,,,,,,,,,,,,,,,,,,,001,107,2020_Feb_11_1143,spring_faces,3.1.5,59.933581126036195,
condition files/Stage0c_1.xlsx,0c,phi,beta,g,"['h', 'g']","['Chess', 'Go']","[-0.15, 0.5]","[0.15, 0.5]",1,1,0,16,16,16,0,3,3,3,,,,,,,,,,,,,,,,,,,,,,,,,,,,,,,,,,,,,,,,,,,,,,,,,,,,,,,,,,,,,,,2191.208016716,None,2191.208016716,None,2191.208016716,None,g,1,1.110942769999383,2192.741248853001,None,2192.741248853001,None,2192.741248853001,None,2193.9076700000005,None,2193.9076700000005,None,2193.9076700000005,None,2193.9076700000005,None,,,,,,,,,,,,,,,,,,,,,,,,,,,,,,,,,,,,,,,,,,,,001,107,2020_Feb_11_1143,spring_faces,3.1.5,59.933581126036195,
condition files/Stage0c_2.xlsx,0c,alpha,theta,h,"['h', 'g']","['Chess', 'Go']","[-0.15, 0.5]","[0.15, 0.5]",1,1,0,17,17,17,0,0,0,0,,,,,,,,,,,,,,,,,,,,,,,,,,,,,,,,,,,,,,,,,,,,,,,,,,,,,,,,,,,,,,,2195.8918582270016,None,2195.8918582270016,None,2195.8918582270016,None,h,1,0.8269305330013594,2197.425253601001,None,2197.425253601001,None,2197.425253601001,None,2198.3078442490005,None,2198.3078442490005,None,2198.3078442490005,None,2198.3078442490005,None,,,,,,,,,,,,,,,,,,,,,,,,,,,,,,,,,,,,,,,,,,,,001,107,2020_Feb_11_1143,spring_faces,3.1.5,59.933581126036195,
condition files/Stage0c_2.xlsx,0c,phi,alpha,h,"['h', 'g']","['Chess', 'Go']","[-0.15, 0.5]","[0.15, 0.5]",1,1,0,17,17,17,0,1,1,1,,,,,,,,,,,,,,,,,,,,,,,,,,,,,,,,,,,,,,,,,,,,,,,,,,,,,,,,,,,,,,,2200.274654289002,None,2200.274654289002,None,2200.274654289002,None,h,1,0.9397847199998068,2201.808392068,None,2201.808392068,None,2201.808392068,None,2202.7923385110007,None,2202.7923385110007,None,2202.7923385110007,None,2202.7923385110007,None,,,,,,,,,,,,,,,,,,,,,,,,,,,,,,,,,,,,,,,,,,,,001,107,2020_Feb_11_1143,spring_faces,3.1.5,59.933581126036195,
condition files/Stage0c_2.xlsx,0c,theta,beta,g,"['h', 'g']","['Chess', 'Go']","[-0.15, 0.5]","[0.15, 0.5]",1,1,0,17,17,17,0,2,2,2,,,,,,,,,,,,,,,,,,,,,,,,,,,,,,,,,,,,,,,,,,,,,,,,,,,,,,,,,,,,,,,2204.774742292,None,2204.774742292,None,2204.774742292,None,g,1,0.984000147000188,2206.3081392680015,None,2206.3081392680015,None,2206.3081392680015,None,2207.358061873001,None,2207.358061873001,None,2207.358061873001,None,2207.358061873001,None,,,,,,,,,,,,,,,,,,,,,,,,,,,,,,,,,,,,,,,,,,,,001,107,2020_Feb_11_1143,spring_faces,3.1.5,59.933581126036195,
condition files/Stage0c_2.xlsx,0c,beta,phi,g,"['h', 'g']","['Chess', 'Go']","[-0.15, 0.5]","[0.15, 0.5]",1,1,0,17,17,17,0,3,3,3,,,,,,,,,,,,,,,,,,,,,,,,,,,,,,,,,,,,,,,,,,,,,,,,,,,,,,,,,,,,,,,2209.3241423240015,None,2209.3241423240015,None,2209.3241423240015,None,g,1,1.1373846880014753,2210.858799347001,None,2210.858799347001,None,2210.858799347001,None,2212.0417400310016,None,2212.0417400310016,None,2212.0417400310016,None,2212.0417400310016,None,,,,,,,,,,,,,,,,,,,,,,,,,,,,,,,,,,,,,,,,,,,,001,107,2020_Feb_11_1143,spring_faces,3.1.5,59.933581126036195,
,,,,,,,,,,,,,,,,,,,,,,,,,,,,,,,,,,,,,,,,,,,,,,,,,,,,,,,,,,,,,,,,,,,,,,,,,,,,,,,,,,,,,,,,,,,,,,,,,,,,,,,,2214.0415873190013,None,space,0.5068474399995466,2219.0414090170016,None,,,,,,,,,,,,,,,,,,,,,,,,,,,,,,,,,,,,,,001,107,2020_Feb_11_1143,spring_faces,3.1.5,59.933581126036195,
condition files/Stage1_1.xlsx,,B4,T4,m,"['c', 'm']","['Clue', 'Monopoly']","[-0.15, 0.5]","[0.15, 0.5]",1,1,,,,,,,,,0,0,0,0,0,0,0,7,,,,,,,,,,,,,,,,,,,,,,,,,,,,,,,,,,,,,,,,,,,,,,,,,,,,,,,2219.608057335001,None,2219.608057335001,None,2219.608057335001,None,c,0,2.4700912259995675,2221.142103987,None,2221.142103987,None,2221.142103987,None,2223.6914531780003,None,2223.6914531780003,None,2223.6914531780003,None,2223.6914531780003,None,,,,,,,2219.0414090170016,None,,,,,,,,,,,,,,,,,,,,,,,,,,,,,,,,,,,,001,107,2020_Feb_11_1143,spring_faces,3.1.5,59.933581126036195,
condition files/Stage1_1.xlsx,,T3,B4,c,"['c', 'm']","['Clue', 'Monopoly']","[-0.15, 0.5]","[0.15, 0.5]",1,1,,,,,,,,,0,0,0,0,0,1,1,5,,,,,,,,,,,,,,,,,,,,,,,,,,,,,,,,,,,,,,,,,,,,,,,,,,,,,,,2225.6413847880012,None,2225.6413847880012,None,2225.6413847880012,None,c,1,2.1329578800014133,2227.1752136270006,None,2227.1752136270006,None,2227.1752136270006,None,2229.37506561,None,2229.37506561,None,2229.37506561,None,2229.37506561,None,,,,,,,,,,,,,,,,,,,,,,,,,,,,,,,,,,,,,,,,,,,,001,107,2020_Feb_11_1143,spring_faces,3.1.5,59.933581126036195,
condition files/Stage1_1.xlsx,,T2,B2,m,"['c', 'm']","['Clue', 'Monopoly']","[-0.15, 0.5]","[0.15, 0.5]",1,1,,,,,,,,,0,0,0,0,0,2,2,3,,,,,,,,,,,,,,,,,,,,,,,,,,,,,,,,,,,,,,,,,,,,,,,,,,,,,,,2231.324728038,None,2231.324728038,None,2231.324728038,None,m,1,1.0408514570008265,2232.8593905870002,None,2232.8593905870002,None,2232.8593905870002,None,2233.9600063740018,None,2233.9600063740018,None,2233.9600063740018,None,2233.9600063740018,None,,,,,,,,,,,,,,,,,,,,,,,,,,,,,,,,,,,,,,,,,,,,001,107,2020_Feb_11_1143,spring_faces,3.1.5,59.933581126036195,
condition files/Stage1_1.xlsx,,B1,T2,c,"['c', 'm']","['Clue', 'Monopoly']","[-0.15, 0.5]","[0.15, 0.5]",1,1,,,,,,,,,0,0,0,0,0,3,3,1,,,,,,,,,,,,,,,,,,,,,,,,,,,,,,,,,,,,,,,,,,,,,,,,,,,,,,,2235.9248371790018,None,2235.9248371790018,None,2235.9248371790018,None,m,0,1.128161167000144,2237.460127735001,None,2237.460127735001,None,2237.460127735001,None,2238.6412088590005,None,2238.6412088590005,None,2238.6412088590005,None,2238.6412088590005,None,,,,,,,,,,,,,,,,,,,,,,,,,,,,,,,,,,,,,,,,,,,,001,107,2020_Feb_11_1143,spring_faces,3.1.5,59.933581126036195,
condition files/Stage1_1.xlsx,,T4,B3,m,"['c', 'm']","['Clue', 'Monopoly']","[-0.15, 0.5]","[0.15, 0.5]",1,1,,,,,,,,,0,0,0,0,0,4,4,6,,,,,,,,,,,,,,,,,,,,,,,,,,,,,,,,,,,,,,,,,,,,,,,,,,,,,,,2240.6081928130006,None,2240.6081928130006,None,2240.6081928130006,None,m,1,2.3979668129995844,2242.142213178,None,2242.142213178,None,2242.142213178,None,2244.6076516790017,None,2244.6076516790017,None,2244.6076516790017,None,2244.6076516790017,None,,,,,,,,,,,,,,,,,,,,,,,,,,,,,,,,,,,,,,,,,,,,001,107,2020_Feb_11_1143,spring_faces,3.1.5,59.933581126036195,
condition files/Stage1_1.xlsx,,T1,B1,c,"['c', 'm']","['Clue', 'Monopoly']","[-0.15, 0.5]","[0.15, 0.5]",1,1,,,,,,,,,0,0,0,0,0,5,5,0,,,,,,,,,,,,,,,,,,,,,,,,,,,,,,,,,,,,,,,,,,,,,,,,,,,,,,,2246.5582761200003,None,2246.5582761200003,None,2246.5582761200003,None,c,1,2.3050510070006567,2248.0911416650015,None,2248.0911416650015,None,2248.0911416650015,None,2250.4754648770013,None,2250.4754648770013,None,2250.4754648770013,None,2250.4754648770013,None,,,,,,,,,,,,,,,,,,,,,,,,,,,,,,,,,,,,,,,,,,,,001,107,2020_Feb_11_1143,spring_faces,3.1.5,59.933581126036195,
condition files/Stage1_1.xlsx,,B3,T3,c,"['c', 'm']","['Clue', 'Monopoly']","[-0.15, 0.5]","[0.15, 0.5]",1,1,,,,,,,,,0,0,0,0,0,6,6,4,,,,,,,,,,,,,,,,,,,,,,,,,,,,,,,,,,,,,,,,,,,,,,,,,,,,,,,2252.4247729360013,None,2252.4247729360013,None,2252.4247729360013,None,m,0,1.7500858759995026,2253.958097795001,None,2253.958097795001,None,2253.958097795001,None,2255.757870581001,None,2255.757870581001,None,2255.757870581001,None,2255.757870581001,None,,,,,,,,,,,,,,,,,,,,,,,,,,,,,,,,,,,,,,,,,,,,001,107,2020_Feb_11_1143,spring_faces,3.1.5,59.933581126036195,
condition files/Stage1_1.xlsx,,B2,T1,m,"['c', 'm']","['Clue', 'Monopoly']","[-0.15, 0.5]","[0.15, 0.5]",1,1,,,,,,,,,0,0,0,0,0,7,7,2,,,,,,,,,,,,,,,,,,,,,,,,,,,,,,,,,,,,,,,,,,,,,,,,,,,,,,,2257.7245027490007,None,2257.7245027490007,None,2257.7245027490007,None,m,1,2.9619109899995237,2259.2581854380005,None,2259.2581854380005,None,2259.2581854380005,None,2262.2740504760004,None,2262.2740504760004,None,2262.2740504760004,None,2262.2740504760004,None,,,,,,,,,,,,,,,,,,,,,,,,,,,,,,,,,,,,,,,,,,,,001,107,2020_Feb_11_1143,spring_faces,3.1.5,59.933581126036195,
condition files/Stage1_2.xlsx,,T2,B1,c,"['c', 'm']","['Clue', 'Monopoly']","[-0.15, 0.5]","[0.15, 0.5]",1,1,,,,,,,,,0,1,1,1,0,0,0,1,,,,,,,,,,,,,,,,,,,,,,,,,,,,,,,,,,,,,,,,,,,,,,,,,,,,,,,2264.258099271001,None,2264.258099271001,None,2264.258099271001,None,m,0,1.4033983480003371,2265.7927933150004,None,2265.7927933150004,None,2265.7927933150004,None,2267.2596663350014,None,2267.2596663350014,None,2267.2596663350014,None,2267.2596663350014,None,,,,,,,,,,,,,,,,,,,,,,,,,,,,,,,,,,,,,,,,,,,,001,107,2020_Feb_11_1143,spring_faces,3.1.5,59.933581126036195,
condition files/Stage1_2.xlsx,,T3,B3,c,"['c', 'm']","['Clue', 'Monopoly']","[-0.15, 0.5]","[0.15, 0.5]",1,1,,,,,,,,,0,1,1,1,0,1,1,4,,,,,,,,,,,,,,,,,,,,,,,,,,,,,,,,,,,,,,,,,,,,,,,,,,,,,,,2269.2248923670013,None,2269.2248923670013,None,2269.2248923670013,None,c,1,1.9893754450004053,2270.7588801640013,None,2270.7588801640013,None,2270.7588801640013,None,2272.8084958790005,None,2272.8084958790005,None,2272.8084958790005,None,2272.8084958790005,None,,,,,,,,,,,,,,,,,,,,,,,,,,,,,,,,,,,,,,,,,,,,001,107,2020_Feb_11_1143,spring_faces,3.1.5,59.933581126036195,
condition files/Stage1_2.xlsx,,B3,T4,m,"['c', 'm']","['Clue', 'Monopoly']","[-0.15, 0.5]","[0.15, 0.5]",1,1,,,,,,,,,0,1,1,1,0,2,2,6,,,,,,,,,,,,,,,,,,,,,,,,,,,,,,,,,,,,,,,,,,,,,,,,,,,,,,,2274.774634667001,None,2274.774634667001,None,2274.774634667001,None,m,1,3.303104637998331,2276.3250627900015,None,2276.3250627900015,None,2276.3250627900015,None,2279.7083185970005,None,2279.7083185970005,None,2279.7083185970005,None,2279.7083185970005,None,,,,,,,,,,,,,,,,,,,,,,,,,,,,,,,,,,,,,,,,,,,,001,107,2020_Feb_11_1143,spring_faces,3.1.5,59.933581126036195,
condition files/Stage1_2.xlsx,,T4,B4,m,"['c', 'm']","['Clue', 'Monopoly']","[-0.15, 0.5]","[0.15, 0.5]",1,1,,,,,,,,,0,1,1,1,0,3,3,7,,,,,,,,,,,,,,,,,,,,,,,,,,,,,,,,,,,,,,,,,,,,,,,,,,,,,,,2281.6581423840016,None,2281.6581423840016,None,2281.6581423840016,None,m,1,2.1966039779999846,2283.1916330740005,None,2283.1916330740005,None,2283.1916330740005,None,2285.4416447330004,None,2285.4416447330004,None,2285.4416447330004,None,2285.4416447330004,None,,,,,,,,,,,,,,,,,,,,,,,,,,,,,,,,,,,,,,,,,,,,001,107,2020_Feb_11_1143,spring_faces,3.1.5,59.933581126036195,
condition files/Stage1_2.xlsx,,B1,T1,c,"['c', 'm']","['Clue', 'Monopoly']","[-0.15, 0.5]","[0.15, 0.5]",1,1,,,,,,,,,0,1,1,1,0,4,4,0,,,,,,,,,,,,,,,,,,,,,,,,,,,,,,,,,,,,,,,,,,,,,,,,,,,,,,,2287.4080321170004,None,2287.4080321170004,None,2287.4080321170004,None,c,1,1.4216253170015989,2288.9585207170003,None,2288.9585207170003,None,2288.9585207170003,None,2290.4411873480003,None,2290.4411873480003,None,2290.4411873480003,None,2290.4411873480003,None,,,,,,,,,,,,,,,,,,,,,,,,,,,,,,,,,,,,,,,,,,,,001,107,2020_Feb_11_1143,spring_faces,3.1.5,59.933581126036195,
condition files/Stage1_2.xlsx,,B2,T2,m,"['c', 'm']","['Clue', 'Monopoly']","[-0.15, 0.5]","[0.15, 0.5]",1,1,,,,,,,,,0,1,1,1,0,5,5,3,,,,,,,,,,,,,,,,,,,,,,,,,,,,,,,,,,,,,,,,,,,,,,,,,,,,,,,2292.4081154190008,None,2292.4081154190008,None,2292.4081154190008,None,c,0,1.493600368999978,2293.9585846100017,None,2293.9585846100017,None,2293.9585846100017,None,2295.5080674790006,None,2295.5080674790006,None,2295.5080674790006,None,2295.5080674790006,None,,,,,,,,,,,,,,,,,,,,,,,,,,,,,,,,,,,,,,,,,,,,001,107,2020_Feb_11_1143,spring_faces,3.1.5,59.933581126036195,
condition files/Stage1_2.xlsx,,B4,T3,c,"['c', 'm']","['Clue', 'Monopoly']","[-0.15, 0.5]","[0.15, 0.5]",1,1,,,,,,,,,0,1,1,1,0,6,6,5,,,,,,,,,,,,,,,,,,,,,,,,,,,,,,,,,,,,,,,,,,,,,,,,,,,,,,,2297.474098247001,None,2297.474098247001,None,2297.474098247001,None,c,1,1.387026574000629,2299.0091620190015,None,2299.0091620190015,None,2299.0091620190015,None,2300.460136384001,None,2300.460136384001,None,2300.460136384001,None,2300.460136384001,None,,,,,,,,,,,,,,,,,,,,,,,,,,,,,,,,,,,,,,,,,,,,001,107,2020_Feb_11_1143,spring_faces,3.1.5,59.933581126036195,
condition files/Stage1_2.xlsx,,T1,B2,m,"['c', 'm']","['Clue', 'Monopoly']","[-0.15, 0.5]","[0.15, 0.5]",1,1,,,,,,,,,0,1,1,1,0,7,7,2,,,,,,,,,,,,,,,,,,,,,,,,,,,,,,,,,,,,,,,,,,,,,,,,,,,,,,,2302.4248113930007,None,2302.4248113930007,None,2302.4248113930007,None,m,1,1.571971854998992,2303.960289204,None,2303.960289204,None,2303.960289204,None,2305.5920772280006,None,2305.5920772280006,None,2305.5920772280006,None,2305.5920772280006,None,,,,,,,,,,,,,,,,,,,,,,,,,,,,,,,,,,,,,,,,,,,,001,107,2020_Feb_11_1143,spring_faces,3.1.5,59.933581126036195,
condition files/Stage1_1.xlsx,,T2,B2,m,"['c', 'm']","['Clue', 'Monopoly']","[-0.15, 0.5]","[0.15, 0.5]",1,1,,,,,,,,,0,2,2,2,0,0,0,3,,,,,,,,,,,,,,,,,,,,,,,,,,,,,,,,,,,,,,,,,,,,,,,,,,,,,,,2307.5744754100015,None,2307.5744754100015,None,2307.5744754100015,None,c,0,2.518879225999626,2309.1092887170016,None,2309.1092887170016,None,2309.1092887170016,None,2311.691340974001,None,2311.691340974001,None,2311.691340974001,None,2311.691340974001,None,,,,,,,,,,,,,,,,,,,,,,,,,,,,,,,,,,,,,,,,,,,,001,107,2020_Feb_11_1143,spring_faces,3.1.5,59.933581126036195,
condition files/Stage1_1.xlsx,,B3,T3,c,"['c', 'm']","['Clue', 'Monopoly']","[-0.15, 0.5]","[0.15, 0.5]",1,1,,,,,,,,,0,2,2,2,0,1,1,4,,,,,,,,,,,,,,,,,,,,,,,,,,,,,,,,,,,,,,,,,,,,,,,,,,,,,,,2313.6575973340005,None,2313.6575973340005,None,2313.6575973340005,None,c,1,2.4841493969997828,2315.2079643800007,None,2315.2079643800007,None,2315.2079643800007,None,2317.7603336190004,None,2317.7603336190004,None,2317.7603336190004,None,2317.7603336190004,None,,,,,,,,,,,,,,,,,,,,,,,,,,,,,,,,,,,,,,,,,,,,001,107,2020_Feb_11_1143,spring_faces,3.1.5,59.933581126036195,
condition files/Stage1_1.xlsx,,T4,B3,m,"['c', 'm']","['Clue', 'Monopoly']","[-0.15, 0.5]","[0.15, 0.5]",1,1,,,,,,,,,0,2,2,2,0,2,2,6,,,,,,,,,,,,,,,,,,,,,,,,,,,,,,,,,,,,,,,,,,,,,,,,,,,,,,,2319.724469803001,None,2319.724469803001,None,2319.724469803001,None,m,1,1.313489092999589,2321.2746508580003,None,2321.2746508580003,None,2321.2746508580003,None,2322.6582719740018,None,2322.6582719740018,None,2322.6582719740018,None,2322.6582719740018,None,,,,,,,,,,,,,,,,,,,,,,,,,,,,,,,,,,,,,,,,,,,,001,107,2020_Feb_11_1143,spring_faces,3.1.5,59.933581126036195,
condition files/Stage1_1.xlsx,,T3,B4,c,"['c', 'm']","['Clue', 'Monopoly']","[-0.15, 0.5]","[0.15, 0.5]",1,1,,,,,,,,,0,2,2,2,0,3,3,5,,,,,,,,,,,,,,,,,,,,,,,,,,,,,,,,,,,,,,,,,,,,,,,,,,,,,,,2324.607910187,None,2324.607910187,None,2324.607910187,None,c,1,1.2784760349986755,2326.141655413001,None,2326.141655413001,None,2326.141655413001,None,2327.477334807001,None,2327.477334807001,None,2327.477334807001,None,2327.477334807001,None,,,,,,,,,,,,,,,,,,,,,,,,,,,,,,,,,,,,,,,,,,,,001,107,2020_Feb_11_1143,spring_faces,3.1.5,59.933581126036195,
condition files/Stage1_1.xlsx,,B1,T2,c,"['c', 'm']","['Clue', 'Monopoly']","[-0.15, 0.5]","[0.15, 0.5]",1,1,,,,,,,,,0,2,2,2,0,4,4,1,,,,,,,,,,,,,,,,,,,,,,,,,,,,,,,,,,,,,,,,,,,,,,,,,,,,,,,2329.4413763110006,None,2329.4413763110006,None,2329.4413763110006,None,m,0,4.9075856740000745,2330.976589457001,None,2330.976589457001,None,2330.976589457001,None,2335.9416511580002,None,2335.9416511580002,None,2335.9416511580002,None,2335.9416511580002,None,,,,,,,,,,,,,,,,,,,,,,,,,,,,,,,,,,,,,,,,,,,,001,107,2020_Feb_11_1143,spring_faces,3.1.5,59.933581126036195,
condition files/Stage1_1.xlsx,,T1,B1,c,"['c', 'm']","['Clue', 'Monopoly']","[-0.15, 0.5]","[0.15, 0.5]",1,1,,,,,,,,,0,2,2,2,0,5,5,0,,,,,,,,,,,,,,,,,,,,,,,,,,,,,,,,,,,,,,,,,,,,,,,,,,,,,,,2337.9078580350015,None,2337.9078580350015,None,2337.9078580350015,None,c,1,1.866191457000241,2339.4579273510008,None,2339.4579273510008,None,2339.4579273510008,None,2341.375032326001,None,2341.375032326001,None,2341.375032326001,None,2341.375032326001,None,,,,,,,,,,,,,,,,,,,,,,,,,,,,,,,,,,,,,,,,,,,,001,107,2020_Feb_11_1143,spring_faces,3.1.5,59.933581126036195,
condition files/Stage1_1.xlsx,,B4,T4,m,"['c', 'm']","['Clue', 'Monopoly']","[-0.15, 0.5]","[0.15, 0.5]",1,1,,,,,,,,,0,2,2,2,0,6,6,7,,,,,,,,,,,,,,,,,,,,,,,,,,,,,,,,,,,,,,,,,,,,,,,,,,,,,,,2343.3406778550016,None,2343.3406778550016,None,2343.3406778550016,None,m,1,1.2001066460015863,2344.876050828001,None,2344.876050828001,None,2344.876050828001,None,2346.1579704960004,None,2346.1579704960004,None,2346.1579704960004,None,2346.1579704960004,None,,,,,,,,,,,,,,,,,,,,,,,,,,,,,,,,,,,,,,,,,,,,001,107,2020_Feb_11_1143,spring_faces,3.1.5,59.933581126036195,
condition files/Stage1_1.xlsx,,B2,T1,m,"['c', 'm']","['Clue', 'Monopoly']","[-0.15, 0.5]","[0.15, 0.5]",1,1,,,,,,,,,0,2,2,2,0,7,7,2,,,,,,,,,,,,,,,,,,,,,,,,,,,,,,,,,,,,,,,,,,,,,,,,,,,,,,,2348.1080829410002,None,2348.1080829410002,None,2348.1080829410002,None,m,1,1.474819668001146,2349.6413390610014,None,2349.6413390610014,None,2349.6413390610014,None,2351.1743606910004,None,2351.1743606910004,None,2351.1743606910004,None,2351.1743606910004,None,,,,,,,,,,,,,,,,,,,,,,,,,,,,,,,,,,,,,,,,,,,,001,107,2020_Feb_11_1143,spring_faces,3.1.5,59.933581126036195,
condition files/Stage1_2.xlsx,,B3,T4,m,"['c', 'm']","['Clue', 'Monopoly']","[-0.15, 0.5]","[0.15, 0.5]",1,1,,,,,,,,,0,3,3,3,0,0,0,6,,,,,,,,,,,,,,,,,,,,,,,,,,,,,,,,,,,,,,,,,,,,,,,,,,,,,,,2353.1576524350003,None,2353.1576524350003,None,2353.1576524350003,None,m,1,1.4321246140007133,2354.708047309001,None,2354.708047309001,None,2354.708047309001,None,2356.191171704,None,2356.191171704,None,2356.191171704,None,2356.191171704,None,,,,,,,,,,,,,,,,,,,,,,,,,,,,,,,,,,,,,,,,,,,,001,107,2020_Feb_11_1143,spring_faces,3.1.5,59.933581126036195,
condition files/Stage1_2.xlsx,,T3,B3,c,"['c', 'm']","['Clue', 'Monopoly']","[-0.15, 0.5]","[0.15, 0.5]",1,1,,,,,,,,,0,3,3,3,0,1,1,4,,,,,,,,,,,,,,,,,,,,,,,,,,,,,,,,,,,,,,,,,,,,,,,,,,,,,,,2358.157943587001,None,2358.157943587001,None,2358.157943587001,None,c,1,1.8886238830000366,2359.6915700930003,None,2359.6915700930003,None,2359.6915700930003,None,2361.6427994680016,None,2361.6427994680016,None,2361.6427994680016,None,2361.6427994680016,None,,,,,,,,,,,,,,,,,,,,,,,,,,,,,,,,,,,,,,,,,,,,001,107,2020_Feb_11_1143,spring_faces,3.1.5,59.933581126036195,
condition files/Stage1_2.xlsx,,B1,T1,c,"['c', 'm']","['Clue', 'Monopoly']","[-0.15, 0.5]","[0.15, 0.5]",1,1,,,,,,,,,0,3,3,3,0,2,2,0,,,,,,,,,,,,,,,,,,,,,,,,,,,,,,,,,,,,,,,,,,,,,,,,,,,,,,,2363.607625437,None,2363.607625437,None,2363.607625437,None,c,1,2.1025614399986807,2365.1575926110017,None,2365.1575926110017,None,2365.1575926110017,None,2367.3246329380017,None,2367.3246329380017,None,2367.3246329380017,None,2367.3246329380017,None,,,,,,,,,,,,,,,,,,,,,,,,,,,,,,,,,,,,,,,,,,,,001,107,2020_Feb_11_1143,spring_faces,3.1.5,59.933581126036195,
condition files/Stage1_2.xlsx,,B4,T3,c,"['c', 'm']","['Clue', 'Monopoly']","[-0.15, 0.5]","[0.15, 0.5]",1,1,,,,,,,,,0,3,3,3,0,3,3,5,,,,,,,,,,,,,,,,,,,,,,,,,,,,,,,,,,,,,,,,,,,,,,,,,,,,,,,2369.2915330860014,None,2369.2915330860014,None,2369.2915330860014,None,c,1,1.2823521410009562,2370.8418105250003,None,2370.8418105250003,None,2370.8418105250003,None,2372.1750944990017,None,2372.1750944990017,None,2372.1750944990017,None,2372.1750944990017,None,,,,,,,,,,,,,,,,,,,,,,,,,,,,,,,,,,,,,,,,,,,,001,107,2020_Feb_11_1143,spring_faces,3.1.5,59.933581126036195,
condition files/Stage1_2.xlsx,,T2,B1,c,"['c', 'm']","['Clue', 'Monopoly']","[-0.15, 0.5]","[0.15, 0.5]",1,1,,,,,,,,,0,3,3,3,0,4,4,1,,,,,,,,,,,,,,,,,,,,,,,,,,,,,,,,,,,,,,,,,,,,,,,,,,,,,,,2374.1415642520005,None,2374.1415642520005,None,2374.1415642520005,None,c,1,1.8411184289998346,2375.6909882140008,None,2375.6909882140008,None,2375.6909882140008,None,2377.591129317001,None,2377.591129317001,None,2377.591129317001,None,2377.591129317001,None,,,,,,,,,,,,,,,,,,,,,,,,,,,,,,,,,,,,,,,,,,,,001,107,2020_Feb_11_1143,spring_faces,3.1.5,59.933581126036195,
condition files/Stage1_2.xlsx,,T4,B4,m,"['c', 'm']","['Clue', 'Monopoly']","[-0.15, 0.5]","[0.15, 0.5]",1,1,,,,,,,,,0,3,3,3,0,5,5,7,,,,,,,,,,,,,,,,,,,,,,,,,,,,,,,,,,,,,,,,,,,,,,,,,,,,,,,2379.5577012480007,None,2379.5577012480007,None,2379.5577012480007,None,m,1,1.2401730159999715,2381.108072453,None,2381.108072453,None,2381.108072453,None,2382.4108108570017,None,2382.4108108570017,None,2382.4108108570017,None,2382.4108108570017,None,,,,,,,,,,,,,,,,,,,,,,,,,,,,,,,,,,,,,,,,,,,,001,107,2020_Feb_11_1143,spring_faces,3.1.5,59.933581126036195,
condition files/Stage1_2.xlsx,,T1,B2,m,"['c', 'm']","['Clue', 'Monopoly']","[-0.15, 0.5]","[0.15, 0.5]",1,1,,,,,,,,,0,3,3,3,0,6,6,2,,,,,,,,,,,,,,,,,,,,,,,,,,,,,,,,,,,,,,,,,,,,,,,,,,,,,,,2384.3743089180007,None,2384.3743089180007,None,2384.3743089180007,None,m,1,1.2243508749998,2385.9079034690003,None,2385.9079034690003,None,2385.9079034690003,None,2387.1918461610003,None,2387.1918461610003,None,2387.1918461610003,None,2387.1918461610003,None,,,,,,,,,,,,,,,,,,,,,,,,,,,,,,,,,,,,,,,,,,,,001,107,2020_Feb_11_1143,spring_faces,3.1.5,59.933581126036195,
condition files/Stage1_2.xlsx,,B2,T2,m,"['c', 'm']","['Clue', 'Monopoly']","[-0.15, 0.5]","[0.15, 0.5]",1,1,,,,,,,,,0,3,3,3,0,7,7,3,,,,,,,,,,,,,,,,,,,,,,,,,,,,,,,,,,,,,,,,,,,,,,,,,,,,,,,2389.1582730130012,None,2389.1582730130012,None,2389.1582730130012,None,m,1,1.6725874149997253,2390.6916663460015,None,2390.6916663460015,None,2390.6916663460015,None,2392.424710827001,None,2392.424710827001,None,2392.424710827001,None,2392.424710827001,None,,,,,,,,,,,,,,,,,,,,,,,,,,,,,,,,,,,,,,,,,,,,001,107,2020_Feb_11_1143,spring_faces,3.1.5,59.933581126036195,
condition files/Stage1_1.xlsx,,T4,B3,m,"['c', 'm']","['Clue', 'Monopoly']","[-0.15, 0.5]","[0.15, 0.5]",1,1,,,,,,,,,0,4,4,4,0,0,0,6,,,,,,,,,,,,,,,,,,,,,,,,,,,,,,,,,,,,,,,,,,,,,,,,,,,,,,,2394.4080887090004,None,2394.4080887090004,None,2394.4080887090004,None,m,1,1.1098314270002447,2395.958418643,None,2395.958418643,None,2395.958418643,None,2397.1251711160003,None,2397.1251711160003,None,2397.1251711160003,None,2397.1251711160003,None,,,,,,,,,,,,,,,,,,,,,,,,,,,,,,,,,,,,,,,,,,,,001,107,2020_Feb_11_1143,spring_faces,3.1.5,59.933581126036195,
condition files/Stage1_1.xlsx,,T3,B4,c,"['c', 'm']","['Clue', 'Monopoly']","[-0.15, 0.5]","[0.15, 0.5]",1,1,,,,,,,,,0,4,4,4,0,1,1,5,,,,,,,,,,,,,,,,,,,,,,,,,,,,,,,,,,,,,,,,,,,,,,,,,,,,,,,2399.0910057830006,None,2399.0910057830006,None,2399.0910057830006,None,c,1,1.3719119030010916,2400.6242738610017,None,2400.6242738610017,None,2400.6242738610017,None,2402.059555031001,None,2402.059555031001,None,2402.059555031001,None,2402.059555031001,None,,,,,,,,,,,,,,,,,,,,,,,,,,,,,,,,,,,,,,,,,,,,001,107,2020_Feb_11_1143,spring_faces,3.1.5,59.933581126036195,
condition files/Stage1_1.xlsx,,B1,T2,c,"['c', 'm']","['Clue', 'Monopoly']","[-0.15, 0.5]","[0.15, 0.5]",1,1,,,,,,,,,0,4,4,4,0,2,2,1,,,,,,,,,,,,,,,,,,,,,,,,,,,,,,,,,,,,,,,,,,,,,,,,,,,,,,,2404.0249171040014,None,2404.0249171040014,None,2404.0249171040014,None,m,0,1.1097838610003237,2405.558464171001,None,2405.558464171001,None,2405.558464171001,None,2406.725125373001,None,2406.725125373001,None,2406.725125373001,None,2406.725125373001,None,,,,,,,,,,,,,,,,,,,,,,,,,,,,,,,,,,,,,,,,,,,,001,107,2020_Feb_11_1143,spring_faces,3.1.5,59.933581126036195,
condition files/Stage1_1.xlsx,,B3,T3,c,"['c', 'm']","['Clue', 'Monopoly']","[-0.15, 0.5]","[0.15, 0.5]",1,1,,,,,,,,,0,4,4,4,0,3,3,4,,,,,,,,,,,,,,,,,,,,,,,,,,,,,,,,,,,,,,,,,,,,,,,,,,,,,,,2408.6916439210017,None,2408.6916439210017,None,2408.6916439210017,None,c,1,1.082663897999737,2410.2415050340005,None,2410.2415050340005,None,2410.2415050340005,None,2411.3742182290007,None,2411.3742182290007,None,2411.3742182290007,None,2411.3742182290007,None,,,,,,,,,,,,,,,,,,,,,,,,,,,,,,,,,,,,,,,,,,,,001,107,2020_Feb_11_1143,spring_faces,3.1.5,59.933581126036195,
condition files/Stage1_1.xlsx,,B4,T4,m,"['c', 'm']","['Clue', 'Monopoly']","[-0.15, 0.5]","[0.15, 0.5]",1,1,,,,,,,,,0,4,4,4,0,4,4,7,,,,,,,,,,,,,,,,,,,,,,,,,,,,,,,,,,,,,,,,,,,,,,,,,,,,,,,2413.341446448001,None,2413.341446448001,None,2413.341446448001,None,m,1,2.3353054729996074,2414.876892108001,None,2414.876892108001,None,2414.876892108001,None,2417.2917236310004,None,2417.2917236310004,None,2417.2917236310004,None,2417.2917236310004,None,,,,,,,,,,,,,,,,,,,,,,,,,,,,,,,,,,,,,,,,,,,,001,107,2020_Feb_11_1143,spring_faces,3.1.5,59.933581126036195,
condition files/Stage1_1.xlsx,,T1,B1,c,"['c', 'm']","['Clue', 'Monopoly']","[-0.15, 0.5]","[0.15, 0.5]",1,1,,,,,,,,,0,4,4,4,0,5,5,0,,,,,,,,,,,,,,,,,,,,,,,,,,,,,,,,,,,,,,,,,,,,,,,,,,,,,,,2419.2414998930017,None,2419.2414998930017,None,2419.2414998930017,None,c,1,3.2523404769999615,2420.7758553040003,None,2420.7758553040003,None,2420.7758553040003,None,2424.0941361620007,None,2424.0941361620007,None,2424.0941361620007,None,2424.0941361620007,None,,,,,,,,,,,,,,,,,,,,,,,,,,,,,,,,,,,,,,,,,,,,001,107,2020_Feb_11_1143,spring_faces,3.1.5,59.933581126036195,
condition files/Stage1_1.xlsx,,B2,T1,m,"['c', 'm']","['Clue', 'Monopoly']","[-0.15, 0.5]","[0.15, 0.5]",1,1,,,,,,,,,0,4,4,4,0,6,6,2,,,,,,,,,,,,,,,,,,,,,,,,,,,,,,,,,,,,,,,,,,,,,,,,,,,,,,,2426.0583085240014,None,2426.0583085240014,None,2426.0583085240014,None,c,0,1.3483337410016247,2427.5918332200017,None,2427.5918332200017,None,2427.5918332200017,None,2429.007965812001,None,2429.007965812001,None,2429.007965812001,None,2429.007965812001,None,,,,,,,,,,,,,,,,,,,,,,,,,,,,,,,,,,,,,,,,,,,,001,107,2020_Feb_11_1143,spring_faces,3.1.5,59.933581126036195,
condition files/Stage1_1.xlsx,,T2,B2,m,"['c', 'm']","['Clue', 'Monopoly']","[-0.15, 0.5]","[0.15, 0.5]",1,1,,,,,,,,,0,4,4,4,0,7,7,3,,,,,,,,,,,,,,,,,,,,,,,,,,,,,,,,,,,,,,,,,,,,,,,,,,,,,,,2430.958166841001,None,2430.958166841001,None,2430.958166841001,None,m,1,1.4065348809999705,2432.4937172870013,None,2432.4937172870013,None,2432.4937172870013,None,2433.9584225450017,None,2433.9584225450017,None,2433.9584225450017,None,2433.9584225450017,None,,,,,,,,,,,,,,,,,,,,,,,,,,,,,,,,,,,,,,,,,,,,001,107,2020_Feb_11_1143,spring_faces,3.1.5,59.933581126036195,
condition files/Stage1_2.xlsx,,B3,T4,m,"['c', 'm']","['Clue', 'Monopoly']","[-0.15, 0.5]","[0.15, 0.5]",1,1,,,,,,,,,0,5,5,5,0,0,0,6,,,,,,,,,,,,,,,,,,,,,,,,,,,,,,,,,,,,,,,,,,,,,,,,,,,,,,,2435.9417425280008,None,2435.9417425280008,None,2435.9417425280008,None,m,1,1.14524222,2437.4749425160007,None,2437.4749425160007,None,2437.4749425160007,None,2438.674660044,None,2438.674660044,None,2438.674660044,None,2438.674660044,None,,,,,,,,,,,,,,,,,,,,,,,,,,,,,,,,,,,,,,,,,,,,001,107,2020_Feb_11_1143,spring_faces,3.1.5,59.933581126036195,
condition files/Stage1_2.xlsx,,B4,T3,c,"['c', 'm']","['Clue', 'Monopoly']","[-0.15, 0.5]","[0.15, 0.5]",1,1,,,,,,,,,0,5,5,5,0,1,1,5,,,,,,,,,,,,,,,,,,,,,,,,,,,,,,,,,,,,,,,,,,,,,,,,,,,,,,,2440.6414664640015,None,2440.6414664640015,None,2440.6414664640015,None,c,1,1.148738615000184,2442.1754372410014,None,2442.1754372410014,None,2442.1754372410014,None,2443.391820902001,None,2443.391820902001,None,2443.391820902001,None,2443.391820902001,None,,,,,,,,,,,,,,,,,,,,,,,,,,,,,,,,,,,,,,,,,,,,001,107,2020_Feb_11_1143,spring_faces,3.1.5,59.933581126036195,
condition files/Stage1_2.xlsx,,B2,T2,m,"['c', 'm']","['Clue', 'Monopoly']","[-0.15, 0.5]","[0.15, 0.5]",1,1,,,,,,,,,0,5,5,5,0,2,2,3,,,,,,,,,,,,,,,,,,,,,,,,,,,,,,,,,,,,,,,,,,,,,,,,,,,,,,,2445.34150106,None,2445.34150106,None,2445.34150106,None,m,1,1.0882173209993198,2446.876047932001,None,2446.876047932001,None,2446.876047932001,None,2448.0413091750015,None,2448.0413091750015,None,2448.0413091750015,None,2448.0413091750015,None,,,,,,,,,,,,,,,,,,,,,,,,,,,,,,,,,,,,,,,,,,,,001,107,2020_Feb_11_1143,spring_faces,3.1.5,59.933581126036195,
condition files/Stage1_2.xlsx,,T2,B1,c,"['c', 'm']","['Clue', 'Monopoly']","[-0.15, 0.5]","[0.15, 0.5]",1,1,,,,,,,,,0,5,5,5,0,3,3,1,,,,,,,,,,,,,,,,,,,,,,,,,,,,,,,,,,,,,,,,,,,,,,,,,,,,,,,2449.991449729001,None,2449.991449729001,None,2449.991449729001,None,m,0,1.0623989149989939,2451.541768936,None,2451.541768936,None,2451.541768936,None,2452.6589126360013,None,2452.6589126360013,None,2452.6589126360013,None,2452.6589126360013,None,,,,,,,,,,,,,,,,,,,,,,,,,,,,,,,,,,,,,,,,,,,,001,107,2020_Feb_11_1143,spring_faces,3.1.5,59.933581126036195,
condition files/Stage1_2.xlsx,,T4,B4,m,"['c', 'm']","['Clue', 'Monopoly']","[-0.15, 0.5]","[0.15, 0.5]",1,1,,,,,,,,,0,5,5,5,0,4,4,7,,,,,,,,,,,,,,,,,,,,,,,,,,,,,,,,,,,,,,,,,,,,,,,,,,,,,,,2454.624134429001,None,2454.624134429001,None,2454.624134429001,None,m,1,1.3103770800007624,2456.1578601150013,None,2456.1578601150013,None,2456.1578601150013,None,2457.541754863001,None,2457.541754863001,None,2457.541754863001,None,2457.541754863001,None,,,,,,,,,,,,,,,,,,,,,,,,,,,,,,,,,,,,,,,,,,,,001,107,2020_Feb_11_1143,spring_faces,3.1.5,59.933581126036195,
condition files/Stage1_2.xlsx,,T1,B2,m,"['c', 'm']","['Clue', 'Monopoly']","[-0.15, 0.5]","[0.15, 0.5]",1,1,,,,,,,,,0,5,5,5,0,5,5,2,,,,,,,,,,,,,,,,,,,,,,,,,,,,,,,,,,,,,,,,,,,,,,,,,,,,,,,2459.491130548,None,2459.491130548,None,2459.491130548,None,m,1,1.1948520860005374,2461.025327096,None,2461.025327096,None,2461.025327096,None,2462.2749349600017,None,2462.2749349600017,None,2462.2749349600017,None,2462.2749349600017,None,,,,,,,,,,,,,,,,,,,,,,,,,,,,,,,,,,,,,,,,,,,,001,107,2020_Feb_11_1143,spring_faces,3.1.5,59.933581126036195,
condition files/Stage1_2.xlsx,,T3,B3,c,"['c', 'm']","['Clue', 'Monopoly']","[-0.15, 0.5]","[0.15, 0.5]",1,1,,,,,,,,,0,5,5,5,0,6,6,4,,,,,,,,,,,,,,,,,,,,,,,,,,,,,,,,,,,,,,,,,,,,,,,,,,,,,,,2464.241330097,None,2464.241330097,None,2464.241330097,None,c,1,1.228763250999691,2465.775429145,None,2465.775429145,None,2465.775429145,None,2467.0592454780017,None,2467.0592454780017,None,2467.0592454780017,None,2467.0592454780017,None,,,,,,,,,,,,,,,,,,,,,,,,,,,,,,,,,,,,,,,,,,,,001,107,2020_Feb_11_1143,spring_faces,3.1.5,59.933581126036195,
condition files/Stage1_2.xlsx,,B1,T1,c,"['c', 'm']","['Clue', 'Monopoly']","[-0.15, 0.5]","[0.15, 0.5]",1,1,,,,,,,,,0,5,5,5,0,7,7,0,,,,,,,,,,,,,,,,,,,,,,,,,,,,,,,,,,,,,,,,,,,,,,,,,,,,,,,2469.024200287002,None,2469.024200287002,None,2469.024200287002,None,m,0,1.7408068840013584,2470.5594399620004,None,2470.5594399620004,None,2470.5594399620004,None,2472.3580686210007,None,2472.3580686210007,None,2472.3580686210007,None,2472.3580686210007,None,,,,,,,,,,,,,,,,,,,,,,,,,,,,,,,,,,,,,,,,,,,,001,107,2020_Feb_11_1143,spring_faces,3.1.5,59.933581126036195,
condition files/Stage1_1.xlsx,,B3,T3,c,"['c', 'm']","['Clue', 'Monopoly']","[-0.15, 0.5]","[0.15, 0.5]",1,1,,,,,,,,,0,6,6,6,0,0,0,4,,,,,,,,,,,,,,,,,,,,,,,,,,,,,,,,,,,,,,,,,,,,,,,,,,,,,,,2474.341923031001,None,2474.341923031001,None,2474.341923031001,None,c,1,1.19259713899919,2475.891663964001,None,2475.891663964001,None,2475.891663964001,None,2477.1417492600012,None,2477.1417492600012,None,2477.1417492600012,None,2477.1417492600012,None,,,,,,,,,,,,,,,,,,,,,,,,,,,,,,,,,,,,,,,,,,,,001,107,2020_Feb_11_1143,spring_faces,3.1.5,59.933581126036195,
condition files/Stage1_1.xlsx,,T3,B4,c,"['c', 'm']","['Clue', 'Monopoly']","[-0.15, 0.5]","[0.15, 0.5]",1,1,,,,,,,,,0,6,6,6,0,1,1,5,,,,,,,,,,,,,,,,,,,,,,,,,,,,,,,,,,,,,,,,,,,,,,,,,,,,,,,2479.108524092,None,2479.108524092,None,2479.108524092,None,c,1,1.0032272880016535,2480.640955052,None,2480.640955052,None,2480.640955052,None,2481.707999428001,None,2481.707999428001,None,2481.707999428001,None,2481.707999428001,None,,,,,,,,,,,,,,,,,,,,,,,,,,,,,,,,,,,,,,,,,,,,001,107,2020_Feb_11_1143,spring_faces,3.1.5,59.933581126036195,
condition files/Stage1_1.xlsx,,T4,B3,m,"['c', 'm']","['Clue', 'Monopoly']","[-0.15, 0.5]","[0.15, 0.5]",1,1,,,,,,,,,0,6,6,6,0,2,2,6,,,,,,,,,,,,,,,,,,,,,,,,,,,,,,,,,,,,,,,,,,,,,,,,,,,,,,,2483.6741699110007,None,2483.6741699110007,None,2483.6741699110007,None,m,1,1.332314937000774,2485.207873227,None,2485.207873227,None,2485.207873227,None,2486.5918067600014,None,2486.5918067600014,None,2486.5918067600014,None,2486.5918067600014,None,,,,,,,,,,,,,,,,,,,,,,,,,,,,,,,,,,,,,,,,,,,,001,107,2020_Feb_11_1143,spring_faces,3.1.5,59.933581126036195,
condition files/Stage1_1.xlsx,,T2,B2,m,"['c', 'm']","['Clue', 'Monopoly']","[-0.15, 0.5]","[0.15, 0.5]",1,1,,,,,,,,,0,6,6,6,0,3,3,3,,,,,,,,,,,,,,,,,,,,,,,,,,,,,,,,,,,,,,,,,,,,,,,,,,,,,,,2488.558666846,None,2488.558666846,None,2488.558666846,None,m,1,1.503874302999975,2490.1083066190004,None,2490.1083066190004,None,2490.1083066190004,None,2491.674238644,None,2491.674238644,None,2491.674238644,None,2491.674238644,None,,,,,,,,,,,,,,,,,,,,,,,,,,,,,,,,,,,,,,,,,,,,001,107,2020_Feb_11_1143,spring_faces,3.1.5,59.933581126036195,
condition files/Stage1_1.xlsx,,B1,T2,c,"['c', 'm']","['Clue', 'Monopoly']","[-0.15, 0.5]","[0.15, 0.5]",1,1,,,,,,,,,0,6,6,6,0,4,4,1,,,,,,,,,,,,,,,,,,,,,,,,,,,,,,,,,,,,,,,,,,,,,,,,,,,,,,,2493.6415624110014,None,2493.6415624110014,None,2493.6415624110014,None,c,1,1.1882501839991164,2495.1760079370015,None,2495.1760079370015,None,2495.1760079370015,None,2496.440999780001,None,2496.440999780001,None,2496.440999780001,None,2496.440999780001,None,,,,,,,,,,,,,,,,,,,,,,,,,,,,,,,,,,,,,,,,,,,,001,107,2020_Feb_11_1143,spring_faces,3.1.5,59.933581126036195,
condition files/Stage1_1.xlsx,,B4,T4,m,"['c', 'm']","['Clue', 'Monopoly']","[-0.15, 0.5]","[0.15, 0.5]",1,1,,,,,,,,,0,6,6,6,0,5,5,7,,,,,,,,,,,,,,,,,,,,,,,,,,,,,,,,,,,,,,,,,,,,,,,,,,,,,,,2498.391561309001,None,2498.391561309001,None,2498.391561309001,None,m,1,1.3679507769993506,2499.9242128760015,None,2499.9242128760015,None,2499.9242128760015,None,2501.3751169980005,None,2501.3751169980005,None,2501.3751169980005,None,2501.3751169980005,None,,,,,,,,,,,,,,,,,,,,,,,,,,,,,,,,,,,,,,,,,,,,001,107,2020_Feb_11_1143,spring_faces,3.1.5,59.933581126036195,
condition files/Stage1_1.xlsx,,B2,T1,m,"['c', 'm']","['Clue', 'Monopoly']","[-0.15, 0.5]","[0.15, 0.5]",1,1,,,,,,,,,0,6,6,6,0,6,6,2,,,,,,,,,,,,,,,,,,,,,,,,,,,,,,,,,,,,,,,,,,,,,,,,,,,,,,,2503.3247650130015,None,2503.3247650130015,None,2503.3247650130015,None,m,1,1.7125640529993689,2504.859621546,None,2504.859621546,None,2504.859621546,None,2506.625072488001,None,2506.625072488001,None,2506.625072488001,None,2506.625072488001,None,,,,,,,,,,,,,,,,,,,,,,,,,,,,,,,,,,,,,,,,,,,,001,107,2020_Feb_11_1143,spring_faces,3.1.5,59.933581126036195,
condition files/Stage1_1.xlsx,,T1,B1,c,"['c', 'm']","['Clue', 'Monopoly']","[-0.15, 0.5]","[0.15, 0.5]",1,1,,,,,,,,,0,6,6,6,0,7,7,0,,,,,,,,,,,,,,,,,,,,,,,,,,,,,,,,,,,,,,,,,,,,,,,,,,,,,,,2508.5915871830002,None,2508.5915871830002,None,2508.5915871830002,None,c,1,1.7414514720003353,2510.126792913001,None,2510.126792913001,None,2510.126792913001,None,2511.9273276430013,None,2511.9273276430013,None,2511.9273276430013,None,2511.9273276430013,None,,,,,,,,,,,,,,,,,,,,,,,,,,,,,,,,,,,,,,,,,,,,001,107,2020_Feb_11_1143,spring_faces,3.1.5,59.933581126036195,
condition files/Stage1_2.xlsx,,B1,T1,c,"['c', 'm']","['Clue', 'Monopoly']","[-0.15, 0.5]","[0.15, 0.5]",1,1,,,,,,,,,0,7,7,7,0,0,0,0,,,,,,,,,,,,,,,,,,,,,,,,,,,,,,,,,,,,,,,,,,,,,,,,,,,,,,,2513.9084333320006,None,2513.9084333320006,None,2513.9084333320006,None,m,0,1.4035393229987676,2515.4406699150004,None,2515.4406699150004,None,2515.4406699150004,None,2516.9083103330013,None,2516.9083103330013,None,2516.9083103330013,None,2516.9083103330013,None,,,,,,,,,,,,,,,,,,,,,,,,,,,,,,,,,,,,,,,,,,,,001,107,2020_Feb_11_1143,spring_faces,3.1.5,59.933581126036195,
condition files/Stage1_2.xlsx,,T1,B2,m,"['c', 'm']","['Clue', 'Monopoly']","[-0.15, 0.5]","[0.15, 0.5]",1,1,,,,,,,,,0,7,7,7,0,1,1,2,,,,,,,,,,,,,,,,,,,,,,,,,,,,,,,,,,,,,,,,,,,,,,,,,,,,,,,2518.874858680001,None,2518.874858680001,None,2518.874858680001,None,m,1,1.2831011250000302,2520.4250551900004,None,2520.4250551900004,None,2520.4250551900004,None,2521.7750977780015,None,2521.7750977780015,None,2521.7750977780015,None,2521.7750977780015,None,,,,,,,,,,,,,,,,,,,,,,,,,,,,,,,,,,,,,,,,,,,,001,107,2020_Feb_11_1143,spring_faces,3.1.5,59.933581126036195,
condition files/Stage1_2.xlsx,,B4,T3,c,"['c', 'm']","['Clue', 'Monopoly']","[-0.15, 0.5]","[0.15, 0.5]",1,1,,,,,,,,,0,7,7,7,0,2,2,5,,,,,,,,,,,,,,,,,,,,,,,,,,,,,,,,,,,,,,,,,,,,,,,,,,,,,,,2523.7247909330017,None,2523.7247909330017,None,2523.7247909330017,None,c,1,1.569934008999553,2525.2582604400013,None,2525.2582604400013,None,2525.2582604400013,None,2526.8923168830006,None,2526.8923168830006,None,2526.8923168830006,None,2526.8923168830006,None,,,,,,,,,,,,,,,,,,,,,,,,,,,,,,,,,,,,,,,,,,,,001,107,2020_Feb_11_1143,spring_faces,3.1.5,59.933581126036195,
condition files/Stage1_2.xlsx,,T3,B3,c,"['c', 'm']","['Clue', 'Monopoly']","[-0.15, 0.5]","[0.15, 0.5]",1,1,,,,,,,,,0,7,7,7,0,3,3,4,,,,,,,,,,,,,,,,,,,,,,,,,,,,,,,,,,,,,,,,,,,,,,,,,,,,,,,2528.8580869550005,None,2528.8580869550005,None,2528.8580869550005,None,c,1,1.363545490999968,2530.3926432980006,None,2530.3926432980006,None,2530.3926432980006,None,2531.8083432410003,None,2531.8083432410003,None,2531.8083432410003,None,2531.8083432410003,None,,,,,,,,,,,,,,,,,,,,,,,,,,,,,,,,,,,,,,,,,,,,001,107,2020_Feb_11_1143,spring_faces,3.1.5,59.933581126036195,
condition files/Stage1_2.xlsx,,B2,T2,m,"['c', 'm']","['Clue', 'Monopoly']","[-0.15, 0.5]","[0.15, 0.5]",1,1,,,,,,,,,0,7,7,7,0,4,4,3,,,,,,,,,,,,,,,,,,,,,,,,,,,,,,,,,,,,,,,,,,,,,,,,,,,,,,,2533.7749358790006,None,2533.7749358790006,None,2533.7749358790006,None,m,1,1.1191311910006334,2535.3250438780015,None,2535.3250438780015,None,2535.3250438780015,None,2536.5098745350006,None,2536.5098745350006,None,2536.5098745350006,None,2536.5098745350006,None,,,,,,,,,,,,,,,,,,,,,,,,,,,,,,,,,,,,,,,,,,,,001,107,2020_Feb_11_1143,spring_faces,3.1.5,59.933581126036195,
condition files/Stage1_2.xlsx,,T4,B4,m,"['c', 'm']","['Clue', 'Monopoly']","[-0.15, 0.5]","[0.15, 0.5]",1,1,,,,,,,,,0,7,7,7,0,5,5,7,,,,,,,,,,,,,,,,,,,,,,,,,,,,,,,,,,,,,,,,,,,,,,,,,,,,,,,2538.474893140001,None,2538.474893140001,None,2538.474893140001,None,m,1,1.1871668559997488,2540.0090365590004,None,2540.0090365590004,None,2540.0090365590004,None,2541.258643981,None,2541.258643981,None,2541.258643981,None,2541.258643981,None,,,,,,,,,,,,,,,,,,,,,,,,,,,,,,,,,,,,,,,,,,,,001,107,2020_Feb_11_1143,spring_faces,3.1.5,59.933581126036195,
condition files/Stage1_2.xlsx,,B3,T4,m,"['c', 'm']","['Clue', 'Monopoly']","[-0.15, 0.5]","[0.15, 0.5]",1,1,,,,,,,,,0,7,7,7,0,6,6,6,,,,,,,,,,,,,,,,,,,,,,,,,,,,,,,,,,,,,,,,,,,,,,,,,,,,,,,2543.2247556400016,None,2543.2247556400016,None,2543.2247556400016,None,m,1,1.0932724419999431,2544.774972287001,None,2544.774972287001,None,2544.774972287001,None,2545.9251792390005,None,2545.9251792390005,None,2545.9251792390005,None,2545.9251792390005,None,,,,,,,,,,,,,,,,,,,,,,,,,,,,,,,,,,,,,,,,,,,,001,107,2020_Feb_11_1143,spring_faces,3.1.5,59.933581126036195,
condition files/Stage1_2.xlsx,,T2,B1,c,"['c', 'm']","['Clue', 'Monopoly']","[-0.15, 0.5]","[0.15, 0.5]",1,1,,,,,,,,,0,7,7,7,0,7,7,1,,,,,,,,,,,,,,,,,,,,,,,,,,,,,,,,,,,,,,,,,,,,,,,,,,,,,,,2547.8908459760005,None,2547.8908459760005,None,2547.8908459760005,None,c,1,1.8983480940005393,2549.44182258,None,2549.44182258,None,2549.44182258,None,2551.393534283001,None,2551.393534283001,None,2551.393534283001,None,2551.393534283001,None,,,,,,,,,,,,,,,,,,,,,,,,,,,,,,,,,,,,,,,,,,,,001,107,2020_Feb_11_1143,spring_faces,3.1.5,59.933581126036195,
condition files/Stage1_1.xlsx,,B3,T3,c,"['c', 'm']","['Clue', 'Monopoly']","[-0.15, 0.5]","[0.15, 0.5]",1,1,,,,,,,,,0,8,8,8,0,0,0,4,,,,,,,,,,,,,,,,,,,,,,,,,,,,,,,,,,,,,,,,,,,,,,,,,,,,,,,2553.375481989,None,2553.375481989,None,2553.375481989,None,c,1,1.1683505969995167,2554.9078241710013,None,2554.9078241710013,None,2554.9078241710013,None,2556.141848180001,None,2556.141848180001,None,2556.141848180001,None,2556.141848180001,None,,,,,,,,,,,,,,,,,,,,,,,,,,,,,,,,,,,,,,,,,,,,001,107,2020_Feb_11_1143,spring_faces,3.1.5,59.933581126036195,
condition files/Stage1_1.xlsx,,B4,T4,m,"['c', 'm']","['Clue', 'Monopoly']","[-0.15, 0.5]","[0.15, 0.5]",1,1,,,,,,,,,0,8,8,8,0,1,1,7,,,,,,,,,,,,,,,,,,,,,,,,,,,,,,,,,,,,,,,,,,,,,,,,,,,,,,,2558.107651845001,None,2558.107651845001,None,2558.107651845001,None,m,1,1.1214645860000019,2559.642784042,None,2559.642784042,None,2559.642784042,None,2560.841946235001,None,2560.841946235001,None,2560.841946235001,None,2560.841946235001,None,,,,,,,,,,,,,,,,,,,,,,,,,,,,,,,,,,,,,,,,,,,,001,107,2020_Feb_11_1143,spring_faces,3.1.5,59.933581126036195,
condition files/Stage1_1.xlsx,,T1,B1,c,"['c', 'm']","['Clue', 'Monopoly']","[-0.15, 0.5]","[0.15, 0.5]",1,1,,,,,,,,,0,8,8,8,0,2,2,0,,,,,,,,,,,,,,,,,,,,,,,,,,,,,,,,,,,,,,,,,,,,,,,,,,,,,,,2562.7915350660005,None,2562.7915350660005,None,2562.7915350660005,None,c,1,1.2232044100001076,2564.3250603780016,None,2564.3250603780016,None,2564.3250603780016,None,2565.6248646110016,None,2565.6248646110016,None,2565.6248646110016,None,2565.6248646110016,None,,,,,,,,,,,,,,,,,,,,,,,,,,,,,,,,,,,,,,,,,,,,001,107,2020_Feb_11_1143,spring_faces,3.1.5,59.933581126036195,
condition files/Stage1_1.xlsx,,T2,B2,m,"['c', 'm']","['Clue', 'Monopoly']","[-0.15, 0.5]","[0.15, 0.5]",1,1,,,,,,,,,0,8,8,8,0,3,3,3,,,,,,,,,,,,,,,,,,,,,,,,,,,,,,,,,,,,,,,,,,,,,,,,,,,,,,,2567.574107218001,None,2567.574107218001,None,2567.574107218001,None,m,1,1.1754801620008948,2569.108791816001,None,2569.108791816001,None,2569.108791816001,None,2570.342799829001,None,2570.342799829001,None,2570.342799829001,None,2570.342799829001,None,,,,,,,,,,,,,,,,,,,,,,,,,,,,,,,,,,,,,,,,,,,,001,107,2020_Feb_11_1143,spring_faces,3.1.5,59.933581126036195,
condition files/Stage1_1.xlsx,,B2,T1,m,"['c', 'm']","['Clue', 'Monopoly']","[-0.15, 0.5]","[0.15, 0.5]",1,1,,,,,,,,,0,8,8,8,0,4,4,2,,,,,,,,,,,,,,,,,,,,,,,,,,,,,,,,,,,,,,,,,,,,,,,,,,,,,,,2572.308480619002,None,2572.308480619002,None,2572.308480619002,None,m,1,1.1936681770002906,2573.8425184940006,None,2573.8425184940006,None,2573.8425184940006,None,2575.0910892260017,None,2575.0910892260017,None,2575.0910892260017,None,2575.0910892260017,None,,,,,,,,,,,,,,,,,,,,,,,,,,,,,,,,,,,,,,,,,,,,001,107,2020_Feb_11_1143,spring_faces,3.1.5,59.933581126036195,
condition files/Stage1_1.xlsx,,T3,B4,c,"['c', 'm']","['Clue', 'Monopoly']","[-0.15, 0.5]","[0.15, 0.5]",1,1,,,,,,,,,0,8,8,8,0,5,5,5,,,,,,,,,,,,,,,,,,,,,,,,,,,,,,,,,,,,,,,,,,,,,,,,,,,,,,,2577.057659979,None,2577.057659979,None,2577.057659979,None,c,1,1.1644259349995991,2578.5917647720016,None,2578.5917647720016,None,2578.5917647720016,None,2579.8072922560004,None,2579.8072922560004,None,2579.8072922560004,None,2579.8072922560004,None,,,,,,,,,,,,,,,,,,,,,,,,,,,,,,,,,,,,,,,,,,,,001,107,2020_Feb_11_1143,spring_faces,3.1.5,59.933581126036195,
condition files/Stage1_1.xlsx,,B1,T2,c,"['c', 'm']","['Clue', 'Monopoly']","[-0.15, 0.5]","[0.15, 0.5]",1,1,,,,,,,,,0,8,8,8,0,6,6,1,,,,,,,,,,,,,,,,,,,,,,,,,,,,,,,,,,,,,,,,,,,,,,,,,,,,,,,2581.774113351001,None,2581.774113351001,None,2581.774113351001,None,c,1,1.599413863999871,2583.308747668001,None,2583.308747668001,None,2583.308747668001,None,2584.9583715840017,None,2584.9583715840017,None,2584.9583715840017,None,2584.9583715840017,None,,,,,,,,,,,,,,,,,,,,,,,,,,,,,,,,,,,,,,,,,,,,001,107,2020_Feb_11_1143,spring_faces,3.1.5,59.933581126036195,
condition files/Stage1_1.xlsx,,T4,B3,m,"['c', 'm']","['Clue', 'Monopoly']","[-0.15, 0.5]","[0.15, 0.5]",1,1,,,,,,,,,0,8,8,8,0,7,7,6,,,,,,,,,,,,,,,,,,,,,,,,,,,,,,,,,,,,,,,,,,,,,,,,,,,,,,,2586.9242665520014,None,2586.9242665520014,None,2586.9242665520014,None,m,1,1.1381880409990117,2588.458004600001,None,2588.458004600001,None,2588.458004600001,None,2589.6751420770015,None,2589.6751420770015,None,2589.6751420770015,None,2589.6751420770015,None,,,,,,,,,,,,,,,,,,,,,,,,,,,,,,,,,,,,,,,,,,,,001,107,2020_Feb_11_1143,spring_faces,3.1.5,59.933581126036195,
condition files/Stage1_2.xlsx,,T1,B2,m,"['c', 'm']","['Clue', 'Monopoly']","[-0.15, 0.5]","[0.15, 0.5]",1,1,,,,,,,,,0,9,9,9,0,0,0,2,,,,,,,,,,,,,,,,,,,,,,,,,,,,,,,,,,,,,,,,,,,,,,,,,,,,,,,2591.6418795300015,None,2591.6418795300015,None,2591.6418795300015,None,m,1,1.365438026999982,2593.1747553680016,None,2593.1747553680016,None,2593.1747553680016,None,2594.591453389001,None,2594.591453389001,None,2594.591453389001,None,2594.591453389001,None,,,,,,,,,,,,,,,,,,,,,,,,,,,,,,,,,,,,,,,,,,,,001,107,2020_Feb_11_1143,spring_faces,3.1.5,59.933581126036195,
condition files/Stage1_2.xlsx,,B1,T1,c,"['c', 'm']","['Clue', 'Monopoly']","[-0.15, 0.5]","[0.15, 0.5]",1,1,,,,,,,,,0,9,9,9,0,1,1,0,,,,,,,,,,,,,,,,,,,,,,,,,,,,,,,,,,,,,,,,,,,,,,,,,,,,,,,2596.5580548730013,None,2596.5580548730013,None,2596.5580548730013,None,c,1,1.567660638000234,2598.092474729001,None,2598.092474729001,None,2598.092474729001,None,2599.7257185770013,None,2599.7257185770013,None,2599.7257185770013,None,2599.7257185770013,None,,,,,,,,,,,,,,,,,,,,,,,,,,,,,,,,,,,,,,,,,,,,001,107,2020_Feb_11_1143,spring_faces,3.1.5,59.933581126036195,
condition files/Stage1_2.xlsx,,B2,T2,m,"['c', 'm']","['Clue', 'Monopoly']","[-0.15, 0.5]","[0.15, 0.5]",1,1,,,,,,,,,0,9,9,9,0,2,2,3,,,,,,,,,,,,,,,,,,,,,,,,,,,,,,,,,,,,,,,,,,,,,,,,,,,,,,,2601.691364049,None,2601.691364049,None,2601.691364049,None,m,1,1.3473094750006567,2603.2248850270007,None,2603.2248850270007,None,2603.2248850270007,None,2604.6269489410006,None,2604.6269489410006,None,2604.6269489410006,None,2604.6269489410006,None,,,,,,,,,,,,,,,,,,,,,,,,,,,,,,,,,,,,,,,,,,,,001,107,2020_Feb_11_1143,spring_faces,3.1.5,59.933581126036195,
condition files/Stage1_2.xlsx,,T4,B4,m,"['c', 'm']","['Clue', 'Monopoly']","[-0.15, 0.5]","[0.15, 0.5]",1,1,,,,,,,,,0,9,9,9,0,3,3,7,,,,,,,,,,,,,,,,,,,,,,,,,,,,,,,,,,,,,,,,,,,,,,,,,,,,,,,2606.5913946980017,None,2606.5913946980017,None,2606.5913946980017,None,m,1,1.1814129960002901,2608.1267802320017,None,2608.1267802320017,None,2608.1267802320017,None,2609.357909628001,None,2609.357909628001,None,2609.357909628001,None,2609.357909628001,None,,,,,,,,,,,,,,,,,,,,,,,,,,,,,,,,,,,,,,,,,,,,001,107,2020_Feb_11_1143,spring_faces,3.1.5,59.933581126036195,
condition files/Stage1_2.xlsx,,T2,B1,c,"['c', 'm']","['Clue', 'Monopoly']","[-0.15, 0.5]","[0.15, 0.5]",1,1,,,,,,,,,0,9,9,9,0,4,4,1,,,,,,,,,,,,,,,,,,,,,,,,,,,,,,,,,,,,,,,,,,,,,,,,,,,,,,,2611.324816585,None,2611.324816585,None,2611.324816585,None,c,1,1.2809251769995171,2612.8592672470004,None,2612.8592672470004,None,2612.8592672470004,None,2614.194247266001,None,2614.194247266001,None,2614.194247266001,None,2614.194247266001,None,,,,,,,,,,,,,,,,,,,,,,,,,,,,,,,,,,,,,,,,,,,,001,107,2020_Feb_11_1143,spring_faces,3.1.5,59.933581126036195,
condition files/Stage1_2.xlsx,,B3,T4,m,"['c', 'm']","['Clue', 'Monopoly']","[-0.15, 0.5]","[0.15, 0.5]",1,1,,,,,,,,,0,9,9,9,0,5,5,6,,,,,,,,,,,,,,,,,,,,,,,,,,,,,,,,,,,,,,,,,,,,,,,,,,,,,,,2616.1581540780007,None,2616.1581540780007,None,2616.1581540780007,None,m,1,1.2161038020003616,2617.692075873001,None,2617.692075873001,None,2617.692075873001,None,2618.9601133580018,None,2618.9601133580018,None,2618.9601133580018,None,2618.9601133580018,None,,,,,,,,,,,,,,,,,,,,,,,,,,,,,,,,,,,,,,,,,,,,001,107,2020_Feb_11_1143,spring_faces,3.1.5,59.933581126036195,
condition files/Stage1_2.xlsx,,T3,B3,c,"['c', 'm']","['Clue', 'Monopoly']","[-0.15, 0.5]","[0.15, 0.5]",1,1,,,,,,,,,0,9,9,9,0,6,6,4,,,,,,,,,,,,,,,,,,,,,,,,,,,,,,,,,,,,,,,,,,,,,,,,,,,,,,,2620.9247433250002,None,2620.9247433250002,None,2620.9247433250002,None,c,1,1.0586149669998122,2622.457651042001,None,2622.457651042001,None,2622.457651042001,None,2623.576164498001,None,2623.576164498001,None,2623.576164498001,None,2623.576164498001,None,,,,,,,,,,,,,,,,,,,,,,,,,,,,,,,,,,,,,,,,,,,,001,107,2020_Feb_11_1143,spring_faces,3.1.5,59.933581126036195,
condition files/Stage1_2.xlsx,,B4,T3,c,"['c', 'm']","['Clue', 'Monopoly']","[-0.15, 0.5]","[0.15, 0.5]",1,1,,,,,,,,,0,9,9,9,0,7,7,5,,,,,,,,,,,,,,,,,,,,,,,,,,,,,,,,,,,,,,,,,,,,,,,,,,,,,,,2625.5417203740017,None,2625.5417203740017,None,2625.5417203740017,None,c,1,1.1449233730018022,2627.0752361780014,None,2627.0752361780014,None,2627.0752361780014,None,2628.2753253520004,None,2628.2753253520004,None,2628.2753253520004,None,2628.2753253520004,None,,,,,,,,,,,,,,,,,,,,,,,,,,,,,,,,,,,,,,,,,,,,001,107,2020_Feb_11_1143,spring_faces,3.1.5,59.933581126036195,
condition files/Stage1_1.xlsx,,B1,T2,c,"['c', 'm']","['Clue', 'Monopoly']","[-0.15, 0.5]","[0.15, 0.5]",1,1,,,,,,,,,0,10,10,10,0,0,0,1,,,,,,,,,,,,,,,,,,,,,,,,,,,,,,,,,,,,,,,,,,,,,,,,,,,,,,,2630.2581430690007,None,2630.2581430690007,None,2630.2581430690007,None,c,1,1.1808271289992263,2631.7913701670004,None,2631.7913701670004,None,2631.7913701670004,None,2633.0248941930004,None,2633.0248941930004,None,2633.0248941930004,None,2633.0248941930004,None,,,,,,,,,,,,,,,,,,,,,,,,,,,,,,,,,,,,,,,,,,,,001,107,2020_Feb_11_1143,spring_faces,3.1.5,59.933581126036195,
condition files/Stage1_1.xlsx,,T3,B4,c,"['c', 'm']","['Clue', 'Monopoly']","[-0.15, 0.5]","[0.15, 0.5]",1,1,,,,,,,,,0,10,10,10,0,1,1,5,,,,,,,,,,,,,,,,,,,,,,,,,,,,,,,,,,,,,,,,,,,,,,,,,,,,,,,2634.9913225560013,None,2634.9913225560013,None,2634.9913225560013,None,c,1,1.1981578489994718,2636.5260261270014,None,2636.5260261270014,None,2636.5260261270014,None,2637.7751912330004,None,2637.7751912330004,None,2637.7751912330004,None,2637.7751912330004,None,,,,,,,,,,,,,,,,,,,,,,,,,,,,,,,,,,,,,,,,,,,,001,107,2020_Feb_11_1143,spring_faces,3.1.5,59.933581126036195,
condition files/Stage1_1.xlsx,,T2,B2,m,"['c', 'm']","['Clue', 'Monopoly']","[-0.15, 0.5]","[0.15, 0.5]",1,1,,,,,,,,,0,10,10,10,0,2,2,3,,,,,,,,,,,,,,,,,,,,,,,,,,,,,,,,,,,,,,,,,,,,,,,,,,,,,,,2639.741567459001,None,2639.741567459001,None,2639.741567459001,None,m,1,1.424832246000733,2641.291415990001,None,2641.291415990001,None,2641.291415990001,None,2642.7754829080004,None,2642.7754829080004,None,2642.7754829080004,None,2642.7754829080004,None,,,,,,,,,,,,,,,,,,,,,,,,,,,,,,,,,,,,,,,,,,,,001,107,2020_Feb_11_1143,spring_faces,3.1.5,59.933581126036195,
condition files/Stage1_1.xlsx,,T4,B3,m,"['c', 'm']","['Clue', 'Monopoly']","[-0.15, 0.5]","[0.15, 0.5]",1,1,,,,,,,,,0,10,10,10,0,3,3,6,,,,,,,,,,,,,,,,,,,,,,,,,,,,,,,,,,,,,,,,,,,,,,,,,,,,,,,2644.7407474230004,None,2644.7407474230004,None,2644.7407474230004,None,m,1,1.0970399639991228,2646.2751440870015,None,2646.2751440870015,None,2646.2751440870015,None,2647.4253333250017,None,2647.4253333250017,None,2647.4253333250017,None,2647.4253333250017,None,,,,,,,,,,,,,,,,,,,,,,,,,,,,,,,,,,,,,,,,,,,,001,107,2020_Feb_11_1143,spring_faces,3.1.5,59.933581126036195,
condition files/Stage1_1.xlsx,,B2,T1,m,"['c', 'm']","['Clue', 'Monopoly']","[-0.15, 0.5]","[0.15, 0.5]",1,1,,,,,,,,,0,10,10,10,0,4,4,2,,,,,,,,,,,,,,,,,,,,,,,,,,,,,,,,,,,,,,,,,,,,,,,,,,,,,,,2649.391620260001,None,2649.391620260001,None,2649.391620260001,None,m,1,1.1669614919992455,2650.9251948210003,None,2650.9251948210003,None,2650.9251948210003,None,2652.1586782780014,None,2652.1586782780014,None,2652.1586782780014,None,2652.1586782780014,None,,,,,,,,,,,,,,,,,,,,,,,,,,,,,,,,,,,,,,,,,,,,001,107,2020_Feb_11_1143,spring_faces,3.1.5,59.933581126036195,
condition files/Stage1_1.xlsx,,B4,T4,m,"['c', 'm']","['Clue', 'Monopoly']","[-0.15, 0.5]","[0.15, 0.5]",1,1,,,,,,,,,0,10,10,10,0,5,5,7,,,,,,,,,,,,,,,,,,,,,,,,,,,,,,,,,,,,,,,,,,,,,,,,,,,,,,,2654.1246731400006,None,2654.1246731400006,None,2654.1246731400006,None,m,1,1.618178380000245,2655.6579894020015,None,2655.6579894020015,None,2655.6579894020015,None,2657.341560674,None,2657.341560674,None,2657.341560674,None,2657.341560674,None,,,,,,,,,,,,,,,,,,,,,,,,,,,,,,,,,,,,,,,,,,,,001,107,2020_Feb_11_1143,spring_faces,3.1.5,59.933581126036195,
condition files/Stage1_1.xlsx,,T1,B1,c,"['c', 'm']","['Clue', 'Monopoly']","[-0.15, 0.5]","[0.15, 0.5]",1,1,,,,,,,,,0,10,10,10,0,6,6,0,,,,,,,,,,,,,,,,,,,,,,,,,,,,,,,,,,,,,,,,,,,,,,,,,,,,,,,2659.308265949001,None,2659.308265949001,None,2659.308265949001,None,c,1,1.889596535000237,2660.8586386230018,None,2660.8586386230018,None,2660.8586386230018,None,2662.8079086710004,None,2662.8079086710004,None,2662.8079086710004,None,2662.8079086710004,None,,,,,,,,,,,,,,,,,,,,,,,,,,,,,,,,,,,,,,,,,,,,001,107,2020_Feb_11_1143,spring_faces,3.1.5,59.933581126036195,
condition files/Stage1_1.xlsx,,B3,T3,c,"['c', 'm']","['Clue', 'Monopoly']","[-0.15, 0.5]","[0.15, 0.5]",1,1,,,,,,,,,0,10,10,10,0,7,7,4,,,,,,,,,,,,,,,,,,,,,,,,,,,,,,,,,,,,,,,,,,,,,,,,,,,,,,,2664.774299953,None,2664.774299953,None,2664.774299953,None,c,1,2.0396058639998955,2666.308650793,None,2666.308650793,None,2666.308650793,None,2668.4085352660004,None,2668.4085352660004,None,2668.4085352660004,None,2668.4085352660004,None,,,,,,,,,,,,,,,,,,,,,,,,,,,,,,,,,,,,,,,,,,,,001,107,2020_Feb_11_1143,spring_faces,3.1.5,59.933581126036195,
condition files/Stage1_2.xlsx,,B4,T3,c,"['c', 'm']","['Clue', 'Monopoly']","[-0.15, 0.5]","[0.15, 0.5]",1,1,,,,,,,,,0,11,11,11,0,0,0,5,,,,,,,,,,,,,,,,,,,,,,,,,,,,,,,,,,,,,,,,,,,,,,,,,,,,,,,2670.391515800002,None,2670.391515800002,None,2670.391515800002,None,c,1,1.2395858189993305,2671.92467939,None,2671.92467939,None,2671.92467939,None,2673.224537584001,None,2673.224537584001,None,2673.224537584001,None,2673.224537584001,None,,,,,,,,,,,,,,,,,,,,,,,,,,,,,,,,,,,,,,,,,,,,001,107,2020_Feb_11_1143,spring_faces,3.1.5,59.933581126036195,
condition files/Stage1_2.xlsx,,T4,B4,m,"['c', 'm']","['Clue', 'Monopoly']","[-0.15, 0.5]","[0.15, 0.5]",1,1,,,,,,,,,0,11,11,11,0,1,1,7,,,,,,,,,,,,,,,,,,,,,,,,,,,,,,,,,,,,,,,,,,,,,,,,,,,,,,,2675.191425217001,None,2675.191425217001,None,2675.191425217001,None,m,1,1.766909272999328,2676.7252604560017,None,2676.7252604560017,None,2676.7252604560017,None,2678.5577588310007,None,2678.5577588310007,None,2678.5577588310007,None,2678.5577588310007,None,,,,,,,,,,,,,,,,,,,,,,,,,,,,,,,,,,,,,,,,,,,,001,107,2020_Feb_11_1143,spring_faces,3.1.5,59.933581126036195,
condition files/Stage1_2.xlsx,,T1,B2,m,"['c', 'm']","['Clue', 'Monopoly']","[-0.15, 0.5]","[0.15, 0.5]",1,1,,,,,,,,,0,11,11,11,0,2,2,2,,,,,,,,,,,,,,,,,,,,,,,,,,,,,,,,,,,,,,,,,,,,,,,,,,,,,,,2680.524511165,None,2680.524511165,None,2680.524511165,None,m,1,1.6661604029995942,2682.058019385,None,2682.058019385,None,2682.058019385,None,2683.7754217150014,None,2683.7754217150014,None,2683.7754217150014,None,2683.7754217150014,None,,,,,,,,,,,,,,,,,,,,,,,,,,,,,,,,,,,,,,,,,,,,001,107,2020_Feb_11_1143,spring_faces,3.1.5,59.933581126036195,
condition files/Stage1_2.xlsx,,B3,T4,m,"['c', 'm']","['Clue', 'Monopoly']","[-0.15, 0.5]","[0.15, 0.5]",1,1,,,,,,,,,0,11,11,11,0,3,3,6,,,,,,,,,,,,,,,,,,,,,,,,,,,,,,,,,,,,,,,,,,,,,,,,,,,,,,,2685.741634314001,None,2685.741634314001,None,2685.741634314001,None,m,1,0.9294560959988303,2687.2747579260013,None,2687.2747579260013,None,2687.2747579260013,None,2688.258581915001,None,2688.258581915001,None,2688.258581915001,None,2688.258581915001,None,,,,,,,,,,,,,,,,,,,,,,,,,,,,,,,,,,,,,,,,,,,,001,107,2020_Feb_11_1143,spring_faces,3.1.5,59.933581126036195,
condition files/Stage1_2.xlsx,,B2,T2,m,"['c', 'm']","['Clue', 'Monopoly']","[-0.15, 0.5]","[0.15, 0.5]",1,1,,,,,,,,,0,11,11,11,0,4,4,3,,,,,,,,,,,,,,,,,,,,,,,,,,,,,,,,,,,,,,,,,,,,,,,,,,,,,,,2690.2247827220017,None,2690.2247827220017,None,2690.2247827220017,None,m,1,1.5979020099985064,2691.758292050001,None,2691.758292050001,None,2691.758292050001,None,2693.4083081730005,None,2693.4083081730005,None,2693.4083081730005,None,2693.4083081730005,None,,,,,,,,,,,,,,,,,,,,,,,,,,,,,,,,,,,,,,,,,,,,001,107,2020_Feb_11_1143,spring_faces,3.1.5,59.933581126036195,
condition files/Stage1_2.xlsx,,B1,T1,c,"['c', 'm']","['Clue', 'Monopoly']","[-0.15, 0.5]","[0.15, 0.5]",1,1,,,,,,,,,0,11,11,11,0,5,5,0,,,,,,,,,,,,,,,,,,,,,,,,,,,,,,,,,,,,,,,,,,,,,,,,,,,,,,,2695.374857210001,None,2695.374857210001,None,2695.374857210001,None,c,1,1.1204438479999226,2696.9077678640006,None,2696.9077678640006,None,2696.9077678640006,None,2698.0920091940006,None,2698.0920091940006,None,2698.0920091940006,None,2698.0920091940006,None,,,,,,,,,,,,,,,,,,,,,,,,,,,,,,,,,,,,,,,,,,,,001,107,2020_Feb_11_1143,spring_faces,3.1.5,59.933581126036195,
condition files/Stage1_2.xlsx,,T2,B1,c,"['c', 'm']","['Clue', 'Monopoly']","[-0.15, 0.5]","[0.15, 0.5]",1,1,,,,,,,,,0,11,11,11,0,6,6,1,,,,,,,,,,,,,,,,,,,,,,,,,,,,,,,,,,,,,,,,,,,,,,,,,,,,,,,2700.0581011510003,None,2700.0581011510003,None,2700.0581011510003,None,c,1,1.0920985039992956,2701.592174743,None,2701.592174743,None,2701.592174743,None,2702.741708495001,None,2702.741708495001,None,2702.741708495001,None,2702.741708495001,None,,,,,,,,,,,,,,,,,,,,,,,,,,,,,,,,,,,,,,,,,,,,001,107,2020_Feb_11_1143,spring_faces,3.1.5,59.933581126036195,
condition files/Stage1_2.xlsx,,T3,B3,c,"['c', 'm']","['Clue', 'Monopoly']","[-0.15, 0.5]","[0.15, 0.5]",1,1,,,,,,,,,0,11,11,11,0,7,7,4,,,,,,,,,,,,,,,,,,,,,,,,,,,,,,,,,,,,,,,,,,,,,,,,,,,,,,,2704.708006404,None,2704.708006404,None,2704.708006404,None,c,1,1.2580469229997107,2706.242212465,None,2706.242212465,None,2706.242212465,None,2707.5584508710017,None,2707.5584508710017,None,2707.5584508710017,None,2707.5584508710017,None,,,,,,,,,,,,,,,,,,,,,,,,,,,,,,,,,,,,,,,,,,,,001,107,2020_Feb_11_1143,spring_faces,3.1.5,59.933581126036195,
,,,,,,,,,,,,,,,,,,,,,,,,,,,,,,,,,,,,,,,,,,,,,,,,,,,,,,,,,,,,,,,,,,,,,,,,,,,,,,,,,,,,,,,,,,,,,,,,,,,,,,,,,,,,,,,,2709.541945455001,None,space,2.606706500000655,2714.541554186,None,,,,,,,,,,,,,,,,,,,,,,,,,,,,,,001,107,2020_Feb_11_1143,spring_faces,3.1.5,59.933581126036195,
condition files/Stage2_1.xlsx,,T3,B3,s,"['s', 'r']","['Stratego', 'Risk']","[-0.15, 0.5]","[0.15, 0.5]",1,1,,,,,,,,,,,,,,,,,0,0,0,0,0,0,0,4,,,,,,,,,,,,,,,,,,,,,,,,,,,,,,,,,,,,,,,,,,,,,,,2717.2083166770008,None,2717.2083166770008,None,2717.2083166770008,None,s,1,1.606151794001562,2718.7261174540017,None,2718.7261174540017,None,2718.7261174540017,None,2720.3938494560007,None,2720.3938494560007,None,2720.3938494560007,None,2720.3938494560007,None,,,,,,,,,,,,,,,2714.541554186,None,,,,,,,,,,,,,,,,,,,,,,,,,,,,001,107,2020_Feb_11_1143,spring_faces,3.1.5,59.933581126036195,
condition files/Stage2_1.xlsx,,B6,T6,r,"['s', 'r']","['Stratego', 'Risk']","[-0.15, 0.5]","[0.15, 0.5]",1,1,,,,,,,,,,,,,,,,,0,0,0,0,0,1,1,1,,,,,,,,,,,,,,,,,,,,,,,,,,,,,,,,,,,,,,,,,,,,,,,2722.357577105,None,2722.357577105,None,2722.357577105,None,r,1,1.191929122000147,2723.908310209001,None,2723.908310209001,None,2723.908310209001,None,2725.174969666001,None,2725.174969666001,None,2725.174969666001,None,2725.174969666001,None,,,,,,,,,,,,,,,,,,,,,,,,,,,,,,,,,,,,,,,,,,,,001,107,2020_Feb_11_1143,spring_faces,3.1.5,59.933581126036195,
condition files/Stage2_1.xlsx,,B4,T4,r,"['s', 'r']","['Stratego', 'Risk']","[-0.15, 0.5]","[0.15, 0.5]",1,1,,,,,,,,,,,,,,,,,0,0,0,0,0,2,2,5,,,,,,,,,,,,,,,,,,,,,,,,,,,,,,,,,,,,,,,,,,,,,,,2727.124793774001,None,2727.124793774001,None,2727.124793774001,None,s,0,1.0336143340009585,2728.658541451001,None,2728.658541451001,None,2728.658541451001,None,2729.758257839001,None,2729.758257839001,None,2729.758257839001,None,2729.758257839001,None,,,,,,,,,,,,,,,,,,,,,,,,,,,,,,,,,,,,,,,,,,,,001,107,2020_Feb_11_1143,spring_faces,3.1.5,59.933581126036195,
condition files/Stage2_1.xlsx,,T1,B1,s,"['s', 'r']","['Stratego', 'Risk']","[-0.15, 0.5]","[0.15, 0.5]",1,1,,,,,,,,,,,,,,,,,0,0,0,0,0,3,3,2,,,,,,,,,,,,,,,,,,,,,,,,,,,,,,,,,,,,,,,,,,,,,,,2731.7251480000014,None,2731.7251480000014,None,2731.7251480000014,None,s,1,1.0573895249999623,2733.258853065001,None,2733.258853065001,None,2733.258853065001,None,2734.3755721650014,None,2734.3755721650014,None,2734.3755721650014,None,2734.3755721650014,None,,,,,,,,,,,,,,,,,,,,,,,,,,,,,,,,,,,,,,,,,,,,001,107,2020_Feb_11_1143,spring_faces,3.1.5,59.933581126036195,
condition files/Stage2_1.xlsx,,B2,T2,r,"['s', 'r']","['Stratego', 'Risk']","[-0.15, 0.5]","[0.15, 0.5]",1,1,,,,,,,,,,,,,,,,,0,0,0,0,0,4,4,3,,,,,,,,,,,,,,,,,,,,,,,,,,,,,,,,,,,,,,,,,,,,,,,2736.3412025510006,None,2736.3412025510006,None,2736.3412025510006,None,r,1,0.9522378599995136,2737.8919416530007,None,2737.8919416530007,None,2737.8919416530007,None,2738.909044066,None,2738.909044066,None,2738.909044066,None,2738.909044066,None,,,,,,,,,,,,,,,,,,,,,,,,,,,,,,,,,,,,,,,,,,,,001,107,2020_Feb_11_1143,spring_faces,3.1.5,59.933581126036195,
condition files/Stage2_1.xlsx,,T5,B5,s,"['s', 'r']","['Stratego', 'Risk']","[-0.15, 0.5]","[0.15, 0.5]",1,1,,,,,,,,,,,,,,,,,0,0,0,0,0,5,5,0,,,,,,,,,,,,,,,,,,,,,,,,,,,,,,,,,,,,,,,,,,,,,,,2740.874167686001,None,2740.874167686001,None,2740.874167686001,None,s,1,1.4433840609999606,2742.4248532250003,None,2742.4248532250003,None,2742.4248532250003,None,2743.9271001020006,None,2743.9271001020006,None,2743.9271001020006,None,2743.9271001020006,None,,,,,,,,,,,,,,,,,,,,,,,,,,,,,,,,,,,,,,,,,,,,001,107,2020_Feb_11_1143,spring_faces,3.1.5,59.933581126036195,
condition files/Stage2_2.xlsx,,T6,B6,r,"['s', 'r']","['Stratego', 'Risk']","[-0.15, 0.5]","[0.15, 0.5]",1,1,,,,,,,,,,,,,,,,,0,1,1,1,0,0,0,1,,,,,,,,,,,,,,,,,,,,,,,,,,,,,,,,,,,,,,,,,,,,,,,2745.9085619730013,None,2745.9085619730013,None,2745.9085619730013,None,r,1,1.0661728129998664,2747.4420827420017,None,2747.4420827420017,None,2747.4420827420017,None,2748.5601414030007,None,2748.5601414030007,None,2748.5601414030007,None,2748.5601414030007,None,,,,,,,,,,,,,,,,,,,,,,,,,,,,,,,,,,,,,,,,,,,,001,107,2020_Feb_11_1143,spring_faces,3.1.5,59.933581126036195,
condition files/Stage2_2.xlsx,,B1,T1,s,"['s', 'r']","['Stratego', 'Risk']","[-0.15, 0.5]","[0.15, 0.5]",1,1,,,,,,,,,,,,,,,,,0,1,1,1,0,1,1,2,,,,,,,,,,,,,,,,,,,,,,,,,,,,,,,,,,,,,,,,,,,,,,,2750.524751361001,None,2750.524751361001,None,2750.524751361001,None,r,0,1.0410610550006822,2752.075086598001,None,2752.075086598001,None,2752.075086598001,None,2753.1917858180004,None,2753.1917858180004,None,2753.1917858180004,None,2753.1917858180004,None,,,,,,,,,,,,,,,,,,,,,,,,,,,,,,,,,,,,,,,,,,,,001,107,2020_Feb_11_1143,spring_faces,3.1.5,59.933581126036195,
condition files/Stage2_2.xlsx,,T4,B4,r,"['s', 'r']","['Stratego', 'Risk']","[-0.15, 0.5]","[0.15, 0.5]",1,1,,,,,,,,,,,,,,,,,0,1,1,1,0,2,2,5,,,,,,,,,,,,,,,,,,,,,,,,,,,,,,,,,,,,,,,,,,,,,,,2755.1410416100007,None,2755.1410416100007,None,2755.1410416100007,None,s,0,1.4973508839993883,2756.674954633001,None,2756.674954633001,None,2756.674954633001,None,2758.2268179770017,None,2758.2268179770017,None,2758.2268179770017,None,2758.2268179770017,None,,,,,,,,,,,,,,,,,,,,,,,,,,,,,,,,,,,,,,,,,,,,001,107,2020_Feb_11_1143,spring_faces,3.1.5,59.933581126036195,
condition files/Stage2_2.xlsx,,B3,T3,s,"['s', 'r']","['Stratego', 'Risk']","[-0.15, 0.5]","[0.15, 0.5]",1,1,,,,,,,,,,,,,,,,,0,1,1,1,0,3,3,4,,,,,,,,,,,,,,,,,,,,,,,,,,,,,,,,,,,,,,,,,,,,,,,2760.1916372190008,None,2760.1916372190008,None,2760.1916372190008,None,s,1,1.1184426230011013,2761.7257353520017,None,2761.7257353520017,None,2761.7257353520017,None,2762.9252313240013,None,2762.9252313240013,None,2762.9252313240013,None,2762.9252313240013,None,,,,,,,,,,,,,,,,,,,,,,,,,,,,,,,,,,,,,,,,,,,,001,107,2020_Feb_11_1143,spring_faces,3.1.5,59.933581126036195,
condition files/Stage2_2.xlsx,,B5,T5,s,"['s', 'r']","['Stratego', 'Risk']","[-0.15, 0.5]","[0.15, 0.5]",1,1,,,,,,,,,,,,,,,,,0,1,1,1,0,4,4,0,,,,,,,,,,,,,,,,,,,,,,,,,,,,,,,,,,,,,,,,,,,,,,,2764.8747386370014,None,2764.8747386370014,None,2764.8747386370014,None,r,0,1.060204691000763,2766.4080413700012,None,2766.4080413700012,None,2766.4080413700012,None,2767.524589849001,None,2767.524589849001,None,2767.524589849001,None,2767.524589849001,None,,,,,,,,,,,,,,,,,,,,,,,,,,,,,,,,,,,,,,,,,,,,001,107,2020_Feb_11_1143,spring_faces,3.1.5,59.933581126036195,
condition files/Stage2_2.xlsx,,T2,B2,r,"['s', 'r']","['Stratego', 'Risk']","[-0.15, 0.5]","[0.15, 0.5]",1,1,,,,,,,,,,,,,,,,,0,1,1,1,0,5,5,3,,,,,,,,,,,,,,,,,,,,,,,,,,,,,,,,,,,,,,,,,,,,,,,2769.4910758250007,None,2769.4910758250007,None,2769.4910758250007,None,r,1,2.0263529969997762,2771.0259249680003,None,2771.0259249680003,None,2771.0259249680003,None,2773.108385753001,None,2773.108385753001,None,2773.108385753001,None,2773.108385753001,None,,,,,,,,,,,,,,,,,,,,,,,,,,,,,,,,,,,,,,,,,,,,001,107,2020_Feb_11_1143,spring_faces,3.1.5,59.933581126036195,
condition files/Stage2_1.xlsx,,B6,T6,r,"['s', 'r']","['Stratego', 'Risk']","[-0.15, 0.5]","[0.15, 0.5]",1,1,,,,,,,,,,,,,,,,,0,2,2,2,0,0,0,1,,,,,,,,,,,,,,,,,,,,,,,,,,,,,,,,,,,,,,,,,,,,,,,2775.091965976,None,2775.091965976,None,2775.091965976,None,s,0,1.9935454629994638,2776.6266402970014,None,2776.6266402970014,None,2776.6266402970014,None,2778.6747712120014,None,2778.6747712120014,None,2778.6747712120014,None,2778.6747712120014,None,,,,,,,,,,,,,,,,,,,,,,,,,,,,,,,,,,,,,,,,,,,,001,107,2020_Feb_11_1143,spring_faces,3.1.5,59.933581126036195,
condition files/Stage2_1.xlsx,,T3,B3,s,"['s', 'r']","['Stratego', 'Risk']","[-0.15, 0.5]","[0.15, 0.5]",1,1,,,,,,,,,,,,,,,,,0,2,2,2,0,1,1,4,,,,,,,,,,,,,,,,,,,,,,,,,,,,,,,,,,,,,,,,,,,,,,,2780.641494847001,None,2780.641494847001,None,2780.641494847001,None,r,0,2.237284498000008,2782.174915984,None,2782.174915984,None,2782.174915984,None,2784.4763695700003,None,2784.4763695700003,None,2784.4763695700003,None,2784.4763695700003,None,,,,,,,,,,,,,,,,,,,,,,,,,,,,,,,,,,,,,,,,,,,,001,107,2020_Feb_11_1143,spring_faces,3.1.5,59.933581126036195,
condition files/Stage2_1.xlsx,,B2,T2,r,"['s', 'r']","['Stratego', 'Risk']","[-0.15, 0.5]","[0.15, 0.5]",1,1,,,,,,,,,,,,,,,,,0,2,2,2,0,2,2,3,,,,,,,,,,,,,,,,,,,,,,,,,,,,,,,,,,,,,,,,,,,,,,,2786.4408571760014,None,2786.4408571760014,None,2786.4408571760014,None,r,1,1.1889747669993085,2787.9753042970005,None,2787.9753042970005,None,2787.9753042970005,None,2789.2246165570014,None,2789.2246165570014,None,2789.2246165570014,None,2789.2246165570014,None,,,,,,,,,,,,,,,,,,,,,,,,,,,,,,,,,,,,,,,,,,,,001,107,2020_Feb_11_1143,spring_faces,3.1.5,59.933581126036195,
condition files/Stage2_1.xlsx,,B4,T4,r,"['s', 'r']","['Stratego', 'Risk']","[-0.15, 0.5]","[0.15, 0.5]",1,1,,,,,,,,,,,,,,,,,0,2,2,2,0,3,3,5,,,,,,,,,,,,,,,,,,,,,,,,,,,,,,,,,,,,,,,,,,,,,,,2791.1912152410005,None,2791.1912152410005,None,2791.1912152410005,None,r,1,1.894611255998825,2792.725590023001,None,2792.725590023001,None,2792.725590023001,None,2794.6744980490002,None,2794.6744980490002,None,2794.6744980490002,None,2794.6744980490002,None,,,,,,,,,,,,,,,,,,,,,,,,,,,,,,,,,,,,,,,,,,,,001,107,2020_Feb_11_1143,spring_faces,3.1.5,59.933581126036195,
condition files/Stage2_1.xlsx,,T1,B1,s,"['s', 'r']","['Stratego', 'Risk']","[-0.15, 0.5]","[0.15, 0.5]",1,1,,,,,,,,,,,,,,,,,0,2,2,2,0,4,4,2,,,,,,,,,,,,,,,,,,,,,,,,,,,,,,,,,,,,,,,,,,,,,,,2796.6409617920017,None,2796.6409617920017,None,2796.6409617920017,None,s,1,1.8682548699998733,2798.175943284001,None,2798.175943284001,None,2798.175943284001,None,2800.1102367680014,None,2800.1102367680014,None,2800.1102367680014,None,2800.1102367680014,None,,,,,,,,,,,,,,,,,,,,,,,,,,,,,,,,,,,,,,,,,,,,001,107,2020_Feb_11_1143,spring_faces,3.1.5,59.933581126036195,
condition files/Stage2_1.xlsx,,T5,B5,s,"['s', 'r']","['Stratego', 'Risk']","[-0.15, 0.5]","[0.15, 0.5]",1,1,,,,,,,,,,,,,,,,,0,2,2,2,0,5,5,0,,,,,,,,,,,,,,,,,,,,,,,,,,,,,,,,,,,,,,,,,,,,,,,2802.0750493640007,None,2802.0750493640007,None,2802.0750493640007,None,s,1,1.3320602330004476,2803.608129198001,None,2803.608129198001,None,2803.608129198001,None,2804.9917707150016,None,2804.9917707150016,None,2804.9917707150016,None,2804.9917707150016,None,,,,,,,,,,,,,,,,,,,,,,,,,,,,,,,,,,,,,,,,,,,,001,107,2020_Feb_11_1143,spring_faces,3.1.5,59.933581126036195,
condition files/Stage2_2.xlsx,,B5,T5,s,"['s', 'r']","['Stratego', 'Risk']","[-0.15, 0.5]","[0.15, 0.5]",1,1,,,,,,,,,,,,,,,,,0,3,3,3,0,0,0,0,,,,,,,,,,,,,,,,,,,,,,,,,,,,,,,,,,,,,,,,,,,,,,,2806.9745104210015,None,2806.9745104210015,None,2806.9745104210015,None,s,1,1.1199372190003487,2808.5082732010014,None,2808.5082732010014,None,2808.5082732010014,None,2809.6917730880014,None,2809.6917730880014,None,2809.6917730880014,None,2809.6917730880014,None,,,,,,,,,,,,,,,,,,,,,,,,,,,,,,,,,,,,,,,,,,,,001,107,2020_Feb_11_1143,spring_faces,3.1.5,59.933581126036195,
condition files/Stage2_2.xlsx,,B3,T3,s,"['s', 'r']","['Stratego', 'Risk']","[-0.15, 0.5]","[0.15, 0.5]",1,1,,,,,,,,,,,,,,,,,0,3,3,3,0,1,1,4,,,,,,,,,,,,,,,,,,,,,,,,,,,,,,,,,,,,,,,,,,,,,,,2811.6586580330004,None,2811.6586580330004,None,2811.6586580330004,None,r,0,1.2044979250003962,2813.2076936560006,None,2813.2076936560006,None,2813.2076936560006,None,2814.474880396001,None,2814.474880396001,None,2814.474880396001,None,2814.474880396001,None,,,,,,,,,,,,,,,,,,,,,,,,,,,,,,,,,,,,,,,,,,,,001,107,2020_Feb_11_1143,spring_faces,3.1.5,59.933581126036195,
condition files/Stage2_2.xlsx,,B1,T1,s,"['s', 'r']","['Stratego', 'Risk']","[-0.15, 0.5]","[0.15, 0.5]",1,1,,,,,,,,,,,,,,,,,0,3,3,3,0,2,2,2,,,,,,,,,,,,,,,,,,,,,,,,,,,,,,,,,,,,,,,,,,,,,,,2816.4414013120004,None,2816.4414013120004,None,2816.4414013120004,None,r,0,1.1734194869986823,2817.974840457,None,2817.974840457,None,2817.974840457,None,2819.208353774,None,2819.208353774,None,2819.208353774,None,2819.208353774,None,,,,,,,,,,,,,,,,,,,,,,,,,,,,,,,,,,,,,,,,,,,,001,107,2020_Feb_11_1143,spring_faces,3.1.5,59.933581126036195,
condition files/Stage2_2.xlsx,,T4,B4,r,"['s', 'r']","['Stratego', 'Risk']","[-0.15, 0.5]","[0.15, 0.5]",1,1,,,,,,,,,,,,,,,,,0,3,3,3,0,3,3,5,,,,,,,,,,,,,,,,,,,,,,,,,,,,,,,,,,,,,,,,,,,,,,,2821.1749088840006,None,2821.1749088840006,None,2821.1749088840006,None,r,1,1.2698637789999339,2822.7103400450014,None,2822.7103400450014,None,2822.7103400450014,None,2824.057687372,None,2824.057687372,None,2824.057687372,None,2824.057687372,None,,,,,,,,,,,,,,,,,,,,,,,,,,,,,,,,,,,,,,,,,,,,001,107,2020_Feb_11_1143,spring_faces,3.1.5,59.933581126036195,
condition files/Stage2_2.xlsx,,T2,B2,r,"['s', 'r']","['Stratego', 'Risk']","[-0.15, 0.5]","[0.15, 0.5]",1,1,,,,,,,,,,,,,,,,,0,3,3,3,0,4,4,3,,,,,,,,,,,,,,,,,,,,,,,,,,,,,,,,,,,,,,,,,,,,,,,2826.0082073560006,None,2826.0082073560006,None,2826.0082073560006,None,s,0,1.0625453759985248,2827.5416601040015,None,2827.5416601040015,None,2827.5416601040015,None,2828.658369451001,None,2828.658369451001,None,2828.658369451001,None,2828.658369451001,None,,,,,,,,,,,,,,,,,,,,,,,,,,,,,,,,,,,,,,,,,,,,001,107,2020_Feb_11_1143,spring_faces,3.1.5,59.933581126036195,
condition files/Stage2_2.xlsx,,T6,B6,r,"['s', 'r']","['Stratego', 'Risk']","[-0.15, 0.5]","[0.15, 0.5]",1,1,,,,,,,,,,,,,,,,,0,3,3,3,0,5,5,1,,,,,,,,,,,,,,,,,,,,,,,,,,,,,,,,,,,,,,,,,,,,,,,2830.6247886460005,None,2830.6247886460005,None,2830.6247886460005,None,r,1,1.1969702020014665,2832.1752084040018,None,2832.1752084040018,None,2832.1752084040018,None,2833.425116241,None,2833.425116241,None,2833.425116241,None,2833.425116241,None,,,,,,,,,,,,,,,,,,,,,,,,,,,,,,,,,,,,,,,,,,,,001,107,2020_Feb_11_1143,spring_faces,3.1.5,59.933581126036195,
condition files/Stage2_1.xlsx,,B4,T4,r,"['s', 'r']","['Stratego', 'Risk']","[-0.15, 0.5]","[0.15, 0.5]",1,1,,,,,,,,,,,,,,,,,0,4,4,4,0,0,0,5,,,,,,,,,,,,,,,,,,,,,,,,,,,,,,,,,,,,,,,,,,,,,,,2835.408368319,None,2835.408368319,None,2835.408368319,None,s,0,1.3562707619985304,2836.9440375040012,None,2836.9440375040012,None,2836.9440375040012,None,2838.357803648001,None,2838.357803648001,None,2838.357803648001,None,2838.357803648001,None,,,,,,,,,,,,,,,,,,,,,,,,,,,,,,,,,,,,,,,,,,,,001,107,2020_Feb_11_1143,spring_faces,3.1.5,59.933581126036195,
condition files/Stage2_1.xlsx,,B2,T2,r,"['s', 'r']","['Stratego', 'Risk']","[-0.15, 0.5]","[0.15, 0.5]",1,1,,,,,,,,,,,,,,,,,0,4,4,4,0,1,1,3,,,,,,,,,,,,,,,,,,,,,,,,,,,,,,,,,,,,,,,,,,,,,,,2840.324711577001,None,2840.324711577001,None,2840.324711577001,None,s,0,1.8970590680000896,2841.8751101060006,None,2841.8751101060006,None,2841.8751101060006,None,2843.825229756001,None,2843.825229756001,None,2843.825229756001,None,2843.825229756001,None,,,,,,,,,,,,,,,,,,,,,,,,,,,,,,,,,,,,,,,,,,,,001,107,2020_Feb_11_1143,spring_faces,3.1.5,59.933581126036195,
