condsFile,subStage,cue1,cue2,correct,responseKeys,responseNames,cue1Position,cue2Position,cue1Opacity,cue2Opacity,stageLoop0.thisRepN,stageLoop0.thisTrialN,stageLoop0.thisN,stageLoop0.thisIndex,blockLoop0.thisRepN,blockLoop0.thisTrialN,blockLoop0.thisN,blockLoop0.thisIndex,stage1Loop.thisRepN,stage1Loop.thisTrialN,stage1Loop.thisN,stage1Loop.thisIndex,blockLoop1.thisRepN,blockLoop1.thisTrialN,blockLoop1.thisN,blockLoop1.thisIndex,stage2Loop.thisRepN,stage2Loop.thisTrialN,stage2Loop.thisN,stage2Loop.thisIndex,blockLoop2.thisRepN,blockLoop2.thisTrialN,blockLoop2.thisN,blockLoop2.thisIndex,testLoop.thisRepN,testLoop.thisTrialN,testLoop.thisN,testLoop.thisIndex,blockLoopTest.thisRepN,blockLoopTest.thisTrialN,blockLoopTest.thisN,blockLoopTest.thisIndex,cuePics,id_instr_text.started,id_instr_text.stopped,space_to_continue_2.started,space_to_continue_2.stopped,end_instructions_resp_3.keys,end_instructions_resp_3.rt,end_instructions_resp_3.started,end_instructions_resp_3.stopped,id_input_instr.started,id_input_instr.stopped,id_input_rect.started,id_input_rect.stopped,id_input_resp.keys,id_input_resp.rt,id_input_resp.started,id_input_resp.stopped,sonaID,id_input_text.started,id_input_text.stopped,final_text.started,final_text.stopped,instructions.started,instructions.stopped,end_instructions_resp.keys,end_instructions_resp.rt,end_instructions_resp.started,end_instructions_resp.stopped,space_to_continue.started,space_to_continue.stopped,instructions_stage0.started,instructions_stage0.stopped,end_instructions_resp_stage0.keys,end_instructions_resp_stage0.rt,end_instructions_resp_stage0.started,end_instructions_resp_stage0.stopped,space_to_continue_stage0.started,space_to_continue_stage0.stopped,text.started,text.stopped,resp_text1.started,resp_text1.stopped,resp_text2.started,resp_text2.stopped,trial_resp.keys,trial_resp.corr,trial_resp.rt,trial_resp.started,trial_resp.stopped,cue1Image.started,cue1Image.stopped,cue2Image.started,cue2Image.stopped,cue1Image_fb.started,cue1Image_fb.stopped,cue2Image_fb.started,cue2Image_fb.stopped,fb_text_answer.started,fb_text_answer.stopped,feedback_image.started,feedback_image.stopped,instructions_stage1.started,instructions_stage1.stopped,end_instructions_resp_stage1.keys,end_instructions_resp_stage1.rt,end_instructions_resp_stage1.started,end_instructions_resp_stage1.stopped,space_to_continue_stage1.started,space_to_continue_stage1.stopped,instructions_2.started,instructions_2.stopped,end_instructions_resp_2.keys,end_instructions_resp_2.rt,end_instructions_resp_2.started,end_instructions_resp_2.stopped,press_space_to_continue_stage2.started,press_space_to_continue_stage2.stopped,instructions_testStage1.started,instructions_testStage1.stopped,end_instructions_resp_test1.keys,end_instructions_resp_test1.rt,end_instructions_resp_test1.started,end_instructions_resp_test1.stopped,press_space_to_continue_test1.started,press_space_to_continue_test1.stopped,cue1Image_testChoice.started,cue1Image_testChoice.stopped,cue2Image_testChoice.started,cue2Image_testChoice.stopped,test_resp.keys,test_resp.corr,test_resp.rt,test_resp.started,test_resp.stopped,cue1Image_testConf.started,cue1Image_testConf.stopped,cue2Image_testConf.started,cue2Image_testConf.stopped,conf_reminder.started,conf_reminder.stopped,conf_rating.response,conf_rating.rt,conf_rating.started,conf_rating.stopped,session,participant,date,expName,psychopyVersion,frameRate,
,,,,,,,,,,,,,,,,,,,,,,,,,,,,,,,,,,,,,,,,,,,"{'none': 'pictures/20M_AN_C.png', 'alpha': 'pictures/SHINEd_pepper.png', 'beta': 'pictures/SHINEd_pear.png', 'theta': 'pictures/SHINEd_melon.png', 'phi': 'pictures/SHINEd_apple.png', 'T1': 'pictures/32M_AN_C.png', 'T2': 'pictures/33M_AN_C.png', 'T3': 'pictures/36M_AN_C.png', 'T4': 'pictures/34M_AN_C.png', 'T5': 'pictures/26M_AN_C.png', 'T6': 'pictures/31M_AN_C.png', 'B1': 'pictures/25M_NE_C.png', 'B2': 'pictures/20M_NE_C.png', 'B3': 'pictures/37M_NE_C.png', 'B4': 'pictures/38M_NE_C.png', 'B5': 'pictures/22M_NE_C.png', 'B6': 'pictures/23M_NE_C.png'}",3372.470306835001,None,3377.4534950900015,None,space,9.346844481000517,3377.4534950900015,None,,,,,,,,,,,,,,,,,,,,,,,,,,,,,,,,,,,,,,,,,,,,,,,,,,,,,,,,,,,,,,,,,,,,,,,,,,,,,,,,,,,,,,,,,,,,,,,,001,109,2020_Feb_11_1352,spring_faces,3.1.5,60.05230519692703,
,,,,,,,,,,,,,,,,,,,,,,,,,,,,,,,,,,,,,,,,,,,,,,,,,,,,3387.2376344020013,None,3387.2376344020013,None,"['1', '1', '1', '1', 'h', 'e', 'c', 'h', 'e']","[7.226775474000533, 7.722819188000358, 18.55478209300054, 19.306834869999875, 23.626814520999687, 24.026779216999785, 26.698772253999778, 26.858846081000593, 27.01876224100124]",3387.2376344020013,None,,,,,,,,,,,,,,,,,,,,,,,,,,,,,,,,,,,,,,,,,,,,,,,,,,,,,,,,,,,,,,,,,,,,,,,,,,,,,,,,,,,,,,,,001,109,2020_Feb_11_1352,spring_faces,3.1.5,60.05230519692703,
,,,,,,,,,,,,,,,,,,,,,,,,,,,,,,,,,,,,,,,,,,,,,,,,,,,,,,,,,,,,1111heche,3387.2376344020013,None,3387.2376344020013,None,3419.3372700360014,None,space,2.1755376319997595,3424.3369223420013,None,,,,,,,,,,,,,,,,,,,,,,,,,,,,,,,,,,,,,,,,,,,,,,,,,,,,,,,,,,,,,,,,,,,,,,,,,,,,,001,109,2020_Feb_11_1352,spring_faces,3.1.5,60.05230519692703,
,,,,,,,,,,,,,,,,,,,,,,,,,,,,,,,,,,,,,,,,,,,,,,,,,,,,,,,,,,,,,,,,,,,,,,,3424.3369223420013,None,3426.5537519670015,None,space,4.51080691199968,3431.553672292999,None,,,,,,,,,,,,,,,,,,,,,,,,,,,,,,,,,,,,,,,,,,,,,,,,,,,,,,,,,,,,,,,,,,,,,001,109,2020_Feb_11_1352,spring_faces,3.1.5,60.05230519692703,
condition files/Stage0a.xlsx,0a,beta,none,g,"['h', 'g']","['Chess', 'Go']","[0, 0.5]","[0, 0]",1,0,0,0,0,0,0,0,0,1,,,,,,,,,,,,,,,,,,,,,,,,,,,,,,,,,,,,,,,,,,,,,,,,,,,,,,,,,,,,,3431.553672292999,None,3436.1203561720013,None,3436.1203561720013,None,3436.1203561720013,None,h,0,5.064695552002377,3437.703691564,None,3437.703691564,None,3437.703691564,None,3442.836964999,None,3442.836964999,None,3442.836964999,None,3442.836964999,None,,,,,,,,,,,,,,,,,,,,,,,,,,,,,,,,,,,,,,,,,,,,001,109,2020_Feb_11_1352,spring_faces,3.1.5,60.05230519692703,
condition files/Stage0a.xlsx,0a,alpha,none,h,"['h', 'g']","['Chess', 'Go']","[0, 0.5]","[0, 0]",1,0,0,0,0,0,0,1,1,0,,,,,,,,,,,,,,,,,,,,,,,,,,,,,,,,,,,,,,,,,,,,,,,,,,,,,,,,,,,,,,,3444.786797556002,None,3444.786797556002,None,3444.786797556002,None,g,0,2.0946238239994273,3446.321800879001,None,3446.321800879001,None,3446.321800879001,None,3448.4702530820014,None,3448.4702530820014,None,3448.4702530820014,None,3448.4702530820014,None,,,,,,,,,,,,,,,,,,,,,,,,,,,,,,,,,,,,,,,,,,,,001,109,2020_Feb_11_1352,spring_faces,3.1.5,60.05230519692703,
condition files/Stage0a.xlsx,0a,beta,none,g,"['h', 'g']","['Chess', 'Go']","[0, 0.5]","[0, 0]",1,0,0,1,1,1,0,0,0,1,,,,,,,,,,,,,,,,,,,,,,,,,,,,,,,,,,,,,,,,,,,,,,,,,,,,,,,,,,,,,,,3450.4538044420024,None,3450.4538044420024,None,3450.4538044420024,None,g,1,2.669679318998533,3451.9867205610008,None,3451.9867205610008,None,3451.9867205610008,None,3454.7201036509996,None,3454.7201036509996,None,3454.7201036509996,None,3454.7201036509996,None,,,,,,,,,,,,,,,,,,,,,,,,,,,,,,,,,,,,,,,,,,,,001,109,2020_Feb_11_1352,spring_faces,3.1.5,60.05230519692703,
condition files/Stage0a.xlsx,0a,alpha,none,h,"['h', 'g']","['Chess', 'Go']","[0, 0.5]","[0, 0]",1,0,0,1,1,1,0,1,1,0,,,,,,,,,,,,,,,,,,,,,,,,,,,,,,,,,,,,,,,,,,,,,,,,,,,,,,,,,,,,,,,3456.6867789890002,None,3456.6867789890002,None,3456.6867789890002,None,h,1,0.916424848997849,3458.2199774380006,None,3458.2199774380006,None,3458.2199774380006,None,3459.187512434002,None,3459.187512434002,None,3459.187512434002,None,3459.187512434002,None,,,,,,,,,,,,,,,,,,,,,,,,,,,,,,,,,,,,,,,,,,,,001,109,2020_Feb_11_1352,spring_faces,3.1.5,60.05230519692703,
condition files/Stage0a.xlsx,0a,alpha,none,h,"['h', 'g']","['Chess', 'Go']","[0, 0.5]","[0, 0]",1,0,0,2,2,2,0,0,0,0,,,,,,,,,,,,,,,,,,,,,,,,,,,,,,,,,,,,,,,,,,,,,,,,,,,,,,,,,,,,,,,3461.1703695369997,None,3461.1703695369997,None,3461.1703695369997,None,h,1,6.305233990999113,3462.6871654840015,None,3462.6871654840015,None,3462.6871654840015,None,3469.0539145679995,None,3469.0539145679995,None,3469.0539145679995,None,3469.0539145679995,None,,,,,,,,,,,,,,,,,,,,,,,,,,,,,,,,,,,,,,,,,,,,001,109,2020_Feb_11_1352,spring_faces,3.1.5,60.05230519692703,
condition files/Stage0a.xlsx,0a,beta,none,g,"['h', 'g']","['Chess', 'Go']","[0, 0.5]","[0, 0]",1,0,0,2,2,2,0,1,1,1,,,,,,,,,,,,,,,,,,,,,,,,,,,,,,,,,,,,,,,,,,,,,,,,,,,,,,,,,,,,,,,3471.020154595999,None,3471.020154595999,None,3471.020154595999,None,g,1,0.5825055950008391,3472.553878375,None,3472.553878375,None,3472.553878375,None,3473.1869179139994,None,3473.1869179139994,None,3473.1869179139994,None,3473.1869179139994,None,,,,,,,,,,,,,,,,,,,,,,,,,,,,,,,,,,,,,,,,,,,,001,109,2020_Feb_11_1352,spring_faces,3.1.5,60.05230519692703,
condition files/Stage0a.xlsx,0a,beta,none,g,"['h', 'g']","['Chess', 'Go']","[0, 0.5]","[0, 0]",1,0,0,3,3,3,0,0,0,1,,,,,,,,,,,,,,,,,,,,,,,,,,,,,,,,,,,,,,,,,,,,,,,,,,,,,,,,,,,,,,,3475.1704603670023,None,3475.1704603670023,None,3475.1704603670023,None,g,1,0.8491532510015531,3476.7032566569997,None,3476.7032566569997,None,3476.7032566569997,None,3477.6032184740016,None,3477.6032184740016,None,3477.6032184740016,None,3477.6032184740016,None,,,,,,,,,,,,,,,,,,,,,,,,,,,,,,,,,,,,,,,,,,,,001,109,2020_Feb_11_1352,spring_faces,3.1.5,60.05230519692703,
condition files/Stage0a.xlsx,0a,alpha,none,h,"['h', 'g']","['Chess', 'Go']","[0, 0.5]","[0, 0]",1,0,0,3,3,3,0,1,1,0,,,,,,,,,,,,,,,,,,,,,,,,,,,,,,,,,,,,,,,,,,,,,,,,,,,,,,,,,,,,,,,3479.5698152230016,None,3479.5698152230016,None,3479.5698152230016,None,h,1,0.4170365709978796,3481.1033527609998,None,3481.1033527609998,None,3481.1033527609998,None,3481.569969921,None,3481.569969921,None,3481.569969921,None,3481.569969921,None,,,,,,,,,,,,,,,,,,,,,,,,,,,,,,,,,,,,,,,,,,,,001,109,2020_Feb_11_1352,spring_faces,3.1.5,60.05230519692703,
condition files/Stage0a.xlsx,0a,alpha,none,h,"['h', 'g']","['Chess', 'Go']","[0, 0.5]","[0, 0]",1,0,0,4,4,4,0,0,0,0,,,,,,,,,,,,,,,,,,,,,,,,,,,,,,,,,,,,,,,,,,,,,,,,,,,,,,,,,,,,,,,3483.5533745369994,None,3483.5533745369994,None,3483.5533745369994,None,g,0,0.40182117599761114,3485.086575902,None,3485.086575902,None,3485.086575902,None,3485.553729510002,None,3485.553729510002,None,3485.553729510002,None,3485.553729510002,None,,,,,,,,,,,,,,,,,,,,,,,,,,,,,,,,,,,,,,,,,,,,001,109,2020_Feb_11_1352,spring_faces,3.1.5,60.05230519692703,
condition files/Stage0a.xlsx,0a,beta,none,g,"['h', 'g']","['Chess', 'Go']","[0, 0.5]","[0, 0]",1,0,0,4,4,4,0,1,1,1,,,,,,,,,,,,,,,,,,,,,,,,,,,,,,,,,,,,,,,,,,,,,,,,,,,,,,,,,,,,,,,3487.5200124919993,None,3487.5200124919993,None,3487.5200124919993,None,g,1,0.41873526199924527,3489.0536543430007,None,3489.0536543430007,None,3489.0536543430007,None,3489.5364771090008,None,3489.5364771090008,None,3489.5364771090008,None,3489.5364771090008,None,,,,,,,,,,,,,,,,,,,,,,,,,,,,,,,,,,,,,,,,,,,,001,109,2020_Feb_11_1352,spring_faces,3.1.5,60.05230519692703,
condition files/Stage0a.xlsx,0a,beta,none,g,"['h', 'g']","['Chess', 'Go']","[0, 0.5]","[0, 0]",1,0,0,5,5,5,0,0,0,1,,,,,,,,,,,,,,,,,,,,,,,,,,,,,,,,,,,,,,,,,,,,,,,,,,,,,,,,,,,,,,,3491.519856326,None,3491.519856326,None,3491.519856326,None,g,1,1.6834337070031324,3493.0529719759998,None,3493.0529719759998,None,3493.0529719759998,None,3494.787300293001,None,3494.787300293001,None,3494.787300293001,None,3494.787300293001,None,,,,,,,,,,,,,,,,,,,,,,,,,,,,,,,,,,,,,,,,,,,,001,109,2020_Feb_11_1352,spring_faces,3.1.5,60.05230519692703,
condition files/Stage0a.xlsx,0a,alpha,none,h,"['h', 'g']","['Chess', 'Go']","[0, 0.5]","[0, 0]",1,0,0,5,5,5,0,1,1,0,,,,,,,,,,,,,,,,,,,,,,,,,,,,,,,,,,,,,,,,,,,,,,,,,,,,,,,,,,,,,,,3496.7534729570016,None,3496.7534729570016,None,3496.7534729570016,None,h,1,0.4338212990005559,3498.2866141760005,None,3498.2866141760005,None,3498.2866141760005,None,3498.7704128919995,None,3498.7704128919995,None,3498.7704128919995,None,3498.7704128919995,None,,,,,,,,,,,,,,,,,,,,,,,,,,,,,,,,,,,,,,,,,,,,001,109,2020_Feb_11_1352,spring_faces,3.1.5,60.05230519692703,
condition files/Stage0b_1.xlsx,0b,none,beta,g,"['h', 'g']","['Chess', 'Go']","[-0.15, 0.5]","[0.15, 0.5]",0,1,0,6,6,6,0,0,0,1,,,,,,,,,,,,,,,,,,,,,,,,,,,,,,,,,,,,,,,,,,,,,,,,,,,,,,,,,,,,,,,3500.753760239002,None,3500.753760239002,None,3500.753760239002,None,g,1,2.656959858999471,3502.3034629880003,None,3502.3034629880003,None,3502.3034629880003,None,3505.0370631040005,None,3505.0370631040005,None,3505.0370631040005,None,3505.0370631040005,None,,,,,,,,,,,,,,,,,,,,,,,,,,,,,,,,,,,,,,,,,,,,001,109,2020_Feb_11_1352,spring_faces,3.1.5,60.05230519692703,
condition files/Stage0b_1.xlsx,0b,alpha,none,h,"['h', 'g']","['Chess', 'Go']","[-0.15, 0.5]","[0.15, 0.5]",1,0,0,6,6,6,0,1,1,0,,,,,,,,,,,,,,,,,,,,,,,,,,,,,,,,,,,,,,,,,,,,,,,,,,,,,,,,,,,,,,,3506.9868952279994,None,3506.9868952279994,None,3506.9868952279994,None,h,1,0.7244493739999598,3508.5239244560016,None,3508.5239244560016,None,3508.5239244560016,None,3509.3051292479995,None,3509.3051292479995,None,3509.3051292479995,None,3509.3051292479995,None,,,,,,,,,,,,,,,,,,,,,,,,,,,,,,,,,,,,,,,,,,,,001,109,2020_Feb_11_1352,spring_faces,3.1.5,60.05230519692703,
condition files/Stage0b_2.xlsx,0b,none,alpha,h,"['h', 'g']","['Chess', 'Go']","[-0.15, 0.5]","[0.15, 0.5]",0,1,0,7,7,7,0,0,0,0,,,,,,,,,,,,,,,,,,,,,,,,,,,,,,,,,,,,,,,,,,,,,,,,,,,,,,,,,,,,,,,3511.2865830130013,None,3511.2865830130013,None,3511.2865830130013,None,h,1,1.896730878001108,3512.823608339002,None,3512.823608339002,None,3512.823608339002,None,3514.7863256170003,None,3514.7863256170003,None,3514.7863256170003,None,3514.7863256170003,None,,,,,,,,,,,,,,,,,,,,,,,,,,,,,,,,,,,,,,,,,,,,001,109,2020_Feb_11_1352,spring_faces,3.1.5,60.05230519692703,
condition files/Stage0b_2.xlsx,0b,beta,none,g,"['h', 'g']","['Chess', 'Go']","[-0.15, 0.5]","[0.15, 0.5]",1,0,0,7,7,7,0,1,1,1,,,,,,,,,,,,,,,,,,,,,,,,,,,,,,,,,,,,,,,,,,,,,,,,,,,,,,,,,,,,,,,3516.753635872001,None,3516.753635872001,None,3516.753635872001,None,g,1,0.5452574289993208,3518.2871673089994,None,3518.2871673089994,None,3518.2871673089994,None,3518.888158923999,None,3518.888158923999,None,3518.888158923999,None,3518.888158923999,None,,,,,,,,,,,,,,,,,,,,,,,,,,,,,,,,,,,,,,,,,,,,001,109,2020_Feb_11_1352,spring_faces,3.1.5,60.05230519692703,
condition files/Stage0b_1.xlsx,0b,none,beta,g,"['h', 'g']","['Chess', 'Go']","[-0.15, 0.5]","[0.15, 0.5]",0,1,0,8,8,8,0,0,0,1,,,,,,,,,,,,,,,,,,,,,,,,,,,,,,,,,,,,,,,,,,,,,,,,,,,,,,,,,,,,,,,3520.870261787999,None,3520.870261787999,None,3520.870261787999,None,g,1,0.5550493279988586,3522.4054088560024,None,3522.4054088560024,None,3522.4054088560024,None,3523.0203471389996,None,3523.0203471389996,None,3523.0203471389996,None,3523.0203471389996,None,,,,,,,,,,,,,,,,,,,,,,,,,,,,,,,,,,,,,,,,,,,,001,109,2020_Feb_11_1352,spring_faces,3.1.5,60.05230519692703,
condition files/Stage0b_1.xlsx,0b,alpha,none,h,"['h', 'g']","['Chess', 'Go']","[-0.15, 0.5]","[0.15, 0.5]",1,0,0,8,8,8,0,1,1,0,,,,,,,,,,,,,,,,,,,,,,,,,,,,,,,,,,,,,,,,,,,,,,,,,,,,,,,,,,,,,,,3524.986811650002,None,3524.986811650002,None,3524.986811650002,None,h,1,0.3279510289976315,3526.5204348099996,None,3526.5204348099996,None,3526.5204348099996,None,3526.905314861002,None,3526.905314861002,None,3526.905314861002,None,3526.905314861002,None,,,,,,,,,,,,,,,,,,,,,,,,,,,,,,,,,,,,,,,,,,,,001,109,2020_Feb_11_1352,spring_faces,3.1.5,60.05230519692703,
condition files/Stage0b_2.xlsx,0b,beta,none,g,"['h', 'g']","['Chess', 'Go']","[-0.15, 0.5]","[0.15, 0.5]",1,0,0,9,9,9,0,0,0,1,,,,,,,,,,,,,,,,,,,,,,,,,,,,,,,,,,,,,,,,,,,,,,,,,,,,,,,,,,,,,,,3528.8864733909995,None,3528.8864733909995,None,3528.8864733909995,None,g,1,0.700015047998022,3530.4203815269993,None,3530.4203815269993,None,3530.4203815269993,None,3531.170513078001,None,3531.170513078001,None,3531.170513078001,None,3531.170513078001,None,,,,,,,,,,,,,,,,,,,,,,,,,,,,,,,,,,,,,,,,,,,,001,109,2020_Feb_11_1352,spring_faces,3.1.5,60.05230519692703,
condition files/Stage0b_2.xlsx,0b,none,alpha,h,"['h', 'g']","['Chess', 'Go']","[-0.15, 0.5]","[0.15, 0.5]",0,1,0,9,9,9,0,1,1,0,,,,,,,,,,,,,,,,,,,,,,,,,,,,,,,,,,,,,,,,,,,,,,,,,,,,,,,,,,,,,,,3533.136832743001,None,3533.136832743001,None,3533.136832743001,None,h,1,0.7167713650014775,3534.675616818002,None,3534.675616818002,None,3534.675616818002,None,3535.4703500800006,None,3535.4703500800006,None,3535.4703500800006,None,3535.4703500800006,None,,,,,,,,,,,,,,,,,,,,,,,,,,,,,,,,,,,,,,,,,,,,001,109,2020_Feb_11_1352,spring_faces,3.1.5,60.05230519692703,
condition files/Stage0b_1.xlsx,0b,alpha,none,h,"['h', 'g']","['Chess', 'Go']","[-0.15, 0.5]","[0.15, 0.5]",1,0,0,10,10,10,0,0,0,0,,,,,,,,,,,,,,,,,,,,,,,,,,,,,,,,,,,,,,,,,,,,,,,,,,,,,,,,,,,,,,,3537.4374510260004,None,3537.4374510260004,None,3537.4374510260004,None,h,1,1.5709902710004826,3538.973472707001,None,3538.973472707001,None,3538.973472707001,None,3540.603642447999,None,3540.603642447999,None,3540.603642447999,None,3540.603642447999,None,,,,,,,,,,,,,,,,,,,,,,,,,,,,,,,,,,,,,,,,,,,,001,109,2020_Feb_11_1352,spring_faces,3.1.5,60.05230519692703,
condition files/Stage0b_1.xlsx,0b,none,beta,g,"['h', 'g']","['Chess', 'Go']","[-0.15, 0.5]","[0.15, 0.5]",0,1,0,10,10,10,0,1,1,1,,,,,,,,,,,,,,,,,,,,,,,,,,,,,,,,,,,,,,,,,,,,,,,,,,,,,,,,,,,,,,,3542.570129791,None,3542.570129791,None,3542.570129791,None,g,1,0.6625219210000068,3544.105881977999,None,3544.105881977999,None,3544.105881977999,None,3544.821312140002,None,3544.821312140002,None,3544.821312140002,None,3544.821312140002,None,,,,,,,,,,,,,,,,,,,,,,,,,,,,,,,,,,,,,,,,,,,,001,109,2020_Feb_11_1352,spring_faces,3.1.5,60.05230519692703,
condition files/Stage0b_2.xlsx,0b,beta,none,g,"['h', 'g']","['Chess', 'Go']","[-0.15, 0.5]","[0.15, 0.5]",1,0,0,11,11,11,0,0,0,1,,,,,,,,,,,,,,,,,,,,,,,,,,,,,,,,,,,,,,,,,,,,,,,,,,,,,,,,,,,,,,,3546.803951854001,None,3546.803951854001,None,3546.803951854001,None,g,1,0.43035554400194087,3548.338052715002,None,3548.338052715002,None,3548.338052715002,None,3548.820030901001,None,3548.820030901001,None,3548.820030901001,None,3548.820030901001,None,,,,,,,,,,,,,,,,,,,,,,,,,,,,,,,,,,,,,,,,,,,,001,109,2020_Feb_11_1352,spring_faces,3.1.5,60.05230519692703,
condition files/Stage0b_2.xlsx,0b,none,alpha,h,"['h', 'g']","['Chess', 'Go']","[-0.15, 0.5]","[0.15, 0.5]",0,1,0,11,11,11,0,1,1,0,,,,,,,,,,,,,,,,,,,,,,,,,,,,,,,,,,,,,,,,,,,,,,,,,,,,,,,,,,,,,,,3550.7866164280003,None,3550.7866164280003,None,3550.7866164280003,None,h,1,0.6361777969977993,3552.3242685919995,None,3552.3242685919995,None,3552.3242685919995,None,3553.0208324540017,None,3553.0208324540017,None,3553.0208324540017,None,3553.0208324540017,None,,,,,,,,,,,,,,,,,,,,,,,,,,,,,,,,,,,,,,,,,,,,001,109,2020_Feb_11_1352,spring_faces,3.1.5,60.05230519692703,
condition files/Stage0c_1.xlsx,0c,alpha,phi,h,"['h', 'g']","['Chess', 'Go']","[-0.15, 0.5]","[0.15, 0.5]",1,1,0,12,12,12,0,0,0,1,,,,,,,,,,,,,,,,,,,,,,,,,,,,,,,,,,,,,,,,,,,,,,,,,,,,,,,,,,,,,,,3555.003362911002,None,3555.003362911002,None,3555.003362911002,None,h,1,2.439444450003066,3556.536966312002,None,3556.536966312002,None,3556.536966312002,None,3559.037118921,None,3559.037118921,None,3559.037118921,None,3559.037118921,None,,,,,,,,,,,,,,,,,,,,,,,,,,,,,,,,,,,,,,,,,,,,001,109,2020_Feb_11_1352,spring_faces,3.1.5,60.05230519692703,
condition files/Stage0c_1.xlsx,0c,theta,alpha,h,"['h', 'g']","['Chess', 'Go']","[-0.15, 0.5]","[0.15, 0.5]",1,1,0,12,12,12,0,1,1,0,,,,,,,,,,,,,,,,,,,,,,,,,,,,,,,,,,,,,,,,,,,,,,,,,,,,,,,,,,,,,,,3561.003509832999,None,3561.003509832999,None,3561.003509832999,None,g,0,0.903432437000447,3562.536968462,None,3562.536968462,None,3562.536968462,None,3563.5037152509994,None,3563.5037152509994,None,3563.5037152509994,None,3563.5037152509994,None,,,,,,,,,,,,,,,,,,,,,,,,,,,,,,,,,,,,,,,,,,,,001,109,2020_Feb_11_1352,spring_faces,3.1.5,60.05230519692703,
condition files/Stage0c_1.xlsx,0c,beta,theta,g,"['h', 'g']","['Chess', 'Go']","[-0.15, 0.5]","[0.15, 0.5]",1,1,0,12,12,12,0,2,2,2,,,,,,,,,,,,,,,,,,,,,,,,,,,,,,,,,,,,,,,,,,,,,,,,,,,,,,,,,,,,,,,3565.470214662999,None,3565.470214662999,None,3565.470214662999,None,g,1,0.8206541120016482,3567.0037487009995,None,3567.0037487009995,None,3567.0037487009995,None,3567.886539928002,None,3567.886539928002,None,3567.886539928002,None,3567.886539928002,None,,,,,,,,,,,,,,,,,,,,,,,,,,,,,,,,,,,,,,,,,,,,001,109,2020_Feb_11_1352,spring_faces,3.1.5,60.05230519692703,
condition files/Stage0c_1.xlsx,0c,phi,beta,g,"['h', 'g']","['Chess', 'Go']","[-0.15, 0.5]","[0.15, 0.5]",1,1,0,12,12,12,0,3,3,3,,,,,,,,,,,,,,,,,,,,,,,,,,,,,,,,,,,,,,,,,,,,,,,,,,,,,,,,,,,,,,,3569.8535495769993,None,3569.8535495769993,None,3569.8535495769993,None,g,1,0.9816665029975411,3571.3867227050014,None,3571.3867227050014,None,3571.3867227050014,None,3572.4201106340024,None,3572.4201106340024,None,3572.4201106340024,None,3572.4201106340024,None,,,,,,,,,,,,,,,,,,,,,,,,,,,,,,,,,,,,,,,,,,,,001,109,2020_Feb_11_1352,spring_faces,3.1.5,60.05230519692703,
condition files/Stage0c_2.xlsx,0c,beta,phi,g,"['h', 'g']","['Chess', 'Go']","[-0.15, 0.5]","[0.15, 0.5]",1,1,0,13,13,13,0,0,0,3,,,,,,,,,,,,,,,,,,,,,,,,,,,,,,,,,,,,,,,,,,,,,,,,,,,,,,,,,,,,,,,3574.4031516760024,None,3574.4031516760024,None,3574.4031516760024,None,g,1,1.0071759630009183,3575.937276896,None,3575.937276896,None,3575.937276896,None,3576.988774339001,None,3576.988774339001,None,3576.988774339001,None,3576.988774339001,None,,,,,,,,,,,,,,,,,,,,,,,,,,,,,,,,,,,,,,,,,,,,001,109,2020_Feb_11_1352,spring_faces,3.1.5,60.05230519692703,
condition files/Stage0c_2.xlsx,0c,alpha,theta,h,"['h', 'g']","['Chess', 'Go']","[-0.15, 0.5]","[0.15, 0.5]",1,1,0,13,13,13,0,1,1,0,,,,,,,,,,,,,,,,,,,,,,,,,,,,,,,,,,,,,,,,,,,,,,,,,,,,,,,,,,,,,,,3578.9700996010015,None,3578.9700996010015,None,3578.9700996010015,None,h,1,1.6726294979998784,3580.5037648670022,None,3580.5037648670022,None,3580.5037648670022,None,3582.237311832001,None,3582.237311832001,None,3582.237311832001,None,3582.237311832001,None,,,,,,,,,,,,,,,,,,,,,,,,,,,,,,,,,,,,,,,,,,,,001,109,2020_Feb_11_1352,spring_faces,3.1.5,60.05230519692703,
condition files/Stage0c_2.xlsx,0c,phi,alpha,h,"['h', 'g']","['Chess', 'Go']","[-0.15, 0.5]","[0.15, 0.5]",1,1,0,13,13,13,0,2,2,1,,,,,,,,,,,,,,,,,,,,,,,,,,,,,,,,,,,,,,,,,,,,,,,,,,,,,,,,,,,,,,,3584.203150547999,None,3584.203150547999,None,3584.203150547999,None,h,1,1.351287997997133,3585.737117486,None,3585.737117486,None,3585.737117486,None,3587.1372448580023,None,3587.1372448580023,None,3587.1372448580023,None,3587.1372448580023,None,,,,,,,,,,,,,,,,,,,,,,,,,,,,,,,,,,,,,,,,,,,,001,109,2020_Feb_11_1352,spring_faces,3.1.5,60.05230519692703,
condition files/Stage0c_2.xlsx,0c,theta,beta,g,"['h', 'g']","['Chess', 'Go']","[-0.15, 0.5]","[0.15, 0.5]",1,1,0,13,13,13,0,3,3,2,,,,,,,,,,,,,,,,,,,,,,,,,,,,,,,,,,,,,,,,,,,,,,,,,,,,,,,,,,,,,,,3589.1204040290013,None,3589.1204040290013,None,3589.1204040290013,None,g,1,1.0431193680014985,3590.6532727930007,None,3590.6532727930007,None,3590.6532727930007,None,3591.753173092,None,3591.753173092,None,3591.753173092,None,3591.753173092,None,,,,,,,,,,,,,,,,,,,,,,,,,,,,,,,,,,,,,,,,,,,,001,109,2020_Feb_11_1352,spring_faces,3.1.5,60.05230519692703,
condition files/Stage0c_1.xlsx,0c,theta,alpha,h,"['h', 'g']","['Chess', 'Go']","[-0.15, 0.5]","[0.15, 0.5]",1,1,0,14,14,14,0,0,0,0,,,,,,,,,,,,,,,,,,,,,,,,,,,,,,,,,,,,,,,,,,,,,,,,,,,,,,,,,,,,,,,3593.7366854289994,None,3593.7366854289994,None,3593.7366854289994,None,h,1,1.0658139119987027,3595.2705800150015,None,3595.2705800150015,None,3595.2705800150015,None,3596.386857271,None,3596.386857271,None,3596.386857271,None,3596.386857271,None,,,,,,,,,,,,,,,,,,,,,,,,,,,,,,,,,,,,,,,,,,,,001,109,2020_Feb_11_1352,spring_faces,3.1.5,60.05230519692703,
condition files/Stage0c_1.xlsx,0c,alpha,phi,h,"['h', 'g']","['Chess', 'Go']","[-0.15, 0.5]","[0.15, 0.5]",1,1,0,14,14,14,0,1,1,1,,,,,,,,,,,,,,,,,,,,,,,,,,,,,,,,,,,,,,,,,,,,,,,,,,,,,,,,,,,,,,,3598.353546002001,None,3598.353546002001,None,3598.353546002001,None,h,1,1.0577847529966675,3599.8866794709993,None,3599.8866794709993,None,3599.8866794709993,None,3600.9887370650013,None,3600.9887370650013,None,3600.9887370650013,None,3600.9887370650013,None,,,,,,,,,,,,,,,,,,,,,,,,,,,,,,,,,,,,,,,,,,,,001,109,2020_Feb_11_1352,spring_faces,3.1.5,60.05230519692703,
condition files/Stage0c_1.xlsx,0c,beta,theta,g,"['h', 'g']","['Chess', 'Go']","[-0.15, 0.5]","[0.15, 0.5]",1,1,0,14,14,14,0,2,2,2,,,,,,,,,,,,,,,,,,,,,,,,,,,,,,,,,,,,,,,,,,,,,,,,,,,,,,,,,,,,,,,3602.9702955640005,None,3602.9702955640005,None,3602.9702955640005,None,g,1,0.9051287780021084,3604.5032806639992,None,3604.5032806639992,None,3604.5032806639992,None,3605.4704193240013,None,3605.4704193240013,None,3605.4704193240013,None,3605.4704193240013,None,,,,,,,,,,,,,,,,,,,,,,,,,,,,,,,,,,,,,,,,,,,,001,109,2020_Feb_11_1352,spring_faces,3.1.5,60.05230519692703,
condition files/Stage0c_1.xlsx,0c,phi,beta,g,"['h', 'g']","['Chess', 'Go']","[-0.15, 0.5]","[0.15, 0.5]",1,1,0,14,14,14,0,3,3,3,,,,,,,,,,,,,,,,,,,,,,,,,,,,,,,,,,,,,,,,,,,,,,,,,,,,,,,,,,,,,,,3607.436910391001,None,3607.436910391001,None,3607.436910391001,None,g,1,0.9821934469982807,3608.9701957080015,None,3608.9701957080015,None,3608.9701957080015,None,3609.9886287300014,None,3609.9886287300014,None,3609.9886287300014,None,3609.9886287300014,None,,,,,,,,,,,,,,,,,,,,,,,,,,,,,,,,,,,,,,,,,,,,001,109,2020_Feb_11_1352,spring_faces,3.1.5,60.05230519692703,
condition files/Stage0c_2.xlsx,0c,beta,phi,g,"['h', 'g']","['Chess', 'Go']","[-0.15, 0.5]","[0.15, 0.5]",1,1,0,15,15,15,0,0,0,3,,,,,,,,,,,,,,,,,,,,,,,,,,,,,,,,,,,,,,,,,,,,,,,,,,,,,,,,,,,,,,,3611.986807375999,None,3611.986807375999,None,3611.986807375999,None,g,1,1.3445950650020677,3613.5198746190017,None,3613.5198746190017,None,3613.5198746190017,None,3614.9056386909997,None,3614.9056386909997,None,3614.9056386909997,None,3614.9056386909997,None,,,,,,,,,,,,,,,,,,,,,,,,,,,,,,,,,,,,,,,,,,,,001,109,2020_Feb_11_1352,spring_faces,3.1.5,60.05230519692703,
condition files/Stage0c_2.xlsx,0c,alpha,theta,h,"['h', 'g']","['Chess', 'Go']","[-0.15, 0.5]","[0.15, 0.5]",1,1,0,15,15,15,0,1,1,0,,,,,,,,,,,,,,,,,,,,,,,,,,,,,,,,,,,,,,,,,,,,,,,,,,,,,,,,,,,,,,,3616.8868427780017,None,3616.8868427780017,None,3616.8868427780017,None,h,1,0.9081063550002,3618.420355262,None,3618.420355262,None,3618.420355262,None,3619.3868268980023,None,3619.3868268980023,None,3619.3868268980023,None,3619.3868268980023,None,,,,,,,,,,,,,,,,,,,,,,,,,,,,,,,,,,,,,,,,,,,,001,109,2020_Feb_11_1352,spring_faces,3.1.5,60.05230519692703,
condition files/Stage0c_2.xlsx,0c,theta,beta,g,"['h', 'g']","['Chess', 'Go']","[-0.15, 0.5]","[0.15, 0.5]",1,1,0,15,15,15,0,2,2,2,,,,,,,,,,,,,,,,,,,,,,,,,,,,,,,,,,,,,,,,,,,,,,,,,,,,,,,,,,,,,,,3621.3529228530006,None,3621.3529228530006,None,3621.3529228530006,None,g,1,0.793923220000579,3622.886538664001,None,3622.886538664001,None,3622.886538664001,None,3623.7369318399997,None,3623.7369318399997,None,3623.7369318399997,None,3623.7369318399997,None,,,,,,,,,,,,,,,,,,,,,,,,,,,,,,,,,,,,,,,,,,,,001,109,2020_Feb_11_1352,spring_faces,3.1.5,60.05230519692703,
condition files/Stage0c_2.xlsx,0c,phi,alpha,h,"['h', 'g']","['Chess', 'Go']","[-0.15, 0.5]","[0.15, 0.5]",1,1,0,15,15,15,0,3,3,1,,,,,,,,,,,,,,,,,,,,,,,,,,,,,,,,,,,,,,,,,,,,,,,,,,,,,,,,,,,,,,,3625.7200077220023,None,3625.7200077220023,None,3625.7200077220023,None,h,1,0.7794458700009272,3627.236965812999,None,3627.236965812999,None,3627.236965812999,None,3628.069911392,None,3628.069911392,None,3628.069911392,None,3628.069911392,None,,,,,,,,,,,,,,,,,,,,,,,,,,,,,,,,,,,,,,,,,,,,001,109,2020_Feb_11_1352,spring_faces,3.1.5,60.05230519692703,
condition files/Stage0c_1.xlsx,0c,phi,beta,g,"['h', 'g']","['Chess', 'Go']","[-0.15, 0.5]","[0.15, 0.5]",1,1,0,16,16,16,0,0,0,3,,,,,,,,,,,,,,,,,,,,,,,,,,,,,,,,,,,,,,,,,,,,,,,,,,,,,,,,,,,,,,,3630.0532989840012,None,3630.0532989840012,None,3630.0532989840012,None,g,1,0.8135441289996379,3631.587089557999,None,3631.587089557999,None,3631.587089557999,None,3632.4536843570004,None,3632.4536843570004,None,3632.4536843570004,None,3632.4536843570004,None,,,,,,,,,,,,,,,,,,,,,,,,,,,,,,,,,,,,,,,,,,,,001,109,2020_Feb_11_1352,spring_faces,3.1.5,60.05230519692703,
condition files/Stage0c_1.xlsx,0c,alpha,phi,h,"['h', 'g']","['Chess', 'Go']","[-0.15, 0.5]","[0.15, 0.5]",1,1,0,16,16,16,0,1,1,1,,,,,,,,,,,,,,,,,,,,,,,,,,,,,,,,,,,,,,,,,,,,,,,,,,,,,,,,,,,,,,,3634.419791268001,None,3634.419791268001,None,3634.419791268001,None,h,1,0.7507008510001469,3635.953665523999,None,3635.953665523999,None,3635.953665523999,None,3636.770482432001,None,3636.770482432001,None,3636.770482432001,None,3636.770482432001,None,,,,,,,,,,,,,,,,,,,,,,,,,,,,,,,,,,,,,,,,,,,,001,109,2020_Feb_11_1352,spring_faces,3.1.5,60.05230519692703,
condition files/Stage0c_1.xlsx,0c,beta,theta,g,"['h', 'g']","['Chess', 'Go']","[-0.15, 0.5]","[0.15, 0.5]",1,1,0,16,16,16,0,2,2,2,,,,,,,,,,,,,,,,,,,,,,,,,,,,,,,,,,,,,,,,,,,,,,,,,,,,,,,,,,,,,,,3638.7366461600013,None,3638.7366461600013,None,3638.7366461600013,None,g,1,0.9304737570018915,3640.269926752002,None,3640.269926752002,None,3640.269926752002,None,3641.254034341002,None,3641.254034341002,None,3641.254034341002,None,3641.254034341002,None,,,,,,,,,,,,,,,,,,,,,,,,,,,,,,,,,,,,,,,,,,,,001,109,2020_Feb_11_1352,spring_faces,3.1.5,60.05230519692703,
condition files/Stage0c_1.xlsx,0c,theta,alpha,h,"['h', 'g']","['Chess', 'Go']","[-0.15, 0.5]","[0.15, 0.5]",1,1,0,16,16,16,0,3,3,0,,,,,,,,,,,,,,,,,,,,,,,,,,,,,,,,,,,,,,,,,,,,,,,,,,,,,,,,,,,,,,,3643.220232247002,None,3643.220232247002,None,3643.220232247002,None,h,1,0.7346548399982566,3644.753701742002,None,3644.753701742002,None,3644.753701742002,None,3645.553004677002,None,3645.553004677002,None,3645.553004677002,None,3645.553004677002,None,,,,,,,,,,,,,,,,,,,,,,,,,,,,,,,,,,,,,,,,,,,,001,109,2020_Feb_11_1352,spring_faces,3.1.5,60.05230519692703,
condition files/Stage0c_2.xlsx,0c,beta,phi,g,"['h', 'g']","['Chess', 'Go']","[-0.15, 0.5]","[0.15, 0.5]",1,1,0,17,17,17,0,0,0,3,,,,,,,,,,,,,,,,,,,,,,,,,,,,,,,,,,,,,,,,,,,,,,,,,,,,,,,,,,,,,,,3647.5367390869997,None,3647.5367390869997,None,3647.5367390869997,None,g,1,0.8499695509999583,3649.070448075001,None,3649.070448075001,None,3649.070448075001,None,3649.970548014002,None,3649.970548014002,None,3649.970548014002,None,3649.970548014002,None,,,,,,,,,,,,,,,,,,,,,,,,,,,,,,,,,,,,,,,,,,,,001,109,2020_Feb_11_1352,spring_faces,3.1.5,60.05230519692703,
condition files/Stage0c_2.xlsx,0c,theta,beta,g,"['h', 'g']","['Chess', 'Go']","[-0.15, 0.5]","[0.15, 0.5]",1,1,0,17,17,17,0,1,1,2,,,,,,,,,,,,,,,,,,,,,,,,,,,,,,,,,,,,,,,,,,,,,,,,,,,,,,,,,,,,,,,3651.9366857219993,None,3651.9366857219993,None,3651.9366857219993,None,h,0,0.834024160001718,3653.470340754002,None,3653.470340754002,None,3653.470340754002,None,3654.353098886002,None,3654.353098886002,None,3654.353098886002,None,3654.353098886002,None,,,,,,,,,,,,,,,,,,,,,,,,,,,,,,,,,,,,,,,,,,,,001,109,2020_Feb_11_1352,spring_faces,3.1.5,60.05230519692703,
condition files/Stage0c_2.xlsx,0c,phi,alpha,h,"['h', 'g']","['Chess', 'Go']","[-0.15, 0.5]","[0.15, 0.5]",1,1,0,17,17,17,0,2,2,1,,,,,,,,,,,,,,,,,,,,,,,,,,,,,,,,,,,,,,,,,,,,,,,,,,,,,,,,,,,,,,,3656.3368968820014,None,3656.3368968820014,None,3656.3368968820014,None,h,1,0.8502892439973948,3657.8701036600014,None,3657.8701036600014,None,3657.8701036600014,None,3658.769605673,None,3658.769605673,None,3658.769605673,None,3658.769605673,None,,,,,,,,,,,,,,,,,,,,,,,,,,,,,,,,,,,,,,,,,,,,001,109,2020_Feb_11_1352,spring_faces,3.1.5,60.05230519692703,
condition files/Stage0c_2.xlsx,0c,alpha,theta,h,"['h', 'g']","['Chess', 'Go']","[-0.15, 0.5]","[0.15, 0.5]",1,1,0,17,17,17,0,3,3,0,,,,,,,,,,,,,,,,,,,,,,,,,,,,,,,,,,,,,,,,,,,,,,,,,,,,,,,,,,,,,,,3660.7369291350024,None,3660.7369291350024,None,3660.7369291350024,None,g,0,0.6260361120002926,3662.2703943880024,None,3662.2703943880024,None,3662.2703943880024,None,3662.937120454002,None,3662.937120454002,None,3662.937120454002,None,3662.937120454002,None,,,,,,,,,,,,,,,,,,,,,,,,,,,,,,,,,,,,,,,,,,,,001,109,2020_Feb_11_1352,spring_faces,3.1.5,60.05230519692703,
,,,,,,,,,,,,,,,,,,,,,,,,,,,,,,,,,,,,,,,,,,,,,,,,,,,,,,,,,,,,,,,,,,,,,,,,,,,,,,,,,,,,,,,,,,,,,,,,,,,,,,,,3664.9369888830024,None,space,4.991465896000591,3669.9370150910017,None,,,,,,,,,,,,,,,,,,,,,,,,,,,,,,,,,,,,,,001,109,2020_Feb_11_1352,spring_faces,3.1.5,60.05230519692703,
condition files/Stage1_1.xlsx,,B3,T3,c,"['c', 'm']","['Clue', 'Monopoly']","[-0.15, 0.5]","[0.15, 0.5]",1,1,,,,,,,,,0,0,0,0,0,0,0,4,,,,,,,,,,,,,,,,,,,,,,,,,,,,,,,,,,,,,,,,,,,,,,,,,,,,,,,3674.986916492,None,3674.986916492,None,3674.986916492,None,c,1,1.8007515339995734,3676.503610644,None,3676.503610644,None,3676.503610644,None,3678.3871931350022,None,3678.3871931350022,None,3678.3871931350022,None,3678.3871931350022,None,,,,,,,3669.9370150910017,None,,,,,,,,,,,,,,,,,,,,,,,,,,,,,,,,,,,,001,109,2020_Feb_11_1352,spring_faces,3.1.5,60.05230519692703,
condition files/Stage1_1.xlsx,,T1,B1,c,"['c', 'm']","['Clue', 'Monopoly']","[-0.15, 0.5]","[0.15, 0.5]",1,1,,,,,,,,,0,0,0,0,0,1,1,0,,,,,,,,,,,,,,,,,,,,,,,,,,,,,,,,,,,,,,,,,,,,,,,,,,,,,,,3680.336813185999,None,3680.336813185999,None,3680.336813185999,None,m,0,1.8093862649984658,3681.871082997999,None,3681.871082997999,None,3681.871082997999,None,3683.7387617270015,None,3683.7387617270015,None,3683.7387617270015,None,3683.7387617270015,None,,,,,,,,,,,,,,,,,,,,,,,,,,,,,,,,,,,,,,,,,,,,001,109,2020_Feb_11_1352,spring_faces,3.1.5,60.05230519692703,
condition files/Stage1_1.xlsx,,B2,T1,m,"['c', 'm']","['Clue', 'Monopoly']","[-0.15, 0.5]","[0.15, 0.5]",1,1,,,,,,,,,0,0,0,0,0,2,2,2,,,,,,,,,,,,,,,,,,,,,,,,,,,,,,,,,,,,,,,,,,,,,,,,,,,,,,,3685.703651713002,None,3685.703651713002,None,3685.703651713002,None,c,0,1.1472840179994819,3687.253134716002,None,3687.253134716002,None,3687.253134716002,None,3688.4551288400016,None,3688.4551288400016,None,3688.4551288400016,None,3688.4551288400016,None,,,,,,,,,,,,,,,,,,,,,,,,,,,,,,,,,,,,,,,,,,,,001,109,2020_Feb_11_1352,spring_faces,3.1.5,60.05230519692703,
condition files/Stage1_1.xlsx,,T2,B2,m,"['c', 'm']","['Clue', 'Monopoly']","[-0.15, 0.5]","[0.15, 0.5]",1,1,,,,,,,,,0,0,0,0,0,3,3,3,,,,,,,,,,,,,,,,,,,,,,,,,,,,,,,,,,,,,,,,,,,,,,,,,,,,,,,3690.4201823269996,None,3690.4201823269996,None,3690.4201823269996,None,m,1,1.8363098289992195,3691.956113833001,None,3691.956113833001,None,3691.956113833001,None,3693.853113809002,None,3693.853113809002,None,3693.853113809002,None,3693.853113809002,None,,,,,,,,,,,,,,,,,,,,,,,,,,,,,,,,,,,,,,,,,,,,001,109,2020_Feb_11_1352,spring_faces,3.1.5,60.05230519692703,
condition files/Stage1_1.xlsx,,B4,T4,m,"['c', 'm']","['Clue', 'Monopoly']","[-0.15, 0.5]","[0.15, 0.5]",1,1,,,,,,,,,0,0,0,0,0,4,4,7,,,,,,,,,,,,,,,,,,,,,,,,,,,,,,,,,,,,,,,,,,,,,,,,,,,,,,,3695.8199741570006,None,3695.8199741570006,None,3695.8199741570006,None,c,0,2.1830685310014815,3697.3533360910023,None,3697.3533360910023,None,3697.3533360910023,None,3699.587329142001,None,3699.587329142001,None,3699.587329142001,None,3699.587329142001,None,,,,,,,,,,,,,,,,,,,,,,,,,,,,,,,,,,,,,,,,,,,,001,109,2020_Feb_11_1352,spring_faces,3.1.5,60.05230519692703,
condition files/Stage1_1.xlsx,,T4,B3,m,"['c', 'm']","['Clue', 'Monopoly']","[-0.15, 0.5]","[0.15, 0.5]",1,1,,,,,,,,,0,0,0,0,0,5,5,6,,,,,,,,,,,,,,,,,,,,,,,,,,,,,,,,,,,,,,,,,,,,,,,,,,,,,,,3701.553560675,None,3701.553560675,None,3701.553560675,None,m,1,1.8735676420001255,3703.0869024840013,None,3703.0869024840013,None,3703.0869024840013,None,3705.019781828001,None,3705.019781828001,None,3705.019781828001,None,3705.019781828001,None,,,,,,,,,,,,,,,,,,,,,,,,,,,,,,,,,,,,,,,,,,,,001,109,2020_Feb_11_1352,spring_faces,3.1.5,60.05230519692703,
condition files/Stage1_1.xlsx,,B1,T2,c,"['c', 'm']","['Clue', 'Monopoly']","[-0.15, 0.5]","[0.15, 0.5]",1,1,,,,,,,,,0,0,0,0,0,6,6,1,,,,,,,,,,,,,,,,,,,,,,,,,,,,,,,,,,,,,,,,,,,,,,,,,,,,,,,3706.9870284480003,None,3706.9870284480003,None,3706.9870284480003,None,m,0,1.6868355459992017,3708.521567154001,None,3708.521567154001,None,3708.521567154001,None,3710.269958097999,None,3710.269958097999,None,3710.269958097999,None,3710.269958097999,None,,,,,,,,,,,,,,,,,,,,,,,,,,,,,,,,,,,,,,,,,,,,001,109,2020_Feb_11_1352,spring_faces,3.1.5,60.05230519692703,
condition files/Stage1_1.xlsx,,T3,B4,c,"['c', 'm']","['Clue', 'Monopoly']","[-0.15, 0.5]","[0.15, 0.5]",1,1,,,,,,,,,0,0,0,0,0,7,7,5,,,,,,,,,,,,,,,,,,,,,,,,,,,,,,,,,,,,,,,,,,,,,,,,,,,,,,,3712.236830819,None,3712.236830819,None,3712.236830819,None,c,1,3.494438577003166,3713.7698691120004,None,3713.7698691120004,None,3713.7698691120004,None,3717.3203561550017,None,3717.3203561550017,None,3717.3203561550017,None,3717.3203561550017,None,,,,,,,,,,,,,,,,,,,,,,,,,,,,,,,,,,,,,,,,,,,,001,109,2020_Feb_11_1352,spring_faces,3.1.5,60.05230519692703,
condition files/Stage1_2.xlsx,,B4,T3,c,"['c', 'm']","['Clue', 'Monopoly']","[-0.15, 0.5]","[0.15, 0.5]",1,1,,,,,,,,,0,1,1,1,0,0,0,5,,,,,,,,,,,,,,,,,,,,,,,,,,,,,,,,,,,,,,,,,,,,,,,,,,,,,,,3719.303696421999,None,3719.303696421999,None,3719.303696421999,None,c,1,1.115626216000237,3720.836785305002,None,3720.836785305002,None,3720.836785305002,None,3722.003471209,None,3722.003471209,None,3722.003471209,None,3722.003471209,None,,,,,,,,,,,,,,,,,,,,,,,,,,,,,,,,,,,,,,,,,,,,001,109,2020_Feb_11_1352,spring_faces,3.1.5,60.05230519692703,
condition files/Stage1_2.xlsx,,B2,T2,m,"['c', 'm']","['Clue', 'Monopoly']","[-0.15, 0.5]","[0.15, 0.5]",1,1,,,,,,,,,0,1,1,1,0,1,1,3,,,,,,,,,,,,,,,,,,,,,,,,,,,,,,,,,,,,,,,,,,,,,,,,,,,,,,,3723.9700437789998,None,3723.9700437789998,None,3723.9700437789998,None,m,1,1.7262232110006153,3725.5061821220024,None,3725.5061821220024,None,3725.5061821220024,None,3727.2867261890005,None,3727.2867261890005,None,3727.2867261890005,None,3727.2867261890005,None,,,,,,,,,,,,,,,,,,,,,,,,,,,,,,,,,,,,,,,,,,,,001,109,2020_Feb_11_1352,spring_faces,3.1.5,60.05230519692703,
condition files/Stage1_2.xlsx,,T4,B4,m,"['c', 'm']","['Clue', 'Monopoly']","[-0.15, 0.5]","[0.15, 0.5]",1,1,,,,,,,,,0,1,1,1,0,2,2,7,,,,,,,,,,,,,,,,,,,,,,,,,,,,,,,,,,,,,,,,,,,,,,,,,,,,,,,3729.253492935002,None,3729.253492935002,None,3729.253492935002,None,c,0,1.069507115000306,3730.786891078,None,3730.786891078,None,3730.786891078,None,3731.9204392459997,None,3731.9204392459997,None,3731.9204392459997,None,3731.9204392459997,None,,,,,,,,,,,,,,,,,,,,,,,,,,,,,,,,,,,,,,,,,,,,001,109,2020_Feb_11_1352,spring_faces,3.1.5,60.05230519692703,
condition files/Stage1_2.xlsx,,T2,B1,c,"['c', 'm']","['Clue', 'Monopoly']","[-0.15, 0.5]","[0.15, 0.5]",1,1,,,,,,,,,0,1,1,1,0,3,3,1,,,,,,,,,,,,,,,,,,,,,,,,,,,,,,,,,,,,,,,,,,,,,,,,,,,,,,,3733.8867931570003,None,3733.8867931570003,None,3733.8867931570003,None,c,1,1.7162499629994272,3735.4201605479993,None,3735.4201605479993,None,3735.4201605479993,None,3737.203697930001,None,3737.203697930001,None,3737.203697930001,None,3737.203697930001,None,,,,,,,,,,,,,,,,,,,,,,,,,,,,,,,,,,,,,,,,,,,,001,109,2020_Feb_11_1352,spring_faces,3.1.5,60.05230519692703,
condition files/Stage1_2.xlsx,,B3,T4,m,"['c', 'm']","['Clue', 'Monopoly']","[-0.15, 0.5]","[0.15, 0.5]",1,1,,,,,,,,,0,1,1,1,0,4,4,6,,,,,,,,,,,,,,,,,,,,,,,,,,,,,,,,,,,,,,,,,,,,,,,,,,,,,,,3739.153382941002,None,3739.153382941002,None,3739.153382941002,None,m,1,1.681640986000275,3740.6867790279994,None,3740.6867790279994,None,3740.6867790279994,None,3742.4370873339994,None,3742.4370873339994,None,3742.4370873339994,None,3742.4370873339994,None,,,,,,,,,,,,,,,,,,,,,,,,,,,,,,,,,,,,,,,,,,,,001,109,2020_Feb_11_1352,spring_faces,3.1.5,60.05230519692703,
condition files/Stage1_2.xlsx,,T3,B3,c,"['c', 'm']","['Clue', 'Monopoly']","[-0.15, 0.5]","[0.15, 0.5]",1,1,,,,,,,,,0,1,1,1,0,5,5,4,,,,,,,,,,,,,,,,,,,,,,,,,,,,,,,,,,,,,,,,,,,,,,,,,,,,,,,3744.3868946679995,None,3744.3868946679995,None,3744.3868946679995,None,m,0,2.384011884998472,3745.9203735249994,None,3745.9203735249994,None,3745.9203735249994,None,3748.3700407710003,None,3748.3700407710003,None,3748.3700407710003,None,3748.3700407710003,None,,,,,,,,,,,,,,,,,,,,,,,,,,,,,,,,,,,,,,,,,,,,001,109,2020_Feb_11_1352,spring_faces,3.1.5,60.05230519692703,
condition files/Stage1_2.xlsx,,B1,T1,c,"['c', 'm']","['Clue', 'Monopoly']","[-0.15, 0.5]","[0.15, 0.5]",1,1,,,,,,,,,0,1,1,1,0,6,6,0,,,,,,,,,,,,,,,,,,,,,,,,,,,,,,,,,,,,,,,,,,,,,,,,,,,,,,,3750.3370170200014,None,3750.3370170200014,None,3750.3370170200014,None,m,0,1.201357879999705,3751.8869968960007,None,3751.8869968960007,None,3751.8869968960007,None,3753.15324976,None,3753.15324976,None,3753.15324976,None,3753.15324976,None,,,,,,,,,,,,,,,,,,,,,,,,,,,,,,,,,,,,,,,,,,,,001,109,2020_Feb_11_1352,spring_faces,3.1.5,60.05230519692703,
condition files/Stage1_2.xlsx,,T1,B2,m,"['c', 'm']","['Clue', 'Monopoly']","[-0.15, 0.5]","[0.15, 0.5]",1,1,,,,,,,,,0,1,1,1,0,7,7,2,,,,,,,,,,,,,,,,,,,,,,,,,,,,,,,,,,,,,,,,,,,,,,,,,,,,,,,3755.120292444999,None,3755.120292444999,None,3755.120292444999,None,m,1,1.2983457320005982,3756.670050171002,None,3756.670050171002,None,3756.670050171002,None,3758.0220383680007,None,3758.0220383680007,None,3758.0220383680007,None,3758.0220383680007,None,,,,,,,,,,,,,,,,,,,,,,,,,,,,,,,,,,,,,,,,,,,,001,109,2020_Feb_11_1352,spring_faces,3.1.5,60.05230519692703,
condition files/Stage1_1.xlsx,,T4,B3,m,"['c', 'm']","['Clue', 'Monopoly']","[-0.15, 0.5]","[0.15, 0.5]",1,1,,,,,,,,,0,2,2,2,0,0,0,6,,,,,,,,,,,,,,,,,,,,,,,,,,,,,,,,,,,,,,,,,,,,,,,,,,,,,,,3760.0038276409996,None,3760.0038276409996,None,3760.0038276409996,None,m,1,1.0703473600005964,3761.5540644500015,None,3761.5540644500015,None,3761.5540644500015,None,3762.6864062110017,None,3762.6864062110017,None,3762.6864062110017,None,3762.6864062110017,None,,,,,,,,,,,,,,,,,,,,,,,,,,,,,,,,,,,,,,,,,,,,001,109,2020_Feb_11_1352,spring_faces,3.1.5,60.05230519692703,
condition files/Stage1_1.xlsx,,T3,B4,c,"['c', 'm']","['Clue', 'Monopoly']","[-0.15, 0.5]","[0.15, 0.5]",1,1,,,,,,,,,0,2,2,2,0,1,1,5,,,,,,,,,,,,,,,,,,,,,,,,,,,,,,,,,,,,,,,,,,,,,,,,,,,,,,,3764.653521279999,None,3764.653521279999,None,3764.653521279999,None,c,1,0.7737912739976309,3766.186688644999,None,3766.186688644999,None,3766.186688644999,None,3767.019936720999,None,3767.019936720999,None,3767.019936720999,None,3767.019936720999,None,,,,,,,,,,,,,,,,,,,,,,,,,,,,,,,,,,,,,,,,,,,,001,109,2020_Feb_11_1352,spring_faces,3.1.5,60.05230519692703,
condition files/Stage1_1.xlsx,,T2,B2,m,"['c', 'm']","['Clue', 'Monopoly']","[-0.15, 0.5]","[0.15, 0.5]",1,1,,,,,,,,,0,2,2,2,0,2,2,3,,,,,,,,,,,,,,,,,,,,,,,,,,,,,,,,,,,,,,,,,,,,,,,,,,,,,,,3768.986514768001,None,3768.986514768001,None,3768.986514768001,None,m,1,0.8397868759966514,3770.5206940280023,None,3770.5206940280023,None,3770.5206940280023,None,3771.43638818,None,3771.43638818,None,3771.43638818,None,3771.43638818,None,,,,,,,,,,,,,,,,,,,,,,,,,,,,,,,,,,,,,,,,,,,,001,109,2020_Feb_11_1352,spring_faces,3.1.5,60.05230519692703,
condition files/Stage1_1.xlsx,,B3,T3,c,"['c', 'm']","['Clue', 'Monopoly']","[-0.15, 0.5]","[0.15, 0.5]",1,1,,,,,,,,,0,2,2,2,0,3,3,4,,,,,,,,,,,,,,,,,,,,,,,,,,,,,,,,,,,,,,,,,,,,,,,,,,,,,,,3773.386894475001,None,3773.386894475001,None,3773.386894475001,None,m,0,0.8068312180002977,3774.921652687999,None,3774.921652687999,None,3774.921652687999,None,3775.7867335950014,None,3775.7867335950014,None,3775.7867335950014,None,3775.7867335950014,None,,,,,,,,,,,,,,,,,,,,,,,,,,,,,,,,,,,,,,,,,,,,001,109,2020_Feb_11_1352,spring_faces,3.1.5,60.05230519692703,
condition files/Stage1_1.xlsx,,B1,T2,c,"['c', 'm']","['Clue', 'Monopoly']","[-0.15, 0.5]","[0.15, 0.5]",1,1,,,,,,,,,0,2,2,2,0,4,4,1,,,,,,,,,,,,,,,,,,,,,,,,,,,,,,,,,,,,,,,,,,,,,,,,,,,,,,,3777.753593872001,None,3777.753593872001,None,3777.753593872001,None,c,1,1.5441839689992776,3779.2882140730017,None,3779.2882140730017,None,3779.2882140730017,None,3780.886469414001,None,3780.886469414001,None,3780.886469414001,None,3780.886469414001,None,,,,,,,,,,,,,,,,,,,,,,,,,,,,,,,,,,,,,,,,,,,,001,109,2020_Feb_11_1352,spring_faces,3.1.5,60.05230519692703,
condition files/Stage1_1.xlsx,,B4,T4,m,"['c', 'm']","['Clue', 'Monopoly']","[-0.15, 0.5]","[0.15, 0.5]",1,1,,,,,,,,,0,2,2,2,0,5,5,7,,,,,,,,,,,,,,,,,,,,,,,,,,,,,,,,,,,,,,,,,,,,,,,,,,,,,,,3782.853535832999,None,3782.853535832999,None,3782.853535832999,None,c,0,0.892036247998476,3784.3884483640013,None,3784.3884483640013,None,3784.3884483640013,None,3785.3362762490015,None,3785.3362762490015,None,3785.3362762490015,None,3785.3362762490015,None,,,,,,,,,,,,,,,,,,,,,,,,,,,,,,,,,,,,,,,,,,,,001,109,2020_Feb_11_1352,spring_faces,3.1.5,60.05230519692703,
condition files/Stage1_1.xlsx,,B2,T1,m,"['c', 'm']","['Clue', 'Monopoly']","[-0.15, 0.5]","[0.15, 0.5]",1,1,,,,,,,,,0,2,2,2,0,6,6,2,,,,,,,,,,,,,,,,,,,,,,,,,,,,,,,,,,,,,,,,,,,,,,,,,,,,,,,3787.3034583790013,None,3787.3034583790013,None,3787.3034583790013,None,m,1,1.0653046219995304,3788.8390624149997,None,3788.8390624149997,None,3788.8390624149997,None,3789.970289580002,None,3789.970289580002,None,3789.970289580002,None,3789.970289580002,None,,,,,,,,,,,,,,,,,,,,,,,,,,,,,,,,,,,,,,,,,,,,001,109,2020_Feb_11_1352,spring_faces,3.1.5,60.05230519692703,
condition files/Stage1_1.xlsx,,T1,B1,c,"['c', 'm']","['Clue', 'Monopoly']","[-0.15, 0.5]","[0.15, 0.5]",1,1,,,,,,,,,0,2,2,2,0,7,7,0,,,,,,,,,,,,,,,,,,,,,,,,,,,,,,,,,,,,,,,,,,,,,,,,,,,,,,,3791.9370288289992,None,3791.9370288289992,None,3791.9370288289992,None,m,0,0.7375429320018156,3793.470886391,None,3793.470886391,None,3793.470886391,None,3794.2730237760024,None,3794.2730237760024,None,3794.2730237760024,None,3794.2730237760024,None,,,,,,,,,,,,,,,,,,,,,,,,,,,,,,,,,,,,,,,,,,,,001,109,2020_Feb_11_1352,spring_faces,3.1.5,60.05230519692703,
condition files/Stage1_2.xlsx,,B4,T3,c,"['c', 'm']","['Clue', 'Monopoly']","[-0.15, 0.5]","[0.15, 0.5]",1,1,,,,,,,,,0,3,3,3,0,0,0,5,,,,,,,,,,,,,,,,,,,,,,,,,,,,,,,,,,,,,,,,,,,,,,,,,,,,,,,3796.2535095030016,None,3796.2535095030016,None,3796.2535095030016,None,m,0,0.32488985400050296,3797.803581205002,None,3797.803581205002,None,3797.803581205002,None,3798.186725452002,None,3798.186725452002,None,3798.186725452002,None,3798.186725452002,None,,,,,,,,,,,,,,,,,,,,,,,,,,,,,,,,,,,,,,,,,,,,001,109,2020_Feb_11_1352,spring_faces,3.1.5,60.05230519692703,
condition files/Stage1_2.xlsx,,T2,B1,c,"['c', 'm']","['Clue', 'Monopoly']","[-0.15, 0.5]","[0.15, 0.5]",1,1,,,,,,,,,0,3,3,3,0,1,1,1,,,,,,,,,,,,,,,,,,,,,,,,,,,,,,,,,,,,,,,,,,,,,,,,,,,,,,,3800.153486895002,None,3800.153486895002,None,3800.153486895002,None,c,1,0.34325273699869285,3801.6891592720003,None,3801.6891592720003,None,3801.6891592720003,None,3802.085893507001,None,3802.085893507001,None,3802.085893507001,None,3802.085893507001,None,,,,,,,,,,,,,,,,,,,,,,,,,,,,,,,,,,,,,,,,,,,,001,109,2020_Feb_11_1352,spring_faces,3.1.5,60.05230519692703,
condition files/Stage1_2.xlsx,,B2,T2,m,"['c', 'm']","['Clue', 'Monopoly']","[-0.15, 0.5]","[0.15, 0.5]",1,1,,,,,,,,,0,3,3,3,0,2,2,3,,,,,,,,,,,,,,,,,,,,,,,,,,,,,,,,,,,,,,,,,,,,,,,,,,,,,,,3804.0536704280003,None,3804.0536704280003,None,3804.0536704280003,None,m,1,0.7502322559994354,3805.586187013001,None,3805.586187013001,None,3805.586187013001,None,3806.3893003079993,None,3806.3893003079993,None,3806.3893003079993,None,3806.3893003079993,None,,,,,,,,,,,,,,,,,,,,,,,,,,,,,,,,,,,,,,,,,,,,001,109,2020_Feb_11_1352,spring_faces,3.1.5,60.05230519692703,
condition files/Stage1_2.xlsx,,T3,B3,c,"['c', 'm']","['Clue', 'Monopoly']","[-0.15, 0.5]","[0.15, 0.5]",1,1,,,,,,,,,0,3,3,3,0,3,3,4,,,,,,,,,,,,,,,,,,,,,,,,,,,,,,,,,,,,,,,,,,,,,,,,,,,,,,,3808.3531691350017,None,3808.3531691350017,None,3808.3531691350017,None,m,0,0.7851775910021388,3809.9032214400013,None,3809.9032214400013,None,3809.9032214400013,None,3810.7698634909993,None,3810.7698634909993,None,3810.7698634909993,None,3810.7698634909993,None,,,,,,,,,,,,,,,,,,,,,,,,,,,,,,,,,,,,,,,,,,,,001,109,2020_Feb_11_1352,spring_faces,3.1.5,60.05230519692703,
condition files/Stage1_2.xlsx,,B1,T1,c,"['c', 'm']","['Clue', 'Monopoly']","[-0.15, 0.5]","[0.15, 0.5]",1,1,,,,,,,,,0,3,3,3,0,4,4,0,,,,,,,,,,,,,,,,,,,,,,,,,,,,,,,,,,,,,,,,,,,,,,,,,,,,,,,3812.7198558170003,None,3812.7198558170003,None,3812.7198558170003,None,c,1,0.5135691610012145,3814.254843536002,None,3814.254843536002,None,3814.254843536002,None,3814.8203767819996,None,3814.8203767819996,None,3814.8203767819996,None,3814.8203767819996,None,,,,,,,,,,,,,,,,,,,,,,,,,,,,,,,,,,,,,,,,,,,,001,109,2020_Feb_11_1352,spring_faces,3.1.5,60.05230519692703,
condition files/Stage1_2.xlsx,,T1,B2,m,"['c', 'm']","['Clue', 'Monopoly']","[-0.15, 0.5]","[0.15, 0.5]",1,1,,,,,,,,,0,3,3,3,0,5,5,2,,,,,,,,,,,,,,,,,,,,,,,,,,,,,,,,,,,,,,,,,,,,,,,,,,,,,,,3816.7869561450007,None,3816.7869561450007,None,3816.7869561450007,None,m,1,1.360112238999136,3818.3363649170005,None,3818.3363649170005,None,3818.3363649170005,None,3819.7546114710003,None,3819.7546114710003,None,3819.7546114710003,None,3819.7546114710003,None,,,,,,,,,,,,,,,,,,,,,,,,,,,,,,,,,,,,,,,,,,,,001,109,2020_Feb_11_1352,spring_faces,3.1.5,60.05230519692703,
condition files/Stage1_2.xlsx,,T4,B4,m,"['c', 'm']","['Clue', 'Monopoly']","[-0.15, 0.5]","[0.15, 0.5]",1,1,,,,,,,,,0,3,3,3,0,6,6,7,,,,,,,,,,,,,,,,,,,,,,,,,,,,,,,,,,,,,,,,,,,,,,,,,,,,,,,3821.7201855580006,None,3821.7201855580006,None,3821.7201855580006,None,m,1,0.8727565629997116,3823.2557190019998,None,3823.2557190019998,None,3823.2557190019998,None,3824.1868806410002,None,3824.1868806410002,None,3824.1868806410002,None,3824.1868806410002,None,,,,,,,,,,,,,,,,,,,,,,,,,,,,,,,,,,,,,,,,,,,,001,109,2020_Feb_11_1352,spring_faces,3.1.5,60.05230519692703,
condition files/Stage1_2.xlsx,,B3,T4,m,"['c', 'm']","['Clue', 'Monopoly']","[-0.15, 0.5]","[0.15, 0.5]",1,1,,,,,,,,,0,3,3,3,0,7,7,6,,,,,,,,,,,,,,,,,,,,,,,,,,,,,,,,,,,,,,,,,,,,,,,,,,,,,,,3826.153588735002,None,3826.153588735002,None,3826.153588735002,None,c,0,0.2793569759996899,3827.689056106001,None,3827.689056106001,None,3827.689056106001,None,3828.0199892910005,None,3828.0199892910005,None,3828.0199892910005,None,3828.0199892910005,None,,,,,,,,,,,,,,,,,,,,,,,,,,,,,,,,,,,,,,,,,,,,001,109,2020_Feb_11_1352,spring_faces,3.1.5,60.05230519692703,
condition files/Stage1_1.xlsx,,T2,B2,m,"['c', 'm']","['Clue', 'Monopoly']","[-0.15, 0.5]","[0.15, 0.5]",1,1,,,,,,,,,0,4,4,4,0,0,0,3,,,,,,,,,,,,,,,,,,,,,,,,,,,,,,,,,,,,,,,,,,,,,,,,,,,,,,,3830.003412336,None,3830.003412336,None,3830.003412336,None,m,1,0.5761914189970412,3831.536282720999,None,3831.536282720999,None,3831.536282720999,None,3832.170146114002,None,3832.170146114002,None,3832.170146114002,None,3832.170146114002,None,,,,,,,,,,,,,,,,,,,,,,,,,,,,,,,,,,,,,,,,,,,,001,109,2020_Feb_11_1352,spring_faces,3.1.5,60.05230519692703,
condition files/Stage1_1.xlsx,,B2,T1,m,"['c', 'm']","['Clue', 'Monopoly']","[-0.15, 0.5]","[0.15, 0.5]",1,1,,,,,,,,,0,4,4,4,0,1,1,2,,,,,,,,,,,,,,,,,,,,,,,,,,,,,,,,,,,,,,,,,,,,,,,,,,,,,,,3834.1367497590018,None,3834.1367497590018,None,3834.1367497590018,None,m,1,0.6184506560020964,3835.669939666999,None,3835.669939666999,None,3835.669939666999,None,3836.353700187001,None,3836.353700187001,None,3836.353700187001,None,3836.353700187001,None,,,,,,,,,,,,,,,,,,,,,,,,,,,,,,,,,,,,,,,,,,,,001,109,2020_Feb_11_1352,spring_faces,3.1.5,60.05230519692703,
condition files/Stage1_1.xlsx,,T4,B3,m,"['c', 'm']","['Clue', 'Monopoly']","[-0.15, 0.5]","[0.15, 0.5]",1,1,,,,,,,,,0,4,4,4,0,2,2,6,,,,,,,,,,,,,,,,,,,,,,,,,,,,,,,,,,,,,,,,,,,,,,,,,,,,,,,3838.319612445999,None,3838.319612445999,None,3838.319612445999,None,m,1,0.5145370350001031,3839.869855974999,None,3839.869855974999,None,3839.869855974999,None,3840.4373200380014,None,3840.4373200380014,None,3840.4373200380014,None,3840.4373200380014,None,,,,,,,,,,,,,,,,,,,,,,,,,,,,,,,,,,,,,,,,,,,,001,109,2020_Feb_11_1352,spring_faces,3.1.5,60.05230519692703,
condition files/Stage1_1.xlsx,,B3,T3,c,"['c', 'm']","['Clue', 'Monopoly']","[-0.15, 0.5]","[0.15, 0.5]",1,1,,,,,,,,,0,4,4,4,0,3,3,4,,,,,,,,,,,,,,,,,,,,,,,,,,,,,,,,,,,,,,,,,,,,,,,,,,,,,,,3842.4031488090022,None,3842.4031488090022,None,3842.4031488090022,None,m,0,0.4143721189975622,3843.9380440059995,None,3843.9380440059995,None,3843.9380440059995,None,3844.404397198001,None,3844.404397198001,None,3844.404397198001,None,3844.404397198001,None,,,,,,,,,,,,,,,,,,,,,,,,,,,,,,,,,,,,,,,,,,,,001,109,2020_Feb_11_1352,spring_faces,3.1.5,60.05230519692703,
condition files/Stage1_1.xlsx,,T3,B4,c,"['c', 'm']","['Clue', 'Monopoly']","[-0.15, 0.5]","[0.15, 0.5]",1,1,,,,,,,,,0,4,4,4,0,4,4,5,,,,,,,,,,,,,,,,,,,,,,,,,,,,,,,,,,,,,,,,,,,,,,,,,,,,,,,3846.370209044,None,3846.370209044,None,3846.370209044,None,c,1,0.20638983100070618,3847.906092362,None,3847.906092362,None,3847.906092362,None,3848.1702847690012,None,3848.1702847690012,None,3848.1702847690012,None,3848.1702847690012,None,,,,,,,,,,,,,,,,,,,,,,,,,,,,,,,,,,,,,,,,,,,,001,109,2020_Feb_11_1352,spring_faces,3.1.5,60.05230519692703,
condition files/Stage1_1.xlsx,,B1,T2,c,"['c', 'm']","['Clue', 'Monopoly']","[-0.15, 0.5]","[0.15, 0.5]",1,1,,,,,,,,,0,4,4,4,0,5,5,1,,,,,,,,,,,,,,,,,,,,,,,,,,,,,,,,,,,,,,,,,,,,,,,,,,,,,,,3850.136890571999,None,3850.136890571999,None,3850.136890571999,None,c,1,0.20007364699995378,3851.672310071999,None,3851.672310071999,None,3851.672310071999,None,3851.9367392229997,None,3851.9367392229997,None,3851.9367392229997,None,3851.9367392229997,None,,,,,,,,,,,,,,,,,,,,,,,,,,,,,,,,,,,,,,,,,,,,001,109,2020_Feb_11_1352,spring_faces,3.1.5,60.05230519692703,
condition files/Stage1_1.xlsx,,T1,B1,c,"['c', 'm']","['Clue', 'Monopoly']","[-0.15, 0.5]","[0.15, 0.5]",1,1,,,,,,,,,0,4,4,4,0,6,6,0,,,,,,,,,,,,,,,,,,,,,,,,,,,,,,,,,,,,,,,,,,,,,,,,,,,,,,,3853.9035541659996,None,3853.9035541659996,None,3853.9035541659996,None,m,0,0.21086314900094294,3855.4375298920004,None,3855.4375298920004,None,3855.4375298920004,None,3855.7037808490004,None,3855.7037808490004,None,3855.7037808490004,None,3855.7037808490004,None,,,,,,,,,,,,,,,,,,,,,,,,,,,,,,,,,,,,,,,,,,,,001,109,2020_Feb_11_1352,spring_faces,3.1.5,60.05230519692703,
condition files/Stage1_1.xlsx,,B4,T4,m,"['c', 'm']","['Clue', 'Monopoly']","[-0.15, 0.5]","[0.15, 0.5]",1,1,,,,,,,,,0,4,4,4,0,7,7,7,,,,,,,,,,,,,,,,,,,,,,,,,,,,,,,,,,,,,,,,,,,,,,,,,,,,,,,3857.670204838001,None,3857.670204838001,None,3857.670204838001,None,c,0,0.3478790770022897,3859.204528471002,None,3859.204528471002,None,3859.204528471002,None,3859.603981718001,None,3859.603981718001,None,3859.603981718001,None,3859.603981718001,None,,,,,,,,,,,,,,,,,,,,,,,,,,,,,,,,,,,,,,,,,,,,001,109,2020_Feb_11_1352,spring_faces,3.1.5,60.05230519692703,
condition files/Stage1_2.xlsx,,T2,B1,c,"['c', 'm']","['Clue', 'Monopoly']","[-0.15, 0.5]","[0.15, 0.5]",1,1,,,,,,,,,0,5,5,5,0,0,0,1,,,,,,,,,,,,,,,,,,,,,,,,,,,,,,,,,,,,,,,,,,,,,,,,,,,,,,,3861.5865977600024,None,3861.5865977600024,None,3861.5865977600024,None,m,0,0.5906503639998846,3863.121831638002,None,3863.121831638002,None,3863.121831638002,None,3863.769740583002,None,3863.769740583002,None,3863.769740583002,None,3863.769740583002,None,,,,,,,,,,,,,,,,,,,,,,,,,,,,,,,,,,,,,,,,,,,,001,109,2020_Feb_11_1352,spring_faces,3.1.5,60.05230519692703,
condition files/Stage1_2.xlsx,,B4,T3,c,"['c', 'm']","['Clue', 'Monopoly']","[-0.15, 0.5]","[0.15, 0.5]",1,1,,,,,,,,,0,5,5,5,0,1,1,5,,,,,,,,,,,,,,,,,,,,,,,,,,,,,,,,,,,,,,,,,,,,,,,,,,,,,,,3865.7367996209996,None,3865.7367996209996,None,3865.7367996209996,None,c,1,1.1453391510003712,3867.287054429,None,3867.287054429,None,3867.287054429,None,3868.4865916340004,None,3868.4865916340004,None,3868.4865916340004,None,3868.4865916340004,None,,,,,,,,,,,,,,,,,,,,,,,,,,,,,,,,,,,,,,,,,,,,001,109,2020_Feb_11_1352,spring_faces,3.1.5,60.05230519692703,
condition files/Stage1_2.xlsx,,T4,B4,m,"['c', 'm']","['Clue', 'Monopoly']","[-0.15, 0.5]","[0.15, 0.5]",1,1,,,,,,,,,0,5,5,5,0,2,2,7,,,,,,,,,,,,,,,,,,,,,,,,,,,,,,,,,,,,,,,,,,,,,,,,,,,,,,,3870.453529217999,None,3870.453529217999,None,3870.453529217999,None,c,0,0.7180589320014406,3871.986331885999,None,3871.986331885999,None,3871.986331885999,None,3872.769768256001,None,3872.769768256001,None,3872.769768256001,None,3872.769768256001,None,,,,,,,,,,,,,,,,,,,,,,,,,,,,,,,,,,,,,,,,,,,,001,109,2020_Feb_11_1352,spring_faces,3.1.5,60.05230519692703,
condition files/Stage1_2.xlsx,,B3,T4,m,"['c', 'm']","['Clue', 'Monopoly']","[-0.15, 0.5]","[0.15, 0.5]",1,1,,,,,,,,,0,5,5,5,0,3,3,6,,,,,,,,,,,,,,,,,,,,,,,,,,,,,,,,,,,,,,,,,,,,,,,,,,,,,,,3874.73730748,None,3874.73730748,None,3874.73730748,None,m,1,0.4010701949991926,3876.287279153001,None,3876.287279153001,None,3876.287279153001,None,3876.7536631599996,None,3876.7536631599996,None,3876.7536631599996,None,3876.7536631599996,None,,,,,,,,,,,,,,,,,,,,,,,,,,,,,,,,,,,,,,,,,,,,001,109,2020_Feb_11_1352,spring_faces,3.1.5,60.05230519692703,
condition files/Stage1_2.xlsx,,B2,T2,m,"['c', 'm']","['Clue', 'Monopoly']","[-0.15, 0.5]","[0.15, 0.5]",1,1,,,,,,,,,0,5,5,5,0,4,4,3,,,,,,,,,,,,,,,,,,,,,,,,,,,,,,,,,,,,,,,,,,,,,,,,,,,,,,,3878.720366915002,None,3878.720366915002,None,3878.720366915002,None,c,0,0.22462240000095335,3880.2558652880016,None,3880.2558652880016,None,3880.2558652880016,None,3880.5367152000017,None,3880.5367152000017,None,3880.5367152000017,None,3880.5367152000017,None,,,,,,,,,,,,,,,,,,,,,,,,,,,,,,,,,,,,,,,,,,,,001,109,2020_Feb_11_1352,spring_faces,3.1.5,60.05230519692703,
condition files/Stage1_2.xlsx,,T1,B2,m,"['c', 'm']","['Clue', 'Monopoly']","[-0.15, 0.5]","[0.15, 0.5]",1,1,,,,,,,,,0,5,5,5,0,5,5,2,,,,,,,,,,,,,,,,,,,,,,,,,,,,,,,,,,,,,,,,,,,,,,,,,,,,,,,3882.5036569560016,None,3882.5036569560016,None,3882.5036569560016,None,m,1,0.2829160850014887,3884.037447656001,None,3884.037447656001,None,3884.037447656001,None,3884.370465787002,None,3884.370465787002,None,3884.370465787002,None,3884.370465787002,None,,,,,,,,,,,,,,,,,,,,,,,,,,,,,,,,,,,,,,,,,,,,001,109,2020_Feb_11_1352,spring_faces,3.1.5,60.05230519692703,
condition files/Stage1_2.xlsx,,T3,B3,c,"['c', 'm']","['Clue', 'Monopoly']","[-0.15, 0.5]","[0.15, 0.5]",1,1,,,,,,,,,0,5,5,5,0,6,6,4,,,,,,,,,,,,,,,,,,,,,,,,,,,,,,,,,,,,,,,,,,,,,,,,,,,,,,,3886.3364327729996,None,3886.3364327729996,None,3886.3364327729996,None,c,1,1.441193740000017,3887.887276894,None,3887.887276894,None,3887.887276894,None,3889.4035046480003,None,3889.4035046480003,None,3889.4035046480003,None,3889.4035046480003,None,,,,,,,,,,,,,,,,,,,,,,,,,,,,,,,,,,,,,,,,,,,,001,109,2020_Feb_11_1352,spring_faces,3.1.5,60.05230519692703,
condition files/Stage1_2.xlsx,,B1,T1,c,"['c', 'm']","['Clue', 'Monopoly']","[-0.15, 0.5]","[0.15, 0.5]",1,1,,,,,,,,,0,5,5,5,0,7,7,0,,,,,,,,,,,,,,,,,,,,,,,,,,,,,,,,,,,,,,,,,,,,,,,,,,,,,,,3891.353572236001,None,3891.353572236001,None,3891.353572236001,None,m,0,0.3444090060002054,3892.887955387001,None,3892.887955387001,None,3892.887955387001,None,3893.286689431001,None,3893.286689431001,None,3893.286689431001,None,3893.286689431001,None,,,,,,,,,,,,,,,,,,,,,,,,,,,,,,,,,,,,,,,,,,,,001,109,2020_Feb_11_1352,spring_faces,3.1.5,60.05230519692703,
condition files/Stage1_1.xlsx,,T4,B3,m,"['c', 'm']","['Clue', 'Monopoly']","[-0.15, 0.5]","[0.15, 0.5]",1,1,,,,,,,,,0,6,6,6,0,0,0,6,,,,,,,,,,,,,,,,,,,,,,,,,,,,,,,,,,,,,,,,,,,,,,,,,,,,,,,3895.2702673660006,None,3895.2702673660006,None,3895.2702673660006,None,c,0,0.41306463399814675,3896.8033577650003,None,3896.8033577650003,None,3896.8033577650003,None,3897.2709760670023,None,3897.2709760670023,None,3897.2709760670023,None,3897.2709760670023,None,,,,,,,,,,,,,,,,,,,,,,,,,,,,,,,,,,,,,,,,,,,,001,109,2020_Feb_11_1352,spring_faces,3.1.5,60.05230519692703,
condition files/Stage1_1.xlsx,,T2,B2,m,"['c', 'm']","['Clue', 'Monopoly']","[-0.15, 0.5]","[0.15, 0.5]",1,1,,,,,,,,,0,6,6,6,0,1,1,3,,,,,,,,,,,,,,,,,,,,,,,,,,,,,,,,,,,,,,,,,,,,,,,,,,,,,,,3899.236933817001,None,3899.236933817001,None,3899.236933817001,None,m,1,0.42907344899867894,3900.771428072001,None,3900.771428072001,None,3900.771428072001,None,3901.2541022720015,None,3901.2541022720015,None,3901.2541022720015,None,3901.2541022720015,None,,,,,,,,,,,,,,,,,,,,,,,,,,,,,,,,,,,,,,,,,,,,001,109,2020_Feb_11_1352,spring_faces,3.1.5,60.05230519692703,
condition files/Stage1_1.xlsx,,B1,T2,c,"['c', 'm']","['Clue', 'Monopoly']","[-0.15, 0.5]","[0.15, 0.5]",1,1,,,,,,,,,0,6,6,6,0,2,2,1,,,,,,,,,,,,,,,,,,,,,,,,,,,,,,,,,,,,,,,,,,,,,,,,,,,,,,,3903.2202661579995,None,3903.2202661579995,None,3903.2202661579995,None,c,1,0.9741546990007919,3904.7543272950006,None,3904.7543272950006,None,3904.7543272950006,None,3905.7876578689993,None,3905.7876578689993,None,3905.7876578689993,None,3905.7876578689993,None,,,,,,,,,,,,,,,,,,,,,,,,,,,,,,,,,,,,,,,,,,,,001,109,2020_Feb_11_1352,spring_faces,3.1.5,60.05230519692703,
condition files/Stage1_1.xlsx,,T1,B1,c,"['c', 'm']","['Clue', 'Monopoly']","[-0.15, 0.5]","[0.15, 0.5]",1,1,,,,,,,,,0,6,6,6,0,3,3,0,,,,,,,,,,,,,,,,,,,,,,,,,,,,,,,,,,,,,,,,,,,,,,,,,,,,,,,3907.753542167002,None,3907.753542167002,None,3907.753542167002,None,c,1,1.225211932000093,3909.287276486002,None,3909.287276486002,None,3909.287276486002,None,3910.5704506540005,None,3910.5704506540005,None,3910.5704506540005,None,3910.5704506540005,None,,,,,,,,,,,,,,,,,,,,,,,,,,,,,,,,,,,,,,,,,,,,001,109,2020_Feb_11_1352,spring_faces,3.1.5,60.05230519692703,
condition files/Stage1_1.xlsx,,B3,T3,c,"['c', 'm']","['Clue', 'Monopoly']","[-0.15, 0.5]","[0.15, 0.5]",1,1,,,,,,,,,0,6,6,6,0,4,4,4,,,,,,,,,,,,,,,,,,,,,,,,,,,,,,,,,,,,,,,,,,,,,,,,,,,,,,,3912.5368573800024,None,3912.5368573800024,None,3912.5368573800024,None,m,0,0.6015117110000574,3914.070914624999,None,3914.070914624999,None,3914.070914624999,None,3914.7371290300016,None,3914.7371290300016,None,3914.7371290300016,None,3914.7371290300016,None,,,,,,,,,,,,,,,,,,,,,,,,,,,,,,,,,,,,,,,,,,,,001,109,2020_Feb_11_1352,spring_faces,3.1.5,60.05230519692703,
condition files/Stage1_1.xlsx,,B4,T4,m,"['c', 'm']","['Clue', 'Monopoly']","[-0.15, 0.5]","[0.15, 0.5]",1,1,,,,,,,,,0,6,6,6,0,5,5,7,,,,,,,,,,,,,,,,,,,,,,,,,,,,,,,,,,,,,,,,,,,,,,,,,,,,,,,3916.703677380001,None,3916.703677380001,None,3916.703677380001,None,m,1,1.1876177129997814,3918.2367907720018,None,3918.2367907720018,None,3918.2367907720018,None,3919.4867151260023,None,3919.4867151260023,None,3919.4867151260023,None,3919.4867151260023,None,,,,,,,,,,,,,,,,,,,,,,,,,,,,,,,,,,,,,,,,,,,,001,109,2020_Feb_11_1352,spring_faces,3.1.5,60.05230519692703,
condition files/Stage1_1.xlsx,,T3,B4,c,"['c', 'm']","['Clue', 'Monopoly']","[-0.15, 0.5]","[0.15, 0.5]",1,1,,,,,,,,,0,6,6,6,0,6,6,5,,,,,,,,,,,,,,,,,,,,,,,,,,,,,,,,,,,,,,,,,,,,,,,,,,,,,,,3921.453530777,None,3921.453530777,None,3921.453530777,None,c,1,0.9494065049984783,3922.987006702,None,3922.987006702,None,3922.987006702,None,3923.987610172002,None,3923.987610172002,None,3923.987610172002,None,3923.987610172002,None,,,,,,,,,,,,,,,,,,,,,,,,,,,,,,,,,,,,,,,,,,,,001,109,2020_Feb_11_1352,spring_faces,3.1.5,60.05230519692703,
condition files/Stage1_1.xlsx,,B2,T1,m,"['c', 'm']","['Clue', 'Monopoly']","[-0.15, 0.5]","[0.15, 0.5]",1,1,,,,,,,,,0,6,6,6,0,7,7,2,,,,,,,,,,,,,,,,,,,,,,,,,,,,,,,,,,,,,,,,,,,,,,,,,,,,,,,3925.953545713999,None,3925.953545713999,None,3925.953545713999,None,m,1,0.975058154999715,3927.48940398,None,3927.48940398,None,3927.48940398,None,3928.5207246240006,None,3928.5207246240006,None,3928.5207246240006,None,3928.5207246240006,None,,,,,,,,,,,,,,,,,,,,,,,,,,,,,,,,,,,,,,,,,,,,001,109,2020_Feb_11_1352,spring_faces,3.1.5,60.05230519692703,
condition files/Stage1_2.xlsx,,B4,T3,c,"['c', 'm']","['Clue', 'Monopoly']","[-0.15, 0.5]","[0.15, 0.5]",1,1,,,,,,,,,0,7,7,7,0,0,0,5,,,,,,,,,,,,,,,,,,,,,,,,,,,,,,,,,,,,,,,,,,,,,,,,,,,,,,,3930.5037423880003,None,3930.5037423880003,None,3930.5037423880003,None,c,1,1.1313283870003943,3932.053088816001,None,3932.053088816001,None,3932.053088816001,None,3933.238669599001,None,3933.238669599001,None,3933.238669599001,None,3933.238669599001,None,,,,,,,,,,,,,,,,,,,,,,,,,,,,,,,,,,,,,,,,,,,,001,109,2020_Feb_11_1352,spring_faces,3.1.5,60.05230519692703,
condition files/Stage1_2.xlsx,,T2,B1,c,"['c', 'm']","['Clue', 'Monopoly']","[-0.15, 0.5]","[0.15, 0.5]",1,1,,,,,,,,,0,7,7,7,0,1,1,1,,,,,,,,,,,,,,,,,,,,,,,,,,,,,,,,,,,,,,,,,,,,,,,,,,,,,,,3935.20352157,None,3935.20352157,None,3935.20352157,None,c,1,1.3106001580017619,3936.753872471001,None,3936.753872471001,None,3936.753872471001,None,3938.120592745001,None,3938.120592745001,None,3938.120592745001,None,3938.120592745001,None,,,,,,,,,,,,,,,,,,,,,,,,,,,,,,,,,,,,,,,,,,,,001,109,2020_Feb_11_1352,spring_faces,3.1.5,60.05230519692703,
condition files/Stage1_2.xlsx,,B1,T1,c,"['c', 'm']","['Clue', 'Monopoly']","[-0.15, 0.5]","[0.15, 0.5]",1,1,,,,,,,,,0,7,7,7,0,2,2,0,,,,,,,,,,,,,,,,,,,,,,,,,,,,,,,,,,,,,,,,,,,,,,,,,,,,,,,3940.086916803002,None,3940.086916803002,None,3940.086916803002,None,c,1,0.7629315679987485,3941.6214817320015,None,3941.6214817320015,None,3941.6214817320015,None,3942.4369070400007,None,3942.4369070400007,None,3942.4369070400007,None,3942.4369070400007,None,,,,,,,,,,,,,,,,,,,,,,,,,,,,,,,,,,,,,,,,,,,,001,109,2020_Feb_11_1352,spring_faces,3.1.5,60.05230519692703,
condition files/Stage1_2.xlsx,,B3,T4,m,"['c', 'm']","['Clue', 'Monopoly']","[-0.15, 0.5]","[0.15, 0.5]",1,1,,,,,,,,,0,7,7,7,0,3,3,6,,,,,,,,,,,,,,,,,,,,,,,,,,,,,,,,,,,,,,,,,,,,,,,,,,,,,,,3944.4035742979995,None,3944.4035742979995,None,3944.4035742979995,None,c,0,0.6696078910026699,3945.938811131002,None,3945.938811131002,None,3945.938811131002,None,3946.686934596999,None,3946.686934596999,None,3946.686934596999,None,3946.686934596999,None,,,,,,,,,,,,,,,,,,,,,,,,,,,,,,,,,,,,,,,,,,,,001,109,2020_Feb_11_1352,spring_faces,3.1.5,60.05230519692703,
condition files/Stage1_2.xlsx,,T1,B2,m,"['c', 'm']","['Clue', 'Monopoly']","[-0.15, 0.5]","[0.15, 0.5]",1,1,,,,,,,,,0,7,7,7,0,4,4,2,,,,,,,,,,,,,,,,,,,,,,,,,,,,,,,,,,,,,,,,,,,,,,,,,,,,,,,3948.6364624969992,None,3948.6364624969992,None,3948.6364624969992,None,m,1,0.5809555320010986,3950.17146005,None,3950.17146005,None,3950.17146005,None,3950.8037405279993,None,3950.8037405279993,None,3950.8037405279993,None,3950.8037405279993,None,,,,,,,,,,,,,,,,,,,,,,,,,,,,,,,,,,,,,,,,,,,,001,109,2020_Feb_11_1352,spring_faces,3.1.5,60.05230519692703,
condition files/Stage1_2.xlsx,,B2,T2,m,"['c', 'm']","['Clue', 'Monopoly']","[-0.15, 0.5]","[0.15, 0.5]",1,1,,,,,,,,,0,7,7,7,0,5,5,3,,,,,,,,,,,,,,,,,,,,,,,,,,,,,,,,,,,,,,,,,,,,,,,,,,,,,,,3952.7698990830013,None,3952.7698990830013,None,3952.7698990830013,None,m,1,0.9769791729995632,3954.3035053059994,None,3954.3035053059994,None,3954.3035053059994,None,3955.337421066999,None,3955.337421066999,None,3955.337421066999,None,3955.337421066999,None,,,,,,,,,,,,,,,,,,,,,,,,,,,,,,,,,,,,,,,,,,,,001,109,2020_Feb_11_1352,spring_faces,3.1.5,60.05230519692703,
condition files/Stage1_2.xlsx,,T4,B4,m,"['c', 'm']","['Clue', 'Monopoly']","[-0.15, 0.5]","[0.15, 0.5]",1,1,,,,,,,,,0,7,7,7,0,6,6,7,,,,,,,,,,,,,,,,,,,,,,,,,,,,,,,,,,,,,,,,,,,,,,,,,,,,,,,3957.303490717002,None,3957.303490717002,None,3957.303490717002,None,m,1,1.6415280049986904,3958.838946471,None,3958.838946471,None,3958.838946471,None,3960.537140426002,None,3960.537140426002,None,3960.537140426002,None,3960.537140426002,None,,,,,,,,,,,,,,,,,,,,,,,,,,,,,,,,,,,,,,,,,,,,001,109,2020_Feb_11_1352,spring_faces,3.1.5,60.05230519692703,
condition files/Stage1_2.xlsx,,T3,B3,c,"['c', 'm']","['Clue', 'Monopoly']","[-0.15, 0.5]","[0.15, 0.5]",1,1,,,,,,,,,0,7,7,7,0,7,7,4,,,,,,,,,,,,,,,,,,,,,,,,,,,,,,,,,,,,,,,,,,,,,,,,,,,,,,,3962.5036035460016,None,3962.5036035460016,None,3962.5036035460016,None,c,1,1.129373941999802,3964.0390390580014,None,3964.0390390580014,None,3964.0390390580014,None,3965.2370814840015,None,3965.2370814840015,None,3965.2370814840015,None,3965.2370814840015,None,,,,,,,,,,,,,,,,,,,,,,,,,,,,,,,,,,,,,,,,,,,,001,109,2020_Feb_11_1352,spring_faces,3.1.5,60.05230519692703,
condition files/Stage1_1.xlsx,,T3,B4,c,"['c', 'm']","['Clue', 'Monopoly']","[-0.15, 0.5]","[0.15, 0.5]",1,1,,,,,,,,,0,8,8,8,0,0,0,5,,,,,,,,,,,,,,,,,,,,,,,,,,,,,,,,,,,,,,,,,,,,,,,,,,,,,,,3967.2034654750005,None,3967.2034654750005,None,3967.2034654750005,None,c,1,1.568310383001517,3968.736065168001,None,3968.736065168001,None,3968.736065168001,None,3970.36975611,None,3970.36975611,None,3970.36975611,None,3970.36975611,None,,,,,,,,,,,,,,,,,,,,,,,,,,,,,,,,,,,,,,,,,,,,001,109,2020_Feb_11_1352,spring_faces,3.1.5,60.05230519692703,
condition files/Stage1_1.xlsx,,B3,T3,c,"['c', 'm']","['Clue', 'Monopoly']","[-0.15, 0.5]","[0.15, 0.5]",1,1,,,,,,,,,0,8,8,8,0,1,1,4,,,,,,,,,,,,,,,,,,,,,,,,,,,,,,,,,,,,,,,,,,,,,,,,,,,,,,,3972.336714842999,None,3972.336714842999,None,3972.336714842999,None,c,1,1.0584300289992825,3973.8700491610016,None,3973.8700491610016,None,3973.8700491610016,None,3974.987270391999,None,3974.987270391999,None,3974.987270391999,None,3974.987270391999,None,,,,,,,,,,,,,,,,,,,,,,,,,,,,,,,,,,,,,,,,,,,,001,109,2020_Feb_11_1352,spring_faces,3.1.5,60.05230519692703,
condition files/Stage1_1.xlsx,,B4,T4,m,"['c', 'm']","['Clue', 'Monopoly']","[-0.15, 0.5]","[0.15, 0.5]",1,1,,,,,,,,,0,8,8,8,0,2,2,7,,,,,,,,,,,,,,,,,,,,,,,,,,,,,,,,,,,,,,,,,,,,,,,,,,,,,,,3976.9536757299993,None,3976.9536757299993,None,3976.9536757299993,None,m,1,0.8727519269996264,3978.487743773001,None,3978.487743773001,None,3978.487743773001,None,3979.4216694260012,None,3979.4216694260012,None,3979.4216694260012,None,3979.4216694260012,None,,,,,,,,,,,,,,,,,,,,,,,,,,,,,,,,,,,,,,,,,,,,001,109,2020_Feb_11_1352,spring_faces,3.1.5,60.05230519692703,
condition files/Stage1_1.xlsx,,T4,B3,m,"['c', 'm']","['Clue', 'Monopoly']","[-0.15, 0.5]","[0.15, 0.5]",1,1,,,,,,,,,0,8,8,8,0,3,3,6,,,,,,,,,,,,,,,,,,,,,,,,,,,,,,,,,,,,,,,,,,,,,,,,,,,,,,,3981.3869473450013,None,3981.3869473450013,None,3981.3869473450013,None,m,1,2.424099325999123,3982.936372547001,None,3982.936372547001,None,3982.936372547001,None,3985.419969081,None,3985.419969081,None,3985.419969081,None,3985.419969081,None,,,,,,,,,,,,,,,,,,,,,,,,,,,,,,,,,,,,,,,,,,,,001,109,2020_Feb_11_1352,spring_faces,3.1.5,60.05230519692703,
condition files/Stage1_1.xlsx,,T1,B1,c,"['c', 'm']","['Clue', 'Monopoly']","[-0.15, 0.5]","[0.15, 0.5]",1,1,,,,,,,,,0,8,8,8,0,4,4,0,,,,,,,,,,,,,,,,,,,,,,,,,,,,,,,,,,,,,,,,,,,,,,,,,,,,,,,3987.386869791999,None,3987.386869791999,None,3987.386869791999,None,c,1,1.2859543440026755,3988.922466852002,None,3988.922466852002,None,3988.922466852002,None,3990.2703124519994,None,3990.2703124519994,None,3990.2703124519994,None,3990.2703124519994,None,,,,,,,,,,,,,,,,,,,,,,,,,,,,,,,,,,,,,,,,,,,,001,109,2020_Feb_11_1352,spring_faces,3.1.5,60.05230519692703,
condition files/Stage1_1.xlsx,,B1,T2,c,"['c', 'm']","['Clue', 'Monopoly']","[-0.15, 0.5]","[0.15, 0.5]",1,1,,,,,,,,,0,8,8,8,0,5,5,1,,,,,,,,,,,,,,,,,,,,,,,,,,,,,,,,,,,,,,,,,,,,,,,,,,,,,,,3992.236881212999,None,3992.236881212999,None,3992.236881212999,None,c,1,0.8221772449978744,3993.7702412689996,None,3993.7702412689996,None,3993.7702412689996,None,3994.653896654001,None,3994.653896654001,None,3994.653896654001,None,3994.653896654001,None,,,,,,,,,,,,,,,,,,,,,,,,,,,,,,,,,,,,,,,,,,,,001,109,2020_Feb_11_1352,spring_faces,3.1.5,60.05230519692703,
condition files/Stage1_1.xlsx,,B2,T1,m,"['c', 'm']","['Clue', 'Monopoly']","[-0.15, 0.5]","[0.15, 0.5]",1,1,,,,,,,,,0,8,8,8,0,6,6,2,,,,,,,,,,,,,,,,,,,,,,,,,,,,,,,,,,,,,,,,,,,,,,,,,,,,,,,3996.6202116370023,None,3996.6202116370023,None,3996.6202116370023,None,m,1,0.8059070339986647,3998.170466703001,None,3998.170466703001,None,3998.170466703001,None,3999.039770843001,None,3999.039770843001,None,3999.039770843001,None,3999.039770843001,None,,,,,,,,,,,,,,,,,,,,,,,,,,,,,,,,,,,,,,,,,,,,001,109,2020_Feb_11_1352,spring_faces,3.1.5,60.05230519692703,
condition files/Stage1_1.xlsx,,T2,B2,m,"['c', 'm']","['Clue', 'Monopoly']","[-0.15, 0.5]","[0.15, 0.5]",1,1,,,,,,,,,0,8,8,8,0,7,7,3,,,,,,,,,,,,,,,,,,,,,,,,,,,,,,,,,,,,,,,,,,,,,,,,,,,,,,,4001.003462319002,None,4001.003462319002,None,4001.003462319002,None,m,1,0.8875764889999118,4002.536848539001,None,4002.536848539001,None,4002.536848539001,None,4003.486756253,None,4003.486756253,None,4003.486756253,None,4003.486756253,None,,,,,,,,,,,,,,,,,,,,,,,,,,,,,,,,,,,,,,,,,,,,001,109,2020_Feb_11_1352,spring_faces,3.1.5,60.05230519692703,
condition files/Stage1_2.xlsx,,T4,B4,m,"['c', 'm']","['Clue', 'Monopoly']","[-0.15, 0.5]","[0.15, 0.5]",1,1,,,,,,,,,0,9,9,9,0,0,0,7,,,,,,,,,,,,,,,,,,,,,,,,,,,,,,,,,,,,,,,,,,,,,,,,,,,,,,,4005.4700167579995,None,4005.4700167579995,None,4005.4700167579995,None,m,1,1.1884860890022537,4007.019927670999,None,4007.019927670999,None,4007.019927670999,None,4008.270196063002,None,4008.270196063002,None,4008.270196063002,None,4008.270196063002,None,,,,,,,,,,,,,,,,,,,,,,,,,,,,,,,,,,,,,,,,,,,,001,109,2020_Feb_11_1352,spring_faces,3.1.5,60.05230519692703,
condition files/Stage1_2.xlsx,,B4,T3,c,"['c', 'm']","['Clue', 'Monopoly']","[-0.15, 0.5]","[0.15, 0.5]",1,1,,,,,,,,,0,9,9,9,0,1,1,5,,,,,,,,,,,,,,,,,,,,,,,,,,,,,,,,,,,,,,,,,,,,,,,,,,,,,,,4010.2368526850023,None,4010.2368526850023,None,4010.2368526850023,None,c,1,1.0938094779994572,4011.7706626490017,None,4011.7706626490017,None,4011.7706626490017,None,4012.9192820000007,None,4012.9192820000007,None,4012.9192820000007,None,4012.9192820000007,None,,,,,,,,,,,,,,,,,,,,,,,,,,,,,,,,,,,,,,,,,,,,001,109,2020_Feb_11_1352,spring_faces,3.1.5,60.05230519692703,
condition files/Stage1_2.xlsx,,T2,B1,c,"['c', 'm']","['Clue', 'Monopoly']","[-0.15, 0.5]","[0.15, 0.5]",1,1,,,,,,,,,0,9,9,9,0,2,2,1,,,,,,,,,,,,,,,,,,,,,,,,,,,,,,,,,,,,,,,,,,,,,,,,,,,,,,,4014.886605017002,None,4014.886605017002,None,4014.886605017002,None,c,1,0.922417467001651,4016.4220565230007,None,4016.4220565230007,None,4016.4220565230007,None,4017.402806668002,None,4017.402806668002,None,4017.402806668002,None,4017.402806668002,None,,,,,,,,,,,,,,,,,,,,,,,,,,,,,,,,,,,,,,,,,,,,001,109,2020_Feb_11_1352,spring_faces,3.1.5,60.05230519692703,
condition files/Stage1_2.xlsx,,B1,T1,c,"['c', 'm']","['Clue', 'Monopoly']","[-0.15, 0.5]","[0.15, 0.5]",1,1,,,,,,,,,0,9,9,9,0,3,3,0,,,,,,,,,,,,,,,,,,,,,,,,,,,,,,,,,,,,,,,,,,,,,,,,,,,,,,,4019.370284811999,None,4019.370284811999,None,4019.370284811999,None,c,1,1.6560950960010814,4020.9203750979996,None,4020.9203750979996,None,4020.9203750979996,None,4022.6371383410024,None,4022.6371383410024,None,4022.6371383410024,None,4022.6371383410024,None,,,,,,,,,,,,,,,,,,,,,,,,,,,,,,,,,,,,,,,,,,,,001,109,2020_Feb_11_1352,spring_faces,3.1.5,60.05230519692703,
condition files/Stage1_2.xlsx,,T3,B3,c,"['c', 'm']","['Clue', 'Monopoly']","[-0.15, 0.5]","[0.15, 0.5]",1,1,,,,,,,,,0,9,9,9,0,4,4,4,,,,,,,,,,,,,,,,,,,,,,,,,,,,,,,,,,,,,,,,,,,,,,,,,,,,,,,4024.603447464002,None,4024.603447464002,None,4024.603447464002,None,c,1,1.0935946040008275,4026.138802902,None,4026.138802902,None,4026.138802902,None,4027.287296634002,None,4027.287296634002,None,4027.287296634002,None,4027.287296634002,None,,,,,,,,,,,,,,,,,,,,,,,,,,,,,,,,,,,,,,,,,,,,001,109,2020_Feb_11_1352,spring_faces,3.1.5,60.05230519692703,
condition files/Stage1_2.xlsx,,B2,T2,m,"['c', 'm']","['Clue', 'Monopoly']","[-0.15, 0.5]","[0.15, 0.5]",1,1,,,,,,,,,0,9,9,9,0,5,5,3,,,,,,,,,,,,,,,,,,,,,,,,,,,,,,,,,,,,,,,,,,,,,,,,,,,,,,,4029.2537101530015,None,4029.2537101530015,None,4029.2537101530015,None,m,1,1.0191113090004364,4030.7893158450006,None,4030.7893158450006,None,4030.7893158450006,None,4031.870977241002,None,4031.870977241002,None,4031.870977241002,None,4031.870977241002,None,,,,,,,,,,,,,,,,,,,,,,,,,,,,,,,,,,,,,,,,,,,,001,109,2020_Feb_11_1352,spring_faces,3.1.5,60.05230519692703,
condition files/Stage1_2.xlsx,,T1,B2,m,"['c', 'm']","['Clue', 'Monopoly']","[-0.15, 0.5]","[0.15, 0.5]",1,1,,,,,,,,,0,9,9,9,0,6,6,2,,,,,,,,,,,,,,,,,,,,,,,,,,,,,,,,,,,,,,,,,,,,,,,,,,,,,,,4033.836901347002,None,4033.836901347002,None,4033.836901347002,None,m,1,0.7583415579974826,4035.370039755,None,4035.370039755,None,4035.370039755,None,4036.1870702200013,None,4036.1870702200013,None,4036.1870702200013,None,4036.1870702200013,None,,,,,,,,,,,,,,,,,,,,,,,,,,,,,,,,,,,,,,,,,,,,001,109,2020_Feb_11_1352,spring_faces,3.1.5,60.05230519692703,
condition files/Stage1_2.xlsx,,B3,T4,m,"['c', 'm']","['Clue', 'Monopoly']","[-0.15, 0.5]","[0.15, 0.5]",1,1,,,,,,,,,0,9,9,9,0,7,7,6,,,,,,,,,,,,,,,,,,,,,,,,,,,,,,,,,,,,,,,,,,,,,,,,,,,,,,,4038.1535272150013,None,4038.1535272150013,None,4038.1535272150013,None,m,1,1.4806793300012941,4039.703707931001,None,4039.703707931001,None,4039.703707931001,None,4041.236760275,None,4041.236760275,None,4041.236760275,None,4041.236760275,None,,,,,,,,,,,,,,,,,,,,,,,,,,,,,,,,,,,,,,,,,,,,001,109,2020_Feb_11_1352,spring_faces,3.1.5,60.05230519692703,
condition files/Stage1_1.xlsx,,B3,T3,c,"['c', 'm']","['Clue', 'Monopoly']","[-0.15, 0.5]","[0.15, 0.5]",1,1,,,,,,,,,0,10,10,10,0,0,0,4,,,,,,,,,,,,,,,,,,,,,,,,,,,,,,,,,,,,,,,,,,,,,,,,,,,,,,,4043.220577413,None,4043.220577413,None,4043.220577413,None,c,1,1.3090396679981495,4044.7554084800013,None,4044.7554084800013,None,4044.7554084800013,None,4046.1224831359996,None,4046.1224831359996,None,4046.1224831359996,None,4046.1224831359996,None,,,,,,,,,,,,,,,,,,,,,,,,,,,,,,,,,,,,,,,,,,,,001,109,2020_Feb_11_1352,spring_faces,3.1.5,60.05230519692703,
condition files/Stage1_1.xlsx,,B2,T1,m,"['c', 'm']","['Clue', 'Monopoly']","[-0.15, 0.5]","[0.15, 0.5]",1,1,,,,,,,,,0,10,10,10,0,1,1,2,,,,,,,,,,,,,,,,,,,,,,,,,,,,,,,,,,,,,,,,,,,,,,,,,,,,,,,4048.086681093,None,4048.086681093,None,4048.086681093,None,m,1,0.7964807850003126,4049.619920735002,None,4049.619920735002,None,4049.619920735002,None,4050.470183423002,None,4050.470183423002,None,4050.470183423002,None,4050.470183423002,None,,,,,,,,,,,,,,,,,,,,,,,,,,,,,,,,,,,,,,,,,,,,001,109,2020_Feb_11_1352,spring_faces,3.1.5,60.05230519692703,
condition files/Stage1_1.xlsx,,B1,T2,c,"['c', 'm']","['Clue', 'Monopoly']","[-0.15, 0.5]","[0.15, 0.5]",1,1,,,,,,,,,0,10,10,10,0,2,2,1,,,,,,,,,,,,,,,,,,,,,,,,,,,,,,,,,,,,,,,,,,,,,,,,,,,,,,,4052.436885442001,None,4052.436885442001,None,4052.436885442001,None,c,1,2.942152952997276,4053.970339999001,None,4053.970339999001,None,4053.970339999001,None,4056.971838771,None,4056.971838771,None,4056.971838771,None,4056.971838771,None,,,,,,,,,,,,,,,,,,,,,,,,,,,,,,,,,,,,,,,,,,,,001,109,2020_Feb_11_1352,spring_faces,3.1.5,60.05230519692703,
condition files/Stage1_1.xlsx,,T3,B4,c,"['c', 'm']","['Clue', 'Monopoly']","[-0.15, 0.5]","[0.15, 0.5]",1,1,,,,,,,,,0,10,10,10,0,3,3,5,,,,,,,,,,,,,,,,,,,,,,,,,,,,,,,,,,,,,,,,,,,,,,,,,,,,,,,4058.9369793749993,None,4058.9369793749993,None,4058.9369793749993,None,c,1,1.0500811960009742,4060.4703088000006,None,4060.4703088000006,None,4060.4703088000006,None,4061.570416230001,None,4061.570416230001,None,4061.570416230001,None,4061.570416230001,None,,,,,,,,,,,,,,,,,,,,,,,,,,,,,,,,,,,,,,,,,,,,001,109,2020_Feb_11_1352,spring_faces,3.1.5,60.05230519692703,
condition files/Stage1_1.xlsx,,T4,B3,m,"['c', 'm']","['Clue', 'Monopoly']","[-0.15, 0.5]","[0.15, 0.5]",1,1,,,,,,,,,0,10,10,10,0,4,4,6,,,,,,,,,,,,,,,,,,,,,,,,,,,,,,,,,,,,,,,,,,,,,,,,,,,,,,,4063.536833136999,None,4063.536833136999,None,4063.536833136999,None,m,1,1.5696487620007247,4065.070770853001,None,4065.070770853001,None,4065.070770853001,None,4066.7047989520015,None,4066.7047989520015,None,4066.7047989520015,None,4066.7047989520015,None,,,,,,,,,,,,,,,,,,,,,,,,,,,,,,,,,,,,,,,,,,,,001,109,2020_Feb_11_1352,spring_faces,3.1.5,60.05230519692703,
condition files/Stage1_1.xlsx,,T1,B1,c,"['c', 'm']","['Clue', 'Monopoly']","[-0.15, 0.5]","[0.15, 0.5]",1,1,,,,,,,,,0,10,10,10,0,5,5,0,,,,,,,,,,,,,,,,,,,,,,,,,,,,,,,,,,,,,,,,,,,,,,,,,,,,,,,4068.670343871001,None,4068.670343871001,None,4068.670343871001,None,c,1,1.8118460359983146,4070.220527880001,None,4070.220527880001,None,4070.220527880001,None,4072.103731699999,None,4072.103731699999,None,4072.103731699999,None,4072.103731699999,None,,,,,,,,,,,,,,,,,,,,,,,,,,,,,,,,,,,,,,,,,,,,001,109,2020_Feb_11_1352,spring_faces,3.1.5,60.05230519692703,
condition files/Stage1_1.xlsx,,T2,B2,m,"['c', 'm']","['Clue', 'Monopoly']","[-0.15, 0.5]","[0.15, 0.5]",1,1,,,,,,,,,0,10,10,10,0,6,6,3,,,,,,,,,,,,,,,,,,,,,,,,,,,,,,,,,,,,,,,,,,,,,,,,,,,,,,,4074.053618725002,None,4074.053618725002,None,4074.053618725002,None,m,1,0.701278081000055,4075.6030934600003,None,4075.6030934600003,None,4075.6030934600003,None,4076.3711069090004,None,4076.3711069090004,None,4076.3711069090004,None,4076.3711069090004,None,,,,,,,,,,,,,,,,,,,,,,,,,,,,,,,,,,,,,,,,,,,,001,109,2020_Feb_11_1352,spring_faces,3.1.5,60.05230519692703,
condition files/Stage1_1.xlsx,,B4,T4,m,"['c', 'm']","['Clue', 'Monopoly']","[-0.15, 0.5]","[0.15, 0.5]",1,1,,,,,,,,,0,10,10,10,0,7,7,7,,,,,,,,,,,,,,,,,,,,,,,,,,,,,,,,,,,,,,,,,,,,,,,,,,,,,,,4078.3368995889996,None,4078.3368995889996,None,4078.3368995889996,None,c,0,0.673228971001663,4079.887264135001,None,4079.887264135001,None,4079.887264135001,None,4080.6197980020024,None,4080.6197980020024,None,4080.6197980020024,None,4080.6197980020024,None,,,,,,,,,,,,,,,,,,,,,,,,,,,,,,,,,,,,,,,,,,,,001,109,2020_Feb_11_1352,spring_faces,3.1.5,60.05230519692703,
condition files/Stage1_2.xlsx,,T3,B3,c,"['c', 'm']","['Clue', 'Monopoly']","[-0.15, 0.5]","[0.15, 0.5]",1,1,,,,,,,,,0,11,11,11,0,0,0,4,,,,,,,,,,,,,,,,,,,,,,,,,,,,,,,,,,,,,,,,,,,,,,,,,,,,,,,4082.6037132330002,None,4082.6037132330002,None,4082.6037132330002,None,c,1,0.903310961999523,4084.153104764,None,4084.153104764,None,4084.153104764,None,4085.122387100999,None,4085.122387100999,None,4085.122387100999,None,4085.122387100999,None,,,,,,,,,,,,,,,,,,,,,,,,,,,,,,,,,,,,,,,,,,,,001,109,2020_Feb_11_1352,spring_faces,3.1.5,60.05230519692703,
condition files/Stage1_2.xlsx,,B1,T1,c,"['c', 'm']","['Clue', 'Monopoly']","[-0.15, 0.5]","[0.15, 0.5]",1,1,,,,,,,,,0,11,11,11,0,1,1,0,,,,,,,,,,,,,,,,,,,,,,,,,,,,,,,,,,,,,,,,,,,,,,,,,,,,,,,4087.0868978980016,None,4087.0868978980016,None,4087.0868978980016,None,c,1,1.3777816479996545,4088.622742002999,None,4088.622742002999,None,4088.622742002999,None,4090.054024842999,None,4090.054024842999,None,4090.054024842999,None,4090.054024842999,None,,,,,,,,,,,,,,,,,,,,,,,,,,,,,,,,,,,,,,,,,,,,001,109,2020_Feb_11_1352,spring_faces,3.1.5,60.05230519692703,
condition files/Stage1_2.xlsx,,B2,T2,m,"['c', 'm']","['Clue', 'Monopoly']","[-0.15, 0.5]","[0.15, 0.5]",1,1,,,,,,,,,0,11,11,11,0,2,2,3,,,,,,,,,,,,,,,,,,,,,,,,,,,,,,,,,,,,,,,,,,,,,,,,,,,,,,,4092.0202625580005,None,4092.0202625580005,None,4092.0202625580005,None,m,1,1.0230665189992578,4093.5534044329997,None,4093.5534044329997,None,4093.5534044329997,None,4094.6527519819992,None,4094.6527519819992,None,4094.6527519819992,None,4094.6527519819992,None,,,,,,,,,,,,,,,,,,,,,,,,,,,,,,,,,,,,,,,,,,,,001,109,2020_Feb_11_1352,spring_faces,3.1.5,60.05230519692703,
condition files/Stage1_2.xlsx,,B4,T3,c,"['c', 'm']","['Clue', 'Monopoly']","[-0.15, 0.5]","[0.15, 0.5]",1,1,,,,,,,,,0,11,11,11,0,3,3,5,,,,,,,,,,,,,,,,,,,,,,,,,,,,,,,,,,,,,,,,,,,,,,,,,,,,,,,4096.603490307001,None,4096.603490307001,None,4096.603490307001,None,c,1,1.1759448060001887,4098.136520193,None,4098.136520193,None,4098.136520193,None,4099.372524437002,None,4099.372524437002,None,4099.372524437002,None,4099.372524437002,None,,,,,,,,,,,,,,,,,,,,,,,,,,,,,,,,,,,,,,,,,,,,001,109,2020_Feb_11_1352,spring_faces,3.1.5,60.05230519692703,
condition files/Stage1_2.xlsx,,T4,B4,m,"['c', 'm']","['Clue', 'Monopoly']","[-0.15, 0.5]","[0.15, 0.5]",1,1,,,,,,,,,0,11,11,11,0,4,4,7,,,,,,,,,,,,,,,,,,,,,,,,,,,,,,,,,,,,,,,,,,,,,,,,,,,,,,,4101.336974142001,None,4101.336974142001,None,4101.336974142001,None,m,1,0.969952141000249,4102.870470353,None,4102.870470353,None,4102.870470353,None,4103.904492200001,None,4103.904492200001,None,4103.904492200001,None,4103.904492200001,None,,,,,,,,,,,,,,,,,,,,,,,,,,,,,,,,,,,,,,,,,,,,001,109,2020_Feb_11_1352,spring_faces,3.1.5,60.05230519692703,
condition files/Stage1_2.xlsx,,T1,B2,m,"['c', 'm']","['Clue', 'Monopoly']","[-0.15, 0.5]","[0.15, 0.5]",1,1,,,,,,,,,0,11,11,11,0,5,5,2,,,,,,,,,,,,,,,,,,,,,,,,,,,,,,,,,,,,,,,,,,,,,,,,,,,,,,,4105.869967746001,None,4105.869967746001,None,4105.869967746001,None,m,1,0.99697036300131,4107.403449678999,None,4107.403449678999,None,4107.403449678999,None,4108.454028703001,None,4108.454028703001,None,4108.454028703001,None,4108.454028703001,None,,,,,,,,,,,,,,,,,,,,,,,,,,,,,,,,,,,,,,,,,,,,001,109,2020_Feb_11_1352,spring_faces,3.1.5,60.05230519692703,
condition files/Stage1_2.xlsx,,T2,B1,c,"['c', 'm']","['Clue', 'Monopoly']","[-0.15, 0.5]","[0.15, 0.5]",1,1,,,,,,,,,0,11,11,11,0,6,6,1,,,,,,,,,,,,,,,,,,,,,,,,,,,,,,,,,,,,,,,,,,,,,,,,,,,,,,,4110.420238941,None,4110.420238941,None,4110.420238941,None,c,1,1.0545052349989419,4111.953926341999,None,4111.953926341999,None,4111.953926341999,None,4113.086423587001,None,4113.086423587001,None,4113.086423587001,None,4113.086423587001,None,,,,,,,,,,,,,,,,,,,,,,,,,,,,,,,,,,,,,,,,,,,,001,109,2020_Feb_11_1352,spring_faces,3.1.5,60.05230519692703,
condition files/Stage1_2.xlsx,,B3,T4,m,"['c', 'm']","['Clue', 'Monopoly']","[-0.15, 0.5]","[0.15, 0.5]",1,1,,,,,,,,,0,11,11,11,0,7,7,6,,,,,,,,,,,,,,,,,,,,,,,,,,,,,,,,,,,,,,,,,,,,,,,,,,,,,,,4115.036516459002,None,4115.036516459002,None,4115.036516459002,None,m,1,1.0772627379992628,4116.571132032999,None,4116.571132032999,None,4116.571132032999,None,4117.70401137,None,4117.70401137,None,4117.70401137,None,4117.70401137,None,,,,,,,,,,,,,,,,,,,,,,,,,,,,,,,,,,,,,,,,,,,,001,109,2020_Feb_11_1352,spring_faces,3.1.5,60.05230519692703,
,,,,,,,,,,,,,,,,,,,,,,,,,,,,,,,,,,,,,,,,,,,,,,,,,,,,,,,,,,,,,,,,,,,,,,,,,,,,,,,,,,,,,,,,,,,,,,,,,,,,,,,,,,,,,,,,4119.686397700001,None,space,3.4415676230019017,4124.686930352002,None,,,,,,,,,,,,,,,,,,,,,,,,,,,,,,001,109,2020_Feb_11_1352,spring_faces,3.1.5,60.05230519692703,
condition files/Stage2_1.xlsx,,B2,T2,r,"['s', 'r']","['Stratego', 'Risk']","[-0.15, 0.5]","[0.15, 0.5]",1,1,,,,,,,,,,,,,,,,,0,0,0,0,0,0,0,3,,,,,,,,,,,,,,,,,,,,,,,,,,,,,,,,,,,,,,,,,,,,,,,4128.186906909001,None,4128.186906909001,None,4128.186906909001,None,r,1,1.3212618159996055,4129.687171989999,None,4129.687171989999,None,4129.687171989999,None,4131.071173908002,None,4131.071173908002,None,4131.071173908002,None,4131.071173908002,None,,,,,,,,,,,,,,,4124.686930352002,None,,,,,,,,,,,,,,,,,,,,,,,,,,,,001,109,2020_Feb_11_1352,spring_faces,3.1.5,60.05230519692703,
condition files/Stage2_1.xlsx,,T1,B1,s,"['s', 'r']","['Stratego', 'Risk']","[-0.15, 0.5]","[0.15, 0.5]",1,1,,,,,,,,,,,,,,,,,0,0,0,0,0,1,1,2,,,,,,,,,,,,,,,,,,,,,,,,,,,,,,,,,,,,,,,,,,,,,,,4133.036857344001,None,4133.036857344001,None,4133.036857344001,None,s,1,1.5268509239976993,4134.569661744999,None,4134.569661744999,None,4134.569661744999,None,4136.1706469969995,None,4136.1706469969995,None,4136.1706469969995,None,4136.1706469969995,None,,,,,,,,,,,,,,,,,,,,,,,,,,,,,,,,,,,,,,,,,,,,001,109,2020_Feb_11_1352,spring_faces,3.1.5,60.05230519692703,
condition files/Stage2_1.xlsx,,T3,B3,s,"['s', 'r']","['Stratego', 'Risk']","[-0.15, 0.5]","[0.15, 0.5]",1,1,,,,,,,,,,,,,,,,,0,0,0,0,0,2,2,4,,,,,,,,,,,,,,,,,,,,,,,,,,,,,,,,,,,,,,,,,,,,,,,4138.119785249002,None,4138.119785249002,None,4138.119785249002,None,s,1,1.5460000759994728,4139.654515479002,None,4139.654515479002,None,4139.654515479002,None,4141.253234326001,None,4141.253234326001,None,4141.253234326001,None,4141.253234326001,None,,,,,,,,,,,,,,,,,,,,,,,,,,,,,,,,,,,,,,,,,,,,001,109,2020_Feb_11_1352,spring_faces,3.1.5,60.05230519692703,
condition files/Stage2_1.xlsx,,B4,T4,r,"['s', 'r']","['Stratego', 'Risk']","[-0.15, 0.5]","[0.15, 0.5]",1,1,,,,,,,,,,,,,,,,,0,0,0,0,0,3,3,5,,,,,,,,,,,,,,,,,,,,,,,,,,,,,,,,,,,,,,,,,,,,,,,4143.219837516002,None,4143.219837516002,None,4143.219837516002,None,r,1,0.7663012349985365,4144.754070626999,None,4144.754070626999,None,4144.754070626999,None,4145.570973094002,None,4145.570973094002,None,4145.570973094002,None,4145.570973094002,None,,,,,,,,,,,,,,,,,,,,,,,,,,,,,,,,,,,,,,,,,,,,001,109,2020_Feb_11_1352,spring_faces,3.1.5,60.05230519692703,
condition files/Stage2_1.xlsx,,T5,B5,s,"['s', 'r']","['Stratego', 'Risk']","[-0.15, 0.5]","[0.15, 0.5]",1,1,,,,,,,,,,,,,,,,,0,0,0,0,0,4,4,0,,,,,,,,,,,,,,,,,,,,,,,,,,,,,,,,,,,,,,,,,,,,,,,4147.536891684,None,4147.536891684,None,4147.536891684,None,s,1,1.3273397390003083,4149.137108579,None,4149.137108579,None,4149.137108579,None,4150.537499281001,None,4150.537499281001,None,4150.537499281001,None,4150.537499281001,None,,,,,,,,,,,,,,,,,,,,,,,,,,,,,,,,,,,,,,,,,,,,001,109,2020_Feb_11_1352,spring_faces,3.1.5,60.05230519692703,
condition files/Stage2_1.xlsx,,B6,T6,r,"['s', 'r']","['Stratego', 'Risk']","[-0.15, 0.5]","[0.15, 0.5]",1,1,,,,,,,,,,,,,,,,,0,0,0,0,0,5,5,1,,,,,,,,,,,,,,,,,,,,,,,,,,,,,,,,,,,,,,,,,,,,,,,4152.486847431001,None,4152.486847431001,None,4152.486847431001,None,r,1,1.0513792450001347,4154.0210421659995,None,4154.0210421659995,None,4154.0210421659995,None,4155.136603746001,None,4155.136603746001,None,4155.136603746001,None,4155.136603746001,None,,,,,,,,,,,,,,,,,,,,,,,,,,,,,,,,,,,,,,,,,,,,001,109,2020_Feb_11_1352,spring_faces,3.1.5,60.05230519692703,
condition files/Stage2_2.xlsx,,T2,B2,r,"['s', 'r']","['Stratego', 'Risk']","[-0.15, 0.5]","[0.15, 0.5]",1,1,,,,,,,,,,,,,,,,,0,1,1,1,0,0,0,3,,,,,,,,,,,,,,,,,,,,,,,,,,,,,,,,,,,,,,,,,,,,,,,4157.120249914,None,4157.120249914,None,4157.120249914,None,r,1,0.7066502350025985,4158.653840681001,None,4158.653840681001,None,4158.653840681001,None,4159.420710845001,None,4159.420710845001,None,4159.420710845001,None,4159.420710845001,None,,,,,,,,,,,,,,,,,,,,,,,,,,,,,,,,,,,,,,,,,,,,001,109,2020_Feb_11_1352,spring_faces,3.1.5,60.05230519692703,
condition files/Stage2_2.xlsx,,T6,B6,r,"['s', 'r']","['Stratego', 'Risk']","[-0.15, 0.5]","[0.15, 0.5]",1,1,,,,,,,,,,,,,,,,,0,1,1,1,0,1,1,1,,,,,,,,,,,,,,,,,,,,,,,,,,,,,,,,,,,,,,,,,,,,,,,4161.3867182720005,None,4161.3867182720005,None,4161.3867182720005,None,s,0,1.1754464309997275,4162.937022926,None,4162.937022926,None,4162.937022926,None,4164.170352547002,None,4164.170352547002,None,4164.170352547002,None,4164.170352547002,None,,,,,,,,,,,,,,,,,,,,,,,,,,,,,,,,,,,,,,,,,,,,001,109,2020_Feb_11_1352,spring_faces,3.1.5,60.05230519692703,
condition files/Stage2_2.xlsx,,T4,B4,r,"['s', 'r']","['Stratego', 'Risk']","[-0.15, 0.5]","[0.15, 0.5]",1,1,,,,,,,,,,,,,,,,,0,1,1,1,0,2,2,5,,,,,,,,,,,,,,,,,,,,,,,,,,,,,,,,,,,,,,,,,,,,,,,4166.13687303,None,4166.13687303,None,4166.13687303,None,r,1,0.8717046530000516,4167.6727787830005,None,4167.6727787830005,None,4167.6727787830005,None,4168.603935416,None,4168.603935416,None,4168.603935416,None,4168.603935416,None,,,,,,,,,,,,,,,,,,,,,,,,,,,,,,,,,,,,,,,,,,,,001,109,2020_Feb_11_1352,spring_faces,3.1.5,60.05230519692703,
condition files/Stage2_2.xlsx,,B1,T1,s,"['s', 'r']","['Stratego', 'Risk']","[-0.15, 0.5]","[0.15, 0.5]",1,1,,,,,,,,,,,,,,,,,0,1,1,1,0,3,3,2,,,,,,,,,,,,,,,,,,,,,,,,,,,,,,,,,,,,,,,,,,,,,,,4170.570213420002,None,4170.570213420002,None,4170.570213420002,None,s,1,0.7107030739971378,4172.105726948999,None,4172.105726948999,None,4172.105726948999,None,4172.886576357001,None,4172.886576357001,None,4172.886576357001,None,4172.886576357001,None,,,,,,,,,,,,,,,,,,,,,,,,,,,,,,,,,,,,,,,,,,,,001,109,2020_Feb_11_1352,spring_faces,3.1.5,60.05230519692703,
condition files/Stage2_2.xlsx,,B3,T3,s,"['s', 'r']","['Stratego', 'Risk']","[-0.15, 0.5]","[0.15, 0.5]",1,1,,,,,,,,,,,,,,,,,0,1,1,1,0,4,4,4,,,,,,,,,,,,,,,,,,,,,,,,,,,,,,,,,,,,,,,,,,,,,,,4174.836854772,None,4174.836854772,None,4174.836854772,None,s,1,0.7646571100012807,4176.371751233002,None,4176.371751233002,None,4176.371751233002,None,4177.187107008,None,4177.187107008,None,4177.187107008,None,4177.187107008,None,,,,,,,,,,,,,,,,,,,,,,,,,,,,,,,,,,,,,,,,,,,,001,109,2020_Feb_11_1352,spring_faces,3.1.5,60.05230519692703,
condition files/Stage2_2.xlsx,,B5,T5,s,"['s', 'r']","['Stratego', 'Risk']","[-0.15, 0.5]","[0.15, 0.5]",1,1,,,,,,,,,,,,,,,,,0,1,1,1,0,5,5,0,,,,,,,,,,,,,,,,,,,,,,,,,,,,,,,,,,,,,,,,,,,,,,,4179.153305006001,None,4179.153305006001,None,4179.153305006001,None,r,0,0.8013925300001574,4180.686949430999,None,4180.686949430999,None,4180.686949430999,None,4181.553814572,None,4181.553814572,None,4181.553814572,None,4181.553814572,None,,,,,,,,,,,,,,,,,,,,,,,,,,,,,,,,,,,,,,,,,,,,001,109,2020_Feb_11_1352,spring_faces,3.1.5,60.05230519692703,
condition files/Stage2_1.xlsx,,T1,B1,s,"['s', 'r']","['Stratego', 'Risk']","[-0.15, 0.5]","[0.15, 0.5]",1,1,,,,,,,,,,,,,,,,,0,2,2,2,0,0,0,2,,,,,,,,,,,,,,,,,,,,,,,,,,,,,,,,,,,,,,,,,,,,,,,4183.5371556400005,None,4183.5371556400005,None,4183.5371556400005,None,s,1,1.026083339998877,4185.086400569,None,4185.086400569,None,4185.086400569,None,4186.1701878799995,None,4186.1701878799995,None,4186.1701878799995,None,4186.1701878799995,None,,,,,,,,,,,,,,,,,,,,,,,,,,,,,,,,,,,,,,,,,,,,001,109,2020_Feb_11_1352,spring_faces,3.1.5,60.05230519692703,
condition files/Stage2_1.xlsx,,B4,T4,r,"['s', 'r']","['Stratego', 'Risk']","[-0.15, 0.5]","[0.15, 0.5]",1,1,,,,,,,,,,,,,,,,,0,2,2,2,0,1,1,5,,,,,,,,,,,,,,,,,,,,,,,,,,,,,,,,,,,,,,,,,,,,,,,4188.136978241002,None,4188.136978241002,None,4188.136978241002,None,s,0,1.2883118760000798,4189.672181153999,None,4189.672181153999,None,4189.672181153999,None,4191.022362425001,None,4191.022362425001,None,4191.022362425001,None,4191.022362425001,None,,,,,,,,,,,,,,,,,,,,,,,,,,,,,,,,,,,,,,,,,,,,001,109,2020_Feb_11_1352,spring_faces,3.1.5,60.05230519692703,
condition files/Stage2_1.xlsx,,T3,B3,s,"['s', 'r']","['Stratego', 'Risk']","[-0.15, 0.5]","[0.15, 0.5]",1,1,,,,,,,,,,,,,,,,,0,2,2,2,0,2,2,4,,,,,,,,,,,,,,,,,,,,,,,,,,,,,,,,,,,,,,,,,,,,,,,4192.986929757999,None,4192.986929757999,None,4192.986929757999,None,r,0,0.47213369800010696,4194.520314227999,None,4194.520314227999,None,4194.520314227999,None,4195.054153692001,None,4195.054153692001,None,4195.054153692001,None,4195.054153692001,None,,,,,,,,,,,,,,,,,,,,,,,,,,,,,,,,,,,,,,,,,,,,001,109,2020_Feb_11_1352,spring_faces,3.1.5,60.05230519692703,
condition files/Stage2_1.xlsx,,B6,T6,r,"['s', 'r']","['Stratego', 'Risk']","[-0.15, 0.5]","[0.15, 0.5]",1,1,,,,,,,,,,,,,,,,,0,2,2,2,0,3,3,1,,,,,,,,,,,,,,,,,,,,,,,,,,,,,,,,,,,,,,,,,,,,,,,4197.020230750999,None,4197.020230750999,None,4197.020230750999,None,r,1,0.23042963600164512,4198.55398291,None,4198.55398291,None,4198.55398291,None,4198.839385005,None,4198.839385005,None,4198.839385005,None,4198.839385005,None,,,,,,,,,,,,,,,,,,,,,,,,,,,,,,,,,,,,,,,,,,,,001,109,2020_Feb_11_1352,spring_faces,3.1.5,60.05230519692703,
condition files/Stage2_1.xlsx,,B2,T2,r,"['s', 'r']","['Stratego', 'Risk']","[-0.15, 0.5]","[0.15, 0.5]",1,1,,,,,,,,,,,,,,,,,0,2,2,2,0,4,4,3,,,,,,,,,,,,,,,,,,,,,,,,,,,,,,,,,,,,,,,,,,,,,,,4200.803564088999,None,4200.803564088999,None,4200.803564088999,None,r,1,0.33554462699976284,4202.336883354999,None,4202.336883354999,None,4202.336883354999,None,4202.736895380001,None,4202.736895380001,None,4202.736895380001,None,4202.736895380001,None,,,,,,,,,,,,,,,,,,,,,,,,,,,,,,,,,,,,,,,,,,,,001,109,2020_Feb_11_1352,spring_faces,3.1.5,60.05230519692703,
condition files/Stage2_1.xlsx,,T5,B5,s,"['s', 'r']","['Stratego', 'Risk']","[-0.15, 0.5]","[0.15, 0.5]",1,1,,,,,,,,,,,,,,,,,0,2,2,2,0,5,5,0,,,,,,,,,,,,,,,,,,,,,,,,,,,,,,,,,,,,,,,,,,,,,,,4204.703540862001,None,4204.703540862001,None,4204.703540862001,None,s,1,0.30784851600037655,4206.236637611002,None,4206.236637611002,None,4206.236637611002,None,4206.6057509990005,None,4206.6057509990005,None,4206.6057509990005,None,4206.6057509990005,None,,,,,,,,,,,,,,,,,,,,,,,,,,,,,,,,,,,,,,,,,,,,001,109,2020_Feb_11_1352,spring_faces,3.1.5,60.05230519692703,
condition files/Stage2_2.xlsx,,B3,T3,s,"['s', 'r']","['Stratego', 'Risk']","[-0.15, 0.5]","[0.15, 0.5]",1,1,,,,,,,,,,,,,,,,,0,3,3,3,0,0,0,4,,,,,,,,,,,,,,,,,,,,,,,,,,,,,,,,,,,,,,,,,,,,,,,4208.587143439001,None,4208.587143439001,None,4208.587143439001,None,s,1,0.7272941350020119,4210.121096777,None,4210.121096777,None,4210.121096777,None,4210.90339619,None,4210.90339619,None,4210.90339619,None,4210.90339619,None,,,,,,,,,,,,,,,,,,,,,,,,,,,,,,,,,,,,,,,,,,,,001,109,2020_Feb_11_1352,spring_faces,3.1.5,60.05230519692703,
condition files/Stage2_2.xlsx,,T6,B6,r,"['s', 'r']","['Stratego', 'Risk']","[-0.15, 0.5]","[0.15, 0.5]",1,1,,,,,,,,,,,,,,,,,0,3,3,3,0,1,1,1,,,,,,,,,,,,,,,,,,,,,,,,,,,,,,,,,,,,,,,,,,,,,,,4212.870258541001,None,4212.870258541001,None,4212.870258541001,None,r,1,0.4120118770006229,4214.420370297999,None,4214.420370297999,None,4214.420370297999,None,4214.888511911,None,4214.888511911,None,4214.888511911,None,4214.888511911,None,,,,,,,,,,,,,,,,,,,,,,,,,,,,,,,,,,,,,,,,,,,,001,109,2020_Feb_11_1352,spring_faces,3.1.5,60.05230519692703,
condition files/Stage2_2.xlsx,,T4,B4,r,"['s', 'r']","['Stratego', 'Risk']","[-0.15, 0.5]","[0.15, 0.5]",1,1,,,,,,,,,,,,,,,,,0,3,3,3,0,2,2,5,,,,,,,,,,,,,,,,,,,,,,,,,,,,,,,,,,,,,,,,,,,,,,,4216.853485908001,None,4216.853485908001,None,4216.853485908001,None,r,1,0.7334813910019875,4218.3868603089995,None,4218.3868603089995,None,4218.3868603089995,None,4219.186988419,None,4219.186988419,None,4219.186988419,None,4219.186988419,None,,,,,,,,,,,,,,,,,,,,,,,,,,,,,,,,,,,,,,,,,,,,001,109,2020_Feb_11_1352,spring_faces,3.1.5,60.05230519692703,
condition files/Stage2_2.xlsx,,B5,T5,s,"['s', 'r']","['Stratego', 'Risk']","[-0.15, 0.5]","[0.15, 0.5]",1,1,,,,,,,,,,,,,,,,,0,3,3,3,0,3,3,0,,,,,,,,,,,,,,,,,,,,,,,,,,,,,,,,,,,,,,,,,,,,,,,4221.153141025001,None,4221.153141025001,None,4221.153141025001,None,r,0,0.001718931998766493,4222.686694198999,None,4222.686694198999,None,4222.686694198999,None,4222.770385446,None,4222.770385446,None,4222.770385446,None,4222.770385446,None,,,,,,,,,,,,,,,,,,,,,,,,,,,,,,,,,,,,,,,,,,,,001,109,2020_Feb_11_1352,spring_faces,3.1.5,60.05230519692703,
condition files/Stage2_2.xlsx,,B1,T1,s,"['s', 'r']","['Stratego', 'Risk']","[-0.15, 0.5]","[0.15, 0.5]",1,1,,,,,,,,,,,,,,,,,0,3,3,3,0,4,4,2,,,,,,,,,,,,,,,,,,,,,,,,,,,,,,,,,,,,,,,,,,,,,,,4224.720211460999,None,4224.720211460999,None,4224.720211460999,None,s,1,1.3463409860014508,4226.254093223999,None,4226.254093223999,None,4226.254093223999,None,4227.653795016,None,4227.653795016,None,4227.653795016,None,4227.653795016,None,,,,,,,,,,,,,,,,,,,,,,,,,,,,,,,,,,,,,,,,,,,,001,109,2020_Feb_11_1352,spring_faces,3.1.5,60.05230519692703,
condition files/Stage2_2.xlsx,,T2,B2,r,"['s', 'r']","['Stratego', 'Risk']","[-0.15, 0.5]","[0.15, 0.5]",1,1,,,,,,,,,,,,,,,,,0,3,3,3,0,5,5,3,,,,,,,,,,,,,,,,,,,,,,,,,,,,,,,,,,,,,,,,,,,,,,,4229.620181605,None,4229.620181605,None,4229.620181605,None,r,1,0.9255322509998223,4231.154941734001,None,4231.154941734001,None,4231.154941734001,None,4232.137984744002,None,4232.137984744002,None,4232.137984744002,None,4232.137984744002,None,,,,,,,,,,,,,,,,,,,,,,,,,,,,,,,,,,,,,,,,,,,,001,109,2020_Feb_11_1352,spring_faces,3.1.5,60.05230519692703,
condition files/Stage2_1.xlsx,,T1,B1,s,"['s', 'r']","['Stratego', 'Risk']","[-0.15, 0.5]","[0.15, 0.5]",1,1,,,,,,,,,,,,,,,,,0,4,4,4,0,0,0,2,,,,,,,,,,,,,,,,,,,,,,,,,,,,,,,,,,,,,,,,,,,,,,,4234.1205791030025,None,4234.1205791030025,None,4234.1205791030025,None,s,1,0.761852847001137,4235.670540609999,None,4235.670540609999,None,4235.670540609999,None,4236.489859086001,None,4236.489859086001,None,4236.489859086001,None,4236.489859086001,None,,,,,,,,,,,,,,,,,,,,,,,,,,,,,,,,,,,,,,,,,,,,001,109,2020_Feb_11_1352,spring_faces,3.1.5,60.05230519692703,
condition files/Stage2_1.xlsx,,T3,B3,s,"['s', 'r']","['Stratego', 'Risk']","[-0.15, 0.5]","[0.15, 0.5]",1,1,,,,,,,,,,,,,,,,,0,4,4,4,0,1,1,4,,,,,,,,,,,,,,,,,,,,,,,,,,,,,,,,,,,,,,,,,,,,,,,4238.453458228001,None,4238.453458228001,None,4238.453458228001,None,s,1,1.228775070001575,4239.9876513,None,4239.9876513,None,4239.9876513,None,4241.270784918002,None,4241.270784918002,None,4241.270784918002,None,4241.270784918002,None,,,,,,,,,,,,,,,,,,,,,,,,,,,,,,,,,,,,,,,,,,,,001,109,2020_Feb_11_1352,spring_faces,3.1.5,60.05230519692703,
condition files/Stage2_1.xlsx,,B6,T6,r,"['s', 'r']","['Stratego', 'Risk']","[-0.15, 0.5]","[0.15, 0.5]",1,1,,,,,,,,,,,,,,,,,0,4,4,4,0,2,2,1,,,,,,,,,,,,,,,,,,,,,,,,,,,,,,,,,,,,,,,,,,,,,,,4243.236864462002,None,4243.236864462002,None,4243.236864462002,None,r,1,0.8299533790013811,4244.7704985010005,None,4244.7704985010005,None,4244.7704985010005,None,4245.670598529001,None,4245.670598529001,None,4245.670598529001,None,4245.670598529001,None,,,,,,,,,,,,,,,,,,,,,,,,,,,,,,,,,,,,,,,,,,,,001,109,2020_Feb_11_1352,spring_faces,3.1.5,60.05230519692703,
condition files/Stage2_1.xlsx,,T5,B5,s,"['s', 'r']","['Stratego', 'Risk']","[-0.15, 0.5]","[0.15, 0.5]",1,1,,,,,,,,,,,,,,,,,0,4,4,4,0,3,3,0,,,,,,,,,,,,,,,,,,,,,,,,,,,,,,,,,,,,,,,,,,,,,,,4247.619915805002,None,4247.619915805002,None,4247.619915805002,None,s,1,1.0067420140003378,4249.153748657,None,4249.153748657,None,4249.153748657,None,4250.222716954,None,4250.222716954,None,4250.222716954,None,4250.222716954,None,,,,,,,,,,,,,,,,,,,,,,,,,,,,,,,,,,,,,,,,,,,,001,109,2020_Feb_11_1352,spring_faces,3.1.5,60.05230519692703,
