condsFile,subStage,cue1,cue2,correct,responseKeys,responseNames,cue1Position,cue2Position,cue1Opacity,cue2Opacity,stageLoop0.thisRepN,stageLoop0.thisTrialN,stageLoop0.thisN,stageLoop0.thisIndex,blockLoop0.thisRepN,blockLoop0.thisTrialN,blockLoop0.thisN,blockLoop0.thisIndex,stage1Loop.thisRepN,stage1Loop.thisTrialN,stage1Loop.thisN,stage1Loop.thisIndex,blockLoop1.thisRepN,blockLoop1.thisTrialN,blockLoop1.thisN,blockLoop1.thisIndex,stage2Loop.thisRepN,stage2Loop.thisTrialN,stage2Loop.thisN,stage2Loop.thisIndex,blockLoop2.thisRepN,blockLoop2.thisTrialN,blockLoop2.thisN,blockLoop2.thisIndex,testLoop.thisRepN,testLoop.thisTrialN,testLoop.thisN,testLoop.thisIndex,blockLoopTest.thisRepN,blockLoopTest.thisTrialN,blockLoopTest.thisN,blockLoopTest.thisIndex,cuePics,id_instr_text.started,id_instr_text.stopped,space_to_continue_2.started,space_to_continue_2.stopped,end_instructions_resp_3.keys,end_instructions_resp_3.rt,end_instructions_resp_3.started,end_instructions_resp_3.stopped,id_input_instr.started,id_input_instr.stopped,id_input_rect.started,id_input_rect.stopped,id_input_resp.keys,id_input_resp.rt,id_input_resp.started,id_input_resp.stopped,sonaID,id_input_text.started,id_input_text.stopped,final_text.started,final_text.stopped,instructions.started,instructions.stopped,end_instructions_resp.keys,end_instructions_resp.rt,end_instructions_resp.started,end_instructions_resp.stopped,space_to_continue.started,space_to_continue.stopped,instructions_stage0.started,instructions_stage0.stopped,end_instructions_resp_stage0.keys,end_instructions_resp_stage0.rt,end_instructions_resp_stage0.started,end_instructions_resp_stage0.stopped,space_to_continue_stage0.started,space_to_continue_stage0.stopped,text.started,text.stopped,resp_text1.started,resp_text1.stopped,resp_text2.started,resp_text2.stopped,trial_resp.keys,trial_resp.corr,trial_resp.rt,trial_resp.started,trial_resp.stopped,cue1Image.started,cue1Image.stopped,cue2Image.started,cue2Image.stopped,cue1Image_fb.started,cue1Image_fb.stopped,cue2Image_fb.started,cue2Image_fb.stopped,fb_text_answer.started,fb_text_answer.stopped,feedback_image.started,feedback_image.stopped,instructions_stage1.started,instructions_stage1.stopped,end_instructions_resp_stage1.keys,end_instructions_resp_stage1.rt,end_instructions_resp_stage1.started,end_instructions_resp_stage1.stopped,space_to_continue_stage1.started,space_to_continue_stage1.stopped,instructions_2.started,instructions_2.stopped,end_instructions_resp_2.keys,end_instructions_resp_2.rt,end_instructions_resp_2.started,end_instructions_resp_2.stopped,press_space_to_continue_stage2.started,press_space_to_continue_stage2.stopped,instructions_testStage1.started,instructions_testStage1.stopped,end_instructions_resp_test1.keys,end_instructions_resp_test1.rt,end_instructions_resp_test1.started,end_instructions_resp_test1.stopped,press_space_to_continue_test1.started,press_space_to_continue_test1.stopped,cue1Image_testChoice.started,cue1Image_testChoice.stopped,cue2Image_testChoice.started,cue2Image_testChoice.stopped,test_resp.keys,test_resp.corr,test_resp.rt,test_resp.started,test_resp.stopped,cue1Image_testConf.started,cue1Image_testConf.stopped,cue2Image_testConf.started,cue2Image_testConf.stopped,conf_reminder.started,conf_reminder.stopped,conf_rating.response,conf_rating.rt,conf_rating.started,conf_rating.stopped,session,participant,date,expName,psychopyVersion,frameRate,
,,,,,,,,,,,,,,,,,,,,,,,,,,,,,,,,,,,,,,,,,,,"{'none': 'pictures/20M_AN_C.png', 'alpha': 'pictures/SHINEd_melon.png', 'beta': 'pictures/SHINEd_apple.png', 'theta': 'pictures/SHINEd_pepper.png', 'phi': 'pictures/SHINEd_pear.png', 'T1': 'pictures/31M_AN_C.png', 'T2': 'pictures/37M_AN_C.png', 'T3': 'pictures/36M_AN_C.png', 'T4': 'pictures/32M_AN_C.png', 'T5': 'pictures/22M_AN_C.png', 'T6': 'pictures/20M_AN_C.png', 'B1': 'pictures/33M_NE_C.png', 'B2': 'pictures/23M_NE_C.png', 'B3': 'pictures/26M_NE_C.png', 'B4': 'pictures/25M_NE_C.png', 'B5': 'pictures/34M_NE_C.png', 'B6': 'pictures/38M_NE_C.png'}",25.783847022000373,None,30.76724703200034,None,space,3529.370119229,30.76724703200034,None,,,,,,,,,,,,,,,,,,,,,,,,,,,,,,,,,,,,,,,,,,,,,,,,,,,,,,,,,,,,,,,,,,,,,,,,,,,,,,,,,,,,,,,,,,,,,,,,001,10,2020_Jan_28_1106,spring_faces,3.1.5,60.20764798964231,
,,,,,,,,,,,,,,,,,,,,,,,,,,,,,,,,,,,,,,,,,,,,,,,,,,,,3560.700978463,None,3560.700978463,None,"['0', '5', 'backspace', '6', '2', '1', 'backspace', '0', 'j', 'u', 'backspace', 'backspace', 'j', 'u', 'backspace', 'backspace', 'j', 'backspace', 'j', 'u', 'n', 'o', 't']","[10.684381379000115, 10.87650545500037, 12.060459270000138, 12.204465132999758, 24.17246327199973, 24.508489805000863, 25.660453884000162, 25.91641066699958, 29.308491485999184, 29.62844456499988, 30.252432098999634, 30.444415866999407, 31.084386894999625, 31.516470438000397, 31.916489527999147, 32.076490235000165, 32.76444937800079, 33.58042745499915, 34.92447691400048, 36.42839702600031, 40.81242247299997, 40.940460294999866, 41.91647298499993]",3560.700978463,None,,,,,,,,,,,,,,,,,,,,,,,,,,,,,,,,,,,,,,,,,,,,,,,,,,,,,,,,,,,,,,,,,,,,,,,,,,,,,,,,,,,,,,,,001,10,2020_Jan_28_1106,spring_faces,3.1.5,60.20764798964231,
,,,,,,,,,,,,,,,,,,,,,,,,,,,,,,,,,,,,,,,,,,,,,,,,,,,,,,,,,,,,0620junot,3560.700978463,None,3560.700978463,None,3607.6843541709995,None,space,7.357371461999719,3612.684115199,None,,,,,,,,,,,,,,,,,,,,,,,,,,,,,,,,,,,,,,,,,,,,,,,,,,,,,,,,,,,,,,,,,,,,,,,,,,,,,001,10,2020_Jan_28_1106,spring_faces,3.1.5,60.20764798964231,
,,,,,,,,,,,,,,,,,,,,,,,,,,,,,,,,,,,,,,,,,,,,,,,,,,,,,,,,,,,,,,,,,,,,,,,3612.684115199,None,3620.083670430001,None,space,13.469980210000358,3625.0674820470003,None,,,,,,,,,,,,,,,,,,,,,,,,,,,,,,,,,,,,,,,,,,,,,,,,,,,,,,,,,,,,,,,,,,,,,001,10,2020_Jan_28_1106,spring_faces,3.1.5,60.20764798964231,
condition files/Stage0a.xlsx,0a,alpha,none,h,"['h', 'g']","['Chess', 'Go']","[0, 0.5]","[0, 0]",1,0,0,0,0,0,0,0,0,0,,,,,,,,,,,,,,,,,,,,,,,,,,,,,,,,,,,,,,,,,,,,,,,,,,,,,,,,,,,,,3625.0674820470003,None,3638.667297592,None,3638.667297592,None,3638.667297592,None,h,1,2.2754697559994383,3640.4860140890005,None,3640.4860140890005,None,3640.4860140890005,None,3642.8674660370007,None,3642.8674660370007,None,3642.8674660370007,None,3642.8674660370007,None,,,,,,,,,,,,,,,,,,,,,,,,,,,,,,,,,,,,,,,,,,,,001,10,2020_Jan_28_1106,spring_faces,3.1.5,60.20764798964231,
condition files/Stage0a.xlsx,0a,beta,none,g,"['h', 'g']","['Chess', 'Go']","[0, 0.5]","[0, 0]",1,0,0,0,0,0,0,1,1,1,,,,,,,,,,,,,,,,,,,,,,,,,,,,,,,,,,,,,,,,,,,,,,,,,,,,,,,,,,,,,,,3644.783810498001,None,3644.783810498001,None,3644.783810498001,None,g,1,2.8099060479999025,3646.3675473989997,None,3646.3675473989997,None,3646.3675473989997,None,3649.2348385039995,None,3649.2348385039995,None,3649.2348385039995,None,3649.2348385039995,None,,,,,,,,,,,,,,,,,,,,,,,,,,,,,,,,,,,,,,,,,,,,001,10,2020_Jan_28_1106,spring_faces,3.1.5,60.20764798964231,
condition files/Stage0a.xlsx,0a,alpha,none,h,"['h', 'g']","['Chess', 'Go']","[0, 0.5]","[0, 0]",1,0,0,1,1,1,0,0,0,0,,,,,,,,,,,,,,,,,,,,,,,,,,,,,,,,,,,,,,,,,,,,,,,,,,,,,,,,,,,,,,,3651.2175504220004,None,3651.2175504220004,None,3651.2175504220004,None,h,1,0.7944536180002615,3652.750939847,None,3652.750939847,None,3652.750939847,None,3653.60057519,None,3653.60057519,None,3653.60057519,None,3653.60057519,None,,,,,,,,,,,,,,,,,,,,,,,,,,,,,,,,,,,,,,,,,,,,001,10,2020_Jan_28_1106,spring_faces,3.1.5,60.20764798964231,
condition files/Stage0a.xlsx,0a,beta,none,g,"['h', 'g']","['Chess', 'Go']","[0, 0.5]","[0, 0]",1,0,0,1,1,1,0,1,1,1,,,,,,,,,,,,,,,,,,,,,,,,,,,,,,,,,,,,,,,,,,,,,,,,,,,,,,,,,,,,,,,3655.5672551470007,None,3655.5672551470007,None,3655.5672551470007,None,g,1,0.5890188270004728,3657.1004150060007,None,3657.1004150060007,None,3657.1004150060007,None,3657.75063469,None,3657.75063469,None,3657.75063469,None,3657.75063469,None,,,,,,,,,,,,,,,,,,,,,,,,,,,,,,,,,,,,,,,,,,,,001,10,2020_Jan_28_1106,spring_faces,3.1.5,60.20764798964231,
condition files/Stage0a.xlsx,0a,beta,none,g,"['h', 'g']","['Chess', 'Go']","[0, 0.5]","[0, 0]",1,0,0,2,2,2,0,0,0,1,,,,,,,,,,,,,,,,,,,,,,,,,,,,,,,,,,,,,,,,,,,,,,,,,,,,,,,,,,,,,,,3659.734270733,None,3659.734270733,None,3659.734270733,None,g,1,1.0305879670013383,3661.2670032140004,None,3661.2670032140004,None,3661.2670032140004,None,3662.351179849001,None,3662.351179849001,None,3662.351179849001,None,3662.351179849001,None,,,,,,,,,,,,,,,,,,,,,,,,,,,,,,,,,,,,,,,,,,,,001,10,2020_Jan_28_1106,spring_faces,3.1.5,60.20764798964231,
condition files/Stage0a.xlsx,0a,alpha,none,h,"['h', 'g']","['Chess', 'Go']","[0, 0.5]","[0, 0]",1,0,0,2,2,2,0,1,1,0,,,,,,,,,,,,,,,,,,,,,,,,,,,,,,,,,,,,,,,,,,,,,,,,,,,,,,,,,,,,,,,3664.316630067001,None,3664.316630067001,None,3664.316630067001,None,h,1,0.5268823910009814,3665.8505894830005,None,3665.8505894830005,None,3665.8505894830005,None,3666.434526786,None,3666.434526786,None,3666.434526786,None,3666.434526786,None,,,,,,,,,,,,,,,,,,,,,,,,,,,,,,,,,,,,,,,,,,,,001,10,2020_Jan_28_1106,spring_faces,3.1.5,60.20764798964231,
condition files/Stage0a.xlsx,0a,beta,none,g,"['h', 'g']","['Chess', 'Go']","[0, 0.5]","[0, 0]",1,0,0,3,3,3,0,0,0,1,,,,,,,,,,,,,,,,,,,,,,,,,,,,,,,,,,,,,,,,,,,,,,,,,,,,,,,,,,,,,,,3668.4172993849998,None,3668.4172993849998,None,3668.4172993849998,None,g,1,0.8267158280013973,3669.950757652,None,3669.950757652,None,3669.950757652,None,3670.8338443439998,None,3670.8338443439998,None,3670.8338443439998,None,3670.8338443439998,None,,,,,,,,,,,,,,,,,,,,,,,,,,,,,,,,,,,,,,,,,,,,001,10,2020_Jan_28_1106,spring_faces,3.1.5,60.20764798964231,
condition files/Stage0a.xlsx,0a,alpha,none,h,"['h', 'g']","['Chess', 'Go']","[0, 0.5]","[0, 0]",1,0,0,3,3,3,0,1,1,0,,,,,,,,,,,,,,,,,,,,,,,,,,,,,,,,,,,,,,,,,,,,,,,,,,,,,,,,,,,,,,,3672.800639182001,None,3672.800639182001,None,3672.800639182001,None,h,1,0.6671512939992681,3674.3342017839996,None,3674.3342017839996,None,3674.3342017839996,None,3675.0671388050005,None,3675.0671388050005,None,3675.0671388050005,None,3675.0671388050005,None,,,,,,,,,,,,,,,,,,,,,,,,,,,,,,,,,,,,,,,,,,,,001,10,2020_Jan_28_1106,spring_faces,3.1.5,60.20764798964231,
condition files/Stage0a.xlsx,0a,alpha,none,h,"['h', 'g']","['Chess', 'Go']","[0, 0.5]","[0, 0]",1,0,0,4,4,4,0,0,0,0,,,,,,,,,,,,,,,,,,,,,,,,,,,,,,,,,,,,,,,,,,,,,,,,,,,,,,,,,,,,,,,3677.050289987,None,3677.050289987,None,3677.050289987,None,h,1,0.7378910570005246,3678.5835675450007,None,3678.5835675450007,None,3678.5835675450007,None,3679.3840327120006,None,3679.3840327120006,None,3679.3840327120006,None,3679.3840327120006,None,,,,,,,,,,,,,,,,,,,,,,,,,,,,,,,,,,,,,,,,,,,,001,10,2020_Jan_28_1106,spring_faces,3.1.5,60.20764798964231,
condition files/Stage0a.xlsx,0a,beta,none,g,"['h', 'g']","['Chess', 'Go']","[0, 0.5]","[0, 0]",1,0,0,4,4,4,0,1,1,1,,,,,,,,,,,,,,,,,,,,,,,,,,,,,,,,,,,,,,,,,,,,,,,,,,,,,,,,,,,,,,,3681.3506821,None,3681.3506821,None,3681.3506821,None,g,1,0.5655017820008652,3682.883939284001,None,3682.883939284001,None,3682.883939284001,None,3683.5004314099997,None,3683.5004314099997,None,3683.5004314099997,None,3683.5004314099997,None,,,,,,,,,,,,,,,,,,,,,,,,,,,,,,,,,,,,,,,,,,,,001,10,2020_Jan_28_1106,spring_faces,3.1.5,60.20764798964231,
condition files/Stage0a.xlsx,0a,beta,none,g,"['h', 'g']","['Chess', 'Go']","[0, 0.5]","[0, 0]",1,0,0,5,5,5,0,0,0,1,,,,,,,,,,,,,,,,,,,,,,,,,,,,,,,,,,,,,,,,,,,,,,,,,,,,,,,,,,,,,,,3685.4844667570005,None,3685.4844667570005,None,3685.4844667570005,None,h,0,1.184151606999876,3687.017229866001,None,3687.017229866001,None,3687.017229866001,None,3688.266718463,None,3688.266718463,None,3688.266718463,None,3688.266718463,None,,,,,,,,,,,,,,,,,,,,,,,,,,,,,,,,,,,,,,,,,,,,001,10,2020_Jan_28_1106,spring_faces,3.1.5,60.20764798964231,
condition files/Stage0a.xlsx,0a,alpha,none,h,"['h', 'g']","['Chess', 'Go']","[0, 0.5]","[0, 0]",1,0,0,5,5,5,0,1,1,0,,,,,,,,,,,,,,,,,,,,,,,,,,,,,,,,,,,,,,,,,,,,,,,,,,,,,,,,,,,,,,,3690.233966074001,None,3690.233966074001,None,3690.233966074001,None,h,1,0.7057710989993211,3691.767669338001,None,3691.767669338001,None,3691.767669338001,None,3692.533904107001,None,3692.533904107001,None,3692.533904107001,None,3692.533904107001,None,,,,,,,,,,,,,,,,,,,,,,,,,,,,,,,,,,,,,,,,,,,,001,10,2020_Jan_28_1106,spring_faces,3.1.5,60.20764798964231,
condition files/Stage0b_1.xlsx,0b,alpha,none,h,"['h', 'g']","['Chess', 'Go']","[-0.15, 0.5]","[0.15, 0.5]",1,0,0,6,6,6,0,0,0,0,,,,,,,,,,,,,,,,,,,,,,,,,,,,,,,,,,,,,,,,,,,,,,,,,,,,,,,,,,,,,,,3694.550657517001,None,3694.550657517001,None,3694.550657517001,None,h,1,0.7749084630013385,3696.0505717669994,None,3696.0505717669994,None,3696.0505717669994,None,3696.8840321649996,None,3696.8840321649996,None,3696.8840321649996,None,3696.8840321649996,None,,,,,,,,,,,,,,,,,,,,,,,,,,,,,,,,,,,,,,,,,,,,001,10,2020_Jan_28_1106,spring_faces,3.1.5,60.20764798964231,
condition files/Stage0b_1.xlsx,0b,none,beta,g,"['h', 'g']","['Chess', 'Go']","[-0.15, 0.5]","[0.15, 0.5]",0,1,0,6,6,6,0,1,1,1,,,,,,,,,,,,,,,,,,,,,,,,,,,,,,,,,,,,,,,,,,,,,,,,,,,,,,,,,,,,,,,3698.8502276320005,None,3698.8502276320005,None,3698.8502276320005,None,g,1,0.6484874420002598,3700.4009571800007,None,3700.4009571800007,None,3700.4009571800007,None,3701.1176577529995,None,3701.1176577529995,None,3701.1176577529995,None,3701.1176577529995,None,,,,,,,,,,,,,,,,,,,,,,,,,,,,,,,,,,,,,,,,,,,,001,10,2020_Jan_28_1106,spring_faces,3.1.5,60.20764798964231,
condition files/Stage0b_2.xlsx,0b,beta,none,g,"['h', 'g']","['Chess', 'Go']","[-0.15, 0.5]","[0.15, 0.5]",1,0,0,7,7,7,0,0,0,1,,,,,,,,,,,,,,,,,,,,,,,,,,,,,,,,,,,,,,,,,,,,,,,,,,,,,,,,,,,,,,,3703.134293244001,None,3703.134293244001,None,3703.134293244001,None,g,1,0.6670637960014574,3704.622366685001,None,3704.622366685001,None,3704.622366685001,None,3705.350363126,None,3705.350363126,None,3705.350363126,None,3705.350363126,None,,,,,,,,,,,,,,,,,,,,,,,,,,,,,,,,,,,,,,,,,,,,001,10,2020_Jan_28_1106,spring_faces,3.1.5,60.20764798964231,
condition files/Stage0b_2.xlsx,0b,none,alpha,h,"['h', 'g']","['Chess', 'Go']","[-0.15, 0.5]","[0.15, 0.5]",0,1,0,7,7,7,0,1,1,0,,,,,,,,,,,,,,,,,,,,,,,,,,,,,,,,,,,,,,,,,,,,,,,,,,,,,,,,,,,,,,,3707.317325379,None,3707.317325379,None,3707.317325379,None,h,1,0.5308157290000963,3708.8545221560007,None,3708.8545221560007,None,3708.8545221560007,None,3709.452367821,None,3709.452367821,None,3709.452367821,None,3709.452367821,None,,,,,,,,,,,,,,,,,,,,,,,,,,,,,,,,,,,,,,,,,,,,001,10,2020_Jan_28_1106,spring_faces,3.1.5,60.20764798964231,
condition files/Stage0b_1.xlsx,0b,alpha,none,h,"['h', 'g']","['Chess', 'Go']","[-0.15, 0.5]","[0.15, 0.5]",1,0,0,8,8,8,0,0,0,0,,,,,,,,,,,,,,,,,,,,,,,,,,,,,,,,,,,,,,,,,,,,,,,,,,,,,,,,,,,,,,,3711.4344834030007,None,3711.4344834030007,None,3711.4344834030007,None,h,1,0.6079147190012009,3712.969571593,None,3712.969571593,None,3712.969571593,None,3713.6336149379995,None,3713.6336149379995,None,3713.6336149379995,None,3713.6336149379995,None,,,,,,,,,,,,,,,,,,,,,,,,,,,,,,,,,,,,,,,,,,,,001,10,2020_Jan_28_1106,spring_faces,3.1.5,60.20764798964231,
condition files/Stage0b_1.xlsx,0b,none,beta,g,"['h', 'g']","['Chess', 'Go']","[-0.15, 0.5]","[0.15, 0.5]",0,1,0,8,8,8,0,1,1,1,,,,,,,,,,,,,,,,,,,,,,,,,,,,,,,,,,,,,,,,,,,,,,,,,,,,,,,,,,,,,,,3715.6006408700005,None,3715.6006408700005,None,3715.6006408700005,None,g,1,1.035459455999444,3717.1339690350005,None,3717.1339690350005,None,3717.1339690350005,None,3718.2338386660003,None,3718.2338386660003,None,3718.2338386660003,None,3718.2338386660003,None,,,,,,,,,,,,,,,,,,,,,,,,,,,,,,,,,,,,,,,,,,,,001,10,2020_Jan_28_1106,spring_faces,3.1.5,60.20764798964231,
condition files/Stage0b_2.xlsx,0b,none,alpha,h,"['h', 'g']","['Chess', 'Go']","[-0.15, 0.5]","[0.15, 0.5]",0,1,0,9,9,9,0,0,0,0,,,,,,,,,,,,,,,,,,,,,,,,,,,,,,,,,,,,,,,,,,,,,,,,,,,,,,,,,,,,,,,3720.2173211519994,None,3720.2173211519994,None,3720.2173211519994,None,h,1,0.6567680379994272,3721.752715804,None,3721.752715804,None,3721.752715804,None,3722.4693211059994,None,3722.4693211059994,None,3722.4693211059994,None,3722.4693211059994,None,,,,,,,,,,,,,,,,,,,,,,,,,,,,,,,,,,,,,,,,,,,,001,10,2020_Jan_28_1106,spring_faces,3.1.5,60.20764798964231,
condition files/Stage0b_2.xlsx,0b,beta,none,g,"['h', 'g']","['Chess', 'Go']","[-0.15, 0.5]","[0.15, 0.5]",1,0,0,9,9,9,0,1,1,1,,,,,,,,,,,,,,,,,,,,,,,,,,,,,,,,,,,,,,,,,,,,,,,,,,,,,,,,,,,,,,,3724.433405396,None,3724.433405396,None,3724.433405396,None,g,1,0.5536201699997036,3725.9837988160007,None,3725.9837988160007,None,3725.9837988160007,None,3726.604009328,None,3726.604009328,None,3726.604009328,None,3726.604009328,None,,,,,,,,,,,,,,,,,,,,,,,,,,,,,,,,,,,,,,,,,,,,001,10,2020_Jan_28_1106,spring_faces,3.1.5,60.20764798964231,
condition files/Stage0b_1.xlsx,0b,none,beta,g,"['h', 'g']","['Chess', 'Go']","[-0.15, 0.5]","[0.15, 0.5]",0,1,0,10,10,10,0,0,0,1,,,,,,,,,,,,,,,,,,,,,,,,,,,,,,,,,,,,,,,,,,,,,,,,,,,,,,,,,,,,,,,3728.5836441269994,None,3728.5836441269994,None,3728.5836441269994,None,g,1,0.7837719510007446,3730.121668775001,None,3730.121668775001,None,3730.121668775001,None,3730.9673551610003,None,3730.9673551610003,None,3730.9673551610003,None,3730.9673551610003,None,,,,,,,,,,,,,,,,,,,,,,,,,,,,,,,,,,,,,,,,,,,,001,10,2020_Jan_28_1106,spring_faces,3.1.5,60.20764798964231,
condition files/Stage0b_1.xlsx,0b,alpha,none,h,"['h', 'g']","['Chess', 'Go']","[-0.15, 0.5]","[0.15, 0.5]",1,0,0,10,10,10,0,1,1,0,,,,,,,,,,,,,,,,,,,,,,,,,,,,,,,,,,,,,,,,,,,,,,,,,,,,,,,,,,,,,,,3732.934142178,None,3732.934142178,None,3732.934142178,None,h,1,0.7540103930004989,3734.4714666770005,None,3734.4714666770005,None,3734.4714666770005,None,3735.2862304950004,None,3735.2862304950004,None,3735.2862304950004,None,3735.2862304950004,None,,,,,,,,,,,,,,,,,,,,,,,,,,,,,,,,,,,,,,,,,,,,001,10,2020_Jan_28_1106,spring_faces,3.1.5,60.20764798964231,
condition files/Stage0b_2.xlsx,0b,none,alpha,h,"['h', 'g']","['Chess', 'Go']","[-0.15, 0.5]","[0.15, 0.5]",0,1,0,11,11,11,0,0,0,0,,,,,,,,,,,,,,,,,,,,,,,,,,,,,,,,,,,,,,,,,,,,,,,,,,,,,,,,,,,,,,,3737.2674844330004,None,3737.2674844330004,None,3737.2674844330004,None,h,1,0.7569978250012355,3738.8044411029996,None,3738.8044411029996,None,3738.8044411029996,None,3739.6175111990005,None,3739.6175111990005,None,3739.6175111990005,None,3739.6175111990005,None,,,,,,,,,,,,,,,,,,,,,,,,,,,,,,,,,,,,,,,,,,,,001,10,2020_Jan_28_1106,spring_faces,3.1.5,60.20764798964231,
condition files/Stage0b_2.xlsx,0b,beta,none,g,"['h', 'g']","['Chess', 'Go']","[-0.15, 0.5]","[0.15, 0.5]",1,0,0,11,11,11,0,1,1,1,,,,,,,,,,,,,,,,,,,,,,,,,,,,,,,,,,,,,,,,,,,,,,,,,,,,,,,,,,,,,,,3741.584150431,None,3741.584150431,None,3741.584150431,None,g,1,0.8389429710005061,3743.1224837790005,None,3743.1224837790005,None,3743.1224837790005,None,3744.0190843709997,None,3744.0190843709997,None,3744.0190843709997,None,3744.0190843709997,None,,,,,,,,,,,,,,,,,,,,,,,,,,,,,,,,,,,,,,,,,,,,001,10,2020_Jan_28_1106,spring_faces,3.1.5,60.20764798964231,
condition files/Stage0c_1.xlsx,0c,phi,beta,g,"['h', 'g']","['Chess', 'Go']","[-0.15, 0.5]","[0.15, 0.5]",1,1,0,12,12,12,0,0,0,3,,,,,,,,,,,,,,,,,,,,,,,,,,,,,,,,,,,,,,,,,,,,,,,,,,,,,,,,,,,,,,,3746.0008242169997,None,3746.0008242169997,None,3746.0008242169997,None,g,1,2.0577604310001334,3747.567713591,None,3747.567713591,None,3747.567713591,None,3749.6842313549996,None,3749.6842313549996,None,3749.6842313549996,None,3749.6842313549996,None,,,,,,,,,,,,,,,,,,,,,,,,,,,,,,,,,,,,,,,,,,,,001,10,2020_Jan_28_1106,spring_faces,3.1.5,60.20764798964231,
condition files/Stage0c_1.xlsx,0c,theta,alpha,h,"['h', 'g']","['Chess', 'Go']","[-0.15, 0.5]","[0.15, 0.5]",1,1,0,12,12,12,0,1,1,0,,,,,,,,,,,,,,,,,,,,,,,,,,,,,,,,,,,,,,,,,,,,,,,,,,,,,,,,,,,,,,,3751.6509229150006,None,3751.6509229150006,None,3751.6509229150006,None,h,1,0.7919873900009406,3753.233475946,None,3753.233475946,None,3753.233475946,None,3754.0843743119995,None,3754.0843743119995,None,3754.0843743119995,None,3754.0843743119995,None,,,,,,,,,,,,,,,,,,,,,,,,,,,,,,,,,,,,,,,,,,,,001,10,2020_Jan_28_1106,spring_faces,3.1.5,60.20764798964231,
condition files/Stage0c_1.xlsx,0c,beta,theta,g,"['h', 'g']","['Chess', 'Go']","[-0.15, 0.5]","[0.15, 0.5]",1,1,0,12,12,12,0,2,2,2,,,,,,,,,,,,,,,,,,,,,,,,,,,,,,,,,,,,,,,,,,,,,,,,,,,,,,,,,,,,,,,3756.050035536001,None,3756.050035536001,None,3756.050035536001,None,g,1,0.9212061430007452,3757.5842343289996,None,3757.5842343289996,None,3757.5842343289996,None,3758.5675801280004,None,3758.5675801280004,None,3758.5675801280004,None,3758.5675801280004,None,,,,,,,,,,,,,,,,,,,,,,,,,,,,,,,,,,,,,,,,,,,,001,10,2020_Jan_28_1106,spring_faces,3.1.5,60.20764798964231,
condition files/Stage0c_1.xlsx,0c,alpha,phi,h,"['h', 'g']","['Chess', 'Go']","[-0.15, 0.5]","[0.15, 0.5]",1,1,0,12,12,12,0,3,3,1,,,,,,,,,,,,,,,,,,,,,,,,,,,,,,,,,,,,,,,,,,,,,,,,,,,,,,,,,,,,,,,3760.5340267849997,None,3760.5340267849997,None,3760.5340267849997,None,h,1,0.9185509500002809,3762.0668249500004,None,3762.0668249500004,None,3762.0668249500004,None,3763.0510540330006,None,3763.0510540330006,None,3763.0510540330006,None,3763.0510540330006,None,,,,,,,,,,,,,,,,,,,,,,,,,,,,,,,,,,,,,,,,,,,,001,10,2020_Jan_28_1106,spring_faces,3.1.5,60.20764798964231,
condition files/Stage0c_2.xlsx,0c,beta,phi,g,"['h', 'g']","['Chess', 'Go']","[-0.15, 0.5]","[0.15, 0.5]",1,1,0,13,13,13,0,0,0,3,,,,,,,,,,,,,,,,,,,,,,,,,,,,,,,,,,,,,,,,,,,,,,,,,,,,,,,,,,,,,,,3765.0338233779994,None,3765.0338233779994,None,3765.0338233779994,None,g,1,0.7061564659998112,3766.567288849,None,3766.567288849,None,3766.567288849,None,3767.333824192,None,3767.333824192,None,3767.333824192,None,3767.333824192,None,,,,,,,,,,,,,,,,,,,,,,,,,,,,,,,,,,,,,,,,,,,,001,10,2020_Jan_28_1106,spring_faces,3.1.5,60.20764798964231,
condition files/Stage0c_2.xlsx,0c,theta,beta,g,"['h', 'g']","['Chess', 'Go']","[-0.15, 0.5]","[0.15, 0.5]",1,1,0,13,13,13,0,1,1,2,,,,,,,,,,,,,,,,,,,,,,,,,,,,,,,,,,,,,,,,,,,,,,,,,,,,,,,,,,,,,,,3769.3006452170002,None,3769.3006452170002,None,3769.3006452170002,None,g,1,0.9835628350010666,3770.833886091,None,3770.833886091,None,3770.833886091,None,3771.852397576001,None,3771.852397576001,None,3771.852397576001,None,3771.852397576001,None,,,,,,,,,,,,,,,,,,,,,,,,,,,,,,,,,,,,,,,,,,,,001,10,2020_Jan_28_1106,spring_faces,3.1.5,60.20764798964231,
condition files/Stage0c_2.xlsx,0c,alpha,theta,h,"['h', 'g']","['Chess', 'Go']","[-0.15, 0.5]","[0.15, 0.5]",1,1,0,13,13,13,0,2,2,0,,,,,,,,,,,,,,,,,,,,,,,,,,,,,,,,,,,,,,,,,,,,,,,,,,,,,,,,,,,,,,,3773.833883747001,None,3773.833883747001,None,3773.833883747001,None,h,1,1.169643895000263,3775.367811524001,None,3775.367811524001,None,3775.367811524001,None,3776.6003513200003,None,3776.6003513200003,None,3776.6003513200003,None,3776.6003513200003,None,,,,,,,,,,,,,,,,,,,,,,,,,,,,,,,,,,,,,,,,,,,,001,10,2020_Jan_28_1106,spring_faces,3.1.5,60.20764798964231,
condition files/Stage0c_2.xlsx,0c,phi,alpha,h,"['h', 'g']","['Chess', 'Go']","[-0.15, 0.5]","[0.15, 0.5]",1,1,0,13,13,13,0,3,3,1,,,,,,,,,,,,,,,,,,,,,,,,,,,,,,,,,,,,,,,,,,,,,,,,,,,,,,,,,,,,,,,3778.567330076,None,3778.567330076,None,3778.567330076,None,h,1,1.0289599719999387,3780.100403810001,None,3780.100403810001,None,3780.100403810001,None,3781.169990786001,None,3781.169990786001,None,3781.169990786001,None,3781.169990786001,None,,,,,,,,,,,,,,,,,,,,,,,,,,,,,,,,,,,,,,,,,,,,001,10,2020_Jan_28_1106,spring_faces,3.1.5,60.20764798964231,
condition files/Stage0c_1.xlsx,0c,beta,theta,g,"['h', 'g']","['Chess', 'Go']","[-0.15, 0.5]","[0.15, 0.5]",1,1,0,14,14,14,0,0,0,2,,,,,,,,,,,,,,,,,,,,,,,,,,,,,,,,,,,,,,,,,,,,,,,,,,,,,,,,,,,,,,,3783.167729334001,None,3783.167729334001,None,3783.167729334001,None,g,1,0.5885556510002061,3784.7009046739995,None,3784.7009046739995,None,3784.7009046739995,None,3785.3504495160005,None,3785.3504495160005,None,3785.3504495160005,None,3785.3504495160005,None,,,,,,,,,,,,,,,,,,,,,,,,,,,,,,,,,,,,,,,,,,,,001,10,2020_Jan_28_1106,spring_faces,3.1.5,60.20764798964231,
condition files/Stage0c_1.xlsx,0c,alpha,phi,h,"['h', 'g']","['Chess', 'Go']","[-0.15, 0.5]","[0.15, 0.5]",1,1,0,14,14,14,0,1,1,1,,,,,,,,,,,,,,,,,,,,,,,,,,,,,,,,,,,,,,,,,,,,,,,,,,,,,,,,,,,,,,,3787.316700667,None,3787.316700667,None,3787.316700667,None,h,1,0.8225451549988065,3788.8508898129994,None,3788.8508898129994,None,3788.8508898129994,None,3789.7337574870007,None,3789.7337574870007,None,3789.7337574870007,None,3789.7337574870007,None,,,,,,,,,,,,,,,,,,,,,,,,,,,,,,,,,,,,,,,,,,,,001,10,2020_Jan_28_1106,spring_faces,3.1.5,60.20764798964231,
condition files/Stage0c_1.xlsx,0c,phi,beta,g,"['h', 'g']","['Chess', 'Go']","[-0.15, 0.5]","[0.15, 0.5]",1,1,0,14,14,14,0,2,2,3,,,,,,,,,,,,,,,,,,,,,,,,,,,,,,,,,,,,,,,,,,,,,,,,,,,,,,,,,,,,,,,3791.7006818830005,None,3791.7006818830005,None,3791.7006818830005,None,g,1,0.7435364840002876,3793.2339216619994,None,3793.2339216619994,None,3793.2339216619994,None,3794.033643023001,None,3794.033643023001,None,3794.033643023001,None,3794.033643023001,None,,,,,,,,,,,,,,,,,,,,,,,,,,,,,,,,,,,,,,,,,,,,001,10,2020_Jan_28_1106,spring_faces,3.1.5,60.20764798964231,
condition files/Stage0c_1.xlsx,0c,theta,alpha,h,"['h', 'g']","['Chess', 'Go']","[-0.15, 0.5]","[0.15, 0.5]",1,1,0,14,14,14,0,3,3,0,,,,,,,,,,,,,,,,,,,,,,,,,,,,,,,,,,,,,,,,,,,,,,,,,,,,,,,,,,,,,,,3796.0010074009997,None,3796.0010074009997,None,3796.0010074009997,None,h,1,0.8430046209996362,3797.5344466760007,None,3797.5344466760007,None,3797.5344466760007,None,3798.434151710001,None,3798.434151710001,None,3798.434151710001,None,3798.434151710001,None,,,,,,,,,,,,,,,,,,,,,,,,,,,,,,,,,,,,,,,,,,,,001,10,2020_Jan_28_1106,spring_faces,3.1.5,60.20764798964231,
condition files/Stage0c_2.xlsx,0c,phi,alpha,h,"['h', 'g']","['Chess', 'Go']","[-0.15, 0.5]","[0.15, 0.5]",1,1,0,15,15,15,0,0,0,1,,,,,,,,,,,,,,,,,,,,,,,,,,,,,,,,,,,,,,,,,,,,,,,,,,,,,,,,,,,,,,,3800.417665803,None,3800.417665803,None,3800.417665803,None,h,1,1.0026383549993625,3801.9507932669994,None,3801.9507932669994,None,3801.9507932669994,None,3803.0015207740007,None,3803.0015207740007,None,3803.0015207740007,None,3803.0015207740007,None,,,,,,,,,,,,,,,,,,,,,,,,,,,,,,,,,,,,,,,,,,,,001,10,2020_Jan_28_1106,spring_faces,3.1.5,60.20764798964231,
condition files/Stage0c_2.xlsx,0c,beta,phi,g,"['h', 'g']","['Chess', 'Go']","[-0.15, 0.5]","[0.15, 0.5]",1,1,0,15,15,15,0,1,1,3,,,,,,,,,,,,,,,,,,,,,,,,,,,,,,,,,,,,,,,,,,,,,,,,,,,,,,,,,,,,,,,3804.9836061079995,None,3804.9836061079995,None,3804.9836061079995,None,g,1,1.0921963839991804,3806.5172874669997,None,3806.5172874669997,None,3806.5172874669997,None,3807.6674732359998,None,3807.6674732359998,None,3807.6674732359998,None,3807.6674732359998,None,,,,,,,,,,,,,,,,,,,,,,,,,,,,,,,,,,,,,,,,,,,,001,10,2020_Jan_28_1106,spring_faces,3.1.5,60.20764798964231,
condition files/Stage0c_2.xlsx,0c,theta,beta,g,"['h', 'g']","['Chess', 'Go']","[-0.15, 0.5]","[0.15, 0.5]",1,1,0,15,15,15,0,2,2,2,,,,,,,,,,,,,,,,,,,,,,,,,,,,,,,,,,,,,,,,,,,,,,,,,,,,,,,,,,,,,,,3809.6336804440007,None,3809.6336804440007,None,3809.6336804440007,None,g,1,0.7619605290001346,3811.167446343,None,3811.167446343,None,3811.167446343,None,3811.968967330001,None,3811.968967330001,None,3811.968967330001,None,3811.968967330001,None,,,,,,,,,,,,,,,,,,,,,,,,,,,,,,,,,,,,,,,,,,,,001,10,2020_Jan_28_1106,spring_faces,3.1.5,60.20764798964231,
condition files/Stage0c_2.xlsx,0c,alpha,theta,h,"['h', 'g']","['Chess', 'Go']","[-0.15, 0.5]","[0.15, 0.5]",1,1,0,15,15,15,0,3,3,0,,,,,,,,,,,,,,,,,,,,,,,,,,,,,,,,,,,,,,,,,,,,,,,,,,,,,,,,,,,,,,,3813.950701048,None,3813.950701048,None,3813.950701048,None,h,1,0.7811418599994795,3815.4842679370004,None,3815.4842679370004,None,3815.4842679370004,None,3816.317624522001,None,3816.317624522001,None,3816.317624522001,None,3816.317624522001,None,,,,,,,,,,,,,,,,,,,,,,,,,,,,,,,,,,,,,,,,,,,,001,10,2020_Jan_28_1106,spring_faces,3.1.5,60.20764798964231,
condition files/Stage0c_1.xlsx,0c,phi,beta,g,"['h', 'g']","['Chess', 'Go']","[-0.15, 0.5]","[0.15, 0.5]",1,1,0,16,16,16,0,0,0,3,,,,,,,,,,,,,,,,,,,,,,,,,,,,,,,,,,,,,,,,,,,,,,,,,,,,,,,,,,,,,,,3818.300206252,None,3818.300206252,None,3818.300206252,None,g,1,0.9592290370001137,3819.834249396,None,3819.834249396,None,3819.834249396,None,3820.8506319140006,None,3820.8506319140006,None,3820.8506319140006,None,3820.8506319140006,None,,,,,,,,,,,,,,,,,,,,,,,,,,,,,,,,,,,,,,,,,,,,001,10,2020_Jan_28_1106,spring_faces,3.1.5,60.20764798964231,
condition files/Stage0c_1.xlsx,0c,beta,theta,g,"['h', 'g']","['Chess', 'Go']","[-0.15, 0.5]","[0.15, 0.5]",1,1,0,16,16,16,0,1,1,2,,,,,,,,,,,,,,,,,,,,,,,,,,,,,,,,,,,,,,,,,,,,,,,,,,,,,,,,,,,,,,,3822.81655613,None,3822.81655613,None,3822.81655613,None,g,1,0.8102624290004314,3824.3511901699994,None,3824.3511901699994,None,3824.3511901699994,None,3825.2023204839998,None,3825.2023204839998,None,3825.2023204839998,None,3825.2023204839998,None,,,,,,,,,,,,,,,,,,,,,,,,,,,,,,,,,,,,,,,,,,,,001,10,2020_Jan_28_1106,spring_faces,3.1.5,60.20764798964231,
condition files/Stage0c_1.xlsx,0c,theta,alpha,h,"['h', 'g']","['Chess', 'Go']","[-0.15, 0.5]","[0.15, 0.5]",1,1,0,16,16,16,0,2,2,0,,,,,,,,,,,,,,,,,,,,,,,,,,,,,,,,,,,,,,,,,,,,,,,,,,,,,,,,,,,,,,,3827.1835844370007,None,3827.1835844370007,None,3827.1835844370007,None,h,1,0.828368844000579,3828.717017836,None,3828.717017836,None,3828.717017836,None,3829.600933615001,None,3829.600933615001,None,3829.600933615001,None,3829.600933615001,None,,,,,,,,,,,,,,,,,,,,,,,,,,,,,,,,,,,,,,,,,,,,001,10,2020_Jan_28_1106,spring_faces,3.1.5,60.20764798964231,
condition files/Stage0c_1.xlsx,0c,alpha,phi,h,"['h', 'g']","['Chess', 'Go']","[-0.15, 0.5]","[0.15, 0.5]",1,1,0,16,16,16,0,3,3,1,,,,,,,,,,,,,,,,,,,,,,,,,,,,,,,,,,,,,,,,,,,,,,,,,,,,,,,,,,,,,,,3831.5671308379997,None,3831.5671308379997,None,3831.5671308379997,None,h,1,0.956444333998661,3833.1009951099995,None,3833.1009951099995,None,3833.1009951099995,None,3834.1031771959997,None,3834.1031771959997,None,3834.1031771959997,None,3834.1031771959997,None,,,,,,,,,,,,,,,,,,,,,,,,,,,,,,,,,,,,,,,,,,,,001,10,2020_Jan_28_1106,spring_faces,3.1.5,60.20764798964231,
condition files/Stage0c_2.xlsx,0c,beta,phi,g,"['h', 'g']","['Chess', 'Go']","[-0.15, 0.5]","[0.15, 0.5]",1,1,0,17,17,17,0,0,0,3,,,,,,,,,,,,,,,,,,,,,,,,,,,,,,,,,,,,,,,,,,,,,,,,,,,,,,,,,,,,,,,3836.1006816889994,None,3836.1006816889994,None,3836.1006816889994,None,g,1,0.823255096000139,3837.634194393001,None,3837.634194393001,None,3837.634194393001,None,3838.5174768000006,None,3838.5174768000006,None,3838.5174768000006,None,3838.5174768000006,None,,,,,,,,,,,,,,,,,,,,,,,,,,,,,,,,,,,,,,,,,,,,001,10,2020_Jan_28_1106,spring_faces,3.1.5,60.20764798964231,
condition files/Stage0c_2.xlsx,0c,theta,beta,g,"['h', 'g']","['Chess', 'Go']","[-0.15, 0.5]","[0.15, 0.5]",1,1,0,17,17,17,0,1,1,2,,,,,,,,,,,,,,,,,,,,,,,,,,,,,,,,,,,,,,,,,,,,,,,,,,,,,,,,,,,,,,,3840.4839842360007,None,3840.4839842360007,None,3840.4839842360007,None,g,1,1.2395340479997685,3842.0179079,None,3842.0179079,None,3842.0179079,None,3843.302704386001,None,3843.302704386001,None,3843.302704386001,None,3843.302704386001,None,,,,,,,,,,,,,,,,,,,,,,,,,,,,,,,,,,,,,,,,,,,,001,10,2020_Jan_28_1106,spring_faces,3.1.5,60.20764798964231,
condition files/Stage0c_2.xlsx,0c,alpha,theta,h,"['h', 'g']","['Chess', 'Go']","[-0.15, 0.5]","[0.15, 0.5]",1,1,0,17,17,17,0,2,2,0,,,,,,,,,,,,,,,,,,,,,,,,,,,,,,,,,,,,,,,,,,,,,,,,,,,,,,,,,,,,,,,3845.301090252001,None,3845.301090252001,None,3845.301090252001,None,h,1,0.7921751919984672,3846.8172854209997,None,3846.8172854209997,None,3846.8172854209997,None,3847.667640011,None,3847.667640011,None,3847.667640011,None,3847.667640011,None,,,,,,,,,,,,,,,,,,,,,,,,,,,,,,,,,,,,,,,,,,,,001,10,2020_Jan_28_1106,spring_faces,3.1.5,60.20764798964231,
condition files/Stage0c_2.xlsx,0c,phi,alpha,h,"['h', 'g']","['Chess', 'Go']","[-0.15, 0.5]","[0.15, 0.5]",1,1,0,17,17,17,0,3,3,1,,,,,,,,,,,,,,,,,,,,,,,,,,,,,,,,,,,,,,,,,,,,,,,,,,,,,,,,,,,,,,,3849.6333483080007,None,3849.6333483080007,None,3849.6333483080007,None,h,1,0.9063445270003285,3851.1671024350007,None,3851.1671024350007,None,3851.1671024350007,None,3852.1181927629996,None,3852.1181927629996,None,3852.1181927629996,None,3852.1181927629996,None,,,,,,,,,,,,,,,,,,,,,,,,,,,,,,,,,,,,,,,,,,,,001,10,2020_Jan_28_1106,spring_faces,3.1.5,60.20764798964231,
,,,,,,,,,,,,,,,,,,,,,,,,,,,,,,,,,,,,,,,,,,,,,,,,,,,,,,,,,,,,,,,,,,,,,,,,,,,,,,,,,,,,,,,,,,,,,,,,,,,,,,,,3854.1177047209994,None,space,4.076300040000206,3859.117186757,None,,,,,,,,,,,,,,,,,,,,,,,,,,,,,,,,,,,,,,001,10,2020_Jan_28_1106,spring_faces,3.1.5,60.20764798964231,
condition files/Stage1_1.xlsx,,B3,T3,c,"['c', 'm']","['Clue', 'Monopoly']","[-0.15, 0.5]","[0.15, 0.5]",1,1,,,,,,,,,0,0,0,0,0,0,0,4,,,,,,,,,,,,,,,,,,,,,,,,,,,,,,,,,,,,,,,,,,,,,,,,,,,,,,,3863.3178001429997,None,3863.3178001429997,None,3863.3178001429997,None,c,1,2.200616161000653,3864.8007569520005,None,3864.8007569520005,None,3864.8007569520005,None,3867.0858133640004,None,3867.0858133640004,None,3867.0858133640004,None,3867.0858133640004,None,,,,,,,3859.117186757,None,,,,,,,,,,,,,,,,,,,,,,,,,,,,,,,,,,,,001,10,2020_Jan_28_1106,spring_faces,3.1.5,60.20764798964231,
condition files/Stage1_1.xlsx,,T2,B2,m,"['c', 'm']","['Clue', 'Monopoly']","[-0.15, 0.5]","[0.15, 0.5]",1,1,,,,,,,,,0,0,0,0,0,1,1,3,,,,,,,,,,,,,,,,,,,,,,,,,,,,,,,,,,,,,,,,,,,,,,,,,,,,,,,3869.033967464001,None,3869.033967464001,None,3869.033967464001,None,m,1,0.6714358389999688,3870.6339965140005,None,3870.6339965140005,None,3870.6339965140005,None,3871.370297722001,None,3871.370297722001,None,3871.370297722001,None,3871.370297722001,None,,,,,,,,,,,,,,,,,,,,,,,,,,,,,,,,,,,,,,,,,,,,001,10,2020_Jan_28_1106,spring_faces,3.1.5,60.20764798964231,
condition files/Stage1_1.xlsx,,B4,T4,m,"['c', 'm']","['Clue', 'Monopoly']","[-0.15, 0.5]","[0.15, 0.5]",1,1,,,,,,,,,0,0,0,0,0,2,2,7,,,,,,,,,,,,,,,,,,,,,,,,,,,,,,,,,,,,,,,,,,,,,,,,,,,,,,,3873.3340854690005,None,3873.3340854690005,None,3873.3340854690005,None,m,1,1.4732231140005752,3874.9842258960007,None,3874.9842258960007,None,3874.9842258960007,None,3876.5170493939995,None,3876.5170493939995,None,3876.5170493939995,None,3876.5170493939995,None,,,,,,,,,,,,,,,,,,,,,,,,,,,,,,,,,,,,,,,,,,,,001,10,2020_Jan_28_1106,spring_faces,3.1.5,60.20764798964231,
condition files/Stage1_1.xlsx,,B2,T1,m,"['c', 'm']","['Clue', 'Monopoly']","[-0.15, 0.5]","[0.15, 0.5]",1,1,,,,,,,,,0,0,0,0,0,3,3,2,,,,,,,,,,,,,,,,,,,,,,,,,,,,,,,,,,,,,,,,,,,,,,,,,,,,,,,3878.4836752809997,None,3878.4836752809997,None,3878.4836752809997,None,c,0,1.1911961969999538,3880.0342812339995,None,3880.0342812339995,None,3880.0342812339995,None,3881.2836437199994,None,3881.2836437199994,None,3881.2836437199994,None,3881.2836437199994,None,,,,,,,,,,,,,,,,,,,,,,,,,,,,,,,,,,,,,,,,,,,,001,10,2020_Jan_28_1106,spring_faces,3.1.5,60.20764798964231,
condition files/Stage1_1.xlsx,,T3,B4,c,"['c', 'm']","['Clue', 'Monopoly']","[-0.15, 0.5]","[0.15, 0.5]",1,1,,,,,,,,,0,0,0,0,0,4,4,5,,,,,,,,,,,,,,,,,,,,,,,,,,,,,,,,,,,,,,,,,,,,,,,,,,,,,,,3883.2508454980007,None,3883.2508454980007,None,3883.2508454980007,None,c,1,1.3205099150000024,3884.8009327259997,None,3884.8009327259997,None,3884.8009327259997,None,3886.1870383060004,None,3886.1870383060004,None,3886.1870383060004,None,3886.1870383060004,None,,,,,,,,,,,,,,,,,,,,,,,,,,,,,,,,,,,,,,,,,,,,001,10,2020_Jan_28_1106,spring_faces,3.1.5,60.20764798964231,
condition files/Stage1_1.xlsx,,T4,B3,m,"['c', 'm']","['Clue', 'Monopoly']","[-0.15, 0.5]","[0.15, 0.5]",1,1,,,,,,,,,0,0,0,0,0,5,5,6,,,,,,,,,,,,,,,,,,,,,,,,,,,,,,,,,,,,,,,,,,,,,,,,,,,,,,,3888.150564480001,None,3888.150564480001,None,3888.150564480001,None,m,1,1.0291168470012053,3889.7003057659995,None,3889.7003057659995,None,3889.7003057659995,None,3890.7864874470006,None,3890.7864874470006,None,3890.7864874470006,None,3890.7864874470006,None,,,,,,,,,,,,,,,,,,,,,,,,,,,,,,,,,,,,,,,,,,,,001,10,2020_Jan_28_1106,spring_faces,3.1.5,60.20764798964231,
condition files/Stage1_1.xlsx,,B1,T2,c,"['c', 'm']","['Clue', 'Monopoly']","[-0.15, 0.5]","[0.15, 0.5]",1,1,,,,,,,,,0,0,0,0,0,6,6,1,,,,,,,,,,,,,,,,,,,,,,,,,,,,,,,,,,,,,,,,,,,,,,,,,,,,,,,3892.7506867780003,None,3892.7506867780003,None,3892.7506867780003,None,m,0,1.8989125940006488,3894.334547886,None,3894.334547886,None,3894.334547886,None,3896.2842611610004,None,3896.2842611610004,None,3896.2842611610004,None,3896.2842611610004,None,,,,,,,,,,,,,,,,,,,,,,,,,,,,,,,,,,,,,,,,,,,,001,10,2020_Jan_28_1106,spring_faces,3.1.5,60.20764798964231,
condition files/Stage1_1.xlsx,,T1,B1,c,"['c', 'm']","['Clue', 'Monopoly']","[-0.15, 0.5]","[0.15, 0.5]",1,1,,,,,,,,,0,0,0,0,0,7,7,0,,,,,,,,,,,,,,,,,,,,,,,,,,,,,,,,,,,,,,,,,,,,,,,,,,,,,,,3898.2506163419994,None,3898.2506163419994,None,3898.2506163419994,None,m,0,2.5458119550003175,3899.783605748001,None,3899.783605748001,None,3899.783605748001,None,3902.384209492001,None,3902.384209492001,None,3902.384209492001,None,3902.384209492001,None,,,,,,,,,,,,,,,,,,,,,,,,,,,,,,,,,,,,,,,,,,,,001,10,2020_Jan_28_1106,spring_faces,3.1.5,60.20764798964231,
condition files/Stage1_2.xlsx,,T4,B4,m,"['c', 'm']","['Clue', 'Monopoly']","[-0.15, 0.5]","[0.15, 0.5]",1,1,,,,,,,,,0,1,1,1,0,0,0,7,,,,,,,,,,,,,,,,,,,,,,,,,,,,,,,,,,,,,,,,,,,,,,,,,,,,,,,3904.4003393579997,None,3904.4003393579997,None,3904.4003393579997,None,c,0,2.251757317000738,3905.9176625049995,None,3905.9176625049995,None,3905.9176625049995,None,3908.2369843059996,None,3908.2369843059996,None,3908.2369843059996,None,3908.2369843059996,None,,,,,,,,,,,,,,,,,,,,,,,,,,,,,,,,,,,,,,,,,,,,001,10,2020_Jan_28_1106,spring_faces,3.1.5,60.20764798964231,
condition files/Stage1_2.xlsx,,B1,T1,c,"['c', 'm']","['Clue', 'Monopoly']","[-0.15, 0.5]","[0.15, 0.5]",1,1,,,,,,,,,0,1,1,1,0,1,1,0,,,,,,,,,,,,,,,,,,,,,,,,,,,,,,,,,,,,,,,,,,,,,,,,,,,,,,,3910.200648885001,None,3910.200648885001,None,3910.200648885001,None,m,0,2.1627016120000917,3911.750714994,None,3911.750714994,None,3911.750714994,None,3913.9842217880005,None,3913.9842217880005,None,3913.9842217880005,None,3913.9842217880005,None,,,,,,,,,,,,,,,,,,,,,,,,,,,,,,,,,,,,,,,,,,,,001,10,2020_Jan_28_1106,spring_faces,3.1.5,60.20764798964231,
condition files/Stage1_2.xlsx,,T2,B1,c,"['c', 'm']","['Clue', 'Monopoly']","[-0.15, 0.5]","[0.15, 0.5]",1,1,,,,,,,,,0,1,1,1,0,2,2,1,,,,,,,,,,,,,,,,,,,,,,,,,,,,,,,,,,,,,,,,,,,,,,,,,,,,,,,3915.9336554110005,None,3915.9336554110005,None,3915.9336554110005,None,m,0,2.1420944910005346,3917.4673737210005,None,3917.4673737210005,None,3917.4673737210005,None,3919.6676169419998,None,3919.6676169419998,None,3919.6676169419998,None,3919.6676169419998,None,,,,,,,,,,,,,,,,,,,,,,,,,,,,,,,,,,,,,,,,,,,,001,10,2020_Jan_28_1106,spring_faces,3.1.5,60.20764798964231,
condition files/Stage1_2.xlsx,,T1,B2,m,"['c', 'm']","['Clue', 'Monopoly']","[-0.15, 0.5]","[0.15, 0.5]",1,1,,,,,,,,,0,1,1,1,0,3,3,2,,,,,,,,,,,,,,,,,,,,,,,,,,,,,,,,,,,,,,,,,,,,,,,,,,,,,,,3921.634114067,None,3921.634114067,None,3921.634114067,None,m,1,1.1937901340006647,3923.1836629870004,None,3923.1836629870004,None,3923.1836629870004,None,3924.451247803,None,3924.451247803,None,3924.451247803,None,3924.451247803,None,,,,,,,,,,,,,,,,,,,,,,,,,,,,,,,,,,,,,,,,,,,,001,10,2020_Jan_28_1106,spring_faces,3.1.5,60.20764798964231,
condition files/Stage1_2.xlsx,,T3,B3,c,"['c', 'm']","['Clue', 'Monopoly']","[-0.15, 0.5]","[0.15, 0.5]",1,1,,,,,,,,,0,1,1,1,0,4,4,4,,,,,,,,,,,,,,,,,,,,,,,,,,,,,,,,,,,,,,,,,,,,,,,,,,,,,,,3926.400675054,None,3926.400675054,None,3926.400675054,None,c,1,0.9066041559999576,3927.950866172,None,3927.950866172,None,3927.950866172,None,3928.934234898,None,3928.934234898,None,3928.934234898,None,3928.934234898,None,,,,,,,,,,,,,,,,,,,,,,,,,,,,,,,,,,,,,,,,,,,,001,10,2020_Jan_28_1106,spring_faces,3.1.5,60.20764798964231,
condition files/Stage1_2.xlsx,,B4,T3,c,"['c', 'm']","['Clue', 'Monopoly']","[-0.15, 0.5]","[0.15, 0.5]",1,1,,,,,,,,,0,1,1,1,0,5,5,5,,,,,,,,,,,,,,,,,,,,,,,,,,,,,,,,,,,,,,,,,,,,,,,,,,,,,,,3930.8839867760007,None,3930.8839867760007,None,3930.8839867760007,None,c,1,2.1180342440002278,3932.4194272880004,None,3932.4194272880004,None,3932.4194272880004,None,3934.6009045559995,None,3934.6009045559995,None,3934.6009045559995,None,3934.6009045559995,None,,,,,,,,,,,,,,,,,,,,,,,,,,,,,,,,,,,,,,,,,,,,001,10,2020_Jan_28_1106,spring_faces,3.1.5,60.20764798964231,
condition files/Stage1_2.xlsx,,B3,T4,m,"['c', 'm']","['Clue', 'Monopoly']","[-0.15, 0.5]","[0.15, 0.5]",1,1,,,,,,,,,0,1,1,1,0,6,6,6,,,,,,,,,,,,,,,,,,,,,,,,,,,,,,,,,,,,,,,,,,,,,,,,,,,,,,,3936.5669282089993,None,3936.5669282089993,None,3936.5669282089993,None,m,1,1.6036429589985346,3938.1018231120006,None,3938.1018231120006,None,3938.1018231120006,None,3939.784266740001,None,3939.784266740001,None,3939.784266740001,None,3939.784266740001,None,,,,,,,,,,,,,,,,,,,,,,,,,,,,,,,,,,,,,,,,,,,,001,10,2020_Jan_28_1106,spring_faces,3.1.5,60.20764798964231,
condition files/Stage1_2.xlsx,,B2,T2,m,"['c', 'm']","['Clue', 'Monopoly']","[-0.15, 0.5]","[0.15, 0.5]",1,1,,,,,,,,,0,1,1,1,0,7,7,3,,,,,,,,,,,,,,,,,,,,,,,,,,,,,,,,,,,,,,,,,,,,,,,,,,,,,,,3941.733978317,None,3941.733978317,None,3941.733978317,None,c,0,1.8451975520001724,3943.284227407,None,3943.284227407,None,3943.284227407,None,3945.1843099059997,None,3945.1843099059997,None,3945.1843099059997,None,3945.1843099059997,None,,,,,,,,,,,,,,,,,,,,,,,,,,,,,,,,,,,,,,,,,,,,001,10,2020_Jan_28_1106,spring_faces,3.1.5,60.20764798964231,
condition files/Stage1_1.xlsx,,T4,B3,m,"['c', 'm']","['Clue', 'Monopoly']","[-0.15, 0.5]","[0.15, 0.5]",1,1,,,,,,,,,0,2,2,2,0,0,0,6,,,,,,,,,,,,,,,,,,,,,,,,,,,,,,,,,,,,,,,,,,,,,,,,,,,,,,,3947.1677057280003,None,3947.1677057280003,None,3947.1677057280003,None,m,1,2.5403855860004114,3948.717076682001,None,3948.717076682001,None,3948.717076682001,None,3951.3175559399997,None,3951.3175559399997,None,3951.3175559399997,None,3951.3175559399997,None,,,,,,,,,,,,,,,,,,,,,,,,,,,,,,,,,,,,,,,,,,,,001,10,2020_Jan_28_1106,spring_faces,3.1.5,60.20764798964231,
condition files/Stage1_1.xlsx,,B2,T1,m,"['c', 'm']","['Clue', 'Monopoly']","[-0.15, 0.5]","[0.15, 0.5]",1,1,,,,,,,,,0,2,2,2,0,1,1,2,,,,,,,,,,,,,,,,,,,,,,,,,,,,,,,,,,,,,,,,,,,,,,,,,,,,,,,3953.283590809001,None,3953.283590809001,None,3953.283590809001,None,m,1,2.7734773219999624,3954.8200191280002,None,3954.8200191280002,None,3954.8200191280002,None,3957.650896653001,None,3957.650896653001,None,3957.650896653001,None,3957.650896653001,None,,,,,,,,,,,,,,,,,,,,,,,,,,,,,,,,,,,,,,,,,,,,001,10,2020_Jan_28_1106,spring_faces,3.1.5,60.20764798964231,
condition files/Stage1_1.xlsx,,T1,B1,c,"['c', 'm']","['Clue', 'Monopoly']","[-0.15, 0.5]","[0.15, 0.5]",1,1,,,,,,,,,0,2,2,2,0,2,2,0,,,,,,,,,,,,,,,,,,,,,,,,,,,,,,,,,,,,,,,,,,,,,,,,,,,,,,,3959.617074885001,None,3959.617074885001,None,3959.617074885001,None,m,0,2.2167140359997575,3961.1527173450004,None,3961.1527173450004,None,3961.1527173450004,None,3963.43446322,None,3963.43446322,None,3963.43446322,None,3963.43446322,None,,,,,,,,,,,,,,,,,,,,,,,,,,,,,,,,,,,,,,,,,,,,001,10,2020_Jan_28_1106,spring_faces,3.1.5,60.20764798964231,
condition files/Stage1_1.xlsx,,B1,T2,c,"['c', 'm']","['Clue', 'Monopoly']","[-0.15, 0.5]","[0.15, 0.5]",1,1,,,,,,,,,0,2,2,2,0,3,3,1,,,,,,,,,,,,,,,,,,,,,,,,,,,,,,,,,,,,,,,,,,,,,,,,,,,,,,,3965.4007950919995,None,3965.4007950919995,None,3965.4007950919995,None,c,1,1.9234284650010522,3966.9340467270004,None,3966.9340467270004,None,3966.9340467270004,None,3968.917129718001,None,3968.917129718001,None,3968.917129718001,None,3968.917129718001,None,,,,,,,,,,,,,,,,,,,,,,,,,,,,,,,,,,,,,,,,,,,,001,10,2020_Jan_28_1106,spring_faces,3.1.5,60.20764798964231,
condition files/Stage1_1.xlsx,,B3,T3,c,"['c', 'm']","['Clue', 'Monopoly']","[-0.15, 0.5]","[0.15, 0.5]",1,1,,,,,,,,,0,2,2,2,0,4,4,4,,,,,,,,,,,,,,,,,,,,,,,,,,,,,,,,,,,,,,,,,,,,,,,,,,,,,,,3970.8839605679996,None,3970.8839605679996,None,3970.8839605679996,None,c,1,1.4467898860002606,3972.4186501760005,None,3972.4186501760005,None,3972.4186501760005,None,3973.917864975,None,3973.917864975,None,3973.917864975,None,3973.917864975,None,,,,,,,,,,,,,,,,,,,,,,,,,,,,,,,,,,,,,,,,,,,,001,10,2020_Jan_28_1106,spring_faces,3.1.5,60.20764798964231,
condition files/Stage1_1.xlsx,,T2,B2,m,"['c', 'm']","['Clue', 'Monopoly']","[-0.15, 0.5]","[0.15, 0.5]",1,1,,,,,,,,,0,2,2,2,0,5,5,3,,,,,,,,,,,,,,,,,,,,,,,,,,,,,,,,,,,,,,,,,,,,,,,,,,,,,,,3975.884047099001,None,3975.884047099001,None,3975.884047099001,None,c,0,1.7585107239992794,3977.418975814001,None,3977.418975814001,None,3977.418975814001,None,3979.250961709001,None,3979.250961709001,None,3979.250961709001,None,3979.250961709001,None,,,,,,,,,,,,,,,,,,,,,,,,,,,,,,,,,,,,,,,,,,,,001,10,2020_Jan_28_1106,spring_faces,3.1.5,60.20764798964231,
condition files/Stage1_1.xlsx,,T3,B4,c,"['c', 'm']","['Clue', 'Monopoly']","[-0.15, 0.5]","[0.15, 0.5]",1,1,,,,,,,,,0,2,2,2,0,6,6,5,,,,,,,,,,,,,,,,,,,,,,,,,,,,,,,,,,,,,,,,,,,,,,,,,,,,,,,3981.200602117001,None,3981.200602117001,None,3981.200602117001,None,c,1,1.0663899079991097,3982.735027797001,None,3982.735027797001,None,3982.735027797001,None,3983.867683159001,None,3983.867683159001,None,3983.867683159001,None,3983.867683159001,None,,,,,,,,,,,,,,,,,,,,,,,,,,,,,,,,,,,,,,,,,,,,001,10,2020_Jan_28_1106,spring_faces,3.1.5,60.20764798964231,
condition files/Stage1_1.xlsx,,B4,T4,m,"['c', 'm']","['Clue', 'Monopoly']","[-0.15, 0.5]","[0.15, 0.5]",1,1,,,,,,,,,0,2,2,2,0,7,7,7,,,,,,,,,,,,,,,,,,,,,,,,,,,,,,,,,,,,,,,,,,,,,,,,,,,,,,,3985.834106587,None,3985.834106587,None,3985.834106587,None,m,1,1.8573001789991395,3987.3841712250005,None,3987.3841712250005,None,3987.3841712250005,None,3989.317701936,None,3989.317701936,None,3989.317701936,None,3989.317701936,None,,,,,,,,,,,,,,,,,,,,,,,,,,,,,,,,,,,,,,,,,,,,001,10,2020_Jan_28_1106,spring_faces,3.1.5,60.20764798964231,
condition files/Stage1_2.xlsx,,B1,T1,c,"['c', 'm']","['Clue', 'Monopoly']","[-0.15, 0.5]","[0.15, 0.5]",1,1,,,,,,,,,0,3,3,3,0,0,0,0,,,,,,,,,,,,,,,,,,,,,,,,,,,,,,,,,,,,,,,,,,,,,,,,,,,,,,,3991.334265216,None,3991.334265216,None,3991.334265216,None,m,0,2.2477739799996925,3992.8176728280005,None,3992.8176728280005,None,3992.8176728280005,None,3995.119326594001,None,3995.119326594001,None,3995.119326594001,None,3995.119326594001,None,,,,,,,,,,,,,,,,,,,,,,,,,,,,,,,,,,,,,,,,,,,,001,10,2020_Jan_28_1106,spring_faces,3.1.5,60.20764798964231,
condition files/Stage1_2.xlsx,,T4,B4,m,"['c', 'm']","['Clue', 'Monopoly']","[-0.15, 0.5]","[0.15, 0.5]",1,1,,,,,,,,,0,3,3,3,0,1,1,7,,,,,,,,,,,,,,,,,,,,,,,,,,,,,,,,,,,,,,,,,,,,,,,,,,,,,,,3997.0839582910003,None,3997.0839582910003,None,3997.0839582910003,None,c,0,2.4478590079997957,3998.617563662,None,3998.617563662,None,3998.617563662,None,4001.1341077360003,None,4001.1341077360003,None,4001.1341077360003,None,4001.1341077360003,None,,,,,,,,,,,,,,,,,,,,,,,,,,,,,,,,,,,,,,,,,,,,001,10,2020_Jan_28_1106,spring_faces,3.1.5,60.20764798964231,
condition files/Stage1_2.xlsx,,T3,B3,c,"['c', 'm']","['Clue', 'Monopoly']","[-0.15, 0.5]","[0.15, 0.5]",1,1,,,,,,,,,0,3,3,3,0,2,2,4,,,,,,,,,,,,,,,,,,,,,,,,,,,,,,,,,,,,,,,,,,,,,,,,,,,,,,,4003.083598831,None,4003.083598831,None,4003.083598831,None,c,1,1.2152245249999396,4004.618240267001,None,4004.618240267001,None,4004.618240267001,None,4005.8862594350003,None,4005.8862594350003,None,4005.8862594350003,None,4005.8862594350003,None,,,,,,,,,,,,,,,,,,,,,,,,,,,,,,,,,,,,,,,,,,,,001,10,2020_Jan_28_1106,spring_faces,3.1.5,60.20764798964231,
condition files/Stage1_2.xlsx,,T2,B1,c,"['c', 'm']","['Clue', 'Monopoly']","[-0.15, 0.5]","[0.15, 0.5]",1,1,,,,,,,,,0,3,3,3,0,3,3,1,,,,,,,,,,,,,,,,,,,,,,,,,,,,,,,,,,,,,,,,,,,,,,,,,,,,,,,4007.850205934,None,4007.850205934,None,4007.850205934,None,c,1,1.3450643140004104,4009.3843693080007,None,4009.3843693080007,None,4009.3843693080007,None,4010.784233005,None,4010.784233005,None,4010.784233005,None,4010.784233005,None,,,,,,,,,,,,,,,,,,,,,,,,,,,,,,,,,,,,,,,,,,,,001,10,2020_Jan_28_1106,spring_faces,3.1.5,60.20764798964231,
condition files/Stage1_2.xlsx,,B2,T2,m,"['c', 'm']","['Clue', 'Monopoly']","[-0.15, 0.5]","[0.15, 0.5]",1,1,,,,,,,,,0,3,3,3,0,4,4,3,,,,,,,,,,,,,,,,,,,,,,,,,,,,,,,,,,,,,,,,,,,,,,,,,,,,,,,4012.750278716,None,4012.750278716,None,4012.750278716,None,m,1,1.0667632229997253,4014.2866619490005,None,4014.2866619490005,None,4014.2866619490005,None,4015.420048635001,None,4015.420048635001,None,4015.420048635001,None,4015.420048635001,None,,,,,,,,,,,,,,,,,,,,,,,,,,,,,,,,,,,,,,,,,,,,001,10,2020_Jan_28_1106,spring_faces,3.1.5,60.20764798964231,
condition files/Stage1_2.xlsx,,B4,T3,c,"['c', 'm']","['Clue', 'Monopoly']","[-0.15, 0.5]","[0.15, 0.5]",1,1,,,,,,,,,0,3,3,3,0,5,5,5,,,,,,,,,,,,,,,,,,,,,,,,,,,,,,,,,,,,,,,,,,,,,,,,,,,,,,,4017.3838225669997,None,4017.3838225669997,None,4017.3838225669997,None,c,1,0.9476622800011683,4018.9337451300007,None,4018.9337451300007,None,4018.9337451300007,None,4019.935124308001,None,4019.935124308001,None,4019.935124308001,None,4019.935124308001,None,,,,,,,,,,,,,,,,,,,,,,,,,,,,,,,,,,,,,,,,,,,,001,10,2020_Jan_28_1106,spring_faces,3.1.5,60.20764798964231,
condition files/Stage1_2.xlsx,,T1,B2,m,"['c', 'm']","['Clue', 'Monopoly']","[-0.15, 0.5]","[0.15, 0.5]",1,1,,,,,,,,,0,3,3,3,0,6,6,2,,,,,,,,,,,,,,,,,,,,,,,,,,,,,,,,,,,,,,,,,,,,,,,,,,,,,,,4021.9006952669997,None,4021.9006952669997,None,4021.9006952669997,None,c,0,1.7590942370006815,4023.450372888,None,4023.450372888,None,4023.450372888,None,4025.284408937,None,4025.284408937,None,4025.284408937,None,4025.284408937,None,,,,,,,,,,,,,,,,,,,,,,,,,,,,,,,,,,,,,,,,,,,,001,10,2020_Jan_28_1106,spring_faces,3.1.5,60.20764798964231,
condition files/Stage1_2.xlsx,,B3,T4,m,"['c', 'm']","['Clue', 'Monopoly']","[-0.15, 0.5]","[0.15, 0.5]",1,1,,,,,,,,,0,3,3,3,0,7,7,6,,,,,,,,,,,,,,,,,,,,,,,,,,,,,,,,,,,,,,,,,,,,,,,,,,,,,,,4027.2338147990004,None,4027.2338147990004,None,4027.2338147990004,None,m,1,1.60916612300025,4028.784323797,None,4028.784323797,None,4028.784323797,None,4030.450536145,None,4030.450536145,None,4030.450536145,None,4030.450536145,None,,,,,,,,,,,,,,,,,,,,,,,,,,,,,,,,,,,,,,,,,,,,001,10,2020_Jan_28_1106,spring_faces,3.1.5,60.20764798964231,
condition files/Stage1_1.xlsx,,T2,B2,m,"['c', 'm']","['Clue', 'Monopoly']","[-0.15, 0.5]","[0.15, 0.5]",1,1,,,,,,,,,0,4,4,4,0,0,0,3,,,,,,,,,,,,,,,,,,,,,,,,,,,,,,,,,,,,,,,,,,,,,,,,,,,,,,,4032.4341947050007,None,4032.4341947050007,None,4032.4341947050007,None,c,0,1.305876124999486,4033.983575636,None,4033.983575636,None,4033.983575636,None,4035.351292691,None,4035.351292691,None,4035.351292691,None,4035.351292691,None,,,,,,,,,,,,,,,,,,,,,,,,,,,,,,,,,,,,,,,,,,,,001,10,2020_Jan_28_1106,spring_faces,3.1.5,60.20764798964231,
condition files/Stage1_1.xlsx,,B3,T3,c,"['c', 'm']","['Clue', 'Monopoly']","[-0.15, 0.5]","[0.15, 0.5]",1,1,,,,,,,,,0,4,4,4,0,1,1,4,,,,,,,,,,,,,,,,,,,,,,,,,,,,,,,,,,,,,,,,,,,,,,,,,,,,,,,4037.3173140520003,None,4037.3173140520003,None,4037.3173140520003,None,c,1,1.1576217740002903,4038.867849653,None,4038.867849653,None,4038.867849653,None,4040.0842952930007,None,4040.0842952930007,None,4040.0842952930007,None,4040.0842952930007,None,,,,,,,,,,,,,,,,,,,,,,,,,,,,,,,,,,,,,,,,,,,,001,10,2020_Jan_28_1106,spring_faces,3.1.5,60.20764798964231,
condition files/Stage1_1.xlsx,,B4,T4,m,"['c', 'm']","['Clue', 'Monopoly']","[-0.15, 0.5]","[0.15, 0.5]",1,1,,,,,,,,,0,4,4,4,0,2,2,7,,,,,,,,,,,,,,,,,,,,,,,,,,,,,,,,,,,,,,,,,,,,,,,,,,,,,,,4042.0508769689995,None,4042.0508769689995,None,4042.0508769689995,None,m,1,1.2400441999998293,4043.585429852,None,4043.585429852,None,4043.585429852,None,4044.901225482,None,4044.901225482,None,4044.901225482,None,4044.901225482,None,,,,,,,,,,,,,,,,,,,,,,,,,,,,,,,,,,,,,,,,,,,,001,10,2020_Jan_28_1106,spring_faces,3.1.5,60.20764798964231,
condition files/Stage1_1.xlsx,,T4,B3,m,"['c', 'm']","['Clue', 'Monopoly']","[-0.15, 0.5]","[0.15, 0.5]",1,1,,,,,,,,,0,4,4,4,0,3,3,6,,,,,,,,,,,,,,,,,,,,,,,,,,,,,,,,,,,,,,,,,,,,,,,,,,,,,,,4046.8503372099995,None,4046.8503372099995,None,4046.8503372099995,None,m,1,1.4322282009998162,4048.385204767,None,4048.385204767,None,4048.385204767,None,4049.8677685230004,None,4049.8677685230004,None,4049.8677685230004,None,4049.8677685230004,None,,,,,,,,,,,,,,,,,,,,,,,,,,,,,,,,,,,,,,,,,,,,001,10,2020_Jan_28_1106,spring_faces,3.1.5,60.20764798964231,
condition files/Stage1_1.xlsx,,B2,T1,m,"['c', 'm']","['Clue', 'Monopoly']","[-0.15, 0.5]","[0.15, 0.5]",1,1,,,,,,,,,0,4,4,4,0,4,4,2,,,,,,,,,,,,,,,,,,,,,,,,,,,,,,,,,,,,,,,,,,,,,,,,,,,,,,,4051.833919697,None,4051.833919697,None,4051.833919697,None,c,0,1.3778529569990496,4053.383611032,None,4053.383611032,None,4053.383611032,None,4054.8171053939996,None,4054.8171053939996,None,4054.8171053939996,None,4054.8171053939996,None,,,,,,,,,,,,,,,,,,,,,,,,,,,,,,,,,,,,,,,,,,,,001,10,2020_Jan_28_1106,spring_faces,3.1.5,60.20764798964231,
condition files/Stage1_1.xlsx,,B1,T2,c,"['c', 'm']","['Clue', 'Monopoly']","[-0.15, 0.5]","[0.15, 0.5]",1,1,,,,,,,,,0,4,4,4,0,5,5,1,,,,,,,,,,,,,,,,,,,,,,,,,,,,,,,,,,,,,,,,,,,,,,,,,,,,,,,4056.783405804,None,4056.783405804,None,4056.783405804,None,c,1,1.9314254649998475,4058.3180254930003,None,4058.3180254930003,None,4058.3180254930003,None,4060.3018774439997,None,4060.3018774439997,None,4060.3018774439997,None,4060.3018774439997,None,,,,,,,,,,,,,,,,,,,,,,,,,,,,,,,,,,,,,,,,,,,,001,10,2020_Jan_28_1106,spring_faces,3.1.5,60.20764798964231,
condition files/Stage1_1.xlsx,,T1,B1,c,"['c', 'm']","['Clue', 'Monopoly']","[-0.15, 0.5]","[0.15, 0.5]",1,1,,,,,,,,,0,4,4,4,0,6,6,0,,,,,,,,,,,,,,,,,,,,,,,,,,,,,,,,,,,,,,,,,,,,,,,,,,,,,,,4062.2671052649994,None,4062.2671052649994,None,4062.2671052649994,None,m,0,1.070987798000715,4063.802452713001,None,4063.802452713001,None,4063.802452713001,None,4064.934264552,None,4064.934264552,None,4064.934264552,None,4064.934264552,None,,,,,,,,,,,,,,,,,,,,,,,,,,,,,,,,,,,,,,,,,,,,001,10,2020_Jan_28_1106,spring_faces,3.1.5,60.20764798964231,
condition files/Stage1_1.xlsx,,T3,B4,c,"['c', 'm']","['Clue', 'Monopoly']","[-0.15, 0.5]","[0.15, 0.5]",1,1,,,,,,,,,0,4,4,4,0,7,7,5,,,,,,,,,,,,,,,,,,,,,,,,,,,,,,,,,,,,,,,,,,,,,,,,,,,,,,,4066.900736804001,None,4066.900736804001,None,4066.900736804001,None,c,1,1.2228130309995322,4068.434674858,None,4068.434674858,None,4068.434674858,None,4069.717061843,None,4069.717061843,None,4069.717061843,None,4069.717061843,None,,,,,,,,,,,,,,,,,,,,,,,,,,,,,,,,,,,,,,,,,,,,001,10,2020_Jan_28_1106,spring_faces,3.1.5,60.20764798964231,
condition files/Stage1_2.xlsx,,T3,B3,c,"['c', 'm']","['Clue', 'Monopoly']","[-0.15, 0.5]","[0.15, 0.5]",1,1,,,,,,,,,0,5,5,5,0,0,0,4,,,,,,,,,,,,,,,,,,,,,,,,,,,,,,,,,,,,,,,,,,,,,,,,,,,,,,,4071.7003122720007,None,4071.7003122720007,None,4071.7003122720007,None,c,1,1.255574377000812,4073.233895812001,None,4073.233895812001,None,4073.233895812001,None,4074.5509379080004,None,4074.5509379080004,None,4074.5509379080004,None,4074.5509379080004,None,,,,,,,,,,,,,,,,,,,,,,,,,,,,,,,,,,,,,,,,,,,,001,10,2020_Jan_28_1106,spring_faces,3.1.5,60.20764798964231,
condition files/Stage1_2.xlsx,,B1,T1,c,"['c', 'm']","['Clue', 'Monopoly']","[-0.15, 0.5]","[0.15, 0.5]",1,1,,,,,,,,,0,5,5,5,0,1,1,0,,,,,,,,,,,,,,,,,,,,,,,,,,,,,,,,,,,,,,,,,,,,,,,,,,,,,,,4076.5167382789996,None,4076.5167382789996,None,4076.5167382789996,None,m,0,1.5738539949998085,4078.0516362000008,None,4078.0516362000008,None,4078.0516362000008,None,4079.68381435,None,4079.68381435,None,4079.68381435,None,4079.68381435,None,,,,,,,,,,,,,,,,,,,,,,,,,,,,,,,,,,,,,,,,,,,,001,10,2020_Jan_28_1106,spring_faces,3.1.5,60.20764798964231,
condition files/Stage1_2.xlsx,,B2,T2,m,"['c', 'm']","['Clue', 'Monopoly']","[-0.15, 0.5]","[0.15, 0.5]",1,1,,,,,,,,,0,5,5,5,0,2,2,3,,,,,,,,,,,,,,,,,,,,,,,,,,,,,,,,,,,,,,,,,,,,,,,,,,,,,,,4081.65061238,None,4081.65061238,None,4081.65061238,None,m,1,0.9364895690014237,4083.2009500350005,None,4083.2009500350005,None,4083.2009500350005,None,4084.2179146900007,None,4084.2179146900007,None,4084.2179146900007,None,4084.2179146900007,None,,,,,,,,,,,,,,,,,,,,,,,,,,,,,,,,,,,,,,,,,,,,001,10,2020_Jan_28_1106,spring_faces,3.1.5,60.20764798964231,
condition files/Stage1_2.xlsx,,B3,T4,m,"['c', 'm']","['Clue', 'Monopoly']","[-0.15, 0.5]","[0.15, 0.5]",1,1,,,,,,,,,0,5,5,5,0,3,3,6,,,,,,,,,,,,,,,,,,,,,,,,,,,,,,,,,,,,,,,,,,,,,,,,,,,,,,,4086.167416403,None,4086.167416403,None,4086.167416403,None,m,1,1.3310883680005645,4087.7023821310004,None,4087.7023821310004,None,4087.7023821310004,None,4089.0836242159994,None,4089.0836242159994,None,4089.0836242159994,None,4089.0836242159994,None,,,,,,,,,,,,,,,,,,,,,,,,,,,,,,,,,,,,,,,,,,,,001,10,2020_Jan_28_1106,spring_faces,3.1.5,60.20764798964231,
condition files/Stage1_2.xlsx,,T4,B4,m,"['c', 'm']","['Clue', 'Monopoly']","[-0.15, 0.5]","[0.15, 0.5]",1,1,,,,,,,,,0,5,5,5,0,4,4,7,,,,,,,,,,,,,,,,,,,,,,,,,,,,,,,,,,,,,,,,,,,,,,,,,,,,,,,4091.050605904001,None,4091.050605904001,None,4091.050605904001,None,m,1,1.680663598001047,4092.600741516001,None,4092.600741516001,None,4092.600741516001,None,4094.333607107,None,4094.333607107,None,4094.333607107,None,4094.333607107,None,,,,,,,,,,,,,,,,,,,,,,,,,,,,,,,,,,,,,,,,,,,,001,10,2020_Jan_28_1106,spring_faces,3.1.5,60.20764798964231,
condition files/Stage1_2.xlsx,,B4,T3,c,"['c', 'm']","['Clue', 'Monopoly']","[-0.15, 0.5]","[0.15, 0.5]",1,1,,,,,,,,,0,5,5,5,0,5,5,5,,,,,,,,,,,,,,,,,,,,,,,,,,,,,,,,,,,,,,,,,,,,,,,,,,,,,,,4096.300487992,None,4096.300487992,None,4096.300487992,None,c,1,1.1191208889995323,4097.834328708,None,4097.834328708,None,4097.834328708,None,4099.016939777,None,4099.016939777,None,4099.016939777,None,4099.016939777,None,,,,,,,,,,,,,,,,,,,,,,,,,,,,,,,,,,,,,,,,,,,,001,10,2020_Jan_28_1106,spring_faces,3.1.5,60.20764798964231,
condition files/Stage1_2.xlsx,,T1,B2,m,"['c', 'm']","['Clue', 'Monopoly']","[-0.15, 0.5]","[0.15, 0.5]",1,1,,,,,,,,,0,5,5,5,0,6,6,2,,,,,,,,,,,,,,,,,,,,,,,,,,,,,,,,,,,,,,,,,,,,,,,,,,,,,,,4100.983991018999,None,4100.983991018999,None,4100.983991018999,None,m,1,1.394795816999249,4102.534641544001,None,4102.534641544001,None,4102.534641544001,None,4104.000900892,None,4104.000900892,None,4104.000900892,None,4104.000900892,None,,,,,,,,,,,,,,,,,,,,,,,,,,,,,,,,,,,,,,,,,,,,001,10,2020_Jan_28_1106,spring_faces,3.1.5,60.20764798964231,
condition files/Stage1_2.xlsx,,T2,B1,c,"['c', 'm']","['Clue', 'Monopoly']","[-0.15, 0.5]","[0.15, 0.5]",1,1,,,,,,,,,0,5,5,5,0,7,7,1,,,,,,,,,,,,,,,,,,,,,,,,,,,,,,,,,,,,,,,,,,,,,,,,,,,,,,,4105.950802624001,None,4105.950802624001,None,4105.950802624001,None,c,1,0.8447976379993634,4107.484613885,None,4107.484613885,None,4107.484613885,None,4108.383750084001,None,4108.383750084001,None,4108.383750084001,None,4108.383750084001,None,,,,,,,,,,,,,,,,,,,,,,,,,,,,,,,,,,,,,,,,,,,,001,10,2020_Jan_28_1106,spring_faces,3.1.5,60.20764798964231,
condition files/Stage1_1.xlsx,,T3,B4,c,"['c', 'm']","['Clue', 'Monopoly']","[-0.15, 0.5]","[0.15, 0.5]",1,1,,,,,,,,,0,6,6,6,0,0,0,5,,,,,,,,,,,,,,,,,,,,,,,,,,,,,,,,,,,,,,,,,,,,,,,,,,,,,,,4110.367599426,None,4110.367599426,None,4110.367599426,None,c,1,1.2757630329997482,4111.917735806,None,4111.917735806,None,4111.917735806,None,4113.250950840999,None,4113.250950840999,None,4113.250950840999,None,4113.250950840999,None,,,,,,,,,,,,,,,,,,,,,,,,,,,,,,,,,,,,,,,,,,,,001,10,2020_Jan_28_1106,spring_faces,3.1.5,60.20764798964231,
condition files/Stage1_1.xlsx,,B4,T4,m,"['c', 'm']","['Clue', 'Monopoly']","[-0.15, 0.5]","[0.15, 0.5]",1,1,,,,,,,,,0,6,6,6,0,1,1,7,,,,,,,,,,,,,,,,,,,,,,,,,,,,,,,,,,,,,,,,,,,,,,,,,,,,,,,4115.216752278001,None,4115.216752278001,None,4115.216752278001,None,m,1,1.2900834639985987,4116.767388773001,None,4116.767388773001,None,4116.767388773001,None,4118.117889731001,None,4118.117889731001,None,4118.117889731001,None,4118.117889731001,None,,,,,,,,,,,,,,,,,,,,,,,,,,,,,,,,,,,,,,,,,,,,001,10,2020_Jan_28_1106,spring_faces,3.1.5,60.20764798964231,
condition files/Stage1_1.xlsx,,B1,T2,c,"['c', 'm']","['Clue', 'Monopoly']","[-0.15, 0.5]","[0.15, 0.5]",1,1,,,,,,,,,0,6,6,6,0,2,2,1,,,,,,,,,,,,,,,,,,,,,,,,,,,,,,,,,,,,,,,,,,,,,,,,,,,,,,,4120.0835514870005,None,4120.0835514870005,None,4120.0835514870005,None,c,1,1.7035215699997934,4121.617925465001,None,4121.617925465001,None,4121.617925465001,None,4123.385017116,None,4123.385017116,None,4123.385017116,None,4123.385017116,None,,,,,,,,,,,,,,,,,,,,,,,,,,,,,,,,,,,,,,,,,,,,001,10,2020_Jan_28_1106,spring_faces,3.1.5,60.20764798964231,
condition files/Stage1_1.xlsx,,B3,T3,c,"['c', 'm']","['Clue', 'Monopoly']","[-0.15, 0.5]","[0.15, 0.5]",1,1,,,,,,,,,0,6,6,6,0,3,3,4,,,,,,,,,,,,,,,,,,,,,,,,,,,,,,,,,,,,,,,,,,,,,,,,,,,,,,,4125.350799389001,None,4125.350799389001,None,4125.350799389001,None,c,1,1.2524128670011123,4126.901036550001,None,4126.901036550001,None,4126.901036550001,None,4128.217597786,None,4128.217597786,None,4128.217597786,None,4128.217597786,None,,,,,,,,,,,,,,,,,,,,,,,,,,,,,,,,,,,,,,,,,,,,001,10,2020_Jan_28_1106,spring_faces,3.1.5,60.20764798964231,
condition files/Stage1_1.xlsx,,T1,B1,c,"['c', 'm']","['Clue', 'Monopoly']","[-0.15, 0.5]","[0.15, 0.5]",1,1,,,,,,,,,0,6,6,6,0,4,4,0,,,,,,,,,,,,,,,,,,,,,,,,,,,,,,,,,,,,,,,,,,,,,,,,,,,,,,,4130.184039384,None,4130.184039384,None,4130.184039384,None,c,1,1.2522404109986383,4131.717198334,None,4131.717198334,None,4131.717198334,None,4133.034262624999,None,4133.034262624999,None,4133.034262624999,None,4133.034262624999,None,,,,,,,,,,,,,,,,,,,,,,,,,,,,,,,,,,,,,,,,,,,,001,10,2020_Jan_28_1106,spring_faces,3.1.5,60.20764798964231,
condition files/Stage1_1.xlsx,,B2,T1,m,"['c', 'm']","['Clue', 'Monopoly']","[-0.15, 0.5]","[0.15, 0.5]",1,1,,,,,,,,,0,6,6,6,0,5,5,2,,,,,,,,,,,,,,,,,,,,,,,,,,,,,,,,,,,,,,,,,,,,,,,,,,,,,,,4135.000197851,None,4135.000197851,None,4135.000197851,None,m,1,2.7058262410009775,4136.535660064,None,4136.535660064,None,4136.535660064,None,4139.317838076001,None,4139.317838076001,None,4139.317838076001,None,4139.317838076001,None,,,,,,,,,,,,,,,,,,,,,,,,,,,,,,,,,,,,,,,,,,,,001,10,2020_Jan_28_1106,spring_faces,3.1.5,60.20764798964231,
condition files/Stage1_1.xlsx,,T2,B2,m,"['c', 'm']","['Clue', 'Monopoly']","[-0.15, 0.5]","[0.15, 0.5]",1,1,,,,,,,,,0,6,6,6,0,6,6,3,,,,,,,,,,,,,,,,,,,,,,,,,,,,,,,,,,,,,,,,,,,,,,,,,,,,,,,4141.267524705,None,4141.267524705,None,4141.267524705,None,m,1,1.2082741430003807,4142.801217114001,None,4142.801217114001,None,4142.801217114001,None,4144.067252155,None,4144.067252155,None,4144.067252155,None,4144.067252155,None,,,,,,,,,,,,,,,,,,,,,,,,,,,,,,,,,,,,,,,,,,,,001,10,2020_Jan_28_1106,spring_faces,3.1.5,60.20764798964231,
condition files/Stage1_1.xlsx,,T4,B3,m,"['c', 'm']","['Clue', 'Monopoly']","[-0.15, 0.5]","[0.15, 0.5]",1,1,,,,,,,,,0,6,6,6,0,7,7,6,,,,,,,,,,,,,,,,,,,,,,,,,,,,,,,,,,,,,,,,,,,,,,,,,,,,,,,4146.033758947001,None,4146.033758947001,None,4146.033758947001,None,m,1,1.9455947839996952,4147.583843097001,None,4147.583843097001,None,4147.583843097001,None,4149.584366291,None,4149.584366291,None,4149.584366291,None,4149.584366291,None,,,,,,,,,,,,,,,,,,,,,,,,,,,,,,,,,,,,,,,,,,,,001,10,2020_Jan_28_1106,spring_faces,3.1.5,60.20764798964231,
condition files/Stage1_2.xlsx,,B4,T3,c,"['c', 'm']","['Clue', 'Monopoly']","[-0.15, 0.5]","[0.15, 0.5]",1,1,,,,,,,,,0,7,7,7,0,0,0,5,,,,,,,,,,,,,,,,,,,,,,,,,,,,,,,,,,,,,,,,,,,,,,,,,,,,,,,4151.567669643001,None,4151.567669643001,None,4151.567669643001,None,c,1,0.6198112969996146,4153.101659276,None,4153.101659276,None,4153.101659276,None,4153.784041843,None,4153.784041843,None,4153.784041843,None,4153.784041843,None,,,,,,,,,,,,,,,,,,,,,,,,,,,,,,,,,,,,,,,,,,,,001,10,2020_Jan_28_1106,spring_faces,3.1.5,60.20764798964231,
condition files/Stage1_2.xlsx,,B2,T2,m,"['c', 'm']","['Clue', 'Monopoly']","[-0.15, 0.5]","[0.15, 0.5]",1,1,,,,,,,,,0,7,7,7,0,1,1,3,,,,,,,,,,,,,,,,,,,,,,,,,,,,,,,,,,,,,,,,,,,,,,,,,,,,,,,4155.750612631001,None,4155.750612631001,None,4155.750612631001,None,m,1,0.9001347480007098,4157.285242465,None,4157.285242465,None,4157.285242465,None,4158.267612821,None,4158.267612821,None,4158.267612821,None,4158.267612821,None,,,,,,,,,,,,,,,,,,,,,,,,,,,,,,,,,,,,,,,,,,,,001,10,2020_Jan_28_1106,spring_faces,3.1.5,60.20764798964231,
condition files/Stage1_2.xlsx,,T1,B2,m,"['c', 'm']","['Clue', 'Monopoly']","[-0.15, 0.5]","[0.15, 0.5]",1,1,,,,,,,,,0,7,7,7,0,2,2,2,,,,,,,,,,,,,,,,,,,,,,,,,,,,,,,,,,,,,,,,,,,,,,,,,,,,,,,4160.217739159,None,4160.217739159,None,4160.217739159,None,m,1,1.0258546250006475,4161.767632082,None,4161.767632082,None,4161.767632082,None,4162.850670675,None,4162.850670675,None,4162.850670675,None,4162.850670675,None,,,,,,,,,,,,,,,,,,,,,,,,,,,,,,,,,,,,,,,,,,,,001,10,2020_Jan_28_1106,spring_faces,3.1.5,60.20764798964231,
condition files/Stage1_2.xlsx,,T2,B1,c,"['c', 'm']","['Clue', 'Monopoly']","[-0.15, 0.5]","[0.15, 0.5]",1,1,,,,,,,,,0,7,7,7,0,3,3,1,,,,,,,,,,,,,,,,,,,,,,,,,,,,,,,,,,,,,,,,,,,,,,,,,,,,,,,4164.817584863999,None,4164.817584863999,None,4164.817584863999,None,c,1,1.2251791619983123,4166.368302641999,None,4166.368302641999,None,4166.368302641999,None,4167.653402981,None,4167.653402981,None,4167.653402981,None,4167.653402981,None,,,,,,,,,,,,,,,,,,,,,,,,,,,,,,,,,,,,,,,,,,,,001,10,2020_Jan_28_1106,spring_faces,3.1.5,60.20764798964231,
condition files/Stage1_2.xlsx,,T3,B3,c,"['c', 'm']","['Clue', 'Monopoly']","[-0.15, 0.5]","[0.15, 0.5]",1,1,,,,,,,,,0,7,7,7,0,4,4,4,,,,,,,,,,,,,,,,,,,,,,,,,,,,,,,,,,,,,,,,,,,,,,,,,,,,,,,4169.617452163001,None,4169.617452163001,None,4169.617452163001,None,c,1,0.7768682120004087,4171.152544069001,None,4171.152544069001,None,4171.152544069001,None,4171.984206272001,None,4171.984206272001,None,4171.984206272001,None,4171.984206272001,None,,,,,,,,,,,,,,,,,,,,,,,,,,,,,,,,,,,,,,,,,,,,001,10,2020_Jan_28_1106,spring_faces,3.1.5,60.20764798964231,
condition files/Stage1_2.xlsx,,B3,T4,m,"['c', 'm']","['Clue', 'Monopoly']","[-0.15, 0.5]","[0.15, 0.5]",1,1,,,,,,,,,0,7,7,7,0,5,5,6,,,,,,,,,,,,,,,,,,,,,,,,,,,,,,,,,,,,,,,,,,,,,,,,,,,,,,,4173.950780304001,None,4173.950780304001,None,4173.950780304001,None,m,1,1.004531844999292,4175.500917539,None,4175.500917539,None,4175.500917539,None,4176.570307041001,None,4176.570307041001,None,4176.570307041001,None,4176.570307041001,None,,,,,,,,,,,,,,,,,,,,,,,,,,,,,,,,,,,,,,,,,,,,001,10,2020_Jan_28_1106,spring_faces,3.1.5,60.20764798964231,
condition files/Stage1_2.xlsx,,T4,B4,m,"['c', 'm']","['Clue', 'Monopoly']","[-0.15, 0.5]","[0.15, 0.5]",1,1,,,,,,,,,0,7,7,7,0,6,6,7,,,,,,,,,,,,,,,,,,,,,,,,,,,,,,,,,,,,,,,,,,,,,,,,,,,,,,,4178.534590225,None,4178.534590225,None,4178.534590225,None,m,1,0.8200352580006438,4180.069430419001,None,4180.069430419001,None,4180.069430419001,None,4180.9503616520005,None,4180.9503616520005,None,4180.9503616520005,None,4180.9503616520005,None,,,,,,,,,,,,,,,,,,,,,,,,,,,,,,,,,,,,,,,,,,,,001,10,2020_Jan_28_1106,spring_faces,3.1.5,60.20764798964231,
condition files/Stage1_2.xlsx,,B1,T1,c,"['c', 'm']","['Clue', 'Monopoly']","[-0.15, 0.5]","[0.15, 0.5]",1,1,,,,,,,,,0,7,7,7,0,7,7,0,,,,,,,,,,,,,,,,,,,,,,,,,,,,,,,,,,,,,,,,,,,,,,,,,,,,,,,4182.917307627999,None,4182.917307627999,None,4182.917307627999,None,c,1,1.0767836289996922,4184.452609886,None,4184.452609886,None,4184.452609886,None,4185.584123150001,None,4185.584123150001,None,4185.584123150001,None,4185.584123150001,None,,,,,,,,,,,,,,,,,,,,,,,,,,,,,,,,,,,,,,,,,,,,001,10,2020_Jan_28_1106,spring_faces,3.1.5,60.20764798964231,
condition files/Stage1_1.xlsx,,T3,B4,c,"['c', 'm']","['Clue', 'Monopoly']","[-0.15, 0.5]","[0.15, 0.5]",1,1,,,,,,,,,0,8,8,8,0,0,0,5,,,,,,,,,,,,,,,,,,,,,,,,,,,,,,,,,,,,,,,,,,,,,,,,,,,,,,,4187.567805238,None,4187.567805238,None,4187.567805238,None,c,1,0.812482514000294,4189.116907255001,None,4189.116907255001,None,4189.116907255001,None,4189.983694838001,None,4189.983694838001,None,4189.983694838001,None,4189.983694838001,None,,,,,,,,,,,,,,,,,,,,,,,,,,,,,,,,,,,,,,,,,,,,001,10,2020_Jan_28_1106,spring_faces,3.1.5,60.20764798964231,
condition files/Stage1_1.xlsx,,B2,T1,m,"['c', 'm']","['Clue', 'Monopoly']","[-0.15, 0.5]","[0.15, 0.5]",1,1,,,,,,,,,0,8,8,8,0,1,1,2,,,,,,,,,,,,,,,,,,,,,,,,,,,,,,,,,,,,,,,,,,,,,,,,,,,,,,,4191.950686486,None,4191.950686486,None,4191.950686486,None,m,1,0.9729446450000978,4193.500460396,None,4193.500460396,None,4193.500460396,None,4194.5340238359995,None,4194.5340238359995,None,4194.5340238359995,None,4194.5340238359995,None,,,,,,,,,,,,,,,,,,,,,,,,,,,,,,,,,,,,,,,,,,,,001,10,2020_Jan_28_1106,spring_faces,3.1.5,60.20764798964231,
condition files/Stage1_1.xlsx,,B3,T3,c,"['c', 'm']","['Clue', 'Monopoly']","[-0.15, 0.5]","[0.15, 0.5]",1,1,,,,,,,,,0,8,8,8,0,2,2,4,,,,,,,,,,,,,,,,,,,,,,,,,,,,,,,,,,,,,,,,,,,,,,,,,,,,,,,4196.5004025200005,None,4196.5004025200005,None,4196.5004025200005,None,c,1,0.855616615001054,4198.033853108001,None,4198.033853108001,None,4198.033853108001,None,4198.967161527999,None,4198.967161527999,None,4198.967161527999,None,4198.967161527999,None,,,,,,,,,,,,,,,,,,,,,,,,,,,,,,,,,,,,,,,,,,,,001,10,2020_Jan_28_1106,spring_faces,3.1.5,60.20764798964231,
condition files/Stage1_1.xlsx,,T2,B2,m,"['c', 'm']","['Clue', 'Monopoly']","[-0.15, 0.5]","[0.15, 0.5]",1,1,,,,,,,,,0,8,8,8,0,3,3,3,,,,,,,,,,,,,,,,,,,,,,,,,,,,,,,,,,,,,,,,,,,,,,,,,,,,,,,4200.917435048,None,4200.917435048,None,4200.917435048,None,m,1,1.0300360539986286,4202.467565619,None,4202.467565619,None,4202.467565619,None,4203.567595212001,None,4203.567595212001,None,4203.567595212001,None,4203.567595212001,None,,,,,,,,,,,,,,,,,,,,,,,,,,,,,,,,,,,,,,,,,,,,001,10,2020_Jan_28_1106,spring_faces,3.1.5,60.20764798964231,
condition files/Stage1_1.xlsx,,T4,B3,m,"['c', 'm']","['Clue', 'Monopoly']","[-0.15, 0.5]","[0.15, 0.5]",1,1,,,,,,,,,0,8,8,8,0,4,4,6,,,,,,,,,,,,,,,,,,,,,,,,,,,,,,,,,,,,,,,,,,,,,,,,,,,,,,,4205.517338946001,None,4205.517338946001,None,4205.517338946001,None,m,1,0.797939045000021,4207.067494895001,None,4207.067494895001,None,4207.067494895001,None,4207.917419394001,None,4207.917419394001,None,4207.917419394001,None,4207.917419394001,None,,,,,,,,,,,,,,,,,,,,,,,,,,,,,,,,,,,,,,,,,,,,001,10,2020_Jan_28_1106,spring_faces,3.1.5,60.20764798964231,
condition files/Stage1_1.xlsx,,B4,T4,m,"['c', 'm']","['Clue', 'Monopoly']","[-0.15, 0.5]","[0.15, 0.5]",1,1,,,,,,,,,0,8,8,8,0,5,5,7,,,,,,,,,,,,,,,,,,,,,,,,,,,,,,,,,,,,,,,,,,,,,,,,,,,,,,,4209.883781676,None,4209.883781676,None,4209.883781676,None,m,1,1.183222174000548,4211.434144899999,None,4211.434144899999,None,4211.434144899999,None,4212.667279784001,None,4212.667279784001,None,4212.667279784001,None,4212.667279784001,None,,,,,,,,,,,,,,,,,,,,,,,,,,,,,,,,,,,,,,,,,,,,001,10,2020_Jan_28_1106,spring_faces,3.1.5,60.20764798964231,
condition files/Stage1_1.xlsx,,T1,B1,c,"['c', 'm']","['Clue', 'Monopoly']","[-0.15, 0.5]","[0.15, 0.5]",1,1,,,,,,,,,0,8,8,8,0,6,6,0,,,,,,,,,,,,,,,,,,,,,,,,,,,,,,,,,,,,,,,,,,,,,,,,,,,,,,,4214.633740366001,None,4214.633740366001,None,4214.633740366001,None,c,1,1.2021544789986365,4216.167294731999,None,4216.167294731999,None,4216.167294731999,None,4217.435453290001,None,4217.435453290001,None,4217.435453290001,None,4217.435453290001,None,,,,,,,,,,,,,,,,,,,,,,,,,,,,,,,,,,,,,,,,,,,,001,10,2020_Jan_28_1106,spring_faces,3.1.5,60.20764798964231,
condition files/Stage1_1.xlsx,,B1,T2,c,"['c', 'm']","['Clue', 'Monopoly']","[-0.15, 0.5]","[0.15, 0.5]",1,1,,,,,,,,,0,8,8,8,0,7,7,1,,,,,,,,,,,,,,,,,,,,,,,,,,,,,,,,,,,,,,,,,,,,,,,,,,,,,,,4219.400461428001,None,4219.400461428001,None,4219.400461428001,None,c,1,0.7548128599992197,4220.934640538001,None,4220.934640538001,None,4220.934640538001,None,4221.750954968999,None,4221.750954968999,None,4221.750954968999,None,4221.750954968999,None,,,,,,,,,,,,,,,,,,,,,,,,,,,,,,,,,,,,,,,,,,,,001,10,2020_Jan_28_1106,spring_faces,3.1.5,60.20764798964231,
condition files/Stage1_2.xlsx,,T3,B3,c,"['c', 'm']","['Clue', 'Monopoly']","[-0.15, 0.5]","[0.15, 0.5]",1,1,,,,,,,,,0,9,9,9,0,0,0,4,,,,,,,,,,,,,,,,,,,,,,,,,,,,,,,,,,,,,,,,,,,,,,,,,,,,,,,4223.734345977001,None,4223.734345977001,None,4223.734345977001,None,c,1,1.2212368519994925,4225.268218279,None,4225.268218279,None,4225.268218279,None,4226.551234918,None,4226.551234918,None,4226.551234918,None,4226.551234918,None,,,,,,,,,,,,,,,,,,,,,,,,,,,,,,,,,,,,,,,,,,,,001,10,2020_Jan_28_1106,spring_faces,3.1.5,60.20764798964231,
condition files/Stage1_2.xlsx,,B3,T4,m,"['c', 'm']","['Clue', 'Monopoly']","[-0.15, 0.5]","[0.15, 0.5]",1,1,,,,,,,,,0,9,9,9,0,1,1,6,,,,,,,,,,,,,,,,,,,,,,,,,,,,,,,,,,,,,,,,,,,,,,,,,,,,,,,4228.517264588,None,4228.517264588,None,4228.517264588,None,m,1,0.9818205139999918,4230.067626775,None,4230.067626775,None,4230.067626775,None,4231.116994622001,None,4231.116994622001,None,4231.116994622001,None,4231.116994622001,None,,,,,,,,,,,,,,,,,,,,,,,,,,,,,,,,,,,,,,,,,,,,001,10,2020_Jan_28_1106,spring_faces,3.1.5,60.20764798964231,
condition files/Stage1_2.xlsx,,B4,T3,c,"['c', 'm']","['Clue', 'Monopoly']","[-0.15, 0.5]","[0.15, 0.5]",1,1,,,,,,,,,0,9,9,9,0,2,2,5,,,,,,,,,,,,,,,,,,,,,,,,,,,,,,,,,,,,,,,,,,,,,,,,,,,,,,,4233.067064423,None,4233.067064423,None,4233.067064423,None,c,1,0.7514907250006218,4234.6019647269995,None,4234.6019647269995,None,4234.6019647269995,None,4235.418654543001,None,4235.418654543001,None,4235.418654543001,None,4235.418654543001,None,,,,,,,,,,,,,,,,,,,,,,,,,,,,,,,,,,,,,,,,,,,,001,10,2020_Jan_28_1106,spring_faces,3.1.5,60.20764798964231,
condition files/Stage1_2.xlsx,,T4,B4,m,"['c', 'm']","['Clue', 'Monopoly']","[-0.15, 0.5]","[0.15, 0.5]",1,1,,,,,,,,,0,9,9,9,0,3,3,7,,,,,,,,,,,,,,,,,,,,,,,,,,,,,,,,,,,,,,,,,,,,,,,,,,,,,,,4237.383877984,None,4237.383877984,None,4237.383877984,None,m,1,0.8033896880006068,4238.934062859999,None,4238.934062859999,None,4238.934062859999,None,4239.802139924,None,4239.802139924,None,4239.802139924,None,4239.802139924,None,,,,,,,,,,,,,,,,,,,,,,,,,,,,,,,,,,,,,,,,,,,,001,10,2020_Jan_28_1106,spring_faces,3.1.5,60.20764798964231,
condition files/Stage1_2.xlsx,,T1,B2,m,"['c', 'm']","['Clue', 'Monopoly']","[-0.15, 0.5]","[0.15, 0.5]",1,1,,,,,,,,,0,9,9,9,0,4,4,2,,,,,,,,,,,,,,,,,,,,,,,,,,,,,,,,,,,,,,,,,,,,,,,,,,,,,,,4241.767776177,None,4241.767776177,None,4241.767776177,None,m,1,1.682123500999296,4243.303248058,None,4243.303248058,None,4243.303248058,None,4245.051293738,None,4245.051293738,None,4245.051293738,None,4245.051293738,None,,,,,,,,,,,,,,,,,,,,,,,,,,,,,,,,,,,,,,,,,,,,001,10,2020_Jan_28_1106,spring_faces,3.1.5,60.20764798964231,
condition files/Stage1_2.xlsx,,B2,T2,m,"['c', 'm']","['Clue', 'Monopoly']","[-0.15, 0.5]","[0.15, 0.5]",1,1,,,,,,,,,0,9,9,9,0,5,5,3,,,,,,,,,,,,,,,,,,,,,,,,,,,,,,,,,,,,,,,,,,,,,,,,,,,,,,,4247.017110084999,None,4247.017110084999,None,4247.017110084999,None,m,1,0.9296443839994026,4248.567767816,None,4248.567767816,None,4248.567767816,None,4249.550689797,None,4249.550689797,None,4249.550689797,None,4249.550689797,None,,,,,,,,,,,,,,,,,,,,,,,,,,,,,,,,,,,,,,,,,,,,001,10,2020_Jan_28_1106,spring_faces,3.1.5,60.20764798964231,
condition files/Stage1_2.xlsx,,B1,T1,c,"['c', 'm']","['Clue', 'Monopoly']","[-0.15, 0.5]","[0.15, 0.5]",1,1,,,,,,,,,0,9,9,9,0,6,6,0,,,,,,,,,,,,,,,,,,,,,,,,,,,,,,,,,,,,,,,,,,,,,,,,,,,,,,,4251.517145944,None,4251.517145944,None,4251.517145944,None,c,1,0.7641308180009219,4253.053262095001,None,4253.053262095001,None,4253.053262095001,None,4253.869560051001,None,4253.869560051001,None,4253.869560051001,None,4253.869560051001,None,,,,,,,,,,,,,,,,,,,,,,,,,,,,,,,,,,,,,,,,,,,,001,10,2020_Jan_28_1106,spring_faces,3.1.5,60.20764798964231,
condition files/Stage1_2.xlsx,,T2,B1,c,"['c', 'm']","['Clue', 'Monopoly']","[-0.15, 0.5]","[0.15, 0.5]",1,1,,,,,,,,,0,9,9,9,0,7,7,1,,,,,,,,,,,,,,,,,,,,,,,,,,,,,,,,,,,,,,,,,,,,,,,,,,,,,,,4255.833543670001,None,4255.833543670001,None,4255.833543670001,None,c,1,1.2661905810000462,4257.36728732,None,4257.36728732,None,4257.36728732,None,4258.684543827,None,4258.684543827,None,4258.684543827,None,4258.684543827,None,,,,,,,,,,,,,,,,,,,,,,,,,,,,,,,,,,,,,,,,,,,,001,10,2020_Jan_28_1106,spring_faces,3.1.5,60.20764798964231,
condition files/Stage1_1.xlsx,,B1,T2,c,"['c', 'm']","['Clue', 'Monopoly']","[-0.15, 0.5]","[0.15, 0.5]",1,1,,,,,,,,,0,10,10,10,0,0,0,1,,,,,,,,,,,,,,,,,,,,,,,,,,,,,,,,,,,,,,,,,,,,,,,,,,,,,,,4260.667530942,None,4260.667530942,None,4260.667530942,None,c,1,0.6400622490000387,4262.217401318,None,4262.217401318,None,4262.217401318,None,4262.916998594,None,4262.916998594,None,4262.916998594,None,4262.916998594,None,,,,,,,,,,,,,,,,,,,,,,,,,,,,,,,,,,,,,,,,,,,,001,10,2020_Jan_28_1106,spring_faces,3.1.5,60.20764798964231,
condition files/Stage1_1.xlsx,,T2,B2,m,"['c', 'm']","['Clue', 'Monopoly']","[-0.15, 0.5]","[0.15, 0.5]",1,1,,,,,,,,,0,10,10,10,0,1,1,3,,,,,,,,,,,,,,,,,,,,,,,,,,,,,,,,,,,,,,,,,,,,,,,,,,,,,,,4264.883993238001,None,4264.883993238001,None,4264.883993238001,None,m,1,0.8537385759991594,4266.419726368001,None,4266.419726368001,None,4266.419726368001,None,4267.351370713,None,4267.351370713,None,4267.351370713,None,4267.351370713,None,,,,,,,,,,,,,,,,,,,,,,,,,,,,,,,,,,,,,,,,,,,,001,10,2020_Jan_28_1106,spring_faces,3.1.5,60.20764798964231,
condition files/Stage1_1.xlsx,,T3,B4,c,"['c', 'm']","['Clue', 'Monopoly']","[-0.15, 0.5]","[0.15, 0.5]",1,1,,,,,,,,,0,10,10,10,0,2,2,5,,,,,,,,,,,,,,,,,,,,,,,,,,,,,,,,,,,,,,,,,,,,,,,,,,,,,,,4269.300356383,None,4269.300356383,None,4269.300356383,None,c,1,0.9825386299999082,4270.850915743001,None,4270.850915743001,None,4270.850915743001,None,4271.9010729070005,None,4271.9010729070005,None,4271.9010729070005,None,4271.9010729070005,None,,,,,,,,,,,,,,,,,,,,,,,,,,,,,,,,,,,,,,,,,,,,001,10,2020_Jan_28_1106,spring_faces,3.1.5,60.20764798964231,
condition files/Stage1_1.xlsx,,B3,T3,c,"['c', 'm']","['Clue', 'Monopoly']","[-0.15, 0.5]","[0.15, 0.5]",1,1,,,,,,,,,0,10,10,10,0,3,3,4,,,,,,,,,,,,,,,,,,,,,,,,,,,,,,,,,,,,,,,,,,,,,,,,,,,,,,,4273.85054366,None,4273.85054366,None,4273.85054366,None,c,1,1.168733787999372,4275.384704192999,None,4275.384704192999,None,4275.384704192999,None,4276.617434499,None,4276.617434499,None,4276.617434499,None,4276.617434499,None,,,,,,,,,,,,,,,,,,,,,,,,,,,,,,,,,,,,,,,,,,,,001,10,2020_Jan_28_1106,spring_faces,3.1.5,60.20764798964231,
condition files/Stage1_1.xlsx,,T4,B3,m,"['c', 'm']","['Clue', 'Monopoly']","[-0.15, 0.5]","[0.15, 0.5]",1,1,,,,,,,,,0,10,10,10,0,4,4,6,,,,,,,,,,,,,,,,,,,,,,,,,,,,,,,,,,,,,,,,,,,,,,,,,,,,,,,4278.583978303,None,4278.583978303,None,4278.583978303,None,m,1,1.3304871810014447,4280.118986109,None,4280.118986109,None,4280.118986109,None,4281.517656451001,None,4281.517656451001,None,4281.517656451001,None,4281.517656451001,None,,,,,,,,,,,,,,,,,,,,,,,,,,,,,,,,,,,,,,,,,,,,001,10,2020_Jan_28_1106,spring_faces,3.1.5,60.20764798964231,
condition files/Stage1_1.xlsx,,T1,B1,c,"['c', 'm']","['Clue', 'Monopoly']","[-0.15, 0.5]","[0.15, 0.5]",1,1,,,,,,,,,0,10,10,10,0,5,5,0,,,,,,,,,,,,,,,,,,,,,,,,,,,,,,,,,,,,,,,,,,,,,,,,,,,,,,,4283.4669558020005,None,4283.4669558020005,None,4283.4669558020005,None,c,1,1.0560019980002835,4285.001481254,None,4285.001481254,None,4285.001481254,None,4286.11892867,None,4286.11892867,None,4286.11892867,None,4286.11892867,None,,,,,,,,,,,,,,,,,,,,,,,,,,,,,,,,,,,,,,,,,,,,001,10,2020_Jan_28_1106,spring_faces,3.1.5,60.20764798964231,
condition files/Stage1_1.xlsx,,B4,T4,m,"['c', 'm']","['Clue', 'Monopoly']","[-0.15, 0.5]","[0.15, 0.5]",1,1,,,,,,,,,0,10,10,10,0,6,6,7,,,,,,,,,,,,,,,,,,,,,,,,,,,,,,,,,,,,,,,,,,,,,,,,,,,,,,,4288.084112115,None,4288.084112115,None,4288.084112115,None,m,1,1.495246163000047,4289.618191417,None,4289.618191417,None,4289.618191417,None,4291.18377031,None,4291.18377031,None,4291.18377031,None,4291.18377031,None,,,,,,,,,,,,,,,,,,,,,,,,,,,,,,,,,,,,,,,,,,,,001,10,2020_Jan_28_1106,spring_faces,3.1.5,60.20764798964231,
condition files/Stage1_1.xlsx,,B2,T1,m,"['c', 'm']","['Clue', 'Monopoly']","[-0.15, 0.5]","[0.15, 0.5]",1,1,,,,,,,,,0,10,10,10,0,7,7,2,,,,,,,,,,,,,,,,,,,,,,,,,,,,,,,,,,,,,,,,,,,,,,,,,,,,,,,4293.134120136,None,4293.134120136,None,4293.134120136,None,m,1,0.9259127909990639,4294.667594436,None,4294.667594436,None,4294.667594436,None,4295.650785098001,None,4295.650785098001,None,4295.650785098001,None,4295.650785098001,None,,,,,,,,,,,,,,,,,,,,,,,,,,,,,,,,,,,,,,,,,,,,001,10,2020_Jan_28_1106,spring_faces,3.1.5,60.20764798964231,
condition files/Stage1_2.xlsx,,B1,T1,c,"['c', 'm']","['Clue', 'Monopoly']","[-0.15, 0.5]","[0.15, 0.5]",1,1,,,,,,,,,0,11,11,11,0,0,0,0,,,,,,,,,,,,,,,,,,,,,,,,,,,,,,,,,,,,,,,,,,,,,,,,,,,,,,,4297.634520382001,None,4297.634520382001,None,4297.634520382001,None,c,1,0.7776943040007609,4299.167736986,None,4299.167736986,None,4299.167736986,None,4300.003470248,None,4300.003470248,None,4300.003470248,None,4300.003470248,None,,,,,,,,,,,,,,,,,,,,,,,,,,,,,,,,,,,,,,,,,,,,001,10,2020_Jan_28_1106,spring_faces,3.1.5,60.20764798964231,
condition files/Stage1_2.xlsx,,B3,T4,m,"['c', 'm']","['Clue', 'Monopoly']","[-0.15, 0.5]","[0.15, 0.5]",1,1,,,,,,,,,0,11,11,11,0,1,1,6,,,,,,,,,,,,,,,,,,,,,,,,,,,,,,,,,,,,,,,,,,,,,,,,,,,,,,,4301.966651434,None,4301.966651434,None,4301.966651434,None,m,1,1.0199967089993152,4303.517462072,None,4303.517462072,None,4303.517462072,None,4304.602884886,None,4304.602884886,None,4304.602884886,None,4304.602884886,None,,,,,,,,,,,,,,,,,,,,,,,,,,,,,,,,,,,,,,,,,,,,001,10,2020_Jan_28_1106,spring_faces,3.1.5,60.20764798964231,
condition files/Stage1_2.xlsx,,T1,B2,m,"['c', 'm']","['Clue', 'Monopoly']","[-0.15, 0.5]","[0.15, 0.5]",1,1,,,,,,,,,0,11,11,11,0,2,2,2,,,,,,,,,,,,,,,,,,,,,,,,,,,,,,,,,,,,,,,,,,,,,,,,,,,,,,,4306.567916117,None,4306.567916117,None,4306.567916117,None,m,1,1.380442331001177,4308.1009867269995,None,4308.1009867269995,None,4308.1009867269995,None,4309.533918343,None,4309.533918343,None,4309.533918343,None,4309.533918343,None,,,,,,,,,,,,,,,,,,,,,,,,,,,,,,,,,,,,,,,,,,,,001,10,2020_Jan_28_1106,spring_faces,3.1.5,60.20764798964231,
condition files/Stage1_2.xlsx,,B2,T2,m,"['c', 'm']","['Clue', 'Monopoly']","[-0.15, 0.5]","[0.15, 0.5]",1,1,,,,,,,,,0,11,11,11,0,3,3,3,,,,,,,,,,,,,,,,,,,,,,,,,,,,,,,,,,,,,,,,,,,,,,,,,,,,,,,4311.500297040001,None,4311.500297040001,None,4311.500297040001,None,m,1,1.0065092089989776,4313.050954343001,None,4313.050954343001,None,4313.050954343001,None,4314.117356361,None,4314.117356361,None,4314.117356361,None,4314.117356361,None,,,,,,,,,,,,,,,,,,,,,,,,,,,,,,,,,,,,,,,,,,,,001,10,2020_Jan_28_1106,spring_faces,3.1.5,60.20764798964231,
condition files/Stage1_2.xlsx,,T2,B1,c,"['c', 'm']","['Clue', 'Monopoly']","[-0.15, 0.5]","[0.15, 0.5]",1,1,,,,,,,,,0,11,11,11,0,4,4,1,,,,,,,,,,,,,,,,,,,,,,,,,,,,,,,,,,,,,,,,,,,,,,,,,,,,,,,4316.083559769001,None,4316.083559769001,None,4316.083559769001,None,c,1,0.8240108440004406,4317.61747677,None,4317.61747677,None,4317.61747677,None,4318.517556627,None,4318.517556627,None,4318.517556627,None,4318.517556627,None,,,,,,,,,,,,,,,,,,,,,,,,,,,,,,,,,,,,,,,,,,,,001,10,2020_Jan_28_1106,spring_faces,3.1.5,60.20764798964231,
condition files/Stage1_2.xlsx,,T4,B4,m,"['c', 'm']","['Clue', 'Monopoly']","[-0.15, 0.5]","[0.15, 0.5]",1,1,,,,,,,,,0,11,11,11,0,5,5,7,,,,,,,,,,,,,,,,,,,,,,,,,,,,,,,,,,,,,,,,,,,,,,,,,,,,,,,4320.467362487,None,4320.467362487,None,4320.467362487,None,m,1,0.9830220620006003,4322.002315697001,None,4322.002315697001,None,4322.002315697001,None,4323.051674304,None,4323.051674304,None,4323.051674304,None,4323.051674304,None,,,,,,,,,,,,,,,,,,,,,,,,,,,,,,,,,,,,,,,,,,,,001,10,2020_Jan_28_1106,spring_faces,3.1.5,60.20764798964231,
condition files/Stage1_2.xlsx,,T3,B3,c,"['c', 'm']","['Clue', 'Monopoly']","[-0.15, 0.5]","[0.15, 0.5]",1,1,,,,,,,,,0,11,11,11,0,6,6,4,,,,,,,,,,,,,,,,,,,,,,,,,,,,,,,,,,,,,,,,,,,,,,,,,,,,,,,4325.016864112001,None,4325.016864112001,None,4325.016864112001,None,c,1,0.9141387899999245,4326.551288733,None,4326.551288733,None,4326.551288733,None,4327.519320311,None,4327.519320311,None,4327.519320311,None,4327.519320311,None,,,,,,,,,,,,,,,,,,,,,,,,,,,,,,,,,,,,,,,,,,,,001,10,2020_Jan_28_1106,spring_faces,3.1.5,60.20764798964231,
condition files/Stage1_2.xlsx,,B4,T3,c,"['c', 'm']","['Clue', 'Monopoly']","[-0.15, 0.5]","[0.15, 0.5]",1,1,,,,,,,,,0,11,11,11,0,7,7,5,,,,,,,,,,,,,,,,,,,,,,,,,,,,,,,,,,,,,,,,,,,,,,,,,,,,,,,4329.483616737,None,4329.483616737,None,4329.483616737,None,c,1,0.8468763769997167,4331.034497209,None,4331.034497209,None,4331.034497209,None,4331.934120422001,None,4331.934120422001,None,4331.934120422001,None,4331.934120422001,None,,,,,,,,,,,,,,,,,,,,,,,,,,,,,,,,,,,,,,,,,,,,001,10,2020_Jan_28_1106,spring_faces,3.1.5,60.20764798964231,
,,,,,,,,,,,,,,,,,,,,,,,,,,,,,,,,,,,,,,,,,,,,,,,,,,,,,,,,,,,,,,,,,,,,,,,,,,,,,,,,,,,,,,,,,,,,,,,,,,,,,,,,,,,,,,,,4333.917606466,None,space,9.14018389299963,4338.917290984001,None,,,,,,,,,,,,,,,,,,,,,,,,,,,,,,001,10,2020_Jan_28_1106,spring_faces,3.1.5,60.20764798964231,
condition files/Stage2_1.xlsx,,B4,T4,r,"['s', 'r']","['Stratego', 'Risk']","[-0.15, 0.5]","[0.15, 0.5]",1,1,,,,,,,,,,,,,,,,,0,0,0,0,0,0,0,5,,,,,,,,,,,,,,,,,,,,,,,,,,,,,,,,,,,,,,,,,,,,,,,4348.15084084,None,4348.15084084,None,4348.15084084,None,r,1,1.399610477999886,4349.633849349001,None,4349.633849349001,None,4349.633849349001,None,4351.086744824,None,4351.086744824,None,4351.086744824,None,4351.086744824,None,,,,,,,,,,,,,,,4338.917290984001,None,,,,,,,,,,,,,,,,,,,,,,,,,,,,001,10,2020_Jan_28_1106,spring_faces,3.1.5,60.20764798964231,
condition files/Stage2_1.xlsx,,T3,B3,s,"['s', 'r']","['Stratego', 'Risk']","[-0.15, 0.5]","[0.15, 0.5]",1,1,,,,,,,,,,,,,,,,,0,0,0,0,0,1,1,4,,,,,,,,,,,,,,,,,,,,,,,,,,,,,,,,,,,,,,,,,,,,,,,4353.050080690001,None,4353.050080690001,None,4353.050080690001,None,s,1,0.9925977040002181,4354.60090479,None,4354.60090479,None,4354.60090479,None,4355.667805866001,None,4355.667805866001,None,4355.667805866001,None,4355.667805866001,None,,,,,,,,,,,,,,,,,,,,,,,,,,,,,,,,,,,,,,,,,,,,001,10,2020_Jan_28_1106,spring_faces,3.1.5,60.20764798964231,
condition files/Stage2_1.xlsx,,T1,B1,s,"['s', 'r']","['Stratego', 'Risk']","[-0.15, 0.5]","[0.15, 0.5]",1,1,,,,,,,,,,,,,,,,,0,0,0,0,0,2,2,2,,,,,,,,,,,,,,,,,,,,,,,,,,,,,,,,,,,,,,,,,,,,,,,4357.617299044,None,4357.617299044,None,4357.617299044,None,s,1,0.9549657670013403,4359.15050742,None,4359.15050742,None,4359.15050742,None,4360.168033044,None,4360.168033044,None,4360.168033044,None,4360.168033044,None,,,,,,,,,,,,,,,,,,,,,,,,,,,,,,,,,,,,,,,,,,,,001,10,2020_Jan_28_1106,spring_faces,3.1.5,60.20764798964231,
condition files/Stage2_1.xlsx,,B2,T2,r,"['s', 'r']","['Stratego', 'Risk']","[-0.15, 0.5]","[0.15, 0.5]",1,1,,,,,,,,,,,,,,,,,0,0,0,0,0,3,3,3,,,,,,,,,,,,,,,,,,,,,,,,,,,,,,,,,,,,,,,,,,,,,,,4362.134052304001,None,4362.134052304001,None,4362.134052304001,None,r,1,0.7573610760009615,4363.684106858001,None,4363.684106858001,None,4363.684106858001,None,4364.517885073,None,4364.517885073,None,4364.517885073,None,4364.517885073,None,,,,,,,,,,,,,,,,,,,,,,,,,,,,,,,,,,,,,,,,,,,,001,10,2020_Jan_28_1106,spring_faces,3.1.5,60.20764798964231,
condition files/Stage2_1.xlsx,,T5,B5,s,"['s', 'r']","['Stratego', 'Risk']","[-0.15, 0.5]","[0.15, 0.5]",1,1,,,,,,,,,,,,,,,,,0,0,0,0,0,4,4,0,,,,,,,,,,,,,,,,,,,,,,,,,,,,,,,,,,,,,,,,,,,,,,,4366.467363762001,None,4366.467363762001,None,4366.467363762001,None,s,1,1.6706607689993689,4368.05080559,None,4368.05080559,None,4368.05080559,None,4369.783842903001,None,4369.783842903001,None,4369.783842903001,None,4369.783842903001,None,,,,,,,,,,,,,,,,,,,,,,,,,,,,,,,,,,,,,,,,,,,,001,10,2020_Jan_28_1106,spring_faces,3.1.5,60.20764798964231,
condition files/Stage2_1.xlsx,,B6,T6,r,"['s', 'r']","['Stratego', 'Risk']","[-0.15, 0.5]","[0.15, 0.5]",1,1,,,,,,,,,,,,,,,,,0,0,0,0,0,5,5,1,,,,,,,,,,,,,,,,,,,,,,,,,,,,,,,,,,,,,,,,,,,,,,,4371.750098228999,None,4371.750098228999,None,4371.750098228999,None,r,1,1.4265860819996306,4373.36697201,None,4373.36697201,None,4373.36697201,None,4374.8529120289995,None,4374.8529120289995,None,4374.8529120289995,None,4374.8529120289995,None,,,,,,,,,,,,,,,,,,,,,,,,,,,,,,,,,,,,,,,,,,,,001,10,2020_Jan_28_1106,spring_faces,3.1.5,60.20764798964231,
condition files/Stage2_2.xlsx,,B1,T1,s,"['s', 'r']","['Stratego', 'Risk']","[-0.15, 0.5]","[0.15, 0.5]",1,1,,,,,,,,,,,,,,,,,0,1,1,1,0,0,0,2,,,,,,,,,,,,,,,,,,,,,,,,,,,,,,,,,,,,,,,,,,,,,,,4376.884315938,None,4376.884315938,None,4376.884315938,None,s,1,1.1454989220001153,4378.3679517949995,None,4378.3679517949995,None,4378.3679517949995,None,4379.569954149,None,4379.569954149,None,4379.569954149,None,4379.569954149,None,,,,,,,,,,,,,,,,,,,,,,,,,,,,,,,,,,,,,,,,,,,,001,10,2020_Jan_28_1106,spring_faces,3.1.5,60.20764798964231,
condition files/Stage2_2.xlsx,,T6,B6,r,"['s', 'r']","['Stratego', 'Risk']","[-0.15, 0.5]","[0.15, 0.5]",1,1,,,,,,,,,,,,,,,,,0,1,1,1,0,1,1,1,,,,,,,,,,,,,,,,,,,,,,,,,,,,,,,,,,,,,,,,,,,,,,,4381.533384458001,None,4381.533384458001,None,4381.533384458001,None,r,1,0.7494263170010527,4383.084027756001,None,4383.084027756001,None,4383.084027756001,None,4383.901162532001,None,4383.901162532001,None,4383.901162532001,None,4383.901162532001,None,,,,,,,,,,,,,,,,,,,,,,,,,,,,,,,,,,,,,,,,,,,,001,10,2020_Jan_28_1106,spring_faces,3.1.5,60.20764798964231,
condition files/Stage2_2.xlsx,,B3,T3,s,"['s', 'r']","['Stratego', 'Risk']","[-0.15, 0.5]","[0.15, 0.5]",1,1,,,,,,,,,,,,,,,,,0,1,1,1,0,2,2,4,,,,,,,,,,,,,,,,,,,,,,,,,,,,,,,,,,,,,,,,,,,,,,,4385.8506855860005,None,4385.8506855860005,None,4385.8506855860005,None,s,1,1.4089378210010182,4387.400546039001,None,4387.400546039001,None,4387.400546039001,None,4388.869846047,None,4388.869846047,None,4388.869846047,None,4388.869846047,None,,,,,,,,,,,,,,,,,,,,,,,,,,,,,,,,,,,,,,,,,,,,001,10,2020_Jan_28_1106,spring_faces,3.1.5,60.20764798964231,
condition files/Stage2_2.xlsx,,B5,T5,s,"['s', 'r']","['Stratego', 'Risk']","[-0.15, 0.5]","[0.15, 0.5]",1,1,,,,,,,,,,,,,,,,,0,1,1,1,0,3,3,0,,,,,,,,,,,,,,,,,,,,,,,,,,,,,,,,,,,,,,,,,,,,,,,4390.833939739,None,4390.833939739,None,4390.833939739,None,r,0,2.05777520599986,4392.3837086329995,None,4392.3837086329995,None,4392.3837086329995,None,4394.500359980001,None,4394.500359980001,None,4394.500359980001,None,4394.500359980001,None,,,,,,,,,,,,,,,,,,,,,,,,,,,,,,,,,,,,,,,,,,,,001,10,2020_Jan_28_1106,spring_faces,3.1.5,60.20764798964231,
condition files/Stage2_2.xlsx,,T2,B2,r,"['s', 'r']","['Stratego', 'Risk']","[-0.15, 0.5]","[0.15, 0.5]",1,1,,,,,,,,,,,,,,,,,0,1,1,1,0,4,4,3,,,,,,,,,,,,,,,,,,,,,,,,,,,,,,,,,,,,,,,,,,,,,,,4396.467008224,None,4396.467008224,None,4396.467008224,None,r,1,1.1278541030005726,4398.017546119,None,4398.017546119,None,4398.017546119,None,4399.217150781999,None,4399.217150781999,None,4399.217150781999,None,4399.217150781999,None,,,,,,,,,,,,,,,,,,,,,,,,,,,,,,,,,,,,,,,,,,,,001,10,2020_Jan_28_1106,spring_faces,3.1.5,60.20764798964231,
condition files/Stage2_2.xlsx,,T4,B4,r,"['s', 'r']","['Stratego', 'Risk']","[-0.15, 0.5]","[0.15, 0.5]",1,1,,,,,,,,,,,,,,,,,0,1,1,1,0,5,5,5,,,,,,,,,,,,,,,,,,,,,,,,,,,,,,,,,,,,,,,,,,,,,,,4401.167031805001,None,4401.167031805001,None,4401.167031805001,None,r,1,1.6122310670016304,4402.7171981149995,None,4402.7171981149995,None,4402.7171981149995,None,4404.383962234001,None,4404.383962234001,None,4404.383962234001,None,4404.383962234001,None,,,,,,,,,,,,,,,,,,,,,,,,,,,,,,,,,,,,,,,,,,,,001,10,2020_Jan_28_1106,spring_faces,3.1.5,60.20764798964231,
condition files/Stage2_1.xlsx,,T1,B1,s,"['s', 'r']","['Stratego', 'Risk']","[-0.15, 0.5]","[0.15, 0.5]",1,1,,,,,,,,,,,,,,,,,0,2,2,2,0,0,0,2,,,,,,,,,,,,,,,,,,,,,,,,,,,,,,,,,,,,,,,,,,,,,,,4406.367585505,None,4406.367585505,None,4406.367585505,None,s,1,1.147783956999774,4407.901742325,None,4407.901742325,None,4407.901742325,None,4409.117624205,None,4409.117624205,None,4409.117624205,None,4409.117624205,None,,,,,,,,,,,,,,,,,,,,,,,,,,,,,,,,,,,,,,,,,,,,001,10,2020_Jan_28_1106,spring_faces,3.1.5,60.20764798964231,
condition files/Stage2_1.xlsx,,B2,T2,r,"['s', 'r']","['Stratego', 'Risk']","[-0.15, 0.5]","[0.15, 0.5]",1,1,,,,,,,,,,,,,,,,,0,2,2,2,0,1,1,3,,,,,,,,,,,,,,,,,,,,,,,,,,,,,,,,,,,,,,,,,,,,,,,4411.067333349,None,4411.067333349,None,4411.067333349,None,r,1,0.7515504029997828,4412.617834330001,None,4412.617834330001,None,4412.617834330001,None,4413.451110369001,None,4413.451110369001,None,4413.451110369001,None,4413.451110369001,None,,,,,,,,,,,,,,,,,,,,,,,,,,,,,,,,,,,,,,,,,,,,001,10,2020_Jan_28_1106,spring_faces,3.1.5,60.20764798964231,
condition files/Stage2_1.xlsx,,B4,T4,r,"['s', 'r']","['Stratego', 'Risk']","[-0.15, 0.5]","[0.15, 0.5]",1,1,,,,,,,,,,,,,,,,,0,2,2,2,0,2,2,5,,,,,,,,,,,,,,,,,,,,,,,,,,,,,,,,,,,,,,,,,,,,,,,4415.400114634001,None,4415.400114634001,None,4415.400114634001,None,r,1,0.9143691410008614,4416.935104806001,None,4416.935104806001,None,4416.935104806001,None,4417.901079131,None,4417.901079131,None,4417.901079131,None,4417.901079131,None,,,,,,,,,,,,,,,,,,,,,,,,,,,,,,,,,,,,,,,,,,,,001,10,2020_Jan_28_1106,spring_faces,3.1.5,60.20764798964231,
condition files/Stage2_1.xlsx,,B6,T6,r,"['s', 'r']","['Stratego', 'Risk']","[-0.15, 0.5]","[0.15, 0.5]",1,1,,,,,,,,,,,,,,,,,0,2,2,2,0,3,3,1,,,,,,,,,,,,,,,,,,,,,,,,,,,,,,,,,,,,,,,,,,,,,,,4419.867010474,None,4419.867010474,None,4419.867010474,None,r,1,0.8791903639994416,4421.402244965001,None,4421.402244965001,None,4421.402244965001,None,4422.333871960001,None,4422.333871960001,None,4422.333871960001,None,4422.333871960001,None,,,,,,,,,,,,,,,,,,,,,,,,,,,,,,,,,,,,,,,,,,,,001,10,2020_Jan_28_1106,spring_faces,3.1.5,60.20764798964231,
condition files/Stage2_1.xlsx,,T5,B5,s,"['s', 'r']","['Stratego', 'Risk']","[-0.15, 0.5]","[0.15, 0.5]",1,1,,,,,,,,,,,,,,,,,0,2,2,2,0,4,4,0,,,,,,,,,,,,,,,,,,,,,,,,,,,,,,,,,,,,,,,,,,,,,,,4424.300442238001,None,4424.300442238001,None,4424.300442238001,None,r,0,0.8782967760016618,4425.851125845999,None,4425.851125845999,None,4425.851125845999,None,4426.785868458,None,4426.785868458,None,4426.785868458,None,4426.785868458,None,,,,,,,,,,,,,,,,,,,,,,,,,,,,,,,,,,,,,,,,,,,,001,10,2020_Jan_28_1106,spring_faces,3.1.5,60.20764798964231,
condition files/Stage2_1.xlsx,,T3,B3,s,"['s', 'r']","['Stratego', 'Risk']","[-0.15, 0.5]","[0.15, 0.5]",1,1,,,,,,,,,,,,,,,,,0,2,2,2,0,5,5,4,,,,,,,,,,,,,,,,,,,,,,,,,,,,,,,,,,,,,,,,,,,,,,,4428.750954813001,None,4428.750954813001,None,4428.750954813001,None,s,1,1.4680440470001486,4430.285399327001,None,4430.285399327001,None,4430.285399327001,None,4431.817598707,None,4431.817598707,None,4431.817598707,None,4431.817598707,None,,,,,,,,,,,,,,,,,,,,,,,,,,,,,,,,,,,,,,,,,,,,001,10,2020_Jan_28_1106,spring_faces,3.1.5,60.20764798964231,
condition files/Stage2_2.xlsx,,T2,B2,r,"['s', 'r']","['Stratego', 'Risk']","[-0.15, 0.5]","[0.15, 0.5]",1,1,,,,,,,,,,,,,,,,,0,3,3,3,0,0,0,3,,,,,,,,,,,,,,,,,,,,,,,,,,,,,,,,,,,,,,,,,,,,,,,4433.800163045999,None,4433.800163045999,None,4433.800163045999,None,r,1,0.7065629890003038,4435.33493303,None,4435.33493303,None,4435.33493303,None,4436.101845197,None,4436.101845197,None,4436.101845197,None,4436.101845197,None,,,,,,,,,,,,,,,,,,,,,,,,,,,,,,,,,,,,,,,,,,,,001,10,2020_Jan_28_1106,spring_faces,3.1.5,60.20764798964231,
condition files/Stage2_2.xlsx,,B3,T3,s,"['s', 'r']","['Stratego', 'Risk']","[-0.15, 0.5]","[0.15, 0.5]",1,1,,,,,,,,,,,,,,,,,0,3,3,3,0,1,1,4,,,,,,,,,,,,,,,,,,,,,,,,,,,,,,,,,,,,,,,,,,,,,,,4438.067365468,None,4438.067365468,None,4438.067365468,None,s,1,0.8570218439999735,4439.600405794,None,4439.600405794,None,4439.600405794,None,4440.534156256,None,4440.534156256,None,4440.534156256,None,4440.534156256,None,,,,,,,,,,,,,,,,,,,,,,,,,,,,,,,,,,,,,,,,,,,,001,10,2020_Jan_28_1106,spring_faces,3.1.5,60.20764798964231,
condition files/Stage2_2.xlsx,,T6,B6,r,"['s', 'r']","['Stratego', 'Risk']","[-0.15, 0.5]","[0.15, 0.5]",1,1,,,,,,,,,,,,,,,,,0,3,3,3,0,2,2,1,,,,,,,,,,,,,,,,,,,,,,,,,,,,,,,,,,,,,,,,,,,,,,,4442.483960482,None,4442.483960482,None,4442.483960482,None,r,1,0.7601656030001323,4444.017322308001,None,4444.017322308001,None,4444.017322308001,None,4444.850563790001,None,4444.850563790001,None,4444.850563790001,None,4444.850563790001,None,,,,,,,,,,,,,,,,,,,,,,,,,,,,,,,,,,,,,,,,,,,,001,10,2020_Jan_28_1106,spring_faces,3.1.5,60.20764798964231,
condition files/Stage2_2.xlsx,,B1,T1,s,"['s', 'r']","['Stratego', 'Risk']","[-0.15, 0.5]","[0.15, 0.5]",1,1,,,,,,,,,,,,,,,,,0,3,3,3,0,3,3,2,,,,,,,,,,,,,,,,,,,,,,,,,,,,,,,,,,,,,,,,,,,,,,,4446.799998244001,None,4446.799998244001,None,4446.799998244001,None,s,1,1.514639270999396,4448.334830859,None,4448.334830859,None,4448.334830859,None,4449.902744902,None,4449.902744902,None,4449.902744902,None,4449.902744902,None,,,,,,,,,,,,,,,,,,,,,,,,,,,,,,,,,,,,,,,,,,,,001,10,2020_Jan_28_1106,spring_faces,3.1.5,60.20764798964231,
condition files/Stage2_2.xlsx,,T4,B4,r,"['s', 'r']","['Stratego', 'Risk']","[-0.15, 0.5]","[0.15, 0.5]",1,1,,,,,,,,,,,,,,,,,0,3,3,3,0,4,4,5,,,,,,,,,,,,,,,,,,,,,,,,,,,,,,,,,,,,,,,,,,,,,,,4451.866791216999,None,4451.866791216999,None,4451.866791216999,None,r,1,0.7354988060014875,4453.401972155,None,4453.401972155,None,4453.401972155,None,4454.201162620001,None,4454.201162620001,None,4454.201162620001,None,4454.201162620001,None,,,,,,,,,,,,,,,,,,,,,,,,,,,,,,,,,,,,,,,,,,,,001,10,2020_Jan_28_1106,spring_faces,3.1.5,60.20764798964231,
condition files/Stage2_2.xlsx,,B5,T5,s,"['s', 'r']","['Stratego', 'Risk']","[-0.15, 0.5]","[0.15, 0.5]",1,1,,,,,,,,,,,,,,,,,0,3,3,3,0,5,5,0,,,,,,,,,,,,,,,,,,,,,,,,,,,,,,,,,,,,,,,,,,,,,,,4456.167903787001,None,4456.167903787001,None,4456.167903787001,None,s,1,1.0430415909995645,4457.702377812001,None,4457.702377812001,None,4457.702377812001,None,4458.816888980001,None,4458.816888980001,None,4458.816888980001,None,4458.816888980001,None,,,,,,,,,,,,,,,,,,,,,,,,,,,,,,,,,,,,,,,,,,,,001,10,2020_Jan_28_1106,spring_faces,3.1.5,60.20764798964231,
condition files/Stage2_1.xlsx,,T5,B5,s,"['s', 'r']","['Stratego', 'Risk']","[-0.15, 0.5]","[0.15, 0.5]",1,1,,,,,,,,,,,,,,,,,0,4,4,4,0,0,0,0,,,,,,,,,,,,,,,,,,,,,,,,,,,,,,,,,,,,,,,,,,,,,,,4460.784263629,None,4460.784263629,None,4460.784263629,None,s,1,0.827914374998727,4462.317498322001,None,4462.317498322001,None,4462.317498322001,None,4463.200227848,None,4463.200227848,None,4463.200227848,None,4463.200227848,None,,,,,,,,,,,,,,,,,,,,,,,,,,,,,,,,,,,,,,,,,,,,001,10,2020_Jan_28_1106,spring_faces,3.1.5,60.20764798964231,
condition files/Stage2_1.xlsx,,T1,B1,s,"['s', 'r']","['Stratego', 'Risk']","[-0.15, 0.5]","[0.15, 0.5]",1,1,,,,,,,,,,,,,,,,,0,4,4,4,0,1,1,2,,,,,,,,,,,,,,,,,,,,,,,,,,,,,,,,,,,,,,,,,,,,,,,4465.16732605,None,4465.16732605,None,4465.16732605,None,s,1,0.9246485049989133,4466.700851827,None,4466.700851827,None,4466.700851827,None,4467.684513616,None,4467.684513616,None,4467.684513616,None,4467.684513616,None,,,,,,,,,,,,,,,,,,,,,,,,,,,,,,,,,,,,,,,,,,,,001,10,2020_Jan_28_1106,spring_faces,3.1.5,60.20764798964231,
condition files/Stage2_1.xlsx,,B2,T2,r,"['s', 'r']","['Stratego', 'Risk']","[-0.15, 0.5]","[0.15, 0.5]",1,1,,,,,,,,,,,,,,,,,0,4,4,4,0,2,2,3,,,,,,,,,,,,,,,,,,,,,,,,,,,,,,,,,,,,,,,,,,,,,,,4469.650037517999,None,4469.650037517999,None,4469.650037517999,None,r,1,0.8720564510003896,4471.185428991,None,4471.185428991,None,4471.185428991,None,4472.134256848,None,4472.134256848,None,4472.134256848,None,4472.134256848,None,,,,,,,,,,,,,,,,,,,,,,,,,,,,,,,,,,,,,,,,,,,,001,10,2020_Jan_28_1106,spring_faces,3.1.5,60.20764798964231,
condition files/Stage2_1.xlsx,,B4,T4,r,"['s', 'r']","['Stratego', 'Risk']","[-0.15, 0.5]","[0.15, 0.5]",1,1,,,,,,,,,,,,,,,,,0,4,4,4,0,3,3,5,,,,,,,,,,,,,,,,,,,,,,,,,,,,,,,,,,,,,,,,,,,,,,,4474.0842348,None,4474.0842348,None,4474.0842348,None,r,1,0.9499242459987727,4475.619520294001,None,4475.619520294001,None,4475.619520294001,None,4476.634562544,None,4476.634562544,None,4476.634562544,None,4476.634562544,None,,,,,,,,,,,,,,,,,,,,,,,,,,,,,,,,,,,,,,,,,,,,001,10,2020_Jan_28_1106,spring_faces,3.1.5,60.20764798964231,
condition files/Stage2_1.xlsx,,B6,T6,r,"['s', 'r']","['Stratego', 'Risk']","[-0.15, 0.5]","[0.15, 0.5]",1,1,,,,,,,,,,,,,,,,,0,4,4,4,0,4,4,1,,,,,,,,,,,,,,,,,,,,,,,,,,,,,,,,,,,,,,,,,,,,,,,4478.600234541001,None,4478.600234541001,None,4478.600234541001,None,r,1,0.6914028619994497,4480.134097194,None,4480.134097194,None,4480.134097194,None,4480.883567559001,None,4480.883567559001,None,4480.883567559001,None,4480.883567559001,None,,,,,,,,,,,,,,,,,,,,,,,,,,,,,,,,,,,,,,,,,,,,001,10,2020_Jan_28_1106,spring_faces,3.1.5,60.20764798964231,
condition files/Stage2_1.xlsx,,T3,B3,s,"['s', 'r']","['Stratego', 'Risk']","[-0.15, 0.5]","[0.15, 0.5]",1,1,,,,,,,,,,,,,,,,,0,4,4,4,0,5,5,4,,,,,,,,,,,,,,,,,,,,,,,,,,,,,,,,,,,,,,,,,,,,,,,4482.850349317,None,4482.850349317,None,4482.850349317,None,s,1,0.7137188819997391,4484.383946411,None,4484.383946411,None,4484.383946411,None,4485.167414230999,None,4485.167414230999,None,4485.167414230999,None,4485.167414230999,None,,,,,,,,,,,,,,,,,,,,,,,,,,,,,,,,,,,,,,,,,,,,001,10,2020_Jan_28_1106,spring_faces,3.1.5,60.20764798964231,
