condsFile,subStage,cue1,cue2,correct,responseKeys,responseNames,cue1Position,cue2Position,cue1Opacity,cue2Opacity,stageLoop0.thisRepN,stageLoop0.thisTrialN,stageLoop0.thisN,stageLoop0.thisIndex,blockLoop0.thisRepN,blockLoop0.thisTrialN,blockLoop0.thisN,blockLoop0.thisIndex,stage1Loop.thisRepN,stage1Loop.thisTrialN,stage1Loop.thisN,stage1Loop.thisIndex,blockLoop1.thisRepN,blockLoop1.thisTrialN,blockLoop1.thisN,blockLoop1.thisIndex,stage2Loop.thisRepN,stage2Loop.thisTrialN,stage2Loop.thisN,stage2Loop.thisIndex,blockLoop2.thisRepN,blockLoop2.thisTrialN,blockLoop2.thisN,blockLoop2.thisIndex,testLoop.thisRepN,testLoop.thisTrialN,testLoop.thisN,testLoop.thisIndex,blockLoopTest.thisRepN,blockLoopTest.thisTrialN,blockLoopTest.thisN,blockLoopTest.thisIndex,cuePics,id_instr_text.started,id_instr_text.stopped,space_to_continue_2.started,space_to_continue_2.stopped,end_instructions_resp_3.keys,end_instructions_resp_3.rt,end_instructions_resp_3.started,end_instructions_resp_3.stopped,id_input_instr.started,id_input_instr.stopped,id_input_rect.started,id_input_rect.stopped,id_input_resp.keys,id_input_resp.rt,id_input_resp.started,id_input_resp.stopped,sonaID,id_input_text.started,id_input_text.stopped,final_text.started,final_text.stopped,instructions.started,instructions.stopped,end_instructions_resp.keys,end_instructions_resp.rt,end_instructions_resp.started,end_instructions_resp.stopped,space_to_continue.started,space_to_continue.stopped,instructions_stage0.started,instructions_stage0.stopped,end_instructions_resp_stage0.keys,end_instructions_resp_stage0.rt,end_instructions_resp_stage0.started,end_instructions_resp_stage0.stopped,space_to_continue_stage0.started,space_to_continue_stage0.stopped,text.started,text.stopped,resp_text1.started,resp_text1.stopped,resp_text2.started,resp_text2.stopped,trial_resp.keys,trial_resp.corr,trial_resp.rt,trial_resp.started,trial_resp.stopped,cue1Image.started,cue1Image.stopped,cue2Image.started,cue2Image.stopped,cue1Image_fb.started,cue1Image_fb.stopped,cue2Image_fb.started,cue2Image_fb.stopped,fb_text_answer.started,fb_text_answer.stopped,feedback_image.started,feedback_image.stopped,instructions_stage1.started,instructions_stage1.stopped,end_instructions_resp_stage1.keys,end_instructions_resp_stage1.rt,end_instructions_resp_stage1.started,end_instructions_resp_stage1.stopped,space_to_continue_stage1.started,space_to_continue_stage1.stopped,instructions_2.started,instructions_2.stopped,end_instructions_resp_2.keys,end_instructions_resp_2.rt,end_instructions_resp_2.started,end_instructions_resp_2.stopped,press_space_to_continue_stage2.started,press_space_to_continue_stage2.stopped,instructions_testStage1.started,instructions_testStage1.stopped,end_instructions_resp_test1.keys,end_instructions_resp_test1.rt,end_instructions_resp_test1.started,end_instructions_resp_test1.stopped,press_space_to_continue_test1.started,press_space_to_continue_test1.stopped,cue1Image_testChoice.started,cue1Image_testChoice.stopped,cue2Image_testChoice.started,cue2Image_testChoice.stopped,test_resp.keys,test_resp.corr,test_resp.rt,test_resp.started,test_resp.stopped,cue1Image_testConf.started,cue1Image_testConf.stopped,cue2Image_testConf.started,cue2Image_testConf.stopped,conf_reminder.started,conf_reminder.stopped,conf_rating.response,conf_rating.rt,conf_rating.started,conf_rating.stopped,session,participant,date,expName,psychopyVersion,frameRate,
,,,,,,,,,,,,,,,,,,,,,,,,,,,,,,,,,,,,,,,,,,,"{'none': 'pictures/20M_AN_C.png', 'alpha': 'pictures/SHINEd_pepper.png', 'beta': 'pictures/SHINEd_pear.png', 'theta': 'pictures/SHINEd_apple.png', 'phi': 'pictures/SHINEd_melon.png', 'T1': 'pictures/20M_AN_C.png', 'T2': 'pictures/34M_AN_C.png', 'T3': 'pictures/23M_AN_C.png', 'T4': 'pictures/25M_AN_C.png', 'T5': 'pictures/36M_AN_C.png', 'T6': 'pictures/33M_AN_C.png', 'B1': 'pictures/37M_NE_C.png', 'B2': 'pictures/22M_NE_C.png', 'B3': 'pictures/38M_NE_C.png', 'B4': 'pictures/26M_NE_C.png', 'B5': 'pictures/32M_NE_C.png', 'B6': 'pictures/31M_NE_C.png'}",3656.1826975890017,None,3661.166338232999,None,space,18.042401606999192,3661.166338232999,None,,,,,,,,,,,,,,,,,,,,,,,,,,,,,,,,,,,,,,,,,,,,,,,,,,,,,,,,,,,,,,,,,,,,,,,,,,,,,,,,,,,,,,,,,,,,,,,,001,110,2020_Feb_11_1409,spring_faces,3.1.5,60.300482611833,
,,,,,,,,,,,,,,,,,,,,,,,,,,,,,,,,,,,,,,,,,,,,,,,,,,,,3679.632784817999,None,3679.632784817999,None,"['1', '1', '2', '1', 'r', 'o', 'm', 'o', 'u']","[11.36782626599961, 11.591919469999993, 14.663805199998023, 15.575899935996858, 17.431878150997363, 18.02388639599667, 20.215873825996823, 20.43987142900005, 20.711841887998162]",3679.632784817999,None,,,,,,,,,,,,,,,,,,,,,,,,,,,,,,,,,,,,,,,,,,,,,,,,,,,,,,,,,,,,,,,,,,,,,,,,,,,,,,,,,,,,,,,,001,110,2020_Feb_11_1409,spring_faces,3.1.5,60.300482611833,
,,,,,,,,,,,,,,,,,,,,,,,,,,,,,,,,,,,,,,,,,,,,,,,,,,,,,,,,,,,,1121romou,3679.632784817999,None,3679.632784817999,None,3705.416433106,None,space,2.2327024250007526,3710.415981696,None,,,,,,,,,,,,,,,,,,,,,,,,,,,,,,,,,,,,,,,,,,,,,,,,,,,,,,,,,,,,,,,,,,,,,,,,,,,,,001,110,2020_Feb_11_1409,spring_faces,3.1.5,60.300482611833,
,,,,,,,,,,,,,,,,,,,,,,,,,,,,,,,,,,,,,,,,,,,,,,,,,,,,,,,,,,,,,,,,,,,,,,,3710.415981696,None,3712.6831446800006,None,space,6.053790723999555,3717.682886921999,None,,,,,,,,,,,,,,,,,,,,,,,,,,,,,,,,,,,,,,,,,,,,,,,,,,,,,,,,,,,,,,,,,,,,,001,110,2020_Feb_11_1409,spring_faces,3.1.5,60.300482611833,
condition files/Stage0a.xlsx,0a,alpha,none,h,"['h', 'g']","['Chess', 'Go']","[0, 0.5]","[0, 0]",1,0,0,0,0,0,0,0,0,0,,,,,,,,,,,,,,,,,,,,,,,,,,,,,,,,,,,,,,,,,,,,,,,,,,,,,,,,,,,,,3717.682886921999,None,3723.832401417001,None,3723.832401417001,None,3723.832401417001,None,g,0,4.336921704998531,3725.399751414001,None,3725.399751414001,None,3725.399751414001,None,3729.8162894629986,None,3729.8162894629986,None,3729.8162894629986,None,3729.8162894629986,None,,,,,,,,,,,,,,,,,,,,,,,,,,,,,,,,,,,,,,,,,,,,001,110,2020_Feb_11_1409,spring_faces,3.1.5,60.300482611833,
condition files/Stage0a.xlsx,0a,beta,none,g,"['h', 'g']","['Chess', 'Go']","[0, 0.5]","[0, 0]",1,0,0,0,0,0,0,1,1,1,,,,,,,,,,,,,,,,,,,,,,,,,,,,,,,,,,,,,,,,,,,,,,,,,,,,,,,,,,,,,,,3731.766119711001,None,3731.766119711001,None,3731.766119711001,None,g,1,2.5150636639991717,3733.317601089,None,3733.317601089,None,3733.317601089,None,3735.8835873340013,None,3735.8835873340013,None,3735.8835873340013,None,3735.8835873340013,None,,,,,,,,,,,,,,,,,,,,,,,,,,,,,,,,,,,,,,,,,,,,001,110,2020_Feb_11_1409,spring_faces,3.1.5,60.300482611833,
condition files/Stage0a.xlsx,0a,alpha,none,h,"['h', 'g']","['Chess', 'Go']","[0, 0.5]","[0, 0]",1,0,0,1,1,1,0,0,0,0,,,,,,,,,,,,,,,,,,,,,,,,,,,,,,,,,,,,,,,,,,,,,,,,,,,,,,,,,,,,,,,3737.8664333210018,None,3737.8664333210018,None,3737.8664333210018,None,h,1,1.1529534670007706,3739.399709266001,None,3739.399709266001,None,3739.399709266001,None,3740.616365189,None,3740.616365189,None,3740.616365189,None,3740.616365189,None,,,,,,,,,,,,,,,,,,,,,,,,,,,,,,,,,,,,,,,,,,,,001,110,2020_Feb_11_1409,spring_faces,3.1.5,60.300482611833,
condition files/Stage0a.xlsx,0a,beta,none,g,"['h', 'g']","['Chess', 'Go']","[0, 0.5]","[0, 0]",1,0,0,1,1,1,0,1,1,1,,,,,,,,,,,,,,,,,,,,,,,,,,,,,,,,,,,,,,,,,,,,,,,,,,,,,,,,,,,,,,,3742.5827616939987,None,3742.5827616939987,None,3742.5827616939987,None,g,1,0.8202169100004539,3744.1164621570006,None,3744.1164621570006,None,3744.1164621570006,None,3744.9993266190013,None,3744.9993266190013,None,3744.9993266190013,None,3744.9993266190013,None,,,,,,,,,,,,,,,,,,,,,,,,,,,,,,,,,,,,,,,,,,,,001,110,2020_Feb_11_1409,spring_faces,3.1.5,60.300482611833,
condition files/Stage0a.xlsx,0a,alpha,none,h,"['h', 'g']","['Chess', 'Go']","[0, 0.5]","[0, 0]",1,0,0,2,2,2,0,0,0,0,,,,,,,,,,,,,,,,,,,,,,,,,,,,,,,,,,,,,,,,,,,,,,,,,,,,,,,,,,,,,,,3746.983194063001,None,3746.983194063001,None,3746.983194063001,None,h,1,0.6773968159977812,3748.499311718,None,3748.499311718,None,3748.499311718,None,3749.2326148340017,None,3749.2326148340017,None,3749.2326148340017,None,3749.2326148340017,None,,,,,,,,,,,,,,,,,,,,,,,,,,,,,,,,,,,,,,,,,,,,001,110,2020_Feb_11_1409,spring_faces,3.1.5,60.300482611833,
condition files/Stage0a.xlsx,0a,beta,none,g,"['h', 'g']","['Chess', 'Go']","[0, 0.5]","[0, 0]",1,0,0,2,2,2,0,1,1,1,,,,,,,,,,,,,,,,,,,,,,,,,,,,,,,,,,,,,,,,,,,,,,,,,,,,,,,,,,,,,,,3751.1994581490017,None,3751.1994581490017,None,3751.1994581490017,None,g,1,0.796297257002152,3752.7322968009994,None,3752.7322968009994,None,3752.7322968009994,None,3753.583107687,None,3753.583107687,None,3753.583107687,None,3753.583107687,None,,,,,,,,,,,,,,,,,,,,,,,,,,,,,,,,,,,,,,,,,,,,001,110,2020_Feb_11_1409,spring_faces,3.1.5,60.300482611833,
condition files/Stage0a.xlsx,0a,beta,none,g,"['h', 'g']","['Chess', 'Go']","[0, 0.5]","[0, 0]",1,0,0,3,3,3,0,0,0,1,,,,,,,,,,,,,,,,,,,,,,,,,,,,,,,,,,,,,,,,,,,,,,,,,,,,,,,,,,,,,,,3755.5663285009996,None,3755.5663285009996,None,3755.5663285009996,None,g,1,0.669171240999276,3757.099475743,None,3757.099475743,None,3757.099475743,None,3757.83314891,None,3757.83314891,None,3757.83314891,None,3757.83314891,None,,,,,,,,,,,,,,,,,,,,,,,,,,,,,,,,,,,,,,,,,,,,001,110,2020_Feb_11_1409,spring_faces,3.1.5,60.300482611833,
condition files/Stage0a.xlsx,0a,alpha,none,h,"['h', 'g']","['Chess', 'Go']","[0, 0.5]","[0, 0]",1,0,0,3,3,3,0,1,1,0,,,,,,,,,,,,,,,,,,,,,,,,,,,,,,,,,,,,,,,,,,,,,,,,,,,,,,,,,,,,,,,3759.799553826999,None,3759.799553826999,None,3759.799553826999,None,h,1,1.108033840002463,3761.3326635639987,None,3761.3326635639987,None,3761.3326635639987,None,3762.499478472999,None,3762.499478472999,None,3762.499478472999,None,3762.499478472999,None,,,,,,,,,,,,,,,,,,,,,,,,,,,,,,,,,,,,,,,,,,,,001,110,2020_Feb_11_1409,spring_faces,3.1.5,60.300482611833,
condition files/Stage0a.xlsx,0a,alpha,none,h,"['h', 'g']","['Chess', 'Go']","[0, 0.5]","[0, 0]",1,0,0,4,4,4,0,0,0,0,,,,,,,,,,,,,,,,,,,,,,,,,,,,,,,,,,,,,,,,,,,,,,,,,,,,,,,,,,,,,,,3764.4827236319998,None,3764.4827236319998,None,3764.4827236319998,None,h,1,0.7761856700017233,3766.0164180189986,None,3766.0164180189986,None,3766.0164180189986,None,3766.849637182002,None,3766.849637182002,None,3766.849637182002,None,3766.849637182002,None,,,,,,,,,,,,,,,,,,,,,,,,,,,,,,,,,,,,,,,,,,,,001,110,2020_Feb_11_1409,spring_faces,3.1.5,60.300482611833,
condition files/Stage0a.xlsx,0a,beta,none,g,"['h', 'g']","['Chess', 'Go']","[0, 0.5]","[0, 0]",1,0,0,4,4,4,0,1,1,1,,,,,,,,,,,,,,,,,,,,,,,,,,,,,,,,,,,,,,,,,,,,,,,,,,,,,,,,,,,,,,,3768.815758251001,None,3768.815758251001,None,3768.815758251001,None,g,1,0.7793606220002403,3770.3492232900007,None,3770.3492232900007,None,3770.3492232900007,None,3771.182319914,None,3771.182319914,None,3771.182319914,None,3771.182319914,None,,,,,,,,,,,,,,,,,,,,,,,,,,,,,,,,,,,,,,,,,,,,001,110,2020_Feb_11_1409,spring_faces,3.1.5,60.300482611833,
condition files/Stage0a.xlsx,0a,beta,none,g,"['h', 'g']","['Chess', 'Go']","[0, 0.5]","[0, 0]",1,0,0,5,5,5,0,0,0,1,,,,,,,,,,,,,,,,,,,,,,,,,,,,,,,,,,,,,,,,,,,,,,,,,,,,,,,,,,,,,,,3773.1665668840014,None,3773.1665668840014,None,3773.1665668840014,None,g,1,0.6849128149988246,3774.6996832940004,None,3774.6996832940004,None,3774.6996832940004,None,3775.449107024002,None,3775.449107024002,None,3775.449107024002,None,3775.449107024002,None,,,,,,,,,,,,,,,,,,,,,,,,,,,,,,,,,,,,,,,,,,,,001,110,2020_Feb_11_1409,spring_faces,3.1.5,60.300482611833,
condition files/Stage0a.xlsx,0a,alpha,none,h,"['h', 'g']","['Chess', 'Go']","[0, 0.5]","[0, 0]",1,0,0,5,5,5,0,1,1,0,,,,,,,,,,,,,,,,,,,,,,,,,,,,,,,,,,,,,,,,,,,,,,,,,,,,,,,,,,,,,,,3777.4155409040013,None,3777.4155409040013,None,3777.4155409040013,None,h,1,0.8831539429993427,3778.949522150002,None,3778.949522150002,None,3778.949522150002,None,3779.8831677040016,None,3779.8831677040016,None,3779.8831677040016,None,3779.8831677040016,None,,,,,,,,,,,,,,,,,,,,,,,,,,,,,,,,,,,,,,,,,,,,001,110,2020_Feb_11_1409,spring_faces,3.1.5,60.300482611833,
condition files/Stage0b_1.xlsx,0b,none,beta,g,"['h', 'g']","['Chess', 'Go']","[-0.15, 0.5]","[0.15, 0.5]",0,1,0,6,6,6,0,0,0,1,,,,,,,,,,,,,,,,,,,,,,,,,,,,,,,,,,,,,,,,,,,,,,,,,,,,,,,,,,,,,,,3781.8662054270008,None,3781.8662054270008,None,3781.8662054270008,None,g,1,1.009106163000979,3783.4155734079995,None,3783.4155734079995,None,3783.4155734079995,None,3784.499799055002,None,3784.499799055002,None,3784.499799055002,None,3784.499799055002,None,,,,,,,,,,,,,,,,,,,,,,,,,,,,,,,,,,,,,,,,,,,,001,110,2020_Feb_11_1409,spring_faces,3.1.5,60.300482611833,
condition files/Stage0b_1.xlsx,0b,alpha,none,h,"['h', 'g']","['Chess', 'Go']","[-0.15, 0.5]","[0.15, 0.5]",1,0,0,6,6,6,0,1,1,0,,,,,,,,,,,,,,,,,,,,,,,,,,,,,,,,,,,,,,,,,,,,,,,,,,,,,,,,,,,,,,,3786.449592974999,None,3786.449592974999,None,3786.449592974999,None,h,1,0.7289229860034538,3787.999672381002,None,3787.999672381002,None,3787.999672381002,None,3788.785275172,None,3788.785275172,None,3788.785275172,None,3788.785275172,None,,,,,,,,,,,,,,,,,,,,,,,,,,,,,,,,,,,,,,,,,,,,001,110,2020_Feb_11_1409,spring_faces,3.1.5,60.300482611833,
condition files/Stage0b_2.xlsx,0b,none,alpha,h,"['h', 'g']","['Chess', 'Go']","[-0.15, 0.5]","[0.15, 0.5]",0,1,0,7,7,7,0,0,0,0,,,,,,,,,,,,,,,,,,,,,,,,,,,,,,,,,,,,,,,,,,,,,,,,,,,,,,,,,,,,,,,3790.766419837002,None,3790.766419837002,None,3790.766419837002,None,h,1,0.713003122000373,3792.303598820001,None,3792.303598820001,None,3792.303598820001,None,3793.0675020010003,None,3793.0675020010003,None,3793.0675020010003,None,3793.0675020010003,None,,,,,,,,,,,,,,,,,,,,,,,,,,,,,,,,,,,,,,,,,,,,001,110,2020_Feb_11_1409,spring_faces,3.1.5,60.300482611833,
condition files/Stage0b_2.xlsx,0b,beta,none,g,"['h', 'g']","['Chess', 'Go']","[-0.15, 0.5]","[0.15, 0.5]",1,0,0,7,7,7,0,1,1,1,,,,,,,,,,,,,,,,,,,,,,,,,,,,,,,,,,,,,,,,,,,,,,,,,,,,,,,,,,,,,,,3795.032368230999,None,3795.032368230999,None,3795.032368230999,None,g,1,2.2845652989999508,3796.572103339002,None,3796.572103339002,None,3796.572103339002,None,3798.9197436970007,None,3798.9197436970007,None,3798.9197436970007,None,3798.9197436970007,None,,,,,,,,,,,,,,,,,,,,,,,,,,,,,,,,,,,,,,,,,,,,001,110,2020_Feb_11_1409,spring_faces,3.1.5,60.300482611833,
condition files/Stage0b_1.xlsx,0b,none,beta,g,"['h', 'g']","['Chess', 'Go']","[-0.15, 0.5]","[0.15, 0.5]",0,1,0,8,8,8,0,0,0,1,,,,,,,,,,,,,,,,,,,,,,,,,,,,,,,,,,,,,,,,,,,,,,,,,,,,,,,,,,,,,,,3800.9001968360008,None,3800.9001968360008,None,3800.9001968360008,None,g,1,0.6627527519995056,3802.4498887729987,None,3802.4498887729987,None,3802.4498887729987,None,3803.1667138700013,None,3803.1667138700013,None,3803.1667138700013,None,3803.1667138700013,None,,,,,,,,,,,,,,,,,,,,,,,,,,,,,,,,,,,,,,,,,,,,001,110,2020_Feb_11_1409,spring_faces,3.1.5,60.300482611833,
condition files/Stage0b_1.xlsx,0b,alpha,none,h,"['h', 'g']","['Chess', 'Go']","[-0.15, 0.5]","[0.15, 0.5]",1,0,0,8,8,8,0,1,1,0,,,,,,,,,,,,,,,,,,,,,,,,,,,,,,,,,,,,,,,,,,,,,,,,,,,,,,,,,,,,,,,3805.1327288990014,None,3805.1327288990014,None,3805.1327288990014,None,h,1,0.7935237480014621,3806.6711476530018,None,3806.6711476530018,None,3806.6711476530018,None,3807.518519520001,None,3807.518519520001,None,3807.518519520001,None,3807.518519520001,None,,,,,,,,,,,,,,,,,,,,,,,,,,,,,,,,,,,,,,,,,,,,001,110,2020_Feb_11_1409,spring_faces,3.1.5,60.300482611833,
condition files/Stage0b_2.xlsx,0b,beta,none,g,"['h', 'g']","['Chess', 'Go']","[-0.15, 0.5]","[0.15, 0.5]",1,0,0,9,9,9,0,0,0,1,,,,,,,,,,,,,,,,,,,,,,,,,,,,,,,,,,,,,,,,,,,,,,,,,,,,,,,,,,,,,,,3809.499636898001,None,3809.499636898001,None,3809.499636898001,None,g,1,0.8155950809996284,3811.033088022001,None,3811.033088022001,None,3811.033088022001,None,3811.899118952,None,3811.899118952,None,3811.899118952,None,3811.899118952,None,,,,,,,,,,,,,,,,,,,,,,,,,,,,,,,,,,,,,,,,,,,,001,110,2020_Feb_11_1409,spring_faces,3.1.5,60.300482611833,
condition files/Stage0b_2.xlsx,0b,none,alpha,h,"['h', 'g']","['Chess', 'Go']","[-0.15, 0.5]","[0.15, 0.5]",0,1,0,9,9,9,0,1,1,0,,,,,,,,,,,,,,,,,,,,,,,,,,,,,,,,,,,,,,,,,,,,,,,,,,,,,,,,,,,,,,,3813.8658793720006,None,3813.8658793720006,None,3813.8658793720006,None,h,1,0.9282672080007615,3815.416348613,None,3815.416348613,None,3815.416348613,None,3816.416326525001,None,3816.416326525001,None,3816.416326525001,None,3816.416326525001,None,,,,,,,,,,,,,,,,,,,,,,,,,,,,,,,,,,,,,,,,,,,,001,110,2020_Feb_11_1409,spring_faces,3.1.5,60.300482611833,
condition files/Stage0b_1.xlsx,0b,none,beta,g,"['h', 'g']","['Chess', 'Go']","[-0.15, 0.5]","[0.15, 0.5]",0,1,0,10,10,10,0,0,0,1,,,,,,,,,,,,,,,,,,,,,,,,,,,,,,,,,,,,,,,,,,,,,,,,,,,,,,,,,,,,,,,3818.38300091,None,3818.38300091,None,3818.38300091,None,g,1,0.7626353700034088,3819.9180107480006,None,3819.9180107480006,None,3819.9180107480006,None,3820.733149263002,None,3820.733149263002,None,3820.733149263002,None,3820.733149263002,None,,,,,,,,,,,,,,,,,,,,,,,,,,,,,,,,,,,,,,,,,,,,001,110,2020_Feb_11_1409,spring_faces,3.1.5,60.300482611833,
condition files/Stage0b_1.xlsx,0b,alpha,none,h,"['h', 'g']","['Chess', 'Go']","[-0.15, 0.5]","[0.15, 0.5]",1,0,0,10,10,10,0,1,1,0,,,,,,,,,,,,,,,,,,,,,,,,,,,,,,,,,,,,,,,,,,,,,,,,,,,,,,,,,,,,,,,3822.698918639,None,3822.698918639,None,3822.698918639,None,h,1,1.3109123510002973,3824.249696011002,None,3824.249696011002,None,3824.249696011002,None,3825.6324156909996,None,3825.6324156909996,None,3825.6324156909996,None,3825.6324156909996,None,,,,,,,,,,,,,,,,,,,,,,,,,,,,,,,,,,,,,,,,,,,,001,110,2020_Feb_11_1409,spring_faces,3.1.5,60.300482611833,
condition files/Stage0b_2.xlsx,0b,beta,none,g,"['h', 'g']","['Chess', 'Go']","[-0.15, 0.5]","[0.15, 0.5]",1,0,0,11,11,11,0,0,0,1,,,,,,,,,,,,,,,,,,,,,,,,,,,,,,,,,,,,,,,,,,,,,,,,,,,,,,,,,,,,,,,3827.599017458999,None,3827.599017458999,None,3827.599017458999,None,g,1,0.747536165999918,3829.133113711001,None,3829.133113711001,None,3829.133113711001,None,3829.9346658140003,None,3829.9346658140003,None,3829.9346658140003,None,3829.9346658140003,None,,,,,,,,,,,,,,,,,,,,,,,,,,,,,,,,,,,,,,,,,,,,001,110,2020_Feb_11_1409,spring_faces,3.1.5,60.300482611833,
condition files/Stage0b_2.xlsx,0b,none,alpha,h,"['h', 'g']","['Chess', 'Go']","[-0.15, 0.5]","[0.15, 0.5]",0,1,0,11,11,11,0,1,1,0,,,,,,,,,,,,,,,,,,,,,,,,,,,,,,,,,,,,,,,,,,,,,,,,,,,,,,,,,,,,,,,3831.899388063999,None,3831.899388063999,None,3831.899388063999,None,h,1,0.6709239179981523,3833.4497352939998,None,3833.4497352939998,None,3833.4497352939998,None,3834.199734248001,None,3834.199734248001,None,3834.199734248001,None,3834.199734248001,None,,,,,,,,,,,,,,,,,,,,,,,,,,,,,,,,,,,,,,,,,,,,001,110,2020_Feb_11_1409,spring_faces,3.1.5,60.300482611833,
condition files/Stage0c_1.xlsx,0c,theta,alpha,h,"['h', 'g']","['Chess', 'Go']","[-0.15, 0.5]","[0.15, 0.5]",1,1,0,12,12,12,0,0,0,0,,,,,,,,,,,,,,,,,,,,,,,,,,,,,,,,,,,,,,,,,,,,,,,,,,,,,,,,,,,,,,,3836.1660882999986,None,3836.1660882999986,None,3836.1660882999986,None,h,1,2.1813437980017625,3837.6993135110006,None,3837.6993135110006,None,3837.6993135110006,None,3839.932761582002,None,3839.932761582002,None,3839.932761582002,None,3839.932761582002,None,,,,,,,,,,,,,,,,,,,,,,,,,,,,,,,,,,,,,,,,,,,,001,110,2020_Feb_11_1409,spring_faces,3.1.5,60.300482611833,
condition files/Stage0c_1.xlsx,0c,phi,beta,g,"['h', 'g']","['Chess', 'Go']","[-0.15, 0.5]","[0.15, 0.5]",1,1,0,12,12,12,0,1,1,3,,,,,,,,,,,,,,,,,,,,,,,,,,,,,,,,,,,,,,,,,,,,,,,,,,,,,,,,,,,,,,,3841.899467747002,None,3841.899467747002,None,3841.899467747002,None,g,1,1.167841476999456,3843.432772170001,None,3843.432772170001,None,3843.432772170001,None,3844.6662556089996,None,3844.6662556089996,None,3844.6662556089996,None,3844.6662556089996,None,,,,,,,,,,,,,,,,,,,,,,,,,,,,,,,,,,,,,,,,,,,,001,110,2020_Feb_11_1409,spring_faces,3.1.5,60.300482611833,
condition files/Stage0c_1.xlsx,0c,alpha,phi,h,"['h', 'g']","['Chess', 'Go']","[-0.15, 0.5]","[0.15, 0.5]",1,1,0,12,12,12,0,2,2,1,,,,,,,,,,,,,,,,,,,,,,,,,,,,,,,,,,,,,,,,,,,,,,,,,,,,,,,,,,,,,,,3846.6323223480013,None,3846.6323223480013,None,3846.6323223480013,None,h,1,1.2024738869986322,3848.1661839729986,None,3848.1661839729986,None,3848.1661839729986,None,3849.4327832830004,None,3849.4327832830004,None,3849.4327832830004,None,3849.4327832830004,None,,,,,,,,,,,,,,,,,,,,,,,,,,,,,,,,,,,,,,,,,,,,001,110,2020_Feb_11_1409,spring_faces,3.1.5,60.300482611833,
condition files/Stage0c_1.xlsx,0c,beta,theta,g,"['h', 'g']","['Chess', 'Go']","[-0.15, 0.5]","[0.15, 0.5]",1,1,0,12,12,12,0,3,3,2,,,,,,,,,,,,,,,,,,,,,,,,,,,,,,,,,,,,,,,,,,,,,,,,,,,,,,,,,,,,,,,3851.416290752002,None,3851.416290752002,None,3851.416290752002,None,g,1,1.155712878000486,3852.932952150999,None,3852.932952150999,None,3852.932952150999,None,3854.149783340001,None,3854.149783340001,None,3854.149783340001,None,3854.149783340001,None,,,,,,,,,,,,,,,,,,,,,,,,,,,,,,,,,,,,,,,,,,,,001,110,2020_Feb_11_1409,spring_faces,3.1.5,60.300482611833,
condition files/Stage0c_2.xlsx,0c,alpha,theta,h,"['h', 'g']","['Chess', 'Go']","[-0.15, 0.5]","[0.15, 0.5]",1,1,0,13,13,13,0,0,0,0,,,,,,,,,,,,,,,,,,,,,,,,,,,,,,,,,,,,,,,,,,,,,,,,,,,,,,,,,,,,,,,3856.1331094889993,None,3856.1331094889993,None,3856.1331094889993,None,h,1,1.1907103350022226,3857.665917778,None,3857.665917778,None,3857.665917778,None,3858.9164820960013,None,3858.9164820960013,None,3858.9164820960013,None,3858.9164820960013,None,,,,,,,,,,,,,,,,,,,,,,,,,,,,,,,,,,,,,,,,,,,,001,110,2020_Feb_11_1409,spring_faces,3.1.5,60.300482611833,
condition files/Stage0c_2.xlsx,0c,beta,phi,g,"['h', 'g']","['Chess', 'Go']","[-0.15, 0.5]","[0.15, 0.5]",1,1,0,13,13,13,0,1,1,3,,,,,,,,,,,,,,,,,,,,,,,,,,,,,,,,,,,,,,,,,,,,,,,,,,,,,,,,,,,,,,,3860.882829352,None,3860.882829352,None,3860.882829352,None,g,1,0.5683788799979084,3862.4162245690004,None,3862.4162245690004,None,3862.4162245690004,None,3863.049179448999,None,3863.049179448999,None,3863.049179448999,None,3863.049179448999,None,,,,,,,,,,,,,,,,,,,,,,,,,,,,,,,,,,,,,,,,,,,,001,110,2020_Feb_11_1409,spring_faces,3.1.5,60.300482611833,
condition files/Stage0c_2.xlsx,0c,phi,alpha,h,"['h', 'g']","['Chess', 'Go']","[-0.15, 0.5]","[0.15, 0.5]",1,1,0,13,13,13,0,2,2,1,,,,,,,,,,,,,,,,,,,,,,,,,,,,,,,,,,,,,,,,,,,,,,,,,,,,,,,,,,,,,,,3865.015819530001,None,3865.015819530001,None,3865.015819530001,None,h,1,0.91524101899995,3866.549423675,None,3866.549423675,None,3866.549423675,None,3867.5167041030018,None,3867.5167041030018,None,3867.5167041030018,None,3867.5167041030018,None,,,,,,,,,,,,,,,,,,,,,,,,,,,,,,,,,,,,,,,,,,,,001,110,2020_Feb_11_1409,spring_faces,3.1.5,60.300482611833,
condition files/Stage0c_2.xlsx,0c,theta,beta,g,"['h', 'g']","['Chess', 'Go']","[-0.15, 0.5]","[0.15, 0.5]",1,1,0,13,13,13,0,3,3,2,,,,,,,,,,,,,,,,,,,,,,,,,,,,,,,,,,,,,,,,,,,,,,,,,,,,,,,,,,,,,,,3869.482627997002,None,3869.482627997002,None,3869.482627997002,None,g,1,1.1365498650011432,3871.016095871999,None,3871.016095871999,None,3871.016095871999,None,3872.216132931002,None,3872.216132931002,None,3872.216132931002,None,3872.216132931002,None,,,,,,,,,,,,,,,,,,,,,,,,,,,,,,,,,,,,,,,,,,,,001,110,2020_Feb_11_1409,spring_faces,3.1.5,60.300482611833,
condition files/Stage0c_1.xlsx,0c,phi,beta,g,"['h', 'g']","['Chess', 'Go']","[-0.15, 0.5]","[0.15, 0.5]",1,1,0,14,14,14,0,0,0,3,,,,,,,,,,,,,,,,,,,,,,,,,,,,,,,,,,,,,,,,,,,,,,,,,,,,,,,,,,,,,,,3874.1994953369995,None,3874.1994953369995,None,3874.1994953369995,None,g,1,0.6758889539996744,3875.7328102970005,None,3875.7328102970005,None,3875.7328102970005,None,3876.4514833720004,None,3876.4514833720004,None,3876.4514833720004,None,3876.4514833720004,None,,,,,,,,,,,,,,,,,,,,,,,,,,,,,,,,,,,,,,,,,,,,001,110,2020_Feb_11_1409,spring_faces,3.1.5,60.300482611833,
condition files/Stage0c_1.xlsx,0c,beta,theta,g,"['h', 'g']","['Chess', 'Go']","[-0.15, 0.5]","[0.15, 0.5]",1,1,0,14,14,14,0,1,1,2,,,,,,,,,,,,,,,,,,,,,,,,,,,,,,,,,,,,,,,,,,,,,,,,,,,,,,,,,,,,,,,3878.4323440610005,None,3878.4323440610005,None,3878.4323440610005,None,g,1,0.7465455900019151,3879.9661022620003,None,3879.9661022620003,None,3879.9661022620003,None,3880.751057563999,None,3880.751057563999,None,3880.751057563999,None,3880.751057563999,None,,,,,,,,,,,,,,,,,,,,,,,,,,,,,,,,,,,,,,,,,,,,001,110,2020_Feb_11_1409,spring_faces,3.1.5,60.300482611833,
condition files/Stage0c_1.xlsx,0c,theta,alpha,h,"['h', 'g']","['Chess', 'Go']","[-0.15, 0.5]","[0.15, 0.5]",1,1,0,14,14,14,0,2,2,0,,,,,,,,,,,,,,,,,,,,,,,,,,,,,,,,,,,,,,,,,,,,,,,,,,,,,,,,,,,,,,,3882.732530784002,None,3882.732530784002,None,3882.732530784002,None,h,1,0.7347503220007638,3884.2658350809998,None,3884.2658350809998,None,3884.2658350809998,None,3885.0666187330007,None,3885.0666187330007,None,3885.0666187330007,None,3885.0666187330007,None,,,,,,,,,,,,,,,,,,,,,,,,,,,,,,,,,,,,,,,,,,,,001,110,2020_Feb_11_1409,spring_faces,3.1.5,60.300482611833,
condition files/Stage0c_1.xlsx,0c,alpha,phi,h,"['h', 'g']","['Chess', 'Go']","[-0.15, 0.5]","[0.15, 0.5]",1,1,0,14,14,14,0,3,3,1,,,,,,,,,,,,,,,,,,,,,,,,,,,,,,,,,,,,,,,,,,,,,,,,,,,,,,,,,,,,,,,3887.0328371550004,None,3887.0328371550004,None,3887.0328371550004,None,h,1,1.6186633319994144,3888.5659237400014,None,3888.5659237400014,None,3888.5659237400014,None,3890.249475401002,None,3890.249475401002,None,3890.249475401002,None,3890.249475401002,None,,,,,,,,,,,,,,,,,,,,,,,,,,,,,,,,,,,,,,,,,,,,001,110,2020_Feb_11_1409,spring_faces,3.1.5,60.300482611833,
condition files/Stage0c_2.xlsx,0c,theta,beta,g,"['h', 'g']","['Chess', 'Go']","[-0.15, 0.5]","[0.15, 0.5]",1,1,0,15,15,15,0,0,0,2,,,,,,,,,,,,,,,,,,,,,,,,,,,,,,,,,,,,,,,,,,,,,,,,,,,,,,,,,,,,,,,3892.233051387002,None,3892.233051387002,None,3892.233051387002,None,g,1,0.9460697229988,3893.7665746129987,None,3893.7665746129987,None,3893.7665746129987,None,3894.7669045860002,None,3894.7669045860002,None,3894.7669045860002,None,3894.7669045860002,None,,,,,,,,,,,,,,,,,,,,,,,,,,,,,,,,,,,,,,,,,,,,001,110,2020_Feb_11_1409,spring_faces,3.1.5,60.300482611833,
condition files/Stage0c_2.xlsx,0c,phi,alpha,h,"['h', 'g']","['Chess', 'Go']","[-0.15, 0.5]","[0.15, 0.5]",1,1,0,15,15,15,0,1,1,1,,,,,,,,,,,,,,,,,,,,,,,,,,,,,,,,,,,,,,,,,,,,,,,,,,,,,,,,,,,,,,,3896.732772944002,None,3896.732772944002,None,3896.732772944002,None,h,1,0.7346483940018516,3898.265947424001,None,3898.265947424001,None,3898.265947424001,None,3899.0661618739996,None,3899.0661618739996,None,3899.0661618739996,None,3899.0661618739996,None,,,,,,,,,,,,,,,,,,,,,,,,,,,,,,,,,,,,,,,,,,,,001,110,2020_Feb_11_1409,spring_faces,3.1.5,60.300482611833,
condition files/Stage0c_2.xlsx,0c,beta,phi,g,"['h', 'g']","['Chess', 'Go']","[-0.15, 0.5]","[0.15, 0.5]",1,1,0,15,15,15,0,2,2,3,,,,,,,,,,,,,,,,,,,,,,,,,,,,,,,,,,,,,,,,,,,,,,,,,,,,,,,,,,,,,,,3901.0325576960004,None,3901.0325576960004,None,3901.0325576960004,None,g,1,0.7707358799998474,3902.565909297,None,3902.565909297,None,3902.565909297,None,3903.3992617019994,None,3903.3992617019994,None,3903.3992617019994,None,3903.3992617019994,None,,,,,,,,,,,,,,,,,,,,,,,,,,,,,,,,,,,,,,,,,,,,001,110,2020_Feb_11_1409,spring_faces,3.1.5,60.300482611833,
condition files/Stage0c_2.xlsx,0c,alpha,theta,h,"['h', 'g']","['Chess', 'Go']","[-0.15, 0.5]","[0.15, 0.5]",1,1,0,15,15,15,0,3,3,0,,,,,,,,,,,,,,,,,,,,,,,,,,,,,,,,,,,,,,,,,,,,,,,,,,,,,,,,,,,,,,,3905.365885743,None,3905.365885743,None,3905.365885743,None,h,1,0.5334967740018328,3906.8991661519995,None,3906.8991661519995,None,3906.8991661519995,None,3907.4830471820005,None,3907.4830471820005,None,3907.4830471820005,None,3907.4830471820005,None,,,,,,,,,,,,,,,,,,,,,,,,,,,,,,,,,,,,,,,,,,,,001,110,2020_Feb_11_1409,spring_faces,3.1.5,60.300482611833,
condition files/Stage0c_1.xlsx,0c,phi,beta,g,"['h', 'g']","['Chess', 'Go']","[-0.15, 0.5]","[0.15, 0.5]",1,1,0,16,16,16,0,0,0,3,,,,,,,,,,,,,,,,,,,,,,,,,,,,,,,,,,,,,,,,,,,,,,,,,,,,,,,,,,,,,,,3909.4666722349994,None,3909.4666722349994,None,3909.4666722349994,None,g,1,0.52883648200077,3910.9998213339986,None,3910.9998213339986,None,3910.9998213339986,None,3911.5831119939994,None,3911.5831119939994,None,3911.5831119939994,None,3911.5831119939994,None,,,,,,,,,,,,,,,,,,,,,,,,,,,,,,,,,,,,,,,,,,,,001,110,2020_Feb_11_1409,spring_faces,3.1.5,60.300482611833,
condition files/Stage0c_1.xlsx,0c,theta,alpha,h,"['h', 'g']","['Chess', 'Go']","[-0.15, 0.5]","[0.15, 0.5]",1,1,0,16,16,16,0,1,1,0,,,,,,,,,,,,,,,,,,,,,,,,,,,,,,,,,,,,,,,,,,,,,,,,,,,,,,,,,,,,,,,3913.548814838001,None,3913.548814838001,None,3913.548814838001,None,h,1,0.7495123929984402,3915.083152633999,None,3915.083152633999,None,3915.083152633999,None,3915.8830783840003,None,3915.8830783840003,None,3915.8830783840003,None,3915.8830783840003,None,,,,,,,,,,,,,,,,,,,,,,,,,,,,,,,,,,,,,,,,,,,,001,110,2020_Feb_11_1409,spring_faces,3.1.5,60.300482611833,
condition files/Stage0c_1.xlsx,0c,alpha,phi,h,"['h', 'g']","['Chess', 'Go']","[-0.15, 0.5]","[0.15, 0.5]",1,1,0,16,16,16,0,2,2,1,,,,,,,,,,,,,,,,,,,,,,,,,,,,,,,,,,,,,,,,,,,,,,,,,,,,,,,,,,,,,,,3917.8494323780014,None,3917.8494323780014,None,3917.8494323780014,None,h,1,1.0097369869981776,3919.3828650000014,None,3919.3828650000014,None,3919.3828650000014,None,3920.435548120002,None,3920.435548120002,None,3920.435548120002,None,3920.435548120002,None,,,,,,,,,,,,,,,,,,,,,,,,,,,,,,,,,,,,,,,,,,,,001,110,2020_Feb_11_1409,spring_faces,3.1.5,60.300482611833,
condition files/Stage0c_1.xlsx,0c,beta,theta,g,"['h', 'g']","['Chess', 'Go']","[-0.15, 0.5]","[0.15, 0.5]",1,1,0,16,16,16,0,3,3,2,,,,,,,,,,,,,,,,,,,,,,,,,,,,,,,,,,,,,,,,,,,,,,,,,,,,,,,,,,,,,,,3922.416152218002,None,3922.416152218002,None,3922.416152218002,None,g,1,0.5710564680011885,3923.949637849999,None,3923.949637849999,None,3923.949637849999,None,3924.5832415860004,None,3924.5832415860004,None,3924.5832415860004,None,3924.5832415860004,None,,,,,,,,,,,,,,,,,,,,,,,,,,,,,,,,,,,,,,,,,,,,001,110,2020_Feb_11_1409,spring_faces,3.1.5,60.300482611833,
condition files/Stage0c_2.xlsx,0c,alpha,theta,h,"['h', 'g']","['Chess', 'Go']","[-0.15, 0.5]","[0.15, 0.5]",1,1,0,17,17,17,0,0,0,0,,,,,,,,,,,,,,,,,,,,,,,,,,,,,,,,,,,,,,,,,,,,,,,,,,,,,,,,,,,,,,,3926.566367032001,None,3926.566367032001,None,3926.566367032001,None,h,1,0.7089437079994241,3928.0997590630013,None,3928.0997590630013,None,3928.0997590630013,None,3928.8656800539993,None,3928.8656800539993,None,3928.8656800539993,None,3928.8656800539993,None,,,,,,,,,,,,,,,,,,,,,,,,,,,,,,,,,,,,,,,,,,,,001,110,2020_Feb_11_1409,spring_faces,3.1.5,60.300482611833,
condition files/Stage0c_2.xlsx,0c,phi,alpha,h,"['h', 'g']","['Chess', 'Go']","[-0.15, 0.5]","[0.15, 0.5]",1,1,0,17,17,17,0,1,1,1,,,,,,,,,,,,,,,,,,,,,,,,,,,,,,,,,,,,,,,,,,,,,,,,,,,,,,,,,,,,,,,3930.832829737001,None,3930.832829737001,None,3930.832829737001,None,h,1,0.698836661002133,3932.365811853999,None,3932.365811853999,None,3932.365811853999,None,3933.101432720001,None,3933.101432720001,None,3933.101432720001,None,3933.101432720001,None,,,,,,,,,,,,,,,,,,,,,,,,,,,,,,,,,,,,,,,,,,,,001,110,2020_Feb_11_1409,spring_faces,3.1.5,60.300482611833,
condition files/Stage0c_2.xlsx,0c,theta,beta,g,"['h', 'g']","['Chess', 'Go']","[-0.15, 0.5]","[0.15, 0.5]",1,1,0,17,17,17,0,2,2,2,,,,,,,,,,,,,,,,,,,,,,,,,,,,,,,,,,,,,,,,,,,,,,,,,,,,,,,,,,,,,,,3935.082810230999,None,3935.082810230999,None,3935.082810230999,None,g,1,0.7358480060029251,3936.616807290002,None,3936.616807290002,None,3936.616807290002,None,3937.4166373919998,None,3937.4166373919998,None,3937.4166373919998,None,3937.4166373919998,None,,,,,,,,,,,,,,,,,,,,,,,,,,,,,,,,,,,,,,,,,,,,001,110,2020_Feb_11_1409,spring_faces,3.1.5,60.300482611833,
condition files/Stage0c_2.xlsx,0c,beta,phi,g,"['h', 'g']","['Chess', 'Go']","[-0.15, 0.5]","[0.15, 0.5]",1,1,0,17,17,17,0,3,3,3,,,,,,,,,,,,,,,,,,,,,,,,,,,,,,,,,,,,,,,,,,,,,,,,,,,,,,,,,,,,,,,3939.3828591440015,None,3939.3828591440015,None,3939.3828591440015,None,g,1,0.8520536300020467,3940.9165882629986,None,3940.9165882629986,None,3940.9165882629986,None,3941.8180326460006,None,3941.8180326460006,None,3941.8180326460006,None,3941.8180326460006,None,,,,,,,,,,,,,,,,,,,,,,,,,,,,,,,,,,,,,,,,,,,,001,110,2020_Feb_11_1409,spring_faces,3.1.5,60.300482611833,
,,,,,,,,,,,,,,,,,,,,,,,,,,,,,,,,,,,,,,,,,,,,,,,,,,,,,,,,,,,,,,,,,,,,,,,,,,,,,,,,,,,,,,,,,,,,,,,,,,,,,,,,3943.816413999002,None,space,2.632371724997938,3948.8163111420017,None,,,,,,,,,,,,,,,,,,,,,,,,,,,,,,,,,,,,,,001,110,2020_Feb_11_1409,spring_faces,3.1.5,60.300482611833,
condition files/Stage1_1.xlsx,,B1,T2,c,"['c', 'm']","['Clue', 'Monopoly']","[-0.15, 0.5]","[0.15, 0.5]",1,1,,,,,,,,,0,0,0,0,0,0,0,1,,,,,,,,,,,,,,,,,,,,,,,,,,,,,,,,,,,,,,,,,,,,,,,,,,,,,,,3951.4991154770014,None,3951.4991154770014,None,3951.4991154770014,None,c,1,1.5354764889998478,3953.033188383999,None,3953.033188383999,None,3953.033188383999,None,3954.6499634949996,None,3954.6499634949996,None,3954.6499634949996,None,3954.6499634949996,None,,,,,,,3948.8163111420017,None,,,,,,,,,,,,,,,,,,,,,,,,,,,,,,,,,,,,001,110,2020_Feb_11_1409,spring_faces,3.1.5,60.300482611833,
condition files/Stage1_1.xlsx,,B3,T3,c,"['c', 'm']","['Clue', 'Monopoly']","[-0.15, 0.5]","[0.15, 0.5]",1,1,,,,,,,,,0,0,0,0,0,1,1,4,,,,,,,,,,,,,,,,,,,,,,,,,,,,,,,,,,,,,,,,,,,,,,,,,,,,,,,3956.5994692820004,None,3956.5994692820004,None,3956.5994692820004,None,m,0,1.2656598789981217,3958.1829460589997,None,3958.1829460589997,None,3958.1829460589997,None,3959.4994984960013,None,3959.4994984960013,None,3959.4994984960013,None,3959.4994984960013,None,,,,,,,,,,,,,,,,,,,,,,,,,,,,,,,,,,,,,,,,,,,,001,110,2020_Feb_11_1409,spring_faces,3.1.5,60.300482611833,
condition files/Stage1_1.xlsx,,T4,B3,m,"['c', 'm']","['Clue', 'Monopoly']","[-0.15, 0.5]","[0.15, 0.5]",1,1,,,,,,,,,0,0,0,0,0,2,2,6,,,,,,,,,,,,,,,,,,,,,,,,,,,,,,,,,,,,,,,,,,,,,,,,,,,,,,,3961.466288636,None,3961.466288636,None,3961.466288636,None,m,1,1.232345204000012,3963.016310117002,None,3963.016310117002,None,3963.016310117002,None,3964.301001771002,None,3964.301001771002,None,3964.301001771002,None,3964.301001771002,None,,,,,,,,,,,,,,,,,,,,,,,,,,,,,,,,,,,,,,,,,,,,001,110,2020_Feb_11_1409,spring_faces,3.1.5,60.300482611833,
condition files/Stage1_1.xlsx,,B2,T1,m,"['c', 'm']","['Clue', 'Monopoly']","[-0.15, 0.5]","[0.15, 0.5]",1,1,,,,,,,,,0,0,0,0,0,3,3,2,,,,,,,,,,,,,,,,,,,,,,,,,,,,,,,,,,,,,,,,,,,,,,,,,,,,,,,3966.265638007002,None,3966.265638007002,None,3966.265638007002,None,m,1,1.2969457309991412,3967.815691681002,None,3967.815691681002,None,3967.815691681002,None,3969.1664254160005,None,3969.1664254160005,None,3969.1664254160005,None,3969.1664254160005,None,,,,,,,,,,,,,,,,,,,,,,,,,,,,,,,,,,,,,,,,,,,,001,110,2020_Feb_11_1409,spring_faces,3.1.5,60.300482611833,
condition files/Stage1_1.xlsx,,T2,B2,m,"['c', 'm']","['Clue', 'Monopoly']","[-0.15, 0.5]","[0.15, 0.5]",1,1,,,,,,,,,0,0,0,0,0,4,4,3,,,,,,,,,,,,,,,,,,,,,,,,,,,,,,,,,,,,,,,,,,,,,,,,,,,,,,,3971.1327955020006,None,3971.1327955020006,None,3971.1327955020006,None,c,0,0.9091006369999377,3972.667596358,None,3972.667596358,None,3972.667596358,None,3973.6319820769986,None,3973.6319820769986,None,3973.6319820769986,None,3973.6319820769986,None,,,,,,,,,,,,,,,,,,,,,,,,,,,,,,,,,,,,,,,,,,,,001,110,2020_Feb_11_1409,spring_faces,3.1.5,60.300482611833,
condition files/Stage1_1.xlsx,,T1,B1,c,"['c', 'm']","['Clue', 'Monopoly']","[-0.15, 0.5]","[0.15, 0.5]",1,1,,,,,,,,,0,0,0,0,0,5,5,0,,,,,,,,,,,,,,,,,,,,,,,,,,,,,,,,,,,,,,,,,,,,,,,,,,,,,,,3975.5999679270008,None,3975.5999679270008,None,3975.5999679270008,None,m,0,0.9397461939988716,3977.1328903410013,None,3977.1328903410013,None,3977.1328903410013,None,3978.1496967969997,None,3978.1496967969997,None,3978.1496967969997,None,3978.1496967969997,None,,,,,,,,,,,,,,,,,,,,,,,,,,,,,,,,,,,,,,,,,,,,001,110,2020_Feb_11_1409,spring_faces,3.1.5,60.300482611833,
condition files/Stage1_1.xlsx,,T3,B4,c,"['c', 'm']","['Clue', 'Monopoly']","[-0.15, 0.5]","[0.15, 0.5]",1,1,,,,,,,,,0,0,0,0,0,6,6,5,,,,,,,,,,,,,,,,,,,,,,,,,,,,,,,,,,,,,,,,,,,,,,,,,,,,,,,3980.099271244,None,3980.099271244,None,3980.099271244,None,c,1,2.6145834109993302,3981.6660432549997,None,3981.6660432549997,None,3981.6660432549997,None,3984.3329130500006,None,3984.3329130500006,None,3984.3329130500006,None,3984.3329130500006,None,,,,,,,,,,,,,,,,,,,,,,,,,,,,,,,,,,,,,,,,,,,,001,110,2020_Feb_11_1409,spring_faces,3.1.5,60.300482611833,
condition files/Stage1_1.xlsx,,B4,T4,m,"['c', 'm']","['Clue', 'Monopoly']","[-0.15, 0.5]","[0.15, 0.5]",1,1,,,,,,,,,0,0,0,0,0,7,7,7,,,,,,,,,,,,,,,,,,,,,,,,,,,,,,,,,,,,,,,,,,,,,,,,,,,,,,,3986.2991111579995,None,3986.2991111579995,None,3986.2991111579995,None,c,0,2.382790706000378,3987.849874509002,None,3987.849874509002,None,3987.849874509002,None,3990.2995899430007,None,3990.2995899430007,None,3990.2995899430007,None,3990.2995899430007,None,,,,,,,,,,,,,,,,,,,,,,,,,,,,,,,,,,,,,,,,,,,,001,110,2020_Feb_11_1409,spring_faces,3.1.5,60.300482611833,
condition files/Stage1_2.xlsx,,B4,T3,c,"['c', 'm']","['Clue', 'Monopoly']","[-0.15, 0.5]","[0.15, 0.5]",1,1,,,,,,,,,0,1,1,1,0,0,0,5,,,,,,,,,,,,,,,,,,,,,,,,,,,,,,,,,,,,,,,,,,,,,,,,,,,,,,,3992.2666586780015,None,3992.2666586780015,None,3992.2666586780015,None,c,1,1.246565830999316,3993.802120065002,None,3993.802120065002,None,3993.802120065002,None,3995.1159925449992,None,3995.1159925449992,None,3995.1159925449992,None,3995.1159925449992,None,,,,,,,,,,,,,,,,,,,,,,,,,,,,,,,,,,,,,,,,,,,,001,110,2020_Feb_11_1409,spring_faces,3.1.5,60.300482611833,
condition files/Stage1_2.xlsx,,T4,B4,m,"['c', 'm']","['Clue', 'Monopoly']","[-0.15, 0.5]","[0.15, 0.5]",1,1,,,,,,,,,0,1,1,1,0,1,1,7,,,,,,,,,,,,,,,,,,,,,,,,,,,,,,,,,,,,,,,,,,,,,,,,,,,,,,,3997.0661287130006,None,3997.0661287130006,None,3997.0661287130006,None,m,1,1.5827436100007617,3998.601912242999,None,3998.601912242999,None,3998.601912242999,None,4000.2525119619986,None,4000.2525119619986,None,4000.2525119619986,None,4000.2525119619986,None,,,,,,,,,,,,,,,,,,,,,,,,,,,,,,,,,,,,,,,,,,,,001,110,2020_Feb_11_1409,spring_faces,3.1.5,60.300482611833,
condition files/Stage1_2.xlsx,,T3,B3,c,"['c', 'm']","['Clue', 'Monopoly']","[-0.15, 0.5]","[0.15, 0.5]",1,1,,,,,,,,,0,1,1,1,0,2,2,4,,,,,,,,,,,,,,,,,,,,,,,,,,,,,,,,,,,,,,,,,,,,,,,,,,,,,,,4002.2159479989987,None,4002.2159479989987,None,4002.2159479989987,None,c,1,1.3455625209971913,4003.751069,None,4003.751069,None,4003.751069,None,4005.1664417660013,None,4005.1664417660013,None,4005.1664417660013,None,4005.1664417660013,None,,,,,,,,,,,,,,,,,,,,,,,,,,,,,,,,,,,,,,,,,,,,001,110,2020_Feb_11_1409,spring_faces,3.1.5,60.300482611833,
condition files/Stage1_2.xlsx,,T2,B1,c,"['c', 'm']","['Clue', 'Monopoly']","[-0.15, 0.5]","[0.15, 0.5]",1,1,,,,,,,,,0,1,1,1,0,3,3,1,,,,,,,,,,,,,,,,,,,,,,,,,,,,,,,,,,,,,,,,,,,,,,,,,,,,,,,4007.1162829410005,None,4007.1162829410005,None,4007.1162829410005,None,m,0,3.628899741001078,4008.6517490429997,None,4008.6517490429997,None,4008.6517490429997,None,4012.3331029220008,None,4012.3331029220008,None,4012.3331029220008,None,4012.3331029220008,None,,,,,,,,,,,,,,,,,,,,,,,,,,,,,,,,,,,,,,,,,,,,001,110,2020_Feb_11_1409,spring_faces,3.1.5,60.300482611833,
condition files/Stage1_2.xlsx,,B1,T1,c,"['c', 'm']","['Clue', 'Monopoly']","[-0.15, 0.5]","[0.15, 0.5]",1,1,,,,,,,,,0,1,1,1,0,4,4,0,,,,,,,,,,,,,,,,,,,,,,,,,,,,,,,,,,,,,,,,,,,,,,,,,,,,,,,4014.2995425809986,None,4014.2995425809986,None,4014.2995425809986,None,m,0,1.6622867130026862,4015.8343506740002,None,4015.8343506740002,None,4015.8343506740002,None,4017.5499602639993,None,4017.5499602639993,None,4017.5499602639993,None,4017.5499602639993,None,,,,,,,,,,,,,,,,,,,,,,,,,,,,,,,,,,,,,,,,,,,,001,110,2020_Feb_11_1409,spring_faces,3.1.5,60.300482611833,
condition files/Stage1_2.xlsx,,B3,T4,m,"['c', 'm']","['Clue', 'Monopoly']","[-0.15, 0.5]","[0.15, 0.5]",1,1,,,,,,,,,0,1,1,1,0,5,5,6,,,,,,,,,,,,,,,,,,,,,,,,,,,,,,,,,,,,,,,,,,,,,,,,,,,,,,,4019.515771687,None,4019.515771687,None,4019.515771687,None,c,0,7.7902201779979805,4021.0664744490005,None,4021.0664744490005,None,4021.0664744490005,None,4028.933096595001,None,4028.933096595001,None,4028.933096595001,None,4028.933096595001,None,,,,,,,,,,,,,,,,,,,,,,,,,,,,,,,,,,,,,,,,,,,,001,110,2020_Feb_11_1409,spring_faces,3.1.5,60.300482611833,
condition files/Stage1_2.xlsx,,T1,B2,m,"['c', 'm']","['Clue', 'Monopoly']","[-0.15, 0.5]","[0.15, 0.5]",1,1,,,,,,,,,0,1,1,1,0,6,6,2,,,,,,,,,,,,,,,,,,,,,,,,,,,,,,,,,,,,,,,,,,,,,,,,,,,,,,,4030.882732903001,None,4030.882732903001,None,4030.882732903001,None,m,1,1.1420049619991914,4032.4186337890005,None,4032.4186337890005,None,4032.4186337890005,None,4033.6163638410017,None,4033.6163638410017,None,4033.6163638410017,None,4033.6163638410017,None,,,,,,,,,,,,,,,,,,,,,,,,,,,,,,,,,,,,,,,,,,,,001,110,2020_Feb_11_1409,spring_faces,3.1.5,60.300482611833,
condition files/Stage1_2.xlsx,,B2,T2,m,"['c', 'm']","['Clue', 'Monopoly']","[-0.15, 0.5]","[0.15, 0.5]",1,1,,,,,,,,,0,1,1,1,0,7,7,3,,,,,,,,,,,,,,,,,,,,,,,,,,,,,,,,,,,,,,,,,,,,,,,,,,,,,,,4035.5833436830017,None,4035.5833436830017,None,4035.5833436830017,None,c,0,0.9087298979975458,4037.115943032002,None,4037.115943032002,None,4037.115943032002,None,4038.083139675002,None,4038.083139675002,None,4038.083139675002,None,4038.083139675002,None,,,,,,,,,,,,,,,,,,,,,,,,,,,,,,,,,,,,,,,,,,,,001,110,2020_Feb_11_1409,spring_faces,3.1.5,60.300482611833,
condition files/Stage1_1.xlsx,,T4,B3,m,"['c', 'm']","['Clue', 'Monopoly']","[-0.15, 0.5]","[0.15, 0.5]",1,1,,,,,,,,,0,2,2,2,0,0,0,6,,,,,,,,,,,,,,,,,,,,,,,,,,,,,,,,,,,,,,,,,,,,,,,,,,,,,,,4040.0661716269988,None,4040.0661716269988,None,4040.0661716269988,None,c,0,3.014563968001312,4041.602048513001,None,4041.602048513001,None,4041.602048513001,None,4044.6831650980002,None,4044.6831650980002,None,4044.6831650980002,None,4044.6831650980002,None,,,,,,,,,,,,,,,,,,,,,,,,,,,,,,,,,,,,,,,,,,,,001,110,2020_Feb_11_1409,spring_faces,3.1.5,60.300482611833,
condition files/Stage1_1.xlsx,,B3,T3,c,"['c', 'm']","['Clue', 'Monopoly']","[-0.15, 0.5]","[0.15, 0.5]",1,1,,,,,,,,,0,2,2,2,0,1,1,4,,,,,,,,,,,,,,,,,,,,,,,,,,,,,,,,,,,,,,,,,,,,,,,,,,,,,,,4046.6497037280005,None,4046.6497037280005,None,4046.6497037280005,None,c,1,2.4014674390018627,4048.183168755999,None,4048.183168755999,None,4048.183168755999,None,4050.649749410999,None,4050.649749410999,None,4050.649749410999,None,4050.649749410999,None,,,,,,,,,,,,,,,,,,,,,,,,,,,,,,,,,,,,,,,,,,,,001,110,2020_Feb_11_1409,spring_faces,3.1.5,60.300482611833,
condition files/Stage1_1.xlsx,,T1,B1,c,"['c', 'm']","['Clue', 'Monopoly']","[-0.15, 0.5]","[0.15, 0.5]",1,1,,,,,,,,,0,2,2,2,0,2,2,0,,,,,,,,,,,,,,,,,,,,,,,,,,,,,,,,,,,,,,,,,,,,,,,,,,,,,,,4052.6157614040003,None,4052.6157614040003,None,4052.6157614040003,None,m,0,2.081316242001776,4054.151366250002,None,4054.151366250002,None,4054.151366250002,None,4056.2828861180005,None,4056.2828861180005,None,4056.2828861180005,None,4056.2828861180005,None,,,,,,,,,,,,,,,,,,,,,,,,,,,,,,,,,,,,,,,,,,,,001,110,2020_Feb_11_1409,spring_faces,3.1.5,60.300482611833,
condition files/Stage1_1.xlsx,,B4,T4,m,"['c', 'm']","['Clue', 'Monopoly']","[-0.15, 0.5]","[0.15, 0.5]",1,1,,,,,,,,,0,2,2,2,0,3,3,7,,,,,,,,,,,,,,,,,,,,,,,,,,,,,,,,,,,,,,,,,,,,,,,,,,,,,,,4058.2492109940013,None,4058.2492109940013,None,4058.2492109940013,None,c,0,0.6888243399989733,4059.7998399139997,None,4059.7998399139997,None,4059.7998399139997,None,4060.5666532349987,None,4060.5666532349987,None,4060.5666532349987,None,4060.5666532349987,None,,,,,,,,,,,,,,,,,,,,,,,,,,,,,,,,,,,,,,,,,,,,001,110,2020_Feb_11_1409,spring_faces,3.1.5,60.300482611833,
condition files/Stage1_1.xlsx,,T2,B2,m,"['c', 'm']","['Clue', 'Monopoly']","[-0.15, 0.5]","[0.15, 0.5]",1,1,,,,,,,,,0,2,2,2,0,4,4,3,,,,,,,,,,,,,,,,,,,,,,,,,,,,,,,,,,,,,,,,,,,,,,,,,,,,,,,4062.516239054001,None,4062.516239054001,None,4062.516239054001,None,m,1,0.662105267001607,4064.0504904259997,None,4064.0504904259997,None,4064.0504904259997,None,4064.7664679829995,None,4064.7664679829995,None,4064.7664679829995,None,4064.7664679829995,None,,,,,,,,,,,,,,,,,,,,,,,,,,,,,,,,,,,,,,,,,,,,001,110,2020_Feb_11_1409,spring_faces,3.1.5,60.300482611833,
condition files/Stage1_1.xlsx,,B2,T1,m,"['c', 'm']","['Clue', 'Monopoly']","[-0.15, 0.5]","[0.15, 0.5]",1,1,,,,,,,,,0,2,2,2,0,5,5,2,,,,,,,,,,,,,,,,,,,,,,,,,,,,,,,,,,,,,,,,,,,,,,,,,,,,,,,4066.7325285979987,None,4066.7325285979987,None,4066.7325285979987,None,m,1,0.7665982179969433,4068.2660628270005,None,4068.2660628270005,None,4068.2660628270005,None,4069.082981067002,None,4069.082981067002,None,4069.082981067002,None,4069.082981067002,None,,,,,,,,,,,,,,,,,,,,,,,,,,,,,,,,,,,,,,,,,,,,001,110,2020_Feb_11_1409,spring_faces,3.1.5,60.300482611833,
condition files/Stage1_1.xlsx,,B1,T2,c,"['c', 'm']","['Clue', 'Monopoly']","[-0.15, 0.5]","[0.15, 0.5]",1,1,,,,,,,,,0,2,2,2,0,6,6,1,,,,,,,,,,,,,,,,,,,,,,,,,,,,,,,,,,,,,,,,,,,,,,,,,,,,,,,4071.049252548002,None,4071.049252548002,None,4071.049252548002,None,c,1,2.1123547640017932,4072.5842946210014,None,4072.5842946210014,None,4072.5842946210014,None,4074.750327107,None,4074.750327107,None,4074.750327107,None,4074.750327107,None,,,,,,,,,,,,,,,,,,,,,,,,,,,,,,,,,,,,,,,,,,,,001,110,2020_Feb_11_1409,spring_faces,3.1.5,60.300482611833,
condition files/Stage1_1.xlsx,,T3,B4,c,"['c', 'm']","['Clue', 'Monopoly']","[-0.15, 0.5]","[0.15, 0.5]",1,1,,,,,,,,,0,2,2,2,0,7,7,5,,,,,,,,,,,,,,,,,,,,,,,,,,,,,,,,,,,,,,,,,,,,,,,,,,,,,,,4076.715931015,None,4076.715931015,None,4076.715931015,None,m,0,1.0849277380002604,4078.251754286999,None,4078.251754286999,None,4078.251754286999,None,4079.3997836219987,None,4079.3997836219987,None,4079.3997836219987,None,4079.3997836219987,None,,,,,,,,,,,,,,,,,,,,,,,,,,,,,,,,,,,,,,,,,,,,001,110,2020_Feb_11_1409,spring_faces,3.1.5,60.300482611833,
condition files/Stage1_2.xlsx,,T4,B4,m,"['c', 'm']","['Clue', 'Monopoly']","[-0.15, 0.5]","[0.15, 0.5]",1,1,,,,,,,,,0,3,3,3,0,0,0,7,,,,,,,,,,,,,,,,,,,,,,,,,,,,,,,,,,,,,,,,,,,,,,,,,,,,,,,4081.383210058999,None,4081.383210058999,None,4081.383210058999,None,m,1,1.0591921330014884,4082.9175259150015,None,4082.9175259150015,None,4082.9175259150015,None,4084.0491265889996,None,4084.0491265889996,None,4084.0491265889996,None,4084.0491265889996,None,,,,,,,,,,,,,,,,,,,,,,,,,,,,,,,,,,,,,,,,,,,,001,110,2020_Feb_11_1409,spring_faces,3.1.5,60.300482611833,
condition files/Stage1_2.xlsx,,T1,B2,m,"['c', 'm']","['Clue', 'Monopoly']","[-0.15, 0.5]","[0.15, 0.5]",1,1,,,,,,,,,0,3,3,3,0,1,1,2,,,,,,,,,,,,,,,,,,,,,,,,,,,,,,,,,,,,,,,,,,,,,,,,,,,,,,,4085.9988187299987,None,4085.9988187299987,None,4085.9988187299987,None,m,1,0.828198043996963,4087.5324013709997,None,4087.5324013709997,None,4087.5324013709997,None,4088.4164759450014,None,4088.4164759450014,None,4088.4164759450014,None,4088.4164759450014,None,,,,,,,,,,,,,,,,,,,,,,,,,,,,,,,,,,,,,,,,,,,,001,110,2020_Feb_11_1409,spring_faces,3.1.5,60.300482611833,
condition files/Stage1_2.xlsx,,B4,T3,c,"['c', 'm']","['Clue', 'Monopoly']","[-0.15, 0.5]","[0.15, 0.5]",1,1,,,,,,,,,0,3,3,3,0,2,2,5,,,,,,,,,,,,,,,,,,,,,,,,,,,,,,,,,,,,,,,,,,,,,,,,,,,,,,,4090.382687800002,None,4090.382687800002,None,4090.382687800002,None,c,1,1.1803014420002,4091.9163349460014,None,4091.9163349460014,None,4091.9163349460014,None,4093.1663609549996,None,4093.1663609549996,None,4093.1663609549996,None,4093.1663609549996,None,,,,,,,,,,,,,,,,,,,,,,,,,,,,,,,,,,,,,,,,,,,,001,110,2020_Feb_11_1409,spring_faces,3.1.5,60.300482611833,
condition files/Stage1_2.xlsx,,B3,T4,m,"['c', 'm']","['Clue', 'Monopoly']","[-0.15, 0.5]","[0.15, 0.5]",1,1,,,,,,,,,0,3,3,3,0,3,3,6,,,,,,,,,,,,,,,,,,,,,,,,,,,,,,,,,,,,,,,,,,,,,,,,,,,,,,,4095.116018232,None,4095.116018232,None,4095.116018232,None,m,1,3.5502211380007793,4096.650403363999,None,4096.650403363999,None,4096.650403363999,None,4100.283051904002,None,4100.283051904002,None,4100.283051904002,None,4100.283051904002,None,,,,,,,,,,,,,,,,,,,,,,,,,,,,,,,,,,,,,,,,,,,,001,110,2020_Feb_11_1409,spring_faces,3.1.5,60.300482611833,
condition files/Stage1_2.xlsx,,T3,B3,c,"['c', 'm']","['Clue', 'Monopoly']","[-0.15, 0.5]","[0.15, 0.5]",1,1,,,,,,,,,0,3,3,3,0,4,4,4,,,,,,,,,,,,,,,,,,,,,,,,,,,,,,,,,,,,,,,,,,,,,,,,,,,,,,,4102.232147381999,None,4102.232147381999,None,4102.232147381999,None,c,1,1.8738655080014723,4103.782834393,None,4103.782834393,None,4103.782834393,None,4105.733024220999,None,4105.733024220999,None,4105.733024220999,None,4105.733024220999,None,,,,,,,,,,,,,,,,,,,,,,,,,,,,,,,,,,,,,,,,,,,,001,110,2020_Feb_11_1409,spring_faces,3.1.5,60.300482611833,
condition files/Stage1_2.xlsx,,T2,B1,c,"['c', 'm']","['Clue', 'Monopoly']","[-0.15, 0.5]","[0.15, 0.5]",1,1,,,,,,,,,0,3,3,3,0,5,5,1,,,,,,,,,,,,,,,,,,,,,,,,,,,,,,,,,,,,,,,,,,,,,,,,,,,,,,,4107.682769871999,None,4107.682769871999,None,4107.682769871999,None,c,1,1.6556999909989827,4109.232969175,None,4109.232969175,None,4109.232969175,None,4110.950059724999,None,4110.950059724999,None,4110.950059724999,None,4110.950059724999,None,,,,,,,,,,,,,,,,,,,,,,,,,,,,,,,,,,,,,,,,,,,,001,110,2020_Feb_11_1409,spring_faces,3.1.5,60.300482611833,
condition files/Stage1_2.xlsx,,B1,T1,c,"['c', 'm']","['Clue', 'Monopoly']","[-0.15, 0.5]","[0.15, 0.5]",1,1,,,,,,,,,0,3,3,3,0,6,6,0,,,,,,,,,,,,,,,,,,,,,,,,,,,,,,,,,,,,,,,,,,,,,,,,,,,,,,,4112.915793847,None,4112.915793847,None,4112.915793847,None,m,0,1.525923026001692,4114.450790753001,None,4114.450790753001,None,4114.450790753001,None,4116.032797949001,None,4116.032797949001,None,4116.032797949001,None,4116.032797949001,None,,,,,,,,,,,,,,,,,,,,,,,,,,,,,,,,,,,,,,,,,,,,001,110,2020_Feb_11_1409,spring_faces,3.1.5,60.300482611833,
condition files/Stage1_2.xlsx,,B2,T2,m,"['c', 'm']","['Clue', 'Monopoly']","[-0.15, 0.5]","[0.15, 0.5]",1,1,,,,,,,,,0,3,3,3,0,7,7,3,,,,,,,,,,,,,,,,,,,,,,,,,,,,,,,,,,,,,,,,,,,,,,,,,,,,,,,4117.999830539002,None,4117.999830539002,None,4117.999830539002,None,m,1,1.082804320998548,4119.549860628,None,4119.549860628,None,4119.549860628,None,4120.684859326999,None,4120.684859326999,None,4120.684859326999,None,4120.684859326999,None,,,,,,,,,,,,,,,,,,,,,,,,,,,,,,,,,,,,,,,,,,,,001,110,2020_Feb_11_1409,spring_faces,3.1.5,60.300482611833,
condition files/Stage1_1.xlsx,,T2,B2,m,"['c', 'm']","['Clue', 'Monopoly']","[-0.15, 0.5]","[0.15, 0.5]",1,1,,,,,,,,,0,4,4,4,0,0,0,3,,,,,,,,,,,,,,,,,,,,,,,,,,,,,,,,,,,,,,,,,,,,,,,,,,,,,,,4122.666595673001,None,4122.666595673001,None,4122.666595673001,None,c,0,1.4409355860007054,4124.215772131001,None,4124.215772131001,None,4124.215772131001,None,4125.715756893,None,4125.715756893,None,4125.715756893,None,4125.715756893,None,,,,,,,,,,,,,,,,,,,,,,,,,,,,,,,,,,,,,,,,,,,,001,110,2020_Feb_11_1409,spring_faces,3.1.5,60.300482611833,
condition files/Stage1_1.xlsx,,B3,T3,c,"['c', 'm']","['Clue', 'Monopoly']","[-0.15, 0.5]","[0.15, 0.5]",1,1,,,,,,,,,0,4,4,4,0,1,1,4,,,,,,,,,,,,,,,,,,,,,,,,,,,,,,,,,,,,,,,,,,,,,,,,,,,,,,,4127.682836259,None,4127.682836259,None,4127.682836259,None,c,1,1.480035960998066,4129.216582840001,None,4129.216582840001,None,4129.216582840001,None,4130.7503631380005,None,4130.7503631380005,None,4130.7503631380005,None,4130.7503631380005,None,,,,,,,,,,,,,,,,,,,,,,,,,,,,,,,,,,,,,,,,,,,,001,110,2020_Feb_11_1409,spring_faces,3.1.5,60.300482611833,
condition files/Stage1_1.xlsx,,T4,B3,m,"['c', 'm']","['Clue', 'Monopoly']","[-0.15, 0.5]","[0.15, 0.5]",1,1,,,,,,,,,0,4,4,4,0,2,2,6,,,,,,,,,,,,,,,,,,,,,,,,,,,,,,,,,,,,,,,,,,,,,,,,,,,,,,,4132.715987501002,None,4132.715987501002,None,4132.715987501002,None,m,1,1.2626606010016985,4134.250181665002,None,4134.250181665002,None,4134.250181665002,None,4135.583123879,None,4135.583123879,None,4135.583123879,None,4135.583123879,None,,,,,,,,,,,,,,,,,,,,,,,,,,,,,,,,,,,,,,,,,,,,001,110,2020_Feb_11_1409,spring_faces,3.1.5,60.300482611833,
condition files/Stage1_1.xlsx,,B2,T1,m,"['c', 'm']","['Clue', 'Monopoly']","[-0.15, 0.5]","[0.15, 0.5]",1,1,,,,,,,,,0,4,4,4,0,3,3,2,,,,,,,,,,,,,,,,,,,,,,,,,,,,,,,,,,,,,,,,,,,,,,,,,,,,,,,4137.532514085999,None,4137.532514085999,None,4137.532514085999,None,m,1,0.8766974750033114,4139.067951416999,None,4139.067951416999,None,4139.067951416999,None,4139.998957329999,None,4139.998957329999,None,4139.998957329999,None,4139.998957329999,None,,,,,,,,,,,,,,,,,,,,,,,,,,,,,,,,,,,,,,,,,,,,001,110,2020_Feb_11_1409,spring_faces,3.1.5,60.300482611833,
condition files/Stage1_1.xlsx,,T1,B1,c,"['c', 'm']","['Clue', 'Monopoly']","[-0.15, 0.5]","[0.15, 0.5]",1,1,,,,,,,,,0,4,4,4,0,4,4,0,,,,,,,,,,,,,,,,,,,,,,,,,,,,,,,,,,,,,,,,,,,,,,,,,,,,,,,4141.965994224001,None,4141.965994224001,None,4141.965994224001,None,c,1,1.2432863579997502,4143.501331785001,None,4143.501331785001,None,4143.501331785001,None,4144.816045689999,None,4144.816045689999,None,4144.816045689999,None,4144.816045689999,None,,,,,,,,,,,,,,,,,,,,,,,,,,,,,,,,,,,,,,,,,,,,001,110,2020_Feb_11_1409,spring_faces,3.1.5,60.300482611833,
condition files/Stage1_1.xlsx,,B4,T4,m,"['c', 'm']","['Clue', 'Monopoly']","[-0.15, 0.5]","[0.15, 0.5]",1,1,,,,,,,,,0,4,4,4,0,5,5,7,,,,,,,,,,,,,,,,,,,,,,,,,,,,,,,,,,,,,,,,,,,,,,,,,,,,,,,4146.765553759002,None,4146.765553759002,None,4146.765553759002,None,m,1,1.9003672800026834,4148.316221076,None,4148.316221076,None,4148.316221076,None,4150.282706938002,None,4150.282706938002,None,4150.282706938002,None,4150.282706938002,None,,,,,,,,,,,,,,,,,,,,,,,,,,,,,,,,,,,,,,,,,,,,001,110,2020_Feb_11_1409,spring_faces,3.1.5,60.300482611833,
condition files/Stage1_1.xlsx,,T3,B4,c,"['c', 'm']","['Clue', 'Monopoly']","[-0.15, 0.5]","[0.15, 0.5]",1,1,,,,,,,,,0,4,4,4,0,6,6,5,,,,,,,,,,,,,,,,,,,,,,,,,,,,,,,,,,,,,,,,,,,,,,,,,,,,,,,4152.249499551001,None,4152.249499551001,None,4152.249499551001,None,c,1,0.8979870760013,4153.7826674510015,None,4153.7826674510015,None,4153.7826674510015,None,4154.749731793001,None,4154.749731793001,None,4154.749731793001,None,4154.749731793001,None,,,,,,,,,,,,,,,,,,,,,,,,,,,,,,,,,,,,,,,,,,,,001,110,2020_Feb_11_1409,spring_faces,3.1.5,60.300482611833,
condition files/Stage1_1.xlsx,,B1,T2,c,"['c', 'm']","['Clue', 'Monopoly']","[-0.15, 0.5]","[0.15, 0.5]",1,1,,,,,,,,,0,4,4,4,0,7,7,1,,,,,,,,,,,,,,,,,,,,,,,,,,,,,,,,,,,,,,,,,,,,,,,,,,,,,,,4156.6988985100015,None,4156.6988985100015,None,4156.6988985100015,None,c,1,1.7272552889990038,4158.233360867,None,4158.233360867,None,4158.233360867,None,4160.016764817001,None,4160.016764817001,None,4160.016764817001,None,4160.016764817001,None,,,,,,,,,,,,,,,,,,,,,,,,,,,,,,,,,,,,,,,,,,,,001,110,2020_Feb_11_1409,spring_faces,3.1.5,60.300482611833,
condition files/Stage1_2.xlsx,,B4,T3,c,"['c', 'm']","['Clue', 'Monopoly']","[-0.15, 0.5]","[0.15, 0.5]",1,1,,,,,,,,,0,5,5,5,0,0,0,5,,,,,,,,,,,,,,,,,,,,,,,,,,,,,,,,,,,,,,,,,,,,,,,,,,,,,,,4161.999674835,None,4161.999674835,None,4161.999674835,None,c,1,1.7221379170005093,4163.5345834849995,None,4163.5345834849995,None,4163.5345834849995,None,4165.316749378,None,4165.316749378,None,4165.316749378,None,4165.316749378,None,,,,,,,,,,,,,,,,,,,,,,,,,,,,,,,,,,,,,,,,,,,,001,110,2020_Feb_11_1409,spring_faces,3.1.5,60.300482611833,
condition files/Stage1_2.xlsx,,T1,B2,m,"['c', 'm']","['Clue', 'Monopoly']","[-0.15, 0.5]","[0.15, 0.5]",1,1,,,,,,,,,0,5,5,5,0,1,1,2,,,,,,,,,,,,,,,,,,,,,,,,,,,,,,,,,,,,,,,,,,,,,,,,,,,,,,,4167.283004400002,None,4167.283004400002,None,4167.283004400002,None,m,1,0.9035972299971036,4168.817125580999,None,4168.817125580999,None,4168.817125580999,None,4169.783382371001,None,4169.783382371001,None,4169.783382371001,None,4169.783382371001,None,,,,,,,,,,,,,,,,,,,,,,,,,,,,,,,,,,,,,,,,,,,,001,110,2020_Feb_11_1409,spring_faces,3.1.5,60.300482611833,
condition files/Stage1_2.xlsx,,B2,T2,m,"['c', 'm']","['Clue', 'Monopoly']","[-0.15, 0.5]","[0.15, 0.5]",1,1,,,,,,,,,0,5,5,5,0,2,2,3,,,,,,,,,,,,,,,,,,,,,,,,,,,,,,,,,,,,,,,,,,,,,,,,,,,,,,,4171.749563899999,None,4171.749563899999,None,4171.749563899999,None,m,1,1.5101449210014835,4173.282462477999,None,4173.282462477999,None,4173.282462477999,None,4174.849412236001,None,4174.849412236001,None,4174.849412236001,None,4174.849412236001,None,,,,,,,,,,,,,,,,,,,,,,,,,,,,,,,,,,,,,,,,,,,,001,110,2020_Feb_11_1409,spring_faces,3.1.5,60.300482611833,
condition files/Stage1_2.xlsx,,T2,B1,c,"['c', 'm']","['Clue', 'Monopoly']","[-0.15, 0.5]","[0.15, 0.5]",1,1,,,,,,,,,0,5,5,5,0,3,3,1,,,,,,,,,,,,,,,,,,,,,,,,,,,,,,,,,,,,,,,,,,,,,,,,,,,,,,,4176.816122803999,None,4176.816122803999,None,4176.816122803999,None,c,1,1.0981330780014105,4178.3665256389995,None,4178.3665256389995,None,4178.3665256389995,None,4179.518923775,None,4179.518923775,None,4179.518923775,None,4179.518923775,None,,,,,,,,,,,,,,,,,,,,,,,,,,,,,,,,,,,,,,,,,,,,001,110,2020_Feb_11_1409,spring_faces,3.1.5,60.300482611833,
condition files/Stage1_2.xlsx,,T3,B3,c,"['c', 'm']","['Clue', 'Monopoly']","[-0.15, 0.5]","[0.15, 0.5]",1,1,,,,,,,,,0,5,5,5,0,4,4,4,,,,,,,,,,,,,,,,,,,,,,,,,,,,,,,,,,,,,,,,,,,,,,,,,,,,,,,4181.482898616001,None,4181.482898616001,None,4181.482898616001,None,c,1,0.831902573001571,4183.016788323001,None,4183.016788323001,None,4183.016788323001,None,4183.899773407002,None,4183.899773407002,None,4183.899773407002,None,4183.899773407002,None,,,,,,,,,,,,,,,,,,,,,,,,,,,,,,,,,,,,,,,,,,,,001,110,2020_Feb_11_1409,spring_faces,3.1.5,60.300482611833,
condition files/Stage1_2.xlsx,,T4,B4,m,"['c', 'm']","['Clue', 'Monopoly']","[-0.15, 0.5]","[0.15, 0.5]",1,1,,,,,,,,,0,5,5,5,0,5,5,7,,,,,,,,,,,,,,,,,,,,,,,,,,,,,,,,,,,,,,,,,,,,,,,,,,,,,,,4185.865599948002,None,4185.865599948002,None,4185.865599948002,None,m,1,1.9685536600009073,4187.416068495999,None,4187.416068495999,None,4187.416068495999,None,4189.466482189002,None,4189.466482189002,None,4189.466482189002,None,4189.466482189002,None,,,,,,,,,,,,,,,,,,,,,,,,,,,,,,,,,,,,,,,,,,,,001,110,2020_Feb_11_1409,spring_faces,3.1.5,60.300482611833,
condition files/Stage1_2.xlsx,,B1,T1,c,"['c', 'm']","['Clue', 'Monopoly']","[-0.15, 0.5]","[0.15, 0.5]",1,1,,,,,,,,,0,5,5,5,0,6,6,0,,,,,,,,,,,,,,,,,,,,,,,,,,,,,,,,,,,,,,,,,,,,,,,,,,,,,,,4191.415602569001,None,4191.415602569001,None,4191.415602569001,None,c,1,2.2112955410011637,4192.949345338,None,4192.949345338,None,4192.949345338,None,4195.233092855999,None,4195.233092855999,None,4195.233092855999,None,4195.233092855999,None,,,,,,,,,,,,,,,,,,,,,,,,,,,,,,,,,,,,,,,,,,,,001,110,2020_Feb_11_1409,spring_faces,3.1.5,60.300482611833,
condition files/Stage1_2.xlsx,,B3,T4,m,"['c', 'm']","['Clue', 'Monopoly']","[-0.15, 0.5]","[0.15, 0.5]",1,1,,,,,,,,,0,5,5,5,0,7,7,6,,,,,,,,,,,,,,,,,,,,,,,,,,,,,,,,,,,,,,,,,,,,,,,,,,,,,,,4197.182761711001,None,4197.182761711001,None,4197.182761711001,None,c,0,2.7800512649992015,4198.732592891001,None,4198.732592891001,None,4198.732592891001,None,4201.583056099002,None,4201.583056099002,None,4201.583056099002,None,4201.583056099002,None,,,,,,,,,,,,,,,,,,,,,,,,,,,,,,,,,,,,,,,,,,,,001,110,2020_Feb_11_1409,spring_faces,3.1.5,60.300482611833,
condition files/Stage1_1.xlsx,,B1,T2,c,"['c', 'm']","['Clue', 'Monopoly']","[-0.15, 0.5]","[0.15, 0.5]",1,1,,,,,,,,,0,6,6,6,0,0,0,1,,,,,,,,,,,,,,,,,,,,,,,,,,,,,,,,,,,,,,,,,,,,,,,,,,,,,,,4203.549468822001,None,4203.549468822001,None,4203.549468822001,None,c,1,0.9569954540020262,4205.099688106,None,4205.099688106,None,4205.099688106,None,4206.1329872840015,None,4206.1329872840015,None,4206.1329872840015,None,4206.1329872840015,None,,,,,,,,,,,,,,,,,,,,,,,,,,,,,,,,,,,,,,,,,,,,001,110,2020_Feb_11_1409,spring_faces,3.1.5,60.300482611833,
condition files/Stage1_1.xlsx,,T2,B2,m,"['c', 'm']","['Clue', 'Monopoly']","[-0.15, 0.5]","[0.15, 0.5]",1,1,,,,,,,,,0,6,6,6,0,1,1,3,,,,,,,,,,,,,,,,,,,,,,,,,,,,,,,,,,,,,,,,,,,,,,,,,,,,,,,4208.082134782,None,4208.082134782,None,4208.082134782,None,m,1,0.8220764559991949,4209.618638662001,None,4209.618638662001,None,4209.618638662001,None,4210.516497277002,None,4210.516497277002,None,4210.516497277002,None,4210.516497277002,None,,,,,,,,,,,,,,,,,,,,,,,,,,,,,,,,,,,,,,,,,,,,001,110,2020_Feb_11_1409,spring_faces,3.1.5,60.300482611833,
condition files/Stage1_1.xlsx,,B3,T3,c,"['c', 'm']","['Clue', 'Monopoly']","[-0.15, 0.5]","[0.15, 0.5]",1,1,,,,,,,,,0,6,6,6,0,2,2,4,,,,,,,,,,,,,,,,,,,,,,,,,,,,,,,,,,,,,,,,,,,,,,,,,,,,,,,4212.465809747,None,4212.465809747,None,4212.465809747,None,c,1,2.1847826810007973,4213.999796408001,None,4213.999796408001,None,4213.999796408001,None,4216.266450727,None,4216.266450727,None,4216.266450727,None,4216.266450727,None,,,,,,,,,,,,,,,,,,,,,,,,,,,,,,,,,,,,,,,,,,,,001,110,2020_Feb_11_1409,spring_faces,3.1.5,60.300482611833,
condition files/Stage1_1.xlsx,,T1,B1,c,"['c', 'm']","['Clue', 'Monopoly']","[-0.15, 0.5]","[0.15, 0.5]",1,1,,,,,,,,,0,6,6,6,0,3,3,0,,,,,,,,,,,,,,,,,,,,,,,,,,,,,,,,,,,,,,,,,,,,,,,,,,,,,,,4218.2156906,None,4218.2156906,None,4218.2156906,None,c,1,4.688660756997706,4219.7520443580015,None,4219.7520443580015,None,4219.7520443580015,None,4224.499385285,None,4224.499385285,None,4224.499385285,None,4224.499385285,None,,,,,,,,,,,,,,,,,,,,,,,,,,,,,,,,,,,,,,,,,,,,001,110,2020_Feb_11_1409,spring_faces,3.1.5,60.300482611833,
condition files/Stage1_1.xlsx,,T4,B3,m,"['c', 'm']","['Clue', 'Monopoly']","[-0.15, 0.5]","[0.15, 0.5]",1,1,,,,,,,,,0,6,6,6,0,4,4,6,,,,,,,,,,,,,,,,,,,,,,,,,,,,,,,,,,,,,,,,,,,,,,,,,,,,,,,4226.465571162002,None,4226.465571162002,None,4226.465571162002,None,c,0,6.63279047800097,4228.0158742,None,4228.0158742,None,4228.0158742,None,4234.716606254,None,4234.716606254,None,4234.716606254,None,4234.716606254,None,,,,,,,,,,,,,,,,,,,,,,,,,,,,,,,,,,,,,,,,,,,,001,110,2020_Feb_11_1409,spring_faces,3.1.5,60.300482611833,
condition files/Stage1_1.xlsx,,T3,B4,c,"['c', 'm']","['Clue', 'Monopoly']","[-0.15, 0.5]","[0.15, 0.5]",1,1,,,,,,,,,0,6,6,6,0,5,5,5,,,,,,,,,,,,,,,,,,,,,,,,,,,,,,,,,,,,,,,,,,,,,,,,,,,,,,,4236.666038543999,None,4236.666038543999,None,4236.666038543999,None,c,1,1.2643405090020678,4238.216300762999,None,4238.216300762999,None,4238.216300762999,None,4239.54906974,None,4239.54906974,None,4239.54906974,None,4239.54906974,None,,,,,,,,,,,,,,,,,,,,,,,,,,,,,,,,,,,,,,,,,,,,001,110,2020_Feb_11_1409,spring_faces,3.1.5,60.300482611833,
condition files/Stage1_1.xlsx,,B4,T4,m,"['c', 'm']","['Clue', 'Monopoly']","[-0.15, 0.5]","[0.15, 0.5]",1,1,,,,,,,,,0,6,6,6,0,6,6,7,,,,,,,,,,,,,,,,,,,,,,,,,,,,,,,,,,,,,,,,,,,,,,,,,,,,,,,4241.499499420001,None,4241.499499420001,None,4241.499499420001,None,m,1,2.1595564980016206,4243.049122253002,None,4243.049122253002,None,4243.049122253002,None,4245.282878107,None,4245.282878107,None,4245.282878107,None,4245.282878107,None,,,,,,,,,,,,,,,,,,,,,,,,,,,,,,,,,,,,,,,,,,,,001,110,2020_Feb_11_1409,spring_faces,3.1.5,60.300482611833,
condition files/Stage1_1.xlsx,,B2,T1,m,"['c', 'm']","['Clue', 'Monopoly']","[-0.15, 0.5]","[0.15, 0.5]",1,1,,,,,,,,,0,6,6,6,0,7,7,2,,,,,,,,,,,,,,,,,,,,,,,,,,,,,,,,,,,,,,,,,,,,,,,,,,,,,,,4247.232969504001,None,4247.232969504001,None,4247.232969504001,None,m,1,3.336952924000798,4248.7677185990015,None,4248.7677185990015,None,4248.7677185990015,None,4252.166147397,None,4252.166147397,None,4252.166147397,None,4252.166147397,None,,,,,,,,,,,,,,,,,,,,,,,,,,,,,,,,,,,,,,,,,,,,001,110,2020_Feb_11_1409,spring_faces,3.1.5,60.300482611833,
condition files/Stage1_2.xlsx,,B4,T3,c,"['c', 'm']","['Clue', 'Monopoly']","[-0.15, 0.5]","[0.15, 0.5]",1,1,,,,,,,,,0,7,7,7,0,0,0,5,,,,,,,,,,,,,,,,,,,,,,,,,,,,,,,,,,,,,,,,,,,,,,,,,,,,,,,4254.149789622001,None,4254.149789622001,None,4254.149789622001,None,c,1,1.2523061309984769,4255.684391434001,None,4255.684391434001,None,4255.684391434001,None,4257.001669494,None,4257.001669494,None,4257.001669494,None,4257.001669494,None,,,,,,,,,,,,,,,,,,,,,,,,,,,,,,,,,,,,,,,,,,,,001,110,2020_Feb_11_1409,spring_faces,3.1.5,60.300482611833,
condition files/Stage1_2.xlsx,,T2,B1,c,"['c', 'm']","['Clue', 'Monopoly']","[-0.15, 0.5]","[0.15, 0.5]",1,1,,,,,,,,,0,7,7,7,0,1,1,1,,,,,,,,,,,,,,,,,,,,,,,,,,,,,,,,,,,,,,,,,,,,,,,,,,,,,,,4258.965986686,None,4258.965986686,None,4258.965986686,None,c,1,2.659600948998559,4260.501038534001,None,4260.501038534001,None,4260.501038534001,None,4263.216135901001,None,4263.216135901001,None,4263.216135901001,None,4263.216135901001,None,,,,,,,,,,,,,,,,,,,,,,,,,,,,,,,,,,,,,,,,,,,,001,110,2020_Feb_11_1409,spring_faces,3.1.5,60.300482611833,
condition files/Stage1_2.xlsx,,T3,B3,c,"['c', 'm']","['Clue', 'Monopoly']","[-0.15, 0.5]","[0.15, 0.5]",1,1,,,,,,,,,0,7,7,7,0,2,2,4,,,,,,,,,,,,,,,,,,,,,,,,,,,,,,,,,,,,,,,,,,,,,,,,,,,,,,,4265.182493581002,None,4265.182493581002,None,4265.182493581002,None,m,0,4.171394172000873,4266.717245140999,None,4266.717245140999,None,4266.717245140999,None,4270.949798202999,None,4270.949798202999,None,4270.949798202999,None,4270.949798202999,None,,,,,,,,,,,,,,,,,,,,,,,,,,,,,,,,,,,,,,,,,,,,001,110,2020_Feb_11_1409,spring_faces,3.1.5,60.300482611833,
condition files/Stage1_2.xlsx,,B1,T1,c,"['c', 'm']","['Clue', 'Monopoly']","[-0.15, 0.5]","[0.15, 0.5]",1,1,,,,,,,,,0,7,7,7,0,3,3,0,,,,,,,,,,,,,,,,,,,,,,,,,,,,,,,,,,,,,,,,,,,,,,,,,,,,,,,4272.916132925,None,4272.916132925,None,4272.916132925,None,c,1,1.8629711480025435,4274.449674173002,None,4274.449674173002,None,4274.449674173002,None,4276.383007316001,None,4276.383007316001,None,4276.383007316001,None,4276.383007316001,None,,,,,,,,,,,,,,,,,,,,,,,,,,,,,,,,,,,,,,,,,,,,001,110,2020_Feb_11_1409,spring_faces,3.1.5,60.300482611833,
condition files/Stage1_2.xlsx,,T1,B2,m,"['c', 'm']","['Clue', 'Monopoly']","[-0.15, 0.5]","[0.15, 0.5]",1,1,,,,,,,,,0,7,7,7,0,4,4,2,,,,,,,,,,,,,,,,,,,,,,,,,,,,,,,,,,,,,,,,,,,,,,,,,,,,,,,4278.332966717002,None,4278.332966717002,None,4278.332966717002,None,m,1,0.6535732599986659,4279.883086753,None,4279.883086753,None,4279.883086753,None,4280.602142377002,None,4280.602142377002,None,4280.602142377002,None,4280.602142377002,None,,,,,,,,,,,,,,,,,,,,,,,,,,,,,,,,,,,,,,,,,,,,001,110,2020_Feb_11_1409,spring_faces,3.1.5,60.300482611833,
condition files/Stage1_2.xlsx,,B3,T4,m,"['c', 'm']","['Clue', 'Monopoly']","[-0.15, 0.5]","[0.15, 0.5]",1,1,,,,,,,,,0,7,7,7,0,5,5,6,,,,,,,,,,,,,,,,,,,,,,,,,,,,,,,,,,,,,,,,,,,,,,,,,,,,,,,4282.565542843999,None,4282.565542843999,None,4282.565542843999,None,c,0,2.340241744001105,4284.100475006,None,4284.100475006,None,4284.100475006,None,4286.499124789001,None,4286.499124789001,None,4286.499124789001,None,4286.499124789001,None,,,,,,,,,,,,,,,,,,,,,,,,,,,,,,,,,,,,,,,,,,,,001,110,2020_Feb_11_1409,spring_faces,3.1.5,60.300482611833,
condition files/Stage1_2.xlsx,,B2,T2,m,"['c', 'm']","['Clue', 'Monopoly']","[-0.15, 0.5]","[0.15, 0.5]",1,1,,,,,,,,,0,7,7,7,0,6,6,3,,,,,,,,,,,,,,,,,,,,,,,,,,,,,,,,,,,,,,,,,,,,,,,,,,,,,,,4288.466115983001,None,4288.466115983001,None,4288.466115983001,None,m,1,0.8722446030005813,4290.000388224,None,4290.000388224,None,4290.000388224,None,4290.933214273,None,4290.933214273,None,4290.933214273,None,4290.933214273,None,,,,,,,,,,,,,,,,,,,,,,,,,,,,,,,,,,,,,,,,,,,,001,110,2020_Feb_11_1409,spring_faces,3.1.5,60.300482611833,
condition files/Stage1_2.xlsx,,T4,B4,m,"['c', 'm']","['Clue', 'Monopoly']","[-0.15, 0.5]","[0.15, 0.5]",1,1,,,,,,,,,0,7,7,7,0,7,7,7,,,,,,,,,,,,,,,,,,,,,,,,,,,,,,,,,,,,,,,,,,,,,,,,,,,,,,,4292.8996581070005,None,4292.8996581070005,None,4292.8996581070005,None,c,0,0.9665505529992515,4294.434060534999,None,4294.434060534999,None,4294.434060534999,None,4295.4667133759995,None,4295.4667133759995,None,4295.4667133759995,None,4295.4667133759995,None,,,,,,,,,,,,,,,,,,,,,,,,,,,,,,,,,,,,,,,,,,,,001,110,2020_Feb_11_1409,spring_faces,3.1.5,60.300482611833,
condition files/Stage1_1.xlsx,,T2,B2,m,"['c', 'm']","['Clue', 'Monopoly']","[-0.15, 0.5]","[0.15, 0.5]",1,1,,,,,,,,,0,8,8,8,0,0,0,3,,,,,,,,,,,,,,,,,,,,,,,,,,,,,,,,,,,,,,,,,,,,,,,,,,,,,,,4297.449605972999,None,4297.449605972999,None,4297.449605972999,None,m,1,0.6900181650016748,4298.982644600999,None,4298.982644600999,None,4298.982644600999,None,4299.733448870002,None,4299.733448870002,None,4299.733448870002,None,4299.733448870002,None,,,,,,,,,,,,,,,,,,,,,,,,,,,,,,,,,,,,,,,,,,,,001,110,2020_Feb_11_1409,spring_faces,3.1.5,60.300482611833,
condition files/Stage1_1.xlsx,,B4,T4,m,"['c', 'm']","['Clue', 'Monopoly']","[-0.15, 0.5]","[0.15, 0.5]",1,1,,,,,,,,,0,8,8,8,0,1,1,7,,,,,,,,,,,,,,,,,,,,,,,,,,,,,,,,,,,,,,,,,,,,,,,,,,,,,,,4301.699328733999,None,4301.699328733999,None,4301.699328733999,None,m,1,3.015234475999023,4303.249419738999,None,4303.249419738999,None,4303.249419738999,None,4306.316752119999,None,4306.316752119999,None,4306.316752119999,None,4306.316752119999,None,,,,,,,,,,,,,,,,,,,,,,,,,,,,,,,,,,,,,,,,,,,,001,110,2020_Feb_11_1409,spring_faces,3.1.5,60.300482611833,
condition files/Stage1_1.xlsx,,B3,T3,c,"['c', 'm']","['Clue', 'Monopoly']","[-0.15, 0.5]","[0.15, 0.5]",1,1,,,,,,,,,0,8,8,8,0,2,2,4,,,,,,,,,,,,,,,,,,,,,,,,,,,,,,,,,,,,,,,,,,,,,,,,,,,,,,,4308.28247371,None,4308.28247371,None,4308.28247371,None,c,1,1.0566532609991555,4309.815960162001,None,4309.815960162001,None,4309.815960162001,None,4310.933115467002,None,4310.933115467002,None,4310.933115467002,None,4310.933115467002,None,,,,,,,,,,,,,,,,,,,,,,,,,,,,,,,,,,,,,,,,,,,,001,110,2020_Feb_11_1409,spring_faces,3.1.5,60.300482611833,
condition files/Stage1_1.xlsx,,B2,T1,m,"['c', 'm']","['Clue', 'Monopoly']","[-0.15, 0.5]","[0.15, 0.5]",1,1,,,,,,,,,0,8,8,8,0,3,3,2,,,,,,,,,,,,,,,,,,,,,,,,,,,,,,,,,,,,,,,,,,,,,,,,,,,,,,,4312.899522542999,None,4312.899522542999,None,4312.899522542999,None,m,1,0.9989110460010124,4314.449714315002,None,4314.449714315002,None,4314.449714315002,None,4315.515845557,None,4315.515845557,None,4315.515845557,None,4315.515845557,None,,,,,,,,,,,,,,,,,,,,,,,,,,,,,,,,,,,,,,,,,,,,001,110,2020_Feb_11_1409,spring_faces,3.1.5,60.300482611833,
condition files/Stage1_1.xlsx,,T1,B1,c,"['c', 'm']","['Clue', 'Monopoly']","[-0.15, 0.5]","[0.15, 0.5]",1,1,,,,,,,,,0,8,8,8,0,4,4,0,,,,,,,,,,,,,,,,,,,,,,,,,,,,,,,,,,,,,,,,,,,,,,,,,,,,,,,4317.466270572002,None,4317.466270572002,None,4317.466270572002,None,c,1,0.8801747620018432,4319.016444406001,None,4319.016444406001,None,4319.016444406001,None,4319.965695737001,None,4319.965695737001,None,4319.965695737001,None,4319.965695737001,None,,,,,,,,,,,,,,,,,,,,,,,,,,,,,,,,,,,,,,,,,,,,001,110,2020_Feb_11_1409,spring_faces,3.1.5,60.300482611833,
condition files/Stage1_1.xlsx,,B1,T2,c,"['c', 'm']","['Clue', 'Monopoly']","[-0.15, 0.5]","[0.15, 0.5]",1,1,,,,,,,,,0,8,8,8,0,5,5,1,,,,,,,,,,,,,,,,,,,,,,,,,,,,,,,,,,,,,,,,,,,,,,,,,,,,,,,4321.916033097999,None,4321.916033097999,None,4321.916033097999,None,c,1,0.8774258919984277,4323.451198519999,None,4323.451198519999,None,4323.451198519999,None,4324.383346473,None,4324.383346473,None,4324.383346473,None,4324.383346473,None,,,,,,,,,,,,,,,,,,,,,,,,,,,,,,,,,,,,,,,,,,,,001,110,2020_Feb_11_1409,spring_faces,3.1.5,60.300482611833,
condition files/Stage1_1.xlsx,,T3,B4,c,"['c', 'm']","['Clue', 'Monopoly']","[-0.15, 0.5]","[0.15, 0.5]",1,1,,,,,,,,,0,8,8,8,0,6,6,5,,,,,,,,,,,,,,,,,,,,,,,,,,,,,,,,,,,,,,,,,,,,,,,,,,,,,,,4326.349132678,None,4326.349132678,None,4326.349132678,None,c,1,2.5411913490024745,4327.883518839002,None,4327.883518839002,None,4327.883518839002,None,4330.482260759001,None,4330.482260759001,None,4330.482260759001,None,4330.482260759001,None,,,,,,,,,,,,,,,,,,,,,,,,,,,,,,,,,,,,,,,,,,,,001,110,2020_Feb_11_1409,spring_faces,3.1.5,60.300482611833,
condition files/Stage1_1.xlsx,,T4,B3,m,"['c', 'm']","['Clue', 'Monopoly']","[-0.15, 0.5]","[0.15, 0.5]",1,1,,,,,,,,,0,8,8,8,0,7,7,6,,,,,,,,,,,,,,,,,,,,,,,,,,,,,,,,,,,,,,,,,,,,,,,,,,,,,,,4332.449592609,None,4332.449592609,None,4332.449592609,None,m,1,0.5359844759987027,4333.984686321999,None,4333.984686321999,None,4333.984686321999,None,4334.585462150002,None,4334.585462150002,None,4334.585462150002,None,4334.585462150002,None,,,,,,,,,,,,,,,,,,,,,,,,,,,,,,,,,,,,,,,,,,,,001,110,2020_Feb_11_1409,spring_faces,3.1.5,60.300482611833,
condition files/Stage1_2.xlsx,,T3,B3,c,"['c', 'm']","['Clue', 'Monopoly']","[-0.15, 0.5]","[0.15, 0.5]",1,1,,,,,,,,,0,9,9,9,0,0,0,4,,,,,,,,,,,,,,,,,,,,,,,,,,,,,,,,,,,,,,,,,,,,,,,,,,,,,,,4336.566361288,None,4336.566361288,None,4336.566361288,None,m,0,1.397494615001051,4338.099159930001,None,4338.099159930001,None,4338.099159930001,None,4339.552022705999,None,4339.552022705999,None,4339.552022705999,None,4339.552022705999,None,,,,,,,,,,,,,,,,,,,,,,,,,,,,,,,,,,,,,,,,,,,,001,110,2020_Feb_11_1409,spring_faces,3.1.5,60.300482611833,
condition files/Stage1_2.xlsx,,B1,T1,c,"['c', 'm']","['Clue', 'Monopoly']","[-0.15, 0.5]","[0.15, 0.5]",1,1,,,,,,,,,0,9,9,9,0,1,1,0,,,,,,,,,,,,,,,,,,,,,,,,,,,,,,,,,,,,,,,,,,,,,,,,,,,,,,,4341.516000795002,None,4341.516000795002,None,4341.516000795002,None,m,0,0.6222538649999478,4343.066417092001,None,4343.066417092001,None,4343.066417092001,None,4343.749490223001,None,4343.749490223001,None,4343.749490223001,None,4343.749490223001,None,,,,,,,,,,,,,,,,,,,,,,,,,,,,,,,,,,,,,,,,,,,,001,110,2020_Feb_11_1409,spring_faces,3.1.5,60.300482611833,
condition files/Stage1_2.xlsx,,T2,B1,c,"['c', 'm']","['Clue', 'Monopoly']","[-0.15, 0.5]","[0.15, 0.5]",1,1,,,,,,,,,0,9,9,9,0,2,2,1,,,,,,,,,,,,,,,,,,,,,,,,,,,,,,,,,,,,,,,,,,,,,,,,,,,,,,,4345.715779898999,None,4345.715779898999,None,4345.715779898999,None,c,1,0.8535686390023329,4347.251109537001,None,4347.251109537001,None,4347.251109537001,None,4348.166465269,None,4348.166465269,None,4348.166465269,None,4348.166465269,None,,,,,,,,,,,,,,,,,,,,,,,,,,,,,,,,,,,,,,,,,,,,001,110,2020_Feb_11_1409,spring_faces,3.1.5,60.300482611833,
condition files/Stage1_2.xlsx,,B2,T2,m,"['c', 'm']","['Clue', 'Monopoly']","[-0.15, 0.5]","[0.15, 0.5]",1,1,,,,,,,,,0,9,9,9,0,3,3,3,,,,,,,,,,,,,,,,,,,,,,,,,,,,,,,,,,,,,,,,,,,,,,,,,,,,,,,4350.132618648999,None,4350.132618648999,None,4350.132618648999,None,m,1,1.3326764350022131,4351.667928041001,None,4351.667928041001,None,4351.667928041001,None,4353.066059584,None,4353.066059584,None,4353.066059584,None,4353.066059584,None,,,,,,,,,,,,,,,,,,,,,,,,,,,,,,,,,,,,,,,,,,,,001,110,2020_Feb_11_1409,spring_faces,3.1.5,60.300482611833,
condition files/Stage1_2.xlsx,,T1,B2,m,"['c', 'm']","['Clue', 'Monopoly']","[-0.15, 0.5]","[0.15, 0.5]",1,1,,,,,,,,,0,9,9,9,0,4,4,2,,,,,,,,,,,,,,,,,,,,,,,,,,,,,,,,,,,,,,,,,,,,,,,,,,,,,,,4355.033039127002,None,4355.033039127002,None,4355.033039127002,None,m,1,1.10678689499764,4356.565933098,None,4356.565933098,None,4356.565933098,None,4357.733033045,None,4357.733033045,None,4357.733033045,None,4357.733033045,None,,,,,,,,,,,,,,,,,,,,,,,,,,,,,,,,,,,,,,,,,,,,001,110,2020_Feb_11_1409,spring_faces,3.1.5,60.300482611833,
condition files/Stage1_2.xlsx,,T4,B4,m,"['c', 'm']","['Clue', 'Monopoly']","[-0.15, 0.5]","[0.15, 0.5]",1,1,,,,,,,,,0,9,9,9,0,5,5,7,,,,,,,,,,,,,,,,,,,,,,,,,,,,,,,,,,,,,,,,,,,,,,,,,,,,,,,4359.699417926002,None,4359.699417926002,None,4359.699417926002,None,m,1,1.2234908180034836,4361.249161496,None,4361.249161496,None,4361.249161496,None,4362.532713585,None,4362.532713585,None,4362.532713585,None,4362.532713585,None,,,,,,,,,,,,,,,,,,,,,,,,,,,,,,,,,,,,,,,,,,,,001,110,2020_Feb_11_1409,spring_faces,3.1.5,60.300482611833,
condition files/Stage1_2.xlsx,,B4,T3,c,"['c', 'm']","['Clue', 'Monopoly']","[-0.15, 0.5]","[0.15, 0.5]",1,1,,,,,,,,,0,9,9,9,0,6,6,5,,,,,,,,,,,,,,,,,,,,,,,,,,,,,,,,,,,,,,,,,,,,,,,,,,,,,,,4364.4993859549995,None,4364.4993859549995,None,4364.4993859549995,None,c,1,0.7583853940013796,4366.034219807001,None,4366.034219807001,None,4366.034219807001,None,4366.850807371999,None,4366.850807371999,None,4366.850807371999,None,4366.850807371999,None,,,,,,,,,,,,,,,,,,,,,,,,,,,,,,,,,,,,,,,,,,,,001,110,2020_Feb_11_1409,spring_faces,3.1.5,60.300482611833,
condition files/Stage1_2.xlsx,,B3,T4,m,"['c', 'm']","['Clue', 'Monopoly']","[-0.15, 0.5]","[0.15, 0.5]",1,1,,,,,,,,,0,9,9,9,0,7,7,6,,,,,,,,,,,,,,,,,,,,,,,,,,,,,,,,,,,,,,,,,,,,,,,,,,,,,,,4368.816149897002,None,4368.816149897002,None,4368.816149897002,None,m,1,0.9873361060017487,4370.34933752,None,4370.34933752,None,4370.34933752,None,4371.400576582002,None,4371.400576582002,None,4371.400576582002,None,4371.400576582002,None,,,,,,,,,,,,,,,,,,,,,,,,,,,,,,,,,,,,,,,,,,,,001,110,2020_Feb_11_1409,spring_faces,3.1.5,60.300482611833,
condition files/Stage1_1.xlsx,,T1,B1,c,"['c', 'm']","['Clue', 'Monopoly']","[-0.15, 0.5]","[0.15, 0.5]",1,1,,,,,,,,,0,10,10,10,0,0,0,0,,,,,,,,,,,,,,,,,,,,,,,,,,,,,,,,,,,,,,,,,,,,,,,,,,,,,,,4373.383035199002,None,4373.383035199002,None,4373.383035199002,None,c,1,1.3475813529985317,4374.933069328001,None,4374.933069328001,None,4374.933069328001,None,4376.349251166999,None,4376.349251166999,None,4376.349251166999,None,4376.349251166999,None,,,,,,,,,,,,,,,,,,,,,,,,,,,,,,,,,,,,,,,,,,,,001,110,2020_Feb_11_1409,spring_faces,3.1.5,60.300482611833,
condition files/Stage1_1.xlsx,,B1,T2,c,"['c', 'm']","['Clue', 'Monopoly']","[-0.15, 0.5]","[0.15, 0.5]",1,1,,,,,,,,,0,10,10,10,0,1,1,1,,,,,,,,,,,,,,,,,,,,,,,,,,,,,,,,,,,,,,,,,,,,,,,,,,,,,,,4378.299062496999,None,4378.299062496999,None,4378.299062496999,None,c,1,0.8468276390012761,4379.849742173001,None,4379.849742173001,None,4379.849742173001,None,4380.749113242002,None,4380.749113242002,None,4380.749113242002,None,4380.749113242002,None,,,,,,,,,,,,,,,,,,,,,,,,,,,,,,,,,,,,,,,,,,,,001,110,2020_Feb_11_1409,spring_faces,3.1.5,60.300482611833,
condition files/Stage1_1.xlsx,,T2,B2,m,"['c', 'm']","['Clue', 'Monopoly']","[-0.15, 0.5]","[0.15, 0.5]",1,1,,,,,,,,,0,10,10,10,0,2,2,3,,,,,,,,,,,,,,,,,,,,,,,,,,,,,,,,,,,,,,,,,,,,,,,,,,,,,,,4382.716142244002,None,4382.716142244002,None,4382.716142244002,None,m,1,1.133992570998089,4384.266616094001,None,4384.266616094001,None,4384.266616094001,None,4385.466312343999,None,4385.466312343999,None,4385.466312343999,None,4385.466312343999,None,,,,,,,,,,,,,,,,,,,,,,,,,,,,,,,,,,,,,,,,,,,,001,110,2020_Feb_11_1409,spring_faces,3.1.5,60.300482611833,
condition files/Stage1_1.xlsx,,B3,T3,c,"['c', 'm']","['Clue', 'Monopoly']","[-0.15, 0.5]","[0.15, 0.5]",1,1,,,,,,,,,0,10,10,10,0,3,3,4,,,,,,,,,,,,,,,,,,,,,,,,,,,,,,,,,,,,,,,,,,,,,,,,,,,,,,,4387.432787828,None,4387.432787828,None,4387.432787828,None,c,1,0.9615232549986104,4388.9830693839995,None,4388.9830693839995,None,4388.9830693839995,None,4390.016209332001,None,4390.016209332001,None,4390.016209332001,None,4390.016209332001,None,,,,,,,,,,,,,,,,,,,,,,,,,,,,,,,,,,,,,,,,,,,,001,110,2020_Feb_11_1409,spring_faces,3.1.5,60.300482611833,
condition files/Stage1_1.xlsx,,B4,T4,m,"['c', 'm']","['Clue', 'Monopoly']","[-0.15, 0.5]","[0.15, 0.5]",1,1,,,,,,,,,0,10,10,10,0,4,4,7,,,,,,,,,,,,,,,,,,,,,,,,,,,,,,,,,,,,,,,,,,,,,,,,,,,,,,,4391.966068811,None,4391.966068811,None,4391.966068811,None,m,1,1.0672728230019857,4393.501400824001,None,4393.501400824001,None,4393.501400824001,None,4394.650181625,None,4394.650181625,None,4394.650181625,None,4394.650181625,None,,,,,,,,,,,,,,,,,,,,,,,,,,,,,,,,,,,,,,,,,,,,001,110,2020_Feb_11_1409,spring_faces,3.1.5,60.300482611833,
condition files/Stage1_1.xlsx,,B2,T1,m,"['c', 'm']","['Clue', 'Monopoly']","[-0.15, 0.5]","[0.15, 0.5]",1,1,,,,,,,,,0,10,10,10,0,5,5,2,,,,,,,,,,,,,,,,,,,,,,,,,,,,,,,,,,,,,,,,,,,,,,,,,,,,,,,4396.599473649001,None,4396.599473649001,None,4396.599473649001,None,m,1,0.9471305469996878,4398.149496062999,None,4398.149496062999,None,4398.149496062999,None,4399.149750849001,None,4399.149750849001,None,4399.149750849001,None,4399.149750849001,None,,,,,,,,,,,,,,,,,,,,,,,,,,,,,,,,,,,,,,,,,,,,001,110,2020_Feb_11_1409,spring_faces,3.1.5,60.300482611833,
condition files/Stage1_1.xlsx,,T4,B3,m,"['c', 'm']","['Clue', 'Monopoly']","[-0.15, 0.5]","[0.15, 0.5]",1,1,,,,,,,,,0,10,10,10,0,6,6,6,,,,,,,,,,,,,,,,,,,,,,,,,,,,,,,,,,,,,,,,,,,,,,,,,,,,,,,4401.115908230999,None,4401.115908230999,None,4401.115908230999,None,m,1,0.9902509989988175,4402.666449006001,None,4402.666449006001,None,4402.666449006001,None,4403.7165857790005,None,4403.7165857790005,None,4403.7165857790005,None,4403.7165857790005,None,,,,,,,,,,,,,,,,,,,,,,,,,,,,,,,,,,,,,,,,,,,,001,110,2020_Feb_11_1409,spring_faces,3.1.5,60.300482611833,
condition files/Stage1_1.xlsx,,T3,B4,c,"['c', 'm']","['Clue', 'Monopoly']","[-0.15, 0.5]","[0.15, 0.5]",1,1,,,,,,,,,0,10,10,10,0,7,7,5,,,,,,,,,,,,,,,,,,,,,,,,,,,,,,,,,,,,,,,,,,,,,,,,,,,,,,,4405.682903901999,None,4405.682903901999,None,4405.682903901999,None,c,1,5.431864203001169,4407.216836628,None,4407.216836628,None,4407.216836628,None,4412.716207074,None,4412.716207074,None,4412.716207074,None,4412.716207074,None,,,,,,,,,,,,,,,,,,,,,,,,,,,,,,,,,,,,,,,,,,,,001,110,2020_Feb_11_1409,spring_faces,3.1.5,60.300482611833,
condition files/Stage1_2.xlsx,,T1,B2,m,"['c', 'm']","['Clue', 'Monopoly']","[-0.15, 0.5]","[0.15, 0.5]",1,1,,,,,,,,,0,11,11,11,0,0,0,2,,,,,,,,,,,,,,,,,,,,,,,,,,,,,,,,,,,,,,,,,,,,,,,,,,,,,,,4414.682592874002,None,4414.682592874002,None,4414.682592874002,None,m,1,0.9273941280007421,4416.217221880999,None,4416.217221880999,None,4416.217221880999,None,4417.216303113999,None,4417.216303113999,None,4417.216303113999,None,4417.216303113999,None,,,,,,,,,,,,,,,,,,,,,,,,,,,,,,,,,,,,,,,,,,,,001,110,2020_Feb_11_1409,spring_faces,3.1.5,60.300482611833,
condition files/Stage1_2.xlsx,,T2,B1,c,"['c', 'm']","['Clue', 'Monopoly']","[-0.15, 0.5]","[0.15, 0.5]",1,1,,,,,,,,,0,11,11,11,0,1,1,1,,,,,,,,,,,,,,,,,,,,,,,,,,,,,,,,,,,,,,,,,,,,,,,,,,,,,,,4419.1661449,None,4419.1661449,None,4419.1661449,None,c,1,5.500110324999696,4420.716485793999,None,4420.716485793999,None,4420.716485793999,None,4426.282409401001,None,4426.282409401001,None,4426.282409401001,None,4426.282409401001,None,,,,,,,,,,,,,,,,,,,,,,,,,,,,,,,,,,,,,,,,,,,,001,110,2020_Feb_11_1409,spring_faces,3.1.5,60.300482611833,
condition files/Stage1_2.xlsx,,B3,T4,m,"['c', 'm']","['Clue', 'Monopoly']","[-0.15, 0.5]","[0.15, 0.5]",1,1,,,,,,,,,0,11,11,11,0,2,2,6,,,,,,,,,,,,,,,,,,,,,,,,,,,,,,,,,,,,,,,,,,,,,,,,,,,,,,,4428.249436922002,None,4428.249436922002,None,4428.249436922002,None,m,1,2.0013489650009433,4429.799263086001,None,4429.799263086001,None,4429.799263086001,None,4431.882648257002,None,4431.882648257002,None,4431.882648257002,None,4431.882648257002,None,,,,,,,,,,,,,,,,,,,,,,,,,,,,,,,,,,,,,,,,,,,,001,110,2020_Feb_11_1409,spring_faces,3.1.5,60.300482611833,
condition files/Stage1_2.xlsx,,B2,T2,m,"['c', 'm']","['Clue', 'Monopoly']","[-0.15, 0.5]","[0.15, 0.5]",1,1,,,,,,,,,0,11,11,11,0,3,3,3,,,,,,,,,,,,,,,,,,,,,,,,,,,,,,,,,,,,,,,,,,,,,,,,,,,,,,,4433.832235191001,None,4433.832235191001,None,4433.832235191001,None,m,1,6.865821382001741,4435.366867191,None,4435.366867191,None,4435.366867191,None,4442.283399941001,None,4442.283399941001,None,4442.283399941001,None,4442.283399941001,None,,,,,,,,,,,,,,,,,,,,,,,,,,,,,,,,,,,,,,,,,,,,001,110,2020_Feb_11_1409,spring_faces,3.1.5,60.300482611833,
condition files/Stage1_2.xlsx,,B4,T3,c,"['c', 'm']","['Clue', 'Monopoly']","[-0.15, 0.5]","[0.15, 0.5]",1,1,,,,,,,,,0,11,11,11,0,4,4,5,,,,,,,,,,,,,,,,,,,,,,,,,,,,,,,,,,,,,,,,,,,,,,,,,,,,,,,4444.2495146950005,None,4444.2495146950005,None,4444.2495146950005,None,c,1,1.4563784960009798,4445.784345407001,None,4445.784345407001,None,4445.784345407001,None,4447.316749686999,None,4447.316749686999,None,4447.316749686999,None,4447.316749686999,None,,,,,,,,,,,,,,,,,,,,,,,,,,,,,,,,,,,,,,,,,,,,001,110,2020_Feb_11_1409,spring_faces,3.1.5,60.300482611833,
condition files/Stage1_2.xlsx,,T3,B3,c,"['c', 'm']","['Clue', 'Monopoly']","[-0.15, 0.5]","[0.15, 0.5]",1,1,,,,,,,,,0,11,11,11,0,5,5,4,,,,,,,,,,,,,,,,,,,,,,,,,,,,,,,,,,,,,,,,,,,,,,,,,,,,,,,4449.265479443,None,4449.265479443,None,4449.265479443,None,c,1,3.495969055999012,4450.800677763002,None,4450.800677763002,None,4450.800677763002,None,4454.3498397210005,None,4454.3498397210005,None,4454.3498397210005,None,4454.3498397210005,None,,,,,,,,,,,,,,,,,,,,,,,,,,,,,,,,,,,,,,,,,,,,001,110,2020_Feb_11_1409,spring_faces,3.1.5,60.300482611833,
condition files/Stage1_2.xlsx,,B1,T1,c,"['c', 'm']","['Clue', 'Monopoly']","[-0.15, 0.5]","[0.15, 0.5]",1,1,,,,,,,,,0,11,11,11,0,6,6,0,,,,,,,,,,,,,,,,,,,,,,,,,,,,,,,,,,,,,,,,,,,,,,,,,,,,,,,4456.315894685,None,4456.315894685,None,4456.315894685,None,c,1,4.239299803000904,4457.849378091001,None,4457.849378091001,None,4457.849378091001,None,4462.1501097109995,None,4462.1501097109995,None,4462.1501097109995,None,4462.1501097109995,None,,,,,,,,,,,,,,,,,,,,,,,,,,,,,,,,,,,,,,,,,,,,001,110,2020_Feb_11_1409,spring_faces,3.1.5,60.300482611833,
condition files/Stage1_2.xlsx,,T4,B4,m,"['c', 'm']","['Clue', 'Monopoly']","[-0.15, 0.5]","[0.15, 0.5]",1,1,,,,,,,,,0,11,11,11,0,7,7,7,,,,,,,,,,,,,,,,,,,,,,,,,,,,,,,,,,,,,,,,,,,,,,,,,,,,,,,4464.115668568002,None,4464.115668568002,None,4464.115668568002,None,m,1,1.1911201199982315,4465.649589593,None,4465.649589593,None,4465.649589593,None,4466.916318698999,None,4466.916318698999,None,4466.916318698999,None,4466.916318698999,None,,,,,,,,,,,,,,,,,,,,,,,,,,,,,,,,,,,,,,,,,,,,001,110,2020_Feb_11_1409,spring_faces,3.1.5,60.300482611833,
,,,,,,,,,,,,,,,,,,,,,,,,,,,,,,,,,,,,,,,,,,,,,,,,,,,,,,,,,,,,,,,,,,,,,,,,,,,,,,,,,,,,,,,,,,,,,,,,,,,,,,,,,,,,,,,,4468.883030089002,None,space,6.7337563860019145,4473.8828355860005,None,,,,,,,,,,,,,,,,,,,,,,,,,,,,,,001,110,2020_Feb_11_1409,spring_faces,3.1.5,60.300482611833,
condition files/Stage2_1.xlsx,,T1,B1,s,"['s', 'r']","['Stratego', 'Risk']","[-0.15, 0.5]","[0.15, 0.5]",1,1,,,,,,,,,,,,,,,,,0,0,0,0,0,0,0,2,,,,,,,,,,,,,,,,,,,,,,,,,,,,,,,,,,,,,,,,,,,,,,,4480.682607511999,None,4480.682607511999,None,4480.682607511999,None,s,1,2.288881565000338,4482.215799853,None,4482.215799853,None,4482.215799853,None,4484.582399953999,None,4484.582399953999,None,4484.582399953999,None,4484.582399953999,None,,,,,,,,,,,,,,,4473.8828355860005,None,,,,,,,,,,,,,,,,,,,,,,,,,,,,001,110,2020_Feb_11_1409,spring_faces,3.1.5,60.300482611833,
condition files/Stage2_1.xlsx,,B4,T4,r,"['s', 'r']","['Stratego', 'Risk']","[-0.15, 0.5]","[0.15, 0.5]",1,1,,,,,,,,,,,,,,,,,0,0,0,0,0,1,1,5,,,,,,,,,,,,,,,,,,,,,,,,,,,,,,,,,,,,,,,,,,,,,,,4486.532387001002,None,4486.532387001002,None,4486.532387001002,None,s,0,2.0373161190000246,4488.067360818999,None,4488.067360818999,None,4488.067360818999,None,4490.168113045,None,4490.168113045,None,4490.168113045,None,4490.168113045,None,,,,,,,,,,,,,,,,,,,,,,,,,,,,,,,,,,,,,,,,,,,,001,110,2020_Feb_11_1409,spring_faces,3.1.5,60.300482611833,
condition files/Stage2_1.xlsx,,T5,B5,s,"['s', 'r']","['Stratego', 'Risk']","[-0.15, 0.5]","[0.15, 0.5]",1,1,,,,,,,,,,,,,,,,,0,0,0,0,0,2,2,0,,,,,,,,,,,,,,,,,,,,,,,,,,,,,,,,,,,,,,,,,,,,,,,4492.132749577,None,4492.132749577,None,4492.132749577,None,r,0,1.445567677001236,4493.683036896999,None,4493.683036896999,None,4493.683036896999,None,4495.199710396,None,4495.199710396,None,4495.199710396,None,4495.199710396,None,,,,,,,,,,,,,,,,,,,,,,,,,,,,,,,,,,,,,,,,,,,,001,110,2020_Feb_11_1409,spring_faces,3.1.5,60.300482611833,
condition files/Stage2_1.xlsx,,T3,B3,s,"['s', 'r']","['Stratego', 'Risk']","[-0.15, 0.5]","[0.15, 0.5]",1,1,,,,,,,,,,,,,,,,,0,0,0,0,0,3,3,4,,,,,,,,,,,,,,,,,,,,,,,,,,,,,,,,,,,,,,,,,,,,,,,4497.149019351002,None,4497.149019351002,None,4497.149019351002,None,s,1,1.2930518159992062,4498.6995852320015,None,4498.6995852320015,None,4498.6995852320015,None,4500.049750921002,None,4500.049750921002,None,4500.049750921002,None,4500.049750921002,None,,,,,,,,,,,,,,,,,,,,,,,,,,,,,,,,,,,,,,,,,,,,001,110,2020_Feb_11_1409,spring_faces,3.1.5,60.300482611833,
condition files/Stage2_1.xlsx,,B2,T2,r,"['s', 'r']","['Stratego', 'Risk']","[-0.15, 0.5]","[0.15, 0.5]",1,1,,,,,,,,,,,,,,,,,0,0,0,0,0,4,4,3,,,,,,,,,,,,,,,,,,,,,,,,,,,,,,,,,,,,,,,,,,,,,,,4502.015920150001,None,4502.015920150001,None,4502.015920150001,None,s,0,0.9214253489990369,4503.551249825001,None,4503.551249825001,None,4503.551249825001,None,4504.533895254999,None,4504.533895254999,None,4504.533895254999,None,4504.533895254999,None,,,,,,,,,,,,,,,,,,,,,,,,,,,,,,,,,,,,,,,,,,,,001,110,2020_Feb_11_1409,spring_faces,3.1.5,60.300482611833,
condition files/Stage2_1.xlsx,,B6,T6,r,"['s', 'r']","['Stratego', 'Risk']","[-0.15, 0.5]","[0.15, 0.5]",1,1,,,,,,,,,,,,,,,,,0,0,0,0,0,5,5,1,,,,,,,,,,,,,,,,,,,,,,,,,,,,,,,,,,,,,,,,,,,,,,,4506.498911324999,None,4506.498911324999,None,4506.498911324999,None,s,0,0.8360686109990638,4508.116604928999,None,4508.116604928999,None,4508.116604928999,None,4509.015917986,None,4509.015917986,None,4509.015917986,None,4509.015917986,None,,,,,,,,,,,,,,,,,,,,,,,,,,,,,,,,,,,,,,,,,,,,001,110,2020_Feb_11_1409,spring_faces,3.1.5,60.300482611833,
condition files/Stage2_2.xlsx,,B1,T1,s,"['s', 'r']","['Stratego', 'Risk']","[-0.15, 0.5]","[0.15, 0.5]",1,1,,,,,,,,,,,,,,,,,0,1,1,1,0,0,0,2,,,,,,,,,,,,,,,,,,,,,,,,,,,,,,,,,,,,,,,,,,,,,,,4510.999112934,None,4510.999112934,None,4510.999112934,None,s,1,0.7869305650019669,4512.549761132001,None,4512.549761132001,None,4512.549761132001,None,4513.4167789719995,None,4513.4167789719995,None,4513.4167789719995,None,4513.4167789719995,None,,,,,,,,,,,,,,,,,,,,,,,,,,,,,,,,,,,,,,,,,,,,001,110,2020_Feb_11_1409,spring_faces,3.1.5,60.300482611833,
condition files/Stage2_2.xlsx,,T4,B4,r,"['s', 'r']","['Stratego', 'Risk']","[-0.15, 0.5]","[0.15, 0.5]",1,1,,,,,,,,,,,,,,,,,0,1,1,1,0,1,1,5,,,,,,,,,,,,,,,,,,,,,,,,,,,,,,,,,,,,,,,,,,,,,,,4515.366320070001,None,4515.366320070001,None,4515.366320070001,None,r,1,1.2683662039999035,4516.916287889,None,4516.916287889,None,4516.916287889,None,4518.266445610001,None,4518.266445610001,None,4518.266445610001,None,4518.266445610001,None,,,,,,,,,,,,,,,,,,,,,,,,,,,,,,,,,,,,,,,,,,,,001,110,2020_Feb_11_1409,spring_faces,3.1.5,60.300482611833,
condition files/Stage2_2.xlsx,,T2,B2,r,"['s', 'r']","['Stratego', 'Risk']","[-0.15, 0.5]","[0.15, 0.5]",1,1,,,,,,,,,,,,,,,,,0,1,1,1,0,2,2,3,,,,,,,,,,,,,,,,,,,,,,,,,,,,,,,,,,,,,,,,,,,,,,,4520.215590432001,None,4520.215590432001,None,4520.215590432001,None,r,1,2.5941939309996087,4521.766431220001,None,4521.766431220001,None,4521.766431220001,None,4524.416209121,None,4524.416209121,None,4524.416209121,None,4524.416209121,None,,,,,,,,,,,,,,,,,,,,,,,,,,,,,,,,,,,,,,,,,,,,001,110,2020_Feb_11_1409,spring_faces,3.1.5,60.300482611833,
condition files/Stage2_2.xlsx,,B5,T5,s,"['s', 'r']","['Stratego', 'Risk']","[-0.15, 0.5]","[0.15, 0.5]",1,1,,,,,,,,,,,,,,,,,0,1,1,1,0,3,3,0,,,,,,,,,,,,,,,,,,,,,,,,,,,,,,,,,,,,,,,,,,,,,,,4526.382278785999,None,4526.382278785999,None,4526.382278785999,None,r,0,2.458693550001044,4527.918025984001,None,4527.918025984001,None,4527.918025984001,None,4530.449263667999,None,4530.449263667999,None,4530.449263667999,None,4530.449263667999,None,,,,,,,,,,,,,,,,,,,,,,,,,,,,,,,,,,,,,,,,,,,,001,110,2020_Feb_11_1409,spring_faces,3.1.5,60.300482611833,
condition files/Stage2_2.xlsx,,B3,T3,s,"['s', 'r']","['Stratego', 'Risk']","[-0.15, 0.5]","[0.15, 0.5]",1,1,,,,,,,,,,,,,,,,,0,1,1,1,0,4,4,4,,,,,,,,,,,,,,,,,,,,,,,,,,,,,,,,,,,,,,,,,,,,,,,4532.399861756001,None,4532.399861756001,None,4532.399861756001,None,s,1,1.4987937209989468,4533.933825670001,None,4533.933825670001,None,4533.933825670001,None,4535.482683664,None,4535.482683664,None,4535.482683664,None,4535.482683664,None,,,,,,,,,,,,,,,,,,,,,,,,,,,,,,,,,,,,,,,,,,,,001,110,2020_Feb_11_1409,spring_faces,3.1.5,60.300482611833,
condition files/Stage2_2.xlsx,,T6,B6,r,"['s', 'r']","['Stratego', 'Risk']","[-0.15, 0.5]","[0.15, 0.5]",1,1,,,,,,,,,,,,,,,,,0,1,1,1,0,5,5,1,,,,,,,,,,,,,,,,,,,,,,,,,,,,,,,,,,,,,,,,,,,,,,,4537.44903202,None,4537.44903202,None,4537.44903202,None,r,1,1.4574833549995674,4538.983227481001,None,4538.983227481001,None,4538.983227481001,None,4540.516348662002,None,4540.516348662002,None,4540.516348662002,None,4540.516348662002,None,,,,,,,,,,,,,,,,,,,,,,,,,,,,,,,,,,,,,,,,,,,,001,110,2020_Feb_11_1409,spring_faces,3.1.5,60.300482611833,
condition files/Stage2_1.xlsx,,B6,T6,r,"['s', 'r']","['Stratego', 'Risk']","[-0.15, 0.5]","[0.15, 0.5]",1,1,,,,,,,,,,,,,,,,,0,2,2,2,0,0,0,1,,,,,,,,,,,,,,,,,,,,,,,,,,,,,,,,,,,,,,,,,,,,,,,4542.483133046002,None,4542.483133046002,None,4542.483133046002,None,r,1,1.2875186019991816,4544.0331669060015,None,4544.0331669060015,None,4544.0331669060015,None,4545.382838211999,None,4545.382838211999,None,4545.382838211999,None,4545.382838211999,None,,,,,,,,,,,,,,,,,,,,,,,,,,,,,,,,,,,,,,,,,,,,001,110,2020_Feb_11_1409,spring_faces,3.1.5,60.300482611833,
condition files/Stage2_1.xlsx,,T1,B1,s,"['s', 'r']","['Stratego', 'Risk']","[-0.15, 0.5]","[0.15, 0.5]",1,1,,,,,,,,,,,,,,,,,0,2,2,2,0,1,1,2,,,,,,,,,,,,,,,,,,,,,,,,,,,,,,,,,,,,,,,,,,,,,,,4547.349480347,None,4547.349480347,None,4547.349480347,None,s,1,1.157042447001004,4548.899667017,None,4548.899667017,None,4548.899667017,None,4550.133535733001,None,4550.133535733001,None,4550.133535733001,None,4550.133535733001,None,,,,,,,,,,,,,,,,,,,,,,,,,,,,,,,,,,,,,,,,,,,,001,110,2020_Feb_11_1409,spring_faces,3.1.5,60.300482611833,
condition files/Stage2_1.xlsx,,T5,B5,s,"['s', 'r']","['Stratego', 'Risk']","[-0.15, 0.5]","[0.15, 0.5]",1,1,,,,,,,,,,,,,,,,,0,2,2,2,0,2,2,0,,,,,,,,,,,,,,,,,,,,,,,,,,,,,,,,,,,,,,,,,,,,,,,4552.082707195999,None,4552.082707195999,None,4552.082707195999,None,s,1,3.03140927700224,4553.617287218001,None,4553.617287218001,None,4553.617287218001,None,4556.699618176999,None,4556.699618176999,None,4556.699618176999,None,4556.699618176999,None,,,,,,,,,,,,,,,,,,,,,,,,,,,,,,,,,,,,,,,,,,,,001,110,2020_Feb_11_1409,spring_faces,3.1.5,60.300482611833,
condition files/Stage2_1.xlsx,,B2,T2,r,"['s', 'r']","['Stratego', 'Risk']","[-0.15, 0.5]","[0.15, 0.5]",1,1,,,,,,,,,,,,,,,,,0,2,2,2,0,3,3,3,,,,,,,,,,,,,,,,,,,,,,,,,,,,,,,,,,,,,,,,,,,,,,,4558.666217807002,None,4558.666217807002,None,4558.666217807002,None,r,1,1.0409005830006208,4560.199814411002,None,4560.199814411002,None,4560.199814411002,None,4561.300706045002,None,4561.300706045002,None,4561.300706045002,None,4561.300706045002,None,,,,,,,,,,,,,,,,,,,,,,,,,,,,,,,,,,,,,,,,,,,,001,110,2020_Feb_11_1409,spring_faces,3.1.5,60.300482611833,
condition files/Stage2_1.xlsx,,B4,T4,r,"['s', 'r']","['Stratego', 'Risk']","[-0.15, 0.5]","[0.15, 0.5]",1,1,,,,,,,,,,,,,,,,,0,2,2,2,0,4,4,5,,,,,,,,,,,,,,,,,,,,,,,,,,,,,,,,,,,,,,,,,,,,,,,4563.2661390580015,None,4563.2661390580015,None,4563.2661390580015,None,s,0,0.8718149989981612,4564.800881331999,None,4564.800881331999,None,4564.800881331999,None,4565.732324275001,None,4565.732324275001,None,4565.732324275001,None,4565.732324275001,None,,,,,,,,,,,,,,,,,,,,,,,,,,,,,,,,,,,,,,,,,,,,001,110,2020_Feb_11_1409,spring_faces,3.1.5,60.300482611833,
condition files/Stage2_1.xlsx,,T3,B3,s,"['s', 'r']","['Stratego', 'Risk']","[-0.15, 0.5]","[0.15, 0.5]",1,1,,,,,,,,,,,,,,,,,0,2,2,2,0,5,5,4,,,,,,,,,,,,,,,,,,,,,,,,,,,,,,,,,,,,,,,,,,,,,,,4567.700038826,None,4567.700038826,None,4567.700038826,None,s,1,1.1435230810020585,4569.233194789,None,4569.233194789,None,4569.233194789,None,4570.449766471002,None,4570.449766471002,None,4570.449766471002,None,4570.449766471002,None,,,,,,,,,,,,,,,,,,,,,,,,,,,,,,,,,,,,,,,,,,,,001,110,2020_Feb_11_1409,spring_faces,3.1.5,60.300482611833,
condition files/Stage2_2.xlsx,,T6,B6,r,"['s', 'r']","['Stratego', 'Risk']","[-0.15, 0.5]","[0.15, 0.5]",1,1,,,,,,,,,,,,,,,,,0,3,3,3,0,0,0,1,,,,,,,,,,,,,,,,,,,,,,,,,,,,,,,,,,,,,,,,,,,,,,,4572.4165277500015,None,4572.4165277500015,None,4572.4165277500015,None,r,1,0.9541593930007366,4573.9665220920015,None,4573.9665220920015,None,4573.9665220920015,None,4574.999883964001,None,4574.999883964001,None,4574.999883964001,None,4574.999883964001,None,,,,,,,,,,,,,,,,,,,,,,,,,,,,,,,,,,,,,,,,,,,,001,110,2020_Feb_11_1409,spring_faces,3.1.5,60.300482611833,
condition files/Stage2_2.xlsx,,T2,B2,r,"['s', 'r']","['Stratego', 'Risk']","[-0.15, 0.5]","[0.15, 0.5]",1,1,,,,,,,,,,,,,,,,,0,3,3,3,0,1,1,3,,,,,,,,,,,,,,,,,,,,,,,,,,,,,,,,,,,,,,,,,,,,,,,4576.948771229001,None,4576.948771229001,None,4576.948771229001,None,r,1,1.2383031579993258,4578.482384604,None,4578.482384604,None,4578.482384604,None,4579.782592735,None,4579.782592735,None,4579.782592735,None,4579.782592735,None,,,,,,,,,,,,,,,,,,,,,,,,,,,,,,,,,,,,,,,,,,,,001,110,2020_Feb_11_1409,spring_faces,3.1.5,60.300482611833,
condition files/Stage2_2.xlsx,,B5,T5,s,"['s', 'r']","['Stratego', 'Risk']","[-0.15, 0.5]","[0.15, 0.5]",1,1,,,,,,,,,,,,,,,,,0,3,3,3,0,2,2,0,,,,,,,,,,,,,,,,,,,,,,,,,,,,,,,,,,,,,,,,,,,,,,,4581.749336359002,None,4581.749336359002,None,4581.749336359002,None,s,1,2.9967993549980747,4583.299796811001,None,4583.299796811001,None,4583.299796811001,None,4586.366470868999,None,4586.366470868999,None,4586.366470868999,None,4586.366470868999,None,,,,,,,,,,,,,,,,,,,,,,,,,,,,,,,,,,,,,,,,,,,,001,110,2020_Feb_11_1409,spring_faces,3.1.5,60.300482611833,
condition files/Stage2_2.xlsx,,B3,T3,s,"['s', 'r']","['Stratego', 'Risk']","[-0.15, 0.5]","[0.15, 0.5]",1,1,,,,,,,,,,,,,,,,,0,3,3,3,0,3,3,4,,,,,,,,,,,,,,,,,,,,,,,,,,,,,,,,,,,,,,,,,,,,,,,4588.315809894999,None,4588.315809894999,None,4588.315809894999,None,s,1,2.830059676001838,4589.850602060002,None,4589.850602060002,None,4589.850602060002,None,4592.733535698002,None,4592.733535698002,None,4592.733535698002,None,4592.733535698002,None,,,,,,,,,,,,,,,,,,,,,,,,,,,,,,,,,,,,,,,,,,,,001,110,2020_Feb_11_1409,spring_faces,3.1.5,60.300482611833,
condition files/Stage2_2.xlsx,,B1,T1,s,"['s', 'r']","['Stratego', 'Risk']","[-0.15, 0.5]","[0.15, 0.5]",1,1,,,,,,,,,,,,,,,,,0,3,3,3,0,4,4,2,,,,,,,,,,,,,,,,,,,,,,,,,,,,,,,,,,,,,,,,,,,,,,,4594.699560076,None,4594.699560076,None,4594.699560076,None,s,1,2.623435243000131,4596.249187788,None,4596.249187788,None,4596.249187788,None,4598.933144315002,None,4598.933144315002,None,4598.933144315002,None,4598.933144315002,None,,,,,,,,,,,,,,,,,,,,,,,,,,,,,,,,,,,,,,,,,,,,001,110,2020_Feb_11_1409,spring_faces,3.1.5,60.300482611833,
condition files/Stage2_2.xlsx,,T4,B4,r,"['s', 'r']","['Stratego', 'Risk']","[-0.15, 0.5]","[0.15, 0.5]",1,1,,,,,,,,,,,,,,,,,0,3,3,3,0,5,5,5,,,,,,,,,,,,,,,,,,,,,,,,,,,,,,,,,,,,,,,,,,,,,,,4600.899559508,None,4600.899559508,None,4600.899559508,None,r,1,1.3348462149988336,4602.44976229,None,4602.44976229,None,4602.44976229,None,4603.851239217,None,4603.851239217,None,4603.851239217,None,4603.851239217,None,,,,,,,,,,,,,,,,,,,,,,,,,,,,,,,,,,,,,,,,,,,,001,110,2020_Feb_11_1409,spring_faces,3.1.5,60.300482611833,
condition files/Stage2_1.xlsx,,B6,T6,r,"['s', 'r']","['Stratego', 'Risk']","[-0.15, 0.5]","[0.15, 0.5]",1,1,,,,,,,,,,,,,,,,,0,4,4,4,0,0,0,1,,,,,,,,,,,,,,,,,,,,,,,,,,,,,,,,,,,,,,,,,,,,,,,4605.8332241100015,None,4605.8332241100015,None,4605.8332241100015,None,r,1,0.7531611860031262,4607.383520242,None,4607.383520242,None,4607.383520242,None,4608.200598344001,None,4608.200598344001,None,4608.200598344001,None,4608.200598344001,None,,,,,,,,,,,,,,,,,,,,,,,,,,,,,,,,,,,,,,,,,,,,001,110,2020_Feb_11_1409,spring_faces,3.1.5,60.300482611833,
condition files/Stage2_1.xlsx,,T1,B1,s,"['s', 'r']","['Stratego', 'Risk']","[-0.15, 0.5]","[0.15, 0.5]",1,1,,,,,,,,,,,,,,,,,0,4,4,4,0,1,1,2,,,,,,,,,,,,,,,,,,,,,,,,,,,,,,,,,,,,,,,,,,,,,,,4610.166093597001,None,4610.166093597001,None,4610.166093597001,None,s,1,1.1712634520008578,4611.701458362002,None,4611.701458362002,None,4611.701458362002,None,4612.949168854002,None,4612.949168854002,None,4612.949168854002,None,4612.949168854002,None,,,,,,,,,,,,,,,,,,,,,,,,,,,,,,,,,,,,,,,,,,,,001,110,2020_Feb_11_1409,spring_faces,3.1.5,60.300482611833,
condition files/Stage2_1.xlsx,,B4,T4,r,"['s', 'r']","['Stratego', 'Risk']","[-0.15, 0.5]","[0.15, 0.5]",1,1,,,,,,,,,,,,,,,,,0,4,4,4,0,2,2,5,,,,,,,,,,,,,,,,,,,,,,,,,,,,,,,,,,,,,,,,,,,,,,,4614.899787046999,None,4614.899787046999,None,4614.899787046999,None,r,1,0.8382077070018568,4616.434517924999,None,4616.434517924999,None,4616.434517924999,None,4617.349827455002,None,4617.349827455002,None,4617.349827455002,None,4617.349827455002,None,,,,,,,,,,,,,,,,,,,,,,,,,,,,,,,,,,,,,,,,,,,,001,110,2020_Feb_11_1409,spring_faces,3.1.5,60.300482611833,
condition files/Stage2_1.xlsx,,T3,B3,s,"['s', 'r']","['Stratego', 'Risk']","[-0.15, 0.5]","[0.15, 0.5]",1,1,,,,,,,,,,,,,,,,,0,4,4,4,0,3,3,4,,,,,,,,,,,,,,,,,,,,,,,,,,,,,,,,,,,,,,,,,,,,,,,4619.299877970001,None,4619.299877970001,None,4619.299877970001,None,s,1,1.2552853779998259,4620.833399087,None,4620.833399087,None,4620.833399087,None,4622.151440202002,None,4622.151440202002,None,4622.151440202002,None,4622.151440202002,None,,,,,,,,,,,,,,,,,,,,,,,,,,,,,,,,,,,,,,,,,,,,001,110,2020_Feb_11_1409,spring_faces,3.1.5,60.300482611833,
condition files/Stage2_1.xlsx,,B2,T2,r,"['s', 'r']","['Stratego', 'Risk']","[-0.15, 0.5]","[0.15, 0.5]",1,1,,,,,,,,,,,,,,,,,0,4,4,4,0,4,4,3,,,,,,,,,,,,,,,,,,,,,,,,,,,,,,,,,,,,,,,,,,,,,,,4624.116155769001,None,4624.116155769001,None,4624.116155769001,None,r,1,0.9343337829996017,4625.666283585999,None,4625.666283585999,None,4625.666283585999,None,4626.683119937001,None,4626.683119937001,None,4626.683119937001,None,4626.683119937001,None,,,,,,,,,,,,,,,,,,,,,,,,,,,,,,,,,,,,,,,,,,,,001,110,2020_Feb_11_1409,spring_faces,3.1.5,60.300482611833,
condition files/Stage2_1.xlsx,,T5,B5,s,"['s', 'r']","['Stratego', 'Risk']","[-0.15, 0.5]","[0.15, 0.5]",1,1,,,,,,,,,,,,,,,,,0,4,4,4,0,5,5,0,,,,,,,,,,,,,,,,,,,,,,,,,,,,,,,,,,,,,,,,,,,,,,,4628.632700660999,None,4628.632700660999,None,4628.632700660999,None,s,1,1.9058269359993574,4630.182841942,None,4630.182841942,None,4630.182841942,None,4632.151256922001,None,4632.151256922001,None,4632.151256922001,None,4632.151256922001,None,,,,,,,,,,,,,,,,,,,,,,,,,,,,,,,,,,,,,,,,,,,,001,110,2020_Feb_11_1409,spring_faces,3.1.5,60.300482611833,
