condsFile,subStage,cue1,cue2,correct,responseKeys,responseNames,cue1Position,cue2Position,cue1Opacity,cue2Opacity,stageLoop0.thisRepN,stageLoop0.thisTrialN,stageLoop0.thisN,stageLoop0.thisIndex,blockLoop0.thisRepN,blockLoop0.thisTrialN,blockLoop0.thisN,blockLoop0.thisIndex,stage1Loop.thisRepN,stage1Loop.thisTrialN,stage1Loop.thisN,stage1Loop.thisIndex,blockLoop1.thisRepN,blockLoop1.thisTrialN,blockLoop1.thisN,blockLoop1.thisIndex,stage2Loop.thisRepN,stage2Loop.thisTrialN,stage2Loop.thisN,stage2Loop.thisIndex,blockLoop2.thisRepN,blockLoop2.thisTrialN,blockLoop2.thisN,blockLoop2.thisIndex,testLoop.thisRepN,testLoop.thisTrialN,testLoop.thisN,testLoop.thisIndex,blockLoopTest.thisRepN,blockLoopTest.thisTrialN,blockLoopTest.thisN,blockLoopTest.thisIndex,cuePics,id_instr_text.started,id_instr_text.stopped,space_to_continue_2.started,space_to_continue_2.stopped,end_instructions_resp_3.keys,end_instructions_resp_3.rt,end_instructions_resp_3.started,end_instructions_resp_3.stopped,id_input_instr.started,id_input_instr.stopped,id_input_rect.started,id_input_rect.stopped,id_input_resp.keys,id_input_resp.rt,id_input_resp.started,id_input_resp.stopped,sonaID,id_input_text.started,id_input_text.stopped,final_text.started,final_text.stopped,instructions.started,instructions.stopped,end_instructions_resp.keys,end_instructions_resp.rt,end_instructions_resp.started,end_instructions_resp.stopped,space_to_continue.started,space_to_continue.stopped,instructions_stage0.started,instructions_stage0.stopped,end_instructions_resp_stage0.keys,end_instructions_resp_stage0.rt,end_instructions_resp_stage0.started,end_instructions_resp_stage0.stopped,space_to_continue_stage0.started,space_to_continue_stage0.stopped,text.started,text.stopped,resp_text1.started,resp_text1.stopped,resp_text2.started,resp_text2.stopped,trial_resp.keys,trial_resp.corr,trial_resp.rt,trial_resp.started,trial_resp.stopped,cue1Image.started,cue1Image.stopped,cue2Image.started,cue2Image.stopped,cue1Image_fb.started,cue1Image_fb.stopped,cue2Image_fb.started,cue2Image_fb.stopped,fb_text_answer.started,fb_text_answer.stopped,feedback_image.started,feedback_image.stopped,instructions_stage1.started,instructions_stage1.stopped,end_instructions_resp_stage1.keys,end_instructions_resp_stage1.rt,end_instructions_resp_stage1.started,end_instructions_resp_stage1.stopped,space_to_continue_stage1.started,space_to_continue_stage1.stopped,instructions_2.started,instructions_2.stopped,end_instructions_resp_2.keys,end_instructions_resp_2.rt,end_instructions_resp_2.started,end_instructions_resp_2.stopped,press_space_to_continue_stage2.started,press_space_to_continue_stage2.stopped,instructions_testStage1.started,instructions_testStage1.stopped,end_instructions_resp_test1.keys,end_instructions_resp_test1.rt,end_instructions_resp_test1.started,end_instructions_resp_test1.stopped,press_space_to_continue_test1.started,press_space_to_continue_test1.stopped,cue1Image_testChoice.started,cue1Image_testChoice.stopped,cue2Image_testChoice.started,cue2Image_testChoice.stopped,test_resp.keys,test_resp.corr,test_resp.rt,test_resp.started,test_resp.stopped,cue1Image_testConf.started,cue1Image_testConf.stopped,cue2Image_testConf.started,cue2Image_testConf.stopped,conf_reminder.started,conf_reminder.stopped,conf_rating.response,conf_rating.rt,conf_rating.started,conf_rating.stopped,session,participant,date,expName,psychopyVersion,frameRate,
,,,,,,,,,,,,,,,,,,,,,,,,,,,,,,,,,,,,,,,,,,,"{'none': 'pictures/20M_AN_C.png', 'alpha': 'pictures/SHINEd_apple.png', 'beta': 'pictures/SHINEd_pepper.png', 'theta': 'pictures/SHINEd_melon.png', 'phi': 'pictures/SHINEd_pear.png', 'T1': 'pictures/23M_AN_C.png', 'T2': 'pictures/26M_AN_C.png', 'T3': 'pictures/25M_AN_C.png', 'T4': 'pictures/34M_AN_C.png', 'T5': 'pictures/20M_AN_C.png', 'T6': 'pictures/38M_AN_C.png', 'B1': 'pictures/33M_NE_C.png', 'B2': 'pictures/22M_NE_C.png', 'B3': 'pictures/37M_NE_C.png', 'B4': 'pictures/36M_NE_C.png', 'B5': 'pictures/31M_NE_C.png', 'B6': 'pictures/32M_NE_C.png'}",13.695230566998362,None,18.695194783998886,None,space,32.45876050899824,18.695194783998886,None,,,,,,,,,,,,,,,,,,,,,,,,,,,,,,,,,,,,,,,,,,,,,,,,,,,,,,,,,,,,,,,,,,,,,,,,,,,,,,,,,,,,,,,,,,,,,,,,001,112,2020_Feb_11_1447,spring_faces,3.1.5,60.11775541366396,
,,,,,,,,,,,,,,,,,,,,,,,,,,,,,,,,,,,,,,,,,,,,,,,,,,,,51.57872774199859,None,51.57872774199859,None,"['0', '5', '1', '2', 'n', 'i', 'backspace', 'backspace', 'c', 'h', 'w', 'u', 'h']","[27.20714893800323, 28.50316948800173, 33.223128356003144, 33.41514872600237, 38.50316312400173, 38.87116634800259, 41.223162755002704, 41.62314862900166, 43.36710246200164, 43.7031636669999, 48.9031577550013, 49.25516118900123, 49.51113999700101]",51.57872774199859,None,,,,,,,,,,,,,,,,,,,,,,,,,,,,,,,,,,,,,,,,,,,,,,,,,,,,,,,,,,,,,,,,,,,,,,,,,,,,,,,,,,,,,,,,001,112,2020_Feb_11_1447,spring_faces,3.1.5,60.11775541366396,
,,,,,,,,,,,,,,,,,,,,,,,,,,,,,,,,,,,,,,,,,,,,,,,,,,,,,,,,,,,,0512chwuh,51.57872774199859,None,51.57872774199859,None,106.16225999200105,None,space,3.3517581340020115,111.16207992699856,None,,,,,,,,,,,,,,,,,,,,,,,,,,,,,,,,,,,,,,,,,,,,,,,,,,,,,,,,,,,,,,,,,,,,,,,,,,,,,001,112,2020_Feb_11_1447,spring_faces,3.1.5,60.11775541366396,
,,,,,,,,,,,,,,,,,,,,,,,,,,,,,,,,,,,,,,,,,,,,,,,,,,,,,,,,,,,,,,,,,,,,,,,111.16207992699856,None,114.56195822000154,None,space,7.847962293002638,119.56189956700109,None,,,,,,,,,,,,,,,,,,,,,,,,,,,,,,,,,,,,,,,,,,,,,,,,,,,,,,,,,,,,,,,,,,,,,001,112,2020_Feb_11_1447,spring_faces,3.1.5,60.11775541366396,
condition files/Stage0a.xlsx,0a,alpha,none,h,"['h', 'g']","['Chess', 'Go']","[0, 0.5]","[0, 0]",1,0,0,0,0,0,0,0,0,0,,,,,,,,,,,,,,,,,,,,,,,,,,,,,,,,,,,,,,,,,,,,,,,,,,,,,,,,,,,,,119.56189956700109,None,127.46244363399819,None,127.46244363399819,None,127.46244363399819,None,g,0,13.148919253999338,129.0449722480007,None,129.0449722480007,None,129.0449722480007,None,142.26167480399818,None,142.26167480399818,None,142.26167480399818,None,142.26167480399818,None,,,,,,,,,,,,,,,,,,,,,,,,,,,,,,,,,,,,,,,,,,,,001,112,2020_Feb_11_1447,spring_faces,3.1.5,60.11775541366396,
condition files/Stage0a.xlsx,0a,beta,none,g,"['h', 'g']","['Chess', 'Go']","[0, 0.5]","[0, 0]",1,0,0,0,0,0,0,1,1,1,,,,,,,,,,,,,,,,,,,,,,,,,,,,,,,,,,,,,,,,,,,,,,,,,,,,,,,,,,,,,,,144.21185926500038,None,144.21185926500038,None,144.21185926500038,None,h,0,5.534076961001119,145.74782988600055,None,145.74782988600055,None,145.74782988600055,None,151.34542465100094,None,151.34542465100094,None,151.34542465100094,None,151.34542465100094,None,,,,,,,,,,,,,,,,,,,,,,,,,,,,,,,,,,,,,,,,,,,,001,112,2020_Feb_11_1447,spring_faces,3.1.5,60.11775541366396,
condition files/Stage0a.xlsx,0a,beta,none,g,"['h', 'g']","['Chess', 'Go']","[0, 0.5]","[0, 0]",1,0,0,1,1,1,0,0,0,1,,,,,,,,,,,,,,,,,,,,,,,,,,,,,,,,,,,,,,,,,,,,,,,,,,,,,,,,,,,,,,,153.32847618199958,None,153.32847618199958,None,153.32847618199958,None,g,1,1.973051367996959,154.84483800499947,None,154.84483800499947,None,154.84483800499947,None,156.87863981999908,None,156.87863981999908,None,156.87863981999908,None,156.87863981999908,None,,,,,,,,,,,,,,,,,,,,,,,,,,,,,,,,,,,,,,,,,,,,001,112,2020_Feb_11_1447,spring_faces,3.1.5,60.11775541366396,
condition files/Stage0a.xlsx,0a,alpha,none,h,"['h', 'g']","['Chess', 'Go']","[0, 0.5]","[0, 0]",1,0,0,1,1,1,0,1,1,0,,,,,,,,,,,,,,,,,,,,,,,,,,,,,,,,,,,,,,,,,,,,,,,,,,,,,,,,,,,,,,,158.84509800600063,None,158.84509800600063,None,158.84509800600063,None,h,1,2.039374471998599,160.37853657699816,None,160.37853657699816,None,160.37853657699816,None,162.48033932399994,None,162.48033932399994,None,162.48033932399994,None,162.48033932399994,None,,,,,,,,,,,,,,,,,,,,,,,,,,,,,,,,,,,,,,,,,,,,001,112,2020_Feb_11_1447,spring_faces,3.1.5,60.11775541366396,
condition files/Stage0a.xlsx,0a,beta,none,g,"['h', 'g']","['Chess', 'Go']","[0, 0.5]","[0, 0]",1,0,0,2,2,2,0,0,0,1,,,,,,,,,,,,,,,,,,,,,,,,,,,,,,,,,,,,,,,,,,,,,,,,,,,,,,,,,,,,,,,164.46139700599815,None,164.46139700599815,None,164.46139700599815,None,g,1,1.2709787559979304,165.97890738099886,None,165.97890738099886,None,165.97890738099886,None,167.31181226099943,None,167.31181226099943,None,167.31181226099943,None,167.31181226099943,None,,,,,,,,,,,,,,,,,,,,,,,,,,,,,,,,,,,,,,,,,,,,001,112,2020_Feb_11_1447,spring_faces,3.1.5,60.11775541366396,
condition files/Stage0a.xlsx,0a,alpha,none,h,"['h', 'g']","['Chess', 'Go']","[0, 0.5]","[0, 0]",1,0,0,2,2,2,0,1,1,0,,,,,,,,,,,,,,,,,,,,,,,,,,,,,,,,,,,,,,,,,,,,,,,,,,,,,,,,,,,,,,,169.27871380299985,None,169.27871380299985,None,169.27871380299985,None,h,1,0.7895600649972039,170.812377233,None,170.812377233,None,170.812377233,None,171.66214200800096,None,171.66214200800096,None,171.66214200800096,None,171.66214200800096,None,,,,,,,,,,,,,,,,,,,,,,,,,,,,,,,,,,,,,,,,,,,,001,112,2020_Feb_11_1447,spring_faces,3.1.5,60.11775541366396,
condition files/Stage0a.xlsx,0a,alpha,none,h,"['h', 'g']","['Chess', 'Go']","[0, 0.5]","[0, 0]",1,0,0,3,3,3,0,0,0,0,,,,,,,,,,,,,,,,,,,,,,,,,,,,,,,,,,,,,,,,,,,,,,,,,,,,,,,,,,,,,,,173.64548108799863,None,173.64548108799863,None,173.64548108799863,None,g,0,0.550105465001252,175.17973708700083,None,175.17973708700083,None,175.17973708700083,None,175.79546640099943,None,175.79546640099943,None,175.79546640099943,None,175.79546640099943,None,,,,,,,,,,,,,,,,,,,,,,,,,,,,,,,,,,,,,,,,,,,,001,112,2020_Feb_11_1447,spring_faces,3.1.5,60.11775541366396,
condition files/Stage0a.xlsx,0a,beta,none,g,"['h', 'g']","['Chess', 'Go']","[0, 0.5]","[0, 0]",1,0,0,3,3,3,0,1,1,1,,,,,,,,,,,,,,,,,,,,,,,,,,,,,,,,,,,,,,,,,,,,,,,,,,,,,,,,,,,,,,,177.76186609499928,None,177.76186609499928,None,177.76186609499928,None,g,1,1.842845410999871,179.29510883900002,None,179.29510883900002,None,179.29510883900002,None,181.19506152300164,None,181.19506152300164,None,181.19506152300164,None,181.19506152300164,None,,,,,,,,,,,,,,,,,,,,,,,,,,,,,,,,,,,,,,,,,,,,001,112,2020_Feb_11_1447,spring_faces,3.1.5,60.11775541366396,
condition files/Stage0a.xlsx,0a,beta,none,g,"['h', 'g']","['Chess', 'Go']","[0, 0.5]","[0, 0]",1,0,0,4,4,4,0,0,0,1,,,,,,,,,,,,,,,,,,,,,,,,,,,,,,,,,,,,,,,,,,,,,,,,,,,,,,,,,,,,,,,183.17880720700123,None,183.17880720700123,None,183.17880720700123,None,g,1,0.8417077720005182,184.71226800899967,None,184.71226800899967,None,184.71226800899967,None,185.61158765299842,None,185.61158765299842,None,185.61158765299842,None,185.61158765299842,None,,,,,,,,,,,,,,,,,,,,,,,,,,,,,,,,,,,,,,,,,,,,001,112,2020_Feb_11_1447,spring_faces,3.1.5,60.11775541366396,
condition files/Stage0a.xlsx,0a,alpha,none,h,"['h', 'g']","['Chess', 'Go']","[0, 0.5]","[0, 0]",1,0,0,4,4,4,0,1,1,0,,,,,,,,,,,,,,,,,,,,,,,,,,,,,,,,,,,,,,,,,,,,,,,,,,,,,,,,,,,,,,,187.57852080199882,None,187.57852080199882,None,187.57852080199882,None,h,1,0.5859233629998926,189.11195808299817,None,189.11195808299817,None,189.11195808299817,None,189.7619814710015,None,189.7619814710015,None,189.7619814710015,None,189.7619814710015,None,,,,,,,,,,,,,,,,,,,,,,,,,,,,,,,,,,,,,,,,,,,,001,112,2020_Feb_11_1447,spring_faces,3.1.5,60.11775541366396,
condition files/Stage0a.xlsx,0a,alpha,none,h,"['h', 'g']","['Chess', 'Go']","[0, 0.5]","[0, 0]",1,0,0,5,5,5,0,0,0,0,,,,,,,,,,,,,,,,,,,,,,,,,,,,,,,,,,,,,,,,,,,,,,,,,,,,,,,,,,,,,,,191.74566742599927,None,191.74566742599927,None,191.74566742599927,None,h,1,0.7873762279996299,193.27853695399972,None,193.27853695399972,None,193.27853695399972,None,194.12832614199942,None,194.12832614199942,None,194.12832614199942,None,194.12832614199942,None,,,,,,,,,,,,,,,,,,,,,,,,,,,,,,,,,,,,,,,,,,,,001,112,2020_Feb_11_1447,spring_faces,3.1.5,60.11775541366396,
condition files/Stage0a.xlsx,0a,beta,none,g,"['h', 'g']","['Chess', 'Go']","[0, 0.5]","[0, 0]",1,0,0,5,5,5,0,1,1,1,,,,,,,,,,,,,,,,,,,,,,,,,,,,,,,,,,,,,,,,,,,,,,,,,,,,,,,,,,,,,,,196.0953964830005,None,196.0953964830005,None,196.0953964830005,None,g,1,0.6933419479973963,197.6285383909999,None,197.6285383909999,None,197.6285383909999,None,198.37817860799987,None,198.37817860799987,None,198.37817860799987,None,198.37817860799987,None,,,,,,,,,,,,,,,,,,,,,,,,,,,,,,,,,,,,,,,,,,,,001,112,2020_Feb_11_1447,spring_faces,3.1.5,60.11775541366396,
condition files/Stage0b_1.xlsx,0b,none,beta,g,"['h', 'g']","['Chess', 'Go']","[-0.15, 0.5]","[0.15, 0.5]",0,1,0,6,6,6,0,0,0,1,,,,,,,,,,,,,,,,,,,,,,,,,,,,,,,,,,,,,,,,,,,,,,,,,,,,,,,,,,,,,,,200.36208389600142,None,200.36208389600142,None,200.36208389600142,None,g,1,1.2099843959986174,201.9118947829993,None,201.9118947829993,None,201.9118947829993,None,203.17909125499864,None,203.17909125499864,None,203.17909125499864,None,203.17909125499864,None,,,,,,,,,,,,,,,,,,,,,,,,,,,,,,,,,,,,,,,,,,,,001,112,2020_Feb_11_1447,spring_faces,3.1.5,60.11775541366396,
condition files/Stage0b_1.xlsx,0b,alpha,none,h,"['h', 'g']","['Chess', 'Go']","[-0.15, 0.5]","[0.15, 0.5]",1,0,0,6,6,6,0,1,1,0,,,,,,,,,,,,,,,,,,,,,,,,,,,,,,,,,,,,,,,,,,,,,,,,,,,,,,,,,,,,,,,205.14507172899903,None,205.14507172899903,None,205.14507172899903,None,h,1,0.6344332510016102,206.69542315099898,None,206.69542315099898,None,206.69542315099898,None,207.3967705340001,None,207.3967705340001,None,207.3967705340001,None,207.3967705340001,None,,,,,,,,,,,,,,,,,,,,,,,,,,,,,,,,,,,,,,,,,,,,001,112,2020_Feb_11_1447,spring_faces,3.1.5,60.11775541366396,
condition files/Stage0b_2.xlsx,0b,beta,none,g,"['h', 'g']","['Chess', 'Go']","[-0.15, 0.5]","[0.15, 0.5]",1,0,0,7,7,7,0,0,0,1,,,,,,,,,,,,,,,,,,,,,,,,,,,,,,,,,,,,,,,,,,,,,,,,,,,,,,,,,,,,,,,209.37886172100116,None,209.37886172100116,None,209.37886172100116,None,g,1,0.6743781750010385,210.91157465099968,None,210.91157465099968,None,210.91157465099968,None,211.64485047999915,None,211.64485047999915,None,211.64485047999915,None,211.64485047999915,None,,,,,,,,,,,,,,,,,,,,,,,,,,,,,,,,,,,,,,,,,,,,001,112,2020_Feb_11_1447,spring_faces,3.1.5,60.11775541366396,
condition files/Stage0b_2.xlsx,0b,none,alpha,h,"['h', 'g']","['Chess', 'Go']","[-0.15, 0.5]","[0.15, 0.5]",0,1,0,7,7,7,0,1,1,0,,,,,,,,,,,,,,,,,,,,,,,,,,,,,,,,,,,,,,,,,,,,,,,,,,,,,,,,,,,,,,,213.61181642899828,None,213.61181642899828,None,213.61181642899828,None,h,1,1.3036500690031971,215.16224582599898,None,215.16224582599898,None,215.16224582599898,None,216.53268111299985,None,216.53268111299985,None,216.53268111299985,None,216.53268111299985,None,,,,,,,,,,,,,,,,,,,,,,,,,,,,,,,,,,,,,,,,,,,,001,112,2020_Feb_11_1447,spring_faces,3.1.5,60.11775541366396,
condition files/Stage0b_1.xlsx,0b,none,beta,g,"['h', 'g']","['Chess', 'Go']","[-0.15, 0.5]","[0.15, 0.5]",0,1,0,8,8,8,0,0,0,1,,,,,,,,,,,,,,,,,,,,,,,,,,,,,,,,,,,,,,,,,,,,,,,,,,,,,,,,,,,,,,,218.51228256299873,None,218.51228256299873,None,218.51228256299873,None,g,1,0.7083298810030101,220.04563097400023,None,220.04563097400023,None,220.04563097400023,None,220.81166872000176,None,220.81166872000176,None,220.81166872000176,None,220.81166872000176,None,,,,,,,,,,,,,,,,,,,,,,,,,,,,,,,,,,,,,,,,,,,,001,112,2020_Feb_11_1447,spring_faces,3.1.5,60.11775541366396,
condition files/Stage0b_1.xlsx,0b,alpha,none,h,"['h', 'g']","['Chess', 'Go']","[-0.15, 0.5]","[0.15, 0.5]",1,0,0,8,8,8,0,1,1,0,,,,,,,,,,,,,,,,,,,,,,,,,,,,,,,,,,,,,,,,,,,,,,,,,,,,,,,,,,,,,,,222.7784541889996,None,222.7784541889996,None,222.7784541889996,None,h,1,0.6931153389996325,224.31675674099824,None,224.31675674099824,None,224.31675674099824,None,225.06693100700068,None,225.06693100700068,None,225.06693100700068,None,225.06693100700068,None,,,,,,,,,,,,,,,,,,,,,,,,,,,,,,,,,,,,,,,,,,,,001,112,2020_Feb_11_1447,spring_faces,3.1.5,60.11775541366396,
condition files/Stage0b_2.xlsx,0b,none,alpha,h,"['h', 'g']","['Chess', 'Go']","[-0.15, 0.5]","[0.15, 0.5]",0,1,0,9,9,9,0,0,0,0,,,,,,,,,,,,,,,,,,,,,,,,,,,,,,,,,,,,,,,,,,,,,,,,,,,,,,,,,,,,,,,227.0455611819998,None,227.0455611819998,None,227.0455611819998,None,h,1,0.6994859420010471,228.58240751799894,None,228.58240751799894,None,228.58240751799894,None,229.34538967499975,None,229.34538967499975,None,229.34538967499975,None,229.34538967499975,None,,,,,,,,,,,,,,,,,,,,,,,,,,,,,,,,,,,,,,,,,,,,001,112,2020_Feb_11_1447,spring_faces,3.1.5,60.11775541366396,
condition files/Stage0b_2.xlsx,0b,beta,none,g,"['h', 'g']","['Chess', 'Go']","[-0.15, 0.5]","[0.15, 0.5]",1,0,0,9,9,9,0,1,1,1,,,,,,,,,,,,,,,,,,,,,,,,,,,,,,,,,,,,,,,,,,,,,,,,,,,,,,,,,,,,,,,231.3120719510007,None,231.3120719510007,None,231.3120719510007,None,g,1,0.8197859050014813,232.86210597600075,None,232.86210597600075,None,232.86210597600075,None,233.7450065330013,None,233.7450065330013,None,233.7450065330013,None,233.7450065330013,None,,,,,,,,,,,,,,,,,,,,,,,,,,,,,,,,,,,,,,,,,,,,001,112,2020_Feb_11_1447,spring_faces,3.1.5,60.11775541366396,
condition files/Stage0b_1.xlsx,0b,none,beta,g,"['h', 'g']","['Chess', 'Go']","[-0.15, 0.5]","[0.15, 0.5]",0,1,0,10,10,10,0,0,0,1,,,,,,,,,,,,,,,,,,,,,,,,,,,,,,,,,,,,,,,,,,,,,,,,,,,,,,,,,,,,,,,235.72899446700103,None,235.72899446700103,None,235.72899446700103,None,g,1,1.6191393249973771,237.26278524000008,None,237.26278524000008,None,237.26278524000008,None,238.94540882799993,None,238.94540882799993,None,238.94540882799993,None,238.94540882799993,None,,,,,,,,,,,,,,,,,,,,,,,,,,,,,,,,,,,,,,,,,,,,001,112,2020_Feb_11_1447,spring_faces,3.1.5,60.11775541366396,
condition files/Stage0b_1.xlsx,0b,alpha,none,h,"['h', 'g']","['Chess', 'Go']","[-0.15, 0.5]","[0.15, 0.5]",1,0,0,10,10,10,0,1,1,0,,,,,,,,,,,,,,,,,,,,,,,,,,,,,,,,,,,,,,,,,,,,,,,,,,,,,,,,,,,,,,,240.911909344999,None,240.911909344999,None,240.911909344999,None,h,1,0.8030048110013013,242.446903510001,None,242.446903510001,None,242.446903510001,None,243.31233195599998,None,243.31233195599998,None,243.31233195599998,None,243.31233195599998,None,,,,,,,,,,,,,,,,,,,,,,,,,,,,,,,,,,,,,,,,,,,,001,112,2020_Feb_11_1447,spring_faces,3.1.5,60.11775541366396,
condition files/Stage0b_2.xlsx,0b,none,alpha,h,"['h', 'g']","['Chess', 'Go']","[-0.15, 0.5]","[0.15, 0.5]",0,1,0,11,11,11,0,0,0,0,,,,,,,,,,,,,,,,,,,,,,,,,,,,,,,,,,,,,,,,,,,,,,,,,,,,,,,,,,,,,,,245.29467942799965,None,245.29467942799965,None,245.29467942799965,None,h,1,0.7238013099995442,246.83017014000143,None,246.83017014000143,None,246.83017014000143,None,247.61185646599915,None,247.61185646599915,None,247.61185646599915,None,247.61185646599915,None,,,,,,,,,,,,,,,,,,,,,,,,,,,,,,,,,,,,,,,,,,,,001,112,2020_Feb_11_1447,spring_faces,3.1.5,60.11775541366396,
condition files/Stage0b_2.xlsx,0b,beta,none,g,"['h', 'g']","['Chess', 'Go']","[-0.15, 0.5]","[0.15, 0.5]",1,0,0,11,11,11,0,1,1,1,,,,,,,,,,,,,,,,,,,,,,,,,,,,,,,,,,,,,,,,,,,,,,,,,,,,,,,,,,,,,,,249.57817766600056,None,249.57817766600056,None,249.57817766600056,None,g,1,0.5509012620022986,251.11500543099828,None,251.11500543099828,None,251.11500543099828,None,251.72848275599972,None,251.72848275599972,None,251.72848275599972,None,251.72848275599972,None,,,,,,,,,,,,,,,,,,,,,,,,,,,,,,,,,,,,,,,,,,,,001,112,2020_Feb_11_1447,spring_faces,3.1.5,60.11775541366396,
condition files/Stage0c_1.xlsx,0c,phi,beta,g,"['h', 'g']","['Chess', 'Go']","[-0.15, 0.5]","[0.15, 0.5]",1,1,0,12,12,12,0,0,0,3,,,,,,,,,,,,,,,,,,,,,,,,,,,,,,,,,,,,,,,,,,,,,,,,,,,,,,,,,,,,,,,253.71227146199817,None,253.71227146199817,None,253.71227146199817,None,h,0,3.2691327130014542,255.24476712999967,None,255.24476712999967,None,255.24476712999967,None,258.5788371050003,None,258.5788371050003,None,258.5788371050003,None,258.5788371050003,None,,,,,,,,,,,,,,,,,,,,,,,,,,,,,,,,,,,,,,,,,,,,001,112,2020_Feb_11_1447,spring_faces,3.1.5,60.11775541366396,
condition files/Stage0c_1.xlsx,0c,theta,alpha,h,"['h', 'g']","['Chess', 'Go']","[-0.15, 0.5]","[0.15, 0.5]",1,1,0,12,12,12,0,1,1,0,,,,,,,,,,,,,,,,,,,,,,,,,,,,,,,,,,,,,,,,,,,,,,,,,,,,,,,,,,,,,,,260.5452101390001,None,260.5452101390001,None,260.5452101390001,None,h,1,0.8195536159983021,262.07835533899924,None,262.07835533899924,None,262.07835533899924,None,262.9618627529999,None,262.9618627529999,None,262.9618627529999,None,262.9618627529999,None,,,,,,,,,,,,,,,,,,,,,,,,,,,,,,,,,,,,,,,,,,,,001,112,2020_Feb_11_1447,spring_faces,3.1.5,60.11775541366396,
condition files/Stage0c_1.xlsx,0c,alpha,phi,h,"['h', 'g']","['Chess', 'Go']","[-0.15, 0.5]","[0.15, 0.5]",1,1,0,12,12,12,0,2,2,1,,,,,,,,,,,,,,,,,,,,,,,,,,,,,,,,,,,,,,,,,,,,,,,,,,,,,,,,,,,,,,,264.9285161879998,None,264.9285161879998,None,264.9285161879998,None,g,0,1.0759373690016218,266.4620176130011,None,266.4620176130011,None,266.4620176130011,None,267.59493489599845,None,267.59493489599845,None,267.59493489599845,None,267.59493489599845,None,,,,,,,,,,,,,,,,,,,,,,,,,,,,,,,,,,,,,,,,,,,,001,112,2020_Feb_11_1447,spring_faces,3.1.5,60.11775541366396,
condition files/Stage0c_1.xlsx,0c,beta,theta,g,"['h', 'g']","['Chess', 'Go']","[-0.15, 0.5]","[0.15, 0.5]",1,1,0,12,12,12,0,3,3,2,,,,,,,,,,,,,,,,,,,,,,,,,,,,,,,,,,,,,,,,,,,,,,,,,,,,,,,,,,,,,,,269.5618922549984,None,269.5618922549984,None,269.5618922549984,None,g,1,1.5307846659998177,271.0951037470004,None,271.0951037470004,None,271.0951037470004,None,272.6815378749998,None,272.6815378749998,None,272.6815378749998,None,272.6815378749998,None,,,,,,,,,,,,,,,,,,,,,,,,,,,,,,,,,,,,,,,,,,,,001,112,2020_Feb_11_1447,spring_faces,3.1.5,60.11775541366396,
condition files/Stage0c_2.xlsx,0c,phi,alpha,h,"['h', 'g']","['Chess', 'Go']","[-0.15, 0.5]","[0.15, 0.5]",1,1,0,13,13,13,0,0,0,1,,,,,,,,,,,,,,,,,,,,,,,,,,,,,,,,,,,,,,,,,,,,,,,,,,,,,,,,,,,,,,,274.6619286390014,None,274.6619286390014,None,274.6619286390014,None,h,1,1.1190275020016998,276.1947961400001,None,276.1947961400001,None,276.1947961400001,None,277.378883297999,None,277.378883297999,None,277.378883297999,None,277.378883297999,None,,,,,,,,,,,,,,,,,,,,,,,,,,,,,,,,,,,,,,,,,,,,001,112,2020_Feb_11_1447,spring_faces,3.1.5,60.11775541366396,
condition files/Stage0c_2.xlsx,0c,theta,beta,g,"['h', 'g']","['Chess', 'Go']","[-0.15, 0.5]","[0.15, 0.5]",1,1,0,13,13,13,0,1,1,2,,,,,,,,,,,,,,,,,,,,,,,,,,,,,,,,,,,,,,,,,,,,,,,,,,,,,,,,,,,,,,,279.34465946699856,None,279.34465946699856,None,279.34465946699856,None,g,1,2.5152094869990833,280.8787166729999,None,280.8787166729999,None,280.8787166729999,None,283.4451915179998,None,283.4451915179998,None,283.4451915179998,None,283.4451915179998,None,,,,,,,,,,,,,,,,,,,,,,,,,,,,,,,,,,,,,,,,,,,,001,112,2020_Feb_11_1447,spring_faces,3.1.5,60.11775541366396,
condition files/Stage0c_2.xlsx,0c,beta,phi,g,"['h', 'g']","['Chess', 'Go']","[-0.15, 0.5]","[0.15, 0.5]",1,1,0,13,13,13,0,2,2,3,,,,,,,,,,,,,,,,,,,,,,,,,,,,,,,,,,,,,,,,,,,,,,,,,,,,,,,,,,,,,,,285.4119475599982,None,285.4119475599982,None,285.4119475599982,None,g,1,1.8245250090003537,286.94542786999955,None,286.94542786999955,None,286.94542786999955,None,288.81262874000095,None,288.81262874000095,None,288.81262874000095,None,288.81262874000095,None,,,,,,,,,,,,,,,,,,,,,,,,,,,,,,,,,,,,,,,,,,,,001,112,2020_Feb_11_1447,spring_faces,3.1.5,60.11775541366396,
condition files/Stage0c_2.xlsx,0c,alpha,theta,h,"['h', 'g']","['Chess', 'Go']","[-0.15, 0.5]","[0.15, 0.5]",1,1,0,13,13,13,0,3,3,0,,,,,,,,,,,,,,,,,,,,,,,,,,,,,,,,,,,,,,,,,,,,,,,,,,,,,,,,,,,,,,,290.79518899699906,None,290.79518899699906,None,290.79518899699906,None,h,1,1.2250274469988653,292.3289247110006,None,292.3289247110006,None,292.3289247110006,None,293.61235460600074,None,293.61235460600074,None,293.61235460600074,None,293.61235460600074,None,,,,,,,,,,,,,,,,,,,,,,,,,,,,,,,,,,,,,,,,,,,,001,112,2020_Feb_11_1447,spring_faces,3.1.5,60.11775541366396,
condition files/Stage0c_1.xlsx,0c,beta,theta,g,"['h', 'g']","['Chess', 'Go']","[-0.15, 0.5]","[0.15, 0.5]",1,1,0,14,14,14,0,0,0,2,,,,,,,,,,,,,,,,,,,,,,,,,,,,,,,,,,,,,,,,,,,,,,,,,,,,,,,,,,,,,,,295.59521228200174,None,295.59521228200174,None,295.59521228200174,None,g,1,0.7772821280013886,297.1286878079991,None,297.1286878079991,None,297.1286878079991,None,297.9620606089993,None,297.9620606089993,None,297.9620606089993,None,297.9620606089993,None,,,,,,,,,,,,,,,,,,,,,,,,,,,,,,,,,,,,,,,,,,,,001,112,2020_Feb_11_1447,spring_faces,3.1.5,60.11775541366396,
condition files/Stage0c_1.xlsx,0c,alpha,phi,h,"['h', 'g']","['Chess', 'Go']","[-0.15, 0.5]","[0.15, 0.5]",1,1,0,14,14,14,0,1,1,1,,,,,,,,,,,,,,,,,,,,,,,,,,,,,,,,,,,,,,,,,,,,,,,,,,,,,,,,,,,,,,,299.9285873959998,None,299.9285873959998,None,299.9285873959998,None,h,1,1.1479588509973837,301.46192797099866,None,301.46192797099866,None,301.46192797099866,None,302.66235791899817,None,302.66235791899817,None,302.66235791899817,None,302.66235791899817,None,,,,,,,,,,,,,,,,,,,,,,,,,,,,,,,,,,,,,,,,,,,,001,112,2020_Feb_11_1447,spring_faces,3.1.5,60.11775541366396,
condition files/Stage0c_1.xlsx,0c,theta,alpha,h,"['h', 'g']","['Chess', 'Go']","[-0.15, 0.5]","[0.15, 0.5]",1,1,0,14,14,14,0,2,2,0,,,,,,,,,,,,,,,,,,,,,,,,,,,,,,,,,,,,,,,,,,,,,,,,,,,,,,,,,,,,,,,304.6285230680005,None,304.6285230680005,None,304.6285230680005,None,h,1,1.087782654001785,306.16208766400086,None,306.16208766400086,None,306.16208766400086,None,307.3117139339993,None,307.3117139339993,None,307.3117139339993,None,307.3117139339993,None,,,,,,,,,,,,,,,,,,,,,,,,,,,,,,,,,,,,,,,,,,,,001,112,2020_Feb_11_1447,spring_faces,3.1.5,60.11775541366396,
condition files/Stage0c_1.xlsx,0c,phi,beta,g,"['h', 'g']","['Chess', 'Go']","[-0.15, 0.5]","[0.15, 0.5]",1,1,0,14,14,14,0,3,3,3,,,,,,,,,,,,,,,,,,,,,,,,,,,,,,,,,,,,,,,,,,,,,,,,,,,,,,,,,,,,,,,309.27848270100003,None,309.27848270100003,None,309.27848270100003,None,g,1,1.2856804280017968,310.8122123059984,None,310.8122123059984,None,310.8122123059984,None,312.1620897649991,None,312.1620897649991,None,312.1620897649991,None,312.1620897649991,None,,,,,,,,,,,,,,,,,,,,,,,,,,,,,,,,,,,,,,,,,,,,001,112,2020_Feb_11_1447,spring_faces,3.1.5,60.11775541366396,
condition files/Stage0c_2.xlsx,0c,alpha,theta,h,"['h', 'g']","['Chess', 'Go']","[-0.15, 0.5]","[0.15, 0.5]",1,1,0,15,15,15,0,0,0,0,,,,,,,,,,,,,,,,,,,,,,,,,,,,,,,,,,,,,,,,,,,,,,,,,,,,,,,,,,,,,,,314.1453689629998,None,314.1453689629998,None,314.1453689629998,None,h,1,0.9311572750011692,315.6787406279982,None,315.6787406279982,None,315.6787406279982,None,316.6615992299994,None,316.6615992299994,None,316.6615992299994,None,316.6615992299994,None,,,,,,,,,,,,,,,,,,,,,,,,,,,,,,,,,,,,,,,,,,,,001,112,2020_Feb_11_1447,spring_faces,3.1.5,60.11775541366396,
condition files/Stage0c_2.xlsx,0c,phi,alpha,h,"['h', 'g']","['Chess', 'Go']","[-0.15, 0.5]","[0.15, 0.5]",1,1,0,15,15,15,0,1,1,1,,,,,,,,,,,,,,,,,,,,,,,,,,,,,,,,,,,,,,,,,,,,,,,,,,,,,,,,,,,,,,,318.6285287169994,None,318.6285287169994,None,318.6285287169994,None,h,1,0.7678250030003255,320.162024098001,None,320.162024098001,None,320.162024098001,None,320.98037140499946,None,320.98037140499946,None,320.98037140499946,None,320.98037140499946,None,,,,,,,,,,,,,,,,,,,,,,,,,,,,,,,,,,,,,,,,,,,,001,112,2020_Feb_11_1447,spring_faces,3.1.5,60.11775541366396,
condition files/Stage0c_2.xlsx,0c,theta,beta,g,"['h', 'g']","['Chess', 'Go']","[-0.15, 0.5]","[0.15, 0.5]",1,1,0,15,15,15,0,2,2,2,,,,,,,,,,,,,,,,,,,,,,,,,,,,,,,,,,,,,,,,,,,,,,,,,,,,,,,,,,,,,,,322.9619268899987,None,322.9619268899987,None,322.9619268899987,None,g,1,0.9945088050008053,324.4954002919985,None,324.4954002919985,None,324.4954002919985,None,325.54518336800174,None,325.54518336800174,None,325.54518336800174,None,325.54518336800174,None,,,,,,,,,,,,,,,,,,,,,,,,,,,,,,,,,,,,,,,,,,,,001,112,2020_Feb_11_1447,spring_faces,3.1.5,60.11775541366396,
condition files/Stage0c_2.xlsx,0c,beta,phi,g,"['h', 'g']","['Chess', 'Go']","[-0.15, 0.5]","[0.15, 0.5]",1,1,0,15,15,15,0,3,3,3,,,,,,,,,,,,,,,,,,,,,,,,,,,,,,,,,,,,,,,,,,,,,,,,,,,,,,,,,,,,,,,327.5113832850002,None,327.5113832850002,None,327.5113832850002,None,g,1,1.2768673960017622,329.04501592900124,None,329.04501592900124,None,329.04501592900124,None,330.36392621100094,None,330.36392621100094,None,330.36392621100094,None,330.36392621100094,None,,,,,,,,,,,,,,,,,,,,,,,,,,,,,,,,,,,,,,,,,,,,001,112,2020_Feb_11_1447,spring_faces,3.1.5,60.11775541366396,
condition files/Stage0c_1.xlsx,0c,beta,theta,g,"['h', 'g']","['Chess', 'Go']","[-0.15, 0.5]","[0.15, 0.5]",1,1,0,16,16,16,0,0,0,2,,,,,,,,,,,,,,,,,,,,,,,,,,,,,,,,,,,,,,,,,,,,,,,,,,,,,,,,,,,,,,,332.36138179299815,None,332.36138179299815,None,332.36138179299815,None,g,1,0.7302580380019208,333.89559115099837,None,333.89559115099837,None,333.89559115099837,None,334.66541267900175,None,334.66541267900175,None,334.66541267900175,None,334.66541267900175,None,,,,,,,,,,,,,,,,,,,,,,,,,,,,,,,,,,,,,,,,,,,,001,112,2020_Feb_11_1447,spring_faces,3.1.5,60.11775541366396,
condition files/Stage0c_1.xlsx,0c,theta,alpha,h,"['h', 'g']","['Chess', 'Go']","[-0.15, 0.5]","[0.15, 0.5]",1,1,0,16,16,16,0,1,1,0,,,,,,,,,,,,,,,,,,,,,,,,,,,,,,,,,,,,,,,,,,,,,,,,,,,,,,,,,,,,,,,336.64439390799816,None,336.64439390799816,None,336.64439390799816,None,h,1,0.6233402119978564,338.17854916899887,None,338.17854916899887,None,338.17854916899887,None,338.86201079799866,None,338.86201079799866,None,338.86201079799866,None,338.86201079799866,None,,,,,,,,,,,,,,,,,,,,,,,,,,,,,,,,,,,,,,,,,,,,001,112,2020_Feb_11_1447,spring_faces,3.1.5,60.11775541366396,
condition files/Stage0c_1.xlsx,0c,alpha,phi,h,"['h', 'g']","['Chess', 'Go']","[-0.15, 0.5]","[0.15, 0.5]",1,1,0,16,16,16,0,2,2,1,,,,,,,,,,,,,,,,,,,,,,,,,,,,,,,,,,,,,,,,,,,,,,,,,,,,,,,,,,,,,,,340.82803122599944,None,340.82803122599944,None,340.82803122599944,None,h,1,0.7763479809982528,342.36160080099944,None,342.36160080099944,None,342.36160080099944,None,343.1790206199985,None,343.1790206199985,None,343.1790206199985,None,343.1790206199985,None,,,,,,,,,,,,,,,,,,,,,,,,,,,,,,,,,,,,,,,,,,,,001,112,2020_Feb_11_1447,spring_faces,3.1.5,60.11775541366396,
condition files/Stage0c_1.xlsx,0c,phi,beta,g,"['h', 'g']","['Chess', 'Go']","[-0.15, 0.5]","[0.15, 0.5]",1,1,0,16,16,16,0,3,3,3,,,,,,,,,,,,,,,,,,,,,,,,,,,,,,,,,,,,,,,,,,,,,,,,,,,,,,,,,,,,,,,345.1620346359996,None,345.1620346359996,None,345.1620346359996,None,g,1,0.9863494399978663,346.6955480479992,None,346.6955480479992,None,346.6955480479992,None,347.74529656600134,None,347.74529656600134,None,347.74529656600134,None,347.74529656600134,None,,,,,,,,,,,,,,,,,,,,,,,,,,,,,,,,,,,,,,,,,,,,001,112,2020_Feb_11_1447,spring_faces,3.1.5,60.11775541366396,
condition files/Stage0c_2.xlsx,0c,beta,phi,g,"['h', 'g']","['Chess', 'Go']","[-0.15, 0.5]","[0.15, 0.5]",1,1,0,17,17,17,0,0,0,3,,,,,,,,,,,,,,,,,,,,,,,,,,,,,,,,,,,,,,,,,,,,,,,,,,,,,,,,,,,,,,,349.72805170799984,None,349.72805170799984,None,349.72805170799984,None,g,1,0.7246249010022439,351.24533205600164,None,351.24533205600164,None,351.24533205600164,None,352.0157425940015,None,352.0157425940015,None,352.0157425940015,None,352.0157425940015,None,,,,,,,,,,,,,,,,,,,,,,,,,,,,,,,,,,,,,,,,,,,,001,112,2020_Feb_11_1447,spring_faces,3.1.5,60.11775541366396,
condition files/Stage0c_2.xlsx,0c,alpha,theta,h,"['h', 'g']","['Chess', 'Go']","[-0.15, 0.5]","[0.15, 0.5]",1,1,0,17,17,17,0,1,1,0,,,,,,,,,,,,,,,,,,,,,,,,,,,,,,,,,,,,,,,,,,,,,,,,,,,,,,,,,,,,,,,353.9951978780009,None,353.9951978780009,None,353.9951978780009,None,h,1,0.8408740070008207,355.52907625399894,None,355.52907625399894,None,355.52907625399894,None,356.42868449899834,None,356.42868449899834,None,356.42868449899834,None,356.42868449899834,None,,,,,,,,,,,,,,,,,,,,,,,,,,,,,,,,,,,,,,,,,,,,001,112,2020_Feb_11_1447,spring_faces,3.1.5,60.11775541366396,
condition files/Stage0c_2.xlsx,0c,theta,beta,g,"['h', 'g']","['Chess', 'Go']","[-0.15, 0.5]","[0.15, 0.5]",1,1,0,17,17,17,0,2,2,2,,,,,,,,,,,,,,,,,,,,,,,,,,,,,,,,,,,,,,,,,,,,,,,,,,,,,,,,,,,,,,,358.3946890010011,None,358.3946890010011,None,358.3946890010011,None,g,1,0.6652367120004783,359.92865351900036,None,359.92865351900036,None,359.92865351900036,None,360.644910559,None,360.644910559,None,360.644910559,None,360.644910559,None,,,,,,,,,,,,,,,,,,,,,,,,,,,,,,,,,,,,,,,,,,,,001,112,2020_Feb_11_1447,spring_faces,3.1.5,60.11775541366396,
condition files/Stage0c_2.xlsx,0c,phi,alpha,h,"['h', 'g']","['Chess', 'Go']","[-0.15, 0.5]","[0.15, 0.5]",1,1,0,17,17,17,0,3,3,1,,,,,,,,,,,,,,,,,,,,,,,,,,,,,,,,,,,,,,,,,,,,,,,,,,,,,,,,,,,,,,,362.6120929940007,None,362.6120929940007,None,362.6120929940007,None,h,1,0.6086845470017579,364.1452694030013,None,364.1452694030013,None,364.1452694030013,None,364.8121429019993,None,364.8121429019993,None,364.8121429019993,None,364.8121429019993,None,,,,,,,,,,,,,,,,,,,,,,,,,,,,,,,,,,,,,,,,,,,,001,112,2020_Feb_11_1447,spring_faces,3.1.5,60.11775541366396,
,,,,,,,,,,,,,,,,,,,,,,,,,,,,,,,,,,,,,,,,,,,,,,,,,,,,,,,,,,,,,,,,,,,,,,,,,,,,,,,,,,,,,,,,,,,,,,,,,,,,,,,,366.7950309150001,None,space,13.742535625002347,371.7954476449995,None,,,,,,,,,,,,,,,,,,,,,,,,,,,,,,,,,,,,,,001,112,2020_Feb_11_1447,spring_faces,3.1.5,60.11775541366396,
condition files/Stage1_1.xlsx,,T2,B2,m,"['c', 'm']","['Clue', 'Monopoly']","[-0.15, 0.5]","[0.15, 0.5]",1,1,,,,,,,,,0,0,0,0,0,0,0,3,,,,,,,,,,,,,,,,,,,,,,,,,,,,,,,,,,,,,,,,,,,,,,,,,,,,,,,385.5954871819995,None,385.5954871819995,None,385.5954871819995,None,c,0,3.0975740979993134,387.1123082259983,None,387.1123082259983,None,387.1123082259983,None,390.28071509800066,None,390.28071509800066,None,390.28071509800066,None,390.28071509800066,None,,,,,,,371.7954476449995,None,,,,,,,,,,,,,,,,,,,,,,,,,,,,,,,,,,,,001,112,2020_Feb_11_1447,spring_faces,3.1.5,60.11775541366396,
condition files/Stage1_1.xlsx,,T3,B4,c,"['c', 'm']","['Clue', 'Monopoly']","[-0.15, 0.5]","[0.15, 0.5]",1,1,,,,,,,,,0,0,0,0,0,1,1,5,,,,,,,,,,,,,,,,,,,,,,,,,,,,,,,,,,,,,,,,,,,,,,,,,,,,,,,392.22851116899983,None,392.22851116899983,None,392.22851116899983,None,c,1,1.6308473229983065,393.79503133099934,None,393.79503133099934,None,393.79503133099934,None,395.4808690360005,None,395.4808690360005,None,395.4808690360005,None,395.4808690360005,None,,,,,,,,,,,,,,,,,,,,,,,,,,,,,,,,,,,,,,,,,,,,001,112,2020_Feb_11_1447,spring_faces,3.1.5,60.11775541366396,
condition files/Stage1_1.xlsx,,T1,B1,c,"['c', 'm']","['Clue', 'Monopoly']","[-0.15, 0.5]","[0.15, 0.5]",1,1,,,,,,,,,0,0,0,0,0,2,2,0,,,,,,,,,,,,,,,,,,,,,,,,,,,,,,,,,,,,,,,,,,,,,,,,,,,,,,,397.44520007200117,None,397.44520007200117,None,397.44520007200117,None,m,0,1.1971843169994827,398.98071682299997,None,398.98071682299997,None,398.98071682299997,None,400.228412370001,None,400.228412370001,None,400.228412370001,None,400.228412370001,None,,,,,,,,,,,,,,,,,,,,,,,,,,,,,,,,,,,,,,,,,,,,001,112,2020_Feb_11_1447,spring_faces,3.1.5,60.11775541366396,
condition files/Stage1_1.xlsx,,B3,T3,c,"['c', 'm']","['Clue', 'Monopoly']","[-0.15, 0.5]","[0.15, 0.5]",1,1,,,,,,,,,0,0,0,0,0,3,3,4,,,,,,,,,,,,,,,,,,,,,,,,,,,,,,,,,,,,,,,,,,,,,,,,,,,,,,,402.1949792859996,None,402.1949792859996,None,402.1949792859996,None,m,0,1.1835655219983892,403.73034019199986,None,403.73034019199986,None,403.73034019199986,None,404.978618137,None,404.978618137,None,404.978618137,None,404.978618137,None,,,,,,,,,,,,,,,,,,,,,,,,,,,,,,,,,,,,,,,,,,,,001,112,2020_Feb_11_1447,spring_faces,3.1.5,60.11775541366396,
condition files/Stage1_1.xlsx,,T4,B3,m,"['c', 'm']","['Clue', 'Monopoly']","[-0.15, 0.5]","[0.15, 0.5]",1,1,,,,,,,,,0,0,0,0,0,4,4,6,,,,,,,,,,,,,,,,,,,,,,,,,,,,,,,,,,,,,,,,,,,,,,,,,,,,,,,406.94515706899983,None,406.94515706899983,None,406.94515706899983,None,c,0,1.0585026080007083,408.49545084200145,None,408.49545084200145,None,408.49545084200145,None,409.6286219290014,None,409.6286219290014,None,409.6286219290014,None,409.6286219290014,None,,,,,,,,,,,,,,,,,,,,,,,,,,,,,,,,,,,,,,,,,,,,001,112,2020_Feb_11_1447,spring_faces,3.1.5,60.11775541366396,
condition files/Stage1_1.xlsx,,B2,T1,m,"['c', 'm']","['Clue', 'Monopoly']","[-0.15, 0.5]","[0.15, 0.5]",1,1,,,,,,,,,0,0,0,0,0,5,5,2,,,,,,,,,,,,,,,,,,,,,,,,,,,,,,,,,,,,,,,,,,,,,,,,,,,,,,,411.57799557999897,None,411.57799557999897,None,411.57799557999897,None,c,0,0.8087307610003336,413.11312707600155,None,413.11312707600155,None,413.11312707600155,None,413.9789727009993,None,413.9789727009993,None,413.9789727009993,None,413.9789727009993,None,,,,,,,,,,,,,,,,,,,,,,,,,,,,,,,,,,,,,,,,,,,,001,112,2020_Feb_11_1447,spring_faces,3.1.5,60.11775541366396,
condition files/Stage1_1.xlsx,,B1,T2,c,"['c', 'm']","['Clue', 'Monopoly']","[-0.15, 0.5]","[0.15, 0.5]",1,1,,,,,,,,,0,0,0,0,0,6,6,1,,,,,,,,,,,,,,,,,,,,,,,,,,,,,,,,,,,,,,,,,,,,,,,,,,,,,,,415.9450528919988,None,415.9450528919988,None,415.9450528919988,None,m,0,0.9220715470000869,417.4798920430003,None,417.4798920430003,None,417.4798920430003,None,418.4780540089996,None,418.4780540089996,None,418.4780540089996,None,418.4780540089996,None,,,,,,,,,,,,,,,,,,,,,,,,,,,,,,,,,,,,,,,,,,,,001,112,2020_Feb_11_1447,spring_faces,3.1.5,60.11775541366396,
condition files/Stage1_1.xlsx,,B4,T4,m,"['c', 'm']","['Clue', 'Monopoly']","[-0.15, 0.5]","[0.15, 0.5]",1,1,,,,,,,,,0,0,0,0,0,7,7,7,,,,,,,,,,,,,,,,,,,,,,,,,,,,,,,,,,,,,,,,,,,,,,,,,,,,,,,420.4285511980015,None,420.4285511980015,None,420.4285511980015,None,m,1,1.4799759959969379,421.9620024399992,None,421.9620024399992,None,421.9620024399992,None,423.51136217399835,None,423.51136217399835,None,423.51136217399835,None,423.51136217399835,None,,,,,,,,,,,,,,,,,,,,,,,,,,,,,,,,,,,,,,,,,,,,001,112,2020_Feb_11_1447,spring_faces,3.1.5,60.11775541366396,
condition files/Stage1_2.xlsx,,T4,B4,m,"['c', 'm']","['Clue', 'Monopoly']","[-0.15, 0.5]","[0.15, 0.5]",1,1,,,,,,,,,0,1,1,1,0,0,0,7,,,,,,,,,,,,,,,,,,,,,,,,,,,,,,,,,,,,,,,,,,,,,,,,,,,,,,,425.4782565759997,None,425.4782565759997,None,425.4782565759997,None,c,0,2.269177774000127,427.02872281999953,None,427.02872281999953,None,427.02872281999953,None,429.3622959669992,None,429.3622959669992,None,429.3622959669992,None,429.3622959669992,None,,,,,,,,,,,,,,,,,,,,,,,,,,,,,,,,,,,,,,,,,,,,001,112,2020_Feb_11_1447,spring_faces,3.1.5,60.11775541366396,
condition files/Stage1_2.xlsx,,B2,T2,m,"['c', 'm']","['Clue', 'Monopoly']","[-0.15, 0.5]","[0.15, 0.5]",1,1,,,,,,,,,0,1,1,1,0,1,1,3,,,,,,,,,,,,,,,,,,,,,,,,,,,,,,,,,,,,,,,,,,,,,,,,,,,,,,,431.3278501579989,None,431.3278501579989,None,431.3278501579989,None,c,0,0.9643708699986746,432.8615116590008,None,432.8615116590008,None,432.8615116590008,None,433.8788492599997,None,433.8788492599997,None,433.8788492599997,None,433.8788492599997,None,,,,,,,,,,,,,,,,,,,,,,,,,,,,,,,,,,,,,,,,,,,,001,112,2020_Feb_11_1447,spring_faces,3.1.5,60.11775541366396,
condition files/Stage1_2.xlsx,,T1,B2,m,"['c', 'm']","['Clue', 'Monopoly']","[-0.15, 0.5]","[0.15, 0.5]",1,1,,,,,,,,,0,1,1,1,0,2,2,2,,,,,,,,,,,,,,,,,,,,,,,,,,,,,,,,,,,,,,,,,,,,,,,,,,,,,,,435.8449239750007,None,435.8449239750007,None,435.8449239750007,None,c,0,0.8793276639989926,437.378563577,None,437.378563577,None,437.378563577,None,438.31189579200145,None,438.31189579200145,None,438.31189579200145,None,438.31189579200145,None,,,,,,,,,,,,,,,,,,,,,,,,,,,,,,,,,,,,,,,,,,,,001,112,2020_Feb_11_1447,spring_faces,3.1.5,60.11775541366396,
condition files/Stage1_2.xlsx,,T3,B3,c,"['c', 'm']","['Clue', 'Monopoly']","[-0.15, 0.5]","[0.15, 0.5]",1,1,,,,,,,,,0,1,1,1,0,3,3,4,,,,,,,,,,,,,,,,,,,,,,,,,,,,,,,,,,,,,,,,,,,,,,,,,,,,,,,440.2790480830008,None,440.2790480830008,None,440.2790480830008,None,m,0,2.1252754099987214,441.82868750800117,None,441.82868750800117,None,441.82868750800117,None,444.01413841999965,None,444.01413841999965,None,444.01413841999965,None,444.01413841999965,None,,,,,,,,,,,,,,,,,,,,,,,,,,,,,,,,,,,,,,,,,,,,001,112,2020_Feb_11_1447,spring_faces,3.1.5,60.11775541366396,
condition files/Stage1_2.xlsx,,B4,T3,c,"['c', 'm']","['Clue', 'Monopoly']","[-0.15, 0.5]","[0.15, 0.5]",1,1,,,,,,,,,0,1,1,1,0,4,4,5,,,,,,,,,,,,,,,,,,,,,,,,,,,,,,,,,,,,,,,,,,,,,,,,,,,,,,,445.9785731769989,None,445.9785731769989,None,445.9785731769989,None,m,0,1.4969356159999734,447.52894523899886,None,447.52894523899886,None,447.52894523899886,None,449.07838925599935,None,449.07838925599935,None,449.07838925599935,None,449.07838925599935,None,,,,,,,,,,,,,,,,,,,,,,,,,,,,,,,,,,,,,,,,,,,,001,112,2020_Feb_11_1447,spring_faces,3.1.5,60.11775541366396,
condition files/Stage1_2.xlsx,,B3,T4,m,"['c', 'm']","['Clue', 'Monopoly']","[-0.15, 0.5]","[0.15, 0.5]",1,1,,,,,,,,,0,1,1,1,0,5,5,6,,,,,,,,,,,,,,,,,,,,,,,,,,,,,,,,,,,,,,,,,,,,,,,,,,,,,,,451.0452539520011,None,451.0452539520011,None,451.0452539520011,None,m,1,1.1987033059995156,452.5951727440006,None,452.5951727440006,None,452.5951727440006,None,453.8615422440016,None,453.8615422440016,None,453.8615422440016,None,453.8615422440016,None,,,,,,,,,,,,,,,,,,,,,,,,,,,,,,,,,,,,,,,,,,,,001,112,2020_Feb_11_1447,spring_faces,3.1.5,60.11775541366396,
condition files/Stage1_2.xlsx,,T2,B1,c,"['c', 'm']","['Clue', 'Monopoly']","[-0.15, 0.5]","[0.15, 0.5]",1,1,,,,,,,,,0,1,1,1,0,6,6,1,,,,,,,,,,,,,,,,,,,,,,,,,,,,,,,,,,,,,,,,,,,,,,,,,,,,,,,455.8119066319996,None,455.8119066319996,None,455.8119066319996,None,m,0,1.4236860169985448,457.36226714200166,None,457.36226714200166,None,457.36226714200166,None,458.8615569959984,None,458.8615569959984,None,458.8615569959984,None,458.8615569959984,None,,,,,,,,,,,,,,,,,,,,,,,,,,,,,,,,,,,,,,,,,,,,001,112,2020_Feb_11_1447,spring_faces,3.1.5,60.11775541366396,
condition files/Stage1_2.xlsx,,B1,T1,c,"['c', 'm']","['Clue', 'Monopoly']","[-0.15, 0.5]","[0.15, 0.5]",1,1,,,,,,,,,0,1,1,1,0,7,7,0,,,,,,,,,,,,,,,,,,,,,,,,,,,,,,,,,,,,,,,,,,,,,,,,,,,,,,,460.8113347510007,None,460.8113347510007,None,460.8113347510007,None,m,0,1.7210638069991546,462.34485838800174,None,462.34485838800174,None,462.34485838800174,None,464.1286265259987,None,464.1286265259987,None,464.1286265259987,None,464.1286265259987,None,,,,,,,,,,,,,,,,,,,,,,,,,,,,,,,,,,,,,,,,,,,,001,112,2020_Feb_11_1447,spring_faces,3.1.5,60.11775541366396,
condition files/Stage1_1.xlsx,,B4,T4,m,"['c', 'm']","['Clue', 'Monopoly']","[-0.15, 0.5]","[0.15, 0.5]",1,1,,,,,,,,,0,2,2,2,0,0,0,7,,,,,,,,,,,,,,,,,,,,,,,,,,,,,,,,,,,,,,,,,,,,,,,,,,,,,,,466.1120235210001,None,466.1120235210001,None,466.1120235210001,None,m,1,1.8100673259978066,467.64785278600175,None,467.64785278600175,None,467.64785278600175,None,469.5135501270015,None,469.5135501270015,None,469.5135501270015,None,469.5135501270015,None,,,,,,,,,,,,,,,,,,,,,,,,,,,,,,,,,,,,,,,,,,,,001,112,2020_Feb_11_1447,spring_faces,3.1.5,60.11775541366396,
condition files/Stage1_1.xlsx,,T4,B3,m,"['c', 'm']","['Clue', 'Monopoly']","[-0.15, 0.5]","[0.15, 0.5]",1,1,,,,,,,,,0,2,2,2,0,1,1,6,,,,,,,,,,,,,,,,,,,,,,,,,,,,,,,,,,,,,,,,,,,,,,,,,,,,,,,471.4777055070008,None,471.4777055070008,None,471.4777055070008,None,m,1,2.573589102998085,473.012392042001,None,473.012392042001,None,473.012392042001,None,475.6447748460014,None,475.6447748460014,None,475.6447748460014,None,475.6447748460014,None,,,,,,,,,,,,,,,,,,,,,,,,,,,,,,,,,,,,,,,,,,,,001,112,2020_Feb_11_1447,spring_faces,3.1.5,60.11775541366396,
condition files/Stage1_1.xlsx,,T3,B4,c,"['c', 'm']","['Clue', 'Monopoly']","[-0.15, 0.5]","[0.15, 0.5]",1,1,,,,,,,,,0,2,2,2,0,2,2,5,,,,,,,,,,,,,,,,,,,,,,,,,,,,,,,,,,,,,,,,,,,,,,,,,,,,,,,477.61187650899956,None,477.61187650899956,None,477.61187650899956,None,c,1,1.143569481002487,479.14630357699934,None,479.14630357699934,None,479.14630357699934,None,480.34794774499824,None,480.34794774499824,None,480.34794774499824,None,480.34794774499824,None,,,,,,,,,,,,,,,,,,,,,,,,,,,,,,,,,,,,,,,,,,,,001,112,2020_Feb_11_1447,spring_faces,3.1.5,60.11775541366396,
condition files/Stage1_1.xlsx,,B1,T2,c,"['c', 'm']","['Clue', 'Monopoly']","[-0.15, 0.5]","[0.15, 0.5]",1,1,,,,,,,,,0,2,2,2,0,3,3,1,,,,,,,,,,,,,,,,,,,,,,,,,,,,,,,,,,,,,,,,,,,,,,,,,,,,,,,482.3113220939995,None,482.3113220939995,None,482.3113220939995,None,c,1,1.467849145999935,483.8460525679984,None,483.8460525679984,None,483.8460525679984,None,485.37876579599833,None,485.37876579599833,None,485.37876579599833,None,485.37876579599833,None,,,,,,,,,,,,,,,,,,,,,,,,,,,,,,,,,,,,,,,,,,,,001,112,2020_Feb_11_1447,spring_faces,3.1.5,60.11775541366396,
condition files/Stage1_1.xlsx,,T1,B1,c,"['c', 'm']","['Clue', 'Monopoly']","[-0.15, 0.5]","[0.15, 0.5]",1,1,,,,,,,,,0,2,2,2,0,4,4,0,,,,,,,,,,,,,,,,,,,,,,,,,,,,,,,,,,,,,,,,,,,,,,,,,,,,,,,487.34536290699907,None,487.34536290699907,None,487.34536290699907,None,m,0,1.410570796000684,488.87932468299914,None,488.87932468299914,None,488.87932468299914,None,490.3454798950006,None,490.3454798950006,None,490.3454798950006,None,490.3454798950006,None,,,,,,,,,,,,,,,,,,,,,,,,,,,,,,,,,,,,,,,,,,,,001,112,2020_Feb_11_1447,spring_faces,3.1.5,60.11775541366396,
condition files/Stage1_1.xlsx,,T2,B2,m,"['c', 'm']","['Clue', 'Monopoly']","[-0.15, 0.5]","[0.15, 0.5]",1,1,,,,,,,,,0,2,2,2,0,5,5,3,,,,,,,,,,,,,,,,,,,,,,,,,,,,,,,,,,,,,,,,,,,,,,,,,,,,,,,492.3117135300017,None,492.3117135300017,None,492.3117135300017,None,m,1,1.2119039690005593,493.845965348999,None,493.845965348999,None,493.845965348999,None,495.1129724780003,None,495.1129724780003,None,495.1129724780003,None,495.1129724780003,None,,,,,,,,,,,,,,,,,,,,,,,,,,,,,,,,,,,,,,,,,,,,001,112,2020_Feb_11_1447,spring_faces,3.1.5,60.11775541366396,
condition files/Stage1_1.xlsx,,B3,T3,c,"['c', 'm']","['Clue', 'Monopoly']","[-0.15, 0.5]","[0.15, 0.5]",1,1,,,,,,,,,0,2,2,2,0,6,6,4,,,,,,,,,,,,,,,,,,,,,,,,,,,,,,,,,,,,,,,,,,,,,,,,,,,,,,,497.0781682099987,None,497.0781682099987,None,497.0781682099987,None,c,1,1.6455667209993408,498.612360911,None,498.612360911,None,498.612360911,None,500.3282837580009,None,500.3282837580009,None,500.3282837580009,None,500.3282837580009,None,,,,,,,,,,,,,,,,,,,,,,,,,,,,,,,,,,,,,,,,,,,,001,112,2020_Feb_11_1447,spring_faces,3.1.5,60.11775541366396,
condition files/Stage1_1.xlsx,,B2,T1,m,"['c', 'm']","['Clue', 'Monopoly']","[-0.15, 0.5]","[0.15, 0.5]",1,1,,,,,,,,,0,2,2,2,0,7,7,2,,,,,,,,,,,,,,,,,,,,,,,,,,,,,,,,,,,,,,,,,,,,,,,,,,,,,,,502.27859612300017,None,502.27859612300017,None,502.27859612300017,None,c,0,1.2929985980008496,503.81298286400124,None,503.81298286400124,None,503.81298286400124,None,505.164547452001,None,505.164547452001,None,505.164547452001,None,505.164547452001,None,,,,,,,,,,,,,,,,,,,,,,,,,,,,,,,,,,,,,,,,,,,,001,112,2020_Feb_11_1447,spring_faces,3.1.5,60.11775541366396,
condition files/Stage1_2.xlsx,,B1,T1,c,"['c', 'm']","['Clue', 'Monopoly']","[-0.15, 0.5]","[0.15, 0.5]",1,1,,,,,,,,,0,3,3,3,0,0,0,0,,,,,,,,,,,,,,,,,,,,,,,,,,,,,,,,,,,,,,,,,,,,,,,,,,,,,,,507.1452774339996,None,507.1452774339996,None,507.1452774339996,None,m,0,2.394901073002984,508.67902520999996,None,508.67902520999996,None,508.67902520999996,None,511.12962661599886,None,511.12962661599886,None,511.12962661599886,None,511.12962661599886,None,,,,,,,,,,,,,,,,,,,,,,,,,,,,,,,,,,,,,,,,,,,,001,112,2020_Feb_11_1447,spring_faces,3.1.5,60.11775541366396,
condition files/Stage1_2.xlsx,,T1,B2,m,"['c', 'm']","['Clue', 'Monopoly']","[-0.15, 0.5]","[0.15, 0.5]",1,1,,,,,,,,,0,3,3,3,0,1,1,2,,,,,,,,,,,,,,,,,,,,,,,,,,,,,,,,,,,,,,,,,,,,,,,,,,,,,,,513.0951707739987,None,513.0951707739987,None,513.0951707739987,None,m,1,3.7077230860013515,514.6302582309982,None,514.6302582309982,None,514.6302582309982,None,518.395013409001,None,518.395013409001,None,518.395013409001,None,518.395013409001,None,,,,,,,,,,,,,,,,,,,,,,,,,,,,,,,,,,,,,,,,,,,,001,112,2020_Feb_11_1447,spring_faces,3.1.5,60.11775541366396,
condition files/Stage1_2.xlsx,,B3,T4,m,"['c', 'm']","['Clue', 'Monopoly']","[-0.15, 0.5]","[0.15, 0.5]",1,1,,,,,,,,,0,3,3,3,0,2,2,6,,,,,,,,,,,,,,,,,,,,,,,,,,,,,,,,,,,,,,,,,,,,,,,,,,,,,,,520.3618818040013,None,520.3618818040013,None,520.3618818040013,None,m,1,2.601764628001547,521.9120817930016,None,521.9120817930016,None,521.9120817930016,None,524.5781512989997,None,524.5781512989997,None,524.5781512989997,None,524.5781512989997,None,,,,,,,,,,,,,,,,,,,,,,,,,,,,,,,,,,,,,,,,,,,,001,112,2020_Feb_11_1447,spring_faces,3.1.5,60.11775541366396,
condition files/Stage1_2.xlsx,,T4,B4,m,"['c', 'm']","['Clue', 'Monopoly']","[-0.15, 0.5]","[0.15, 0.5]",1,1,,,,,,,,,0,3,3,3,0,3,3,7,,,,,,,,,,,,,,,,,,,,,,,,,,,,,,,,,,,,,,,,,,,,,,,,,,,,,,,526.5451506749996,None,526.5451506749996,None,526.5451506749996,None,m,1,0.7221014349997859,528.0798573780012,None,528.0798573780012,None,528.0798573780012,None,528.8618936060011,None,528.8618936060011,None,528.8618936060011,None,528.8618936060011,None,,,,,,,,,,,,,,,,,,,,,,,,,,,,,,,,,,,,,,,,,,,,001,112,2020_Feb_11_1447,spring_faces,3.1.5,60.11775541366396,
condition files/Stage1_2.xlsx,,B2,T2,m,"['c', 'm']","['Clue', 'Monopoly']","[-0.15, 0.5]","[0.15, 0.5]",1,1,,,,,,,,,0,3,3,3,0,4,4,3,,,,,,,,,,,,,,,,,,,,,,,,,,,,,,,,,,,,,,,,,,,,,,,,,,,,,,,530.8283471930008,None,530.8283471930008,None,530.8283471930008,None,c,0,1.43033687299976,532.3635690670017,None,532.3635690670017,None,532.3635690670017,None,533.8448633599983,None,533.8448633599983,None,533.8448633599983,None,533.8448633599983,None,,,,,,,,,,,,,,,,,,,,,,,,,,,,,,,,,,,,,,,,,,,,001,112,2020_Feb_11_1447,spring_faces,3.1.5,60.11775541366396,
condition files/Stage1_2.xlsx,,T3,B3,c,"['c', 'm']","['Clue', 'Monopoly']","[-0.15, 0.5]","[0.15, 0.5]",1,1,,,,,,,,,0,3,3,3,0,5,5,4,,,,,,,,,,,,,,,,,,,,,,,,,,,,,,,,,,,,,,,,,,,,,,,,,,,,,,,535.8112613810008,None,535.8112613810008,None,535.8112613810008,None,c,1,2.2879051720010466,537.3460086599989,None,537.3460086599989,None,537.3460086599989,None,539.6958024759988,None,539.6958024759988,None,539.6958024759988,None,539.6958024759988,None,,,,,,,,,,,,,,,,,,,,,,,,,,,,,,,,,,,,,,,,,,,,001,112,2020_Feb_11_1447,spring_faces,3.1.5,60.11775541366396,
condition files/Stage1_2.xlsx,,T2,B1,c,"['c', 'm']","['Clue', 'Monopoly']","[-0.15, 0.5]","[0.15, 0.5]",1,1,,,,,,,,,0,3,3,3,0,6,6,1,,,,,,,,,,,,,,,,,,,,,,,,,,,,,,,,,,,,,,,,,,,,,,,,,,,,,,,541.6621552360011,None,541.6621552360011,None,541.6621552360011,None,m,0,3.2384987240002374,543.195429080999,None,543.195429080999,None,543.195429080999,None,546.495422308999,None,546.495422308999,None,546.495422308999,None,546.495422308999,None,,,,,,,,,,,,,,,,,,,,,,,,,,,,,,,,,,,,,,,,,,,,001,112,2020_Feb_11_1447,spring_faces,3.1.5,60.11775541366396,
condition files/Stage1_2.xlsx,,B4,T3,c,"['c', 'm']","['Clue', 'Monopoly']","[-0.15, 0.5]","[0.15, 0.5]",1,1,,,,,,,,,0,3,3,3,0,7,7,5,,,,,,,,,,,,,,,,,,,,,,,,,,,,,,,,,,,,,,,,,,,,,,,,,,,,,,,548.4613602190002,None,548.4613602190002,None,548.4613602190002,None,c,1,2.2618126300003496,550.0120462049999,None,550.0120462049999,None,550.0120462049999,None,552.3285675609986,None,552.3285675609986,None,552.3285675609986,None,552.3285675609986,None,,,,,,,,,,,,,,,,,,,,,,,,,,,,,,,,,,,,,,,,,,,,001,112,2020_Feb_11_1447,spring_faces,3.1.5,60.11775541366396,
condition files/Stage1_1.xlsx,,T4,B3,m,"['c', 'm']","['Clue', 'Monopoly']","[-0.15, 0.5]","[0.15, 0.5]",1,1,,,,,,,,,0,4,4,4,0,0,0,6,,,,,,,,,,,,,,,,,,,,,,,,,,,,,,,,,,,,,,,,,,,,,,,,,,,,,,,554.3119781390014,None,554.3119781390014,None,554.3119781390014,None,m,1,0.7165181169984862,555.8453932060002,None,555.8453932060002,None,555.8453932060002,None,556.6146198269998,None,556.6146198269998,None,556.6146198269998,None,556.6146198269998,None,,,,,,,,,,,,,,,,,,,,,,,,,,,,,,,,,,,,,,,,,,,,001,112,2020_Feb_11_1447,spring_faces,3.1.5,60.11775541366396,
condition files/Stage1_1.xlsx,,B3,T3,c,"['c', 'm']","['Clue', 'Monopoly']","[-0.15, 0.5]","[0.15, 0.5]",1,1,,,,,,,,,0,4,4,4,0,1,1,4,,,,,,,,,,,,,,,,,,,,,,,,,,,,,,,,,,,,,,,,,,,,,,,,,,,,,,,558.5785237029995,None,558.5785237029995,None,558.5785237029995,None,c,1,1.4895158559993433,560.1124633180007,None,560.1124633180007,None,560.1124633180007,None,561.663485639001,None,561.663485639001,None,561.663485639001,None,561.663485639001,None,,,,,,,,,,,,,,,,,,,,,,,,,,,,,,,,,,,,,,,,,,,,001,112,2020_Feb_11_1447,spring_faces,3.1.5,60.11775541366396,
condition files/Stage1_1.xlsx,,T3,B4,c,"['c', 'm']","['Clue', 'Monopoly']","[-0.15, 0.5]","[0.15, 0.5]",1,1,,,,,,,,,0,4,4,4,0,2,2,5,,,,,,,,,,,,,,,,,,,,,,,,,,,,,,,,,,,,,,,,,,,,,,,,,,,,,,,563.6286845059985,None,563.6286845059985,None,563.6286845059985,None,c,1,0.9828219929986517,565.1790561650014,None,565.1790561650014,None,565.1790561650014,None,566.2113793559984,None,566.2113793559984,None,566.2113793559984,None,566.2113793559984,None,,,,,,,,,,,,,,,,,,,,,,,,,,,,,,,,,,,,,,,,,,,,001,112,2020_Feb_11_1447,spring_faces,3.1.5,60.11775541366396,
condition files/Stage1_1.xlsx,,B4,T4,m,"['c', 'm']","['Clue', 'Monopoly']","[-0.15, 0.5]","[0.15, 0.5]",1,1,,,,,,,,,0,4,4,4,0,3,3,7,,,,,,,,,,,,,,,,,,,,,,,,,,,,,,,,,,,,,,,,,,,,,,,,,,,,,,,568.1780469910009,None,568.1780469910009,None,568.1780469910009,None,m,1,1.201020554999559,569.7288437079987,None,569.7288437079987,None,569.7288437079987,None,571.0115965869991,None,571.0115965869991,None,571.0115965869991,None,571.0115965869991,None,,,,,,,,,,,,,,,,,,,,,,,,,,,,,,,,,,,,,,,,,,,,001,112,2020_Feb_11_1447,spring_faces,3.1.5,60.11775541366396,
condition files/Stage1_1.xlsx,,T1,B1,c,"['c', 'm']","['Clue', 'Monopoly']","[-0.15, 0.5]","[0.15, 0.5]",1,1,,,,,,,,,0,4,4,4,0,4,4,0,,,,,,,,,,,,,,,,,,,,,,,,,,,,,,,,,,,,,,,,,,,,,,,,,,,,,,,572.9613090040002,None,572.9613090040002,None,572.9613090040002,None,c,1,2.4503041220013984,574.4955528460014,None,574.4955528460014,None,574.4955528460014,None,577.0118295909997,None,577.0118295909997,None,577.0118295909997,None,577.0118295909997,None,,,,,,,,,,,,,,,,,,,,,,,,,,,,,,,,,,,,,,,,,,,,001,112,2020_Feb_11_1447,spring_faces,3.1.5,60.11775541366396,
condition files/Stage1_1.xlsx,,B2,T1,m,"['c', 'm']","['Clue', 'Monopoly']","[-0.15, 0.5]","[0.15, 0.5]",1,1,,,,,,,,,0,4,4,4,0,5,5,2,,,,,,,,,,,,,,,,,,,,,,,,,,,,,,,,,,,,,,,,,,,,,,,,,,,,,,,578.9781460259983,None,578.9781460259983,None,578.9781460259983,None,c,0,1.5354778500004613,580.5144371069982,None,580.5144371069982,None,580.5144371069982,None,582.1288429349988,None,582.1288429349988,None,582.1288429349988,None,582.1288429349988,None,,,,,,,,,,,,,,,,,,,,,,,,,,,,,,,,,,,,,,,,,,,,001,112,2020_Feb_11_1447,spring_faces,3.1.5,60.11775541366396,
condition files/Stage1_1.xlsx,,T2,B2,m,"['c', 'm']","['Clue', 'Monopoly']","[-0.15, 0.5]","[0.15, 0.5]",1,1,,,,,,,,,0,4,4,4,0,6,6,3,,,,,,,,,,,,,,,,,,,,,,,,,,,,,,,,,,,,,,,,,,,,,,,,,,,,,,,584.0778976889997,None,584.0778976889997,None,584.0778976889997,None,m,1,1.717132601999765,585.6127480389987,None,585.6127480389987,None,585.6127480389987,None,587.3951534709995,None,587.3951534709995,None,587.3951534709995,None,587.3951534709995,None,,,,,,,,,,,,,,,,,,,,,,,,,,,,,,,,,,,,,,,,,,,,001,112,2020_Feb_11_1447,spring_faces,3.1.5,60.11775541366396,
condition files/Stage1_1.xlsx,,B1,T2,c,"['c', 'm']","['Clue', 'Monopoly']","[-0.15, 0.5]","[0.15, 0.5]",1,1,,,,,,,,,0,4,4,4,0,7,7,1,,,,,,,,,,,,,,,,,,,,,,,,,,,,,,,,,,,,,,,,,,,,,,,,,,,,,,,589.3616446449996,None,589.3616446449996,None,589.3616446449996,None,m,0,0.9934931190000498,590.8963791079987,None,590.8963791079987,None,590.8963791079987,None,591.9457594320011,None,591.9457594320011,None,591.9457594320011,None,591.9457594320011,None,,,,,,,,,,,,,,,,,,,,,,,,,,,,,,,,,,,,,,,,,,,,001,112,2020_Feb_11_1447,spring_faces,3.1.5,60.11775541366396,
condition files/Stage1_2.xlsx,,T3,B3,c,"['c', 'm']","['Clue', 'Monopoly']","[-0.15, 0.5]","[0.15, 0.5]",1,1,,,,,,,,,0,5,5,5,0,0,0,4,,,,,,,,,,,,,,,,,,,,,,,,,,,,,,,,,,,,,,,,,,,,,,,,,,,,,,,593.9291288989989,None,593.9291288989989,None,593.9291288989989,None,c,1,1.5476499889991828,595.4782436640016,None,595.4782436640016,None,595.4782436640016,None,597.078381446001,None,597.078381446001,None,597.078381446001,None,597.078381446001,None,,,,,,,,,,,,,,,,,,,,,,,,,,,,,,,,,,,,,,,,,,,,001,112,2020_Feb_11_1447,spring_faces,3.1.5,60.11775541366396,
condition files/Stage1_2.xlsx,,T1,B2,m,"['c', 'm']","['Clue', 'Monopoly']","[-0.15, 0.5]","[0.15, 0.5]",1,1,,,,,,,,,0,5,5,5,0,1,1,2,,,,,,,,,,,,,,,,,,,,,,,,,,,,,,,,,,,,,,,,,,,,,,,,,,,,,,,599.0452531039991,None,599.0452531039991,None,599.0452531039991,None,c,0,1.5502536980020523,600.5956076639995,None,600.5956076639995,None,600.5956076639995,None,602.2114216539994,None,602.2114216539994,None,602.2114216539994,None,602.2114216539994,None,,,,,,,,,,,,,,,,,,,,,,,,,,,,,,,,,,,,,,,,,,,,001,112,2020_Feb_11_1447,spring_faces,3.1.5,60.11775541366396,
condition files/Stage1_2.xlsx,,B3,T4,m,"['c', 'm']","['Clue', 'Monopoly']","[-0.15, 0.5]","[0.15, 0.5]",1,1,,,,,,,,,0,5,5,5,0,2,2,6,,,,,,,,,,,,,,,,,,,,,,,,,,,,,,,,,,,,,,,,,,,,,,,,,,,,,,,604.1787189419993,None,604.1787189419993,None,604.1787189419993,None,m,1,0.9919774259979022,605.7140090300018,None,605.7140090300018,None,605.7140090300018,None,606.7619628350003,None,606.7619628350003,None,606.7619628350003,None,606.7619628350003,None,,,,,,,,,,,,,,,,,,,,,,,,,,,,,,,,,,,,,,,,,,,,001,112,2020_Feb_11_1447,spring_faces,3.1.5,60.11775541366396,
condition files/Stage1_2.xlsx,,B4,T3,c,"['c', 'm']","['Clue', 'Monopoly']","[-0.15, 0.5]","[0.15, 0.5]",1,1,,,,,,,,,0,5,5,5,0,3,3,5,,,,,,,,,,,,,,,,,,,,,,,,,,,,,,,,,,,,,,,,,,,,,,,,,,,,,,,608.7285125550006,None,608.7285125550006,None,608.7285125550006,None,c,1,1.563285817999713,610.2787736110004,None,610.2787736110004,None,610.2787736110004,None,611.9120364629998,None,611.9120364629998,None,611.9120364629998,None,611.9120364629998,None,,,,,,,,,,,,,,,,,,,,,,,,,,,,,,,,,,,,,,,,,,,,001,112,2020_Feb_11_1447,spring_faces,3.1.5,60.11775541366396,
condition files/Stage1_2.xlsx,,B2,T2,m,"['c', 'm']","['Clue', 'Monopoly']","[-0.15, 0.5]","[0.15, 0.5]",1,1,,,,,,,,,0,5,5,5,0,4,4,3,,,,,,,,,,,,,,,,,,,,,,,,,,,,,,,,,,,,,,,,,,,,,,,,,,,,,,,613.8613062229997,None,613.8613062229997,None,613.8613062229997,None,m,1,2.4459999989994685,615.411893714001,None,615.411893714001,None,615.411893714001,None,617.928760499999,None,617.928760499999,None,617.928760499999,None,617.928760499999,None,,,,,,,,,,,,,,,,,,,,,,,,,,,,,,,,,,,,,,,,,,,,001,112,2020_Feb_11_1447,spring_faces,3.1.5,60.11775541366396,
condition files/Stage1_2.xlsx,,T4,B4,m,"['c', 'm']","['Clue', 'Monopoly']","[-0.15, 0.5]","[0.15, 0.5]",1,1,,,,,,,,,0,5,5,5,0,5,5,7,,,,,,,,,,,,,,,,,,,,,,,,,,,,,,,,,,,,,,,,,,,,,,,,,,,,,,,619.8782972430017,None,619.8782972430017,None,619.8782972430017,None,m,1,1.0856578250022721,621.4282356879994,None,621.4282356879994,None,621.4282356879994,None,622.5785405649985,None,622.5785405649985,None,622.5785405649985,None,622.5785405649985,None,,,,,,,,,,,,,,,,,,,,,,,,,,,,,,,,,,,,,,,,,,,,001,112,2020_Feb_11_1447,spring_faces,3.1.5,60.11775541366396,
condition files/Stage1_2.xlsx,,T2,B1,c,"['c', 'm']","['Clue', 'Monopoly']","[-0.15, 0.5]","[0.15, 0.5]",1,1,,,,,,,,,0,5,5,5,0,6,6,1,,,,,,,,,,,,,,,,,,,,,,,,,,,,,,,,,,,,,,,,,,,,,,,,,,,,,,,624.5452082400006,None,624.5452082400006,None,624.5452082400006,None,m,0,2.3392708510000375,626.094645240999,None,626.094645240999,None,626.094645240999,None,628.4954120209986,None,628.4954120209986,None,628.4954120209986,None,628.4954120209986,None,,,,,,,,,,,,,,,,,,,,,,,,,,,,,,,,,,,,,,,,,,,,001,112,2020_Feb_11_1447,spring_faces,3.1.5,60.11775541366396,
condition files/Stage1_2.xlsx,,B1,T1,c,"['c', 'm']","['Clue', 'Monopoly']","[-0.15, 0.5]","[0.15, 0.5]",1,1,,,,,,,,,0,5,5,5,0,7,7,0,,,,,,,,,,,,,,,,,,,,,,,,,,,,,,,,,,,,,,,,,,,,,,,,,,,,,,,630.4618907059994,None,630.4618907059994,None,630.4618907059994,None,m,0,1.4146965130021272,631.9952111230014,None,631.9952111230014,None,631.9952111230014,None,633.4614528029997,None,633.4614528029997,None,633.4614528029997,None,633.4614528029997,None,,,,,,,,,,,,,,,,,,,,,,,,,,,,,,,,,,,,,,,,,,,,001,112,2020_Feb_11_1447,spring_faces,3.1.5,60.11775541366396,
condition files/Stage1_1.xlsx,,B3,T3,c,"['c', 'm']","['Clue', 'Monopoly']","[-0.15, 0.5]","[0.15, 0.5]",1,1,,,,,,,,,0,6,6,6,0,0,0,4,,,,,,,,,,,,,,,,,,,,,,,,,,,,,,,,,,,,,,,,,,,,,,,,,,,,,,,635.4456203429982,None,635.4456203429982,None,635.4456203429982,None,c,1,0.9412370969985204,636.9806341719996,None,636.9806341719996,None,636.9806341719996,None,637.9788151520006,None,637.9788151520006,None,637.9788151520006,None,637.9788151520006,None,,,,,,,,,,,,,,,,,,,,,,,,,,,,,,,,,,,,,,,,,,,,001,112,2020_Feb_11_1447,spring_faces,3.1.5,60.11775541366396,
condition files/Stage1_1.xlsx,,T2,B2,m,"['c', 'm']","['Clue', 'Monopoly']","[-0.15, 0.5]","[0.15, 0.5]",1,1,,,,,,,,,0,6,6,6,0,1,1,3,,,,,,,,,,,,,,,,,,,,,,,,,,,,,,,,,,,,,,,,,,,,,,,,,,,,,,,639.9450381060014,None,639.9450381060014,None,639.9450381060014,None,c,0,1.3218937719975656,641.4800840179996,None,641.4800840179996,None,641.4800840179996,None,642.8648071979987,None,642.8648071979987,None,642.8648071979987,None,642.8648071979987,None,,,,,,,,,,,,,,,,,,,,,,,,,,,,,,,,,,,,,,,,,,,,001,112,2020_Feb_11_1447,spring_faces,3.1.5,60.11775541366396,
condition files/Stage1_1.xlsx,,T4,B3,m,"['c', 'm']","['Clue', 'Monopoly']","[-0.15, 0.5]","[0.15, 0.5]",1,1,,,,,,,,,0,6,6,6,0,2,2,6,,,,,,,,,,,,,,,,,,,,,,,,,,,,,,,,,,,,,,,,,,,,,,,,,,,,,,,644.8286182379998,None,644.8286182379998,None,644.8286182379998,None,m,1,0.8549610959998972,646.3629550039986,None,646.3629550039986,None,646.3629550039986,None,647.278746035001,None,647.278746035001,None,647.278746035001,None,647.278746035001,None,,,,,,,,,,,,,,,,,,,,,,,,,,,,,,,,,,,,,,,,,,,,001,112,2020_Feb_11_1447,spring_faces,3.1.5,60.11775541366396,
condition files/Stage1_1.xlsx,,B4,T4,m,"['c', 'm']","['Clue', 'Monopoly']","[-0.15, 0.5]","[0.15, 0.5]",1,1,,,,,,,,,0,6,6,6,0,3,3,7,,,,,,,,,,,,,,,,,,,,,,,,,,,,,,,,,,,,,,,,,,,,,,,,,,,,,,,649.2454031710004,None,649.2454031710004,None,649.2454031710004,None,m,1,1.1572228740005812,650.7807577239982,None,650.7807577239982,None,650.7807577239982,None,651.9958139189985,None,651.9958139189985,None,651.9958139189985,None,651.9958139189985,None,,,,,,,,,,,,,,,,,,,,,,,,,,,,,,,,,,,,,,,,,,,,001,112,2020_Feb_11_1447,spring_faces,3.1.5,60.11775541366396,
condition files/Stage1_1.xlsx,,B2,T1,m,"['c', 'm']","['Clue', 'Monopoly']","[-0.15, 0.5]","[0.15, 0.5]",1,1,,,,,,,,,0,6,6,6,0,4,4,2,,,,,,,,,,,,,,,,,,,,,,,,,,,,,,,,,,,,,,,,,,,,,,,,,,,,,,,653.9614024600014,None,653.9614024600014,None,653.9614024600014,None,c,0,2.7300147940004535,655.5118729349997,None,655.5118729349997,None,655.5118729349997,None,658.2957225729988,None,658.2957225729988,None,658.2957225729988,None,658.2957225729988,None,,,,,,,,,,,,,,,,,,,,,,,,,,,,,,,,,,,,,,,,,,,,001,112,2020_Feb_11_1447,spring_faces,3.1.5,60.11775541366396,
condition files/Stage1_1.xlsx,,T3,B4,c,"['c', 'm']","['Clue', 'Monopoly']","[-0.15, 0.5]","[0.15, 0.5]",1,1,,,,,,,,,0,6,6,6,0,5,5,5,,,,,,,,,,,,,,,,,,,,,,,,,,,,,,,,,,,,,,,,,,,,,,,,,,,,,,,660.2613605590013,None,660.2613605590013,None,660.2613605590013,None,c,1,1.5824765610013856,661.7954179209992,None,661.7954179209992,None,661.7954179209992,None,663.4454061959987,None,663.4454061959987,None,663.4454061959987,None,663.4454061959987,None,,,,,,,,,,,,,,,,,,,,,,,,,,,,,,,,,,,,,,,,,,,,001,112,2020_Feb_11_1447,spring_faces,3.1.5,60.11775541366396,
condition files/Stage1_1.xlsx,,B1,T2,c,"['c', 'm']","['Clue', 'Monopoly']","[-0.15, 0.5]","[0.15, 0.5]",1,1,,,,,,,,,0,6,6,6,0,6,6,1,,,,,,,,,,,,,,,,,,,,,,,,,,,,,,,,,,,,,,,,,,,,,,,,,,,,,,,665.3952053270004,None,665.3952053270004,None,665.3952053270004,None,m,0,1.345738486998016,666.9282042529994,None,666.9282042529994,None,666.9282042529994,None,668.3289602209989,None,668.3289602209989,None,668.3289602209989,None,668.3289602209989,None,,,,,,,,,,,,,,,,,,,,,,,,,,,,,,,,,,,,,,,,,,,,001,112,2020_Feb_11_1447,spring_faces,3.1.5,60.11775541366396,
condition files/Stage1_1.xlsx,,T1,B1,c,"['c', 'm']","['Clue', 'Monopoly']","[-0.15, 0.5]","[0.15, 0.5]",1,1,,,,,,,,,0,6,6,6,0,7,7,0,,,,,,,,,,,,,,,,,,,,,,,,,,,,,,,,,,,,,,,,,,,,,,,,,,,,,,,670.2953211979984,None,670.2953211979984,None,670.2953211979984,None,c,1,2.555686758001684,671.8302992790013,None,671.8302992790013,None,671.8302992790013,None,674.4453512479995,None,674.4453512479995,None,674.4453512479995,None,674.4453512479995,None,,,,,,,,,,,,,,,,,,,,,,,,,,,,,,,,,,,,,,,,,,,,001,112,2020_Feb_11_1447,spring_faces,3.1.5,60.11775541366396,
condition files/Stage1_2.xlsx,,T4,B4,m,"['c', 'm']","['Clue', 'Monopoly']","[-0.15, 0.5]","[0.15, 0.5]",1,1,,,,,,,,,0,7,7,7,0,0,0,7,,,,,,,,,,,,,,,,,,,,,,,,,,,,,,,,,,,,,,,,,,,,,,,,,,,,,,,676.4286472720014,None,676.4286472720014,None,676.4286472720014,None,m,1,4.134712187002151,677.9632120559982,None,677.9632120559982,None,677.9632120559982,None,682.1787329209983,None,682.1787329209983,None,682.1787329209983,None,682.1787329209983,None,,,,,,,,,,,,,,,,,,,,,,,,,,,,,,,,,,,,,,,,,,,,001,112,2020_Feb_11_1447,spring_faces,3.1.5,60.11775541366396,
condition files/Stage1_2.xlsx,,T2,B1,c,"['c', 'm']","['Clue', 'Monopoly']","[-0.15, 0.5]","[0.15, 0.5]",1,1,,,,,,,,,0,7,7,7,0,1,1,1,,,,,,,,,,,,,,,,,,,,,,,,,,,,,,,,,,,,,,,,,,,,,,,,,,,,,,,684.1285281970013,None,684.1285281970013,None,684.1285281970013,None,c,1,1.4429717530001653,685.6629967359986,None,685.6629967359986,None,685.6629967359986,None,687.1618613409992,None,687.1618613409992,None,687.1618613409992,None,687.1618613409992,None,,,,,,,,,,,,,,,,,,,,,,,,,,,,,,,,,,,,,,,,,,,,001,112,2020_Feb_11_1447,spring_faces,3.1.5,60.11775541366396,
condition files/Stage1_2.xlsx,,B2,T2,m,"['c', 'm']","['Clue', 'Monopoly']","[-0.15, 0.5]","[0.15, 0.5]",1,1,,,,,,,,,0,7,7,7,0,2,2,3,,,,,,,,,,,,,,,,,,,,,,,,,,,,,,,,,,,,,,,,,,,,,,,,,,,,,,,689.1284997830007,None,689.1284997830007,None,689.1284997830007,None,c,0,1.8680948069995793,690.6617754990002,None,690.6617754990002,None,690.6617754990002,None,692.5970332350007,None,692.5970332350007,None,692.5970332350007,None,692.5970332350007,None,,,,,,,,,,,,,,,,,,,,,,,,,,,,,,,,,,,,,,,,,,,,001,112,2020_Feb_11_1447,spring_faces,3.1.5,60.11775541366396,
condition files/Stage1_2.xlsx,,T3,B3,c,"['c', 'm']","['Clue', 'Monopoly']","[-0.15, 0.5]","[0.15, 0.5]",1,1,,,,,,,,,0,7,7,7,0,3,3,4,,,,,,,,,,,,,,,,,,,,,,,,,,,,,,,,,,,,,,,,,,,,,,,,,,,,,,,694.5613393249987,None,694.5613393249987,None,694.5613393249987,None,c,1,0.9778374429988617,696.1120622390008,None,696.1120622390008,None,696.1120622390008,None,697.1620737849989,None,697.1620737849989,None,697.1620737849989,None,697.1620737849989,None,,,,,,,,,,,,,,,,,,,,,,,,,,,,,,,,,,,,,,,,,,,,001,112,2020_Feb_11_1447,spring_faces,3.1.5,60.11775541366396,
condition files/Stage1_2.xlsx,,B4,T3,c,"['c', 'm']","['Clue', 'Monopoly']","[-0.15, 0.5]","[0.15, 0.5]",1,1,,,,,,,,,0,7,7,7,0,4,4,5,,,,,,,,,,,,,,,,,,,,,,,,,,,,,,,,,,,,,,,,,,,,,,,,,,,,,,,699.1118857100009,None,699.1118857100009,None,699.1118857100009,None,c,1,1.0998248750001949,700.6620927430013,None,700.6620927430013,None,700.6620927430013,None,701.8118605349991,None,701.8118605349991,None,701.8118605349991,None,701.8118605349991,None,,,,,,,,,,,,,,,,,,,,,,,,,,,,,,,,,,,,,,,,,,,,001,112,2020_Feb_11_1447,spring_faces,3.1.5,60.11775541366396,
condition files/Stage1_2.xlsx,,B3,T4,m,"['c', 'm']","['Clue', 'Monopoly']","[-0.15, 0.5]","[0.15, 0.5]",1,1,,,,,,,,,0,7,7,7,0,5,5,6,,,,,,,,,,,,,,,,,,,,,,,,,,,,,,,,,,,,,,,,,,,,,,,,,,,,,,,703.778023928,None,703.778023928,None,703.778023928,None,m,1,0.7196248599975661,705.3143039930001,None,705.3143039930001,None,705.3143039930001,None,706.09514175,None,706.09514175,None,706.09514175,None,706.09514175,None,,,,,,,,,,,,,,,,,,,,,,,,,,,,,,,,,,,,,,,,,,,,001,112,2020_Feb_11_1447,spring_faces,3.1.5,60.11775541366396,
condition files/Stage1_2.xlsx,,T1,B2,m,"['c', 'm']","['Clue', 'Monopoly']","[-0.15, 0.5]","[0.15, 0.5]",1,1,,,,,,,,,0,7,7,7,0,6,6,2,,,,,,,,,,,,,,,,,,,,,,,,,,,,,,,,,,,,,,,,,,,,,,,,,,,,,,,708.0615217949999,None,708.0615217949999,None,708.0615217949999,None,c,0,1.1096366240017232,709.596337070001,None,709.596337070001,None,709.596337070001,None,710.7620749519992,None,710.7620749519992,None,710.7620749519992,None,710.7620749519992,None,,,,,,,,,,,,,,,,,,,,,,,,,,,,,,,,,,,,,,,,,,,,001,112,2020_Feb_11_1447,spring_faces,3.1.5,60.11775541366396,
condition files/Stage1_2.xlsx,,B1,T1,c,"['c', 'm']","['Clue', 'Monopoly']","[-0.15, 0.5]","[0.15, 0.5]",1,1,,,,,,,,,0,7,7,7,0,7,7,0,,,,,,,,,,,,,,,,,,,,,,,,,,,,,,,,,,,,,,,,,,,,,,,,,,,,,,,712.7286979739984,None,712.7286979739984,None,712.7286979739984,None,m,0,0.7775491310021607,714.2644680119993,None,714.2644680119993,None,714.2644680119993,None,715.0958828100011,None,715.0958828100011,None,715.0958828100011,None,715.0958828100011,None,,,,,,,,,,,,,,,,,,,,,,,,,,,,,,,,,,,,,,,,,,,,001,112,2020_Feb_11_1447,spring_faces,3.1.5,60.11775541366396,
condition files/Stage1_1.xlsx,,B4,T4,m,"['c', 'm']","['Clue', 'Monopoly']","[-0.15, 0.5]","[0.15, 0.5]",1,1,,,,,,,,,0,8,8,8,0,0,0,7,,,,,,,,,,,,,,,,,,,,,,,,,,,,,,,,,,,,,,,,,,,,,,,,,,,,,,,717.0784261699991,None,717.0784261699991,None,717.0784261699991,None,m,1,0.6691972769986023,718.6287080729999,None,718.6287080729999,None,718.6287080729999,None,719.3648222529991,None,719.3648222529991,None,719.3648222529991,None,719.3648222529991,None,,,,,,,,,,,,,,,,,,,,,,,,,,,,,,,,,,,,,,,,,,,,001,112,2020_Feb_11_1447,spring_faces,3.1.5,60.11775541366396,
condition files/Stage1_1.xlsx,,T3,B4,c,"['c', 'm']","['Clue', 'Monopoly']","[-0.15, 0.5]","[0.15, 0.5]",1,1,,,,,,,,,0,8,8,8,0,1,1,5,,,,,,,,,,,,,,,,,,,,,,,,,,,,,,,,,,,,,,,,,,,,,,,,,,,,,,,721.3282280880012,None,721.3282280880012,None,721.3282280880012,None,c,1,1.2190409270006057,722.8788547330005,None,722.8788547330005,None,722.8788547330005,None,724.1789098219997,None,724.1789098219997,None,724.1789098219997,None,724.1789098219997,None,,,,,,,,,,,,,,,,,,,,,,,,,,,,,,,,,,,,,,,,,,,,001,112,2020_Feb_11_1447,spring_faces,3.1.5,60.11775541366396,
condition files/Stage1_1.xlsx,,B1,T2,c,"['c', 'm']","['Clue', 'Monopoly']","[-0.15, 0.5]","[0.15, 0.5]",1,1,,,,,,,,,0,8,8,8,0,2,2,1,,,,,,,,,,,,,,,,,,,,,,,,,,,,,,,,,,,,,,,,,,,,,,,,,,,,,,,726.1279163629988,None,726.1279163629988,None,726.1279163629988,None,m,0,1.283424016997742,727.6784703740013,None,727.6784703740013,None,727.6784703740013,None,729.0120580330004,None,729.0120580330004,None,729.0120580330004,None,729.0120580330004,None,,,,,,,,,,,,,,,,,,,,,,,,,,,,,,,,,,,,,,,,,,,,001,112,2020_Feb_11_1447,spring_faces,3.1.5,60.11775541366396,
condition files/Stage1_1.xlsx,,T2,B2,m,"['c', 'm']","['Clue', 'Monopoly']","[-0.15, 0.5]","[0.15, 0.5]",1,1,,,,,,,,,0,8,8,8,0,3,3,3,,,,,,,,,,,,,,,,,,,,,,,,,,,,,,,,,,,,,,,,,,,,,,,,,,,,,,,730.9788278580018,None,730.9788278580018,None,730.9788278580018,None,m,1,1.2648828990022594,732.5290078920007,None,732.5290078920007,None,732.5290078920007,None,733.8475612350012,None,733.8475612350012,None,733.8475612350012,None,733.8475612350012,None,,,,,,,,,,,,,,,,,,,,,,,,,,,,,,,,,,,,,,,,,,,,001,112,2020_Feb_11_1447,spring_faces,3.1.5,60.11775541366396,
condition files/Stage1_1.xlsx,,T1,B1,c,"['c', 'm']","['Clue', 'Monopoly']","[-0.15, 0.5]","[0.15, 0.5]",1,1,,,,,,,,,0,8,8,8,0,4,4,0,,,,,,,,,,,,,,,,,,,,,,,,,,,,,,,,,,,,,,,,,,,,,,,,,,,,,,,735.8120497870004,None,735.8120497870004,None,735.8120497870004,None,c,1,3.375872315999004,737.3460057240009,None,737.3460057240009,None,737.3460057240009,None,740.7958529630014,None,740.7958529630014,None,740.7958529630014,None,740.7958529630014,None,,,,,,,,,,,,,,,,,,,,,,,,,,,,,,,,,,,,,,,,,,,,001,112,2020_Feb_11_1447,spring_faces,3.1.5,60.11775541366396,
condition files/Stage1_1.xlsx,,B2,T1,m,"['c', 'm']","['Clue', 'Monopoly']","[-0.15, 0.5]","[0.15, 0.5]",1,1,,,,,,,,,0,8,8,8,0,5,5,2,,,,,,,,,,,,,,,,,,,,,,,,,,,,,,,,,,,,,,,,,,,,,,,,,,,,,,,742.7447194209999,None,742.7447194209999,None,742.7447194209999,None,m,1,1.8184224659999018,744.295469861001,None,744.295469861001,None,744.295469861001,None,746.1788603759996,None,746.1788603759996,None,746.1788603759996,None,746.1788603759996,None,,,,,,,,,,,,,,,,,,,,,,,,,,,,,,,,,,,,,,,,,,,,001,112,2020_Feb_11_1447,spring_faces,3.1.5,60.11775541366396,
condition files/Stage1_1.xlsx,,T4,B3,m,"['c', 'm']","['Clue', 'Monopoly']","[-0.15, 0.5]","[0.15, 0.5]",1,1,,,,,,,,,0,8,8,8,0,6,6,6,,,,,,,,,,,,,,,,,,,,,,,,,,,,,,,,,,,,,,,,,,,,,,,,,,,,,,,748.1453372059987,None,748.1453372059987,None,748.1453372059987,None,m,1,0.850261955998576,749.6955842040006,None,749.6955842040006,None,749.6955842040006,None,750.6122932440012,None,750.6122932440012,None,750.6122932440012,None,750.6122932440012,None,,,,,,,,,,,,,,,,,,,,,,,,,,,,,,,,,,,,,,,,,,,,001,112,2020_Feb_11_1447,spring_faces,3.1.5,60.11775541366396,
condition files/Stage1_1.xlsx,,B3,T3,c,"['c', 'm']","['Clue', 'Monopoly']","[-0.15, 0.5]","[0.15, 0.5]",1,1,,,,,,,,,0,8,8,8,0,7,7,4,,,,,,,,,,,,,,,,,,,,,,,,,,,,,,,,,,,,,,,,,,,,,,,,,,,,,,,752.5783866730017,None,752.5783866730017,None,752.5783866730017,None,c,1,1.3450359999987995,754.1288665499997,None,754.1288665499997,None,754.1288665499997,None,755.545357310999,None,755.545357310999,None,755.545357310999,None,755.545357310999,None,,,,,,,,,,,,,,,,,,,,,,,,,,,,,,,,,,,,,,,,,,,,001,112,2020_Feb_11_1447,spring_faces,3.1.5,60.11775541366396,
condition files/Stage1_2.xlsx,,B3,T4,m,"['c', 'm']","['Clue', 'Monopoly']","[-0.15, 0.5]","[0.15, 0.5]",1,1,,,,,,,,,0,9,9,9,0,0,0,6,,,,,,,,,,,,,,,,,,,,,,,,,,,,,,,,,,,,,,,,,,,,,,,,,,,,,,,757.5120963670015,None,757.5120963670015,None,757.5120963670015,None,m,1,2.5560338890027197,759.0618714369994,None,759.0618714369994,None,759.0618714369994,None,761.6953711819988,None,761.6953711819988,None,761.6953711819988,None,761.6953711819988,None,,,,,,,,,,,,,,,,,,,,,,,,,,,,,,,,,,,,,,,,,,,,001,112,2020_Feb_11_1447,spring_faces,3.1.5,60.11775541366396,
condition files/Stage1_2.xlsx,,B4,T3,c,"['c', 'm']","['Clue', 'Monopoly']","[-0.15, 0.5]","[0.15, 0.5]",1,1,,,,,,,,,0,9,9,9,0,1,1,5,,,,,,,,,,,,,,,,,,,,,,,,,,,,,,,,,,,,,,,,,,,,,,,,,,,,,,,763.6451650089984,None,763.6451650089984,None,763.6451650089984,None,c,1,1.6548579710033664,765.195042383999,None,765.195042383999,None,765.195042383999,None,766.9287629770006,None,766.9287629770006,None,766.9287629770006,None,766.9287629770006,None,,,,,,,,,,,,,,,,,,,,,,,,,,,,,,,,,,,,,,,,,,,,001,112,2020_Feb_11_1447,spring_faces,3.1.5,60.11775541366396,
condition files/Stage1_2.xlsx,,B1,T1,c,"['c', 'm']","['Clue', 'Monopoly']","[-0.15, 0.5]","[0.15, 0.5]",1,1,,,,,,,,,0,9,9,9,0,2,2,0,,,,,,,,,,,,,,,,,,,,,,,,,,,,,,,,,,,,,,,,,,,,,,,,,,,,,,,768.8786887610004,None,768.8786887610004,None,768.8786887610004,None,c,1,2.6775033090016223,770.4284591869982,None,770.4284591869982,None,770.4284591869982,None,773.1619243589994,None,773.1619243589994,None,773.1619243589994,None,773.1619243589994,None,,,,,,,,,,,,,,,,,,,,,,,,,,,,,,,,,,,,,,,,,,,,001,112,2020_Feb_11_1447,spring_faces,3.1.5,60.11775541366396,
condition files/Stage1_2.xlsx,,B2,T2,m,"['c', 'm']","['Clue', 'Monopoly']","[-0.15, 0.5]","[0.15, 0.5]",1,1,,,,,,,,,0,9,9,9,0,3,3,3,,,,,,,,,,,,,,,,,,,,,,,,,,,,,,,,,,,,,,,,,,,,,,,,,,,,,,,775.1282962049991,None,775.1282962049991,None,775.1282962049991,None,m,1,3.5151824620006664,776.6627084559987,None,776.6627084559987,None,776.6627084559987,None,780.2451839339992,None,780.2451839339992,None,780.2451839339992,None,780.2451839339992,None,,,,,,,,,,,,,,,,,,,,,,,,,,,,,,,,,,,,,,,,,,,,001,112,2020_Feb_11_1447,spring_faces,3.1.5,60.11775541366396,
condition files/Stage1_2.xlsx,,T2,B1,c,"['c', 'm']","['Clue', 'Monopoly']","[-0.15, 0.5]","[0.15, 0.5]",1,1,,,,,,,,,0,9,9,9,0,4,4,1,,,,,,,,,,,,,,,,,,,,,,,,,,,,,,,,,,,,,,,,,,,,,,,,,,,,,,,782.1952451819998,None,782.1952451819998,None,782.1952451819998,None,m,0,1.9997062319998804,783.7301404479986,None,783.7301404479986,None,783.7301404479986,None,785.8119602400002,None,785.8119602400002,None,785.8119602400002,None,785.8119602400002,None,,,,,,,,,,,,,,,,,,,,,,,,,,,,,,,,,,,,,,,,,,,,001,112,2020_Feb_11_1447,spring_faces,3.1.5,60.11775541366396,
condition files/Stage1_2.xlsx,,T4,B4,m,"['c', 'm']","['Clue', 'Monopoly']","[-0.15, 0.5]","[0.15, 0.5]",1,1,,,,,,,,,0,9,9,9,0,5,5,7,,,,,,,,,,,,,,,,,,,,,,,,,,,,,,,,,,,,,,,,,,,,,,,,,,,,,,,787.7620504480001,None,787.7620504480001,None,787.7620504480001,None,m,1,1.6014567480015103,789.2964560809996,None,789.2964560809996,None,789.2964560809996,None,790.9788085129985,None,790.9788085129985,None,790.9788085129985,None,790.9788085129985,None,,,,,,,,,,,,,,,,,,,,,,,,,,,,,,,,,,,,,,,,,,,,001,112,2020_Feb_11_1447,spring_faces,3.1.5,60.11775541366396,
condition files/Stage1_2.xlsx,,T3,B3,c,"['c', 'm']","['Clue', 'Monopoly']","[-0.15, 0.5]","[0.15, 0.5]",1,1,,,,,,,,,0,9,9,9,0,6,6,4,,,,,,,,,,,,,,,,,,,,,,,,,,,,,,,,,,,,,,,,,,,,,,,,,,,,,,,792.9282197559987,None,792.9282197559987,None,792.9282197559987,None,c,1,8.611255387997517,794.4785978729997,None,794.4785978729997,None,794.4785978729997,None,803.1479899289989,None,803.1479899289989,None,803.1479899289989,None,803.1479899289989,None,,,,,,,,,,,,,,,,,,,,,,,,,,,,,,,,,,,,,,,,,,,,001,112,2020_Feb_11_1447,spring_faces,3.1.5,60.11775541366396,
condition files/Stage1_2.xlsx,,T1,B2,m,"['c', 'm']","['Clue', 'Monopoly']","[-0.15, 0.5]","[0.15, 0.5]",1,1,,,,,,,,,0,9,9,9,0,7,7,2,,,,,,,,,,,,,,,,,,,,,,,,,,,,,,,,,,,,,,,,,,,,,,,,,,,,,,,805.1114451409994,None,805.1114451409994,None,805.1114451409994,None,m,1,1.514750358001038,806.6471643309997,None,806.6471643309997,None,806.6471643309997,None,808.2289349800012,None,808.2289349800012,None,808.2289349800012,None,808.2289349800012,None,,,,,,,,,,,,,,,,,,,,,,,,,,,,,,,,,,,,,,,,,,,,001,112,2020_Feb_11_1447,spring_faces,3.1.5,60.11775541366396,
condition files/Stage1_1.xlsx,,B2,T1,m,"['c', 'm']","['Clue', 'Monopoly']","[-0.15, 0.5]","[0.15, 0.5]",1,1,,,,,,,,,0,10,10,10,0,0,0,2,,,,,,,,,,,,,,,,,,,,,,,,,,,,,,,,,,,,,,,,,,,,,,,,,,,,,,,810.1951680179991,None,810.1951680179991,None,810.1951680179991,None,m,1,1.8399613020010293,811.7300226369989,None,811.7300226369989,None,811.7300226369989,None,813.6281854359986,None,813.6281854359986,None,813.6281854359986,None,813.6281854359986,None,,,,,,,,,,,,,,,,,,,,,,,,,,,,,,,,,,,,,,,,,,,,001,112,2020_Feb_11_1447,spring_faces,3.1.5,60.11775541366396,
condition files/Stage1_1.xlsx,,T4,B3,m,"['c', 'm']","['Clue', 'Monopoly']","[-0.15, 0.5]","[0.15, 0.5]",1,1,,,,,,,,,0,10,10,10,0,1,1,6,,,,,,,,,,,,,,,,,,,,,,,,,,,,,,,,,,,,,,,,,,,,,,,,,,,,,,,815.5952160310007,None,815.5952160310007,None,815.5952160310007,None,m,1,1.3188301119989774,817.1310663730001,None,817.1310663730001,None,817.1310663730001,None,818.5117909309993,None,818.5117909309993,None,818.5117909309993,None,818.5117909309993,None,,,,,,,,,,,,,,,,,,,,,,,,,,,,,,,,,,,,,,,,,,,,001,112,2020_Feb_11_1447,spring_faces,3.1.5,60.11775541366396,
condition files/Stage1_1.xlsx,,B4,T4,m,"['c', 'm']","['Clue', 'Monopoly']","[-0.15, 0.5]","[0.15, 0.5]",1,1,,,,,,,,,0,10,10,10,0,2,2,7,,,,,,,,,,,,,,,,,,,,,,,,,,,,,,,,,,,,,,,,,,,,,,,,,,,,,,,820.4784767009987,None,820.4784767009987,None,820.4784767009987,None,m,1,1.7964839000014763,822.0134206930015,None,822.0134206930015,None,822.0134206930015,None,823.8621679460011,None,823.8621679460011,None,823.8621679460011,None,823.8621679460011,None,,,,,,,,,,,,,,,,,,,,,,,,,,,,,,,,,,,,,,,,,,,,001,112,2020_Feb_11_1447,spring_faces,3.1.5,60.11775541366396,
condition files/Stage1_1.xlsx,,B1,T2,c,"['c', 'm']","['Clue', 'Monopoly']","[-0.15, 0.5]","[0.15, 0.5]",1,1,,,,,,,,,0,10,10,10,0,3,3,1,,,,,,,,,,,,,,,,,,,,,,,,,,,,,,,,,,,,,,,,,,,,,,,,,,,,,,,825.8286521289992,None,825.8286521289992,None,825.8286521289992,None,c,1,2.4321997630031547,827.3617182579983,None,827.3617182579983,None,827.3617182579983,None,829.8613829479982,None,829.8613829479982,None,829.8613829479982,None,829.8613829479982,None,,,,,,,,,,,,,,,,,,,,,,,,,,,,,,,,,,,,,,,,,,,,001,112,2020_Feb_11_1447,spring_faces,3.1.5,60.11775541366396,
condition files/Stage1_1.xlsx,,T3,B4,c,"['c', 'm']","['Clue', 'Monopoly']","[-0.15, 0.5]","[0.15, 0.5]",1,1,,,,,,,,,0,10,10,10,0,4,4,5,,,,,,,,,,,,,,,,,,,,,,,,,,,,,,,,,,,,,,,,,,,,,,,,,,,,,,,831.8113382830015,None,831.8113382830015,None,831.8113382830015,None,c,1,1.6484856059978483,833.3454274159994,None,833.3454274159994,None,833.3454274159994,None,835.0447571830009,None,835.0447571830009,None,835.0447571830009,None,835.0447571830009,None,,,,,,,,,,,,,,,,,,,,,,,,,,,,,,,,,,,,,,,,,,,,001,112,2020_Feb_11_1447,spring_faces,3.1.5,60.11775541366396,
condition files/Stage1_1.xlsx,,T2,B2,m,"['c', 'm']","['Clue', 'Monopoly']","[-0.15, 0.5]","[0.15, 0.5]",1,1,,,,,,,,,0,10,10,10,0,5,5,3,,,,,,,,,,,,,,,,,,,,,,,,,,,,,,,,,,,,,,,,,,,,,,,,,,,,,,,837.0119914770003,None,837.0119914770003,None,837.0119914770003,None,c,0,1.1688627829971665,838.5450583860002,None,838.5450583860002,None,838.5450583860002,None,839.7785131150013,None,839.7785131150013,None,839.7785131150013,None,839.7785131150013,None,,,,,,,,,,,,,,,,,,,,,,,,,,,,,,,,,,,,,,,,,,,,001,112,2020_Feb_11_1447,spring_faces,3.1.5,60.11775541366396,
condition files/Stage1_1.xlsx,,B3,T3,c,"['c', 'm']","['Clue', 'Monopoly']","[-0.15, 0.5]","[0.15, 0.5]",1,1,,,,,,,,,0,10,10,10,0,6,6,4,,,,,,,,,,,,,,,,,,,,,,,,,,,,,,,,,,,,,,,,,,,,,,,,,,,,,,,841.7447001159999,None,841.7447001159999,None,841.7447001159999,None,c,1,2.2911172050007735,843.294854265001,None,843.294854265001,None,843.294854265001,None,845.6451297530002,None,845.6451297530002,None,845.6451297530002,None,845.6451297530002,None,,,,,,,,,,,,,,,,,,,,,,,,,,,,,,,,,,,,,,,,,,,,001,112,2020_Feb_11_1447,spring_faces,3.1.5,60.11775541366396,
condition files/Stage1_1.xlsx,,T1,B1,c,"['c', 'm']","['Clue', 'Monopoly']","[-0.15, 0.5]","[0.15, 0.5]",1,1,,,,,,,,,0,10,10,10,0,7,7,0,,,,,,,,,,,,,,,,,,,,,,,,,,,,,,,,,,,,,,,,,,,,,,,,,,,,,,,847.6114198739997,None,847.6114198739997,None,847.6114198739997,None,m,0,2.4556635840017407,849.1463232640017,None,849.1463232640017,None,849.1463232640017,None,851.661735474001,None,851.661735474001,None,851.661735474001,None,851.661735474001,None,,,,,,,,,,,,,,,,,,,,,,,,,,,,,,,,,,,,,,,,,,,,001,112,2020_Feb_11_1447,spring_faces,3.1.5,60.11775541366396,
condition files/Stage1_2.xlsx,,B1,T1,c,"['c', 'm']","['Clue', 'Monopoly']","[-0.15, 0.5]","[0.15, 0.5]",1,1,,,,,,,,,0,11,11,11,0,0,0,0,,,,,,,,,,,,,,,,,,,,,,,,,,,,,,,,,,,,,,,,,,,,,,,,,,,,,,,853.6456089710009,None,853.6456089710009,None,853.6456089710009,None,m,0,1.7669544250020408,855.1949517909998,None,855.1949517909998,None,855.1949517909998,None,857.0119616240008,None,857.0119616240008,None,857.0119616240008,None,857.0119616240008,None,,,,,,,,,,,,,,,,,,,,,,,,,,,,,,,,,,,,,,,,,,,,001,112,2020_Feb_11_1447,spring_faces,3.1.5,60.11775541366396,
condition files/Stage1_2.xlsx,,T3,B3,c,"['c', 'm']","['Clue', 'Monopoly']","[-0.15, 0.5]","[0.15, 0.5]",1,1,,,,,,,,,0,11,11,11,0,1,1,4,,,,,,,,,,,,,,,,,,,,,,,,,,,,,,,,,,,,,,,,,,,,,,,,,,,,,,,858.9786411530004,None,858.9786411530004,None,858.9786411530004,None,c,1,1.0884671259991592,860.5135259820017,None,860.5135259820017,None,860.5135259820017,None,861.6617390540014,None,861.6617390540014,None,861.6617390540014,None,861.6617390540014,None,,,,,,,,,,,,,,,,,,,,,,,,,,,,,,,,,,,,,,,,,,,,001,112,2020_Feb_11_1447,spring_faces,3.1.5,60.11775541366396,
condition files/Stage1_2.xlsx,,B3,T4,m,"['c', 'm']","['Clue', 'Monopoly']","[-0.15, 0.5]","[0.15, 0.5]",1,1,,,,,,,,,0,11,11,11,0,2,2,6,,,,,,,,,,,,,,,,,,,,,,,,,,,,,,,,,,,,,,,,,,,,,,,,,,,,,,,863.6285692749989,None,863.6285692749989,None,863.6285692749989,None,m,1,1.429730751999159,865.164183601999,None,865.164183601999,None,865.164183601999,None,866.6619754089988,None,866.6619754089988,None,866.6619754089988,None,866.6619754089988,None,,,,,,,,,,,,,,,,,,,,,,,,,,,,,,,,,,,,,,,,,,,,001,112,2020_Feb_11_1447,spring_faces,3.1.5,60.11775541366396,
condition files/Stage1_2.xlsx,,B4,T3,c,"['c', 'm']","['Clue', 'Monopoly']","[-0.15, 0.5]","[0.15, 0.5]",1,1,,,,,,,,,0,11,11,11,0,3,3,5,,,,,,,,,,,,,,,,,,,,,,,,,,,,,,,,,,,,,,,,,,,,,,,,,,,,,,,868.6121178479989,None,868.6121178479989,None,868.6121178479989,None,c,1,1.3599346740011242,870.1619636670002,None,870.1619636670002,None,870.1619636670002,None,871.5812436660017,None,871.5812436660017,None,871.5812436660017,None,871.5812436660017,None,,,,,,,,,,,,,,,,,,,,,,,,,,,,,,,,,,,,,,,,,,,,001,112,2020_Feb_11_1447,spring_faces,3.1.5,60.11775541366396,
condition files/Stage1_2.xlsx,,T1,B2,m,"['c', 'm']","['Clue', 'Monopoly']","[-0.15, 0.5]","[0.15, 0.5]",1,1,,,,,,,,,0,11,11,11,0,4,4,2,,,,,,,,,,,,,,,,,,,,,,,,,,,,,,,,,,,,,,,,,,,,,,,,,,,,,,,873.5446550579982,None,873.5446550579982,None,873.5446550579982,None,m,1,1.114890936001757,875.095003778999,None,875.095003778999,None,875.095003778999,None,876.2648452299982,None,876.2648452299982,None,876.2648452299982,None,876.2648452299982,None,,,,,,,,,,,,,,,,,,,,,,,,,,,,,,,,,,,,,,,,,,,,001,112,2020_Feb_11_1447,spring_faces,3.1.5,60.11775541366396,
condition files/Stage1_2.xlsx,,T2,B1,c,"['c', 'm']","['Clue', 'Monopoly']","[-0.15, 0.5]","[0.15, 0.5]",1,1,,,,,,,,,0,11,11,11,0,5,5,1,,,,,,,,,,,,,,,,,,,,,,,,,,,,,,,,,,,,,,,,,,,,,,,,,,,,,,,878.2280236369988,None,878.2280236369988,None,878.2280236369988,None,c,1,0.575725959999545,879.7622573789995,None,879.7622573789995,None,879.7622573789995,None,880.3957259189992,None,880.3957259189992,None,880.3957259189992,None,880.3957259189992,None,,,,,,,,,,,,,,,,,,,,,,,,,,,,,,,,,,,,,,,,,,,,001,112,2020_Feb_11_1447,spring_faces,3.1.5,60.11775541366396,
condition files/Stage1_2.xlsx,,B2,T2,m,"['c', 'm']","['Clue', 'Monopoly']","[-0.15, 0.5]","[0.15, 0.5]",1,1,,,,,,,,,0,11,11,11,0,6,6,3,,,,,,,,,,,,,,,,,,,,,,,,,,,,,,,,,,,,,,,,,,,,,,,,,,,,,,,882.3620484860003,None,882.3620484860003,None,882.3620484860003,None,c,0,3.657999008002662,883.9119653249982,None,883.9119653249982,None,883.9119653249982,None,887.6454164210008,None,887.6454164210008,None,887.6454164210008,None,887.6454164210008,None,,,,,,,,,,,,,,,,,,,,,,,,,,,,,,,,,,,,,,,,,,,,001,112,2020_Feb_11_1447,spring_faces,3.1.5,60.11775541366396,
condition files/Stage1_2.xlsx,,T4,B4,m,"['c', 'm']","['Clue', 'Monopoly']","[-0.15, 0.5]","[0.15, 0.5]",1,1,,,,,,,,,0,11,11,11,0,7,7,7,,,,,,,,,,,,,,,,,,,,,,,,,,,,,,,,,,,,,,,,,,,,,,,,,,,,,,,889.5945847160001,None,889.5945847160001,None,889.5945847160001,None,m,1,0.9025595849998354,891.1313432040006,None,891.1313432040006,None,891.1313432040006,None,892.0956761279995,None,892.0956761279995,None,892.0956761279995,None,892.0956761279995,None,,,,,,,,,,,,,,,,,,,,,,,,,,,,,,,,,,,,,,,,,,,,001,112,2020_Feb_11_1447,spring_faces,3.1.5,60.11775541366396,
,,,,,,,,,,,,,,,,,,,,,,,,,,,,,,,,,,,,,,,,,,,,,,,,,,,,,,,,,,,,,,,,,,,,,,,,,,,,,,,,,,,,,,,,,,,,,,,,,,,,,,,,,,,,,,,,894.0787309459993,None,space,11.691364237001835,899.0786074800017,None,,,,,,,,,,,,,,,,,,,,,,,,,,,,,,001,112,2020_Feb_11_1447,spring_faces,3.1.5,60.11775541366396,
condition files/Stage2_1.xlsx,,T1,B1,s,"['s', 'r']","['Stratego', 'Risk']","[-0.15, 0.5]","[0.15, 0.5]",1,1,,,,,,,,,,,,,,,,,0,0,0,0,0,0,0,2,,,,,,,,,,,,,,,,,,,,,,,,,,,,,,,,,,,,,,,,,,,,,,,910.8286461559983,None,910.8286461559983,None,910.8286461559983,None,s,1,2.471897507999529,912.3620127540016,None,912.3620127540016,None,912.3620127540016,None,914.9123047950015,None,914.9123047950015,None,914.9123047950015,None,914.9123047950015,None,,,,,,,,,,,,,,,899.0786074800017,None,,,,,,,,,,,,,,,,,,,,,,,,,,,,001,112,2020_Feb_11_1447,spring_faces,3.1.5,60.11775541366396,
condition files/Stage2_1.xlsx,,B4,T4,r,"['s', 'r']","['Stratego', 'Risk']","[-0.15, 0.5]","[0.15, 0.5]",1,1,,,,,,,,,,,,,,,,,0,0,0,0,0,1,1,5,,,,,,,,,,,,,,,,,,,,,,,,,,,,,,,,,,,,,,,,,,,,,,,916.8619312830015,None,916.8619312830015,None,916.8619312830015,None,r,1,0.7090106229989033,918.4128770120005,None,918.4128770120005,None,918.4128770120005,None,919.1955178950011,None,919.1955178950011,None,919.1955178950011,None,919.1955178950011,None,,,,,,,,,,,,,,,,,,,,,,,,,,,,,,,,,,,,,,,,,,,,001,112,2020_Feb_11_1447,spring_faces,3.1.5,60.11775541366396,
condition files/Stage2_1.xlsx,,T5,B5,s,"['s', 'r']","['Stratego', 'Risk']","[-0.15, 0.5]","[0.15, 0.5]",1,1,,,,,,,,,,,,,,,,,0,0,0,0,0,2,2,0,,,,,,,,,,,,,,,,,,,,,,,,,,,,,,,,,,,,,,,,,,,,,,,921.1451517560017,None,921.1451517560017,None,921.1451517560017,None,s,1,1.6576014429992938,922.6803746299993,None,922.6803746299993,None,922.6803746299993,None,924.395841182999,None,924.395841182999,None,924.395841182999,None,924.395841182999,None,,,,,,,,,,,,,,,,,,,,,,,,,,,,,,,,,,,,,,,,,,,,001,112,2020_Feb_11_1447,spring_faces,3.1.5,60.11775541366396,
condition files/Stage2_1.xlsx,,B6,T6,r,"['s', 'r']","['Stratego', 'Risk']","[-0.15, 0.5]","[0.15, 0.5]",1,1,,,,,,,,,,,,,,,,,0,0,0,0,0,3,3,1,,,,,,,,,,,,,,,,,,,,,,,,,,,,,,,,,,,,,,,,,,,,,,,926.3613792180004,None,926.3613792180004,None,926.3613792180004,None,r,1,1.3846312710011262,927.9452391880004,None,927.9452391880004,None,927.9452391880004,None,929.4117325820007,None,929.4117325820007,None,929.4117325820007,None,929.4117325820007,None,,,,,,,,,,,,,,,,,,,,,,,,,,,,,,,,,,,,,,,,,,,,001,112,2020_Feb_11_1447,spring_faces,3.1.5,60.11775541366396,
condition files/Stage2_1.xlsx,,B2,T2,r,"['s', 'r']","['Stratego', 'Risk']","[-0.15, 0.5]","[0.15, 0.5]",1,1,,,,,,,,,,,,,,,,,0,0,0,0,0,4,4,3,,,,,,,,,,,,,,,,,,,,,,,,,,,,,,,,,,,,,,,,,,,,,,,931.3619666640006,None,931.3619666640006,None,931.3619666640006,None,r,1,3.7612435159971938,932.8966821719987,None,932.8966821719987,None,932.8966821719987,None,936.7118671669996,None,936.7118671669996,None,936.7118671669996,None,936.7118671669996,None,,,,,,,,,,,,,,,,,,,,,,,,,,,,,,,,,,,,,,,,,,,,001,112,2020_Feb_11_1447,spring_faces,3.1.5,60.11775541366396,
condition files/Stage2_1.xlsx,,T3,B3,s,"['s', 'r']","['Stratego', 'Risk']","[-0.15, 0.5]","[0.15, 0.5]",1,1,,,,,,,,,,,,,,,,,0,0,0,0,0,5,5,4,,,,,,,,,,,,,,,,,,,,,,,,,,,,,,,,,,,,,,,,,,,,,,,938.6780232669989,None,938.6780232669989,None,938.6780232669989,None,s,1,0.6994252350013994,940.2144283429989,None,940.2144283429989,None,940.2144283429989,None,940.9954060970013,None,940.9954060970013,None,940.9954060970013,None,940.9954060970013,None,,,,,,,,,,,,,,,,,,,,,,,,,,,,,,,,,,,,,,,,,,,,001,112,2020_Feb_11_1447,spring_faces,3.1.5,60.11775541366396,
condition files/Stage2_2.xlsx,,T4,B4,r,"['s', 'r']","['Stratego', 'Risk']","[-0.15, 0.5]","[0.15, 0.5]",1,1,,,,,,,,,,,,,,,,,0,1,1,1,0,0,0,5,,,,,,,,,,,,,,,,,,,,,,,,,,,,,,,,,,,,,,,,,,,,,,,942.9616829629995,None,942.9616829629995,None,942.9616829629995,None,s,0,0.7058673499996075,944.5121169039994,None,944.5121169039994,None,944.5121169039994,None,945.2803393559989,None,945.2803393559989,None,945.2803393559989,None,945.2803393559989,None,,,,,,,,,,,,,,,,,,,,,,,,,,,,,,,,,,,,,,,,,,,,001,112,2020_Feb_11_1447,spring_faces,3.1.5,60.11775541366396,
condition files/Stage2_2.xlsx,,B5,T5,s,"['s', 'r']","['Stratego', 'Risk']","[-0.15, 0.5]","[0.15, 0.5]",1,1,,,,,,,,,,,,,,,,,0,1,1,1,0,1,1,0,,,,,,,,,,,,,,,,,,,,,,,,,,,,,,,,,,,,,,,,,,,,,,,947.2452057219998,None,947.2452057219998,None,947.2452057219998,None,r,0,1.2849882360023912,948.7809309209988,None,948.7809309209988,None,948.7809309209988,None,950.1316182109986,None,950.1316182109986,None,950.1316182109986,None,950.1316182109986,None,,,,,,,,,,,,,,,,,,,,,,,,,,,,,,,,,,,,,,,,,,,,001,112,2020_Feb_11_1447,spring_faces,3.1.5,60.11775541366396,
condition files/Stage2_2.xlsx,,T6,B6,r,"['s', 'r']","['Stratego', 'Risk']","[-0.15, 0.5]","[0.15, 0.5]",1,1,,,,,,,,,,,,,,,,,0,1,1,1,0,2,2,1,,,,,,,,,,,,,,,,,,,,,,,,,,,,,,,,,,,,,,,,,,,,,,,952.0951764899983,None,952.0951764899983,None,952.0951764899983,None,s,0,0.8526526349996857,953.6452504490007,None,953.6452504490007,None,953.6452504490007,None,954.5785825899984,None,954.5785825899984,None,954.5785825899984,None,954.5785825899984,None,,,,,,,,,,,,,,,,,,,,,,,,,,,,,,,,,,,,,,,,,,,,001,112,2020_Feb_11_1447,spring_faces,3.1.5,60.11775541366396,
condition files/Stage2_2.xlsx,,B1,T1,s,"['s', 'r']","['Stratego', 'Risk']","[-0.15, 0.5]","[0.15, 0.5]",1,1,,,,,,,,,,,,,,,,,0,1,1,1,0,3,3,2,,,,,,,,,,,,,,,,,,,,,,,,,,,,,,,,,,,,,,,,,,,,,,,956.5285672680002,None,956.5285672680002,None,956.5285672680002,None,s,1,0.40359996799816145,958.062368543,None,958.062368543,None,958.062368543,None,958.5303783560012,None,958.5303783560012,None,958.5303783560012,None,958.5303783560012,None,,,,,,,,,,,,,,,,,,,,,,,,,,,,,,,,,,,,,,,,,,,,001,112,2020_Feb_11_1447,spring_faces,3.1.5,60.11775541366396,
condition files/Stage2_2.xlsx,,B3,T3,s,"['s', 'r']","['Stratego', 'Risk']","[-0.15, 0.5]","[0.15, 0.5]",1,1,,,,,,,,,,,,,,,,,0,1,1,1,0,4,4,4,,,,,,,,,,,,,,,,,,,,,,,,,,,,,,,,,,,,,,,,,,,,,,,960.4953064649999,None,960.4953064649999,None,960.4953064649999,None,r,0,0.4675276390007639,962.0303963119986,None,962.0303963119986,None,962.0303963119986,None,962.5620877449983,None,962.5620877449983,None,962.5620877449983,None,962.5620877449983,None,,,,,,,,,,,,,,,,,,,,,,,,,,,,,,,,,,,,,,,,,,,,001,112,2020_Feb_11_1447,spring_faces,3.1.5,60.11775541366396,
condition files/Stage2_2.xlsx,,T2,B2,r,"['s', 'r']","['Stratego', 'Risk']","[-0.15, 0.5]","[0.15, 0.5]",1,1,,,,,,,,,,,,,,,,,0,1,1,1,0,5,5,3,,,,,,,,,,,,,,,,,,,,,,,,,,,,,,,,,,,,,,,,,,,,,,,964.5287400609996,None,964.5287400609996,None,964.5287400609996,None,r,1,0.9791963249990658,966.0629005189985,None,966.0629005189985,None,966.0629005189985,None,967.1122460059996,None,967.1122460059996,None,967.1122460059996,None,967.1122460059996,None,,,,,,,,,,,,,,,,,,,,,,,,,,,,,,,,,,,,,,,,,,,,001,112,2020_Feb_11_1447,spring_faces,3.1.5,60.11775541366396,
condition files/Stage2_1.xlsx,,B2,T2,r,"['s', 'r']","['Stratego', 'Risk']","[-0.15, 0.5]","[0.15, 0.5]",1,1,,,,,,,,,,,,,,,,,0,2,2,2,0,0,0,3,,,,,,,,,,,,,,,,,,,,,,,,,,,,,,,,,,,,,,,,,,,,,,,969.0787959750014,None,969.0787959750014,None,969.0787959750014,None,r,1,0.797110445000726,970.6287902270014,None,970.6287902270014,None,970.6287902270014,None,971.478437400001,None,971.478437400001,None,971.478437400001,None,971.478437400001,None,,,,,,,,,,,,,,,,,,,,,,,,,,,,,,,,,,,,,,,,,,,,001,112,2020_Feb_11_1447,spring_faces,3.1.5,60.11775541366396,
condition files/Stage2_1.xlsx,,B4,T4,r,"['s', 'r']","['Stratego', 'Risk']","[-0.15, 0.5]","[0.15, 0.5]",1,1,,,,,,,,,,,,,,,,,0,2,2,2,0,1,1,5,,,,,,,,,,,,,,,,,,,,,,,,,,,,,,,,,,,,,,,,,,,,,,,973.4452439199995,None,973.4452439199995,None,973.4452439199995,None,r,1,0.7486209820017393,974.9812696830013,None,974.9812696830013,None,974.9812696830013,None,975.795317447999,None,975.795317447999,None,975.795317447999,None,975.795317447999,None,,,,,,,,,,,,,,,,,,,,,,,,,,,,,,,,,,,,,,,,,,,,001,112,2020_Feb_11_1447,spring_faces,3.1.5,60.11775541366396,
condition files/Stage2_1.xlsx,,T1,B1,s,"['s', 'r']","['Stratego', 'Risk']","[-0.15, 0.5]","[0.15, 0.5]",1,1,,,,,,,,,,,,,,,,,0,2,2,2,0,2,2,2,,,,,,,,,,,,,,,,,,,,,,,,,,,,,,,,,,,,,,,,,,,,,,,977.761893758001,None,977.761893758001,None,977.761893758001,None,r,0,1.2335304939988418,979.3123487369994,None,979.3123487369994,None,979.3123487369994,None,980.6117503999994,None,980.6117503999994,None,980.6117503999994,None,980.6117503999994,None,,,,,,,,,,,,,,,,,,,,,,,,,,,,,,,,,,,,,,,,,,,,001,112,2020_Feb_11_1447,spring_faces,3.1.5,60.11775541366396,
condition files/Stage2_1.xlsx,,T5,B5,s,"['s', 'r']","['Stratego', 'Risk']","[-0.15, 0.5]","[0.15, 0.5]",1,1,,,,,,,,,,,,,,,,,0,2,2,2,0,3,3,0,,,,,,,,,,,,,,,,,,,,,,,,,,,,,,,,,,,,,,,,,,,,,,,982.5784904870015,None,982.5784904870015,None,982.5784904870015,None,s,1,1.24984367900106,984.1120769160007,None,984.1120769160007,None,984.1120769160007,None,985.4128417959982,None,985.4128417959982,None,985.4128417959982,None,985.4128417959982,None,,,,,,,,,,,,,,,,,,,,,,,,,,,,,,,,,,,,,,,,,,,,001,112,2020_Feb_11_1447,spring_faces,3.1.5,60.11775541366396,
condition files/Stage2_1.xlsx,,T3,B3,s,"['s', 'r']","['Stratego', 'Risk']","[-0.15, 0.5]","[0.15, 0.5]",1,1,,,,,,,,,,,,,,,,,0,2,2,2,0,4,4,4,,,,,,,,,,,,,,,,,,,,,,,,,,,,,,,,,,,,,,,,,,,,,,,987.3785906759986,None,987.3785906759986,None,987.3785906759986,None,s,1,0.977388756997243,988.9285662479997,None,988.9285662479997,None,988.9285662479997,None,989.961732011001,None,989.961732011001,None,989.961732011001,None,989.961732011001,None,,,,,,,,,,,,,,,,,,,,,,,,,,,,,,,,,,,,,,,,,,,,001,112,2020_Feb_11_1447,spring_faces,3.1.5,60.11775541366396,
condition files/Stage2_1.xlsx,,B6,T6,r,"['s', 'r']","['Stratego', 'Risk']","[-0.15, 0.5]","[0.15, 0.5]",1,1,,,,,,,,,,,,,,,,,0,2,2,2,0,5,5,1,,,,,,,,,,,,,,,,,,,,,,,,,,,,,,,,,,,,,,,,,,,,,,,991.9286216569999,None,991.9286216569999,None,991.9286216569999,None,r,1,1.626829993998399,993.4630663829994,None,993.4630663829994,None,993.4630663829994,None,995.1614260710012,None,995.1614260710012,None,995.1614260710012,None,995.1614260710012,None,,,,,,,,,,,,,,,,,,,,,,,,,,,,,,,,,,,,,,,,,,,,001,112,2020_Feb_11_1447,spring_faces,3.1.5,60.11775541366396,
condition files/Stage2_2.xlsx,,B1,T1,s,"['s', 'r']","['Stratego', 'Risk']","[-0.15, 0.5]","[0.15, 0.5]",1,1,,,,,,,,,,,,,,,,,0,3,3,3,0,0,0,2,,,,,,,,,,,,,,,,,,,,,,,,,,,,,,,,,,,,,,,,,,,,,,,997.1286871140001,None,997.1286871140001,None,997.1286871140001,None,r,0,1.2589951459995063,998.6789759640014,None,998.6789759640014,None,998.6789759640014,None,999.9979881069994,None,999.9979881069994,None,999.9979881069994,None,999.9979881069994,None,,,,,,,,,,,,,,,,,,,,,,,,,,,,,,,,,,,,,,,,,,,,001,112,2020_Feb_11_1447,spring_faces,3.1.5,60.11775541366396,
condition files/Stage2_2.xlsx,,B3,T3,s,"['s', 'r']","['Stratego', 'Risk']","[-0.15, 0.5]","[0.15, 0.5]",1,1,,,,,,,,,,,,,,,,,0,3,3,3,0,1,1,4,,,,,,,,,,,,,,,,,,,,,,,,,,,,,,,,,,,,,,,,,,,,,,,1001.9619644339982,None,1001.9619644339982,None,1001.9619644339982,None,s,1,1.3059577139974863,1003.511963596,None,1003.511963596,None,1003.511963596,None,1004.8785579459982,None,1004.8785579459982,None,1004.8785579459982,None,1004.8785579459982,None,,,,,,,,,,,,,,,,,,,,,,,,,,,,,,,,,,,,,,,,,,,,001,112,2020_Feb_11_1447,spring_faces,3.1.5,60.11775541366396,
condition files/Stage2_2.xlsx,,B5,T5,s,"['s', 'r']","['Stratego', 'Risk']","[-0.15, 0.5]","[0.15, 0.5]",1,1,,,,,,,,,,,,,,,,,0,3,3,3,0,2,2,0,,,,,,,,,,,,,,,,,,,,,,,,,,,,,,,,,,,,,,,,,,,,,,,1006.8452610790009,None,1006.8452610790009,None,1006.8452610790009,None,s,1,5.126974299000722,1008.3948980720015,None,1008.3948980720015,None,1008.3948980720015,None,1013.5789277139993,None,1013.5789277139993,None,1013.5789277139993,None,1013.5789277139993,None,,,,,,,,,,,,,,,,,,,,,,,,,,,,,,,,,,,,,,,,,,,,001,112,2020_Feb_11_1447,spring_faces,3.1.5,60.11775541366396,
condition files/Stage2_2.xlsx,,T4,B4,r,"['s', 'r']","['Stratego', 'Risk']","[-0.15, 0.5]","[0.15, 0.5]",1,1,,,,,,,,,,,,,,,,,0,3,3,3,0,3,3,5,,,,,,,,,,,,,,,,,,,,,,,,,,,,,,,,,,,,,,,,,,,,,,,1015.5449520699985,None,1015.5449520699985,None,1015.5449520699985,None,r,1,1.7555215430002136,1017.0784065160005,None,1017.0784065160005,None,1017.0784065160005,None,1018.9120835120011,None,1018.9120835120011,None,1018.9120835120011,None,1018.9120835120011,None,,,,,,,,,,,,,,,,,,,,,,,,,,,,,,,,,,,,,,,,,,,,001,112,2020_Feb_11_1447,spring_faces,3.1.5,60.11775541366396,
condition files/Stage2_2.xlsx,,T6,B6,r,"['s', 'r']","['Stratego', 'Risk']","[-0.15, 0.5]","[0.15, 0.5]",1,1,,,,,,,,,,,,,,,,,0,3,3,3,0,4,4,1,,,,,,,,,,,,,,,,,,,,,,,,,,,,,,,,,,,,,,,,,,,,,,,1020.8618769159984,None,1020.8618769159984,None,1020.8618769159984,None,r,1,0.806505623000703,1022.4114680060011,None,1022.4114680060011,None,1022.4114680060011,None,1023.2781977109989,None,1023.2781977109989,None,1023.2781977109989,None,1023.2781977109989,None,,,,,,,,,,,,,,,,,,,,,,,,,,,,,,,,,,,,,,,,,,,,001,112,2020_Feb_11_1447,spring_faces,3.1.5,60.11775541366396,
condition files/Stage2_2.xlsx,,T2,B2,r,"['s', 'r']","['Stratego', 'Risk']","[-0.15, 0.5]","[0.15, 0.5]",1,1,,,,,,,,,,,,,,,,,0,3,3,3,0,5,5,3,,,,,,,,,,,,,,,,,,,,,,,,,,,,,,,,,,,,,,,,,,,,,,,1025.2452780589992,None,1025.2452780589992,None,1025.2452780589992,None,s,0,1.8944479460005823,1026.7954149270008,None,1026.7954149270008,None,1026.7954149270008,None,1028.7455373960001,None,1028.7455373960001,None,1028.7455373960001,None,1028.7455373960001,None,,,,,,,,,,,,,,,,,,,,,,,,,,,,,,,,,,,,,,,,,,,,001,112,2020_Feb_11_1447,spring_faces,3.1.5,60.11775541366396,
condition files/Stage2_1.xlsx,,B6,T6,r,"['s', 'r']","['Stratego', 'Risk']","[-0.15, 0.5]","[0.15, 0.5]",1,1,,,,,,,,,,,,,,,,,0,4,4,4,0,0,0,1,,,,,,,,,,,,,,,,,,,,,,,,,,,,,,,,,,,,,,,,,,,,,,,1030.7291285499996,None,1030.7291285499996,None,1030.7291285499996,None,s,0,1.323349964000954,1032.2786384249994,None,1032.2786384249994,None,1032.2786384249994,None,1033.661934582,None,1033.661934582,None,1033.661934582,None,1033.661934582,None,,,,,,,,,,,,,,,,,,,,,,,,,,,,,,,,,,,,,,,,,,,,001,112,2020_Feb_11_1447,spring_faces,3.1.5,60.11775541366396,
condition files/Stage2_1.xlsx,,T3,B3,s,"['s', 'r']","['Stratego', 'Risk']","[-0.15, 0.5]","[0.15, 0.5]",1,1,,,,,,,,,,,,,,,,,0,4,4,4,0,1,1,4,,,,,,,,,,,,,,,,,,,,,,,,,,,,,,,,,,,,,,,,,,,,,,,1035.6285310429994,None,1035.6285310429994,None,1035.6285310429994,None,s,1,0.951042717002565,1037.1788106890017,None,1037.1788106890017,None,1037.1788106890017,None,1038.2117687559985,None,1038.2117687559985,None,1038.2117687559985,None,1038.2117687559985,None,,,,,,,,,,,,,,,,,,,,,,,,,,,,,,,,,,,,,,,,,,,,001,112,2020_Feb_11_1447,spring_faces,3.1.5,60.11775541366396,
condition files/Stage2_1.xlsx,,B2,T2,r,"['s', 'r']","['Stratego', 'Risk']","[-0.15, 0.5]","[0.15, 0.5]",1,1,,,,,,,,,,,,,,,,,0,4,4,4,0,2,2,3,,,,,,,,,,,,,,,,,,,,,,,,,,,,,,,,,,,,,,,,,,,,,,,1040.1615779480016,None,1040.1615779480016,None,1040.1615779480016,None,r,1,1.0088895599983516,1041.6970947180016,None,1041.6970947180016,None,1041.6970947180016,None,1042.7781417389997,None,1042.7781417389997,None,1042.7781417389997,None,1042.7781417389997,None,,,,,,,,,,,,,,,,,,,,,,,,,,,,,,,,,,,,,,,,,,,,001,112,2020_Feb_11_1447,spring_faces,3.1.5,60.11775541366396,
