condsFile,subStage,cue1,cue2,correct,responseKeys,responseNames,cue1Position,cue2Position,cue1Opacity,cue2Opacity,stageLoop0.thisRepN,stageLoop0.thisTrialN,stageLoop0.thisN,stageLoop0.thisIndex,blockLoop0.thisRepN,blockLoop0.thisTrialN,blockLoop0.thisN,blockLoop0.thisIndex,stage1Loop.thisRepN,stage1Loop.thisTrialN,stage1Loop.thisN,stage1Loop.thisIndex,blockLoop1.thisRepN,blockLoop1.thisTrialN,blockLoop1.thisN,blockLoop1.thisIndex,stage2Loop.thisRepN,stage2Loop.thisTrialN,stage2Loop.thisN,stage2Loop.thisIndex,blockLoop2.thisRepN,blockLoop2.thisTrialN,blockLoop2.thisN,blockLoop2.thisIndex,testLoop.thisRepN,testLoop.thisTrialN,testLoop.thisN,testLoop.thisIndex,blockLoopTest.thisRepN,blockLoopTest.thisTrialN,blockLoopTest.thisN,blockLoopTest.thisIndex,cuePics,id_instr_text.started,id_instr_text.stopped,space_to_continue_2.started,space_to_continue_2.stopped,end_instructions_resp_3.keys,end_instructions_resp_3.rt,end_instructions_resp_3.started,end_instructions_resp_3.stopped,id_input_instr.started,id_input_instr.stopped,id_input_rect.started,id_input_rect.stopped,id_input_resp.keys,id_input_resp.rt,id_input_resp.started,id_input_resp.stopped,sonaID,id_input_text.started,id_input_text.stopped,final_text.started,final_text.stopped,instructions.started,instructions.stopped,end_instructions_resp.keys,end_instructions_resp.rt,end_instructions_resp.started,end_instructions_resp.stopped,space_to_continue.started,space_to_continue.stopped,instructions_stage0.started,instructions_stage0.stopped,end_instructions_resp_stage0.keys,end_instructions_resp_stage0.rt,end_instructions_resp_stage0.started,end_instructions_resp_stage0.stopped,space_to_continue_stage0.started,space_to_continue_stage0.stopped,text.started,text.stopped,resp_text1.started,resp_text1.stopped,resp_text2.started,resp_text2.stopped,trial_resp.keys,trial_resp.corr,trial_resp.rt,trial_resp.started,trial_resp.stopped,cue1Image.started,cue1Image.stopped,cue2Image.started,cue2Image.stopped,cue1Image_fb.started,cue1Image_fb.stopped,cue2Image_fb.started,cue2Image_fb.stopped,fb_text_answer.started,fb_text_answer.stopped,feedback_image.started,feedback_image.stopped,instructions_stage1.started,instructions_stage1.stopped,end_instructions_resp_stage1.keys,end_instructions_resp_stage1.rt,end_instructions_resp_stage1.started,end_instructions_resp_stage1.stopped,space_to_continue_stage1.started,space_to_continue_stage1.stopped,instructions_2.started,instructions_2.stopped,end_instructions_resp_2.keys,end_instructions_resp_2.rt,end_instructions_resp_2.started,end_instructions_resp_2.stopped,press_space_to_continue_stage2.started,press_space_to_continue_stage2.stopped,instructions_testStage1.started,instructions_testStage1.stopped,end_instructions_resp_test1.keys,end_instructions_resp_test1.rt,end_instructions_resp_test1.started,end_instructions_resp_test1.stopped,press_space_to_continue_test1.started,press_space_to_continue_test1.stopped,cue1Image_testChoice.started,cue1Image_testChoice.stopped,cue2Image_testChoice.started,cue2Image_testChoice.stopped,test_resp.keys,test_resp.corr,test_resp.rt,test_resp.started,test_resp.stopped,cue1Image_testConf.started,cue1Image_testConf.stopped,cue2Image_testConf.started,cue2Image_testConf.stopped,conf_reminder.started,conf_reminder.stopped,conf_rating.response,conf_rating.rt,conf_rating.started,conf_rating.stopped,session,participant,date,expName,psychopyVersion,frameRate,
,,,,,,,,,,,,,,,,,,,,,,,,,,,,,,,,,,,,,,,,,,,"{'none': 'pictures/20M_AN_C.png', 'alpha': 'pictures/SHINEd_pear.png', 'beta': 'pictures/SHINEd_pepper.png', 'theta': 'pictures/SHINEd_apple.png', 'phi': 'pictures/SHINEd_melon.png', 'T1': 'pictures/33M_AN_C.png', 'T2': 'pictures/32M_AN_C.png', 'T3': 'pictures/20M_AN_C.png', 'T4': 'pictures/26M_AN_C.png', 'T5': 'pictures/38M_AN_C.png', 'T6': 'pictures/23M_AN_C.png', 'B1': 'pictures/36M_NE_C.png', 'B2': 'pictures/25M_NE_C.png', 'B3': 'pictures/34M_NE_C.png', 'B4': 'pictures/22M_NE_C.png', 'B5': 'pictures/31M_NE_C.png', 'B6': 'pictures/37M_NE_C.png'}",21.97502225700009,None,26.958377119999568,None,space,35.29465457600054,26.958377119999568,None,,,,,,,,,,,,,,,,,,,,,,,,,,,,,,,,,,,,,,,,,,,,,,,,,,,,,,,,,,,,,,,,,,,,,,,,,,,,,,,,,,,,,,,,,,,,,,,,001,119,2020_Feb_13_1050,spring_faces,3.1.5,60.086437465052704,
,,,,,,,,,,,,,,,,,,,,,,,,,,,,,,,,,,,,,,,,,,,,,,,,,,,,62.691261303999454,None,62.691261303999454,None,"['0', '6', '1', '2', 'c', 'e', 'm', 'u', 'l']","[13.92974481500005, 14.8578324959999, 16.841849109000577, 17.817743802999757, 23.43378518100053, 23.929777379999905, 26.089784732000226, 26.473828913000034, 26.69777625000006]",62.691261303999454,None,,,,,,,,,,,,,,,,,,,,,,,,,,,,,,,,,,,,,,,,,,,,,,,,,,,,,,,,,,,,,,,,,,,,,,,,,,,,,,,,,,,,,,,,001,119,2020_Feb_13_1050,spring_faces,3.1.5,60.086437465052704,
,,,,,,,,,,,,,,,,,,,,,,,,,,,,,,,,,,,,,,,,,,,,,,,,,,,,,,,,,,,,0612cemul,62.691261303999454,None,62.691261303999454,None,94.45877230199949,None,space,4.842670363999787,99.45836723799948,None,,,,,,,,,,,,,,,,,,,,,,,,,,,,,,,,,,,,,,,,,,,,,,,,,,,,,,,,,,,,,,,,,,,,,,,,,,,,,001,119,2020_Feb_13_1050,spring_faces,3.1.5,60.086437465052704,
,,,,,,,,,,,,,,,,,,,,,,,,,,,,,,,,,,,,,,,,,,,,,,,,,,,,,,,,,,,,,,,,,,,,,,,99.45836723799948,None,104.34085855000012,None,space,4.927314713999294,109.34172484999999,None,,,,,,,,,,,,,,,,,,,,,,,,,,,,,,,,,,,,,,,,,,,,,,,,,,,,,,,,,,,,,,,,,,,,,001,119,2020_Feb_13_1050,spring_faces,3.1.5,60.086437465052704,
condition files/Stage0a.xlsx,0a,alpha,none,h,"['h', 'g']","['Chess', 'Go']","[0, 0.5]","[0, 0]",1,0,0,0,0,0,0,0,0,0,,,,,,,,,,,,,,,,,,,,,,,,,,,,,,,,,,,,,,,,,,,,,,,,,,,,,,,,,,,,,109.34172484999999,None,114.3245224379998,None,114.3245224379998,None,114.3245224379998,None,g,0,3.142290265000156,115.97481735699967,None,115.97481735699967,None,115.97481735699967,None,119.19182918299975,None,119.19182918299975,None,119.19182918299975,None,119.19182918299975,None,,,,,,,,,,,,,,,,,,,,,,,,,,,,,,,,,,,,,,,,,,,,001,119,2020_Feb_13_1050,spring_faces,3.1.5,60.086437465052704,
condition files/Stage0a.xlsx,0a,beta,none,g,"['h', 'g']","['Chess', 'Go']","[0, 0.5]","[0, 0]",1,0,0,0,0,0,0,1,1,1,,,,,,,,,,,,,,,,,,,,,,,,,,,,,,,,,,,,,,,,,,,,,,,,,,,,,,,,,,,,,,,121.14116028300032,None,121.14116028300032,None,121.14116028300032,None,h,0,2.056285078999281,122.67682176800008,None,122.67682176800008,None,122.67682176800008,None,124.79134645399972,None,124.79134645399972,None,124.79134645399972,None,124.79134645399972,None,,,,,,,,,,,,,,,,,,,,,,,,,,,,,,,,,,,,,,,,,,,,001,119,2020_Feb_13_1050,spring_faces,3.1.5,60.086437465052704,
condition files/Stage0a.xlsx,0a,alpha,none,h,"['h', 'g']","['Chess', 'Go']","[0, 0.5]","[0, 0]",1,0,0,1,1,1,0,0,0,0,,,,,,,,,,,,,,,,,,,,,,,,,,,,,,,,,,,,,,,,,,,,,,,,,,,,,,,,,,,,,,,126.77490508899973,None,126.77490508899973,None,126.77490508899973,None,g,0,1.7209591520004324,128.30808040400007,None,128.30808040400007,None,128.30808040400007,None,130.09182125200005,None,130.09182125200005,None,130.09182125200005,None,130.09182125200005,None,,,,,,,,,,,,,,,,,,,,,,,,,,,,,,,,,,,,,,,,,,,,001,119,2020_Feb_13_1050,spring_faces,3.1.5,60.086437465052704,
condition files/Stage0a.xlsx,0a,beta,none,g,"['h', 'g']","['Chess', 'Go']","[0, 0.5]","[0, 0]",1,0,0,1,1,1,0,1,1,1,,,,,,,,,,,,,,,,,,,,,,,,,,,,,,,,,,,,,,,,,,,,,,,,,,,,,,,,,,,,,,,132.05812917299954,None,132.05812917299954,None,132.05812917299954,None,h,0,1.0297629160004362,133.5912605329995,None,133.5912605329995,None,133.5912605329995,None,134.6750718379999,None,134.6750718379999,None,134.6750718379999,None,134.6750718379999,None,,,,,,,,,,,,,,,,,,,,,,,,,,,,,,,,,,,,,,,,,,,,001,119,2020_Feb_13_1050,spring_faces,3.1.5,60.086437465052704,
condition files/Stage0a.xlsx,0a,beta,none,g,"['h', 'g']","['Chess', 'Go']","[0, 0.5]","[0, 0]",1,0,0,2,2,2,0,0,0,1,,,,,,,,,,,,,,,,,,,,,,,,,,,,,,,,,,,,,,,,,,,,,,,,,,,,,,,,,,,,,,,136.65789198899984,None,136.65789198899984,None,136.65789198899984,None,g,1,1.2135045040004115,138.191665843,None,138.191665843,None,138.191665843,None,139.45853282499957,None,139.45853282499957,None,139.45853282499957,None,139.45853282499957,None,,,,,,,,,,,,,,,,,,,,,,,,,,,,,,,,,,,,,,,,,,,,001,119,2020_Feb_13_1050,spring_faces,3.1.5,60.086437465052704,
condition files/Stage0a.xlsx,0a,alpha,none,h,"['h', 'g']","['Chess', 'Go']","[0, 0.5]","[0, 0]",1,0,0,2,2,2,0,1,1,0,,,,,,,,,,,,,,,,,,,,,,,,,,,,,,,,,,,,,,,,,,,,,,,,,,,,,,,,,,,,,,,141.42505714300023,None,141.42505714300023,None,141.42505714300023,None,g,0,1.6145421960000021,142.9584828349998,None,142.9584828349998,None,142.9584828349998,None,144.62454518100003,None,144.62454518100003,None,144.62454518100003,None,144.62454518100003,None,,,,,,,,,,,,,,,,,,,,,,,,,,,,,,,,,,,,,,,,,,,,001,119,2020_Feb_13_1050,spring_faces,3.1.5,60.086437465052704,
condition files/Stage0a.xlsx,0a,beta,none,g,"['h', 'g']","['Chess', 'Go']","[0, 0.5]","[0, 0]",1,0,0,3,3,3,0,0,0,1,,,,,,,,,,,,,,,,,,,,,,,,,,,,,,,,,,,,,,,,,,,,,,,,,,,,,,,,,,,,,,,146.608560572,None,146.608560572,None,146.608560572,None,h,0,0.831997563999721,148.14103466699999,None,148.14103466699999,None,148.14103466699999,None,149.02436407200003,None,149.02436407200003,None,149.02436407200003,None,149.02436407200003,None,,,,,,,,,,,,,,,,,,,,,,,,,,,,,,,,,,,,,,,,,,,,001,119,2020_Feb_13_1050,spring_faces,3.1.5,60.086437465052704,
condition files/Stage0a.xlsx,0a,alpha,none,h,"['h', 'g']","['Chess', 'Go']","[0, 0.5]","[0, 0]",1,0,0,3,3,3,0,1,1,0,,,,,,,,,,,,,,,,,,,,,,,,,,,,,,,,,,,,,,,,,,,,,,,,,,,,,,,,,,,,,,,150.99126615800014,None,150.99126615800014,None,150.99126615800014,None,g,0,1.1520243069999196,152.52500125000006,None,152.52500125000006,None,152.52500125000006,None,153.7415736160001,None,153.7415736160001,None,153.7415736160001,None,153.7415736160001,None,,,,,,,,,,,,,,,,,,,,,,,,,,,,,,,,,,,,,,,,,,,,001,119,2020_Feb_13_1050,spring_faces,3.1.5,60.086437465052704,
condition files/Stage0a.xlsx,0a,beta,none,g,"['h', 'g']","['Chess', 'Go']","[0, 0.5]","[0, 0]",1,0,0,4,4,4,0,0,0,1,,,,,,,,,,,,,,,,,,,,,,,,,,,,,,,,,,,,,,,,,,,,,,,,,,,,,,,,,,,,,,,155.72442300300008,None,155.72442300300008,None,155.72442300300008,None,g,1,3.3144740179996006,157.25855193499956,None,157.25855193499956,None,157.25855193499956,None,160.6246804149996,None,160.6246804149996,None,160.6246804149996,None,160.6246804149996,None,,,,,,,,,,,,,,,,,,,,,,,,,,,,,,,,,,,,,,,,,,,,001,119,2020_Feb_13_1050,spring_faces,3.1.5,60.086437465052704,
condition files/Stage0a.xlsx,0a,alpha,none,h,"['h', 'g']","['Chess', 'Go']","[0, 0.5]","[0, 0]",1,0,0,4,4,4,0,1,1,0,,,,,,,,,,,,,,,,,,,,,,,,,,,,,,,,,,,,,,,,,,,,,,,,,,,,,,,,,,,,,,,162.5911173909999,None,162.5911173909999,None,162.5911173909999,None,h,1,1.391940964999776,164.12514491000002,None,164.12514491000002,None,164.12514491000002,None,165.5747019499995,None,165.5747019499995,None,165.5747019499995,None,165.5747019499995,None,,,,,,,,,,,,,,,,,,,,,,,,,,,,,,,,,,,,,,,,,,,,001,119,2020_Feb_13_1050,spring_faces,3.1.5,60.086437465052704,
condition files/Stage0a.xlsx,0a,alpha,none,h,"['h', 'g']","['Chess', 'Go']","[0, 0.5]","[0, 0]",1,0,0,5,5,5,0,0,0,0,,,,,,,,,,,,,,,,,,,,,,,,,,,,,,,,,,,,,,,,,,,,,,,,,,,,,,,,,,,,,,,167.55855185699966,None,167.55855185699966,None,167.55855185699966,None,h,1,0.8576941619994614,169.09139715699985,None,169.09139715699985,None,169.09139715699985,None,170.00843772899952,None,170.00843772899952,None,170.00843772899952,None,170.00843772899952,None,,,,,,,,,,,,,,,,,,,,,,,,,,,,,,,,,,,,,,,,,,,,001,119,2020_Feb_13_1050,spring_faces,3.1.5,60.086437465052704,
condition files/Stage0a.xlsx,0a,beta,none,g,"['h', 'g']","['Chess', 'Go']","[0, 0.5]","[0, 0]",1,0,0,5,5,5,0,1,1,1,,,,,,,,,,,,,,,,,,,,,,,,,,,,,,,,,,,,,,,,,,,,,,,,,,,,,,,,,,,,,,,171.97472227700018,None,171.97472227700018,None,171.97472227700018,None,g,1,1.0010256979994665,173.50796857000023,None,173.50796857000023,None,173.50796857000023,None,174.5747723989998,None,174.5747723989998,None,174.5747723989998,None,174.5747723989998,None,,,,,,,,,,,,,,,,,,,,,,,,,,,,,,,,,,,,,,,,,,,,001,119,2020_Feb_13_1050,spring_faces,3.1.5,60.086437465052704,
condition files/Stage0b_1.xlsx,0b,alpha,none,h,"['h', 'g']","['Chess', 'Go']","[-0.15, 0.5]","[0.15, 0.5]",1,0,0,6,6,6,0,0,0,0,,,,,,,,,,,,,,,,,,,,,,,,,,,,,,,,,,,,,,,,,,,,,,,,,,,,,,,,,,,,,,,176.5583987049995,None,176.5583987049995,None,176.5583987049995,None,h,1,1.489605642999777,178.09142403399983,None,178.09142403399983,None,178.09142403399983,None,179.64192653099963,None,179.64192653099963,None,179.64192653099963,None,179.64192653099963,None,,,,,,,,,,,,,,,,,,,,,,,,,,,,,,,,,,,,,,,,,,,,001,119,2020_Feb_13_1050,spring_faces,3.1.5,60.086437465052704,
condition files/Stage0b_1.xlsx,0b,none,beta,g,"['h', 'g']","['Chess', 'Go']","[-0.15, 0.5]","[0.15, 0.5]",0,1,0,6,6,6,0,1,1,1,,,,,,,,,,,,,,,,,,,,,,,,,,,,,,,,,,,,,,,,,,,,,,,,,,,,,,,,,,,,,,,181.60817578200022,None,181.60817578200022,None,181.60817578200022,None,g,1,0.934560796000369,183.15846416099976,None,183.15846416099976,None,183.15846416099976,None,184.1629029630003,None,184.1629029630003,None,184.1629029630003,None,184.1629029630003,None,,,,,,,,,,,,,,,,,,,,,,,,,,,,,,,,,,,,,,,,,,,,001,119,2020_Feb_13_1050,spring_faces,3.1.5,60.086437465052704,
condition files/Stage0b_2.xlsx,0b,none,alpha,h,"['h', 'g']","['Chess', 'Go']","[-0.15, 0.5]","[0.15, 0.5]",0,1,0,7,7,7,0,0,0,0,,,,,,,,,,,,,,,,,,,,,,,,,,,,,,,,,,,,,,,,,,,,,,,,,,,,,,,,,,,,,,,186.14205030099947,None,186.14205030099947,None,186.14205030099947,None,h,1,4.62642904599943,187.67461304599965,None,187.67461304599965,None,187.67461304599965,None,192.357599811,None,192.357599811,None,192.357599811,None,192.357599811,None,,,,,,,,,,,,,,,,,,,,,,,,,,,,,,,,,,,,,,,,,,,,001,119,2020_Feb_13_1050,spring_faces,3.1.5,60.086437465052704,
condition files/Stage0b_2.xlsx,0b,beta,none,g,"['h', 'g']","['Chess', 'Go']","[-0.15, 0.5]","[0.15, 0.5]",1,0,0,7,7,7,0,1,1,1,,,,,,,,,,,,,,,,,,,,,,,,,,,,,,,,,,,,,,,,,,,,,,,,,,,,,,,,,,,,,,,194.32443588499973,None,194.32443588499973,None,194.32443588499973,None,g,1,0.9383913929996197,195.87463870400006,None,195.87463870400006,None,195.87463870400006,None,196.87851227099964,None,196.87851227099964,None,196.87851227099964,None,196.87851227099964,None,,,,,,,,,,,,,,,,,,,,,,,,,,,,,,,,,,,,,,,,,,,,001,119,2020_Feb_13_1050,spring_faces,3.1.5,60.086437465052704,
condition files/Stage0b_1.xlsx,0b,alpha,none,h,"['h', 'g']","['Chess', 'Go']","[-0.15, 0.5]","[0.15, 0.5]",1,0,0,8,8,8,0,0,0,0,,,,,,,,,,,,,,,,,,,,,,,,,,,,,,,,,,,,,,,,,,,,,,,,,,,,,,,,,,,,,,,198.85846431699974,None,198.85846431699974,None,198.85846431699974,None,h,1,1.045365306000349,200.39164789400002,None,200.39164789400002,None,200.39164789400002,None,201.49130623200017,None,201.49130623200017,None,201.49130623200017,None,201.49130623200017,None,,,,,,,,,,,,,,,,,,,,,,,,,,,,,,,,,,,,,,,,,,,,001,119,2020_Feb_13_1050,spring_faces,3.1.5,60.086437465052704,
condition files/Stage0b_1.xlsx,0b,none,beta,g,"['h', 'g']","['Chess', 'Go']","[-0.15, 0.5]","[0.15, 0.5]",0,1,0,8,8,8,0,1,1,1,,,,,,,,,,,,,,,,,,,,,,,,,,,,,,,,,,,,,,,,,,,,,,,,,,,,,,,,,,,,,,,203.45810815000004,None,203.45810815000004,None,203.45810815000004,None,g,1,0.9725891859998228,205.0084760869995,None,205.0084760869995,None,205.0084760869995,None,206.04585529399992,None,206.04585529399992,None,206.04585529399992,None,206.04585529399992,None,,,,,,,,,,,,,,,,,,,,,,,,,,,,,,,,,,,,,,,,,,,,001,119,2020_Feb_13_1050,spring_faces,3.1.5,60.086437465052704,
condition files/Stage0b_2.xlsx,0b,beta,none,g,"['h', 'g']","['Chess', 'Go']","[-0.15, 0.5]","[0.15, 0.5]",1,0,0,9,9,9,0,0,0,1,,,,,,,,,,,,,,,,,,,,,,,,,,,,,,,,,,,,,,,,,,,,,,,,,,,,,,,,,,,,,,,208.02529008799957,None,208.02529008799957,None,208.02529008799957,None,g,1,1.0778810270003305,209.57514174799962,None,209.57514174799962,None,209.57514174799962,None,210.70839474999957,None,210.70839474999957,None,210.70839474999957,None,210.70839474999957,None,,,,,,,,,,,,,,,,,,,,,,,,,,,,,,,,,,,,,,,,,,,,001,119,2020_Feb_13_1050,spring_faces,3.1.5,60.086437465052704,
condition files/Stage0b_2.xlsx,0b,none,alpha,h,"['h', 'g']","['Chess', 'Go']","[-0.15, 0.5]","[0.15, 0.5]",0,1,0,9,9,9,0,1,1,0,,,,,,,,,,,,,,,,,,,,,,,,,,,,,,,,,,,,,,,,,,,,,,,,,,,,,,,,,,,,,,,212.67471447499975,None,212.67471447499975,None,212.67471447499975,None,h,1,1.0046229449999373,214.20846130999962,None,214.20846130999962,None,214.20846130999962,None,215.2746292869997,None,215.2746292869997,None,215.2746292869997,None,215.2746292869997,None,,,,,,,,,,,,,,,,,,,,,,,,,,,,,,,,,,,,,,,,,,,,001,119,2020_Feb_13_1050,spring_faces,3.1.5,60.086437465052704,
condition files/Stage0b_1.xlsx,0b,alpha,none,h,"['h', 'g']","['Chess', 'Go']","[-0.15, 0.5]","[0.15, 0.5]",1,0,0,10,10,10,0,0,0,0,,,,,,,,,,,,,,,,,,,,,,,,,,,,,,,,,,,,,,,,,,,,,,,,,,,,,,,,,,,,,,,217.25883280000016,None,217.25883280000016,None,217.25883280000016,None,h,1,0.8848451249996288,218.8081717670002,None,218.8081717670002,None,218.8081717670002,None,219.75865485299983,None,219.75865485299983,None,219.75865485299983,None,219.75865485299983,None,,,,,,,,,,,,,,,,,,,,,,,,,,,,,,,,,,,,,,,,,,,,001,119,2020_Feb_13_1050,spring_faces,3.1.5,60.086437465052704,
condition files/Stage0b_1.xlsx,0b,none,beta,g,"['h', 'g']","['Chess', 'Go']","[-0.15, 0.5]","[0.15, 0.5]",0,1,0,10,10,10,0,1,1,1,,,,,,,,,,,,,,,,,,,,,,,,,,,,,,,,,,,,,,,,,,,,,,,,,,,,,,,,,,,,,,,221.72495460200025,None,221.72495460200025,None,221.72495460200025,None,g,1,1.153887663000205,223.27514617299948,None,223.27514617299948,None,223.27514617299948,None,224.49169328599965,None,224.49169328599965,None,224.49169328599965,None,224.49169328599965,None,,,,,,,,,,,,,,,,,,,,,,,,,,,,,,,,,,,,,,,,,,,,001,119,2020_Feb_13_1050,spring_faces,3.1.5,60.086437465052704,
condition files/Stage0b_2.xlsx,0b,beta,none,g,"['h', 'g']","['Chess', 'Go']","[-0.15, 0.5]","[0.15, 0.5]",1,0,0,11,11,11,0,0,0,1,,,,,,,,,,,,,,,,,,,,,,,,,,,,,,,,,,,,,,,,,,,,,,,,,,,,,,,,,,,,,,,226.4744681000002,None,226.4744681000002,None,226.4744681000002,None,g,1,1.1049827360002382,228.01212704199952,None,228.01212704199952,None,228.01212704199952,None,229.17495350099944,None,229.17495350099944,None,229.17495350099944,None,229.17495350099944,None,,,,,,,,,,,,,,,,,,,,,,,,,,,,,,,,,,,,,,,,,,,,001,119,2020_Feb_13_1050,spring_faces,3.1.5,60.086437465052704,
condition files/Stage0b_2.xlsx,0b,none,alpha,h,"['h', 'g']","['Chess', 'Go']","[-0.15, 0.5]","[0.15, 0.5]",0,1,0,11,11,11,0,1,1,0,,,,,,,,,,,,,,,,,,,,,,,,,,,,,,,,,,,,,,,,,,,,,,,,,,,,,,,,,,,,,,,231.14142802100014,None,231.14142802100014,None,231.14142802100014,None,h,1,2.792416940000294,232.676598473,None,232.676598473,None,232.676598473,None,235.52535104900016,None,235.52535104900016,None,235.52535104900016,None,235.52535104900016,None,,,,,,,,,,,,,,,,,,,,,,,,,,,,,,,,,,,,,,,,,,,,001,119,2020_Feb_13_1050,spring_faces,3.1.5,60.086437465052704,
condition files/Stage0c_1.xlsx,0c,beta,theta,g,"['h', 'g']","['Chess', 'Go']","[-0.15, 0.5]","[0.15, 0.5]",1,1,0,12,12,12,0,0,0,2,,,,,,,,,,,,,,,,,,,,,,,,,,,,,,,,,,,,,,,,,,,,,,,,,,,,,,,,,,,,,,,237.50849401699998,None,237.50849401699998,None,237.50849401699998,None,g,1,2.619074477999675,239.0419697489997,None,239.0419697489997,None,239.0419697489997,None,241.7253790650002,None,241.7253790650002,None,241.7253790650002,None,241.7253790650002,None,,,,,,,,,,,,,,,,,,,,,,,,,,,,,,,,,,,,,,,,,,,,001,119,2020_Feb_13_1050,spring_faces,3.1.5,60.086437465052704,
condition files/Stage0c_1.xlsx,0c,theta,alpha,h,"['h', 'g']","['Chess', 'Go']","[-0.15, 0.5]","[0.15, 0.5]",1,1,0,12,12,12,0,1,1,0,,,,,,,,,,,,,,,,,,,,,,,,,,,,,,,,,,,,,,,,,,,,,,,,,,,,,,,,,,,,,,,243.69153950100008,None,243.69153950100008,None,243.69153950100008,None,h,1,3.6362241580000045,245.22480431799977,None,245.22480431799977,None,245.22480431799977,None,248.92513425299967,None,248.92513425299967,None,248.92513425299967,None,248.92513425299967,None,,,,,,,,,,,,,,,,,,,,,,,,,,,,,,,,,,,,,,,,,,,,001,119,2020_Feb_13_1050,spring_faces,3.1.5,60.086437465052704,
condition files/Stage0c_1.xlsx,0c,phi,beta,g,"['h', 'g']","['Chess', 'Go']","[-0.15, 0.5]","[0.15, 0.5]",1,1,0,12,12,12,0,2,2,3,,,,,,,,,,,,,,,,,,,,,,,,,,,,,,,,,,,,,,,,,,,,,,,,,,,,,,,,,,,,,,,250.89163316800023,None,250.89163316800023,None,250.89163316800023,None,g,1,1.699923423000655,252.42511921699952,None,252.42511921699952,None,252.42511921699952,None,254.17678255600003,None,254.17678255600003,None,254.17678255600003,None,254.17678255600003,None,,,,,,,,,,,,,,,,,,,,,,,,,,,,,,,,,,,,,,,,,,,,001,119,2020_Feb_13_1050,spring_faces,3.1.5,60.086437465052704,
condition files/Stage0c_1.xlsx,0c,alpha,phi,h,"['h', 'g']","['Chess', 'Go']","[-0.15, 0.5]","[0.15, 0.5]",1,1,0,12,12,12,0,3,3,1,,,,,,,,,,,,,,,,,,,,,,,,,,,,,,,,,,,,,,,,,,,,,,,,,,,,,,,,,,,,,,,256.1415761219996,None,256.1415761219996,None,256.1415761219996,None,h,1,0.7699726079999891,257.6750662429995,None,257.6750662429995,None,257.6750662429995,None,258.5083721379997,None,258.5083721379997,None,258.5083721379997,None,258.5083721379997,None,,,,,,,,,,,,,,,,,,,,,,,,,,,,,,,,,,,,,,,,,,,,001,119,2020_Feb_13_1050,spring_faces,3.1.5,60.086437465052704,
condition files/Stage0c_2.xlsx,0c,alpha,theta,h,"['h', 'g']","['Chess', 'Go']","[-0.15, 0.5]","[0.15, 0.5]",1,1,0,13,13,13,0,0,0,0,,,,,,,,,,,,,,,,,,,,,,,,,,,,,,,,,,,,,,,,,,,,,,,,,,,,,,,,,,,,,,,260.4914312889996,None,260.4914312889996,None,260.4914312889996,None,h,1,1.4920249199994942,262.0250797030003,None,262.0250797030003,None,262.0250797030003,None,263.5589893589995,None,263.5589893589995,None,263.5589893589995,None,263.5589893589995,None,,,,,,,,,,,,,,,,,,,,,,,,,,,,,,,,,,,,,,,,,,,,001,119,2020_Feb_13_1050,spring_faces,3.1.5,60.086437465052704,
condition files/Stage0c_2.xlsx,0c,beta,phi,g,"['h', 'g']","['Chess', 'Go']","[-0.15, 0.5]","[0.15, 0.5]",1,1,0,13,13,13,0,1,1,3,,,,,,,,,,,,,,,,,,,,,,,,,,,,,,,,,,,,,,,,,,,,,,,,,,,,,,,,,,,,,,,265.5414689469999,None,265.5414689469999,None,265.5414689469999,None,g,1,0.8256891410001117,267.0753366429999,None,267.0753366429999,None,267.0753366429999,None,267.9582787119998,None,267.9582787119998,None,267.9582787119998,None,267.9582787119998,None,,,,,,,,,,,,,,,,,,,,,,,,,,,,,,,,,,,,,,,,,,,,001,119,2020_Feb_13_1050,spring_faces,3.1.5,60.086437465052704,
condition files/Stage0c_2.xlsx,0c,theta,beta,g,"['h', 'g']","['Chess', 'Go']","[-0.15, 0.5]","[0.15, 0.5]",1,1,0,13,13,13,0,2,2,2,,,,,,,,,,,,,,,,,,,,,,,,,,,,,,,,,,,,,,,,,,,,,,,,,,,,,,,,,,,,,,,269.9245389429998,None,269.9245389429998,None,269.9245389429998,None,g,1,1.7381932680000318,271.45884318000026,None,271.45884318000026,None,271.45884318000026,None,273.24126341099964,None,273.24126341099964,None,273.24126341099964,None,273.24126341099964,None,,,,,,,,,,,,,,,,,,,,,,,,,,,,,,,,,,,,,,,,,,,,001,119,2020_Feb_13_1050,spring_faces,3.1.5,60.086437465052704,
condition files/Stage0c_2.xlsx,0c,phi,alpha,h,"['h', 'g']","['Chess', 'Go']","[-0.15, 0.5]","[0.15, 0.5]",1,1,0,13,13,13,0,3,3,1,,,,,,,,,,,,,,,,,,,,,,,,,,,,,,,,,,,,,,,,,,,,,,,,,,,,,,,,,,,,,,,275.22436229699997,None,275.22436229699997,None,275.22436229699997,None,h,1,0.8389503859998513,276.7580865299997,None,276.7580865299997,None,276.7580865299997,None,277.6584808130001,None,277.6584808130001,None,277.6584808130001,None,277.6584808130001,None,,,,,,,,,,,,,,,,,,,,,,,,,,,,,,,,,,,,,,,,,,,,001,119,2020_Feb_13_1050,spring_faces,3.1.5,60.086437465052704,
condition files/Stage0c_1.xlsx,0c,beta,theta,g,"['h', 'g']","['Chess', 'Go']","[-0.15, 0.5]","[0.15, 0.5]",1,1,0,14,14,14,0,0,0,2,,,,,,,,,,,,,,,,,,,,,,,,,,,,,,,,,,,,,,,,,,,,,,,,,,,,,,,,,,,,,,,279.6417498640003,None,279.6417498640003,None,279.6417498640003,None,g,1,0.9659706820002611,281.17505013699974,None,281.17505013699974,None,281.17505013699974,None,282.19183071299994,None,282.19183071299994,None,282.19183071299994,None,282.19183071299994,None,,,,,,,,,,,,,,,,,,,,,,,,,,,,,,,,,,,,,,,,,,,,001,119,2020_Feb_13_1050,spring_faces,3.1.5,60.086437465052704,
condition files/Stage0c_1.xlsx,0c,theta,alpha,h,"['h', 'g']","['Chess', 'Go']","[-0.15, 0.5]","[0.15, 0.5]",1,1,0,14,14,14,0,1,1,0,,,,,,,,,,,,,,,,,,,,,,,,,,,,,,,,,,,,,,,,,,,,,,,,,,,,,,,,,,,,,,,284.1581687329999,None,284.1581687329999,None,284.1581687329999,None,h,1,1.8572079369996572,285.69188481199944,None,285.69188481199944,None,285.69188481199944,None,287.6087932339997,None,287.6087932339997,None,287.6087932339997,None,287.6087932339997,None,,,,,,,,,,,,,,,,,,,,,,,,,,,,,,,,,,,,,,,,,,,,001,119,2020_Feb_13_1050,spring_faces,3.1.5,60.086437465052704,
condition files/Stage0c_1.xlsx,0c,alpha,phi,h,"['h', 'g']","['Chess', 'Go']","[-0.15, 0.5]","[0.15, 0.5]",1,1,0,14,14,14,0,2,2,1,,,,,,,,,,,,,,,,,,,,,,,,,,,,,,,,,,,,,,,,,,,,,,,,,,,,,,,,,,,,,,,289.5748365110003,None,289.5748365110003,None,289.5748365110003,None,h,1,1.0490368090004267,291.10803597999984,None,291.10803597999984,None,291.10803597999984,None,292.19291937100024,None,292.19291937100024,None,292.19291937100024,None,292.19291937100024,None,,,,,,,,,,,,,,,,,,,,,,,,,,,,,,,,,,,,,,,,,,,,001,119,2020_Feb_13_1050,spring_faces,3.1.5,60.086437465052704,
condition files/Stage0c_1.xlsx,0c,phi,beta,g,"['h', 'g']","['Chess', 'Go']","[-0.15, 0.5]","[0.15, 0.5]",1,1,0,14,14,14,0,3,3,3,,,,,,,,,,,,,,,,,,,,,,,,,,,,,,,,,,,,,,,,,,,,,,,,,,,,,,,,,,,,,,,294.1747985359998,None,294.1747985359998,None,294.1747985359998,None,g,1,1.1366069010000501,295.7083747280003,None,295.7083747280003,None,295.7083747280003,None,296.90842205099943,None,296.90842205099943,None,296.90842205099943,None,296.90842205099943,None,,,,,,,,,,,,,,,,,,,,,,,,,,,,,,,,,,,,,,,,,,,,001,119,2020_Feb_13_1050,spring_faces,3.1.5,60.086437465052704,
condition files/Stage0c_2.xlsx,0c,beta,phi,g,"['h', 'g']","['Chess', 'Go']","[-0.15, 0.5]","[0.15, 0.5]",1,1,0,15,15,15,0,0,0,3,,,,,,,,,,,,,,,,,,,,,,,,,,,,,,,,,,,,,,,,,,,,,,,,,,,,,,,,,,,,,,,298.8917930110001,None,298.8917930110001,None,298.8917930110001,None,g,1,0.9642696900000374,300.4087571789996,None,300.4087571789996,None,300.4087571789996,None,301.4096134270003,None,301.4096134270003,None,301.4096134270003,None,301.4096134270003,None,,,,,,,,,,,,,,,,,,,,,,,,,,,,,,,,,,,,,,,,,,,,001,119,2020_Feb_13_1050,spring_faces,3.1.5,60.086437465052704,
condition files/Stage0c_2.xlsx,0c,phi,alpha,h,"['h', 'g']","['Chess', 'Go']","[-0.15, 0.5]","[0.15, 0.5]",1,1,0,15,15,15,0,1,1,1,,,,,,,,,,,,,,,,,,,,,,,,,,,,,,,,,,,,,,,,,,,,,,,,,,,,,,,,,,,,,,,303.39132894500017,None,303.39132894500017,None,303.39132894500017,None,h,1,0.6080723300001409,304.925020316,None,304.925020316,None,304.925020316,None,305.5913104330002,None,305.5913104330002,None,305.5913104330002,None,305.5913104330002,None,,,,,,,,,,,,,,,,,,,,,,,,,,,,,,,,,,,,,,,,,,,,001,119,2020_Feb_13_1050,spring_faces,3.1.5,60.086437465052704,
condition files/Stage0c_2.xlsx,0c,theta,beta,g,"['h', 'g']","['Chess', 'Go']","[-0.15, 0.5]","[0.15, 0.5]",1,1,0,15,15,15,0,2,2,2,,,,,,,,,,,,,,,,,,,,,,,,,,,,,,,,,,,,,,,,,,,,,,,,,,,,,,,,,,,,,,,307.5581516279999,None,307.5581516279999,None,307.5581516279999,None,g,1,1.0177852920005535,309.091215253,None,309.091215253,None,309.091215253,None,310.1753742179999,None,310.1753742179999,None,310.1753742179999,None,310.1753742179999,None,,,,,,,,,,,,,,,,,,,,,,,,,,,,,,,,,,,,,,,,,,,,001,119,2020_Feb_13_1050,spring_faces,3.1.5,60.086437465052704,
condition files/Stage0c_2.xlsx,0c,alpha,theta,h,"['h', 'g']","['Chess', 'Go']","[-0.15, 0.5]","[0.15, 0.5]",1,1,0,15,15,15,0,3,3,0,,,,,,,,,,,,,,,,,,,,,,,,,,,,,,,,,,,,,,,,,,,,,,,,,,,,,,,,,,,,,,,312.1415185959995,None,312.1415185959995,None,312.1415185959995,None,h,1,1.8899432919997707,313.6750721919998,None,313.6750721919998,None,313.6750721919998,None,315.6249791700002,None,315.6249791700002,None,315.6249791700002,None,315.6249791700002,None,,,,,,,,,,,,,,,,,,,,,,,,,,,,,,,,,,,,,,,,,,,,001,119,2020_Feb_13_1050,spring_faces,3.1.5,60.086437465052704,
condition files/Stage0c_1.xlsx,0c,phi,beta,g,"['h', 'g']","['Chess', 'Go']","[-0.15, 0.5]","[0.15, 0.5]",1,1,0,16,16,16,0,0,0,3,,,,,,,,,,,,,,,,,,,,,,,,,,,,,,,,,,,,,,,,,,,,,,,,,,,,,,,,,,,,,,,317.6081421159997,None,317.6081421159997,None,317.6081421159997,None,g,1,1.9434761080001408,319.14163037100025,None,319.14163037100025,None,319.14163037100025,None,321.1418809199995,None,321.1418809199995,None,321.1418809199995,None,321.1418809199995,None,,,,,,,,,,,,,,,,,,,,,,,,,,,,,,,,,,,,,,,,,,,,001,119,2020_Feb_13_1050,spring_faces,3.1.5,60.086437465052704,
condition files/Stage0c_1.xlsx,0c,theta,alpha,h,"['h', 'g']","['Chess', 'Go']","[-0.15, 0.5]","[0.15, 0.5]",1,1,0,16,16,16,0,1,1,0,,,,,,,,,,,,,,,,,,,,,,,,,,,,,,,,,,,,,,,,,,,,,,,,,,,,,,,,,,,,,,,323.1080989479997,None,323.1080989479997,None,323.1080989479997,None,h,1,1.147298511000372,324.64174419899973,None,324.64174419899973,None,324.64174419899973,None,325.84158138600014,None,325.84158138600014,None,325.84158138600014,None,325.84158138600014,None,,,,,,,,,,,,,,,,,,,,,,,,,,,,,,,,,,,,,,,,,,,,001,119,2020_Feb_13_1050,spring_faces,3.1.5,60.086437465052704,
condition files/Stage0c_1.xlsx,0c,alpha,phi,h,"['h', 'g']","['Chess', 'Go']","[-0.15, 0.5]","[0.15, 0.5]",1,1,0,16,16,16,0,2,2,1,,,,,,,,,,,,,,,,,,,,,,,,,,,,,,,,,,,,,,,,,,,,,,,,,,,,,,,,,,,,,,,327.8082073280002,None,327.8082073280002,None,327.8082073280002,None,h,1,0.7992781929997363,329.34174780299963,None,329.34174780299963,None,329.34174780299963,None,330.1764647079999,None,330.1764647079999,None,330.1764647079999,None,330.1764647079999,None,,,,,,,,,,,,,,,,,,,,,,,,,,,,,,,,,,,,,,,,,,,,001,119,2020_Feb_13_1050,spring_faces,3.1.5,60.086437465052704,
condition files/Stage0c_1.xlsx,0c,beta,theta,g,"['h', 'g']","['Chess', 'Go']","[-0.15, 0.5]","[0.15, 0.5]",1,1,0,16,16,16,0,3,3,2,,,,,,,,,,,,,,,,,,,,,,,,,,,,,,,,,,,,,,,,,,,,,,,,,,,,,,,,,,,,,,,332.17508039899985,None,332.17508039899985,None,332.17508039899985,None,g,1,0.9295175440001913,333.6914579329996,None,333.6914579329996,None,333.6914579329996,None,334.6748855579999,None,334.6748855579999,None,334.6748855579999,None,334.6748855579999,None,,,,,,,,,,,,,,,,,,,,,,,,,,,,,,,,,,,,,,,,,,,,001,119,2020_Feb_13_1050,spring_faces,3.1.5,60.086437465052704,
condition files/Stage0c_2.xlsx,0c,theta,beta,g,"['h', 'g']","['Chess', 'Go']","[-0.15, 0.5]","[0.15, 0.5]",1,1,0,17,17,17,0,0,0,2,,,,,,,,,,,,,,,,,,,,,,,,,,,,,,,,,,,,,,,,,,,,,,,,,,,,,,,,,,,,,,,336.65852678400006,None,336.65852678400006,None,336.65852678400006,None,g,1,1.2774020030001338,338.1916398630001,None,338.1916398630001,None,338.1916398630001,None,339.50984546499967,None,339.50984546499967,None,339.50984546499967,None,339.50984546499967,None,,,,,,,,,,,,,,,,,,,,,,,,,,,,,,,,,,,,,,,,,,,,001,119,2020_Feb_13_1050,spring_faces,3.1.5,60.086437465052704,
condition files/Stage0c_2.xlsx,0c,alpha,theta,h,"['h', 'g']","['Chess', 'Go']","[-0.15, 0.5]","[0.15, 0.5]",1,1,0,17,17,17,0,1,1,0,,,,,,,,,,,,,,,,,,,,,,,,,,,,,,,,,,,,,,,,,,,,,,,,,,,,,,,,,,,,,,,341.4914480839998,None,341.4914480839998,None,341.4914480839998,None,h,1,1.3558086780003578,343.02522277000025,None,343.02522277000025,None,343.02522277000025,None,344.4413738860003,None,344.4413738860003,None,344.4413738860003,None,344.4413738860003,None,,,,,,,,,,,,,,,,,,,,,,,,,,,,,,,,,,,,,,,,,,,,001,119,2020_Feb_13_1050,spring_faces,3.1.5,60.086437465052704,
condition files/Stage0c_2.xlsx,0c,phi,alpha,h,"['h', 'g']","['Chess', 'Go']","[-0.15, 0.5]","[0.15, 0.5]",1,1,0,17,17,17,0,2,2,1,,,,,,,,,,,,,,,,,,,,,,,,,,,,,,,,,,,,,,,,,,,,,,,,,,,,,,,,,,,,,,,346.40747372199985,None,346.40747372199985,None,346.40747372199985,None,h,1,1.927045454999643,347.94197634899956,None,347.94197634899956,None,347.94197634899956,None,349.909468457,None,349.909468457,None,349.909468457,None,349.909468457,None,,,,,,,,,,,,,,,,,,,,,,,,,,,,,,,,,,,,,,,,,,,,001,119,2020_Feb_13_1050,spring_faces,3.1.5,60.086437465052704,
condition files/Stage0c_2.xlsx,0c,beta,phi,g,"['h', 'g']","['Chess', 'Go']","[-0.15, 0.5]","[0.15, 0.5]",1,1,0,17,17,17,0,3,3,3,,,,,,,,,,,,,,,,,,,,,,,,,,,,,,,,,,,,,,,,,,,,,,,,,,,,,,,,,,,,,,,351.8914806869998,None,351.8914806869998,None,351.8914806869998,None,g,1,1.0358354139998482,353.42519313199955,None,353.42519313199955,None,353.42519313199955,None,354.5251271649995,None,354.5251271649995,None,354.5251271649995,None,354.5251271649995,None,,,,,,,,,,,,,,,,,,,,,,,,,,,,,,,,,,,,,,,,,,,,001,119,2020_Feb_13_1050,spring_faces,3.1.5,60.086437465052704,
,,,,,,,,,,,,,,,,,,,,,,,,,,,,,,,,,,,,,,,,,,,,,,,,,,,,,,,,,,,,,,,,,,,,,,,,,,,,,,,,,,,,,,,,,,,,,,,,,,,,,,,,356.507990264,None,space,2.696671504999358,361.50832638300017,None,,,,,,,,,,,,,,,,,,,,,,,,,,,,,,,,,,,,,,001,119,2020_Feb_13_1050,spring_faces,3.1.5,60.086437465052704,
condition files/Stage1_1.xlsx,,T1,B1,c,"['c', 'm']","['Clue', 'Monopoly']","[-0.15, 0.5]","[0.15, 0.5]",1,1,,,,,,,,,0,0,0,0,0,0,0,0,,,,,,,,,,,,,,,,,,,,,,,,,,,,,,,,,,,,,,,,,,,,,,,,,,,,,,,364.258496079,None,364.258496079,None,364.258496079,None,c,1,2.378595459999815,365.8584247409999,None,365.8584247409999,None,365.8584247409999,None,368.30825548899975,None,368.30825548899975,None,368.30825548899975,None,368.30825548899975,None,,,,,,,361.50832638300017,None,,,,,,,,,,,,,,,,,,,,,,,,,,,,,,,,,,,,001,119,2020_Feb_13_1050,spring_faces,3.1.5,60.086437465052704,
condition files/Stage1_1.xlsx,,B4,T4,m,"['c', 'm']","['Clue', 'Monopoly']","[-0.15, 0.5]","[0.15, 0.5]",1,1,,,,,,,,,0,0,0,0,0,1,1,7,,,,,,,,,,,,,,,,,,,,,,,,,,,,,,,,,,,,,,,,,,,,,,,,,,,,,,,370.25814495099985,None,370.25814495099985,None,370.25814495099985,None,m,1,3.708649716000764,371.8084483040002,None,371.8084483040002,None,371.8084483040002,None,375.5918012479997,None,375.5918012479997,None,375.5918012479997,None,375.5918012479997,None,,,,,,,,,,,,,,,,,,,,,,,,,,,,,,,,,,,,,,,,,,,,001,119,2020_Feb_13_1050,spring_faces,3.1.5,60.086437465052704,
condition files/Stage1_1.xlsx,,T4,B3,m,"['c', 'm']","['Clue', 'Monopoly']","[-0.15, 0.5]","[0.15, 0.5]",1,1,,,,,,,,,0,0,0,0,0,2,2,6,,,,,,,,,,,,,,,,,,,,,,,,,,,,,,,,,,,,,,,,,,,,,,,,,,,,,,,377.5413643940001,None,377.5413643940001,None,377.5413643940001,None,m,1,1.3376131810000516,379.091352423,None,379.091352423,None,379.091352423,None,380.49176068900033,None,380.49176068900033,None,380.49176068900033,None,380.49176068900033,None,,,,,,,,,,,,,,,,,,,,,,,,,,,,,,,,,,,,,,,,,,,,001,119,2020_Feb_13_1050,spring_faces,3.1.5,60.086437465052704,
condition files/Stage1_1.xlsx,,T3,B4,c,"['c', 'm']","['Clue', 'Monopoly']","[-0.15, 0.5]","[0.15, 0.5]",1,1,,,,,,,,,0,0,0,0,0,3,3,5,,,,,,,,,,,,,,,,,,,,,,,,,,,,,,,,,,,,,,,,,,,,,,,,,,,,,,,382.4581651460003,None,382.4581651460003,None,382.4581651460003,None,c,1,1.6059585190005237,383.9910278850002,None,383.9910278850002,None,383.9910278850002,None,385.6604460210001,None,385.6604460210001,None,385.6604460210001,None,385.6604460210001,None,,,,,,,,,,,,,,,,,,,,,,,,,,,,,,,,,,,,,,,,,,,,001,119,2020_Feb_13_1050,spring_faces,3.1.5,60.086437465052704,
condition files/Stage1_1.xlsx,,B1,T2,c,"['c', 'm']","['Clue', 'Monopoly']","[-0.15, 0.5]","[0.15, 0.5]",1,1,,,,,,,,,0,0,0,0,0,4,4,1,,,,,,,,,,,,,,,,,,,,,,,,,,,,,,,,,,,,,,,,,,,,,,,,,,,,,,,387.62438654699963,None,387.62438654699963,None,387.62438654699963,None,c,1,2.5155658949997814,389.20949596599985,None,389.20949596599985,None,389.20949596599985,None,391.7747961899995,None,391.7747961899995,None,391.7747961899995,None,391.7747961899995,None,,,,,,,,,,,,,,,,,,,,,,,,,,,,,,,,,,,,,,,,,,,,001,119,2020_Feb_13_1050,spring_faces,3.1.5,60.086437465052704,
condition files/Stage1_1.xlsx,,B2,T1,m,"['c', 'm']","['Clue', 'Monopoly']","[-0.15, 0.5]","[0.15, 0.5]",1,1,,,,,,,,,0,0,0,0,0,5,5,2,,,,,,,,,,,,,,,,,,,,,,,,,,,,,,,,,,,,,,,,,,,,,,,,,,,,,,,393.74178522500006,None,393.74178522500006,None,393.74178522500006,None,m,1,2.0333736920001684,395.27561760699973,None,395.27561760699973,None,395.27561760699973,None,397.3920284879996,None,397.3920284879996,None,397.3920284879996,None,397.3920284879996,None,,,,,,,,,,,,,,,,,,,,,,,,,,,,,,,,,,,,,,,,,,,,001,119,2020_Feb_13_1050,spring_faces,3.1.5,60.086437465052704,
condition files/Stage1_1.xlsx,,T2,B2,m,"['c', 'm']","['Clue', 'Monopoly']","[-0.15, 0.5]","[0.15, 0.5]",1,1,,,,,,,,,0,0,0,0,0,6,6,3,,,,,,,,,,,,,,,,,,,,,,,,,,,,,,,,,,,,,,,,,,,,,,,,,,,,,,,399.3411300019998,None,399.3411300019998,None,399.3411300019998,None,c,0,1.5372710019992155,400.89176323599986,None,400.89176323599986,None,400.89176323599986,None,402.49154944400016,None,402.49154944400016,None,402.49154944400016,None,402.49154944400016,None,,,,,,,,,,,,,,,,,,,,,,,,,,,,,,,,,,,,,,,,,,,,001,119,2020_Feb_13_1050,spring_faces,3.1.5,60.086437465052704,
condition files/Stage1_1.xlsx,,B3,T3,c,"['c', 'm']","['Clue', 'Monopoly']","[-0.15, 0.5]","[0.15, 0.5]",1,1,,,,,,,,,0,0,0,0,0,7,7,4,,,,,,,,,,,,,,,,,,,,,,,,,,,,,,,,,,,,,,,,,,,,,,,,,,,,,,,404.45808727799977,None,404.45808727799977,None,404.45808727799977,None,c,1,1.892755674,406.00825697100026,None,406.00825697100026,None,406.00825697100026,None,407.96048907800014,None,407.96048907800014,None,407.96048907800014,None,407.96048907800014,None,,,,,,,,,,,,,,,,,,,,,,,,,,,,,,,,,,,,,,,,,,,,001,119,2020_Feb_13_1050,spring_faces,3.1.5,60.086437465052704,
condition files/Stage1_2.xlsx,,T3,B3,c,"['c', 'm']","['Clue', 'Monopoly']","[-0.15, 0.5]","[0.15, 0.5]",1,1,,,,,,,,,0,1,1,1,0,0,0,4,,,,,,,,,,,,,,,,,,,,,,,,,,,,,,,,,,,,,,,,,,,,,,,,,,,,,,,409.9415019620001,None,409.9415019620001,None,409.9415019620001,None,c,1,2.842045495000093,411.47510712300027,None,411.47510712300027,None,411.47510712300027,None,414.3747273839999,None,414.3747273839999,None,414.3747273839999,None,414.3747273839999,None,,,,,,,,,,,,,,,,,,,,,,,,,,,,,,,,,,,,,,,,,,,,001,119,2020_Feb_13_1050,spring_faces,3.1.5,60.086437465052704,
condition files/Stage1_2.xlsx,,B1,T1,c,"['c', 'm']","['Clue', 'Monopoly']","[-0.15, 0.5]","[0.15, 0.5]",1,1,,,,,,,,,0,1,1,1,0,1,1,0,,,,,,,,,,,,,,,,,,,,,,,,,,,,,,,,,,,,,,,,,,,,,,,,,,,,,,,416.34138283599987,None,416.34138283599987,None,416.34138283599987,None,m,0,1.3212064359995566,417.8758376429996,None,417.8758376429996,None,417.8758376429996,None,419.25835102699966,None,419.25835102699966,None,419.25835102699966,None,419.25835102699966,None,,,,,,,,,,,,,,,,,,,,,,,,,,,,,,,,,,,,,,,,,,,,001,119,2020_Feb_13_1050,spring_faces,3.1.5,60.086437465052704,
condition files/Stage1_2.xlsx,,T1,B2,m,"['c', 'm']","['Clue', 'Monopoly']","[-0.15, 0.5]","[0.15, 0.5]",1,1,,,,,,,,,0,1,1,1,0,2,2,2,,,,,,,,,,,,,,,,,,,,,,,,,,,,,,,,,,,,,,,,,,,,,,,,,,,,,,,421.2248314420003,None,421.2248314420003,None,421.2248314420003,None,m,1,1.8768541609997555,422.76016214299943,None,422.76016214299943,None,422.76016214299943,None,424.6927565119995,None,424.6927565119995,None,424.6927565119995,None,424.6927565119995,None,,,,,,,,,,,,,,,,,,,,,,,,,,,,,,,,,,,,,,,,,,,,001,119,2020_Feb_13_1050,spring_faces,3.1.5,60.086437465052704,
condition files/Stage1_2.xlsx,,B3,T4,m,"['c', 'm']","['Clue', 'Monopoly']","[-0.15, 0.5]","[0.15, 0.5]",1,1,,,,,,,,,0,1,1,1,0,3,3,6,,,,,,,,,,,,,,,,,,,,,,,,,,,,,,,,,,,,,,,,,,,,,,,,,,,,,,,426.65760363200025,None,426.65760363200025,None,426.65760363200025,None,m,1,2.3981314129996463,428.1909112530002,None,428.1909112530002,None,428.1909112530002,None,430.6420422179999,None,430.6420422179999,None,430.6420422179999,None,430.6420422179999,None,,,,,,,,,,,,,,,,,,,,,,,,,,,,,,,,,,,,,,,,,,,,001,119,2020_Feb_13_1050,spring_faces,3.1.5,60.086437465052704,
condition files/Stage1_2.xlsx,,T4,B4,m,"['c', 'm']","['Clue', 'Monopoly']","[-0.15, 0.5]","[0.15, 0.5]",1,1,,,,,,,,,0,1,1,1,0,4,4,7,,,,,,,,,,,,,,,,,,,,,,,,,,,,,,,,,,,,,,,,,,,,,,,,,,,,,,,432.60803481199946,None,432.60803481199946,None,432.60803481199946,None,m,1,1.0385525129995585,434.15848997899957,None,434.15848997899957,None,434.15848997899957,None,435.2581830899999,None,435.2581830899999,None,435.2581830899999,None,435.2581830899999,None,,,,,,,,,,,,,,,,,,,,,,,,,,,,,,,,,,,,,,,,,,,,001,119,2020_Feb_13_1050,spring_faces,3.1.5,60.086437465052704,
condition files/Stage1_2.xlsx,,B4,T3,c,"['c', 'm']","['Clue', 'Monopoly']","[-0.15, 0.5]","[0.15, 0.5]",1,1,,,,,,,,,0,1,1,1,0,5,5,5,,,,,,,,,,,,,,,,,,,,,,,,,,,,,,,,,,,,,,,,,,,,,,,,,,,,,,,437.22475997699985,None,437.22475997699985,None,437.22475997699985,None,c,1,1.766565513000387,438.7744571889998,None,438.7744571889998,None,438.7744571889998,None,440.59367500999997,None,440.59367500999997,None,440.59367500999997,None,440.59367500999997,None,,,,,,,,,,,,,,,,,,,,,,,,,,,,,,,,,,,,,,,,,,,,001,119,2020_Feb_13_1050,spring_faces,3.1.5,60.086437465052704,
condition files/Stage1_2.xlsx,,T2,B1,c,"['c', 'm']","['Clue', 'Monopoly']","[-0.15, 0.5]","[0.15, 0.5]",1,1,,,,,,,,,0,1,1,1,0,6,6,1,,,,,,,,,,,,,,,,,,,,,,,,,,,,,,,,,,,,,,,,,,,,,,,,,,,,,,,442.5581959230003,None,442.5581959230003,None,442.5581959230003,None,c,1,1.7917228810001689,444.09332305599946,None,444.09332305599946,None,444.09332305599946,None,445.9417732889997,None,445.9417732889997,None,445.9417732889997,None,445.9417732889997,None,,,,,,,,,,,,,,,,,,,,,,,,,,,,,,,,,,,,,,,,,,,,001,119,2020_Feb_13_1050,spring_faces,3.1.5,60.086437465052704,
condition files/Stage1_2.xlsx,,B2,T2,m,"['c', 'm']","['Clue', 'Monopoly']","[-0.15, 0.5]","[0.15, 0.5]",1,1,,,,,,,,,0,1,1,1,0,7,7,3,,,,,,,,,,,,,,,,,,,,,,,,,,,,,,,,,,,,,,,,,,,,,,,,,,,,,,,447.9081922360001,None,447.9081922360001,None,447.9081922360001,None,c,0,6.60265858799994,449.4583733720001,None,449.4583733720001,None,449.4583733720001,None,456.1411541790003,None,456.1411541790003,None,456.1411541790003,None,456.1411541790003,None,,,,,,,,,,,,,,,,,,,,,,,,,,,,,,,,,,,,,,,,,,,,001,119,2020_Feb_13_1050,spring_faces,3.1.5,60.086437465052704,
condition files/Stage1_1.xlsx,,B1,T2,c,"['c', 'm']","['Clue', 'Monopoly']","[-0.15, 0.5]","[0.15, 0.5]",1,1,,,,,,,,,0,2,2,2,0,0,0,1,,,,,,,,,,,,,,,,,,,,,,,,,,,,,,,,,,,,,,,,,,,,,,,,,,,,,,,458.10789183499946,None,458.10789183499946,None,458.10789183499946,None,c,1,2.05175732600037,459.64128651899955,None,459.64128651899955,None,459.64128651899955,None,461.77541921400007,None,461.77541921400007,None,461.77541921400007,None,461.77541921400007,None,,,,,,,,,,,,,,,,,,,,,,,,,,,,,,,,,,,,,,,,,,,,001,119,2020_Feb_13_1050,spring_faces,3.1.5,60.086437465052704,
condition files/Stage1_1.xlsx,,B4,T4,m,"['c', 'm']","['Clue', 'Monopoly']","[-0.15, 0.5]","[0.15, 0.5]",1,1,,,,,,,,,0,2,2,2,0,1,1,7,,,,,,,,,,,,,,,,,,,,,,,,,,,,,,,,,,,,,,,,,,,,,,,,,,,,,,,463.7240922000001,None,463.7240922000001,None,463.7240922000001,None,m,1,1.042610997000338,465.2584211180001,None,465.2584211180001,None,465.2584211180001,None,466.3574485099998,None,466.3574485099998,None,466.3574485099998,None,466.3574485099998,None,,,,,,,,,,,,,,,,,,,,,,,,,,,,,,,,,,,,,,,,,,,,001,119,2020_Feb_13_1050,spring_faces,3.1.5,60.086437465052704,
condition files/Stage1_1.xlsx,,T4,B3,m,"['c', 'm']","['Clue', 'Monopoly']","[-0.15, 0.5]","[0.15, 0.5]",1,1,,,,,,,,,0,2,2,2,0,2,2,6,,,,,,,,,,,,,,,,,,,,,,,,,,,,,,,,,,,,,,,,,,,,,,,,,,,,,,,468.3248759150001,None,468.3248759150001,None,468.3248759150001,None,m,1,1.0977181030002612,469.85931355999946,None,469.85931355999946,None,469.85931355999946,None,471.00860108399957,None,471.00860108399957,None,471.00860108399957,None,471.00860108399957,None,,,,,,,,,,,,,,,,,,,,,,,,,,,,,,,,,,,,,,,,,,,,001,119,2020_Feb_13_1050,spring_faces,3.1.5,60.086437465052704,
condition files/Stage1_1.xlsx,,T1,B1,c,"['c', 'm']","['Clue', 'Monopoly']","[-0.15, 0.5]","[0.15, 0.5]",1,1,,,,,,,,,0,2,2,2,0,3,3,0,,,,,,,,,,,,,,,,,,,,,,,,,,,,,,,,,,,,,,,,,,,,,,,,,,,,,,,472.97506983600033,None,472.97506983600033,None,472.97506983600033,None,c,1,2.0005104159999973,474.5085745010001,None,474.5085745010001,None,474.5085745010001,None,476.57456366599945,None,476.57456366599945,None,476.57456366599945,None,476.57456366599945,None,,,,,,,,,,,,,,,,,,,,,,,,,,,,,,,,,,,,,,,,,,,,001,119,2020_Feb_13_1050,spring_faces,3.1.5,60.086437465052704,
condition files/Stage1_1.xlsx,,T2,B2,m,"['c', 'm']","['Clue', 'Monopoly']","[-0.15, 0.5]","[0.15, 0.5]",1,1,,,,,,,,,0,2,2,2,0,4,4,3,,,,,,,,,,,,,,,,,,,,,,,,,,,,,,,,,,,,,,,,,,,,,,,,,,,,,,,478.541749514,None,478.541749514,None,478.541749514,None,c,0,3.5211679580006603,480.0918694310003,None,480.0918694310003,None,480.0918694310003,None,483.6745665219996,None,483.6745665219996,None,483.6745665219996,None,483.6745665219996,None,,,,,,,,,,,,,,,,,,,,,,,,,,,,,,,,,,,,,,,,,,,,001,119,2020_Feb_13_1050,spring_faces,3.1.5,60.086437465052704,
condition files/Stage1_1.xlsx,,B3,T3,c,"['c', 'm']","['Clue', 'Monopoly']","[-0.15, 0.5]","[0.15, 0.5]",1,1,,,,,,,,,0,2,2,2,0,5,5,4,,,,,,,,,,,,,,,,,,,,,,,,,,,,,,,,,,,,,,,,,,,,,,,,,,,,,,,485.6414173479998,None,485.6414173479998,None,485.6414173479998,None,c,1,2.3584857810001267,487.1746323309999,None,487.1746323309999,None,487.1746323309999,None,489.59361789600007,None,489.59361789600007,None,489.59361789600007,None,489.59361789600007,None,,,,,,,,,,,,,,,,,,,,,,,,,,,,,,,,,,,,,,,,,,,,001,119,2020_Feb_13_1050,spring_faces,3.1.5,60.086437465052704,
condition files/Stage1_1.xlsx,,T3,B4,c,"['c', 'm']","['Clue', 'Monopoly']","[-0.15, 0.5]","[0.15, 0.5]",1,1,,,,,,,,,0,2,2,2,0,6,6,5,,,,,,,,,,,,,,,,,,,,,,,,,,,,,,,,,,,,,,,,,,,,,,,,,,,,,,,491.55782777700006,None,491.55782777700006,None,491.55782777700006,None,c,1,1.5124964589995216,493.1084997580001,None,493.1084997580001,None,493.1084997580001,None,494.67504674999964,None,494.67504674999964,None,494.67504674999964,None,494.67504674999964,None,,,,,,,,,,,,,,,,,,,,,,,,,,,,,,,,,,,,,,,,,,,,001,119,2020_Feb_13_1050,spring_faces,3.1.5,60.086437465052704,
condition files/Stage1_1.xlsx,,B2,T1,m,"['c', 'm']","['Clue', 'Monopoly']","[-0.15, 0.5]","[0.15, 0.5]",1,1,,,,,,,,,0,2,2,2,0,7,7,2,,,,,,,,,,,,,,,,,,,,,,,,,,,,,,,,,,,,,,,,,,,,,,,,,,,,,,,496.641306775,None,496.641306775,None,496.641306775,None,m,1,2.9413435939995907,498.1757588290002,None,498.1757588290002,None,498.1757588290002,None,501.1774125519996,None,501.1774125519996,None,501.1774125519996,None,501.1774125519996,None,,,,,,,,,,,,,,,,,,,,,,,,,,,,,,,,,,,,,,,,,,,,001,119,2020_Feb_13_1050,spring_faces,3.1.5,60.086437465052704,
condition files/Stage1_2.xlsx,,T4,B4,m,"['c', 'm']","['Clue', 'Monopoly']","[-0.15, 0.5]","[0.15, 0.5]",1,1,,,,,,,,,0,3,3,3,0,0,0,7,,,,,,,,,,,,,,,,,,,,,,,,,,,,,,,,,,,,,,,,,,,,,,,,,,,,,,,503.15858015899994,None,503.15858015899994,None,503.15858015899994,None,m,1,1.5452166499999294,504.6918628080002,None,504.6918628080002,None,504.6918628080002,None,506.29146941399995,None,506.29146941399995,None,506.29146941399995,None,506.29146941399995,None,,,,,,,,,,,,,,,,,,,,,,,,,,,,,,,,,,,,,,,,,,,,001,119,2020_Feb_13_1050,spring_faces,3.1.5,60.086437465052704,
condition files/Stage1_2.xlsx,,T1,B2,m,"['c', 'm']","['Clue', 'Monopoly']","[-0.15, 0.5]","[0.15, 0.5]",1,1,,,,,,,,,0,3,3,3,0,1,1,2,,,,,,,,,,,,,,,,,,,,,,,,,,,,,,,,,,,,,,,,,,,,,,,,,,,,,,,508.25820952399954,None,508.25820952399954,None,508.25820952399954,None,c,0,1.1486510649992852,509.8083741780001,None,509.8083741780001,None,509.8083741780001,None,511.0086095460001,None,511.0086095460001,None,511.0086095460001,None,511.0086095460001,None,,,,,,,,,,,,,,,,,,,,,,,,,,,,,,,,,,,,,,,,,,,,001,119,2020_Feb_13_1050,spring_faces,3.1.5,60.086437465052704,
condition files/Stage1_2.xlsx,,B3,T4,m,"['c', 'm']","['Clue', 'Monopoly']","[-0.15, 0.5]","[0.15, 0.5]",1,1,,,,,,,,,0,3,3,3,0,2,2,6,,,,,,,,,,,,,,,,,,,,,,,,,,,,,,,,,,,,,,,,,,,,,,,,,,,,,,,512.9746662409998,None,512.9746662409998,None,512.9746662409998,None,m,1,2.735849908000091,514.5251890959998,None,514.5251890959998,None,514.5251890959998,None,517.3251443270001,None,517.3251443270001,None,517.3251443270001,None,517.3251443270001,None,,,,,,,,,,,,,,,,,,,,,,,,,,,,,,,,,,,,,,,,,,,,001,119,2020_Feb_13_1050,spring_faces,3.1.5,60.086437465052704,
condition files/Stage1_2.xlsx,,B1,T1,c,"['c', 'm']","['Clue', 'Monopoly']","[-0.15, 0.5]","[0.15, 0.5]",1,1,,,,,,,,,0,3,3,3,0,3,3,0,,,,,,,,,,,,,,,,,,,,,,,,,,,,,,,,,,,,,,,,,,,,,,,,,,,,,,,519.2915196269996,None,519.2915196269996,None,519.2915196269996,None,c,1,4.356373902000087,520.8247070239995,None,520.8247070239995,None,520.8247070239995,None,525.2443668939995,None,525.2443668939995,None,525.2443668939995,None,525.2443668939995,None,,,,,,,,,,,,,,,,,,,,,,,,,,,,,,,,,,,,,,,,,,,,001,119,2020_Feb_13_1050,spring_faces,3.1.5,60.086437465052704,
condition files/Stage1_2.xlsx,,B2,T2,m,"['c', 'm']","['Clue', 'Monopoly']","[-0.15, 0.5]","[0.15, 0.5]",1,1,,,,,,,,,0,3,3,3,0,4,4,3,,,,,,,,,,,,,,,,,,,,,,,,,,,,,,,,,,,,,,,,,,,,,,,,,,,,,,,527.2081824079996,None,527.2081824079996,None,527.2081824079996,None,m,1,2.6304011359998185,528.7585958649997,None,528.7585958649997,None,528.7585958649997,None,531.4415406749995,None,531.4415406749995,None,531.4415406749995,None,531.4415406749995,None,,,,,,,,,,,,,,,,,,,,,,,,,,,,,,,,,,,,,,,,,,,,001,119,2020_Feb_13_1050,spring_faces,3.1.5,60.086437465052704,
condition files/Stage1_2.xlsx,,T2,B1,c,"['c', 'm']","['Clue', 'Monopoly']","[-0.15, 0.5]","[0.15, 0.5]",1,1,,,,,,,,,0,3,3,3,0,5,5,1,,,,,,,,,,,,,,,,,,,,,,,,,,,,,,,,,,,,,,,,,,,,,,,,,,,,,,,533.4082436030003,None,533.4082436030003,None,533.4082436030003,None,c,1,1.7597202589995504,534.9413189400002,None,534.9413189400002,None,534.9413189400002,None,536.7586233410002,None,536.7586233410002,None,536.7586233410002,None,536.7586233410002,None,,,,,,,,,,,,,,,,,,,,,,,,,,,,,,,,,,,,,,,,,,,,001,119,2020_Feb_13_1050,spring_faces,3.1.5,60.086437465052704,
condition files/Stage1_2.xlsx,,B4,T3,c,"['c', 'm']","['Clue', 'Monopoly']","[-0.15, 0.5]","[0.15, 0.5]",1,1,,,,,,,,,0,3,3,3,0,6,6,5,,,,,,,,,,,,,,,,,,,,,,,,,,,,,,,,,,,,,,,,,,,,,,,,,,,,,,,538.7249556099996,None,538.7249556099996,None,538.7249556099996,None,m,0,1.8352401040001496,540.2577627969995,None,540.2577627969995,None,540.2577627969995,None,542.1582279550003,None,542.1582279550003,None,542.1582279550003,None,542.1582279550003,None,,,,,,,,,,,,,,,,,,,,,,,,,,,,,,,,,,,,,,,,,,,,001,119,2020_Feb_13_1050,spring_faces,3.1.5,60.086437465052704,
condition files/Stage1_2.xlsx,,T3,B3,c,"['c', 'm']","['Clue', 'Monopoly']","[-0.15, 0.5]","[0.15, 0.5]",1,1,,,,,,,,,0,3,3,3,0,7,7,4,,,,,,,,,,,,,,,,,,,,,,,,,,,,,,,,,,,,,,,,,,,,,,,,,,,,,,,544.12438879,None,544.12438879,None,544.12438879,None,m,0,1.6179065919995992,545.675081632,None,545.675081632,None,545.675081632,None,547.3583006919998,None,547.3583006919998,None,547.3583006919998,None,547.3583006919998,None,,,,,,,,,,,,,,,,,,,,,,,,,,,,,,,,,,,,,,,,,,,,001,119,2020_Feb_13_1050,spring_faces,3.1.5,60.086437465052704,
condition files/Stage1_1.xlsx,,T4,B3,m,"['c', 'm']","['Clue', 'Monopoly']","[-0.15, 0.5]","[0.15, 0.5]",1,1,,,,,,,,,0,4,4,4,0,0,0,6,,,,,,,,,,,,,,,,,,,,,,,,,,,,,,,,,,,,,,,,,,,,,,,,,,,,,,,549.3418467539996,None,549.3418467539996,None,549.3418467539996,None,m,1,1.2332640459999311,550.8917354929999,None,550.8917354929999,None,550.8917354929999,None,552.1918027949996,None,552.1918027949996,None,552.1918027949996,None,552.1918027949996,None,,,,,,,,,,,,,,,,,,,,,,,,,,,,,,,,,,,,,,,,,,,,001,119,2020_Feb_13_1050,spring_faces,3.1.5,60.086437465052704,
condition files/Stage1_1.xlsx,,B3,T3,c,"['c', 'm']","['Clue', 'Monopoly']","[-0.15, 0.5]","[0.15, 0.5]",1,1,,,,,,,,,0,4,4,4,0,1,1,4,,,,,,,,,,,,,,,,,,,,,,,,,,,,,,,,,,,,,,,,,,,,,,,,,,,,,,,554.1578488099995,None,554.1578488099995,None,554.1578488099995,None,m,0,1.0405593870000303,555.7085381719999,None,555.7085381719999,None,555.7085381719999,None,556.825412315,None,556.825412315,None,556.825412315,None,556.825412315,None,,,,,,,,,,,,,,,,,,,,,,,,,,,,,,,,,,,,,,,,,,,,001,119,2020_Feb_13_1050,spring_faces,3.1.5,60.086437465052704,
condition files/Stage1_1.xlsx,,T2,B2,m,"['c', 'm']","['Clue', 'Monopoly']","[-0.15, 0.5]","[0.15, 0.5]",1,1,,,,,,,,,0,4,4,4,0,2,2,3,,,,,,,,,,,,,,,,,,,,,,,,,,,,,,,,,,,,,,,,,,,,,,,,,,,,,,,558.7747901699995,None,558.7747901699995,None,558.7747901699995,None,m,1,1.6715944640000089,560.3095294499999,None,560.3095294499999,None,560.3095294499999,None,562.0426737449998,None,562.0426737449998,None,562.0426737449998,None,562.0426737449998,None,,,,,,,,,,,,,,,,,,,,,,,,,,,,,,,,,,,,,,,,,,,,001,119,2020_Feb_13_1050,spring_faces,3.1.5,60.086437465052704,
condition files/Stage1_1.xlsx,,T1,B1,c,"['c', 'm']","['Clue', 'Monopoly']","[-0.15, 0.5]","[0.15, 0.5]",1,1,,,,,,,,,0,4,4,4,0,3,3,0,,,,,,,,,,,,,,,,,,,,,,,,,,,,,,,,,,,,,,,,,,,,,,,,,,,,,,,564.0081037339996,None,564.0081037339996,None,564.0081037339996,None,m,0,2.2150931129999663,565.5579229129999,None,565.5579229129999,None,565.5579229129999,None,567.8418425049995,None,567.8418425049995,None,567.8418425049995,None,567.8418425049995,None,,,,,,,,,,,,,,,,,,,,,,,,,,,,,,,,,,,,,,,,,,,,001,119,2020_Feb_13_1050,spring_faces,3.1.5,60.086437465052704,
condition files/Stage1_1.xlsx,,T3,B4,c,"['c', 'm']","['Clue', 'Monopoly']","[-0.15, 0.5]","[0.15, 0.5]",1,1,,,,,,,,,0,4,4,4,0,4,4,5,,,,,,,,,,,,,,,,,,,,,,,,,,,,,,,,,,,,,,,,,,,,,,,,,,,,,,,569.7915413370001,None,569.7915413370001,None,569.7915413370001,None,m,0,3.9355446270001266,571.325501669,None,571.325501669,None,571.325501669,None,575.3253254740002,None,575.3253254740002,None,575.3253254740002,None,575.3253254740002,None,,,,,,,,,,,,,,,,,,,,,,,,,,,,,,,,,,,,,,,,,,,,001,119,2020_Feb_13_1050,spring_faces,3.1.5,60.086437465052704,
condition files/Stage1_1.xlsx,,B4,T4,m,"['c', 'm']","['Clue', 'Monopoly']","[-0.15, 0.5]","[0.15, 0.5]",1,1,,,,,,,,,0,4,4,4,0,5,5,7,,,,,,,,,,,,,,,,,,,,,,,,,,,,,,,,,,,,,,,,,,,,,,,,,,,,,,,577.2909812400003,None,577.2909812400003,None,577.2909812400003,None,m,1,1.5070114270001795,578.8261120979996,None,578.8261120979996,None,578.8261120979996,None,580.3917001379996,None,580.3917001379996,None,580.3917001379996,None,580.3917001379996,None,,,,,,,,,,,,,,,,,,,,,,,,,,,,,,,,,,,,,,,,,,,,001,119,2020_Feb_13_1050,spring_faces,3.1.5,60.086437465052704,
condition files/Stage1_1.xlsx,,B2,T1,m,"['c', 'm']","['Clue', 'Monopoly']","[-0.15, 0.5]","[0.15, 0.5]",1,1,,,,,,,,,0,4,4,4,0,6,6,2,,,,,,,,,,,,,,,,,,,,,,,,,,,,,,,,,,,,,,,,,,,,,,,,,,,,,,,582.3582894330002,None,582.3582894330002,None,582.3582894330002,None,c,0,5.016532509999706,583.9085114589998,None,583.9085114589998,None,583.9085114589998,None,588.9751169350002,None,588.9751169350002,None,588.9751169350002,None,588.9751169350002,None,,,,,,,,,,,,,,,,,,,,,,,,,,,,,,,,,,,,,,,,,,,,001,119,2020_Feb_13_1050,spring_faces,3.1.5,60.086437465052704,
condition files/Stage1_1.xlsx,,B1,T2,c,"['c', 'm']","['Clue', 'Monopoly']","[-0.15, 0.5]","[0.15, 0.5]",1,1,,,,,,,,,0,4,4,4,0,7,7,1,,,,,,,,,,,,,,,,,,,,,,,,,,,,,,,,,,,,,,,,,,,,,,,,,,,,,,,590.941135432,None,590.941135432,None,590.941135432,None,m,0,3.103952360999756,592.4771644559996,None,592.4771644559996,None,592.4771644559996,None,595.6442440829996,None,595.6442440829996,None,595.6442440829996,None,595.6442440829996,None,,,,,,,,,,,,,,,,,,,,,,,,,,,,,,,,,,,,,,,,,,,,001,119,2020_Feb_13_1050,spring_faces,3.1.5,60.086437465052704,
condition files/Stage1_2.xlsx,,T4,B4,m,"['c', 'm']","['Clue', 'Monopoly']","[-0.15, 0.5]","[0.15, 0.5]",1,1,,,,,,,,,0,5,5,5,0,0,0,7,,,,,,,,,,,,,,,,,,,,,,,,,,,,,,,,,,,,,,,,,,,,,,,,,,,,,,,597.624933094,None,597.624933094,None,597.624933094,None,m,1,2.4218938169997273,599.1751519319996,None,599.1751519319996,None,599.1751519319996,None,601.658991067,None,601.658991067,None,601.658991067,None,601.658991067,None,,,,,,,,,,,,,,,,,,,,,,,,,,,,,,,,,,,,,,,,,,,,001,119,2020_Feb_13_1050,spring_faces,3.1.5,60.086437465052704,
condition files/Stage1_2.xlsx,,T1,B2,m,"['c', 'm']","['Clue', 'Monopoly']","[-0.15, 0.5]","[0.15, 0.5]",1,1,,,,,,,,,0,5,5,5,0,1,1,2,,,,,,,,,,,,,,,,,,,,,,,,,,,,,,,,,,,,,,,,,,,,,,,,,,,,,,,603.6246518449998,None,603.6246518449998,None,603.6246518449998,None,m,1,4.197211776999211,605.1598299279995,None,605.1598299279995,None,605.1598299279995,None,609.4082667479997,None,609.4082667479997,None,609.4082667479997,None,609.4082667479997,None,,,,,,,,,,,,,,,,,,,,,,,,,,,,,,,,,,,,,,,,,,,,001,119,2020_Feb_13_1050,spring_faces,3.1.5,60.086437465052704,
condition files/Stage1_2.xlsx,,B2,T2,m,"['c', 'm']","['Clue', 'Monopoly']","[-0.15, 0.5]","[0.15, 0.5]",1,1,,,,,,,,,0,5,5,5,0,2,2,3,,,,,,,,,,,,,,,,,,,,,,,,,,,,,,,,,,,,,,,,,,,,,,,,,,,,,,,611.375044673,None,611.375044673,None,611.375044673,None,c,0,3.3449949790001483,612.9080485039995,None,612.9080485039995,None,612.9080485039995,None,616.30855479,None,616.30855479,None,616.30855479,None,616.30855479,None,,,,,,,,,,,,,,,,,,,,,,,,,,,,,,,,,,,,,,,,,,,,001,119,2020_Feb_13_1050,spring_faces,3.1.5,60.086437465052704,
condition files/Stage1_2.xlsx,,B1,T1,c,"['c', 'm']","['Clue', 'Monopoly']","[-0.15, 0.5]","[0.15, 0.5]",1,1,,,,,,,,,0,5,5,5,0,3,3,0,,,,,,,,,,,,,,,,,,,,,,,,,,,,,,,,,,,,,,,,,,,,,,,,,,,,,,,618.2748439059997,None,618.2748439059997,None,618.2748439059997,None,c,1,2.586420933000227,619.8106181450003,None,619.8106181450003,None,619.8106181450003,None,622.4608510239996,None,622.4608510239996,None,622.4608510239996,None,622.4608510239996,None,,,,,,,,,,,,,,,,,,,,,,,,,,,,,,,,,,,,,,,,,,,,001,119,2020_Feb_13_1050,spring_faces,3.1.5,60.086437465052704,
condition files/Stage1_2.xlsx,,B3,T4,m,"['c', 'm']","['Clue', 'Monopoly']","[-0.15, 0.5]","[0.15, 0.5]",1,1,,,,,,,,,0,5,5,5,0,4,4,6,,,,,,,,,,,,,,,,,,,,,,,,,,,,,,,,,,,,,,,,,,,,,,,,,,,,,,,624.4248397989995,None,624.4248397989995,None,624.4248397989995,None,c,0,2.0218012719997205,625.9752294769996,None,625.9752294769996,None,625.9752294769996,None,628.0753118789999,None,628.0753118789999,None,628.0753118789999,None,628.0753118789999,None,,,,,,,,,,,,,,,,,,,,,,,,,,,,,,,,,,,,,,,,,,,,001,119,2020_Feb_13_1050,spring_faces,3.1.5,60.086437465052704,
condition files/Stage1_2.xlsx,,T3,B3,c,"['c', 'm']","['Clue', 'Monopoly']","[-0.15, 0.5]","[0.15, 0.5]",1,1,,,,,,,,,0,5,5,5,0,5,5,4,,,,,,,,,,,,,,,,,,,,,,,,,,,,,,,,,,,,,,,,,,,,,,,,,,,,,,,630.0243195809999,None,630.0243195809999,None,630.0243195809999,None,m,0,3.5902888319997146,631.5748080739995,None,631.5748080739995,None,631.5748080739995,None,635.2419940560003,None,635.2419940560003,None,635.2419940560003,None,635.2419940560003,None,,,,,,,,,,,,,,,,,,,,,,,,,,,,,,,,,,,,,,,,,,,,001,119,2020_Feb_13_1050,spring_faces,3.1.5,60.086437465052704,
condition files/Stage1_2.xlsx,,T2,B1,c,"['c', 'm']","['Clue', 'Monopoly']","[-0.15, 0.5]","[0.15, 0.5]",1,1,,,,,,,,,0,5,5,5,0,6,6,1,,,,,,,,,,,,,,,,,,,,,,,,,,,,,,,,,,,,,,,,,,,,,,,,,,,,,,,637.1915115949996,None,637.1915115949996,None,637.1915115949996,None,c,1,2.0391793230000985,638.7419161090002,None,638.7419161090002,None,638.7419161090002,None,640.8417667409994,None,640.8417667409994,None,640.8417667409994,None,640.8417667409994,None,,,,,,,,,,,,,,,,,,,,,,,,,,,,,,,,,,,,,,,,,,,,001,119,2020_Feb_13_1050,spring_faces,3.1.5,60.086437465052704,
condition files/Stage1_2.xlsx,,B4,T3,c,"['c', 'm']","['Clue', 'Monopoly']","[-0.15, 0.5]","[0.15, 0.5]",1,1,,,,,,,,,0,5,5,5,0,7,7,5,,,,,,,,,,,,,,,,,,,,,,,,,,,,,,,,,,,,,,,,,,,,,,,,,,,,,,,642.8081789489997,None,642.8081789489997,None,642.8081789489997,None,c,1,2.005903170000238,644.3432108779998,None,644.3432108779998,None,644.3432108779998,None,646.40804991,None,646.40804991,None,646.40804991,None,646.40804991,None,,,,,,,,,,,,,,,,,,,,,,,,,,,,,,,,,,,,,,,,,,,,001,119,2020_Feb_13_1050,spring_faces,3.1.5,60.086437465052704,
condition files/Stage1_1.xlsx,,T3,B4,c,"['c', 'm']","['Clue', 'Monopoly']","[-0.15, 0.5]","[0.15, 0.5]",1,1,,,,,,,,,0,6,6,6,0,0,0,5,,,,,,,,,,,,,,,,,,,,,,,,,,,,,,,,,,,,,,,,,,,,,,,,,,,,,,,648.3914941189996,None,648.3914941189996,None,648.3914941189996,None,c,1,7.911921130999872,649.9250939969997,None,649.9250939969997,None,649.9250939969997,None,657.8914597329995,None,657.8914597329995,None,657.8914597329995,None,657.8914597329995,None,,,,,,,,,,,,,,,,,,,,,,,,,,,,,,,,,,,,,,,,,,,,001,119,2020_Feb_13_1050,spring_faces,3.1.5,60.086437465052704,
condition files/Stage1_1.xlsx,,B2,T1,m,"['c', 'm']","['Clue', 'Monopoly']","[-0.15, 0.5]","[0.15, 0.5]",1,1,,,,,,,,,0,6,6,6,0,1,1,2,,,,,,,,,,,,,,,,,,,,,,,,,,,,,,,,,,,,,,,,,,,,,,,,,,,,,,,659.8580423960002,None,659.8580423960002,None,659.8580423960002,None,m,1,2.4138656599998285,661.3911817939997,None,661.3911817939997,None,661.3911817939997,None,663.8597615230001,None,663.8597615230001,None,663.8597615230001,None,663.8597615230001,None,,,,,,,,,,,,,,,,,,,,,,,,,,,,,,,,,,,,,,,,,,,,001,119,2020_Feb_13_1050,spring_faces,3.1.5,60.086437465052704,
condition files/Stage1_1.xlsx,,B3,T3,c,"['c', 'm']","['Clue', 'Monopoly']","[-0.15, 0.5]","[0.15, 0.5]",1,1,,,,,,,,,0,6,6,6,0,2,2,4,,,,,,,,,,,,,,,,,,,,,,,,,,,,,,,,,,,,,,,,,,,,,,,,,,,,,,,665.8250106180003,None,665.8250106180003,None,665.8250106180003,None,c,1,2.525662973999715,667.3753694770003,None,667.3753694770003,None,667.3753694770003,None,669.9604951219999,None,669.9604951219999,None,669.9604951219999,None,669.9604951219999,None,,,,,,,,,,,,,,,,,,,,,,,,,,,,,,,,,,,,,,,,,,,,001,119,2020_Feb_13_1050,spring_faces,3.1.5,60.086437465052704,
condition files/Stage1_1.xlsx,,T4,B3,m,"['c', 'm']","['Clue', 'Monopoly']","[-0.15, 0.5]","[0.15, 0.5]",1,1,,,,,,,,,0,6,6,6,0,3,3,6,,,,,,,,,,,,,,,,,,,,,,,,,,,,,,,,,,,,,,,,,,,,,,,,,,,,,,,671.9248685100001,None,671.9248685100001,None,671.9248685100001,None,c,0,3.514647498999693,673.4583973099998,None,673.4583973099998,None,673.4583973099998,None,677.0269491460003,None,677.0269491460003,None,677.0269491460003,None,677.0269491460003,None,,,,,,,,,,,,,,,,,,,,,,,,,,,,,,,,,,,,,,,,,,,,001,119,2020_Feb_13_1050,spring_faces,3.1.5,60.086437465052704,
condition files/Stage1_1.xlsx,,T2,B2,m,"['c', 'm']","['Clue', 'Monopoly']","[-0.15, 0.5]","[0.15, 0.5]",1,1,,,,,,,,,0,6,6,6,0,4,4,3,,,,,,,,,,,,,,,,,,,,,,,,,,,,,,,,,,,,,,,,,,,,,,,,,,,,,,,678.9915140559997,None,678.9915140559997,None,678.9915140559997,None,m,1,1.6309960799999317,680.5260555550003,None,680.5260555550003,None,680.5260555550003,None,682.208250834,None,682.208250834,None,682.208250834,None,682.208250834,None,,,,,,,,,,,,,,,,,,,,,,,,,,,,,,,,,,,,,,,,,,,,001,119,2020_Feb_13_1050,spring_faces,3.1.5,60.086437465052704,
condition files/Stage1_1.xlsx,,B4,T4,m,"['c', 'm']","['Clue', 'Monopoly']","[-0.15, 0.5]","[0.15, 0.5]",1,1,,,,,,,,,0,6,6,6,0,5,5,7,,,,,,,,,,,,,,,,,,,,,,,,,,,,,,,,,,,,,,,,,,,,,,,,,,,,,,,684.1748249129996,None,684.1748249129996,None,684.1748249129996,None,m,1,2.319887860000563,685.7091714050002,None,685.7091714050002,None,685.7091714050002,None,688.0910789600002,None,688.0910789600002,None,688.0910789600002,None,688.0910789600002,None,,,,,,,,,,,,,,,,,,,,,,,,,,,,,,,,,,,,,,,,,,,,001,119,2020_Feb_13_1050,spring_faces,3.1.5,60.086437465052704,
condition files/Stage1_1.xlsx,,T1,B1,c,"['c', 'm']","['Clue', 'Monopoly']","[-0.15, 0.5]","[0.15, 0.5]",1,1,,,,,,,,,0,6,6,6,0,6,6,0,,,,,,,,,,,,,,,,,,,,,,,,,,,,,,,,,,,,,,,,,,,,,,,,,,,,,,,690.0580805239997,None,690.0580805239997,None,690.0580805239997,None,m,0,2.117221122999581,691.5917801160003,None,691.5917801160003,None,691.5917801160003,None,693.791818574,None,693.791818574,None,693.791818574,None,693.791818574,None,,,,,,,,,,,,,,,,,,,,,,,,,,,,,,,,,,,,,,,,,,,,001,119,2020_Feb_13_1050,spring_faces,3.1.5,60.086437465052704,
condition files/Stage1_1.xlsx,,B1,T2,c,"['c', 'm']","['Clue', 'Monopoly']","[-0.15, 0.5]","[0.15, 0.5]",1,1,,,,,,,,,0,6,6,6,0,7,7,1,,,,,,,,,,,,,,,,,,,,,,,,,,,,,,,,,,,,,,,,,,,,,,,,,,,,,,,695.7411404080003,None,695.7411404080003,None,695.7411404080003,None,c,1,1.089147351000065,697.2918532940002,None,697.2918532940002,None,697.2918532940002,None,698.4412263759996,None,698.4412263759996,None,698.4412263759996,None,698.4412263759996,None,,,,,,,,,,,,,,,,,,,,,,,,,,,,,,,,,,,,,,,,,,,,001,119,2020_Feb_13_1050,spring_faces,3.1.5,60.086437465052704,
condition files/Stage1_2.xlsx,,T4,B4,m,"['c', 'm']","['Clue', 'Monopoly']","[-0.15, 0.5]","[0.15, 0.5]",1,1,,,,,,,,,0,7,7,7,0,0,0,7,,,,,,,,,,,,,,,,,,,,,,,,,,,,,,,,,,,,,,,,,,,,,,,,,,,,,,,700.4252958320003,None,700.4252958320003,None,700.4252958320003,None,m,1,1.1580189120004434,701.975096655,None,701.975096655,None,701.975096655,None,703.1923825040003,None,703.1923825040003,None,703.1923825040003,None,703.1923825040003,None,,,,,,,,,,,,,,,,,,,,,,,,,,,,,,,,,,,,,,,,,,,,001,119,2020_Feb_13_1050,spring_faces,3.1.5,60.086437465052704,
condition files/Stage1_2.xlsx,,B3,T4,m,"['c', 'm']","['Clue', 'Monopoly']","[-0.15, 0.5]","[0.15, 0.5]",1,1,,,,,,,,,0,7,7,7,0,1,1,6,,,,,,,,,,,,,,,,,,,,,,,,,,,,,,,,,,,,,,,,,,,,,,,,,,,,,,,705.1582892079996,None,705.1582892079996,None,705.1582892079996,None,m,1,6.664791115000298,706.6922548419998,None,706.6922548419998,None,706.6922548419998,None,713.408126329,None,713.408126329,None,713.408126329,None,713.408126329,None,,,,,,,,,,,,,,,,,,,,,,,,,,,,,,,,,,,,,,,,,,,,001,119,2020_Feb_13_1050,spring_faces,3.1.5,60.086437465052704,
condition files/Stage1_2.xlsx,,B2,T2,m,"['c', 'm']","['Clue', 'Monopoly']","[-0.15, 0.5]","[0.15, 0.5]",1,1,,,,,,,,,0,7,7,7,0,2,2,3,,,,,,,,,,,,,,,,,,,,,,,,,,,,,,,,,,,,,,,,,,,,,,,,,,,,,,,715.3746312000003,None,715.3746312000003,None,715.3746312000003,None,m,1,2.2235994599996047,716.9095293119999,None,716.9095293119999,None,716.9095293119999,None,719.1914992470001,None,719.1914992470001,None,719.1914992470001,None,719.1914992470001,None,,,,,,,,,,,,,,,,,,,,,,,,,,,,,,,,,,,,,,,,,,,,001,119,2020_Feb_13_1050,spring_faces,3.1.5,60.086437465052704,
condition files/Stage1_2.xlsx,,B4,T3,c,"['c', 'm']","['Clue', 'Monopoly']","[-0.15, 0.5]","[0.15, 0.5]",1,1,,,,,,,,,0,7,7,7,0,3,3,5,,,,,,,,,,,,,,,,,,,,,,,,,,,,,,,,,,,,,,,,,,,,,,,,,,,,,,,721.1575680750002,None,721.1575680750002,None,721.1575680750002,None,c,1,2.4893701499995586,722.6917226309997,None,722.6917226309997,None,722.6917226309997,None,725.2584415299998,None,725.2584415299998,None,725.2584415299998,None,725.2584415299998,None,,,,,,,,,,,,,,,,,,,,,,,,,,,,,,,,,,,,,,,,,,,,001,119,2020_Feb_13_1050,spring_faces,3.1.5,60.086437465052704,
condition files/Stage1_2.xlsx,,B1,T1,c,"['c', 'm']","['Clue', 'Monopoly']","[-0.15, 0.5]","[0.15, 0.5]",1,1,,,,,,,,,0,7,7,7,0,4,4,0,,,,,,,,,,,,,,,,,,,,,,,,,,,,,,,,,,,,,,,,,,,,,,,,,,,,,,,727.2081373929996,None,727.2081373929996,None,727.2081373929996,None,c,1,3.5273777349993907,728.7416410059996,None,728.7416410059996,None,728.7416410059996,None,732.3253790099998,None,732.3253790099998,None,732.3253790099998,None,732.3253790099998,None,,,,,,,,,,,,,,,,,,,,,,,,,,,,,,,,,,,,,,,,,,,,001,119,2020_Feb_13_1050,spring_faces,3.1.5,60.086437465052704,
condition files/Stage1_2.xlsx,,T1,B2,m,"['c', 'm']","['Clue', 'Monopoly']","[-0.15, 0.5]","[0.15, 0.5]",1,1,,,,,,,,,0,7,7,7,0,5,5,2,,,,,,,,,,,,,,,,,,,,,,,,,,,,,,,,,,,,,,,,,,,,,,,,,,,,,,,734.291237898,None,734.291237898,None,734.291237898,None,m,1,2.268040981000013,735.8250127259998,None,735.8250127259998,None,735.8250127259998,None,738.158439117,None,738.158439117,None,738.158439117,None,738.158439117,None,,,,,,,,,,,,,,,,,,,,,,,,,,,,,,,,,,,,,,,,,,,,001,119,2020_Feb_13_1050,spring_faces,3.1.5,60.086437465052704,
condition files/Stage1_2.xlsx,,T2,B1,c,"['c', 'm']","['Clue', 'Monopoly']","[-0.15, 0.5]","[0.15, 0.5]",1,1,,,,,,,,,0,7,7,7,0,6,6,1,,,,,,,,,,,,,,,,,,,,,,,,,,,,,,,,,,,,,,,,,,,,,,,,,,,,,,,740.1248033259999,None,740.1248033259999,None,740.1248033259999,None,m,0,1.3778413009995347,741.6751934610002,None,741.6751934610002,None,741.6751934610002,None,743.1090961259997,None,743.1090961259997,None,743.1090961259997,None,743.1090961259997,None,,,,,,,,,,,,,,,,,,,,,,,,,,,,,,,,,,,,,,,,,,,,001,119,2020_Feb_13_1050,spring_faces,3.1.5,60.086437465052704,
condition files/Stage1_2.xlsx,,T3,B3,c,"['c', 'm']","['Clue', 'Monopoly']","[-0.15, 0.5]","[0.15, 0.5]",1,1,,,,,,,,,0,7,7,7,0,7,7,4,,,,,,,,,,,,,,,,,,,,,,,,,,,,,,,,,,,,,,,,,,,,,,,,,,,,,,,745.0753347660002,None,745.0753347660002,None,745.0753347660002,None,m,0,1.3558850050003457,746.6252134759998,None,746.6252134759998,None,746.6252134759998,None,748.041061809,None,748.041061809,None,748.041061809,None,748.041061809,None,,,,,,,,,,,,,,,,,,,,,,,,,,,,,,,,,,,,,,,,,,,,001,119,2020_Feb_13_1050,spring_faces,3.1.5,60.086437465052704,
condition files/Stage1_1.xlsx,,T1,B1,c,"['c', 'm']","['Clue', 'Monopoly']","[-0.15, 0.5]","[0.15, 0.5]",1,1,,,,,,,,,0,8,8,8,0,0,0,0,,,,,,,,,,,,,,,,,,,,,,,,,,,,,,,,,,,,,,,,,,,,,,,,,,,,,,,750.0250288030002,None,750.0250288030002,None,750.0250288030002,None,c,1,1.2378251639993323,751.5592417299995,None,751.5592417299995,None,751.5592417299995,None,752.8575306759994,None,752.8575306759994,None,752.8575306759994,None,752.8575306759994,None,,,,,,,,,,,,,,,,,,,,,,,,,,,,,,,,,,,,,,,,,,,,001,119,2020_Feb_13_1050,spring_faces,3.1.5,60.086437465052704,
condition files/Stage1_1.xlsx,,T4,B3,m,"['c', 'm']","['Clue', 'Monopoly']","[-0.15, 0.5]","[0.15, 0.5]",1,1,,,,,,,,,0,8,8,8,0,1,1,6,,,,,,,,,,,,,,,,,,,,,,,,,,,,,,,,,,,,,,,,,,,,,,,,,,,,,,,754.8247826919996,None,754.8247826919996,None,754.8247826919996,None,m,1,1.7337754970003516,756.3752366110002,None,756.3752366110002,None,756.3752366110002,None,758.1920898349999,None,758.1920898349999,None,758.1920898349999,None,758.1920898349999,None,,,,,,,,,,,,,,,,,,,,,,,,,,,,,,,,,,,,,,,,,,,,001,119,2020_Feb_13_1050,spring_faces,3.1.5,60.086437465052704,
condition files/Stage1_1.xlsx,,T2,B2,m,"['c', 'm']","['Clue', 'Monopoly']","[-0.15, 0.5]","[0.15, 0.5]",1,1,,,,,,,,,0,8,8,8,0,2,2,3,,,,,,,,,,,,,,,,,,,,,,,,,,,,,,,,,,,,,,,,,,,,,,,,,,,,,,,760.1417237739997,None,760.1417237739997,None,760.1417237739997,None,c,0,11.504568476999339,761.6765506439997,None,761.6765506439997,None,761.6765506439997,None,773.2414482140002,None,773.2414482140002,None,773.2414482140002,None,773.2414482140002,None,,,,,,,,,,,,,,,,,,,,,,,,,,,,,,,,,,,,,,,,,,,,001,119,2020_Feb_13_1050,spring_faces,3.1.5,60.086437465052704,
condition files/Stage1_1.xlsx,,B3,T3,c,"['c', 'm']","['Clue', 'Monopoly']","[-0.15, 0.5]","[0.15, 0.5]",1,1,,,,,,,,,0,8,8,8,0,3,3,4,,,,,,,,,,,,,,,,,,,,,,,,,,,,,,,,,,,,,,,,,,,,,,,,,,,,,,,775.2080647849998,None,775.2080647849998,None,775.2080647849998,None,c,1,5.510539717999563,776.7584711070003,None,776.7584711070003,None,776.7584711070003,None,782.3261680329997,None,782.3261680329997,None,782.3261680329997,None,782.3261680329997,None,,,,,,,,,,,,,,,,,,,,,,,,,,,,,,,,,,,,,,,,,,,,001,119,2020_Feb_13_1050,spring_faces,3.1.5,60.086437465052704,
condition files/Stage1_1.xlsx,,B2,T1,m,"['c', 'm']","['Clue', 'Monopoly']","[-0.15, 0.5]","[0.15, 0.5]",1,1,,,,,,,,,0,8,8,8,0,4,4,2,,,,,,,,,,,,,,,,,,,,,,,,,,,,,,,,,,,,,,,,,,,,,,,,,,,,,,,784.2914981909998,None,784.2914981909998,None,784.2914981909998,None,m,1,4.571219192999706,785.8258505920003,None,785.8258505920003,None,785.8258505920003,None,790.459070672,None,790.459070672,None,790.459070672,None,790.459070672,None,,,,,,,,,,,,,,,,,,,,,,,,,,,,,,,,,,,,,,,,,,,,001,119,2020_Feb_13_1050,spring_faces,3.1.5,60.086437465052704,
condition files/Stage1_1.xlsx,,T3,B4,c,"['c', 'm']","['Clue', 'Monopoly']","[-0.15, 0.5]","[0.15, 0.5]",1,1,,,,,,,,,0,8,8,8,0,5,5,5,,,,,,,,,,,,,,,,,,,,,,,,,,,,,,,,,,,,,,,,,,,,,,,,,,,,,,,792.4248401679997,None,792.4248401679997,None,792.4248401679997,None,c,1,0.9668044439995356,793.9582127169997,None,793.9582127169997,None,793.9582127169997,None,794.9769834930003,None,794.9769834930003,None,794.9769834930003,None,794.9769834930003,None,,,,,,,,,,,,,,,,,,,,,,,,,,,,,,,,,,,,,,,,,,,,001,119,2020_Feb_13_1050,spring_faces,3.1.5,60.086437465052704,
condition files/Stage1_1.xlsx,,B4,T4,m,"['c', 'm']","['Clue', 'Monopoly']","[-0.15, 0.5]","[0.15, 0.5]",1,1,,,,,,,,,0,8,8,8,0,6,6,7,,,,,,,,,,,,,,,,,,,,,,,,,,,,,,,,,,,,,,,,,,,,,,,,,,,,,,,796.9417274019997,None,796.9417274019997,None,796.9417274019997,None,m,1,1.6821354280000378,798.4748826229998,None,798.4748826229998,None,798.4748826229998,None,800.209054641,None,800.209054641,None,800.209054641,None,800.209054641,None,,,,,,,,,,,,,,,,,,,,,,,,,,,,,,,,,,,,,,,,,,,,001,119,2020_Feb_13_1050,spring_faces,3.1.5,60.086437465052704,
condition files/Stage1_1.xlsx,,B1,T2,c,"['c', 'm']","['Clue', 'Monopoly']","[-0.15, 0.5]","[0.15, 0.5]",1,1,,,,,,,,,0,8,8,8,0,7,7,1,,,,,,,,,,,,,,,,,,,,,,,,,,,,,,,,,,,,,,,,,,,,,,,,,,,,,,,802.1747417759998,None,802.1747417759998,None,802.1747417759998,None,c,1,1.8396244880004815,803.7094928799997,None,803.7094928799997,None,803.7094928799997,None,805.6102674550002,None,805.6102674550002,None,805.6102674550002,None,805.6102674550002,None,,,,,,,,,,,,,,,,,,,,,,,,,,,,,,,,,,,,,,,,,,,,001,119,2020_Feb_13_1050,spring_faces,3.1.5,60.086437465052704,
condition files/Stage1_2.xlsx,,T1,B2,m,"['c', 'm']","['Clue', 'Monopoly']","[-0.15, 0.5]","[0.15, 0.5]",1,1,,,,,,,,,0,9,9,9,0,0,0,2,,,,,,,,,,,,,,,,,,,,,,,,,,,,,,,,,,,,,,,,,,,,,,,,,,,,,,,807.5917429789997,None,807.5917429789997,None,807.5917429789997,None,c,0,2.983234326999991,809.1418105009998,None,809.1418105009998,None,809.1418105009998,None,812.191808087,None,812.191808087,None,812.191808087,None,812.191808087,None,,,,,,,,,,,,,,,,,,,,,,,,,,,,,,,,,,,,,,,,,,,,001,119,2020_Feb_13_1050,spring_faces,3.1.5,60.086437465052704,
condition files/Stage1_2.xlsx,,T4,B4,m,"['c', 'm']","['Clue', 'Monopoly']","[-0.15, 0.5]","[0.15, 0.5]",1,1,,,,,,,,,0,9,9,9,0,1,1,7,,,,,,,,,,,,,,,,,,,,,,,,,,,,,,,,,,,,,,,,,,,,,,,,,,,,,,,814.141573981,None,814.141573981,None,814.141573981,None,m,1,1.6661403380003321,815.6749126799996,None,815.6749126799996,None,815.6749126799996,None,817.3915220700001,None,817.3915220700001,None,817.3915220700001,None,817.3915220700001,None,,,,,,,,,,,,,,,,,,,,,,,,,,,,,,,,,,,,,,,,,,,,001,119,2020_Feb_13_1050,spring_faces,3.1.5,60.086437465052704,
condition files/Stage1_2.xlsx,,B2,T2,m,"['c', 'm']","['Clue', 'Monopoly']","[-0.15, 0.5]","[0.15, 0.5]",1,1,,,,,,,,,0,9,9,9,0,2,2,3,,,,,,,,,,,,,,,,,,,,,,,,,,,,,,,,,,,,,,,,,,,,,,,,,,,,,,,819.3579397539997,None,819.3579397539997,None,819.3579397539997,None,c,0,5.408593281999856,820.908515479,None,820.908515479,None,820.908515479,None,826.3745286650001,None,826.3745286650001,None,826.3745286650001,None,826.3745286650001,None,,,,,,,,,,,,,,,,,,,,,,,,,,,,,,,,,,,,,,,,,,,,001,119,2020_Feb_13_1050,spring_faces,3.1.5,60.086437465052704,
condition files/Stage1_2.xlsx,,B1,T1,c,"['c', 'm']","['Clue', 'Monopoly']","[-0.15, 0.5]","[0.15, 0.5]",1,1,,,,,,,,,0,9,9,9,0,3,3,0,,,,,,,,,,,,,,,,,,,,,,,,,,,,,,,,,,,,,,,,,,,,,,,,,,,,,,,828.3416421809998,None,828.3416421809998,None,828.3416421809998,None,c,1,3.146260878999783,829.8747753159996,None,829.8747753159996,None,829.8747753159996,None,833.0914424960001,None,833.0914424960001,None,833.0914424960001,None,833.0914424960001,None,,,,,,,,,,,,,,,,,,,,,,,,,,,,,,,,,,,,,,,,,,,,001,119,2020_Feb_13_1050,spring_faces,3.1.5,60.086437465052704,
condition files/Stage1_2.xlsx,,T3,B3,c,"['c', 'm']","['Clue', 'Monopoly']","[-0.15, 0.5]","[0.15, 0.5]",1,1,,,,,,,,,0,9,9,9,0,4,4,4,,,,,,,,,,,,,,,,,,,,,,,,,,,,,,,,,,,,,,,,,,,,,,,,,,,,,,,835.041527806,None,835.041527806,None,835.041527806,None,c,1,1.8533405779999157,836.5916981339997,None,836.5916981339997,None,836.5916981339997,None,838.5082194179995,None,838.5082194179995,None,838.5082194179995,None,838.5082194179995,None,,,,,,,,,,,,,,,,,,,,,,,,,,,,,,,,,,,,,,,,,,,,001,119,2020_Feb_13_1050,spring_faces,3.1.5,60.086437465052704,
condition files/Stage1_2.xlsx,,T2,B1,c,"['c', 'm']","['Clue', 'Monopoly']","[-0.15, 0.5]","[0.15, 0.5]",1,1,,,,,,,,,0,9,9,9,0,5,5,1,,,,,,,,,,,,,,,,,,,,,,,,,,,,,,,,,,,,,,,,,,,,,,,,,,,,,,,840.4745502639998,None,840.4745502639998,None,840.4745502639998,None,c,1,1.364679958999659,842.0083724469996,None,842.0083724469996,None,842.0083724469996,None,843.4250270539997,None,843.4250270539997,None,843.4250270539997,None,843.4250270539997,None,,,,,,,,,,,,,,,,,,,,,,,,,,,,,,,,,,,,,,,,,,,,001,119,2020_Feb_13_1050,spring_faces,3.1.5,60.086437465052704,
condition files/Stage1_2.xlsx,,B4,T3,c,"['c', 'm']","['Clue', 'Monopoly']","[-0.15, 0.5]","[0.15, 0.5]",1,1,,,,,,,,,0,9,9,9,0,6,6,5,,,,,,,,,,,,,,,,,,,,,,,,,,,,,,,,,,,,,,,,,,,,,,,,,,,,,,,845.3915491509997,None,845.3915491509997,None,845.3915491509997,None,c,1,1.0073242179996669,846.9417881629997,None,846.9417881629997,None,846.9417881629997,None,848.0081069110001,None,848.0081069110001,None,848.0081069110001,None,848.0081069110001,None,,,,,,,,,,,,,,,,,,,,,,,,,,,,,,,,,,,,,,,,,,,,001,119,2020_Feb_13_1050,spring_faces,3.1.5,60.086437465052704,
condition files/Stage1_2.xlsx,,B3,T4,m,"['c', 'm']","['Clue', 'Monopoly']","[-0.15, 0.5]","[0.15, 0.5]",1,1,,,,,,,,,0,9,9,9,0,7,7,6,,,,,,,,,,,,,,,,,,,,,,,,,,,,,,,,,,,,,,,,,,,,,,,,,,,,,,,849.9744505930003,None,849.9744505930003,None,849.9744505930003,None,m,1,1.686909488999845,851.5102119960002,None,851.5102119960002,None,851.5102119960002,None,853.2607724489999,None,853.2607724489999,None,853.2607724489999,None,853.2607724489999,None,,,,,,,,,,,,,,,,,,,,,,,,,,,,,,,,,,,,,,,,,,,,001,119,2020_Feb_13_1050,spring_faces,3.1.5,60.086437465052704,
condition files/Stage1_1.xlsx,,T2,B2,m,"['c', 'm']","['Clue', 'Monopoly']","[-0.15, 0.5]","[0.15, 0.5]",1,1,,,,,,,,,0,10,10,10,0,0,0,3,,,,,,,,,,,,,,,,,,,,,,,,,,,,,,,,,,,,,,,,,,,,,,,,,,,,,,,855.2418463699996,None,855.2418463699996,None,855.2418463699996,None,m,1,3.5097256930002914,856.775374418,None,856.775374418,None,856.775374418,None,860.3411266880003,None,860.3411266880003,None,860.3411266880003,None,860.3411266880003,None,,,,,,,,,,,,,,,,,,,,,,,,,,,,,,,,,,,,,,,,,,,,001,119,2020_Feb_13_1050,spring_faces,3.1.5,60.086437465052704,
condition files/Stage1_1.xlsx,,T3,B4,c,"['c', 'm']","['Clue', 'Monopoly']","[-0.15, 0.5]","[0.15, 0.5]",1,1,,,,,,,,,0,10,10,10,0,1,1,5,,,,,,,,,,,,,,,,,,,,,,,,,,,,,,,,,,,,,,,,,,,,,,,,,,,,,,,862.3081970200001,None,862.3081970200001,None,862.3081970200001,None,c,1,1.6741286380001839,863.8429956919999,None,863.8429956919999,None,863.8429956919999,None,865.5746533669999,None,865.5746533669999,None,865.5746533669999,None,865.5746533669999,None,,,,,,,,,,,,,,,,,,,,,,,,,,,,,,,,,,,,,,,,,,,,001,119,2020_Feb_13_1050,spring_faces,3.1.5,60.086437465052704,
condition files/Stage1_1.xlsx,,T4,B3,m,"['c', 'm']","['Clue', 'Monopoly']","[-0.15, 0.5]","[0.15, 0.5]",1,1,,,,,,,,,0,10,10,10,0,2,2,6,,,,,,,,,,,,,,,,,,,,,,,,,,,,,,,,,,,,,,,,,,,,,,,,,,,,,,,867.5415806310002,None,867.5415806310002,None,867.5415806310002,None,m,1,1.161482681999587,869.0915442999994,None,869.0915442999994,None,869.0915442999994,None,870.3250463019995,None,870.3250463019995,None,870.3250463019995,None,870.3250463019995,None,,,,,,,,,,,,,,,,,,,,,,,,,,,,,,,,,,,,,,,,,,,,001,119,2020_Feb_13_1050,spring_faces,3.1.5,60.086437465052704,
condition files/Stage1_1.xlsx,,B3,T3,c,"['c', 'm']","['Clue', 'Monopoly']","[-0.15, 0.5]","[0.15, 0.5]",1,1,,,,,,,,,0,10,10,10,0,3,3,4,,,,,,,,,,,,,,,,,,,,,,,,,,,,,,,,,,,,,,,,,,,,,,,,,,,,,,,872.2742055199997,None,872.2742055199997,None,872.2742055199997,None,m,0,1.1481335669996042,873.808900004,None,873.808900004,None,873.808900004,None,875.0082740179996,None,875.0082740179996,None,875.0082740179996,None,875.0082740179996,None,,,,,,,,,,,,,,,,,,,,,,,,,,,,,,,,,,,,,,,,,,,,001,119,2020_Feb_13_1050,spring_faces,3.1.5,60.086437465052704,
condition files/Stage1_1.xlsx,,B2,T1,m,"['c', 'm']","['Clue', 'Monopoly']","[-0.15, 0.5]","[0.15, 0.5]",1,1,,,,,,,,,0,10,10,10,0,4,4,2,,,,,,,,,,,,,,,,,,,,,,,,,,,,,,,,,,,,,,,,,,,,,,,,,,,,,,,876.9750249819999,None,876.9750249819999,None,876.9750249819999,None,c,0,2.689181261000158,878.5078728990002,None,878.5078728990002,None,878.5078728990002,None,881.2598071800003,None,881.2598071800003,None,881.2598071800003,None,881.2598071800003,None,,,,,,,,,,,,,,,,,,,,,,,,,,,,,,,,,,,,,,,,,,,,001,119,2020_Feb_13_1050,spring_faces,3.1.5,60.086437465052704,
condition files/Stage1_1.xlsx,,B1,T2,c,"['c', 'm']","['Clue', 'Monopoly']","[-0.15, 0.5]","[0.15, 0.5]",1,1,,,,,,,,,0,10,10,10,0,5,5,1,,,,,,,,,,,,,,,,,,,,,,,,,,,,,,,,,,,,,,,,,,,,,,,,,,,,,,,883.2246575119998,None,883.2246575119998,None,883.2246575119998,None,c,1,1.0776605609999024,884.775369811,None,884.775369811,None,884.775369811,None,885.9253167790002,None,885.9253167790002,None,885.9253167790002,None,885.9253167790002,None,,,,,,,,,,,,,,,,,,,,,,,,,,,,,,,,,,,,,,,,,,,,001,119,2020_Feb_13_1050,spring_faces,3.1.5,60.086437465052704,
condition files/Stage1_1.xlsx,,B4,T4,m,"['c', 'm']","['Clue', 'Monopoly']","[-0.15, 0.5]","[0.15, 0.5]",1,1,,,,,,,,,0,10,10,10,0,6,6,7,,,,,,,,,,,,,,,,,,,,,,,,,,,,,,,,,,,,,,,,,,,,,,,,,,,,,,,887.8750359369997,None,887.8750359369997,None,887.8750359369997,None,m,1,2.1402957860000242,889.4088026049994,None,889.4088026049994,None,889.4088026049994,None,891.6082973809998,None,891.6082973809998,None,891.6082973809998,None,891.6082973809998,None,,,,,,,,,,,,,,,,,,,,,,,,,,,,,,,,,,,,,,,,,,,,001,119,2020_Feb_13_1050,spring_faces,3.1.5,60.086437465052704,
condition files/Stage1_1.xlsx,,T1,B1,c,"['c', 'm']","['Clue', 'Monopoly']","[-0.15, 0.5]","[0.15, 0.5]",1,1,,,,,,,,,0,10,10,10,0,7,7,0,,,,,,,,,,,,,,,,,,,,,,,,,,,,,,,,,,,,,,,,,,,,,,,,,,,,,,,893.5751149050002,None,893.5751149050002,None,893.5751149050002,None,c,1,2.759691095000562,895.1252571579998,None,895.1252571579998,None,895.1252571579998,None,897.9425356080001,None,897.9425356080001,None,897.9425356080001,None,897.9425356080001,None,,,,,,,,,,,,,,,,,,,,,,,,,,,,,,,,,,,,,,,,,,,,001,119,2020_Feb_13_1050,spring_faces,3.1.5,60.086437465052704,
condition files/Stage1_2.xlsx,,B1,T1,c,"['c', 'm']","['Clue', 'Monopoly']","[-0.15, 0.5]","[0.15, 0.5]",1,1,,,,,,,,,0,11,11,11,0,0,0,0,,,,,,,,,,,,,,,,,,,,,,,,,,,,,,,,,,,,,,,,,,,,,,,,,,,,,,,899.9248807799995,None,899.9248807799995,None,899.9248807799995,None,c,1,1.3227180560006673,901.4584079850001,None,901.4584079850001,None,901.4584079850001,None,902.8414089139997,None,902.8414089139997,None,902.8414089139997,None,902.8414089139997,None,,,,,,,,,,,,,,,,,,,,,,,,,,,,,,,,,,,,,,,,,,,,001,119,2020_Feb_13_1050,spring_faces,3.1.5,60.086437465052704,
condition files/Stage1_2.xlsx,,B2,T2,m,"['c', 'm']","['Clue', 'Monopoly']","[-0.15, 0.5]","[0.15, 0.5]",1,1,,,,,,,,,0,11,11,11,0,1,1,3,,,,,,,,,,,,,,,,,,,,,,,,,,,,,,,,,,,,,,,,,,,,,,,,,,,,,,,904.8080919329996,None,904.8080919329996,None,904.8080919329996,None,m,1,1.4466952069997205,906.3584335590003,None,906.3584335590003,None,906.3584335590003,None,907.8753075209997,None,907.8753075209997,None,907.8753075209997,None,907.8753075209997,None,,,,,,,,,,,,,,,,,,,,,,,,,,,,,,,,,,,,,,,,,,,,001,119,2020_Feb_13_1050,spring_faces,3.1.5,60.086437465052704,
condition files/Stage1_2.xlsx,,B4,T3,c,"['c', 'm']","['Clue', 'Monopoly']","[-0.15, 0.5]","[0.15, 0.5]",1,1,,,,,,,,,0,11,11,11,0,2,2,5,,,,,,,,,,,,,,,,,,,,,,,,,,,,,,,,,,,,,,,,,,,,,,,,,,,,,,,909.8253490979996,None,909.8253490979996,None,909.8253490979996,None,c,1,0.9084879900001397,911.3605807819995,None,911.3605807819995,None,911.3605807819995,None,912.3416815499995,None,912.3416815499995,None,912.3416815499995,None,912.3416815499995,None,,,,,,,,,,,,,,,,,,,,,,,,,,,,,,,,,,,,,,,,,,,,001,119,2020_Feb_13_1050,spring_faces,3.1.5,60.086437465052704,
condition files/Stage1_2.xlsx,,B3,T4,m,"['c', 'm']","['Clue', 'Monopoly']","[-0.15, 0.5]","[0.15, 0.5]",1,1,,,,,,,,,0,11,11,11,0,3,3,6,,,,,,,,,,,,,,,,,,,,,,,,,,,,,,,,,,,,,,,,,,,,,,,,,,,,,,,914.2914905770003,None,914.2914905770003,None,914.2914905770003,None,m,1,1.4514445309996518,915.8256166589999,None,915.8256166589999,None,915.8256166589999,None,917.3421539800001,None,917.3421539800001,None,917.3421539800001,None,917.3421539800001,None,,,,,,,,,,,,,,,,,,,,,,,,,,,,,,,,,,,,,,,,,,,,001,119,2020_Feb_13_1050,spring_faces,3.1.5,60.086437465052704,
condition files/Stage1_2.xlsx,,T1,B2,m,"['c', 'm']","['Clue', 'Monopoly']","[-0.15, 0.5]","[0.15, 0.5]",1,1,,,,,,,,,0,11,11,11,0,4,4,2,,,,,,,,,,,,,,,,,,,,,,,,,,,,,,,,,,,,,,,,,,,,,,,,,,,,,,,919.3083304599995,None,919.3083304599995,None,919.3083304599995,None,c,0,1.5071013200004018,920.8420201099998,None,920.8420201099998,None,920.8420201099998,None,922.4077509460003,None,922.4077509460003,None,922.4077509460003,None,922.4077509460003,None,,,,,,,,,,,,,,,,,,,,,,,,,,,,,,,,,,,,,,,,,,,,001,119,2020_Feb_13_1050,spring_faces,3.1.5,60.086437465052704,
condition files/Stage1_2.xlsx,,T3,B3,c,"['c', 'm']","['Clue', 'Monopoly']","[-0.15, 0.5]","[0.15, 0.5]",1,1,,,,,,,,,0,11,11,11,0,5,5,4,,,,,,,,,,,,,,,,,,,,,,,,,,,,,,,,,,,,,,,,,,,,,,,,,,,,,,,924.3748691969995,None,924.3748691969995,None,924.3748691969995,None,c,1,1.8152271510007267,925.909828504,None,925.909828504,None,925.909828504,None,927.7762779059995,None,927.7762779059995,None,927.7762779059995,None,927.7762779059995,None,,,,,,,,,,,,,,,,,,,,,,,,,,,,,,,,,,,,,,,,,,,,001,119,2020_Feb_13_1050,spring_faces,3.1.5,60.086437465052704,
condition files/Stage1_2.xlsx,,T4,B4,m,"['c', 'm']","['Clue', 'Monopoly']","[-0.15, 0.5]","[0.15, 0.5]",1,1,,,,,,,,,0,11,11,11,0,6,6,7,,,,,,,,,,,,,,,,,,,,,,,,,,,,,,,,,,,,,,,,,,,,,,,,,,,,,,,929.7413781690002,None,929.7413781690002,None,929.7413781690002,None,m,1,1.40908251700057,931.2760428639995,None,931.2760428639995,None,931.2760428639995,None,932.7442186219996,None,932.7442186219996,None,932.7442186219996,None,932.7442186219996,None,,,,,,,,,,,,,,,,,,,,,,,,,,,,,,,,,,,,,,,,,,,,001,119,2020_Feb_13_1050,spring_faces,3.1.5,60.086437465052704,
condition files/Stage1_2.xlsx,,T2,B1,c,"['c', 'm']","['Clue', 'Monopoly']","[-0.15, 0.5]","[0.15, 0.5]",1,1,,,,,,,,,0,11,11,11,0,7,7,1,,,,,,,,,,,,,,,,,,,,,,,,,,,,,,,,,,,,,,,,,,,,,,,,,,,,,,,934.7082690970001,None,934.7082690970001,None,934.7082690970001,None,c,1,1.1946011079999153,936.2583999970002,None,936.2583999970002,None,936.2583999970002,None,937.5079465070003,None,937.5079465070003,None,937.5079465070003,None,937.5079465070003,None,,,,,,,,,,,,,,,,,,,,,,,,,,,,,,,,,,,,,,,,,,,,001,119,2020_Feb_13_1050,spring_faces,3.1.5,60.086437465052704,
,,,,,,,,,,,,,,,,,,,,,,,,,,,,,,,,,,,,,,,,,,,,,,,,,,,,,,,,,,,,,,,,,,,,,,,,,,,,,,,,,,,,,,,,,,,,,,,,,,,,,,,,,,,,,,,,939.4914852089996,None,space,7.089331516000129,944.4917918720002,None,,,,,,,,,,,,,,,,,,,,,,,,,,,,,,001,119,2020_Feb_13_1050,spring_faces,3.1.5,60.086437465052704,
condition files/Stage2_1.xlsx,,B4,T4,r,"['s', 'r']","['Stratego', 'Risk']","[-0.15, 0.5]","[0.15, 0.5]",1,1,,,,,,,,,,,,,,,,,0,0,0,0,0,0,0,5,,,,,,,,,,,,,,,,,,,,,,,,,,,,,,,,,,,,,,,,,,,,,,,951.6415770309995,None,951.6415770309995,None,951.6415770309995,None,s,0,1.1425759610001478,953.174550318,None,953.174550318,None,953.174550318,None,954.3757617129995,None,954.3757617129995,None,954.3757617129995,None,954.3757617129995,None,,,,,,,,,,,,,,,944.4917918720002,None,,,,,,,,,,,,,,,,,,,,,,,,,,,,001,119,2020_Feb_13_1050,spring_faces,3.1.5,60.086437465052704,
condition files/Stage2_1.xlsx,,B6,T6,r,"['s', 'r']","['Stratego', 'Risk']","[-0.15, 0.5]","[0.15, 0.5]",1,1,,,,,,,,,,,,,,,,,0,0,0,0,0,1,1,1,,,,,,,,,,,,,,,,,,,,,,,,,,,,,,,,,,,,,,,,,,,,,,,956.3413858940003,None,956.3413858940003,None,956.3413858940003,None,s,0,1.9603584090000368,957.9247364940002,None,957.9247364940002,None,957.9247364940002,None,959.942270048,None,959.942270048,None,959.942270048,None,959.942270048,None,,,,,,,,,,,,,,,,,,,,,,,,,,,,,,,,,,,,,,,,,,,,001,119,2020_Feb_13_1050,spring_faces,3.1.5,60.086437465052704,
condition files/Stage2_1.xlsx,,T5,B5,s,"['s', 'r']","['Stratego', 'Risk']","[-0.15, 0.5]","[0.15, 0.5]",1,1,,,,,,,,,,,,,,,,,0,0,0,0,0,2,2,0,,,,,,,,,,,,,,,,,,,,,,,,,,,,,,,,,,,,,,,,,,,,,,,961.9077554690002,None,961.9077554690002,None,961.9077554690002,None,s,1,1.6416650439996374,963.4754286959997,None,963.4754286959997,None,963.4754286959997,None,965.1769340430001,None,965.1769340430001,None,965.1769340430001,None,965.1769340430001,None,,,,,,,,,,,,,,,,,,,,,,,,,,,,,,,,,,,,,,,,,,,,001,119,2020_Feb_13_1050,spring_faces,3.1.5,60.086437465052704,
condition files/Stage2_1.xlsx,,T1,B1,s,"['s', 'r']","['Stratego', 'Risk']","[-0.15, 0.5]","[0.15, 0.5]",1,1,,,,,,,,,,,,,,,,,0,0,0,0,0,3,3,2,,,,,,,,,,,,,,,,,,,,,,,,,,,,,,,,,,,,,,,,,,,,,,,967.141494259,None,967.141494259,None,967.141494259,None,r,0,1.5599318899994614,968.6771148609996,None,968.6771148609996,None,968.6771148609996,None,970.2920729340003,None,970.2920729340003,None,970.2920729340003,None,970.2920729340003,None,,,,,,,,,,,,,,,,,,,,,,,,,,,,,,,,,,,,,,,,,,,,001,119,2020_Feb_13_1050,spring_faces,3.1.5,60.086437465052704,
condition files/Stage2_1.xlsx,,T3,B3,s,"['s', 'r']","['Stratego', 'Risk']","[-0.15, 0.5]","[0.15, 0.5]",1,1,,,,,,,,,,,,,,,,,0,0,0,0,0,4,4,4,,,,,,,,,,,,,,,,,,,,,,,,,,,,,,,,,,,,,,,,,,,,,,,972.2581738789995,None,972.2581738789995,None,972.2581738789995,None,r,0,2.3335665550002886,973.7914642220003,None,973.7914642220003,None,973.7914642220003,None,976.1745718470002,None,976.1745718470002,None,976.1745718470002,None,976.1745718470002,None,,,,,,,,,,,,,,,,,,,,,,,,,,,,,,,,,,,,,,,,,,,,001,119,2020_Feb_13_1050,spring_faces,3.1.5,60.086437465052704,
condition files/Stage2_1.xlsx,,B2,T2,r,"['s', 'r']","['Stratego', 'Risk']","[-0.15, 0.5]","[0.15, 0.5]",1,1,,,,,,,,,,,,,,,,,0,0,0,0,0,5,5,3,,,,,,,,,,,,,,,,,,,,,,,,,,,,,,,,,,,,,,,,,,,,,,,978.1412594470003,None,978.1412594470003,None,978.1412594470003,None,s,0,1.5702165339998828,979.6748630479997,None,979.6748630479997,None,979.6748630479997,None,981.3251536959997,None,981.3251536959997,None,981.3251536959997,None,981.3251536959997,None,,,,,,,,,,,,,,,,,,,,,,,,,,,,,,,,,,,,,,,,,,,,001,119,2020_Feb_13_1050,spring_faces,3.1.5,60.086437465052704,
condition files/Stage2_2.xlsx,,T2,B2,r,"['s', 'r']","['Stratego', 'Risk']","[-0.15, 0.5]","[0.15, 0.5]",1,1,,,,,,,,,,,,,,,,,0,1,1,1,0,0,0,3,,,,,,,,,,,,,,,,,,,,,,,,,,,,,,,,,,,,,,,,,,,,,,,983.2917270449998,None,983.2917270449998,None,983.2917270449998,None,s,0,1.2043740700000853,984.8246970669998,None,984.8246970669998,None,984.8246970669998,None,986.09152731,None,986.09152731,None,986.09152731,None,986.09152731,None,,,,,,,,,,,,,,,,,,,,,,,,,,,,,,,,,,,,,,,,,,,,001,119,2020_Feb_13_1050,spring_faces,3.1.5,60.086437465052704,
condition files/Stage2_2.xlsx,,T6,B6,r,"['s', 'r']","['Stratego', 'Risk']","[-0.15, 0.5]","[0.15, 0.5]",1,1,,,,,,,,,,,,,,,,,0,1,1,1,0,1,1,1,,,,,,,,,,,,,,,,,,,,,,,,,,,,,,,,,,,,,,,,,,,,,,,988.0583244,None,988.0583244,None,988.0583244,None,s,0,1.6378031099993677,989.5912643430001,None,989.5912643430001,None,989.5912643430001,None,991.2920561109995,None,991.2920561109995,None,991.2920561109995,None,991.2920561109995,None,,,,,,,,,,,,,,,,,,,,,,,,,,,,,,,,,,,,,,,,,,,,001,119,2020_Feb_13_1050,spring_faces,3.1.5,60.086437465052704,
condition files/Stage2_2.xlsx,,B3,T3,s,"['s', 'r']","['Stratego', 'Risk']","[-0.15, 0.5]","[0.15, 0.5]",1,1,,,,,,,,,,,,,,,,,0,1,1,1,0,2,2,4,,,,,,,,,,,,,,,,,,,,,,,,,,,,,,,,,,,,,,,,,,,,,,,993.2582568790003,None,993.2582568790003,None,993.2582568790003,None,s,1,0.5325978339997164,994.808436196,None,994.808436196,None,994.808436196,None,995.3941013900003,None,995.3941013900003,None,995.3941013900003,None,995.3941013900003,None,,,,,,,,,,,,,,,,,,,,,,,,,,,,,,,,,,,,,,,,,,,,001,119,2020_Feb_13_1050,spring_faces,3.1.5,60.086437465052704,
condition files/Stage2_2.xlsx,,B1,T1,s,"['s', 'r']","['Stratego', 'Risk']","[-0.15, 0.5]","[0.15, 0.5]",1,1,,,,,,,,,,,,,,,,,0,1,1,1,0,3,3,2,,,,,,,,,,,,,,,,,,,,,,,,,,,,,,,,,,,,,,,,,,,,,,,997.3576510149996,None,997.3576510149996,None,997.3576510149996,None,s,1,0.8165773000000627,998.9084333149995,None,998.9084333149995,None,998.9084333149995,None,999.7918952809996,None,999.7918952809996,None,999.7918952809996,None,999.7918952809996,None,,,,,,,,,,,,,,,,,,,,,,,,,,,,,,,,,,,,,,,,,,,,001,119,2020_Feb_13_1050,spring_faces,3.1.5,60.086437465052704,
condition files/Stage2_2.xlsx,,B5,T5,s,"['s', 'r']","['Stratego', 'Risk']","[-0.15, 0.5]","[0.15, 0.5]",1,1,,,,,,,,,,,,,,,,,0,1,1,1,0,4,4,0,,,,,,,,,,,,,,,,,,,,,,,,,,,,,,,,,,,,,,,,,,,,,,,1001.7576127069997,None,1001.7576127069997,None,1001.7576127069997,None,s,1,3.6805171390005853,1003.3085195499998,None,1003.3085195499998,None,1003.3085195499998,None,1007.041430108,None,1007.041430108,None,1007.041430108,None,1007.041430108,None,,,,,,,,,,,,,,,,,,,,,,,,,,,,,,,,,,,,,,,,,,,,001,119,2020_Feb_13_1050,spring_faces,3.1.5,60.086437465052704,
condition files/Stage2_2.xlsx,,T4,B4,r,"['s', 'r']","['Stratego', 'Risk']","[-0.15, 0.5]","[0.15, 0.5]",1,1,,,,,,,,,,,,,,,,,0,1,1,1,0,5,5,5,,,,,,,,,,,,,,,,,,,,,,,,,,,,,,,,,,,,,,,,,,,,,,,1009.0081745919997,None,1009.0081745919997,None,1009.0081745919997,None,r,1,0.7990366970007017,1010.5420310179998,None,1010.5420310179998,None,1010.5420310179998,None,1011.3933376839996,None,1011.3933376839996,None,1011.3933376839996,None,1011.3933376839996,None,,,,,,,,,,,,,,,,,,,,,,,,,,,,,,,,,,,,,,,,,,,,001,119,2020_Feb_13_1050,spring_faces,3.1.5,60.086437465052704,
condition files/Stage2_1.xlsx,,T5,B5,s,"['s', 'r']","['Stratego', 'Risk']","[-0.15, 0.5]","[0.15, 0.5]",1,1,,,,,,,,,,,,,,,,,0,2,2,2,0,0,0,0,,,,,,,,,,,,,,,,,,,,,,,,,,,,,,,,,,,,,,,,,,,,,,,1013.3750833459999,None,1013.3750833459999,None,1013.3750833459999,None,s,1,1.2633377459997064,1014.9097233719995,None,1014.9097233719995,None,1014.9097233719995,None,1016.2418026079995,None,1016.2418026079995,None,1016.2418026079995,None,1016.2418026079995,None,,,,,,,,,,,,,,,,,,,,,,,,,,,,,,,,,,,,,,,,,,,,001,119,2020_Feb_13_1050,spring_faces,3.1.5,60.086437465052704,
condition files/Stage2_1.xlsx,,T1,B1,s,"['s', 'r']","['Stratego', 'Risk']","[-0.15, 0.5]","[0.15, 0.5]",1,1,,,,,,,,,,,,,,,,,0,2,2,2,0,1,1,2,,,,,,,,,,,,,,,,,,,,,,,,,,,,,,,,,,,,,,,,,,,,,,,1018.1912878510002,None,1018.1912878510002,None,1018.1912878510002,None,s,1,1.6157231889992545,1019.7253333480003,None,1019.7253333480003,None,1019.7253333480003,None,1021.3913803209998,None,1021.3913803209998,None,1021.3913803209998,None,1021.3913803209998,None,,,,,,,,,,,,,,,,,,,,,,,,,,,,,,,,,,,,,,,,,,,,001,119,2020_Feb_13_1050,spring_faces,3.1.5,60.086437465052704,
condition files/Stage2_1.xlsx,,B6,T6,r,"['s', 'r']","['Stratego', 'Risk']","[-0.15, 0.5]","[0.15, 0.5]",1,1,,,,,,,,,,,,,,,,,0,2,2,2,0,2,2,1,,,,,,,,,,,,,,,,,,,,,,,,,,,,,,,,,,,,,,,,,,,,,,,1023.358061373,None,1023.358061373,None,1023.358061373,None,s,0,2.1129685630003223,1024.908071803,None,1024.908071803,None,1024.908071803,None,1027.0912768899998,None,1027.0912768899998,None,1027.0912768899998,None,1027.0912768899998,None,,,,,,,,,,,,,,,,,,,,,,,,,,,,,,,,,,,,,,,,,,,,001,119,2020_Feb_13_1050,spring_faces,3.1.5,60.086437465052704,
condition files/Stage2_1.xlsx,,B4,T4,r,"['s', 'r']","['Stratego', 'Risk']","[-0.15, 0.5]","[0.15, 0.5]",1,1,,,,,,,,,,,,,,,,,0,2,2,2,0,3,3,5,,,,,,,,,,,,,,,,,,,,,,,,,,,,,,,,,,,,,,,,,,,,,,,1029.0415506119998,None,1029.0415506119998,None,1029.0415506119998,None,r,1,5.070187960000112,1030.5748814099998,None,1030.5748814099998,None,1030.5748814099998,None,1035.708157012,None,1035.708157012,None,1035.708157012,None,1035.708157012,None,,,,,,,,,,,,,,,,,,,,,,,,,,,,,,,,,,,,,,,,,,,,001,119,2020_Feb_13_1050,spring_faces,3.1.5,60.086437465052704,
condition files/Stage2_1.xlsx,,B2,T2,r,"['s', 'r']","['Stratego', 'Risk']","[-0.15, 0.5]","[0.15, 0.5]",1,1,,,,,,,,,,,,,,,,,0,2,2,2,0,4,4,3,,,,,,,,,,,,,,,,,,,,,,,,,,,,,,,,,,,,,,,,,,,,,,,1037.6748832369994,None,1037.6748832369994,None,1037.6748832369994,None,s,0,2.563354935999996,1039.2096852129998,None,1039.2096852129998,None,1039.2096852129998,None,1041.8251251250003,None,1041.8251251250003,None,1041.8251251250003,None,1041.8251251250003,None,,,,,,,,,,,,,,,,,,,,,,,,,,,,,,,,,,,,,,,,,,,,001,119,2020_Feb_13_1050,spring_faces,3.1.5,60.086437465052704,
condition files/Stage2_1.xlsx,,T3,B3,s,"['s', 'r']","['Stratego', 'Risk']","[-0.15, 0.5]","[0.15, 0.5]",1,1,,,,,,,,,,,,,,,,,0,2,2,2,0,5,5,4,,,,,,,,,,,,,,,,,,,,,,,,,,,,,,,,,,,,,,,,,,,,,,,1043.7910437230003,None,1043.7910437230003,None,1043.7910437230003,None,s,1,1.6477975800007698,1045.3252588939995,None,1045.3252588939995,None,1045.3252588939995,None,1047.0270000589999,None,1047.0270000589999,None,1047.0270000589999,None,1047.0270000589999,None,,,,,,,,,,,,,,,,,,,,,,,,,,,,,,,,,,,,,,,,,,,,001,119,2020_Feb_13_1050,spring_faces,3.1.5,60.086437465052704,
condition files/Stage2_2.xlsx,,T6,B6,r,"['s', 'r']","['Stratego', 'Risk']","[-0.15, 0.5]","[0.15, 0.5]",1,1,,,,,,,,,,,,,,,,,0,3,3,3,0,0,0,1,,,,,,,,,,,,,,,,,,,,,,,,,,,,,,,,,,,,,,,,,,,,,,,1049.008512632,None,1049.008512632,None,1049.008512632,None,r,1,1.0223965790000875,1050.5585820269998,None,1050.5585820269998,None,1050.5585820269998,None,1051.6584653499995,None,1051.6584653499995,None,1051.6584653499995,None,1051.6584653499995,None,,,,,,,,,,,,,,,,,,,,,,,,,,,,,,,,,,,,,,,,,,,,001,119,2020_Feb_13_1050,spring_faces,3.1.5,60.086437465052704,
condition files/Stage2_2.xlsx,,T2,B2,r,"['s', 'r']","['Stratego', 'Risk']","[-0.15, 0.5]","[0.15, 0.5]",1,1,,,,,,,,,,,,,,,,,0,3,3,3,0,1,1,3,,,,,,,,,,,,,,,,,,,,,,,,,,,,,,,,,,,,,,,,,,,,,,,1053.6080736799995,None,1053.6080736799995,None,1053.6080736799995,None,r,1,3.190161777999492,1055.1429666819995,None,1055.1429666819995,None,1055.1429666819995,None,1058.3915332380002,None,1058.3915332380002,None,1058.3915332380002,None,1058.3915332380002,None,,,,,,,,,,,,,,,,,,,,,,,,,,,,,,,,,,,,,,,,,,,,001,119,2020_Feb_13_1050,spring_faces,3.1.5,60.086437465052704,
condition files/Stage2_2.xlsx,,B5,T5,s,"['s', 'r']","['Stratego', 'Risk']","[-0.15, 0.5]","[0.15, 0.5]",1,1,,,,,,,,,,,,,,,,,0,3,3,3,0,2,2,0,,,,,,,,,,,,,,,,,,,,,,,,,,,,,,,,,,,,,,,,,,,,,,,1060.357939556,None,1060.357939556,None,1060.357939556,None,s,1,0.9532460750006067,1061.90779965,None,1061.90779965,None,1061.90779965,None,1062.925461836,None,1062.925461836,None,1062.925461836,None,1062.925461836,None,,,,,,,,,,,,,,,,,,,,,,,,,,,,,,,,,,,,,,,,,,,,001,119,2020_Feb_13_1050,spring_faces,3.1.5,60.086437465052704,
condition files/Stage2_2.xlsx,,T4,B4,r,"['s', 'r']","['Stratego', 'Risk']","[-0.15, 0.5]","[0.15, 0.5]",1,1,,,,,,,,,,,,,,,,,0,3,3,3,0,3,3,5,,,,,,,,,,,,,,,,,,,,,,,,,,,,,,,,,,,,,,,,,,,,,,,1064.8915061810003,None,1064.8915061810003,None,1064.8915061810003,None,s,0,0.8520017129994812,1066.4250499250002,None,1066.4250499250002,None,1066.4250499250002,None,1067.3417571740001,None,1067.3417571740001,None,1067.3417571740001,None,1067.3417571740001,None,,,,,,,,,,,,,,,,,,,,,,,,,,,,,,,,,,,,,,,,,,,,001,119,2020_Feb_13_1050,spring_faces,3.1.5,60.086437465052704,
condition files/Stage2_2.xlsx,,B1,T1,s,"['s', 'r']","['Stratego', 'Risk']","[-0.15, 0.5]","[0.15, 0.5]",1,1,,,,,,,,,,,,,,,,,0,3,3,3,0,4,4,2,,,,,,,,,,,,,,,,,,,,,,,,,,,,,,,,,,,,,,,,,,,,,,,1069.3084459259999,None,1069.3084459259999,None,1069.3084459259999,None,r,0,0.9471193400004267,1070.8419393679997,None,1070.8419393679997,None,1070.8419393679997,None,1071.8434117779998,None,1071.8434117779998,None,1071.8434117779998,None,1071.8434117779998,None,,,,,,,,,,,,,,,,,,,,,,,,,,,,,,,,,,,,,,,,,,,,001,119,2020_Feb_13_1050,spring_faces,3.1.5,60.086437465052704,
condition files/Stage2_2.xlsx,,B3,T3,s,"['s', 'r']","['Stratego', 'Risk']","[-0.15, 0.5]","[0.15, 0.5]",1,1,,,,,,,,,,,,,,,,,0,3,3,3,0,5,5,4,,,,,,,,,,,,,,,,,,,,,,,,,,,,,,,,,,,,,,,,,,,,,,,1073.8081423619997,None,1073.8081423619997,None,1073.8081423619997,None,s,1,3.7267353179995553,1075.3583733710002,None,1075.3583733710002,None,1075.3583733710002,None,1079.141802956,None,1079.141802956,None,1079.141802956,None,1079.141802956,None,,,,,,,,,,,,,,,,,,,,,,,,,,,,,,,,,,,,,,,,,,,,001,119,2020_Feb_13_1050,spring_faces,3.1.5,60.086437465052704,
condition files/Stage2_1.xlsx,,T5,B5,s,"['s', 'r']","['Stratego', 'Risk']","[-0.15, 0.5]","[0.15, 0.5]",1,1,,,,,,,,,,,,,,,,,0,4,4,4,0,0,0,0,,,,,,,,,,,,,,,,,,,,,,,,,,,,,,,,,,,,,,,,,,,,,,,1081.1254311109997,None,1081.1254311109997,None,1081.1254311109997,None,s,1,0.9380828370003655,1082.658998037,None,1082.658998037,None,1082.658998037,None,1083.6578931309996,None,1083.6578931309996,None,1083.6578931309996,None,1083.6578931309996,None,,,,,,,,,,,,,,,,,,,,,,,,,,,,,,,,,,,,,,,,,,,,001,119,2020_Feb_13_1050,spring_faces,3.1.5,60.086437465052704,
condition files/Stage2_1.xlsx,,B6,T6,r,"['s', 'r']","['Stratego', 'Risk']","[-0.15, 0.5]","[0.15, 0.5]",1,1,,,,,,,,,,,,,,,,,0,4,4,4,0,1,1,1,,,,,,,,,,,,,,,,,,,,,,,,,,,,,,,,,,,,,,,,,,,,,,,1085.6249410299997,None,1085.6249410299997,None,1085.6249410299997,None,r,1,1.1096938350001437,1087.175420257,None,1087.175420257,None,1087.175420257,None,1088.3425342649998,None,1088.3425342649998,None,1088.3425342649998,None,1088.3425342649998,None,,,,,,,,,,,,,,,,,,,,,,,,,,,,,,,,,,,,,,,,,,,,001,119,2020_Feb_13_1050,spring_faces,3.1.5,60.086437465052704,
condition files/Stage2_1.xlsx,,T1,B1,s,"['s', 'r']","['Stratego', 'Risk']","[-0.15, 0.5]","[0.15, 0.5]",1,1,,,,,,,,,,,,,,,,,0,4,4,4,0,2,2,2,,,,,,,,,,,,,,,,,,,,,,,,,,,,,,,,,,,,,,,,,,,,,,,1090.3079718379995,None,1090.3079718379995,None,1090.3079718379995,None,s,1,0.7626121879993661,1091.8584394509999,None,1091.8584394509999,None,1091.8584394509999,None,1092.6765693799998,None,1092.6765693799998,None,1092.6765693799998,None,1092.6765693799998,None,,,,,,,,,,,,,,,,,,,,,,,,,,,,,,,,,,,,,,,,,,,,001,119,2020_Feb_13_1050,spring_faces,3.1.5,60.086437465052704,
condition files/Stage2_1.xlsx,,T3,B3,s,"['s', 'r']","['Stratego', 'Risk']","[-0.15, 0.5]","[0.15, 0.5]",1,1,,,,,,,,,,,,,,,,,0,4,4,4,0,3,3,4,,,,,,,,,,,,,,,,,,,,,,,,,,,,,,,,,,,,,,,,,,,,,,,1094.641559322,None,1094.641559322,None,1094.641559322,None,s,1,1.2131389500000296,1096.1918340450002,None,1096.1918340450002,None,1096.1918340450002,None,1097.4581712899999,None,1097.4581712899999,None,1097.4581712899999,None,1097.4581712899999,None,,,,,,,,,,,,,,,,,,,,,,,,,,,,,,,,,,,,,,,,,,,,001,119,2020_Feb_13_1050,spring_faces,3.1.5,60.086437465052704,
