condsFile,subStage,cue1,cue2,correct,responseKeys,responseNames,cue1Position,cue2Position,cue1Opacity,cue2Opacity,stageLoop0.thisRepN,stageLoop0.thisTrialN,stageLoop0.thisN,stageLoop0.thisIndex,blockLoop0.thisRepN,blockLoop0.thisTrialN,blockLoop0.thisN,blockLoop0.thisIndex,stage1Loop.thisRepN,stage1Loop.thisTrialN,stage1Loop.thisN,stage1Loop.thisIndex,blockLoop1.thisRepN,blockLoop1.thisTrialN,blockLoop1.thisN,blockLoop1.thisIndex,stage2Loop.thisRepN,stage2Loop.thisTrialN,stage2Loop.thisN,stage2Loop.thisIndex,blockLoop2.thisRepN,blockLoop2.thisTrialN,blockLoop2.thisN,blockLoop2.thisIndex,testLoop.thisRepN,testLoop.thisTrialN,testLoop.thisN,testLoop.thisIndex,blockLoopTest.thisRepN,blockLoopTest.thisTrialN,blockLoopTest.thisN,blockLoopTest.thisIndex,cuePics,id_instr_text.started,id_instr_text.stopped,space_to_continue_2.started,space_to_continue_2.stopped,end_instructions_resp_3.keys,end_instructions_resp_3.rt,end_instructions_resp_3.started,end_instructions_resp_3.stopped,id_input_instr.started,id_input_instr.stopped,id_input_rect.started,id_input_rect.stopped,id_input_resp.keys,id_input_resp.rt,id_input_resp.started,id_input_resp.stopped,sonaID,id_input_text.started,id_input_text.stopped,final_text.started,final_text.stopped,instructions.started,instructions.stopped,end_instructions_resp.keys,end_instructions_resp.rt,end_instructions_resp.started,end_instructions_resp.stopped,space_to_continue.started,space_to_continue.stopped,instructions_stage0.started,instructions_stage0.stopped,end_instructions_resp_stage0.keys,end_instructions_resp_stage0.rt,end_instructions_resp_stage0.started,end_instructions_resp_stage0.stopped,space_to_continue_stage0.started,space_to_continue_stage0.stopped,text.started,text.stopped,resp_text1.started,resp_text1.stopped,resp_text2.started,resp_text2.stopped,trial_resp.keys,trial_resp.corr,trial_resp.rt,trial_resp.started,trial_resp.stopped,cue1Image.started,cue1Image.stopped,cue2Image.started,cue2Image.stopped,cue1Image_fb.started,cue1Image_fb.stopped,cue2Image_fb.started,cue2Image_fb.stopped,fb_text_answer.started,fb_text_answer.stopped,feedback_image.started,feedback_image.stopped,instructions_stage1.started,instructions_stage1.stopped,end_instructions_resp_stage1.keys,end_instructions_resp_stage1.rt,end_instructions_resp_stage1.started,end_instructions_resp_stage1.stopped,space_to_continue_stage1.started,space_to_continue_stage1.stopped,instructions_2.started,instructions_2.stopped,end_instructions_resp_2.keys,end_instructions_resp_2.rt,end_instructions_resp_2.started,end_instructions_resp_2.stopped,press_space_to_continue_stage2.started,press_space_to_continue_stage2.stopped,instructions_testStage1.started,instructions_testStage1.stopped,end_instructions_resp_test1.keys,end_instructions_resp_test1.rt,end_instructions_resp_test1.started,end_instructions_resp_test1.stopped,press_space_to_continue_test1.started,press_space_to_continue_test1.stopped,cue1Image_testChoice.started,cue1Image_testChoice.stopped,cue2Image_testChoice.started,cue2Image_testChoice.stopped,test_resp.keys,test_resp.corr,test_resp.rt,test_resp.started,test_resp.stopped,cue1Image_testConf.started,cue1Image_testConf.stopped,cue2Image_testConf.started,cue2Image_testConf.stopped,conf_reminder.started,conf_reminder.stopped,conf_rating.response,conf_rating.rt,conf_rating.started,conf_rating.stopped,session,participant,date,expName,psychopyVersion,frameRate,
,,,,,,,,,,,,,,,,,,,,,,,,,,,,,,,,,,,,,,,,,,,"{'none': 'pictures/20M_AN_C.png', 'alpha': 'pictures/SHINEd_apple.png', 'beta': 'pictures/SHINEd_pear.png', 'theta': 'pictures/SHINEd_melon.png', 'phi': 'pictures/SHINEd_pepper.png', 'T1': 'pictures/33M_AN_C.png', 'T2': 'pictures/38M_AN_C.png', 'T3': 'pictures/20M_AN_C.png', 'T4': 'pictures/23M_AN_C.png', 'T5': 'pictures/31M_AN_C.png', 'T6': 'pictures/34M_AN_C.png', 'B1': 'pictures/25M_NE_C.png', 'B2': 'pictures/36M_NE_C.png', 'B3': 'pictures/26M_NE_C.png', 'B4': 'pictures/22M_NE_C.png', 'B5': 'pictures/32M_NE_C.png', 'B6': 'pictures/37M_NE_C.png'}",10.123727813000187,None,15.09041050199994,None,space,33.53189129900056,15.09041050199994,None,,,,,,,,,,,,,,,,,,,,,,,,,,,,,,,,,,,,,,,,,,,,,,,,,,,,,,,,,,,,,,,,,,,,,,,,,,,,,,,,,,,,,,,,,,,,,,,,001,120,2020_Feb_13_1059,spring_faces,3.2.3,59.917874045419865,
,,,,,,,,,,,,,,,,,,,,,,,,,,,,,,,,,,,,,,,,,,,,,,,,,,,,49.056999129999895,None,49.056999129999895,None,"['0', '4', '1', '7', 'r', 'o', 's', 'm', 'i', '0', '4', '1', '7', 'r', 'o', 's', 'm', 'i', 'backspace', '0', '4', '1', '7', 'r', 'o', 's', 'm', 'i']","[28.797270189999836, 29.24522596299994, 37.58129742500023, 38.31713994900019, 50.637185257000056, 50.90923245399972, 62.33320420899963, 63.16530703299941, 63.45312290499987, 75.53322198299975, 75.7732007529994, 79.46912161, 80.07722626699979, 84.17319951099944, 84.36531445399942, 95.24523221500021, 95.45311787999981, 95.69322515899967, 103.50113402399984, 104.94120565399953, 105.30923227499989, 105.72521027699986, 105.9493116120002, 112.84522654299963, 113.21327149999979, 118.46122416900016, 118.62119274299948, 118.89323379899997]",49.056999129999895,None,,,,,,,,,,,,,,,,,,,,,,,,,,,,,,,,,,,,,,,,,,,,,,,,,,,,,,,,,,,,,,,,,,,,,,,,,,,,,,,,,,,,,,,,001,120,2020_Feb_13_1059,spring_faces,3.2.3,59.917874045419865,
,,,,,,,,,,,,,,,,,,,,,,,,,,,,,,,,,,,,,,,,,,,,,,,,,,,,,,,,,,,,0417rosmi,49.056999129999895,None,49.056999129999895,None,173.00698601099975,None,space,5.159893788999398,177.99033705199963,None,,,,,,,,,,,,,,,,,,,,,,,,,,,,,,,,,,,,,,,,,,,,,,,,,,,,,,,,,,,,,,,,,,,,,,,,,,,,,001,120,2020_Feb_13_1059,spring_faces,3.2.3,59.917874045419865,
,,,,,,,,,,,,,,,,,,,,,,,,,,,,,,,,,,,,,,,,,,,,,,,,,,,,,,,,,,,,,,,,,,,,,,,177.99033705199963,None,183.17369748999954,None,space,3.1691238819994396,188.1570008869994,None,,,,,,,,,,,,,,,,,,,,,,,,,,,,,,,,,,,,,,,,,,,,,,,,,,,,,,,,,,,,,,,,,,,,,001,120,2020_Feb_13_1059,spring_faces,3.2.3,59.917874045419865,
condition files/Stage0a.xlsx,0a,beta,none,g,"['h', 'g']","['Chess', 'Go']","[0, 0.5]","[0, 0]",1,0,0,0,0,0,0,0,0,1,,,,,,,,,,,,,,,,,,,,,,,,,,,,,,,,,,,,,,,,,,,,,,,,,,,,,,,,,,,,,188.1570008869994,None,191.39042889199936,None,191.39042889199936,None,191.39042889199936,None,h,0,4.560533570000189,192.9737043089999,None,192.9737043089999,None,192.9737043089999,None,197.60701355399942,None,197.60701355399942,None,197.60701355399942,None,197.60701355399942,None,,,,,,,,,,,,,,,,,,,,,,,,,,,,,,,,,,,,,,,,,,,,001,120,2020_Feb_13_1059,spring_faces,3.2.3,59.917874045419865,
condition files/Stage0a.xlsx,0a,alpha,none,h,"['h', 'g']","['Chess', 'Go']","[0, 0.5]","[0, 0]",1,0,0,0,0,0,0,1,1,0,,,,,,,,,,,,,,,,,,,,,,,,,,,,,,,,,,,,,,,,,,,,,,,,,,,,,,,,,,,,,,,199.57368334900002,None,199.57368334900002,None,199.57368334900002,None,g,0,2.139178665000145,201.10701421500016,None,201.10701421500016,None,201.10701421500016,None,203.32368969399977,None,203.32368969399977,None,203.32368969399977,None,203.32368969399977,None,,,,,,,,,,,,,,,,,,,,,,,,,,,,,,,,,,,,,,,,,,,,001,120,2020_Feb_13_1059,spring_faces,3.2.3,59.917874045419865,
condition files/Stage0a.xlsx,0a,alpha,none,h,"['h', 'g']","['Chess', 'Go']","[0, 0.5]","[0, 0]",1,0,0,1,1,1,0,0,0,0,,,,,,,,,,,,,,,,,,,,,,,,,,,,,,,,,,,,,,,,,,,,,,,,,,,,,,,,,,,,,,,205.3070028459997,None,205.3070028459997,None,205.3070028459997,None,h,1,11.157889249000618,206.84034780000002,None,206.84034780000002,None,206.84034780000002,None,218.0570323769998,None,218.0570323769998,None,218.0570323769998,None,218.0570323769998,None,,,,,,,,,,,,,,,,,,,,,,,,,,,,,,,,,,,,,,,,,,,,001,120,2020_Feb_13_1059,spring_faces,3.2.3,59.917874045419865,
condition files/Stage0a.xlsx,0a,beta,none,g,"['h', 'g']","['Chess', 'Go']","[0, 0.5]","[0, 0]",1,0,0,1,1,1,0,1,1,1,,,,,,,,,,,,,,,,,,,,,,,,,,,,,,,,,,,,,,,,,,,,,,,,,,,,,,,,,,,,,,,220.0403616529993,None,220.0403616529993,None,220.0403616529993,None,g,1,1.800447649000489,221.57367530099964,None,221.57367530099964,None,221.57367530099964,None,223.45696741899974,None,223.45696741899974,None,223.45696741899974,None,223.45696741899974,None,,,,,,,,,,,,,,,,,,,,,,,,,,,,,,,,,,,,,,,,,,,,001,120,2020_Feb_13_1059,spring_faces,3.2.3,59.917874045419865,
condition files/Stage0a.xlsx,0a,alpha,none,h,"['h', 'g']","['Chess', 'Go']","[0, 0.5]","[0, 0]",1,0,0,2,2,2,0,0,0,0,,,,,,,,,,,,,,,,,,,,,,,,,,,,,,,,,,,,,,,,,,,,,,,,,,,,,,,,,,,,,,,225.4402875249998,None,225.4402875249998,None,225.4402875249998,None,h,1,0.6565468060007333,226.97367163699982,None,226.97367163699982,None,226.97367163699982,None,227.69038705899948,None,227.69038705899948,None,227.69038705899948,None,227.69038705899948,None,,,,,,,,,,,,,,,,,,,,,,,,,,,,,,,,,,,,,,,,,,,,001,120,2020_Feb_13_1059,spring_faces,3.2.3,59.917874045419865,
condition files/Stage0a.xlsx,0a,beta,none,g,"['h', 'g']","['Chess', 'Go']","[0, 0.5]","[0, 0]",1,0,0,2,2,2,0,1,1,1,,,,,,,,,,,,,,,,,,,,,,,,,,,,,,,,,,,,,,,,,,,,,,,,,,,,,,,,,,,,,,,229.6737038659994,None,229.6737038659994,None,229.6737038659994,None,g,1,0.6952104869997129,231.2070179829998,None,231.2070179829998,None,231.2070179829998,None,231.95706126000005,None,231.95706126000005,None,231.95706126000005,None,231.95706126000005,None,,,,,,,,,,,,,,,,,,,,,,,,,,,,,,,,,,,,,,,,,,,,001,120,2020_Feb_13_1059,spring_faces,3.2.3,59.917874045419865,
condition files/Stage0a.xlsx,0a,alpha,none,h,"['h', 'g']","['Chess', 'Go']","[0, 0.5]","[0, 0]",1,0,0,3,3,3,0,0,0,0,,,,,,,,,,,,,,,,,,,,,,,,,,,,,,,,,,,,,,,,,,,,,,,,,,,,,,,,,,,,,,,233.9570015319996,None,233.9570015319996,None,233.9570015319996,None,h,1,0.9559037529998022,235.49030858599963,None,235.49030858599963,None,235.49030858599963,None,236.523697609,None,236.523697609,None,236.523697609,None,236.523697609,None,,,,,,,,,,,,,,,,,,,,,,,,,,,,,,,,,,,,,,,,,,,,001,120,2020_Feb_13_1059,spring_faces,3.2.3,59.917874045419865,
condition files/Stage0a.xlsx,0a,beta,none,g,"['h', 'g']","['Chess', 'Go']","[0, 0.5]","[0, 0]",1,0,0,3,3,3,0,1,1,1,,,,,,,,,,,,,,,,,,,,,,,,,,,,,,,,,,,,,,,,,,,,,,,,,,,,,,,,,,,,,,,238.49039310099943,None,238.49039310099943,None,238.49039310099943,None,g,1,0.7105271299997185,240.02370078999957,None,240.02370078999957,None,240.02370078999957,None,240.79036226799963,None,240.79036226799963,None,240.79036226799963,None,240.79036226799963,None,,,,,,,,,,,,,,,,,,,,,,,,,,,,,,,,,,,,,,,,,,,,001,120,2020_Feb_13_1059,spring_faces,3.2.3,59.917874045419865,
condition files/Stage0a.xlsx,0a,alpha,none,h,"['h', 'g']","['Chess', 'Go']","[0, 0.5]","[0, 0]",1,0,0,4,4,4,0,0,0,0,,,,,,,,,,,,,,,,,,,,,,,,,,,,,,,,,,,,,,,,,,,,,,,,,,,,,,,,,,,,,,,242.7903395049998,None,242.7903395049998,None,242.7903395049998,None,h,1,0.6986170820000552,244.32367822800006,None,244.32367822800006,None,244.32367822800006,None,245.09041530000013,None,245.09041530000013,None,245.09041530000013,None,245.09041530000013,None,,,,,,,,,,,,,,,,,,,,,,,,,,,,,,,,,,,,,,,,,,,,001,120,2020_Feb_13_1059,spring_faces,3.2.3,59.917874045419865,
condition files/Stage0a.xlsx,0a,beta,none,g,"['h', 'g']","['Chess', 'Go']","[0, 0.5]","[0, 0]",1,0,0,4,4,4,0,1,1,1,,,,,,,,,,,,,,,,,,,,,,,,,,,,,,,,,,,,,,,,,,,,,,,,,,,,,,,,,,,,,,,247.0570359229996,None,247.0570359229996,None,247.0570359229996,None,g,1,0.3998629580000852,248.59038518499983,None,248.59038518499983,None,248.59038518499983,None,249.04027121499985,None,249.04027121499985,None,249.04027121499985,None,249.04027121499985,None,,,,,,,,,,,,,,,,,,,,,,,,,,,,,,,,,,,,,,,,,,,,001,120,2020_Feb_13_1059,spring_faces,3.2.3,59.917874045419865,
condition files/Stage0a.xlsx,0a,alpha,none,h,"['h', 'g']","['Chess', 'Go']","[0, 0.5]","[0, 0]",1,0,0,5,5,5,0,0,0,0,,,,,,,,,,,,,,,,,,,,,,,,,,,,,,,,,,,,,,,,,,,,,,,,,,,,,,,,,,,,,,,251.04031837299954,None,251.04031837299954,None,251.04031837299954,None,h,1,0.8004478120001295,252.57369879099952,None,252.57369879099952,None,252.57369879099952,None,253.44008038499942,None,253.44008038499942,None,253.44008038499942,None,253.44008038499942,None,,,,,,,,,,,,,,,,,,,,,,,,,,,,,,,,,,,,,,,,,,,,001,120,2020_Feb_13_1059,spring_faces,3.2.3,59.917874045419865,
condition files/Stage0a.xlsx,0a,beta,none,g,"['h', 'g']","['Chess', 'Go']","[0, 0.5]","[0, 0]",1,0,0,5,5,5,0,1,1,1,,,,,,,,,,,,,,,,,,,,,,,,,,,,,,,,,,,,,,,,,,,,,,,,,,,,,,,,,,,,,,,255.4236370560002,None,255.4236370560002,None,255.4236370560002,None,g,1,0.6892930480007635,256.95692167200014,None,256.95692167200014,None,256.95692167200014,None,257.7070475969995,None,257.7070475969995,None,257.7070475969995,None,257.7070475969995,None,,,,,,,,,,,,,,,,,,,,,,,,,,,,,,,,,,,,,,,,,,,,001,120,2020_Feb_13_1059,spring_faces,3.2.3,59.917874045419865,
condition files/Stage0b_1.xlsx,0b,alpha,none,h,"['h', 'g']","['Chess', 'Go']","[-0.15, 0.5]","[0.15, 0.5]",1,0,0,6,6,6,0,0,0,0,,,,,,,,,,,,,,,,,,,,,,,,,,,,,,,,,,,,,,,,,,,,,,,,,,,,,,,,,,,,,,,259.70702907399937,None,259.70702907399937,None,259.70702907399937,None,h,1,1.3979177479995997,261.24038298100004,None,261.24038298100004,None,261.24038298100004,None,262.69026786799986,None,262.69026786799986,None,262.69026786799986,None,262.69026786799986,None,,,,,,,,,,,,,,,,,,,,,,,,,,,,,,,,,,,,,,,,,,,,001,120,2020_Feb_13_1059,spring_faces,3.2.3,59.917874045419865,
condition files/Stage0b_1.xlsx,0b,none,beta,g,"['h', 'g']","['Chess', 'Go']","[-0.15, 0.5]","[0.15, 0.5]",0,1,0,6,6,6,0,1,1,1,,,,,,,,,,,,,,,,,,,,,,,,,,,,,,,,,,,,,,,,,,,,,,,,,,,,,,,,,,,,,,,264.6735952959998,None,264.6735952959998,None,264.6735952959998,None,h,0,0.9427827879999313,266.22346221099997,None,266.22346221099997,None,266.22346221099997,None,267.2403594789994,None,267.2403594789994,None,267.2403594789994,None,267.2403594789994,None,,,,,,,,,,,,,,,,,,,,,,,,,,,,,,,,,,,,,,,,,,,,001,120,2020_Feb_13_1059,spring_faces,3.2.3,59.917874045419865,
condition files/Stage0b_2.xlsx,0b,none,alpha,h,"['h', 'g']","['Chess', 'Go']","[-0.15, 0.5]","[0.15, 0.5]",0,1,0,7,7,7,0,0,0,0,,,,,,,,,,,,,,,,,,,,,,,,,,,,,,,,,,,,,,,,,,,,,,,,,,,,,,,,,,,,,,,269.2236742309997,None,269.2236742309997,None,269.2236742309997,None,h,1,2.041222674999517,270.75701223299984,None,270.75701223299984,None,270.75701223299984,None,272.8736916449998,None,272.8736916449998,None,272.8736916449998,None,272.8736916449998,None,,,,,,,,,,,,,,,,,,,,,,,,,,,,,,,,,,,,,,,,,,,,001,120,2020_Feb_13_1059,spring_faces,3.2.3,59.917874045419865,
condition files/Stage0b_2.xlsx,0b,beta,none,g,"['h', 'g']","['Chess', 'Go']","[-0.15, 0.5]","[0.15, 0.5]",1,0,0,7,7,7,0,1,1,1,,,,,,,,,,,,,,,,,,,,,,,,,,,,,,,,,,,,,,,,,,,,,,,,,,,,,,,,,,,,,,,274.8403617240001,None,274.8403617240001,None,274.8403617240001,None,g,1,0.34473571599937713,276.37352260899934,None,276.37352260899934,None,276.37352260899934,None,276.79037433899975,None,276.79037433899975,None,276.79037433899975,None,276.79037433899975,None,,,,,,,,,,,,,,,,,,,,,,,,,,,,,,,,,,,,,,,,,,,,001,120,2020_Feb_13_1059,spring_faces,3.2.3,59.917874045419865,
condition files/Stage0b_1.xlsx,0b,alpha,none,h,"['h', 'g']","['Chess', 'Go']","[-0.15, 0.5]","[0.15, 0.5]",1,0,0,8,8,8,0,0,0,0,,,,,,,,,,,,,,,,,,,,,,,,,,,,,,,,,,,,,,,,,,,,,,,,,,,,,,,,,,,,,,,278.7736748359994,None,278.7736748359994,None,278.7736748359994,None,h,1,0.31528798099952837,280.30701324099937,None,280.30701324099937,None,280.30701324099937,None,280.67363285099964,None,280.67363285099964,None,280.67363285099964,None,280.67363285099964,None,,,,,,,,,,,,,,,,,,,,,,,,,,,,,,,,,,,,,,,,,,,,001,120,2020_Feb_13_1059,spring_faces,3.2.3,59.917874045419865,
condition files/Stage0b_1.xlsx,0b,none,beta,g,"['h', 'g']","['Chess', 'Go']","[-0.15, 0.5]","[0.15, 0.5]",0,1,0,8,8,8,0,1,1,1,,,,,,,,,,,,,,,,,,,,,,,,,,,,,,,,,,,,,,,,,,,,,,,,,,,,,,,,,,,,,,,282.65704172499954,None,282.65704172499954,None,282.65704172499954,None,g,1,0.3357989269998143,284.1903806139999,None,284.1903806139999,None,284.1903806139999,None,284.6067806279998,None,284.6067806279998,None,284.6067806279998,None,284.6067806279998,None,,,,,,,,,,,,,,,,,,,,,,,,,,,,,,,,,,,,,,,,,,,,001,120,2020_Feb_13_1059,spring_faces,3.2.3,59.917874045419865,
condition files/Stage0b_2.xlsx,0b,beta,none,g,"['h', 'g']","['Chess', 'Go']","[-0.15, 0.5]","[0.15, 0.5]",1,0,0,9,9,9,0,0,0,1,,,,,,,,,,,,,,,,,,,,,,,,,,,,,,,,,,,,,,,,,,,,,,,,,,,,,,,,,,,,,,,286.59035997199953,None,286.59035997199953,None,286.59035997199953,None,h,0,0.27479356799995003,288.1234511169996,None,288.1234511169996,None,288.1234511169996,None,288.45676487999935,None,288.45676487999935,None,288.45676487999935,None,288.45676487999935,None,,,,,,,,,,,,,,,,,,,,,,,,,,,,,,,,,,,,,,,,,,,,001,120,2020_Feb_13_1059,spring_faces,3.2.3,59.917874045419865,
condition files/Stage0b_2.xlsx,0b,none,alpha,h,"['h', 'g']","['Chess', 'Go']","[-0.15, 0.5]","[0.15, 0.5]",0,1,0,9,9,9,0,1,1,0,,,,,,,,,,,,,,,,,,,,,,,,,,,,,,,,,,,,,,,,,,,,,,,,,,,,,,,,,,,,,,,290.4403781789997,None,290.4403781789997,None,290.4403781789997,None,g,0,1.2565495539993208,291.9736843029996,None,291.9736843029996,None,291.9736843029996,None,293.3070369139996,None,293.3070369139996,None,293.3070369139996,None,293.3070369139996,None,,,,,,,,,,,,,,,,,,,,,,,,,,,,,,,,,,,,,,,,,,,,001,120,2020_Feb_13_1059,spring_faces,3.2.3,59.917874045419865,
condition files/Stage0b_1.xlsx,0b,none,beta,g,"['h', 'g']","['Chess', 'Go']","[-0.15, 0.5]","[0.15, 0.5]",0,1,0,10,10,10,0,0,0,1,,,,,,,,,,,,,,,,,,,,,,,,,,,,,,,,,,,,,,,,,,,,,,,,,,,,,,,,,,,,,,,295.29036928000005,None,295.29036928000005,None,295.29036928000005,None,g,1,0.3905251509995651,296.82370092699966,None,296.82370092699966,None,296.82370092699966,None,297.2903409249993,None,297.2903409249993,None,297.2903409249993,None,297.2903409249993,None,,,,,,,,,,,,,,,,,,,,,,,,,,,,,,,,,,,,,,,,,,,,001,120,2020_Feb_13_1059,spring_faces,3.2.3,59.917874045419865,
condition files/Stage0b_1.xlsx,0b,alpha,none,h,"['h', 'g']","['Chess', 'Go']","[-0.15, 0.5]","[0.15, 0.5]",1,0,0,10,10,10,0,1,1,0,,,,,,,,,,,,,,,,,,,,,,,,,,,,,,,,,,,,,,,,,,,,,,,,,,,,,,,,,,,,,,,299.25700365600005,None,299.25700365600005,None,299.25700365600005,None,h,1,0.2960631870000725,300.79010679099974,None,300.79010679099974,None,300.79010679099974,None,301.15704656399976,None,301.15704656399976,None,301.15704656399976,None,301.15704656399976,None,,,,,,,,,,,,,,,,,,,,,,,,,,,,,,,,,,,,,,,,,,,,001,120,2020_Feb_13_1059,spring_faces,3.2.3,59.917874045419865,
condition files/Stage0b_2.xlsx,0b,none,alpha,h,"['h', 'g']","['Chess', 'Go']","[-0.15, 0.5]","[0.15, 0.5]",0,1,0,11,11,11,0,0,0,0,,,,,,,,,,,,,,,,,,,,,,,,,,,,,,,,,,,,,,,,,,,,,,,,,,,,,,,,,,,,,,,303.1403560869994,None,303.1403560869994,None,303.1403560869994,None,g,0,0.26844539400008216,304.6736999549994,None,304.6736999549994,None,304.6736999549994,None,305.0070290019994,None,305.0070290019994,None,305.0070290019994,None,305.0070290019994,None,,,,,,,,,,,,,,,,,,,,,,,,,,,,,,,,,,,,,,,,,,,,001,120,2020_Feb_13_1059,spring_faces,3.2.3,59.917874045419865,
condition files/Stage0b_2.xlsx,0b,beta,none,g,"['h', 'g']","['Chess', 'Go']","[-0.15, 0.5]","[0.15, 0.5]",1,0,0,11,11,11,0,1,1,1,,,,,,,,,,,,,,,,,,,,,,,,,,,,,,,,,,,,,,,,,,,,,,,,,,,,,,,,,,,,,,,306.9902945650001,None,306.9902945650001,None,306.9902945650001,None,g,1,0.9627836600002411,308.5233891859998,None,308.5233891859998,None,308.5233891859998,None,309.5570094879995,None,309.5570094879995,None,309.5570094879995,None,309.5570094879995,None,,,,,,,,,,,,,,,,,,,,,,,,,,,,,,,,,,,,,,,,,,,,001,120,2020_Feb_13_1059,spring_faces,3.2.3,59.917874045419865,
condition files/Stage0c_1.xlsx,0c,alpha,phi,h,"['h', 'g']","['Chess', 'Go']","[-0.15, 0.5]","[0.15, 0.5]",1,1,0,12,12,12,0,0,0,1,,,,,,,,,,,,,,,,,,,,,,,,,,,,,,,,,,,,,,,,,,,,,,,,,,,,,,,,,,,,,,,311.54037521400005,None,311.54037521400005,None,311.54037521400005,None,g,0,1.6925041109998347,313.07371917899945,None,313.07371917899945,None,313.07371917899945,None,314.84035112199945,None,314.84035112199945,None,314.84035112199945,None,314.84035112199945,None,,,,,,,,,,,,,,,,,,,,,,,,,,,,,,,,,,,,,,,,,,,,001,120,2020_Feb_13_1059,spring_faces,3.2.3,59.917874045419865,
condition files/Stage0c_1.xlsx,0c,phi,beta,g,"['h', 'g']","['Chess', 'Go']","[-0.15, 0.5]","[0.15, 0.5]",1,1,0,12,12,12,0,1,1,3,,,,,,,,,,,,,,,,,,,,,,,,,,,,,,,,,,,,,,,,,,,,,,,,,,,,,,,,,,,,,,,316.8070082009999,None,316.8070082009999,None,316.8070082009999,None,g,1,1.9139266499996666,318.34035009299987,None,318.34035009299987,None,318.34035009299987,None,320.30701089800004,None,320.30701089800004,None,320.30701089800004,None,320.30701089800004,None,,,,,,,,,,,,,,,,,,,,,,,,,,,,,,,,,,,,,,,,,,,,001,120,2020_Feb_13_1059,spring_faces,3.2.3,59.917874045419865,
condition files/Stage0c_1.xlsx,0c,theta,alpha,h,"['h', 'g']","['Chess', 'Go']","[-0.15, 0.5]","[0.15, 0.5]",1,1,0,12,12,12,0,2,2,0,,,,,,,,,,,,,,,,,,,,,,,,,,,,,,,,,,,,,,,,,,,,,,,,,,,,,,,,,,,,,,,322.2903564019998,None,322.2903564019998,None,322.2903564019998,None,h,1,0.6704890709997926,323.82370696199996,None,323.82370696199996,None,323.82370696199996,None,324.57370195400017,None,324.57370195400017,None,324.57370195400017,None,324.57370195400017,None,,,,,,,,,,,,,,,,,,,,,,,,,,,,,,,,,,,,,,,,,,,,001,120,2020_Feb_13_1059,spring_faces,3.2.3,59.917874045419865,
condition files/Stage0c_1.xlsx,0c,beta,theta,g,"['h', 'g']","['Chess', 'Go']","[-0.15, 0.5]","[0.15, 0.5]",1,1,0,12,12,12,0,3,3,2,,,,,,,,,,,,,,,,,,,,,,,,,,,,,,,,,,,,,,,,,,,,,,,,,,,,,,,,,,,,,,,326.5403959059995,None,326.5403959059995,None,326.5403959059995,None,g,1,0.6932304619995193,328.05698141799985,None,328.05698141799985,None,328.05698141799985,None,328.80701448699983,None,328.80701448699983,None,328.80701448699983,None,328.80701448699983,None,,,,,,,,,,,,,,,,,,,,,,,,,,,,,,,,,,,,,,,,,,,,001,120,2020_Feb_13_1059,spring_faces,3.2.3,59.917874045419865,
condition files/Stage0c_2.xlsx,0c,beta,phi,g,"['h', 'g']","['Chess', 'Go']","[-0.15, 0.5]","[0.15, 0.5]",1,1,0,13,13,13,0,0,0,3,,,,,,,,,,,,,,,,,,,,,,,,,,,,,,,,,,,,,,,,,,,,,,,,,,,,,,,,,,,,,,,330.8070471840001,None,330.8070471840001,None,330.8070471840001,None,h,0,0.3625651909997032,332.3235911439997,None,332.3235911439997,None,332.3235911439997,None,332.7403591579996,None,332.7403591579996,None,332.7403591579996,None,332.7403591579996,None,,,,,,,,,,,,,,,,,,,,,,,,,,,,,,,,,,,,,,,,,,,,001,120,2020_Feb_13_1059,spring_faces,3.2.3,59.917874045419865,
condition files/Stage0c_2.xlsx,0c,theta,beta,g,"['h', 'g']","['Chess', 'Go']","[-0.15, 0.5]","[0.15, 0.5]",1,1,0,13,13,13,0,1,1,2,,,,,,,,,,,,,,,,,,,,,,,,,,,,,,,,,,,,,,,,,,,,,,,,,,,,,,,,,,,,,,,334.72370084700015,None,334.72370084700015,None,334.72370084700015,None,g,1,0.3020050959994478,336.2401460789997,None,336.2401460789997,None,336.2401460789997,None,336.60696365999956,None,336.60696365999956,None,336.60696365999956,None,336.60696365999956,None,,,,,,,,,,,,,,,,,,,,,,,,,,,,,,,,,,,,,,,,,,,,001,120,2020_Feb_13_1059,spring_faces,3.2.3,59.917874045419865,
condition files/Stage0c_2.xlsx,0c,phi,alpha,h,"['h', 'g']","['Chess', 'Go']","[-0.15, 0.5]","[0.15, 0.5]",1,1,0,13,13,13,0,2,2,1,,,,,,,,,,,,,,,,,,,,,,,,,,,,,,,,,,,,,,,,,,,,,,,,,,,,,,,,,,,,,,,338.5903396499998,None,338.5903396499998,None,338.5903396499998,None,g,0,0.38650147299995297,340.1236927209993,None,340.1236927209993,None,340.1236927209993,None,340.5737052630002,None,340.5737052630002,None,340.5737052630002,None,340.5737052630002,None,,,,,,,,,,,,,,,,,,,,,,,,,,,,,,,,,,,,,,,,,,,,001,120,2020_Feb_13_1059,spring_faces,3.2.3,59.917874045419865,
condition files/Stage0c_2.xlsx,0c,alpha,theta,h,"['h', 'g']","['Chess', 'Go']","[-0.15, 0.5]","[0.15, 0.5]",1,1,0,13,13,13,0,3,3,0,,,,,,,,,,,,,,,,,,,,,,,,,,,,,,,,,,,,,,,,,,,,,,,,,,,,,,,,,,,,,,,342.557036745,None,342.557036745,None,342.557036745,None,h,1,0.6129146550001678,344.0732462770002,None,344.0732462770002,None,344.0732462770002,None,344.7403482669997,None,344.7403482669997,None,344.7403482669997,None,344.7403482669997,None,,,,,,,,,,,,,,,,,,,,,,,,,,,,,,,,,,,,,,,,,,,,001,120,2020_Feb_13_1059,spring_faces,3.2.3,59.917874045419865,
condition files/Stage0c_1.xlsx,0c,alpha,phi,h,"['h', 'g']","['Chess', 'Go']","[-0.15, 0.5]","[0.15, 0.5]",1,1,0,14,14,14,0,0,0,1,,,,,,,,,,,,,,,,,,,,,,,,,,,,,,,,,,,,,,,,,,,,,,,,,,,,,,,,,,,,,,,346.74031737099995,None,346.74031737099995,None,346.74031737099995,None,g,0,0.30133747800027777,348.25682453099944,None,348.25682453099944,None,348.25682453099944,None,348.6236385789998,None,348.6236385789998,None,348.6236385789998,None,348.6236385789998,None,,,,,,,,,,,,,,,,,,,,,,,,,,,,,,,,,,,,,,,,,,,,001,120,2020_Feb_13_1059,spring_faces,3.2.3,59.917874045419865,
condition files/Stage0c_1.xlsx,0c,beta,theta,g,"['h', 'g']","['Chess', 'Go']","[-0.15, 0.5]","[0.15, 0.5]",1,1,0,14,14,14,0,1,1,2,,,,,,,,,,,,,,,,,,,,,,,,,,,,,,,,,,,,,,,,,,,,,,,,,,,,,,,,,,,,,,,350.6069535059996,None,350.6069535059996,None,350.6069535059996,None,h,0,0.8827465639997172,352.12346892799997,None,352.12346892799997,None,352.12346892799997,None,353.056959515,None,353.056959515,None,353.056959515,None,353.056959515,None,,,,,,,,,,,,,,,,,,,,,,,,,,,,,,,,,,,,,,,,,,,,001,120,2020_Feb_13_1059,spring_faces,3.2.3,59.917874045419865,
condition files/Stage0c_1.xlsx,0c,phi,beta,g,"['h', 'g']","['Chess', 'Go']","[-0.15, 0.5]","[0.15, 0.5]",1,1,0,14,14,14,0,2,2,3,,,,,,,,,,,,,,,,,,,,,,,,,,,,,,,,,,,,,,,,,,,,,,,,,,,,,,,,,,,,,,,355.0402680729994,None,355.0402680729994,None,355.0402680729994,None,g,1,0.3212030800004868,356.5569991029997,None,356.5569991029997,None,356.5569991029997,None,356.9403416649993,None,356.9403416649993,None,356.9403416649993,None,356.9403416649993,None,,,,,,,,,,,,,,,,,,,,,,,,,,,,,,,,,,,,,,,,,,,,001,120,2020_Feb_13_1059,spring_faces,3.2.3,59.917874045419865,
condition files/Stage0c_1.xlsx,0c,theta,alpha,h,"['h', 'g']","['Chess', 'Go']","[-0.15, 0.5]","[0.15, 0.5]",1,1,0,14,14,14,0,3,3,0,,,,,,,,,,,,,,,,,,,,,,,,,,,,,,,,,,,,,,,,,,,,,,,,,,,,,,,,,,,,,,,358.92369565699937,None,358.92369565699937,None,358.92369565699937,None,h,1,0.837152918999891,360.4570426049995,None,360.4570426049995,None,360.4570426049995,None,361.37370425599966,None,361.37370425599966,None,361.37370425599966,None,361.37370425599966,None,,,,,,,,,,,,,,,,,,,,,,,,,,,,,,,,,,,,,,,,,,,,001,120,2020_Feb_13_1059,spring_faces,3.2.3,59.917874045419865,
condition files/Stage0c_2.xlsx,0c,theta,beta,g,"['h', 'g']","['Chess', 'Go']","[-0.15, 0.5]","[0.15, 0.5]",1,1,0,15,15,15,0,0,0,2,,,,,,,,,,,,,,,,,,,,,,,,,,,,,,,,,,,,,,,,,,,,,,,,,,,,,,,,,,,,,,,363.35703300299974,None,363.35703300299974,None,363.35703300299974,None,g,1,0.9479414520001228,364.89036795099946,None,364.89036795099946,None,364.89036795099946,None,365.8904184229996,None,365.8904184229996,None,365.8904184229996,None,365.8904184229996,None,,,,,,,,,,,,,,,,,,,,,,,,,,,,,,,,,,,,,,,,,,,,001,120,2020_Feb_13_1059,spring_faces,3.2.3,59.917874045419865,
condition files/Stage0c_2.xlsx,0c,beta,phi,g,"['h', 'g']","['Chess', 'Go']","[-0.15, 0.5]","[0.15, 0.5]",1,1,0,15,15,15,0,1,1,3,,,,,,,,,,,,,,,,,,,,,,,,,,,,,,,,,,,,,,,,,,,,,,,,,,,,,,,,,,,,,,,367.8735985229996,None,367.8735985229996,None,367.8735985229996,None,g,1,0.575279263000084,369.40697033299966,None,369.40697033299966,None,369.40697033299966,None,370.0403451309994,None,370.0403451309994,None,370.0403451309994,None,370.0403451309994,None,,,,,,,,,,,,,,,,,,,,,,,,,,,,,,,,,,,,,,,,,,,,001,120,2020_Feb_13_1059,spring_faces,3.2.3,59.917874045419865,
condition files/Stage0c_2.xlsx,0c,phi,alpha,h,"['h', 'g']","['Chess', 'Go']","[-0.15, 0.5]","[0.15, 0.5]",1,1,0,15,15,15,0,2,2,1,,,,,,,,,,,,,,,,,,,,,,,,,,,,,,,,,,,,,,,,,,,,,,,,,,,,,,,,,,,,,,,372.02369583899963,None,372.02369583899963,None,372.02369583899963,None,g,0,0.6652570579999519,373.557040873,None,373.557040873,None,373.557040873,None,374.27362257000004,None,374.27362257000004,None,374.27362257000004,None,374.27362257000004,None,,,,,,,,,,,,,,,,,,,,,,,,,,,,,,,,,,,,,,,,,,,,001,120,2020_Feb_13_1059,spring_faces,3.2.3,59.917874045419865,
condition files/Stage0c_2.xlsx,0c,alpha,theta,h,"['h', 'g']","['Chess', 'Go']","[-0.15, 0.5]","[0.15, 0.5]",1,1,0,15,15,15,0,3,3,0,,,,,,,,,,,,,,,,,,,,,,,,,,,,,,,,,,,,,,,,,,,,,,,,,,,,,,,,,,,,,,,376.25695725700007,None,376.25695725700007,None,376.25695725700007,None,h,1,0.9125341569997545,377.77357157499955,None,377.77357157499955,None,377.77357157499955,None,378.7403629820001,None,378.7403629820001,None,378.7403629820001,None,378.7403629820001,None,,,,,,,,,,,,,,,,,,,,,,,,,,,,,,,,,,,,,,,,,,,,001,120,2020_Feb_13_1059,spring_faces,3.2.3,59.917874045419865,
condition files/Stage0c_1.xlsx,0c,theta,alpha,h,"['h', 'g']","['Chess', 'Go']","[-0.15, 0.5]","[0.15, 0.5]",1,1,0,16,16,16,0,0,0,0,,,,,,,,,,,,,,,,,,,,,,,,,,,,,,,,,,,,,,,,,,,,,,,,,,,,,,,,,,,,,,,380.74033898000016,None,380.74033898000016,None,380.74033898000016,None,g,0,0.6696317409996482,382.25656612700004,None,382.25656612700004,None,382.25656612700004,None,382.9903635109995,None,382.9903635109995,None,382.9903635109995,None,382.9903635109995,None,,,,,,,,,,,,,,,,,,,,,,,,,,,,,,,,,,,,,,,,,,,,001,120,2020_Feb_13_1059,spring_faces,3.2.3,59.917874045419865,
condition files/Stage0c_1.xlsx,0c,alpha,phi,h,"['h', 'g']","['Chess', 'Go']","[-0.15, 0.5]","[0.15, 0.5]",1,1,0,16,16,16,0,1,1,1,,,,,,,,,,,,,,,,,,,,,,,,,,,,,,,,,,,,,,,,,,,,,,,,,,,,,,,,,,,,,,,384.9737018349997,None,384.9737018349997,None,384.9737018349997,None,g,0,0.8202657370002271,386.489933156,None,386.489933156,None,386.489933156,None,387.3736870879993,None,387.3736870879993,None,387.3736870879993,None,387.3736870879993,None,,,,,,,,,,,,,,,,,,,,,,,,,,,,,,,,,,,,,,,,,,,,001,120,2020_Feb_13_1059,spring_faces,3.2.3,59.917874045419865,
condition files/Stage0c_1.xlsx,0c,phi,beta,g,"['h', 'g']","['Chess', 'Go']","[-0.15, 0.5]","[0.15, 0.5]",1,1,0,16,16,16,0,2,2,3,,,,,,,,,,,,,,,,,,,,,,,,,,,,,,,,,,,,,,,,,,,,,,,,,,,,,,,,,,,,,,,389.3570443009994,None,389.3570443009994,None,389.3570443009994,None,h,0,0.5966521210002611,390.8735891189999,None,390.8735891189999,None,390.8735891189999,None,391.523679463,None,391.523679463,None,391.523679463,None,391.523679463,None,,,,,,,,,,,,,,,,,,,,,,,,,,,,,,,,,,,,,,,,,,,,001,120,2020_Feb_13_1059,spring_faces,3.2.3,59.917874045419865,
condition files/Stage0c_1.xlsx,0c,beta,theta,g,"['h', 'g']","['Chess', 'Go']","[-0.15, 0.5]","[0.15, 0.5]",1,1,0,16,16,16,0,3,3,2,,,,,,,,,,,,,,,,,,,,,,,,,,,,,,,,,,,,,,,,,,,,,,,,,,,,,,,,,,,,,,,393.50706240399995,None,393.50706240399995,None,393.50706240399995,None,h,0,0.31776815800003533,395.04036766099944,None,395.04036766099944,None,395.04036766099944,None,395.42363187699993,None,395.42363187699993,None,395.42363187699993,None,395.42363187699993,None,,,,,,,,,,,,,,,,,,,,,,,,,,,,,,,,,,,,,,,,,,,,001,120,2020_Feb_13_1059,spring_faces,3.2.3,59.917874045419865,
condition files/Stage0c_2.xlsx,0c,alpha,theta,h,"['h', 'g']","['Chess', 'Go']","[-0.15, 0.5]","[0.15, 0.5]",1,1,0,17,17,17,0,0,0,0,,,,,,,,,,,,,,,,,,,,,,,,,,,,,,,,,,,,,,,,,,,,,,,,,,,,,,,,,,,,,,,397.42369820800013,None,397.42369820800013,None,397.42369820800013,None,h,1,0.35316762899947207,398.95704431800004,None,398.95704431800004,None,398.95704431800004,None,399.37368109399995,None,399.37368109399995,None,399.37368109399995,None,399.37368109399995,None,,,,,,,,,,,,,,,,,,,,,,,,,,,,,,,,,,,,,,,,,,,,001,120,2020_Feb_13_1059,spring_faces,3.2.3,59.917874045419865,
condition files/Stage0c_2.xlsx,0c,theta,beta,g,"['h', 'g']","['Chess', 'Go']","[-0.15, 0.5]","[0.15, 0.5]",1,1,0,17,17,17,0,1,1,2,,,,,,,,,,,,,,,,,,,,,,,,,,,,,,,,,,,,,,,,,,,,,,,,,,,,,,,,,,,,,,,401.3570682139998,None,401.3570682139998,None,401.3570682139998,None,h,0,0.3238358100006735,402.8903712929996,None,402.8903712929996,None,402.8903712929996,None,403.2736967029996,None,403.2736967029996,None,403.2736967029996,None,403.2736967029996,None,,,,,,,,,,,,,,,,,,,,,,,,,,,,,,,,,,,,,,,,,,,,001,120,2020_Feb_13_1059,spring_faces,3.2.3,59.917874045419865,
condition files/Stage0c_2.xlsx,0c,phi,alpha,h,"['h', 'g']","['Chess', 'Go']","[-0.15, 0.5]","[0.15, 0.5]",1,1,0,17,17,17,0,2,2,1,,,,,,,,,,,,,,,,,,,,,,,,,,,,,,,,,,,,,,,,,,,,,,,,,,,,,,,,,,,,,,,405.25703937399976,None,405.25703937399976,None,405.25703937399976,None,g,0,0.5045062020008118,406.773698598,None,406.773698598,None,406.773698598,None,407.34036998899956,None,407.34036998899956,None,407.34036998899956,None,407.34036998899956,None,,,,,,,,,,,,,,,,,,,,,,,,,,,,,,,,,,,,,,,,,,,,001,120,2020_Feb_13_1059,spring_faces,3.2.3,59.917874045419865,
condition files/Stage0c_2.xlsx,0c,beta,phi,g,"['h', 'g']","['Chess', 'Go']","[-0.15, 0.5]","[0.15, 0.5]",1,1,0,17,17,17,0,3,3,3,,,,,,,,,,,,,,,,,,,,,,,,,,,,,,,,,,,,,,,,,,,,,,,,,,,,,,,,,,,,,,,409.3235959630001,None,409.3235959630001,None,409.3235959630001,None,g,1,0.2612119959994743,410.857013846,None,410.857013846,None,410.857013846,None,411.1737336030001,None,411.1737336030001,None,411.1737336030001,None,411.1737336030001,None,,,,,,,,,,,,,,,,,,,,,,,,,,,,,,,,,,,,,,,,,,,,001,120,2020_Feb_13_1059,spring_faces,3.2.3,59.917874045419865,
,,,,,,,,,,,,,,,,,,,,,,,,,,,,,,,,,,,,,,,,,,,,,,,,,,,,,,,,,,,,,,,,,,,,,,,,,,,,,,,,,,,,,,,,,,,,,,,,,,,,,,,,413.15700616699996,None,space,3.009880962999887,418.1403646660001,None,,,,,,,,,,,,,,,,,,,,,,,,,,,,,,,,,,,,,,001,120,2020_Feb_13_1059,spring_faces,3.2.3,59.917874045419865,
condition files/Stage1_1.xlsx,,B2,T1,m,"['c', 'm']","['Clue', 'Monopoly']","[-0.15, 0.5]","[0.15, 0.5]",1,1,,,,,,,,,0,0,0,0,0,0,0,2,,,,,,,,,,,,,,,,,,,,,,,,,,,,,,,,,,,,,,,,,,,,,,,,,,,,,,,421.2070725980002,None,421.2070725980002,None,421.2070725980002,None,c,0,1.6099152830001913,422.74034320099963,None,422.74034320099963,None,422.74034320099963,None,424.4400820639994,None,424.4400820639994,None,424.4400820639994,None,424.4400820639994,None,,,,,,,418.1403646660001,None,,,,,,,,,,,,,,,,,,,,,,,,,,,,,,,,,,,,001,120,2020_Feb_13_1059,spring_faces,3.2.3,59.917874045419865,
condition files/Stage1_1.xlsx,,T1,B1,c,"['c', 'm']","['Clue', 'Monopoly']","[-0.15, 0.5]","[0.15, 0.5]",1,1,,,,,,,,,0,0,0,0,0,1,1,0,,,,,,,,,,,,,,,,,,,,,,,,,,,,,,,,,,,,,,,,,,,,,,,,,,,,,,,426.3903605489995,None,426.3903605489995,None,426.3903605489995,None,m,0,1.4504164399995716,427.92369478899946,None,427.92369478899946,None,427.92369478899946,None,429.456961934,None,429.456961934,None,429.456961934,None,429.456961934,None,,,,,,,,,,,,,,,,,,,,,,,,,,,,,,,,,,,,,,,,,,,,001,120,2020_Feb_13_1059,spring_faces,3.2.3,59.917874045419865,
condition files/Stage1_1.xlsx,,T2,B2,m,"['c', 'm']","['Clue', 'Monopoly']","[-0.15, 0.5]","[0.15, 0.5]",1,1,,,,,,,,,0,0,0,0,0,2,2,3,,,,,,,,,,,,,,,,,,,,,,,,,,,,,,,,,,,,,,,,,,,,,,,,,,,,,,,431.42371138,None,431.42371138,None,431.42371138,None,m,1,1.4093477160004113,432.95689701299943,None,432.95689701299943,None,432.95689701299943,None,434.4403487009995,None,434.4403487009995,None,434.4403487009995,None,434.4403487009995,None,,,,,,,,,,,,,,,,,,,,,,,,,,,,,,,,,,,,,,,,,,,,001,120,2020_Feb_13_1059,spring_faces,3.2.3,59.917874045419865,
condition files/Stage1_1.xlsx,,B4,T4,m,"['c', 'm']","['Clue', 'Monopoly']","[-0.15, 0.5]","[0.15, 0.5]",1,1,,,,,,,,,0,0,0,0,0,3,3,7,,,,,,,,,,,,,,,,,,,,,,,,,,,,,,,,,,,,,,,,,,,,,,,,,,,,,,,436.40701394999996,None,436.40701394999996,None,436.40701394999996,None,c,0,1.1339404039999863,438.2402208550002,None,438.2402208550002,None,438.2402208550002,None,439.4402888300001,None,439.4402888300001,None,439.4402888300001,None,439.4402888300001,None,,,,,,,,,,,,,,,,,,,,,,,,,,,,,,,,,,,,,,,,,,,,001,120,2020_Feb_13_1059,spring_faces,3.2.3,59.917874045419865,
condition files/Stage1_1.xlsx,,B3,T3,c,"['c', 'm']","['Clue', 'Monopoly']","[-0.15, 0.5]","[0.15, 0.5]",1,1,,,,,,,,,0,0,0,0,0,4,4,4,,,,,,,,,,,,,,,,,,,,,,,,,,,,,,,,,,,,,,,,,,,,,,,,,,,,,,,441.440312748,None,441.440312748,None,441.440312748,None,c,1,0.7524929729997893,442.9737114359996,None,442.9737114359996,None,442.9737114359996,None,443.80697681499987,None,443.80697681499987,None,443.80697681499987,None,443.80697681499987,None,,,,,,,,,,,,,,,,,,,,,,,,,,,,,,,,,,,,,,,,,,,,001,120,2020_Feb_13_1059,spring_faces,3.2.3,59.917874045419865,
condition files/Stage1_1.xlsx,,T4,B3,m,"['c', 'm']","['Clue', 'Monopoly']","[-0.15, 0.5]","[0.15, 0.5]",1,1,,,,,,,,,0,0,0,0,0,5,5,6,,,,,,,,,,,,,,,,,,,,,,,,,,,,,,,,,,,,,,,,,,,,,,,,,,,,,,,445.7736823059995,None,445.7736823059995,None,445.7736823059995,None,m,1,0.7711838029999853,447.3070169880002,None,447.3070169880002,None,447.3070169880002,None,448.1570121670002,None,448.1570121670002,None,448.1570121670002,None,448.1570121670002,None,,,,,,,,,,,,,,,,,,,,,,,,,,,,,,,,,,,,,,,,,,,,001,120,2020_Feb_13_1059,spring_faces,3.2.3,59.917874045419865,
condition files/Stage1_1.xlsx,,T3,B4,c,"['c', 'm']","['Clue', 'Monopoly']","[-0.15, 0.5]","[0.15, 0.5]",1,1,,,,,,,,,0,0,0,0,0,6,6,5,,,,,,,,,,,,,,,,,,,,,,,,,,,,,,,,,,,,,,,,,,,,,,,,,,,,,,,450.12370947,None,450.12370947,None,450.12370947,None,c,1,0.6132639730003575,451.65700968500005,None,451.65700968500005,None,451.65700968500005,None,452.34035369699995,None,452.34035369699995,None,452.34035369699995,None,452.34035369699995,None,,,,,,,,,,,,,,,,,,,,,,,,,,,,,,,,,,,,,,,,,,,,001,120,2020_Feb_13_1059,spring_faces,3.2.3,59.917874045419865,
condition files/Stage1_1.xlsx,,B1,T2,c,"['c', 'm']","['Clue', 'Monopoly']","[-0.15, 0.5]","[0.15, 0.5]",1,1,,,,,,,,,0,0,0,0,0,7,7,1,,,,,,,,,,,,,,,,,,,,,,,,,,,,,,,,,,,,,,,,,,,,,,,,,,,,,,,454.3070229169998,None,454.3070229169998,None,454.3070229169998,None,m,0,0.8459105029996863,455.8402649359996,None,455.8402649359996,None,455.8402649359996,None,456.7570005719999,None,456.7570005719999,None,456.7570005719999,None,456.7570005719999,None,,,,,,,,,,,,,,,,,,,,,,,,,,,,,,,,,,,,,,,,,,,,001,120,2020_Feb_13_1059,spring_faces,3.2.3,59.917874045419865,
condition files/Stage1_2.xlsx,,B3,T4,m,"['c', 'm']","['Clue', 'Monopoly']","[-0.15, 0.5]","[0.15, 0.5]",1,1,,,,,,,,,0,1,1,1,0,0,0,6,,,,,,,,,,,,,,,,,,,,,,,,,,,,,,,,,,,,,,,,,,,,,,,,,,,,,,,458.7403445639993,None,458.7403445639993,None,458.7403445639993,None,m,1,0.36462256200047705,460.2736806339999,None,460.2736806339999,None,460.2736806339999,None,460.7070156669997,None,460.7070156669997,None,460.7070156669997,None,460.7070156669997,None,,,,,,,,,,,,,,,,,,,,,,,,,,,,,,,,,,,,,,,,,,,,001,120,2020_Feb_13_1059,spring_faces,3.2.3,59.917874045419865,
condition files/Stage1_2.xlsx,,B1,T1,c,"['c', 'm']","['Clue', 'Monopoly']","[-0.15, 0.5]","[0.15, 0.5]",1,1,,,,,,,,,0,1,1,1,0,1,1,0,,,,,,,,,,,,,,,,,,,,,,,,,,,,,,,,,,,,,,,,,,,,,,,,,,,,,,,462.67362011099976,None,462.67362011099976,None,462.67362011099976,None,c,1,1.567098206999617,464.2070379449997,None,464.2070379449997,None,464.2070379449997,None,465.8569749779999,None,465.8569749779999,None,465.8569749779999,None,465.8569749779999,None,,,,,,,,,,,,,,,,,,,,,,,,,,,,,,,,,,,,,,,,,,,,001,120,2020_Feb_13_1059,spring_faces,3.2.3,59.917874045419865,
condition files/Stage1_2.xlsx,,T2,B1,c,"['c', 'm']","['Clue', 'Monopoly']","[-0.15, 0.5]","[0.15, 0.5]",1,1,,,,,,,,,0,1,1,1,0,2,2,1,,,,,,,,,,,,,,,,,,,,,,,,,,,,,,,,,,,,,,,,,,,,,,,,,,,,,,,467.8237349149995,None,467.8237349149995,None,467.8237349149995,None,m,0,0.881147418999717,469.35705887399945,None,469.35705887399945,None,469.35705887399945,None,470.2903882569999,None,470.2903882569999,None,470.2903882569999,None,470.2903882569999,None,,,,,,,,,,,,,,,,,,,,,,,,,,,,,,,,,,,,,,,,,,,,001,120,2020_Feb_13_1059,spring_faces,3.2.3,59.917874045419865,
condition files/Stage1_2.xlsx,,T1,B2,m,"['c', 'm']","['Clue', 'Monopoly']","[-0.15, 0.5]","[0.15, 0.5]",1,1,,,,,,,,,0,1,1,1,0,3,3,2,,,,,,,,,,,,,,,,,,,,,,,,,,,,,,,,,,,,,,,,,,,,,,,,,,,,,,,472.2736063000002,None,472.2736063000002,None,472.2736063000002,None,m,1,1.0552483350002149,473.80696290800006,None,473.80696290800006,None,473.80696290800006,None,474.9403666729995,None,474.9403666729995,None,474.9403666729995,None,474.9403666729995,None,,,,,,,,,,,,,,,,,,,,,,,,,,,,,,,,,,,,,,,,,,,,001,120,2020_Feb_13_1059,spring_faces,3.2.3,59.917874045419865,
condition files/Stage1_2.xlsx,,B2,T2,m,"['c', 'm']","['Clue', 'Monopoly']","[-0.15, 0.5]","[0.15, 0.5]",1,1,,,,,,,,,0,1,1,1,0,4,4,3,,,,,,,,,,,,,,,,,,,,,,,,,,,,,,,,,,,,,,,,,,,,,,,,,,,,,,,476.907043917,None,476.907043917,None,476.907043917,None,m,1,0.8698126909994244,478.4403854000002,None,478.4403854000002,None,478.4403854000002,None,479.3736995829995,None,479.3736995829995,None,479.3736995829995,None,479.3736995829995,None,,,,,,,,,,,,,,,,,,,,,,,,,,,,,,,,,,,,,,,,,,,,001,120,2020_Feb_13_1059,spring_faces,3.2.3,59.917874045419865,
condition files/Stage1_2.xlsx,,B4,T3,c,"['c', 'm']","['Clue', 'Monopoly']","[-0.15, 0.5]","[0.15, 0.5]",1,1,,,,,,,,,0,1,1,1,0,5,5,5,,,,,,,,,,,,,,,,,,,,,,,,,,,,,,,,,,,,,,,,,,,,,,,,,,,,,,,481.3570566749995,None,481.3570566749995,None,481.3570566749995,None,c,1,0.8357268280005883,482.89038184699984,None,482.89038184699984,None,482.89038184699984,None,483.80697212299947,None,483.80697212299947,None,483.80697212299947,None,483.80697212299947,None,,,,,,,,,,,,,,,,,,,,,,,,,,,,,,,,,,,,,,,,,,,,001,120,2020_Feb_13_1059,spring_faces,3.2.3,59.917874045419865,
condition files/Stage1_2.xlsx,,T4,B4,m,"['c', 'm']","['Clue', 'Monopoly']","[-0.15, 0.5]","[0.15, 0.5]",1,1,,,,,,,,,0,1,1,1,0,6,6,7,,,,,,,,,,,,,,,,,,,,,,,,,,,,,,,,,,,,,,,,,,,,,,,,,,,,,,,485.773612426,None,485.773612426,None,485.773612426,None,m,1,0.835103540000091,487.30702414499956,None,487.30702414499956,None,487.30702414499956,None,488.2236326929997,None,488.2236326929997,None,488.2236326929997,None,488.2236326929997,None,,,,,,,,,,,,,,,,,,,,,,,,,,,,,,,,,,,,,,,,,,,,001,120,2020_Feb_13_1059,spring_faces,3.2.3,59.917874045419865,
condition files/Stage1_2.xlsx,,T3,B3,c,"['c', 'm']","['Clue', 'Monopoly']","[-0.15, 0.5]","[0.15, 0.5]",1,1,,,,,,,,,0,1,1,1,0,7,7,4,,,,,,,,,,,,,,,,,,,,,,,,,,,,,,,,,,,,,,,,,,,,,,,,,,,,,,,490.19032460000017,None,490.19032460000017,None,490.19032460000017,None,c,1,1.4425498020000305,491.7236794949995,None,491.7236794949995,None,491.7236794949995,None,493.2403500769997,None,493.2403500769997,None,493.2403500769997,None,493.2403500769997,None,,,,,,,,,,,,,,,,,,,,,,,,,,,,,,,,,,,,,,,,,,,,001,120,2020_Feb_13_1059,spring_faces,3.2.3,59.917874045419865,
condition files/Stage1_1.xlsx,,B2,T1,m,"['c', 'm']","['Clue', 'Monopoly']","[-0.15, 0.5]","[0.15, 0.5]",1,1,,,,,,,,,0,2,2,2,0,0,0,2,,,,,,,,,,,,,,,,,,,,,,,,,,,,,,,,,,,,,,,,,,,,,,,,,,,,,,,495.2236908039995,None,495.2236908039995,None,495.2236908039995,None,m,1,0.857223766000061,496.75701395599935,None,496.75701395599935,None,496.75701395599935,None,497.690368087,None,497.690368087,None,497.690368087,None,497.690368087,None,,,,,,,,,,,,,,,,,,,,,,,,,,,,,,,,,,,,,,,,,,,,001,120,2020_Feb_13_1059,spring_faces,3.2.3,59.917874045419865,
condition files/Stage1_1.xlsx,,T1,B1,c,"['c', 'm']","['Clue', 'Monopoly']","[-0.15, 0.5]","[0.15, 0.5]",1,1,,,,,,,,,0,2,2,2,0,1,1,0,,,,,,,,,,,,,,,,,,,,,,,,,,,,,,,,,,,,,,,,,,,,,,,,,,,,,,,499.65707642399957,None,499.65707642399957,None,499.65707642399957,None,c,1,1.5278672040003585,501.19036856099956,None,501.19036856099956,None,501.19036856099956,None,502.7903563969994,None,502.7903563969994,None,502.7903563969994,None,502.7903563969994,None,,,,,,,,,,,,,,,,,,,,,,,,,,,,,,,,,,,,,,,,,,,,001,120,2020_Feb_13_1059,spring_faces,3.2.3,59.917874045419865,
condition files/Stage1_1.xlsx,,T3,B4,c,"['c', 'm']","['Clue', 'Monopoly']","[-0.15, 0.5]","[0.15, 0.5]",1,1,,,,,,,,,0,2,2,2,0,2,2,5,,,,,,,,,,,,,,,,,,,,,,,,,,,,,,,,,,,,,,,,,,,,,,,,,,,,,,,504.7570274179998,None,504.7570274179998,None,504.7570274179998,None,m,0,0.8278852749999714,506.290361028,None,506.290361028,None,506.290361028,None,507.17372563499976,None,507.17372563499976,None,507.17372563499976,None,507.17372563499976,None,,,,,,,,,,,,,,,,,,,,,,,,,,,,,,,,,,,,,,,,,,,,001,120,2020_Feb_13_1059,spring_faces,3.2.3,59.917874045419865,
condition files/Stage1_1.xlsx,,B1,T2,c,"['c', 'm']","['Clue', 'Monopoly']","[-0.15, 0.5]","[0.15, 0.5]",1,1,,,,,,,,,0,2,2,2,0,3,3,1,,,,,,,,,,,,,,,,,,,,,,,,,,,,,,,,,,,,,,,,,,,,,,,,,,,,,,,509.15703587699954,None,509.15703587699954,None,509.15703587699954,None,c,1,3.1322290030002478,510.690086521,None,510.690086521,None,510.690086521,None,513.8903979759998,None,513.8903979759998,None,513.8903979759998,None,513.8903979759998,None,,,,,,,,,,,,,,,,,,,,,,,,,,,,,,,,,,,,,,,,,,,,001,120,2020_Feb_13_1059,spring_faces,3.2.3,59.917874045419865,
condition files/Stage1_1.xlsx,,T4,B3,m,"['c', 'm']","['Clue', 'Monopoly']","[-0.15, 0.5]","[0.15, 0.5]",1,1,,,,,,,,,0,2,2,2,0,4,4,6,,,,,,,,,,,,,,,,,,,,,,,,,,,,,,,,,,,,,,,,,,,,,,,,,,,,,,,515.8570621680001,None,515.8570621680001,None,515.8570621680001,None,m,1,1.903750177000802,517.3904468649998,None,517.3904468649998,None,517.3904468649998,None,519.3737119950001,None,519.3737119950001,None,519.3737119950001,None,519.3737119950001,None,,,,,,,,,,,,,,,,,,,,,,,,,,,,,,,,,,,,,,,,,,,,001,120,2020_Feb_13_1059,spring_faces,3.2.3,59.917874045419865,
condition files/Stage1_1.xlsx,,T2,B2,m,"['c', 'm']","['Clue', 'Monopoly']","[-0.15, 0.5]","[0.15, 0.5]",1,1,,,,,,,,,0,2,2,2,0,5,5,3,,,,,,,,,,,,,,,,,,,,,,,,,,,,,,,,,,,,,,,,,,,,,,,,,,,,,,,521.3403762629996,None,521.3403762629996,None,521.3403762629996,None,c,0,1.8285152070002368,522.8737140269996,None,522.8737140269996,None,522.8737140269996,None,524.75701432,None,524.75701432,None,524.75701432,None,524.75701432,None,,,,,,,,,,,,,,,,,,,,,,,,,,,,,,,,,,,,,,,,,,,,001,120,2020_Feb_13_1059,spring_faces,3.2.3,59.917874045419865,
condition files/Stage1_1.xlsx,,B3,T3,c,"['c', 'm']","['Clue', 'Monopoly']","[-0.15, 0.5]","[0.15, 0.5]",1,1,,,,,,,,,0,2,2,2,0,6,6,4,,,,,,,,,,,,,,,,,,,,,,,,,,,,,,,,,,,,,,,,,,,,,,,,,,,,,,,526.7403958340001,None,526.7403958340001,None,526.7403958340001,None,c,1,2.0125264490006884,528.273652502,None,528.273652502,None,528.273652502,None,530.3570383139995,None,530.3570383139995,None,530.3570383139995,None,530.3570383139995,None,,,,,,,,,,,,,,,,,,,,,,,,,,,,,,,,,,,,,,,,,,,,001,120,2020_Feb_13_1059,spring_faces,3.2.3,59.917874045419865,
condition files/Stage1_1.xlsx,,B4,T4,m,"['c', 'm']","['Clue', 'Monopoly']","[-0.15, 0.5]","[0.15, 0.5]",1,1,,,,,,,,,0,2,2,2,0,7,7,7,,,,,,,,,,,,,,,,,,,,,,,,,,,,,,,,,,,,,,,,,,,,,,,,,,,,,,,532.3237260609994,None,532.3237260609994,None,532.3237260609994,None,m,1,2.045233541000016,533.8569993209994,None,533.8569993209994,None,533.8569993209994,None,535.9737043489995,None,535.9737043489995,None,535.9737043489995,None,535.9737043489995,None,,,,,,,,,,,,,,,,,,,,,,,,,,,,,,,,,,,,,,,,,,,,001,120,2020_Feb_13_1059,spring_faces,3.2.3,59.917874045419865,
condition files/Stage1_2.xlsx,,B1,T1,c,"['c', 'm']","['Clue', 'Monopoly']","[-0.15, 0.5]","[0.15, 0.5]",1,1,,,,,,,,,0,3,3,3,0,0,0,0,,,,,,,,,,,,,,,,,,,,,,,,,,,,,,,,,,,,,,,,,,,,,,,,,,,,,,,537.957029268,None,537.957029268,None,537.957029268,None,c,1,0.6677747290004845,539.4903861519997,None,539.4903861519997,None,539.4903861519997,None,540.2403161679995,None,540.2403161679995,None,540.2403161679995,None,540.2403161679995,None,,,,,,,,,,,,,,,,,,,,,,,,,,,,,,,,,,,,,,,,,,,,001,120,2020_Feb_13_1059,spring_faces,3.2.3,59.917874045419865,
condition files/Stage1_2.xlsx,,T4,B4,m,"['c', 'm']","['Clue', 'Monopoly']","[-0.15, 0.5]","[0.15, 0.5]",1,1,,,,,,,,,0,3,3,3,0,1,1,7,,,,,,,,,,,,,,,,,,,,,,,,,,,,,,,,,,,,,,,,,,,,,,,,,,,,,,,542.2069974169999,None,542.2069974169999,None,542.2069974169999,None,m,1,0.673847525000383,543.7403777680001,None,543.7403777680001,None,543.7403777680001,None,544.4903759339995,None,544.4903759339995,None,544.4903759339995,None,544.4903759339995,None,,,,,,,,,,,,,,,,,,,,,,,,,,,,,,,,,,,,,,,,,,,,001,120,2020_Feb_13_1059,spring_faces,3.2.3,59.917874045419865,
condition files/Stage1_2.xlsx,,T1,B2,m,"['c', 'm']","['Clue', 'Monopoly']","[-0.15, 0.5]","[0.15, 0.5]",1,1,,,,,,,,,0,3,3,3,0,2,2,2,,,,,,,,,,,,,,,,,,,,,,,,,,,,,,,,,,,,,,,,,,,,,,,,,,,,,,,546.4570295809999,None,546.4570295809999,None,546.4570295809999,None,c,0,0.5038586430000578,547.990370984,None,547.990370984,None,547.990370984,None,548.5568659639994,None,548.5568659639994,None,548.5568659639994,None,548.5568659639994,None,,,,,,,,,,,,,,,,,,,,,,,,,,,,,,,,,,,,,,,,,,,,001,120,2020_Feb_13_1059,spring_faces,3.2.3,59.917874045419865,
condition files/Stage1_2.xlsx,,B3,T4,m,"['c', 'm']","['Clue', 'Monopoly']","[-0.15, 0.5]","[0.15, 0.5]",1,1,,,,,,,,,0,3,3,3,0,3,3,6,,,,,,,,,,,,,,,,,,,,,,,,,,,,,,,,,,,,,,,,,,,,,,,,,,,,,,,550.5403567109997,None,550.5403567109997,None,550.5403567109997,None,m,1,0.4844518160007283,552.0736862719996,None,552.0736862719996,None,552.0736862719996,None,552.6403716779996,None,552.6403716779996,None,552.6403716779996,None,552.6403716779996,None,,,,,,,,,,,,,,,,,,,,,,,,,,,,,,,,,,,,,,,,,,,,001,120,2020_Feb_13_1059,spring_faces,3.2.3,59.917874045419865,
condition files/Stage1_2.xlsx,,T2,B1,c,"['c', 'm']","['Clue', 'Monopoly']","[-0.15, 0.5]","[0.15, 0.5]",1,1,,,,,,,,,0,3,3,3,0,4,4,1,,,,,,,,,,,,,,,,,,,,,,,,,,,,,,,,,,,,,,,,,,,,,,,,,,,,,,,554.6069543459998,None,554.6069543459998,None,554.6069543459998,None,c,1,1.0584590589996878,556.1396393710002,None,556.1396393710002,None,556.1396393710002,None,557.2736787240001,None,557.2736787240001,None,557.2736787240001,None,557.2736787240001,None,,,,,,,,,,,,,,,,,,,,,,,,,,,,,,,,,,,,,,,,,,,,001,120,2020_Feb_13_1059,spring_faces,3.2.3,59.917874045419865,
condition files/Stage1_2.xlsx,,T3,B3,c,"['c', 'm']","['Clue', 'Monopoly']","[-0.15, 0.5]","[0.15, 0.5]",1,1,,,,,,,,,0,3,3,3,0,5,5,4,,,,,,,,,,,,,,,,,,,,,,,,,,,,,,,,,,,,,,,,,,,,,,,,,,,,,,,559.2403586979999,None,559.2403586979999,None,559.2403586979999,None,m,0,0.6805928610001502,560.7736785179995,None,560.7736785179995,None,560.7736785179995,None,561.5069829610002,None,561.5069829610002,None,561.5069829610002,None,561.5069829610002,None,,,,,,,,,,,,,,,,,,,,,,,,,,,,,,,,,,,,,,,,,,,,001,120,2020_Feb_13_1059,spring_faces,3.2.3,59.917874045419865,
condition files/Stage1_2.xlsx,,B4,T3,c,"['c', 'm']","['Clue', 'Monopoly']","[-0.15, 0.5]","[0.15, 0.5]",1,1,,,,,,,,,0,3,3,3,0,6,6,5,,,,,,,,,,,,,,,,,,,,,,,,,,,,,,,,,,,,,,,,,,,,,,,,,,,,,,,563.4903994910001,None,563.4903994910001,None,563.4903994910001,None,c,1,0.4146730580005169,565.0236441159996,None,565.0236441159996,None,565.0236441159996,None,565.4903773770002,None,565.4903773770002,None,565.4903773770002,None,565.4903773770002,None,,,,,,,,,,,,,,,,,,,,,,,,,,,,,,,,,,,,,,,,,,,,001,120,2020_Feb_13_1059,spring_faces,3.2.3,59.917874045419865,
condition files/Stage1_2.xlsx,,B2,T2,m,"['c', 'm']","['Clue', 'Monopoly']","[-0.15, 0.5]","[0.15, 0.5]",1,1,,,,,,,,,0,3,3,3,0,7,7,3,,,,,,,,,,,,,,,,,,,,,,,,,,,,,,,,,,,,,,,,,,,,,,,,,,,,,,,567.4737052,None,567.4737052,None,567.4737052,None,m,1,1.5511817210008303,569.0069708149995,None,569.0069708149995,None,569.0069708149995,None,570.6403181539999,None,570.6403181539999,None,570.6403181539999,None,570.6403181539999,None,,,,,,,,,,,,,,,,,,,,,,,,,,,,,,,,,,,,,,,,,,,,001,120,2020_Feb_13_1059,spring_faces,3.2.3,59.917874045419865,
condition files/Stage1_1.xlsx,,T1,B1,c,"['c', 'm']","['Clue', 'Monopoly']","[-0.15, 0.5]","[0.15, 0.5]",1,1,,,,,,,,,0,4,4,4,0,0,0,0,,,,,,,,,,,,,,,,,,,,,,,,,,,,,,,,,,,,,,,,,,,,,,,,,,,,,,,572.6236517719999,None,572.6236517719999,None,572.6236517719999,None,c,1,0.6252055949998976,574.1570401489998,None,574.1570401489998,None,574.1570401489998,None,574.8570149440002,None,574.8570149440002,None,574.8570149440002,None,574.8570149440002,None,,,,,,,,,,,,,,,,,,,,,,,,,,,,,,,,,,,,,,,,,,,,001,120,2020_Feb_13_1059,spring_faces,3.2.3,59.917874045419865,
condition files/Stage1_1.xlsx,,B3,T3,c,"['c', 'm']","['Clue', 'Monopoly']","[-0.15, 0.5]","[0.15, 0.5]",1,1,,,,,,,,,0,4,4,4,0,1,1,4,,,,,,,,,,,,,,,,,,,,,,,,,,,,,,,,,,,,,,,,,,,,,,,,,,,,,,,576.8237088689993,None,576.8237088689993,None,576.8237088689993,None,c,1,0.8893270609996762,578.356894558,None,578.356894558,None,578.356894558,None,579.3237018709997,None,579.3237018709997,None,579.3237018709997,None,579.3237018709997,None,,,,,,,,,,,,,,,,,,,,,,,,,,,,,,,,,,,,,,,,,,,,001,120,2020_Feb_13_1059,spring_faces,3.2.3,59.917874045419865,
condition files/Stage1_1.xlsx,,T4,B3,m,"['c', 'm']","['Clue', 'Monopoly']","[-0.15, 0.5]","[0.15, 0.5]",1,1,,,,,,,,,0,4,4,4,0,2,2,6,,,,,,,,,,,,,,,,,,,,,,,,,,,,,,,,,,,,,,,,,,,,,,,,,,,,,,,581.2903724429998,None,581.2903724429998,None,581.2903724429998,None,m,1,0.7586591429999316,582.8235951649995,None,582.8235951649995,None,582.8235951649995,None,583.657016139,None,583.657016139,None,583.657016139,None,583.657016139,None,,,,,,,,,,,,,,,,,,,,,,,,,,,,,,,,,,,,,,,,,,,,001,120,2020_Feb_13_1059,spring_faces,3.2.3,59.917874045419865,
condition files/Stage1_1.xlsx,,T3,B4,c,"['c', 'm']","['Clue', 'Monopoly']","[-0.15, 0.5]","[0.15, 0.5]",1,1,,,,,,,,,0,4,4,4,0,3,3,5,,,,,,,,,,,,,,,,,,,,,,,,,,,,,,,,,,,,,,,,,,,,,,,,,,,,,,,585.6236681720002,None,585.6236681720002,None,585.6236681720002,None,c,1,1.113229231999867,587.1570252809997,None,587.1570252809997,None,587.1570252809997,None,588.3403460479994,None,588.3403460479994,None,588.3403460479994,None,588.3403460479994,None,,,,,,,,,,,,,,,,,,,,,,,,,,,,,,,,,,,,,,,,,,,,001,120,2020_Feb_13_1059,spring_faces,3.2.3,59.917874045419865,
condition files/Stage1_1.xlsx,,B1,T2,c,"['c', 'm']","['Clue', 'Monopoly']","[-0.15, 0.5]","[0.15, 0.5]",1,1,,,,,,,,,0,4,4,4,0,4,4,1,,,,,,,,,,,,,,,,,,,,,,,,,,,,,,,,,,,,,,,,,,,,,,,,,,,,,,,590.3070548859996,None,590.3070548859996,None,590.3070548859996,None,m,0,0.4299005750008291,591.8403541769994,None,591.8403541769994,None,591.8403541769994,None,592.3236998519997,None,592.3236998519997,None,592.3236998519997,None,592.3236998519997,None,,,,,,,,,,,,,,,,,,,,,,,,,,,,,,,,,,,,,,,,,,,,001,120,2020_Feb_13_1059,spring_faces,3.2.3,59.917874045419865,
condition files/Stage1_1.xlsx,,B4,T4,m,"['c', 'm']","['Clue', 'Monopoly']","[-0.15, 0.5]","[0.15, 0.5]",1,1,,,,,,,,,0,4,4,4,0,5,5,7,,,,,,,,,,,,,,,,,,,,,,,,,,,,,,,,,,,,,,,,,,,,,,,,,,,,,,,594.3070064889998,None,594.3070064889998,None,594.3070064889998,None,c,0,0.5099486950002756,595.8402982629996,None,595.8402982629996,None,595.8402982629996,None,596.4236855239997,None,596.4236855239997,None,596.4236855239997,None,596.4236855239997,None,,,,,,,,,,,,,,,,,,,,,,,,,,,,,,,,,,,,,,,,,,,,001,120,2020_Feb_13_1059,spring_faces,3.2.3,59.917874045419865,
condition files/Stage1_1.xlsx,,T2,B2,m,"['c', 'm']","['Clue', 'Monopoly']","[-0.15, 0.5]","[0.15, 0.5]",1,1,,,,,,,,,0,4,4,4,0,6,6,3,,,,,,,,,,,,,,,,,,,,,,,,,,,,,,,,,,,,,,,,,,,,,,,,,,,,,,,598.3903771529995,None,598.3903771529995,None,598.3903771529995,None,m,1,0.5065725519998523,599.923561259,None,599.923561259,None,599.923561259,None,600.490346138,None,600.490346138,None,600.490346138,None,600.490346138,None,,,,,,,,,,,,,,,,,,,,,,,,,,,,,,,,,,,,,,,,,,,,001,120,2020_Feb_13_1059,spring_faces,3.2.3,59.917874045419865,
condition files/Stage1_1.xlsx,,B2,T1,m,"['c', 'm']","['Clue', 'Monopoly']","[-0.15, 0.5]","[0.15, 0.5]",1,1,,,,,,,,,0,4,4,4,0,7,7,2,,,,,,,,,,,,,,,,,,,,,,,,,,,,,,,,,,,,,,,,,,,,,,,,,,,,,,,602.4737180269994,None,602.4737180269994,None,602.4737180269994,None,c,0,0.6632244370002809,604.0070451239999,None,604.0070451239999,None,604.0070451239999,None,604.7403511069997,None,604.7403511069997,None,604.7403511069997,None,604.7403511069997,None,,,,,,,,,,,,,,,,,,,,,,,,,,,,,,,,,,,,,,,,,,,,001,120,2020_Feb_13_1059,spring_faces,3.2.3,59.917874045419865,
condition files/Stage1_2.xlsx,,B2,T2,m,"['c', 'm']","['Clue', 'Monopoly']","[-0.15, 0.5]","[0.15, 0.5]",1,1,,,,,,,,,0,5,5,5,0,0,0,3,,,,,,,,,,,,,,,,,,,,,,,,,,,,,,,,,,,,,,,,,,,,,,,,,,,,,,,606.7236920089999,None,606.7236920089999,None,606.7236920089999,None,m,1,0.3493781659999513,608.2569605459994,None,608.2569605459994,None,608.2569605459994,None,608.6569493769994,None,608.6569493769994,None,608.6569493769994,None,608.6569493769994,None,,,,,,,,,,,,,,,,,,,,,,,,,,,,,,,,,,,,,,,,,,,,001,120,2020_Feb_13_1059,spring_faces,3.2.3,59.917874045419865,
condition files/Stage1_2.xlsx,,B3,T4,m,"['c', 'm']","['Clue', 'Monopoly']","[-0.15, 0.5]","[0.15, 0.5]",1,1,,,,,,,,,0,5,5,5,0,1,1,6,,,,,,,,,,,,,,,,,,,,,,,,,,,,,,,,,,,,,,,,,,,,,,,,,,,,,,,610.6403878319998,None,610.6403878319998,None,610.6403878319998,None,c,0,1.152473615999952,612.173714515,None,612.173714515,None,612.173714515,None,613.3904712220001,None,613.3904712220001,None,613.3904712220001,None,613.3904712220001,None,,,,,,,,,,,,,,,,,,,,,,,,,,,,,,,,,,,,,,,,,,,,001,120,2020_Feb_13_1059,spring_faces,3.2.3,59.917874045419865,
condition files/Stage1_2.xlsx,,B1,T1,c,"['c', 'm']","['Clue', 'Monopoly']","[-0.15, 0.5]","[0.15, 0.5]",1,1,,,,,,,,,0,5,5,5,0,2,2,0,,,,,,,,,,,,,,,,,,,,,,,,,,,,,,,,,,,,,,,,,,,,,,,,,,,,,,,615.3737332379997,None,615.3737332379997,None,615.3737332379997,None,m,0,0.5312569400002758,616.9070398309996,None,616.9070398309996,None,616.9070398309996,None,617.5070083239998,None,617.5070083239998,None,617.5070083239998,None,617.5070083239998,None,,,,,,,,,,,,,,,,,,,,,,,,,,,,,,,,,,,,,,,,,,,,001,120,2020_Feb_13_1059,spring_faces,3.2.3,59.917874045419865,
condition files/Stage1_2.xlsx,,B4,T3,c,"['c', 'm']","['Clue', 'Monopoly']","[-0.15, 0.5]","[0.15, 0.5]",1,1,,,,,,,,,0,5,5,5,0,3,3,5,,,,,,,,,,,,,,,,,,,,,,,,,,,,,,,,,,,,,,,,,,,,,,,,,,,,,,,619.4736157059997,None,619.4736157059997,None,619.4736157059997,None,c,1,1.359277726000073,621.0069810059995,None,621.0069810059995,None,621.0069810059995,None,622.4237023750002,None,622.4237023750002,None,622.4237023750002,None,622.4237023750002,None,,,,,,,,,,,,,,,,,,,,,,,,,,,,,,,,,,,,,,,,,,,,001,120,2020_Feb_13_1059,spring_faces,3.2.3,59.917874045419865,
condition files/Stage1_2.xlsx,,T3,B3,c,"['c', 'm']","['Clue', 'Monopoly']","[-0.15, 0.5]","[0.15, 0.5]",1,1,,,,,,,,,0,5,5,5,0,4,4,4,,,,,,,,,,,,,,,,,,,,,,,,,,,,,,,,,,,,,,,,,,,,,,,,,,,,,,,624.4070275519998,None,624.4070275519998,None,624.4070275519998,None,m,0,0.7459278790001918,625.9402307749997,None,625.9402307749997,None,625.9402307749997,None,626.7399077119999,None,626.7399077119999,None,626.7399077119999,None,626.7399077119999,None,,,,,,,,,,,,,,,,,,,,,,,,,,,,,,,,,,,,,,,,,,,,001,120,2020_Feb_13_1059,spring_faces,3.2.3,59.917874045419865,
condition files/Stage1_2.xlsx,,T4,B4,m,"['c', 'm']","['Clue', 'Monopoly']","[-0.15, 0.5]","[0.15, 0.5]",1,1,,,,,,,,,0,5,5,5,0,5,5,7,,,,,,,,,,,,,,,,,,,,,,,,,,,,,,,,,,,,,,,,,,,,,,,,,,,,,,,628.7237135389996,None,628.7237135389996,None,628.7237135389996,None,m,1,0.3492505579997669,630.2570567539997,None,630.2570567539997,None,630.2570567539997,None,630.673702305,None,630.673702305,None,630.673702305,None,630.673702305,None,,,,,,,,,,,,,,,,,,,,,,,,,,,,,,,,,,,,,,,,,,,,001,120,2020_Feb_13_1059,spring_faces,3.2.3,59.917874045419865,
condition files/Stage1_2.xlsx,,T1,B2,m,"['c', 'm']","['Clue', 'Monopoly']","[-0.15, 0.5]","[0.15, 0.5]",1,1,,,,,,,,,0,5,5,5,0,6,6,2,,,,,,,,,,,,,,,,,,,,,,,,,,,,,,,,,,,,,,,,,,,,,,,,,,,,,,,632.6403002239995,None,632.6403002239995,None,632.6403002239995,None,c,0,1.296548389000236,634.17370794,None,634.17370794,None,634.17370794,None,635.5403486569994,None,635.5403486569994,None,635.5403486569994,None,635.5403486569994,None,,,,,,,,,,,,,,,,,,,,,,,,,,,,,,,,,,,,,,,,,,,,001,120,2020_Feb_13_1059,spring_faces,3.2.3,59.917874045419865,
condition files/Stage1_2.xlsx,,T2,B1,c,"['c', 'm']","['Clue', 'Monopoly']","[-0.15, 0.5]","[0.15, 0.5]",1,1,,,,,,,,,0,5,5,5,0,7,7,1,,,,,,,,,,,,,,,,,,,,,,,,,,,,,,,,,,,,,,,,,,,,,,,,,,,,,,,637.5070087969998,None,637.5070087969998,None,637.5070087969998,None,c,1,0.7979411139995136,639.0403531639995,None,639.0403531639995,None,639.0403531639995,None,639.9070037430001,None,639.9070037430001,None,639.9070037430001,None,639.9070037430001,None,,,,,,,,,,,,,,,,,,,,,,,,,,,,,,,,,,,,,,,,,,,,001,120,2020_Feb_13_1059,spring_faces,3.2.3,59.917874045419865,
condition files/Stage1_1.xlsx,,T3,B4,c,"['c', 'm']","['Clue', 'Monopoly']","[-0.15, 0.5]","[0.15, 0.5]",1,1,,,,,,,,,0,6,6,6,0,0,0,5,,,,,,,,,,,,,,,,,,,,,,,,,,,,,,,,,,,,,,,,,,,,,,,,,,,,,,,641.8902361989994,None,641.8902361989994,None,641.8902361989994,None,c,1,1.0225099090002914,643.423707555,None,643.423707555,None,643.423707555,None,644.5070045229995,None,644.5070045229995,None,644.5070045229995,None,644.5070045229995,None,,,,,,,,,,,,,,,,,,,,,,,,,,,,,,,,,,,,,,,,,,,,001,120,2020_Feb_13_1059,spring_faces,3.2.3,59.917874045419865,
condition files/Stage1_1.xlsx,,B3,T3,c,"['c', 'm']","['Clue', 'Monopoly']","[-0.15, 0.5]","[0.15, 0.5]",1,1,,,,,,,,,0,6,6,6,0,1,1,4,,,,,,,,,,,,,,,,,,,,,,,,,,,,,,,,,,,,,,,,,,,,,,,,,,,,,,,646.4903656899996,None,646.4903656899996,None,646.4903656899996,None,c,1,0.9504249170004186,648.0237096159999,None,648.0237096159999,None,648.0237096159999,None,649.0402893009996,None,649.0402893009996,None,649.0402893009996,None,649.0402893009996,None,,,,,,,,,,,,,,,,,,,,,,,,,,,,,,,,,,,,,,,,,,,,001,120,2020_Feb_13_1059,spring_faces,3.2.3,59.917874045419865,
condition files/Stage1_1.xlsx,,T2,B2,m,"['c', 'm']","['Clue', 'Monopoly']","[-0.15, 0.5]","[0.15, 0.5]",1,1,,,,,,,,,0,6,6,6,0,2,2,3,,,,,,,,,,,,,,,,,,,,,,,,,,,,,,,,,,,,,,,,,,,,,,,,,,,,,,,651.0236343360002,None,651.0236343360002,None,651.0236343360002,None,m,1,0.6730945899998915,652.5570488819994,None,652.5570488819994,None,652.5570488819994,None,653.3070407739997,None,653.3070407739997,None,653.3070407739997,None,653.3070407739997,None,,,,,,,,,,,,,,,,,,,,,,,,,,,,,,,,,,,,,,,,,,,,001,120,2020_Feb_13_1059,spring_faces,3.2.3,59.917874045419865,
condition files/Stage1_1.xlsx,,T4,B3,m,"['c', 'm']","['Clue', 'Monopoly']","[-0.15, 0.5]","[0.15, 0.5]",1,1,,,,,,,,,0,6,6,6,0,3,3,6,,,,,,,,,,,,,,,,,,,,,,,,,,,,,,,,,,,,,,,,,,,,,,,,,,,,,,,655.2737157539996,None,655.2737157539996,None,655.2737157539996,None,c,0,0.7430482729996584,656.8070517830001,None,656.8070517830001,None,656.8070517830001,None,657.6067875979998,None,657.6067875979998,None,657.6067875979998,None,657.6067875979998,None,,,,,,,,,,,,,,,,,,,,,,,,,,,,,,,,,,,,,,,,,,,,001,120,2020_Feb_13_1059,spring_faces,3.2.3,59.917874045419865,
condition files/Stage1_1.xlsx,,B2,T1,m,"['c', 'm']","['Clue', 'Monopoly']","[-0.15, 0.5]","[0.15, 0.5]",1,1,,,,,,,,,0,6,6,6,0,4,4,2,,,,,,,,,,,,,,,,,,,,,,,,,,,,,,,,,,,,,,,,,,,,,,,,,,,,,,,659.5903499119995,None,659.5903499119995,None,659.5903499119995,None,c,0,0.6986227879997386,661.1236871359997,None,661.1236871359997,None,661.1236871359997,None,661.8904361879995,None,661.8904361879995,None,661.8904361879995,None,661.8904361879995,None,,,,,,,,,,,,,,,,,,,,,,,,,,,,,,,,,,,,,,,,,,,,001,120,2020_Feb_13_1059,spring_faces,3.2.3,59.917874045419865,
condition files/Stage1_1.xlsx,,T1,B1,c,"['c', 'm']","['Clue', 'Monopoly']","[-0.15, 0.5]","[0.15, 0.5]",1,1,,,,,,,,,0,6,6,6,0,5,5,0,,,,,,,,,,,,,,,,,,,,,,,,,,,,,,,,,,,,,,,,,,,,,,,,,,,,,,,663.8570079639994,None,663.8570079639994,None,663.8570079639994,None,m,0,0.46390807000079803,665.3903774350001,None,665.3903774350001,None,665.3903774350001,None,665.9237089409999,None,665.9237089409999,None,665.9237089409999,None,665.9237089409999,None,,,,,,,,,,,,,,,,,,,,,,,,,,,,,,,,,,,,,,,,,,,,001,120,2020_Feb_13_1059,spring_faces,3.2.3,59.917874045419865,
condition files/Stage1_1.xlsx,,B1,T2,c,"['c', 'm']","['Clue', 'Monopoly']","[-0.15, 0.5]","[0.15, 0.5]",1,1,,,,,,,,,0,6,6,6,0,6,6,1,,,,,,,,,,,,,,,,,,,,,,,,,,,,,,,,,,,,,,,,,,,,,,,,,,,,,,,667.8903595909997,None,667.8903595909997,None,667.8903595909997,None,c,1,0.5106047109993597,669.4236335209998,None,669.4236335209998,None,669.4236335209998,None,669.9903550629997,None,669.9903550629997,None,669.9903550629997,None,669.9903550629997,None,,,,,,,,,,,,,,,,,,,,,,,,,,,,,,,,,,,,,,,,,,,,001,120,2020_Feb_13_1059,spring_faces,3.2.3,59.917874045419865,
condition files/Stage1_1.xlsx,,B4,T4,m,"['c', 'm']","['Clue', 'Monopoly']","[-0.15, 0.5]","[0.15, 0.5]",1,1,,,,,,,,,0,6,6,6,0,7,7,7,,,,,,,,,,,,,,,,,,,,,,,,,,,,,,,,,,,,,,,,,,,,,,,,,,,,,,,671.9737127239996,None,671.9737127239996,None,671.9737127239996,None,c,0,3.0191704270000628,673.5070297169996,None,673.5070297169996,None,673.5070297169996,None,676.6069793059996,None,676.6069793059996,None,676.6069793059996,None,676.6069793059996,None,,,,,,,,,,,,,,,,,,,,,,,,,,,,,,,,,,,,,,,,,,,,001,120,2020_Feb_13_1059,spring_faces,3.2.3,59.917874045419865,
condition files/Stage1_2.xlsx,,B2,T2,m,"['c', 'm']","['Clue', 'Monopoly']","[-0.15, 0.5]","[0.15, 0.5]",1,1,,,,,,,,,0,7,7,7,0,0,0,3,,,,,,,,,,,,,,,,,,,,,,,,,,,,,,,,,,,,,,,,,,,,,,,,,,,,,,,678.5903504279995,None,678.5903504279995,None,678.5903504279995,None,m,1,0.978649595999741,680.1236044449997,None,680.1236044449997,None,680.1236044449997,None,681.1570096169999,None,681.1570096169999,None,681.1570096169999,None,681.1570096169999,None,,,,,,,,,,,,,,,,,,,,,,,,,,,,,,,,,,,,,,,,,,,,001,120,2020_Feb_13_1059,spring_faces,3.2.3,59.917874045419865,
condition files/Stage1_2.xlsx,,B3,T4,m,"['c', 'm']","['Clue', 'Monopoly']","[-0.15, 0.5]","[0.15, 0.5]",1,1,,,,,,,,,0,7,7,7,0,1,1,6,,,,,,,,,,,,,,,,,,,,,,,,,,,,,,,,,,,,,,,,,,,,,,,,,,,,,,,683.1403691349997,None,683.1403691349997,None,683.1403691349997,None,m,1,0.4925947879992236,684.6736583969996,None,684.6736583969996,None,684.6736583969996,None,685.2236480949996,None,685.2236480949996,None,685.2236480949996,None,685.2236480949996,None,,,,,,,,,,,,,,,,,,,,,,,,,,,,,,,,,,,,,,,,,,,,001,120,2020_Feb_13_1059,spring_faces,3.2.3,59.917874045419865,
condition files/Stage1_2.xlsx,,B4,T3,c,"['c', 'm']","['Clue', 'Monopoly']","[-0.15, 0.5]","[0.15, 0.5]",1,1,,,,,,,,,0,7,7,7,0,2,2,5,,,,,,,,,,,,,,,,,,,,,,,,,,,,,,,,,,,,,,,,,,,,,,,,,,,,,,,687.2070602379999,None,687.2070602379999,None,687.2070602379999,None,m,0,0.3457673149996481,688.7403958939994,None,688.7403958939994,None,688.7403958939994,None,689.1570777699999,None,689.1570777699999,None,689.1570777699999,None,689.1570777699999,None,,,,,,,,,,,,,,,,,,,,,,,,,,,,,,,,,,,,,,,,,,,,001,120,2020_Feb_13_1059,spring_faces,3.2.3,59.917874045419865,
condition files/Stage1_2.xlsx,,T3,B3,c,"['c', 'm']","['Clue', 'Monopoly']","[-0.15, 0.5]","[0.15, 0.5]",1,1,,,,,,,,,0,7,7,7,0,3,3,4,,,,,,,,,,,,,,,,,,,,,,,,,,,,,,,,,,,,,,,,,,,,,,,,,,,,,,,691.1237197239998,None,691.1237197239998,None,691.1237197239998,None,c,1,0.5252576689999842,692.6569878539995,None,692.6569878539995,None,692.6569878539995,None,693.2401942460001,None,693.2401942460001,None,693.2401942460001,None,693.2401942460001,None,,,,,,,,,,,,,,,,,,,,,,,,,,,,,,,,,,,,,,,,,,,,001,120,2020_Feb_13_1059,spring_faces,3.2.3,59.917874045419865,
condition files/Stage1_2.xlsx,,B1,T1,c,"['c', 'm']","['Clue', 'Monopoly']","[-0.15, 0.5]","[0.15, 0.5]",1,1,,,,,,,,,0,7,7,7,0,4,4,0,,,,,,,,,,,,,,,,,,,,,,,,,,,,,,,,,,,,,,,,,,,,,,,,,,,,,,,695.2237511160001,None,695.2237511160001,None,695.2237511160001,None,c,1,0.8091849659995205,696.757050012,None,696.757050012,None,696.757050012,None,697.623705297,None,697.623705297,None,697.623705297,None,697.623705297,None,,,,,,,,,,,,,,,,,,,,,,,,,,,,,,,,,,,,,,,,,,,,001,120,2020_Feb_13_1059,spring_faces,3.2.3,59.917874045419865,
condition files/Stage1_2.xlsx,,T1,B2,m,"['c', 'm']","['Clue', 'Monopoly']","[-0.15, 0.5]","[0.15, 0.5]",1,1,,,,,,,,,0,7,7,7,0,5,5,2,,,,,,,,,,,,,,,,,,,,,,,,,,,,,,,,,,,,,,,,,,,,,,,,,,,,,,,699.607058259,None,699.607058259,None,699.607058259,None,m,1,0.37788372800059733,701.1403558319998,None,701.1403558319998,None,701.1403558319998,None,701.5903526980001,None,701.5903526980001,None,701.5903526980001,None,701.5903526980001,None,,,,,,,,,,,,,,,,,,,,,,,,,,,,,,,,,,,,,,,,,,,,001,120,2020_Feb_13_1059,spring_faces,3.2.3,59.917874045419865,
condition files/Stage1_2.xlsx,,T2,B1,c,"['c', 'm']","['Clue', 'Monopoly']","[-0.15, 0.5]","[0.15, 0.5]",1,1,,,,,,,,,0,7,7,7,0,6,6,1,,,,,,,,,,,,,,,,,,,,,,,,,,,,,,,,,,,,,,,,,,,,,,,,,,,,,,,703.5570540339995,None,703.5570540339995,None,703.5570540339995,None,m,0,0.5238630680005372,705.0903589449999,None,705.0903589449999,None,705.0903589449999,None,705.6903815719998,None,705.6903815719998,None,705.6903815719998,None,705.6903815719998,None,,,,,,,,,,,,,,,,,,,,,,,,,,,,,,,,,,,,,,,,,,,,001,120,2020_Feb_13_1059,spring_faces,3.2.3,59.917874045419865,
condition files/Stage1_2.xlsx,,T4,B4,m,"['c', 'm']","['Clue', 'Monopoly']","[-0.15, 0.5]","[0.15, 0.5]",1,1,,,,,,,,,0,7,7,7,0,7,7,7,,,,,,,,,,,,,,,,,,,,,,,,,,,,,,,,,,,,,,,,,,,,,,,,,,,,,,,707.6570676049996,None,707.6570676049996,None,707.6570676049996,None,c,0,0.5358135400001629,709.1903802059996,None,709.1903802059996,None,709.1903802059996,None,709.8069947079994,None,709.8069947079994,None,709.8069947079994,None,709.8069947079994,None,,,,,,,,,,,,,,,,,,,,,,,,,,,,,,,,,,,,,,,,,,,,001,120,2020_Feb_13_1059,spring_faces,3.2.3,59.917874045419865,
condition files/Stage1_1.xlsx,,T3,B4,c,"['c', 'm']","['Clue', 'Monopoly']","[-0.15, 0.5]","[0.15, 0.5]",1,1,,,,,,,,,0,8,8,8,0,0,0,5,,,,,,,,,,,,,,,,,,,,,,,,,,,,,,,,,,,,,,,,,,,,,,,,,,,,,,,711.7903289699998,None,711.7903289699998,None,711.7903289699998,None,m,0,0.43444201500005875,713.3237134860001,None,713.3237134860001,None,713.3237134860001,None,713.8402486159994,None,713.8402486159994,None,713.8402486159994,None,713.8402486159994,None,,,,,,,,,,,,,,,,,,,,,,,,,,,,,,,,,,,,,,,,,,,,001,120,2020_Feb_13_1059,spring_faces,3.2.3,59.917874045419865,
condition files/Stage1_1.xlsx,,B3,T3,c,"['c', 'm']","['Clue', 'Monopoly']","[-0.15, 0.5]","[0.15, 0.5]",1,1,,,,,,,,,0,8,8,8,0,1,1,4,,,,,,,,,,,,,,,,,,,,,,,,,,,,,,,,,,,,,,,,,,,,,,,,,,,,,,,715.8069628189996,None,715.8069628189996,None,715.8069628189996,None,m,0,1.0738521580005909,717.340375152,None,717.340375152,None,717.340375152,None,718.4903842089998,None,718.4903842089998,None,718.4903842089998,None,718.4903842089998,None,,,,,,,,,,,,,,,,,,,,,,,,,,,,,,,,,,,,,,,,,,,,001,120,2020_Feb_13_1059,spring_faces,3.2.3,59.917874045419865,
condition files/Stage1_1.xlsx,,B1,T2,c,"['c', 'm']","['Clue', 'Monopoly']","[-0.15, 0.5]","[0.15, 0.5]",1,1,,,,,,,,,0,8,8,8,0,2,2,1,,,,,,,,,,,,,,,,,,,,,,,,,,,,,,,,,,,,,,,,,,,,,,,,,,,,,,,720.4570548379997,None,720.4570548379997,None,720.4570548379997,None,c,1,0.27989343799981725,721.9903779449996,None,721.9903779449996,None,721.9903779449996,None,722.340384481,None,722.340384481,None,722.340384481,None,722.340384481,None,,,,,,,,,,,,,,,,,,,,,,,,,,,,,,,,,,,,,,,,,,,,001,120,2020_Feb_13_1059,spring_faces,3.2.3,59.917874045419865,
condition files/Stage1_1.xlsx,,B2,T1,m,"['c', 'm']","['Clue', 'Monopoly']","[-0.15, 0.5]","[0.15, 0.5]",1,1,,,,,,,,,0,8,8,8,0,3,3,2,,,,,,,,,,,,,,,,,,,,,,,,,,,,,,,,,,,,,,,,,,,,,,,,,,,,,,,724.3070532840002,None,724.3070532840002,None,724.3070532840002,None,c,0,0.4139717570005814,725.8403193099994,None,725.8403193099994,None,725.8403193099994,None,726.3236982069993,None,726.3236982069993,None,726.3236982069993,None,726.3236982069993,None,,,,,,,,,,,,,,,,,,,,,,,,,,,,,,,,,,,,,,,,,,,,001,120,2020_Feb_13_1059,spring_faces,3.2.3,59.917874045419865,
condition files/Stage1_1.xlsx,,T2,B2,m,"['c', 'm']","['Clue', 'Monopoly']","[-0.15, 0.5]","[0.15, 0.5]",1,1,,,,,,,,,0,8,8,8,0,4,4,3,,,,,,,,,,,,,,,,,,,,,,,,,,,,,,,,,,,,,,,,,,,,,,,,,,,,,,,728.2903721069997,None,728.2903721069997,None,728.2903721069997,None,m,1,0.3665628119997564,729.8236518959993,None,729.8236518959993,None,729.8236518959993,None,730.2403023440002,None,730.2403023440002,None,730.2403023440002,None,730.2403023440002,None,,,,,,,,,,,,,,,,,,,,,,,,,,,,,,,,,,,,,,,,,,,,001,120,2020_Feb_13_1059,spring_faces,3.2.3,59.917874045419865,
condition files/Stage1_1.xlsx,,T1,B1,c,"['c', 'm']","['Clue', 'Monopoly']","[-0.15, 0.5]","[0.15, 0.5]",1,1,,,,,,,,,0,8,8,8,0,5,5,0,,,,,,,,,,,,,,,,,,,,,,,,,,,,,,,,,,,,,,,,,,,,,,,,,,,,,,,732.2236270379999,None,732.2236270379999,None,732.2236270379999,None,m,0,0.3691562329995577,733.7570435549997,None,733.7570435549997,None,733.7570435549997,None,734.2069857449997,None,734.2069857449997,None,734.2069857449997,None,734.2069857449997,None,,,,,,,,,,,,,,,,,,,,,,,,,,,,,,,,,,,,,,,,,,,,001,120,2020_Feb_13_1059,spring_faces,3.2.3,59.917874045419865,
condition files/Stage1_1.xlsx,,B4,T4,m,"['c', 'm']","['Clue', 'Monopoly']","[-0.15, 0.5]","[0.15, 0.5]",1,1,,,,,,,,,0,8,8,8,0,6,6,7,,,,,,,,,,,,,,,,,,,,,,,,,,,,,,,,,,,,,,,,,,,,,,,,,,,,,,,736.1737116409995,None,736.1737116409995,None,736.1737116409995,None,c,0,0.4670916490003947,737.707048102,None,737.707048102,None,737.707048102,None,738.257051994,None,738.257051994,None,738.257051994,None,738.257051994,None,,,,,,,,,,,,,,,,,,,,,,,,,,,,,,,,,,,,,,,,,,,,001,120,2020_Feb_13_1059,spring_faces,3.2.3,59.917874045419865,
condition files/Stage1_1.xlsx,,T4,B3,m,"['c', 'm']","['Clue', 'Monopoly']","[-0.15, 0.5]","[0.15, 0.5]",1,1,,,,,,,,,0,8,8,8,0,7,7,6,,,,,,,,,,,,,,,,,,,,,,,,,,,,,,,,,,,,,,,,,,,,,,,,,,,,,,,740.223712426,None,740.223712426,None,740.223712426,None,m,1,2.5612584580003386,741.756997386,None,741.756997386,None,741.756997386,None,744.3736920849997,None,744.3736920849997,None,744.3736920849997,None,744.3736920849997,None,,,,,,,,,,,,,,,,,,,,,,,,,,,,,,,,,,,,,,,,,,,,001,120,2020_Feb_13_1059,spring_faces,3.2.3,59.917874045419865,
condition files/Stage1_2.xlsx,,T3,B3,c,"['c', 'm']","['Clue', 'Monopoly']","[-0.15, 0.5]","[0.15, 0.5]",1,1,,,,,,,,,0,9,9,9,0,0,0,4,,,,,,,,,,,,,,,,,,,,,,,,,,,,,,,,,,,,,,,,,,,,,,,,,,,,,,,746.3737357270002,None,746.3737357270002,None,746.3737357270002,None,m,0,1.4195241879997411,747.906692341,None,747.906692341,None,747.906692341,None,749.407013729,None,749.407013729,None,749.407013729,None,749.407013729,None,,,,,,,,,,,,,,,,,,,,,,,,,,,,,,,,,,,,,,,,,,,,001,120,2020_Feb_13_1059,spring_faces,3.2.3,59.917874045419865,
condition files/Stage1_2.xlsx,,B4,T3,c,"['c', 'm']","['Clue', 'Monopoly']","[-0.15, 0.5]","[0.15, 0.5]",1,1,,,,,,,,,0,9,9,9,0,1,1,5,,,,,,,,,,,,,,,,,,,,,,,,,,,,,,,,,,,,,,,,,,,,,,,,,,,,,,,751.3737176340001,None,751.3737176340001,None,751.3737176340001,None,c,1,2.0031901230004223,752.9070199379994,None,752.9070199379994,None,752.9070199379994,None,754.9736919759998,None,754.9736919759998,None,754.9736919759998,None,754.9736919759998,None,,,,,,,,,,,,,,,,,,,,,,,,,,,,,,,,,,,,,,,,,,,,001,120,2020_Feb_13_1059,spring_faces,3.2.3,59.917874045419865,
condition files/Stage1_2.xlsx,,T1,B2,m,"['c', 'm']","['Clue', 'Monopoly']","[-0.15, 0.5]","[0.15, 0.5]",1,1,,,,,,,,,0,9,9,9,0,2,2,2,,,,,,,,,,,,,,,,,,,,,,,,,,,,,,,,,,,,,,,,,,,,,,,,,,,,,,,756.9570791460001,None,756.9570791460001,None,756.9570791460001,None,m,1,0.7877907450001658,758.4903796119997,None,758.4903796119997,None,758.4903796119997,None,759.3570074879999,None,759.3570074879999,None,759.3570074879999,None,759.3570074879999,None,,,,,,,,,,,,,,,,,,,,,,,,,,,,,,,,,,,,,,,,,,,,001,120,2020_Feb_13_1059,spring_faces,3.2.3,59.917874045419865,
condition files/Stage1_2.xlsx,,B1,T1,c,"['c', 'm']","['Clue', 'Monopoly']","[-0.15, 0.5]","[0.15, 0.5]",1,1,,,,,,,,,0,9,9,9,0,3,3,0,,,,,,,,,,,,,,,,,,,,,,,,,,,,,,,,,,,,,,,,,,,,,,,,,,,,,,,761.3236682879997,None,761.3236682879997,None,761.3236682879997,None,m,0,1.2051778089999061,762.8570233109995,None,762.8570233109995,None,762.8570233109995,None,764.1402324169994,None,764.1402324169994,None,764.1402324169994,None,764.1402324169994,None,,,,,,,,,,,,,,,,,,,,,,,,,,,,,,,,,,,,,,,,,,,,001,120,2020_Feb_13_1059,spring_faces,3.2.3,59.917874045419865,
condition files/Stage1_2.xlsx,,B2,T2,m,"['c', 'm']","['Clue', 'Monopoly']","[-0.15, 0.5]","[0.15, 0.5]",1,1,,,,,,,,,0,9,9,9,0,4,4,3,,,,,,,,,,,,,,,,,,,,,,,,,,,,,,,,,,,,,,,,,,,,,,,,,,,,,,,766.1070530469997,None,766.1070530469997,None,766.1070530469997,None,c,0,0.6299216069992326,767.6403514379999,None,767.6403514379999,None,767.6403514379999,None,768.3403793549996,None,768.3403793549996,None,768.3403793549996,None,768.3403793549996,None,,,,,,,,,,,,,,,,,,,,,,,,,,,,,,,,,,,,,,,,,,,,001,120,2020_Feb_13_1059,spring_faces,3.2.3,59.917874045419865,
condition files/Stage1_2.xlsx,,B3,T4,m,"['c', 'm']","['Clue', 'Monopoly']","[-0.15, 0.5]","[0.15, 0.5]",1,1,,,,,,,,,0,9,9,9,0,5,5,6,,,,,,,,,,,,,,,,,,,,,,,,,,,,,,,,,,,,,,,,,,,,,,,,,,,,,,,770.3070558649997,None,770.3070558649997,None,770.3070558649997,None,m,1,1.661862490999738,771.8403760809997,None,771.8403760809997,None,771.8403760809997,None,773.5570208549998,None,773.5570208549998,None,773.5570208549998,None,773.5570208549998,None,,,,,,,,,,,,,,,,,,,,,,,,,,,,,,,,,,,,,,,,,,,,001,120,2020_Feb_13_1059,spring_faces,3.2.3,59.917874045419865,
condition files/Stage1_2.xlsx,,T2,B1,c,"['c', 'm']","['Clue', 'Monopoly']","[-0.15, 0.5]","[0.15, 0.5]",1,1,,,,,,,,,0,9,9,9,0,6,6,1,,,,,,,,,,,,,,,,,,,,,,,,,,,,,,,,,,,,,,,,,,,,,,,,,,,,,,,775.540381801,None,775.540381801,None,775.540381801,None,c,1,1.1966224759999022,777.0736514820001,None,777.0736514820001,None,777.0736514820001,None,778.3403632849995,None,778.3403632849995,None,778.3403632849995,None,778.3403632849995,None,,,,,,,,,,,,,,,,,,,,,,,,,,,,,,,,,,,,,,,,,,,,001,120,2020_Feb_13_1059,spring_faces,3.2.3,59.917874045419865,
condition files/Stage1_2.xlsx,,T4,B4,m,"['c', 'm']","['Clue', 'Monopoly']","[-0.15, 0.5]","[0.15, 0.5]",1,1,,,,,,,,,0,9,9,9,0,7,7,7,,,,,,,,,,,,,,,,,,,,,,,,,,,,,,,,,,,,,,,,,,,,,,,,,,,,,,,780.3070099259994,None,780.3070099259994,None,780.3070099259994,None,m,1,1.9178529589999016,781.8403054729997,None,781.8403054729997,None,781.8403054729997,None,783.8403270919998,None,783.8403270919998,None,783.8403270919998,None,783.8403270919998,None,,,,,,,,,,,,,,,,,,,,,,,,,,,,,,,,,,,,,,,,,,,,001,120,2020_Feb_13_1059,spring_faces,3.2.3,59.917874045419865,
condition files/Stage1_1.xlsx,,T3,B4,c,"['c', 'm']","['Clue', 'Monopoly']","[-0.15, 0.5]","[0.15, 0.5]",1,1,,,,,,,,,0,10,10,10,0,0,0,5,,,,,,,,,,,,,,,,,,,,,,,,,,,,,,,,,,,,,,,,,,,,,,,,,,,,,,,785.8236549519997,None,785.8236549519997,None,785.8236549519997,None,c,1,1.8411996390004788,787.3570523909993,None,787.3570523909993,None,787.3570523909993,None,789.2737160159995,None,789.2737160159995,None,789.2737160159995,None,789.2737160159995,None,,,,,,,,,,,,,,,,,,,,,,,,,,,,,,,,,,,,,,,,,,,,001,120,2020_Feb_13_1059,spring_faces,3.2.3,59.917874045419865,
condition files/Stage1_1.xlsx,,B1,T2,c,"['c', 'm']","['Clue', 'Monopoly']","[-0.15, 0.5]","[0.15, 0.5]",1,1,,,,,,,,,0,10,10,10,0,1,1,1,,,,,,,,,,,,,,,,,,,,,,,,,,,,,,,,,,,,,,,,,,,,,,,,,,,,,,,791.2403993729995,None,791.2403993729995,None,791.2403993729995,None,m,0,0.4245279870001468,792.773710333,None,792.773710333,None,792.773710333,None,793.2570251649995,None,793.2570251649995,None,793.2570251649995,None,793.2570251649995,None,,,,,,,,,,,,,,,,,,,,,,,,,,,,,,,,,,,,,,,,,,,,001,120,2020_Feb_13_1059,spring_faces,3.2.3,59.917874045419865,
condition files/Stage1_1.xlsx,,T1,B1,c,"['c', 'm']","['Clue', 'Monopoly']","[-0.15, 0.5]","[0.15, 0.5]",1,1,,,,,,,,,0,10,10,10,0,2,2,0,,,,,,,,,,,,,,,,,,,,,,,,,,,,,,,,,,,,,,,,,,,,,,,,,,,,,,,795.240405519,None,795.240405519,None,795.240405519,None,c,1,0.3925170029997389,796.7737200709998,None,796.7737200709998,None,796.7737200709998,None,797.2236852819997,None,797.2236852819997,None,797.2236852819997,None,797.2236852819997,None,,,,,,,,,,,,,,,,,,,,,,,,,,,,,,,,,,,,,,,,,,,,001,120,2020_Feb_13_1059,spring_faces,3.2.3,59.917874045419865,
condition files/Stage1_1.xlsx,,B2,T1,m,"['c', 'm']","['Clue', 'Monopoly']","[-0.15, 0.5]","[0.15, 0.5]",1,1,,,,,,,,,0,10,10,10,0,3,3,2,,,,,,,,,,,,,,,,,,,,,,,,,,,,,,,,,,,,,,,,,,,,,,,,,,,,,,,799.2070673279995,None,799.2070673279995,None,799.2070673279995,None,m,1,1.0979173669993543,800.7403628120001,None,800.7403628120001,None,800.7403628120001,None,801.9070058259995,None,801.9070058259995,None,801.9070058259995,None,801.9070058259995,None,,,,,,,,,,,,,,,,,,,,,,,,,,,,,,,,,,,,,,,,,,,,001,120,2020_Feb_13_1059,spring_faces,3.2.3,59.917874045419865,
condition files/Stage1_1.xlsx,,B3,T3,c,"['c', 'm']","['Clue', 'Monopoly']","[-0.15, 0.5]","[0.15, 0.5]",1,1,,,,,,,,,0,10,10,10,0,4,4,4,,,,,,,,,,,,,,,,,,,,,,,,,,,,,,,,,,,,,,,,,,,,,,,,,,,,,,,803.8736240749995,None,803.8736240749995,None,803.8736240749995,None,m,0,1.4872322760002135,805.4069828009997,None,805.4069828009997,None,805.4069828009997,None,806.973714105,None,806.973714105,None,806.973714105,None,806.973714105,None,,,,,,,,,,,,,,,,,,,,,,,,,,,,,,,,,,,,,,,,,,,,001,120,2020_Feb_13_1059,spring_faces,3.2.3,59.917874045419865,
condition files/Stage1_1.xlsx,,T2,B2,m,"['c', 'm']","['Clue', 'Monopoly']","[-0.15, 0.5]","[0.15, 0.5]",1,1,,,,,,,,,0,10,10,10,0,5,5,3,,,,,,,,,,,,,,,,,,,,,,,,,,,,,,,,,,,,,,,,,,,,,,,,,,,,,,,808.9403801039998,None,808.9403801039998,None,808.9403801039998,None,m,1,1.1245167540000693,810.4737201130001,None,810.4737201130001,None,810.4737201130001,None,811.6736979999996,None,811.6736979999996,None,811.6736979999996,None,811.6736979999996,None,,,,,,,,,,,,,,,,,,,,,,,,,,,,,,,,,,,,,,,,,,,,001,120,2020_Feb_13_1059,spring_faces,3.2.3,59.917874045419865,
condition files/Stage1_1.xlsx,,T4,B3,m,"['c', 'm']","['Clue', 'Monopoly']","[-0.15, 0.5]","[0.15, 0.5]",1,1,,,,,,,,,0,10,10,10,0,6,6,6,,,,,,,,,,,,,,,,,,,,,,,,,,,,,,,,,,,,,,,,,,,,,,,,,,,,,,,813.6403886199996,None,813.6403886199996,None,813.6403886199996,None,m,1,2.2326180239997484,815.1736867479995,None,815.1736867479995,None,815.1736867479995,None,817.4568770549995,None,817.4568770549995,None,817.4568770549995,None,817.4568770549995,None,,,,,,,,,,,,,,,,,,,,,,,,,,,,,,,,,,,,,,,,,,,,001,120,2020_Feb_13_1059,spring_faces,3.2.3,59.917874045419865,
condition files/Stage1_1.xlsx,,B4,T4,m,"['c', 'm']","['Clue', 'Monopoly']","[-0.15, 0.5]","[0.15, 0.5]",1,1,,,,,,,,,0,10,10,10,0,7,7,7,,,,,,,,,,,,,,,,,,,,,,,,,,,,,,,,,,,,,,,,,,,,,,,,,,,,,,,819.4402813279994,None,819.4402813279994,None,819.4402813279994,None,c,0,2.9285502120001183,820.9736856059999,None,820.9736856059999,None,820.9736856059999,None,823.9737193049996,None,823.9737193049996,None,823.9737193049996,None,823.9737193049996,None,,,,,,,,,,,,,,,,,,,,,,,,,,,,,,,,,,,,,,,,,,,,001,120,2020_Feb_13_1059,spring_faces,3.2.3,59.917874045419865,
condition files/Stage1_2.xlsx,,B4,T3,c,"['c', 'm']","['Clue', 'Monopoly']","[-0.15, 0.5]","[0.15, 0.5]",1,1,,,,,,,,,0,11,11,11,0,0,0,5,,,,,,,,,,,,,,,,,,,,,,,,,,,,,,,,,,,,,,,,,,,,,,,,,,,,,,,825.9570567619994,None,825.9570567619994,None,825.9570567619994,None,m,0,0.3639187660000971,827.4903811019994,None,827.4903811019994,None,827.4903811019994,None,827.9237062189995,None,827.9237062189995,None,827.9237062189995,None,827.9237062189995,None,,,,,,,,,,,,,,,,,,,,,,,,,,,,,,,,,,,,,,,,,,,,001,120,2020_Feb_13_1059,spring_faces,3.2.3,59.917874045419865,
condition files/Stage1_2.xlsx,,B2,T2,m,"['c', 'm']","['Clue', 'Monopoly']","[-0.15, 0.5]","[0.15, 0.5]",1,1,,,,,,,,,0,11,11,11,0,1,1,3,,,,,,,,,,,,,,,,,,,,,,,,,,,,,,,,,,,,,,,,,,,,,,,,,,,,,,,829.8903391269996,None,829.8903391269996,None,829.8903391269996,None,m,1,0.9106153470002027,831.423642109,None,831.423642109,None,831.423642109,None,832.4070213599998,None,832.4070213599998,None,832.4070213599998,None,832.4070213599998,None,,,,,,,,,,,,,,,,,,,,,,,,,,,,,,,,,,,,,,,,,,,,001,120,2020_Feb_13_1059,spring_faces,3.2.3,59.917874045419865,
condition files/Stage1_2.xlsx,,T2,B1,c,"['c', 'm']","['Clue', 'Monopoly']","[-0.15, 0.5]","[0.15, 0.5]",1,1,,,,,,,,,0,11,11,11,0,2,2,1,,,,,,,,,,,,,,,,,,,,,,,,,,,,,,,,,,,,,,,,,,,,,,,,,,,,,,,834.3737356849997,None,834.3737356849997,None,834.3737356849997,None,c,1,1.4993037880003612,835.9070067739995,None,835.9070067739995,None,835.9070067739995,None,837.4736525549997,None,837.4736525549997,None,837.4736525549997,None,837.4736525549997,None,,,,,,,,,,,,,,,,,,,,,,,,,,,,,,,,,,,,,,,,,,,,001,120,2020_Feb_13_1059,spring_faces,3.2.3,59.917874045419865,
condition files/Stage1_2.xlsx,,T1,B2,m,"['c', 'm']","['Clue', 'Monopoly']","[-0.15, 0.5]","[0.15, 0.5]",1,1,,,,,,,,,0,11,11,11,0,3,3,2,,,,,,,,,,,,,,,,,,,,,,,,,,,,,,,,,,,,,,,,,,,,,,,,,,,,,,,839.4402856749994,None,839.4402856749994,None,839.4402856749994,None,m,1,0.6245205980003448,840.9737123599998,None,840.9737123599998,None,840.9737123599998,None,841.6736878510001,None,841.6736878510001,None,841.6736878510001,None,841.6736878510001,None,,,,,,,,,,,,,,,,,,,,,,,,,,,,,,,,,,,,,,,,,,,,001,120,2020_Feb_13_1059,spring_faces,3.2.3,59.917874045419865,
condition files/Stage1_2.xlsx,,B1,T1,c,"['c', 'm']","['Clue', 'Monopoly']","[-0.15, 0.5]","[0.15, 0.5]",1,1,,,,,,,,,0,11,11,11,0,4,4,0,,,,,,,,,,,,,,,,,,,,,,,,,,,,,,,,,,,,,,,,,,,,,,,,,,,,,,,843.6403844919996,None,843.6403844919996,None,843.6403844919996,None,c,1,1.368484898999668,845.173691639,None,845.173691639,None,845.173691639,None,846.6236270429999,None,846.6236270429999,None,846.6236270429999,None,846.6236270429999,None,,,,,,,,,,,,,,,,,,,,,,,,,,,,,,,,,,,,,,,,,,,,001,120,2020_Feb_13_1059,spring_faces,3.2.3,59.917874045419865,
condition files/Stage1_2.xlsx,,T3,B3,c,"['c', 'm']","['Clue', 'Monopoly']","[-0.15, 0.5]","[0.15, 0.5]",1,1,,,,,,,,,0,11,11,11,0,5,5,4,,,,,,,,,,,,,,,,,,,,,,,,,,,,,,,,,,,,,,,,,,,,,,,,,,,,,,,848.5903549459999,None,848.5903549459999,None,848.5903549459999,None,m,0,0.6105484629997591,850.1236873439993,None,850.1236873439993,None,850.1236873439993,None,850.7902018019995,None,850.7902018019995,None,850.7902018019995,None,850.7902018019995,None,,,,,,,,,,,,,,,,,,,,,,,,,,,,,,,,,,,,,,,,,,,,001,120,2020_Feb_13_1059,spring_faces,3.2.3,59.917874045419865,
condition files/Stage1_2.xlsx,,B3,T4,m,"['c', 'm']","['Clue', 'Monopoly']","[-0.15, 0.5]","[0.15, 0.5]",1,1,,,,,,,,,0,11,11,11,0,6,6,6,,,,,,,,,,,,,,,,,,,,,,,,,,,,,,,,,,,,,,,,,,,,,,,,,,,,,,,852.7737616180002,None,852.7737616180002,None,852.7737616180002,None,c,0,0.5231841800004986,854.3070349509999,None,854.3070349509999,None,854.3070349509999,None,854.9070327270001,None,854.9070327270001,None,854.9070327270001,None,854.9070327270001,None,,,,,,,,,,,,,,,,,,,,,,,,,,,,,,,,,,,,,,,,,,,,001,120,2020_Feb_13_1059,spring_faces,3.2.3,59.917874045419865,
condition files/Stage1_2.xlsx,,T4,B4,m,"['c', 'm']","['Clue', 'Monopoly']","[-0.15, 0.5]","[0.15, 0.5]",1,1,,,,,,,,,0,11,11,11,0,7,7,7,,,,,,,,,,,,,,,,,,,,,,,,,,,,,,,,,,,,,,,,,,,,,,,,,,,,,,,856.8737092069996,None,856.8737092069996,None,856.8737092069996,None,m,1,0.5351455399995757,858.4070251059993,None,858.4070251059993,None,858.4070251059993,None,859.0069804240002,None,859.0069804240002,None,859.0069804240002,None,859.0069804240002,None,,,,,,,,,,,,,,,,,,,,,,,,,,,,,,,,,,,,,,,,,,,,001,120,2020_Feb_13_1059,spring_faces,3.2.3,59.917874045419865,
,,,,,,,,,,,,,,,,,,,,,,,,,,,,,,,,,,,,,,,,,,,,,,,,,,,,,,,,,,,,,,,,,,,,,,,,,,,,,,,,,,,,,,,,,,,,,,,,,,,,,,,,,,,,,,,,860.9904005909993,None,space,6.520530806999886,865.973686583,None,,,,,,,,,,,,,,,,,,,,,,,,,,,,,,001,120,2020_Feb_13_1059,spring_faces,3.2.3,59.917874045419865,
condition files/Stage2_1.xlsx,,B6,T6,r,"['s', 'r']","['Stratego', 'Risk']","[-0.15, 0.5]","[0.15, 0.5]",1,1,,,,,,,,,,,,,,,,,0,0,0,0,0,0,0,1,,,,,,,,,,,,,,,,,,,,,,,,,,,,,,,,,,,,,,,,,,,,,,,872.5570759929997,None,872.5570759929997,None,872.5570759929997,None,s,0,2.548578056000224,874.0736768209999,None,874.0736768209999,None,874.0736768209999,None,876.6903561109993,None,876.6903561109993,None,876.6903561109993,None,876.6903561109993,None,,,,,,,,,,,,,,,865.973686583,None,,,,,,,,,,,,,,,,,,,,,,,,,,,,001,120,2020_Feb_13_1059,spring_faces,3.2.3,59.917874045419865,
condition files/Stage2_1.xlsx,,T5,B5,s,"['s', 'r']","['Stratego', 'Risk']","[-0.15, 0.5]","[0.15, 0.5]",1,1,,,,,,,,,,,,,,,,,0,0,0,0,0,1,1,0,,,,,,,,,,,,,,,,,,,,,,,,,,,,,,,,,,,,,,,,,,,,,,,878.6570504029996,None,878.6570504029996,None,878.6570504029996,None,r,0,0.3677918419998605,880.1903540929998,None,880.1903540929998,None,880.1903540929998,None,880.6403556539999,None,880.6403556539999,None,880.6403556539999,None,880.6403556539999,None,,,,,,,,,,,,,,,,,,,,,,,,,,,,,,,,,,,,,,,,,,,,001,120,2020_Feb_13_1059,spring_faces,3.2.3,59.917874045419865,
condition files/Stage2_1.xlsx,,T1,B1,s,"['s', 'r']","['Stratego', 'Risk']","[-0.15, 0.5]","[0.15, 0.5]",1,1,,,,,,,,,,,,,,,,,0,0,0,0,0,2,2,2,,,,,,,,,,,,,,,,,,,,,,,,,,,,,,,,,,,,,,,,,,,,,,,882.6069595549998,None,882.6069595549998,None,882.6069595549998,None,r,0,0.28979927499949554,884.1403477229996,None,884.1403477229996,None,884.1403477229996,None,884.5070616429994,None,884.5070616429994,None,884.5070616429994,None,884.5070616429994,None,,,,,,,,,,,,,,,,,,,,,,,,,,,,,,,,,,,,,,,,,,,,001,120,2020_Feb_13_1059,spring_faces,3.2.3,59.917874045419865,
condition files/Stage2_1.xlsx,,B4,T4,r,"['s', 'r']","['Stratego', 'Risk']","[-0.15, 0.5]","[0.15, 0.5]",1,1,,,,,,,,,,,,,,,,,0,0,0,0,0,3,3,5,,,,,,,,,,,,,,,,,,,,,,,,,,,,,,,,,,,,,,,,,,,,,,,886.4737267700002,None,886.4737267700002,None,886.4737267700002,None,r,1,0.759163382999759,888.007068506,None,888.007068506,None,888.007068506,None,888.8403597779998,None,888.8403597779998,None,888.8403597779998,None,888.8403597779998,None,,,,,,,,,,,,,,,,,,,,,,,,,,,,,,,,,,,,,,,,,,,,001,120,2020_Feb_13_1059,spring_faces,3.2.3,59.917874045419865,
condition files/Stage2_1.xlsx,,T3,B3,s,"['s', 'r']","['Stratego', 'Risk']","[-0.15, 0.5]","[0.15, 0.5]",1,1,,,,,,,,,,,,,,,,,0,0,0,0,0,4,4,4,,,,,,,,,,,,,,,,,,,,,,,,,,,,,,,,,,,,,,,,,,,,,,,890.8070384729999,None,890.8070384729999,None,890.8070384729999,None,s,1,1.3858238650000203,892.3403770349996,None,892.3403770349996,None,892.3403770349996,None,893.8070560679998,None,893.8070560679998,None,893.8070560679998,None,893.8070560679998,None,,,,,,,,,,,,,,,,,,,,,,,,,,,,,,,,,,,,,,,,,,,,001,120,2020_Feb_13_1059,spring_faces,3.2.3,59.917874045419865,
condition files/Stage2_1.xlsx,,B2,T2,r,"['s', 'r']","['Stratego', 'Risk']","[-0.15, 0.5]","[0.15, 0.5]",1,1,,,,,,,,,,,,,,,,,0,0,0,0,0,5,5,3,,,,,,,,,,,,,,,,,,,,,,,,,,,,,,,,,,,,,,,,,,,,,,,895.7737420509993,None,895.7737420509993,None,895.7737420509993,None,r,1,1.4431712479999987,897.3070510769994,None,897.3070510769994,None,897.3070510769994,None,898.8237141079999,None,898.8237141079999,None,898.8237141079999,None,898.8237141079999,None,,,,,,,,,,,,,,,,,,,,,,,,,,,,,,,,,,,,,,,,,,,,001,120,2020_Feb_13_1059,spring_faces,3.2.3,59.917874045419865,
condition files/Stage2_2.xlsx,,B1,T1,s,"['s', 'r']","['Stratego', 'Risk']","[-0.15, 0.5]","[0.15, 0.5]",1,1,,,,,,,,,,,,,,,,,0,1,1,1,0,0,0,2,,,,,,,,,,,,,,,,,,,,,,,,,,,,,,,,,,,,,,,,,,,,,,,900.8070518730001,None,900.8070518730001,None,900.8070518730001,None,s,1,1.545788641999934,902.340388097,None,902.340388097,None,902.340388097,None,903.9570481599994,None,903.9570481599994,None,903.9570481599994,None,903.9570481599994,None,,,,,,,,,,,,,,,,,,,,,,,,,,,,,,,,,,,,,,,,,,,,001,120,2020_Feb_13_1059,spring_faces,3.2.3,59.917874045419865,
condition files/Stage2_2.xlsx,,T4,B4,r,"['s', 'r']","['Stratego', 'Risk']","[-0.15, 0.5]","[0.15, 0.5]",1,1,,,,,,,,,,,,,,,,,0,1,1,1,0,1,1,5,,,,,,,,,,,,,,,,,,,,,,,,,,,,,,,,,,,,,,,,,,,,,,,905.9237054859996,None,905.9237054859996,None,905.9237054859996,None,r,1,0.6692828900004315,907.4569381949996,None,907.4569381949996,None,907.4569381949996,None,908.2070024879995,None,908.2070024879995,None,908.2070024879995,None,908.2070024879995,None,,,,,,,,,,,,,,,,,,,,,,,,,,,,,,,,,,,,,,,,,,,,001,120,2020_Feb_13_1059,spring_faces,3.2.3,59.917874045419865,
condition files/Stage2_2.xlsx,,B3,T3,s,"['s', 'r']","['Stratego', 'Risk']","[-0.15, 0.5]","[0.15, 0.5]",1,1,,,,,,,,,,,,,,,,,0,1,1,1,0,2,2,4,,,,,,,,,,,,,,,,,,,,,,,,,,,,,,,,,,,,,,,,,,,,,,,910.1737260129994,None,910.1737260129994,None,910.1737260129994,None,s,1,0.35517102900030295,911.7070376579995,None,911.7070376579995,None,911.7070376579995,None,912.1403633459995,None,912.1403633459995,None,912.1403633459995,None,912.1403633459995,None,,,,,,,,,,,,,,,,,,,,,,,,,,,,,,,,,,,,,,,,,,,,001,120,2020_Feb_13_1059,spring_faces,3.2.3,59.917874045419865,
condition files/Stage2_2.xlsx,,T2,B2,r,"['s', 'r']","['Stratego', 'Risk']","[-0.15, 0.5]","[0.15, 0.5]",1,1,,,,,,,,,,,,,,,,,0,1,1,1,0,3,3,3,,,,,,,,,,,,,,,,,,,,,,,,,,,,,,,,,,,,,,,,,,,,,,,914.1070589749997,None,914.1070589749997,None,914.1070589749997,None,r,1,0.5498952410007405,915.640358482,None,915.640358482,None,915.640358482,None,916.2570252539999,None,916.2570252539999,None,916.2570252539999,None,916.2570252539999,None,,,,,,,,,,,,,,,,,,,,,,,,,,,,,,,,,,,,,,,,,,,,001,120,2020_Feb_13_1059,spring_faces,3.2.3,59.917874045419865,
condition files/Stage2_2.xlsx,,T6,B6,r,"['s', 'r']","['Stratego', 'Risk']","[-0.15, 0.5]","[0.15, 0.5]",1,1,,,,,,,,,,,,,,,,,0,1,1,1,0,4,4,1,,,,,,,,,,,,,,,,,,,,,,,,,,,,,,,,,,,,,,,,,,,,,,,918.2236315949995,None,918.2236315949995,None,918.2236315949995,None,s,0,0.33717279699976643,919.75704391,None,919.75704391,None,919.75704391,None,920.1736938829999,None,920.1736938829999,None,920.1736938829999,None,920.1736938829999,None,,,,,,,,,,,,,,,,,,,,,,,,,,,,,,,,,,,,,,,,,,,,001,120,2020_Feb_13_1059,spring_faces,3.2.3,59.917874045419865,
condition files/Stage2_2.xlsx,,B5,T5,s,"['s', 'r']","['Stratego', 'Risk']","[-0.15, 0.5]","[0.15, 0.5]",1,1,,,,,,,,,,,,,,,,,0,1,1,1,0,5,5,0,,,,,,,,,,,,,,,,,,,,,,,,,,,,,,,,,,,,,,,,,,,,,,,922.1403540089996,None,922.1403540089996,None,922.1403540089996,None,r,0,0.6765350050000052,923.6737087809997,None,923.6737087809997,None,923.6737087809997,None,924.4236884889997,None,924.4236884889997,None,924.4236884889997,None,924.4236884889997,None,,,,,,,,,,,,,,,,,,,,,,,,,,,,,,,,,,,,,,,,,,,,001,120,2020_Feb_13_1059,spring_faces,3.2.3,59.917874045419865,
condition files/Stage2_1.xlsx,,T1,B1,s,"['s', 'r']","['Stratego', 'Risk']","[-0.15, 0.5]","[0.15, 0.5]",1,1,,,,,,,,,,,,,,,,,0,2,2,2,0,0,0,2,,,,,,,,,,,,,,,,,,,,,,,,,,,,,,,,,,,,,,,,,,,,,,,926.4070184020002,None,926.4070184020002,None,926.4070184020002,None,r,0,0.3299054260005505,927.940377725,None,927.940377725,None,927.940377725,None,928.3237020389997,None,928.3237020389997,None,928.3237020389997,None,928.3237020389997,None,,,,,,,,,,,,,,,,,,,,,,,,,,,,,,,,,,,,,,,,,,,,001,120,2020_Feb_13_1059,spring_faces,3.2.3,59.917874045419865,
condition files/Stage2_1.xlsx,,B4,T4,r,"['s', 'r']","['Stratego', 'Risk']","[-0.15, 0.5]","[0.15, 0.5]",1,1,,,,,,,,,,,,,,,,,0,2,2,2,0,1,1,5,,,,,,,,,,,,,,,,,,,,,,,,,,,,,,,,,,,,,,,,,,,,,,,930.3070431739998,None,930.3070431739998,None,930.3070431739998,None,r,1,0.349977155000488,931.8402967889997,None,931.8402967889997,None,931.8402967889997,None,932.256841378,None,932.256841378,None,932.256841378,None,932.256841378,None,,,,,,,,,,,,,,,,,,,,,,,,,,,,,,,,,,,,,,,,,,,,001,120,2020_Feb_13_1059,spring_faces,3.2.3,59.917874045419865,
condition files/Stage2_1.xlsx,,B2,T2,r,"['s', 'r']","['Stratego', 'Risk']","[-0.15, 0.5]","[0.15, 0.5]",1,1,,,,,,,,,,,,,,,,,0,2,2,2,0,2,2,3,,,,,,,,,,,,,,,,,,,,,,,,,,,,,,,,,,,,,,,,,,,,,,,934.2236209490002,None,934.2236209490002,None,934.2236209490002,None,s,0,0.28918391299976065,935.7570300039997,None,935.7570300039997,None,935.7570300039997,None,936.1070537019996,None,936.1070537019996,None,936.1070537019996,None,936.1070537019996,None,,,,,,,,,,,,,,,,,,,,,,,,,,,,,,,,,,,,,,,,,,,,001,120,2020_Feb_13_1059,spring_faces,3.2.3,59.917874045419865,
condition files/Stage2_1.xlsx,,B6,T6,r,"['s', 'r']","['Stratego', 'Risk']","[-0.15, 0.5]","[0.15, 0.5]",1,1,,,,,,,,,,,,,,,,,0,2,2,2,0,3,3,1,,,,,,,,,,,,,,,,,,,,,,,,,,,,,,,,,,,,,,,,,,,,,,,938.0903477309994,None,938.0903477309994,None,938.0903477309994,None,r,1,1.5905267730004198,939.6237079599996,None,939.6237079599996,None,939.6237079599996,None,941.2903809729996,None,941.2903809729996,None,941.2903809729996,None,941.2903809729996,None,,,,,,,,,,,,,,,,,,,,,,,,,,,,,,,,,,,,,,,,,,,,001,120,2020_Feb_13_1059,spring_faces,3.2.3,59.917874045419865,
condition files/Stage2_1.xlsx,,T5,B5,s,"['s', 'r']","['Stratego', 'Risk']","[-0.15, 0.5]","[0.15, 0.5]",1,1,,,,,,,,,,,,,,,,,0,2,2,2,0,4,4,0,,,,,,,,,,,,,,,,,,,,,,,,,,,,,,,,,,,,,,,,,,,,,,,943.2570537080001,None,943.2570537080001,None,943.2570537080001,None,s,1,0.7118551659996228,944.7903877429999,None,944.7903877429999,None,944.7903877429999,None,945.5737170140001,None,945.5737170140001,None,945.5737170140001,None,945.5737170140001,None,,,,,,,,,,,,,,,,,,,,,,,,,,,,,,,,,,,,,,,,,,,,001,120,2020_Feb_13_1059,spring_faces,3.2.3,59.917874045419865,
condition files/Stage2_1.xlsx,,T3,B3,s,"['s', 'r']","['Stratego', 'Risk']","[-0.15, 0.5]","[0.15, 0.5]",1,1,,,,,,,,,,,,,,,,,0,2,2,2,0,5,5,4,,,,,,,,,,,,,,,,,,,,,,,,,,,,,,,,,,,,,,,,,,,,,,,947.5404284729993,None,947.5404284729993,None,947.5404284729993,None,r,0,0.7486697570002434,949.0736545319996,None,949.0736545319996,None,949.0736545319996,None,949.8904034950001,None,949.8904034950001,None,949.8904034950001,None,949.8904034950001,None,,,,,,,,,,,,,,,,,,,,,,,,,,,,,,,,,,,,,,,,,,,,001,120,2020_Feb_13_1059,spring_faces,3.2.3,59.917874045419865,
condition files/Stage2_2.xlsx,,B3,T3,s,"['s', 'r']","['Stratego', 'Risk']","[-0.15, 0.5]","[0.15, 0.5]",1,1,,,,,,,,,,,,,,,,,0,3,3,3,0,0,0,4,,,,,,,,,,,,,,,,,,,,,,,,,,,,,,,,,,,,,,,,,,,,,,,951.8737099489999,None,951.8737099489999,None,951.8737099489999,None,s,1,0.3671759879998717,953.4069953049993,None,953.4069953049993,None,953.4069953049993,None,953.8403095929998,None,953.8403095929998,None,953.8403095929998,None,953.8403095929998,None,,,,,,,,,,,,,,,,,,,,,,,,,,,,,,,,,,,,,,,,,,,,001,120,2020_Feb_13_1059,spring_faces,3.2.3,59.917874045419865,
condition files/Stage2_2.xlsx,,T6,B6,r,"['s', 'r']","['Stratego', 'Risk']","[-0.15, 0.5]","[0.15, 0.5]",1,1,,,,,,,,,,,,,,,,,0,3,3,3,0,1,1,1,,,,,,,,,,,,,,,,,,,,,,,,,,,,,,,,,,,,,,,,,,,,,,,955.8237185829994,None,955.8237185829994,None,955.8237185829994,None,r,1,0.5932239809999373,957.3570202749997,None,957.3570202749997,None,957.3570202749997,None,958.0237313560001,None,958.0237313560001,None,958.0237313560001,None,958.0237313560001,None,,,,,,,,,,,,,,,,,,,,,,,,,,,,,,,,,,,,,,,,,,,,001,120,2020_Feb_13_1059,spring_faces,3.2.3,59.917874045419865,
condition files/Stage2_2.xlsx,,T2,B2,r,"['s', 'r']","['Stratego', 'Risk']","[-0.15, 0.5]","[0.15, 0.5]",1,1,,,,,,,,,,,,,,,,,0,3,3,3,0,2,2,3,,,,,,,,,,,,,,,,,,,,,,,,,,,,,,,,,,,,,,,,,,,,,,,959.9904104070001,None,959.9904104070001,None,959.9904104070001,None,s,0,0.7146092089997182,961.5237001989999,None,961.5237001989999,None,961.5237001989999,None,962.2904365730001,None,962.2904365730001,None,962.2904365730001,None,962.2904365730001,None,,,,,,,,,,,,,,,,,,,,,,,,,,,,,,,,,,,,,,,,,,,,001,120,2020_Feb_13_1059,spring_faces,3.2.3,59.917874045419865,
condition files/Stage2_2.xlsx,,B5,T5,s,"['s', 'r']","['Stratego', 'Risk']","[-0.15, 0.5]","[0.15, 0.5]",1,1,,,,,,,,,,,,,,,,,0,3,3,3,0,3,3,0,,,,,,,,,,,,,,,,,,,,,,,,,,,,,,,,,,,,,,,,,,,,,,,964.2737220279996,None,964.2737220279996,None,964.2737220279996,None,s,1,1.087174605000655,965.8070343149993,None,965.8070343149993,None,965.8070343149993,None,966.9737218299997,None,966.9737218299997,None,966.9737218299997,None,966.9737218299997,None,,,,,,,,,,,,,,,,,,,,,,,,,,,,,,,,,,,,,,,,,,,,001,120,2020_Feb_13_1059,spring_faces,3.2.3,59.917874045419865,
condition files/Stage2_2.xlsx,,B1,T1,s,"['s', 'r']","['Stratego', 'Risk']","[-0.15, 0.5]","[0.15, 0.5]",1,1,,,,,,,,,,,,,,,,,0,3,3,3,0,4,4,2,,,,,,,,,,,,,,,,,,,,,,,,,,,,,,,,,,,,,,,,,,,,,,,968.9403865670001,None,968.9403865670001,None,968.9403865670001,None,s,1,0.42041786499976297,970.4737154289996,None,970.4737154289996,None,970.4737154289996,None,970.9736896449995,None,970.9736896449995,None,970.9736896449995,None,970.9736896449995,None,,,,,,,,,,,,,,,,,,,,,,,,,,,,,,,,,,,,,,,,,,,,001,120,2020_Feb_13_1059,spring_faces,3.2.3,59.917874045419865,
condition files/Stage2_2.xlsx,,T4,B4,r,"['s', 'r']","['Stratego', 'Risk']","[-0.15, 0.5]","[0.15, 0.5]",1,1,,,,,,,,,,,,,,,,,0,3,3,3,0,5,5,5,,,,,,,,,,,,,,,,,,,,,,,,,,,,,,,,,,,,,,,,,,,,,,,972.9404086389995,None,972.9404086389995,None,972.9404086389995,None,s,0,0.5965798450006332,974.473699051,None,974.473699051,None,974.473699051,None,975.1403858630001,None,975.1403858630001,None,975.1403858630001,None,975.1403858630001,None,,,,,,,,,,,,,,,,,,,,,,,,,,,,,,,,,,,,,,,,,,,,001,120,2020_Feb_13_1059,spring_faces,3.2.3,59.917874045419865,
condition files/Stage2_1.xlsx,,B6,T6,r,"['s', 'r']","['Stratego', 'Risk']","[-0.15, 0.5]","[0.15, 0.5]",1,1,,,,,,,,,,,,,,,,,0,4,4,4,0,0,0,1,,,,,,,,,,,,,,,,,,,,,,,,,,,,,,,,,,,,,,,,,,,,,,,977.1237231699997,None,977.1237231699997,None,977.1237231699997,None,r,1,0.3812042849995123,978.6570719189995,None,978.6570719189995,None,978.6570719189995,None,979.1070392490001,None,979.1070392490001,None,979.1070392490001,None,979.1070392490001,None,,,,,,,,,,,,,,,,,,,,,,,,,,,,,,,,,,,,,,,,,,,,001,120,2020_Feb_13_1059,spring_faces,3.2.3,59.917874045419865,
condition files/Stage2_1.xlsx,,T1,B1,s,"['s', 'r']","['Stratego', 'Risk']","[-0.15, 0.5]","[0.15, 0.5]",1,1,,,,,,,,,,,,,,,,,0,4,4,4,0,1,1,2,,,,,,,,,,,,,,,,,,,,,,,,,,,,,,,,,,,,,,,,,,,,,,,981.0737372829999,None,981.0737372829999,None,981.0737372829999,None,r,0,0.41526344700014306,982.6070503780002,None,982.6070503780002,None,982.6070503780002,None,983.090396175,None,983.090396175,None,983.090396175,None,983.090396175,None,,,,,,,,,,,,,,,,,,,,,,,,,,,,,,,,,,,,,,,,,,,,001,120,2020_Feb_13_1059,spring_faces,3.2.3,59.917874045419865,
condition files/Stage2_1.xlsx,,T5,B5,s,"['s', 'r']","['Stratego', 'Risk']","[-0.15, 0.5]","[0.15, 0.5]",1,1,,,,,,,,,,,,,,,,,0,4,4,4,0,2,2,0,,,,,,,,,,,,,,,,,,,,,,,,,,,,,,,,,,,,,,,,,,,,,,,985.0569945059997,None,985.0569945059997,None,985.0569945059997,None,s,1,0.2877360819993555,986.5904690890002,None,986.5904690890002,None,986.5904690890002,None,986.9570270409995,None,986.9570270409995,None,986.9570270409995,None,986.9570270409995,None,,,,,,,,,,,,,,,,,,,,,,,,,,,,,,,,,,,,,,,,,,,,001,120,2020_Feb_13_1059,spring_faces,3.2.3,59.917874045419865,
