condsFile,subStage,cue1,cue2,correct,responseKeys,responseNames,cue1Position,cue2Position,cue1Opacity,cue2Opacity,stageLoop0.thisRepN,stageLoop0.thisTrialN,stageLoop0.thisN,stageLoop0.thisIndex,blockLoop0.thisRepN,blockLoop0.thisTrialN,blockLoop0.thisN,blockLoop0.thisIndex,stage1Loop.thisRepN,stage1Loop.thisTrialN,stage1Loop.thisN,stage1Loop.thisIndex,blockLoop1.thisRepN,blockLoop1.thisTrialN,blockLoop1.thisN,blockLoop1.thisIndex,stage2Loop.thisRepN,stage2Loop.thisTrialN,stage2Loop.thisN,stage2Loop.thisIndex,blockLoop2.thisRepN,blockLoop2.thisTrialN,blockLoop2.thisN,blockLoop2.thisIndex,testLoop.thisRepN,testLoop.thisTrialN,testLoop.thisN,testLoop.thisIndex,blockLoopTest.thisRepN,blockLoopTest.thisTrialN,blockLoopTest.thisN,blockLoopTest.thisIndex,cuePics,id_instr_text.started,id_instr_text.stopped,space_to_continue_2.started,space_to_continue_2.stopped,end_instructions_resp_3.keys,end_instructions_resp_3.rt,end_instructions_resp_3.started,end_instructions_resp_3.stopped,id_input_instr.started,id_input_instr.stopped,id_input_rect.started,id_input_rect.stopped,id_input_resp.keys,id_input_resp.rt,id_input_resp.started,id_input_resp.stopped,sonaID,id_input_text.started,id_input_text.stopped,final_text.started,final_text.stopped,instructions.started,instructions.stopped,end_instructions_resp.keys,end_instructions_resp.rt,end_instructions_resp.started,end_instructions_resp.stopped,space_to_continue.started,space_to_continue.stopped,instructions_stage0.started,instructions_stage0.stopped,end_instructions_resp_stage0.keys,end_instructions_resp_stage0.rt,end_instructions_resp_stage0.started,end_instructions_resp_stage0.stopped,space_to_continue_stage0.started,space_to_continue_stage0.stopped,text.started,text.stopped,resp_text1.started,resp_text1.stopped,resp_text2.started,resp_text2.stopped,trial_resp.keys,trial_resp.corr,trial_resp.rt,trial_resp.started,trial_resp.stopped,cue1Image.started,cue1Image.stopped,cue2Image.started,cue2Image.stopped,cue1Image_fb.started,cue1Image_fb.stopped,cue2Image_fb.started,cue2Image_fb.stopped,fb_text_answer.started,fb_text_answer.stopped,feedback_image.started,feedback_image.stopped,instructions_stage1.started,instructions_stage1.stopped,end_instructions_resp_stage1.keys,end_instructions_resp_stage1.rt,end_instructions_resp_stage1.started,end_instructions_resp_stage1.stopped,space_to_continue_stage1.started,space_to_continue_stage1.stopped,instructions_2.started,instructions_2.stopped,end_instructions_resp_2.keys,end_instructions_resp_2.rt,end_instructions_resp_2.started,end_instructions_resp_2.stopped,press_space_to_continue_stage2.started,press_space_to_continue_stage2.stopped,instructions_testStage1.started,instructions_testStage1.stopped,end_instructions_resp_test1.keys,end_instructions_resp_test1.rt,end_instructions_resp_test1.started,end_instructions_resp_test1.stopped,press_space_to_continue_test1.started,press_space_to_continue_test1.stopped,cue1Image_testChoice.started,cue1Image_testChoice.stopped,cue2Image_testChoice.started,cue2Image_testChoice.stopped,test_resp.keys,test_resp.corr,test_resp.rt,test_resp.started,test_resp.stopped,cue1Image_testConf.started,cue1Image_testConf.stopped,cue2Image_testConf.started,cue2Image_testConf.stopped,conf_reminder.started,conf_reminder.stopped,conf_rating.response,conf_rating.rt,conf_rating.started,conf_rating.stopped,session,participant,date,expName,psychopyVersion,frameRate,
,,,,,,,,,,,,,,,,,,,,,,,,,,,,,,,,,,,,,,,,,,,"{'none': 'pictures/20M_AN_C.png', 'alpha': 'pictures/SHINEd_apple.png', 'beta': 'pictures/SHINEd_melon.png', 'theta': 'pictures/SHINEd_pear.png', 'phi': 'pictures/SHINEd_pepper.png', 'T1': 'pictures/33M_AN_C.png', 'T2': 'pictures/25M_AN_C.png', 'T3': 'pictures/37M_AN_C.png', 'T4': 'pictures/31M_AN_C.png', 'T5': 'pictures/36M_AN_C.png', 'T6': 'pictures/38M_AN_C.png', 'B1': 'pictures/26M_NE_C.png', 'B2': 'pictures/32M_NE_C.png', 'B3': 'pictures/23M_NE_C.png', 'B4': 'pictures/20M_NE_C.png', 'B5': 'pictures/22M_NE_C.png', 'B6': 'pictures/34M_NE_C.png'}",171.2181737830001,None,176.20132806899983,None,space,3.5243952989999343,176.20132806899983,None,,,,,,,,,,,,,,,,,,,,,,,,,,,,,,,,,,,,,,,,,,,,,,,,,,,,,,,,,,,,,,,,,,,,,,,,,,,,,,,,,,,,,,,,,,,,,,,,001,129,2020_Feb_18_0931,spring_faces,3.1.5,60.010283242142414,
,,,,,,,,,,,,,,,,,,,,,,,,,,,,,,,,,,,,,,,,,,,,,,,,,,,,180.1680985109997,None,180.1680985109997,None,"['v', 'i', 'backspace', 'backspace', '0', '4', '0', '9', 'v', 'i', 'g', 'e', 'o', 'backspace', '0', '4', '0', '9', 'v', 'i', 'backspace', 'backspace', 'g', 'i', 'g', 'e', 'o']","[19.669559372000094, 19.82955124800037, 22.85353442700034, 23.301503398000023, 24.469561744000202, 24.757615094000357, 26.053562230000352, 26.30949868300013, 28.69360981700038, 28.789571640000304, 31.525619214000017, 31.621563057000003, 31.82956002400033, 35.141614392000065, 37.541621317000136, 38.08549804600034, 38.19754735400011, 38.309516796000025, 38.98154751700031, 39.25355973600017, 41.2855504930003, 41.58957138599999, 42.005565305000346, 42.18154534000041, 44.117521044000114, 44.885546715000146, 45.061503750000156]",180.1680985109997,None,,,,,,,,,,,,,,,,,,,,,,,,,,,,,,,,,,,,,,,,,,,,,,,,,,,,,,,,,,,,,,,,,,,,,,,,,,,,,,,,,,,,,,,,001,129,2020_Feb_18_0931,spring_faces,3.1.5,60.010283242142414,
,,,,,,,,,,,,,,,,,,,,,,,,,,,,,,,,,,,,,,,,,,,,,,,,,,,,,,,,,,,,0409gigeo,180.1680985109997,None,180.1680985109997,None,230.30154643800006,None,space,1.048196375000316,235.30147918000011,None,,,,,,,,,,,,,,,,,,,,,,,,,,,,,,,,,,,,,,,,,,,,,,,,,,,,,,,,,,,,,,,,,,,,,,,,,,,,,001,129,2020_Feb_18_0931,spring_faces,3.1.5,60.010283242142414,
,,,,,,,,,,,,,,,,,,,,,,,,,,,,,,,,,,,,,,,,,,,,,,,,,,,,,,,,,,,,,,,,,,,,,,,235.30147918000011,None,236.38438198799986,None,space,2.3251254199999494,241.38459822999994,None,,,,,,,,,,,,,,,,,,,,,,,,,,,,,,,,,,,,,,,,,,,,,,,,,,,,,,,,,,,,,,,,,,,,,001,129,2020_Feb_18_0931,spring_faces,3.1.5,60.010283242142414,
condition files/Stage0a.xlsx,0a,alpha,none,h,"['h', 'g']","['Chess', 'Go']","[0, 0.5]","[0, 0]",1,0,0,0,0,0,0,0,0,0,,,,,,,,,,,,,,,,,,,,,,,,,,,,,,,,,,,,,,,,,,,,,,,,,,,,,,,,,,,,,241.38459822999994,None,243.76835469499974,None,243.76835469499974,None,243.76835469499974,None,g,0,4.275671809999949,245.41805666999971,None,245.41805666999971,None,245.41805666999971,None,249.76740840000002,None,249.76740840000002,None,249.76740840000002,None,249.76740840000002,None,,,,,,,,,,,,,,,,,,,,,,,,,,,,,,,,,,,,,,,,,,,,001,129,2020_Feb_18_0931,spring_faces,3.1.5,60.010283242142414,
condition files/Stage0a.xlsx,0a,beta,none,g,"['h', 'g']","['Chess', 'Go']","[0, 0.5]","[0, 0]",1,0,0,0,0,0,0,1,1,1,,,,,,,,,,,,,,,,,,,,,,,,,,,,,,,,,,,,,,,,,,,,,,,,,,,,,,,,,,,,,,,251.71790521499997,None,251.71790521499997,None,251.71790521499997,None,h,0,0.7771496440000192,253.25249448499972,None,253.25249448499972,None,253.25249448499972,None,254.08658371799993,None,254.08658371799993,None,254.08658371799993,None,254.08658371799993,None,,,,,,,,,,,,,,,,,,,,,,,,,,,,,,,,,,,,,,,,,,,,001,129,2020_Feb_18_0931,spring_faces,3.1.5,60.010283242142414,
condition files/Stage0a.xlsx,0a,beta,none,g,"['h', 'g']","['Chess', 'Go']","[0, 0.5]","[0, 0]",1,0,0,1,1,1,0,0,0,1,,,,,,,,,,,,,,,,,,,,,,,,,,,,,,,,,,,,,,,,,,,,,,,,,,,,,,,,,,,,,,,256.06807073699974,None,256.06807073699974,None,256.06807073699974,None,g,1,1.2918743970003561,257.60185663699986,None,257.60185663699986,None,257.60185663699986,None,258.95162265399995,None,258.95162265399995,None,258.95162265399995,None,258.95162265399995,None,,,,,,,,,,,,,,,,,,,,,,,,,,,,,,,,,,,,,,,,,,,,001,129,2020_Feb_18_0931,spring_faces,3.1.5,60.010283242142414,
condition files/Stage0a.xlsx,0a,alpha,none,h,"['h', 'g']","['Chess', 'Go']","[0, 0.5]","[0, 0]",1,0,0,1,1,1,0,1,1,0,,,,,,,,,,,,,,,,,,,,,,,,,,,,,,,,,,,,,,,,,,,,,,,,,,,,,,,,,,,,,,,260.91767509500005,None,260.91767509500005,None,260.91767509500005,None,h,1,0.7459761659997639,262.4516746569998,None,262.4516746569998,None,262.4516746569998,None,263.2534329320001,None,263.2534329320001,None,263.2534329320001,None,263.2534329320001,None,,,,,,,,,,,,,,,,,,,,,,,,,,,,,,,,,,,,,,,,,,,,001,129,2020_Feb_18_0931,spring_faces,3.1.5,60.010283242142414,
condition files/Stage0a.xlsx,0a,beta,none,g,"['h', 'g']","['Chess', 'Go']","[0, 0.5]","[0, 0]",1,0,0,2,2,2,0,0,0,1,,,,,,,,,,,,,,,,,,,,,,,,,,,,,,,,,,,,,,,,,,,,,,,,,,,,,,,,,,,,,,,265.2350923109998,None,265.2350923109998,None,265.2350923109998,None,g,1,0.49224184700005935,266.7695049220001,None,266.7695049220001,None,266.7695049220001,None,267.31795372399984,None,267.31795372399984,None,267.31795372399984,None,267.31795372399984,None,,,,,,,,,,,,,,,,,,,,,,,,,,,,,,,,,,,,,,,,,,,,001,129,2020_Feb_18_0931,spring_faces,3.1.5,60.010283242142414,
condition files/Stage0a.xlsx,0a,alpha,none,h,"['h', 'g']","['Chess', 'Go']","[0, 0.5]","[0, 0]",1,0,0,2,2,2,0,1,1,0,,,,,,,,,,,,,,,,,,,,,,,,,,,,,,,,,,,,,,,,,,,,,,,,,,,,,,,,,,,,,,,269.2844645509999,None,269.2844645509999,None,269.2844645509999,None,h,1,0.7323557760000767,270.817292059,None,270.817292059,None,270.817292059,None,271.60115480700006,None,271.60115480700006,None,271.60115480700006,None,271.60115480700006,None,,,,,,,,,,,,,,,,,,,,,,,,,,,,,,,,,,,,,,,,,,,,001,129,2020_Feb_18_0931,spring_faces,3.1.5,60.010283242142414,
condition files/Stage0a.xlsx,0a,beta,none,g,"['h', 'g']","['Chess', 'Go']","[0, 0.5]","[0, 0]",1,0,0,3,3,3,0,0,0,1,,,,,,,,,,,,,,,,,,,,,,,,,,,,,,,,,,,,,,,,,,,,,,,,,,,,,,,,,,,,,,,273.58479508599976,None,273.58479508599976,None,273.58479508599976,None,g,1,0.5440411229997153,275.11768017199984,None,275.11768017199984,None,275.11768017199984,None,275.71763590699993,None,275.71763590699993,None,275.71763590699993,None,275.71763590699993,None,,,,,,,,,,,,,,,,,,,,,,,,,,,,,,,,,,,,,,,,,,,,001,129,2020_Feb_18_0931,spring_faces,3.1.5,60.010283242142414,
condition files/Stage0a.xlsx,0a,alpha,none,h,"['h', 'g']","['Chess', 'Go']","[0, 0.5]","[0, 0]",1,0,0,3,3,3,0,1,1,0,,,,,,,,,,,,,,,,,,,,,,,,,,,,,,,,,,,,,,,,,,,,,,,,,,,,,,,,,,,,,,,277.68447769299974,None,277.68447769299974,None,277.68447769299974,None,h,1,0.4919074350000301,279.217801366,None,279.217801366,None,279.217801366,None,279.769086971,None,279.769086971,None,279.769086971,None,279.769086971,None,,,,,,,,,,,,,,,,,,,,,,,,,,,,,,,,,,,,,,,,,,,,001,129,2020_Feb_18_0931,spring_faces,3.1.5,60.010283242142414,
condition files/Stage0a.xlsx,0a,beta,none,g,"['h', 'g']","['Chess', 'Go']","[0, 0.5]","[0, 0]",1,0,0,4,4,4,0,0,0,1,,,,,,,,,,,,,,,,,,,,,,,,,,,,,,,,,,,,,,,,,,,,,,,,,,,,,,,,,,,,,,,281.75157156900013,None,281.75157156900013,None,281.75157156900013,None,g,1,0.6488321360002374,283.28481105499986,None,283.28481105499986,None,283.28481105499986,None,283.98453157699987,None,283.98453157699987,None,283.98453157699987,None,283.98453157699987,None,,,,,,,,,,,,,,,,,,,,,,,,,,,,,,,,,,,,,,,,,,,,001,129,2020_Feb_18_0931,spring_faces,3.1.5,60.010283242142414,
condition files/Stage0a.xlsx,0a,alpha,none,h,"['h', 'g']","['Chess', 'Go']","[0, 0.5]","[0, 0]",1,0,0,4,4,4,0,1,1,0,,,,,,,,,,,,,,,,,,,,,,,,,,,,,,,,,,,,,,,,,,,,,,,,,,,,,,,,,,,,,,,285.9510762619998,None,285.9510762619998,None,285.9510762619998,None,h,1,0.577092784999877,287.4846172759999,None,287.4846172759999,None,287.4846172759999,None,288.1175065739999,None,288.1175065739999,None,288.1175065739999,None,288.1175065739999,None,,,,,,,,,,,,,,,,,,,,,,,,,,,,,,,,,,,,,,,,,,,,001,129,2020_Feb_18_0931,spring_faces,3.1.5,60.010283242142414,
condition files/Stage0a.xlsx,0a,beta,none,g,"['h', 'g']","['Chess', 'Go']","[0, 0.5]","[0, 0]",1,0,0,5,5,5,0,0,0,1,,,,,,,,,,,,,,,,,,,,,,,,,,,,,,,,,,,,,,,,,,,,,,,,,,,,,,,,,,,,,,,290.1012857239998,None,290.1012857239998,None,290.1012857239998,None,g,1,0.6191490010000962,291.6345043749998,None,291.6345043749998,None,291.6345043749998,None,292.317506888,None,292.317506888,None,292.317506888,None,292.317506888,None,,,,,,,,,,,,,,,,,,,,,,,,,,,,,,,,,,,,,,,,,,,,001,129,2020_Feb_18_0931,spring_faces,3.1.5,60.010283242142414,
condition files/Stage0a.xlsx,0a,alpha,none,h,"['h', 'g']","['Chess', 'Go']","[0, 0.5]","[0, 0]",1,0,0,5,5,5,0,1,1,0,,,,,,,,,,,,,,,,,,,,,,,,,,,,,,,,,,,,,,,,,,,,,,,,,,,,,,,,,,,,,,,294.2846748809998,None,294.2846748809998,None,294.2846748809998,None,h,1,0.4200637909998477,295.81760134399974,None,295.81760134399974,None,295.81760134399974,None,296.3007553120001,None,296.3007553120001,None,296.3007553120001,None,296.3007553120001,None,,,,,,,,,,,,,,,,,,,,,,,,,,,,,,,,,,,,,,,,,,,,001,129,2020_Feb_18_0931,spring_faces,3.1.5,60.010283242142414,
condition files/Stage0b_1.xlsx,0b,alpha,none,h,"['h', 'g']","['Chess', 'Go']","[-0.15, 0.5]","[0.15, 0.5]",1,0,0,6,6,6,0,0,0,0,,,,,,,,,,,,,,,,,,,,,,,,,,,,,,,,,,,,,,,,,,,,,,,,,,,,,,,,,,,,,,,298.2842149119997,None,298.2842149119997,None,298.2842149119997,None,h,1,0.6924984560000667,299.8012319710001,None,299.8012319710001,None,299.8012319710001,None,300.5514169539997,None,300.5514169539997,None,300.5514169539997,None,300.5514169539997,None,,,,,,,,,,,,,,,,,,,,,,,,,,,,,,,,,,,,,,,,,,,,001,129,2020_Feb_18_0931,spring_faces,3.1.5,60.010283242142414,
condition files/Stage0b_1.xlsx,0b,none,beta,g,"['h', 'g']","['Chess', 'Go']","[-0.15, 0.5]","[0.15, 0.5]",0,1,0,6,6,6,0,1,1,1,,,,,,,,,,,,,,,,,,,,,,,,,,,,,,,,,,,,,,,,,,,,,,,,,,,,,,,,,,,,,,,302.51780203,None,302.51780203,None,302.51780203,None,g,1,0.48561436199997843,304.05608802300003,None,304.05608802300003,None,304.05608802300003,None,304.6178002920001,None,304.6178002920001,None,304.6178002920001,None,304.6178002920001,None,,,,,,,,,,,,,,,,,,,,,,,,,,,,,,,,,,,,,,,,,,,,001,129,2020_Feb_18_0931,spring_faces,3.1.5,60.010283242142414,
condition files/Stage0b_2.xlsx,0b,beta,none,g,"['h', 'g']","['Chess', 'Go']","[-0.15, 0.5]","[0.15, 0.5]",1,0,0,7,7,7,0,0,0,1,,,,,,,,,,,,,,,,,,,,,,,,,,,,,,,,,,,,,,,,,,,,,,,,,,,,,,,,,,,,,,,306.58478033899974,None,306.58478033899974,None,306.58478033899974,None,g,1,0.593545148999965,308.12410263899983,None,308.12410263899983,None,308.12410263899983,None,308.76786511399996,None,308.76786511399996,None,308.76786511399996,None,308.76786511399996,None,,,,,,,,,,,,,,,,,,,,,,,,,,,,,,,,,,,,,,,,,,,,001,129,2020_Feb_18_0931,spring_faces,3.1.5,60.010283242142414,
condition files/Stage0b_2.xlsx,0b,none,alpha,h,"['h', 'g']","['Chess', 'Go']","[-0.15, 0.5]","[0.15, 0.5]",0,1,0,7,7,7,0,1,1,0,,,,,,,,,,,,,,,,,,,,,,,,,,,,,,,,,,,,,,,,,,,,,,,,,,,,,,,,,,,,,,,310.73398639900006,None,310.73398639900006,None,310.73398639900006,None,h,1,0.496479933000046,312.26919181799985,None,312.26919181799985,None,312.26919181799985,None,312.834998797,None,312.834998797,None,312.834998797,None,312.834998797,None,,,,,,,,,,,,,,,,,,,,,,,,,,,,,,,,,,,,,,,,,,,,001,129,2020_Feb_18_0931,spring_faces,3.1.5,60.010283242142414,
condition files/Stage0b_1.xlsx,0b,alpha,none,h,"['h', 'g']","['Chess', 'Go']","[-0.15, 0.5]","[0.15, 0.5]",1,0,0,8,8,8,0,0,0,0,,,,,,,,,,,,,,,,,,,,,,,,,,,,,,,,,,,,,,,,,,,,,,,,,,,,,,,,,,,,,,,314.80147002700005,None,314.80147002700005,None,314.80147002700005,None,h,1,0.5741754420000689,316.33556717700003,None,316.33556717700003,None,316.33556717700003,None,316.9677726529999,None,316.9677726529999,None,316.9677726529999,None,316.9677726529999,None,,,,,,,,,,,,,,,,,,,,,,,,,,,,,,,,,,,,,,,,,,,,001,129,2020_Feb_18_0931,spring_faces,3.1.5,60.010283242142414,
condition files/Stage0b_1.xlsx,0b,none,beta,g,"['h', 'g']","['Chess', 'Go']","[-0.15, 0.5]","[0.15, 0.5]",0,1,0,8,8,8,0,1,1,1,,,,,,,,,,,,,,,,,,,,,,,,,,,,,,,,,,,,,,,,,,,,,,,,,,,,,,,,,,,,,,,318.9342547890001,None,318.9342547890001,None,318.9342547890001,None,g,1,0.4738659610002287,320.46786540999983,None,320.46786540999983,None,320.46786540999983,None,321.0064169970001,None,321.0064169970001,None,321.0064169970001,None,321.0064169970001,None,,,,,,,,,,,,,,,,,,,,,,,,,,,,,,,,,,,,,,,,,,,,001,129,2020_Feb_18_0931,spring_faces,3.1.5,60.010283242142414,
condition files/Stage0b_2.xlsx,0b,none,alpha,h,"['h', 'g']","['Chess', 'Go']","[-0.15, 0.5]","[0.15, 0.5]",0,1,0,9,9,9,0,0,0,0,,,,,,,,,,,,,,,,,,,,,,,,,,,,,,,,,,,,,,,,,,,,,,,,,,,,,,,,,,,,,,,322.9844746250001,None,322.9844746250001,None,322.9844746250001,None,h,1,0.501183561000289,324.5204932229999,None,324.5204932229999,None,324.5204932229999,None,325.084193443,None,325.084193443,None,325.084193443,None,325.084193443,None,,,,,,,,,,,,,,,,,,,,,,,,,,,,,,,,,,,,,,,,,,,,001,129,2020_Feb_18_0931,spring_faces,3.1.5,60.010283242142414,
condition files/Stage0b_2.xlsx,0b,beta,none,g,"['h', 'g']","['Chess', 'Go']","[-0.15, 0.5]","[0.15, 0.5]",1,0,0,9,9,9,0,1,1,1,,,,,,,,,,,,,,,,,,,,,,,,,,,,,,,,,,,,,,,,,,,,,,,,,,,,,,,,,,,,,,,327.05119457599994,None,327.05119457599994,None,327.05119457599994,None,g,1,0.33786777800014534,328.587848568,None,328.587848568,None,328.587848568,None,328.9899028939999,None,328.9899028939999,None,328.9899028939999,None,328.9899028939999,None,,,,,,,,,,,,,,,,,,,,,,,,,,,,,,,,,,,,,,,,,,,,001,129,2020_Feb_18_0931,spring_faces,3.1.5,60.010283242142414,
condition files/Stage0b_1.xlsx,0b,none,beta,g,"['h', 'g']","['Chess', 'Go']","[-0.15, 0.5]","[0.15, 0.5]",0,1,0,10,10,10,0,0,0,1,,,,,,,,,,,,,,,,,,,,,,,,,,,,,,,,,,,,,,,,,,,,,,,,,,,,,,,,,,,,,,,330.96816359000013,None,330.96816359000013,None,330.96816359000013,None,g,1,0.631287225000051,332.51836915800004,None,332.51836915800004,None,332.51836915800004,None,333.2014267999998,None,333.2014267999998,None,333.2014267999998,None,333.2014267999998,None,,,,,,,,,,,,,,,,,,,,,,,,,,,,,,,,,,,,,,,,,,,,001,129,2020_Feb_18_0931,spring_faces,3.1.5,60.010283242142414,
condition files/Stage0b_1.xlsx,0b,alpha,none,h,"['h', 'g']","['Chess', 'Go']","[-0.15, 0.5]","[0.15, 0.5]",1,0,0,10,10,10,0,1,1,0,,,,,,,,,,,,,,,,,,,,,,,,,,,,,,,,,,,,,,,,,,,,,,,,,,,,,,,,,,,,,,,335.16779264399975,None,335.16779264399975,None,335.16779264399975,None,h,1,0.5275768500000595,336.7020307949997,None,336.7020307949997,None,336.7020307949997,None,337.2865092019997,None,337.2865092019997,None,337.2865092019997,None,337.2865092019997,None,,,,,,,,,,,,,,,,,,,,,,,,,,,,,,,,,,,,,,,,,,,,001,129,2020_Feb_18_0931,spring_faces,3.1.5,60.010283242142414,
condition files/Stage0b_2.xlsx,0b,beta,none,g,"['h', 'g']","['Chess', 'Go']","[-0.15, 0.5]","[0.15, 0.5]",1,0,0,11,11,11,0,0,0,1,,,,,,,,,,,,,,,,,,,,,,,,,,,,,,,,,,,,,,,,,,,,,,,,,,,,,,,,,,,,,,,339.26780247099987,None,339.26780247099987,None,339.26780247099987,None,g,1,0.6521087360001729,340.8015534850001,None,340.8015534850001,None,340.8015534850001,None,341.5182181559999,None,341.5182181559999,None,341.5182181559999,None,341.5182181559999,None,,,,,,,,,,,,,,,,,,,,,,,,,,,,,,,,,,,,,,,,,,,,001,129,2020_Feb_18_0931,spring_faces,3.1.5,60.010283242142414,
condition files/Stage0b_2.xlsx,0b,none,alpha,h,"['h', 'g']","['Chess', 'Go']","[-0.15, 0.5]","[0.15, 0.5]",0,1,0,11,11,11,0,1,1,0,,,,,,,,,,,,,,,,,,,,,,,,,,,,,,,,,,,,,,,,,,,,,,,,,,,,,,,,,,,,,,,343.4841810939997,None,343.4841810939997,None,343.4841810939997,None,h,1,0.6247610569998869,345.0208927149997,None,345.0208927149997,None,345.0208927149997,None,345.7058357599999,None,345.7058357599999,None,345.7058357599999,None,345.7058357599999,None,,,,,,,,,,,,,,,,,,,,,,,,,,,,,,,,,,,,,,,,,,,,001,129,2020_Feb_18_0931,spring_faces,3.1.5,60.010283242142414,
condition files/Stage0c_1.xlsx,0c,phi,beta,g,"['h', 'g']","['Chess', 'Go']","[-0.15, 0.5]","[0.15, 0.5]",1,1,0,12,12,12,0,0,0,3,,,,,,,,,,,,,,,,,,,,,,,,,,,,,,,,,,,,,,,,,,,,,,,,,,,,,,,,,,,,,,,347.6848075140001,None,347.6848075140001,None,347.6848075140001,None,g,1,1.9476221259997146,349.2180424469998,None,349.2180424469998,None,349.2180424469998,None,351.2182122720001,None,351.2182122720001,None,351.2182122720001,None,351.2182122720001,None,,,,,,,,,,,,,,,,,,,,,,,,,,,,,,,,,,,,,,,,,,,,001,129,2020_Feb_18_0931,spring_faces,3.1.5,60.010283242142414,
condition files/Stage0c_1.xlsx,0c,alpha,phi,h,"['h', 'g']","['Chess', 'Go']","[-0.15, 0.5]","[0.15, 0.5]",1,1,0,12,12,12,0,1,1,1,,,,,,,,,,,,,,,,,,,,,,,,,,,,,,,,,,,,,,,,,,,,,,,,,,,,,,,,,,,,,,,353.18454680900004,None,353.18454680900004,None,353.18454680900004,None,h,1,2.015556454000034,354.7180980979997,None,354.7180980979997,None,354.7180980979997,None,356.78390801099977,None,356.78390801099977,None,356.78390801099977,None,356.78390801099977,None,,,,,,,,,,,,,,,,,,,,,,,,,,,,,,,,,,,,,,,,,,,,001,129,2020_Feb_18_0931,spring_faces,3.1.5,60.010283242142414,
condition files/Stage0c_1.xlsx,0c,theta,alpha,h,"['h', 'g']","['Chess', 'Go']","[-0.15, 0.5]","[0.15, 0.5]",1,1,0,12,12,12,0,2,2,0,,,,,,,,,,,,,,,,,,,,,,,,,,,,,,,,,,,,,,,,,,,,,,,,,,,,,,,,,,,,,,,358.75128692299995,None,358.75128692299995,None,358.75128692299995,None,g,0,1.137079859000096,360.28458047699996,None,360.28458047699996,None,360.28458047699996,None,361.47073851000005,None,361.47073851000005,None,361.47073851000005,None,361.47073851000005,None,,,,,,,,,,,,,,,,,,,,,,,,,,,,,,,,,,,,,,,,,,,,001,129,2020_Feb_18_0931,spring_faces,3.1.5,60.010283242142414,
condition files/Stage0c_1.xlsx,0c,beta,theta,g,"['h', 'g']","['Chess', 'Go']","[-0.15, 0.5]","[0.15, 0.5]",1,1,0,12,12,12,0,3,3,2,,,,,,,,,,,,,,,,,,,,,,,,,,,,,,,,,,,,,,,,,,,,,,,,,,,,,,,,,,,,,,,363.468131437,None,363.468131437,None,363.468131437,None,g,1,0.8530527409998285,364.9845999219997,None,364.9845999219997,None,364.9845999219997,None,365.9014544219999,None,365.9014544219999,None,365.9014544219999,None,365.9014544219999,None,,,,,,,,,,,,,,,,,,,,,,,,,,,,,,,,,,,,,,,,,,,,001,129,2020_Feb_18_0931,spring_faces,3.1.5,60.010283242142414,
condition files/Stage0c_2.xlsx,0c,phi,alpha,h,"['h', 'g']","['Chess', 'Go']","[-0.15, 0.5]","[0.15, 0.5]",1,1,0,13,13,13,0,0,0,1,,,,,,,,,,,,,,,,,,,,,,,,,,,,,,,,,,,,,,,,,,,,,,,,,,,,,,,,,,,,,,,367.96839589,None,367.96839589,None,367.96839589,None,g,0,0.8842007480002394,369.41741801399985,None,369.41741801399985,None,369.41741801399985,None,370.35143496,None,370.35143496,None,370.35143496,None,370.35143496,None,,,,,,,,,,,,,,,,,,,,,,,,,,,,,,,,,,,,,,,,,,,,001,129,2020_Feb_18_0931,spring_faces,3.1.5,60.010283242142414,
condition files/Stage0c_2.xlsx,0c,alpha,theta,h,"['h', 'g']","['Chess', 'Go']","[-0.15, 0.5]","[0.15, 0.5]",1,1,0,13,13,13,0,1,1,0,,,,,,,,,,,,,,,,,,,,,,,,,,,,,,,,,,,,,,,,,,,,,,,,,,,,,,,,,,,,,,,372.318361783,None,372.318361783,None,372.318361783,None,h,1,0.6906229950000125,373.85109598200006,None,373.85109598200006,None,373.85109598200006,None,374.5862331479998,None,374.5862331479998,None,374.5862331479998,None,374.5862331479998,None,,,,,,,,,,,,,,,,,,,,,,,,,,,,,,,,,,,,,,,,,,,,001,129,2020_Feb_18_0931,spring_faces,3.1.5,60.010283242142414,
condition files/Stage0c_2.xlsx,0c,theta,beta,g,"['h', 'g']","['Chess', 'Go']","[-0.15, 0.5]","[0.15, 0.5]",1,1,0,13,13,13,0,2,2,2,,,,,,,,,,,,,,,,,,,,,,,,,,,,,,,,,,,,,,,,,,,,,,,,,,,,,,,,,,,,,,,376.56786705700006,None,376.56786705700006,None,376.56786705700006,None,g,1,1.0165603989999,378.101088721,None,378.101088721,None,378.101088721,None,379.1681400550001,None,379.1681400550001,None,379.1681400550001,None,379.1681400550001,None,,,,,,,,,,,,,,,,,,,,,,,,,,,,,,,,,,,,,,,,,,,,001,129,2020_Feb_18_0931,spring_faces,3.1.5,60.010283242142414,
condition files/Stage0c_2.xlsx,0c,beta,phi,g,"['h', 'g']","['Chess', 'Go']","[-0.15, 0.5]","[0.15, 0.5]",1,1,0,13,13,13,0,3,3,3,,,,,,,,,,,,,,,,,,,,,,,,,,,,,,,,,,,,,,,,,,,,,,,,,,,,,,,,,,,,,,,381.13412630599987,None,381.13412630599987,None,381.13412630599987,None,g,1,0.9302379060000021,382.6674199559998,None,382.6674199559998,None,382.6674199559998,None,383.63608739799975,None,383.63608739799975,None,383.63608739799975,None,383.63608739799975,None,,,,,,,,,,,,,,,,,,,,,,,,,,,,,,,,,,,,,,,,,,,,001,129,2020_Feb_18_0931,spring_faces,3.1.5,60.010283242142414,
condition files/Stage0c_1.xlsx,0c,alpha,phi,h,"['h', 'g']","['Chess', 'Go']","[-0.15, 0.5]","[0.15, 0.5]",1,1,0,14,14,14,0,0,0,1,,,,,,,,,,,,,,,,,,,,,,,,,,,,,,,,,,,,,,,,,,,,,,,,,,,,,,,,,,,,,,,385.6345195089998,None,385.6345195089998,None,385.6345195089998,None,h,1,0.7657377969999288,387.16792340699976,None,387.16792340699976,None,387.16792340699976,None,387.9842430939998,None,387.9842430939998,None,387.9842430939998,None,387.9842430939998,None,,,,,,,,,,,,,,,,,,,,,,,,,,,,,,,,,,,,,,,,,,,,001,129,2020_Feb_18_0931,spring_faces,3.1.5,60.010283242142414,
condition files/Stage0c_1.xlsx,0c,beta,theta,g,"['h', 'g']","['Chess', 'Go']","[-0.15, 0.5]","[0.15, 0.5]",1,1,0,14,14,14,0,1,1,2,,,,,,,,,,,,,,,,,,,,,,,,,,,,,,,,,,,,,,,,,,,,,,,,,,,,,,,,,,,,,,,389.9515777729998,None,389.9515777729998,None,389.9515777729998,None,g,1,0.5768371760000264,391.4848879629999,None,391.4848879629999,None,391.4848879629999,None,392.11757960299974,None,392.11757960299974,None,392.11757960299974,None,392.11757960299974,None,,,,,,,,,,,,,,,,,,,,,,,,,,,,,,,,,,,,,,,,,,,,001,129,2020_Feb_18_0931,spring_faces,3.1.5,60.010283242142414,
condition files/Stage0c_1.xlsx,0c,theta,alpha,h,"['h', 'g']","['Chess', 'Go']","[-0.15, 0.5]","[0.15, 0.5]",1,1,0,14,14,14,0,2,2,0,,,,,,,,,,,,,,,,,,,,,,,,,,,,,,,,,,,,,,,,,,,,,,,,,,,,,,,,,,,,,,,394.0843076269998,None,394.0843076269998,None,394.0843076269998,None,h,1,0.6513271369999529,395.61828555600005,None,395.61828555600005,None,395.61828555600005,None,396.33453479499985,None,396.33453479499985,None,396.33453479499985,None,396.33453479499985,None,,,,,,,,,,,,,,,,,,,,,,,,,,,,,,,,,,,,,,,,,,,,001,129,2020_Feb_18_0931,spring_faces,3.1.5,60.010283242142414,
condition files/Stage0c_1.xlsx,0c,phi,beta,g,"['h', 'g']","['Chess', 'Go']","[-0.15, 0.5]","[0.15, 0.5]",1,1,0,14,14,14,0,3,3,3,,,,,,,,,,,,,,,,,,,,,,,,,,,,,,,,,,,,,,,,,,,,,,,,,,,,,,,,,,,,,,,398.3012958009999,None,398.3012958009999,None,398.3012958009999,None,g,1,0.7070081050001136,399.8346902399999,None,399.8346902399999,None,399.8346902399999,None,400.60114722399976,None,400.60114722399976,None,400.60114722399976,None,400.60114722399976,None,,,,,,,,,,,,,,,,,,,,,,,,,,,,,,,,,,,,,,,,,,,,001,129,2020_Feb_18_0931,spring_faces,3.1.5,60.010283242142414,
condition files/Stage0c_2.xlsx,0c,phi,alpha,h,"['h', 'g']","['Chess', 'Go']","[-0.15, 0.5]","[0.15, 0.5]",1,1,0,15,15,15,0,0,0,1,,,,,,,,,,,,,,,,,,,,,,,,,,,,,,,,,,,,,,,,,,,,,,,,,,,,,,,,,,,,,,,402.5842728089997,None,402.5842728089997,None,402.5842728089997,None,h,1,0.7436440380001841,404.1180913190001,None,404.1180913190001,None,404.1180913190001,None,404.91808297399984,None,404.91808297399984,None,404.91808297399984,None,404.91808297399984,None,,,,,,,,,,,,,,,,,,,,,,,,,,,,,,,,,,,,,,,,,,,,001,129,2020_Feb_18_0931,spring_faces,3.1.5,60.010283242142414,
condition files/Stage0c_2.xlsx,0c,beta,phi,g,"['h', 'g']","['Chess', 'Go']","[-0.15, 0.5]","[0.15, 0.5]",1,1,0,15,15,15,0,1,1,3,,,,,,,,,,,,,,,,,,,,,,,,,,,,,,,,,,,,,,,,,,,,,,,,,,,,,,,,,,,,,,,406.88463451100006,None,406.88463451100006,None,406.88463451100006,None,g,1,0.5717392940000536,408.417921579,None,408.417921579,None,408.417921579,None,409.0515747280001,None,409.0515747280001,None,409.0515747280001,None,409.0515747280001,None,,,,,,,,,,,,,,,,,,,,,,,,,,,,,,,,,,,,,,,,,,,,001,129,2020_Feb_18_0931,spring_faces,3.1.5,60.010283242142414,
condition files/Stage0c_2.xlsx,0c,theta,beta,g,"['h', 'g']","['Chess', 'Go']","[-0.15, 0.5]","[0.15, 0.5]",1,1,0,15,15,15,0,2,2,2,,,,,,,,,,,,,,,,,,,,,,,,,,,,,,,,,,,,,,,,,,,,,,,,,,,,,,,,,,,,,,,411.0177454159998,None,411.0177454159998,None,411.0177454159998,None,g,1,0.8703518570000597,412.55130972300003,None,412.55130972300003,None,412.55130972300003,None,413.4679632829998,None,413.4679632829998,None,413.4679632829998,None,413.4679632829998,None,,,,,,,,,,,,,,,,,,,,,,,,,,,,,,,,,,,,,,,,,,,,001,129,2020_Feb_18_0931,spring_faces,3.1.5,60.010283242142414,
condition files/Stage0c_2.xlsx,0c,alpha,theta,h,"['h', 'g']","['Chess', 'Go']","[-0.15, 0.5]","[0.15, 0.5]",1,1,0,15,15,15,0,3,3,0,,,,,,,,,,,,,,,,,,,,,,,,,,,,,,,,,,,,,,,,,,,,,,,,,,,,,,,,,,,,,,,415.45122969099975,None,415.45122969099975,None,415.45122969099975,None,g,0,0.5491874180002014,416.9844580029999,None,416.9844580029999,None,416.9844580029999,None,417.58438786299985,None,417.58438786299985,None,417.58438786299985,None,417.58438786299985,None,,,,,,,,,,,,,,,,,,,,,,,,,,,,,,,,,,,,,,,,,,,,001,129,2020_Feb_18_0931,spring_faces,3.1.5,60.010283242142414,
condition files/Stage0c_1.xlsx,0c,phi,beta,g,"['h', 'g']","['Chess', 'Go']","[-0.15, 0.5]","[0.15, 0.5]",1,1,0,16,16,16,0,0,0,3,,,,,,,,,,,,,,,,,,,,,,,,,,,,,,,,,,,,,,,,,,,,,,,,,,,,,,,,,,,,,,,419.5675053519999,None,419.5675053519999,None,419.5675053519999,None,g,1,0.8641791979998743,421.10148174000005,None,421.10148174000005,None,421.10148174000005,None,422.0179359509998,None,422.0179359509998,None,422.0179359509998,None,422.0179359509998,None,,,,,,,,,,,,,,,,,,,,,,,,,,,,,,,,,,,,,,,,,,,,001,129,2020_Feb_18_0931,spring_faces,3.1.5,60.010283242142414,
condition files/Stage0c_1.xlsx,0c,beta,theta,g,"['h', 'g']","['Chess', 'Go']","[-0.15, 0.5]","[0.15, 0.5]",1,1,0,16,16,16,0,1,1,2,,,,,,,,,,,,,,,,,,,,,,,,,,,,,,,,,,,,,,,,,,,,,,,,,,,,,,,,,,,,,,,423.98448156099994,None,423.98448156099994,None,423.98448156099994,None,g,1,0.6072472720002224,425.51847059600004,None,425.51847059600004,None,425.51847059600004,None,426.1709648000001,None,426.1709648000001,None,426.1709648000001,None,426.1709648000001,None,,,,,,,,,,,,,,,,,,,,,,,,,,,,,,,,,,,,,,,,,,,,001,129,2020_Feb_18_0931,spring_faces,3.1.5,60.010283242142414,
condition files/Stage0c_1.xlsx,0c,theta,alpha,h,"['h', 'g']","['Chess', 'Go']","[-0.15, 0.5]","[0.15, 0.5]",1,1,0,16,16,16,0,2,2,0,,,,,,,,,,,,,,,,,,,,,,,,,,,,,,,,,,,,,,,,,,,,,,,,,,,,,,,,,,,,,,,428.151163989,None,428.151163989,None,428.151163989,None,h,1,0.6327113900001677,429.68494322900005,None,429.68494322900005,None,429.68494322900005,None,430.3678108250001,None,430.3678108250001,None,430.3678108250001,None,430.3678108250001,None,,,,,,,,,,,,,,,,,,,,,,,,,,,,,,,,,,,,,,,,,,,,001,129,2020_Feb_18_0931,spring_faces,3.1.5,60.010283242142414,
condition files/Stage0c_1.xlsx,0c,alpha,phi,h,"['h', 'g']","['Chess', 'Go']","[-0.15, 0.5]","[0.15, 0.5]",1,1,0,16,16,16,0,3,3,1,,,,,,,,,,,,,,,,,,,,,,,,,,,,,,,,,,,,,,,,,,,,,,,,,,,,,,,,,,,,,,,432.3345015770001,None,432.3345015770001,None,432.3345015770001,None,h,1,0.7213430439996955,433.86831723199975,None,433.86831723199975,None,433.86831723199975,None,434.634472922,None,434.634472922,None,434.634472922,None,434.634472922,None,,,,,,,,,,,,,,,,,,,,,,,,,,,,,,,,,,,,,,,,,,,,001,129,2020_Feb_18_0931,spring_faces,3.1.5,60.010283242142414,
condition files/Stage0c_2.xlsx,0c,alpha,theta,h,"['h', 'g']","['Chess', 'Go']","[-0.15, 0.5]","[0.15, 0.5]",1,1,0,17,17,17,0,0,0,0,,,,,,,,,,,,,,,,,,,,,,,,,,,,,,,,,,,,,,,,,,,,,,,,,,,,,,,,,,,,,,,436.6348986150001,None,436.6348986150001,None,436.6348986150001,None,h,1,0.6136200539999663,438.168077455,None,438.168077455,None,438.168077455,None,438.8208648330001,None,438.8208648330001,None,438.8208648330001,None,438.8208648330001,None,,,,,,,,,,,,,,,,,,,,,,,,,,,,,,,,,,,,,,,,,,,,001,129,2020_Feb_18_0931,spring_faces,3.1.5,60.010283242142414,
condition files/Stage0c_2.xlsx,0c,theta,beta,g,"['h', 'g']","['Chess', 'Go']","[-0.15, 0.5]","[0.15, 0.5]",1,1,0,17,17,17,0,1,1,2,,,,,,,,,,,,,,,,,,,,,,,,,,,,,,,,,,,,,,,,,,,,,,,,,,,,,,,,,,,,,,,440.8012732779998,None,440.8012732779998,None,440.8012732779998,None,g,1,0.5747976640000161,442.334923332,None,442.334923332,None,442.334923332,None,442.9681916479999,None,442.9681916479999,None,442.9681916479999,None,442.9681916479999,None,,,,,,,,,,,,,,,,,,,,,,,,,,,,,,,,,,,,,,,,,,,,001,129,2020_Feb_18_0931,spring_faces,3.1.5,60.010283242142414,
condition files/Stage0c_2.xlsx,0c,beta,phi,g,"['h', 'g']","['Chess', 'Go']","[-0.15, 0.5]","[0.15, 0.5]",1,1,0,17,17,17,0,2,2,3,,,,,,,,,,,,,,,,,,,,,,,,,,,,,,,,,,,,,,,,,,,,,,,,,,,,,,,,,,,,,,,444.9345190099998,None,444.9345190099998,None,444.9345190099998,None,g,1,0.6335709899999529,446.46805251299975,None,446.46805251299975,None,446.46805251299975,None,447.1515417679998,None,447.1515417679998,None,447.1515417679998,None,447.1515417679998,None,,,,,,,,,,,,,,,,,,,,,,,,,,,,,,,,,,,,,,,,,,,,001,129,2020_Feb_18_0931,spring_faces,3.1.5,60.010283242142414,
condition files/Stage0c_2.xlsx,0c,phi,alpha,h,"['h', 'g']","['Chess', 'Go']","[-0.15, 0.5]","[0.15, 0.5]",1,1,0,17,17,17,0,3,3,1,,,,,,,,,,,,,,,,,,,,,,,,,,,,,,,,,,,,,,,,,,,,,,,,,,,,,,,,,,,,,,,449.13419389699993,None,449.13419389699993,None,449.13419389699993,None,g,0,0.785485606000293,450.66816697700006,None,450.66816697700006,None,450.66816697700006,None,451.51776016799977,None,451.51776016799977,None,451.51776016799977,None,451.51776016799977,None,,,,,,,,,,,,,,,,,,,,,,,,,,,,,,,,,,,,,,,,,,,,001,129,2020_Feb_18_0931,spring_faces,3.1.5,60.010283242142414,
,,,,,,,,,,,,,,,,,,,,,,,,,,,,,,,,,,,,,,,,,,,,,,,,,,,,,,,,,,,,,,,,,,,,,,,,,,,,,,,,,,,,,,,,,,,,,,,,,,,,,,,,453.501664034,None,space,0.9204391610001039,458.5012346039998,None,,,,,,,,,,,,,,,,,,,,,,,,,,,,,,,,,,,,,,001,129,2020_Feb_18_0931,spring_faces,3.1.5,60.010283242142414,
condition files/Stage1_1.xlsx,,T2,B2,m,"['c', 'm']","['Clue', 'Monopoly']","[-0.15, 0.5]","[0.15, 0.5]",1,1,,,,,,,,,0,0,0,0,0,0,0,3,,,,,,,,,,,,,,,,,,,,,,,,,,,,,,,,,,,,,,,,,,,,,,,,,,,,,,,459.48447798899997,None,459.48447798899997,None,459.48447798899997,None,c,0,1.4921538159996999,461.017582553,None,461.017582553,None,461.017582553,None,462.58542348799983,None,462.58542348799983,None,462.58542348799983,None,462.58542348799983,None,,,,,,,458.5012346039998,None,,,,,,,,,,,,,,,,,,,,,,,,,,,,,,,,,,,,001,129,2020_Feb_18_0931,spring_faces,3.1.5,60.010283242142414,
condition files/Stage1_1.xlsx,,T1,B1,c,"['c', 'm']","['Clue', 'Monopoly']","[-0.15, 0.5]","[0.15, 0.5]",1,1,,,,,,,,,0,0,0,0,0,1,1,0,,,,,,,,,,,,,,,,,,,,,,,,,,,,,,,,,,,,,,,,,,,,,,,,,,,,,,,464.5339605879999,None,464.5339605879999,None,464.5339605879999,None,c,1,0.7102991140000086,466.15143136300003,None,466.15143136300003,None,466.15143136300003,None,466.93470883500004,None,466.93470883500004,None,466.93470883500004,None,466.93470883500004,None,,,,,,,,,,,,,,,,,,,,,,,,,,,,,,,,,,,,,,,,,,,,001,129,2020_Feb_18_0931,spring_faces,3.1.5,60.010283242142414,
condition files/Stage1_1.xlsx,,B4,T4,m,"['c', 'm']","['Clue', 'Monopoly']","[-0.15, 0.5]","[0.15, 0.5]",1,1,,,,,,,,,0,0,0,0,0,2,2,7,,,,,,,,,,,,,,,,,,,,,,,,,,,,,,,,,,,,,,,,,,,,,,,,,,,,,,,468.884012986,None,468.884012986,None,468.884012986,None,m,1,0.6829036600001928,470.434748357,None,470.434748357,None,470.434748357,None,471.18448430499984,None,471.18448430499984,None,471.18448430499984,None,471.18448430499984,None,,,,,,,,,,,,,,,,,,,,,,,,,,,,,,,,,,,,,,,,,,,,001,129,2020_Feb_18_0931,spring_faces,3.1.5,60.010283242142414,
condition files/Stage1_1.xlsx,,B2,T1,m,"['c', 'm']","['Clue', 'Monopoly']","[-0.15, 0.5]","[0.15, 0.5]",1,1,,,,,,,,,0,0,0,0,0,3,3,2,,,,,,,,,,,,,,,,,,,,,,,,,,,,,,,,,,,,,,,,,,,,,,,,,,,,,,,473.1345183589997,None,473.1345183589997,None,473.1345183589997,None,m,1,1.2014884179998262,474.6681811220001,None,474.6681811220001,None,474.6681811220001,None,475.934826013,None,475.934826013,None,475.934826013,None,475.934826013,None,,,,,,,,,,,,,,,,,,,,,,,,,,,,,,,,,,,,,,,,,,,,001,129,2020_Feb_18_0931,spring_faces,3.1.5,60.010283242142414,
condition files/Stage1_1.xlsx,,T3,B4,c,"['c', 'm']","['Clue', 'Monopoly']","[-0.15, 0.5]","[0.15, 0.5]",1,1,,,,,,,,,0,0,0,0,0,4,4,5,,,,,,,,,,,,,,,,,,,,,,,,,,,,,,,,,,,,,,,,,,,,,,,,,,,,,,,477.90101535899976,None,477.90101535899976,None,477.90101535899976,None,c,1,0.5937891140001739,479.4358359419998,None,479.4358359419998,None,479.4358359419998,None,480.1019797499998,None,480.1019797499998,None,480.1019797499998,None,480.1019797499998,None,,,,,,,,,,,,,,,,,,,,,,,,,,,,,,,,,,,,,,,,,,,,001,129,2020_Feb_18_0931,spring_faces,3.1.5,60.010283242142414,
condition files/Stage1_1.xlsx,,B1,T2,c,"['c', 'm']","['Clue', 'Monopoly']","[-0.15, 0.5]","[0.15, 0.5]",1,1,,,,,,,,,0,0,0,0,0,5,5,1,,,,,,,,,,,,,,,,,,,,,,,,,,,,,,,,,,,,,,,,,,,,,,,,,,,,,,,482.05105551999986,None,482.05105551999986,None,482.05105551999986,None,m,0,0.7808715789997223,483.60077412600003,None,483.60077412600003,None,483.60077412600003,None,484.4347409039997,None,484.4347409039997,None,484.4347409039997,None,484.4347409039997,None,,,,,,,,,,,,,,,,,,,,,,,,,,,,,,,,,,,,,,,,,,,,001,129,2020_Feb_18_0931,spring_faces,3.1.5,60.010283242142414,
condition files/Stage1_1.xlsx,,B3,T3,c,"['c', 'm']","['Clue', 'Monopoly']","[-0.15, 0.5]","[0.15, 0.5]",1,1,,,,,,,,,0,0,0,0,0,6,6,4,,,,,,,,,,,,,,,,,,,,,,,,,,,,,,,,,,,,,,,,,,,,,,,,,,,,,,,486.400791731,None,486.400791731,None,486.400791731,None,c,1,0.5895752760002324,487.9361632549999,None,487.9361632549999,None,487.9361632549999,None,488.5852380839997,None,488.5852380839997,None,488.5852380839997,None,488.5852380839997,None,,,,,,,,,,,,,,,,,,,,,,,,,,,,,,,,,,,,,,,,,,,,001,129,2020_Feb_18_0931,spring_faces,3.1.5,60.010283242142414,
condition files/Stage1_1.xlsx,,T4,B3,m,"['c', 'm']","['Clue', 'Monopoly']","[-0.15, 0.5]","[0.15, 0.5]",1,1,,,,,,,,,0,0,0,0,0,7,7,6,,,,,,,,,,,,,,,,,,,,,,,,,,,,,,,,,,,,,,,,,,,,,,,,,,,,,,,490.55076838700006,None,490.55076838700006,None,490.55076838700006,None,m,1,1.7030321840002216,492.10264385699975,None,492.10264385699975,None,492.10264385699975,None,493.88487652799995,None,493.88487652799995,None,493.88487652799995,None,493.88487652799995,None,,,,,,,,,,,,,,,,,,,,,,,,,,,,,,,,,,,,,,,,,,,,001,129,2020_Feb_18_0931,spring_faces,3.1.5,60.010283242142414,
condition files/Stage1_2.xlsx,,T4,B4,m,"['c', 'm']","['Clue', 'Monopoly']","[-0.15, 0.5]","[0.15, 0.5]",1,1,,,,,,,,,0,1,1,1,0,0,0,7,,,,,,,,,,,,,,,,,,,,,,,,,,,,,,,,,,,,,,,,,,,,,,,,,,,,,,,495.8515991039999,None,495.8515991039999,None,495.8515991039999,None,c,0,1.140994220000266,497.4007346929998,None,497.4007346929998,None,497.4007346929998,None,498.60069013700013,None,498.60069013700013,None,498.60069013700013,None,498.60069013700013,None,,,,,,,,,,,,,,,,,,,,,,,,,,,,,,,,,,,,,,,,,,,,001,129,2020_Feb_18_0931,spring_faces,3.1.5,60.010283242142414,
condition files/Stage1_2.xlsx,,B1,T1,c,"['c', 'm']","['Clue', 'Monopoly']","[-0.15, 0.5]","[0.15, 0.5]",1,1,,,,,,,,,0,1,1,1,0,1,1,0,,,,,,,,,,,,,,,,,,,,,,,,,,,,,,,,,,,,,,,,,,,,,,,,,,,,,,,500.5671385679998,None,500.5671385679998,None,500.5671385679998,None,m,0,0.6636337740001181,502.1179517989999,None,502.1179517989999,None,502.1179517989999,None,502.83593151700006,None,502.83593151700006,None,502.83593151700006,None,502.83593151700006,None,,,,,,,,,,,,,,,,,,,,,,,,,,,,,,,,,,,,,,,,,,,,001,129,2020_Feb_18_0931,spring_faces,3.1.5,60.010283242142414,
condition files/Stage1_2.xlsx,,T1,B2,m,"['c', 'm']","['Clue', 'Monopoly']","[-0.15, 0.5]","[0.15, 0.5]",1,1,,,,,,,,,0,1,1,1,0,2,2,2,,,,,,,,,,,,,,,,,,,,,,,,,,,,,,,,,,,,,,,,,,,,,,,,,,,,,,,504.8009341510001,None,504.8009341510001,None,504.8009341510001,None,m,1,0.5908471160000772,506.3348987559998,None,506.3348987559998,None,506.3348987559998,None,506.9868831149997,None,506.9868831149997,None,506.9868831149997,None,506.9868831149997,None,,,,,,,,,,,,,,,,,,,,,,,,,,,,,,,,,,,,,,,,,,,,001,129,2020_Feb_18_0931,spring_faces,3.1.5,60.010283242142414,
condition files/Stage1_2.xlsx,,B3,T4,m,"['c', 'm']","['Clue', 'Monopoly']","[-0.15, 0.5]","[0.15, 0.5]",1,1,,,,,,,,,0,1,1,1,0,3,3,6,,,,,,,,,,,,,,,,,,,,,,,,,,,,,,,,,,,,,,,,,,,,,,,,,,,,,,,508.95122244000004,None,508.95122244000004,None,508.95122244000004,None,c,0,0.8247463550001157,510.50098335099983,None,510.50098335099983,None,510.50098335099983,None,511.38427448799985,None,511.38427448799985,None,511.38427448799985,None,511.38427448799985,None,,,,,,,,,,,,,,,,,,,,,,,,,,,,,,,,,,,,,,,,,,,,001,129,2020_Feb_18_0931,spring_faces,3.1.5,60.010283242142414,
condition files/Stage1_2.xlsx,,B2,T2,m,"['c', 'm']","['Clue', 'Monopoly']","[-0.15, 0.5]","[0.15, 0.5]",1,1,,,,,,,,,0,1,1,1,0,4,4,3,,,,,,,,,,,,,,,,,,,,,,,,,,,,,,,,,,,,,,,,,,,,,,,,,,,,,,,513.3510974159999,None,513.3510974159999,None,513.3510974159999,None,c,0,0.8713502509999671,514.886385795,None,514.886385795,None,514.886385795,None,515.8178182269999,None,515.8178182269999,None,515.8178182269999,None,515.8178182269999,None,,,,,,,,,,,,,,,,,,,,,,,,,,,,,,,,,,,,,,,,,,,,001,129,2020_Feb_18_0931,spring_faces,3.1.5,60.010283242142414,
condition files/Stage1_2.xlsx,,T3,B3,c,"['c', 'm']","['Clue', 'Monopoly']","[-0.15, 0.5]","[0.15, 0.5]",1,1,,,,,,,,,0,1,1,1,0,5,5,4,,,,,,,,,,,,,,,,,,,,,,,,,,,,,,,,,,,,,,,,,,,,,,,,,,,,,,,517.7843878479998,None,517.7843878479998,None,517.7843878479998,None,m,0,0.870934452000256,519.3187443679999,None,519.3187443679999,None,519.3187443679999,None,520.2525995799997,None,520.2525995799997,None,520.2525995799997,None,520.2525995799997,None,,,,,,,,,,,,,,,,,,,,,,,,,,,,,,,,,,,,,,,,,,,,001,129,2020_Feb_18_0931,spring_faces,3.1.5,60.010283242142414,
condition files/Stage1_2.xlsx,,B4,T3,c,"['c', 'm']","['Clue', 'Monopoly']","[-0.15, 0.5]","[0.15, 0.5]",1,1,,,,,,,,,0,1,1,1,0,6,6,5,,,,,,,,,,,,,,,,,,,,,,,,,,,,,,,,,,,,,,,,,,,,,,,,,,,,,,,522.2176824379999,None,522.2176824379999,None,522.2176824379999,None,m,0,0.5342901660001189,523.7513405649997,None,523.7513405649997,None,523.7513405649997,None,524.3507759999998,None,524.3507759999998,None,524.3507759999998,None,524.3507759999998,None,,,,,,,,,,,,,,,,,,,,,,,,,,,,,,,,,,,,,,,,,,,,001,129,2020_Feb_18_0931,spring_faces,3.1.5,60.010283242142414,
condition files/Stage1_2.xlsx,,T2,B1,c,"['c', 'm']","['Clue', 'Monopoly']","[-0.15, 0.5]","[0.15, 0.5]",1,1,,,,,,,,,0,1,1,1,0,7,7,1,,,,,,,,,,,,,,,,,,,,,,,,,,,,,,,,,,,,,,,,,,,,,,,,,,,,,,,526.317331745,None,526.317331745,None,526.317331745,None,c,1,0.881203646999893,527.8524659589998,None,527.8524659589998,None,527.8524659589998,None,528.7849869510001,None,528.7849869510001,None,528.7849869510001,None,528.7849869510001,None,,,,,,,,,,,,,,,,,,,,,,,,,,,,,,,,,,,,,,,,,,,,001,129,2020_Feb_18_0931,spring_faces,3.1.5,60.010283242142414,
condition files/Stage1_1.xlsx,,B2,T1,m,"['c', 'm']","['Clue', 'Monopoly']","[-0.15, 0.5]","[0.15, 0.5]",1,1,,,,,,,,,0,2,2,2,0,0,0,2,,,,,,,,,,,,,,,,,,,,,,,,,,,,,,,,,,,,,,,,,,,,,,,,,,,,,,,530.7681962249999,None,530.7681962249999,None,530.7681962249999,None,c,0,0.6240904040000714,532.301654852,None,532.301654852,None,532.301654852,None,532.984735124,None,532.984735124,None,532.984735124,None,532.984735124,None,,,,,,,,,,,,,,,,,,,,,,,,,,,,,,,,,,,,,,,,,,,,001,129,2020_Feb_18_0931,spring_faces,3.1.5,60.010283242142414,
condition files/Stage1_1.xlsx,,T3,B4,c,"['c', 'm']","['Clue', 'Monopoly']","[-0.15, 0.5]","[0.15, 0.5]",1,1,,,,,,,,,0,2,2,2,0,1,1,5,,,,,,,,,,,,,,,,,,,,,,,,,,,,,,,,,,,,,,,,,,,,,,,,,,,,,,,534.9511785129998,None,534.9511785129998,None,534.9511785129998,None,m,0,1.5761807749995569,536.4855578379997,None,536.4855578379997,None,536.4855578379997,None,538.1347220829998,None,538.1347220829998,None,538.1347220829998,None,538.1347220829998,None,,,,,,,,,,,,,,,,,,,,,,,,,,,,,,,,,,,,,,,,,,,,001,129,2020_Feb_18_0931,spring_faces,3.1.5,60.010283242142414,
condition files/Stage1_1.xlsx,,T4,B3,m,"['c', 'm']","['Clue', 'Monopoly']","[-0.15, 0.5]","[0.15, 0.5]",1,1,,,,,,,,,0,2,2,2,0,2,2,6,,,,,,,,,,,,,,,,,,,,,,,,,,,,,,,,,,,,,,,,,,,,,,,,,,,,,,,540.0847389269998,None,540.0847389269998,None,540.0847389269998,None,c,0,0.6831447829999888,541.6345120299998,None,541.6345120299998,None,541.6345120299998,None,542.3847679689998,None,542.3847679689998,None,542.3847679689998,None,542.3847679689998,None,,,,,,,,,,,,,,,,,,,,,,,,,,,,,,,,,,,,,,,,,,,,001,129,2020_Feb_18_0931,spring_faces,3.1.5,60.010283242142414,
condition files/Stage1_1.xlsx,,B3,T3,c,"['c', 'm']","['Clue', 'Monopoly']","[-0.15, 0.5]","[0.15, 0.5]",1,1,,,,,,,,,0,2,2,2,0,3,3,4,,,,,,,,,,,,,,,,,,,,,,,,,,,,,,,,,,,,,,,,,,,,,,,,,,,,,,,544.3346801389998,None,544.3346801389998,None,544.3346801389998,None,c,1,0.9769727120001335,545.8847553800001,None,545.8847553800001,None,545.8847553800001,None,546.9194917599998,None,546.9194917599998,None,546.9194917599998,None,546.9194917599998,None,,,,,,,,,,,,,,,,,,,,,,,,,,,,,,,,,,,,,,,,,,,,001,129,2020_Feb_18_0931,spring_faces,3.1.5,60.010283242142414,
condition files/Stage1_1.xlsx,,T2,B2,m,"['c', 'm']","['Clue', 'Monopoly']","[-0.15, 0.5]","[0.15, 0.5]",1,1,,,,,,,,,0,2,2,2,0,4,4,3,,,,,,,,,,,,,,,,,,,,,,,,,,,,,,,,,,,,,,,,,,,,,,,,,,,,,,,548.8840333809999,None,548.8840333809999,None,548.8840333809999,None,c,0,0.5875943189998907,550.4340685869997,None,550.4340685869997,None,550.4340685869997,None,551.1015181799999,None,551.1015181799999,None,551.1015181799999,None,551.1015181799999,None,,,,,,,,,,,,,,,,,,,,,,,,,,,,,,,,,,,,,,,,,,,,001,129,2020_Feb_18_0931,spring_faces,3.1.5,60.010283242142414,
condition files/Stage1_1.xlsx,,T1,B1,c,"['c', 'm']","['Clue', 'Monopoly']","[-0.15, 0.5]","[0.15, 0.5]",1,1,,,,,,,,,0,2,2,2,0,5,5,0,,,,,,,,,,,,,,,,,,,,,,,,,,,,,,,,,,,,,,,,,,,,,,,,,,,,,,,553.0511431569998,None,553.0511431569998,None,553.0511431569998,None,m,0,0.7404145890000109,554.6013042979998,None,554.6013042979998,None,554.6013042979998,None,555.4020668009998,None,555.4020668009998,None,555.4020668009998,None,555.4020668009998,None,,,,,,,,,,,,,,,,,,,,,,,,,,,,,,,,,,,,,,,,,,,,001,129,2020_Feb_18_0931,spring_faces,3.1.5,60.010283242142414,
condition files/Stage1_1.xlsx,,B4,T4,m,"['c', 'm']","['Clue', 'Monopoly']","[-0.15, 0.5]","[0.15, 0.5]",1,1,,,,,,,,,0,2,2,2,0,6,6,7,,,,,,,,,,,,,,,,,,,,,,,,,,,,,,,,,,,,,,,,,,,,,,,,,,,,,,,557.3676018309998,None,557.3676018309998,None,557.3676018309998,None,c,0,0.7108756180000455,558.90276154,None,558.90276154,None,558.90276154,None,559.6851084559999,None,559.6851084559999,None,559.6851084559999,None,559.6851084559999,None,,,,,,,,,,,,,,,,,,,,,,,,,,,,,,,,,,,,,,,,,,,,001,129,2020_Feb_18_0931,spring_faces,3.1.5,60.010283242142414,
condition files/Stage1_1.xlsx,,B1,T2,c,"['c', 'm']","['Clue', 'Monopoly']","[-0.15, 0.5]","[0.15, 0.5]",1,1,,,,,,,,,0,2,2,2,0,7,7,1,,,,,,,,,,,,,,,,,,,,,,,,,,,,,,,,,,,,,,,,,,,,,,,,,,,,,,,561.634823585,None,561.634823585,None,561.634823585,None,c,1,0.6032002160000047,563.170486686,None,563.170486686,None,563.170486686,None,563.8364093229998,None,563.8364093229998,None,563.8364093229998,None,563.8364093229998,None,,,,,,,,,,,,,,,,,,,,,,,,,,,,,,,,,,,,,,,,,,,,001,129,2020_Feb_18_0931,spring_faces,3.1.5,60.010283242142414,
condition files/Stage1_2.xlsx,,B2,T2,m,"['c', 'm']","['Clue', 'Monopoly']","[-0.15, 0.5]","[0.15, 0.5]",1,1,,,,,,,,,0,3,3,3,0,0,0,3,,,,,,,,,,,,,,,,,,,,,,,,,,,,,,,,,,,,,,,,,,,,,,,,,,,,,,,565.8173970180001,None,565.8173970180001,None,565.8173970180001,None,m,1,0.9006709549998959,567.3530114959999,None,567.3530114959999,None,567.3530114959999,None,568.3205275390001,None,568.3205275390001,None,568.3205275390001,None,568.3205275390001,None,,,,,,,,,,,,,,,,,,,,,,,,,,,,,,,,,,,,,,,,,,,,001,129,2020_Feb_18_0931,spring_faces,3.1.5,60.010283242142414,
condition files/Stage1_2.xlsx,,T3,B3,c,"['c', 'm']","['Clue', 'Monopoly']","[-0.15, 0.5]","[0.15, 0.5]",1,1,,,,,,,,,0,3,3,3,0,1,1,4,,,,,,,,,,,,,,,,,,,,,,,,,,,,,,,,,,,,,,,,,,,,,,,,,,,,,,,570.2845391189999,None,570.2845391189999,None,570.2845391189999,None,c,1,1.090876503000345,571.8188666870001,None,571.8188666870001,None,571.8188666870001,None,572.9841982419998,None,572.9841982419998,None,572.9841982419998,None,572.9841982419998,None,,,,,,,,,,,,,,,,,,,,,,,,,,,,,,,,,,,,,,,,,,,,001,129,2020_Feb_18_0931,spring_faces,3.1.5,60.010283242142414,
condition files/Stage1_2.xlsx,,B4,T3,c,"['c', 'm']","['Clue', 'Monopoly']","[-0.15, 0.5]","[0.15, 0.5]",1,1,,,,,,,,,0,3,3,3,0,2,2,5,,,,,,,,,,,,,,,,,,,,,,,,,,,,,,,,,,,,,,,,,,,,,,,,,,,,,,,574.9342089309998,None,574.9342089309998,None,574.9342089309998,None,m,0,1.0154067739999846,576.470239109,None,576.470239109,None,576.470239109,None,577.5516079240001,None,577.5516079240001,None,577.5516079240001,None,577.5516079240001,None,,,,,,,,,,,,,,,,,,,,,,,,,,,,,,,,,,,,,,,,,,,,001,129,2020_Feb_18_0931,spring_faces,3.1.5,60.010283242142414,
condition files/Stage1_2.xlsx,,T4,B4,m,"['c', 'm']","['Clue', 'Monopoly']","[-0.15, 0.5]","[0.15, 0.5]",1,1,,,,,,,,,0,3,3,3,0,3,3,7,,,,,,,,,,,,,,,,,,,,,,,,,,,,,,,,,,,,,,,,,,,,,,,,,,,,,,,579.5174987239998,None,579.5174987239998,None,579.5174987239998,None,c,0,0.8489521490000698,581.0526670659997,None,581.0526670659997,None,581.0526670659997,None,581.970308551,None,581.970308551,None,581.970308551,None,581.970308551,None,,,,,,,,,,,,,,,,,,,,,,,,,,,,,,,,,,,,,,,,,,,,001,129,2020_Feb_18_0931,spring_faces,3.1.5,60.010283242142414,
condition files/Stage1_2.xlsx,,B3,T4,m,"['c', 'm']","['Clue', 'Monopoly']","[-0.15, 0.5]","[0.15, 0.5]",1,1,,,,,,,,,0,3,3,3,0,4,4,6,,,,,,,,,,,,,,,,,,,,,,,,,,,,,,,,,,,,,,,,,,,,,,,,,,,,,,,583.9346330549997,None,583.9346330549997,None,583.9346330549997,None,m,1,0.5923206289999143,585.4694404839997,None,585.4694404839997,None,585.4694404839997,None,586.1182953100001,None,586.1182953100001,None,586.1182953100001,None,586.1182953100001,None,,,,,,,,,,,,,,,,,,,,,,,,,,,,,,,,,,,,,,,,,,,,001,129,2020_Feb_18_0931,spring_faces,3.1.5,60.010283242142414,
condition files/Stage1_2.xlsx,,T2,B1,c,"['c', 'm']","['Clue', 'Monopoly']","[-0.15, 0.5]","[0.15, 0.5]",1,1,,,,,,,,,0,3,3,3,0,5,5,1,,,,,,,,,,,,,,,,,,,,,,,,,,,,,,,,,,,,,,,,,,,,,,,,,,,,,,,588.0845963470001,None,588.0845963470001,None,588.0845963470001,None,c,1,0.6990183530001559,589.6346372979997,None,589.6346372979997,None,589.6346372979997,None,590.4015778769999,None,590.4015778769999,None,590.4015778769999,None,590.4015778769999,None,,,,,,,,,,,,,,,,,,,,,,,,,,,,,,,,,,,,,,,,,,,,001,129,2020_Feb_18_0931,spring_faces,3.1.5,60.010283242142414,
condition files/Stage1_2.xlsx,,T1,B2,m,"['c', 'm']","['Clue', 'Monopoly']","[-0.15, 0.5]","[0.15, 0.5]",1,1,,,,,,,,,0,3,3,3,0,6,6,2,,,,,,,,,,,,,,,,,,,,,,,,,,,,,,,,,,,,,,,,,,,,,,,,,,,,,,,592.3513746399999,None,592.3513746399999,None,592.3513746399999,None,m,1,1.1216794890001438,593.8839925960001,None,593.8839925960001,None,593.8839925960001,None,595.068202549,None,595.068202549,None,595.068202549,None,595.068202549,None,,,,,,,,,,,,,,,,,,,,,,,,,,,,,,,,,,,,,,,,,,,,001,129,2020_Feb_18_0931,spring_faces,3.1.5,60.010283242142414,
condition files/Stage1_2.xlsx,,B1,T1,c,"['c', 'm']","['Clue', 'Monopoly']","[-0.15, 0.5]","[0.15, 0.5]",1,1,,,,,,,,,0,3,3,3,0,7,7,0,,,,,,,,,,,,,,,,,,,,,,,,,,,,,,,,,,,,,,,,,,,,,,,,,,,,,,,597.0342957120001,None,597.0342957120001,None,597.0342957120001,None,c,1,0.29404304999980013,598.5676953849998,None,598.5676953849998,None,598.5676953849998,None,598.9176217529998,None,598.9176217529998,None,598.9176217529998,None,598.9176217529998,None,,,,,,,,,,,,,,,,,,,,,,,,,,,,,,,,,,,,,,,,,,,,001,129,2020_Feb_18_0931,spring_faces,3.1.5,60.010283242142414,
condition files/Stage1_1.xlsx,,B2,T1,m,"['c', 'm']","['Clue', 'Monopoly']","[-0.15, 0.5]","[0.15, 0.5]",1,1,,,,,,,,,0,4,4,4,0,0,0,2,,,,,,,,,,,,,,,,,,,,,,,,,,,,,,,,,,,,,,,,,,,,,,,,,,,,,,,600.9013304699997,None,600.9013304699997,None,600.9013304699997,None,m,1,0.2820875270003853,602.4515726599998,None,602.4515726599998,None,602.4515726599998,None,602.8013191269997,None,602.8013191269997,None,602.8013191269997,None,602.8013191269997,None,,,,,,,,,,,,,,,,,,,,,,,,,,,,,,,,,,,,,,,,,,,,001,129,2020_Feb_18_0931,spring_faces,3.1.5,60.010283242142414,
condition files/Stage1_1.xlsx,,T4,B3,m,"['c', 'm']","['Clue', 'Monopoly']","[-0.15, 0.5]","[0.15, 0.5]",1,1,,,,,,,,,0,4,4,4,0,1,1,6,,,,,,,,,,,,,,,,,,,,,,,,,,,,,,,,,,,,,,,,,,,,,,,,,,,,,,,604.7511360240001,None,604.7511360240001,None,604.7511360240001,None,c,0,0.3199509740002213,606.2857469659998,None,606.2857469659998,None,606.2857469659998,None,606.668077414,None,606.668077414,None,606.668077414,None,606.668077414,None,,,,,,,,,,,,,,,,,,,,,,,,,,,,,,,,,,,,,,,,,,,,001,129,2020_Feb_18_0931,spring_faces,3.1.5,60.010283242142414,
condition files/Stage1_1.xlsx,,B1,T2,c,"['c', 'm']","['Clue', 'Monopoly']","[-0.15, 0.5]","[0.15, 0.5]",1,1,,,,,,,,,0,4,4,4,0,2,2,1,,,,,,,,,,,,,,,,,,,,,,,,,,,,,,,,,,,,,,,,,,,,,,,,,,,,,,,608.6344130799998,None,608.6344130799998,None,608.6344130799998,None,m,0,0.3096435070001462,610.1679925019998,None,610.1679925019998,None,610.1679925019998,None,610.551519999,None,610.551519999,None,610.551519999,None,610.551519999,None,,,,,,,,,,,,,,,,,,,,,,,,,,,,,,,,,,,,,,,,,,,,001,129,2020_Feb_18_0931,spring_faces,3.1.5,60.010283242142414,
condition files/Stage1_1.xlsx,,B4,T4,m,"['c', 'm']","['Clue', 'Monopoly']","[-0.15, 0.5]","[0.15, 0.5]",1,1,,,,,,,,,0,4,4,4,0,3,3,7,,,,,,,,,,,,,,,,,,,,,,,,,,,,,,,,,,,,,,,,,,,,,,,,,,,,,,,612.5005213260001,None,612.5005213260001,None,612.5005213260001,None,m,1,0.6020075950000319,614.05165403,None,614.05165403,None,614.05165403,None,614.734784661,None,614.734784661,None,614.734784661,None,614.734784661,None,,,,,,,,,,,,,,,,,,,,,,,,,,,,,,,,,,,,,,,,,,,,001,129,2020_Feb_18_0931,spring_faces,3.1.5,60.010283242142414,
condition files/Stage1_1.xlsx,,T2,B2,m,"['c', 'm']","['Clue', 'Monopoly']","[-0.15, 0.5]","[0.15, 0.5]",1,1,,,,,,,,,0,4,4,4,0,4,4,3,,,,,,,,,,,,,,,,,,,,,,,,,,,,,,,,,,,,,,,,,,,,,,,,,,,,,,,616.6845287900001,None,616.6845287900001,None,616.6845287900001,None,c,0,0.28969487099993785,618.2200494939998,None,618.2200494939998,None,618.2200494939998,None,618.56813302,None,618.56813302,None,618.56813302,None,618.56813302,None,,,,,,,,,,,,,,,,,,,,,,,,,,,,,,,,,,,,,,,,,,,,001,129,2020_Feb_18_0931,spring_faces,3.1.5,60.010283242142414,
condition files/Stage1_1.xlsx,,T1,B1,c,"['c', 'm']","['Clue', 'Monopoly']","[-0.15, 0.5]","[0.15, 0.5]",1,1,,,,,,,,,0,4,4,4,0,5,5,0,,,,,,,,,,,,,,,,,,,,,,,,,,,,,,,,,,,,,,,,,,,,,,,,,,,,,,,620.53467834,None,620.53467834,None,620.53467834,None,c,1,0.27974272300025405,622.06992773,None,622.06992773,None,622.06992773,None,622.4181564199998,None,622.4181564199998,None,622.4181564199998,None,622.4181564199998,None,,,,,,,,,,,,,,,,,,,,,,,,,,,,,,,,,,,,,,,,,,,,001,129,2020_Feb_18_0931,spring_faces,3.1.5,60.010283242142414,
condition files/Stage1_1.xlsx,,T3,B4,c,"['c', 'm']","['Clue', 'Monopoly']","[-0.15, 0.5]","[0.15, 0.5]",1,1,,,,,,,,,0,4,4,4,0,6,6,5,,,,,,,,,,,,,,,,,,,,,,,,,,,,,,,,,,,,,,,,,,,,,,,,,,,,,,,624.3672664129999,None,624.3672664129999,None,624.3672664129999,None,m,0,0.7035080470000139,625.9181580730001,None,625.9181580730001,None,625.9181580730001,None,626.6847664289999,None,626.6847664289999,None,626.6847664289999,None,626.6847664289999,None,,,,,,,,,,,,,,,,,,,,,,,,,,,,,,,,,,,,,,,,,,,,001,129,2020_Feb_18_0931,spring_faces,3.1.5,60.010283242142414,
condition files/Stage1_1.xlsx,,B3,T3,c,"['c', 'm']","['Clue', 'Monopoly']","[-0.15, 0.5]","[0.15, 0.5]",1,1,,,,,,,,,0,4,4,4,0,7,7,4,,,,,,,,,,,,,,,,,,,,,,,,,,,,,,,,,,,,,,,,,,,,,,,,,,,,,,,628.651151688,None,628.651151688,None,628.651151688,None,c,1,0.24394943699962823,630.1856777990001,None,630.1856777990001,None,630.1856777990001,None,630.484817262,None,630.484817262,None,630.484817262,None,630.484817262,None,,,,,,,,,,,,,,,,,,,,,,,,,,,,,,,,,,,,,,,,,,,,001,129,2020_Feb_18_0931,spring_faces,3.1.5,60.010283242142414,
condition files/Stage1_2.xlsx,,T2,B1,c,"['c', 'm']","['Clue', 'Monopoly']","[-0.15, 0.5]","[0.15, 0.5]",1,1,,,,,,,,,0,5,5,5,0,0,0,1,,,,,,,,,,,,,,,,,,,,,,,,,,,,,,,,,,,,,,,,,,,,,,,,,,,,,,,632.4678662480001,None,632.4678662480001,None,632.4678662480001,None,m,0,0.2835807639999075,634.0180471190001,None,634.0180471190001,None,634.0180471190001,None,634.3681000930001,None,634.3681000930001,None,634.3681000930001,None,634.3681000930001,None,,,,,,,,,,,,,,,,,,,,,,,,,,,,,,,,,,,,,,,,,,,,001,129,2020_Feb_18_0931,spring_faces,3.1.5,60.010283242142414,
condition files/Stage1_2.xlsx,,T1,B2,m,"['c', 'm']","['Clue', 'Monopoly']","[-0.15, 0.5]","[0.15, 0.5]",1,1,,,,,,,,,0,5,5,5,0,1,1,2,,,,,,,,,,,,,,,,,,,,,,,,,,,,,,,,,,,,,,,,,,,,,,,,,,,,,,,636.3345770169999,None,636.3345770169999,None,636.3345770169999,None,m,1,0.24085085899969272,637.88487214,None,637.88487214,None,637.88487214,None,638.185602517,None,638.185602517,None,638.185602517,None,638.185602517,None,,,,,,,,,,,,,,,,,,,,,,,,,,,,,,,,,,,,,,,,,,,,001,129,2020_Feb_18_0931,spring_faces,3.1.5,60.010283242142414,
condition files/Stage1_2.xlsx,,B1,T1,c,"['c', 'm']","['Clue', 'Monopoly']","[-0.15, 0.5]","[0.15, 0.5]",1,1,,,,,,,,,0,5,5,5,0,2,2,0,,,,,,,,,,,,,,,,,,,,,,,,,,,,,,,,,,,,,,,,,,,,,,,,,,,,,,,640.1512319829999,None,640.1512319829999,None,640.1512319829999,None,m,0,0.24737421199961318,641.6863004460001,None,641.6863004460001,None,641.6863004460001,None,641.9860235739998,None,641.9860235739998,None,641.9860235739998,None,641.9860235739998,None,,,,,,,,,,,,,,,,,,,,,,,,,,,,,,,,,,,,,,,,,,,,001,129,2020_Feb_18_0931,spring_faces,3.1.5,60.010283242142414,
condition files/Stage1_2.xlsx,,T3,B3,c,"['c', 'm']","['Clue', 'Monopoly']","[-0.15, 0.5]","[0.15, 0.5]",1,1,,,,,,,,,0,5,5,5,0,3,3,4,,,,,,,,,,,,,,,,,,,,,,,,,,,,,,,,,,,,,,,,,,,,,,,,,,,,,,,643.951259166,None,643.951259166,None,643.951259166,None,c,1,0.0793307859999004,645.486340723,None,645.486340723,None,645.486340723,None,645.6182501640001,None,645.6182501640001,None,645.6182501640001,None,645.6182501640001,None,,,,,,,,,,,,,,,,,,,,,,,,,,,,,,,,,,,,,,,,,,,,001,129,2020_Feb_18_0931,spring_faces,3.1.5,60.010283242142414,
condition files/Stage1_2.xlsx,,B3,T4,m,"['c', 'm']","['Clue', 'Monopoly']","[-0.15, 0.5]","[0.15, 0.5]",1,1,,,,,,,,,0,5,5,5,0,4,4,6,,,,,,,,,,,,,,,,,,,,,,,,,,,,,,,,,,,,,,,,,,,,,,,,,,,,,,,647.5844740090001,None,647.5844740090001,None,647.5844740090001,None,c,0,0.2711791310002809,649.1345002359999,None,649.1345002359999,None,649.1345002359999,None,649.4848814259999,None,649.4848814259999,None,649.4848814259999,None,649.4848814259999,None,,,,,,,,,,,,,,,,,,,,,,,,,,,,,,,,,,,,,,,,,,,,001,129,2020_Feb_18_0931,spring_faces,3.1.5,60.010283242142414,
condition files/Stage1_2.xlsx,,B4,T3,c,"['c', 'm']","['Clue', 'Monopoly']","[-0.15, 0.5]","[0.15, 0.5]",1,1,,,,,,,,,0,5,5,5,0,5,5,5,,,,,,,,,,,,,,,,,,,,,,,,,,,,,,,,,,,,,,,,,,,,,,,,,,,,,,,651.4346805999999,None,651.4346805999999,None,651.4346805999999,None,m,0,0.26090896999994584,652.9847558359997,None,652.9847558359997,None,652.9847558359997,None,653.3179762119998,None,653.3179762119998,None,653.3179762119998,None,653.3179762119998,None,,,,,,,,,,,,,,,,,,,,,,,,,,,,,,,,,,,,,,,,,,,,001,129,2020_Feb_18_0931,spring_faces,3.1.5,60.010283242142414,
condition files/Stage1_2.xlsx,,T4,B4,m,"['c', 'm']","['Clue', 'Monopoly']","[-0.15, 0.5]","[0.15, 0.5]",1,1,,,,,,,,,0,5,5,5,0,6,6,7,,,,,,,,,,,,,,,,,,,,,,,,,,,,,,,,,,,,,,,,,,,,,,,,,,,,,,,655.2675231539997,None,655.2675231539997,None,655.2675231539997,None,c,0,0.20292294699993363,656.8027602449997,None,656.8027602449997,None,656.8027602449997,None,657.0847117429998,None,657.0847117429998,None,657.0847117429998,None,657.0847117429998,None,,,,,,,,,,,,,,,,,,,,,,,,,,,,,,,,,,,,,,,,,,,,001,129,2020_Feb_18_0931,spring_faces,3.1.5,60.010283242142414,
condition files/Stage1_2.xlsx,,B2,T2,m,"['c', 'm']","['Clue', 'Monopoly']","[-0.15, 0.5]","[0.15, 0.5]",1,1,,,,,,,,,0,5,5,5,0,7,7,3,,,,,,,,,,,,,,,,,,,,,,,,,,,,,,,,,,,,,,,,,,,,,,,,,,,,,,,659.0342816520001,None,659.0342816520001,None,659.0342816520001,None,m,1,0.25998361099982503,660.5696339840001,None,660.5696339840001,None,660.5696339840001,None,660.8848487129999,None,660.8848487129999,None,660.8848487129999,None,660.8848487129999,None,,,,,,,,,,,,,,,,,,,,,,,,,,,,,,,,,,,,,,,,,,,,001,129,2020_Feb_18_0931,spring_faces,3.1.5,60.010283242142414,
condition files/Stage1_1.xlsx,,T4,B3,m,"['c', 'm']","['Clue', 'Monopoly']","[-0.15, 0.5]","[0.15, 0.5]",1,1,,,,,,,,,0,6,6,6,0,0,0,6,,,,,,,,,,,,,,,,,,,,,,,,,,,,,,,,,,,,,,,,,,,,,,,,,,,,,,,662.8678284849998,None,662.8678284849998,None,662.8678284849998,None,m,1,0.18671586600021328,664.4029905899997,None,664.4029905899997,None,664.4029905899997,None,664.6511088049997,None,664.6511088049997,None,664.6511088049997,None,664.6511088049997,None,,,,,,,,,,,,,,,,,,,,,,,,,,,,,,,,,,,,,,,,,,,,001,129,2020_Feb_18_0931,spring_faces,3.1.5,60.010283242142414,
condition files/Stage1_1.xlsx,,B2,T1,m,"['c', 'm']","['Clue', 'Monopoly']","[-0.15, 0.5]","[0.15, 0.5]",1,1,,,,,,,,,0,6,6,6,0,1,1,2,,,,,,,,,,,,,,,,,,,,,,,,,,,,,,,,,,,,,,,,,,,,,,,,,,,,,,,666.6178330909997,None,666.6178330909997,None,666.6178330909997,None,c,0,0.22891689900006895,668.1526818950001,None,668.1526818950001,None,668.1526818950001,None,668.4350230740001,None,668.4350230740001,None,668.4350230740001,None,668.4350230740001,None,,,,,,,,,,,,,,,,,,,,,,,,,,,,,,,,,,,,,,,,,,,,001,129,2020_Feb_18_0931,spring_faces,3.1.5,60.010283242142414,
condition files/Stage1_1.xlsx,,B3,T3,c,"['c', 'm']","['Clue', 'Monopoly']","[-0.15, 0.5]","[0.15, 0.5]",1,1,,,,,,,,,0,6,6,6,0,2,2,4,,,,,,,,,,,,,,,,,,,,,,,,,,,,,,,,,,,,,,,,,,,,,,,,,,,,,,,670.4012383909999,None,670.4012383909999,None,670.4012383909999,None,c,1,0.27036094300001423,671.951307242,None,671.951307242,None,671.951307242,None,672.3012947110001,None,672.3012947110001,None,672.3012947110001,None,672.3012947110001,None,,,,,,,,,,,,,,,,,,,,,,,,,,,,,,,,,,,,,,,,,,,,001,129,2020_Feb_18_0931,spring_faces,3.1.5,60.010283242142414,
condition files/Stage1_1.xlsx,,B1,T2,c,"['c', 'm']","['Clue', 'Monopoly']","[-0.15, 0.5]","[0.15, 0.5]",1,1,,,,,,,,,0,6,6,6,0,3,3,1,,,,,,,,,,,,,,,,,,,,,,,,,,,,,,,,,,,,,,,,,,,,,,,,,,,,,,,674.2511891509998,None,674.2511891509998,None,674.2511891509998,None,m,0,0.40459430700002486,675.8010614109999,None,675.8010614109999,None,675.8010614109999,None,676.270287805,None,676.270287805,None,676.270287805,None,676.270287805,None,,,,,,,,,,,,,,,,,,,,,,,,,,,,,,,,,,,,,,,,,,,,001,129,2020_Feb_18_0931,spring_faces,3.1.5,60.010283242142414,
condition files/Stage1_1.xlsx,,B4,T4,m,"['c', 'm']","['Clue', 'Monopoly']","[-0.15, 0.5]","[0.15, 0.5]",1,1,,,,,,,,,0,6,6,6,0,4,4,7,,,,,,,,,,,,,,,,,,,,,,,,,,,,,,,,,,,,,,,,,,,,,,,,,,,,,,,678.234531736,None,678.234531736,None,678.234531736,None,c,0,0.08489367199990738,679.7847190029997,None,679.7847190029997,None,679.7847190029997,None,679.9514200109998,None,679.9514200109998,None,679.9514200109998,None,679.9514200109998,None,,,,,,,,,,,,,,,,,,,,,,,,,,,,,,,,,,,,,,,,,,,,001,129,2020_Feb_18_0931,spring_faces,3.1.5,60.010283242142414,
condition files/Stage1_1.xlsx,,T1,B1,c,"['c', 'm']","['Clue', 'Monopoly']","[-0.15, 0.5]","[0.15, 0.5]",1,1,,,,,,,,,0,6,6,6,0,5,5,0,,,,,,,,,,,,,,,,,,,,,,,,,,,,,,,,,,,,,,,,,,,,,,,,,,,,,,,681.9011615509999,None,681.9011615509999,None,681.9011615509999,None,m,0,0.21023063600023306,683.435473556,None,683.435473556,None,683.435473556,None,683.7035050039999,None,683.7035050039999,None,683.7035050039999,None,683.7035050039999,None,,,,,,,,,,,,,,,,,,,,,,,,,,,,,,,,,,,,,,,,,,,,001,129,2020_Feb_18_0931,spring_faces,3.1.5,60.010283242142414,
condition files/Stage1_1.xlsx,,T3,B4,c,"['c', 'm']","['Clue', 'Monopoly']","[-0.15, 0.5]","[0.15, 0.5]",1,1,,,,,,,,,0,6,6,6,0,6,6,5,,,,,,,,,,,,,,,,,,,,,,,,,,,,,,,,,,,,,,,,,,,,,,,,,,,,,,,685.6675054329999,None,685.6675054329999,None,685.6675054329999,None,c,1,0.3623578219999217,687.2033187749998,None,687.2033187749998,None,687.2033187749998,None,687.6181985789999,None,687.6181985789999,None,687.6181985789999,None,687.6181985789999,None,,,,,,,,,,,,,,,,,,,,,,,,,,,,,,,,,,,,,,,,,,,,001,129,2020_Feb_18_0931,spring_faces,3.1.5,60.010283242142414,
condition files/Stage1_1.xlsx,,T2,B2,m,"['c', 'm']","['Clue', 'Monopoly']","[-0.15, 0.5]","[0.15, 0.5]",1,1,,,,,,,,,0,6,6,6,0,7,7,3,,,,,,,,,,,,,,,,,,,,,,,,,,,,,,,,,,,,,,,,,,,,,,,,,,,,,,,689.5839667999999,None,689.5839667999999,None,689.5839667999999,None,c,0,0.2542731990001812,691.1194302509998,None,691.1194302509998,None,691.1194302509998,None,691.4514712549999,None,691.4514712549999,None,691.4514712549999,None,691.4514712549999,None,,,,,,,,,,,,,,,,,,,,,,,,,,,,,,,,,,,,,,,,,,,,001,129,2020_Feb_18_0931,spring_faces,3.1.5,60.010283242142414,
condition files/Stage1_2.xlsx,,B3,T4,m,"['c', 'm']","['Clue', 'Monopoly']","[-0.15, 0.5]","[0.15, 0.5]",1,1,,,,,,,,,0,7,7,7,0,0,0,6,,,,,,,,,,,,,,,,,,,,,,,,,,,,,,,,,,,,,,,,,,,,,,,,,,,,,,,693.4183601539999,None,693.4183601539999,None,693.4183601539999,None,m,1,0.24655075000009674,694.9511242839999,None,694.9511242839999,None,694.9511242839999,None,695.251160322,None,695.251160322,None,695.251160322,None,695.251160322,None,,,,,,,,,,,,,,,,,,,,,,,,,,,,,,,,,,,,,,,,,,,,001,129,2020_Feb_18_0931,spring_faces,3.1.5,60.010283242142414,
condition files/Stage1_2.xlsx,,T1,B2,m,"['c', 'm']","['Clue', 'Monopoly']","[-0.15, 0.5]","[0.15, 0.5]",1,1,,,,,,,,,0,7,7,7,0,1,1,2,,,,,,,,,,,,,,,,,,,,,,,,,,,,,,,,,,,,,,,,,,,,,,,,,,,,,,,697.2182667749998,None,697.2182667749998,None,697.2182667749998,None,m,1,0.30172429899994313,698.751954892,None,698.751954892,None,698.751954892,None,699.1181688649999,None,699.1181688649999,None,699.1181688649999,None,699.1181688649999,None,,,,,,,,,,,,,,,,,,,,,,,,,,,,,,,,,,,,,,,,,,,,001,129,2020_Feb_18_0931,spring_faces,3.1.5,60.010283242142414,
condition files/Stage1_2.xlsx,,B1,T1,c,"['c', 'm']","['Clue', 'Monopoly']","[-0.15, 0.5]","[0.15, 0.5]",1,1,,,,,,,,,0,7,7,7,0,2,2,0,,,,,,,,,,,,,,,,,,,,,,,,,,,,,,,,,,,,,,,,,,,,,,,,,,,,,,,701.0844300379999,None,701.0844300379999,None,701.0844300379999,None,m,0,0.27521214499984126,702.6185364109997,None,702.6185364109997,None,702.6185364109997,None,702.952765689,None,702.952765689,None,702.952765689,None,702.952765689,None,,,,,,,,,,,,,,,,,,,,,,,,,,,,,,,,,,,,,,,,,,,,001,129,2020_Feb_18_0931,spring_faces,3.1.5,60.010283242142414,
condition files/Stage1_2.xlsx,,B4,T3,c,"['c', 'm']","['Clue', 'Monopoly']","[-0.15, 0.5]","[0.15, 0.5]",1,1,,,,,,,,,0,7,7,7,0,3,3,5,,,,,,,,,,,,,,,,,,,,,,,,,,,,,,,,,,,,,,,,,,,,,,,,,,,,,,,704.9174539249998,None,704.9174539249998,None,704.9174539249998,None,c,1,0.761736540000129,706.4679091009998,None,706.4679091009998,None,706.4679091009998,None,707.2846287990001,None,707.2846287990001,None,707.2846287990001,None,707.2846287990001,None,,,,,,,,,,,,,,,,,,,,,,,,,,,,,,,,,,,,,,,,,,,,001,129,2020_Feb_18_0931,spring_faces,3.1.5,60.010283242142414,
condition files/Stage1_2.xlsx,,T3,B3,c,"['c', 'm']","['Clue', 'Monopoly']","[-0.15, 0.5]","[0.15, 0.5]",1,1,,,,,,,,,0,7,7,7,0,4,4,4,,,,,,,,,,,,,,,,,,,,,,,,,,,,,,,,,,,,,,,,,,,,,,,,,,,,,,,709.2508932209998,None,709.2508932209998,None,709.2508932209998,None,m,0,0.8287330410003051,710.7848796549997,None,710.7848796549997,None,710.7848796549997,None,711.6681495570001,None,711.6681495570001,None,711.6681495570001,None,711.6681495570001,None,,,,,,,,,,,,,,,,,,,,,,,,,,,,,,,,,,,,,,,,,,,,001,129,2020_Feb_18_0931,spring_faces,3.1.5,60.010283242142414,
condition files/Stage1_2.xlsx,,T2,B1,c,"['c', 'm']","['Clue', 'Monopoly']","[-0.15, 0.5]","[0.15, 0.5]",1,1,,,,,,,,,0,7,7,7,0,5,5,1,,,,,,,,,,,,,,,,,,,,,,,,,,,,,,,,,,,,,,,,,,,,,,,,,,,,,,,713.6345442319998,None,713.6345442319998,None,713.6345442319998,None,m,0,0.924464240999896,715.1692830259999,None,715.1692830259999,None,715.1692830259999,None,716.151201185,None,716.151201185,None,716.151201185,None,716.151201185,None,,,,,,,,,,,,,,,,,,,,,,,,,,,,,,,,,,,,,,,,,,,,001,129,2020_Feb_18_0931,spring_faces,3.1.5,60.010283242142414,
condition files/Stage1_2.xlsx,,T4,B4,m,"['c', 'm']","['Clue', 'Monopoly']","[-0.15, 0.5]","[0.15, 0.5]",1,1,,,,,,,,,0,7,7,7,0,6,6,7,,,,,,,,,,,,,,,,,,,,,,,,,,,,,,,,,,,,,,,,,,,,,,,,,,,,,,,718.1172805779997,None,718.1172805779997,None,718.1172805779997,None,c,0,1.1606724819998817,719.653000363,None,719.653000363,None,719.653000363,None,720.8848504329999,None,720.8848504329999,None,720.8848504329999,None,720.8848504329999,None,,,,,,,,,,,,,,,,,,,,,,,,,,,,,,,,,,,,,,,,,,,,001,129,2020_Feb_18_0931,spring_faces,3.1.5,60.010283242142414,
condition files/Stage1_2.xlsx,,B2,T2,m,"['c', 'm']","['Clue', 'Monopoly']","[-0.15, 0.5]","[0.15, 0.5]",1,1,,,,,,,,,0,7,7,7,0,7,7,3,,,,,,,,,,,,,,,,,,,,,,,,,,,,,,,,,,,,,,,,,,,,,,,,,,,,,,,722.8345747180001,None,722.8345747180001,None,722.8345747180001,None,m,1,0.25120178799988935,724.3704749149997,None,724.3704749149997,None,724.3704749149997,None,724.6844513239998,None,724.6844513239998,None,724.6844513239998,None,724.6844513239998,None,,,,,,,,,,,,,,,,,,,,,,,,,,,,,,,,,,,,,,,,,,,,001,129,2020_Feb_18_0931,spring_faces,3.1.5,60.010283242142414,
condition files/Stage1_1.xlsx,,B3,T3,c,"['c', 'm']","['Clue', 'Monopoly']","[-0.15, 0.5]","[0.15, 0.5]",1,1,,,,,,,,,0,8,8,8,0,0,0,4,,,,,,,,,,,,,,,,,,,,,,,,,,,,,,,,,,,,,,,,,,,,,,,,,,,,,,,726.6680087199998,None,726.6680087199998,None,726.6680087199998,None,c,1,0.9956530790000215,728.2179518140001,None,728.2179518140001,None,728.2179518140001,None,729.2850205760001,None,729.2850205760001,None,729.2850205760001,None,729.2850205760001,None,,,,,,,,,,,,,,,,,,,,,,,,,,,,,,,,,,,,,,,,,,,,001,129,2020_Feb_18_0931,spring_faces,3.1.5,60.010283242142414,
condition files/Stage1_1.xlsx,,B2,T1,m,"['c', 'm']","['Clue', 'Monopoly']","[-0.15, 0.5]","[0.15, 0.5]",1,1,,,,,,,,,0,8,8,8,0,1,1,2,,,,,,,,,,,,,,,,,,,,,,,,,,,,,,,,,,,,,,,,,,,,,,,,,,,,,,,731.23406011,None,731.23406011,None,731.23406011,None,m,1,0.285522445999959,732.7681445509998,None,732.7681445509998,None,732.7681445509998,None,733.1177621060001,None,733.1177621060001,None,733.1177621060001,None,733.1177621060001,None,,,,,,,,,,,,,,,,,,,,,,,,,,,,,,,,,,,,,,,,,,,,001,129,2020_Feb_18_0931,spring_faces,3.1.5,60.010283242142414,
condition files/Stage1_1.xlsx,,T2,B2,m,"['c', 'm']","['Clue', 'Monopoly']","[-0.15, 0.5]","[0.15, 0.5]",1,1,,,,,,,,,0,8,8,8,0,2,2,3,,,,,,,,,,,,,,,,,,,,,,,,,,,,,,,,,,,,,,,,,,,,,,,,,,,,,,,735.0846557959999,None,735.0846557959999,None,735.0846557959999,None,c,0,0.5948801310000817,736.6347262519998,None,736.6347262519998,None,736.6347262519998,None,737.2842137530001,None,737.2842137530001,None,737.2842137530001,None,737.2842137530001,None,,,,,,,,,,,,,,,,,,,,,,,,,,,,,,,,,,,,,,,,,,,,001,129,2020_Feb_18_0931,spring_faces,3.1.5,60.010283242142414,
condition files/Stage1_1.xlsx,,B4,T4,m,"['c', 'm']","['Clue', 'Monopoly']","[-0.15, 0.5]","[0.15, 0.5]",1,1,,,,,,,,,0,8,8,8,0,3,3,7,,,,,,,,,,,,,,,,,,,,,,,,,,,,,,,,,,,,,,,,,,,,,,,,,,,,,,,739.2512621850001,None,739.2512621850001,None,739.2512621850001,None,m,1,0.3004038720000608,740.7852227539997,None,740.7852227539997,None,740.7852227539997,None,741.151313801,None,741.151313801,None,741.151313801,None,741.151313801,None,,,,,,,,,,,,,,,,,,,,,,,,,,,,,,,,,,,,,,,,,,,,001,129,2020_Feb_18_0931,spring_faces,3.1.5,60.010283242142414,
condition files/Stage1_1.xlsx,,B1,T2,c,"['c', 'm']","['Clue', 'Monopoly']","[-0.15, 0.5]","[0.15, 0.5]",1,1,,,,,,,,,0,8,8,8,0,4,4,1,,,,,,,,,,,,,,,,,,,,,,,,,,,,,,,,,,,,,,,,,,,,,,,,,,,,,,,743.1175968749999,None,743.1175968749999,None,743.1175968749999,None,m,0,0.2887409650002155,744.6530032629998,None,744.6530032629998,None,744.6530032629998,None,745.0027060339999,None,745.0027060339999,None,745.0027060339999,None,745.0027060339999,None,,,,,,,,,,,,,,,,,,,,,,,,,,,,,,,,,,,,,,,,,,,,001,129,2020_Feb_18_0931,spring_faces,3.1.5,60.010283242142414,
condition files/Stage1_1.xlsx,,T4,B3,m,"['c', 'm']","['Clue', 'Monopoly']","[-0.15, 0.5]","[0.15, 0.5]",1,1,,,,,,,,,0,8,8,8,0,5,5,6,,,,,,,,,,,,,,,,,,,,,,,,,,,,,,,,,,,,,,,,,,,,,,,,,,,,,,,746.9678980039998,None,746.9678980039998,None,746.9678980039998,None,c,0,0.2954663690002235,748.5182330419998,None,748.5182330419998,None,748.5182330419998,None,748.870297644,None,748.870297644,None,748.870297644,None,748.870297644,None,,,,,,,,,,,,,,,,,,,,,,,,,,,,,,,,,,,,,,,,,,,,001,129,2020_Feb_18_0931,spring_faces,3.1.5,60.010283242142414,
condition files/Stage1_1.xlsx,,T3,B4,c,"['c', 'm']","['Clue', 'Monopoly']","[-0.15, 0.5]","[0.15, 0.5]",1,1,,,,,,,,,0,8,8,8,0,6,6,5,,,,,,,,,,,,,,,,,,,,,,,,,,,,,,,,,,,,,,,,,,,,,,,,,,,,,,,750.8343709569999,None,750.8343709569999,None,750.8343709569999,None,m,0,0.2058589920002305,752.367834183,None,752.367834183,None,752.367834183,None,752.6512187959997,None,752.6512187959997,None,752.6512187959997,None,752.6512187959997,None,,,,,,,,,,,,,,,,,,,,,,,,,,,,,,,,,,,,,,,,,,,,001,129,2020_Feb_18_0931,spring_faces,3.1.5,60.010283242142414,
condition files/Stage1_1.xlsx,,T1,B1,c,"['c', 'm']","['Clue', 'Monopoly']","[-0.15, 0.5]","[0.15, 0.5]",1,1,,,,,,,,,0,8,8,8,0,7,7,0,,,,,,,,,,,,,,,,,,,,,,,,,,,,,,,,,,,,,,,,,,,,,,,,,,,,,,,754.601187323,None,754.601187323,None,754.601187323,None,m,0,0.16694572500000504,756.1346774849999,None,756.1346774849999,None,756.1346774849999,None,756.3679383889998,None,756.3679383889998,None,756.3679383889998,None,756.3679383889998,None,,,,,,,,,,,,,,,,,,,,,,,,,,,,,,,,,,,,,,,,,,,,001,129,2020_Feb_18_0931,spring_faces,3.1.5,60.010283242142414,
condition files/Stage1_2.xlsx,,B2,T2,m,"['c', 'm']","['Clue', 'Monopoly']","[-0.15, 0.5]","[0.15, 0.5]",1,1,,,,,,,,,0,9,9,9,0,0,0,3,,,,,,,,,,,,,,,,,,,,,,,,,,,,,,,,,,,,,,,,,,,,,,,,,,,,,,,758.3507173519997,None,758.3507173519997,None,758.3507173519997,None,m,1,0.4170039020000331,759.9006700979999,None,759.9006700979999,None,759.9006700979999,None,760.3844320489998,None,760.3844320489998,None,760.3844320489998,None,760.3844320489998,None,,,,,,,,,,,,,,,,,,,,,,,,,,,,,,,,,,,,,,,,,,,,001,129,2020_Feb_18_0931,spring_faces,3.1.5,60.010283242142414,
condition files/Stage1_2.xlsx,,T2,B1,c,"['c', 'm']","['Clue', 'Monopoly']","[-0.15, 0.5]","[0.15, 0.5]",1,1,,,,,,,,,0,9,9,9,0,1,1,1,,,,,,,,,,,,,,,,,,,,,,,,,,,,,,,,,,,,,,,,,,,,,,,,,,,,,,,762.3344667309998,None,762.3344667309998,None,762.3344667309998,None,c,1,0.6729040790000909,763.8688397020001,None,763.8688397020001,None,763.8688397020001,None,764.6007041449998,None,764.6007041449998,None,764.6007041449998,None,764.6007041449998,None,,,,,,,,,,,,,,,,,,,,,,,,,,,,,,,,,,,,,,,,,,,,001,129,2020_Feb_18_0931,spring_faces,3.1.5,60.010283242142414,
condition files/Stage1_2.xlsx,,T4,B4,m,"['c', 'm']","['Clue', 'Monopoly']","[-0.15, 0.5]","[0.15, 0.5]",1,1,,,,,,,,,0,9,9,9,0,2,2,7,,,,,,,,,,,,,,,,,,,,,,,,,,,,,,,,,,,,,,,,,,,,,,,,,,,,,,,766.5679250180001,None,766.5679250180001,None,766.5679250180001,None,m,1,0.7097835449999366,768.1038864920001,None,768.1038864920001,None,768.1038864920001,None,768.8850250539999,None,768.8850250539999,None,768.8850250539999,None,768.8850250539999,None,,,,,,,,,,,,,,,,,,,,,,,,,,,,,,,,,,,,,,,,,,,,001,129,2020_Feb_18_0931,spring_faces,3.1.5,60.010283242142414,
condition files/Stage1_2.xlsx,,B1,T1,c,"['c', 'm']","['Clue', 'Monopoly']","[-0.15, 0.5]","[0.15, 0.5]",1,1,,,,,,,,,0,9,9,9,0,3,3,0,,,,,,,,,,,,,,,,,,,,,,,,,,,,,,,,,,,,,,,,,,,,,,,,,,,,,,,770.834129712,None,770.834129712,None,770.834129712,None,c,1,1.3249764820002383,772.3687787419999,None,772.3687787419999,None,772.3687787419999,None,773.7520478359997,None,773.7520478359997,None,773.7520478359997,None,773.7520478359997,None,,,,,,,,,,,,,,,,,,,,,,,,,,,,,,,,,,,,,,,,,,,,001,129,2020_Feb_18_0931,spring_faces,3.1.5,60.010283242142414,
condition files/Stage1_2.xlsx,,B4,T3,c,"['c', 'm']","['Clue', 'Monopoly']","[-0.15, 0.5]","[0.15, 0.5]",1,1,,,,,,,,,0,9,9,9,0,4,4,5,,,,,,,,,,,,,,,,,,,,,,,,,,,,,,,,,,,,,,,,,,,,,,,,,,,,,,,775.7178186729998,None,775.7178186729998,None,775.7178186729998,None,m,0,1.0325745519999145,777.2530698659998,None,777.2530698659998,None,777.2530698659998,None,778.3512840129997,None,778.3512840129997,None,778.3512840129997,None,778.3512840129997,None,,,,,,,,,,,,,,,,,,,,,,,,,,,,,,,,,,,,,,,,,,,,001,129,2020_Feb_18_0931,spring_faces,3.1.5,60.010283242142414,
condition files/Stage1_2.xlsx,,T3,B3,c,"['c', 'm']","['Clue', 'Monopoly']","[-0.15, 0.5]","[0.15, 0.5]",1,1,,,,,,,,,0,9,9,9,0,5,5,4,,,,,,,,,,,,,,,,,,,,,,,,,,,,,,,,,,,,,,,,,,,,,,,,,,,,,,,780.3179993429999,None,780.3179993429999,None,780.3179993429999,None,c,1,0.6415881909997552,781.86814202,None,781.86814202,None,781.86814202,None,782.5680831,None,782.5680831,None,782.5680831,None,782.5680831,None,,,,,,,,,,,,,,,,,,,,,,,,,,,,,,,,,,,,,,,,,,,,001,129,2020_Feb_18_0931,spring_faces,3.1.5,60.010283242142414,
condition files/Stage1_2.xlsx,,B3,T4,m,"['c', 'm']","['Clue', 'Monopoly']","[-0.15, 0.5]","[0.15, 0.5]",1,1,,,,,,,,,0,9,9,9,0,6,6,6,,,,,,,,,,,,,,,,,,,,,,,,,,,,,,,,,,,,,,,,,,,,,,,,,,,,,,,784.5342937820001,None,784.5342937820001,None,784.5342937820001,None,m,1,0.5675773559996742,786.0701022379999,None,786.0701022379999,None,786.0701022379999,None,786.7180977600001,None,786.7180977600001,None,786.7180977600001,None,786.7180977600001,None,,,,,,,,,,,,,,,,,,,,,,,,,,,,,,,,,,,,,,,,,,,,001,129,2020_Feb_18_0931,spring_faces,3.1.5,60.010283242142414,
condition files/Stage1_2.xlsx,,T1,B2,m,"['c', 'm']","['Clue', 'Monopoly']","[-0.15, 0.5]","[0.15, 0.5]",1,1,,,,,,,,,0,9,9,9,0,7,7,2,,,,,,,,,,,,,,,,,,,,,,,,,,,,,,,,,,,,,,,,,,,,,,,,,,,,,,,788.668010156,None,788.668010156,None,788.668010156,None,m,1,1.6521429999997963,790.2015367939998,None,790.2015367939998,None,790.2015367939998,None,791.9179010819998,None,791.9179010819998,None,791.9179010819998,None,791.9179010819998,None,,,,,,,,,,,,,,,,,,,,,,,,,,,,,,,,,,,,,,,,,,,,001,129,2020_Feb_18_0931,spring_faces,3.1.5,60.010283242142414,
condition files/Stage1_1.xlsx,,T3,B4,c,"['c', 'm']","['Clue', 'Monopoly']","[-0.15, 0.5]","[0.15, 0.5]",1,1,,,,,,,,,0,10,10,10,0,0,0,5,,,,,,,,,,,,,,,,,,,,,,,,,,,,,,,,,,,,,,,,,,,,,,,,,,,,,,,793.9012338409998,None,793.9012338409998,None,793.9012338409998,None,c,1,0.866953700999602,795.4507073269997,None,795.4507073269997,None,795.4507073269997,None,796.3847295360001,None,796.3847295360001,None,796.3847295360001,None,796.3847295360001,None,,,,,,,,,,,,,,,,,,,,,,,,,,,,,,,,,,,,,,,,,,,,001,129,2020_Feb_18_0931,spring_faces,3.1.5,60.010283242142414,
condition files/Stage1_1.xlsx,,T1,B1,c,"['c', 'm']","['Clue', 'Monopoly']","[-0.15, 0.5]","[0.15, 0.5]",1,1,,,,,,,,,0,10,10,10,0,1,1,0,,,,,,,,,,,,,,,,,,,,,,,,,,,,,,,,,,,,,,,,,,,,,,,,,,,,,,,798.3345456689999,None,798.3345456689999,None,798.3345456689999,None,c,1,1.3122897940002076,799.869362376,None,799.869362376,None,799.869362376,None,801.2347410130001,None,801.2347410130001,None,801.2347410130001,None,801.2347410130001,None,,,,,,,,,,,,,,,,,,,,,,,,,,,,,,,,,,,,,,,,,,,,001,129,2020_Feb_18_0931,spring_faces,3.1.5,60.010283242142414,
condition files/Stage1_1.xlsx,,B3,T3,c,"['c', 'm']","['Clue', 'Monopoly']","[-0.15, 0.5]","[0.15, 0.5]",1,1,,,,,,,,,0,10,10,10,0,2,2,4,,,,,,,,,,,,,,,,,,,,,,,,,,,,,,,,,,,,,,,,,,,,,,,,,,,,,,,803.2009630329999,None,803.2009630329999,None,803.2009630329999,None,m,0,0.5591343169999163,804.7346106649998,None,804.7346106649998,None,804.7346106649998,None,805.3509900999998,None,805.3509900999998,None,805.3509900999998,None,805.3509900999998,None,,,,,,,,,,,,,,,,,,,,,,,,,,,,,,,,,,,,,,,,,,,,001,129,2020_Feb_18_0931,spring_faces,3.1.5,60.010283242142414,
condition files/Stage1_1.xlsx,,T4,B3,m,"['c', 'm']","['Clue', 'Monopoly']","[-0.15, 0.5]","[0.15, 0.5]",1,1,,,,,,,,,0,10,10,10,0,3,3,6,,,,,,,,,,,,,,,,,,,,,,,,,,,,,,,,,,,,,,,,,,,,,,,,,,,,,,,807.3180540999997,None,807.3180540999997,None,807.3180540999997,None,c,0,0.9060104649997811,808.8517376039999,None,808.8517376039999,None,808.8517376039999,None,809.8347682449999,None,809.8347682449999,None,809.8347682449999,None,809.8347682449999,None,,,,,,,,,,,,,,,,,,,,,,,,,,,,,,,,,,,,,,,,,,,,001,129,2020_Feb_18_0931,spring_faces,3.1.5,60.010283242142414,
condition files/Stage1_1.xlsx,,B2,T1,m,"['c', 'm']","['Clue', 'Monopoly']","[-0.15, 0.5]","[0.15, 0.5]",1,1,,,,,,,,,0,10,10,10,0,4,4,2,,,,,,,,,,,,,,,,,,,,,,,,,,,,,,,,,,,,,,,,,,,,,,,,,,,,,,,811.7845169779998,None,811.7845169779998,None,811.7845169779998,None,m,1,1.207623655000134,813.3181216439998,None,813.3181216439998,None,813.3181216439998,None,814.584163985,None,814.584163985,None,814.584163985,None,814.584163985,None,,,,,,,,,,,,,,,,,,,,,,,,,,,,,,,,,,,,,,,,,,,,001,129,2020_Feb_18_0931,spring_faces,3.1.5,60.010283242142414,
condition files/Stage1_1.xlsx,,B4,T4,m,"['c', 'm']","['Clue', 'Monopoly']","[-0.15, 0.5]","[0.15, 0.5]",1,1,,,,,,,,,0,10,10,10,0,5,5,7,,,,,,,,,,,,,,,,,,,,,,,,,,,,,,,,,,,,,,,,,,,,,,,,,,,,,,,816.551385967,None,816.551385967,None,816.551385967,None,m,1,1.4307245679997322,818.0869407659998,None,818.0869407659998,None,818.0869407659998,None,819.568301578,None,819.568301578,None,819.568301578,None,819.568301578,None,,,,,,,,,,,,,,,,,,,,,,,,,,,,,,,,,,,,,,,,,,,,001,129,2020_Feb_18_0931,spring_faces,3.1.5,60.010283242142414,
condition files/Stage1_1.xlsx,,B1,T2,c,"['c', 'm']","['Clue', 'Monopoly']","[-0.15, 0.5]","[0.15, 0.5]",1,1,,,,,,,,,0,10,10,10,0,6,6,1,,,,,,,,,,,,,,,,,,,,,,,,,,,,,,,,,,,,,,,,,,,,,,,,,,,,,,,821.5343827389997,None,821.5343827389997,None,821.5343827389997,None,c,1,1.2639397899997675,823.069722019,None,823.069722019,None,823.069722019,None,824.387102788,None,824.387102788,None,824.387102788,None,824.387102788,None,,,,,,,,,,,,,,,,,,,,,,,,,,,,,,,,,,,,,,,,,,,,001,129,2020_Feb_18_0931,spring_faces,3.1.5,60.010283242142414,
condition files/Stage1_1.xlsx,,T2,B2,m,"['c', 'm']","['Clue', 'Monopoly']","[-0.15, 0.5]","[0.15, 0.5]",1,1,,,,,,,,,0,10,10,10,0,7,7,3,,,,,,,,,,,,,,,,,,,,,,,,,,,,,,,,,,,,,,,,,,,,,,,,,,,,,,,826.3513450539999,None,826.3513450539999,None,826.3513450539999,None,m,1,0.9595687810001436,827.8861219169999,None,827.8861219169999,None,827.8861219169999,None,828.9178781719997,None,828.9178781719997,None,828.9178781719997,None,828.9178781719997,None,,,,,,,,,,,,,,,,,,,,,,,,,,,,,,,,,,,,,,,,,,,,001,129,2020_Feb_18_0931,spring_faces,3.1.5,60.010283242142414,
condition files/Stage1_2.xlsx,,T3,B3,c,"['c', 'm']","['Clue', 'Monopoly']","[-0.15, 0.5]","[0.15, 0.5]",1,1,,,,,,,,,0,11,11,11,0,0,0,4,,,,,,,,,,,,,,,,,,,,,,,,,,,,,,,,,,,,,,,,,,,,,,,,,,,,,,,830.885086621,None,830.885086621,None,830.885086621,None,c,1,1.6900365630003762,832.419709064,None,832.419709064,None,832.419709064,None,834.1677471909998,None,834.1677471909998,None,834.1677471909998,None,834.1677471909998,None,,,,,,,,,,,,,,,,,,,,,,,,,,,,,,,,,,,,,,,,,,,,001,129,2020_Feb_18_0931,spring_faces,3.1.5,60.010283242142414,
condition files/Stage1_2.xlsx,,T1,B2,m,"['c', 'm']","['Clue', 'Monopoly']","[-0.15, 0.5]","[0.15, 0.5]",1,1,,,,,,,,,0,11,11,11,0,1,1,2,,,,,,,,,,,,,,,,,,,,,,,,,,,,,,,,,,,,,,,,,,,,,,,,,,,,,,,836.134449059,None,836.134449059,None,836.134449059,None,c,0,1.2892773659996237,837.6684499570001,None,837.6684499570001,None,837.6684499570001,None,839.0341583869999,None,839.0341583869999,None,839.0341583869999,None,839.0341583869999,None,,,,,,,,,,,,,,,,,,,,,,,,,,,,,,,,,,,,,,,,,,,,001,129,2020_Feb_18_0931,spring_faces,3.1.5,60.010283242142414,
condition files/Stage1_2.xlsx,,B4,T3,c,"['c', 'm']","['Clue', 'Monopoly']","[-0.15, 0.5]","[0.15, 0.5]",1,1,,,,,,,,,0,11,11,11,0,2,2,5,,,,,,,,,,,,,,,,,,,,,,,,,,,,,,,,,,,,,,,,,,,,,,,,,,,,,,,840.9841845229998,None,840.9841845229998,None,840.9841845229998,None,m,0,1.157227304999651,842.5203941919999,None,842.5203941919999,None,842.5203941919999,None,843.7514737860001,None,843.7514737860001,None,843.7514737860001,None,843.7514737860001,None,,,,,,,,,,,,,,,,,,,,,,,,,,,,,,,,,,,,,,,,,,,,001,129,2020_Feb_18_0931,spring_faces,3.1.5,60.010283242142414,
condition files/Stage1_2.xlsx,,T4,B4,m,"['c', 'm']","['Clue', 'Monopoly']","[-0.15, 0.5]","[0.15, 0.5]",1,1,,,,,,,,,0,11,11,11,0,3,3,7,,,,,,,,,,,,,,,,,,,,,,,,,,,,,,,,,,,,,,,,,,,,,,,,,,,,,,,845.7014873559997,None,845.7014873559997,None,845.7014873559997,None,m,1,1.2262654579999435,847.235495976,None,847.235495976,None,847.235495976,None,848.517422726,None,848.517422726,None,848.517422726,None,848.517422726,None,,,,,,,,,,,,,,,,,,,,,,,,,,,,,,,,,,,,,,,,,,,,001,129,2020_Feb_18_0931,spring_faces,3.1.5,60.010283242142414,
condition files/Stage1_2.xlsx,,T2,B1,c,"['c', 'm']","['Clue', 'Monopoly']","[-0.15, 0.5]","[0.15, 0.5]",1,1,,,,,,,,,0,11,11,11,0,4,4,1,,,,,,,,,,,,,,,,,,,,,,,,,,,,,,,,,,,,,,,,,,,,,,,,,,,,,,,850.4847098659998,None,850.4847098659998,None,850.4847098659998,None,m,0,0.6186791789996278,852.0349809899999,None,852.0349809899999,None,852.0349809899999,None,852.72049767,None,852.72049767,None,852.72049767,None,852.72049767,None,,,,,,,,,,,,,,,,,,,,,,,,,,,,,,,,,,,,,,,,,,,,001,129,2020_Feb_18_0931,spring_faces,3.1.5,60.010283242142414,
condition files/Stage1_2.xlsx,,B3,T4,m,"['c', 'm']","['Clue', 'Monopoly']","[-0.15, 0.5]","[0.15, 0.5]",1,1,,,,,,,,,0,11,11,11,0,5,5,6,,,,,,,,,,,,,,,,,,,,,,,,,,,,,,,,,,,,,,,,,,,,,,,,,,,,,,,854.684511987,None,854.684511987,None,854.684511987,None,c,0,0.33823347599991394,856.219507969,None,856.219507969,None,856.219507969,None,856.634691057,None,856.634691057,None,856.634691057,None,856.634691057,None,,,,,,,,,,,,,,,,,,,,,,,,,,,,,,,,,,,,,,,,,,,,001,129,2020_Feb_18_0931,spring_faces,3.1.5,60.010283242142414,
condition files/Stage1_2.xlsx,,B1,T1,c,"['c', 'm']","['Clue', 'Monopoly']","[-0.15, 0.5]","[0.15, 0.5]",1,1,,,,,,,,,0,11,11,11,0,6,6,0,,,,,,,,,,,,,,,,,,,,,,,,,,,,,,,,,,,,,,,,,,,,,,,,,,,,,,,858.5846385259997,None,858.5846385259997,None,858.5846385259997,None,m,0,0.311208188999899,860.1344629179998,None,860.1344629179998,None,860.1344629179998,None,860.5181013359997,None,860.5181013359997,None,860.5181013359997,None,860.5181013359997,None,,,,,,,,,,,,,,,,,,,,,,,,,,,,,,,,,,,,,,,,,,,,001,129,2020_Feb_18_0931,spring_faces,3.1.5,60.010283242142414,
condition files/Stage1_2.xlsx,,B2,T2,m,"['c', 'm']","['Clue', 'Monopoly']","[-0.15, 0.5]","[0.15, 0.5]",1,1,,,,,,,,,0,11,11,11,0,7,7,3,,,,,,,,,,,,,,,,,,,,,,,,,,,,,,,,,,,,,,,,,,,,,,,,,,,,,,,862.4673029309997,None,862.4673029309997,None,862.4673029309997,None,c,0,0.2827124450000156,864.002911129,None,864.002911129,None,864.002911129,None,864.3677741399997,None,864.3677741399997,None,864.3677741399997,None,864.3677741399997,None,,,,,,,,,,,,,,,,,,,,,,,,,,,,,,,,,,,,,,,,,,,,001,129,2020_Feb_18_0931,spring_faces,3.1.5,60.010283242142414,
,,,,,,,,,,,,,,,,,,,,,,,,,,,,,,,,,,,,,,,,,,,,,,,,,,,,,,,,,,,,,,,,,,,,,,,,,,,,,,,,,,,,,,,,,,,,,,,,,,,,,,,,,,,,,,,,866.3347520419998,None,space,2.39123880499983,871.334509671,None,,,,,,,,,,,,,,,,,,,,,,,,,,,,,,001,129,2020_Feb_18_0931,spring_faces,3.1.5,60.010283242142414,
condition files/Stage2_1.xlsx,,T3,B3,s,"['s', 'r']","['Stratego', 'Risk']","[-0.15, 0.5]","[0.15, 0.5]",1,1,,,,,,,,,,,,,,,,,0,0,0,0,0,0,0,4,,,,,,,,,,,,,,,,,,,,,,,,,,,,,,,,,,,,,,,,,,,,,,,873.78420173,None,873.78420173,None,873.78420173,None,r,0,1.6404064909997942,875.301210699,None,875.301210699,None,875.301210699,None,877.002897976,None,877.002897976,None,877.002897976,None,877.002897976,None,,,,,,,,,,,,,,,871.334509671,None,,,,,,,,,,,,,,,,,,,,,,,,,,,,001,129,2020_Feb_18_0931,spring_faces,3.1.5,60.010283242142414,
condition files/Stage2_1.xlsx,,B6,T6,r,"['s', 'r']","['Stratego', 'Risk']","[-0.15, 0.5]","[0.15, 0.5]",1,1,,,,,,,,,,,,,,,,,0,0,0,0,0,1,1,1,,,,,,,,,,,,,,,,,,,,,,,,,,,,,,,,,,,,,,,,,,,,,,,878.967896007,None,878.967896007,None,878.967896007,None,s,0,1.4480465940000613,880.517609519,None,880.517609519,None,880.517609519,None,882.0197249459998,None,882.0197249459998,None,882.0197249459998,None,882.0197249459998,None,,,,,,,,,,,,,,,,,,,,,,,,,,,,,,,,,,,,,,,,,,,,001,129,2020_Feb_18_0931,spring_faces,3.1.5,60.010283242142414,
condition files/Stage2_1.xlsx,,T5,B5,s,"['s', 'r']","['Stratego', 'Risk']","[-0.15, 0.5]","[0.15, 0.5]",1,1,,,,,,,,,,,,,,,,,0,0,0,0,0,2,2,0,,,,,,,,,,,,,,,,,,,,,,,,,,,,,,,,,,,,,,,,,,,,,,,883.9841078659997,None,883.9841078659997,None,883.9841078659997,None,s,1,1.4709962150000138,885.5346677699999,None,885.5346677699999,None,885.5346677699999,None,887.085035001,None,887.085035001,None,887.085035001,None,887.085035001,None,,,,,,,,,,,,,,,,,,,,,,,,,,,,,,,,,,,,,,,,,,,,001,129,2020_Feb_18_0931,spring_faces,3.1.5,60.010283242142414,
condition files/Stage2_1.xlsx,,T1,B1,s,"['s', 'r']","['Stratego', 'Risk']","[-0.15, 0.5]","[0.15, 0.5]",1,1,,,,,,,,,,,,,,,,,0,0,0,0,0,3,3,2,,,,,,,,,,,,,,,,,,,,,,,,,,,,,,,,,,,,,,,,,,,,,,,889.0345291919998,None,889.0345291919998,None,889.0345291919998,None,r,0,0.7414762070002325,890.5682687159997,None,890.5682687159997,None,890.5682687159997,None,891.368202745,None,891.368202745,None,891.368202745,None,891.368202745,None,,,,,,,,,,,,,,,,,,,,,,,,,,,,,,,,,,,,,,,,,,,,001,129,2020_Feb_18_0931,spring_faces,3.1.5,60.010283242142414,
condition files/Stage2_1.xlsx,,B4,T4,r,"['s', 'r']","['Stratego', 'Risk']","[-0.15, 0.5]","[0.15, 0.5]",1,1,,,,,,,,,,,,,,,,,0,0,0,0,0,4,4,5,,,,,,,,,,,,,,,,,,,,,,,,,,,,,,,,,,,,,,,,,,,,,,,893.3342094079999,None,893.3342094079999,None,893.3342094079999,None,s,0,0.9369826980000653,894.8846911639998,None,894.8846911639998,None,894.8846911639998,None,895.8863059599998,None,895.8863059599998,None,895.8863059599998,None,895.8863059599998,None,,,,,,,,,,,,,,,,,,,,,,,,,,,,,,,,,,,,,,,,,,,,001,129,2020_Feb_18_0931,spring_faces,3.1.5,60.010283242142414,
condition files/Stage2_1.xlsx,,B2,T2,r,"['s', 'r']","['Stratego', 'Risk']","[-0.15, 0.5]","[0.15, 0.5]",1,1,,,,,,,,,,,,,,,,,0,0,0,0,0,5,5,3,,,,,,,,,,,,,,,,,,,,,,,,,,,,,,,,,,,,,,,,,,,,,,,897.8513359799999,None,897.8513359799999,None,897.8513359799999,None,r,1,0.72382747499978,899.3859241330001,None,899.3859241330001,None,899.3859241330001,None,900.1679118329998,None,900.1679118329998,None,900.1679118329998,None,900.1679118329998,None,,,,,,,,,,,,,,,,,,,,,,,,,,,,,,,,,,,,,,,,,,,,001,129,2020_Feb_18_0931,spring_faces,3.1.5,60.010283242142414,
condition files/Stage2_2.xlsx,,T2,B2,r,"['s', 'r']","['Stratego', 'Risk']","[-0.15, 0.5]","[0.15, 0.5]",1,1,,,,,,,,,,,,,,,,,0,1,1,1,0,0,0,3,,,,,,,,,,,,,,,,,,,,,,,,,,,,,,,,,,,,,,,,,,,,,,,902.1506156380001,None,902.1506156380001,None,902.1506156380001,None,r,1,0.424360589999651,903.7013799649999,None,903.7013799649999,None,903.7013799649999,None,904.1844396709998,None,904.1844396709998,None,904.1844396709998,None,904.1844396709998,None,,,,,,,,,,,,,,,,,,,,,,,,,,,,,,,,,,,,,,,,,,,,001,129,2020_Feb_18_0931,spring_faces,3.1.5,60.010283242142414,
condition files/Stage2_2.xlsx,,B1,T1,s,"['s', 'r']","['Stratego', 'Risk']","[-0.15, 0.5]","[0.15, 0.5]",1,1,,,,,,,,,,,,,,,,,0,1,1,1,0,1,1,2,,,,,,,,,,,,,,,,,,,,,,,,,,,,,,,,,,,,,,,,,,,,,,,906.1511320569998,None,906.1511320569998,None,906.1511320569998,None,s,1,0.8724370480003927,907.7012260199999,None,907.7012260199999,None,907.7012260199999,None,908.6513206589998,None,908.6513206589998,None,908.6513206589998,None,908.6513206589998,None,,,,,,,,,,,,,,,,,,,,,,,,,,,,,,,,,,,,,,,,,,,,001,129,2020_Feb_18_0931,spring_faces,3.1.5,60.010283242142414,
condition files/Stage2_2.xlsx,,T6,B6,r,"['s', 'r']","['Stratego', 'Risk']","[-0.15, 0.5]","[0.15, 0.5]",1,1,,,,,,,,,,,,,,,,,0,1,1,1,0,2,2,1,,,,,,,,,,,,,,,,,,,,,,,,,,,,,,,,,,,,,,,,,,,,,,,910.6009990130001,None,910.6009990130001,None,910.6009990130001,None,s,0,1.1565783599999122,912.1371736809997,None,912.1371736809997,None,912.1371736809997,None,913.3525567849997,None,913.3525567849997,None,913.3525567849997,None,913.3525567849997,None,,,,,,,,,,,,,,,,,,,,,,,,,,,,,,,,,,,,,,,,,,,,001,129,2020_Feb_18_0931,spring_faces,3.1.5,60.010283242142414,
condition files/Stage2_2.xlsx,,B3,T3,s,"['s', 'r']","['Stratego', 'Risk']","[-0.15, 0.5]","[0.15, 0.5]",1,1,,,,,,,,,,,,,,,,,0,1,1,1,0,3,3,4,,,,,,,,,,,,,,,,,,,,,,,,,,,,,,,,,,,,,,,,,,,,,,,915.3178730909999,None,915.3178730909999,None,915.3178730909999,None,r,0,0.6978242690001935,916.8678326039999,None,916.8678326039999,None,916.8678326039999,None,917.6346554759998,None,917.6346554759998,None,917.6346554759998,None,917.6346554759998,None,,,,,,,,,,,,,,,,,,,,,,,,,,,,,,,,,,,,,,,,,,,,001,129,2020_Feb_18_0931,spring_faces,3.1.5,60.010283242142414,
condition files/Stage2_2.xlsx,,T4,B4,r,"['s', 'r']","['Stratego', 'Risk']","[-0.15, 0.5]","[0.15, 0.5]",1,1,,,,,,,,,,,,,,,,,0,1,1,1,0,4,4,5,,,,,,,,,,,,,,,,,,,,,,,,,,,,,,,,,,,,,,,,,,,,,,,919.5844972330001,None,919.5844972330001,None,919.5844972330001,None,r,1,0.5270401580000907,921.1347347329997,None,921.1347347329997,None,921.1347347329997,None,921.7197898009999,None,921.7197898009999,None,921.7197898009999,None,921.7197898009999,None,,,,,,,,,,,,,,,,,,,,,,,,,,,,,,,,,,,,,,,,,,,,001,129,2020_Feb_18_0931,spring_faces,3.1.5,60.010283242142414,
condition files/Stage2_2.xlsx,,B5,T5,s,"['s', 'r']","['Stratego', 'Risk']","[-0.15, 0.5]","[0.15, 0.5]",1,1,,,,,,,,,,,,,,,,,0,1,1,1,0,5,5,0,,,,,,,,,,,,,,,,,,,,,,,,,,,,,,,,,,,,,,,,,,,,,,,923.684347036,None,923.684347036,None,923.684347036,None,s,1,0.619020657999954,925.21866585,None,925.21866585,None,925.21866585,None,925.9183867030001,None,925.9183867030001,None,925.9183867030001,None,925.9183867030001,None,,,,,,,,,,,,,,,,,,,,,,,,,,,,,,,,,,,,,,,,,,,,001,129,2020_Feb_18_0931,spring_faces,3.1.5,60.010283242142414,
condition files/Stage2_1.xlsx,,B4,T4,r,"['s', 'r']","['Stratego', 'Risk']","[-0.15, 0.5]","[0.15, 0.5]",1,1,,,,,,,,,,,,,,,,,0,2,2,2,0,0,0,5,,,,,,,,,,,,,,,,,,,,,,,,,,,,,,,,,,,,,,,,,,,,,,,927.884232165,None,927.884232165,None,927.884232165,None,r,1,0.7225711169999158,929.4191893309999,None,929.4191893309999,None,929.4191893309999,None,930.2037693919997,None,930.2037693919997,None,930.2037693919997,None,930.2037693919997,None,,,,,,,,,,,,,,,,,,,,,,,,,,,,,,,,,,,,,,,,,,,,001,129,2020_Feb_18_0931,spring_faces,3.1.5,60.010283242142414,
condition files/Stage2_1.xlsx,,T3,B3,s,"['s', 'r']","['Stratego', 'Risk']","[-0.15, 0.5]","[0.15, 0.5]",1,1,,,,,,,,,,,,,,,,,0,2,2,2,0,1,1,4,,,,,,,,,,,,,,,,,,,,,,,,,,,,,,,,,,,,,,,,,,,,,,,932.167834116,None,932.167834116,None,932.167834116,None,s,1,0.3115566649998982,933.7180692269999,None,933.7180692269999,None,933.7180692269999,None,934.1013990609999,None,934.1013990609999,None,934.1013990609999,None,934.1013990609999,None,,,,,,,,,,,,,,,,,,,,,,,,,,,,,,,,,,,,,,,,,,,,001,129,2020_Feb_18_0931,spring_faces,3.1.5,60.010283242142414,
condition files/Stage2_1.xlsx,,T5,B5,s,"['s', 'r']","['Stratego', 'Risk']","[-0.15, 0.5]","[0.15, 0.5]",1,1,,,,,,,,,,,,,,,,,0,2,2,2,0,2,2,0,,,,,,,,,,,,,,,,,,,,,,,,,,,,,,,,,,,,,,,,,,,,,,,936.0513506459997,None,936.0513506459997,None,936.0513506459997,None,r,0,0.6210031640002853,937.5846900679999,None,937.5846900679999,None,937.5846900679999,None,938.267866405,None,938.267866405,None,938.267866405,None,938.267866405,None,,,,,,,,,,,,,,,,,,,,,,,,,,,,,,,,,,,,,,,,,,,,001,129,2020_Feb_18_0931,spring_faces,3.1.5,60.010283242142414,
condition files/Stage2_1.xlsx,,B6,T6,r,"['s', 'r']","['Stratego', 'Risk']","[-0.15, 0.5]","[0.15, 0.5]",1,1,,,,,,,,,,,,,,,,,0,2,2,2,0,3,3,1,,,,,,,,,,,,,,,,,,,,,,,,,,,,,,,,,,,,,,,,,,,,,,,940.235055952,None,940.235055952,None,940.235055952,None,s,0,0.4853951700001744,941.768277953,None,941.768277953,None,941.768277953,None,942.318723334,None,942.318723334,None,942.318723334,None,942.318723334,None,,,,,,,,,,,,,,,,,,,,,,,,,,,,,,,,,,,,,,,,,,,,001,129,2020_Feb_18_0931,spring_faces,3.1.5,60.010283242142414,
condition files/Stage2_1.xlsx,,T1,B1,s,"['s', 'r']","['Stratego', 'Risk']","[-0.15, 0.5]","[0.15, 0.5]",1,1,,,,,,,,,,,,,,,,,0,2,2,2,0,4,4,2,,,,,,,,,,,,,,,,,,,,,,,,,,,,,,,,,,,,,,,,,,,,,,,944.2843838099998,None,944.2843838099998,None,944.2843838099998,None,r,0,0.24319925999998304,945.818540539,None,945.818540539,None,945.818540539,None,946.1190884110001,None,946.1190884110001,None,946.1190884110001,None,946.1190884110001,None,,,,,,,,,,,,,,,,,,,,,,,,,,,,,,,,,,,,,,,,,,,,001,129,2020_Feb_18_0931,spring_faces,3.1.5,60.010283242142414,
condition files/Stage2_1.xlsx,,B2,T2,r,"['s', 'r']","['Stratego', 'Risk']","[-0.15, 0.5]","[0.15, 0.5]",1,1,,,,,,,,,,,,,,,,,0,2,2,2,0,5,5,3,,,,,,,,,,,,,,,,,,,,,,,,,,,,,,,,,,,,,,,,,,,,,,,948.0838367359997,None,948.0838367359997,None,948.0838367359997,None,r,1,0.29780906099995264,949.6198710029998,None,949.6198710029998,None,949.6198710029998,None,949.969853777,None,949.969853777,None,949.969853777,None,949.969853777,None,,,,,,,,,,,,,,,,,,,,,,,,,,,,,,,,,,,,,,,,,,,,001,129,2020_Feb_18_0931,spring_faces,3.1.5,60.010283242142414,
condition files/Stage2_2.xlsx,,B3,T3,s,"['s', 'r']","['Stratego', 'Risk']","[-0.15, 0.5]","[0.15, 0.5]",1,1,,,,,,,,,,,,,,,,,0,3,3,3,0,0,0,4,,,,,,,,,,,,,,,,,,,,,,,,,,,,,,,,,,,,,,,,,,,,,,,951.951205721,None,951.951205721,None,951.951205721,None,s,1,0.27236597799992524,953.501376399,None,953.501376399,None,953.501376399,None,953.836571459,None,953.836571459,None,953.836571459,None,953.836571459,None,,,,,,,,,,,,,,,,,,,,,,,,,,,,,,,,,,,,,,,,,,,,001,129,2020_Feb_18_0931,spring_faces,3.1.5,60.010283242142414,
condition files/Stage2_2.xlsx,,T2,B2,r,"['s', 'r']","['Stratego', 'Risk']","[-0.15, 0.5]","[0.15, 0.5]",1,1,,,,,,,,,,,,,,,,,0,3,3,3,0,1,1,3,,,,,,,,,,,,,,,,,,,,,,,,,,,,,,,,,,,,,,,,,,,,,,,955.8012089469999,None,955.8012089469999,None,955.8012089469999,None,s,0,0.7902720020001652,957.351460887,None,957.351460887,None,957.351460887,None,958.2180124649999,None,958.2180124649999,None,958.2180124649999,None,958.2180124649999,None,,,,,,,,,,,,,,,,,,,,,,,,,,,,,,,,,,,,,,,,,,,,001,129,2020_Feb_18_0931,spring_faces,3.1.5,60.010283242142414,
condition files/Stage2_2.xlsx,,B5,T5,s,"['s', 'r']","['Stratego', 'Risk']","[-0.15, 0.5]","[0.15, 0.5]",1,1,,,,,,,,,,,,,,,,,0,3,3,3,0,2,2,0,,,,,,,,,,,,,,,,,,,,,,,,,,,,,,,,,,,,,,,,,,,,,,,960.1674584069997,None,960.1674584069997,None,960.1674584069997,None,r,0,0.23179155599973456,961.701889858,None,961.701889858,None,961.701889858,None,962.0016468889999,None,962.0016468889999,None,962.0016468889999,None,962.0016468889999,None,,,,,,,,,,,,,,,,,,,,,,,,,,,,,,,,,,,,,,,,,,,,001,129,2020_Feb_18_0931,spring_faces,3.1.5,60.010283242142414,
condition files/Stage2_2.xlsx,,B1,T1,s,"['s', 'r']","['Stratego', 'Risk']","[-0.15, 0.5]","[0.15, 0.5]",1,1,,,,,,,,,,,,,,,,,0,3,3,3,0,3,3,2,,,,,,,,,,,,,,,,,,,,,,,,,,,,,,,,,,,,,,,,,,,,,,,963.950684681,None,963.950684681,None,963.950684681,None,s,1,0.23953448700012814,965.486211421,None,965.486211421,None,965.486211421,None,965.7848074989997,None,965.7848074989997,None,965.7848074989997,None,965.7848074989997,None,,,,,,,,,,,,,,,,,,,,,,,,,,,,,,,,,,,,,,,,,,,,001,129,2020_Feb_18_0931,spring_faces,3.1.5,60.010283242142414,
condition files/Stage2_2.xlsx,,T4,B4,r,"['s', 'r']","['Stratego', 'Risk']","[-0.15, 0.5]","[0.15, 0.5]",1,1,,,,,,,,,,,,,,,,,0,3,3,3,0,4,4,5,,,,,,,,,,,,,,,,,,,,,,,,,,,,,,,,,,,,,,,,,,,,,,,967.7506332459998,None,967.7506332459998,None,967.7506332459998,None,s,0,0.2647975370000495,969.300865407,None,969.300865407,None,969.300865407,None,969.63474348,None,969.63474348,None,969.63474348,None,969.63474348,None,,,,,,,,,,,,,,,,,,,,,,,,,,,,,,,,,,,,,,,,,,,,001,129,2020_Feb_18_0931,spring_faces,3.1.5,60.010283242142414,
condition files/Stage2_2.xlsx,,T6,B6,r,"['s', 'r']","['Stratego', 'Risk']","[-0.15, 0.5]","[0.15, 0.5]",1,1,,,,,,,,,,,,,,,,,0,3,3,3,0,5,5,1,,,,,,,,,,,,,,,,,,,,,,,,,,,,,,,,,,,,,,,,,,,,,,,971.5839450459998,None,971.5839450459998,None,971.5839450459998,None,r,1,0.2879270169996744,973.1177540409999,None,973.1177540409999,None,973.1177540409999,None,973.4681938469998,None,973.4681938469998,None,973.4681938469998,None,973.4681938469998,None,,,,,,,,,,,,,,,,,,,,,,,,,,,,,,,,,,,,,,,,,,,,001,129,2020_Feb_18_0931,spring_faces,3.1.5,60.010283242142414,
condition files/Stage2_1.xlsx,,T3,B3,s,"['s', 'r']","['Stratego', 'Risk']","[-0.15, 0.5]","[0.15, 0.5]",1,1,,,,,,,,,,,,,,,,,0,4,4,4,0,0,0,4,,,,,,,,,,,,,,,,,,,,,,,,,,,,,,,,,,,,,,,,,,,,,,,975.4514862799997,None,975.4514862799997,None,975.4514862799997,None,r,0,0.29231659700008095,976.9853007259999,None,976.9853007259999,None,976.9853007259999,None,977.3514870079998,None,977.3514870079998,None,977.3514870079998,None,977.3514870079998,None,,,,,,,,,,,,,,,,,,,,,,,,,,,,,,,,,,,,,,,,,,,,001,129,2020_Feb_18_0931,spring_faces,3.1.5,60.010283242142414,
condition files/Stage2_1.xlsx,,B2,T2,r,"['s', 'r']","['Stratego', 'Risk']","[-0.15, 0.5]","[0.15, 0.5]",1,1,,,,,,,,,,,,,,,,,0,4,4,4,0,1,1,3,,,,,,,,,,,,,,,,,,,,,,,,,,,,,,,,,,,,,,,,,,,,,,,979.3011074850001,None,979.3011074850001,None,979.3011074850001,None,s,0,0.25017160600009447,980.8514485719998,None,980.8514485719998,None,980.8514485719998,None,981.1678379760001,None,981.1678379760001,None,981.1678379760001,None,981.1678379760001,None,,,,,,,,,,,,,,,,,,,,,,,,,,,,,,,,,,,,,,,,,,,,001,129,2020_Feb_18_0931,spring_faces,3.1.5,60.010283242142414,
condition files/Stage2_1.xlsx,,B6,T6,r,"['s', 'r']","['Stratego', 'Risk']","[-0.15, 0.5]","[0.15, 0.5]",1,1,,,,,,,,,,,,,,,,,0,4,4,4,0,2,2,1,,,,,,,,,,,,,,,,,,,,,,,,,,,,,,,,,,,,,,,,,,,,,,,983.1172994999997,None,983.1172994999997,None,983.1172994999997,None,r,1,0.3538953170000241,984.667775464,None,984.667775464,None,984.667775464,None,985.084604015,None,985.084604015,None,985.084604015,None,985.084604015,None,,,,,,,,,,,,,,,,,,,,,,,,,,,,,,,,,,,,,,,,,,,,001,129,2020_Feb_18_0931,spring_faces,3.1.5,60.010283242142414,
condition files/Stage2_1.xlsx,,T1,B1,s,"['s', 'r']","['Stratego', 'Risk']","[-0.15, 0.5]","[0.15, 0.5]",1,1,,,,,,,,,,,,,,,,,0,4,4,4,0,3,3,2,,,,,,,,,,,,,,,,,,,,,,,,,,,,,,,,,,,,,,,,,,,,,,,987.0512009189997,None,987.0512009189997,None,987.0512009189997,None,s,1,0.6758887649998542,988.5858839459997,None,988.5858839459997,None,988.5858839459997,None,989.3182826789998,None,989.3182826789998,None,989.3182826789998,None,989.3182826789998,None,,,,,,,,,,,,,,,,,,,,,,,,,,,,,,,,,,,,,,,,,,,,001,129,2020_Feb_18_0931,spring_faces,3.1.5,60.010283242142414,
condition files/Stage2_1.xlsx,,T5,B5,s,"['s', 'r']","['Stratego', 'Risk']","[-0.15, 0.5]","[0.15, 0.5]",1,1,,,,,,,,,,,,,,,,,0,4,4,4,0,4,4,0,,,,,,,,,,,,,,,,,,,,,,,,,,,,,,,,,,,,,,,,,,,,,,,991.2839877409997,None,991.2839877409997,None,991.2839877409997,None,r,0,1.178611445000115,992.8190290970001,None,992.8190290970001,None,992.8190290970001,None,994.0514436949998,None,994.0514436949998,None,994.0514436949998,None,994.0514436949998,None,,,,,,,,,,,,,,,,,,,,,,,,,,,,,,,,,,,,,,,,,,,,001,129,2020_Feb_18_0931,spring_faces,3.1.5,60.010283242142414,
