condsFile,subStage,cue1,cue2,correct,responseKeys,responseNames,cue1Position,cue2Position,cue1Opacity,cue2Opacity,stageLoop0.thisRepN,stageLoop0.thisTrialN,stageLoop0.thisN,stageLoop0.thisIndex,blockLoop0.thisRepN,blockLoop0.thisTrialN,blockLoop0.thisN,blockLoop0.thisIndex,stage1Loop.thisRepN,stage1Loop.thisTrialN,stage1Loop.thisN,stage1Loop.thisIndex,blockLoop1.thisRepN,blockLoop1.thisTrialN,blockLoop1.thisN,blockLoop1.thisIndex,stage2Loop.thisRepN,stage2Loop.thisTrialN,stage2Loop.thisN,stage2Loop.thisIndex,blockLoop2.thisRepN,blockLoop2.thisTrialN,blockLoop2.thisN,blockLoop2.thisIndex,testLoop.thisRepN,testLoop.thisTrialN,testLoop.thisN,testLoop.thisIndex,blockLoopTest.thisRepN,blockLoopTest.thisTrialN,blockLoopTest.thisN,blockLoopTest.thisIndex,cuePics,id_instr_text.started,id_instr_text.stopped,space_to_continue_2.started,space_to_continue_2.stopped,end_instructions_resp_3.keys,end_instructions_resp_3.rt,end_instructions_resp_3.started,end_instructions_resp_3.stopped,id_input_instr.started,id_input_instr.stopped,id_input_rect.started,id_input_rect.stopped,id_input_resp.keys,id_input_resp.rt,id_input_resp.started,id_input_resp.stopped,sonaID,id_input_text.started,id_input_text.stopped,final_text.started,final_text.stopped,instructions.started,instructions.stopped,end_instructions_resp.keys,end_instructions_resp.rt,end_instructions_resp.started,end_instructions_resp.stopped,space_to_continue.started,space_to_continue.stopped,instructions_stage0.started,instructions_stage0.stopped,end_instructions_resp_stage0.keys,end_instructions_resp_stage0.rt,end_instructions_resp_stage0.started,end_instructions_resp_stage0.stopped,space_to_continue_stage0.started,space_to_continue_stage0.stopped,text.started,text.stopped,resp_text1.started,resp_text1.stopped,resp_text2.started,resp_text2.stopped,trial_resp.keys,trial_resp.corr,trial_resp.rt,trial_resp.started,trial_resp.stopped,cue1Image.started,cue1Image.stopped,cue2Image.started,cue2Image.stopped,cue1Image_fb.started,cue1Image_fb.stopped,cue2Image_fb.started,cue2Image_fb.stopped,fb_text_answer.started,fb_text_answer.stopped,feedback_image.started,feedback_image.stopped,instructions_stage1.started,instructions_stage1.stopped,end_instructions_resp_stage1.keys,end_instructions_resp_stage1.rt,end_instructions_resp_stage1.started,end_instructions_resp_stage1.stopped,space_to_continue_stage1.started,space_to_continue_stage1.stopped,instructions_2.started,instructions_2.stopped,end_instructions_resp_2.keys,end_instructions_resp_2.rt,end_instructions_resp_2.started,end_instructions_resp_2.stopped,press_space_to_continue_stage2.started,press_space_to_continue_stage2.stopped,instructions_testStage1.started,instructions_testStage1.stopped,end_instructions_resp_test1.keys,end_instructions_resp_test1.rt,end_instructions_resp_test1.started,end_instructions_resp_test1.stopped,press_space_to_continue_test1.started,press_space_to_continue_test1.stopped,cue1Image_testChoice.started,cue1Image_testChoice.stopped,cue2Image_testChoice.started,cue2Image_testChoice.stopped,test_resp.keys,test_resp.corr,test_resp.rt,test_resp.started,test_resp.stopped,cue1Image_testConf.started,cue1Image_testConf.stopped,cue2Image_testConf.started,cue2Image_testConf.stopped,conf_reminder.started,conf_reminder.stopped,conf_rating.response,conf_rating.rt,conf_rating.started,conf_rating.stopped,session,participant,date,expName,psychopyVersion,frameRate,
,,,,,,,,,,,,,,,,,,,,,,,,,,,,,,,,,,,,,,,,,,,"{'none': 'pictures/20M_AN_C.png', 'alpha': 'pictures/SHINEd_apple.png', 'beta': 'pictures/SHINEd_pepper.png', 'theta': 'pictures/SHINEd_melon.png', 'phi': 'pictures/SHINEd_pear.png', 'T1': 'pictures/22M_AN_C.png', 'T2': 'pictures/31M_AN_C.png', 'T3': 'pictures/26M_AN_C.png', 'T4': 'pictures/32M_AN_C.png', 'T5': 'pictures/37M_AN_C.png', 'T6': 'pictures/34M_AN_C.png', 'B1': 'pictures/20M_NE_C.png', 'B2': 'pictures/38M_NE_C.png', 'B3': 'pictures/36M_NE_C.png', 'B4': 'pictures/23M_NE_C.png', 'B5': 'pictures/33M_NE_C.png', 'B6': 'pictures/25M_NE_C.png'}",16.836626349000653,None,21.837214971999856,None,space,713.3688938449995,21.837214971999856,None,,,,,,,,,,,,,,,,,,,,,,,,,,,,,,,,,,,,,,,,,,,,,,,,,,,,,,,,,,,,,,,,,,,,,,,,,,,,,,,,,,,,,,,,,,,,,,,,001,132,2020_Feb_18_1047,spring_faces,3.1.5,59.98379525781263,
,,,,,,,,,,,,,,,,,,,,,,,,,,,,,,,,,,,,,,,,,,,,,,,,,,,,735.6373302729999,None,735.6373302729999,None,"['0', '3', '1', '9', 'b', 'i', 's', 'h', 'backspace', 'backspace', 'backspace', 'backspace', 'j', 'e', 'b', 'i', 's', '0', '3', '1', '9', 'j', 'e', 'b', 'i', 's', '0', '3', '1', '9', 'j', 'e', 'b', 'i', 's']","[7.520831138000176, 8.304826489000334, 24.064799792000485, 24.416833097000563, 33.504811361000066, 33.98474635999992, 34.38477510099983, 34.960781642000256, 46.09672635700008, 59.04081027900065, 59.58474222299992, 59.95279658900017, 62.480797520000124, 62.912832755000636, 64.80077442499987, 65.2488342229999, 65.76080619100048, 76.76875457400001, 77.20077972800027, 77.90481550999993, 78.44883019600002, 79.5847722440003, 83.39277935500013, 84.83281058100056, 85.36081113399996, 85.68079958900034, 101.1688009440004, 101.44074561900015, 102.17685970399998, 102.36877468700004, 103.74478722700042, 103.888833944, 104.24085028599984, 104.57686875099989, 104.75281384400023]",735.6373302729999,None,,,,,,,,,,,,,,,,,,,,,,,,,,,,,,,,,,,,,,,,,,,,,,,,,,,,,,,,,,,,,,,,,,,,,,,,,,,,,,,,,,,,,,,,001,132,2020_Feb_18_1047,spring_faces,3.1.5,59.98379525781263,
,,,,,,,,,,,,,,,,,,,,,,,,,,,,,,,,,,,,,,,,,,,,,,,,,,,,,,,,,,,,0319jebis,735.6373302729999,None,735.6373302729999,None,845.4706770580005,None,space,2.303647588999411,850.4705279030004,None,,,,,,,,,,,,,,,,,,,,,,,,,,,,,,,,,,,,,,,,,,,,,,,,,,,,,,,,,,,,,,,,,,,,,,,,,,,,,001,132,2020_Feb_18_1047,spring_faces,3.1.5,59.98379525781263,
,,,,,,,,,,,,,,,,,,,,,,,,,,,,,,,,,,,,,,,,,,,,,,,,,,,,,,,,,,,,,,,,,,,,,,,850.4705279030004,None,852.8206595760003,None,space,7.385946976000014,857.8202161250001,None,,,,,,,,,,,,,,,,,,,,,,,,,,,,,,,,,,,,,,,,,,,,,,,,,,,,,,,,,,,,,,,,,,,,,001,132,2020_Feb_18_1047,spring_faces,3.1.5,59.98379525781263,
condition files/Stage0a.xlsx,0a,beta,none,g,"['h', 'g']","['Chess', 'Go']","[0, 0.5]","[0, 0]",1,0,0,0,0,0,0,0,0,1,,,,,,,,,,,,,,,,,,,,,,,,,,,,,,,,,,,,,,,,,,,,,,,,,,,,,,,,,,,,,857.8202161250001,None,865.3206743040009,None,865.3206743040009,None,865.3206743040009,None,g,1,2.574513293000564,866.9037056140005,None,866.9037056140005,None,866.9037056140005,None,869.5540453459998,None,869.5540453459998,None,869.5540453459998,None,869.5540453459998,None,,,,,,,,,,,,,,,,,,,,,,,,,,,,,,,,,,,,,,,,,,,,001,132,2020_Feb_18_1047,spring_faces,3.1.5,59.98379525781263,
condition files/Stage0a.xlsx,0a,alpha,none,h,"['h', 'g']","['Chess', 'Go']","[0, 0.5]","[0, 0]",1,0,0,0,0,0,0,1,1,0,,,,,,,,,,,,,,,,,,,,,,,,,,,,,,,,,,,,,,,,,,,,,,,,,,,,,,,,,,,,,,,871.5032200620008,None,871.5032200620008,None,871.5032200620008,None,g,0,1.670370906998869,873.039806611001,None,873.039806611001,None,873.039806611001,None,874.7703372220003,None,874.7703372220003,None,874.7703372220003,None,874.7703372220003,None,,,,,,,,,,,,,,,,,,,,,,,,,,,,,,,,,,,,,,,,,,,,001,132,2020_Feb_18_1047,spring_faces,3.1.5,59.98379525781263,
condition files/Stage0a.xlsx,0a,beta,none,g,"['h', 'g']","['Chess', 'Go']","[0, 0.5]","[0, 0]",1,0,0,1,1,1,0,0,0,1,,,,,,,,,,,,,,,,,,,,,,,,,,,,,,,,,,,,,,,,,,,,,,,,,,,,,,,,,,,,,,,876.7538677450011,None,876.7538677450011,None,876.7538677450011,None,g,1,0.9503673230010463,878.2877665100004,None,878.2877665100004,None,878.2877665100004,None,879.3035141399996,None,879.3035141399996,None,879.3035141399996,None,879.3035141399996,None,,,,,,,,,,,,,,,,,,,,,,,,,,,,,,,,,,,,,,,,,,,,001,132,2020_Feb_18_1047,spring_faces,3.1.5,59.98379525781263,
condition files/Stage0a.xlsx,0a,alpha,none,h,"['h', 'g']","['Chess', 'Go']","[0, 0.5]","[0, 0]",1,0,0,1,1,1,0,1,1,0,,,,,,,,,,,,,,,,,,,,,,,,,,,,,,,,,,,,,,,,,,,,,,,,,,,,,,,,,,,,,,,881.2706574620006,None,881.2706574620006,None,881.2706574620006,None,h,1,0.5308454699988943,882.8032389790005,None,882.8032389790005,None,882.8032389790005,None,883.387349785,None,883.387349785,None,883.387349785,None,883.387349785,None,,,,,,,,,,,,,,,,,,,,,,,,,,,,,,,,,,,,,,,,,,,,001,132,2020_Feb_18_1047,spring_faces,3.1.5,59.98379525781263,
condition files/Stage0a.xlsx,0a,beta,none,g,"['h', 'g']","['Chess', 'Go']","[0, 0.5]","[0, 0]",1,0,0,2,2,2,0,0,0,1,,,,,,,,,,,,,,,,,,,,,,,,,,,,,,,,,,,,,,,,,,,,,,,,,,,,,,,,,,,,,,,885.3705181360001,None,885.3705181360001,None,885.3705181360001,None,g,1,0.6867597180007579,886.9034064759999,None,886.9034064759999,None,886.9034064759999,None,887.6535297110004,None,887.6535297110004,None,887.6535297110004,None,887.6535297110004,None,,,,,,,,,,,,,,,,,,,,,,,,,,,,,,,,,,,,,,,,,,,,001,132,2020_Feb_18_1047,spring_faces,3.1.5,59.98379525781263,
condition files/Stage0a.xlsx,0a,alpha,none,h,"['h', 'g']","['Chess', 'Go']","[0, 0.5]","[0, 0]",1,0,0,2,2,2,0,1,1,0,,,,,,,,,,,,,,,,,,,,,,,,,,,,,,,,,,,,,,,,,,,,,,,,,,,,,,,,,,,,,,,889.6201103469994,None,889.6201103469994,None,889.6201103469994,None,h,1,0.6123856350004644,891.1537420029999,None,891.1537420029999,None,891.1537420029999,None,891.8201305229995,None,891.8201305229995,None,891.8201305229995,None,891.8201305229995,None,,,,,,,,,,,,,,,,,,,,,,,,,,,,,,,,,,,,,,,,,,,,001,132,2020_Feb_18_1047,spring_faces,3.1.5,59.98379525781263,
condition files/Stage0a.xlsx,0a,alpha,none,h,"['h', 'g']","['Chess', 'Go']","[0, 0.5]","[0, 0]",1,0,0,3,3,3,0,0,0,0,,,,,,,,,,,,,,,,,,,,,,,,,,,,,,,,,,,,,,,,,,,,,,,,,,,,,,,,,,,,,,,893.8037171340002,None,893.8037171340002,None,893.8037171340002,None,h,1,0.6535544030011806,895.3366414610009,None,895.3366414610009,None,895.3366414610009,None,896.0539376880006,None,896.0539376880006,None,896.0539376880006,None,896.0539376880006,None,,,,,,,,,,,,,,,,,,,,,,,,,,,,,,,,,,,,,,,,,,,,001,132,2020_Feb_18_1047,spring_faces,3.1.5,59.98379525781263,
condition files/Stage0a.xlsx,0a,beta,none,g,"['h', 'g']","['Chess', 'Go']","[0, 0.5]","[0, 0]",1,0,0,3,3,3,0,1,1,1,,,,,,,,,,,,,,,,,,,,,,,,,,,,,,,,,,,,,,,,,,,,,,,,,,,,,,,,,,,,,,,898.0203556010001,None,898.0203556010001,None,898.0203556010001,None,g,1,0.5486788790003629,899.5534800950009,None,899.5534800950009,None,899.5534800950009,None,900.1541768999996,None,900.1541768999996,None,900.1541768999996,None,900.1541768999996,None,,,,,,,,,,,,,,,,,,,,,,,,,,,,,,,,,,,,,,,,,,,,001,132,2020_Feb_18_1047,spring_faces,3.1.5,59.98379525781263,
condition files/Stage0a.xlsx,0a,alpha,none,h,"['h', 'g']","['Chess', 'Go']","[0, 0.5]","[0, 0]",1,0,0,4,4,4,0,0,0,0,,,,,,,,,,,,,,,,,,,,,,,,,,,,,,,,,,,,,,,,,,,,,,,,,,,,,,,,,,,,,,,902.1368587750003,None,902.1368587750003,None,902.1368587750003,None,h,1,0.7355405040016194,903.6706228010007,None,903.6706228010007,None,903.6706228010007,None,904.4711972320001,None,904.4711972320001,None,904.4711972320001,None,904.4711972320001,None,,,,,,,,,,,,,,,,,,,,,,,,,,,,,,,,,,,,,,,,,,,,001,132,2020_Feb_18_1047,spring_faces,3.1.5,59.98379525781263,
condition files/Stage0a.xlsx,0a,beta,none,g,"['h', 'g']","['Chess', 'Go']","[0, 0.5]","[0, 0]",1,0,0,4,4,4,0,1,1,1,,,,,,,,,,,,,,,,,,,,,,,,,,,,,,,,,,,,,,,,,,,,,,,,,,,,,,,,,,,,,,,906.4374513820003,None,906.4374513820003,None,906.4374513820003,None,g,1,0.6279516970007535,907.9702020690002,None,907.9702020690002,None,907.9702020690002,None,908.6543634150003,None,908.6543634150003,None,908.6543634150003,None,908.6543634150003,None,,,,,,,,,,,,,,,,,,,,,,,,,,,,,,,,,,,,,,,,,,,,001,132,2020_Feb_18_1047,spring_faces,3.1.5,59.98379525781263,
condition files/Stage0a.xlsx,0a,beta,none,g,"['h', 'g']","['Chess', 'Go']","[0, 0.5]","[0, 0]",1,0,0,5,5,5,0,0,0,1,,,,,,,,,,,,,,,,,,,,,,,,,,,,,,,,,,,,,,,,,,,,,,,,,,,,,,,,,,,,,,,910.6373819370001,None,910.6373819370001,None,910.6373819370001,None,g,1,0.5553441690008185,912.1708331539994,None,912.1708331539994,None,912.1708331539994,None,912.7873067529999,None,912.7873067529999,None,912.7873067529999,None,912.7873067529999,None,,,,,,,,,,,,,,,,,,,,,,,,,,,,,,,,,,,,,,,,,,,,001,132,2020_Feb_18_1047,spring_faces,3.1.5,59.98379525781263,
condition files/Stage0a.xlsx,0a,alpha,none,h,"['h', 'g']","['Chess', 'Go']","[0, 0.5]","[0, 0]",1,0,0,5,5,5,0,1,1,0,,,,,,,,,,,,,,,,,,,,,,,,,,,,,,,,,,,,,,,,,,,,,,,,,,,,,,,,,,,,,,,914.7539072640011,None,914.7539072640011,None,914.7539072640011,None,h,1,0.5031703029999335,916.2869839779996,None,916.2869839779996,None,916.2869839779996,None,916.8537167760005,None,916.8537167760005,None,916.8537167760005,None,916.8537167760005,None,,,,,,,,,,,,,,,,,,,,,,,,,,,,,,,,,,,,,,,,,,,,001,132,2020_Feb_18_1047,spring_faces,3.1.5,59.98379525781263,
condition files/Stage0b_1.xlsx,0b,alpha,none,h,"['h', 'g']","['Chess', 'Go']","[-0.15, 0.5]","[0.15, 0.5]",1,0,0,6,6,6,0,0,0,0,,,,,,,,,,,,,,,,,,,,,,,,,,,,,,,,,,,,,,,,,,,,,,,,,,,,,,,,,,,,,,,918.8373761860003,None,918.8373761860003,None,918.8373761860003,None,g,0,1.6517646620013693,920.3703594849994,None,920.3703594849994,None,920.3703594849994,None,922.0866256230001,None,922.0866256230001,None,922.0866256230001,None,922.0866256230001,None,,,,,,,,,,,,,,,,,,,,,,,,,,,,,,,,,,,,,,,,,,,,001,132,2020_Feb_18_1047,spring_faces,3.1.5,59.98379525781263,
condition files/Stage0b_1.xlsx,0b,none,beta,g,"['h', 'g']","['Chess', 'Go']","[-0.15, 0.5]","[0.15, 0.5]",0,1,0,6,6,6,0,1,1,1,,,,,,,,,,,,,,,,,,,,,,,,,,,,,,,,,,,,,,,,,,,,,,,,,,,,,,,,,,,,,,,924.0539794220003,None,924.0539794220003,None,924.0539794220003,None,g,1,0.7832197080006154,925.5909455540004,None,925.5909455540004,None,925.5909455540004,None,926.4534915580007,None,926.4534915580007,None,926.4534915580007,None,926.4534915580007,None,,,,,,,,,,,,,,,,,,,,,,,,,,,,,,,,,,,,,,,,,,,,001,132,2020_Feb_18_1047,spring_faces,3.1.5,59.98379525781263,
condition files/Stage0b_2.xlsx,0b,beta,none,g,"['h', 'g']","['Chess', 'Go']","[-0.15, 0.5]","[0.15, 0.5]",1,0,0,7,7,7,0,0,0,1,,,,,,,,,,,,,,,,,,,,,,,,,,,,,,,,,,,,,,,,,,,,,,,,,,,,,,,,,,,,,,,928.4206254929995,None,928.4206254929995,None,928.4206254929995,None,g,1,0.7667589730008331,929.9594096460005,None,929.9594096460005,None,929.9594096460005,None,930.787301755001,None,930.787301755001,None,930.787301755001,None,930.787301755001,None,,,,,,,,,,,,,,,,,,,,,,,,,,,,,,,,,,,,,,,,,,,,001,132,2020_Feb_18_1047,spring_faces,3.1.5,59.98379525781263,
condition files/Stage0b_2.xlsx,0b,none,alpha,h,"['h', 'g']","['Chess', 'Go']","[-0.15, 0.5]","[0.15, 0.5]",0,1,0,7,7,7,0,1,1,0,,,,,,,,,,,,,,,,,,,,,,,,,,,,,,,,,,,,,,,,,,,,,,,,,,,,,,,,,,,,,,,932.753312244,None,932.753312244,None,932.753312244,None,h,1,0.6754238749999786,934.2907267829996,None,934.2907267829996,None,934.2907267829996,None,935.02022364,None,935.02022364,None,935.02022364,None,935.02022364,None,,,,,,,,,,,,,,,,,,,,,,,,,,,,,,,,,,,,,,,,,,,,001,132,2020_Feb_18_1047,spring_faces,3.1.5,59.98379525781263,
condition files/Stage0b_1.xlsx,0b,none,beta,g,"['h', 'g']","['Chess', 'Go']","[-0.15, 0.5]","[0.15, 0.5]",0,1,0,8,8,8,0,0,0,1,,,,,,,,,,,,,,,,,,,,,,,,,,,,,,,,,,,,,,,,,,,,,,,,,,,,,,,,,,,,,,,937.004067025,None,937.004067025,None,937.004067025,None,g,1,1.0686680790004175,938.5374902910007,None,938.5374902910007,None,938.5374902910007,None,939.6706202410005,None,939.6706202410005,None,939.6706202410005,None,939.6706202410005,None,,,,,,,,,,,,,,,,,,,,,,,,,,,,,,,,,,,,,,,,,,,,001,132,2020_Feb_18_1047,spring_faces,3.1.5,59.98379525781263,
condition files/Stage0b_1.xlsx,0b,alpha,none,h,"['h', 'g']","['Chess', 'Go']","[-0.15, 0.5]","[0.15, 0.5]",1,0,0,8,8,8,0,1,1,0,,,,,,,,,,,,,,,,,,,,,,,,,,,,,,,,,,,,,,,,,,,,,,,,,,,,,,,,,,,,,,,941.6369935029998,None,941.6369935029998,None,941.6369935029998,None,h,1,0.6701527490004082,943.176042956,None,943.176042956,None,943.176042956,None,943.9074966600001,None,943.9074966600001,None,943.9074966600001,None,943.9074966600001,None,,,,,,,,,,,,,,,,,,,,,,,,,,,,,,,,,,,,,,,,,,,,001,132,2020_Feb_18_1047,spring_faces,3.1.5,59.98379525781263,
condition files/Stage0b_2.xlsx,0b,none,alpha,h,"['h', 'g']","['Chess', 'Go']","[-0.15, 0.5]","[0.15, 0.5]",0,1,0,9,9,9,0,0,0,0,,,,,,,,,,,,,,,,,,,,,,,,,,,,,,,,,,,,,,,,,,,,,,,,,,,,,,,,,,,,,,,945.886578134001,None,945.886578134001,None,945.886578134001,None,h,1,0.8089734599998337,947.4211227600008,None,947.4211227600008,None,947.4211227600008,None,948.2870872490003,None,948.2870872490003,None,948.2870872490003,None,948.2870872490003,None,,,,,,,,,,,,,,,,,,,,,,,,,,,,,,,,,,,,,,,,,,,,001,132,2020_Feb_18_1047,spring_faces,3.1.5,59.98379525781263,
condition files/Stage0b_2.xlsx,0b,beta,none,g,"['h', 'g']","['Chess', 'Go']","[-0.15, 0.5]","[0.15, 0.5]",1,0,0,9,9,9,0,1,1,1,,,,,,,,,,,,,,,,,,,,,,,,,,,,,,,,,,,,,,,,,,,,,,,,,,,,,,,,,,,,,,,950.2529878320001,None,950.2529878320001,None,950.2529878320001,None,g,1,0.6668683400002919,951.7872511599999,None,951.7872511599999,None,951.7872511599999,None,952.5064088430008,None,952.5064088430008,None,952.5064088430008,None,952.5064088430008,None,,,,,,,,,,,,,,,,,,,,,,,,,,,,,,,,,,,,,,,,,,,,001,132,2020_Feb_18_1047,spring_faces,3.1.5,59.98379525781263,
condition files/Stage0b_1.xlsx,0b,none,beta,g,"['h', 'g']","['Chess', 'Go']","[-0.15, 0.5]","[0.15, 0.5]",0,1,0,10,10,10,0,0,0,1,,,,,,,,,,,,,,,,,,,,,,,,,,,,,,,,,,,,,,,,,,,,,,,,,,,,,,,,,,,,,,,954.4873657940007,None,954.4873657940007,None,954.4873657940007,None,g,1,1.7918835189993843,956.0223428040008,None,956.0223428040008,None,956.0223428040008,None,957.8707494009996,None,957.8707494009996,None,957.8707494009996,None,957.8707494009996,None,,,,,,,,,,,,,,,,,,,,,,,,,,,,,,,,,,,,,,,,,,,,001,132,2020_Feb_18_1047,spring_faces,3.1.5,59.98379525781263,
condition files/Stage0b_1.xlsx,0b,alpha,none,h,"['h', 'g']","['Chess', 'Go']","[-0.15, 0.5]","[0.15, 0.5]",1,0,0,10,10,10,0,1,1,0,,,,,,,,,,,,,,,,,,,,,,,,,,,,,,,,,,,,,,,,,,,,,,,,,,,,,,,,,,,,,,,959.8370654499995,None,959.8370654499995,None,959.8370654499995,None,h,1,0.9239448670014099,961.370270286001,None,961.370270286001,None,961.370270286001,None,962.3557384320011,None,962.3557384320011,None,962.3557384320011,None,962.3557384320011,None,,,,,,,,,,,,,,,,,,,,,,,,,,,,,,,,,,,,,,,,,,,,001,132,2020_Feb_18_1047,spring_faces,3.1.5,59.98379525781263,
condition files/Stage0b_2.xlsx,0b,none,alpha,h,"['h', 'g']","['Chess', 'Go']","[-0.15, 0.5]","[0.15, 0.5]",0,1,0,11,11,11,0,0,0,0,,,,,,,,,,,,,,,,,,,,,,,,,,,,,,,,,,,,,,,,,,,,,,,,,,,,,,,,,,,,,,,964.3373847189996,None,964.3373847189996,None,964.3373847189996,None,h,1,1.4927828880008747,965.8734018640007,None,965.8734018640007,None,965.8734018640007,None,967.4199890929995,None,967.4199890929995,None,967.4199890929995,None,967.4199890929995,None,,,,,,,,,,,,,,,,,,,,,,,,,,,,,,,,,,,,,,,,,,,,001,132,2020_Feb_18_1047,spring_faces,3.1.5,59.98379525781263,
condition files/Stage0b_2.xlsx,0b,beta,none,g,"['h', 'g']","['Chess', 'Go']","[-0.15, 0.5]","[0.15, 0.5]",1,0,0,11,11,11,0,1,1,1,,,,,,,,,,,,,,,,,,,,,,,,,,,,,,,,,,,,,,,,,,,,,,,,,,,,,,,,,,,,,,,969.3871439579998,None,969.3871439579998,None,969.3871439579998,None,g,1,0.667175333999694,970.9229807570009,None,970.9229807570009,None,970.9229807570009,None,971.6596883410002,None,971.6596883410002,None,971.6596883410002,None,971.6596883410002,None,,,,,,,,,,,,,,,,,,,,,,,,,,,,,,,,,,,,,,,,,,,,001,132,2020_Feb_18_1047,spring_faces,3.1.5,59.98379525781263,
condition files/Stage0c_1.xlsx,0c,theta,alpha,h,"['h', 'g']","['Chess', 'Go']","[-0.15, 0.5]","[0.15, 0.5]",1,1,0,12,12,12,0,0,0,0,,,,,,,,,,,,,,,,,,,,,,,,,,,,,,,,,,,,,,,,,,,,,,,,,,,,,,,,,,,,,,,973.637294696,None,973.637294696,None,973.637294696,None,h,1,1.4115067669990822,975.1706319570003,None,975.1706319570003,None,975.1706319570003,None,976.6368932450005,None,976.6368932450005,None,976.6368932450005,None,976.6368932450005,None,,,,,,,,,,,,,,,,,,,,,,,,,,,,,,,,,,,,,,,,,,,,001,132,2020_Feb_18_1047,spring_faces,3.1.5,59.98379525781263,
condition files/Stage0c_1.xlsx,0c,phi,beta,g,"['h', 'g']","['Chess', 'Go']","[-0.15, 0.5]","[0.15, 0.5]",1,1,0,12,12,12,0,1,1,3,,,,,,,,,,,,,,,,,,,,,,,,,,,,,,,,,,,,,,,,,,,,,,,,,,,,,,,,,,,,,,,978.6038815720003,None,978.6038815720003,None,978.6038815720003,None,h,0,2.0927171950006596,980.1373616100009,None,980.1373616100009,None,980.1373616100009,None,982.2872210810001,None,982.2872210810001,None,982.2872210810001,None,982.2872210810001,None,,,,,,,,,,,,,,,,,,,,,,,,,,,,,,,,,,,,,,,,,,,,001,132,2020_Feb_18_1047,spring_faces,3.1.5,59.98379525781263,
condition files/Stage0c_1.xlsx,0c,beta,theta,g,"['h', 'g']","['Chess', 'Go']","[-0.15, 0.5]","[0.15, 0.5]",1,1,0,12,12,12,0,2,2,2,,,,,,,,,,,,,,,,,,,,,,,,,,,,,,,,,,,,,,,,,,,,,,,,,,,,,,,,,,,,,,,984.2534198880003,None,984.2534198880003,None,984.2534198880003,None,g,1,0.7307746720016439,985.7873555389997,None,985.7873555389997,None,985.7873555389997,None,986.5706199020005,None,986.5706199020005,None,986.5706199020005,None,986.5706199020005,None,,,,,,,,,,,,,,,,,,,,,,,,,,,,,,,,,,,,,,,,,,,,001,132,2020_Feb_18_1047,spring_faces,3.1.5,59.98379525781263,
condition files/Stage0c_1.xlsx,0c,alpha,phi,h,"['h', 'g']","['Chess', 'Go']","[-0.15, 0.5]","[0.15, 0.5]",1,1,0,12,12,12,0,3,3,1,,,,,,,,,,,,,,,,,,,,,,,,,,,,,,,,,,,,,,,,,,,,,,,,,,,,,,,,,,,,,,,988.5372132140001,None,988.5372132140001,None,988.5372132140001,None,h,1,0.6716364700005215,990.0705286369994,None,990.0705286369994,None,990.0705286369994,None,990.8042980720002,None,990.8042980720002,None,990.8042980720002,None,990.8042980720002,None,,,,,,,,,,,,,,,,,,,,,,,,,,,,,,,,,,,,,,,,,,,,001,132,2020_Feb_18_1047,spring_faces,3.1.5,59.98379525781263,
condition files/Stage0c_2.xlsx,0c,beta,phi,g,"['h', 'g']","['Chess', 'Go']","[-0.15, 0.5]","[0.15, 0.5]",1,1,0,13,13,13,0,0,0,3,,,,,,,,,,,,,,,,,,,,,,,,,,,,,,,,,,,,,,,,,,,,,,,,,,,,,,,,,,,,,,,992.7870128430004,None,992.7870128430004,None,992.7870128430004,None,g,1,0.6780262020001828,994.304061791001,None,994.304061791001,None,994.304061791001,None,995.0368330620004,None,995.0368330620004,None,995.0368330620004,None,995.0368330620004,None,,,,,,,,,,,,,,,,,,,,,,,,,,,,,,,,,,,,,,,,,,,,001,132,2020_Feb_18_1047,spring_faces,3.1.5,59.98379525781263,
condition files/Stage0c_2.xlsx,0c,phi,alpha,h,"['h', 'g']","['Chess', 'Go']","[-0.15, 0.5]","[0.15, 0.5]",1,1,0,13,13,13,0,1,1,1,,,,,,,,,,,,,,,,,,,,,,,,,,,,,,,,,,,,,,,,,,,,,,,,,,,,,,,,,,,,,,,997.0038821409998,None,997.0038821409998,None,997.0038821409998,None,h,1,0.4767242010002519,998.5374795339994,None,998.5374795339994,None,998.5374795339994,None,999.0702303020007,None,999.0702303020007,None,999.0702303020007,None,999.0702303020007,None,,,,,,,,,,,,,,,,,,,,,,,,,,,,,,,,,,,,,,,,,,,,001,132,2020_Feb_18_1047,spring_faces,3.1.5,59.98379525781263,
condition files/Stage0c_2.xlsx,0c,theta,beta,g,"['h', 'g']","['Chess', 'Go']","[-0.15, 0.5]","[0.15, 0.5]",1,1,0,13,13,13,0,2,2,2,,,,,,,,,,,,,,,,,,,,,,,,,,,,,,,,,,,,,,,,,,,,,,,,,,,,,,,,,,,,,,,1001.0370726809997,None,1001.0370726809997,None,1001.0370726809997,None,g,1,0.7153293119990849,1002.5708386099996,None,1002.5708386099996,None,1002.5708386099996,None,1003.337438255001,None,1003.337438255001,None,1003.337438255001,None,1003.337438255001,None,,,,,,,,,,,,,,,,,,,,,,,,,,,,,,,,,,,,,,,,,,,,001,132,2020_Feb_18_1047,spring_faces,3.1.5,59.98379525781263,
condition files/Stage0c_2.xlsx,0c,alpha,theta,h,"['h', 'g']","['Chess', 'Go']","[-0.15, 0.5]","[0.15, 0.5]",1,1,0,13,13,13,0,3,3,0,,,,,,,,,,,,,,,,,,,,,,,,,,,,,,,,,,,,,,,,,,,,,,,,,,,,,,,,,,,,,,,1005.3039075329998,None,1005.3039075329998,None,1005.3039075329998,None,h,1,0.7685028380001313,1006.8376326649995,None,1006.8376326649995,None,1006.8376326649995,None,1007.670240630001,None,1007.670240630001,None,1007.670240630001,None,1007.670240630001,None,,,,,,,,,,,,,,,,,,,,,,,,,,,,,,,,,,,,,,,,,,,,001,132,2020_Feb_18_1047,spring_faces,3.1.5,59.98379525781263,
condition files/Stage0c_1.xlsx,0c,phi,beta,g,"['h', 'g']","['Chess', 'Go']","[-0.15, 0.5]","[0.15, 0.5]",1,1,0,14,14,14,0,0,0,3,,,,,,,,,,,,,,,,,,,,,,,,,,,,,,,,,,,,,,,,,,,,,,,,,,,,,,,,,,,,,,,1009.653746295,None,1009.653746295,None,1009.653746295,None,g,1,0.5307862250010658,1011.1873595689995,None,1011.1873595689995,None,1011.1873595689995,None,1011.7705822999997,None,1011.7705822999997,None,1011.7705822999997,None,1011.7705822999997,None,,,,,,,,,,,,,,,,,,,,,,,,,,,,,,,,,,,,,,,,,,,,001,132,2020_Feb_18_1047,spring_faces,3.1.5,59.98379525781263,
condition files/Stage0c_1.xlsx,0c,theta,alpha,h,"['h', 'g']","['Chess', 'Go']","[-0.15, 0.5]","[0.15, 0.5]",1,1,0,14,14,14,0,1,1,0,,,,,,,,,,,,,,,,,,,,,,,,,,,,,,,,,,,,,,,,,,,,,,,,,,,,,,,,,,,,,,,1013.7366715629996,None,1013.7366715629996,None,1013.7366715629996,None,h,1,0.6234722999997757,1015.2706664979996,None,1015.2706664979996,None,1015.2706664979996,None,1015.9539020299999,None,1015.9539020299999,None,1015.9539020299999,None,1015.9539020299999,None,,,,,,,,,,,,,,,,,,,,,,,,,,,,,,,,,,,,,,,,,,,,001,132,2020_Feb_18_1047,spring_faces,3.1.5,59.98379525781263,
condition files/Stage0c_1.xlsx,0c,beta,theta,g,"['h', 'g']","['Chess', 'Go']","[-0.15, 0.5]","[0.15, 0.5]",1,1,0,14,14,14,0,2,2,2,,,,,,,,,,,,,,,,,,,,,,,,,,,,,,,,,,,,,,,,,,,,,,,,,,,,,,,,,,,,,,,1017.9202062229997,None,1017.9202062229997,None,1017.9202062229997,None,g,1,0.5204996100001154,1019.4536756470006,None,1019.4536756470006,None,1019.4536756470006,None,1020.0367059399996,None,1020.0367059399996,None,1020.0367059399996,None,1020.0367059399996,None,,,,,,,,,,,,,,,,,,,,,,,,,,,,,,,,,,,,,,,,,,,,001,132,2020_Feb_18_1047,spring_faces,3.1.5,59.98379525781263,
condition files/Stage0c_1.xlsx,0c,alpha,phi,h,"['h', 'g']","['Chess', 'Go']","[-0.15, 0.5]","[0.15, 0.5]",1,1,0,14,14,14,0,3,3,1,,,,,,,,,,,,,,,,,,,,,,,,,,,,,,,,,,,,,,,,,,,,,,,,,,,,,,,,,,,,,,,1022.0041679050009,None,1022.0041679050009,None,1022.0041679050009,None,h,1,0.5647146599985717,1023.5374415919996,None,1023.5374415919996,None,1023.5374415919996,None,1024.1534742380009,None,1024.1534742380009,None,1024.1534742380009,None,1024.1534742380009,None,,,,,,,,,,,,,,,,,,,,,,,,,,,,,,,,,,,,,,,,,,,,001,132,2020_Feb_18_1047,spring_faces,3.1.5,59.98379525781263,
condition files/Stage0c_2.xlsx,0c,alpha,theta,h,"['h', 'g']","['Chess', 'Go']","[-0.15, 0.5]","[0.15, 0.5]",1,1,0,15,15,15,0,0,0,0,,,,,,,,,,,,,,,,,,,,,,,,,,,,,,,,,,,,,,,,,,,,,,,,,,,,,,,,,,,,,,,1026.1372474359996,None,1026.1372474359996,None,1026.1372474359996,None,g,0,0.47942579699883936,1027.6707260349995,None,1027.6707260349995,None,1027.6707260349995,None,1028.190002972,None,1028.190002972,None,1028.190002972,None,1028.190002972,None,,,,,,,,,,,,,,,,,,,,,,,,,,,,,,,,,,,,,,,,,,,,001,132,2020_Feb_18_1047,spring_faces,3.1.5,59.98379525781263,
condition files/Stage0c_2.xlsx,0c,beta,phi,g,"['h', 'g']","['Chess', 'Go']","[-0.15, 0.5]","[0.15, 0.5]",1,1,0,15,15,15,0,1,1,3,,,,,,,,,,,,,,,,,,,,,,,,,,,,,,,,,,,,,,,,,,,,,,,,,,,,,,,,,,,,,,,1030.1701658900001,None,1030.1701658900001,None,1030.1701658900001,None,g,1,0.5742066420007177,1031.7039971480008,None,1031.7039971480008,None,1031.7039971480008,None,1032.3373688749998,None,1032.3373688749998,None,1032.3373688749998,None,1032.3373688749998,None,,,,,,,,,,,,,,,,,,,,,,,,,,,,,,,,,,,,,,,,,,,,001,132,2020_Feb_18_1047,spring_faces,3.1.5,59.98379525781263,
condition files/Stage0c_2.xlsx,0c,phi,alpha,h,"['h', 'g']","['Chess', 'Go']","[-0.15, 0.5]","[0.15, 0.5]",1,1,0,15,15,15,0,2,2,1,,,,,,,,,,,,,,,,,,,,,,,,,,,,,,,,,,,,,,,,,,,,,,,,,,,,,,,,,,,,,,,1034.303214863001,None,1034.303214863001,None,1034.303214863001,None,h,1,0.5534439780003595,1035.8367012899998,None,1035.8367012899998,None,1035.8367012899998,None,1036.4535023730004,None,1036.4535023730004,None,1036.4535023730004,None,1036.4535023730004,None,,,,,,,,,,,,,,,,,,,,,,,,,,,,,,,,,,,,,,,,,,,,001,132,2020_Feb_18_1047,spring_faces,3.1.5,59.98379525781263,
condition files/Stage0c_2.xlsx,0c,theta,beta,g,"['h', 'g']","['Chess', 'Go']","[-0.15, 0.5]","[0.15, 0.5]",1,1,0,15,15,15,0,3,3,2,,,,,,,,,,,,,,,,,,,,,,,,,,,,,,,,,,,,,,,,,,,,,,,,,,,,,,,,,,,,,,,1038.4206152879997,None,1038.4206152879997,None,1038.4206152879997,None,g,1,0.8680890579998959,1039.9540156679996,None,1039.9540156679996,None,1039.9540156679996,None,1040.8866670400002,None,1040.8866670400002,None,1040.8866670400002,None,1040.8866670400002,None,,,,,,,,,,,,,,,,,,,,,,,,,,,,,,,,,,,,,,,,,,,,001,132,2020_Feb_18_1047,spring_faces,3.1.5,59.98379525781263,
condition files/Stage0c_1.xlsx,0c,phi,beta,g,"['h', 'g']","['Chess', 'Go']","[-0.15, 0.5]","[0.15, 0.5]",1,1,0,16,16,16,0,0,0,3,,,,,,,,,,,,,,,,,,,,,,,,,,,,,,,,,,,,,,,,,,,,,,,,,,,,,,,,,,,,,,,1042.870763842,None,1042.870763842,None,1042.870763842,None,g,1,0.6428740520004794,1044.4033304660006,None,1044.4033304660006,None,1044.4033304660006,None,1045.0878290849996,None,1045.0878290849996,None,1045.0878290849996,None,1045.0878290849996,None,,,,,,,,,,,,,,,,,,,,,,,,,,,,,,,,,,,,,,,,,,,,001,132,2020_Feb_18_1047,spring_faces,3.1.5,59.98379525781263,
condition files/Stage0c_1.xlsx,0c,beta,theta,g,"['h', 'g']","['Chess', 'Go']","[-0.15, 0.5]","[0.15, 0.5]",1,1,0,16,16,16,0,1,1,2,,,,,,,,,,,,,,,,,,,,,,,,,,,,,,,,,,,,,,,,,,,,,,,,,,,,,,,,,,,,,,,1047.070377256001,None,1047.070377256001,None,1047.070377256001,None,g,1,0.82617946100072,1048.603928685001,None,1048.603928685001,None,1048.603928685001,None,1049.47173836,None,1049.47173836,None,1049.47173836,None,1049.47173836,None,,,,,,,,,,,,,,,,,,,,,,,,,,,,,,,,,,,,,,,,,,,,001,132,2020_Feb_18_1047,spring_faces,3.1.5,59.98379525781263,
condition files/Stage0c_1.xlsx,0c,alpha,phi,h,"['h', 'g']","['Chess', 'Go']","[-0.15, 0.5]","[0.15, 0.5]",1,1,0,16,16,16,0,2,2,1,,,,,,,,,,,,,,,,,,,,,,,,,,,,,,,,,,,,,,,,,,,,,,,,,,,,,,,,,,,,,,,1051.4538216250003,None,1051.4538216250003,None,1051.4538216250003,None,h,1,0.746757720999085,1052.9873063150008,None,1052.9873063150008,None,1052.9873063150008,None,1053.7867464890005,None,1053.7867464890005,None,1053.7867464890005,None,1053.7867464890005,None,,,,,,,,,,,,,,,,,,,,,,,,,,,,,,,,,,,,,,,,,,,,001,132,2020_Feb_18_1047,spring_faces,3.1.5,59.98379525781263,
condition files/Stage0c_1.xlsx,0c,theta,alpha,h,"['h', 'g']","['Chess', 'Go']","[-0.15, 0.5]","[0.15, 0.5]",1,1,0,16,16,16,0,3,3,0,,,,,,,,,,,,,,,,,,,,,,,,,,,,,,,,,,,,,,,,,,,,,,,,,,,,,,,,,,,,,,,1055.7535706800008,None,1055.7535706800008,None,1055.7535706800008,None,h,1,0.830663264998293,1057.287474058001,None,1057.287474058001,None,1057.287474058001,None,1058.1564625120009,None,1058.1564625120009,None,1058.1564625120009,None,1058.1564625120009,None,,,,,,,,,,,,,,,,,,,,,,,,,,,,,,,,,,,,,,,,,,,,001,132,2020_Feb_18_1047,spring_faces,3.1.5,59.98379525781263,
condition files/Stage0c_2.xlsx,0c,alpha,theta,h,"['h', 'g']","['Chess', 'Go']","[-0.15, 0.5]","[0.15, 0.5]",1,1,0,17,17,17,0,0,0,0,,,,,,,,,,,,,,,,,,,,,,,,,,,,,,,,,,,,,,,,,,,,,,,,,,,,,,,,,,,,,,,1060.1537975330011,None,1060.1537975330011,None,1060.1537975330011,None,h,1,0.9423887740013015,1061.6877191420008,None,1061.6877191420008,None,1061.6877191420008,None,1062.672427245001,None,1062.672427245001,None,1062.672427245001,None,1062.672427245001,None,,,,,,,,,,,,,,,,,,,,,,,,,,,,,,,,,,,,,,,,,,,,001,132,2020_Feb_18_1047,spring_faces,3.1.5,59.98379525781263,
condition files/Stage0c_2.xlsx,0c,beta,phi,g,"['h', 'g']","['Chess', 'Go']","[-0.15, 0.5]","[0.15, 0.5]",1,1,0,17,17,17,0,1,1,3,,,,,,,,,,,,,,,,,,,,,,,,,,,,,,,,,,,,,,,,,,,,,,,,,,,,,,,,,,,,,,,1064.653723114001,None,1064.653723114001,None,1064.653723114001,None,g,1,0.5708136900011596,1066.18732275,None,1066.18732275,None,1066.18732275,None,1066.820856249,None,1066.820856249,None,1066.820856249,None,1066.820856249,None,,,,,,,,,,,,,,,,,,,,,,,,,,,,,,,,,,,,,,,,,,,,001,132,2020_Feb_18_1047,spring_faces,3.1.5,59.98379525781263,
condition files/Stage0c_2.xlsx,0c,phi,alpha,h,"['h', 'g']","['Chess', 'Go']","[-0.15, 0.5]","[0.15, 0.5]",1,1,0,17,17,17,0,2,2,1,,,,,,,,,,,,,,,,,,,,,,,,,,,,,,,,,,,,,,,,,,,,,,,,,,,,,,,,,,,,,,,1068.7870922390011,None,1068.7870922390011,None,1068.7870922390011,None,h,1,0.7096381029987242,1070.3204494620004,None,1070.3204494620004,None,1070.3204494620004,None,1071.087362313001,None,1071.087362313001,None,1071.087362313001,None,1071.087362313001,None,,,,,,,,,,,,,,,,,,,,,,,,,,,,,,,,,,,,,,,,,,,,001,132,2020_Feb_18_1047,spring_faces,3.1.5,59.98379525781263,
condition files/Stage0c_2.xlsx,0c,theta,beta,g,"['h', 'g']","['Chess', 'Go']","[-0.15, 0.5]","[0.15, 0.5]",1,1,0,17,17,17,0,3,3,2,,,,,,,,,,,,,,,,,,,,,,,,,,,,,,,,,,,,,,,,,,,,,,,,,,,,,,,,,,,,,,,1073.053249445,None,1073.053249445,None,1073.053249445,None,g,1,0.6190701399991667,1074.5870683369994,None,1074.5870683369994,None,1074.5870683369994,None,1075.2705096009995,None,1075.2705096009995,None,1075.2705096009995,None,1075.2705096009995,None,,,,,,,,,,,,,,,,,,,,,,,,,,,,,,,,,,,,,,,,,,,,001,132,2020_Feb_18_1047,spring_faces,3.1.5,59.98379525781263,
,,,,,,,,,,,,,,,,,,,,,,,,,,,,,,,,,,,,,,,,,,,,,,,,,,,,,,,,,,,,,,,,,,,,,,,,,,,,,,,,,,,,,,,,,,,,,,,,,,,,,,,,1077.253985708001,None,space,5.048670060001314,1082.2534858990002,None,,,,,,,,,,,,,,,,,,,,,,,,,,,,,,,,,,,,,,001,132,2020_Feb_18_1047,spring_faces,3.1.5,59.98379525781263,
condition files/Stage1_1.xlsx,,B4,T4,m,"['c', 'm']","['Clue', 'Monopoly']","[-0.15, 0.5]","[0.15, 0.5]",1,1,,,,,,,,,0,0,0,0,0,0,0,7,,,,,,,,,,,,,,,,,,,,,,,,,,,,,,,,,,,,,,,,,,,,,,,,,,,,,,,1087.3535772970008,None,1087.3535772970008,None,1087.3535772970008,None,c,0,1.9190922189991397,1088.8870678790008,None,1088.8870678790008,None,1088.8870678790008,None,1090.8886441480008,None,1090.8886441480008,None,1090.8886441480008,None,1090.8886441480008,None,,,,,,,1082.2534858990002,None,,,,,,,,,,,,,,,,,,,,,,,,,,,,,,,,,,,,001,132,2020_Feb_18_1047,spring_faces,3.1.5,59.98379525781263,
condition files/Stage1_1.xlsx,,B1,T2,c,"['c', 'm']","['Clue', 'Monopoly']","[-0.15, 0.5]","[0.15, 0.5]",1,1,,,,,,,,,0,0,0,0,0,1,1,1,,,,,,,,,,,,,,,,,,,,,,,,,,,,,,,,,,,,,,,,,,,,,,,,,,,,,,,1092.8375552649995,None,1092.8375552649995,None,1092.8375552649995,None,c,1,1.0257193060006102,1094.3724405989997,None,1094.3724405989997,None,1094.3724405989997,None,1095.470684602,None,1095.470684602,None,1095.470684602,None,1095.470684602,None,,,,,,,,,,,,,,,,,,,,,,,,,,,,,,,,,,,,,,,,,,,,001,132,2020_Feb_18_1047,spring_faces,3.1.5,59.98379525781263,
condition files/Stage1_1.xlsx,,B3,T3,c,"['c', 'm']","['Clue', 'Monopoly']","[-0.15, 0.5]","[0.15, 0.5]",1,1,,,,,,,,,0,0,0,0,0,2,2,4,,,,,,,,,,,,,,,,,,,,,,,,,,,,,,,,,,,,,,,,,,,,,,,,,,,,,,,1097.4201912330009,None,1097.4201912330009,None,1097.4201912330009,None,m,0,0.7462437129997852,1099.0198531940005,None,1099.0198531940005,None,1099.0198531940005,None,1099.8211342480008,None,1099.8211342480008,None,1099.8211342480008,None,1099.8211342480008,None,,,,,,,,,,,,,,,,,,,,,,,,,,,,,,,,,,,,,,,,,,,,001,132,2020_Feb_18_1047,spring_faces,3.1.5,59.98379525781263,
condition files/Stage1_1.xlsx,,B2,T1,m,"['c', 'm']","['Clue', 'Monopoly']","[-0.15, 0.5]","[0.15, 0.5]",1,1,,,,,,,,,0,0,0,0,0,3,3,2,,,,,,,,,,,,,,,,,,,,,,,,,,,,,,,,,,,,,,,,,,,,,,,,,,,,,,,1101.7870850220006,None,1101.7870850220006,None,1101.7870850220006,None,m,1,1.7719326700007514,1103.354234403001,None,1103.354234403001,None,1103.354234403001,None,1105.188311582,None,1105.188311582,None,1105.188311582,None,1105.188311582,None,,,,,,,,,,,,,,,,,,,,,,,,,,,,,,,,,,,,,,,,,,,,001,132,2020_Feb_18_1047,spring_faces,3.1.5,59.98379525781263,
condition files/Stage1_1.xlsx,,T1,B1,c,"['c', 'm']","['Clue', 'Monopoly']","[-0.15, 0.5]","[0.15, 0.5]",1,1,,,,,,,,,0,0,0,0,0,4,4,0,,,,,,,,,,,,,,,,,,,,,,,,,,,,,,,,,,,,,,,,,,,,,,,,,,,,,,,1107.1534977730007,None,1107.1534977730007,None,1107.1534977730007,None,c,1,0.6618561409995891,1108.7042986640008,None,1108.7042986640008,None,1108.7042986640008,None,1109.4216151460005,None,1109.4216151460005,None,1109.4216151460005,None,1109.4216151460005,None,,,,,,,,,,,,,,,,,,,,,,,,,,,,,,,,,,,,,,,,,,,,001,132,2020_Feb_18_1047,spring_faces,3.1.5,59.98379525781263,
condition files/Stage1_1.xlsx,,T4,B3,m,"['c', 'm']","['Clue', 'Monopoly']","[-0.15, 0.5]","[0.15, 0.5]",1,1,,,,,,,,,0,0,0,0,0,5,5,6,,,,,,,,,,,,,,,,,,,,,,,,,,,,,,,,,,,,,,,,,,,,,,,,,,,,,,,1111.3872106889994,None,1111.3872106889994,None,1111.3872106889994,None,m,1,1.0371963390007295,1112.9369786829993,None,1112.9369786829993,None,1112.9369786829993,None,1114.0381906500006,None,1114.0381906500006,None,1114.0381906500006,None,1114.0381906500006,None,,,,,,,,,,,,,,,,,,,,,,,,,,,,,,,,,,,,,,,,,,,,001,132,2020_Feb_18_1047,spring_faces,3.1.5,59.98379525781263,
condition files/Stage1_1.xlsx,,T3,B4,c,"['c', 'm']","['Clue', 'Monopoly']","[-0.15, 0.5]","[0.15, 0.5]",1,1,,,,,,,,,0,0,0,0,0,6,6,5,,,,,,,,,,,,,,,,,,,,,,,,,,,,,,,,,,,,,,,,,,,,,,,,,,,,,,,1116.003327859,None,1116.003327859,None,1116.003327859,None,c,1,0.7396283289999701,1117.5385864910004,None,1117.5385864910004,None,1117.5385864910004,None,1118.3381618799995,None,1118.3381618799995,None,1118.3381618799995,None,1118.3381618799995,None,,,,,,,,,,,,,,,,,,,,,,,,,,,,,,,,,,,,,,,,,,,,001,132,2020_Feb_18_1047,spring_faces,3.1.5,59.98379525781263,
condition files/Stage1_1.xlsx,,T2,B2,m,"['c', 'm']","['Clue', 'Monopoly']","[-0.15, 0.5]","[0.15, 0.5]",1,1,,,,,,,,,0,0,0,0,0,7,7,3,,,,,,,,,,,,,,,,,,,,,,,,,,,,,,,,,,,,,,,,,,,,,,,,,,,,,,,1120.304254568,None,1120.304254568,None,1120.304254568,None,m,1,0.32822426299935614,1121.8379280690006,None,1121.8379280690006,None,1121.8379280690006,None,1122.2199313620004,None,1122.2199313620004,None,1122.2199313620004,None,1122.2199313620004,None,,,,,,,,,,,,,,,,,,,,,,,,,,,,,,,,,,,,,,,,,,,,001,132,2020_Feb_18_1047,spring_faces,3.1.5,59.98379525781263,
condition files/Stage1_2.xlsx,,T3,B3,c,"['c', 'm']","['Clue', 'Monopoly']","[-0.15, 0.5]","[0.15, 0.5]",1,1,,,,,,,,,0,1,1,1,0,0,0,4,,,,,,,,,,,,,,,,,,,,,,,,,,,,,,,,,,,,,,,,,,,,,,,,,,,,,,,1124.204040699,None,1124.204040699,None,1124.204040699,None,c,1,0.25185360300019966,1125.754294536,None,1125.754294536,None,1125.754294536,None,1126.0730595269997,None,1126.0730595269997,None,1126.0730595269997,None,1126.0730595269997,None,,,,,,,,,,,,,,,,,,,,,,,,,,,,,,,,,,,,,,,,,,,,001,132,2020_Feb_18_1047,spring_faces,3.1.5,59.98379525781263,
condition files/Stage1_2.xlsx,,T4,B4,m,"['c', 'm']","['Clue', 'Monopoly']","[-0.15, 0.5]","[0.15, 0.5]",1,1,,,,,,,,,0,1,1,1,0,1,1,7,,,,,,,,,,,,,,,,,,,,,,,,,,,,,,,,,,,,,,,,,,,,,,,,,,,,,,,1128.0372629530011,None,1128.0372629530011,None,1128.0372629530011,None,m,1,0.5306986949999555,1129.5714684249997,None,1129.5714684249997,None,1129.5714684249997,None,1130.170811838001,None,1130.170811838001,None,1130.170811838001,None,1130.170811838001,None,,,,,,,,,,,,,,,,,,,,,,,,,,,,,,,,,,,,,,,,,,,,001,132,2020_Feb_18_1047,spring_faces,3.1.5,59.98379525781263,
condition files/Stage1_2.xlsx,,T1,B2,m,"['c', 'm']","['Clue', 'Monopoly']","[-0.15, 0.5]","[0.15, 0.5]",1,1,,,,,,,,,0,1,1,1,0,2,2,2,,,,,,,,,,,,,,,,,,,,,,,,,,,,,,,,,,,,,,,,,,,,,,,,,,,,,,,1132.120461644001,None,1132.120461644001,None,1132.120461644001,None,c,0,0.2406628950011509,1133.6535607620008,None,1133.6535607620008,None,1133.6535607620008,None,1133.9540948810009,None,1133.9540948810009,None,1133.9540948810009,None,1133.9540948810009,None,,,,,,,,,,,,,,,,,,,,,,,,,,,,,,,,,,,,,,,,,,,,001,132,2020_Feb_18_1047,spring_faces,3.1.5,59.98379525781263,
condition files/Stage1_2.xlsx,,B3,T4,m,"['c', 'm']","['Clue', 'Monopoly']","[-0.15, 0.5]","[0.15, 0.5]",1,1,,,,,,,,,0,1,1,1,0,3,3,6,,,,,,,,,,,,,,,,,,,,,,,,,,,,,,,,,,,,,,,,,,,,,,,,,,,,,,,1135.920490515,None,1135.920490515,None,1135.920490515,None,c,0,2.0393497820004995,1137.454867331,None,1137.454867331,None,1137.454867331,None,1139.553361051001,None,1139.553361051001,None,1139.553361051001,None,1139.553361051001,None,,,,,,,,,,,,,,,,,,,,,,,,,,,,,,,,,,,,,,,,,,,,001,132,2020_Feb_18_1047,spring_faces,3.1.5,59.98379525781263,
condition files/Stage1_2.xlsx,,B2,T2,m,"['c', 'm']","['Clue', 'Monopoly']","[-0.15, 0.5]","[0.15, 0.5]",1,1,,,,,,,,,0,1,1,1,0,4,4,3,,,,,,,,,,,,,,,,,,,,,,,,,,,,,,,,,,,,,,,,,,,,,,,,,,,,,,,1141.5203836969995,None,1141.5203836969995,None,1141.5203836969995,None,m,1,3.0488353629989433,1143.0533317959998,None,1143.0533317959998,None,1143.0533317959998,None,1146.1538075690005,None,1146.1538075690005,None,1146.1538075690005,None,1146.1538075690005,None,,,,,,,,,,,,,,,,,,,,,,,,,,,,,,,,,,,,,,,,,,,,001,132,2020_Feb_18_1047,spring_faces,3.1.5,59.98379525781263,
condition files/Stage1_2.xlsx,,B1,T1,c,"['c', 'm']","['Clue', 'Monopoly']","[-0.15, 0.5]","[0.15, 0.5]",1,1,,,,,,,,,0,1,1,1,0,5,5,0,,,,,,,,,,,,,,,,,,,,,,,,,,,,,,,,,,,,,,,,,,,,,,,,,,,,,,,1148.1203993729996,None,1148.1203993729996,None,1148.1203993729996,None,c,1,0.799408842000048,1149.6546897459993,None,1149.6546897459993,None,1149.6546897459993,None,1150.5206119499999,None,1150.5206119499999,None,1150.5206119499999,None,1150.5206119499999,None,,,,,,,,,,,,,,,,,,,,,,,,,,,,,,,,,,,,,,,,,,,,001,132,2020_Feb_18_1047,spring_faces,3.1.5,59.98379525781263,
condition files/Stage1_2.xlsx,,T2,B1,c,"['c', 'm']","['Clue', 'Monopoly']","[-0.15, 0.5]","[0.15, 0.5]",1,1,,,,,,,,,0,1,1,1,0,6,6,1,,,,,,,,,,,,,,,,,,,,,,,,,,,,,,,,,,,,,,,,,,,,,,,,,,,,,,,1152.4869621430007,None,1152.4869621430007,None,1152.4869621430007,None,c,1,0.9778898280001158,1154.020271577001,None,1154.020271577001,None,1154.020271577001,None,1155.0535756230001,None,1155.0535756230001,None,1155.0535756230001,None,1155.0535756230001,None,,,,,,,,,,,,,,,,,,,,,,,,,,,,,,,,,,,,,,,,,,,,001,132,2020_Feb_18_1047,spring_faces,3.1.5,59.98379525781263,
condition files/Stage1_2.xlsx,,B4,T3,c,"['c', 'm']","['Clue', 'Monopoly']","[-0.15, 0.5]","[0.15, 0.5]",1,1,,,,,,,,,0,1,1,1,0,7,7,5,,,,,,,,,,,,,,,,,,,,,,,,,,,,,,,,,,,,,,,,,,,,,,,,,,,,,,,1157.0201550759994,None,1157.0201550759994,None,1157.0201550759994,None,c,1,1.3075454629997694,1158.5546786600007,None,1158.5546786600007,None,1158.5546786600007,None,1159.9230468710011,None,1159.9230468710011,None,1159.9230468710011,None,1159.9230468710011,None,,,,,,,,,,,,,,,,,,,,,,,,,,,,,,,,,,,,,,,,,,,,001,132,2020_Feb_18_1047,spring_faces,3.1.5,59.98379525781263,
condition files/Stage1_1.xlsx,,B3,T3,c,"['c', 'm']","['Clue', 'Monopoly']","[-0.15, 0.5]","[0.15, 0.5]",1,1,,,,,,,,,0,2,2,2,0,0,0,4,,,,,,,,,,,,,,,,,,,,,,,,,,,,,,,,,,,,,,,,,,,,,,,,,,,,,,,1161.903499850001,None,1161.903499850001,None,1161.903499850001,None,c,1,0.967941893999523,1163.4382253330004,None,1163.4382253330004,None,1163.4382253330004,None,1164.4707685110006,None,1164.4707685110006,None,1164.4707685110006,None,1164.4707685110006,None,,,,,,,,,,,,,,,,,,,,,,,,,,,,,,,,,,,,,,,,,,,,001,132,2020_Feb_18_1047,spring_faces,3.1.5,59.98379525781263,
condition files/Stage1_1.xlsx,,T1,B1,c,"['c', 'm']","['Clue', 'Monopoly']","[-0.15, 0.5]","[0.15, 0.5]",1,1,,,,,,,,,0,2,2,2,0,1,1,0,,,,,,,,,,,,,,,,,,,,,,,,,,,,,,,,,,,,,,,,,,,,,,,,,,,,,,,1166.4371336370004,None,1166.4371336370004,None,1166.4371336370004,None,c,1,0.6914966310014279,1167.9707102819993,None,1167.9707102819993,None,1167.9707102819993,None,1168.7205905930005,None,1168.7205905930005,None,1168.7205905930005,None,1168.7205905930005,None,,,,,,,,,,,,,,,,,,,,,,,,,,,,,,,,,,,,,,,,,,,,001,132,2020_Feb_18_1047,spring_faces,3.1.5,59.98379525781263,
condition files/Stage1_1.xlsx,,T4,B3,m,"['c', 'm']","['Clue', 'Monopoly']","[-0.15, 0.5]","[0.15, 0.5]",1,1,,,,,,,,,0,2,2,2,0,2,2,6,,,,,,,,,,,,,,,,,,,,,,,,,,,,,,,,,,,,,,,,,,,,,,,,,,,,,,,1170.6865721930008,None,1170.6865721930008,None,1170.6865721930008,None,m,1,1.2258658920000016,1172.2203518469996,None,1172.2203518469996,None,1172.2203518469996,None,1173.5209262770004,None,1173.5209262770004,None,1173.5209262770004,None,1173.5209262770004,None,,,,,,,,,,,,,,,,,,,,,,,,,,,,,,,,,,,,,,,,,,,,001,132,2020_Feb_18_1047,spring_faces,3.1.5,59.98379525781263,
condition files/Stage1_1.xlsx,,B1,T2,c,"['c', 'm']","['Clue', 'Monopoly']","[-0.15, 0.5]","[0.15, 0.5]",1,1,,,,,,,,,0,2,2,2,0,3,3,1,,,,,,,,,,,,,,,,,,,,,,,,,,,,,,,,,,,,,,,,,,,,,,,,,,,,,,,1175.4704598959997,None,1175.4704598959997,None,1175.4704598959997,None,c,1,0.7599755090013787,1177.0061645229998,None,1177.0061645229998,None,1177.0061645229998,None,1177.8228645039999,None,1177.8228645039999,None,1177.8228645039999,None,1177.8228645039999,None,,,,,,,,,,,,,,,,,,,,,,,,,,,,,,,,,,,,,,,,,,,,001,132,2020_Feb_18_1047,spring_faces,3.1.5,59.98379525781263,
condition files/Stage1_1.xlsx,,B4,T4,m,"['c', 'm']","['Clue', 'Monopoly']","[-0.15, 0.5]","[0.15, 0.5]",1,1,,,,,,,,,0,2,2,2,0,4,4,7,,,,,,,,,,,,,,,,,,,,,,,,,,,,,,,,,,,,,,,,,,,,,,,,,,,,,,,1179.7873268599997,None,1179.7873268599997,None,1179.7873268599997,None,m,1,0.8458730049987935,1181.320252974001,None,1181.320252974001,None,1181.320252974001,None,1182.2376005860006,None,1182.2376005860006,None,1182.2376005860006,None,1182.2376005860006,None,,,,,,,,,,,,,,,,,,,,,,,,,,,,,,,,,,,,,,,,,,,,001,132,2020_Feb_18_1047,spring_faces,3.1.5,59.98379525781263,
condition files/Stage1_1.xlsx,,T3,B4,c,"['c', 'm']","['Clue', 'Monopoly']","[-0.15, 0.5]","[0.15, 0.5]",1,1,,,,,,,,,0,2,2,2,0,5,5,5,,,,,,,,,,,,,,,,,,,,,,,,,,,,,,,,,,,,,,,,,,,,,,,,,,,,,,,1184.1864669309998,None,1184.1864669309998,None,1184.1864669309998,None,c,1,1.0511834280005132,1185.723031816,None,1185.723031816,None,1185.723031816,None,1186.837923694,None,1186.837923694,None,1186.837923694,None,1186.837923694,None,,,,,,,,,,,,,,,,,,,,,,,,,,,,,,,,,,,,,,,,,,,,001,132,2020_Feb_18_1047,spring_faces,3.1.5,59.98379525781263,
condition files/Stage1_1.xlsx,,B2,T1,m,"['c', 'm']","['Clue', 'Monopoly']","[-0.15, 0.5]","[0.15, 0.5]",1,1,,,,,,,,,0,2,2,2,0,6,6,2,,,,,,,,,,,,,,,,,,,,,,,,,,,,,,,,,,,,,,,,,,,,,,,,,,,,,,,1188.8038059589999,None,1188.8038059589999,None,1188.8038059589999,None,m,1,1.1709885279997252,1190.3391306449994,None,1190.3391306449994,None,1190.3391306449994,None,1191.5722676940004,None,1191.5722676940004,None,1191.5722676940004,None,1191.5722676940004,None,,,,,,,,,,,,,,,,,,,,,,,,,,,,,,,,,,,,,,,,,,,,001,132,2020_Feb_18_1047,spring_faces,3.1.5,59.98379525781263,
condition files/Stage1_1.xlsx,,T2,B2,m,"['c', 'm']","['Clue', 'Monopoly']","[-0.15, 0.5]","[0.15, 0.5]",1,1,,,,,,,,,0,2,2,2,0,7,7,3,,,,,,,,,,,,,,,,,,,,,,,,,,,,,,,,,,,,,,,,,,,,,,,,,,,,,,,1193.5371235250004,None,1193.5371235250004,None,1193.5371235250004,None,c,0,0.8875050710012147,1195.0706784590002,None,1195.0706784590002,None,1195.0706784590002,None,1196.020689346,None,1196.020689346,None,1196.020689346,None,1196.020689346,None,,,,,,,,,,,,,,,,,,,,,,,,,,,,,,,,,,,,,,,,,,,,001,132,2020_Feb_18_1047,spring_faces,3.1.5,59.98379525781263,
condition files/Stage1_2.xlsx,,T1,B2,m,"['c', 'm']","['Clue', 'Monopoly']","[-0.15, 0.5]","[0.15, 0.5]",1,1,,,,,,,,,0,3,3,3,0,0,0,2,,,,,,,,,,,,,,,,,,,,,,,,,,,,,,,,,,,,,,,,,,,,,,,,,,,,,,,1198.0034772670006,None,1198.0034772670006,None,1198.0034772670006,None,m,1,0.7571924959993339,1199.5370393009998,None,1199.5370393009998,None,1199.5370393009998,None,1200.3540680210008,None,1200.3540680210008,None,1200.3540680210008,None,1200.3540680210008,None,,,,,,,,,,,,,,,,,,,,,,,,,,,,,,,,,,,,,,,,,,,,001,132,2020_Feb_18_1047,spring_faces,3.1.5,59.98379525781263,
condition files/Stage1_2.xlsx,,T2,B1,c,"['c', 'm']","['Clue', 'Monopoly']","[-0.15, 0.5]","[0.15, 0.5]",1,1,,,,,,,,,0,3,3,3,0,1,1,1,,,,,,,,,,,,,,,,,,,,,,,,,,,,,,,,,,,,,,,,,,,,,,,,,,,,,,,1202.3205066909995,None,1202.3205066909995,None,1202.3205066909995,None,c,1,0.8233644449992426,1203.8708366299998,None,1203.8708366299998,None,1203.8708366299998,None,1204.7707355809998,None,1204.7707355809998,None,1204.7707355809998,None,1204.7707355809998,None,,,,,,,,,,,,,,,,,,,,,,,,,,,,,,,,,,,,,,,,,,,,001,132,2020_Feb_18_1047,spring_faces,3.1.5,59.98379525781263,
condition files/Stage1_2.xlsx,,B2,T2,m,"['c', 'm']","['Clue', 'Monopoly']","[-0.15, 0.5]","[0.15, 0.5]",1,1,,,,,,,,,0,3,3,3,0,2,2,3,,,,,,,,,,,,,,,,,,,,,,,,,,,,,,,,,,,,,,,,,,,,,,,,,,,,,,,1206.7199858420008,None,1206.7199858420008,None,1206.7199858420008,None,m,1,1.9271868960004213,1208.2709153750002,None,1208.2709153750002,None,1208.2709153750002,None,1210.255669993001,None,1210.255669993001,None,1210.255669993001,None,1210.255669993001,None,,,,,,,,,,,,,,,,,,,,,,,,,,,,,,,,,,,,,,,,,,,,001,132,2020_Feb_18_1047,spring_faces,3.1.5,59.98379525781263,
condition files/Stage1_2.xlsx,,T3,B3,c,"['c', 'm']","['Clue', 'Monopoly']","[-0.15, 0.5]","[0.15, 0.5]",1,1,,,,,,,,,0,3,3,3,0,3,3,4,,,,,,,,,,,,,,,,,,,,,,,,,,,,,,,,,,,,,,,,,,,,,,,,,,,,,,,1212.2201565300002,None,1212.2201565300002,None,1212.2201565300002,None,c,1,2.8430922150000697,1213.755080498,None,1213.755080498,None,1213.755080498,None,1216.6703038169999,None,1216.6703038169999,None,1216.6703038169999,None,1216.6703038169999,None,,,,,,,,,,,,,,,,,,,,,,,,,,,,,,,,,,,,,,,,,,,,001,132,2020_Feb_18_1047,spring_faces,3.1.5,59.98379525781263,
condition files/Stage1_2.xlsx,,B1,T1,c,"['c', 'm']","['Clue', 'Monopoly']","[-0.15, 0.5]","[0.15, 0.5]",1,1,,,,,,,,,0,3,3,3,0,4,4,0,,,,,,,,,,,,,,,,,,,,,,,,,,,,,,,,,,,,,,,,,,,,,,,,,,,,,,,1218.6202087220008,None,1218.6202087220008,None,1218.6202087220008,None,c,1,2.1879738309999084,1220.1542106279994,None,1220.1542106279994,None,1220.1542106279994,None,1222.404152524001,None,1222.404152524001,None,1222.404152524001,None,1222.404152524001,None,,,,,,,,,,,,,,,,,,,,,,,,,,,,,,,,,,,,,,,,,,,,001,132,2020_Feb_18_1047,spring_faces,3.1.5,59.98379525781263,
condition files/Stage1_2.xlsx,,B4,T3,c,"['c', 'm']","['Clue', 'Monopoly']","[-0.15, 0.5]","[0.15, 0.5]",1,1,,,,,,,,,0,3,3,3,0,5,5,5,,,,,,,,,,,,,,,,,,,,,,,,,,,,,,,,,,,,,,,,,,,,,,,,,,,,,,,1224.3706181670004,None,1224.3706181670004,None,1224.3706181670004,None,c,1,1.558556502999636,1225.9036582919998,None,1225.9036582919998,None,1225.9036582919998,None,1227.5204186249994,None,1227.5204186249994,None,1227.5204186249994,None,1227.5204186249994,None,,,,,,,,,,,,,,,,,,,,,,,,,,,,,,,,,,,,,,,,,,,,001,132,2020_Feb_18_1047,spring_faces,3.1.5,59.98379525781263,
condition files/Stage1_2.xlsx,,T4,B4,m,"['c', 'm']","['Clue', 'Monopoly']","[-0.15, 0.5]","[0.15, 0.5]",1,1,,,,,,,,,0,3,3,3,0,6,6,7,,,,,,,,,,,,,,,,,,,,,,,,,,,,,,,,,,,,,,,,,,,,,,,,,,,,,,,1229.4864492140005,None,1229.4864492140005,None,1229.4864492140005,None,m,1,0.8254785589997482,1231.0207275360008,None,1231.0207275360008,None,1231.0207275360008,None,1231.9206814629997,None,1231.9206814629997,None,1231.9206814629997,None,1231.9206814629997,None,,,,,,,,,,,,,,,,,,,,,,,,,,,,,,,,,,,,,,,,,,,,001,132,2020_Feb_18_1047,spring_faces,3.1.5,59.98379525781263,
condition files/Stage1_2.xlsx,,B3,T4,m,"['c', 'm']","['Clue', 'Monopoly']","[-0.15, 0.5]","[0.15, 0.5]",1,1,,,,,,,,,0,3,3,3,0,7,7,6,,,,,,,,,,,,,,,,,,,,,,,,,,,,,,,,,,,,,,,,,,,,,,,,,,,,,,,1233.8704009060002,None,1233.8704009060002,None,1233.8704009060002,None,m,1,0.9227953130011883,1235.4034145370006,None,1235.4034145370006,None,1235.4034145370006,None,1236.387391526001,None,1236.387391526001,None,1236.387391526001,None,1236.387391526001,None,,,,,,,,,,,,,,,,,,,,,,,,,,,,,,,,,,,,,,,,,,,,001,132,2020_Feb_18_1047,spring_faces,3.1.5,59.98379525781263,
condition files/Stage1_1.xlsx,,B1,T2,c,"['c', 'm']","['Clue', 'Monopoly']","[-0.15, 0.5]","[0.15, 0.5]",1,1,,,,,,,,,0,4,4,4,0,0,0,1,,,,,,,,,,,,,,,,,,,,,,,,,,,,,,,,,,,,,,,,,,,,,,,,,,,,,,,1238.370679130001,None,1238.370679130001,None,1238.370679130001,None,c,1,0.7733640299993567,1239.9208651930003,None,1239.9208651930003,None,1239.9208651930003,None,1240.7533118840001,None,1240.7533118840001,None,1240.7533118840001,None,1240.7533118840001,None,,,,,,,,,,,,,,,,,,,,,,,,,,,,,,,,,,,,,,,,,,,,001,132,2020_Feb_18_1047,spring_faces,3.1.5,59.98379525781263,
condition files/Stage1_1.xlsx,,T2,B2,m,"['c', 'm']","['Clue', 'Monopoly']","[-0.15, 0.5]","[0.15, 0.5]",1,1,,,,,,,,,0,4,4,4,0,1,1,3,,,,,,,,,,,,,,,,,,,,,,,,,,,,,,,,,,,,,,,,,,,,,,,,,,,,,,,1242.7205517870007,None,1242.7205517870007,None,1242.7205517870007,None,m,1,1.7041764530004002,1244.2539868410004,None,1244.2539868410004,None,1244.2539868410004,None,1246.0203620520006,None,1246.0203620520006,None,1246.0203620520006,None,1246.0203620520006,None,,,,,,,,,,,,,,,,,,,,,,,,,,,,,,,,,,,,,,,,,,,,001,132,2020_Feb_18_1047,spring_faces,3.1.5,59.98379525781263,
condition files/Stage1_1.xlsx,,T4,B3,m,"['c', 'm']","['Clue', 'Monopoly']","[-0.15, 0.5]","[0.15, 0.5]",1,1,,,,,,,,,0,4,4,4,0,2,2,6,,,,,,,,,,,,,,,,,,,,,,,,,,,,,,,,,,,,,,,,,,,,,,,,,,,,,,,1247.9872427989994,None,1247.9872427989994,None,1247.9872427989994,None,m,1,2.9496542390006653,1249.5205280209993,None,1249.5205280209993,None,1249.5205280209993,None,1252.5202182040011,None,1252.5202182040011,None,1252.5202182040011,None,1252.5202182040011,None,,,,,,,,,,,,,,,,,,,,,,,,,,,,,,,,,,,,,,,,,,,,001,132,2020_Feb_18_1047,spring_faces,3.1.5,59.98379525781263,
condition files/Stage1_1.xlsx,,T1,B1,c,"['c', 'm']","['Clue', 'Monopoly']","[-0.15, 0.5]","[0.15, 0.5]",1,1,,,,,,,,,0,4,4,4,0,3,3,0,,,,,,,,,,,,,,,,,,,,,,,,,,,,,,,,,,,,,,,,,,,,,,,,,,,,,,,1254.4873452800002,None,1254.4873452800002,None,1254.4873452800002,None,c,1,1.2809900829997787,1256.0211868940005,None,1256.0211868940005,None,1256.0211868940005,None,1257.3550223599996,None,1257.3550223599996,None,1257.3550223599996,None,1257.3550223599996,None,,,,,,,,,,,,,,,,,,,,,,,,,,,,,,,,,,,,,,,,,,,,001,132,2020_Feb_18_1047,spring_faces,3.1.5,59.98379525781263,
condition files/Stage1_1.xlsx,,T3,B4,c,"['c', 'm']","['Clue', 'Monopoly']","[-0.15, 0.5]","[0.15, 0.5]",1,1,,,,,,,,,0,4,4,4,0,4,4,5,,,,,,,,,,,,,,,,,,,,,,,,,,,,,,,,,,,,,,,,,,,,,,,,,,,,,,,1259.3199330019997,None,1259.3199330019997,None,1259.3199330019997,None,c,1,0.7192670469994482,1260.8549147630001,None,1260.8549147630001,None,1260.8549147630001,None,1261.6374393759997,None,1261.6374393759997,None,1261.6374393759997,None,1261.6374393759997,None,,,,,,,,,,,,,,,,,,,,,,,,,,,,,,,,,,,,,,,,,,,,001,132,2020_Feb_18_1047,spring_faces,3.1.5,59.98379525781263,
condition files/Stage1_1.xlsx,,B2,T1,m,"['c', 'm']","['Clue', 'Monopoly']","[-0.15, 0.5]","[0.15, 0.5]",1,1,,,,,,,,,0,4,4,4,0,5,5,2,,,,,,,,,,,,,,,,,,,,,,,,,,,,,,,,,,,,,,,,,,,,,,,,,,,,,,,1263.604087482001,None,1263.604087482001,None,1263.604087482001,None,m,1,1.1705460169996513,1265.1396034919999,None,1265.1396034919999,None,1265.1396034919999,None,1266.372835741,None,1266.372835741,None,1266.372835741,None,1266.372835741,None,,,,,,,,,,,,,,,,,,,,,,,,,,,,,,,,,,,,,,,,,,,,001,132,2020_Feb_18_1047,spring_faces,3.1.5,59.98379525781263,
condition files/Stage1_1.xlsx,,B4,T4,m,"['c', 'm']","['Clue', 'Monopoly']","[-0.15, 0.5]","[0.15, 0.5]",1,1,,,,,,,,,0,4,4,4,0,6,6,7,,,,,,,,,,,,,,,,,,,,,,,,,,,,,,,,,,,,,,,,,,,,,,,,,,,,,,,1268.3371701569995,None,1268.3371701569995,None,1268.3371701569995,None,m,1,1.4640018010013591,1269.8702181150002,None,1269.8702181150002,None,1269.8702181150002,None,1271.3878179370004,None,1271.3878179370004,None,1271.3878179370004,None,1271.3878179370004,None,,,,,,,,,,,,,,,,,,,,,,,,,,,,,,,,,,,,,,,,,,,,001,132,2020_Feb_18_1047,spring_faces,3.1.5,59.98379525781263,
condition files/Stage1_1.xlsx,,B3,T3,c,"['c', 'm']","['Clue', 'Monopoly']","[-0.15, 0.5]","[0.15, 0.5]",1,1,,,,,,,,,0,4,4,4,0,7,7,4,,,,,,,,,,,,,,,,,,,,,,,,,,,,,,,,,,,,,,,,,,,,,,,,,,,,,,,1273.3540827529996,None,1273.3540827529996,None,1273.3540827529996,None,c,1,1.1834281510000437,1274.8867143400003,None,1274.8867143400003,None,1274.8867143400003,None,1276.1217157740011,None,1276.1217157740011,None,1276.1217157740011,None,1276.1217157740011,None,,,,,,,,,,,,,,,,,,,,,,,,,,,,,,,,,,,,,,,,,,,,001,132,2020_Feb_18_1047,spring_faces,3.1.5,59.98379525781263,
condition files/Stage1_2.xlsx,,B2,T2,m,"['c', 'm']","['Clue', 'Monopoly']","[-0.15, 0.5]","[0.15, 0.5]",1,1,,,,,,,,,0,5,5,5,0,0,0,3,,,,,,,,,,,,,,,,,,,,,,,,,,,,,,,,,,,,,,,,,,,,,,,,,,,,,,,1278.1042765220009,None,1278.1042765220009,None,1278.1042765220009,None,m,1,1.1362536519991409,1279.6379343820008,None,1279.6379343820008,None,1279.6379343820008,None,1280.8384895170002,None,1280.8384895170002,None,1280.8384895170002,None,1280.8384895170002,None,,,,,,,,,,,,,,,,,,,,,,,,,,,,,,,,,,,,,,,,,,,,001,132,2020_Feb_18_1047,spring_faces,3.1.5,59.98379525781263,
condition files/Stage1_2.xlsx,,T3,B3,c,"['c', 'm']","['Clue', 'Monopoly']","[-0.15, 0.5]","[0.15, 0.5]",1,1,,,,,,,,,0,5,5,5,0,1,1,4,,,,,,,,,,,,,,,,,,,,,,,,,,,,,,,,,,,,,,,,,,,,,,,,,,,,,,,1282.8035366290005,None,1282.8035366290005,None,1282.8035366290005,None,c,1,1.764939222999601,1284.337239550001,None,1284.337239550001,None,1284.337239550001,None,1286.1561465819996,None,1286.1561465819996,None,1286.1561465819996,None,1286.1561465819996,None,,,,,,,,,,,,,,,,,,,,,,,,,,,,,,,,,,,,,,,,,,,,001,132,2020_Feb_18_1047,spring_faces,3.1.5,59.98379525781263,
condition files/Stage1_2.xlsx,,B1,T1,c,"['c', 'm']","['Clue', 'Monopoly']","[-0.15, 0.5]","[0.15, 0.5]",1,1,,,,,,,,,0,5,5,5,0,2,2,0,,,,,,,,,,,,,,,,,,,,,,,,,,,,,,,,,,,,,,,,,,,,,,,,,,,,,,,1288.1204971139996,None,1288.1204971139996,None,1288.1204971139996,None,c,1,0.782249818001219,1289.6558685519994,None,1289.6558685519994,None,1289.6558685519994,None,1290.5041068930004,None,1290.5041068930004,None,1290.5041068930004,None,1290.5041068930004,None,,,,,,,,,,,,,,,,,,,,,,,,,,,,,,,,,,,,,,,,,,,,001,132,2020_Feb_18_1047,spring_faces,3.1.5,59.98379525781263,
condition files/Stage1_2.xlsx,,T1,B2,m,"['c', 'm']","['Clue', 'Monopoly']","[-0.15, 0.5]","[0.15, 0.5]",1,1,,,,,,,,,0,5,5,5,0,3,3,2,,,,,,,,,,,,,,,,,,,,,,,,,,,,,,,,,,,,,,,,,,,,,,,,,,,,,,,1292.4705385340003,None,1292.4705385340003,None,1292.4705385340003,None,m,1,0.7687171359993954,1294.0054728289997,None,1294.0054728289997,None,1294.0054728289997,None,1294.8369113810004,None,1294.8369113810004,None,1294.8369113810004,None,1294.8369113810004,None,,,,,,,,,,,,,,,,,,,,,,,,,,,,,,,,,,,,,,,,,,,,001,132,2020_Feb_18_1047,spring_faces,3.1.5,59.98379525781263,
condition files/Stage1_2.xlsx,,B3,T4,m,"['c', 'm']","['Clue', 'Monopoly']","[-0.15, 0.5]","[0.15, 0.5]",1,1,,,,,,,,,0,5,5,5,0,4,4,6,,,,,,,,,,,,,,,,,,,,,,,,,,,,,,,,,,,,,,,,,,,,,,,,,,,,,,,1296.8037739789997,None,1296.8037739789997,None,1296.8037739789997,None,c,0,1.3002088769990223,1298.3539077879996,None,1298.3539077879996,None,1298.3539077879996,None,1299.7209018499998,None,1299.7209018499998,None,1299.7209018499998,None,1299.7209018499998,None,,,,,,,,,,,,,,,,,,,,,,,,,,,,,,,,,,,,,,,,,,,,001,132,2020_Feb_18_1047,spring_faces,3.1.5,59.98379525781263,
condition files/Stage1_2.xlsx,,T4,B4,m,"['c', 'm']","['Clue', 'Monopoly']","[-0.15, 0.5]","[0.15, 0.5]",1,1,,,,,,,,,0,5,5,5,0,5,5,7,,,,,,,,,,,,,,,,,,,,,,,,,,,,,,,,,,,,,,,,,,,,,,,,,,,,,,,1301.6869348050004,None,1301.6869348050004,None,1301.6869348050004,None,m,1,1.024867894999261,1303.2373432940003,None,1303.2373432940003,None,1303.2373432940003,None,1304.3205290450005,None,1304.3205290450005,None,1304.3205290450005,None,1304.3205290450005,None,,,,,,,,,,,,,,,,,,,,,,,,,,,,,,,,,,,,,,,,,,,,001,132,2020_Feb_18_1047,spring_faces,3.1.5,59.98379525781263,
condition files/Stage1_2.xlsx,,B4,T3,c,"['c', 'm']","['Clue', 'Monopoly']","[-0.15, 0.5]","[0.15, 0.5]",1,1,,,,,,,,,0,5,5,5,0,6,6,5,,,,,,,,,,,,,,,,,,,,,,,,,,,,,,,,,,,,,,,,,,,,,,,,,,,,,,,1306.286718577001,None,1306.286718577001,None,1306.286718577001,None,c,1,1.1292527519999567,1307.820915047001,None,1307.820915047001,None,1307.820915047001,None,1309.020271247,None,1309.020271247,None,1309.020271247,None,1309.020271247,None,,,,,,,,,,,,,,,,,,,,,,,,,,,,,,,,,,,,,,,,,,,,001,132,2020_Feb_18_1047,spring_faces,3.1.5,59.98379525781263,
condition files/Stage1_2.xlsx,,T2,B1,c,"['c', 'm']","['Clue', 'Monopoly']","[-0.15, 0.5]","[0.15, 0.5]",1,1,,,,,,,,,0,5,5,5,0,7,7,1,,,,,,,,,,,,,,,,,,,,,,,,,,,,,,,,,,,,,,,,,,,,,,,,,,,,,,,1310.970909056001,None,1310.970909056001,None,1310.970909056001,None,c,1,1.7567130510014977,1312.5055160190004,None,1312.5055160190004,None,1312.5055160190004,None,1314.3205837269998,None,1314.3205837269998,None,1314.3205837269998,None,1314.3205837269998,None,,,,,,,,,,,,,,,,,,,,,,,,,,,,,,,,,,,,,,,,,,,,001,132,2020_Feb_18_1047,spring_faces,3.1.5,59.98379525781263,
condition files/Stage1_1.xlsx,,B1,T2,c,"['c', 'm']","['Clue', 'Monopoly']","[-0.15, 0.5]","[0.15, 0.5]",1,1,,,,,,,,,0,6,6,6,0,0,0,1,,,,,,,,,,,,,,,,,,,,,,,,,,,,,,,,,,,,,,,,,,,,,,,,,,,,,,,1316.3037359930004,None,1316.3037359930004,None,1316.3037359930004,None,c,1,0.936659328001042,1317.8535193709995,None,1317.8535193709995,None,1317.8535193709995,None,1318.8541013190006,None,1318.8541013190006,None,1318.8541013190006,None,1318.8541013190006,None,,,,,,,,,,,,,,,,,,,,,,,,,,,,,,,,,,,,,,,,,,,,001,132,2020_Feb_18_1047,spring_faces,3.1.5,59.98379525781263,
condition files/Stage1_1.xlsx,,B2,T1,m,"['c', 'm']","['Clue', 'Monopoly']","[-0.15, 0.5]","[0.15, 0.5]",1,1,,,,,,,,,0,6,6,6,0,1,1,2,,,,,,,,,,,,,,,,,,,,,,,,,,,,,,,,,,,,,,,,,,,,,,,,,,,,,,,1320.8205883440005,None,1320.8205883440005,None,1320.8205883440005,None,m,1,1.3327147189993411,1322.3534740230007,None,1322.3534740230007,None,1322.3534740230007,None,1323.7377545180007,None,1323.7377545180007,None,1323.7377545180007,None,1323.7377545180007,None,,,,,,,,,,,,,,,,,,,,,,,,,,,,,,,,,,,,,,,,,,,,001,132,2020_Feb_18_1047,spring_faces,3.1.5,59.98379525781263,
condition files/Stage1_1.xlsx,,T3,B4,c,"['c', 'm']","['Clue', 'Monopoly']","[-0.15, 0.5]","[0.15, 0.5]",1,1,,,,,,,,,0,6,6,6,0,2,2,5,,,,,,,,,,,,,,,,,,,,,,,,,,,,,,,,,,,,,,,,,,,,,,,,,,,,,,,1325.7037508440008,None,1325.7037508440008,None,1325.7037508440008,None,c,1,0.9122588079990237,1327.2538873890007,None,1327.2538873890007,None,1327.2538873890007,None,1328.2230074100007,None,1328.2230074100007,None,1328.2230074100007,None,1328.2230074100007,None,,,,,,,,,,,,,,,,,,,,,,,,,,,,,,,,,,,,,,,,,,,,001,132,2020_Feb_18_1047,spring_faces,3.1.5,59.98379525781263,
condition files/Stage1_1.xlsx,,B4,T4,m,"['c', 'm']","['Clue', 'Monopoly']","[-0.15, 0.5]","[0.15, 0.5]",1,1,,,,,,,,,0,6,6,6,0,3,3,7,,,,,,,,,,,,,,,,,,,,,,,,,,,,,,,,,,,,,,,,,,,,,,,,,,,,,,,1330.1871080290002,None,1330.1871080290002,None,1330.1871080290002,None,m,1,5.867808290000539,1331.7223861170005,None,1331.7223861170005,None,1331.7223861170005,None,1337.6550821689998,None,1337.6550821689998,None,1337.6550821689998,None,1337.6550821689998,None,,,,,,,,,,,,,,,,,,,,,,,,,,,,,,,,,,,,,,,,,,,,001,132,2020_Feb_18_1047,spring_faces,3.1.5,59.98379525781263,
condition files/Stage1_1.xlsx,,B3,T3,c,"['c', 'm']","['Clue', 'Monopoly']","[-0.15, 0.5]","[0.15, 0.5]",1,1,,,,,,,,,0,6,6,6,0,4,4,4,,,,,,,,,,,,,,,,,,,,,,,,,,,,,,,,,,,,,,,,,,,,,,,,,,,,,,,1339.6199660130005,None,1339.6199660130005,None,1339.6199660130005,None,c,1,0.9152131089995237,1341.1549691330001,None,1341.1549691330001,None,1341.1549691330001,None,1342.1234974359995,None,1342.1234974359995,None,1342.1234974359995,None,1342.1234974359995,None,,,,,,,,,,,,,,,,,,,,,,,,,,,,,,,,,,,,,,,,,,,,001,132,2020_Feb_18_1047,spring_faces,3.1.5,59.98379525781263,
condition files/Stage1_1.xlsx,,T4,B3,m,"['c', 'm']","['Clue', 'Monopoly']","[-0.15, 0.5]","[0.15, 0.5]",1,1,,,,,,,,,0,6,6,6,0,5,5,6,,,,,,,,,,,,,,,,,,,,,,,,,,,,,,,,,,,,,,,,,,,,,,,,,,,,,,,1344.087111881001,None,1344.087111881001,None,1344.087111881001,None,m,1,1.1219061199990392,1345.620283143,None,1345.620283143,None,1345.620283143,None,1346.8065952230008,None,1346.8065952230008,None,1346.8065952230008,None,1346.8065952230008,None,,,,,,,,,,,,,,,,,,,,,,,,,,,,,,,,,,,,,,,,,,,,001,132,2020_Feb_18_1047,spring_faces,3.1.5,59.98379525781263,
condition files/Stage1_1.xlsx,,T1,B1,c,"['c', 'm']","['Clue', 'Monopoly']","[-0.15, 0.5]","[0.15, 0.5]",1,1,,,,,,,,,0,6,6,6,0,6,6,0,,,,,,,,,,,,,,,,,,,,,,,,,,,,,,,,,,,,,,,,,,,,,,,,,,,,,,,1348.7704469149994,None,1348.7704469149994,None,1348.7704469149994,None,c,1,0.8373908980011038,1350.3207838380004,None,1350.3207838380004,None,1350.3207838380004,None,1351.2210393200003,None,1351.2210393200003,None,1351.2210393200003,None,1351.2210393200003,None,,,,,,,,,,,,,,,,,,,,,,,,,,,,,,,,,,,,,,,,,,,,001,132,2020_Feb_18_1047,spring_faces,3.1.5,59.98379525781263,
condition files/Stage1_1.xlsx,,T2,B2,m,"['c', 'm']","['Clue', 'Monopoly']","[-0.15, 0.5]","[0.15, 0.5]",1,1,,,,,,,,,0,6,6,6,0,7,7,3,,,,,,,,,,,,,,,,,,,,,,,,,,,,,,,,,,,,,,,,,,,,,,,,,,,,,,,1353.1874723149995,None,1353.1874723149995,None,1353.1874723149995,None,m,1,1.6222526649999054,1354.7199280839995,None,1354.7199280839995,None,1354.7199280839995,None,1356.4206736350006,None,1356.4206736350006,None,1356.4206736350006,None,1356.4206736350006,None,,,,,,,,,,,,,,,,,,,,,,,,,,,,,,,,,,,,,,,,,,,,001,132,2020_Feb_18_1047,spring_faces,3.1.5,59.98379525781263,
condition files/Stage1_2.xlsx,,T1,B2,m,"['c', 'm']","['Clue', 'Monopoly']","[-0.15, 0.5]","[0.15, 0.5]",1,1,,,,,,,,,0,7,7,7,0,0,0,2,,,,,,,,,,,,,,,,,,,,,,,,,,,,,,,,,,,,,,,,,,,,,,,,,,,,,,,1358.3873902300002,None,1358.3873902300002,None,1358.3873902300002,None,m,1,0.6299562870008231,1359.920223983001,None,1359.920223983001,None,1359.920223983001,None,1360.6038207929996,None,1360.6038207929996,None,1360.6038207929996,None,1360.6038207929996,None,,,,,,,,,,,,,,,,,,,,,,,,,,,,,,,,,,,,,,,,,,,,001,132,2020_Feb_18_1047,spring_faces,3.1.5,59.98379525781263,
condition files/Stage1_2.xlsx,,T3,B3,c,"['c', 'm']","['Clue', 'Monopoly']","[-0.15, 0.5]","[0.15, 0.5]",1,1,,,,,,,,,0,7,7,7,0,1,1,4,,,,,,,,,,,,,,,,,,,,,,,,,,,,,,,,,,,,,,,,,,,,,,,,,,,,,,,1362.570209581001,None,1362.570209581001,None,1362.570209581001,None,c,1,1.740693325000393,1364.1055350450006,None,1364.1055350450006,None,1364.1055350450006,None,1365.9056961240003,None,1365.9056961240003,None,1365.9056961240003,None,1365.9056961240003,None,,,,,,,,,,,,,,,,,,,,,,,,,,,,,,,,,,,,,,,,,,,,001,132,2020_Feb_18_1047,spring_faces,3.1.5,59.98379525781263,
condition files/Stage1_2.xlsx,,B1,T1,c,"['c', 'm']","['Clue', 'Monopoly']","[-0.15, 0.5]","[0.15, 0.5]",1,1,,,,,,,,,0,7,7,7,0,2,2,0,,,,,,,,,,,,,,,,,,,,,,,,,,,,,,,,,,,,,,,,,,,,,,,,,,,,,,,1367.870502519001,None,1367.870502519001,None,1367.870502519001,None,c,1,0.6648710179997579,1369.4053240739995,None,1369.4053240739995,None,1369.4053240739995,None,1370.1210095740007,None,1370.1210095740007,None,1370.1210095740007,None,1370.1210095740007,None,,,,,,,,,,,,,,,,,,,,,,,,,,,,,,,,,,,,,,,,,,,,001,132,2020_Feb_18_1047,spring_faces,3.1.5,59.98379525781263,
condition files/Stage1_2.xlsx,,T2,B1,c,"['c', 'm']","['Clue', 'Monopoly']","[-0.15, 0.5]","[0.15, 0.5]",1,1,,,,,,,,,0,7,7,7,0,3,3,1,,,,,,,,,,,,,,,,,,,,,,,,,,,,,,,,,,,,,,,,,,,,,,,,,,,,,,,1372.08707822,None,1372.08707822,None,1372.08707822,None,c,1,0.7215835090009932,1373.6206110750009,None,1373.6206110750009,None,1373.6206110750009,None,1374.4040358229995,None,1374.4040358229995,None,1374.4040358229995,None,1374.4040358229995,None,,,,,,,,,,,,,,,,,,,,,,,,,,,,,,,,,,,,,,,,,,,,001,132,2020_Feb_18_1047,spring_faces,3.1.5,59.98379525781263,
condition files/Stage1_2.xlsx,,B4,T3,c,"['c', 'm']","['Clue', 'Monopoly']","[-0.15, 0.5]","[0.15, 0.5]",1,1,,,,,,,,,0,7,7,7,0,4,4,5,,,,,,,,,,,,,,,,,,,,,,,,,,,,,,,,,,,,,,,,,,,,,,,,,,,,,,,1376.3698361059996,None,1376.3698361059996,None,1376.3698361059996,None,c,1,0.8065792749985121,1377.903661931001,None,1377.903661931001,None,1377.903661931001,None,1378.7706575089996,None,1378.7706575089996,None,1378.7706575089996,None,1378.7706575089996,None,,,,,,,,,,,,,,,,,,,,,,,,,,,,,,,,,,,,,,,,,,,,001,132,2020_Feb_18_1047,spring_faces,3.1.5,59.98379525781263,
condition files/Stage1_2.xlsx,,B2,T2,m,"['c', 'm']","['Clue', 'Monopoly']","[-0.15, 0.5]","[0.15, 0.5]",1,1,,,,,,,,,0,7,7,7,0,5,5,3,,,,,,,,,,,,,,,,,,,,,,,,,,,,,,,,,,,,,,,,,,,,,,,,,,,,,,,1380.7367198270003,None,1380.7367198270003,None,1380.7367198270003,None,m,1,1.3830675669996708,1382.287109801,None,1382.287109801,None,1382.287109801,None,1383.7205197500007,None,1383.7205197500007,None,1383.7205197500007,None,1383.7205197500007,None,,,,,,,,,,,,,,,,,,,,,,,,,,,,,,,,,,,,,,,,,,,,001,132,2020_Feb_18_1047,spring_faces,3.1.5,59.98379525781263,
condition files/Stage1_2.xlsx,,B3,T4,m,"['c', 'm']","['Clue', 'Monopoly']","[-0.15, 0.5]","[0.15, 0.5]",1,1,,,,,,,,,0,7,7,7,0,6,6,6,,,,,,,,,,,,,,,,,,,,,,,,,,,,,,,,,,,,,,,,,,,,,,,,,,,,,,,1385.6871935140007,None,1385.6871935140007,None,1385.6871935140007,None,m,1,1.1678918690013234,1387.2223029609995,None,1387.2223029609995,None,1387.2223029609995,None,1388.454007446,None,1388.454007446,None,1388.454007446,None,1388.454007446,None,,,,,,,,,,,,,,,,,,,,,,,,,,,,,,,,,,,,,,,,,,,,001,132,2020_Feb_18_1047,spring_faces,3.1.5,59.98379525781263,
condition files/Stage1_2.xlsx,,T4,B4,m,"['c', 'm']","['Clue', 'Monopoly']","[-0.15, 0.5]","[0.15, 0.5]",1,1,,,,,,,,,0,7,7,7,0,7,7,7,,,,,,,,,,,,,,,,,,,,,,,,,,,,,,,,,,,,,,,,,,,,,,,,,,,,,,,1390.42060426,None,1390.42060426,None,1390.42060426,None,m,1,1.0603618059994915,1391.9538304199996,None,1391.9538304199996,None,1391.9538304199996,None,1393.0707437689998,None,1393.0707437689998,None,1393.0707437689998,None,1393.0707437689998,None,,,,,,,,,,,,,,,,,,,,,,,,,,,,,,,,,,,,,,,,,,,,001,132,2020_Feb_18_1047,spring_faces,3.1.5,59.98379525781263,
condition files/Stage1_1.xlsx,,T2,B2,m,"['c', 'm']","['Clue', 'Monopoly']","[-0.15, 0.5]","[0.15, 0.5]",1,1,,,,,,,,,0,8,8,8,0,0,0,3,,,,,,,,,,,,,,,,,,,,,,,,,,,,,,,,,,,,,,,,,,,,,,,,,,,,,,,1395.053648180001,None,1395.053648180001,None,1395.053648180001,None,m,1,0.7950922569998511,1396.5870606789995,None,1396.5870606789995,None,1396.5870606789995,None,1397.4372848300009,None,1397.4372848300009,None,1397.4372848300009,None,1397.4372848300009,None,,,,,,,,,,,,,,,,,,,,,,,,,,,,,,,,,,,,,,,,,,,,001,132,2020_Feb_18_1047,spring_faces,3.1.5,59.98379525781263,
condition files/Stage1_1.xlsx,,B1,T2,c,"['c', 'm']","['Clue', 'Monopoly']","[-0.15, 0.5]","[0.15, 0.5]",1,1,,,,,,,,,0,8,8,8,0,1,1,1,,,,,,,,,,,,,,,,,,,,,,,,,,,,,,,,,,,,,,,,,,,,,,,,,,,,,,,1399.403823171,None,1399.403823171,None,1399.403823171,None,c,1,0.7467204249987844,1400.9394679710003,None,1400.9394679710003,None,1400.9394679710003,None,1401.7368970820007,None,1401.7368970820007,None,1401.7368970820007,None,1401.7368970820007,None,,,,,,,,,,,,,,,,,,,,,,,,,,,,,,,,,,,,,,,,,,,,001,132,2020_Feb_18_1047,spring_faces,3.1.5,59.98379525781263,
condition files/Stage1_1.xlsx,,T3,B4,c,"['c', 'm']","['Clue', 'Monopoly']","[-0.15, 0.5]","[0.15, 0.5]",1,1,,,,,,,,,0,8,8,8,0,2,2,5,,,,,,,,,,,,,,,,,,,,,,,,,,,,,,,,,,,,,,,,,,,,,,,,,,,,,,,1403.7033063569997,None,1403.7033063569997,None,1403.7033063569997,None,c,1,0.8954005409996171,1405.23874119,None,1405.23874119,None,1405.23874119,None,1406.1874045589993,None,1406.1874045589993,None,1406.1874045589993,None,1406.1874045589993,None,,,,,,,,,,,,,,,,,,,,,,,,,,,,,,,,,,,,,,,,,,,,001,132,2020_Feb_18_1047,spring_faces,3.1.5,59.98379525781263,
condition files/Stage1_1.xlsx,,B3,T3,c,"['c', 'm']","['Clue', 'Monopoly']","[-0.15, 0.5]","[0.15, 0.5]",1,1,,,,,,,,,0,8,8,8,0,3,3,4,,,,,,,,,,,,,,,,,,,,,,,,,,,,,,,,,,,,,,,,,,,,,,,,,,,,,,,1408.1534172579995,None,1408.1534172579995,None,1408.1534172579995,None,c,1,0.957859386000564,1409.7043538319995,None,1409.7043538319995,None,1409.7043538319995,None,1410.7198105349999,None,1410.7198105349999,None,1410.7198105349999,None,1410.7198105349999,None,,,,,,,,,,,,,,,,,,,,,,,,,,,,,,,,,,,,,,,,,,,,001,132,2020_Feb_18_1047,spring_faces,3.1.5,59.98379525781263,
condition files/Stage1_1.xlsx,,B4,T4,m,"['c', 'm']","['Clue', 'Monopoly']","[-0.15, 0.5]","[0.15, 0.5]",1,1,,,,,,,,,0,8,8,8,0,4,4,7,,,,,,,,,,,,,,,,,,,,,,,,,,,,,,,,,,,,,,,,,,,,,,,,,,,,,,,1412.6871356760003,None,1412.6871356760003,None,1412.6871356760003,None,m,1,2.264747951001482,1414.2374190789997,None,1414.2374190789997,None,1414.2374190789997,None,1416.5706975070007,None,1416.5706975070007,None,1416.5706975070007,None,1416.5706975070007,None,,,,,,,,,,,,,,,,,,,,,,,,,,,,,,,,,,,,,,,,,,,,001,132,2020_Feb_18_1047,spring_faces,3.1.5,59.98379525781263,
condition files/Stage1_1.xlsx,,T1,B1,c,"['c', 'm']","['Clue', 'Monopoly']","[-0.15, 0.5]","[0.15, 0.5]",1,1,,,,,,,,,0,8,8,8,0,5,5,0,,,,,,,,,,,,,,,,,,,,,,,,,,,,,,,,,,,,,,,,,,,,,,,,,,,,,,,1418.520159011001,None,1418.520159011001,None,1418.520159011001,None,c,1,0.8939274849999492,1420.056255472,None,1420.056255472,None,1420.056255472,None,1421.0204586559994,None,1421.0204586559994,None,1421.0204586559994,None,1421.0204586559994,None,,,,,,,,,,,,,,,,,,,,,,,,,,,,,,,,,,,,,,,,,,,,001,132,2020_Feb_18_1047,spring_faces,3.1.5,59.98379525781263,
condition files/Stage1_1.xlsx,,B2,T1,m,"['c', 'm']","['Clue', 'Monopoly']","[-0.15, 0.5]","[0.15, 0.5]",1,1,,,,,,,,,0,8,8,8,0,6,6,2,,,,,,,,,,,,,,,,,,,,,,,,,,,,,,,,,,,,,,,,,,,,,,,,,,,,,,,1422.9702548200003,None,1422.9702548200003,None,1422.9702548200003,None,m,1,1.2919241239997064,1424.5062101620006,None,1424.5062101620006,None,1424.5062101620006,None,1425.856083140001,None,1425.856083140001,None,1425.856083140001,None,1425.856083140001,None,,,,,,,,,,,,,,,,,,,,,,,,,,,,,,,,,,,,,,,,,,,,001,132,2020_Feb_18_1047,spring_faces,3.1.5,59.98379525781263,
condition files/Stage1_1.xlsx,,T4,B3,m,"['c', 'm']","['Clue', 'Monopoly']","[-0.15, 0.5]","[0.15, 0.5]",1,1,,,,,,,,,0,8,8,8,0,7,7,6,,,,,,,,,,,,,,,,,,,,,,,,,,,,,,,,,,,,,,,,,,,,,,,,,,,,,,,1427.8203642690005,None,1427.8203642690005,None,1427.8203642690005,None,m,1,1.996350049999819,1429.3538294930004,None,1429.3538294930004,None,1429.3538294930004,None,1431.4040704609997,None,1431.4040704609997,None,1431.4040704609997,None,1431.4040704609997,None,,,,,,,,,,,,,,,,,,,,,,,,,,,,,,,,,,,,,,,,,,,,001,132,2020_Feb_18_1047,spring_faces,3.1.5,59.98379525781263,
condition files/Stage1_2.xlsx,,T1,B2,m,"['c', 'm']","['Clue', 'Monopoly']","[-0.15, 0.5]","[0.15, 0.5]",1,1,,,,,,,,,0,9,9,9,0,0,0,2,,,,,,,,,,,,,,,,,,,,,,,,,,,,,,,,,,,,,,,,,,,,,,,,,,,,,,,1433.3873005740006,None,1433.3873005740006,None,1433.3873005740006,None,m,1,0.9571891369996592,1434.9370279350005,None,1434.9370279350005,None,1434.9370279350005,None,1435.9532712929995,None,1435.9532712929995,None,1435.9532712929995,None,1435.9532712929995,None,,,,,,,,,,,,,,,,,,,,,,,,,,,,,,,,,,,,,,,,,,,,001,132,2020_Feb_18_1047,spring_faces,3.1.5,59.98379525781263,
condition files/Stage1_2.xlsx,,T3,B3,c,"['c', 'm']","['Clue', 'Monopoly']","[-0.15, 0.5]","[0.15, 0.5]",1,1,,,,,,,,,0,9,9,9,0,1,1,4,,,,,,,,,,,,,,,,,,,,,,,,,,,,,,,,,,,,,,,,,,,,,,,,,,,,,,,1437.920455763,None,1437.920455763,None,1437.920455763,None,c,1,0.9985935549993883,1439.4555414440001,None,1439.4555414440001,None,1439.4555414440001,None,1440.5208160220009,None,1440.5208160220009,None,1440.5208160220009,None,1440.5208160220009,None,,,,,,,,,,,,,,,,,,,,,,,,,,,,,,,,,,,,,,,,,,,,001,132,2020_Feb_18_1047,spring_faces,3.1.5,59.98379525781263,
condition files/Stage1_2.xlsx,,B4,T3,c,"['c', 'm']","['Clue', 'Monopoly']","[-0.15, 0.5]","[0.15, 0.5]",1,1,,,,,,,,,0,9,9,9,0,2,2,5,,,,,,,,,,,,,,,,,,,,,,,,,,,,,,,,,,,,,,,,,,,,,,,,,,,,,,,1442.4709358870005,None,1442.4709358870005,None,1442.4709358870005,None,c,1,4.2907026409993705,1444.003508746,None,1444.003508746,None,1444.003508746,None,1448.3535165400008,None,1448.3535165400008,None,1448.3535165400008,None,1448.3535165400008,None,,,,,,,,,,,,,,,,,,,,,,,,,,,,,,,,,,,,,,,,,,,,001,132,2020_Feb_18_1047,spring_faces,3.1.5,59.98379525781263,
condition files/Stage1_2.xlsx,,B3,T4,m,"['c', 'm']","['Clue', 'Monopoly']","[-0.15, 0.5]","[0.15, 0.5]",1,1,,,,,,,,,0,9,9,9,0,3,3,6,,,,,,,,,,,,,,,,,,,,,,,,,,,,,,,,,,,,,,,,,,,,,,,,,,,,,,,1450.3202360529995,None,1450.3202360529995,None,1450.3202360529995,None,m,1,1.1741988560006575,1451.8558796039997,None,1451.8558796039997,None,1451.8558796039997,None,1453.089541501,None,1453.089541501,None,1453.089541501,None,1453.089541501,None,,,,,,,,,,,,,,,,,,,,,,,,,,,,,,,,,,,,,,,,,,,,001,132,2020_Feb_18_1047,spring_faces,3.1.5,59.98379525781263,
condition files/Stage1_2.xlsx,,B1,T1,c,"['c', 'm']","['Clue', 'Monopoly']","[-0.15, 0.5]","[0.15, 0.5]",1,1,,,,,,,,,0,9,9,9,0,4,4,0,,,,,,,,,,,,,,,,,,,,,,,,,,,,,,,,,,,,,,,,,,,,,,,,,,,,,,,1455.0531378750002,None,1455.0531378750002,None,1455.0531378750002,None,c,1,1.130371114000809,1456.5877940080009,None,1456.5877940080009,None,1456.5877940080009,None,1457.7715848259995,None,1457.7715848259995,None,1457.7715848259995,None,1457.7715848259995,None,,,,,,,,,,,,,,,,,,,,,,,,,,,,,,,,,,,,,,,,,,,,001,132,2020_Feb_18_1047,spring_faces,3.1.5,59.98379525781263,
condition files/Stage1_2.xlsx,,B2,T2,m,"['c', 'm']","['Clue', 'Monopoly']","[-0.15, 0.5]","[0.15, 0.5]",1,1,,,,,,,,,0,9,9,9,0,5,5,3,,,,,,,,,,,,,,,,,,,,,,,,,,,,,,,,,,,,,,,,,,,,,,,,,,,,,,,1459.7373307729995,None,1459.7373307729995,None,1459.7373307729995,None,m,1,0.877344284001083,1461.2728121119999,None,1461.2728121119999,None,1461.2728121119999,None,1462.2064207510011,None,1462.2064207510011,None,1462.2064207510011,None,1462.2064207510011,None,,,,,,,,,,,,,,,,,,,,,,,,,,,,,,,,,,,,,,,,,,,,001,132,2020_Feb_18_1047,spring_faces,3.1.5,59.98379525781263,
condition files/Stage1_2.xlsx,,T2,B1,c,"['c', 'm']","['Clue', 'Monopoly']","[-0.15, 0.5]","[0.15, 0.5]",1,1,,,,,,,,,0,9,9,9,0,6,6,1,,,,,,,,,,,,,,,,,,,,,,,,,,,,,,,,,,,,,,,,,,,,,,,,,,,,,,,1464.1698426470011,None,1464.1698426470011,None,1464.1698426470011,None,c,1,1.3903019509998558,1465.7039314859994,None,1465.7039314859994,None,1465.7039314859994,None,1467.1704259569997,None,1467.1704259569997,None,1467.1704259569997,None,1467.1704259569997,None,,,,,,,,,,,,,,,,,,,,,,,,,,,,,,,,,,,,,,,,,,,,001,132,2020_Feb_18_1047,spring_faces,3.1.5,59.98379525781263,
condition files/Stage1_2.xlsx,,T4,B4,m,"['c', 'm']","['Clue', 'Monopoly']","[-0.15, 0.5]","[0.15, 0.5]",1,1,,,,,,,,,0,9,9,9,0,7,7,7,,,,,,,,,,,,,,,,,,,,,,,,,,,,,,,,,,,,,,,,,,,,,,,,,,,,,,,1469.1198870429998,None,1469.1198870429998,None,1469.1198870429998,None,m,1,8.374803482000061,1470.6553191040002,None,1470.6553191040002,None,1470.6553191040002,None,1479.0899948330007,None,1479.0899948330007,None,1479.0899948330007,None,1479.0899948330007,None,,,,,,,,,,,,,,,,,,,,,,,,,,,,,,,,,,,,,,,,,,,,001,132,2020_Feb_18_1047,spring_faces,3.1.5,59.98379525781263,
condition files/Stage1_1.xlsx,,T4,B3,m,"['c', 'm']","['Clue', 'Monopoly']","[-0.15, 0.5]","[0.15, 0.5]",1,1,,,,,,,,,0,10,10,10,0,0,0,6,,,,,,,,,,,,,,,,,,,,,,,,,,,,,,,,,,,,,,,,,,,,,,,,,,,,,,,1481.0707737619996,None,1481.0707737619996,None,1481.0707737619996,None,m,1,3.1132797069985827,1482.6048896480006,None,1482.6048896480006,None,1482.6048896480006,None,1485.7700808610007,None,1485.7700808610007,None,1485.7700808610007,None,1485.7700808610007,None,,,,,,,,,,,,,,,,,,,,,,,,,,,,,,,,,,,,,,,,,,,,001,132,2020_Feb_18_1047,spring_faces,3.1.5,59.98379525781263,
condition files/Stage1_1.xlsx,,T1,B1,c,"['c', 'm']","['Clue', 'Monopoly']","[-0.15, 0.5]","[0.15, 0.5]",1,1,,,,,,,,,0,10,10,10,0,1,1,0,,,,,,,,,,,,,,,,,,,,,,,,,,,,,,,,,,,,,,,,,,,,,,,,,,,,,,,1487.7372759869995,None,1487.7372759869995,None,1487.7372759869995,None,c,1,0.9589113140009431,1489.2872839650008,None,1489.2872839650008,None,1489.2872839650008,None,1490.3066354750008,None,1490.3066354750008,None,1490.3066354750008,None,1490.3066354750008,None,,,,,,,,,,,,,,,,,,,,,,,,,,,,,,,,,,,,,,,,,,,,001,132,2020_Feb_18_1047,spring_faces,3.1.5,59.98379525781263,
condition files/Stage1_1.xlsx,,B2,T1,m,"['c', 'm']","['Clue', 'Monopoly']","[-0.15, 0.5]","[0.15, 0.5]",1,1,,,,,,,,,0,10,10,10,0,2,2,2,,,,,,,,,,,,,,,,,,,,,,,,,,,,,,,,,,,,,,,,,,,,,,,,,,,,,,,1492.2703960979998,None,1492.2703960979998,None,1492.2703960979998,None,m,1,1.0487727319996338,1493.8054387640004,None,1493.8054387640004,None,1493.8054387640004,None,1494.920835766001,None,1494.920835766001,None,1494.920835766001,None,1494.920835766001,None,,,,,,,,,,,,,,,,,,,,,,,,,,,,,,,,,,,,,,,,,,,,001,132,2020_Feb_18_1047,spring_faces,3.1.5,59.98379525781263,
condition files/Stage1_1.xlsx,,B4,T4,m,"['c', 'm']","['Clue', 'Monopoly']","[-0.15, 0.5]","[0.15, 0.5]",1,1,,,,,,,,,0,10,10,10,0,3,3,7,,,,,,,,,,,,,,,,,,,,,,,,,,,,,,,,,,,,,,,,,,,,,,,,,,,,,,,1496.8703059170002,None,1496.8703059170002,None,1496.8703059170002,None,m,1,1.0415760289997706,1498.4046523100005,None,1498.4046523100005,None,1498.4046523100005,None,1499.5039985069998,None,1499.5039985069998,None,1499.5039985069998,None,1499.5039985069998,None,,,,,,,,,,,,,,,,,,,,,,,,,,,,,,,,,,,,,,,,,,,,001,132,2020_Feb_18_1047,spring_faces,3.1.5,59.98379525781263,
condition files/Stage1_1.xlsx,,T2,B2,m,"['c', 'm']","['Clue', 'Monopoly']","[-0.15, 0.5]","[0.15, 0.5]",1,1,,,,,,,,,0,10,10,10,0,4,4,3,,,,,,,,,,,,,,,,,,,,,,,,,,,,,,,,,,,,,,,,,,,,,,,,,,,,,,,1501.4702406649994,None,1501.4702406649994,None,1501.4702406649994,None,m,1,0.6985027569990052,1503.0036647590005,None,1503.0036647590005,None,1503.0036647590005,None,1503.7540158619995,None,1503.7540158619995,None,1503.7540158619995,None,1503.7540158619995,None,,,,,,,,,,,,,,,,,,,,,,,,,,,,,,,,,,,,,,,,,,,,001,132,2020_Feb_18_1047,spring_faces,3.1.5,59.98379525781263,
condition files/Stage1_1.xlsx,,T3,B4,c,"['c', 'm']","['Clue', 'Monopoly']","[-0.15, 0.5]","[0.15, 0.5]",1,1,,,,,,,,,0,10,10,10,0,5,5,5,,,,,,,,,,,,,,,,,,,,,,,,,,,,,,,,,,,,,,,,,,,,,,,,,,,,,,,1505.72055163,None,1505.72055163,None,1505.72055163,None,c,1,1.0873330640006316,1507.270847396001,None,1507.270847396001,None,1507.270847396001,None,1508.4206333229995,None,1508.4206333229995,None,1508.4206333229995,None,1508.4206333229995,None,,,,,,,,,,,,,,,,,,,,,,,,,,,,,,,,,,,,,,,,,,,,001,132,2020_Feb_18_1047,spring_faces,3.1.5,59.98379525781263,
condition files/Stage1_1.xlsx,,B1,T2,c,"['c', 'm']","['Clue', 'Monopoly']","[-0.15, 0.5]","[0.15, 0.5]",1,1,,,,,,,,,0,10,10,10,0,6,6,1,,,,,,,,,,,,,,,,,,,,,,,,,,,,,,,,,,,,,,,,,,,,,,,,,,,,,,,1510.387373896001,None,1510.387373896001,None,1510.387373896001,None,c,1,0.8045289420006156,1511.9376477250007,None,1511.9376477250007,None,1511.9376477250007,None,1512.8039288170003,None,1512.8039288170003,None,1512.8039288170003,None,1512.8039288170003,None,,,,,,,,,,,,,,,,,,,,,,,,,,,,,,,,,,,,,,,,,,,,001,132,2020_Feb_18_1047,spring_faces,3.1.5,59.98379525781263,
condition files/Stage1_1.xlsx,,B3,T3,c,"['c', 'm']","['Clue', 'Monopoly']","[-0.15, 0.5]","[0.15, 0.5]",1,1,,,,,,,,,0,10,10,10,0,7,7,4,,,,,,,,,,,,,,,,,,,,,,,,,,,,,,,,,,,,,,,,,,,,,,,,,,,,,,,1514.770479318,None,1514.770479318,None,1514.770479318,None,c,1,1.301638457000081,1516.320510034,None,1516.320510034,None,1516.320510034,None,1517.687303838,None,1517.687303838,None,1517.687303838,None,1517.687303838,None,,,,,,,,,,,,,,,,,,,,,,,,,,,,,,,,,,,,,,,,,,,,001,132,2020_Feb_18_1047,spring_faces,3.1.5,59.98379525781263,
condition files/Stage1_2.xlsx,,B1,T1,c,"['c', 'm']","['Clue', 'Monopoly']","[-0.15, 0.5]","[0.15, 0.5]",1,1,,,,,,,,,0,11,11,11,0,0,0,0,,,,,,,,,,,,,,,,,,,,,,,,,,,,,,,,,,,,,,,,,,,,,,,,,,,,,,,1519.6710998460003,None,1519.6710998460003,None,1519.6710998460003,None,c,1,0.7374548989992036,1521.2207339670003,None,1521.2207339670003,None,1521.2207339670003,None,1522.020243500001,None,1522.020243500001,None,1522.020243500001,None,1522.020243500001,None,,,,,,,,,,,,,,,,,,,,,,,,,,,,,,,,,,,,,,,,,,,,001,132,2020_Feb_18_1047,spring_faces,3.1.5,59.98379525781263,
condition files/Stage1_2.xlsx,,T2,B1,c,"['c', 'm']","['Clue', 'Monopoly']","[-0.15, 0.5]","[0.15, 0.5]",1,1,,,,,,,,,0,11,11,11,0,1,1,1,,,,,,,,,,,,,,,,,,,,,,,,,,,,,,,,,,,,,,,,,,,,,,,,,,,,,,,1523.9872220039997,None,1523.9872220039997,None,1523.9872220039997,None,c,1,0.6939371829994343,1525.5203023720005,None,1525.5203023720005,None,1525.5203023720005,None,1526.2707771320001,None,1526.2707771320001,None,1526.2707771320001,None,1526.2707771320001,None,,,,,,,,,,,,,,,,,,,,,,,,,,,,,,,,,,,,,,,,,,,,001,132,2020_Feb_18_1047,spring_faces,3.1.5,59.98379525781263,
condition files/Stage1_2.xlsx,,T1,B2,m,"['c', 'm']","['Clue', 'Monopoly']","[-0.15, 0.5]","[0.15, 0.5]",1,1,,,,,,,,,0,11,11,11,0,2,2,2,,,,,,,,,,,,,,,,,,,,,,,,,,,,,,,,,,,,,,,,,,,,,,,,,,,,,,,1528.2371497910008,None,1528.2371497910008,None,1528.2371497910008,None,m,1,0.6027607830001216,1529.7714340149996,None,1529.7714340149996,None,1529.7714340149996,None,1530.4369393289999,None,1530.4369393289999,None,1530.4369393289999,None,1530.4369393289999,None,,,,,,,,,,,,,,,,,,,,,,,,,,,,,,,,,,,,,,,,,,,,001,132,2020_Feb_18_1047,spring_faces,3.1.5,59.98379525781263,
condition files/Stage1_2.xlsx,,T3,B3,c,"['c', 'm']","['Clue', 'Monopoly']","[-0.15, 0.5]","[0.15, 0.5]",1,1,,,,,,,,,0,11,11,11,0,3,3,4,,,,,,,,,,,,,,,,,,,,,,,,,,,,,,,,,,,,,,,,,,,,,,,,,,,,,,,1532.403432352001,None,1532.403432352001,None,1532.403432352001,None,c,1,1.0913212249997741,1533.9387706979996,None,1533.9387706979996,None,1533.9387706979996,None,1535.0901066749993,None,1535.0901066749993,None,1535.0901066749993,None,1535.0901066749993,None,,,,,,,,,,,,,,,,,,,,,,,,,,,,,,,,,,,,,,,,,,,,001,132,2020_Feb_18_1047,spring_faces,3.1.5,59.98379525781263,
condition files/Stage1_2.xlsx,,T4,B4,m,"['c', 'm']","['Clue', 'Monopoly']","[-0.15, 0.5]","[0.15, 0.5]",1,1,,,,,,,,,0,11,11,11,0,4,4,7,,,,,,,,,,,,,,,,,,,,,,,,,,,,,,,,,,,,,,,,,,,,,,,,,,,,,,,1537.0537787520007,None,1537.0537787520007,None,1537.0537787520007,None,m,1,1.0340885919995344,1538.6040356070007,None,1538.6040356070007,None,1538.6040356070007,None,1539.7035752850006,None,1539.7035752850006,None,1539.7035752850006,None,1539.7035752850006,None,,,,,,,,,,,,,,,,,,,,,,,,,,,,,,,,,,,,,,,,,,,,001,132,2020_Feb_18_1047,spring_faces,3.1.5,59.98379525781263,
condition files/Stage1_2.xlsx,,B2,T2,m,"['c', 'm']","['Clue', 'Monopoly']","[-0.15, 0.5]","[0.15, 0.5]",1,1,,,,,,,,,0,11,11,11,0,5,5,3,,,,,,,,,,,,,,,,,,,,,,,,,,,,,,,,,,,,,,,,,,,,,,,,,,,,,,,1541.6702667120007,None,1541.6702667120007,None,1541.6702667120007,None,m,1,0.5778431910002837,1543.2042773949997,None,1543.2042773949997,None,1543.2042773949997,None,1543.8373302750006,None,1543.8373302750006,None,1543.8373302750006,None,1543.8373302750006,None,,,,,,,,,,,,,,,,,,,,,,,,,,,,,,,,,,,,,,,,,,,,001,132,2020_Feb_18_1047,spring_faces,3.1.5,59.98379525781263,
condition files/Stage1_2.xlsx,,B3,T4,m,"['c', 'm']","['Clue', 'Monopoly']","[-0.15, 0.5]","[0.15, 0.5]",1,1,,,,,,,,,0,11,11,11,0,6,6,6,,,,,,,,,,,,,,,,,,,,,,,,,,,,,,,,,,,,,,,,,,,,,,,,,,,,,,,1545.8037793490003,None,1545.8037793490003,None,1545.8037793490003,None,m,1,0.9082517340011691,1547.3379774559999,None,1547.3379774559999,None,1547.3379774559999,None,1548.3040733270009,None,1548.3040733270009,None,1548.3040733270009,None,1548.3040733270009,None,,,,,,,,,,,,,,,,,,,,,,,,,,,,,,,,,,,,,,,,,,,,001,132,2020_Feb_18_1047,spring_faces,3.1.5,59.98379525781263,
condition files/Stage1_2.xlsx,,B4,T3,c,"['c', 'm']","['Clue', 'Monopoly']","[-0.15, 0.5]","[0.15, 0.5]",1,1,,,,,,,,,0,11,11,11,0,7,7,5,,,,,,,,,,,,,,,,,,,,,,,,,,,,,,,,,,,,,,,,,,,,,,,,,,,,,,,1550.270995838,None,1550.270995838,None,1550.270995838,None,m,0,0.6186658839997108,1551.803506825001,None,1551.803506825001,None,1551.803506825001,None,1552.4869274880002,None,1552.4869274880002,None,1552.4869274880002,None,1552.4869274880002,None,,,,,,,,,,,,,,,,,,,,,,,,,,,,,,,,,,,,,,,,,,,,001,132,2020_Feb_18_1047,spring_faces,3.1.5,59.98379525781263,
,,,,,,,,,,,,,,,,,,,,,,,,,,,,,,,,,,,,,,,,,,,,,,,,,,,,,,,,,,,,,,,,,,,,,,,,,,,,,,,,,,,,,,,,,,,,,,,,,,,,,,,,,,,,,,,,1554.470439277,None,space,11.111210275001213,1559.4708954819998,None,,,,,,,,,,,,,,,,,,,,,,,,,,,,,,001,132,2020_Feb_18_1047,spring_faces,3.1.5,59.98379525781263,
condition files/Stage2_1.xlsx,,B2,T2,r,"['s', 'r']","['Stratego', 'Risk']","[-0.15, 0.5]","[0.15, 0.5]",1,1,,,,,,,,,,,,,,,,,0,0,0,0,0,0,0,3,,,,,,,,,,,,,,,,,,,,,,,,,,,,,,,,,,,,,,,,,,,,,,,1570.6374062489995,None,1570.6374062489995,None,1570.6374062489995,None,s,0,1.0829092980002315,1572.1552218470006,None,1572.1552218470006,None,1572.1552218470006,None,1573.3069023940006,None,1573.3069023940006,None,1573.3069023940006,None,1573.3069023940006,None,,,,,,,,,,,,,,,1559.4708954819998,None,,,,,,,,,,,,,,,,,,,,,,,,,,,,001,132,2020_Feb_18_1047,spring_faces,3.1.5,59.98379525781263,
condition files/Stage2_1.xlsx,,B4,T4,r,"['s', 'r']","['Stratego', 'Risk']","[-0.15, 0.5]","[0.15, 0.5]",1,1,,,,,,,,,,,,,,,,,0,0,0,0,0,1,1,5,,,,,,,,,,,,,,,,,,,,,,,,,,,,,,,,,,,,,,,,,,,,,,,1575.2701478580002,None,1575.2701478580002,None,1575.2701478580002,None,r,1,1.6346916989987221,1576.8034480309998,None,1576.8034480309998,None,1576.8034480309998,None,1578.5040329599997,None,1578.5040329599997,None,1578.5040329599997,None,1578.5040329599997,None,,,,,,,,,,,,,,,,,,,,,,,,,,,,,,,,,,,,,,,,,,,,001,132,2020_Feb_18_1047,spring_faces,3.1.5,59.98379525781263,
condition files/Stage2_1.xlsx,,B6,T6,r,"['s', 'r']","['Stratego', 'Risk']","[-0.15, 0.5]","[0.15, 0.5]",1,1,,,,,,,,,,,,,,,,,0,0,0,0,0,2,2,1,,,,,,,,,,,,,,,,,,,,,,,,,,,,,,,,,,,,,,,,,,,,,,,1580.4703784800004,None,1580.4703784800004,None,1580.4703784800004,None,s,0,2.1118312100006733,1582.070319773,None,1582.070319773,None,1582.070319773,None,1584.23776792,None,1584.23776792,None,1584.23776792,None,1584.23776792,None,,,,,,,,,,,,,,,,,,,,,,,,,,,,,,,,,,,,,,,,,,,,001,132,2020_Feb_18_1047,spring_faces,3.1.5,59.98379525781263,
condition files/Stage2_1.xlsx,,T1,B1,s,"['s', 'r']","['Stratego', 'Risk']","[-0.15, 0.5]","[0.15, 0.5]",1,1,,,,,,,,,,,,,,,,,0,0,0,0,0,3,3,2,,,,,,,,,,,,,,,,,,,,,,,,,,,,,,,,,,,,,,,,,,,,,,,1586.203017498001,None,1586.203017498001,None,1586.203017498001,None,s,1,0.95678711400069,1587.7534258630003,None,1587.7534258630003,None,1587.7534258630003,None,1588.7727517059993,None,1588.7727517059993,None,1588.7727517059993,None,1588.7727517059993,None,,,,,,,,,,,,,,,,,,,,,,,,,,,,,,,,,,,,,,,,,,,,001,132,2020_Feb_18_1047,spring_faces,3.1.5,59.98379525781263,
condition files/Stage2_1.xlsx,,T3,B3,s,"['s', 'r']","['Stratego', 'Risk']","[-0.15, 0.5]","[0.15, 0.5]",1,1,,,,,,,,,,,,,,,,,0,0,0,0,0,4,4,4,,,,,,,,,,,,,,,,,,,,,,,,,,,,,,,,,,,,,,,,,,,,,,,1590.7369185080006,None,1590.7369185080006,None,1590.7369185080006,None,s,1,1.0627935609991255,1592.271370198001,None,1592.271370198001,None,1592.271370198001,None,1593.387078703001,None,1593.387078703001,None,1593.387078703001,None,1593.387078703001,None,,,,,,,,,,,,,,,,,,,,,,,,,,,,,,,,,,,,,,,,,,,,001,132,2020_Feb_18_1047,spring_faces,3.1.5,59.98379525781263,
condition files/Stage2_1.xlsx,,T5,B5,s,"['s', 'r']","['Stratego', 'Risk']","[-0.15, 0.5]","[0.15, 0.5]",1,1,,,,,,,,,,,,,,,,,0,0,0,0,0,5,5,0,,,,,,,,,,,,,,,,,,,,,,,,,,,,,,,,,,,,,,,,,,,,,,,1595.3537579019994,None,1595.3537579019994,None,1595.3537579019994,None,s,1,2.9089487189994543,1596.8892240990008,None,1596.8892240990008,None,1596.8892240990008,None,1599.8537993440004,None,1599.8537993440004,None,1599.8537993440004,None,1599.8537993440004,None,,,,,,,,,,,,,,,,,,,,,,,,,,,,,,,,,,,,,,,,,,,,001,132,2020_Feb_18_1047,spring_faces,3.1.5,59.98379525781263,
condition files/Stage2_2.xlsx,,T4,B4,r,"['s', 'r']","['Stratego', 'Risk']","[-0.15, 0.5]","[0.15, 0.5]",1,1,,,,,,,,,,,,,,,,,0,1,1,1,0,0,0,5,,,,,,,,,,,,,,,,,,,,,,,,,,,,,,,,,,,,,,,,,,,,,,,1601.8370309870006,None,1601.8370309870006,None,1601.8370309870006,None,r,1,1.7715383649992873,1603.3706670360007,None,1603.3706670360007,None,1603.3706670360007,None,1605.2049544630008,None,1605.2049544630008,None,1605.2049544630008,None,1605.2049544630008,None,,,,,,,,,,,,,,,,,,,,,,,,,,,,,,,,,,,,,,,,,,,,001,132,2020_Feb_18_1047,spring_faces,3.1.5,59.98379525781263,
condition files/Stage2_2.xlsx,,T6,B6,r,"['s', 'r']","['Stratego', 'Risk']","[-0.15, 0.5]","[0.15, 0.5]",1,1,,,,,,,,,,,,,,,,,0,1,1,1,0,1,1,1,,,,,,,,,,,,,,,,,,,,,,,,,,,,,,,,,,,,,,,,,,,,,,,1607.1703942389995,None,1607.1703942389995,None,1607.1703942389995,None,r,1,1.1107077920005395,1608.7034685430008,None,1608.7034685430008,None,1608.7034685430008,None,1609.8707338490003,None,1609.8707338490003,None,1609.8707338490003,None,1609.8707338490003,None,,,,,,,,,,,,,,,,,,,,,,,,,,,,,,,,,,,,,,,,,,,,001,132,2020_Feb_18_1047,spring_faces,3.1.5,59.98379525781263,
condition files/Stage2_2.xlsx,,T2,B2,r,"['s', 'r']","['Stratego', 'Risk']","[-0.15, 0.5]","[0.15, 0.5]",1,1,,,,,,,,,,,,,,,,,0,1,1,1,0,2,2,3,,,,,,,,,,,,,,,,,,,,,,,,,,,,,,,,,,,,,,,,,,,,,,,1611.8375733560006,None,1611.8375733560006,None,1611.8375733560006,None,r,1,0.9867977289995906,1613.3714011410011,None,1613.3714011410011,None,1613.3714011410011,None,1614.4204987360008,None,1614.4204987360008,None,1614.4204987360008,None,1614.4204987360008,None,,,,,,,,,,,,,,,,,,,,,,,,,,,,,,,,,,,,,,,,,,,,001,132,2020_Feb_18_1047,spring_faces,3.1.5,59.98379525781263,
condition files/Stage2_2.xlsx,,B5,T5,s,"['s', 'r']","['Stratego', 'Risk']","[-0.15, 0.5]","[0.15, 0.5]",1,1,,,,,,,,,,,,,,,,,0,1,1,1,0,3,3,0,,,,,,,,,,,,,,,,,,,,,,,,,,,,,,,,,,,,,,,,,,,,,,,1616.3872325560005,None,1616.3872325560005,None,1616.3872325560005,None,s,1,1.8458946549999382,1617.920254527,None,1617.920254527,None,1617.920254527,None,1619.8374354490006,None,1619.8374354490006,None,1619.8374354490006,None,1619.8374354490006,None,,,,,,,,,,,,,,,,,,,,,,,,,,,,,,,,,,,,,,,,,,,,001,132,2020_Feb_18_1047,spring_faces,3.1.5,59.98379525781263,
condition files/Stage2_2.xlsx,,B1,T1,s,"['s', 'r']","['Stratego', 'Risk']","[-0.15, 0.5]","[0.15, 0.5]",1,1,,,,,,,,,,,,,,,,,0,1,1,1,0,4,4,2,,,,,,,,,,,,,,,,,,,,,,,,,,,,,,,,,,,,,,,,,,,,,,,1621.787240482001,None,1621.787240482001,None,1621.787240482001,None,s,1,1.0041168129992002,1623.3220805149995,None,1623.3220805149995,None,1623.3220805149995,None,1624.3871624370004,None,1624.3871624370004,None,1624.3871624370004,None,1624.3871624370004,None,,,,,,,,,,,,,,,,,,,,,,,,,,,,,,,,,,,,,,,,,,,,001,132,2020_Feb_18_1047,spring_faces,3.1.5,59.98379525781263,
condition files/Stage2_2.xlsx,,B3,T3,s,"['s', 'r']","['Stratego', 'Risk']","[-0.15, 0.5]","[0.15, 0.5]",1,1,,,,,,,,,,,,,,,,,0,1,1,1,0,5,5,4,,,,,,,,,,,,,,,,,,,,,,,,,,,,,,,,,,,,,,,,,,,,,,,1626.3539727940006,None,1626.3539727940006,None,1626.3539727940006,None,s,1,1.1089685360002477,1627.8891732539996,None,1627.8891732539996,None,1627.8891732539996,None,1629.054143614001,None,1629.054143614001,None,1629.054143614001,None,1629.054143614001,None,,,,,,,,,,,,,,,,,,,,,,,,,,,,,,,,,,,,,,,,,,,,001,132,2020_Feb_18_1047,spring_faces,3.1.5,59.98379525781263,
condition files/Stage2_1.xlsx,,T5,B5,s,"['s', 'r']","['Stratego', 'Risk']","[-0.15, 0.5]","[0.15, 0.5]",1,1,,,,,,,,,,,,,,,,,0,2,2,2,0,0,0,0,,,,,,,,,,,,,,,,,,,,,,,,,,,,,,,,,,,,,,,,,,,,,,,1631.0370501649995,None,1631.0370501649995,None,1631.0370501649995,None,s,1,1.6103811579996545,1632.5717747390008,None,1632.5717747390008,None,1632.5717747390008,None,1634.237051098,None,1634.237051098,None,1634.237051098,None,1634.237051098,None,,,,,,,,,,,,,,,,,,,,,,,,,,,,,,,,,,,,,,,,,,,,001,132,2020_Feb_18_1047,spring_faces,3.1.5,59.98379525781263,
condition files/Stage2_1.xlsx,,B6,T6,r,"['s', 'r']","['Stratego', 'Risk']","[-0.15, 0.5]","[0.15, 0.5]",1,1,,,,,,,,,,,,,,,,,0,2,2,2,0,1,1,1,,,,,,,,,,,,,,,,,,,,,,,,,,,,,,,,,,,,,,,,,,,,,,,1636.2037519059995,None,1636.2037519059995,None,1636.2037519059995,None,r,1,1.4045070200008922,1637.737683716001,None,1637.737683716001,None,1637.737683716001,None,1639.2065401920008,None,1639.2065401920008,None,1639.2065401920008,None,1639.2065401920008,None,,,,,,,,,,,,,,,,,,,,,,,,,,,,,,,,,,,,,,,,,,,,001,132,2020_Feb_18_1047,spring_faces,3.1.5,59.98379525781263,
condition files/Stage2_1.xlsx,,T3,B3,s,"['s', 'r']","['Stratego', 'Risk']","[-0.15, 0.5]","[0.15, 0.5]",1,1,,,,,,,,,,,,,,,,,0,2,2,2,0,2,2,4,,,,,,,,,,,,,,,,,,,,,,,,,,,,,,,,,,,,,,,,,,,,,,,1641.169919666001,None,1641.169919666001,None,1641.169919666001,None,s,1,1.2374433290005982,1642.7047479600005,None,1642.7047479600005,None,1642.7047479600005,None,1644.0039879369997,None,1644.0039879369997,None,1644.0039879369997,None,1644.0039879369997,None,,,,,,,,,,,,,,,,,,,,,,,,,,,,,,,,,,,,,,,,,,,,001,132,2020_Feb_18_1047,spring_faces,3.1.5,59.98379525781263,
condition files/Stage2_1.xlsx,,B4,T4,r,"['s', 'r']","['Stratego', 'Risk']","[-0.15, 0.5]","[0.15, 0.5]",1,1,,,,,,,,,,,,,,,,,0,2,2,2,0,3,3,5,,,,,,,,,,,,,,,,,,,,,,,,,,,,,,,,,,,,,,,,,,,,,,,1645.9709750330003,None,1645.9709750330003,None,1645.9709750330003,None,r,1,1.3488794259992574,1647.5053251499994,None,1647.5053251499994,None,1647.5053251499994,None,1648.9209225100003,None,1648.9209225100003,None,1648.9209225100003,None,1648.9209225100003,None,,,,,,,,,,,,,,,,,,,,,,,,,,,,,,,,,,,,,,,,,,,,001,132,2020_Feb_18_1047,spring_faces,3.1.5,59.98379525781263,
condition files/Stage2_1.xlsx,,T1,B1,s,"['s', 'r']","['Stratego', 'Risk']","[-0.15, 0.5]","[0.15, 0.5]",1,1,,,,,,,,,,,,,,,,,0,2,2,2,0,4,4,2,,,,,,,,,,,,,,,,,,,,,,,,,,,,,,,,,,,,,,,,,,,,,,,1650.8706457429998,None,1650.8706457429998,None,1650.8706457429998,None,s,1,2.7055760540006304,1652.4206041670004,None,1652.4206041670004,None,1652.4206041670004,None,1655.189572149,None,1655.189572149,None,1655.189572149,None,1655.189572149,None,,,,,,,,,,,,,,,,,,,,,,,,,,,,,,,,,,,,,,,,,,,,001,132,2020_Feb_18_1047,spring_faces,3.1.5,59.98379525781263,
condition files/Stage2_1.xlsx,,B2,T2,r,"['s', 'r']","['Stratego', 'Risk']","[-0.15, 0.5]","[0.15, 0.5]",1,1,,,,,,,,,,,,,,,,,0,2,2,2,0,5,5,3,,,,,,,,,,,,,,,,,,,,,,,,,,,,,,,,,,,,,,,,,,,,,,,1657.1537830399993,None,1657.1537830399993,None,1657.1537830399993,None,r,1,1.4461788489988976,1658.6879278430006,None,1658.6879278430006,None,1658.6879278430006,None,1660.1889708859999,None,1660.1889708859999,None,1660.1889708859999,None,1660.1889708859999,None,,,,,,,,,,,,,,,,,,,,,,,,,,,,,,,,,,,,,,,,,,,,001,132,2020_Feb_18_1047,spring_faces,3.1.5,59.98379525781263,
condition files/Stage2_2.xlsx,,B3,T3,s,"['s', 'r']","['Stratego', 'Risk']","[-0.15, 0.5]","[0.15, 0.5]",1,1,,,,,,,,,,,,,,,,,0,3,3,3,0,0,0,4,,,,,,,,,,,,,,,,,,,,,,,,,,,,,,,,,,,,,,,,,,,,,,,1662.1701942990003,None,1662.1701942990003,None,1662.1701942990003,None,s,1,0.8774100369992084,1663.720755896,None,1663.720755896,None,1663.720755896,None,1664.6704714780008,None,1664.6704714780008,None,1664.6704714780008,None,1664.6704714780008,None,,,,,,,,,,,,,,,,,,,,,,,,,,,,,,,,,,,,,,,,,,,,001,132,2020_Feb_18_1047,spring_faces,3.1.5,59.98379525781263,
condition files/Stage2_2.xlsx,,T4,B4,r,"['s', 'r']","['Stratego', 'Risk']","[-0.15, 0.5]","[0.15, 0.5]",1,1,,,,,,,,,,,,,,,,,0,3,3,3,0,1,1,5,,,,,,,,,,,,,,,,,,,,,,,,,,,,,,,,,,,,,,,,,,,,,,,1666.620605088001,None,1666.620605088001,None,1666.620605088001,None,r,1,1.0672272970004997,1668.1549089550008,None,1668.1549089550008,None,1668.1549089550008,None,1669.2880706899996,None,1669.2880706899996,None,1669.2880706899996,None,1669.2880706899996,None,,,,,,,,,,,,,,,,,,,,,,,,,,,,,,,,,,,,,,,,,,,,001,132,2020_Feb_18_1047,spring_faces,3.1.5,59.98379525781263,
condition files/Stage2_2.xlsx,,T6,B6,r,"['s', 'r']","['Stratego', 'Risk']","[-0.15, 0.5]","[0.15, 0.5]",1,1,,,,,,,,,,,,,,,,,0,3,3,3,0,2,2,1,,,,,,,,,,,,,,,,,,,,,,,,,,,,,,,,,,,,,,,,,,,,,,,1671.253909856001,None,1671.253909856001,None,1671.253909856001,None,r,1,2.338454462998925,1672.7877389429996,None,1672.7877389429996,None,1672.7877389429996,None,1675.1870189279998,None,1675.1870189279998,None,1675.1870189279998,None,1675.1870189279998,None,,,,,,,,,,,,,,,,,,,,,,,,,,,,,,,,,,,,,,,,,,,,001,132,2020_Feb_18_1047,spring_faces,3.1.5,59.98379525781263,
condition files/Stage2_2.xlsx,,T2,B2,r,"['s', 'r']","['Stratego', 'Risk']","[-0.15, 0.5]","[0.15, 0.5]",1,1,,,,,,,,,,,,,,,,,0,3,3,3,0,3,3,3,,,,,,,,,,,,,,,,,,,,,,,,,,,,,,,,,,,,,,,,,,,,,,,1677.1537986429994,None,1677.1537986429994,None,1677.1537986429994,None,r,1,0.806418678999762,1678.6878185919995,None,1678.6878185919995,None,1678.6878185919995,None,1679.553957987,None,1679.553957987,None,1679.553957987,None,1679.553957987,None,,,,,,,,,,,,,,,,,,,,,,,,,,,,,,,,,,,,,,,,,,,,001,132,2020_Feb_18_1047,spring_faces,3.1.5,59.98379525781263,
condition files/Stage2_2.xlsx,,B1,T1,s,"['s', 'r']","['Stratego', 'Risk']","[-0.15, 0.5]","[0.15, 0.5]",1,1,,,,,,,,,,,,,,,,,0,3,3,3,0,4,4,2,,,,,,,,,,,,,,,,,,,,,,,,,,,,,,,,,,,,,,,,,,,,,,,1681.5204498120002,None,1681.5204498120002,None,1681.5204498120002,None,s,1,1.0804179379993002,1683.0537532930011,None,1683.0537532930011,None,1683.0537532930011,None,1684.1892074629995,None,1684.1892074629995,None,1684.1892074629995,None,1684.1892074629995,None,,,,,,,,,,,,,,,,,,,,,,,,,,,,,,,,,,,,,,,,,,,,001,132,2020_Feb_18_1047,spring_faces,3.1.5,59.98379525781263,
condition files/Stage2_2.xlsx,,B5,T5,s,"['s', 'r']","['Stratego', 'Risk']","[-0.15, 0.5]","[0.15, 0.5]",1,1,,,,,,,,,,,,,,,,,0,3,3,3,0,5,5,0,,,,,,,,,,,,,,,,,,,,,,,,,,,,,,,,,,,,,,,,,,,,,,,1686.153396515001,None,1686.153396515001,None,1686.153396515001,None,s,1,1.6940745470001275,1687.688053891001,None,1687.688053891001,None,1687.688053891001,None,1689.437634668,None,1689.437634668,None,1689.437634668,None,1689.437634668,None,,,,,,,,,,,,,,,,,,,,,,,,,,,,,,,,,,,,,,,,,,,,001,132,2020_Feb_18_1047,spring_faces,3.1.5,59.98379525781263,
condition files/Stage2_1.xlsx,,T1,B1,s,"['s', 'r']","['Stratego', 'Risk']","[-0.15, 0.5]","[0.15, 0.5]",1,1,,,,,,,,,,,,,,,,,0,4,4,4,0,0,0,2,,,,,,,,,,,,,,,,,,,,,,,,,,,,,,,,,,,,,,,,,,,,,,,1691.4204681200008,None,1691.4204681200008,None,1691.4204681200008,None,s,1,1.0194428779996088,1692.9547603650008,None,1692.9547603650008,None,1692.9547603650008,None,1694.0370559210005,None,1694.0370559210005,None,1694.0370559210005,None,1694.0370559210005,None,,,,,,,,,,,,,,,,,,,,,,,,,,,,,,,,,,,,,,,,,,,,001,132,2020_Feb_18_1047,spring_faces,3.1.5,59.98379525781263,
condition files/Stage2_1.xlsx,,T5,B5,s,"['s', 'r']","['Stratego', 'Risk']","[-0.15, 0.5]","[0.15, 0.5]",1,1,,,,,,,,,,,,,,,,,0,4,4,4,0,1,1,0,,,,,,,,,,,,,,,,,,,,,,,,,,,,,,,,,,,,,,,,,,,,,,,1696.0037424319999,None,1696.0037424319999,None,1696.0037424319999,None,s,1,0.7877978190008434,1697.538398695,None,1697.538398695,None,1697.538398695,None,1698.3877396900007,None,1698.3877396900007,None,1698.3877396900007,None,1698.3877396900007,None,,,,,,,,,,,,,,,,,,,,,,,,,,,,,,,,,,,,,,,,,,,,001,132,2020_Feb_18_1047,spring_faces,3.1.5,59.98379525781263,
