condsFile,subStage,cue1,cue2,correct,responseKeys,responseNames,cue1Position,cue2Position,cue1Opacity,cue2Opacity,stageLoop0.thisRepN,stageLoop0.thisTrialN,stageLoop0.thisN,stageLoop0.thisIndex,blockLoop0.thisRepN,blockLoop0.thisTrialN,blockLoop0.thisN,blockLoop0.thisIndex,stage1Loop.thisRepN,stage1Loop.thisTrialN,stage1Loop.thisN,stage1Loop.thisIndex,blockLoop1.thisRepN,blockLoop1.thisTrialN,blockLoop1.thisN,blockLoop1.thisIndex,stage2Loop.thisRepN,stage2Loop.thisTrialN,stage2Loop.thisN,stage2Loop.thisIndex,blockLoop2.thisRepN,blockLoop2.thisTrialN,blockLoop2.thisN,blockLoop2.thisIndex,testLoop.thisRepN,testLoop.thisTrialN,testLoop.thisN,testLoop.thisIndex,blockLoopTest.thisRepN,blockLoopTest.thisTrialN,blockLoopTest.thisN,blockLoopTest.thisIndex,cuePics,id_instr_text.started,id_instr_text.stopped,space_to_continue_2.started,space_to_continue_2.stopped,end_instructions_resp_3.keys,end_instructions_resp_3.rt,end_instructions_resp_3.started,end_instructions_resp_3.stopped,id_input_instr.started,id_input_instr.stopped,id_input_rect.started,id_input_rect.stopped,id_input_resp.keys,id_input_resp.rt,id_input_resp.started,id_input_resp.stopped,sonaID,id_input_text.started,id_input_text.stopped,final_text.started,final_text.stopped,instructions.started,instructions.stopped,end_instructions_resp.keys,end_instructions_resp.rt,end_instructions_resp.started,end_instructions_resp.stopped,space_to_continue.started,space_to_continue.stopped,instructions_stage0.started,instructions_stage0.stopped,end_instructions_resp_stage0.keys,end_instructions_resp_stage0.rt,end_instructions_resp_stage0.started,end_instructions_resp_stage0.stopped,space_to_continue_stage0.started,space_to_continue_stage0.stopped,text.started,text.stopped,resp_text1.started,resp_text1.stopped,resp_text2.started,resp_text2.stopped,trial_resp.keys,trial_resp.corr,trial_resp.rt,trial_resp.started,trial_resp.stopped,cue1Image.started,cue1Image.stopped,cue2Image.started,cue2Image.stopped,cue1Image_fb.started,cue1Image_fb.stopped,cue2Image_fb.started,cue2Image_fb.stopped,fb_text_answer.started,fb_text_answer.stopped,feedback_image.started,feedback_image.stopped,instructions_stage1.started,instructions_stage1.stopped,end_instructions_resp_stage1.keys,end_instructions_resp_stage1.rt,end_instructions_resp_stage1.started,end_instructions_resp_stage1.stopped,space_to_continue_stage1.started,space_to_continue_stage1.stopped,instructions_2.started,instructions_2.stopped,end_instructions_resp_2.keys,end_instructions_resp_2.rt,end_instructions_resp_2.started,end_instructions_resp_2.stopped,press_space_to_continue_stage2.started,press_space_to_continue_stage2.stopped,instructions_testStage1.started,instructions_testStage1.stopped,end_instructions_resp_test1.keys,end_instructions_resp_test1.rt,end_instructions_resp_test1.started,end_instructions_resp_test1.stopped,press_space_to_continue_test1.started,press_space_to_continue_test1.stopped,cue1Image_testChoice.started,cue1Image_testChoice.stopped,cue2Image_testChoice.started,cue2Image_testChoice.stopped,test_resp.keys,test_resp.corr,test_resp.rt,test_resp.started,test_resp.stopped,cue1Image_testConf.started,cue1Image_testConf.stopped,cue2Image_testConf.started,cue2Image_testConf.stopped,conf_reminder.started,conf_reminder.stopped,conf_rating.response,conf_rating.rt,conf_rating.started,conf_rating.stopped,session,participant,date,expName,psychopyVersion,frameRate,
,,,,,,,,,,,,,,,,,,,,,,,,,,,,,,,,,,,,,,,,,,,"{'none': 'pictures/20M_AN_C.png', 'alpha': 'pictures/SHINEd_pepper.png', 'beta': 'pictures/SHINEd_pear.png', 'theta': 'pictures/SHINEd_apple.png', 'phi': 'pictures/SHINEd_melon.png', 'T1': 'pictures/34M_AN_C.png', 'T2': 'pictures/25M_AN_C.png', 'T3': 'pictures/23M_AN_C.png', 'T4': 'pictures/20M_AN_C.png', 'T5': 'pictures/37M_AN_C.png', 'T6': 'pictures/31M_AN_C.png', 'B1': 'pictures/32M_NE_C.png', 'B2': 'pictures/22M_NE_C.png', 'B3': 'pictures/26M_NE_C.png', 'B4': 'pictures/36M_NE_C.png', 'B5': 'pictures/38M_NE_C.png', 'B6': 'pictures/33M_NE_C.png'}",13.420645813001101,None,18.403721593000228,None,space,1920.6975204009996,18.403721593000228,None,,,,,,,,,,,,,,,,,,,,,,,,,,,,,,,,,,,,,,,,,,,,,,,,,,,,,,,,,,,,,,,,,,,,,,,,,,,,,,,,,,,,,,,,,,,,,,,,001,135,2020_Feb_18_1154,spring_faces,3.1.5,59.844705741486905,
,,,,,,,,,,,,,,,,,,,,,,,,,,,,,,,,,,,,,,,,,,,,,,,,,,,,1939.4712701490007,None,1939.4712701490007,None,"['0', '1', '3', '1', 'a', 'l', 'o', 'a', 'k']","[17.277951717000178, 19.67794082399996, 22.045954115999848, 22.25398061099986, 25.27792388600028, 25.517896430999826, 28.317942567999125, 29.358036663999883, 29.6779308389996]",1939.4712701490007,None,,,,,,,,,,,,,,,,,,,,,,,,,,,,,,,,,,,,,,,,,,,,,,,,,,,,,,,,,,,,,,,,,,,,,,,,,,,,,,,,,,,,,,,,001,135,2020_Feb_18_1154,spring_faces,3.1.5,59.844705741486905,
,,,,,,,,,,,,,,,,,,,,,,,,,,,,,,,,,,,,,,,,,,,,,,,,,,,,,,,,,,,,0131aloak,1939.4712701490007,None,1939.4712701490007,None,1974.220165873001,None,space,8.040645239998412,1979.2206600450008,None,,,,,,,,,,,,,,,,,,,,,,,,,,,,,,,,,,,,,,,,,,,,,,,,,,,,,,,,,,,,,,,,,,,,,,,,,,,,,001,135,2020_Feb_18_1154,spring_faces,3.1.5,59.844705741486905,
,,,,,,,,,,,,,,,,,,,,,,,,,,,,,,,,,,,,,,,,,,,,,,,,,,,,,,,,,,,,,,,,,,,,,,,1979.2206600450008,None,1987.3039490660012,None,space,12.446176827999807,1992.287075915001,None,,,,,,,,,,,,,,,,,,,,,,,,,,,,,,,,,,,,,,,,,,,,,,,,,,,,,,,,,,,,,,,,,,,,,001,135,2020_Feb_18_1154,spring_faces,3.1.5,59.844705741486905,
condition files/Stage0a.xlsx,0a,beta,none,g,"['h', 'g']","['Chess', 'Go']","[0, 0.5]","[0, 0]",1,0,0,0,0,0,0,0,0,1,,,,,,,,,,,,,,,,,,,,,,,,,,,,,,,,,,,,,,,,,,,,,,,,,,,,,,,,,,,,,1992.287075915001,None,2004.7869534279998,None,2004.7869534279998,None,2004.7869534279998,None,g,1,8.106389024000237,2006.3708460819998,None,2006.3708460819998,None,2006.3708460819998,None,2014.5534483480005,None,2014.5534483480005,None,2014.5534483480005,None,2014.5534483480005,None,,,,,,,,,,,,,,,,,,,,,,,,,,,,,,,,,,,,,,,,,,,,001,135,2020_Feb_18_1154,spring_faces,3.1.5,59.844705741486905,
condition files/Stage0a.xlsx,0a,alpha,none,h,"['h', 'g']","['Chess', 'Go']","[0, 0.5]","[0, 0]",1,0,0,0,0,0,0,1,1,0,,,,,,,,,,,,,,,,,,,,,,,,,,,,,,,,,,,,,,,,,,,,,,,,,,,,,,,,,,,,,,,2016.503736525001,None,2016.503736525001,None,2016.503736525001,None,h,1,2.3761079969990533,2018.053179601,None,2018.053179601,None,2018.053179601,None,2020.4867227290015,None,2020.4867227290015,None,2020.4867227290015,None,2020.4867227290015,None,,,,,,,,,,,,,,,,,,,,,,,,,,,,,,,,,,,,,,,,,,,,001,135,2020_Feb_18_1154,spring_faces,3.1.5,59.844705741486905,
condition files/Stage0a.xlsx,0a,beta,none,g,"['h', 'g']","['Chess', 'Go']","[0, 0.5]","[0, 0]",1,0,0,1,1,1,0,0,0,1,,,,,,,,,,,,,,,,,,,,,,,,,,,,,,,,,,,,,,,,,,,,,,,,,,,,,,,,,,,,,,,2022.4706702610001,None,2022.4706702610001,None,2022.4706702610001,None,h,0,1.4499804810002388,2024.0032528850006,None,2024.0032528850006,None,2024.0032528850006,None,2025.503305354001,None,2025.503305354001,None,2025.503305354001,None,2025.503305354001,None,,,,,,,,,,,,,,,,,,,,,,,,,,,,,,,,,,,,,,,,,,,,001,135,2020_Feb_18_1154,spring_faces,3.1.5,59.844705741486905,
condition files/Stage0a.xlsx,0a,alpha,none,h,"['h', 'g']","['Chess', 'Go']","[0, 0.5]","[0, 0]",1,0,0,1,1,1,0,1,1,0,,,,,,,,,,,,,,,,,,,,,,,,,,,,,,,,,,,,,,,,,,,,,,,,,,,,,,,,,,,,,,,2027.4703689590006,None,2027.4703689590006,None,2027.4703689590006,None,h,1,1.12115667100079,2029.0040780550007,None,2029.0040780550007,None,2029.0040780550007,None,2030.1870575030007,None,2030.1870575030007,None,2030.1870575030007,None,2030.1870575030007,None,,,,,,,,,,,,,,,,,,,,,,,,,,,,,,,,,,,,,,,,,,,,001,135,2020_Feb_18_1154,spring_faces,3.1.5,59.844705741486905,
condition files/Stage0a.xlsx,0a,alpha,none,h,"['h', 'g']","['Chess', 'Go']","[0, 0.5]","[0, 0]",1,0,0,2,2,2,0,0,0,0,,,,,,,,,,,,,,,,,,,,,,,,,,,,,,,,,,,,,,,,,,,,,,,,,,,,,,,,,,,,,,,2032.1706500180007,None,2032.1706500180007,None,2032.1706500180007,None,g,0,2.1188366649985255,2033.6864338209998,None,2033.6864338209998,None,2033.6864338209998,None,2035.8705121000003,None,2035.8705121000003,None,2035.8705121000003,None,2035.8705121000003,None,,,,,,,,,,,,,,,,,,,,,,,,,,,,,,,,,,,,,,,,,,,,001,135,2020_Feb_18_1154,spring_faces,3.1.5,59.844705741486905,
condition files/Stage0a.xlsx,0a,beta,none,g,"['h', 'g']","['Chess', 'Go']","[0, 0.5]","[0, 0]",1,0,0,2,2,2,0,1,1,1,,,,,,,,,,,,,,,,,,,,,,,,,,,,,,,,,,,,,,,,,,,,,,,,,,,,,,,,,,,,,,,2037.8361334930014,None,2037.8361334930014,None,2037.8361334930014,None,g,1,2.80328817499867,2039.369943451,None,2039.369943451,None,2039.369943451,None,2042.237232032001,None,2042.237232032001,None,2042.237232032001,None,2042.237232032001,None,,,,,,,,,,,,,,,,,,,,,,,,,,,,,,,,,,,,,,,,,,,,001,135,2020_Feb_18_1154,spring_faces,3.1.5,59.844705741486905,
condition files/Stage0a.xlsx,0a,beta,none,g,"['h', 'g']","['Chess', 'Go']","[0, 0.5]","[0, 0]",1,0,0,3,3,3,0,0,0,1,,,,,,,,,,,,,,,,,,,,,,,,,,,,,,,,,,,,,,,,,,,,,,,,,,,,,,,,,,,,,,,2044.2207418590006,None,2044.2207418590006,None,2044.2207418590006,None,g,1,1.0925469560006604,2045.7367390070012,None,2045.7367390070012,None,2045.7367390070012,None,2046.8868490540008,None,2046.8868490540008,None,2046.8868490540008,None,2046.8868490540008,None,,,,,,,,,,,,,,,,,,,,,,,,,,,,,,,,,,,,,,,,,,,,001,135,2020_Feb_18_1154,spring_faces,3.1.5,59.844705741486905,
condition files/Stage0a.xlsx,0a,alpha,none,h,"['h', 'g']","['Chess', 'Go']","[0, 0.5]","[0, 0]",1,0,0,3,3,3,0,1,1,0,,,,,,,,,,,,,,,,,,,,,,,,,,,,,,,,,,,,,,,,,,,,,,,,,,,,,,,,,,,,,,,2048.853810105,None,2048.853810105,None,2048.853810105,None,h,1,0.7463321819996054,2050.3868913920014,None,2050.3868913920014,None,2050.3868913920014,None,2051.1868021560003,None,2051.1868021560003,None,2051.1868021560003,None,2051.1868021560003,None,,,,,,,,,,,,,,,,,,,,,,,,,,,,,,,,,,,,,,,,,,,,001,135,2020_Feb_18_1154,spring_faces,3.1.5,59.844705741486905,
condition files/Stage0a.xlsx,0a,beta,none,g,"['h', 'g']","['Chess', 'Go']","[0, 0.5]","[0, 0]",1,0,0,4,4,4,0,0,0,1,,,,,,,,,,,,,,,,,,,,,,,,,,,,,,,,,,,,,,,,,,,,,,,,,,,,,,,,,,,,,,,2053.1706691130003,None,2053.1706691130003,None,2053.1706691130003,None,g,1,1.7410175550012355,2054.7042682660012,None,2054.7042682660012,None,2054.7042682660012,None,2056.503581182,None,2056.503581182,None,2056.503581182,None,2056.503581182,None,,,,,,,,,,,,,,,,,,,,,,,,,,,,,,,,,,,,,,,,,,,,001,135,2020_Feb_18_1154,spring_faces,3.1.5,59.844705741486905,
condition files/Stage0a.xlsx,0a,alpha,none,h,"['h', 'g']","['Chess', 'Go']","[0, 0.5]","[0, 0]",1,0,0,4,4,4,0,1,1,0,,,,,,,,,,,,,,,,,,,,,,,,,,,,,,,,,,,,,,,,,,,,,,,,,,,,,,,,,,,,,,,2058.4695383400012,None,2058.4695383400012,None,2058.4695383400012,None,h,1,1.4012653369991313,2060.0039585970007,None,2060.0039585970007,None,2060.0039585970007,None,2061.470145458001,None,2061.470145458001,None,2061.470145458001,None,2061.470145458001,None,,,,,,,,,,,,,,,,,,,,,,,,,,,,,,,,,,,,,,,,,,,,001,135,2020_Feb_18_1154,spring_faces,3.1.5,59.844705741486905,
condition files/Stage0a.xlsx,0a,alpha,none,h,"['h', 'g']","['Chess', 'Go']","[0, 0.5]","[0, 0]",1,0,0,5,5,5,0,0,0,0,,,,,,,,,,,,,,,,,,,,,,,,,,,,,,,,,,,,,,,,,,,,,,,,,,,,,,,,,,,,,,,2063.4542092620013,None,2063.4542092620013,None,2063.4542092620013,None,h,1,3.49017260599976,2064.9871159640006,None,2064.9871159640006,None,2064.9871159640006,None,2068.5374208970006,None,2068.5374208970006,None,2068.5374208970006,None,2068.5374208970006,None,,,,,,,,,,,,,,,,,,,,,,,,,,,,,,,,,,,,,,,,,,,,001,135,2020_Feb_18_1154,spring_faces,3.1.5,59.844705741486905,
condition files/Stage0a.xlsx,0a,beta,none,g,"['h', 'g']","['Chess', 'Go']","[0, 0.5]","[0, 0]",1,0,0,5,5,5,0,1,1,1,,,,,,,,,,,,,,,,,,,,,,,,,,,,,,,,,,,,,,,,,,,,,,,,,,,,,,,,,,,,,,,2070.5036320790005,None,2070.5036320790005,None,2070.5036320790005,None,g,1,1.0159770430000208,2072.0372503910003,None,2072.0372503910003,None,2072.0372503910003,None,2073.103335723001,None,2073.103335723001,None,2073.103335723001,None,2073.103335723001,None,,,,,,,,,,,,,,,,,,,,,,,,,,,,,,,,,,,,,,,,,,,,001,135,2020_Feb_18_1154,spring_faces,3.1.5,59.844705741486905,
condition files/Stage0b_1.xlsx,0b,alpha,none,h,"['h', 'g']","['Chess', 'Go']","[-0.15, 0.5]","[0.15, 0.5]",1,0,0,6,6,6,0,0,0,0,,,,,,,,,,,,,,,,,,,,,,,,,,,,,,,,,,,,,,,,,,,,,,,,,,,,,,,,,,,,,,,2075.0868537530005,None,2075.0868537530005,None,2075.0868537530005,None,h,1,4.529183197000748,2076.620050435,None,2076.620050435,None,2076.620050435,None,2081.2031448980015,None,2081.2031448980015,None,2081.2031448980015,None,2081.2031448980015,None,,,,,,,,,,,,,,,,,,,,,,,,,,,,,,,,,,,,,,,,,,,,001,135,2020_Feb_18_1154,spring_faces,3.1.5,59.844705741486905,
condition files/Stage0b_1.xlsx,0b,none,beta,g,"['h', 'g']","['Chess', 'Go']","[-0.15, 0.5]","[0.15, 0.5]",0,1,0,6,6,6,0,1,1,1,,,,,,,,,,,,,,,,,,,,,,,,,,,,,,,,,,,,,,,,,,,,,,,,,,,,,,,,,,,,,,,2083.170323487,None,2083.170323487,None,2083.170323487,None,g,1,1.5122350469991943,2084.7089837390013,None,2084.7089837390013,None,2084.7089837390013,None,2086.289174312,None,2086.289174312,None,2086.289174312,None,2086.289174312,None,,,,,,,,,,,,,,,,,,,,,,,,,,,,,,,,,,,,,,,,,,,,001,135,2020_Feb_18_1154,spring_faces,3.1.5,59.844705741486905,
condition files/Stage0b_2.xlsx,0b,beta,none,g,"['h', 'g']","['Chess', 'Go']","[-0.15, 0.5]","[0.15, 0.5]",1,0,0,7,7,7,0,0,0,1,,,,,,,,,,,,,,,,,,,,,,,,,,,,,,,,,,,,,,,,,,,,,,,,,,,,,,,,,,,,,,,2088.270444242,None,2088.270444242,None,2088.270444242,None,g,1,0.5898240730002726,2089.807503248001,None,2089.807503248001,None,2089.807503248001,None,2090.4541607070005,None,2090.4541607070005,None,2090.4541607070005,None,2090.4541607070005,None,,,,,,,,,,,,,,,,,,,,,,,,,,,,,,,,,,,,,,,,,,,,001,135,2020_Feb_18_1154,spring_faces,3.1.5,59.844705741486905,
condition files/Stage0b_2.xlsx,0b,none,alpha,h,"['h', 'g']","['Chess', 'Go']","[-0.15, 0.5]","[0.15, 0.5]",0,1,0,7,7,7,0,1,1,0,,,,,,,,,,,,,,,,,,,,,,,,,,,,,,,,,,,,,,,,,,,,,,,,,,,,,,,,,,,,,,,2092.420223979001,None,2092.420223979001,None,2092.420223979001,None,h,1,0.5361838890003128,2093.9570630200014,None,2093.9570630200014,None,2093.9570630200014,None,2094.5578610070006,None,2094.5578610070006,None,2094.5578610070006,None,2094.5578610070006,None,,,,,,,,,,,,,,,,,,,,,,,,,,,,,,,,,,,,,,,,,,,,001,135,2020_Feb_18_1154,spring_faces,3.1.5,59.844705741486905,
condition files/Stage0b_1.xlsx,0b,alpha,none,h,"['h', 'g']","['Chess', 'Go']","[-0.15, 0.5]","[0.15, 0.5]",1,0,0,8,8,8,0,0,0,0,,,,,,,,,,,,,,,,,,,,,,,,,,,,,,,,,,,,,,,,,,,,,,,,,,,,,,,,,,,,,,,2096.537378633,None,2096.537378633,None,2096.537378633,None,h,1,0.7560106349992566,2098.073307216,None,2098.073307216,None,2098.073307216,None,2098.8872639300007,None,2098.8872639300007,None,2098.8872639300007,None,2098.8872639300007,None,,,,,,,,,,,,,,,,,,,,,,,,,,,,,,,,,,,,,,,,,,,,001,135,2020_Feb_18_1154,spring_faces,3.1.5,59.844705741486905,
condition files/Stage0b_1.xlsx,0b,none,beta,g,"['h', 'g']","['Chess', 'Go']","[-0.15, 0.5]","[0.15, 0.5]",0,1,0,8,8,8,0,1,1,1,,,,,,,,,,,,,,,,,,,,,,,,,,,,,,,,,,,,,,,,,,,,,,,,,,,,,,,,,,,,,,,2100.853467938001,None,2100.853467938001,None,2100.853467938001,None,g,1,0.7267977619994781,2102.390602106001,None,2102.390602106001,None,2102.390602106001,None,2103.1739802390002,None,2103.1739802390002,None,2103.1739802390002,None,2103.1739802390002,None,,,,,,,,,,,,,,,,,,,,,,,,,,,,,,,,,,,,,,,,,,,,001,135,2020_Feb_18_1154,spring_faces,3.1.5,59.844705741486905,
condition files/Stage0b_2.xlsx,0b,beta,none,g,"['h', 'g']","['Chess', 'Go']","[-0.15, 0.5]","[0.15, 0.5]",1,0,0,9,9,9,0,0,0,1,,,,,,,,,,,,,,,,,,,,,,,,,,,,,,,,,,,,,,,,,,,,,,,,,,,,,,,,,,,,,,,2105.153998963,None,2105.153998963,None,2105.153998963,None,g,1,4.109300305999568,2106.6880266630014,None,2106.6880266630014,None,2106.6880266630014,None,2110.8539167360013,None,2110.8539167360013,None,2110.8539167360013,None,2110.8539167360013,None,,,,,,,,,,,,,,,,,,,,,,,,,,,,,,,,,,,,,,,,,,,,001,135,2020_Feb_18_1154,spring_faces,3.1.5,59.844705741486905,
condition files/Stage0b_2.xlsx,0b,none,alpha,h,"['h', 'g']","['Chess', 'Go']","[-0.15, 0.5]","[0.15, 0.5]",0,1,0,9,9,9,0,1,1,0,,,,,,,,,,,,,,,,,,,,,,,,,,,,,,,,,,,,,,,,,,,,,,,,,,,,,,,,,,,,,,,2112.8201996300013,None,2112.8201996300013,None,2112.8201996300013,None,h,1,1.7680228720000741,2114.3572331680007,None,2114.3572331680007,None,2114.3572331680007,None,2116.1928235490013,None,2116.1928235490013,None,2116.1928235490013,None,2116.1928235490013,None,,,,,,,,,,,,,,,,,,,,,,,,,,,,,,,,,,,,,,,,,,,,001,135,2020_Feb_18_1154,spring_faces,3.1.5,59.844705741486905,
condition files/Stage0b_1.xlsx,0b,none,beta,g,"['h', 'g']","['Chess', 'Go']","[-0.15, 0.5]","[0.15, 0.5]",0,1,0,10,10,10,0,0,0,1,,,,,,,,,,,,,,,,,,,,,,,,,,,,,,,,,,,,,,,,,,,,,,,,,,,,,,,,,,,,,,,2118.1708480300003,None,2118.1708480300003,None,2118.1708480300003,None,g,1,0.6452581020002981,2119.704018841001,None,2119.704018841001,None,2119.704018841001,None,2120.403257023001,None,2120.403257023001,None,2120.403257023001,None,2120.403257023001,None,,,,,,,,,,,,,,,,,,,,,,,,,,,,,,,,,,,,,,,,,,,,001,135,2020_Feb_18_1154,spring_faces,3.1.5,59.844705741486905,
condition files/Stage0b_1.xlsx,0b,alpha,none,h,"['h', 'g']","['Chess', 'Go']","[-0.15, 0.5]","[0.15, 0.5]",1,0,0,10,10,10,0,1,1,0,,,,,,,,,,,,,,,,,,,,,,,,,,,,,,,,,,,,,,,,,,,,,,,,,,,,,,,,,,,,,,,2122.3704565820008,None,2122.3704565820008,None,2122.3704565820008,None,h,1,2.9085471790003794,2123.920747323,None,2123.920747323,None,2123.920747323,None,2126.891747062,None,2126.891747062,None,2126.891747062,None,2126.891747062,None,,,,,,,,,,,,,,,,,,,,,,,,,,,,,,,,,,,,,,,,,,,,001,135,2020_Feb_18_1154,spring_faces,3.1.5,59.844705741486905,
condition files/Stage0b_2.xlsx,0b,none,alpha,h,"['h', 'g']","['Chess', 'Go']","[-0.15, 0.5]","[0.15, 0.5]",0,1,0,11,11,11,0,0,0,0,,,,,,,,,,,,,,,,,,,,,,,,,,,,,,,,,,,,,,,,,,,,,,,,,,,,,,,,,,,,,,,2128.870277967,None,2128.870277967,None,2128.870277967,None,h,1,1.2731645530002424,2130.404096362001,None,2130.404096362001,None,2130.404096362001,None,2131.736957193001,None,2131.736957193001,None,2131.736957193001,None,2131.736957193001,None,,,,,,,,,,,,,,,,,,,,,,,,,,,,,,,,,,,,,,,,,,,,001,135,2020_Feb_18_1154,spring_faces,3.1.5,59.844705741486905,
condition files/Stage0b_2.xlsx,0b,beta,none,g,"['h', 'g']","['Chess', 'Go']","[-0.15, 0.5]","[0.15, 0.5]",1,0,0,11,11,11,0,1,1,1,,,,,,,,,,,,,,,,,,,,,,,,,,,,,,,,,,,,,,,,,,,,,,,,,,,,,,,,,,,,,,,2133.703936994001,None,2133.703936994001,None,2133.703936994001,None,g,1,0.7882978249999724,2135.2409967130006,None,2135.2409967130006,None,2135.2409967130006,None,2136.0873817480006,None,2136.0873817480006,None,2136.0873817480006,None,2136.0873817480006,None,,,,,,,,,,,,,,,,,,,,,,,,,,,,,,,,,,,,,,,,,,,,001,135,2020_Feb_18_1154,spring_faces,3.1.5,59.844705741486905,
condition files/Stage0c_1.xlsx,0c,phi,beta,g,"['h', 'g']","['Chess', 'Go']","[-0.15, 0.5]","[0.15, 0.5]",1,1,0,12,12,12,0,0,0,3,,,,,,,,,,,,,,,,,,,,,,,,,,,,,,,,,,,,,,,,,,,,,,,,,,,,,,,,,,,,,,,2138.070102261001,None,2138.070102261001,None,2138.070102261001,None,g,1,3.0332992209987424,2139.6039403190007,None,2139.6039403190007,None,2139.6039403190007,None,2142.687474010001,None,2142.687474010001,None,2142.687474010001,None,2142.687474010001,None,,,,,,,,,,,,,,,,,,,,,,,,,,,,,,,,,,,,,,,,,,,,001,135,2020_Feb_18_1154,spring_faces,3.1.5,59.844705741486905,
condition files/Stage0c_1.xlsx,0c,beta,theta,g,"['h', 'g']","['Chess', 'Go']","[-0.15, 0.5]","[0.15, 0.5]",1,1,0,12,12,12,0,1,1,2,,,,,,,,,,,,,,,,,,,,,,,,,,,,,,,,,,,,,,,,,,,,,,,,,,,,,,,,,,,,,,,2144.6535715300015,None,2144.6535715300015,None,2144.6535715300015,None,g,1,1.313867979000861,2146.187355016,None,2146.187355016,None,2146.187355016,None,2147.5538606750015,None,2147.5538606750015,None,2147.5538606750015,None,2147.5538606750015,None,,,,,,,,,,,,,,,,,,,,,,,,,,,,,,,,,,,,,,,,,,,,001,135,2020_Feb_18_1154,spring_faces,3.1.5,59.844705741486905,
condition files/Stage0c_1.xlsx,0c,alpha,phi,h,"['h', 'g']","['Chess', 'Go']","[-0.15, 0.5]","[0.15, 0.5]",1,1,0,12,12,12,0,2,2,1,,,,,,,,,,,,,,,,,,,,,,,,,,,,,,,,,,,,,,,,,,,,,,,,,,,,,,,,,,,,,,,2149.520444402,None,2149.520444402,None,2149.520444402,None,h,1,2.7189936510003463,2151.0542041670014,None,2151.0542041670014,None,2151.0542041670014,None,2153.837342857001,None,2153.837342857001,None,2153.837342857001,None,2153.837342857001,None,,,,,,,,,,,,,,,,,,,,,,,,,,,,,,,,,,,,,,,,,,,,001,135,2020_Feb_18_1154,spring_faces,3.1.5,59.844705741486905,
condition files/Stage0c_1.xlsx,0c,theta,alpha,h,"['h', 'g']","['Chess', 'Go']","[-0.15, 0.5]","[0.15, 0.5]",1,1,0,12,12,12,0,3,3,0,,,,,,,,,,,,,,,,,,,,,,,,,,,,,,,,,,,,,,,,,,,,,,,,,,,,,,,,,,,,,,,2155.803702958001,None,2155.803702958001,None,2155.803702958001,None,h,1,1.2198741889988014,2157.3373481690014,None,2157.3373481690014,None,2157.3373481690014,None,2158.6205178010005,None,2158.6205178010005,None,2158.6205178010005,None,2158.6205178010005,None,,,,,,,,,,,,,,,,,,,,,,,,,,,,,,,,,,,,,,,,,,,,001,135,2020_Feb_18_1154,spring_faces,3.1.5,59.844705741486905,
condition files/Stage0c_2.xlsx,0c,phi,alpha,h,"['h', 'g']","['Chess', 'Go']","[-0.15, 0.5]","[0.15, 0.5]",1,1,0,13,13,13,0,0,0,1,,,,,,,,,,,,,,,,,,,,,,,,,,,,,,,,,,,,,,,,,,,,,,,,,,,,,,,,,,,,,,,2160.604254602,None,2160.604254602,None,2160.604254602,None,h,1,0.9161755130007805,2162.1370608040015,None,2162.1370608040015,None,2162.1370608040015,None,2163.088352877001,None,2163.088352877001,None,2163.088352877001,None,2163.088352877001,None,,,,,,,,,,,,,,,,,,,,,,,,,,,,,,,,,,,,,,,,,,,,001,135,2020_Feb_18_1154,spring_faces,3.1.5,59.844705741486905,
condition files/Stage0c_2.xlsx,0c,beta,phi,g,"['h', 'g']","['Chess', 'Go']","[-0.15, 0.5]","[0.15, 0.5]",1,1,0,13,13,13,0,1,1,3,,,,,,,,,,,,,,,,,,,,,,,,,,,,,,,,,,,,,,,,,,,,,,,,,,,,,,,,,,,,,,,2165.070455745001,None,2165.070455745001,None,2165.070455745001,None,g,1,1.5374086979991262,2166.603828567,None,2166.603828567,None,2166.603828567,None,2168.2039062880012,None,2168.2039062880012,None,2168.2039062880012,None,2168.2039062880012,None,,,,,,,,,,,,,,,,,,,,,,,,,,,,,,,,,,,,,,,,,,,,001,135,2020_Feb_18_1154,spring_faces,3.1.5,59.844705741486905,
condition files/Stage0c_2.xlsx,0c,theta,beta,g,"['h', 'g']","['Chess', 'Go']","[-0.15, 0.5]","[0.15, 0.5]",1,1,0,13,13,13,0,2,2,2,,,,,,,,,,,,,,,,,,,,,,,,,,,,,,,,,,,,,,,,,,,,,,,,,,,,,,,,,,,,,,,2170.170071874001,None,2170.170071874001,None,2170.170071874001,None,g,1,1.2213079439989087,2171.703941969001,None,2171.703941969001,None,2171.703941969001,None,2172.9734769670013,None,2172.9734769670013,None,2172.9734769670013,None,2172.9734769670013,None,,,,,,,,,,,,,,,,,,,,,,,,,,,,,,,,,,,,,,,,,,,,001,135,2020_Feb_18_1154,spring_faces,3.1.5,59.844705741486905,
condition files/Stage0c_2.xlsx,0c,alpha,theta,h,"['h', 'g']","['Chess', 'Go']","[-0.15, 0.5]","[0.15, 0.5]",1,1,0,13,13,13,0,3,3,0,,,,,,,,,,,,,,,,,,,,,,,,,,,,,,,,,,,,,,,,,,,,,,,,,,,,,,,,,,,,,,,2174.9537130280005,None,2174.9537130280005,None,2174.9537130280005,None,h,1,0.757999146999282,2176.4872960580014,None,2176.4872960580014,None,2176.4872960580014,None,2177.3039563970015,None,2177.3039563970015,None,2177.3039563970015,None,2177.3039563970015,None,,,,,,,,,,,,,,,,,,,,,,,,,,,,,,,,,,,,,,,,,,,,001,135,2020_Feb_18_1154,spring_faces,3.1.5,59.844705741486905,
condition files/Stage0c_1.xlsx,0c,alpha,phi,h,"['h', 'g']","['Chess', 'Go']","[-0.15, 0.5]","[0.15, 0.5]",1,1,0,14,14,14,0,0,0,1,,,,,,,,,,,,,,,,,,,,,,,,,,,,,,,,,,,,,,,,,,,,,,,,,,,,,,,,,,,,,,,2179.287001834,None,2179.287001834,None,2179.287001834,None,h,1,1.1443322949999128,2180.820876742,None,2180.820876742,None,2180.820876742,None,2182.00422997,None,2182.00422997,None,2182.00422997,None,2182.00422997,None,,,,,,,,,,,,,,,,,,,,,,,,,,,,,,,,,,,,,,,,,,,,001,135,2020_Feb_18_1154,spring_faces,3.1.5,59.844705741486905,
condition files/Stage0c_1.xlsx,0c,phi,beta,g,"['h', 'g']","['Chess', 'Go']","[-0.15, 0.5]","[0.15, 0.5]",1,1,0,14,14,14,0,1,1,3,,,,,,,,,,,,,,,,,,,,,,,,,,,,,,,,,,,,,,,,,,,,,,,,,,,,,,,,,,,,,,,2184.003816771001,None,2184.003816771001,None,2184.003816771001,None,g,1,1.1325575430000754,2185.520676847,None,2185.520676847,None,2185.520676847,None,2186.7042034470014,None,2186.7042034470014,None,2186.7042034470014,None,2186.7042034470014,None,,,,,,,,,,,,,,,,,,,,,,,,,,,,,,,,,,,,,,,,,,,,001,135,2020_Feb_18_1154,spring_faces,3.1.5,59.844705741486905,
condition files/Stage0c_1.xlsx,0c,theta,alpha,h,"['h', 'g']","['Chess', 'Go']","[-0.15, 0.5]","[0.15, 0.5]",1,1,0,14,14,14,0,2,2,0,,,,,,,,,,,,,,,,,,,,,,,,,,,,,,,,,,,,,,,,,,,,,,,,,,,,,,,,,,,,,,,2188.6703099700007,None,2188.6703099700007,None,2188.6703099700007,None,g,0,1.9532356050003727,2190.2039959989997,None,2190.2039959989997,None,2190.2039959989997,None,2192.2205700370014,None,2192.2205700370014,None,2192.2205700370014,None,2192.2205700370014,None,,,,,,,,,,,,,,,,,,,,,,,,,,,,,,,,,,,,,,,,,,,,001,135,2020_Feb_18_1154,spring_faces,3.1.5,59.844705741486905,
condition files/Stage0c_1.xlsx,0c,beta,theta,g,"['h', 'g']","['Chess', 'Go']","[-0.15, 0.5]","[0.15, 0.5]",1,1,0,14,14,14,0,3,3,2,,,,,,,,,,,,,,,,,,,,,,,,,,,,,,,,,,,,,,,,,,,,,,,,,,,,,,,,,,,,,,,2194.187004700001,None,2194.187004700001,None,2194.187004700001,None,g,1,2.1806596879996505,2195.7205647480005,None,2195.7205647480005,None,2195.7205647480005,None,2197.953248914,None,2197.953248914,None,2197.953248914,None,2197.953248914,None,,,,,,,,,,,,,,,,,,,,,,,,,,,,,,,,,,,,,,,,,,,,001,135,2020_Feb_18_1154,spring_faces,3.1.5,59.844705741486905,
condition files/Stage0c_2.xlsx,0c,beta,phi,g,"['h', 'g']","['Chess', 'Go']","[-0.15, 0.5]","[0.15, 0.5]",1,1,0,15,15,15,0,0,0,3,,,,,,,,,,,,,,,,,,,,,,,,,,,,,,,,,,,,,,,,,,,,,,,,,,,,,,,,,,,,,,,2199.9369939180015,None,2199.9369939180015,None,2199.9369939180015,None,g,1,1.2468141769986687,2201.470544040001,None,2201.470544040001,None,2201.470544040001,None,2202.755491367001,None,2202.755491367001,None,2202.755491367001,None,2202.755491367001,None,,,,,,,,,,,,,,,,,,,,,,,,,,,,,,,,,,,,,,,,,,,,001,135,2020_Feb_18_1154,spring_faces,3.1.5,59.844705741486905,
condition files/Stage0c_2.xlsx,0c,alpha,theta,h,"['h', 'g']","['Chess', 'Go']","[-0.15, 0.5]","[0.15, 0.5]",1,1,0,15,15,15,0,1,1,0,,,,,,,,,,,,,,,,,,,,,,,,,,,,,,,,,,,,,,,,,,,,,,,,,,,,,,,,,,,,,,,2204.737122822,None,2204.737122822,None,2204.737122822,None,h,1,0.958545105999292,2206.2707486360014,None,2206.2707486360014,None,2206.2707486360014,None,2207.286984366001,None,2207.286984366001,None,2207.286984366001,None,2207.286984366001,None,,,,,,,,,,,,,,,,,,,,,,,,,,,,,,,,,,,,,,,,,,,,001,135,2020_Feb_18_1154,spring_faces,3.1.5,59.844705741486905,
condition files/Stage0c_2.xlsx,0c,phi,alpha,h,"['h', 'g']","['Chess', 'Go']","[-0.15, 0.5]","[0.15, 0.5]",1,1,0,15,15,15,0,2,2,1,,,,,,,,,,,,,,,,,,,,,,,,,,,,,,,,,,,,,,,,,,,,,,,,,,,,,,,,,,,,,,,2209.253776972,None,2209.253776972,None,2209.253776972,None,h,1,1.865843825000411,2210.787391217,None,2210.787391217,None,2210.787391217,None,2212.688965522,None,2212.688965522,None,2212.688965522,None,2212.688965522,None,,,,,,,,,,,,,,,,,,,,,,,,,,,,,,,,,,,,,,,,,,,,001,135,2020_Feb_18_1154,spring_faces,3.1.5,59.844705741486905,
condition files/Stage0c_2.xlsx,0c,theta,beta,g,"['h', 'g']","['Chess', 'Go']","[-0.15, 0.5]","[0.15, 0.5]",1,1,0,15,15,15,0,3,3,2,,,,,,,,,,,,,,,,,,,,,,,,,,,,,,,,,,,,,,,,,,,,,,,,,,,,,,,,,,,,,,,2214.670382661001,None,2214.670382661001,None,2214.670382661001,None,g,1,1.3772140340006445,2216.2040821360006,None,2216.2040821360006,None,2216.2040821360006,None,2217.6373834000005,None,2217.6373834000005,None,2217.6373834000005,None,2217.6373834000005,None,,,,,,,,,,,,,,,,,,,,,,,,,,,,,,,,,,,,,,,,,,,,001,135,2020_Feb_18_1154,spring_faces,3.1.5,59.844705741486905,
condition files/Stage0c_1.xlsx,0c,phi,beta,g,"['h', 'g']","['Chess', 'Go']","[-0.15, 0.5]","[0.15, 0.5]",1,1,0,16,16,16,0,0,0,3,,,,,,,,,,,,,,,,,,,,,,,,,,,,,,,,,,,,,,,,,,,,,,,,,,,,,,,,,,,,,,,2219.6205448070014,None,2219.6205448070014,None,2219.6205448070014,None,g,1,1.3395609580002201,2221.153682678001,None,2221.153682678001,None,2221.153682678001,None,2222.538442078001,None,2222.538442078001,None,2222.538442078001,None,2222.538442078001,None,,,,,,,,,,,,,,,,,,,,,,,,,,,,,,,,,,,,,,,,,,,,001,135,2020_Feb_18_1154,spring_faces,3.1.5,59.844705741486905,
condition files/Stage0c_1.xlsx,0c,theta,alpha,h,"['h', 'g']","['Chess', 'Go']","[-0.15, 0.5]","[0.15, 0.5]",1,1,0,16,16,16,0,1,1,0,,,,,,,,,,,,,,,,,,,,,,,,,,,,,,,,,,,,,,,,,,,,,,,,,,,,,,,,,,,,,,,2224.520105025,None,2224.520105025,None,2224.520105025,None,h,1,1.6710797539999476,2226.0541563740007,None,2226.0541563740007,None,2226.0541563740007,None,2227.7875329460003,None,2227.7875329460003,None,2227.7875329460003,None,2227.7875329460003,None,,,,,,,,,,,,,,,,,,,,,,,,,,,,,,,,,,,,,,,,,,,,001,135,2020_Feb_18_1154,spring_faces,3.1.5,59.844705741486905,
condition files/Stage0c_1.xlsx,0c,beta,theta,g,"['h', 'g']","['Chess', 'Go']","[-0.15, 0.5]","[0.15, 0.5]",1,1,0,16,16,16,0,2,2,2,,,,,,,,,,,,,,,,,,,,,,,,,,,,,,,,,,,,,,,,,,,,,,,,,,,,,,,,,,,,,,,2229.7533813890004,None,2229.7533813890004,None,2229.7533813890004,None,g,1,1.1739189510008146,2231.2873822420006,None,2231.2873822420006,None,2231.2873822420006,None,2232.5207039920006,None,2232.5207039920006,None,2232.5207039920006,None,2232.5207039920006,None,,,,,,,,,,,,,,,,,,,,,,,,,,,,,,,,,,,,,,,,,,,,001,135,2020_Feb_18_1154,spring_faces,3.1.5,59.844705741486905,
condition files/Stage0c_1.xlsx,0c,alpha,phi,h,"['h', 'g']","['Chess', 'Go']","[-0.15, 0.5]","[0.15, 0.5]",1,1,0,16,16,16,0,3,3,1,,,,,,,,,,,,,,,,,,,,,,,,,,,,,,,,,,,,,,,,,,,,,,,,,,,,,,,,,,,,,,,2234.4870054190014,None,2234.4870054190014,None,2234.4870054190014,None,h,1,0.9686557639997773,2236.020569706001,None,2236.020569706001,None,2236.020569706001,None,2237.0533931400005,None,2237.0533931400005,None,2237.0533931400005,None,2237.0533931400005,None,,,,,,,,,,,,,,,,,,,,,,,,,,,,,,,,,,,,,,,,,,,,001,135,2020_Feb_18_1154,spring_faces,3.1.5,59.844705741486905,
condition files/Stage0c_2.xlsx,0c,phi,alpha,h,"['h', 'g']","['Chess', 'Go']","[-0.15, 0.5]","[0.15, 0.5]",1,1,0,17,17,17,0,0,0,1,,,,,,,,,,,,,,,,,,,,,,,,,,,,,,,,,,,,,,,,,,,,,,,,,,,,,,,,,,,,,,,2239.0371593420005,None,2239.0371593420005,None,2239.0371593420005,None,h,1,2.3546199459997297,2240.5706281910007,None,2240.5706281910007,None,2240.5706281910007,None,2242.9702180040003,None,2242.9702180040003,None,2242.9702180040003,None,2242.9702180040003,None,,,,,,,,,,,,,,,,,,,,,,,,,,,,,,,,,,,,,,,,,,,,001,135,2020_Feb_18_1154,spring_faces,3.1.5,59.844705741486905,
condition files/Stage0c_2.xlsx,0c,alpha,theta,h,"['h', 'g']","['Chess', 'Go']","[-0.15, 0.5]","[0.15, 0.5]",1,1,0,17,17,17,0,1,1,0,,,,,,,,,,,,,,,,,,,,,,,,,,,,,,,,,,,,,,,,,,,,,,,,,,,,,,,,,,,,,,,2244.953624904001,None,2244.953624904001,None,2244.953624904001,None,h,1,10.581708843001252,2246.4875206630004,None,2246.4875206630004,None,2246.4875206630004,None,2257.104308301001,None,2257.104308301001,None,2257.104308301001,None,2257.104308301001,None,,,,,,,,,,,,,,,,,,,,,,,,,,,,,,,,,,,,,,,,,,,,001,135,2020_Feb_18_1154,spring_faces,3.1.5,59.844705741486905,
condition files/Stage0c_2.xlsx,0c,theta,beta,g,"['h', 'g']","['Chess', 'Go']","[-0.15, 0.5]","[0.15, 0.5]",1,1,0,17,17,17,0,2,2,2,,,,,,,,,,,,,,,,,,,,,,,,,,,,,,,,,,,,,,,,,,,,,,,,,,,,,,,,,,,,,,,2259.0871101070006,None,2259.0871101070006,None,2259.0871101070006,None,g,1,0.9768957209998916,2260.6204322000012,None,2260.6204322000012,None,2260.6204322000012,None,2261.6541323330002,None,2261.6541323330002,None,2261.6541323330002,None,2261.6541323330002,None,,,,,,,,,,,,,,,,,,,,,,,,,,,,,,,,,,,,,,,,,,,,001,135,2020_Feb_18_1154,spring_faces,3.1.5,59.844705741486905,
condition files/Stage0c_2.xlsx,0c,beta,phi,g,"['h', 'g']","['Chess', 'Go']","[-0.15, 0.5]","[0.15, 0.5]",1,1,0,17,17,17,0,3,3,3,,,,,,,,,,,,,,,,,,,,,,,,,,,,,,,,,,,,,,,,,,,,,,,,,,,,,,,,,,,,,,,2263.620382211,None,2263.620382211,None,2263.620382211,None,g,1,1.2433135400005995,2265.1539876080005,None,2265.1539876080005,None,2265.1539876080005,None,2266.4539339800012,None,2266.4539339800012,None,2266.4539339800012,None,2266.4539339800012,None,,,,,,,,,,,,,,,,,,,,,,,,,,,,,,,,,,,,,,,,,,,,001,135,2020_Feb_18_1154,spring_faces,3.1.5,59.844705741486905,
,,,,,,,,,,,,,,,,,,,,,,,,,,,,,,,,,,,,,,,,,,,,,,,,,,,,,,,,,,,,,,,,,,,,,,,,,,,,,,,,,,,,,,,,,,,,,,,,,,,,,,,,2268.437022909,None,space,1.808279618000597,2273.437041268,None,,,,,,,,,,,,,,,,,,,,,,,,,,,,,,,,,,,,,,001,135,2020_Feb_18_1154,spring_faces,3.1.5,59.844705741486905,
condition files/Stage1_1.xlsx,,B1,T2,c,"['c', 'm']","['Clue', 'Monopoly']","[-0.15, 0.5]","[0.15, 0.5]",1,1,,,,,,,,,0,0,0,0,0,0,0,1,,,,,,,,,,,,,,,,,,,,,,,,,,,,,,,,,,,,,,,,,,,,,,,,,,,,,,,2275.304224994001,None,2275.304224994001,None,2275.304224994001,None,c,1,1.2725657529990713,2276.820676767,None,2276.820676767,None,2276.820676767,None,2278.1865651670014,None,2278.1865651670014,None,2278.1865651670014,None,2278.1865651670014,None,,,,,,,2273.437041268,None,,,,,,,,,,,,,,,,,,,,,,,,,,,,,,,,,,,,001,135,2020_Feb_18_1154,spring_faces,3.1.5,59.844705741486905,
condition files/Stage1_1.xlsx,,T2,B2,m,"['c', 'm']","['Clue', 'Monopoly']","[-0.15, 0.5]","[0.15, 0.5]",1,1,,,,,,,,,0,0,0,0,0,1,1,3,,,,,,,,,,,,,,,,,,,,,,,,,,,,,,,,,,,,,,,,,,,,,,,,,,,,,,,2280.1202559850008,None,2280.1202559850008,None,2280.1202559850008,None,c,0,1.3826568359982048,2281.6705679470015,None,2281.6705679470015,None,2281.6705679470015,None,2283.120211108,None,2283.120211108,None,2283.120211108,None,2283.120211108,None,,,,,,,,,,,,,,,,,,,,,,,,,,,,,,,,,,,,,,,,,,,,001,135,2020_Feb_18_1154,spring_faces,3.1.5,59.844705741486905,
condition files/Stage1_1.xlsx,,T1,B1,c,"['c', 'm']","['Clue', 'Monopoly']","[-0.15, 0.5]","[0.15, 0.5]",1,1,,,,,,,,,0,0,0,0,0,2,2,0,,,,,,,,,,,,,,,,,,,,,,,,,,,,,,,,,,,,,,,,,,,,,,,,,,,,,,,2285.0698042040003,None,2285.0698042040003,None,2285.0698042040003,None,c,1,1.856506284999341,2286.620796149,None,2286.620796149,None,2286.620796149,None,2288.5384590150006,None,2288.5384590150006,None,2288.5384590150006,None,2288.5384590150006,None,,,,,,,,,,,,,,,,,,,,,,,,,,,,,,,,,,,,,,,,,,,,001,135,2020_Feb_18_1154,spring_faces,3.1.5,59.844705741486905,
condition files/Stage1_1.xlsx,,B3,T3,c,"['c', 'm']","['Clue', 'Monopoly']","[-0.15, 0.5]","[0.15, 0.5]",1,1,,,,,,,,,0,0,0,0,0,3,3,4,,,,,,,,,,,,,,,,,,,,,,,,,,,,,,,,,,,,,,,,,,,,,,,,,,,,,,,2290.503790795001,None,2290.503790795001,None,2290.503790795001,None,m,0,0.9026347670005634,2292.0866143910007,None,2292.0866143910007,None,2292.0866143910007,None,2293.054087743001,None,2293.054087743001,None,2293.054087743001,None,2293.054087743001,None,,,,,,,,,,,,,,,,,,,,,,,,,,,,,,,,,,,,,,,,,,,,001,135,2020_Feb_18_1154,spring_faces,3.1.5,59.844705741486905,
condition files/Stage1_1.xlsx,,B4,T4,m,"['c', 'm']","['Clue', 'Monopoly']","[-0.15, 0.5]","[0.15, 0.5]",1,1,,,,,,,,,0,0,0,0,0,4,4,7,,,,,,,,,,,,,,,,,,,,,,,,,,,,,,,,,,,,,,,,,,,,,,,,,,,,,,,2295.019762023001,None,2295.019762023001,None,2295.019762023001,None,m,1,1.0733700559994759,2296.555947402001,None,2296.555947402001,None,2296.555947402001,None,2297.7037563390004,None,2297.7037563390004,None,2297.7037563390004,None,2297.7037563390004,None,,,,,,,,,,,,,,,,,,,,,,,,,,,,,,,,,,,,,,,,,,,,001,135,2020_Feb_18_1154,spring_faces,3.1.5,59.844705741486905,
condition files/Stage1_1.xlsx,,T3,B4,c,"['c', 'm']","['Clue', 'Monopoly']","[-0.15, 0.5]","[0.15, 0.5]",1,1,,,,,,,,,0,0,0,0,0,5,5,5,,,,,,,,,,,,,,,,,,,,,,,,,,,,,,,,,,,,,,,,,,,,,,,,,,,,,,,2299.6538325830006,None,2299.6538325830006,None,2299.6538325830006,None,m,0,1.6731267659997684,2301.1881886950014,None,2301.1881886950014,None,2301.1881886950014,None,2302.922723048001,None,2302.922723048001,None,2302.922723048001,None,2302.922723048001,None,,,,,,,,,,,,,,,,,,,,,,,,,,,,,,,,,,,,,,,,,,,,001,135,2020_Feb_18_1154,spring_faces,3.1.5,59.844705741486905,
condition files/Stage1_1.xlsx,,B2,T1,m,"['c', 'm']","['Clue', 'Monopoly']","[-0.15, 0.5]","[0.15, 0.5]",1,1,,,,,,,,,0,0,0,0,0,6,6,2,,,,,,,,,,,,,,,,,,,,,,,,,,,,,,,,,,,,,,,,,,,,,,,,,,,,,,,2304.886586855,None,2304.886586855,None,2304.886586855,None,c,0,1.1129748769999424,2306.420263102,None,2306.420263102,None,2306.420263102,None,2307.587244421,None,2307.587244421,None,2307.587244421,None,2307.587244421,None,,,,,,,,,,,,,,,,,,,,,,,,,,,,,,,,,,,,,,,,,,,,001,135,2020_Feb_18_1154,spring_faces,3.1.5,59.844705741486905,
condition files/Stage1_1.xlsx,,T4,B3,m,"['c', 'm']","['Clue', 'Monopoly']","[-0.15, 0.5]","[0.15, 0.5]",1,1,,,,,,,,,0,0,0,0,0,7,7,6,,,,,,,,,,,,,,,,,,,,,,,,,,,,,,,,,,,,,,,,,,,,,,,,,,,,,,,2309.553679193001,None,2309.553679193001,None,2309.553679193001,None,c,0,1.1969745509995846,2311.0882753330006,None,2311.0882753330006,None,2311.0882753330006,None,2312.3372726140005,None,2312.3372726140005,None,2312.3372726140005,None,2312.3372726140005,None,,,,,,,,,,,,,,,,,,,,,,,,,,,,,,,,,,,,,,,,,,,,001,135,2020_Feb_18_1154,spring_faces,3.1.5,59.844705741486905,
condition files/Stage1_2.xlsx,,B2,T2,m,"['c', 'm']","['Clue', 'Monopoly']","[-0.15, 0.5]","[0.15, 0.5]",1,1,,,,,,,,,0,1,1,1,0,0,0,3,,,,,,,,,,,,,,,,,,,,,,,,,,,,,,,,,,,,,,,,,,,,,,,,,,,,,,,2314.3202835290012,None,2314.3202835290012,None,2314.3202835290012,None,c,0,1.5033479100002296,2315.853915685,None,2315.853915685,None,2315.853915685,None,2317.420915275001,None,2317.420915275001,None,2317.420915275001,None,2317.420915275001,None,,,,,,,,,,,,,,,,,,,,,,,,,,,,,,,,,,,,,,,,,,,,001,135,2020_Feb_18_1154,spring_faces,3.1.5,59.844705741486905,
condition files/Stage1_2.xlsx,,B1,T1,c,"['c', 'm']","['Clue', 'Monopoly']","[-0.15, 0.5]","[0.15, 0.5]",1,1,,,,,,,,,0,1,1,1,0,1,1,0,,,,,,,,,,,,,,,,,,,,,,,,,,,,,,,,,,,,,,,,,,,,,,,,,,,,,,,2319.386981249001,None,2319.386981249001,None,2319.386981249001,None,c,1,1.14083767000011,2320.9204804290002,None,2320.9204804290002,None,2320.9204804290002,None,2322.137491196001,None,2322.137491196001,None,2322.137491196001,None,2322.137491196001,None,,,,,,,,,,,,,,,,,,,,,,,,,,,,,,,,,,,,,,,,,,,,001,135,2020_Feb_18_1154,spring_faces,3.1.5,59.844705741486905,
condition files/Stage1_2.xlsx,,T3,B3,c,"['c', 'm']","['Clue', 'Monopoly']","[-0.15, 0.5]","[0.15, 0.5]",1,1,,,,,,,,,0,1,1,1,0,2,2,4,,,,,,,,,,,,,,,,,,,,,,,,,,,,,,,,,,,,,,,,,,,,,,,,,,,,,,,2324.086601981,None,2324.086601981,None,2324.086601981,None,m,0,1.1285003569992114,2325.6367035230014,None,2325.6367035230014,None,2325.6367035230014,None,2326.820805751,None,2326.820805751,None,2326.820805751,None,2326.820805751,None,,,,,,,,,,,,,,,,,,,,,,,,,,,,,,,,,,,,,,,,,,,,001,135,2020_Feb_18_1154,spring_faces,3.1.5,59.844705741486905,
condition files/Stage1_2.xlsx,,T4,B4,m,"['c', 'm']","['Clue', 'Monopoly']","[-0.15, 0.5]","[0.15, 0.5]",1,1,,,,,,,,,0,1,1,1,0,3,3,7,,,,,,,,,,,,,,,,,,,,,,,,,,,,,,,,,,,,,,,,,,,,,,,,,,,,,,,2328.786486879,None,2328.786486879,None,2328.786486879,None,m,1,1.531576056000631,2330.321663095001,None,2330.321663095001,None,2330.321663095001,None,2331.920678286,None,2331.920678286,None,2331.920678286,None,2331.920678286,None,,,,,,,,,,,,,,,,,,,,,,,,,,,,,,,,,,,,,,,,,,,,001,135,2020_Feb_18_1154,spring_faces,3.1.5,59.844705741486905,
condition files/Stage1_2.xlsx,,B4,T3,c,"['c', 'm']","['Clue', 'Monopoly']","[-0.15, 0.5]","[0.15, 0.5]",1,1,,,,,,,,,0,1,1,1,0,4,4,5,,,,,,,,,,,,,,,,,,,,,,,,,,,,,,,,,,,,,,,,,,,,,,,,,,,,,,,2333.8700647120004,None,2333.8700647120004,None,2333.8700647120004,None,m,0,1.1367868520010234,2335.420443393001,None,2335.420443393001,None,2335.420443393001,None,2336.620973045001,None,2336.620973045001,None,2336.620973045001,None,2336.620973045001,None,,,,,,,,,,,,,,,,,,,,,,,,,,,,,,,,,,,,,,,,,,,,001,135,2020_Feb_18_1154,spring_faces,3.1.5,59.844705741486905,
condition files/Stage1_2.xlsx,,T2,B1,c,"['c', 'm']","['Clue', 'Monopoly']","[-0.15, 0.5]","[0.15, 0.5]",1,1,,,,,,,,,0,1,1,1,0,5,5,1,,,,,,,,,,,,,,,,,,,,,,,,,,,,,,,,,,,,,,,,,,,,,,,,,,,,,,,2338.5870848430004,None,2338.5870848430004,None,2338.5870848430004,None,c,1,0.9490832010014856,2340.1201706110005,None,2340.1201706110005,None,2340.1201706110005,None,2341.120398639001,None,2341.120398639001,None,2341.120398639001,None,2341.120398639001,None,,,,,,,,,,,,,,,,,,,,,,,,,,,,,,,,,,,,,,,,,,,,001,135,2020_Feb_18_1154,spring_faces,3.1.5,59.844705741486905,
condition files/Stage1_2.xlsx,,B3,T4,m,"['c', 'm']","['Clue', 'Monopoly']","[-0.15, 0.5]","[0.15, 0.5]",1,1,,,,,,,,,0,1,1,1,0,6,6,6,,,,,,,,,,,,,,,,,,,,,,,,,,,,,,,,,,,,,,,,,,,,,,,,,,,,,,,2343.0870664960003,None,2343.0870664960003,None,2343.0870664960003,None,m,1,1.0885604709983454,2344.6366755810013,None,2344.6366755810013,None,2344.6366755810013,None,2345.788362679001,None,2345.788362679001,None,2345.788362679001,None,2345.788362679001,None,,,,,,,,,,,,,,,,,,,,,,,,,,,,,,,,,,,,,,,,,,,,001,135,2020_Feb_18_1154,spring_faces,3.1.5,59.844705741486905,
condition files/Stage1_2.xlsx,,T1,B2,m,"['c', 'm']","['Clue', 'Monopoly']","[-0.15, 0.5]","[0.15, 0.5]",1,1,,,,,,,,,0,1,1,1,0,7,7,2,,,,,,,,,,,,,,,,,,,,,,,,,,,,,,,,,,,,,,,,,,,,,,,,,,,,,,,2347.753789315,None,2347.753789315,None,2347.753789315,None,c,0,2.086036511000202,2349.287223092,None,2349.287223092,None,2349.287223092,None,2351.4371462670006,None,2351.4371462670006,None,2351.4371462670006,None,2351.4371462670006,None,,,,,,,,,,,,,,,,,,,,,,,,,,,,,,,,,,,,,,,,,,,,001,135,2020_Feb_18_1154,spring_faces,3.1.5,59.844705741486905,
condition files/Stage1_1.xlsx,,B1,T2,c,"['c', 'm']","['Clue', 'Monopoly']","[-0.15, 0.5]","[0.15, 0.5]",1,1,,,,,,,,,0,2,2,2,0,0,0,1,,,,,,,,,,,,,,,,,,,,,,,,,,,,,,,,,,,,,,,,,,,,,,,,,,,,,,,2353.420704,None,2353.420704,None,2353.420704,None,c,1,1.1863996769989171,2354.9548645550003,None,2354.9548645550003,None,2354.9548645550003,None,2356.2206884280004,None,2356.2206884280004,None,2356.2206884280004,None,2356.2206884280004,None,,,,,,,,,,,,,,,,,,,,,,,,,,,,,,,,,,,,,,,,,,,,001,135,2020_Feb_18_1154,spring_faces,3.1.5,59.844705741486905,
condition files/Stage1_1.xlsx,,B2,T1,m,"['c', 'm']","['Clue', 'Monopoly']","[-0.15, 0.5]","[0.15, 0.5]",1,1,,,,,,,,,0,2,2,2,0,1,1,2,,,,,,,,,,,,,,,,,,,,,,,,,,,,,,,,,,,,,,,,,,,,,,,,,,,,,,,2358.1703004560004,None,2358.1703004560004,None,2358.1703004560004,None,m,1,0.7738654139993741,2359.7034522310005,None,2359.7034522310005,None,2359.7034522310005,None,2360.5371197639997,None,2360.5371197639997,None,2360.5371197639997,None,2360.5371197639997,None,,,,,,,,,,,,,,,,,,,,,,,,,,,,,,,,,,,,,,,,,,,,001,135,2020_Feb_18_1154,spring_faces,3.1.5,59.844705741486905,
condition files/Stage1_1.xlsx,,B3,T3,c,"['c', 'm']","['Clue', 'Monopoly']","[-0.15, 0.5]","[0.15, 0.5]",1,1,,,,,,,,,0,2,2,2,0,2,2,4,,,,,,,,,,,,,,,,,,,,,,,,,,,,,,,,,,,,,,,,,,,,,,,,,,,,,,,2362.503970123,None,2362.503970123,None,2362.503970123,None,c,1,1.80028725900047,2364.036914043001,None,2364.036914043001,None,2364.036914043001,None,2365.888902427001,None,2365.888902427001,None,2365.888902427001,None,2365.888902427001,None,,,,,,,,,,,,,,,,,,,,,,,,,,,,,,,,,,,,,,,,,,,,001,135,2020_Feb_18_1154,spring_faces,3.1.5,59.844705741486905,
condition files/Stage1_1.xlsx,,T2,B2,m,"['c', 'm']","['Clue', 'Monopoly']","[-0.15, 0.5]","[0.15, 0.5]",1,1,,,,,,,,,0,2,2,2,0,3,3,3,,,,,,,,,,,,,,,,,,,,,,,,,,,,,,,,,,,,,,,,,,,,,,,,,,,,,,,2367.8541732880003,None,2367.8541732880003,None,2367.8541732880003,None,m,1,0.7539090940008464,2369.387334913001,None,2369.387334913001,None,2369.387334913001,None,2370.2040597410014,None,2370.2040597410014,None,2370.2040597410014,None,2370.2040597410014,None,,,,,,,,,,,,,,,,,,,,,,,,,,,,,,,,,,,,,,,,,,,,001,135,2020_Feb_18_1154,spring_faces,3.1.5,59.844705741486905,
condition files/Stage1_1.xlsx,,B4,T4,m,"['c', 'm']","['Clue', 'Monopoly']","[-0.15, 0.5]","[0.15, 0.5]",1,1,,,,,,,,,0,2,2,2,0,4,4,7,,,,,,,,,,,,,,,,,,,,,,,,,,,,,,,,,,,,,,,,,,,,,,,,,,,,,,,2372.170511727001,None,2372.170511727001,None,2372.170511727001,None,m,1,2.005576038000072,2373.7036471230003,None,2373.7036471230003,None,2373.7036471230003,None,2375.7702937110007,None,2375.7702937110007,None,2375.7702937110007,None,2375.7702937110007,None,,,,,,,,,,,,,,,,,,,,,,,,,,,,,,,,,,,,,,,,,,,,001,135,2020_Feb_18_1154,spring_faces,3.1.5,59.844705741486905,
condition files/Stage1_1.xlsx,,T3,B4,c,"['c', 'm']","['Clue', 'Monopoly']","[-0.15, 0.5]","[0.15, 0.5]",1,1,,,,,,,,,0,2,2,2,0,5,5,5,,,,,,,,,,,,,,,,,,,,,,,,,,,,,,,,,,,,,,,,,,,,,,,,,,,,,,,2377.7370053780014,None,2377.7370053780014,None,2377.7370053780014,None,c,1,1.6537703550002334,2379.287469001001,None,2379.287469001001,None,2379.287469001001,None,2381.006658829001,None,2381.006658829001,None,2381.006658829001,None,2381.006658829001,None,,,,,,,,,,,,,,,,,,,,,,,,,,,,,,,,,,,,,,,,,,,,001,135,2020_Feb_18_1154,spring_faces,3.1.5,59.844705741486905,
condition files/Stage1_1.xlsx,,T1,B1,c,"['c', 'm']","['Clue', 'Monopoly']","[-0.15, 0.5]","[0.15, 0.5]",1,1,,,,,,,,,0,2,2,2,0,6,6,0,,,,,,,,,,,,,,,,,,,,,,,,,,,,,,,,,,,,,,,,,,,,,,,,,,,,,,,2382.9703377020014,None,2382.9703377020014,None,2382.9703377020014,None,m,0,1.0111351619998459,2384.5062026570013,None,2384.5062026570013,None,2384.5062026570013,None,2385.5705145760003,None,2385.5705145760003,None,2385.5705145760003,None,2385.5705145760003,None,,,,,,,,,,,,,,,,,,,,,,,,,,,,,,,,,,,,,,,,,,,,001,135,2020_Feb_18_1154,spring_faces,3.1.5,59.844705741486905,
condition files/Stage1_1.xlsx,,T4,B3,m,"['c', 'm']","['Clue', 'Monopoly']","[-0.15, 0.5]","[0.15, 0.5]",1,1,,,,,,,,,0,2,2,2,0,7,7,6,,,,,,,,,,,,,,,,,,,,,,,,,,,,,,,,,,,,,,,,,,,,,,,,,,,,,,,2387.5367412260002,None,2387.5367412260002,None,2387.5367412260002,None,m,1,1.8871676799990382,2389.070074303001,None,2389.070074303001,None,2389.070074303001,None,2391.0373200579998,None,2391.0373200579998,None,2391.0373200579998,None,2391.0373200579998,None,,,,,,,,,,,,,,,,,,,,,,,,,,,,,,,,,,,,,,,,,,,,001,135,2020_Feb_18_1154,spring_faces,3.1.5,59.844705741486905,
condition files/Stage1_2.xlsx,,T4,B4,m,"['c', 'm']","['Clue', 'Monopoly']","[-0.15, 0.5]","[0.15, 0.5]",1,1,,,,,,,,,0,3,3,3,0,0,0,7,,,,,,,,,,,,,,,,,,,,,,,,,,,,,,,,,,,,,,,,,,,,,,,,,,,,,,,2393.0040640370007,None,2393.0040640370007,None,2393.0040640370007,None,c,0,2.707312548000118,2394.554004687001,None,2394.554004687001,None,2394.554004687001,None,2397.320427472001,None,2397.320427472001,None,2397.320427472001,None,2397.320427472001,None,,,,,,,,,,,,,,,,,,,,,,,,,,,,,,,,,,,,,,,,,,,,001,135,2020_Feb_18_1154,spring_faces,3.1.5,59.844705741486905,
condition files/Stage1_2.xlsx,,B3,T4,m,"['c', 'm']","['Clue', 'Monopoly']","[-0.15, 0.5]","[0.15, 0.5]",1,1,,,,,,,,,0,3,3,3,0,1,1,6,,,,,,,,,,,,,,,,,,,,,,,,,,,,,,,,,,,,,,,,,,,,,,,,,,,,,,,2399.2870141740004,None,2399.2870141740004,None,2399.2870141740004,None,m,1,2.3600697820002097,2400.8372452150015,None,2400.8372452150015,None,2400.8372452150015,None,2403.2534884720008,None,2403.2534884720008,None,2403.2534884720008,None,2403.2534884720008,None,,,,,,,,,,,,,,,,,,,,,,,,,,,,,,,,,,,,,,,,,,,,001,135,2020_Feb_18_1154,spring_faces,3.1.5,59.844705741486905,
condition files/Stage1_2.xlsx,,B2,T2,m,"['c', 'm']","['Clue', 'Monopoly']","[-0.15, 0.5]","[0.15, 0.5]",1,1,,,,,,,,,0,3,3,3,0,2,2,3,,,,,,,,,,,,,,,,,,,,,,,,,,,,,,,,,,,,,,,,,,,,,,,,,,,,,,,2405.220356842001,None,2405.220356842001,None,2405.220356842001,None,c,0,1.1614367189995392,2406.7557753170004,None,2406.7557753170004,None,2406.7557753170004,None,2407.970607352001,None,2407.970607352001,None,2407.970607352001,None,2407.970607352001,None,,,,,,,,,,,,,,,,,,,,,,,,,,,,,,,,,,,,,,,,,,,,001,135,2020_Feb_18_1154,spring_faces,3.1.5,59.844705741486905,
condition files/Stage1_2.xlsx,,T3,B3,c,"['c', 'm']","['Clue', 'Monopoly']","[-0.15, 0.5]","[0.15, 0.5]",1,1,,,,,,,,,0,3,3,3,0,3,3,4,,,,,,,,,,,,,,,,,,,,,,,,,,,,,,,,,,,,,,,,,,,,,,,,,,,,,,,2409.9371998799998,None,2409.9371998799998,None,2409.9371998799998,None,m,0,0.991099866998411,2411.4702202200006,None,2411.4702202200006,None,2411.4702202200006,None,2412.521491994001,None,2412.521491994001,None,2412.521491994001,None,2412.521491994001,None,,,,,,,,,,,,,,,,,,,,,,,,,,,,,,,,,,,,,,,,,,,,001,135,2020_Feb_18_1154,spring_faces,3.1.5,59.844705741486905,
condition files/Stage1_2.xlsx,,T1,B2,m,"['c', 'm']","['Clue', 'Monopoly']","[-0.15, 0.5]","[0.15, 0.5]",1,1,,,,,,,,,0,3,3,3,0,4,4,2,,,,,,,,,,,,,,,,,,,,,,,,,,,,,,,,,,,,,,,,,,,,,,,,,,,,,,,2414.4870233359998,None,2414.4870233359998,None,2414.4870233359998,None,c,0,1.2569096400002309,2416.020414026001,None,2416.020414026001,None,2416.020414026001,None,2417.336898826001,None,2417.336898826001,None,2417.336898826001,None,2417.336898826001,None,,,,,,,,,,,,,,,,,,,,,,,,,,,,,,,,,,,,,,,,,,,,001,135,2020_Feb_18_1154,spring_faces,3.1.5,59.844705741486905,
condition files/Stage1_2.xlsx,,T2,B1,c,"['c', 'm']","['Clue', 'Monopoly']","[-0.15, 0.5]","[0.15, 0.5]",1,1,,,,,,,,,0,3,3,3,0,5,5,1,,,,,,,,,,,,,,,,,,,,,,,,,,,,,,,,,,,,,,,,,,,,,,,,,,,,,,,2419.303738685001,None,2419.303738685001,None,2419.303738685001,None,c,1,1.6240791769996576,2420.8372398730007,None,2420.8372398730007,None,2420.8372398730007,None,2422.5369866440014,None,2422.5369866440014,None,2422.5369866440014,None,2422.5369866440014,None,,,,,,,,,,,,,,,,,,,,,,,,,,,,,,,,,,,,,,,,,,,,001,135,2020_Feb_18_1154,spring_faces,3.1.5,59.844705741486905,
condition files/Stage1_2.xlsx,,B1,T1,c,"['c', 'm']","['Clue', 'Monopoly']","[-0.15, 0.5]","[0.15, 0.5]",1,1,,,,,,,,,0,3,3,3,0,6,6,0,,,,,,,,,,,,,,,,,,,,,,,,,,,,,,,,,,,,,,,,,,,,,,,,,,,,,,,2424.4871026380006,None,2424.4871026380006,None,2424.4871026380006,None,c,1,0.8092665000003763,2426.0200397670014,None,2426.0200397670014,None,2426.0200397670014,None,2426.887092682,None,2426.887092682,None,2426.887092682,None,2426.887092682,None,,,,,,,,,,,,,,,,,,,,,,,,,,,,,,,,,,,,,,,,,,,,001,135,2020_Feb_18_1154,spring_faces,3.1.5,59.844705741486905,
condition files/Stage1_2.xlsx,,B4,T3,c,"['c', 'm']","['Clue', 'Monopoly']","[-0.15, 0.5]","[0.15, 0.5]",1,1,,,,,,,,,0,3,3,3,0,7,7,5,,,,,,,,,,,,,,,,,,,,,,,,,,,,,,,,,,,,,,,,,,,,,,,,,,,,,,,2428.853687582001,None,2428.853687582001,None,2428.853687582001,None,m,0,1.3213689670010353,2430.403881147,None,2430.403881147,None,2430.403881147,None,2431.7877693770006,None,2431.7877693770006,None,2431.7877693770006,None,2431.7877693770006,None,,,,,,,,,,,,,,,,,,,,,,,,,,,,,,,,,,,,,,,,,,,,001,135,2020_Feb_18_1154,spring_faces,3.1.5,59.844705741486905,
condition files/Stage1_1.xlsx,,T4,B3,m,"['c', 'm']","['Clue', 'Monopoly']","[-0.15, 0.5]","[0.15, 0.5]",1,1,,,,,,,,,0,4,4,4,0,0,0,6,,,,,,,,,,,,,,,,,,,,,,,,,,,,,,,,,,,,,,,,,,,,,,,,,,,,,,,2433.770585978,None,2433.770585978,None,2433.770585978,None,m,1,1.8289775880002708,2435.3043157520005,None,2435.3043157520005,None,2435.3043157520005,None,2437.188841591,None,2437.188841591,None,2437.188841591,None,2437.188841591,None,,,,,,,,,,,,,,,,,,,,,,,,,,,,,,,,,,,,,,,,,,,,001,135,2020_Feb_18_1154,spring_faces,3.1.5,59.844705741486905,
condition files/Stage1_1.xlsx,,B2,T1,m,"['c', 'm']","['Clue', 'Monopoly']","[-0.15, 0.5]","[0.15, 0.5]",1,1,,,,,,,,,0,4,4,4,0,1,1,2,,,,,,,,,,,,,,,,,,,,,,,,,,,,,,,,,,,,,,,,,,,,,,,,,,,,,,,2439.153964090001,None,2439.153964090001,None,2439.153964090001,None,c,0,0.8598137480003061,2440.6894167540013,None,2440.6894167540013,None,2440.6894167540013,None,2441.6034892360003,None,2441.6034892360003,None,2441.6034892360003,None,2441.6034892360003,None,,,,,,,,,,,,,,,,,,,,,,,,,,,,,,,,,,,,,,,,,,,,001,135,2020_Feb_18_1154,spring_faces,3.1.5,59.844705741486905,
condition files/Stage1_1.xlsx,,B4,T4,m,"['c', 'm']","['Clue', 'Monopoly']","[-0.15, 0.5]","[0.15, 0.5]",1,1,,,,,,,,,0,4,4,4,0,2,2,7,,,,,,,,,,,,,,,,,,,,,,,,,,,,,,,,,,,,,,,,,,,,,,,,,,,,,,,2443.570588003,None,2443.570588003,None,2443.570588003,None,m,1,1.628810000998783,2445.120388794001,None,2445.120388794001,None,2445.120388794001,None,2446.8036765720008,None,2446.8036765720008,None,2446.8036765720008,None,2446.8036765720008,None,,,,,,,,,,,,,,,,,,,,,,,,,,,,,,,,,,,,,,,,,,,,001,135,2020_Feb_18_1154,spring_faces,3.1.5,59.844705741486905,
condition files/Stage1_1.xlsx,,B1,T2,c,"['c', 'm']","['Clue', 'Monopoly']","[-0.15, 0.5]","[0.15, 0.5]",1,1,,,,,,,,,0,4,4,4,0,3,3,1,,,,,,,,,,,,,,,,,,,,,,,,,,,,,,,,,,,,,,,,,,,,,,,,,,,,,,,2448.770407934,None,2448.770407934,None,2448.770407934,None,c,1,0.7331318910000846,2450.3040779290004,None,2450.3040779290004,None,2450.3040779290004,None,2451.088412031,None,2451.088412031,None,2451.088412031,None,2451.088412031,None,,,,,,,,,,,,,,,,,,,,,,,,,,,,,,,,,,,,,,,,,,,,001,135,2020_Feb_18_1154,spring_faces,3.1.5,59.844705741486905,
condition files/Stage1_1.xlsx,,T2,B2,m,"['c', 'm']","['Clue', 'Monopoly']","[-0.15, 0.5]","[0.15, 0.5]",1,1,,,,,,,,,0,4,4,4,0,4,4,3,,,,,,,,,,,,,,,,,,,,,,,,,,,,,,,,,,,,,,,,,,,,,,,,,,,,,,,2453.053107638001,None,2453.053107638001,None,2453.053107638001,None,c,0,0.9304567980016145,2454.586775873,None,2454.586775873,None,2454.586775873,None,2455.5696159460003,None,2455.5696159460003,None,2455.5696159460003,None,2455.5696159460003,None,,,,,,,,,,,,,,,,,,,,,,,,,,,,,,,,,,,,,,,,,,,,001,135,2020_Feb_18_1154,spring_faces,3.1.5,59.844705741486905,
condition files/Stage1_1.xlsx,,T3,B4,c,"['c', 'm']","['Clue', 'Monopoly']","[-0.15, 0.5]","[0.15, 0.5]",1,1,,,,,,,,,0,4,4,4,0,5,5,5,,,,,,,,,,,,,,,,,,,,,,,,,,,,,,,,,,,,,,,,,,,,,,,,,,,,,,,2457.537075876,None,2457.537075876,None,2457.537075876,None,m,0,1.951048193999668,2459.0701729390003,None,2459.0701729390003,None,2459.0701729390003,None,2461.0866959390005,None,2461.0866959390005,None,2461.0866959390005,None,2461.0866959390005,None,,,,,,,,,,,,,,,,,,,,,,,,,,,,,,,,,,,,,,,,,,,,001,135,2020_Feb_18_1154,spring_faces,3.1.5,59.844705741486905,
condition files/Stage1_1.xlsx,,T1,B1,c,"['c', 'm']","['Clue', 'Monopoly']","[-0.15, 0.5]","[0.15, 0.5]",1,1,,,,,,,,,0,4,4,4,0,6,6,0,,,,,,,,,,,,,,,,,,,,,,,,,,,,,,,,,,,,,,,,,,,,,,,,,,,,,,,2463.053481160001,None,2463.053481160001,None,2463.053481160001,None,c,1,1.6653221810011019,2464.587929913001,None,2464.587929913001,None,2464.587929913001,None,2466.304080246,None,2466.304080246,None,2466.304080246,None,2466.304080246,None,,,,,,,,,,,,,,,,,,,,,,,,,,,,,,,,,,,,,,,,,,,,001,135,2020_Feb_18_1154,spring_faces,3.1.5,59.844705741486905,
condition files/Stage1_1.xlsx,,B3,T3,c,"['c', 'm']","['Clue', 'Monopoly']","[-0.15, 0.5]","[0.15, 0.5]",1,1,,,,,,,,,0,4,4,4,0,7,7,4,,,,,,,,,,,,,,,,,,,,,,,,,,,,,,,,,,,,,,,,,,,,,,,,,,,,,,,2468.2701917490012,None,2468.2701917490012,None,2468.2701917490012,None,m,0,2.4485977309996088,2469.820636042001,None,2469.820636042001,None,2469.820636042001,None,2472.3203261200015,None,2472.3203261200015,None,2472.3203261200015,None,2472.3203261200015,None,,,,,,,,,,,,,,,,,,,,,,,,,,,,,,,,,,,,,,,,,,,,001,135,2020_Feb_18_1154,spring_faces,3.1.5,59.844705741486905,
condition files/Stage1_2.xlsx,,B2,T2,m,"['c', 'm']","['Clue', 'Monopoly']","[-0.15, 0.5]","[0.15, 0.5]",1,1,,,,,,,,,0,5,5,5,0,0,0,3,,,,,,,,,,,,,,,,,,,,,,,,,,,,,,,,,,,,,,,,,,,,,,,,,,,,,,,2474.304235918,None,2474.304235918,None,2474.304235918,None,c,0,1.21643444899928,2475.8368208680004,None,2475.8368208680004,None,2475.8368208680004,None,2477.1044910660003,None,2477.1044910660003,None,2477.1044910660003,None,2477.1044910660003,None,,,,,,,,,,,,,,,,,,,,,,,,,,,,,,,,,,,,,,,,,,,,001,135,2020_Feb_18_1154,spring_faces,3.1.5,59.844705741486905,
condition files/Stage1_2.xlsx,,T2,B1,c,"['c', 'm']","['Clue', 'Monopoly']","[-0.15, 0.5]","[0.15, 0.5]",1,1,,,,,,,,,0,5,5,5,0,1,1,1,,,,,,,,,,,,,,,,,,,,,,,,,,,,,,,,,,,,,,,,,,,,,,,,,,,,,,,2479.070458874001,None,2479.070458874001,None,2479.070458874001,None,c,1,1.7298195080002188,2480.603414692001,None,2480.603414692001,None,2480.603414692001,None,2482.387197731001,None,2482.387197731001,None,2482.387197731001,None,2482.387197731001,None,,,,,,,,,,,,,,,,,,,,,,,,,,,,,,,,,,,,,,,,,,,,001,135,2020_Feb_18_1154,spring_faces,3.1.5,59.844705741486905,
condition files/Stage1_2.xlsx,,B4,T3,c,"['c', 'm']","['Clue', 'Monopoly']","[-0.15, 0.5]","[0.15, 0.5]",1,1,,,,,,,,,0,5,5,5,0,2,2,5,,,,,,,,,,,,,,,,,,,,,,,,,,,,,,,,,,,,,,,,,,,,,,,,,,,,,,,2484.3531710040006,None,2484.3531710040006,None,2484.3531710040006,None,m,0,1.9331933449993812,2485.904041330001,None,2485.904041330001,None,2485.904041330001,None,2487.8869338130007,None,2487.8869338130007,None,2487.8869338130007,None,2487.8869338130007,None,,,,,,,,,,,,,,,,,,,,,,,,,,,,,,,,,,,,,,,,,,,,001,135,2020_Feb_18_1154,spring_faces,3.1.5,59.844705741486905,
condition files/Stage1_2.xlsx,,T4,B4,m,"['c', 'm']","['Clue', 'Monopoly']","[-0.15, 0.5]","[0.15, 0.5]",1,1,,,,,,,,,0,5,5,5,0,3,3,7,,,,,,,,,,,,,,,,,,,,,,,,,,,,,,,,,,,,,,,,,,,,,,,,,,,,,,,2489.853696809001,None,2489.853696809001,None,2489.853696809001,None,m,1,1.903859054998975,2491.3893535780007,None,2491.3893535780007,None,2491.3893535780007,None,2493.3551263200006,None,2493.3551263200006,None,2493.3551263200006,None,2493.3551263200006,None,,,,,,,,,,,,,,,,,,,,,,,,,,,,,,,,,,,,,,,,,,,,001,135,2020_Feb_18_1154,spring_faces,3.1.5,59.844705741486905,
condition files/Stage1_2.xlsx,,T1,B2,m,"['c', 'm']","['Clue', 'Monopoly']","[-0.15, 0.5]","[0.15, 0.5]",1,1,,,,,,,,,0,5,5,5,0,4,4,2,,,,,,,,,,,,,,,,,,,,,,,,,,,,,,,,,,,,,,,,,,,,,,,,,,,,,,,2495.320417072,None,2495.320417072,None,2495.320417072,None,m,1,1.4470611789984105,2496.854190766,None,2496.854190766,None,2496.854190766,None,2498.353834718,None,2498.353834718,None,2498.353834718,None,2498.353834718,None,,,,,,,,,,,,,,,,,,,,,,,,,,,,,,,,,,,,,,,,,,,,001,135,2020_Feb_18_1154,spring_faces,3.1.5,59.844705741486905,
condition files/Stage1_2.xlsx,,T3,B3,c,"['c', 'm']","['Clue', 'Monopoly']","[-0.15, 0.5]","[0.15, 0.5]",1,1,,,,,,,,,0,5,5,5,0,5,5,4,,,,,,,,,,,,,,,,,,,,,,,,,,,,,,,,,,,,,,,,,,,,,,,,,,,,,,,2500.3197942220013,None,2500.3197942220013,None,2500.3197942220013,None,c,1,2.86335840799984,2501.8539932860003,None,2501.8539932860003,None,2501.8539932860003,None,2504.7717451030003,None,2504.7717451030003,None,2504.7717451030003,None,2504.7717451030003,None,,,,,,,,,,,,,,,,,,,,,,,,,,,,,,,,,,,,,,,,,,,,001,135,2020_Feb_18_1154,spring_faces,3.1.5,59.844705741486905,
condition files/Stage1_2.xlsx,,B3,T4,m,"['c', 'm']","['Clue', 'Monopoly']","[-0.15, 0.5]","[0.15, 0.5]",1,1,,,,,,,,,0,5,5,5,0,6,6,6,,,,,,,,,,,,,,,,,,,,,,,,,,,,,,,,,,,,,,,,,,,,,,,,,,,,,,,2506.7367539730003,None,2506.7367539730003,None,2506.7367539730003,None,m,1,0.7830898869997327,2508.2701615430014,None,2508.2701615430014,None,2508.2701615430014,None,2509.1200982440005,None,2509.1200982440005,None,2509.1200982440005,None,2509.1200982440005,None,,,,,,,,,,,,,,,,,,,,,,,,,,,,,,,,,,,,,,,,,,,,001,135,2020_Feb_18_1154,spring_faces,3.1.5,59.844705741486905,
condition files/Stage1_2.xlsx,,B1,T1,c,"['c', 'm']","['Clue', 'Monopoly']","[-0.15, 0.5]","[0.15, 0.5]",1,1,,,,,,,,,0,5,5,5,0,7,7,0,,,,,,,,,,,,,,,,,,,,,,,,,,,,,,,,,,,,,,,,,,,,,,,,,,,,,,,2511.0703565950007,None,2511.0703565950007,None,2511.0703565950007,None,c,1,1.967908364998948,2512.60534751,None,2512.60534751,None,2512.60534751,None,2514.6372586830003,None,2514.6372586830003,None,2514.6372586830003,None,2514.6372586830003,None,,,,,,,,,,,,,,,,,,,,,,,,,,,,,,,,,,,,,,,,,,,,001,135,2020_Feb_18_1154,spring_faces,3.1.5,59.844705741486905,
condition files/Stage1_1.xlsx,,B1,T2,c,"['c', 'm']","['Clue', 'Monopoly']","[-0.15, 0.5]","[0.15, 0.5]",1,1,,,,,,,,,0,6,6,6,0,0,0,1,,,,,,,,,,,,,,,,,,,,,,,,,,,,,,,,,,,,,,,,,,,,,,,,,,,,,,,2516.6205553340005,None,2516.6205553340005,None,2516.6205553340005,None,c,1,0.594439610000336,2518.154786385001,None,2518.154786385001,None,2518.154786385001,None,2518.804083500001,None,2518.804083500001,None,2518.804083500001,None,2518.804083500001,None,,,,,,,,,,,,,,,,,,,,,,,,,,,,,,,,,,,,,,,,,,,,001,135,2020_Feb_18_1154,spring_faces,3.1.5,59.844705741486905,
condition files/Stage1_1.xlsx,,B2,T1,m,"['c', 'm']","['Clue', 'Monopoly']","[-0.15, 0.5]","[0.15, 0.5]",1,1,,,,,,,,,0,6,6,6,0,1,1,2,,,,,,,,,,,,,,,,,,,,,,,,,,,,,,,,,,,,,,,,,,,,,,,,,,,,,,,2520.7702618600015,None,2520.7702618600015,None,2520.7702618600015,None,m,1,1.421904803999496,2522.3033845570008,None,2522.3033845570008,None,2522.3033845570008,None,2523.803287251001,None,2523.803287251001,None,2523.803287251001,None,2523.803287251001,None,,,,,,,,,,,,,,,,,,,,,,,,,,,,,,,,,,,,,,,,,,,,001,135,2020_Feb_18_1154,spring_faces,3.1.5,59.844705741486905,
condition files/Stage1_1.xlsx,,T1,B1,c,"['c', 'm']","['Clue', 'Monopoly']","[-0.15, 0.5]","[0.15, 0.5]",1,1,,,,,,,,,0,6,6,6,0,2,2,0,,,,,,,,,,,,,,,,,,,,,,,,,,,,,,,,,,,,,,,,,,,,,,,,,,,,,,,2525.7533890000013,None,2525.7533890000013,None,2525.7533890000013,None,c,1,1.3823442699995212,2527.286900520001,None,2527.286900520001,None,2527.286900520001,None,2528.7374409470012,None,2528.7374409470012,None,2528.7374409470012,None,2528.7374409470012,None,,,,,,,,,,,,,,,,,,,,,,,,,,,,,,,,,,,,,,,,,,,,001,135,2020_Feb_18_1154,spring_faces,3.1.5,59.844705741486905,
condition files/Stage1_1.xlsx,,B3,T3,c,"['c', 'm']","['Clue', 'Monopoly']","[-0.15, 0.5]","[0.15, 0.5]",1,1,,,,,,,,,0,6,6,6,0,3,3,4,,,,,,,,,,,,,,,,,,,,,,,,,,,,,,,,,,,,,,,,,,,,,,,,,,,,,,,2530.6866804750007,None,2530.6866804750007,None,2530.6866804750007,None,m,0,1.1664529329991637,2532.222798971001,None,2532.222798971001,None,2532.222798971001,None,2533.4539870120007,None,2533.4539870120007,None,2533.4539870120007,None,2533.4539870120007,None,,,,,,,,,,,,,,,,,,,,,,,,,,,,,,,,,,,,,,,,,,,,001,135,2020_Feb_18_1154,spring_faces,3.1.5,59.844705741486905,
condition files/Stage1_1.xlsx,,T2,B2,m,"['c', 'm']","['Clue', 'Monopoly']","[-0.15, 0.5]","[0.15, 0.5]",1,1,,,,,,,,,0,6,6,6,0,4,4,3,,,,,,,,,,,,,,,,,,,,,,,,,,,,,,,,,,,,,,,,,,,,,,,,,,,,,,,2535.4203756389998,None,2535.4203756389998,None,2535.4203756389998,None,c,0,0.867676952999318,2536.9535102790014,None,2536.9535102790014,None,2536.9535102790014,None,2537.9034029410013,None,2537.9034029410013,None,2537.9034029410013,None,2537.9034029410013,None,,,,,,,,,,,,,,,,,,,,,,,,,,,,,,,,,,,,,,,,,,,,001,135,2020_Feb_18_1154,spring_faces,3.1.5,59.844705741486905,
condition files/Stage1_1.xlsx,,T3,B4,c,"['c', 'm']","['Clue', 'Monopoly']","[-0.15, 0.5]","[0.15, 0.5]",1,1,,,,,,,,,0,6,6,6,0,5,5,5,,,,,,,,,,,,,,,,,,,,,,,,,,,,,,,,,,,,,,,,,,,,,,,,,,,,,,,2539.8539380830007,None,2539.8539380830007,None,2539.8539380830007,None,c,1,0.9134781109987671,2541.3877761149997,None,2541.3877761149997,None,2541.3877761149997,None,2542.3701911410008,None,2542.3701911410008,None,2542.3701911410008,None,2542.3701911410008,None,,,,,,,,,,,,,,,,,,,,,,,,,,,,,,,,,,,,,,,,,,,,001,135,2020_Feb_18_1154,spring_faces,3.1.5,59.844705741486905,
condition files/Stage1_1.xlsx,,B4,T4,m,"['c', 'm']","['Clue', 'Monopoly']","[-0.15, 0.5]","[0.15, 0.5]",1,1,,,,,,,,,0,6,6,6,0,6,6,7,,,,,,,,,,,,,,,,,,,,,,,,,,,,,,,,,,,,,,,,,,,,,,,,,,,,,,,2544.3204090300005,None,2544.3204090300005,None,2544.3204090300005,None,m,1,1.3117508810009895,2545.853419614001,None,2545.853419614001,None,2545.853419614001,None,2547.222828228001,None,2547.222828228001,None,2547.222828228001,None,2547.222828228001,None,,,,,,,,,,,,,,,,,,,,,,,,,,,,,,,,,,,,,,,,,,,,001,135,2020_Feb_18_1154,spring_faces,3.1.5,59.844705741486905,
condition files/Stage1_1.xlsx,,T4,B3,m,"['c', 'm']","['Clue', 'Monopoly']","[-0.15, 0.5]","[0.15, 0.5]",1,1,,,,,,,,,0,6,6,6,0,7,7,6,,,,,,,,,,,,,,,,,,,,,,,,,,,,,,,,,,,,,,,,,,,,,,,,,,,,,,,2549.1868709480004,None,2549.1868709480004,None,2549.1868709480004,None,m,1,0.7315816659993288,2550.721669550001,None,2550.721669550001,None,2550.721669550001,None,2551.5040588400007,None,2551.5040588400007,None,2551.5040588400007,None,2551.5040588400007,None,,,,,,,,,,,,,,,,,,,,,,,,,,,,,,,,,,,,,,,,,,,,001,135,2020_Feb_18_1154,spring_faces,3.1.5,59.844705741486905,
condition files/Stage1_2.xlsx,,T2,B1,c,"['c', 'm']","['Clue', 'Monopoly']","[-0.15, 0.5]","[0.15, 0.5]",1,1,,,,,,,,,0,7,7,7,0,0,0,1,,,,,,,,,,,,,,,,,,,,,,,,,,,,,,,,,,,,,,,,,,,,,,,,,,,,,,,2553.487024965001,None,2553.487024965001,None,2553.487024965001,None,c,1,1.6472295519997715,2555.022025268001,None,2555.022025268001,None,2555.022025268001,None,2556.7224260990006,None,2556.7224260990006,None,2556.7224260990006,None,2556.7224260990006,None,,,,,,,,,,,,,,,,,,,,,,,,,,,,,,,,,,,,,,,,,,,,001,135,2020_Feb_18_1154,spring_faces,3.1.5,59.844705741486905,
condition files/Stage1_2.xlsx,,T4,B4,m,"['c', 'm']","['Clue', 'Monopoly']","[-0.15, 0.5]","[0.15, 0.5]",1,1,,,,,,,,,0,7,7,7,0,1,1,7,,,,,,,,,,,,,,,,,,,,,,,,,,,,,,,,,,,,,,,,,,,,,,,,,,,,,,,2558.6869745559998,None,2558.6869745559998,None,2558.6869745559998,None,m,1,1.3104456410001148,2560.222772788,None,2560.222772788,None,2560.222772788,None,2561.589257728001,None,2561.589257728001,None,2561.589257728001,None,2561.589257728001,None,,,,,,,,,,,,,,,,,,,,,,,,,,,,,,,,,,,,,,,,,,,,001,135,2020_Feb_18_1154,spring_faces,3.1.5,59.844705741486905,
condition files/Stage1_2.xlsx,,T1,B2,m,"['c', 'm']","['Clue', 'Monopoly']","[-0.15, 0.5]","[0.15, 0.5]",1,1,,,,,,,,,0,7,7,7,0,2,2,2,,,,,,,,,,,,,,,,,,,,,,,,,,,,,,,,,,,,,,,,,,,,,,,,,,,,,,,2563.5531379740005,None,2563.5531379740005,None,2563.5531379740005,None,m,1,1.4065088770003058,2565.086802447,None,2565.086802447,None,2565.086802447,None,2566.55365256,None,2566.55365256,None,2566.55365256,None,2566.55365256,None,,,,,,,,,,,,,,,,,,,,,,,,,,,,,,,,,,,,,,,,,,,,001,135,2020_Feb_18_1154,spring_faces,3.1.5,59.844705741486905,
condition files/Stage1_2.xlsx,,B1,T1,c,"['c', 'm']","['Clue', 'Monopoly']","[-0.15, 0.5]","[0.15, 0.5]",1,1,,,,,,,,,0,7,7,7,0,3,3,0,,,,,,,,,,,,,,,,,,,,,,,,,,,,,,,,,,,,,,,,,,,,,,,,,,,,,,,2568.520365675,None,2568.520365675,None,2568.520365675,None,c,1,1.0472803499997099,2570.070056665001,None,2570.070056665001,None,2570.070056665001,None,2571.1716519750007,None,2571.1716519750007,None,2571.1716519750007,None,2571.1716519750007,None,,,,,,,,,,,,,,,,,,,,,,,,,,,,,,,,,,,,,,,,,,,,001,135,2020_Feb_18_1154,spring_faces,3.1.5,59.844705741486905,
condition files/Stage1_2.xlsx,,B2,T2,m,"['c', 'm']","['Clue', 'Monopoly']","[-0.15, 0.5]","[0.15, 0.5]",1,1,,,,,,,,,0,7,7,7,0,4,4,3,,,,,,,,,,,,,,,,,,,,,,,,,,,,,,,,,,,,,,,,,,,,,,,,,,,,,,,2573.137002540001,None,2573.137002540001,None,2573.137002540001,None,m,1,1.4704042590001336,2574.670849807,None,2574.670849807,None,2574.670849807,None,2576.2038947070014,None,2576.2038947070014,None,2576.2038947070014,None,2576.2038947070014,None,,,,,,,,,,,,,,,,,,,,,,,,,,,,,,,,,,,,,,,,,,,,001,135,2020_Feb_18_1154,spring_faces,3.1.5,59.844705741486905,
condition files/Stage1_2.xlsx,,B3,T4,m,"['c', 'm']","['Clue', 'Monopoly']","[-0.15, 0.5]","[0.15, 0.5]",1,1,,,,,,,,,0,7,7,7,0,5,5,6,,,,,,,,,,,,,,,,,,,,,,,,,,,,,,,,,,,,,,,,,,,,,,,,,,,,,,,2578.170414737,None,2578.170414737,None,2578.170414737,None,m,1,0.9497559190003813,2579.7034916150005,None,2579.7034916150005,None,2579.7034916150005,None,2580.703738444001,None,2580.703738444001,None,2580.703738444001,None,2580.703738444001,None,,,,,,,,,,,,,,,,,,,,,,,,,,,,,,,,,,,,,,,,,,,,001,135,2020_Feb_18_1154,spring_faces,3.1.5,59.844705741486905,
condition files/Stage1_2.xlsx,,B4,T3,c,"['c', 'm']","['Clue', 'Monopoly']","[-0.15, 0.5]","[0.15, 0.5]",1,1,,,,,,,,,0,7,7,7,0,6,6,5,,,,,,,,,,,,,,,,,,,,,,,,,,,,,,,,,,,,,,,,,,,,,,,,,,,,,,,2582.670523252,None,2582.670523252,None,2582.670523252,None,m,0,1.473666971000057,2584.203648759001,None,2584.203648759001,None,2584.203648759001,None,2585.754287091,None,2585.754287091,None,2585.754287091,None,2585.754287091,None,,,,,,,,,,,,,,,,,,,,,,,,,,,,,,,,,,,,,,,,,,,,001,135,2020_Feb_18_1154,spring_faces,3.1.5,59.844705741486905,
condition files/Stage1_2.xlsx,,T3,B3,c,"['c', 'm']","['Clue', 'Monopoly']","[-0.15, 0.5]","[0.15, 0.5]",1,1,,,,,,,,,0,7,7,7,0,7,7,4,,,,,,,,,,,,,,,,,,,,,,,,,,,,,,,,,,,,,,,,,,,,,,,,,,,,,,,2587.703667613001,None,2587.703667613001,None,2587.703667613001,None,c,1,1.7663373380000849,2589.2389221820013,None,2589.2389221820013,None,2589.2389221820013,None,2591.0704613280013,None,2591.0704613280013,None,2591.0704613280013,None,2591.0704613280013,None,,,,,,,,,,,,,,,,,,,,,,,,,,,,,,,,,,,,,,,,,,,,001,135,2020_Feb_18_1154,spring_faces,3.1.5,59.844705741486905,
condition files/Stage1_1.xlsx,,T4,B3,m,"['c', 'm']","['Clue', 'Monopoly']","[-0.15, 0.5]","[0.15, 0.5]",1,1,,,,,,,,,0,8,8,8,0,0,0,6,,,,,,,,,,,,,,,,,,,,,,,,,,,,,,,,,,,,,,,,,,,,,,,,,,,,,,,2593.0539254249998,None,2593.0539254249998,None,2593.0539254249998,None,m,1,0.9125524669998413,2594.5887026340006,None,2594.5887026340006,None,2594.5887026340006,None,2595.556169925001,None,2595.556169925001,None,2595.556169925001,None,2595.556169925001,None,,,,,,,,,,,,,,,,,,,,,,,,,,,,,,,,,,,,,,,,,,,,001,135,2020_Feb_18_1154,spring_faces,3.1.5,59.844705741486905,
condition files/Stage1_1.xlsx,,B4,T4,m,"['c', 'm']","['Clue', 'Monopoly']","[-0.15, 0.5]","[0.15, 0.5]",1,1,,,,,,,,,0,8,8,8,0,1,1,7,,,,,,,,,,,,,,,,,,,,,,,,,,,,,,,,,,,,,,,,,,,,,,,,,,,,,,,2597.52038052,None,2597.52038052,None,2597.52038052,None,m,1,1.3442668259995116,2599.0530600110014,None,2599.0530600110014,None,2599.0530600110014,None,2600.453970013001,None,2600.453970013001,None,2600.453970013001,None,2600.453970013001,None,,,,,,,,,,,,,,,,,,,,,,,,,,,,,,,,,,,,,,,,,,,,001,135,2020_Feb_18_1154,spring_faces,3.1.5,59.844705741486905,
condition files/Stage1_1.xlsx,,T2,B2,m,"['c', 'm']","['Clue', 'Monopoly']","[-0.15, 0.5]","[0.15, 0.5]",1,1,,,,,,,,,0,8,8,8,0,2,2,3,,,,,,,,,,,,,,,,,,,,,,,,,,,,,,,,,,,,,,,,,,,,,,,,,,,,,,,2602.4197932839998,None,2602.4197932839998,None,2602.4197932839998,None,c,0,1.3882976879995113,2603.9529764200015,None,2603.9529764200015,None,2603.9529764200015,None,2605.403971699001,None,2605.403971699001,None,2605.403971699001,None,2605.403971699001,None,,,,,,,,,,,,,,,,,,,,,,,,,,,,,,,,,,,,,,,,,,,,001,135,2020_Feb_18_1154,spring_faces,3.1.5,59.844705741486905,
condition files/Stage1_1.xlsx,,B3,T3,c,"['c', 'm']","['Clue', 'Monopoly']","[-0.15, 0.5]","[0.15, 0.5]",1,1,,,,,,,,,0,8,8,8,0,3,3,4,,,,,,,,,,,,,,,,,,,,,,,,,,,,,,,,,,,,,,,,,,,,,,,,,,,,,,,2607.3704031730013,None,2607.3704031730013,None,2607.3704031730013,None,m,0,1.076018911000574,2608.905211468,None,2608.905211468,None,2608.905211468,None,2610.0380452970003,None,2610.0380452970003,None,2610.0380452970003,None,2610.0380452970003,None,,,,,,,,,,,,,,,,,,,,,,,,,,,,,,,,,,,,,,,,,,,,001,135,2020_Feb_18_1154,spring_faces,3.1.5,59.844705741486905,
condition files/Stage1_1.xlsx,,T3,B4,c,"['c', 'm']","['Clue', 'Monopoly']","[-0.15, 0.5]","[0.15, 0.5]",1,1,,,,,,,,,0,8,8,8,0,4,4,5,,,,,,,,,,,,,,,,,,,,,,,,,,,,,,,,,,,,,,,,,,,,,,,,,,,,,,,2612.003170332,None,2612.003170332,None,2612.003170332,None,c,1,1.067538067998612,2613.537656403001,None,2613.537656403001,None,2613.537656403001,None,2614.6707926690015,None,2614.6707926690015,None,2614.6707926690015,None,2614.6707926690015,None,,,,,,,,,,,,,,,,,,,,,,,,,,,,,,,,,,,,,,,,,,,,001,135,2020_Feb_18_1154,spring_faces,3.1.5,59.844705741486905,
condition files/Stage1_1.xlsx,,T1,B1,c,"['c', 'm']","['Clue', 'Monopoly']","[-0.15, 0.5]","[0.15, 0.5]",1,1,,,,,,,,,0,8,8,8,0,5,5,0,,,,,,,,,,,,,,,,,,,,,,,,,,,,,,,,,,,,,,,,,,,,,,,,,,,,,,,2616.6368945040012,None,2616.6368945040012,None,2616.6368945040012,None,c,1,3.474887888000012,2618.1704268800004,None,2618.1704268800004,None,2618.1704268800004,None,2621.7030328250003,None,2621.7030328250003,None,2621.7030328250003,None,2621.7030328250003,None,,,,,,,,,,,,,,,,,,,,,,,,,,,,,,,,,,,,,,,,,,,,001,135,2020_Feb_18_1154,spring_faces,3.1.5,59.844705741486905,
condition files/Stage1_1.xlsx,,B1,T2,c,"['c', 'm']","['Clue', 'Monopoly']","[-0.15, 0.5]","[0.15, 0.5]",1,1,,,,,,,,,0,8,8,8,0,6,6,1,,,,,,,,,,,,,,,,,,,,,,,,,,,,,,,,,,,,,,,,,,,,,,,,,,,,,,,2623.670575073,None,2623.670575073,None,2623.670575073,None,c,1,0.7142193039999256,2625.2031446930014,None,2625.2031446930014,None,2625.2031446930014,None,2625.970678900001,None,2625.970678900001,None,2625.970678900001,None,2625.970678900001,None,,,,,,,,,,,,,,,,,,,,,,,,,,,,,,,,,,,,,,,,,,,,001,135,2020_Feb_18_1154,spring_faces,3.1.5,59.844705741486905,
condition files/Stage1_1.xlsx,,B2,T1,m,"['c', 'm']","['Clue', 'Monopoly']","[-0.15, 0.5]","[0.15, 0.5]",1,1,,,,,,,,,0,8,8,8,0,7,7,2,,,,,,,,,,,,,,,,,,,,,,,,,,,,,,,,,,,,,,,,,,,,,,,,,,,,,,,2627.9370057840006,None,2627.9370057840006,None,2627.9370057840006,None,c,0,0.7190514129997609,2629.470207317001,None,2629.470207317001,None,2629.470207317001,None,2630.2552256920007,None,2630.2552256920007,None,2630.2552256920007,None,2630.2552256920007,None,,,,,,,,,,,,,,,,,,,,,,,,,,,,,,,,,,,,,,,,,,,,001,135,2020_Feb_18_1154,spring_faces,3.1.5,59.844705741486905,
condition files/Stage1_2.xlsx,,B4,T3,c,"['c', 'm']","['Clue', 'Monopoly']","[-0.15, 0.5]","[0.15, 0.5]",1,1,,,,,,,,,0,9,9,9,0,0,0,5,,,,,,,,,,,,,,,,,,,,,,,,,,,,,,,,,,,,,,,,,,,,,,,,,,,,,,,2632.2373160730003,None,2632.2373160730003,None,2632.2373160730003,None,m,0,0.9290687470002013,2633.7721932020013,None,2633.7721932020013,None,2633.7721932020013,None,2634.75471929,None,2634.75471929,None,2634.75471929,None,2634.75471929,None,,,,,,,,,,,,,,,,,,,,,,,,,,,,,,,,,,,,,,,,,,,,001,135,2020_Feb_18_1154,spring_faces,3.1.5,59.844705741486905,
condition files/Stage1_2.xlsx,,B2,T2,m,"['c', 'm']","['Clue', 'Monopoly']","[-0.15, 0.5]","[0.15, 0.5]",1,1,,,,,,,,,0,9,9,9,0,1,1,3,,,,,,,,,,,,,,,,,,,,,,,,,,,,,,,,,,,,,,,,,,,,,,,,,,,,,,,2636.720019671,None,2636.720019671,None,2636.720019671,None,m,1,1.056050116001643,2638.253293687001,None,2638.253293687001,None,2638.253293687001,None,2639.3709156080004,None,2639.3709156080004,None,2639.3709156080004,None,2639.3709156080004,None,,,,,,,,,,,,,,,,,,,,,,,,,,,,,,,,,,,,,,,,,,,,001,135,2020_Feb_18_1154,spring_faces,3.1.5,59.844705741486905,
condition files/Stage1_2.xlsx,,T2,B1,c,"['c', 'm']","['Clue', 'Monopoly']","[-0.15, 0.5]","[0.15, 0.5]",1,1,,,,,,,,,0,9,9,9,0,2,2,1,,,,,,,,,,,,,,,,,,,,,,,,,,,,,,,,,,,,,,,,,,,,,,,,,,,,,,,2641.33698111,None,2641.33698111,None,2641.33698111,None,m,0,0.805686916999548,2642.8716383749997,None,2642.8716383749997,None,2642.8716383749997,None,2643.7392681400015,None,2643.7392681400015,None,2643.7392681400015,None,2643.7392681400015,None,,,,,,,,,,,,,,,,,,,,,,,,,,,,,,,,,,,,,,,,,,,,001,135,2020_Feb_18_1154,spring_faces,3.1.5,59.844705741486905,
condition files/Stage1_2.xlsx,,B3,T4,m,"['c', 'm']","['Clue', 'Monopoly']","[-0.15, 0.5]","[0.15, 0.5]",1,1,,,,,,,,,0,9,9,9,0,3,3,6,,,,,,,,,,,,,,,,,,,,,,,,,,,,,,,,,,,,,,,,,,,,,,,,,,,,,,,2645.703712171,None,2645.703712171,None,2645.703712171,None,m,1,0.8075887649993092,2647.237725168001,None,2647.237725168001,None,2647.237725168001,None,2648.1050787500008,None,2648.1050787500008,None,2648.1050787500008,None,2648.1050787500008,None,,,,,,,,,,,,,,,,,,,,,,,,,,,,,,,,,,,,,,,,,,,,001,135,2020_Feb_18_1154,spring_faces,3.1.5,59.844705741486905,
condition files/Stage1_2.xlsx,,T4,B4,m,"['c', 'm']","['Clue', 'Monopoly']","[-0.15, 0.5]","[0.15, 0.5]",1,1,,,,,,,,,0,9,9,9,0,4,4,7,,,,,,,,,,,,,,,,,,,,,,,,,,,,,,,,,,,,,,,,,,,,,,,,,,,,,,,2650.0703819810005,None,2650.0703819810005,None,2650.0703819810005,None,m,1,1.4165091939994454,2651.604702058001,None,2651.604702058001,None,2651.604702058001,None,2653.0873981160003,None,2653.0873981160003,None,2653.0873981160003,None,2653.0873981160003,None,,,,,,,,,,,,,,,,,,,,,,,,,,,,,,,,,,,,,,,,,,,,001,135,2020_Feb_18_1154,spring_faces,3.1.5,59.844705741486905,
condition files/Stage1_2.xlsx,,T3,B3,c,"['c', 'm']","['Clue', 'Monopoly']","[-0.15, 0.5]","[0.15, 0.5]",1,1,,,,,,,,,0,9,9,9,0,5,5,4,,,,,,,,,,,,,,,,,,,,,,,,,,,,,,,,,,,,,,,,,,,,,,,,,,,,,,,2655.054178155,None,2655.054178155,None,2655.054178155,None,m,0,0.8484744199995475,2656.588781089,None,2656.588781089,None,2656.588781089,None,2657.488356486001,None,2657.488356486001,None,2657.488356486001,None,2657.488356486001,None,,,,,,,,,,,,,,,,,,,,,,,,,,,,,,,,,,,,,,,,,,,,001,135,2020_Feb_18_1154,spring_faces,3.1.5,59.844705741486905,
condition files/Stage1_2.xlsx,,B1,T1,c,"['c', 'm']","['Clue', 'Monopoly']","[-0.15, 0.5]","[0.15, 0.5]",1,1,,,,,,,,,0,9,9,9,0,6,6,0,,,,,,,,,,,,,,,,,,,,,,,,,,,,,,,,,,,,,,,,,,,,,,,,,,,,,,,2659.453857142,None,2659.453857142,None,2659.453857142,None,m,0,1.2180112690002716,2660.9871931449998,None,2660.9871931449998,None,2660.9871931449998,None,2662.270150499,None,2662.270150499,None,2662.270150499,None,2662.270150499,None,,,,,,,,,,,,,,,,,,,,,,,,,,,,,,,,,,,,,,,,,,,,001,135,2020_Feb_18_1154,spring_faces,3.1.5,59.844705741486905,
condition files/Stage1_2.xlsx,,T1,B2,m,"['c', 'm']","['Clue', 'Monopoly']","[-0.15, 0.5]","[0.15, 0.5]",1,1,,,,,,,,,0,9,9,9,0,7,7,2,,,,,,,,,,,,,,,,,,,,,,,,,,,,,,,,,,,,,,,,,,,,,,,,,,,,,,,2664.2370837140006,None,2664.2370837140006,None,2664.2370837140006,None,m,1,1.0270521830007056,2665.770261503001,None,2665.770261503001,None,2665.770261503001,None,2666.853483361001,None,2666.853483361001,None,2666.853483361001,None,2666.853483361001,None,,,,,,,,,,,,,,,,,,,,,,,,,,,,,,,,,,,,,,,,,,,,001,135,2020_Feb_18_1154,spring_faces,3.1.5,59.844705741486905,
condition files/Stage1_1.xlsx,,T4,B3,m,"['c', 'm']","['Clue', 'Monopoly']","[-0.15, 0.5]","[0.15, 0.5]",1,1,,,,,,,,,0,10,10,10,0,0,0,6,,,,,,,,,,,,,,,,,,,,,,,,,,,,,,,,,,,,,,,,,,,,,,,,,,,,,,,2668.836585334,None,2668.836585334,None,2668.836585334,None,m,1,0.9854774010000256,2670.3717930330004,None,2670.3717930330004,None,2670.3717930330004,None,2671.420827082,None,2671.420827082,None,2671.420827082,None,2671.420827082,None,,,,,,,,,,,,,,,,,,,,,,,,,,,,,,,,,,,,,,,,,,,,001,135,2020_Feb_18_1154,spring_faces,3.1.5,59.844705741486905,
condition files/Stage1_1.xlsx,,B2,T1,m,"['c', 'm']","['Clue', 'Monopoly']","[-0.15, 0.5]","[0.15, 0.5]",1,1,,,,,,,,,0,10,10,10,0,1,1,2,,,,,,,,,,,,,,,,,,,,,,,,,,,,,,,,,,,,,,,,,,,,,,,,,,,,,,,2673.387034956,None,2673.387034956,None,2673.387034956,None,m,1,0.9971055379992322,2674.9202775800004,None,2674.9202775800004,None,2674.9202775800004,None,2675.970571768001,None,2675.970571768001,None,2675.970571768001,None,2675.970571768001,None,,,,,,,,,,,,,,,,,,,,,,,,,,,,,,,,,,,,,,,,,,,,001,135,2020_Feb_18_1154,spring_faces,3.1.5,59.844705741486905,
condition files/Stage1_1.xlsx,,B3,T3,c,"['c', 'm']","['Clue', 'Monopoly']","[-0.15, 0.5]","[0.15, 0.5]",1,1,,,,,,,,,0,10,10,10,0,2,2,4,,,,,,,,,,,,,,,,,,,,,,,,,,,,,,,,,,,,,,,,,,,,,,,,,,,,,,,2677.9372727500013,None,2677.9372727500013,None,2677.9372727500013,None,m,0,1.1183688050005003,2679.4708906100004,None,2679.4708906100004,None,2679.4708906100004,None,2680.6541061530006,None,2680.6541061530006,None,2680.6541061530006,None,2680.6541061530006,None,,,,,,,,,,,,,,,,,,,,,,,,,,,,,,,,,,,,,,,,,,,,001,135,2020_Feb_18_1154,spring_faces,3.1.5,59.844705741486905,
condition files/Stage1_1.xlsx,,B4,T4,m,"['c', 'm']","['Clue', 'Monopoly']","[-0.15, 0.5]","[0.15, 0.5]",1,1,,,,,,,,,0,10,10,10,0,3,3,7,,,,,,,,,,,,,,,,,,,,,,,,,,,,,,,,,,,,,,,,,,,,,,,,,,,,,,,2682.6202531300005,None,2682.6202531300005,None,2682.6202531300005,None,c,0,0.9784999849998712,2684.154760198,None,2684.154760198,None,2684.154760198,None,2685.2035443570003,None,2685.2035443570003,None,2685.2035443570003,None,2685.2035443570003,None,,,,,,,,,,,,,,,,,,,,,,,,,,,,,,,,,,,,,,,,,,,,001,135,2020_Feb_18_1154,spring_faces,3.1.5,59.844705741486905,
condition files/Stage1_1.xlsx,,T1,B1,c,"['c', 'm']","['Clue', 'Monopoly']","[-0.15, 0.5]","[0.15, 0.5]",1,1,,,,,,,,,0,10,10,10,0,4,4,0,,,,,,,,,,,,,,,,,,,,,,,,,,,,,,,,,,,,,,,,,,,,,,,,,,,,,,,2687.153331790001,None,2687.153331790001,None,2687.153331790001,None,m,0,0.9260174709997955,2688.6872699980013,None,2688.6872699980013,None,2688.6872699980013,None,2689.6708478689998,None,2689.6708478689998,None,2689.6708478689998,None,2689.6708478689998,None,,,,,,,,,,,,,,,,,,,,,,,,,,,,,,,,,,,,,,,,,,,,001,135,2020_Feb_18_1154,spring_faces,3.1.5,59.844705741486905,
condition files/Stage1_1.xlsx,,B1,T2,c,"['c', 'm']","['Clue', 'Monopoly']","[-0.15, 0.5]","[0.15, 0.5]",1,1,,,,,,,,,0,10,10,10,0,5,5,1,,,,,,,,,,,,,,,,,,,,,,,,,,,,,,,,,,,,,,,,,,,,,,,,,,,,,,,2691.6371106040006,None,2691.6371106040006,None,2691.6371106040006,None,c,1,1.818597186000261,2693.170664395,None,2693.170664395,None,2693.170664395,None,2695.053769663,None,2695.053769663,None,2695.053769663,None,2695.053769663,None,,,,,,,,,,,,,,,,,,,,,,,,,,,,,,,,,,,,,,,,,,,,001,135,2020_Feb_18_1154,spring_faces,3.1.5,59.844705741486905,
condition files/Stage1_1.xlsx,,T3,B4,c,"['c', 'm']","['Clue', 'Monopoly']","[-0.15, 0.5]","[0.15, 0.5]",1,1,,,,,,,,,0,10,10,10,0,6,6,5,,,,,,,,,,,,,,,,,,,,,,,,,,,,,,,,,,,,,,,,,,,,,,,,,,,,,,,2697.0203123440006,None,2697.0203123440006,None,2697.0203123440006,None,m,0,1.026850291998926,2698.554417745001,None,2698.554417745001,None,2698.554417745001,None,2699.637313202,None,2699.637313202,None,2699.637313202,None,2699.637313202,None,,,,,,,,,,,,,,,,,,,,,,,,,,,,,,,,,,,,,,,,,,,,001,135,2020_Feb_18_1154,spring_faces,3.1.5,59.844705741486905,
condition files/Stage1_1.xlsx,,T2,B2,m,"['c', 'm']","['Clue', 'Monopoly']","[-0.15, 0.5]","[0.15, 0.5]",1,1,,,,,,,,,0,10,10,10,0,7,7,3,,,,,,,,,,,,,,,,,,,,,,,,,,,,,,,,,,,,,,,,,,,,,,,,,,,,,,,2701.603249799,None,2701.603249799,None,2701.603249799,None,m,1,0.6367044359994907,2703.1365571510014,None,2703.1365571510014,None,2703.1365571510014,None,2703.853780333,None,2703.853780333,None,2703.853780333,None,2703.853780333,None,,,,,,,,,,,,,,,,,,,,,,,,,,,,,,,,,,,,,,,,,,,,001,135,2020_Feb_18_1154,spring_faces,3.1.5,59.844705741486905,
condition files/Stage1_2.xlsx,,T1,B2,m,"['c', 'm']","['Clue', 'Monopoly']","[-0.15, 0.5]","[0.15, 0.5]",1,1,,,,,,,,,0,11,11,11,0,0,0,2,,,,,,,,,,,,,,,,,,,,,,,,,,,,,,,,,,,,,,,,,,,,,,,,,,,,,,,2705.820566378001,None,2705.820566378001,None,2705.820566378001,None,m,1,1.1393390479988739,2707.3539663680003,None,2707.3539663680003,None,2707.3539663680003,None,2708.5540171330013,None,2708.5540171330013,None,2708.5540171330013,None,2708.5540171330013,None,,,,,,,,,,,,,,,,,,,,,,,,,,,,,,,,,,,,,,,,,,,,001,135,2020_Feb_18_1154,spring_faces,3.1.5,59.844705741486905,
condition files/Stage1_2.xlsx,,B2,T2,m,"['c', 'm']","['Clue', 'Monopoly']","[-0.15, 0.5]","[0.15, 0.5]",1,1,,,,,,,,,0,11,11,11,0,1,1,3,,,,,,,,,,,,,,,,,,,,,,,,,,,,,,,,,,,,,,,,,,,,,,,,,,,,,,,2710.520332162001,None,2710.520332162001,None,2710.520332162001,None,m,1,0.7268144600002415,2712.05443932,None,2712.05443932,None,2712.05443932,None,2712.8369741120005,None,2712.8369741120005,None,2712.8369741120005,None,2712.8369741120005,None,,,,,,,,,,,,,,,,,,,,,,,,,,,,,,,,,,,,,,,,,,,,001,135,2020_Feb_18_1154,spring_faces,3.1.5,59.844705741486905,
condition files/Stage1_2.xlsx,,B4,T3,c,"['c', 'm']","['Clue', 'Monopoly']","[-0.15, 0.5]","[0.15, 0.5]",1,1,,,,,,,,,0,11,11,11,0,2,2,5,,,,,,,,,,,,,,,,,,,,,,,,,,,,,,,,,,,,,,,,,,,,,,,,,,,,,,,2714.803679890001,None,2714.803679890001,None,2714.803679890001,None,m,0,2.859345552000377,2716.3539301830006,None,2716.3539301830006,None,2716.3539301830006,None,2719.270983317001,None,2719.270983317001,None,2719.270983317001,None,2719.270983317001,None,,,,,,,,,,,,,,,,,,,,,,,,,,,,,,,,,,,,,,,,,,,,001,135,2020_Feb_18_1154,spring_faces,3.1.5,59.844705741486905,
condition files/Stage1_2.xlsx,,B3,T4,m,"['c', 'm']","['Clue', 'Monopoly']","[-0.15, 0.5]","[0.15, 0.5]",1,1,,,,,,,,,0,11,11,11,0,3,3,6,,,,,,,,,,,,,,,,,,,,,,,,,,,,,,,,,,,,,,,,,,,,,,,,,,,,,,,2721.236703431001,None,2721.236703431001,None,2721.236703431001,None,m,1,0.9538295209986245,2722.7874136500013,None,2722.7874136500013,None,2722.7874136500013,None,2723.8057800080005,None,2723.8057800080005,None,2723.8057800080005,None,2723.8057800080005,None,,,,,,,,,,,,,,,,,,,,,,,,,,,,,,,,,,,,,,,,,,,,001,135,2020_Feb_18_1154,spring_faces,3.1.5,59.844705741486905,
condition files/Stage1_2.xlsx,,T4,B4,m,"['c', 'm']","['Clue', 'Monopoly']","[-0.15, 0.5]","[0.15, 0.5]",1,1,,,,,,,,,0,11,11,11,0,4,4,7,,,,,,,,,,,,,,,,,,,,,,,,,,,,,,,,,,,,,,,,,,,,,,,,,,,,,,,2725.7701978269997,None,2725.7701978269997,None,2725.7701978269997,None,c,0,1.1250344319996657,2727.3202774620004,None,2727.3202774620004,None,2727.3202774620004,None,2728.503686979,None,2728.503686979,None,2728.503686979,None,2728.503686979,None,,,,,,,,,,,,,,,,,,,,,,,,,,,,,,,,,,,,,,,,,,,,001,135,2020_Feb_18_1154,spring_faces,3.1.5,59.844705741486905,
condition files/Stage1_2.xlsx,,T2,B1,c,"['c', 'm']","['Clue', 'Monopoly']","[-0.15, 0.5]","[0.15, 0.5]",1,1,,,,,,,,,0,11,11,11,0,5,5,1,,,,,,,,,,,,,,,,,,,,,,,,,,,,,,,,,,,,,,,,,,,,,,,,,,,,,,,2730.4703410620004,None,2730.4703410620004,None,2730.4703410620004,None,c,1,1.2737618640003348,2732.003567163001,None,2732.003567163001,None,2732.003567163001,None,2733.354019757,None,2733.354019757,None,2733.354019757,None,2733.354019757,None,,,,,,,,,,,,,,,,,,,,,,,,,,,,,,,,,,,,,,,,,,,,001,135,2020_Feb_18_1154,spring_faces,3.1.5,59.844705741486905,
condition files/Stage1_2.xlsx,,T3,B3,c,"['c', 'm']","['Clue', 'Monopoly']","[-0.15, 0.5]","[0.15, 0.5]",1,1,,,,,,,,,0,11,11,11,0,6,6,4,,,,,,,,,,,,,,,,,,,,,,,,,,,,,,,,,,,,,,,,,,,,,,,,,,,,,,,2735.3030753410003,None,2735.3030753410003,None,2735.3030753410003,None,m,0,1.0461873760013987,2736.839067969,None,2736.839067969,None,2736.839067969,None,2737.9375509910005,None,2737.9375509910005,None,2737.9375509910005,None,2737.9375509910005,None,,,,,,,,,,,,,,,,,,,,,,,,,,,,,,,,,,,,,,,,,,,,001,135,2020_Feb_18_1154,spring_faces,3.1.5,59.844705741486905,
condition files/Stage1_2.xlsx,,B1,T1,c,"['c', 'm']","['Clue', 'Monopoly']","[-0.15, 0.5]","[0.15, 0.5]",1,1,,,,,,,,,0,11,11,11,0,7,7,0,,,,,,,,,,,,,,,,,,,,,,,,,,,,,,,,,,,,,,,,,,,,,,,,,,,,,,,2739.9031675550013,None,2739.9031675550013,None,2739.9031675550013,None,c,1,0.830975822000255,2741.4382798630013,None,2741.4382798630013,None,2741.4382798630013,None,2742.320760595001,None,2742.320760595001,None,2742.320760595001,None,2742.320760595001,None,,,,,,,,,,,,,,,,,,,,,,,,,,,,,,,,,,,,,,,,,,,,001,135,2020_Feb_18_1154,spring_faces,3.1.5,59.844705741486905,
,,,,,,,,,,,,,,,,,,,,,,,,,,,,,,,,,,,,,,,,,,,,,,,,,,,,,,,,,,,,,,,,,,,,,,,,,,,,,,,,,,,,,,,,,,,,,,,,,,,,,,,,,,,,,,,,2744.303932324001,None,space,5.093494054000985,2749.303836512001,None,,,,,,,,,,,,,,,,,,,,,,,,,,,,,,001,135,2020_Feb_18_1154,spring_faces,3.1.5,59.844705741486905,
condition files/Stage2_1.xlsx,,B6,T6,r,"['s', 'r']","['Stratego', 'Risk']","[-0.15, 0.5]","[0.15, 0.5]",1,1,,,,,,,,,,,,,,,,,0,0,0,0,0,0,0,1,,,,,,,,,,,,,,,,,,,,,,,,,,,,,,,,,,,,,,,,,,,,,,,2754.454190030001,None,2754.454190030001,None,2754.454190030001,None,s,0,1.0500165140001627,2755.955198279,None,2755.955198279,None,2755.955198279,None,2757.0707321440004,None,2757.0707321440004,None,2757.0707321440004,None,2757.0707321440004,None,,,,,,,,,,,,,,,2749.303836512001,None,,,,,,,,,,,,,,,,,,,,,,,,,,,,001,135,2020_Feb_18_1154,spring_faces,3.1.5,59.844705741486905,
condition files/Stage2_1.xlsx,,T3,B3,s,"['s', 'r']","['Stratego', 'Risk']","[-0.15, 0.5]","[0.15, 0.5]",1,1,,,,,,,,,,,,,,,,,0,0,0,0,0,1,1,4,,,,,,,,,,,,,,,,,,,,,,,,,,,,,,,,,,,,,,,,,,,,,,,2759.0370625780015,None,2759.0370625780015,None,2759.0370625780015,None,r,0,0.9942868859998271,2760.5709642050006,None,2760.5709642050006,None,2760.5709642050006,None,2761.6371038320012,None,2761.6371038320012,None,2761.6371038320012,None,2761.6371038320012,None,,,,,,,,,,,,,,,,,,,,,,,,,,,,,,,,,,,,,,,,,,,,001,135,2020_Feb_18_1154,spring_faces,3.1.5,59.844705741486905,
condition files/Stage2_1.xlsx,,B4,T4,r,"['s', 'r']","['Stratego', 'Risk']","[-0.15, 0.5]","[0.15, 0.5]",1,1,,,,,,,,,,,,,,,,,0,0,0,0,0,2,2,5,,,,,,,,,,,,,,,,,,,,,,,,,,,,,,,,,,,,,,,,,,,,,,,2763.5866055320002,None,2763.5866055320002,None,2763.5866055320002,None,r,1,1.4359162019991345,2765.137324208001,None,2765.137324208001,None,2765.137324208001,None,2766.638213211001,None,2766.638213211001,None,2766.638213211001,None,2766.638213211001,None,,,,,,,,,,,,,,,,,,,,,,,,,,,,,,,,,,,,,,,,,,,,001,135,2020_Feb_18_1154,spring_faces,3.1.5,59.844705741486905,
condition files/Stage2_1.xlsx,,B2,T2,r,"['s', 'r']","['Stratego', 'Risk']","[-0.15, 0.5]","[0.15, 0.5]",1,1,,,,,,,,,,,,,,,,,0,0,0,0,0,3,3,3,,,,,,,,,,,,,,,,,,,,,,,,,,,,,,,,,,,,,,,,,,,,,,,2768.603707999,None,2768.603707999,None,2768.603707999,None,r,1,0.8040438039988658,2770.137225419001,None,2770.137225419001,None,2770.137225419001,None,2771.0038312390006,None,2771.0038312390006,None,2771.0038312390006,None,2771.0038312390006,None,,,,,,,,,,,,,,,,,,,,,,,,,,,,,,,,,,,,,,,,,,,,001,135,2020_Feb_18_1154,spring_faces,3.1.5,59.844705741486905,
condition files/Stage2_1.xlsx,,T5,B5,s,"['s', 'r']","['Stratego', 'Risk']","[-0.15, 0.5]","[0.15, 0.5]",1,1,,,,,,,,,,,,,,,,,0,0,0,0,0,4,4,0,,,,,,,,,,,,,,,,,,,,,,,,,,,,,,,,,,,,,,,,,,,,,,,2772.9703427310014,None,2772.9703427310014,None,2772.9703427310014,None,s,1,0.7881577589996596,2774.505079273,None,2774.505079273,None,2774.505079273,None,2775.354122885001,None,2775.354122885001,None,2775.354122885001,None,2775.354122885001,None,,,,,,,,,,,,,,,,,,,,,,,,,,,,,,,,,,,,,,,,,,,,001,135,2020_Feb_18_1154,spring_faces,3.1.5,59.844705741486905,
condition files/Stage2_1.xlsx,,T1,B1,s,"['s', 'r']","['Stratego', 'Risk']","[-0.15, 0.5]","[0.15, 0.5]",1,1,,,,,,,,,,,,,,,,,0,0,0,0,0,5,5,2,,,,,,,,,,,,,,,,,,,,,,,,,,,,,,,,,,,,,,,,,,,,,,,2777.3203543550007,None,2777.3203543550007,None,2777.3203543550007,None,r,0,0.7112691199999972,2778.853963484,None,2778.853963484,None,2778.853963484,None,2779.620973956,None,2779.620973956,None,2779.620973956,None,2779.620973956,None,,,,,,,,,,,,,,,,,,,,,,,,,,,,,,,,,,,,,,,,,,,,001,135,2020_Feb_18_1154,spring_faces,3.1.5,59.844705741486905,
condition files/Stage2_2.xlsx,,T6,B6,r,"['s', 'r']","['Stratego', 'Risk']","[-0.15, 0.5]","[0.15, 0.5]",1,1,,,,,,,,,,,,,,,,,0,1,1,1,0,0,0,1,,,,,,,,,,,,,,,,,,,,,,,,,,,,,,,,,,,,,,,,,,,,,,,2781.603508942,None,2781.603508942,None,2781.603508942,None,s,0,1.2124596590001602,2783.1368335490006,None,2783.1368335490006,None,2783.1368335490006,None,2784.4059562660004,None,2784.4059562660004,None,2784.4059562660004,None,2784.4059562660004,None,,,,,,,,,,,,,,,,,,,,,,,,,,,,,,,,,,,,,,,,,,,,001,135,2020_Feb_18_1154,spring_faces,3.1.5,59.844705741486905,
condition files/Stage2_2.xlsx,,T2,B2,r,"['s', 'r']","['Stratego', 'Risk']","[-0.15, 0.5]","[0.15, 0.5]",1,1,,,,,,,,,,,,,,,,,0,1,1,1,0,1,1,3,,,,,,,,,,,,,,,,,,,,,,,,,,,,,,,,,,,,,,,,,,,,,,,2786.370083041,None,2786.370083041,None,2786.370083041,None,r,1,1.1487444329995924,2787.9204955650002,None,2787.9204955650002,None,2787.9204955650002,None,2789.1202859960013,None,2789.1202859960013,None,2789.1202859960013,None,2789.1202859960013,None,,,,,,,,,,,,,,,,,,,,,,,,,,,,,,,,,,,,,,,,,,,,001,135,2020_Feb_18_1154,spring_faces,3.1.5,59.844705741486905,
condition files/Stage2_2.xlsx,,T4,B4,r,"['s', 'r']","['Stratego', 'Risk']","[-0.15, 0.5]","[0.15, 0.5]",1,1,,,,,,,,,,,,,,,,,0,1,1,1,0,2,2,5,,,,,,,,,,,,,,,,,,,,,,,,,,,,,,,,,,,,,,,,,,,,,,,2791.0870951450015,None,2791.0870951450015,None,2791.0870951450015,None,r,1,2.3201407470005506,2792.6211281670003,None,2792.6211281670003,None,2792.6211281670003,None,2795.0039589080006,None,2795.0039589080006,None,2795.0039589080006,None,2795.0039589080006,None,,,,,,,,,,,,,,,,,,,,,,,,,,,,,,,,,,,,,,,,,,,,001,135,2020_Feb_18_1154,spring_faces,3.1.5,59.844705741486905,
condition files/Stage2_2.xlsx,,B5,T5,s,"['s', 'r']","['Stratego', 'Risk']","[-0.15, 0.5]","[0.15, 0.5]",1,1,,,,,,,,,,,,,,,,,0,1,1,1,0,3,3,0,,,,,,,,,,,,,,,,,,,,,,,,,,,,,,,,,,,,,,,,,,,,,,,2796.9703242410014,None,2796.9703242410014,None,2796.9703242410014,None,s,1,0.8054813520011521,2798.503782357,None,2798.503782357,None,2798.503782357,None,2799.3872786930006,None,2799.3872786930006,None,2799.3872786930006,None,2799.3872786930006,None,,,,,,,,,,,,,,,,,,,,,,,,,,,,,,,,,,,,,,,,,,,,001,135,2020_Feb_18_1154,spring_faces,3.1.5,59.844705741486905,
condition files/Stage2_2.xlsx,,B1,T1,s,"['s', 'r']","['Stratego', 'Risk']","[-0.15, 0.5]","[0.15, 0.5]",1,1,,,,,,,,,,,,,,,,,0,1,1,1,0,4,4,2,,,,,,,,,,,,,,,,,,,,,,,,,,,,,,,,,,,,,,,,,,,,,,,2801.3367558010013,None,2801.3367558010013,None,2801.3367558010013,None,r,0,0.9012815450005291,2802.871982103001,None,2802.871982103001,None,2802.871982103001,None,2803.837341618,None,2803.837341618,None,2803.837341618,None,2803.837341618,None,,,,,,,,,,,,,,,,,,,,,,,,,,,,,,,,,,,,,,,,,,,,001,135,2020_Feb_18_1154,spring_faces,3.1.5,59.844705741486905,
condition files/Stage2_2.xlsx,,B3,T3,s,"['s', 'r']","['Stratego', 'Risk']","[-0.15, 0.5]","[0.15, 0.5]",1,1,,,,,,,,,,,,,,,,,0,1,1,1,0,5,5,4,,,,,,,,,,,,,,,,,,,,,,,,,,,,,,,,,,,,,,,,,,,,,,,2805.803975588,None,2805.803975588,None,2805.803975588,None,s,1,0.43661991199951444,2807.3366361080007,None,2807.3366361080007,None,2807.3366361080007,None,2807.8370759219997,None,2807.8370759219997,None,2807.8370759219997,None,2807.8370759219997,None,,,,,,,,,,,,,,,,,,,,,,,,,,,,,,,,,,,,,,,,,,,,001,135,2020_Feb_18_1154,spring_faces,3.1.5,59.844705741486905,
condition files/Stage2_1.xlsx,,T5,B5,s,"['s', 'r']","['Stratego', 'Risk']","[-0.15, 0.5]","[0.15, 0.5]",1,1,,,,,,,,,,,,,,,,,0,2,2,2,0,0,0,0,,,,,,,,,,,,,,,,,,,,,,,,,,,,,,,,,,,,,,,,,,,,,,,2809.820065469001,None,2809.820065469001,None,2809.820065469001,None,r,0,0.5454246730005252,2811.3558390430007,None,2811.3558390430007,None,2811.3558390430007,None,2811.9542317470004,None,2811.9542317470004,None,2811.9542317470004,None,2811.9542317470004,None,,,,,,,,,,,,,,,,,,,,,,,,,,,,,,,,,,,,,,,,,,,,001,135,2020_Feb_18_1154,spring_faces,3.1.5,59.844705741486905,
condition files/Stage2_1.xlsx,,T1,B1,s,"['s', 'r']","['Stratego', 'Risk']","[-0.15, 0.5]","[0.15, 0.5]",1,1,,,,,,,,,,,,,,,,,0,2,2,2,0,1,1,2,,,,,,,,,,,,,,,,,,,,,,,,,,,,,,,,,,,,,,,,,,,,,,,2813.9201039830004,None,2813.9201039830004,None,2813.9201039830004,None,r,0,1.3122719959992537,2815.4529965210004,None,2815.4529965210004,None,2815.4529965210004,None,2816.820652739001,None,2816.820652739001,None,2816.820652739001,None,2816.820652739001,None,,,,,,,,,,,,,,,,,,,,,,,,,,,,,,,,,,,,,,,,,,,,001,135,2020_Feb_18_1154,spring_faces,3.1.5,59.844705741486905,
condition files/Stage2_1.xlsx,,B6,T6,r,"['s', 'r']","['Stratego', 'Risk']","[-0.15, 0.5]","[0.15, 0.5]",1,1,,,,,,,,,,,,,,,,,0,2,2,2,0,2,2,1,,,,,,,,,,,,,,,,,,,,,,,,,,,,,,,,,,,,,,,,,,,,,,,2818.786992520001,None,2818.786992520001,None,2818.786992520001,None,s,0,0.7006029420008417,2820.3206317430013,None,2820.3206317430013,None,2820.3206317430013,None,2821.087019677001,None,2821.087019677001,None,2821.087019677001,None,2821.087019677001,None,,,,,,,,,,,,,,,,,,,,,,,,,,,,,,,,,,,,,,,,,,,,001,135,2020_Feb_18_1154,spring_faces,3.1.5,59.844705741486905,
condition files/Stage2_1.xlsx,,B4,T4,r,"['s', 'r']","['Stratego', 'Risk']","[-0.15, 0.5]","[0.15, 0.5]",1,1,,,,,,,,,,,,,,,,,0,2,2,2,0,3,3,5,,,,,,,,,,,,,,,,,,,,,,,,,,,,,,,,,,,,,,,,,,,,,,,2823.0537534290015,None,2823.0537534290015,None,2823.0537534290015,None,r,1,0.3700520919992414,2824.587179403001,None,2824.587179403001,None,2824.587179403001,None,2825.0205282610004,None,2825.0205282610004,None,2825.0205282610004,None,2825.0205282610004,None,,,,,,,,,,,,,,,,,,,,,,,,,,,,,,,,,,,,,,,,,,,,001,135,2020_Feb_18_1154,spring_faces,3.1.5,59.844705741486905,
condition files/Stage2_1.xlsx,,B2,T2,r,"['s', 'r']","['Stratego', 'Risk']","[-0.15, 0.5]","[0.15, 0.5]",1,1,,,,,,,,,,,,,,,,,0,2,2,2,0,4,4,3,,,,,,,,,,,,,,,,,,,,,,,,,,,,,,,,,,,,,,,,,,,,,,,2826.987019372,None,2826.987019372,None,2826.987019372,None,r,1,0.5811261409999133,2828.520140022001,None,2828.520140022001,None,2828.520140022001,None,2829.1544060590004,None,2829.1544060590004,None,2829.1544060590004,None,2829.1544060590004,None,,,,,,,,,,,,,,,,,,,,,,,,,,,,,,,,,,,,,,,,,,,,001,135,2020_Feb_18_1154,spring_faces,3.1.5,59.844705741486905,
condition files/Stage2_1.xlsx,,T3,B3,s,"['s', 'r']","['Stratego', 'Risk']","[-0.15, 0.5]","[0.15, 0.5]",1,1,,,,,,,,,,,,,,,,,0,2,2,2,0,5,5,4,,,,,,,,,,,,,,,,,,,,,,,,,,,,,,,,,,,,,,,,,,,,,,,2831.120435989,None,2831.120435989,None,2831.120435989,None,r,0,0.5912460379986442,2832.654064456001,None,2832.654064456001,None,2832.654064456001,None,2833.304353765001,None,2833.304353765001,None,2833.304353765001,None,2833.304353765001,None,,,,,,,,,,,,,,,,,,,,,,,,,,,,,,,,,,,,,,,,,,,,001,135,2020_Feb_18_1154,spring_faces,3.1.5,59.844705741486905,
condition files/Stage2_2.xlsx,,T2,B2,r,"['s', 'r']","['Stratego', 'Risk']","[-0.15, 0.5]","[0.15, 0.5]",1,1,,,,,,,,,,,,,,,,,0,3,3,3,0,0,0,3,,,,,,,,,,,,,,,,,,,,,,,,,,,,,,,,,,,,,,,,,,,,,,,2835.2869555300003,None,2835.2869555300003,None,2835.2869555300003,None,s,0,0.6485533340000984,2836.8207131500003,None,2836.8207131500003,None,2836.8207131500003,None,2837.5210546010003,None,2837.5210546010003,None,2837.5210546010003,None,2837.5210546010003,None,,,,,,,,,,,,,,,,,,,,,,,,,,,,,,,,,,,,,,,,,,,,001,135,2020_Feb_18_1154,spring_faces,3.1.5,59.844705741486905,
condition files/Stage2_2.xlsx,,B5,T5,s,"['s', 'r']","['Stratego', 'Risk']","[-0.15, 0.5]","[0.15, 0.5]",1,1,,,,,,,,,,,,,,,,,0,3,3,3,0,1,1,0,,,,,,,,,,,,,,,,,,,,,,,,,,,,,,,,,,,,,,,,,,,,,,,2839.487244269001,None,2839.487244269001,None,2839.487244269001,None,r,0,0.6726341360008519,2841.020687497001,None,2841.020687497001,None,2841.020687497001,None,2841.753881128001,None,2841.753881128001,None,2841.753881128001,None,2841.753881128001,None,,,,,,,,,,,,,,,,,,,,,,,,,,,,,,,,,,,,,,,,,,,,001,135,2020_Feb_18_1154,spring_faces,3.1.5,59.844705741486905,
condition files/Stage2_2.xlsx,,T6,B6,r,"['s', 'r']","['Stratego', 'Risk']","[-0.15, 0.5]","[0.15, 0.5]",1,1,,,,,,,,,,,,,,,,,0,3,3,3,0,2,2,1,,,,,,,,,,,,,,,,,,,,,,,,,,,,,,,,,,,,,,,,,,,,,,,2843.720330581,None,2843.720330581,None,2843.720330581,None,s,0,0.7416451429999142,2845.2555598200015,None,2845.2555598200015,None,2845.2555598200015,None,2846.070580728001,None,2846.070580728001,None,2846.070580728001,None,2846.070580728001,None,,,,,,,,,,,,,,,,,,,,,,,,,,,,,,,,,,,,,,,,,,,,001,135,2020_Feb_18_1154,spring_faces,3.1.5,59.844705741486905,
condition files/Stage2_2.xlsx,,T4,B4,r,"['s', 'r']","['Stratego', 'Risk']","[-0.15, 0.5]","[0.15, 0.5]",1,1,,,,,,,,,,,,,,,,,0,3,3,3,0,3,3,5,,,,,,,,,,,,,,,,,,,,,,,,,,,,,,,,,,,,,,,,,,,,,,,2848.020460037,None,2848.020460037,None,2848.020460037,None,r,1,1.4341008159990452,2849.555177925,None,2849.555177925,None,2849.555177925,None,2851.053213913001,None,2851.053213913001,None,2851.053213913001,None,2851.053213913001,None,,,,,,,,,,,,,,,,,,,,,,,,,,,,,,,,,,,,,,,,,,,,001,135,2020_Feb_18_1154,spring_faces,3.1.5,59.844705741486905,
condition files/Stage2_2.xlsx,,B1,T1,s,"['s', 'r']","['Stratego', 'Risk']","[-0.15, 0.5]","[0.15, 0.5]",1,1,,,,,,,,,,,,,,,,,0,3,3,3,0,4,4,2,,,,,,,,,,,,,,,,,,,,,,,,,,,,,,,,,,,,,,,,,,,,,,,2853.020425715,None,2853.020425715,None,2853.020425715,None,r,0,0.7395827769996686,2854.553675841,None,2854.553675841,None,2854.553675841,None,2855.3545427520003,None,2855.3545427520003,None,2855.3545427520003,None,2855.3545427520003,None,,,,,,,,,,,,,,,,,,,,,,,,,,,,,,,,,,,,,,,,,,,,001,135,2020_Feb_18_1154,spring_faces,3.1.5,59.844705741486905,
condition files/Stage2_2.xlsx,,B3,T3,s,"['s', 'r']","['Stratego', 'Risk']","[-0.15, 0.5]","[0.15, 0.5]",1,1,,,,,,,,,,,,,,,,,0,3,3,3,0,5,5,4,,,,,,,,,,,,,,,,,,,,,,,,,,,,,,,,,,,,,,,,,,,,,,,2857.3205234510006,None,2857.3205234510006,None,2857.3205234510006,None,r,0,0.6782932999994955,2858.854954726001,None,2858.854954726001,None,2858.854954726001,None,2859.586742044001,None,2859.586742044001,None,2859.586742044001,None,2859.586742044001,None,,,,,,,,,,,,,,,,,,,,,,,,,,,,,,,,,,,,,,,,,,,,001,135,2020_Feb_18_1154,spring_faces,3.1.5,59.844705741486905,
condition files/Stage2_1.xlsx,,B2,T2,r,"['s', 'r']","['Stratego', 'Risk']","[-0.15, 0.5]","[0.15, 0.5]",1,1,,,,,,,,,,,,,,,,,0,4,4,4,0,0,0,3,,,,,,,,,,,,,,,,,,,,,,,,,,,,,,,,,,,,,,,,,,,,,,,2861.5706097050006,None,2861.5706097050006,None,2861.5706097050006,None,r,1,0.8612250170008338,2863.1200431490015,None,2863.1200431490015,None,2863.1200431490015,None,2864.0541662220003,None,2864.0541662220003,None,2864.0541662220003,None,2864.0541662220003,None,,,,,,,,,,,,,,,,,,,,,,,,,,,,,,,,,,,,,,,,,,,,001,135,2020_Feb_18_1154,spring_faces,3.1.5,59.844705741486905,
condition files/Stage2_1.xlsx,,T3,B3,s,"['s', 'r']","['Stratego', 'Risk']","[-0.15, 0.5]","[0.15, 0.5]",1,1,,,,,,,,,,,,,,,,,0,4,4,4,0,1,1,4,,,,,,,,,,,,,,,,,,,,,,,,,,,,,,,,,,,,,,,,,,,,,,,2866.003806672001,None,2866.003806672001,None,2866.003806672001,None,s,1,1.4044658090006124,2867.536790458,None,2867.536790458,None,2867.536790458,None,2869.0039733860012,None,2869.0039733860012,None,2869.0039733860012,None,2869.0039733860012,None,,,,,,,,,,,,,,,,,,,,,,,,,,,,,,,,,,,,,,,,,,,,001,135,2020_Feb_18_1154,spring_faces,3.1.5,59.844705741486905,
condition files/Stage2_1.xlsx,,T5,B5,s,"['s', 'r']","['Stratego', 'Risk']","[-0.15, 0.5]","[0.15, 0.5]",1,1,,,,,,,,,,,,,,,,,0,4,4,4,0,2,2,0,,,,,,,,,,,,,,,,,,,,,,,,,,,,,,,,,,,,,,,,,,,,,,,2870.970534039001,None,2870.970534039001,None,2870.970534039001,None,r,0,1.3012308559991652,2872.5039882250003,None,2872.5039882250003,None,2872.5039882250003,None,2873.870302235,None,2873.870302235,None,2873.870302235,None,2873.870302235,None,,,,,,,,,,,,,,,,,,,,,,,,,,,,,,,,,,,,,,,,,,,,001,135,2020_Feb_18_1154,spring_faces,3.1.5,59.844705741486905,
condition files/Stage2_1.xlsx,,B6,T6,r,"['s', 'r']","['Stratego', 'Risk']","[-0.15, 0.5]","[0.15, 0.5]",1,1,,,,,,,,,,,,,,,,,0,4,4,4,0,3,3,1,,,,,,,,,,,,,,,,,,,,,,,,,,,,,,,,,,,,,,,,,,,,,,,2875.8373662210015,None,2875.8373662210015,None,2875.8373662210015,None,r,1,1.7629954399999406,2877.3702690110003,None,2877.3702690110003,None,2877.3702690110003,None,2879.1868095300015,None,2879.1868095300015,None,2879.1868095300015,None,2879.1868095300015,None,,,,,,,,,,,,,,,,,,,,,,,,,,,,,,,,,,,,,,,,,,,,001,135,2020_Feb_18_1154,spring_faces,3.1.5,59.844705741486905,
