condsFile,subStage,cue1,cue2,correct,responseKeys,responseNames,cue1Position,cue2Position,cue1Opacity,cue2Opacity,stageLoop0.thisRepN,stageLoop0.thisTrialN,stageLoop0.thisN,stageLoop0.thisIndex,blockLoop0.thisRepN,blockLoop0.thisTrialN,blockLoop0.thisN,blockLoop0.thisIndex,stage1Loop.thisRepN,stage1Loop.thisTrialN,stage1Loop.thisN,stage1Loop.thisIndex,blockLoop1.thisRepN,blockLoop1.thisTrialN,blockLoop1.thisN,blockLoop1.thisIndex,stage2Loop.thisRepN,stage2Loop.thisTrialN,stage2Loop.thisN,stage2Loop.thisIndex,blockLoop2.thisRepN,blockLoop2.thisTrialN,blockLoop2.thisN,blockLoop2.thisIndex,testLoop.thisRepN,testLoop.thisTrialN,testLoop.thisN,testLoop.thisIndex,blockLoopTest.thisRepN,blockLoopTest.thisTrialN,blockLoopTest.thisN,blockLoopTest.thisIndex,cuePics,id_instr_text.started,id_instr_text.stopped,space_to_continue_2.started,space_to_continue_2.stopped,end_instructions_resp_3.keys,end_instructions_resp_3.rt,end_instructions_resp_3.started,end_instructions_resp_3.stopped,id_input_instr.started,id_input_instr.stopped,id_input_rect.started,id_input_rect.stopped,id_input_resp.keys,id_input_resp.rt,id_input_resp.started,id_input_resp.stopped,sonaID,id_input_text.started,id_input_text.stopped,final_text.started,final_text.stopped,instructions.started,instructions.stopped,end_instructions_resp.keys,end_instructions_resp.rt,end_instructions_resp.started,end_instructions_resp.stopped,space_to_continue.started,space_to_continue.stopped,instructions_stage0.started,instructions_stage0.stopped,end_instructions_resp_stage0.keys,end_instructions_resp_stage0.rt,end_instructions_resp_stage0.started,end_instructions_resp_stage0.stopped,space_to_continue_stage0.started,space_to_continue_stage0.stopped,text.started,text.stopped,resp_text1.started,resp_text1.stopped,resp_text2.started,resp_text2.stopped,trial_resp.keys,trial_resp.corr,trial_resp.rt,trial_resp.started,trial_resp.stopped,cue1Image.started,cue1Image.stopped,cue2Image.started,cue2Image.stopped,cue1Image_fb.started,cue1Image_fb.stopped,cue2Image_fb.started,cue2Image_fb.stopped,fb_text_answer.started,fb_text_answer.stopped,feedback_image.started,feedback_image.stopped,instructions_stage1.started,instructions_stage1.stopped,end_instructions_resp_stage1.keys,end_instructions_resp_stage1.rt,end_instructions_resp_stage1.started,end_instructions_resp_stage1.stopped,space_to_continue_stage1.started,space_to_continue_stage1.stopped,instructions_2.started,instructions_2.stopped,end_instructions_resp_2.keys,end_instructions_resp_2.rt,end_instructions_resp_2.started,end_instructions_resp_2.stopped,press_space_to_continue_stage2.started,press_space_to_continue_stage2.stopped,instructions_testStage1.started,instructions_testStage1.stopped,end_instructions_resp_test1.keys,end_instructions_resp_test1.rt,end_instructions_resp_test1.started,end_instructions_resp_test1.stopped,press_space_to_continue_test1.started,press_space_to_continue_test1.stopped,cue1Image_testChoice.started,cue1Image_testChoice.stopped,cue2Image_testChoice.started,cue2Image_testChoice.stopped,test_resp.keys,test_resp.corr,test_resp.rt,test_resp.started,test_resp.stopped,cue1Image_testConf.started,cue1Image_testConf.stopped,cue2Image_testConf.started,cue2Image_testConf.stopped,conf_reminder.started,conf_reminder.stopped,conf_rating.response,conf_rating.rt,conf_rating.started,conf_rating.stopped,session,participant,date,expName,psychopyVersion,frameRate,
,,,,,,,,,,,,,,,,,,,,,,,,,,,,,,,,,,,,,,,,,,,"{'none': 'pictures/20M_AN_C.png', 'alpha': 'pictures/SHINEd_pear.png', 'beta': 'pictures/SHINEd_pepper.png', 'theta': 'pictures/SHINEd_melon.png', 'phi': 'pictures/SHINEd_apple.png', 'T1': 'pictures/37M_AN_C.png', 'T2': 'pictures/26M_AN_C.png', 'T3': 'pictures/23M_AN_C.png', 'T4': 'pictures/36M_AN_C.png', 'T5': 'pictures/32M_AN_C.png', 'T6': 'pictures/20M_AN_C.png', 'B1': 'pictures/38M_NE_C.png', 'B2': 'pictures/31M_NE_C.png', 'B3': 'pictures/22M_NE_C.png', 'B4': 'pictures/25M_NE_C.png', 'B5': 'pictures/34M_NE_C.png', 'B6': 'pictures/33M_NE_C.png'}",814.8395993169979,None,819.8233308469971,None,space,11.734118075000879,819.8233308469971,None,,,,,,,,,,,,,,,,,,,,,,,,,,,,,,,,,,,,,,,,,,,,,,,,,,,,,,,,,,,,,,,,,,,,,,,,,,,,,,,,,,,,,,,,,,,,,,,,001,136,2020_Feb_18_1353,spring_faces,3.1.5,60.039894589317676,
,,,,,,,,,,,,,,,,,,,,,,,,,,,,,,,,,,,,,,,,,,,,,,,,,,,,832.0228269889994,None,832.0228269889994,None,"['1', '2', '2', '1', 'a', 'r', 's', 'k', 'a']","[12.366661558000487, 12.734633173000475, 17.822680896999373, 18.094623585999216, 21.406677858001785, 21.774728299002163, 25.02268188400194, 25.2306526579996, 25.47068289299932]",832.0228269889994,None,,,,,,,,,,,,,,,,,,,,,,,,,,,,,,,,,,,,,,,,,,,,,,,,,,,,,,,,,,,,,,,,,,,,,,,,,,,,,,,,,,,,,,,,001,136,2020_Feb_18_1353,spring_faces,3.1.5,60.039894589317676,
,,,,,,,,,,,,,,,,,,,,,,,,,,,,,,,,,,,,,,,,,,,,,,,,,,,,,,,,,,,,1221arska,832.0228269889994,None,832.0228269889994,None,862.5727601109975,None,space,0.5604554530000314,867.5731081049998,None,,,,,,,,,,,,,,,,,,,,,,,,,,,,,,,,,,,,,,,,,,,,,,,,,,,,,,,,,,,,,,,,,,,,,,,,,,,,,001,136,2020_Feb_18_1353,spring_faces,3.1.5,60.039894589317676,
,,,,,,,,,,,,,,,,,,,,,,,,,,,,,,,,,,,,,,,,,,,,,,,,,,,,,,,,,,,,,,,,,,,,,,,867.5731081049998,None,868.1730488009998,None,space,6.46428993399968,873.1732200999977,None,,,,,,,,,,,,,,,,,,,,,,,,,,,,,,,,,,,,,,,,,,,,,,,,,,,,,,,,,,,,,,,,,,,,,001,136,2020_Feb_18_1353,spring_faces,3.1.5,60.039894589317676,
condition files/Stage0a.xlsx,0a,beta,none,g,"['h', 'g']","['Chess', 'Go']","[0, 0.5]","[0, 0]",1,0,0,0,0,0,0,0,0,1,,,,,,,,,,,,,,,,,,,,,,,,,,,,,,,,,,,,,,,,,,,,,,,,,,,,,,,,,,,,,873.1732200999977,None,879.7065462139981,None,879.7065462139981,None,879.7065462139981,None,h,0,2.330666738002037,881.322939761998,None,881.322939761998,None,881.322939761998,None,883.7233766249992,None,883.7233766249992,None,883.7233766249992,None,883.7233766249992,None,,,,,,,,,,,,,,,,,,,,,,,,,,,,,,,,,,,,,,,,,,,,001,136,2020_Feb_18_1353,spring_faces,3.1.5,60.039894589317676,
condition files/Stage0a.xlsx,0a,alpha,none,h,"['h', 'g']","['Chess', 'Go']","[0, 0.5]","[0, 0]",1,0,0,0,0,0,0,1,1,0,,,,,,,,,,,,,,,,,,,,,,,,,,,,,,,,,,,,,,,,,,,,,,,,,,,,,,,,,,,,,,,885.6729761089991,None,885.6729761089991,None,885.6729761089991,None,h,1,1.4210698639981274,887.208434496999,None,887.208434496999,None,887.208434496999,None,888.6898363079999,None,888.6898363079999,None,888.6898363079999,None,888.6898363079999,None,,,,,,,,,,,,,,,,,,,,,,,,,,,,,,,,,,,,,,,,,,,,001,136,2020_Feb_18_1353,spring_faces,3.1.5,60.039894589317676,
condition files/Stage0a.xlsx,0a,alpha,none,h,"['h', 'g']","['Chess', 'Go']","[0, 0.5]","[0, 0]",1,0,0,1,1,1,0,0,0,0,,,,,,,,,,,,,,,,,,,,,,,,,,,,,,,,,,,,,,,,,,,,,,,,,,,,,,,,,,,,,,,890.6733149539978,None,890.6733149539978,None,890.6733149539978,None,h,1,1.2227441030008777,892.2067304839984,None,892.2067304839984,None,892.2067304839984,None,893.489801153999,None,893.489801153999,None,893.489801153999,None,893.489801153999,None,,,,,,,,,,,,,,,,,,,,,,,,,,,,,,,,,,,,,,,,,,,,001,136,2020_Feb_18_1353,spring_faces,3.1.5,60.039894589317676,
condition files/Stage0a.xlsx,0a,beta,none,g,"['h', 'g']","['Chess', 'Go']","[0, 0.5]","[0, 0]",1,0,0,1,1,1,0,1,1,1,,,,,,,,,,,,,,,,,,,,,,,,,,,,,,,,,,,,,,,,,,,,,,,,,,,,,,,,,,,,,,,895.4563712479976,None,895.4563712479976,None,895.4563712479976,None,g,1,0.6158081620014855,896.9896920849969,None,896.9896920849969,None,896.9896920849969,None,897.6561140989979,None,897.6561140989979,None,897.6561140989979,None,897.6561140989979,None,,,,,,,,,,,,,,,,,,,,,,,,,,,,,,,,,,,,,,,,,,,,001,136,2020_Feb_18_1353,spring_faces,3.1.5,60.039894589317676,
condition files/Stage0a.xlsx,0a,alpha,none,h,"['h', 'g']","['Chess', 'Go']","[0, 0.5]","[0, 0]",1,0,0,2,2,2,0,0,0,0,,,,,,,,,,,,,,,,,,,,,,,,,,,,,,,,,,,,,,,,,,,,,,,,,,,,,,,,,,,,,,,899.6400816869973,None,899.6400816869973,None,899.6400816869973,None,h,1,0.9929438639992441,901.172627107997,None,901.172627107997,None,901.172627107997,None,902.2228482719984,None,902.2228482719984,None,902.2228482719984,None,902.2228482719984,None,,,,,,,,,,,,,,,,,,,,,,,,,,,,,,,,,,,,,,,,,,,,001,136,2020_Feb_18_1353,spring_faces,3.1.5,60.039894589317676,
condition files/Stage0a.xlsx,0a,beta,none,g,"['h', 'g']","['Chess', 'Go']","[0, 0.5]","[0, 0]",1,0,0,2,2,2,0,1,1,1,,,,,,,,,,,,,,,,,,,,,,,,,,,,,,,,,,,,,,,,,,,,,,,,,,,,,,,,,,,,,,,904.1897244039974,None,904.1897244039974,None,904.1897244039974,None,g,1,0.4902608060001512,905.7232939329988,None,905.7232939329988,None,905.7232939329988,None,906.2728349369972,None,906.2728349369972,None,906.2728349369972,None,906.2728349369972,None,,,,,,,,,,,,,,,,,,,,,,,,,,,,,,,,,,,,,,,,,,,,001,136,2020_Feb_18_1353,spring_faces,3.1.5,60.039894589317676,
condition files/Stage0a.xlsx,0a,beta,none,g,"['h', 'g']","['Chess', 'Go']","[0, 0.5]","[0, 0]",1,0,0,3,3,3,0,0,0,1,,,,,,,,,,,,,,,,,,,,,,,,,,,,,,,,,,,,,,,,,,,,,,,,,,,,,,,,,,,,,,,908.2568314019991,None,908.2568314019991,None,908.2568314019991,None,g,1,0.6637681799984421,909.7897512829986,None,909.7897512829986,None,909.7897512829986,None,910.5068280159976,None,910.5068280159976,None,910.5068280159976,None,910.5068280159976,None,,,,,,,,,,,,,,,,,,,,,,,,,,,,,,,,,,,,,,,,,,,,001,136,2020_Feb_18_1353,spring_faces,3.1.5,60.039894589317676,
condition files/Stage0a.xlsx,0a,alpha,none,h,"['h', 'g']","['Chess', 'Go']","[0, 0.5]","[0, 0]",1,0,0,3,3,3,0,1,1,0,,,,,,,,,,,,,,,,,,,,,,,,,,,,,,,,,,,,,,,,,,,,,,,,,,,,,,,,,,,,,,,912.4728279359988,None,912.4728279359988,None,912.4728279359988,None,h,1,0.8628544129969669,914.0066374799972,None,914.0066374799972,None,914.0066374799972,None,914.9233483600001,None,914.9233483600001,None,914.9233483600001,None,914.9233483600001,None,,,,,,,,,,,,,,,,,,,,,,,,,,,,,,,,,,,,,,,,,,,,001,136,2020_Feb_18_1353,spring_faces,3.1.5,60.039894589317676,
condition files/Stage0a.xlsx,0a,alpha,none,h,"['h', 'g']","['Chess', 'Go']","[0, 0.5]","[0, 0]",1,0,0,4,4,4,0,0,0,0,,,,,,,,,,,,,,,,,,,,,,,,,,,,,,,,,,,,,,,,,,,,,,,,,,,,,,,,,,,,,,,916.9068029139999,None,916.9068029139999,None,916.9068029139999,None,h,1,0.7660843880003085,918.4394131209992,None,918.4394131209992,None,918.4394131209992,None,919.2566891759998,None,919.2566891759998,None,919.2566891759998,None,919.2566891759998,None,,,,,,,,,,,,,,,,,,,,,,,,,,,,,,,,,,,,,,,,,,,,001,136,2020_Feb_18_1353,spring_faces,3.1.5,60.039894589317676,
condition files/Stage0a.xlsx,0a,beta,none,g,"['h', 'g']","['Chess', 'Go']","[0, 0.5]","[0, 0]",1,0,0,4,4,4,0,1,1,1,,,,,,,,,,,,,,,,,,,,,,,,,,,,,,,,,,,,,,,,,,,,,,,,,,,,,,,,,,,,,,,921.2229995849993,None,921.2229995849993,None,921.2229995849993,None,g,1,0.6568944060018111,922.7566432919994,None,922.7566432919994,None,922.7566432919994,None,923.4728162399988,None,923.4728162399988,None,923.4728162399988,None,923.4728162399988,None,,,,,,,,,,,,,,,,,,,,,,,,,,,,,,,,,,,,,,,,,,,,001,136,2020_Feb_18_1353,spring_faces,3.1.5,60.039894589317676,
condition files/Stage0a.xlsx,0a,alpha,none,h,"['h', 'g']","['Chess', 'Go']","[0, 0.5]","[0, 0]",1,0,0,5,5,5,0,0,0,0,,,,,,,,,,,,,,,,,,,,,,,,,,,,,,,,,,,,,,,,,,,,,,,,,,,,,,,,,,,,,,,925.4563660869971,None,925.4563660869971,None,925.4563660869971,None,h,1,0.8392998019990046,926.9901454030005,None,926.9901454030005,None,926.9901454030005,None,927.8902858849979,None,927.8902858849979,None,927.8902858849979,None,927.8902858849979,None,,,,,,,,,,,,,,,,,,,,,,,,,,,,,,,,,,,,,,,,,,,,001,136,2020_Feb_18_1353,spring_faces,3.1.5,60.039894589317676,
condition files/Stage0a.xlsx,0a,beta,none,g,"['h', 'g']","['Chess', 'Go']","[0, 0.5]","[0, 0]",1,0,0,5,5,5,0,1,1,1,,,,,,,,,,,,,,,,,,,,,,,,,,,,,,,,,,,,,,,,,,,,,,,,,,,,,,,,,,,,,,,929.8565290299994,None,929.8565290299994,None,929.8565290299994,None,g,1,1.047537372000079,931.3899519029983,None,931.3899519029983,None,931.3899519029983,None,932.489288212997,None,932.489288212997,None,932.489288212997,None,932.489288212997,None,,,,,,,,,,,,,,,,,,,,,,,,,,,,,,,,,,,,,,,,,,,,001,136,2020_Feb_18_1353,spring_faces,3.1.5,60.039894589317676,
condition files/Stage0b_1.xlsx,0b,none,beta,g,"['h', 'g']","['Chess', 'Go']","[-0.15, 0.5]","[0.15, 0.5]",0,1,0,6,6,6,0,0,0,1,,,,,,,,,,,,,,,,,,,,,,,,,,,,,,,,,,,,,,,,,,,,,,,,,,,,,,,,,,,,,,,934.4733771029969,None,934.4733771029969,None,934.4733771029969,None,g,1,1.5821748840025975,936.0233232899991,None,936.0233232899991,None,936.0233232899991,None,937.6560837590005,None,937.6560837590005,None,937.6560837590005,None,937.6560837590005,None,,,,,,,,,,,,,,,,,,,,,,,,,,,,,,,,,,,,,,,,,,,,001,136,2020_Feb_18_1353,spring_faces,3.1.5,60.039894589317676,
condition files/Stage0b_1.xlsx,0b,alpha,none,h,"['h', 'g']","['Chess', 'Go']","[-0.15, 0.5]","[0.15, 0.5]",1,0,0,6,6,6,0,1,1,0,,,,,,,,,,,,,,,,,,,,,,,,,,,,,,,,,,,,,,,,,,,,,,,,,,,,,,,,,,,,,,,939.6229858119987,None,939.6229858119987,None,939.6229858119987,None,h,1,0.7200779199993121,941.173425883997,None,941.173425883997,None,941.173425883997,None,941.9560397409987,None,941.9560397409987,None,941.9560397409987,None,941.9560397409987,None,,,,,,,,,,,,,,,,,,,,,,,,,,,,,,,,,,,,,,,,,,,,001,136,2020_Feb_18_1353,spring_faces,3.1.5,60.039894589317676,
condition files/Stage0b_2.xlsx,0b,none,alpha,h,"['h', 'g']","['Chess', 'Go']","[-0.15, 0.5]","[0.15, 0.5]",0,1,0,7,7,7,0,0,0,0,,,,,,,,,,,,,,,,,,,,,,,,,,,,,,,,,,,,,,,,,,,,,,,,,,,,,,,,,,,,,,,943.9398759750002,None,943.9398759750002,None,943.9398759750002,None,h,1,0.8806302419980057,945.4768578000003,None,945.4768578000003,None,945.4768578000003,None,946.4229115079979,None,946.4229115079979,None,946.4229115079979,None,946.4229115079979,None,,,,,,,,,,,,,,,,,,,,,,,,,,,,,,,,,,,,,,,,,,,,001,136,2020_Feb_18_1353,spring_faces,3.1.5,60.039894589317676,
condition files/Stage0b_2.xlsx,0b,beta,none,g,"['h', 'g']","['Chess', 'Go']","[-0.15, 0.5]","[0.15, 0.5]",1,0,0,7,7,7,0,1,1,1,,,,,,,,,,,,,,,,,,,,,,,,,,,,,,,,,,,,,,,,,,,,,,,,,,,,,,,,,,,,,,,948.3890267489987,None,948.3890267489987,None,948.3890267489987,None,g,1,0.6399910479995015,949.9255789059971,None,949.9255789059971,None,949.9255789059971,None,950.6273473179972,None,950.6273473179972,None,950.6273473179972,None,950.6273473179972,None,,,,,,,,,,,,,,,,,,,,,,,,,,,,,,,,,,,,,,,,,,,,001,136,2020_Feb_18_1353,spring_faces,3.1.5,60.039894589317676,
condition files/Stage0b_1.xlsx,0b,alpha,none,h,"['h', 'g']","['Chess', 'Go']","[-0.15, 0.5]","[0.15, 0.5]",1,0,0,8,8,8,0,0,0,0,,,,,,,,,,,,,,,,,,,,,,,,,,,,,,,,,,,,,,,,,,,,,,,,,,,,,,,,,,,,,,,952.6065814329995,None,952.6065814329995,None,952.6065814329995,None,h,1,3.4820956670009764,954.1394206820005,None,954.1394206820005,None,954.1394206820005,None,957.6729735400004,None,957.6729735400004,None,957.6729735400004,None,957.6729735400004,None,,,,,,,,,,,,,,,,,,,,,,,,,,,,,,,,,,,,,,,,,,,,001,136,2020_Feb_18_1353,spring_faces,3.1.5,60.039894589317676,
condition files/Stage0b_1.xlsx,0b,none,beta,g,"['h', 'g']","['Chess', 'Go']","[-0.15, 0.5]","[0.15, 0.5]",0,1,0,8,8,8,0,1,1,1,,,,,,,,,,,,,,,,,,,,,,,,,,,,,,,,,,,,,,,,,,,,,,,,,,,,,,,,,,,,,,,959.6396412819995,None,959.6396412819995,None,959.6396412819995,None,g,1,0.5393996239981789,961.1780455829976,None,961.1780455829976,None,961.1780455829976,None,961.7771388959991,None,961.7771388959991,None,961.7771388959991,None,961.7771388959991,None,,,,,,,,,,,,,,,,,,,,,,,,,,,,,,,,,,,,,,,,,,,,001,136,2020_Feb_18_1353,spring_faces,3.1.5,60.039894589317676,
condition files/Stage0b_2.xlsx,0b,beta,none,g,"['h', 'g']","['Chess', 'Go']","[-0.15, 0.5]","[0.15, 0.5]",1,0,0,9,9,9,0,0,0,1,,,,,,,,,,,,,,,,,,,,,,,,,,,,,,,,,,,,,,,,,,,,,,,,,,,,,,,,,,,,,,,963.7564975200003,None,963.7564975200003,None,963.7564975200003,None,g,1,0.6983803530019941,965.2911364469983,None,965.2911364469983,None,965.2911364469983,None,966.0401704340002,None,966.0401704340002,None,966.0401704340002,None,966.0401704340002,None,,,,,,,,,,,,,,,,,,,,,,,,,,,,,,,,,,,,,,,,,,,,001,136,2020_Feb_18_1353,spring_faces,3.1.5,60.039894589317676,
condition files/Stage0b_2.xlsx,0b,none,alpha,h,"['h', 'g']","['Chess', 'Go']","[-0.15, 0.5]","[0.15, 0.5]",0,1,0,9,9,9,0,1,1,0,,,,,,,,,,,,,,,,,,,,,,,,,,,,,,,,,,,,,,,,,,,,,,,,,,,,,,,,,,,,,,,968.0057353589982,None,968.0057353589982,None,968.0057353589982,None,h,1,0.4602427190002345,969.5452349299994,None,969.5452349299994,None,969.5452349299994,None,970.059559366,None,970.059559366,None,970.059559366,None,970.059559366,None,,,,,,,,,,,,,,,,,,,,,,,,,,,,,,,,,,,,,,,,,,,,001,136,2020_Feb_18_1353,spring_faces,3.1.5,60.039894589317676,
condition files/Stage0b_1.xlsx,0b,alpha,none,h,"['h', 'g']","['Chess', 'Go']","[-0.15, 0.5]","[0.15, 0.5]",1,0,0,10,10,10,0,0,0,0,,,,,,,,,,,,,,,,,,,,,,,,,,,,,,,,,,,,,,,,,,,,,,,,,,,,,,,,,,,,,,,972.0398012429978,None,972.0398012429978,None,972.0398012429978,None,h,1,0.9102848740003537,973.5751899829993,None,973.5751899829993,None,973.5751899829993,None,974.5399008399982,None,974.5399008399982,None,974.5399008399982,None,974.5399008399982,None,,,,,,,,,,,,,,,,,,,,,,,,,,,,,,,,,,,,,,,,,,,,001,136,2020_Feb_18_1353,spring_faces,3.1.5,60.039894589317676,
condition files/Stage0b_1.xlsx,0b,none,beta,g,"['h', 'g']","['Chess', 'Go']","[-0.15, 0.5]","[0.15, 0.5]",0,1,0,10,10,10,0,1,1,1,,,,,,,,,,,,,,,,,,,,,,,,,,,,,,,,,,,,,,,,,,,,,,,,,,,,,,,,,,,,,,,976.5056592500005,None,976.5056592500005,None,976.5056592500005,None,g,1,0.6699527550008497,978.0395642959993,None,978.0395642959993,None,978.0395642959993,None,978.7752126279993,None,978.7752126279993,None,978.7752126279993,None,978.7752126279993,None,,,,,,,,,,,,,,,,,,,,,,,,,,,,,,,,,,,,,,,,,,,,001,136,2020_Feb_18_1353,spring_faces,3.1.5,60.039894589317676,
condition files/Stage0b_2.xlsx,0b,beta,none,g,"['h', 'g']","['Chess', 'Go']","[-0.15, 0.5]","[0.15, 0.5]",1,0,0,11,11,11,0,0,0,1,,,,,,,,,,,,,,,,,,,,,,,,,,,,,,,,,,,,,,,,,,,,,,,,,,,,,,,,,,,,,,,980.7561318499975,None,980.7561318499975,None,980.7561318499975,None,g,1,0.6067880250011513,982.2947006659997,None,982.2947006659997,None,982.2947006659997,None,982.9562791169992,None,982.9562791169992,None,982.9562791169992,None,982.9562791169992,None,,,,,,,,,,,,,,,,,,,,,,,,,,,,,,,,,,,,,,,,,,,,001,136,2020_Feb_18_1353,spring_faces,3.1.5,60.039894589317676,
condition files/Stage0b_2.xlsx,0b,none,alpha,h,"['h', 'g']","['Chess', 'Go']","[-0.15, 0.5]","[0.15, 0.5]",0,1,0,11,11,11,0,1,1,0,,,,,,,,,,,,,,,,,,,,,,,,,,,,,,,,,,,,,,,,,,,,,,,,,,,,,,,,,,,,,,,984.9222747370004,None,984.9222747370004,None,984.9222747370004,None,h,1,0.6346584550010448,986.4588555390001,None,986.4588555390001,None,986.4588555390001,None,987.1596701889976,None,987.1596701889976,None,987.1596701889976,None,987.1596701889976,None,,,,,,,,,,,,,,,,,,,,,,,,,,,,,,,,,,,,,,,,,,,,001,136,2020_Feb_18_1353,spring_faces,3.1.5,60.039894589317676,
condition files/Stage0c_1.xlsx,0c,theta,alpha,h,"['h', 'g']","['Chess', 'Go']","[-0.15, 0.5]","[0.15, 0.5]",1,1,0,12,12,12,0,0,0,0,,,,,,,,,,,,,,,,,,,,,,,,,,,,,,,,,,,,,,,,,,,,,,,,,,,,,,,,,,,,,,,989.139509239998,None,989.139509239998,None,989.139509239998,None,h,1,2.915780141000141,990.6737186559985,None,990.6737186559985,None,990.6737186559985,None,993.6400893919999,None,993.6400893919999,None,993.6400893919999,None,993.6400893919999,None,,,,,,,,,,,,,,,,,,,,,,,,,,,,,,,,,,,,,,,,,,,,001,136,2020_Feb_18_1353,spring_faces,3.1.5,60.039894589317676,
condition files/Stage0c_1.xlsx,0c,phi,beta,g,"['h', 'g']","['Chess', 'Go']","[-0.15, 0.5]","[0.15, 0.5]",1,1,0,12,12,12,0,1,1,3,,,,,,,,,,,,,,,,,,,,,,,,,,,,,,,,,,,,,,,,,,,,,,,,,,,,,,,,,,,,,,,995.6059145149993,None,995.6059145149993,None,995.6059145149993,None,g,1,1.0411930920017767,997.1403498330001,None,997.1403498330001,None,997.1403498330001,None,998.2399959549984,None,998.2399959549984,None,998.2399959549984,None,998.2399959549984,None,,,,,,,,,,,,,,,,,,,,,,,,,,,,,,,,,,,,,,,,,,,,001,136,2020_Feb_18_1353,spring_faces,3.1.5,60.039894589317676,
condition files/Stage0c_1.xlsx,0c,beta,theta,g,"['h', 'g']","['Chess', 'Go']","[-0.15, 0.5]","[0.15, 0.5]",1,1,0,12,12,12,0,2,2,2,,,,,,,,,,,,,,,,,,,,,,,,,,,,,,,,,,,,,,,,,,,,,,,,,,,,,,,,,,,,,,,1000.2058387379984,None,1000.2058387379984,None,1000.2058387379984,None,g,1,1.2259645820013247,1001.7395945989992,None,1001.7395945989992,None,1001.7395945989992,None,1003.0228289629995,None,1003.0228289629995,None,1003.0228289629995,None,1003.0228289629995,None,,,,,,,,,,,,,,,,,,,,,,,,,,,,,,,,,,,,,,,,,,,,001,136,2020_Feb_18_1353,spring_faces,3.1.5,60.039894589317676,
condition files/Stage0c_1.xlsx,0c,alpha,phi,h,"['h', 'g']","['Chess', 'Go']","[-0.15, 0.5]","[0.15, 0.5]",1,1,0,12,12,12,0,3,3,1,,,,,,,,,,,,,,,,,,,,,,,,,,,,,,,,,,,,,,,,,,,,,,,,,,,,,,,,,,,,,,,1004.9899265309978,None,1004.9899265309978,None,1004.9899265309978,None,h,1,0.8263565439992817,1006.5230943399984,None,1006.5230943399984,None,1006.5230943399984,None,1007.4082679349995,None,1007.4082679349995,None,1007.4082679349995,None,1007.4082679349995,None,,,,,,,,,,,,,,,,,,,,,,,,,,,,,,,,,,,,,,,,,,,,001,136,2020_Feb_18_1353,spring_faces,3.1.5,60.039894589317676,
condition files/Stage0c_2.xlsx,0c,beta,phi,g,"['h', 'g']","['Chess', 'Go']","[-0.15, 0.5]","[0.15, 0.5]",1,1,0,13,13,13,0,0,0,3,,,,,,,,,,,,,,,,,,,,,,,,,,,,,,,,,,,,,,,,,,,,,,,,,,,,,,,,,,,,,,,1009.3902631229976,None,1009.3902631229976,None,1009.3902631229976,None,g,1,0.8901947400008794,1010.9233717759998,None,1010.9233717759998,None,1010.9233717759998,None,1011.8731987689971,None,1011.8731987689971,None,1011.8731987689971,None,1011.8731987689971,None,,,,,,,,,,,,,,,,,,,,,,,,,,,,,,,,,,,,,,,,,,,,001,136,2020_Feb_18_1353,spring_faces,3.1.5,60.039894589317676,
condition files/Stage0c_2.xlsx,0c,phi,alpha,h,"['h', 'g']","['Chess', 'Go']","[-0.15, 0.5]","[0.15, 0.5]",1,1,0,13,13,13,0,1,1,1,,,,,,,,,,,,,,,,,,,,,,,,,,,,,,,,,,,,,,,,,,,,,,,,,,,,,,,,,,,,,,,1013.8396499759983,None,1013.8396499759983,None,1013.8396499759983,None,h,1,0.5686208980005176,1015.372828714997,None,1015.372828714997,None,1015.372828714997,None,1016.006289779998,None,1016.006289779998,None,1016.006289779998,None,1016.006289779998,None,,,,,,,,,,,,,,,,,,,,,,,,,,,,,,,,,,,,,,,,,,,,001,136,2020_Feb_18_1353,spring_faces,3.1.5,60.039894589317676,
condition files/Stage0c_2.xlsx,0c,alpha,theta,h,"['h', 'g']","['Chess', 'Go']","[-0.15, 0.5]","[0.15, 0.5]",1,1,0,13,13,13,0,2,2,0,,,,,,,,,,,,,,,,,,,,,,,,,,,,,,,,,,,,,,,,,,,,,,,,,,,,,,,,,,,,,,,1017.9727996939982,None,1017.9727996939982,None,1017.9727996939982,None,h,1,1.3788806830016256,1019.5065672199999,None,1019.5065672199999,None,1019.5065672199999,None,1020.9257452599995,None,1020.9257452599995,None,1020.9257452599995,None,1020.9257452599995,None,,,,,,,,,,,,,,,,,,,,,,,,,,,,,,,,,,,,,,,,,,,,001,136,2020_Feb_18_1353,spring_faces,3.1.5,60.039894589317676,
condition files/Stage0c_2.xlsx,0c,theta,beta,g,"['h', 'g']","['Chess', 'Go']","[-0.15, 0.5]","[0.15, 0.5]",1,1,0,13,13,13,0,3,3,2,,,,,,,,,,,,,,,,,,,,,,,,,,,,,,,,,,,,,,,,,,,,,,,,,,,,,,,,,,,,,,,1022.9063414869997,None,1022.9063414869997,None,1022.9063414869997,None,g,1,1.2779564800002845,1024.4395468559997,None,1024.4395468559997,None,1024.4395468559997,None,1025.773312473997,None,1025.773312473997,None,1025.773312473997,None,1025.773312473997,None,,,,,,,,,,,,,,,,,,,,,,,,,,,,,,,,,,,,,,,,,,,,001,136,2020_Feb_18_1353,spring_faces,3.1.5,60.039894589317676,
condition files/Stage0c_1.xlsx,0c,theta,alpha,h,"['h', 'g']","['Chess', 'Go']","[-0.15, 0.5]","[0.15, 0.5]",1,1,0,14,14,14,0,0,0,0,,,,,,,,,,,,,,,,,,,,,,,,,,,,,,,,,,,,,,,,,,,,,,,,,,,,,,,,,,,,,,,1027.756347765997,None,1027.756347765997,None,1027.756347765997,None,h,1,1.8355047600016405,1029.2900022020003,None,1029.2900022020003,None,1029.2900022020003,None,1031.189994526998,None,1031.189994526998,None,1031.189994526998,None,1031.189994526998,None,,,,,,,,,,,,,,,,,,,,,,,,,,,,,,,,,,,,,,,,,,,,001,136,2020_Feb_18_1353,spring_faces,3.1.5,60.039894589317676,
condition files/Stage0c_1.xlsx,0c,phi,beta,g,"['h', 'g']","['Chess', 'Go']","[-0.15, 0.5]","[0.15, 0.5]",1,1,0,14,14,14,0,1,1,3,,,,,,,,,,,,,,,,,,,,,,,,,,,,,,,,,,,,,,,,,,,,,,,,,,,,,,,,,,,,,,,1033.1562307249987,None,1033.1562307249987,None,1033.1562307249987,None,g,1,0.8675816640025005,1034.689892561997,None,1034.689892561997,None,1034.689892561997,None,1035.6232392969978,None,1035.6232392969978,None,1035.6232392969978,None,1035.6232392969978,None,,,,,,,,,,,,,,,,,,,,,,,,,,,,,,,,,,,,,,,,,,,,001,136,2020_Feb_18_1353,spring_faces,3.1.5,60.039894589317676,
condition files/Stage0c_1.xlsx,0c,beta,theta,g,"['h', 'g']","['Chess', 'Go']","[-0.15, 0.5]","[0.15, 0.5]",1,1,0,14,14,14,0,2,2,2,,,,,,,,,,,,,,,,,,,,,,,,,,,,,,,,,,,,,,,,,,,,,,,,,,,,,,,,,,,,,,,1037.5895740759988,None,1037.5895740759988,None,1037.5895740759988,None,g,1,0.8504646649998904,1039.1229960210003,None,1039.1229960210003,None,1039.1229960210003,None,1040.0079083199998,None,1040.0079083199998,None,1040.0079083199998,None,1040.0079083199998,None,,,,,,,,,,,,,,,,,,,,,,,,,,,,,,,,,,,,,,,,,,,,001,136,2020_Feb_18_1353,spring_faces,3.1.5,60.039894589317676,
condition files/Stage0c_1.xlsx,0c,alpha,phi,h,"['h', 'g']","['Chess', 'Go']","[-0.15, 0.5]","[0.15, 0.5]",1,1,0,14,14,14,0,3,3,1,,,,,,,,,,,,,,,,,,,,,,,,,,,,,,,,,,,,,,,,,,,,,,,,,,,,,,,,,,,,,,,1042.0059253839972,None,1042.0059253839972,None,1042.0059253839972,None,h,1,0.8022209640002984,1043.523268380999,None,1043.523268380999,None,1043.523268380999,None,1044.390003567998,None,1044.390003567998,None,1044.390003567998,None,1044.390003567998,None,,,,,,,,,,,,,,,,,,,,,,,,,,,,,,,,,,,,,,,,,,,,001,136,2020_Feb_18_1353,spring_faces,3.1.5,60.039894589317676,
condition files/Stage0c_2.xlsx,0c,theta,beta,g,"['h', 'g']","['Chess', 'Go']","[-0.15, 0.5]","[0.15, 0.5]",1,1,0,15,15,15,0,0,0,2,,,,,,,,,,,,,,,,,,,,,,,,,,,,,,,,,,,,,,,,,,,,,,,,,,,,,,,,,,,,,,,1046.3732683989983,None,1046.3732683989983,None,1046.3732683989983,None,g,1,0.7389395360005437,1047.9065785379971,None,1047.9065785379971,None,1047.9065785379971,None,1048.7066126169993,None,1048.7066126169993,None,1048.7066126169993,None,1048.7066126169993,None,,,,,,,,,,,,,,,,,,,,,,,,,,,,,,,,,,,,,,,,,,,,001,136,2020_Feb_18_1353,spring_faces,3.1.5,60.039894589317676,
condition files/Stage0c_2.xlsx,0c,alpha,theta,h,"['h', 'g']","['Chess', 'Go']","[-0.15, 0.5]","[0.15, 0.5]",1,1,0,15,15,15,0,1,1,0,,,,,,,,,,,,,,,,,,,,,,,,,,,,,,,,,,,,,,,,,,,,,,,,,,,,,,,,,,,,,,,1050.6730504309999,None,1050.6730504309999,None,1050.6730504309999,None,h,1,0.5349294660009036,1052.2065612229999,None,1052.2065612229999,None,1052.2065612229999,None,1052.8066019010002,None,1052.8066019010002,None,1052.8066019010002,None,1052.8066019010002,None,,,,,,,,,,,,,,,,,,,,,,,,,,,,,,,,,,,,,,,,,,,,001,136,2020_Feb_18_1353,spring_faces,3.1.5,60.039894589317676,
condition files/Stage0c_2.xlsx,0c,phi,alpha,h,"['h', 'g']","['Chess', 'Go']","[-0.15, 0.5]","[0.15, 0.5]",1,1,0,15,15,15,0,2,2,1,,,,,,,,,,,,,,,,,,,,,,,,,,,,,,,,,,,,,,,,,,,,,,,,,,,,,,,,,,,,,,,1054.7727260110005,None,1054.7727260110005,None,1054.7727260110005,None,h,1,1.0595174829977623,1056.3060262539984,None,1056.3060262539984,None,1056.3060262539984,None,1057.407378257998,None,1057.407378257998,None,1057.407378257998,None,1057.407378257998,None,,,,,,,,,,,,,,,,,,,,,,,,,,,,,,,,,,,,,,,,,,,,001,136,2020_Feb_18_1353,spring_faces,3.1.5,60.039894589317676,
condition files/Stage0c_2.xlsx,0c,beta,phi,g,"['h', 'g']","['Chess', 'Go']","[-0.15, 0.5]","[0.15, 0.5]",1,1,0,15,15,15,0,3,3,3,,,,,,,,,,,,,,,,,,,,,,,,,,,,,,,,,,,,,,,,,,,,,,,,,,,,,,,,,,,,,,,1059.3893487319983,None,1059.3893487319983,None,1059.3893487319983,None,g,1,0.6661015760000737,1060.923407987997,None,1060.923407987997,None,1060.923407987997,None,1061.6396320429994,None,1061.6396320429994,None,1061.6396320429994,None,1061.6396320429994,None,,,,,,,,,,,,,,,,,,,,,,,,,,,,,,,,,,,,,,,,,,,,001,136,2020_Feb_18_1353,spring_faces,3.1.5,60.039894589317676,
condition files/Stage0c_1.xlsx,0c,theta,alpha,h,"['h', 'g']","['Chess', 'Go']","[-0.15, 0.5]","[0.15, 0.5]",1,1,0,16,16,16,0,0,0,0,,,,,,,,,,,,,,,,,,,,,,,,,,,,,,,,,,,,,,,,,,,,,,,,,,,,,,,,,,,,,,,1063.6229992730005,None,1063.6229992730005,None,1063.6229992730005,None,h,1,0.7371385660007945,1065.156397794999,None,1065.156397794999,None,1065.156397794999,None,1065.9565936209983,None,1065.9565936209983,None,1065.9565936209983,None,1065.9565936209983,None,,,,,,,,,,,,,,,,,,,,,,,,,,,,,,,,,,,,,,,,,,,,001,136,2020_Feb_18_1353,spring_faces,3.1.5,60.039894589317676,
condition files/Stage0c_1.xlsx,0c,alpha,phi,h,"['h', 'g']","['Chess', 'Go']","[-0.15, 0.5]","[0.15, 0.5]",1,1,0,16,16,16,0,1,1,1,,,,,,,,,,,,,,,,,,,,,,,,,,,,,,,,,,,,,,,,,,,,,,,,,,,,,,,,,,,,,,,1067.922934757,None,1067.922934757,None,1067.922934757,None,h,1,1.9087957980009378,1069.4567632109975,None,1069.4567632109975,None,1069.4567632109975,None,1071.4078334549995,None,1071.4078334549995,None,1071.4078334549995,None,1071.4078334549995,None,,,,,,,,,,,,,,,,,,,,,,,,,,,,,,,,,,,,,,,,,,,,001,136,2020_Feb_18_1353,spring_faces,3.1.5,60.039894589317676,
condition files/Stage0c_1.xlsx,0c,phi,beta,g,"['h', 'g']","['Chess', 'Go']","[-0.15, 0.5]","[0.15, 0.5]",1,1,0,16,16,16,0,2,2,3,,,,,,,,,,,,,,,,,,,,,,,,,,,,,,,,,,,,,,,,,,,,,,,,,,,,,,,,,,,,,,,1073.3894285179995,None,1073.3894285179995,None,1073.3894285179995,None,g,1,1.354275821999181,1074.9232315709996,None,1074.9232315709996,None,1074.9232315709996,None,1076.3398735029987,None,1076.3398735029987,None,1076.3398735029987,None,1076.3398735029987,None,,,,,,,,,,,,,,,,,,,,,,,,,,,,,,,,,,,,,,,,,,,,001,136,2020_Feb_18_1353,spring_faces,3.1.5,60.039894589317676,
condition files/Stage0c_1.xlsx,0c,beta,theta,g,"['h', 'g']","['Chess', 'Go']","[-0.15, 0.5]","[0.15, 0.5]",1,1,0,16,16,16,0,3,3,2,,,,,,,,,,,,,,,,,,,,,,,,,,,,,,,,,,,,,,,,,,,,,,,,,,,,,,,,,,,,,,,1078.3072358659992,None,1078.3072358659992,None,1078.3072358659992,None,g,1,1.0938353729980008,1079.839720265998,None,1079.839720265998,None,1079.839720265998,None,1080.9753751030003,None,1080.9753751030003,None,1080.9753751030003,None,1080.9753751030003,None,,,,,,,,,,,,,,,,,,,,,,,,,,,,,,,,,,,,,,,,,,,,001,136,2020_Feb_18_1353,spring_faces,3.1.5,60.039894589317676,
condition files/Stage0c_2.xlsx,0c,theta,beta,g,"['h', 'g']","['Chess', 'Go']","[-0.15, 0.5]","[0.15, 0.5]",1,1,0,17,17,17,0,0,0,2,,,,,,,,,,,,,,,,,,,,,,,,,,,,,,,,,,,,,,,,,,,,,,,,,,,,,,,,,,,,,,,1082.9729980310003,None,1082.9729980310003,None,1082.9729980310003,None,g,1,1.3228517019997525,1084.5066725249999,None,1084.5066725249999,None,1084.5066725249999,None,1085.8754742339988,None,1085.8754742339988,None,1085.8754742339988,None,1085.8754742339988,None,,,,,,,,,,,,,,,,,,,,,,,,,,,,,,,,,,,,,,,,,,,,001,136,2020_Feb_18_1353,spring_faces,3.1.5,60.039894589317676,
condition files/Stage0c_2.xlsx,0c,beta,phi,g,"['h', 'g']","['Chess', 'Go']","[-0.15, 0.5]","[0.15, 0.5]",1,1,0,17,17,17,0,1,1,3,,,,,,,,,,,,,,,,,,,,,,,,,,,,,,,,,,,,,,,,,,,,,,,,,,,,,,,,,,,,,,,1087.8564615119976,None,1087.8564615119976,None,1087.8564615119976,None,g,1,0.6476635750004789,1089.3898299199973,None,1089.3898299199973,None,1089.3898299199973,None,1090.0742411399988,None,1090.0742411399988,None,1090.0742411399988,None,1090.0742411399988,None,,,,,,,,,,,,,,,,,,,,,,,,,,,,,,,,,,,,,,,,,,,,001,136,2020_Feb_18_1353,spring_faces,3.1.5,60.039894589317676,
condition files/Stage0c_2.xlsx,0c,phi,alpha,h,"['h', 'g']","['Chess', 'Go']","[-0.15, 0.5]","[0.15, 0.5]",1,1,0,17,17,17,0,2,2,1,,,,,,,,,,,,,,,,,,,,,,,,,,,,,,,,,,,,,,,,,,,,,,,,,,,,,,,,,,,,,,,1092.055893998,None,1092.055893998,None,1092.055893998,None,h,1,0.7198811790003674,1093.589620502,None,1093.589620502,None,1093.589620502,None,1094.3733230670005,None,1094.3733230670005,None,1094.3733230670005,None,1094.3733230670005,None,,,,,,,,,,,,,,,,,,,,,,,,,,,,,,,,,,,,,,,,,,,,001,136,2020_Feb_18_1353,spring_faces,3.1.5,60.039894589317676,
condition files/Stage0c_2.xlsx,0c,alpha,theta,h,"['h', 'g']","['Chess', 'Go']","[-0.15, 0.5]","[0.15, 0.5]",1,1,0,17,17,17,0,3,3,0,,,,,,,,,,,,,,,,,,,,,,,,,,,,,,,,,,,,,,,,,,,,,,,,,,,,,,,,,,,,,,,1096.3397169059972,None,1096.3397169059972,None,1096.3397169059972,None,h,1,0.8042777129994647,1097.873244036,None,1097.873244036,None,1097.873244036,None,1098.7233469469975,None,1098.7233469469975,None,1098.7233469469975,None,1098.7233469469975,None,,,,,,,,,,,,,,,,,,,,,,,,,,,,,,,,,,,,,,,,,,,,001,136,2020_Feb_18_1353,spring_faces,3.1.5,60.039894589317676,
,,,,,,,,,,,,,,,,,,,,,,,,,,,,,,,,,,,,,,,,,,,,,,,,,,,,,,,,,,,,,,,,,,,,,,,,,,,,,,,,,,,,,,,,,,,,,,,,,,,,,,,,1100.7233018739971,None,space,2.5704277229997388,1105.7231290189993,None,,,,,,,,,,,,,,,,,,,,,,,,,,,,,,,,,,,,,,001,136,2020_Feb_18_1353,spring_faces,3.1.5,60.039894589317676,
condition files/Stage1_1.xlsx,,B3,T3,c,"['c', 'm']","['Clue', 'Monopoly']","[-0.15, 0.5]","[0.15, 0.5]",1,1,,,,,,,,,0,0,0,0,0,0,0,4,,,,,,,,,,,,,,,,,,,,,,,,,,,,,,,,,,,,,,,,,,,,,,,,,,,,,,,1108.3569241909972,None,1108.3569241909972,None,1108.3569241909972,None,m,0,3.8601656680002634,1109.889302337997,None,1109.889302337997,None,1109.889302337997,None,1113.8223679330004,None,1113.8223679330004,None,1113.8223679330004,None,1113.8223679330004,None,,,,,,,1105.7231290189993,None,,,,,,,,,,,,,,,,,,,,,,,,,,,,,,,,,,,,001,136,2020_Feb_18_1353,spring_faces,3.1.5,60.039894589317676,
condition files/Stage1_1.xlsx,,B2,T1,m,"['c', 'm']","['Clue', 'Monopoly']","[-0.15, 0.5]","[0.15, 0.5]",1,1,,,,,,,,,0,0,0,0,0,1,1,2,,,,,,,,,,,,,,,,,,,,,,,,,,,,,,,,,,,,,,,,,,,,,,,,,,,,,,,1115.7731579449974,None,1115.7731579449974,None,1115.7731579449974,None,m,1,1.6108760010029073,1117.3226782169986,None,1117.3226782169986,None,1117.3226782169986,None,1119.006543743999,None,1119.006543743999,None,1119.006543743999,None,1119.006543743999,None,,,,,,,,,,,,,,,,,,,,,,,,,,,,,,,,,,,,,,,,,,,,001,136,2020_Feb_18_1353,spring_faces,3.1.5,60.039894589317676,
condition files/Stage1_1.xlsx,,T2,B2,m,"['c', 'm']","['Clue', 'Monopoly']","[-0.15, 0.5]","[0.15, 0.5]",1,1,,,,,,,,,0,0,0,0,0,2,2,3,,,,,,,,,,,,,,,,,,,,,,,,,,,,,,,,,,,,,,,,,,,,,,,,,,,,,,,1120.9558240309998,None,1120.9558240309998,None,1120.9558240309998,None,m,1,2.4748813259975577,1122.5066865929984,None,1122.5066865929984,None,1122.5066865929984,None,1125.0393122200003,None,1125.0393122200003,None,1125.0393122200003,None,1125.0393122200003,None,,,,,,,,,,,,,,,,,,,,,,,,,,,,,,,,,,,,,,,,,,,,001,136,2020_Feb_18_1353,spring_faces,3.1.5,60.039894589317676,
condition files/Stage1_1.xlsx,,T4,B3,m,"['c', 'm']","['Clue', 'Monopoly']","[-0.15, 0.5]","[0.15, 0.5]",1,1,,,,,,,,,0,0,0,0,0,3,3,6,,,,,,,,,,,,,,,,,,,,,,,,,,,,,,,,,,,,,,,,,,,,,,,,,,,,,,,1127.0057486490005,None,1127.0057486490005,None,1127.0057486490005,None,c,0,1.385867903001781,1128.5396521309995,None,1128.5396521309995,None,1128.5396521309995,None,1129.9899022669997,None,1129.9899022669997,None,1129.9899022669997,None,1129.9899022669997,None,,,,,,,,,,,,,,,,,,,,,,,,,,,,,,,,,,,,,,,,,,,,001,136,2020_Feb_18_1353,spring_faces,3.1.5,60.039894589317676,
condition files/Stage1_1.xlsx,,T1,B1,c,"['c', 'm']","['Clue', 'Monopoly']","[-0.15, 0.5]","[0.15, 0.5]",1,1,,,,,,,,,0,0,0,0,0,4,4,0,,,,,,,,,,,,,,,,,,,,,,,,,,,,,,,,,,,,,,,,,,,,,,,,,,,,,,,1131.9566803189991,None,1131.9566803189991,None,1131.9566803189991,None,c,1,1.7469903309975052,1133.4905071590001,None,1133.4905071590001,None,1133.4905071590001,None,1135.306404183997,None,1135.306404183997,None,1135.306404183997,None,1135.306404183997,None,,,,,,,,,,,,,,,,,,,,,,,,,,,,,,,,,,,,,,,,,,,,001,136,2020_Feb_18_1353,spring_faces,3.1.5,60.039894589317676,
condition files/Stage1_1.xlsx,,B1,T2,c,"['c', 'm']","['Clue', 'Monopoly']","[-0.15, 0.5]","[0.15, 0.5]",1,1,,,,,,,,,0,0,0,0,0,5,5,1,,,,,,,,,,,,,,,,,,,,,,,,,,,,,,,,,,,,,,,,,,,,,,,,,,,,,,,1137.2564535290003,None,1137.2564535290003,None,1137.2564535290003,None,c,1,1.1190567560006457,1138.8064495439976,None,1138.8064495439976,None,1138.8064495439976,None,1139.9900161259975,None,1139.9900161259975,None,1139.9900161259975,None,1139.9900161259975,None,,,,,,,,,,,,,,,,,,,,,,,,,,,,,,,,,,,,,,,,,,,,001,136,2020_Feb_18_1353,spring_faces,3.1.5,60.039894589317676,
condition files/Stage1_1.xlsx,,B4,T4,m,"['c', 'm']","['Clue', 'Monopoly']","[-0.15, 0.5]","[0.15, 0.5]",1,1,,,,,,,,,0,0,0,0,0,6,6,7,,,,,,,,,,,,,,,,,,,,,,,,,,,,,,,,,,,,,,,,,,,,,,,,,,,,,,,1141.9563720219994,None,1141.9563720219994,None,1141.9563720219994,None,m,1,1.284145145000366,1143.4893037129987,None,1143.4893037129987,None,1143.4893037129987,None,1144.8400716529977,None,1144.8400716529977,None,1144.8400716529977,None,1144.8400716529977,None,,,,,,,,,,,,,,,,,,,,,,,,,,,,,,,,,,,,,,,,,,,,001,136,2020_Feb_18_1353,spring_faces,3.1.5,60.039894589317676,
condition files/Stage1_1.xlsx,,T3,B4,c,"['c', 'm']","['Clue', 'Monopoly']","[-0.15, 0.5]","[0.15, 0.5]",1,1,,,,,,,,,0,0,0,0,0,7,7,5,,,,,,,,,,,,,,,,,,,,,,,,,,,,,,,,,,,,,,,,,,,,,,,,,,,,,,,1146.8060740099972,None,1146.8060740099972,None,1146.8060740099972,None,m,0,1.8078343119996134,1148.3416451809971,None,1148.3416451809971,None,1148.3416451809971,None,1150.208125940997,None,1150.208125940997,None,1150.208125940997,None,1150.208125940997,None,,,,,,,,,,,,,,,,,,,,,,,,,,,,,,,,,,,,,,,,,,,,001,136,2020_Feb_18_1353,spring_faces,3.1.5,60.039894589317676,
condition files/Stage1_2.xlsx,,T3,B3,c,"['c', 'm']","['Clue', 'Monopoly']","[-0.15, 0.5]","[0.15, 0.5]",1,1,,,,,,,,,0,1,1,1,0,0,0,4,,,,,,,,,,,,,,,,,,,,,,,,,,,,,,,,,,,,,,,,,,,,,,,,,,,,,,,1152.189494885999,None,1152.189494885999,None,1152.189494885999,None,c,1,0.96993593300067,1153.723602973998,None,1153.723602973998,None,1153.723602973998,None,1154.7558975009997,None,1154.7558975009997,None,1154.7558975009997,None,1154.7558975009997,None,,,,,,,,,,,,,,,,,,,,,,,,,,,,,,,,,,,,,,,,,,,,001,136,2020_Feb_18_1353,spring_faces,3.1.5,60.039894589317676,
condition files/Stage1_2.xlsx,,T2,B1,c,"['c', 'm']","['Clue', 'Monopoly']","[-0.15, 0.5]","[0.15, 0.5]",1,1,,,,,,,,,0,1,1,1,0,1,1,1,,,,,,,,,,,,,,,,,,,,,,,,,,,,,,,,,,,,,,,,,,,,,,,,,,,,,,,1156.7227790109973,None,1156.7227790109973,None,1156.7227790109973,None,c,1,1.1072889400020358,1158.2582921329995,None,1158.2582921329995,None,1158.2582921329995,None,1159.4230960839996,None,1159.4230960839996,None,1159.4230960839996,None,1159.4230960839996,None,,,,,,,,,,,,,,,,,,,,,,,,,,,,,,,,,,,,,,,,,,,,001,136,2020_Feb_18_1353,spring_faces,3.1.5,60.039894589317676,
condition files/Stage1_2.xlsx,,B3,T4,m,"['c', 'm']","['Clue', 'Monopoly']","[-0.15, 0.5]","[0.15, 0.5]",1,1,,,,,,,,,0,1,1,1,0,2,2,6,,,,,,,,,,,,,,,,,,,,,,,,,,,,,,,,,,,,,,,,,,,,,,,,,,,,,,,1161.3897685169977,None,1161.3897685169977,None,1161.3897685169977,None,m,1,1.3699290870026744,1162.923583980999,None,1162.923583980999,None,1162.923583980999,None,1164.3560863649982,None,1164.3560863649982,None,1164.3560863649982,None,1164.3560863649982,None,,,,,,,,,,,,,,,,,,,,,,,,,,,,,,,,,,,,,,,,,,,,001,136,2020_Feb_18_1353,spring_faces,3.1.5,60.039894589317676,
condition files/Stage1_2.xlsx,,T1,B2,m,"['c', 'm']","['Clue', 'Monopoly']","[-0.15, 0.5]","[0.15, 0.5]",1,1,,,,,,,,,0,1,1,1,0,3,3,2,,,,,,,,,,,,,,,,,,,,,,,,,,,,,,,,,,,,,,,,,,,,,,,,,,,,,,,1166.3230615569992,None,1166.3230615569992,None,1166.3230615569992,None,c,0,0.8852938059972075,1167.856160002997,None,1167.856160002997,None,1167.856160002997,None,1168.806123399998,None,1168.806123399998,None,1168.806123399998,None,1168.806123399998,None,,,,,,,,,,,,,,,,,,,,,,,,,,,,,,,,,,,,,,,,,,,,001,136,2020_Feb_18_1353,spring_faces,3.1.5,60.039894589317676,
condition files/Stage1_2.xlsx,,B1,T1,c,"['c', 'm']","['Clue', 'Monopoly']","[-0.15, 0.5]","[0.15, 0.5]",1,1,,,,,,,,,0,1,1,1,0,4,4,0,,,,,,,,,,,,,,,,,,,,,,,,,,,,,,,,,,,,,,,,,,,,,,,,,,,,,,,1170.772418141998,None,1170.772418141998,None,1170.772418141998,None,c,1,1.8738161599976593,1172.3077677879992,None,1172.3077677879992,None,1172.3077677879992,None,1174.2403855949997,None,1174.2403855949997,None,1174.2403855949997,None,1174.2403855949997,None,,,,,,,,,,,,,,,,,,,,,,,,,,,,,,,,,,,,,,,,,,,,001,136,2020_Feb_18_1353,spring_faces,3.1.5,60.039894589317676,
condition files/Stage1_2.xlsx,,B4,T3,c,"['c', 'm']","['Clue', 'Monopoly']","[-0.15, 0.5]","[0.15, 0.5]",1,1,,,,,,,,,0,1,1,1,0,5,5,5,,,,,,,,,,,,,,,,,,,,,,,,,,,,,,,,,,,,,,,,,,,,,,,,,,,,,,,1176.2061366559974,None,1176.2061366559974,None,1176.2061366559974,None,m,0,2.20067140899846,1177.7567972899997,None,1177.7567972899997,None,1177.7567972899997,None,1180.022937668,None,1180.022937668,None,1180.022937668,None,1180.022937668,None,,,,,,,,,,,,,,,,,,,,,,,,,,,,,,,,,,,,,,,,,,,,001,136,2020_Feb_18_1353,spring_faces,3.1.5,60.039894589317676,
condition files/Stage1_2.xlsx,,T4,B4,m,"['c', 'm']","['Clue', 'Monopoly']","[-0.15, 0.5]","[0.15, 0.5]",1,1,,,,,,,,,0,1,1,1,0,6,6,7,,,,,,,,,,,,,,,,,,,,,,,,,,,,,,,,,,,,,,,,,,,,,,,,,,,,,,,1181.989387791,None,1181.989387791,None,1181.989387791,None,c,0,2.1940595420019235,1183.539512348998,None,1183.539512348998,None,1183.539512348998,None,1185.7896874199978,None,1185.7896874199978,None,1185.7896874199978,None,1185.7896874199978,None,,,,,,,,,,,,,,,,,,,,,,,,,,,,,,,,,,,,,,,,,,,,001,136,2020_Feb_18_1353,spring_faces,3.1.5,60.039894589317676,
condition files/Stage1_2.xlsx,,B2,T2,m,"['c', 'm']","['Clue', 'Monopoly']","[-0.15, 0.5]","[0.15, 0.5]",1,1,,,,,,,,,0,1,1,1,0,7,7,3,,,,,,,,,,,,,,,,,,,,,,,,,,,,,,,,,,,,,,,,,,,,,,,,,,,,,,,1187.7567315559972,None,1187.7567315559972,None,1187.7567315559972,None,c,0,1.674439493999671,1189.2911432709989,None,1189.2911432709989,None,1189.2911432709989,None,1191.0235955659991,None,1191.0235955659991,None,1191.0235955659991,None,1191.0235955659991,None,,,,,,,,,,,,,,,,,,,,,,,,,,,,,,,,,,,,,,,,,,,,001,136,2020_Feb_18_1353,spring_faces,3.1.5,60.039894589317676,
condition files/Stage1_1.xlsx,,T1,B1,c,"['c', 'm']","['Clue', 'Monopoly']","[-0.15, 0.5]","[0.15, 0.5]",1,1,,,,,,,,,0,2,2,2,0,0,0,0,,,,,,,,,,,,,,,,,,,,,,,,,,,,,,,,,,,,,,,,,,,,,,,,,,,,,,,1193.006073032997,None,1193.006073032997,None,1193.006073032997,None,c,1,0.6982235690011294,1194.5392973649978,None,1194.5392973649978,None,1194.5392973649978,None,1195.2904300349983,None,1195.2904300349983,None,1195.2904300349983,None,1195.2904300349983,None,,,,,,,,,,,,,,,,,,,,,,,,,,,,,,,,,,,,,,,,,,,,001,136,2020_Feb_18_1353,spring_faces,3.1.5,60.039894589317676,
condition files/Stage1_1.xlsx,,B4,T4,m,"['c', 'm']","['Clue', 'Monopoly']","[-0.15, 0.5]","[0.15, 0.5]",1,1,,,,,,,,,0,2,2,2,0,1,1,7,,,,,,,,,,,,,,,,,,,,,,,,,,,,,,,,,,,,,,,,,,,,,,,,,,,,,,,1197.256313914997,None,1197.256313914997,None,1197.256313914997,None,m,1,1.1035543460020563,1198.7899659229988,None,1198.7899659229988,None,1198.7899659229988,None,1199.959147497997,None,1199.959147497997,None,1199.959147497997,None,1199.959147497997,None,,,,,,,,,,,,,,,,,,,,,,,,,,,,,,,,,,,,,,,,,,,,001,136,2020_Feb_18_1353,spring_faces,3.1.5,60.039894589317676,
condition files/Stage1_1.xlsx,,T3,B4,c,"['c', 'm']","['Clue', 'Monopoly']","[-0.15, 0.5]","[0.15, 0.5]",1,1,,,,,,,,,0,2,2,2,0,2,2,5,,,,,,,,,,,,,,,,,,,,,,,,,,,,,,,,,,,,,,,,,,,,,,,,,,,,,,,1201.9230869239982,None,1201.9230869239982,None,1201.9230869239982,None,m,0,1.4752340859995456,1203.4583379389987,None,1203.4583379389987,None,1203.4583379389987,None,1205.0066359159973,None,1205.0066359159973,None,1205.0066359159973,None,1205.0066359159973,None,,,,,,,,,,,,,,,,,,,,,,,,,,,,,,,,,,,,,,,,,,,,001,136,2020_Feb_18_1353,spring_faces,3.1.5,60.039894589317676,
condition files/Stage1_1.xlsx,,T4,B3,m,"['c', 'm']","['Clue', 'Monopoly']","[-0.15, 0.5]","[0.15, 0.5]",1,1,,,,,,,,,0,2,2,2,0,3,3,6,,,,,,,,,,,,,,,,,,,,,,,,,,,,,,,,,,,,,,,,,,,,,,,,,,,,,,,1206.9560742149988,None,1206.9560742149988,None,1206.9560742149988,None,m,1,1.2733486039978743,1208.4922534769976,None,1208.4922534769976,None,1208.4922534769976,None,1209.824796924997,None,1209.824796924997,None,1209.824796924997,None,1209.824796924997,None,,,,,,,,,,,,,,,,,,,,,,,,,,,,,,,,,,,,,,,,,,,,001,136,2020_Feb_18_1353,spring_faces,3.1.5,60.039894589317676,
condition files/Stage1_1.xlsx,,B1,T2,c,"['c', 'm']","['Clue', 'Monopoly']","[-0.15, 0.5]","[0.15, 0.5]",1,1,,,,,,,,,0,2,2,2,0,4,4,1,,,,,,,,,,,,,,,,,,,,,,,,,,,,,,,,,,,,,,,,,,,,,,,,,,,,,,,1211.789581238998,None,1211.789581238998,None,1211.789581238998,None,c,1,1.3366754159978882,1213.3248563939997,None,1213.3248563939997,None,1213.3248563939997,None,1214.7399182539993,None,1214.7399182539993,None,1214.7399182539993,None,1214.7399182539993,None,,,,,,,,,,,,,,,,,,,,,,,,,,,,,,,,,,,,,,,,,,,,001,136,2020_Feb_18_1353,spring_faces,3.1.5,60.039894589317676,
condition files/Stage1_1.xlsx,,T2,B2,m,"['c', 'm']","['Clue', 'Monopoly']","[-0.15, 0.5]","[0.15, 0.5]",1,1,,,,,,,,,0,2,2,2,0,5,5,3,,,,,,,,,,,,,,,,,,,,,,,,,,,,,,,,,,,,,,,,,,,,,,,,,,,,,,,1216.689839925999,None,1216.689839925999,None,1216.689839925999,None,c,0,1.1256390360031219,1218.2399252769974,None,1218.2399252769974,None,1218.2399252769974,None,1219.439395846999,None,1219.439395846999,None,1219.439395846999,None,1219.439395846999,None,,,,,,,,,,,,,,,,,,,,,,,,,,,,,,,,,,,,,,,,,,,,001,136,2020_Feb_18_1353,spring_faces,3.1.5,60.039894589317676,
condition files/Stage1_1.xlsx,,B2,T1,m,"['c', 'm']","['Clue', 'Monopoly']","[-0.15, 0.5]","[0.15, 0.5]",1,1,,,,,,,,,0,2,2,2,0,6,6,2,,,,,,,,,,,,,,,,,,,,,,,,,,,,,,,,,,,,,,,,,,,,,,,,,,,,,,,1221.3891463729997,None,1221.3891463729997,None,1221.3891463729997,None,c,0,3.5619426909979666,1222.9395410479992,None,1222.9395410479992,None,1222.9395410479992,None,1226.5562644499987,None,1226.5562644499987,None,1226.5562644499987,None,1226.5562644499987,None,,,,,,,,,,,,,,,,,,,,,,,,,,,,,,,,,,,,,,,,,,,,001,136,2020_Feb_18_1353,spring_faces,3.1.5,60.039894589317676,
condition files/Stage1_1.xlsx,,B3,T3,c,"['c', 'm']","['Clue', 'Monopoly']","[-0.15, 0.5]","[0.15, 0.5]",1,1,,,,,,,,,0,2,2,2,0,7,7,4,,,,,,,,,,,,,,,,,,,,,,,,,,,,,,,,,,,,,,,,,,,,,,,,,,,,,,,1228.5226637969972,None,1228.5226637969972,None,1228.5226637969972,None,c,1,1.9644867639981385,1230.0570644129984,None,1230.0570644129984,None,1230.0570644129984,None,1232.074101195998,None,1232.074101195998,None,1232.074101195998,None,1232.074101195998,None,,,,,,,,,,,,,,,,,,,,,,,,,,,,,,,,,,,,,,,,,,,,001,136,2020_Feb_18_1353,spring_faces,3.1.5,60.039894589317676,
condition files/Stage1_2.xlsx,,B3,T4,m,"['c', 'm']","['Clue', 'Monopoly']","[-0.15, 0.5]","[0.15, 0.5]",1,1,,,,,,,,,0,3,3,3,0,0,0,6,,,,,,,,,,,,,,,,,,,,,,,,,,,,,,,,,,,,,,,,,,,,,,,,,,,,,,,1234.0560730830002,None,1234.0560730830002,None,1234.0560730830002,None,m,1,1.198851717999787,1235.6066527820003,None,1235.6066527820003,None,1235.6066527820003,None,1236.8731769119986,None,1236.8731769119986,None,1236.8731769119986,None,1236.8731769119986,None,,,,,,,,,,,,,,,,,,,,,,,,,,,,,,,,,,,,,,,,,,,,001,136,2020_Feb_18_1353,spring_faces,3.1.5,60.039894589317676,
condition files/Stage1_2.xlsx,,B4,T3,c,"['c', 'm']","['Clue', 'Monopoly']","[-0.15, 0.5]","[0.15, 0.5]",1,1,,,,,,,,,0,3,3,3,0,1,1,5,,,,,,,,,,,,,,,,,,,,,,,,,,,,,,,,,,,,,,,,,,,,,,,,,,,,,,,1238.822348196998,None,1238.822348196998,None,1238.822348196998,None,m,0,1.087290909999865,1240.3582314630003,None,1240.3582314630003,None,1240.3582314630003,None,1241.5089055479984,None,1241.5089055479984,None,1241.5089055479984,None,1241.5089055479984,None,,,,,,,,,,,,,,,,,,,,,,,,,,,,,,,,,,,,,,,,,,,,001,136,2020_Feb_18_1353,spring_faces,3.1.5,60.039894589317676,
condition files/Stage1_2.xlsx,,T4,B4,m,"['c', 'm']","['Clue', 'Monopoly']","[-0.15, 0.5]","[0.15, 0.5]",1,1,,,,,,,,,0,3,3,3,0,2,2,7,,,,,,,,,,,,,,,,,,,,,,,,,,,,,,,,,,,,,,,,,,,,,,,,,,,,,,,1243.4730326719982,None,1243.4730326719982,None,1243.4730326719982,None,m,1,1.0940887389988347,1245.0233648309986,None,1245.0233648309986,None,1245.0233648309986,None,1246.175806616,None,1246.175806616,None,1246.175806616,None,1246.175806616,None,,,,,,,,,,,,,,,,,,,,,,,,,,,,,,,,,,,,,,,,,,,,001,136,2020_Feb_18_1353,spring_faces,3.1.5,60.039894589317676,
condition files/Stage1_2.xlsx,,B1,T1,c,"['c', 'm']","['Clue', 'Monopoly']","[-0.15, 0.5]","[0.15, 0.5]",1,1,,,,,,,,,0,3,3,3,0,3,3,0,,,,,,,,,,,,,,,,,,,,,,,,,,,,,,,,,,,,,,,,,,,,,,,,,,,,,,,1248.1397471290002,None,1248.1397471290002,None,1248.1397471290002,None,c,1,0.9381817169996793,1249.67538022,None,1249.67538022,None,1249.67538022,None,1250.6900152909984,None,1250.6900152909984,None,1250.6900152909984,None,1250.6900152909984,None,,,,,,,,,,,,,,,,,,,,,,,,,,,,,,,,,,,,,,,,,,,,001,136,2020_Feb_18_1353,spring_faces,3.1.5,60.039894589317676,
condition files/Stage1_2.xlsx,,T1,B2,m,"['c', 'm']","['Clue', 'Monopoly']","[-0.15, 0.5]","[0.15, 0.5]",1,1,,,,,,,,,0,3,3,3,0,4,4,2,,,,,,,,,,,,,,,,,,,,,,,,,,,,,,,,,,,,,,,,,,,,,,,,,,,,,,,1252.6391581239986,None,1252.6391581239986,None,1252.6391581239986,None,c,0,0.6948404629983997,1254.1746762259972,None,1254.1746762259972,None,1254.1746762259972,None,1254.9396035459977,None,1254.9396035459977,None,1254.9396035459977,None,1254.9396035459977,None,,,,,,,,,,,,,,,,,,,,,,,,,,,,,,,,,,,,,,,,,,,,001,136,2020_Feb_18_1353,spring_faces,3.1.5,60.039894589317676,
condition files/Stage1_2.xlsx,,B2,T2,m,"['c', 'm']","['Clue', 'Monopoly']","[-0.15, 0.5]","[0.15, 0.5]",1,1,,,,,,,,,0,3,3,3,0,5,5,3,,,,,,,,,,,,,,,,,,,,,,,,,,,,,,,,,,,,,,,,,,,,,,,,,,,,,,,1256.889362124999,None,1256.889362124999,None,1256.889362124999,None,c,0,2.5581205999988015,1258.4394454689973,None,1258.4394454689973,None,1258.4394454689973,None,1261.0559498740004,None,1261.0559498740004,None,1261.0559498740004,None,1261.0559498740004,None,,,,,,,,,,,,,,,,,,,,,,,,,,,,,,,,,,,,,,,,,,,,001,136,2020_Feb_18_1353,spring_faces,3.1.5,60.039894589317676,
condition files/Stage1_2.xlsx,,T3,B3,c,"['c', 'm']","['Clue', 'Monopoly']","[-0.15, 0.5]","[0.15, 0.5]",1,1,,,,,,,,,0,3,3,3,0,6,6,4,,,,,,,,,,,,,,,,,,,,,,,,,,,,,,,,,,,,,,,,,,,,,,,,,,,,,,,1263.023045261998,None,1263.023045261998,None,1263.023045261998,None,m,0,0.9202025140002661,1264.5733039939987,None,1264.5733039939987,None,1264.5733039939987,None,1265.5735079669976,None,1265.5735079669976,None,1265.5735079669976,None,1265.5735079669976,None,,,,,,,,,,,,,,,,,,,,,,,,,,,,,,,,,,,,,,,,,,,,001,136,2020_Feb_18_1353,spring_faces,3.1.5,60.039894589317676,
condition files/Stage1_2.xlsx,,T2,B1,c,"['c', 'm']","['Clue', 'Monopoly']","[-0.15, 0.5]","[0.15, 0.5]",1,1,,,,,,,,,0,3,3,3,0,7,7,1,,,,,,,,,,,,,,,,,,,,,,,,,,,,,,,,,,,,,,,,,,,,,,,,,,,,,,,1267.5240054999995,None,1267.5240054999995,None,1267.5240054999995,None,m,0,1.2351407130008738,1269.0583866790003,None,1269.0583866790003,None,1269.0583866790003,None,1270.3563934159974,None,1270.3563934159974,None,1270.3563934159974,None,1270.3563934159974,None,,,,,,,,,,,,,,,,,,,,,,,,,,,,,,,,,,,,,,,,,,,,001,136,2020_Feb_18_1353,spring_faces,3.1.5,60.039894589317676,
condition files/Stage1_1.xlsx,,B1,T2,c,"['c', 'm']","['Clue', 'Monopoly']","[-0.15, 0.5]","[0.15, 0.5]",1,1,,,,,,,,,0,4,4,4,0,0,0,1,,,,,,,,,,,,,,,,,,,,,,,,,,,,,,,,,,,,,,,,,,,,,,,,,,,,,,,1272.3397284979983,None,1272.3397284979983,None,1272.3397284979983,None,m,0,1.1540564040005847,1273.8755393760002,None,1273.8755393760002,None,1273.8755393760002,None,1275.0900228719984,None,1275.0900228719984,None,1275.0900228719984,None,1275.0900228719984,None,,,,,,,,,,,,,,,,,,,,,,,,,,,,,,,,,,,,,,,,,,,,001,136,2020_Feb_18_1353,spring_faces,3.1.5,60.039894589317676,
condition files/Stage1_1.xlsx,,T1,B1,c,"['c', 'm']","['Clue', 'Monopoly']","[-0.15, 0.5]","[0.15, 0.5]",1,1,,,,,,,,,0,4,4,4,0,1,1,0,,,,,,,,,,,,,,,,,,,,,,,,,,,,,,,,,,,,,,,,,,,,,,,,,,,,,,,1277.0563699749982,None,1277.0563699749982,None,1277.0563699749982,None,c,1,1.4938564749973011,1278.591649594,None,1278.591649594,None,1278.591649594,None,1280.139660255998,None,1280.139660255998,None,1280.139660255998,None,1280.139660255998,None,,,,,,,,,,,,,,,,,,,,,,,,,,,,,,,,,,,,,,,,,,,,001,136,2020_Feb_18_1353,spring_faces,3.1.5,60.039894589317676,
condition files/Stage1_1.xlsx,,T3,B4,c,"['c', 'm']","['Clue', 'Monopoly']","[-0.15, 0.5]","[0.15, 0.5]",1,1,,,,,,,,,0,4,4,4,0,2,2,5,,,,,,,,,,,,,,,,,,,,,,,,,,,,,,,,,,,,,,,,,,,,,,,,,,,,,,,1282.106420693999,None,1282.106420693999,None,1282.106420693999,None,c,1,1.836359902001277,1283.641165129,None,1283.641165129,None,1283.641165129,None,1285.5392924189982,None,1285.5392924189982,None,1285.5392924189982,None,1285.5392924189982,None,,,,,,,,,,,,,,,,,,,,,,,,,,,,,,,,,,,,,,,,,,,,001,136,2020_Feb_18_1353,spring_faces,3.1.5,60.039894589317676,
condition files/Stage1_1.xlsx,,B2,T1,m,"['c', 'm']","['Clue', 'Monopoly']","[-0.15, 0.5]","[0.15, 0.5]",1,1,,,,,,,,,0,4,4,4,0,3,3,2,,,,,,,,,,,,,,,,,,,,,,,,,,,,,,,,,,,,,,,,,,,,,,,,,,,,,,,1287.5061586560005,None,1287.5061586560005,None,1287.5061586560005,None,c,0,1.013495265997335,1289.040006414998,None,1289.040006414998,None,1289.040006414998,None,1290.1232986329996,None,1290.1232986329996,None,1290.1232986329996,None,1290.1232986329996,None,,,,,,,,,,,,,,,,,,,,,,,,,,,,,,,,,,,,,,,,,,,,001,136,2020_Feb_18_1353,spring_faces,3.1.5,60.039894589317676,
condition files/Stage1_1.xlsx,,B3,T3,c,"['c', 'm']","['Clue', 'Monopoly']","[-0.15, 0.5]","[0.15, 0.5]",1,1,,,,,,,,,0,4,4,4,0,4,4,4,,,,,,,,,,,,,,,,,,,,,,,,,,,,,,,,,,,,,,,,,,,,,,,,,,,,,,,1292.0725480669971,None,1292.0725480669971,None,1292.0725480669971,None,m,0,1.5038672820010106,1293.6056559600001,None,1293.6056559600001,None,1293.6056559600001,None,1295.173886122997,None,1295.173886122997,None,1295.173886122997,None,1295.173886122997,None,,,,,,,,,,,,,,,,,,,,,,,,,,,,,,,,,,,,,,,,,,,,001,136,2020_Feb_18_1353,spring_faces,3.1.5,60.039894589317676,
condition files/Stage1_1.xlsx,,B4,T4,m,"['c', 'm']","['Clue', 'Monopoly']","[-0.15, 0.5]","[0.15, 0.5]",1,1,,,,,,,,,0,4,4,4,0,5,5,7,,,,,,,,,,,,,,,,,,,,,,,,,,,,,,,,,,,,,,,,,,,,,,,,,,,,,,,1297.1397723269984,None,1297.1397723269984,None,1297.1397723269984,None,m,1,0.86885842799893,1298.672612563998,None,1298.672612563998,None,1298.672612563998,None,1299.6073351099985,None,1299.6073351099985,None,1299.6073351099985,None,1299.6073351099985,None,,,,,,,,,,,,,,,,,,,,,,,,,,,,,,,,,,,,,,,,,,,,001,136,2020_Feb_18_1353,spring_faces,3.1.5,60.039894589317676,
condition files/Stage1_1.xlsx,,T2,B2,m,"['c', 'm']","['Clue', 'Monopoly']","[-0.15, 0.5]","[0.15, 0.5]",1,1,,,,,,,,,0,4,4,4,0,6,6,3,,,,,,,,,,,,,,,,,,,,,,,,,,,,,,,,,,,,,,,,,,,,,,,,,,,,,,,1301.572721302,None,1301.572721302,None,1301.572721302,None,m,1,1.7951821139977255,1303.1063501520002,None,1303.1063501520002,None,1303.1063501520002,None,1304.9569663509974,None,1304.9569663509974,None,1304.9569663509974,None,1304.9569663509974,None,,,,,,,,,,,,,,,,,,,,,,,,,,,,,,,,,,,,,,,,,,,,001,136,2020_Feb_18_1353,spring_faces,3.1.5,60.039894589317676,
condition files/Stage1_1.xlsx,,T4,B3,m,"['c', 'm']","['Clue', 'Monopoly']","[-0.15, 0.5]","[0.15, 0.5]",1,1,,,,,,,,,0,4,4,4,0,7,7,6,,,,,,,,,,,,,,,,,,,,,,,,,,,,,,,,,,,,,,,,,,,,,,,,,,,,,,,1306.922433085998,None,1306.922433085998,None,1306.922433085998,None,c,0,4.812462173998938,1308.4730391319972,None,1308.4730391319972,None,1308.4730391319972,None,1313.339584948997,None,1313.339584948997,None,1313.339584948997,None,1313.339584948997,None,,,,,,,,,,,,,,,,,,,,,,,,,,,,,,,,,,,,,,,,,,,,001,136,2020_Feb_18_1353,spring_faces,3.1.5,60.039894589317676,
condition files/Stage1_2.xlsx,,T3,B3,c,"['c', 'm']","['Clue', 'Monopoly']","[-0.15, 0.5]","[0.15, 0.5]",1,1,,,,,,,,,0,5,5,5,0,0,0,4,,,,,,,,,,,,,,,,,,,,,,,,,,,,,,,,,,,,,,,,,,,,,,,,,,,,,,,1315.3226710469971,None,1315.3226710469971,None,1315.3226710469971,None,c,1,3.1801715879992116,1316.8732896719994,None,1316.8732896719994,None,1316.8732896719994,None,1320.1235049259994,None,1320.1235049259994,None,1320.1235049259994,None,1320.1235049259994,None,,,,,,,,,,,,,,,,,,,,,,,,,,,,,,,,,,,,,,,,,,,,001,136,2020_Feb_18_1353,spring_faces,3.1.5,60.039894589317676,
condition files/Stage1_2.xlsx,,B4,T3,c,"['c', 'm']","['Clue', 'Monopoly']","[-0.15, 0.5]","[0.15, 0.5]",1,1,,,,,,,,,0,5,5,5,0,1,1,5,,,,,,,,,,,,,,,,,,,,,,,,,,,,,,,,,,,,,,,,,,,,,,,,,,,,,,,1322.072920380997,None,1322.072920380997,None,1322.072920380997,None,c,1,1.9821635020016402,1323.623330178998,None,1323.623330178998,None,1323.623330178998,None,1325.6564340839977,None,1325.6564340839977,None,1325.6564340839977,None,1325.6564340839977,None,,,,,,,,,,,,,,,,,,,,,,,,,,,,,,,,,,,,,,,,,,,,001,136,2020_Feb_18_1353,spring_faces,3.1.5,60.039894589317676,
condition files/Stage1_2.xlsx,,T1,B2,m,"['c', 'm']","['Clue', 'Monopoly']","[-0.15, 0.5]","[0.15, 0.5]",1,1,,,,,,,,,0,5,5,5,0,2,2,2,,,,,,,,,,,,,,,,,,,,,,,,,,,,,,,,,,,,,,,,,,,,,,,,,,,,,,,1327.6230879739996,None,1327.6230879739996,None,1327.6230879739996,None,m,1,1.0556662190028874,1329.1579195239974,None,1329.1579195239974,None,1329.1579195239974,None,1330.2902097659971,None,1330.2902097659971,None,1330.2902097659971,None,1330.2902097659971,None,,,,,,,,,,,,,,,,,,,,,,,,,,,,,,,,,,,,,,,,,,,,001,136,2020_Feb_18_1353,spring_faces,3.1.5,60.039894589317676,
condition files/Stage1_2.xlsx,,T4,B4,m,"['c', 'm']","['Clue', 'Monopoly']","[-0.15, 0.5]","[0.15, 0.5]",1,1,,,,,,,,,0,5,5,5,0,3,3,7,,,,,,,,,,,,,,,,,,,,,,,,,,,,,,,,,,,,,,,,,,,,,,,,,,,,,,,1332.239498046998,None,1332.239498046998,None,1332.239498046998,None,c,0,1.2223975699998846,1333.7752017929997,None,1333.7752017929997,None,1333.7752017929997,None,1335.0567388620002,None,1335.0567388620002,None,1335.0567388620002,None,1335.0567388620002,None,,,,,,,,,,,,,,,,,,,,,,,,,,,,,,,,,,,,,,,,,,,,001,136,2020_Feb_18_1353,spring_faces,3.1.5,60.039894589317676,
condition files/Stage1_2.xlsx,,T2,B1,c,"['c', 'm']","['Clue', 'Monopoly']","[-0.15, 0.5]","[0.15, 0.5]",1,1,,,,,,,,,0,5,5,5,0,4,4,1,,,,,,,,,,,,,,,,,,,,,,,,,,,,,,,,,,,,,,,,,,,,,,,,,,,,,,,1337.0228580759976,None,1337.0228580759976,None,1337.0228580759976,None,c,1,1.4803278400031559,1338.5571835800001,None,1338.5571835800001,None,1338.5571835800001,None,1340.091786533998,None,1340.091786533998,None,1340.091786533998,None,1340.091786533998,None,,,,,,,,,,,,,,,,,,,,,,,,,,,,,,,,,,,,,,,,,,,,001,136,2020_Feb_18_1353,spring_faces,3.1.5,60.039894589317676,
condition files/Stage1_2.xlsx,,B2,T2,m,"['c', 'm']","['Clue', 'Monopoly']","[-0.15, 0.5]","[0.15, 0.5]",1,1,,,,,,,,,0,5,5,5,0,5,5,3,,,,,,,,,,,,,,,,,,,,,,,,,,,,,,,,,,,,,,,,,,,,,,,,,,,,,,,1342.056874468999,None,1342.056874468999,None,1342.056874468999,None,m,1,1.5995545420009876,1343.5899570250003,None,1343.5899570250003,None,1343.5899570250003,None,1345.2567396669983,None,1345.2567396669983,None,1345.2567396669983,None,1345.2567396669983,None,,,,,,,,,,,,,,,,,,,,,,,,,,,,,,,,,,,,,,,,,,,,001,136,2020_Feb_18_1353,spring_faces,3.1.5,60.039894589317676,
condition files/Stage1_2.xlsx,,B3,T4,m,"['c', 'm']","['Clue', 'Monopoly']","[-0.15, 0.5]","[0.15, 0.5]",1,1,,,,,,,,,0,5,5,5,0,6,6,6,,,,,,,,,,,,,,,,,,,,,,,,,,,,,,,,,,,,,,,,,,,,,,,,,,,,,,,1347.205858205998,None,1347.205858205998,None,1347.205858205998,None,m,1,1.409575257999677,1348.739899715998,None,1348.739899715998,None,1348.739899715998,None,1350.2066875419987,None,1350.2066875419987,None,1350.2066875419987,None,1350.2066875419987,None,,,,,,,,,,,,,,,,,,,,,,,,,,,,,,,,,,,,,,,,,,,,001,136,2020_Feb_18_1353,spring_faces,3.1.5,60.039894589317676,
condition files/Stage1_2.xlsx,,B1,T1,c,"['c', 'm']","['Clue', 'Monopoly']","[-0.15, 0.5]","[0.15, 0.5]",1,1,,,,,,,,,0,5,5,5,0,7,7,0,,,,,,,,,,,,,,,,,,,,,,,,,,,,,,,,,,,,,,,,,,,,,,,,,,,,,,,1352.1725364199992,None,1352.1725364199992,None,1352.1725364199992,None,c,1,0.8257890310014773,1353.7077885079998,None,1353.7077885079998,None,1353.7077885079998,None,1354.5905382639976,None,1354.5905382639976,None,1354.5905382639976,None,1354.5905382639976,None,,,,,,,,,,,,,,,,,,,,,,,,,,,,,,,,,,,,,,,,,,,,001,136,2020_Feb_18_1353,spring_faces,3.1.5,60.039894589317676,
condition files/Stage1_1.xlsx,,B2,T1,m,"['c', 'm']","['Clue', 'Monopoly']","[-0.15, 0.5]","[0.15, 0.5]",1,1,,,,,,,,,0,6,6,6,0,0,0,2,,,,,,,,,,,,,,,,,,,,,,,,,,,,,,,,,,,,,,,,,,,,,,,,,,,,,,,1356.5731899659986,None,1356.5731899659986,None,1356.5731899659986,None,c,0,0.6805547719995957,1358.1089583680005,None,1358.1089583680005,None,1358.1089583680005,None,1358.8566504640003,None,1358.8566504640003,None,1358.8566504640003,None,1358.8566504640003,None,,,,,,,,,,,,,,,,,,,,,,,,,,,,,,,,,,,,,,,,,,,,001,136,2020_Feb_18_1353,spring_faces,3.1.5,60.039894589317676,
condition files/Stage1_1.xlsx,,T2,B2,m,"['c', 'm']","['Clue', 'Monopoly']","[-0.15, 0.5]","[0.15, 0.5]",1,1,,,,,,,,,0,6,6,6,0,1,1,3,,,,,,,,,,,,,,,,,,,,,,,,,,,,,,,,,,,,,,,,,,,,,,,,,,,,,,,1360.8064787749972,None,1360.8064787749972,None,1360.8064787749972,None,c,0,1.9531550890023937,1362.3563456449992,None,1362.3563456449992,None,1362.3563456449992,None,1364.3730730379975,None,1364.3730730379975,None,1364.3730730379975,None,1364.3730730379975,None,,,,,,,,,,,,,,,,,,,,,,,,,,,,,,,,,,,,,,,,,,,,001,136,2020_Feb_18_1353,spring_faces,3.1.5,60.039894589317676,
condition files/Stage1_1.xlsx,,B3,T3,c,"['c', 'm']","['Clue', 'Monopoly']","[-0.15, 0.5]","[0.15, 0.5]",1,1,,,,,,,,,0,6,6,6,0,2,2,4,,,,,,,,,,,,,,,,,,,,,,,,,,,,,,,,,,,,,,,,,,,,,,,,,,,,,,,1366.339967263997,None,1366.339967263997,None,1366.339967263997,None,m,0,0.9972779259987874,1367.8724391719988,None,1367.8724391719988,None,1367.8724391719988,None,1368.9232972589998,None,1368.9232972589998,None,1368.9232972589998,None,1368.9232972589998,None,,,,,,,,,,,,,,,,,,,,,,,,,,,,,,,,,,,,,,,,,,,,001,136,2020_Feb_18_1353,spring_faces,3.1.5,60.039894589317676,
condition files/Stage1_1.xlsx,,T1,B1,c,"['c', 'm']","['Clue', 'Monopoly']","[-0.15, 0.5]","[0.15, 0.5]",1,1,,,,,,,,,0,6,6,6,0,3,3,0,,,,,,,,,,,,,,,,,,,,,,,,,,,,,,,,,,,,,,,,,,,,,,,,,,,,,,,1370.889881674997,None,1370.889881674997,None,1370.889881674997,None,c,1,0.9416140120010823,1372.4399550649978,None,1372.4399550649978,None,1372.4399550649978,None,1373.439970602998,None,1373.439970602998,None,1373.439970602998,None,1373.439970602998,None,,,,,,,,,,,,,,,,,,,,,,,,,,,,,,,,,,,,,,,,,,,,001,136,2020_Feb_18_1353,spring_faces,3.1.5,60.039894589317676,
condition files/Stage1_1.xlsx,,B4,T4,m,"['c', 'm']","['Clue', 'Monopoly']","[-0.15, 0.5]","[0.15, 0.5]",1,1,,,,,,,,,0,6,6,6,0,4,4,7,,,,,,,,,,,,,,,,,,,,,,,,,,,,,,,,,,,,,,,,,,,,,,,,,,,,,,,1375.4061948589988,None,1375.4061948589988,None,1375.4061948589988,None,m,1,0.664434735001123,1376.9410729819974,None,1376.9410729819974,None,1376.9410729819974,None,1377.6734875719994,None,1377.6734875719994,None,1377.6734875719994,None,1377.6734875719994,None,,,,,,,,,,,,,,,,,,,,,,,,,,,,,,,,,,,,,,,,,,,,001,136,2020_Feb_18_1353,spring_faces,3.1.5,60.039894589317676,
condition files/Stage1_1.xlsx,,T3,B4,c,"['c', 'm']","['Clue', 'Monopoly']","[-0.15, 0.5]","[0.15, 0.5]",1,1,,,,,,,,,0,6,6,6,0,5,5,5,,,,,,,,,,,,,,,,,,,,,,,,,,,,,,,,,,,,,,,,,,,,,,,,,,,,,,,1379.6231509949976,None,1379.6231509949976,None,1379.6231509949976,None,m,0,1.3110866159986472,1381.1584491020003,None,1381.1584491020003,None,1381.1584491020003,None,1382.5251518759978,None,1382.5251518759978,None,1382.5251518759978,None,1382.5251518759978,None,,,,,,,,,,,,,,,,,,,,,,,,,,,,,,,,,,,,,,,,,,,,001,136,2020_Feb_18_1353,spring_faces,3.1.5,60.039894589317676,
condition files/Stage1_1.xlsx,,T4,B3,m,"['c', 'm']","['Clue', 'Monopoly']","[-0.15, 0.5]","[0.15, 0.5]",1,1,,,,,,,,,0,6,6,6,0,6,6,6,,,,,,,,,,,,,,,,,,,,,,,,,,,,,,,,,,,,,,,,,,,,,,,,,,,,,,,1384.4896359489976,None,1384.4896359489976,None,1384.4896359489976,None,m,1,0.6533312190003926,1386.0242086159997,None,1386.0242086159997,None,1386.0242086159997,None,1386.7408046899982,None,1386.7408046899982,None,1386.7408046899982,None,1386.7408046899982,None,,,,,,,,,,,,,,,,,,,,,,,,,,,,,,,,,,,,,,,,,,,,001,136,2020_Feb_18_1353,spring_faces,3.1.5,60.039894589317676,
condition files/Stage1_1.xlsx,,B1,T2,c,"['c', 'm']","['Clue', 'Monopoly']","[-0.15, 0.5]","[0.15, 0.5]",1,1,,,,,,,,,0,6,6,6,0,7,7,1,,,,,,,,,,,,,,,,,,,,,,,,,,,,,,,,,,,,,,,,,,,,,,,,,,,,,,,1388.706391587999,None,1388.706391587999,None,1388.706391587999,None,c,1,0.48593308399722446,1390.239592509999,None,1390.239592509999,None,1390.239592509999,None,1390.7921737459983,None,1390.7921737459983,None,1390.7921737459983,None,1390.7921737459983,None,,,,,,,,,,,,,,,,,,,,,,,,,,,,,,,,,,,,,,,,,,,,001,136,2020_Feb_18_1353,spring_faces,3.1.5,60.039894589317676,
condition files/Stage1_2.xlsx,,B2,T2,m,"['c', 'm']","['Clue', 'Monopoly']","[-0.15, 0.5]","[0.15, 0.5]",1,1,,,,,,,,,0,7,7,7,0,0,0,3,,,,,,,,,,,,,,,,,,,,,,,,,,,,,,,,,,,,,,,,,,,,,,,,,,,,,,,1392.7733149060005,None,1392.7733149060005,None,1392.7733149060005,None,m,1,1.2644645310028864,1394.309011849,None,1394.309011849,None,1394.309011849,None,1395.641406486,None,1395.641406486,None,1395.641406486,None,1395.641406486,None,,,,,,,,,,,,,,,,,,,,,,,,,,,,,,,,,,,,,,,,,,,,001,136,2020_Feb_18_1353,spring_faces,3.1.5,60.039894589317676,
condition files/Stage1_2.xlsx,,B3,T4,m,"['c', 'm']","['Clue', 'Monopoly']","[-0.15, 0.5]","[0.15, 0.5]",1,1,,,,,,,,,0,7,7,7,0,1,1,6,,,,,,,,,,,,,,,,,,,,,,,,,,,,,,,,,,,,,,,,,,,,,,,,,,,,,,,1397.6068312079988,None,1397.6068312079988,None,1397.6068312079988,None,m,1,0.7696219479985302,1399.139903039999,None,1399.139903039999,None,1399.139903039999,None,1399.9732970149998,None,1399.9732970149998,None,1399.9732970149998,None,1399.9732970149998,None,,,,,,,,,,,,,,,,,,,,,,,,,,,,,,,,,,,,,,,,,,,,001,136,2020_Feb_18_1353,spring_faces,3.1.5,60.039894589317676,
condition files/Stage1_2.xlsx,,T2,B1,c,"['c', 'm']","['Clue', 'Monopoly']","[-0.15, 0.5]","[0.15, 0.5]",1,1,,,,,,,,,0,7,7,7,0,2,2,1,,,,,,,,,,,,,,,,,,,,,,,,,,,,,,,,,,,,,,,,,,,,,,,,,,,,,,,1401.9396023199988,None,1401.9396023199988,None,1401.9396023199988,None,c,1,0.772639173999778,1403.4728576499983,None,1403.4728576499983,None,1403.4728576499983,None,1404.3074327389986,None,1404.3074327389986,None,1404.3074327389986,None,1404.3074327389986,None,,,,,,,,,,,,,,,,,,,,,,,,,,,,,,,,,,,,,,,,,,,,001,136,2020_Feb_18_1353,spring_faces,3.1.5,60.039894589317676,
condition files/Stage1_2.xlsx,,T4,B4,m,"['c', 'm']","['Clue', 'Monopoly']","[-0.15, 0.5]","[0.15, 0.5]",1,1,,,,,,,,,0,7,7,7,0,3,3,7,,,,,,,,,,,,,,,,,,,,,,,,,,,,,,,,,,,,,,,,,,,,,,,,,,,,,,,1406.2730080019974,None,1406.2730080019974,None,1406.2730080019974,None,m,1,0.8057683670012921,1407.8238048290004,None,1407.8238048290004,None,1407.8238048290004,None,1408.690914322,None,1408.690914322,None,1408.690914322,None,1408.690914322,None,,,,,,,,,,,,,,,,,,,,,,,,,,,,,,,,,,,,,,,,,,,,001,136,2020_Feb_18_1353,spring_faces,3.1.5,60.039894589317676,
condition files/Stage1_2.xlsx,,B1,T1,c,"['c', 'm']","['Clue', 'Monopoly']","[-0.15, 0.5]","[0.15, 0.5]",1,1,,,,,,,,,0,7,7,7,0,4,4,0,,,,,,,,,,,,,,,,,,,,,,,,,,,,,,,,,,,,,,,,,,,,,,,,,,,,,,,1410.6564018629979,None,1410.6564018629979,None,1410.6564018629979,None,c,1,1.301248925999971,1412.192263613997,None,1412.192263613997,None,1412.192263613997,None,1413.5586785099986,None,1413.5586785099986,None,1413.5586785099986,None,1413.5586785099986,None,,,,,,,,,,,,,,,,,,,,,,,,,,,,,,,,,,,,,,,,,,,,001,136,2020_Feb_18_1353,spring_faces,3.1.5,60.039894589317676,
condition files/Stage1_2.xlsx,,T3,B3,c,"['c', 'm']","['Clue', 'Monopoly']","[-0.15, 0.5]","[0.15, 0.5]",1,1,,,,,,,,,0,7,7,7,0,5,5,4,,,,,,,,,,,,,,,,,,,,,,,,,,,,,,,,,,,,,,,,,,,,,,,,,,,,,,,1415.5228043919997,None,1415.5228043919997,None,1415.5228043919997,None,m,0,0.6927947779986425,1417.0566837879996,None,1417.0566837879996,None,1417.0566837879996,None,1417.8066542939996,None,1417.8066542939996,None,1417.8066542939996,None,1417.8066542939996,None,,,,,,,,,,,,,,,,,,,,,,,,,,,,,,,,,,,,,,,,,,,,001,136,2020_Feb_18_1353,spring_faces,3.1.5,60.039894589317676,
condition files/Stage1_2.xlsx,,T1,B2,m,"['c', 'm']","['Clue', 'Monopoly']","[-0.15, 0.5]","[0.15, 0.5]",1,1,,,,,,,,,0,7,7,7,0,6,6,2,,,,,,,,,,,,,,,,,,,,,,,,,,,,,,,,,,,,,,,,,,,,,,,,,,,,,,,1419.7726547239981,None,1419.7726547239981,None,1419.7726547239981,None,c,0,0.6821711899974616,1421.3073438829997,None,1421.3073438829997,None,1421.3073438829997,None,1422.056681307,None,1422.056681307,None,1422.056681307,None,1422.056681307,None,,,,,,,,,,,,,,,,,,,,,,,,,,,,,,,,,,,,,,,,,,,,001,136,2020_Feb_18_1353,spring_faces,3.1.5,60.039894589317676,
condition files/Stage1_2.xlsx,,B4,T3,c,"['c', 'm']","['Clue', 'Monopoly']","[-0.15, 0.5]","[0.15, 0.5]",1,1,,,,,,,,,0,7,7,7,0,7,7,5,,,,,,,,,,,,,,,,,,,,,,,,,,,,,,,,,,,,,,,,,,,,,,,,,,,,,,,1424.006246470999,None,1424.006246470999,None,1424.006246470999,None,c,1,1.537656025000615,1425.5398769530002,None,1425.5398769530002,None,1425.5398769530002,None,1427.1425460869978,None,1427.1425460869978,None,1427.1425460869978,None,1427.1425460869978,None,,,,,,,,,,,,,,,,,,,,,,,,,,,,,,,,,,,,,,,,,,,,001,136,2020_Feb_18_1353,spring_faces,3.1.5,60.039894589317676,
condition files/Stage1_1.xlsx,,T1,B1,c,"['c', 'm']","['Clue', 'Monopoly']","[-0.15, 0.5]","[0.15, 0.5]",1,1,,,,,,,,,0,8,8,8,0,0,0,0,,,,,,,,,,,,,,,,,,,,,,,,,,,,,,,,,,,,,,,,,,,,,,,,,,,,,,,1429.123163589,None,1429.123163589,None,1429.123163589,None,c,1,1.0280112880027445,1430.6575200469997,None,1430.6575200469997,None,1430.6575200469997,None,1431.7401876369986,None,1431.7401876369986,None,1431.7401876369986,None,1431.7401876369986,None,,,,,,,,,,,,,,,,,,,,,,,,,,,,,,,,,,,,,,,,,,,,001,136,2020_Feb_18_1353,spring_faces,3.1.5,60.039894589317676,
condition files/Stage1_1.xlsx,,B2,T1,m,"['c', 'm']","['Clue', 'Monopoly']","[-0.15, 0.5]","[0.15, 0.5]",1,1,,,,,,,,,0,8,8,8,0,1,1,2,,,,,,,,,,,,,,,,,,,,,,,,,,,,,,,,,,,,,,,,,,,,,,,,,,,,,,,1433.706792465,None,1433.706792465,None,1433.706792465,None,m,1,2.0299120919989946,1435.2395867689993,None,1435.2395867689993,None,1435.2395867689993,None,1437.3237384049971,None,1437.3237384049971,None,1437.3237384049971,None,1437.3237384049971,None,,,,,,,,,,,,,,,,,,,,,,,,,,,,,,,,,,,,,,,,,,,,001,136,2020_Feb_18_1353,spring_faces,3.1.5,60.039894589317676,
condition files/Stage1_1.xlsx,,B4,T4,m,"['c', 'm']","['Clue', 'Monopoly']","[-0.15, 0.5]","[0.15, 0.5]",1,1,,,,,,,,,0,8,8,8,0,2,2,7,,,,,,,,,,,,,,,,,,,,,,,,,,,,,,,,,,,,,,,,,,,,,,,,,,,,,,,1439.289759864998,None,1439.289759864998,None,1439.289759864998,None,m,1,0.8944095699989703,1440.823103106999,None,1440.823103106999,None,1440.823103106999,None,1441.7733894999983,None,1441.7733894999983,None,1441.7733894999983,None,1441.7733894999983,None,,,,,,,,,,,,,,,,,,,,,,,,,,,,,,,,,,,,,,,,,,,,001,136,2020_Feb_18_1353,spring_faces,3.1.5,60.039894589317676,
condition files/Stage1_1.xlsx,,B1,T2,c,"['c', 'm']","['Clue', 'Monopoly']","[-0.15, 0.5]","[0.15, 0.5]",1,1,,,,,,,,,0,8,8,8,0,3,3,1,,,,,,,,,,,,,,,,,,,,,,,,,,,,,,,,,,,,,,,,,,,,,,,,,,,,,,,1443.7391074189982,None,1443.7391074189982,None,1443.7391074189982,None,c,1,1.0663090210000519,1445.2752111959999,None,1445.2752111959999,None,1445.2752111959999,None,1446.423257659997,None,1446.423257659997,None,1446.423257659997,None,1446.423257659997,None,,,,,,,,,,,,,,,,,,,,,,,,,,,,,,,,,,,,,,,,,,,,001,136,2020_Feb_18_1353,spring_faces,3.1.5,60.039894589317676,
condition files/Stage1_1.xlsx,,B3,T3,c,"['c', 'm']","['Clue', 'Monopoly']","[-0.15, 0.5]","[0.15, 0.5]",1,1,,,,,,,,,0,8,8,8,0,4,4,4,,,,,,,,,,,,,,,,,,,,,,,,,,,,,,,,,,,,,,,,,,,,,,,,,,,,,,,1448.3726617600005,None,1448.3726617600005,None,1448.3726617600005,None,c,1,1.1862025059999723,1449.923303315998,None,1449.923303315998,None,1449.923303315998,None,1451.1730918409994,None,1451.1730918409994,None,1451.1730918409994,None,1451.1730918409994,None,,,,,,,,,,,,,,,,,,,,,,,,,,,,,,,,,,,,,,,,,,,,001,136,2020_Feb_18_1353,spring_faces,3.1.5,60.039894589317676,
condition files/Stage1_1.xlsx,,T2,B2,m,"['c', 'm']","['Clue', 'Monopoly']","[-0.15, 0.5]","[0.15, 0.5]",1,1,,,,,,,,,0,8,8,8,0,5,5,3,,,,,,,,,,,,,,,,,,,,,,,,,,,,,,,,,,,,,,,,,,,,,,,,,,,,,,,1453.139763125997,None,1453.139763125997,None,1453.139763125997,None,c,0,1.2516123770001286,1454.6898700909987,None,1454.6898700909987,None,1454.6898700909987,None,1456.0232027879974,None,1456.0232027879974,None,1456.0232027879974,None,1456.0232027879974,None,,,,,,,,,,,,,,,,,,,,,,,,,,,,,,,,,,,,,,,,,,,,001,136,2020_Feb_18_1353,spring_faces,3.1.5,60.039894589317676,
condition files/Stage1_1.xlsx,,T3,B4,c,"['c', 'm']","['Clue', 'Monopoly']","[-0.15, 0.5]","[0.15, 0.5]",1,1,,,,,,,,,0,8,8,8,0,6,6,5,,,,,,,,,,,,,,,,,,,,,,,,,,,,,,,,,,,,,,,,,,,,,,,,,,,,,,,1457.9729577519975,None,1457.9729577519975,None,1457.9729577519975,None,c,1,1.4111681380018126,1459.5063580530004,None,1459.5063580530004,None,1459.5063580530004,None,1460.989879810997,None,1460.989879810997,None,1460.989879810997,None,1460.989879810997,None,,,,,,,,,,,,,,,,,,,,,,,,,,,,,,,,,,,,,,,,,,,,001,136,2020_Feb_18_1353,spring_faces,3.1.5,60.039894589317676,
condition files/Stage1_1.xlsx,,T4,B3,m,"['c', 'm']","['Clue', 'Monopoly']","[-0.15, 0.5]","[0.15, 0.5]",1,1,,,,,,,,,0,8,8,8,0,7,7,6,,,,,,,,,,,,,,,,,,,,,,,,,,,,,,,,,,,,,,,,,,,,,,,,,,,,,,,1462.9396808739984,None,1462.9396808739984,None,1462.9396808739984,None,m,1,1.7086472539995157,1464.4729518299973,None,1464.4729518299973,None,1464.4729518299973,None,1466.2397489809991,None,1466.2397489809991,None,1466.2397489809991,None,1466.2397489809991,None,,,,,,,,,,,,,,,,,,,,,,,,,,,,,,,,,,,,,,,,,,,,001,136,2020_Feb_18_1353,spring_faces,3.1.5,60.039894589317676,
condition files/Stage1_2.xlsx,,B1,T1,c,"['c', 'm']","['Clue', 'Monopoly']","[-0.15, 0.5]","[0.15, 0.5]",1,1,,,,,,,,,0,9,9,9,0,0,0,0,,,,,,,,,,,,,,,,,,,,,,,,,,,,,,,,,,,,,,,,,,,,,,,,,,,,,,,1468.2227583370004,None,1468.2227583370004,None,1468.2227583370004,None,c,1,1.303679500000726,1469.7578729089983,None,1469.7578729089983,None,1469.7578729089983,None,1471.1237543819989,None,1471.1237543819989,None,1471.1237543819989,None,1471.1237543819989,None,,,,,,,,,,,,,,,,,,,,,,,,,,,,,,,,,,,,,,,,,,,,001,136,2020_Feb_18_1353,spring_faces,3.1.5,60.039894589317676,
condition files/Stage1_2.xlsx,,B2,T2,m,"['c', 'm']","['Clue', 'Monopoly']","[-0.15, 0.5]","[0.15, 0.5]",1,1,,,,,,,,,0,9,9,9,0,1,1,3,,,,,,,,,,,,,,,,,,,,,,,,,,,,,,,,,,,,,,,,,,,,,,,,,,,,,,,1473.089901553998,None,1473.089901553998,None,1473.089901553998,None,m,1,1.2377372119990468,1474.6397722660004,None,1474.6397722660004,None,1474.6397722660004,None,1475.9561500829986,None,1475.9561500829986,None,1475.9561500829986,None,1475.9561500829986,None,,,,,,,,,,,,,,,,,,,,,,,,,,,,,,,,,,,,,,,,,,,,001,136,2020_Feb_18_1353,spring_faces,3.1.5,60.039894589317676,
condition files/Stage1_2.xlsx,,T3,B3,c,"['c', 'm']","['Clue', 'Monopoly']","[-0.15, 0.5]","[0.15, 0.5]",1,1,,,,,,,,,0,9,9,9,0,2,2,4,,,,,,,,,,,,,,,,,,,,,,,,,,,,,,,,,,,,,,,,,,,,,,,,,,,,,,,1477.9064719229973,None,1477.9064719229973,None,1477.9064719229973,None,m,0,1.0460268829992856,1479.4394803629984,None,1479.4394803629984,None,1479.4394803629984,None,1480.5416407589983,None,1480.5416407589983,None,1480.5416407589983,None,1480.5416407589983,None,,,,,,,,,,,,,,,,,,,,,,,,,,,,,,,,,,,,,,,,,,,,001,136,2020_Feb_18_1353,spring_faces,3.1.5,60.039894589317676,
condition files/Stage1_2.xlsx,,T1,B2,m,"['c', 'm']","['Clue', 'Monopoly']","[-0.15, 0.5]","[0.15, 0.5]",1,1,,,,,,,,,0,9,9,9,0,3,3,2,,,,,,,,,,,,,,,,,,,,,,,,,,,,,,,,,,,,,,,,,,,,,,,,,,,,,,,1482.506454694998,None,1482.506454694998,None,1482.506454694998,None,m,1,1.548905305997323,1484.056599489999,None,1484.056599489999,None,1484.056599489999,None,1485.6727916469972,None,1485.6727916469972,None,1485.6727916469972,None,1485.6727916469972,None,,,,,,,,,,,,,,,,,,,,,,,,,,,,,,,,,,,,,,,,,,,,001,136,2020_Feb_18_1353,spring_faces,3.1.5,60.039894589317676,
condition files/Stage1_2.xlsx,,T2,B1,c,"['c', 'm']","['Clue', 'Monopoly']","[-0.15, 0.5]","[0.15, 0.5]",1,1,,,,,,,,,0,9,9,9,0,4,4,1,,,,,,,,,,,,,,,,,,,,,,,,,,,,,,,,,,,,,,,,,,,,,,,,,,,,,,,1487.623200345999,None,1487.623200345999,None,1487.623200345999,None,c,1,2.3028974099979678,1489.1586281749987,None,1489.1586281749987,None,1489.1586281749987,None,1491.5396564759976,None,1491.5396564759976,None,1491.5396564759976,None,1491.5396564759976,None,,,,,,,,,,,,,,,,,,,,,,,,,,,,,,,,,,,,,,,,,,,,001,136,2020_Feb_18_1353,spring_faces,3.1.5,60.039894589317676,
condition files/Stage1_2.xlsx,,T4,B4,m,"['c', 'm']","['Clue', 'Monopoly']","[-0.15, 0.5]","[0.15, 0.5]",1,1,,,,,,,,,0,9,9,9,0,5,5,7,,,,,,,,,,,,,,,,,,,,,,,,,,,,,,,,,,,,,,,,,,,,,,,,,,,,,,,1493.4897702609996,None,1493.4897702609996,None,1493.4897702609996,None,m,1,1.4281768660002854,1495.0252827139993,None,1495.0252827139993,None,1495.0252827139993,None,1496.5230717759987,None,1496.5230717759987,None,1496.5230717759987,None,1496.5230717759987,None,,,,,,,,,,,,,,,,,,,,,,,,,,,,,,,,,,,,,,,,,,,,001,136,2020_Feb_18_1353,spring_faces,3.1.5,60.039894589317676,
condition files/Stage1_2.xlsx,,B4,T3,c,"['c', 'm']","['Clue', 'Monopoly']","[-0.15, 0.5]","[0.15, 0.5]",1,1,,,,,,,,,0,9,9,9,0,6,6,5,,,,,,,,,,,,,,,,,,,,,,,,,,,,,,,,,,,,,,,,,,,,,,,,,,,,,,,1498.4728583329997,None,1498.4728583329997,None,1498.4728583329997,None,m,0,2.606046790999244,1500.0075475599988,None,1500.0075475599988,None,1500.0075475599988,None,1502.675189993999,None,1502.675189993999,None,1502.675189993999,None,1502.675189993999,None,,,,,,,,,,,,,,,,,,,,,,,,,,,,,,,,,,,,,,,,,,,,001,136,2020_Feb_18_1353,spring_faces,3.1.5,60.039894589317676,
condition files/Stage1_2.xlsx,,B3,T4,m,"['c', 'm']","['Clue', 'Monopoly']","[-0.15, 0.5]","[0.15, 0.5]",1,1,,,,,,,,,0,9,9,9,0,7,7,6,,,,,,,,,,,,,,,,,,,,,,,,,,,,,,,,,,,,,,,,,,,,,,,,,,,,,,,1504.639182900999,None,1504.639182900999,None,1504.639182900999,None,m,1,1.895534873001452,1506.1899136459979,None,1506.1899136459979,None,1506.1899136459979,None,1508.1424408189996,None,1508.1424408189996,None,1508.1424408189996,None,1508.1424408189996,None,,,,,,,,,,,,,,,,,,,,,,,,,,,,,,,,,,,,,,,,,,,,001,136,2020_Feb_18_1353,spring_faces,3.1.5,60.039894589317676,
condition files/Stage1_1.xlsx,,T3,B4,c,"['c', 'm']","['Clue', 'Monopoly']","[-0.15, 0.5]","[0.15, 0.5]",1,1,,,,,,,,,0,10,10,10,0,0,0,5,,,,,,,,,,,,,,,,,,,,,,,,,,,,,,,,,,,,,,,,,,,,,,,,,,,,,,,1510.1235542180002,None,1510.1235542180002,None,1510.1235542180002,None,c,1,1.4359954800020205,1511.6575952499988,None,1511.6575952499988,None,1511.6575952499988,None,1513.173157178,None,1513.173157178,None,1513.173157178,None,1513.173157178,None,,,,,,,,,,,,,,,,,,,,,,,,,,,,,,,,,,,,,,,,,,,,001,136,2020_Feb_18_1353,spring_faces,3.1.5,60.039894589317676,
condition files/Stage1_1.xlsx,,B2,T1,m,"['c', 'm']","['Clue', 'Monopoly']","[-0.15, 0.5]","[0.15, 0.5]",1,1,,,,,,,,,0,10,10,10,0,1,1,2,,,,,,,,,,,,,,,,,,,,,,,,,,,,,,,,,,,,,,,,,,,,,,,,,,,,,,,1515.1233071669994,None,1515.1233071669994,None,1515.1233071669994,None,m,1,1.476071065000724,1516.673387177998,None,1516.673387177998,None,1516.673387177998,None,1518.2081675499976,None,1518.2081675499976,None,1518.2081675499976,None,1518.2081675499976,None,,,,,,,,,,,,,,,,,,,,,,,,,,,,,,,,,,,,,,,,,,,,001,136,2020_Feb_18_1353,spring_faces,3.1.5,60.039894589317676,
condition files/Stage1_1.xlsx,,B3,T3,c,"['c', 'm']","['Clue', 'Monopoly']","[-0.15, 0.5]","[0.15, 0.5]",1,1,,,,,,,,,0,10,10,10,0,2,2,4,,,,,,,,,,,,,,,,,,,,,,,,,,,,,,,,,,,,,,,,,,,,,,,,,,,,,,,1520.1724772979978,None,1520.1724772979978,None,1520.1724772979978,None,c,1,1.7541833499999484,1521.7233170420004,None,1521.7233170420004,None,1521.7233170420004,None,1523.5562044409999,None,1523.5562044409999,None,1523.5562044409999,None,1523.5562044409999,None,,,,,,,,,,,,,,,,,,,,,,,,,,,,,,,,,,,,,,,,,,,,001,136,2020_Feb_18_1353,spring_faces,3.1.5,60.039894589317676,
condition files/Stage1_1.xlsx,,B1,T2,c,"['c', 'm']","['Clue', 'Monopoly']","[-0.15, 0.5]","[0.15, 0.5]",1,1,,,,,,,,,0,10,10,10,0,3,3,1,,,,,,,,,,,,,,,,,,,,,,,,,,,,,,,,,,,,,,,,,,,,,,,,,,,,,,,1525.5064641629979,None,1525.5064641629979,None,1525.5064641629979,None,c,1,1.077108802001021,1527.040373931999,None,1527.040373931999,None,1527.040373931999,None,1528.17342069,None,1528.17342069,None,1528.17342069,None,1528.17342069,None,,,,,,,,,,,,,,,,,,,,,,,,,,,,,,,,,,,,,,,,,,,,001,136,2020_Feb_18_1353,spring_faces,3.1.5,60.039894589317676,
condition files/Stage1_1.xlsx,,B4,T4,m,"['c', 'm']","['Clue', 'Monopoly']","[-0.15, 0.5]","[0.15, 0.5]",1,1,,,,,,,,,0,10,10,10,0,4,4,7,,,,,,,,,,,,,,,,,,,,,,,,,,,,,,,,,,,,,,,,,,,,,,,,,,,,,,,1530.1395408619974,None,1530.1395408619974,None,1530.1395408619974,None,m,1,1.1313480529970548,1531.6901523859997,None,1531.6901523859997,None,1531.6901523859997,None,1532.8895499889986,None,1532.8895499889986,None,1532.8895499889986,None,1532.8895499889986,None,,,,,,,,,,,,,,,,,,,,,,,,,,,,,,,,,,,,,,,,,,,,001,136,2020_Feb_18_1353,spring_faces,3.1.5,60.039894589317676,
condition files/Stage1_1.xlsx,,T2,B2,m,"['c', 'm']","['Clue', 'Monopoly']","[-0.15, 0.5]","[0.15, 0.5]",1,1,,,,,,,,,0,10,10,10,0,5,5,3,,,,,,,,,,,,,,,,,,,,,,,,,,,,,,,,,,,,,,,,,,,,,,,,,,,,,,,1534.8392853709993,None,1534.8392853709993,None,1534.8392853709993,None,m,1,0.6708108259990695,1536.3747514610004,None,1536.3747514610004,None,1536.3747514610004,None,1537.1066108689993,None,1537.1066108689993,None,1537.1066108689993,None,1537.1066108689993,None,,,,,,,,,,,,,,,,,,,,,,,,,,,,,,,,,,,,,,,,,,,,001,136,2020_Feb_18_1353,spring_faces,3.1.5,60.039894589317676,
condition files/Stage1_1.xlsx,,T1,B1,c,"['c', 'm']","['Clue', 'Monopoly']","[-0.15, 0.5]","[0.15, 0.5]",1,1,,,,,,,,,0,10,10,10,0,6,6,0,,,,,,,,,,,,,,,,,,,,,,,,,,,,,,,,,,,,,,,,,,,,,,,,,,,,,,,1539.0730825329993,None,1539.0730825329993,None,1539.0730825329993,None,c,1,0.9498050110014447,1540.6076605239978,None,1540.6076605239978,None,1540.6076605239978,None,1541.6398523850003,None,1541.6398523850003,None,1541.6398523850003,None,1541.6398523850003,None,,,,,,,,,,,,,,,,,,,,,,,,,,,,,,,,,,,,,,,,,,,,001,136,2020_Feb_18_1353,spring_faces,3.1.5,60.039894589317676,
condition files/Stage1_1.xlsx,,T4,B3,m,"['c', 'm']","['Clue', 'Monopoly']","[-0.15, 0.5]","[0.15, 0.5]",1,1,,,,,,,,,0,10,10,10,0,7,7,6,,,,,,,,,,,,,,,,,,,,,,,,,,,,,,,,,,,,,,,,,,,,,,,,,,,,,,,1543.5893193029988,None,1543.5893193029988,None,1543.5893193029988,None,c,0,2.4652881949987204,1545.1402027740005,None,1545.1402027740005,None,1545.1402027740005,None,1547.6582196989984,None,1547.6582196989984,None,1547.6582196989984,None,1547.6582196989984,None,,,,,,,,,,,,,,,,,,,,,,,,,,,,,,,,,,,,,,,,,,,,001,136,2020_Feb_18_1353,spring_faces,3.1.5,60.039894589317676,
condition files/Stage1_2.xlsx,,T3,B3,c,"['c', 'm']","['Clue', 'Monopoly']","[-0.15, 0.5]","[0.15, 0.5]",1,1,,,,,,,,,0,11,11,11,0,0,0,4,,,,,,,,,,,,,,,,,,,,,,,,,,,,,,,,,,,,,,,,,,,,,,,,,,,,,,,1549.6400426250002,None,1549.6400426250002,None,1549.6400426250002,None,c,1,1.3277912830017158,1551.1897792109994,None,1551.1897792109994,None,1551.1897792109994,None,1552.589647173998,None,1552.589647173998,None,1552.589647173998,None,1552.589647173998,None,,,,,,,,,,,,,,,,,,,,,,,,,,,,,,,,,,,,,,,,,,,,001,136,2020_Feb_18_1353,spring_faces,3.1.5,60.039894589317676,
condition files/Stage1_2.xlsx,,B1,T1,c,"['c', 'm']","['Clue', 'Monopoly']","[-0.15, 0.5]","[0.15, 0.5]",1,1,,,,,,,,,0,11,11,11,0,1,1,0,,,,,,,,,,,,,,,,,,,,,,,,,,,,,,,,,,,,,,,,,,,,,,,,,,,,,,,1554.5395882379999,None,1554.5395882379999,None,1554.5395882379999,None,c,1,0.9563660380008514,1556.0732310919993,None,1556.0732310919993,None,1556.0732310919993,None,1557.0899676029985,None,1557.0899676029985,None,1557.0899676029985,None,1557.0899676029985,None,,,,,,,,,,,,,,,,,,,,,,,,,,,,,,,,,,,,,,,,,,,,001,136,2020_Feb_18_1353,spring_faces,3.1.5,60.039894589317676,
condition files/Stage1_2.xlsx,,T1,B2,m,"['c', 'm']","['Clue', 'Monopoly']","[-0.15, 0.5]","[0.15, 0.5]",1,1,,,,,,,,,0,11,11,11,0,2,2,2,,,,,,,,,,,,,,,,,,,,,,,,,,,,,,,,,,,,,,,,,,,,,,,,,,,,,,,1559.0559983729981,None,1559.0559983729981,None,1559.0559983729981,None,m,1,1.4627756390000286,1560.606751395997,None,1560.606751395997,None,1560.606751395997,None,1562.1254128999972,None,1562.1254128999972,None,1562.1254128999972,None,1562.1254128999972,None,,,,,,,,,,,,,,,,,,,,,,,,,,,,,,,,,,,,,,,,,,,,001,136,2020_Feb_18_1353,spring_faces,3.1.5,60.039894589317676,
condition files/Stage1_2.xlsx,,T4,B4,m,"['c', 'm']","['Clue', 'Monopoly']","[-0.15, 0.5]","[0.15, 0.5]",1,1,,,,,,,,,0,11,11,11,0,3,3,7,,,,,,,,,,,,,,,,,,,,,,,,,,,,,,,,,,,,,,,,,,,,,,,,,,,,,,,1564.089717474999,None,1564.089717474999,None,1564.089717474999,None,c,0,1.2609531150010298,1565.6245471669972,None,1565.6245471669972,None,1565.6245471669972,None,1566.9399084189972,None,1566.9399084189972,None,1566.9399084189972,None,1566.9399084189972,None,,,,,,,,,,,,,,,,,,,,,,,,,,,,,,,,,,,,,,,,,,,,001,136,2020_Feb_18_1353,spring_faces,3.1.5,60.039894589317676,
condition files/Stage1_2.xlsx,,B2,T2,m,"['c', 'm']","['Clue', 'Monopoly']","[-0.15, 0.5]","[0.15, 0.5]",1,1,,,,,,,,,0,11,11,11,0,4,4,3,,,,,,,,,,,,,,,,,,,,,,,,,,,,,,,,,,,,,,,,,,,,,,,,,,,,,,,1568.906332994,None,1568.906332994,None,1568.906332994,None,m,1,0.04482506400017883,1570.4566693169982,None,1570.4566693169982,None,1570.4566693169982,None,1570.556200283998,None,1570.556200283998,None,1570.556200283998,None,1570.556200283998,None,,,,,,,,,,,,,,,,,,,,,,,,,,,,,,,,,,,,,,,,,,,,001,136,2020_Feb_18_1353,spring_faces,3.1.5,60.039894589317676,
condition files/Stage1_2.xlsx,,B4,T3,c,"['c', 'm']","['Clue', 'Monopoly']","[-0.15, 0.5]","[0.15, 0.5]",1,1,,,,,,,,,0,11,11,11,0,5,5,5,,,,,,,,,,,,,,,,,,,,,,,,,,,,,,,,,,,,,,,,,,,,,,,,,,,,,,,1572.5229195249995,None,1572.5229195249995,None,1572.5229195249995,None,c,1,0.6041954400025134,1574.0573435519982,None,1574.0573435519982,None,1574.0573435519982,None,1574.723372589,None,1574.723372589,None,1574.723372589,None,1574.723372589,None,,,,,,,,,,,,,,,,,,,,,,,,,,,,,,,,,,,,,,,,,,,,001,136,2020_Feb_18_1353,spring_faces,3.1.5,60.039894589317676,
condition files/Stage1_2.xlsx,,B3,T4,m,"['c', 'm']","['Clue', 'Monopoly']","[-0.15, 0.5]","[0.15, 0.5]",1,1,,,,,,,,,0,11,11,11,0,6,6,6,,,,,,,,,,,,,,,,,,,,,,,,,,,,,,,,,,,,,,,,,,,,,,,,,,,,,,,1576.6896466109974,None,1576.6896466109974,None,1576.6896466109974,None,m,1,1.6861550089997763,1578.2233695169998,None,1578.2233695169998,None,1578.2233695169998,None,1579.9759522450004,None,1579.9759522450004,None,1579.9759522450004,None,1579.9759522450004,None,,,,,,,,,,,,,,,,,,,,,,,,,,,,,,,,,,,,,,,,,,,,001,136,2020_Feb_18_1353,spring_faces,3.1.5,60.039894589317676,
condition files/Stage1_2.xlsx,,T2,B1,c,"['c', 'm']","['Clue', 'Monopoly']","[-0.15, 0.5]","[0.15, 0.5]",1,1,,,,,,,,,0,11,11,11,0,7,7,1,,,,,,,,,,,,,,,,,,,,,,,,,,,,,,,,,,,,,,,,,,,,,,,,,,,,,,,1581.9397385939992,None,1581.9397385939992,None,1581.9397385939992,None,c,1,4.3566914279981575,1583.4729045059976,None,1583.4729045059976,None,1583.4729045059976,None,1587.8897278359982,None,1587.8897278359982,None,1587.8897278359982,None,1587.8897278359982,None,,,,,,,,,,,,,,,,,,,,,,,,,,,,,,,,,,,,,,,,,,,,001,136,2020_Feb_18_1353,spring_faces,3.1.5,60.039894589317676,
,,,,,,,,,,,,,,,,,,,,,,,,,,,,,,,,,,,,,,,,,,,,,,,,,,,,,,,,,,,,,,,,,,,,,,,,,,,,,,,,,,,,,,,,,,,,,,,,,,,,,,,,,,,,,,,,1589.8730882409982,None,space,9.116438231001666,1594.8730909519982,None,,,,,,,,,,,,,,,,,,,,,,,,,,,,,,001,136,2020_Feb_18_1353,spring_faces,3.1.5,60.039894589317676,
condition files/Stage2_1.xlsx,,B6,T6,r,"['s', 'r']","['Stratego', 'Risk']","[-0.15, 0.5]","[0.15, 0.5]",1,1,,,,,,,,,,,,,,,,,0,0,0,0,0,0,0,1,,,,,,,,,,,,,,,,,,,,,,,,,,,,,,,,,,,,,,,,,,,,,,,1604.039895299,None,1604.039895299,None,1604.039895299,None,s,0,2.4640166530007264,1605.5734974599982,None,1605.5734974599982,None,1605.5734974599982,None,1608.0897434029976,None,1608.0897434029976,None,1608.0897434029976,None,1608.0897434029976,None,,,,,,,,,,,,,,,1594.8730909519982,None,,,,,,,,,,,,,,,,,,,,,,,,,,,,001,136,2020_Feb_18_1353,spring_faces,3.1.5,60.039894589317676,
condition files/Stage2_1.xlsx,,T3,B3,s,"['s', 'r']","['Stratego', 'Risk']","[-0.15, 0.5]","[0.15, 0.5]",1,1,,,,,,,,,,,,,,,,,0,0,0,0,0,1,1,4,,,,,,,,,,,,,,,,,,,,,,,,,,,,,,,,,,,,,,,,,,,,,,,1610.0557940809995,None,1610.0557940809995,None,1610.0557940809995,None,r,0,1.4382958229980431,1611.5912972869992,None,1611.5912972869992,None,1611.5912972869992,None,1613.1060487769973,None,1613.1060487769973,None,1613.1060487769973,None,1613.1060487769973,None,,,,,,,,,,,,,,,,,,,,,,,,,,,,,,,,,,,,,,,,,,,,001,136,2020_Feb_18_1353,spring_faces,3.1.5,60.039894589317676,
condition files/Stage2_1.xlsx,,B2,T2,r,"['s', 'r']","['Stratego', 'Risk']","[-0.15, 0.5]","[0.15, 0.5]",1,1,,,,,,,,,,,,,,,,,0,0,0,0,0,2,2,3,,,,,,,,,,,,,,,,,,,,,,,,,,,,,,,,,,,,,,,,,,,,,,,1615.0564772609978,None,1615.0564772609978,None,1615.0564772609978,None,r,1,1.2703010229997744,1616.5912481179985,None,1616.5912481179985,None,1616.5912481179985,None,1617.9238885239974,None,1617.9238885239974,None,1617.9238885239974,None,1617.9238885239974,None,,,,,,,,,,,,,,,,,,,,,,,,,,,,,,,,,,,,,,,,,,,,001,136,2020_Feb_18_1353,spring_faces,3.1.5,60.039894589317676,
condition files/Stage2_1.xlsx,,T5,B5,s,"['s', 'r']","['Stratego', 'Risk']","[-0.15, 0.5]","[0.15, 0.5]",1,1,,,,,,,,,,,,,,,,,0,0,0,0,0,3,3,0,,,,,,,,,,,,,,,,,,,,,,,,,,,,,,,,,,,,,,,,,,,,,,,1619.8897173579971,None,1619.8897173579971,None,1619.8897173579971,None,s,1,1.525656818997959,1621.423817256,None,1621.423817256,None,1621.423817256,None,1623.0082182139995,None,1623.0082182139995,None,1623.0082182139995,None,1623.0082182139995,None,,,,,,,,,,,,,,,,,,,,,,,,,,,,,,,,,,,,,,,,,,,,001,136,2020_Feb_18_1353,spring_faces,3.1.5,60.039894589317676,
condition files/Stage2_1.xlsx,,T1,B1,s,"['s', 'r']","['Stratego', 'Risk']","[-0.15, 0.5]","[0.15, 0.5]",1,1,,,,,,,,,,,,,,,,,0,0,0,0,0,4,4,2,,,,,,,,,,,,,,,,,,,,,,,,,,,,,,,,,,,,,,,,,,,,,,,1624.9727939619988,None,1624.9727939619988,None,1624.9727939619988,None,r,0,1.0824702450008772,1626.5070569609998,None,1626.5070569609998,None,1626.5070569609998,None,1627.6397876439987,None,1627.6397876439987,None,1627.6397876439987,None,1627.6397876439987,None,,,,,,,,,,,,,,,,,,,,,,,,,,,,,,,,,,,,,,,,,,,,001,136,2020_Feb_18_1353,spring_faces,3.1.5,60.039894589317676,
condition files/Stage2_1.xlsx,,B4,T4,r,"['s', 'r']","['Stratego', 'Risk']","[-0.15, 0.5]","[0.15, 0.5]",1,1,,,,,,,,,,,,,,,,,0,0,0,0,0,5,5,5,,,,,,,,,,,,,,,,,,,,,,,,,,,,,,,,,,,,,,,,,,,,,,,1629.606260679997,None,1629.606260679997,None,1629.606260679997,None,s,0,1.664512855000794,1631.1409943289982,None,1631.1409943289982,None,1631.1409943289982,None,1632.8735948679969,None,1632.8735948679969,None,1632.8735948679969,None,1632.8735948679969,None,,,,,,,,,,,,,,,,,,,,,,,,,,,,,,,,,,,,,,,,,,,,001,136,2020_Feb_18_1353,spring_faces,3.1.5,60.039894589317676,
condition files/Stage2_2.xlsx,,T4,B4,r,"['s', 'r']","['Stratego', 'Risk']","[-0.15, 0.5]","[0.15, 0.5]",1,1,,,,,,,,,,,,,,,,,0,1,1,1,0,0,0,5,,,,,,,,,,,,,,,,,,,,,,,,,,,,,,,,,,,,,,,,,,,,,,,1634.84024374,None,1634.84024374,None,1634.84024374,None,r,1,1.5035323850024724,1636.389993855999,None,1636.389993855999,None,1636.389993855999,None,1637.9561785839978,None,1637.9561785839978,None,1637.9561785839978,None,1637.9561785839978,None,,,,,,,,,,,,,,,,,,,,,,,,,,,,,,,,,,,,,,,,,,,,001,136,2020_Feb_18_1353,spring_faces,3.1.5,60.039894589317676,
condition files/Stage2_2.xlsx,,B3,T3,s,"['s', 'r']","['Stratego', 'Risk']","[-0.15, 0.5]","[0.15, 0.5]",1,1,,,,,,,,,,,,,,,,,0,1,1,1,0,1,1,4,,,,,,,,,,,,,,,,,,,,,,,,,,,,,,,,,,,,,,,,,,,,,,,1639.923053360999,None,1639.923053360999,None,1639.923053360999,None,r,0,0.8839142869983334,1641.4735634629978,None,1641.4735634629978,None,1641.4735634629978,None,1642.4261559909974,None,1642.4261559909974,None,1642.4261559909974,None,1642.4261559909974,None,,,,,,,,,,,,,,,,,,,,,,,,,,,,,,,,,,,,,,,,,,,,001,136,2020_Feb_18_1353,spring_faces,3.1.5,60.039894589317676,
condition files/Stage2_2.xlsx,,T6,B6,r,"['s', 'r']","['Stratego', 'Risk']","[-0.15, 0.5]","[0.15, 0.5]",1,1,,,,,,,,,,,,,,,,,0,1,1,1,0,2,2,1,,,,,,,,,,,,,,,,,,,,,,,,,,,,,,,,,,,,,,,,,,,,,,,1644.3895919850002,None,1644.3895919850002,None,1644.3895919850002,None,s,0,0.25650434300041525,1645.925065427,None,1645.925065427,None,1645.925065427,None,1646.239803409997,None,1646.239803409997,None,1646.239803409997,None,1646.239803409997,None,,,,,,,,,,,,,,,,,,,,,,,,,,,,,,,,,,,,,,,,,,,,001,136,2020_Feb_18_1353,spring_faces,3.1.5,60.039894589317676,
condition files/Stage2_2.xlsx,,B5,T5,s,"['s', 'r']","['Stratego', 'Risk']","[-0.15, 0.5]","[0.15, 0.5]",1,1,,,,,,,,,,,,,,,,,0,1,1,1,0,3,3,0,,,,,,,,,,,,,,,,,,,,,,,,,,,,,,,,,,,,,,,,,,,,,,,1648.206277819998,None,1648.206277819998,None,1648.206277819998,None,r,0,0.4889118720020633,1649.7566504589995,None,1649.7566504589995,None,1649.7566504589995,None,1650.3080477570002,None,1650.3080477570002,None,1650.3080477570002,None,1650.3080477570002,None,,,,,,,,,,,,,,,,,,,,,,,,,,,,,,,,,,,,,,,,,,,,001,136,2020_Feb_18_1353,spring_faces,3.1.5,60.039894589317676,
condition files/Stage2_2.xlsx,,T2,B2,r,"['s', 'r']","['Stratego', 'Risk']","[-0.15, 0.5]","[0.15, 0.5]",1,1,,,,,,,,,,,,,,,,,0,1,1,1,0,4,4,3,,,,,,,,,,,,,,,,,,,,,,,,,,,,,,,,,,,,,,,,,,,,,,,1652.2728849499981,None,1652.2728849499981,None,1652.2728849499981,None,s,0,0.39138576299956185,1653.8062067899991,None,1653.8062067899991,None,1653.8062067899991,None,1654.2734346439975,None,1654.2734346439975,None,1654.2734346439975,None,1654.2734346439975,None,,,,,,,,,,,,,,,,,,,,,,,,,,,,,,,,,,,,,,,,,,,,001,136,2020_Feb_18_1353,spring_faces,3.1.5,60.039894589317676,
condition files/Stage2_2.xlsx,,B1,T1,s,"['s', 'r']","['Stratego', 'Risk']","[-0.15, 0.5]","[0.15, 0.5]",1,1,,,,,,,,,,,,,,,,,0,1,1,1,0,5,5,2,,,,,,,,,,,,,,,,,,,,,,,,,,,,,,,,,,,,,,,,,,,,,,,1656.2223785419992,None,1656.2223785419992,None,1656.2223785419992,None,r,0,0.28008782699907897,1657.757455052997,None,1657.757455052997,None,1657.757455052997,None,1658.091364658998,None,1658.091364658998,None,1658.091364658998,None,1658.091364658998,None,,,,,,,,,,,,,,,,,,,,,,,,,,,,,,,,,,,,,,,,,,,,001,136,2020_Feb_18_1353,spring_faces,3.1.5,60.039894589317676,
condition files/Stage2_1.xlsx,,B4,T4,r,"['s', 'r']","['Stratego', 'Risk']","[-0.15, 0.5]","[0.15, 0.5]",1,1,,,,,,,,,,,,,,,,,0,2,2,2,0,0,0,5,,,,,,,,,,,,,,,,,,,,,,,,,,,,,,,,,,,,,,,,,,,,,,,1660.0727113569992,None,1660.0727113569992,None,1660.0727113569992,None,r,1,0.015503987997362856,None,None,None,None,None,None,1661.6564039160003,None,1661.6564039160003,None,1661.6564039160003,None,1661.6564039160003,None,,,,,,,,,,,,,,,,,,,,,,,,,,,,,,,,,,,,,,,,,,,,001,136,2020_Feb_18_1353,spring_faces,3.1.5,60.039894589317676,
condition files/Stage2_1.xlsx,,B6,T6,r,"['s', 'r']","['Stratego', 'Risk']","[-0.15, 0.5]","[0.15, 0.5]",1,1,,,,,,,,,,,,,,,,,0,2,2,2,0,1,1,1,,,,,,,,,,,,,,,,,,,,,,,,,,,,,,,,,,,,,,,,,,,,,,,1663.6231203919997,None,1663.6231203919997,None,1663.6231203919997,None,s,0,0.2243941230008204,1665.1571980519984,None,1665.1571980519984,None,1665.1571980519984,None,1665.4393514039984,None,1665.4393514039984,None,1665.4393514039984,None,1665.4393514039984,None,,,,,,,,,,,,,,,,,,,,,,,,,,,,,,,,,,,,,,,,,,,,001,136,2020_Feb_18_1353,spring_faces,3.1.5,60.039894589317676,
condition files/Stage2_1.xlsx,,T5,B5,s,"['s', 'r']","['Stratego', 'Risk']","[-0.15, 0.5]","[0.15, 0.5]",1,1,,,,,,,,,,,,,,,,,0,2,2,2,0,2,2,0,,,,,,,,,,,,,,,,,,,,,,,,,,,,,,,,,,,,,,,,,,,,,,,1667.406373851998,None,1667.406373851998,None,1667.406373851998,None,r,0,0.9046824059987557,1668.9568395129972,None,1668.9568395129972,None,1668.9568395129972,None,1669.9252767409998,None,1669.9252767409998,None,1669.9252767409998,None,1669.9252767409998,None,,,,,,,,,,,,,,,,,,,,,,,,,,,,,,,,,,,,,,,,,,,,001,136,2020_Feb_18_1353,spring_faces,3.1.5,60.039894589317676,
condition files/Stage2_1.xlsx,,T3,B3,s,"['s', 'r']","['Stratego', 'Risk']","[-0.15, 0.5]","[0.15, 0.5]",1,1,,,,,,,,,,,,,,,,,0,2,2,2,0,3,3,4,,,,,,,,,,,,,,,,,,,,,,,,,,,,,,,,,,,,,,,,,,,,,,,1671.8896935949997,None,1671.8896935949997,None,1671.8896935949997,None,r,0,1.2528548990012496,1673.424680426997,None,1673.424680426997,None,1673.424680426997,None,1674.739879040997,None,1674.739879040997,None,1674.739879040997,None,1674.739879040997,None,,,,,,,,,,,,,,,,,,,,,,,,,,,,,,,,,,,,,,,,,,,,001,136,2020_Feb_18_1353,spring_faces,3.1.5,60.039894589317676,
condition files/Stage2_1.xlsx,,T1,B1,s,"['s', 'r']","['Stratego', 'Risk']","[-0.15, 0.5]","[0.15, 0.5]",1,1,,,,,,,,,,,,,,,,,0,2,2,2,0,4,4,2,,,,,,,,,,,,,,,,,,,,,,,,,,,,,,,,,,,,,,,,,,,,,,,1676.7061103369997,None,1676.7061103369997,None,1676.7061103369997,None,r,0,2.036825797000347,1678.2407090699999,None,1678.2407090699999,None,1678.2407090699999,None,1680.3396819169975,None,1680.3396819169975,None,1680.3396819169975,None,1680.3396819169975,None,,,,,,,,,,,,,,,,,,,,,,,,,,,,,,,,,,,,,,,,,,,,001,136,2020_Feb_18_1353,spring_faces,3.1.5,60.039894589317676,
condition files/Stage2_1.xlsx,,B2,T2,r,"['s', 'r']","['Stratego', 'Risk']","[-0.15, 0.5]","[0.15, 0.5]",1,1,,,,,,,,,,,,,,,,,0,2,2,2,0,5,5,3,,,,,,,,,,,,,,,,,,,,,,,,,,,,,,,,,,,,,,,,,,,,,,,1682.3064911499969,None,1682.3064911499969,None,1682.3064911499969,None,r,1,0.6604164349992061,1683.8410913549997,None,1683.8410913549997,None,1683.8410913549997,None,1684.5733838639972,None,1684.5733838639972,None,1684.5733838639972,None,1684.5733838639972,None,,,,,,,,,,,,,,,,,,,,,,,,,,,,,,,,,,,,,,,,,,,,001,136,2020_Feb_18_1353,spring_faces,3.1.5,60.039894589317676,
condition files/Stage2_2.xlsx,,B1,T1,s,"['s', 'r']","['Stratego', 'Risk']","[-0.15, 0.5]","[0.15, 0.5]",1,1,,,,,,,,,,,,,,,,,0,3,3,3,0,0,0,2,,,,,,,,,,,,,,,,,,,,,,,,,,,,,,,,,,,,,,,,,,,,,,,1686.5403210139993,None,1686.5403210139993,None,1686.5403210139993,None,s,1,0.9703340550004214,1688.0752499349983,None,1688.0752499349983,None,1688.0752499349983,None,1689.1233106239997,None,1689.1233106239997,None,1689.1233106239997,None,1689.1233106239997,None,,,,,,,,,,,,,,,,,,,,,,,,,,,,,,,,,,,,,,,,,,,,001,136,2020_Feb_18_1353,spring_faces,3.1.5,60.039894589317676,
condition files/Stage2_2.xlsx,,B5,T5,s,"['s', 'r']","['Stratego', 'Risk']","[-0.15, 0.5]","[0.15, 0.5]",1,1,,,,,,,,,,,,,,,,,0,3,3,3,0,1,1,0,,,,,,,,,,,,,,,,,,,,,,,,,,,,,,,,,,,,,,,,,,,,,,,1691.0731350969982,None,1691.0731350969982,None,1691.0731350969982,None,s,1,0.9668055129986897,1692.6226868039994,None,1692.6226868039994,None,1692.6226868039994,None,1693.6403925179984,None,1693.6403925179984,None,1693.6403925179984,None,1693.6403925179984,None,,,,,,,,,,,,,,,,,,,,,,,,,,,,,,,,,,,,,,,,,,,,001,136,2020_Feb_18_1353,spring_faces,3.1.5,60.039894589317676,
condition files/Stage2_2.xlsx,,T4,B4,r,"['s', 'r']","['Stratego', 'Risk']","[-0.15, 0.5]","[0.15, 0.5]",1,1,,,,,,,,,,,,,,,,,0,3,3,3,0,2,2,5,,,,,,,,,,,,,,,,,,,,,,,,,,,,,,,,,,,,,,,,,,,,,,,1695.6063524809979,None,1695.6063524809979,None,1695.6063524809979,None,r,1,1.4720828200006508,1697.141498645,None,1697.141498645,None,1697.141498645,None,1698.6893056539993,None,1698.6893056539993,None,1698.6893056539993,None,1698.6893056539993,None,,,,,,,,,,,,,,,,,,,,,,,,,,,,,,,,,,,,,,,,,,,,001,136,2020_Feb_18_1353,spring_faces,3.1.5,60.039894589317676,
condition files/Stage2_2.xlsx,,B3,T3,s,"['s', 'r']","['Stratego', 'Risk']","[-0.15, 0.5]","[0.15, 0.5]",1,1,,,,,,,,,,,,,,,,,0,3,3,3,0,3,3,4,,,,,,,,,,,,,,,,,,,,,,,,,,,,,,,,,,,,,,,,,,,,,,,1700.6397824769992,None,1700.6397824769992,None,1700.6397824769992,None,s,1,1.799571671999729,1702.1739107299982,None,1702.1739107299982,None,1702.1739107299982,None,1704.056244995998,None,1704.056244995998,None,1704.056244995998,None,1704.056244995998,None,,,,,,,,,,,,,,,,,,,,,,,,,,,,,,,,,,,,,,,,,,,,001,136,2020_Feb_18_1353,spring_faces,3.1.5,60.039894589317676,
condition files/Stage2_2.xlsx,,T6,B6,r,"['s', 'r']","['Stratego', 'Risk']","[-0.15, 0.5]","[0.15, 0.5]",1,1,,,,,,,,,,,,,,,,,0,3,3,3,0,4,4,1,,,,,,,,,,,,,,,,,,,,,,,,,,,,,,,,,,,,,,,,,,,,,,,1706.0060531029994,None,1706.0060531029994,None,1706.0060531029994,None,r,1,1.1215492080009426,1707.5559668099995,None,1707.5559668099995,None,1707.5559668099995,None,1708.756402567,None,1708.756402567,None,1708.756402567,None,1708.756402567,None,,,,,,,,,,,,,,,,,,,,,,,,,,,,,,,,,,,,,,,,,,,,001,136,2020_Feb_18_1353,spring_faces,3.1.5,60.039894589317676,
condition files/Stage2_2.xlsx,,T2,B2,r,"['s', 'r']","['Stratego', 'Risk']","[-0.15, 0.5]","[0.15, 0.5]",1,1,,,,,,,,,,,,,,,,,0,3,3,3,0,5,5,3,,,,,,,,,,,,,,,,,,,,,,,,,,,,,,,,,,,,,,,,,,,,,,,1710.7064871759976,None,1710.7064871759976,None,1710.7064871759976,None,r,1,1.651921766999294,1712.241615652998,None,1712.241615652998,None,1712.241615652998,None,1713.9563374729987,None,1713.9563374729987,None,1713.9563374729987,None,1713.9563374729987,None,,,,,,,,,,,,,,,,,,,,,,,,,,,,,,,,,,,,,,,,,,,,001,136,2020_Feb_18_1353,spring_faces,3.1.5,60.039894589317676,
condition files/Stage2_1.xlsx,,B6,T6,r,"['s', 'r']","['Stratego', 'Risk']","[-0.15, 0.5]","[0.15, 0.5]",1,1,,,,,,,,,,,,,,,,,0,4,4,4,0,0,0,1,,,,,,,,,,,,,,,,,,,,,,,,,,,,,,,,,,,,,,,,,,,,,,,1715.9395901369971,None,1715.9395901369971,None,1715.9395901369971,None,s,0,2.4353061500005424,1717.4742425879995,None,1717.4742425879995,None,1717.4742425879995,None,1719.9732724799978,None,1719.9732724799978,None,1719.9732724799978,None,1719.9732724799978,None,,,,,,,,,,,,,,,,,,,,,,,,,,,,,,,,,,,,,,,,,,,,001,136,2020_Feb_18_1353,spring_faces,3.1.5,60.039894589317676,
condition files/Stage2_1.xlsx,,B2,T2,r,"['s', 'r']","['Stratego', 'Risk']","[-0.15, 0.5]","[0.15, 0.5]",1,1,,,,,,,,,,,,,,,,,0,4,4,4,0,1,1,3,,,,,,,,,,,,,,,,,,,,,,,,,,,,,,,,,,,,,,,,,,,,,,,1721.9398939389976,None,1721.9398939389976,None,1721.9398939389976,None,r,1,0.8521735489994171,1723.4893374370004,None,1723.4893374370004,None,1723.4893374370004,None,1724.4062346799983,None,1724.4062346799983,None,1724.4062346799983,None,1724.4062346799983,None,,,,,,,,,,,,,,,,,,,,,,,,,,,,,,,,,,,,,,,,,,,,001,136,2020_Feb_18_1353,spring_faces,3.1.5,60.039894589317676,
