condsFile,subStage,cue1,cue2,correct,responseKeys,responseNames,cue1Position,cue2Position,cue1Opacity,cue2Opacity,stageLoop0.thisRepN,stageLoop0.thisTrialN,stageLoop0.thisN,stageLoop0.thisIndex,blockLoop0.thisRepN,blockLoop0.thisTrialN,blockLoop0.thisN,blockLoop0.thisIndex,stage1Loop.thisRepN,stage1Loop.thisTrialN,stage1Loop.thisN,stage1Loop.thisIndex,blockLoop1.thisRepN,blockLoop1.thisTrialN,blockLoop1.thisN,blockLoop1.thisIndex,stage2Loop.thisRepN,stage2Loop.thisTrialN,stage2Loop.thisN,stage2Loop.thisIndex,blockLoop2.thisRepN,blockLoop2.thisTrialN,blockLoop2.thisN,blockLoop2.thisIndex,testLoop.thisRepN,testLoop.thisTrialN,testLoop.thisN,testLoop.thisIndex,blockLoopTest.thisRepN,blockLoopTest.thisTrialN,blockLoopTest.thisN,blockLoopTest.thisIndex,cuePics,id_instr_text.started,id_instr_text.stopped,space_to_continue_2.started,space_to_continue_2.stopped,end_instructions_resp_3.keys,end_instructions_resp_3.rt,end_instructions_resp_3.started,end_instructions_resp_3.stopped,id_input_instr.started,id_input_instr.stopped,id_input_rect.started,id_input_rect.stopped,id_input_resp.keys,id_input_resp.rt,id_input_resp.started,id_input_resp.stopped,sonaID,id_input_text.started,id_input_text.stopped,final_text.started,final_text.stopped,instructions.started,instructions.stopped,end_instructions_resp.keys,end_instructions_resp.rt,end_instructions_resp.started,end_instructions_resp.stopped,space_to_continue.started,space_to_continue.stopped,instructions_stage0.started,instructions_stage0.stopped,end_instructions_resp_stage0.keys,end_instructions_resp_stage0.rt,end_instructions_resp_stage0.started,end_instructions_resp_stage0.stopped,space_to_continue_stage0.started,space_to_continue_stage0.stopped,text.started,text.stopped,resp_text1.started,resp_text1.stopped,resp_text2.started,resp_text2.stopped,trial_resp.keys,trial_resp.corr,trial_resp.rt,trial_resp.started,trial_resp.stopped,cue1Image.started,cue1Image.stopped,cue2Image.started,cue2Image.stopped,cue1Image_fb.started,cue1Image_fb.stopped,cue2Image_fb.started,cue2Image_fb.stopped,fb_text_answer.started,fb_text_answer.stopped,feedback_image.started,feedback_image.stopped,instructions_stage1.started,instructions_stage1.stopped,end_instructions_resp_stage1.keys,end_instructions_resp_stage1.rt,end_instructions_resp_stage1.started,end_instructions_resp_stage1.stopped,space_to_continue_stage1.started,space_to_continue_stage1.stopped,instructions_2.started,instructions_2.stopped,end_instructions_resp_2.keys,end_instructions_resp_2.rt,end_instructions_resp_2.started,end_instructions_resp_2.stopped,press_space_to_continue_stage2.started,press_space_to_continue_stage2.stopped,instructions_testStage1.started,instructions_testStage1.stopped,end_instructions_resp_test1.keys,end_instructions_resp_test1.rt,end_instructions_resp_test1.started,end_instructions_resp_test1.stopped,press_space_to_continue_test1.started,press_space_to_continue_test1.stopped,cue1Image_testChoice.started,cue1Image_testChoice.stopped,cue2Image_testChoice.started,cue2Image_testChoice.stopped,test_resp.keys,test_resp.corr,test_resp.rt,test_resp.started,test_resp.stopped,cue1Image_testConf.started,cue1Image_testConf.stopped,cue2Image_testConf.started,cue2Image_testConf.stopped,conf_reminder.started,conf_reminder.stopped,conf_rating.response,conf_rating.rt,conf_rating.started,conf_rating.stopped,session,participant,date,expName,psychopyVersion,frameRate,
,,,,,,,,,,,,,,,,,,,,,,,,,,,,,,,,,,,,,,,,,,,"{'none': 'pictures/20M_AN_C.png', 'alpha': 'pictures/SHINEd_pepper.png', 'beta': 'pictures/SHINEd_melon.png', 'theta': 'pictures/SHINEd_pear.png', 'phi': 'pictures/SHINEd_apple.png', 'T1': 'pictures/34M_AN_C.png', 'T2': 'pictures/23M_AN_C.png', 'T3': 'pictures/25M_AN_C.png', 'T4': 'pictures/33M_AN_C.png', 'T5': 'pictures/20M_AN_C.png', 'T6': 'pictures/32M_AN_C.png', 'B1': 'pictures/31M_NE_C.png', 'B2': 'pictures/22M_NE_C.png', 'B3': 'pictures/38M_NE_C.png', 'B4': 'pictures/36M_NE_C.png', 'B5': 'pictures/26M_NE_C.png', 'B6': 'pictures/37M_NE_C.png'}",10.011993724001513,None,14.99552166000285,None,space,12.922245953999663,14.99552166000285,None,,,,,,,,,,,,,,,,,,,,,,,,,,,,,,,,,,,,,,,,,,,,,,,,,,,,,,,,,,,,,,,,,,,,,,,,,,,,,,,,,,,,,,,,,,,,,,,,001,141,2020_Feb_18_1532,spring_faces,3.1.5,60.033203404209544,
,,,,,,,,,,,,,,,,,,,,,,,,,,,,,,,,,,,,,,,,,,,,,,,,,,,,28.296406823003053,None,28.296406823003053,None,"['0', '6', '0', '1', 's', 'a', 'm', 'e', 'r']","[11.269380051999178, 12.341435949998413, 17.06137002899777, 17.30135727800007, 22.517316567998932, 22.917316331997426, 30.51731487899815, 30.677313512998808, 30.901343542998802]",28.296406823003053,None,,,,,,,,,,,,,,,,,,,,,,,,,,,,,,,,,,,,,,,,,,,,,,,,,,,,,,,,,,,,,,,,,,,,,,,,,,,,,,,,,,,,,,,,001,141,2020_Feb_18_1532,spring_faces,3.1.5,60.033203404209544,
,,,,,,,,,,,,,,,,,,,,,,,,,,,,,,,,,,,,,,,,,,,,,,,,,,,,,,,,,,,,0601samer,28.296406823003053,None,28.296406823003053,None,64.27892244800023,None,space,1.791092496998317,69.27875737200156,None,,,,,,,,,,,,,,,,,,,,,,,,,,,,,,,,,,,,,,,,,,,,,,,,,,,,,,,,,,,,,,,,,,,,,,,,,,,,,001,141,2020_Feb_18_1532,spring_faces,3.1.5,60.033203404209544,
,,,,,,,,,,,,,,,,,,,,,,,,,,,,,,,,,,,,,,,,,,,,,,,,,,,,,,,,,,,,,,,,,,,,,,,69.27875737200156,None,71.11154972800068,None,space,5.661711667999043,76.11198360000344,None,,,,,,,,,,,,,,,,,,,,,,,,,,,,,,,,,,,,,,,,,,,,,,,,,,,,,,,,,,,,,,,,,,,,,001,141,2020_Feb_18_1532,spring_faces,3.1.5,60.033203404209544,
condition files/Stage0a.xlsx,0a,beta,none,g,"['h', 'g']","['Chess', 'Go']","[0, 0.5]","[0, 0]",1,0,0,0,0,0,0,0,0,1,,,,,,,,,,,,,,,,,,,,,,,,,,,,,,,,,,,,,,,,,,,,,,,,,,,,,,,,,,,,,76.11198360000344,None,81.82908596100242,None,81.82908596100242,None,81.82908596100242,None,h,0,1.5139114319972578,83.41191981500015,None,83.41191981500015,None,83.41191981500015,None,84.99567251300323,None,84.99567251300323,None,84.99567251300323,None,84.99567251300323,None,,,,,,,,,,,,,,,,,,,,,,,,,,,,,,,,,,,,,,,,,,,,001,141,2020_Feb_18_1532,spring_faces,3.1.5,60.033203404209544,
condition files/Stage0a.xlsx,0a,alpha,none,h,"['h', 'g']","['Chess', 'Go']","[0, 0.5]","[0, 0]",1,0,0,0,0,0,0,1,1,0,,,,,,,,,,,,,,,,,,,,,,,,,,,,,,,,,,,,,,,,,,,,,,,,,,,,,,,,,,,,,,,86.94530961600321,None,86.94530961600321,None,86.94530961600321,None,h,1,1.2611377590001212,88.48064140000133,None,88.48064140000133,None,88.48064140000133,None,89.79643638300331,None,89.79643638300331,None,89.79643638300331,None,89.79643638300331,None,,,,,,,,,,,,,,,,,,,,,,,,,,,,,,,,,,,,,,,,,,,,001,141,2020_Feb_18_1532,spring_faces,3.1.5,60.033203404209544,
condition files/Stage0a.xlsx,0a,beta,none,g,"['h', 'g']","['Chess', 'Go']","[0, 0.5]","[0, 0]",1,0,0,1,1,1,0,0,0,1,,,,,,,,,,,,,,,,,,,,,,,,,,,,,,,,,,,,,,,,,,,,,,,,,,,,,,,,,,,,,,,91.77818681000281,None,91.77818681000281,None,91.77818681000281,None,g,1,0.6385208780011453,93.31126336900343,None,93.31126336900343,None,93.31126336900343,None,94.01225971400345,None,94.01225971400345,None,94.01225971400345,None,94.01225971400345,None,,,,,,,,,,,,,,,,,,,,,,,,,,,,,,,,,,,,,,,,,,,,001,141,2020_Feb_18_1532,spring_faces,3.1.5,60.033203404209544,
condition files/Stage0a.xlsx,0a,alpha,none,h,"['h', 'g']","['Chess', 'Go']","[0, 0.5]","[0, 0]",1,0,0,1,1,1,0,1,1,0,,,,,,,,,,,,,,,,,,,,,,,,,,,,,,,,,,,,,,,,,,,,,,,,,,,,,,,,,,,,,,,95.97895635000168,None,95.97895635000168,None,95.97895635000168,None,h,1,0.9660189370006265,97.51174272300341,None,97.51174272300341,None,97.51174272300341,None,98.52929152500292,None,98.52929152500292,None,98.52929152500292,None,98.52929152500292,None,,,,,,,,,,,,,,,,,,,,,,,,,,,,,,,,,,,,,,,,,,,,001,141,2020_Feb_18_1532,spring_faces,3.1.5,60.033203404209544,
condition files/Stage0a.xlsx,0a,beta,none,g,"['h', 'g']","['Chess', 'Go']","[0, 0.5]","[0, 0]",1,0,0,2,2,2,0,0,0,1,,,,,,,,,,,,,,,,,,,,,,,,,,,,,,,,,,,,,,,,,,,,,,,,,,,,,,,,,,,,,,,100.5119919730023,None,100.5119919730023,None,100.5119919730023,None,g,1,0.5128415619983571,102.04493821600045,None,102.04493821600045,None,102.04493821600045,None,102.61239025700343,None,102.61239025700343,None,102.61239025700343,None,102.61239025700343,None,,,,,,,,,,,,,,,,,,,,,,,,,,,,,,,,,,,,,,,,,,,,001,141,2020_Feb_18_1532,spring_faces,3.1.5,60.033203404209544,
condition files/Stage0a.xlsx,0a,alpha,none,h,"['h', 'g']","['Chess', 'Go']","[0, 0.5]","[0, 0]",1,0,0,2,2,2,0,1,1,0,,,,,,,,,,,,,,,,,,,,,,,,,,,,,,,,,,,,,,,,,,,,,,,,,,,,,,,,,,,,,,,104.57866472200112,None,104.57866472200112,None,104.57866472200112,None,h,1,0.526020339999377,106.11180561300353,None,106.11180561300353,None,106.11180561300353,None,106.69542897200154,None,106.69542897200154,None,106.69542897200154,None,106.69542897200154,None,,,,,,,,,,,,,,,,,,,,,,,,,,,,,,,,,,,,,,,,,,,,001,141,2020_Feb_18_1532,spring_faces,3.1.5,60.033203404209544,
condition files/Stage0a.xlsx,0a,beta,none,g,"['h', 'g']","['Chess', 'Go']","[0, 0.5]","[0, 0]",1,0,0,3,3,3,0,0,0,1,,,,,,,,,,,,,,,,,,,,,,,,,,,,,,,,,,,,,,,,,,,,,,,,,,,,,,,,,,,,,,,108.6786774750035,None,108.6786774750035,None,108.6786774750035,None,g,1,0.9691751609971107,110.21259676300178,None,110.21259676300178,None,110.21259676300178,None,111.24539132800055,None,111.24539132800055,None,111.24539132800055,None,111.24539132800055,None,,,,,,,,,,,,,,,,,,,,,,,,,,,,,,,,,,,,,,,,,,,,001,141,2020_Feb_18_1532,spring_faces,3.1.5,60.033203404209544,
condition files/Stage0a.xlsx,0a,alpha,none,h,"['h', 'g']","['Chess', 'Go']","[0, 0.5]","[0, 0]",1,0,0,3,3,3,0,1,1,0,,,,,,,,,,,,,,,,,,,,,,,,,,,,,,,,,,,,,,,,,,,,,,,,,,,,,,,,,,,,,,,113.21193078400029,None,113.21193078400029,None,113.21193078400029,None,h,1,0.6921348299983947,114.74570302000211,None,114.74570302000211,None,114.74570302000211,None,115.49533777500255,None,115.49533777500255,None,115.49533777500255,None,115.49533777500255,None,,,,,,,,,,,,,,,,,,,,,,,,,,,,,,,,,,,,,,,,,,,,001,141,2020_Feb_18_1532,spring_faces,3.1.5,60.033203404209544,
condition files/Stage0a.xlsx,0a,alpha,none,h,"['h', 'g']","['Chess', 'Go']","[0, 0.5]","[0, 0]",1,0,0,4,4,4,0,0,0,0,,,,,,,,,,,,,,,,,,,,,,,,,,,,,,,,,,,,,,,,,,,,,,,,,,,,,,,,,,,,,,,117.47891250000248,None,117.47891250000248,None,117.47891250000248,None,h,1,0.9203875980019802,119.01340709200304,None,119.01340709200304,None,119.01340709200304,None,119.99552443500215,None,119.99552443500215,None,119.99552443500215,None,119.99552443500215,None,,,,,,,,,,,,,,,,,,,,,,,,,,,,,,,,,,,,,,,,,,,,001,141,2020_Feb_18_1532,spring_faces,3.1.5,60.033203404209544,
condition files/Stage0a.xlsx,0a,beta,none,g,"['h', 'g']","['Chess', 'Go']","[0, 0.5]","[0, 0]",1,0,0,4,4,4,0,1,1,1,,,,,,,,,,,,,,,,,,,,,,,,,,,,,,,,,,,,,,,,,,,,,,,,,,,,,,,,,,,,,,,121.9611117830027,None,121.9611117830027,None,121.9611117830027,None,g,1,0.6945189170000958,123.49526453800354,None,123.49526453800354,None,123.49526453800354,None,124.24556241100072,None,124.24556241100072,None,124.24556241100072,None,124.24556241100072,None,,,,,,,,,,,,,,,,,,,,,,,,,,,,,,,,,,,,,,,,,,,,001,141,2020_Feb_18_1532,spring_faces,3.1.5,60.033203404209544,
condition files/Stage0a.xlsx,0a,beta,none,g,"['h', 'g']","['Chess', 'Go']","[0, 0.5]","[0, 0]",1,0,0,5,5,5,0,0,0,1,,,,,,,,,,,,,,,,,,,,,,,,,,,,,,,,,,,,,,,,,,,,,,,,,,,,,,,,,,,,,,,126.22898192900175,None,126.22898192900175,None,126.22898192900175,None,g,1,0.5081061410019174,127.76171517500188,None,127.76171517500188,None,127.76171517500188,None,128.32819654500054,None,128.32819654500054,None,128.32819654500054,None,128.32819654500054,None,,,,,,,,,,,,,,,,,,,,,,,,,,,,,,,,,,,,,,,,,,,,001,141,2020_Feb_18_1532,spring_faces,3.1.5,60.033203404209544,
condition files/Stage0a.xlsx,0a,alpha,none,h,"['h', 'g']","['Chess', 'Go']","[0, 0.5]","[0, 0]",1,0,0,5,5,5,0,1,1,0,,,,,,,,,,,,,,,,,,,,,,,,,,,,,,,,,,,,,,,,,,,,,,,,,,,,,,,,,,,,,,,130.29507395600012,None,130.29507395600012,None,130.29507395600012,None,h,1,0.7605397219995211,131.82916566800122,None,131.82916566800122,None,131.82916566800122,None,132.64503200600302,None,132.64503200600302,None,132.64503200600302,None,132.64503200600302,None,,,,,,,,,,,,,,,,,,,,,,,,,,,,,,,,,,,,,,,,,,,,001,141,2020_Feb_18_1532,spring_faces,3.1.5,60.033203404209544,
condition files/Stage0b_1.xlsx,0b,none,beta,g,"['h', 'g']","['Chess', 'Go']","[-0.15, 0.5]","[0.15, 0.5]",0,1,0,6,6,6,0,0,0,1,,,,,,,,,,,,,,,,,,,,,,,,,,,,,,,,,,,,,,,,,,,,,,,,,,,,,,,,,,,,,,,134.62895739500163,None,134.62895739500163,None,134.62895739500163,None,g,1,0.6668936429996393,136.17887972300014,None,136.17887972300014,None,136.17887972300014,None,136.91231169500315,None,136.91231169500315,None,136.91231169500315,None,136.91231169500315,None,,,,,,,,,,,,,,,,,,,,,,,,,,,,,,,,,,,,,,,,,,,,001,141,2020_Feb_18_1532,spring_faces,3.1.5,60.033203404209544,
condition files/Stage0b_1.xlsx,0b,alpha,none,h,"['h', 'g']","['Chess', 'Go']","[-0.15, 0.5]","[0.15, 0.5]",1,0,0,6,6,6,0,1,1,0,,,,,,,,,,,,,,,,,,,,,,,,,,,,,,,,,,,,,,,,,,,,,,,,,,,,,,,,,,,,,,,138.86179876700044,None,138.86179876700044,None,138.86179876700044,None,h,1,0.689753152000776,140.41200649000166,None,140.41200649000166,None,140.41200649000166,None,141.16375439800322,None,141.16375439800322,None,141.16375439800322,None,141.16375439800322,None,,,,,,,,,,,,,,,,,,,,,,,,,,,,,,,,,,,,,,,,,,,,001,141,2020_Feb_18_1532,spring_faces,3.1.5,60.033203404209544,
condition files/Stage0b_2.xlsx,0b,none,alpha,h,"['h', 'g']","['Chess', 'Go']","[-0.15, 0.5]","[0.15, 0.5]",0,1,0,7,7,7,0,0,0,0,,,,,,,,,,,,,,,,,,,,,,,,,,,,,,,,,,,,,,,,,,,,,,,,,,,,,,,,,,,,,,,143.14577241000006,None,143.14577241000006,None,143.14577241000006,None,h,1,0.6105365219991654,144.68322332300158,None,144.68322332300158,None,144.68322332300158,None,145.34519346600064,None,145.34519346600064,None,145.34519346600064,None,145.34519346600064,None,,,,,,,,,,,,,,,,,,,,,,,,,,,,,,,,,,,,,,,,,,,,001,141,2020_Feb_18_1532,spring_faces,3.1.5,60.033203404209544,
condition files/Stage0b_2.xlsx,0b,beta,none,g,"['h', 'g']","['Chess', 'Go']","[-0.15, 0.5]","[0.15, 0.5]",1,0,0,7,7,7,0,1,1,1,,,,,,,,,,,,,,,,,,,,,,,,,,,,,,,,,,,,,,,,,,,,,,,,,,,,,,,,,,,,,,,147.31190826400052,None,147.31190826400052,None,147.31190826400052,None,g,1,0.6210113929992076,148.84882371300046,None,148.84882371300046,None,148.84882371300046,None,149.5307436630028,None,149.5307436630028,None,149.5307436630028,None,149.5307436630028,None,,,,,,,,,,,,,,,,,,,,,,,,,,,,,,,,,,,,,,,,,,,,001,141,2020_Feb_18_1532,spring_faces,3.1.5,60.033203404209544,
condition files/Stage0b_1.xlsx,0b,alpha,none,h,"['h', 'g']","['Chess', 'Go']","[-0.15, 0.5]","[0.15, 0.5]",1,0,0,8,8,8,0,0,0,0,,,,,,,,,,,,,,,,,,,,,,,,,,,,,,,,,,,,,,,,,,,,,,,,,,,,,,,,,,,,,,,151.5121839960011,None,151.5121839960011,None,151.5121839960011,None,h,1,1.5282982639982947,153.04540874600207,None,153.04540874600207,None,153.04540874600207,None,154.62897937000162,None,154.62897937000162,None,154.62897937000162,None,154.62897937000162,None,,,,,,,,,,,,,,,,,,,,,,,,,,,,,,,,,,,,,,,,,,,,001,141,2020_Feb_18_1532,spring_faces,3.1.5,60.033203404209544,
condition files/Stage0b_1.xlsx,0b,none,beta,g,"['h', 'g']","['Chess', 'Go']","[-0.15, 0.5]","[0.15, 0.5]",0,1,0,8,8,8,0,1,1,1,,,,,,,,,,,,,,,,,,,,,,,,,,,,,,,,,,,,,,,,,,,,,,,,,,,,,,,,,,,,,,,156.59523738100324,None,156.59523738100324,None,156.59523738100324,None,g,1,0.8405385660007596,158.13317690900294,None,158.13317690900294,None,158.13317690900294,None,159.03270651300045,None,159.03270651300045,None,159.03270651300045,None,159.03270651300045,None,,,,,,,,,,,,,,,,,,,,,,,,,,,,,,,,,,,,,,,,,,,,001,141,2020_Feb_18_1532,spring_faces,3.1.5,60.033203404209544,
condition files/Stage0b_2.xlsx,0b,beta,none,g,"['h', 'g']","['Chess', 'Go']","[-0.15, 0.5]","[0.15, 0.5]",1,0,0,9,9,9,0,0,0,1,,,,,,,,,,,,,,,,,,,,,,,,,,,,,,,,,,,,,,,,,,,,,,,,,,,,,,,,,,,,,,,161.01221648100181,None,161.01221648100181,None,161.01221648100181,None,g,1,0.714068714001769,162.54771240600166,None,162.54771240600166,None,162.54771240600166,None,163.3130093860018,None,163.3130093860018,None,163.3130093860018,None,163.3130093860018,None,,,,,,,,,,,,,,,,,,,,,,,,,,,,,,,,,,,,,,,,,,,,001,141,2020_Feb_18_1532,spring_faces,3.1.5,60.033203404209544,
condition files/Stage0b_2.xlsx,0b,none,alpha,h,"['h', 'g']","['Chess', 'Go']","[-0.15, 0.5]","[0.15, 0.5]",0,1,0,9,9,9,0,1,1,0,,,,,,,,,,,,,,,,,,,,,,,,,,,,,,,,,,,,,,,,,,,,,,,,,,,,,,,,,,,,,,,165.278629370001,None,165.278629370001,None,165.278629370001,None,h,1,0.46571087499978603,166.81206364000172,None,166.81206364000172,None,166.81206364000172,None,167.33046140400256,None,167.33046140400256,None,167.33046140400256,None,167.33046140400256,None,,,,,,,,,,,,,,,,,,,,,,,,,,,,,,,,,,,,,,,,,,,,001,141,2020_Feb_18_1532,spring_faces,3.1.5,60.033203404209544,
condition files/Stage0b_1.xlsx,0b,none,beta,g,"['h', 'g']","['Chess', 'Go']","[-0.15, 0.5]","[0.15, 0.5]",0,1,0,10,10,10,0,0,0,1,,,,,,,,,,,,,,,,,,,,,,,,,,,,,,,,,,,,,,,,,,,,,,,,,,,,,,,,,,,,,,,169.3123407660023,None,169.3123407660023,None,169.3123407660023,None,g,1,0.8644609540024248,170.84532557800048,None,170.84532557800048,None,170.84532557800048,None,171.76163732200075,None,171.76163732200075,None,171.76163732200075,None,171.76163732200075,None,,,,,,,,,,,,,,,,,,,,,,,,,,,,,,,,,,,,,,,,,,,,001,141,2020_Feb_18_1532,spring_faces,3.1.5,60.033203404209544,
condition files/Stage0b_1.xlsx,0b,alpha,none,h,"['h', 'g']","['Chess', 'Go']","[-0.15, 0.5]","[0.15, 0.5]",1,0,0,10,10,10,0,1,1,0,,,,,,,,,,,,,,,,,,,,,,,,,,,,,,,,,,,,,,,,,,,,,,,,,,,,,,,,,,,,,,,173.72768669900324,None,173.72768669900324,None,173.72768669900324,None,h,1,0.6228270360006718,175.2789218240032,None,175.2789218240032,None,175.2789218240032,None,175.96666613200068,None,175.96666613200068,None,175.96666613200068,None,175.96666613200068,None,,,,,,,,,,,,,,,,,,,,,,,,,,,,,,,,,,,,,,,,,,,,001,141,2020_Feb_18_1532,spring_faces,3.1.5,60.033203404209544,
condition files/Stage0b_2.xlsx,0b,beta,none,g,"['h', 'g']","['Chess', 'Go']","[-0.15, 0.5]","[0.15, 0.5]",1,0,0,11,11,11,0,0,0,1,,,,,,,,,,,,,,,,,,,,,,,,,,,,,,,,,,,,,,,,,,,,,,,,,,,,,,,,,,,,,,,177.945859964002,None,177.945859964002,None,177.945859964002,None,g,1,0.6636532219999935,179.4780979850002,None,179.4780979850002,None,179.4780979850002,None,180.19579471700126,None,180.19579471700126,None,180.19579471700126,None,180.19579471700126,None,,,,,,,,,,,,,,,,,,,,,,,,,,,,,,,,,,,,,,,,,,,,001,141,2020_Feb_18_1532,spring_faces,3.1.5,60.033203404209544,
condition files/Stage0b_2.xlsx,0b,none,alpha,h,"['h', 'g']","['Chess', 'Go']","[-0.15, 0.5]","[0.15, 0.5]",0,1,0,11,11,11,0,1,1,0,,,,,,,,,,,,,,,,,,,,,,,,,,,,,,,,,,,,,,,,,,,,,,,,,,,,,,,,,,,,,,,182.1618322400027,None,182.1618322400027,None,182.1618322400027,None,h,1,1.5656896170003165,183.71206780400098,None,183.71206780400098,None,183.71206780400098,None,185.33427199900325,None,185.33427199900325,None,185.33427199900325,None,185.33427199900325,None,,,,,,,,,,,,,,,,,,,,,,,,,,,,,,,,,,,,,,,,,,,,001,141,2020_Feb_18_1532,spring_faces,3.1.5,60.033203404209544,
condition files/Stage0c_1.xlsx,0c,theta,alpha,h,"['h', 'g']","['Chess', 'Go']","[-0.15, 0.5]","[0.15, 0.5]",1,1,0,12,12,12,0,0,0,0,,,,,,,,,,,,,,,,,,,,,,,,,,,,,,,,,,,,,,,,,,,,,,,,,,,,,,,,,,,,,,,187.31232966800235,None,187.31232966800235,None,187.31232966800235,None,h,1,3.232238458997017,188.84552845000144,None,188.84552845000144,None,188.84552845000144,None,192.12847130299997,None,192.12847130299997,None,192.12847130299997,None,192.12847130299997,None,,,,,,,,,,,,,,,,,,,,,,,,,,,,,,,,,,,,,,,,,,,,001,141,2020_Feb_18_1532,spring_faces,3.1.5,60.033203404209544,
condition files/Stage0c_1.xlsx,0c,phi,beta,g,"['h', 'g']","['Chess', 'Go']","[-0.15, 0.5]","[0.15, 0.5]",1,1,0,12,12,12,0,1,1,3,,,,,,,,,,,,,,,,,,,,,,,,,,,,,,,,,,,,,,,,,,,,,,,,,,,,,,,,,,,,,,,194.0953455630006,None,194.0953455630006,None,194.0953455630006,None,g,1,0.7372633829982078,195.6285056930028,None,195.6285056930028,None,195.6285056930028,None,196.42898515600245,None,196.42898515600245,None,196.42898515600245,None,196.42898515600245,None,,,,,,,,,,,,,,,,,,,,,,,,,,,,,,,,,,,,,,,,,,,,001,141,2020_Feb_18_1532,spring_faces,3.1.5,60.033203404209544,
condition files/Stage0c_1.xlsx,0c,beta,theta,g,"['h', 'g']","['Chess', 'Go']","[-0.15, 0.5]","[0.15, 0.5]",1,1,0,12,12,12,0,2,2,2,,,,,,,,,,,,,,,,,,,,,,,,,,,,,,,,,,,,,,,,,,,,,,,,,,,,,,,,,,,,,,,198.3947428470019,None,198.3947428470019,None,198.3947428470019,None,g,1,1.7971192129989504,199.9286761330004,None,199.9286761330004,None,199.9286761330004,None,201.77836695100268,None,201.77836695100268,None,201.77836695100268,None,201.77836695100268,None,,,,,,,,,,,,,,,,,,,,,,,,,,,,,,,,,,,,,,,,,,,,001,141,2020_Feb_18_1532,spring_faces,3.1.5,60.033203404209544,
condition files/Stage0c_1.xlsx,0c,alpha,phi,h,"['h', 'g']","['Chess', 'Go']","[-0.15, 0.5]","[0.15, 0.5]",1,1,0,12,12,12,0,3,3,1,,,,,,,,,,,,,,,,,,,,,,,,,,,,,,,,,,,,,,,,,,,,,,,,,,,,,,,,,,,,,,,203.74497682400033,None,203.74497682400033,None,203.74497682400033,None,h,1,1.9509261150014936,205.278795653001,None,205.278795653001,None,205.278795653001,None,207.29679867400046,None,207.29679867400046,None,207.29679867400046,None,207.29679867400046,None,,,,,,,,,,,,,,,,,,,,,,,,,,,,,,,,,,,,,,,,,,,,001,141,2020_Feb_18_1532,spring_faces,3.1.5,60.033203404209544,
condition files/Stage0c_2.xlsx,0c,alpha,theta,h,"['h', 'g']","['Chess', 'Go']","[-0.15, 0.5]","[0.15, 0.5]",1,1,0,13,13,13,0,0,0,0,,,,,,,,,,,,,,,,,,,,,,,,,,,,,,,,,,,,,,,,,,,,,,,,,,,,,,,,,,,,,,,209.27842673800114,None,209.27842673800114,None,209.27842673800114,None,h,1,1.1373245260001568,210.81245187800232,None,210.81245187800232,None,210.81245187800232,None,211.997986503,None,211.997986503,None,211.997986503,None,211.997986503,None,,,,,,,,,,,,,,,,,,,,,,,,,,,,,,,,,,,,,,,,,,,,001,141,2020_Feb_18_1532,spring_faces,3.1.5,60.033203404209544,
condition files/Stage0c_2.xlsx,0c,phi,alpha,h,"['h', 'g']","['Chess', 'Go']","[-0.15, 0.5]","[0.15, 0.5]",1,1,0,13,13,13,0,1,1,1,,,,,,,,,,,,,,,,,,,,,,,,,,,,,,,,,,,,,,,,,,,,,,,,,,,,,,,,,,,,,,,213.97846485100308,None,213.97846485100308,None,213.97846485100308,None,g,0,0.4854498880013125,215.51231090000147,None,215.51231090000147,None,215.51231090000147,None,216.04569645100128,None,216.04569645100128,None,216.04569645100128,None,216.04569645100128,None,,,,,,,,,,,,,,,,,,,,,,,,,,,,,,,,,,,,,,,,,,,,001,141,2020_Feb_18_1532,spring_faces,3.1.5,60.033203404209544,
condition files/Stage0c_2.xlsx,0c,beta,phi,g,"['h', 'g']","['Chess', 'Go']","[-0.15, 0.5]","[0.15, 0.5]",1,1,0,13,13,13,0,2,2,3,,,,,,,,,,,,,,,,,,,,,,,,,,,,,,,,,,,,,,,,,,,,,,,,,,,,,,,,,,,,,,,218.02868259400202,None,218.02868259400202,None,218.02868259400202,None,h,0,1.2194425080015208,219.5623348830013,None,219.5623348830013,None,219.5623348830013,None,220.84492340200086,None,220.84492340200086,None,220.84492340200086,None,220.84492340200086,None,,,,,,,,,,,,,,,,,,,,,,,,,,,,,,,,,,,,,,,,,,,,001,141,2020_Feb_18_1532,spring_faces,3.1.5,60.033203404209544,
condition files/Stage0c_2.xlsx,0c,theta,beta,g,"['h', 'g']","['Chess', 'Go']","[-0.15, 0.5]","[0.15, 0.5]",1,1,0,13,13,13,0,3,3,2,,,,,,,,,,,,,,,,,,,,,,,,,,,,,,,,,,,,,,,,,,,,,,,,,,,,,,,,,,,,,,,222.81197227000303,None,222.81197227000303,None,222.81197227000303,None,h,0,2.27591476499947,224.34579419900183,None,224.34579419900183,None,224.34579419900183,None,226.66400451900336,None,226.66400451900336,None,226.66400451900336,None,226.66400451900336,None,,,,,,,,,,,,,,,,,,,,,,,,,,,,,,,,,,,,,,,,,,,,001,141,2020_Feb_18_1532,spring_faces,3.1.5,60.033203404209544,
condition files/Stage0c_1.xlsx,0c,phi,beta,g,"['h', 'g']","['Chess', 'Go']","[-0.15, 0.5]","[0.15, 0.5]",1,1,0,14,14,14,0,0,0,3,,,,,,,,,,,,,,,,,,,,,,,,,,,,,,,,,,,,,,,,,,,,,,,,,,,,,,,,,,,,,,,228.66201802700016,None,228.66201802700016,None,228.66201802700016,None,g,1,1.9459713010000996,230.1958031380018,None,230.1958031380018,None,230.1958031380018,None,232.19558331900043,None,232.19558331900043,None,232.19558331900043,None,232.19558331900043,None,,,,,,,,,,,,,,,,,,,,,,,,,,,,,,,,,,,,,,,,,,,,001,141,2020_Feb_18_1532,spring_faces,3.1.5,60.033203404209544,
condition files/Stage0c_1.xlsx,0c,theta,alpha,h,"['h', 'g']","['Chess', 'Go']","[-0.15, 0.5]","[0.15, 0.5]",1,1,0,14,14,14,0,1,1,0,,,,,,,,,,,,,,,,,,,,,,,,,,,,,,,,,,,,,,,,,,,,,,,,,,,,,,,,,,,,,,,234.17883053200057,None,234.17883053200057,None,234.17883053200057,None,h,1,0.7499447939990205,235.69578749800348,None,235.69578749800348,None,235.69578749800348,None,236.51172583800144,None,236.51172583800144,None,236.51172583800144,None,236.51172583800144,None,,,,,,,,,,,,,,,,,,,,,,,,,,,,,,,,,,,,,,,,,,,,001,141,2020_Feb_18_1532,spring_faces,3.1.5,60.033203404209544,
condition files/Stage0c_1.xlsx,0c,beta,theta,g,"['h', 'g']","['Chess', 'Go']","[-0.15, 0.5]","[0.15, 0.5]",1,1,0,14,14,14,0,2,2,2,,,,,,,,,,,,,,,,,,,,,,,,,,,,,,,,,,,,,,,,,,,,,,,,,,,,,,,,,,,,,,,238.47852885700195,None,238.47852885700195,None,238.47852885700195,None,g,1,1.1376520470003015,240.01211183200212,None,240.01211183200212,None,240.01211183200212,None,241.21165637000013,None,241.21165637000013,None,241.21165637000013,None,241.21165637000013,None,,,,,,,,,,,,,,,,,,,,,,,,,,,,,,,,,,,,,,,,,,,,001,141,2020_Feb_18_1532,spring_faces,3.1.5,60.033203404209544,
condition files/Stage0c_1.xlsx,0c,alpha,phi,h,"['h', 'g']","['Chess', 'Go']","[-0.15, 0.5]","[0.15, 0.5]",1,1,0,14,14,14,0,3,3,1,,,,,,,,,,,,,,,,,,,,,,,,,,,,,,,,,,,,,,,,,,,,,,,,,,,,,,,,,,,,,,,243.17847640500258,None,243.17847640500258,None,243.17847640500258,None,h,1,0.757572763999633,244.71224183600134,None,244.71224183600134,None,244.71224183600134,None,245.52916550600276,None,245.52916550600276,None,245.52916550600276,None,245.52916550600276,None,,,,,,,,,,,,,,,,,,,,,,,,,,,,,,,,,,,,,,,,,,,,001,141,2020_Feb_18_1532,spring_faces,3.1.5,60.033203404209544,
condition files/Stage0c_2.xlsx,0c,theta,beta,g,"['h', 'g']","['Chess', 'Go']","[-0.15, 0.5]","[0.15, 0.5]",1,1,0,15,15,15,0,0,0,2,,,,,,,,,,,,,,,,,,,,,,,,,,,,,,,,,,,,,,,,,,,,,,,,,,,,,,,,,,,,,,,247.51218374000018,None,247.51218374000018,None,247.51218374000018,None,h,0,2.136333211001329,249.04543962200114,None,249.04543962200114,None,249.04543962200114,None,251.24530313300056,None,251.24530313300056,None,251.24530313300056,None,251.24530313300056,None,,,,,,,,,,,,,,,,,,,,,,,,,,,,,,,,,,,,,,,,,,,,001,141,2020_Feb_18_1532,spring_faces,3.1.5,60.033203404209544,
condition files/Stage0c_2.xlsx,0c,beta,phi,g,"['h', 'g']","['Chess', 'Go']","[-0.15, 0.5]","[0.15, 0.5]",1,1,0,15,15,15,0,1,1,3,,,,,,,,,,,,,,,,,,,,,,,,,,,,,,,,,,,,,,,,,,,,,,,,,,,,,,,,,,,,,,,253.2116717530007,None,253.2116717530007,None,253.2116717530007,None,g,1,0.9641040229980717,254.74564809200092,None,254.74564809200092,None,254.74564809200092,None,255.74585371300054,None,255.74585371300054,None,255.74585371300054,None,255.74585371300054,None,,,,,,,,,,,,,,,,,,,,,,,,,,,,,,,,,,,,,,,,,,,,001,141,2020_Feb_18_1532,spring_faces,3.1.5,60.033203404209544,
condition files/Stage0c_2.xlsx,0c,alpha,theta,h,"['h', 'g']","['Chess', 'Go']","[-0.15, 0.5]","[0.15, 0.5]",1,1,0,15,15,15,0,2,2,0,,,,,,,,,,,,,,,,,,,,,,,,,,,,,,,,,,,,,,,,,,,,,,,,,,,,,,,,,,,,,,,257.72859123700255,None,257.72859123700255,None,257.72859123700255,None,h,1,0.5914692020014627,259.2623564220012,None,259.2623564220012,None,259.2623564220012,None,259.9124350600032,None,259.9124350600032,None,259.9124350600032,None,259.9124350600032,None,,,,,,,,,,,,,,,,,,,,,,,,,,,,,,,,,,,,,,,,,,,,001,141,2020_Feb_18_1532,spring_faces,3.1.5,60.033203404209544,
condition files/Stage0c_2.xlsx,0c,phi,alpha,h,"['h', 'g']","['Chess', 'Go']","[-0.15, 0.5]","[0.15, 0.5]",1,1,0,15,15,15,0,3,3,1,,,,,,,,,,,,,,,,,,,,,,,,,,,,,,,,,,,,,,,,,,,,,,,,,,,,,,,,,,,,,,,261.878867008003,None,261.878867008003,None,261.878867008003,None,h,1,1.641366158000892,263.41246384400074,None,263.41246384400074,None,263.41246384400074,None,265.0966219070033,None,265.0966219070033,None,265.0966219070033,None,265.0966219070033,None,,,,,,,,,,,,,,,,,,,,,,,,,,,,,,,,,,,,,,,,,,,,001,141,2020_Feb_18_1532,spring_faces,3.1.5,60.033203404209544,
condition files/Stage0c_1.xlsx,0c,beta,theta,g,"['h', 'g']","['Chess', 'Go']","[-0.15, 0.5]","[0.15, 0.5]",1,1,0,16,16,16,0,0,0,2,,,,,,,,,,,,,,,,,,,,,,,,,,,,,,,,,,,,,,,,,,,,,,,,,,,,,,,,,,,,,,,267.09502455300026,None,267.09502455300026,None,267.09502455300026,None,g,1,0.6488689719990361,268.6289021440025,None,268.6289021440025,None,268.6289021440025,None,269.328173533002,None,269.328173533002,None,269.328173533002,None,269.328173533002,None,,,,,,,,,,,,,,,,,,,,,,,,,,,,,,,,,,,,,,,,,,,,001,141,2020_Feb_18_1532,spring_faces,3.1.5,60.033203404209544,
condition files/Stage0c_1.xlsx,0c,phi,beta,g,"['h', 'g']","['Chess', 'Go']","[-0.15, 0.5]","[0.15, 0.5]",1,1,0,16,16,16,0,1,1,3,,,,,,,,,,,,,,,,,,,,,,,,,,,,,,,,,,,,,,,,,,,,,,,,,,,,,,,,,,,,,,,271.29537077200075,None,271.29537077200075,None,271.29537077200075,None,g,1,1.3453704280000238,272.82837060100064,None,272.82837060100064,None,272.82837060100064,None,274.22900823500095,None,274.22900823500095,None,274.22900823500095,None,274.22900823500095,None,,,,,,,,,,,,,,,,,,,,,,,,,,,,,,,,,,,,,,,,,,,,001,141,2020_Feb_18_1532,spring_faces,3.1.5,60.033203404209544,
condition files/Stage0c_1.xlsx,0c,theta,alpha,h,"['h', 'g']","['Chess', 'Go']","[-0.15, 0.5]","[0.15, 0.5]",1,1,0,16,16,16,0,2,2,0,,,,,,,,,,,,,,,,,,,,,,,,,,,,,,,,,,,,,,,,,,,,,,,,,,,,,,,,,,,,,,,276.1954938210001,None,276.1954938210001,None,276.1954938210001,None,h,1,0.6212045600004785,277.72857308400125,None,277.72857308400125,None,277.72857308400125,None,278.4121025550012,None,278.4121025550012,None,278.4121025550012,None,278.4121025550012,None,,,,,,,,,,,,,,,,,,,,,,,,,,,,,,,,,,,,,,,,,,,,001,141,2020_Feb_18_1532,spring_faces,3.1.5,60.033203404209544,
condition files/Stage0c_1.xlsx,0c,alpha,phi,h,"['h', 'g']","['Chess', 'Go']","[-0.15, 0.5]","[0.15, 0.5]",1,1,0,16,16,16,0,3,3,1,,,,,,,,,,,,,,,,,,,,,,,,,,,,,,,,,,,,,,,,,,,,,,,,,,,,,,,,,,,,,,,280.37868725700173,None,280.37868725700173,None,280.37868725700173,None,h,1,1.4612228699988918,281.91247439700237,None,281.91247439700237,None,281.91247439700237,None,283.4130490230018,None,283.4130490230018,None,283.4130490230018,None,283.4130490230018,None,,,,,,,,,,,,,,,,,,,,,,,,,,,,,,,,,,,,,,,,,,,,001,141,2020_Feb_18_1532,spring_faces,3.1.5,60.033203404209544,
condition files/Stage0c_2.xlsx,0c,phi,alpha,h,"['h', 'g']","['Chess', 'Go']","[-0.15, 0.5]","[0.15, 0.5]",1,1,0,17,17,17,0,0,0,1,,,,,,,,,,,,,,,,,,,,,,,,,,,,,,,,,,,,,,,,,,,,,,,,,,,,,,,,,,,,,,,285.4119116050024,None,285.4119116050024,None,285.4119116050024,None,h,1,0.9083271760027856,286.94550615700064,None,286.94550615700064,None,286.94550615700064,None,287.89724786900115,None,287.89724786900115,None,287.89724786900115,None,287.89724786900115,None,,,,,,,,,,,,,,,,,,,,,,,,,,,,,,,,,,,,,,,,,,,,001,141,2020_Feb_18_1532,spring_faces,3.1.5,60.033203404209544,
condition files/Stage0c_2.xlsx,0c,beta,phi,g,"['h', 'g']","['Chess', 'Go']","[-0.15, 0.5]","[0.15, 0.5]",1,1,0,17,17,17,0,1,1,3,,,,,,,,,,,,,,,,,,,,,,,,,,,,,,,,,,,,,,,,,,,,,,,,,,,,,,,,,,,,,,,289.8785755380013,None,289.8785755380013,None,289.8785755380013,None,g,1,0.45793733499886,291.4118794370006,None,291.4118794370006,None,291.4118794370006,None,291.928438586001,None,291.928438586001,None,291.928438586001,None,291.928438586001,None,,,,,,,,,,,,,,,,,,,,,,,,,,,,,,,,,,,,,,,,,,,,001,141,2020_Feb_18_1532,spring_faces,3.1.5,60.033203404209544,
condition files/Stage0c_2.xlsx,0c,alpha,theta,h,"['h', 'g']","['Chess', 'Go']","[-0.15, 0.5]","[0.15, 0.5]",1,1,0,17,17,17,0,2,2,0,,,,,,,,,,,,,,,,,,,,,,,,,,,,,,,,,,,,,,,,,,,,,,,,,,,,,,,,,,,,,,,293.89533550600027,None,293.89533550600027,None,293.89533550600027,None,h,1,1.5927058269990084,295.4289981610018,None,295.4289981610018,None,295.4289981610018,None,297.0784330070019,None,297.0784330070019,None,297.0784330070019,None,297.0784330070019,None,,,,,,,,,,,,,,,,,,,,,,,,,,,,,,,,,,,,,,,,,,,,001,141,2020_Feb_18_1532,spring_faces,3.1.5,60.033203404209544,
condition files/Stage0c_2.xlsx,0c,theta,beta,g,"['h', 'g']","['Chess', 'Go']","[-0.15, 0.5]","[0.15, 0.5]",1,1,0,17,17,17,0,3,3,2,,,,,,,,,,,,,,,,,,,,,,,,,,,,,,,,,,,,,,,,,,,,,,,,,,,,,,,,,,,,,,,299.04516792100185,None,299.04516792100185,None,299.04516792100185,None,h,0,0.6346208830000251,300.57914070600236,None,300.57914070600236,None,300.57914070600236,None,301.2788440130025,None,301.2788440130025,None,301.2788440130025,None,301.2788440130025,None,,,,,,,,,,,,,,,,,,,,,,,,,,,,,,,,,,,,,,,,,,,,001,141,2020_Feb_18_1532,spring_faces,3.1.5,60.033203404209544,
,,,,,,,,,,,,,,,,,,,,,,,,,,,,,,,,,,,,,,,,,,,,,,,,,,,,,,,,,,,,,,,,,,,,,,,,,,,,,,,,,,,,,,,,,,,,,,,,,,,,,,,,303.26213506300337,None,space,6.215787553999689,308.26198823100276,None,,,,,,,,,,,,,,,,,,,,,,,,,,,,,,,,,,,,,,001,141,2020_Feb_18_1532,spring_faces,3.1.5,60.033203404209544,
condition files/Stage1_1.xlsx,,B2,T1,m,"['c', 'm']","['Clue', 'Monopoly']","[-0.15, 0.5]","[0.15, 0.5]",1,1,,,,,,,,,0,0,0,0,0,0,0,2,,,,,,,,,,,,,,,,,,,,,,,,,,,,,,,,,,,,,,,,,,,,,,,,,,,,,,,314.52870749600334,None,314.52870749600334,None,314.52870749600334,None,c,0,1.5038446660000773,316.06192721400294,None,316.06192721400294,None,316.06192721400294,None,317.64551179200134,None,317.64551179200134,None,317.64551179200134,None,317.64551179200134,None,,,,,,,308.26198823100276,None,,,,,,,,,,,,,,,,,,,,,,,,,,,,,,,,,,,,001,141,2020_Feb_18_1532,spring_faces,3.1.5,60.033203404209544,
condition files/Stage1_1.xlsx,,T3,B4,c,"['c', 'm']","['Clue', 'Monopoly']","[-0.15, 0.5]","[0.15, 0.5]",1,1,,,,,,,,,0,0,0,0,0,1,1,5,,,,,,,,,,,,,,,,,,,,,,,,,,,,,,,,,,,,,,,,,,,,,,,,,,,,,,,319.59529664300135,None,319.59529664300135,None,319.59529664300135,None,c,1,0.9627075770004012,321.1310704210009,None,321.1310704210009,None,321.1310704210009,None,322.16244383100275,None,322.16244383100275,None,322.16244383100275,None,322.16244383100275,None,,,,,,,,,,,,,,,,,,,,,,,,,,,,,,,,,,,,,,,,,,,,001,141,2020_Feb_18_1532,spring_faces,3.1.5,60.033203404209544,
condition files/Stage1_1.xlsx,,B1,T2,c,"['c', 'm']","['Clue', 'Monopoly']","[-0.15, 0.5]","[0.15, 0.5]",1,1,,,,,,,,,0,0,0,0,0,2,2,1,,,,,,,,,,,,,,,,,,,,,,,,,,,,,,,,,,,,,,,,,,,,,,,,,,,,,,,324.1116054010017,None,324.1116054010017,None,324.1116054010017,None,c,1,1.935609308002313,325.66215599600037,None,325.66215599600037,None,325.66215599600037,None,327.66233033200115,None,327.66233033200115,None,327.66233033200115,None,327.66233033200115,None,,,,,,,,,,,,,,,,,,,,,,,,,,,,,,,,,,,,,,,,,,,,001,141,2020_Feb_18_1532,spring_faces,3.1.5,60.033203404209544,
condition files/Stage1_1.xlsx,,B3,T3,c,"['c', 'm']","['Clue', 'Monopoly']","[-0.15, 0.5]","[0.15, 0.5]",1,1,,,,,,,,,0,0,0,0,0,3,3,4,,,,,,,,,,,,,,,,,,,,,,,,,,,,,,,,,,,,,,,,,,,,,,,,,,,,,,,329.6282820450033,None,329.6282820450033,None,329.6282820450033,None,m,0,1.635211614000582,331.17849942900284,None,331.17849942900284,None,331.17849942900284,None,332.8791996980035,None,332.8791996980035,None,332.8791996980035,None,332.8791996980035,None,,,,,,,,,,,,,,,,,,,,,,,,,,,,,,,,,,,,,,,,,,,,001,141,2020_Feb_18_1532,spring_faces,3.1.5,60.033203404209544,
condition files/Stage1_1.xlsx,,B4,T4,m,"['c', 'm']","['Clue', 'Monopoly']","[-0.15, 0.5]","[0.15, 0.5]",1,1,,,,,,,,,0,0,0,0,0,4,4,7,,,,,,,,,,,,,,,,,,,,,,,,,,,,,,,,,,,,,,,,,,,,,,,,,,,,,,,334.8454831450035,None,334.8454831450035,None,334.8454831450035,None,c,0,1.2028075999987777,336.3789702110007,None,336.3789702110007,None,336.3789702110007,None,337.6480809620007,None,337.6480809620007,None,337.6480809620007,None,337.6480809620007,None,,,,,,,,,,,,,,,,,,,,,,,,,,,,,,,,,,,,,,,,,,,,001,141,2020_Feb_18_1532,spring_faces,3.1.5,60.033203404209544,
condition files/Stage1_1.xlsx,,T4,B3,m,"['c', 'm']","['Clue', 'Monopoly']","[-0.15, 0.5]","[0.15, 0.5]",1,1,,,,,,,,,0,0,0,0,0,5,5,6,,,,,,,,,,,,,,,,,,,,,,,,,,,,,,,,,,,,,,,,,,,,,,,,,,,,,,,339.61202676400353,None,339.61202676400353,None,339.61202676400353,None,m,1,2.0046897960019123,341.1450978950015,None,341.1450978950015,None,341.1450978950015,None,343.212054155003,None,343.212054155003,None,343.212054155003,None,343.212054155003,None,,,,,,,,,,,,,,,,,,,,,,,,,,,,,,,,,,,,,,,,,,,,001,141,2020_Feb_18_1532,spring_faces,3.1.5,60.033203404209544,
condition files/Stage1_1.xlsx,,T2,B2,m,"['c', 'm']","['Clue', 'Monopoly']","[-0.15, 0.5]","[0.15, 0.5]",1,1,,,,,,,,,0,0,0,0,0,6,6,3,,,,,,,,,,,,,,,,,,,,,,,,,,,,,,,,,,,,,,,,,,,,,,,,,,,,,,,345.1784458760012,None,345.1784458760012,None,345.1784458760012,None,m,1,1.3984949590012548,346.7112857910033,None,346.7112857910033,None,346.7112857910033,None,348.1621869940027,None,348.1621869940027,None,348.1621869940027,None,348.1621869940027,None,,,,,,,,,,,,,,,,,,,,,,,,,,,,,,,,,,,,,,,,,,,,001,141,2020_Feb_18_1532,spring_faces,3.1.5,60.033203404209544,
condition files/Stage1_1.xlsx,,T1,B1,c,"['c', 'm']","['Clue', 'Monopoly']","[-0.15, 0.5]","[0.15, 0.5]",1,1,,,,,,,,,0,0,0,0,0,7,7,0,,,,,,,,,,,,,,,,,,,,,,,,,,,,,,,,,,,,,,,,,,,,,,,,,,,,,,,350.12899373800246,None,350.12899373800246,None,350.12899373800246,None,m,0,1.5041467619994364,351.6616444900028,None,351.6616444900028,None,351.6616444900028,None,353.22856956800024,None,353.22856956800024,None,353.22856956800024,None,353.22856956800024,None,,,,,,,,,,,,,,,,,,,,,,,,,,,,,,,,,,,,,,,,,,,,001,141,2020_Feb_18_1532,spring_faces,3.1.5,60.033203404209544,
condition files/Stage1_2.xlsx,,B3,T4,m,"['c', 'm']","['Clue', 'Monopoly']","[-0.15, 0.5]","[0.15, 0.5]",1,1,,,,,,,,,0,1,1,1,0,0,0,6,,,,,,,,,,,,,,,,,,,,,,,,,,,,,,,,,,,,,,,,,,,,,,,,,,,,,,,355.2118946970004,None,355.2118946970004,None,355.2118946970004,None,c,0,1.1884410780003236,356.74536389100103,None,356.74536389100103,None,356.74536389100103,None,357.9971250000017,None,357.9971250000017,None,357.9971250000017,None,357.9971250000017,None,,,,,,,,,,,,,,,,,,,,,,,,,,,,,,,,,,,,,,,,,,,,001,141,2020_Feb_18_1532,spring_faces,3.1.5,60.033203404209544,
condition files/Stage1_2.xlsx,,B4,T3,c,"['c', 'm']","['Clue', 'Monopoly']","[-0.15, 0.5]","[0.15, 0.5]",1,1,,,,,,,,,0,1,1,1,0,1,1,5,,,,,,,,,,,,,,,,,,,,,,,,,,,,,,,,,,,,,,,,,,,,,,,,,,,,,,,359.96201463000034,None,359.96201463000034,None,359.96201463000034,None,c,1,2.18003462300112,361.49774502900254,None,361.49774502900254,None,361.49774502900254,None,363.73058680500253,None,363.73058680500253,None,363.73058680500253,None,363.73058680500253,None,,,,,,,,,,,,,,,,,,,,,,,,,,,,,,,,,,,,,,,,,,,,001,141,2020_Feb_18_1532,spring_faces,3.1.5,60.033203404209544,
condition files/Stage1_2.xlsx,,T3,B3,c,"['c', 'm']","['Clue', 'Monopoly']","[-0.15, 0.5]","[0.15, 0.5]",1,1,,,,,,,,,0,1,1,1,0,2,2,4,,,,,,,,,,,,,,,,,,,,,,,,,,,,,,,,,,,,,,,,,,,,,,,,,,,,,,,365.6948996930005,None,365.6948996930005,None,365.6948996930005,None,c,1,1.5210043629995198,367.2288551670026,None,367.2288551670026,None,367.2288551670026,None,368.81234976100313,None,368.81234976100313,None,368.81234976100313,None,368.81234976100313,None,,,,,,,,,,,,,,,,,,,,,,,,,,,,,,,,,,,,,,,,,,,,001,141,2020_Feb_18_1532,spring_faces,3.1.5,60.033203404209544,
condition files/Stage1_2.xlsx,,T4,B4,m,"['c', 'm']","['Clue', 'Monopoly']","[-0.15, 0.5]","[0.15, 0.5]",1,1,,,,,,,,,0,1,1,1,0,3,3,7,,,,,,,,,,,,,,,,,,,,,,,,,,,,,,,,,,,,,,,,,,,,,,,,,,,,,,,370.7786764250013,None,370.7786764250013,None,370.7786764250013,None,m,1,0.7555485259981651,372.3143000730015,None,372.3143000730015,None,372.3143000730015,None,373.1455571230035,None,373.1455571230035,None,373.1455571230035,None,373.1455571230035,None,,,,,,,,,,,,,,,,,,,,,,,,,,,,,,,,,,,,,,,,,,,,001,141,2020_Feb_18_1532,spring_faces,3.1.5,60.033203404209544,
condition files/Stage1_2.xlsx,,B2,T2,m,"['c', 'm']","['Clue', 'Monopoly']","[-0.15, 0.5]","[0.15, 0.5]",1,1,,,,,,,,,0,1,1,1,0,4,4,3,,,,,,,,,,,,,,,,,,,,,,,,,,,,,,,,,,,,,,,,,,,,,,,,,,,,,,,375.0951983090017,None,375.0951983090017,None,375.0951983090017,None,c,0,0.967745335001382,376.63000907100286,None,376.63000907100286,None,376.63000907100286,None,377.6621729970029,None,377.6621729970029,None,377.6621729970029,None,377.6621729970029,None,,,,,,,,,,,,,,,,,,,,,,,,,,,,,,,,,,,,,,,,,,,,001,141,2020_Feb_18_1532,spring_faces,3.1.5,60.033203404209544,
condition files/Stage1_2.xlsx,,B1,T1,c,"['c', 'm']","['Clue', 'Monopoly']","[-0.15, 0.5]","[0.15, 0.5]",1,1,,,,,,,,,0,1,1,1,0,5,5,0,,,,,,,,,,,,,,,,,,,,,,,,,,,,,,,,,,,,,,,,,,,,,,,,,,,,,,,379.62810522100335,None,379.62810522100335,None,379.62810522100335,None,m,0,1.2670058319999953,381.1627344740009,None,381.1627344740009,None,381.1627344740009,None,382.4974437430028,None,382.4974437430028,None,382.4974437430028,None,382.4974437430028,None,,,,,,,,,,,,,,,,,,,,,,,,,,,,,,,,,,,,,,,,,,,,001,141,2020_Feb_18_1532,spring_faces,3.1.5,60.033203404209544,
condition files/Stage1_2.xlsx,,T2,B1,c,"['c', 'm']","['Clue', 'Monopoly']","[-0.15, 0.5]","[0.15, 0.5]",1,1,,,,,,,,,0,1,1,1,0,6,6,1,,,,,,,,,,,,,,,,,,,,,,,,,,,,,,,,,,,,,,,,,,,,,,,,,,,,,,,384.46220399600134,None,384.46220399600134,None,384.46220399600134,None,c,1,1.5226631160003308,385.9951390000024,None,385.9951390000024,None,385.9951390000024,None,387.57845279200046,None,387.57845279200046,None,387.57845279200046,None,387.57845279200046,None,,,,,,,,,,,,,,,,,,,,,,,,,,,,,,,,,,,,,,,,,,,,001,141,2020_Feb_18_1532,spring_faces,3.1.5,60.033203404209544,
condition files/Stage1_2.xlsx,,T1,B2,m,"['c', 'm']","['Clue', 'Monopoly']","[-0.15, 0.5]","[0.15, 0.5]",1,1,,,,,,,,,0,1,1,1,0,7,7,2,,,,,,,,,,,,,,,,,,,,,,,,,,,,,,,,,,,,,,,,,,,,,,,,,,,,,,,389.5453807290032,None,389.5453807290032,None,389.5453807290032,None,m,1,1.3658698499966704,391.0798719330014,None,391.0798719330014,None,391.0798719330014,None,392.49604749800346,None,392.49604749800346,None,392.49604749800346,None,392.49604749800346,None,,,,,,,,,,,,,,,,,,,,,,,,,,,,,,,,,,,,,,,,,,,,001,141,2020_Feb_18_1532,spring_faces,3.1.5,60.033203404209544,
condition files/Stage1_1.xlsx,,B2,T1,m,"['c', 'm']","['Clue', 'Monopoly']","[-0.15, 0.5]","[0.15, 0.5]",1,1,,,,,,,,,0,2,2,2,0,0,0,2,,,,,,,,,,,,,,,,,,,,,,,,,,,,,,,,,,,,,,,,,,,,,,,,,,,,,,,394.47874178700295,None,394.47874178700295,None,394.47874178700295,None,m,1,0.8810250839997025,396.0127606800015,None,396.0127606800015,None,396.0127606800015,None,396.94561321400033,None,396.94561321400033,None,396.94561321400033,None,396.94561321400033,None,,,,,,,,,,,,,,,,,,,,,,,,,,,,,,,,,,,,,,,,,,,,001,141,2020_Feb_18_1532,spring_faces,3.1.5,60.033203404209544,
condition files/Stage1_1.xlsx,,T2,B2,m,"['c', 'm']","['Clue', 'Monopoly']","[-0.15, 0.5]","[0.15, 0.5]",1,1,,,,,,,,,0,2,2,2,0,1,1,3,,,,,,,,,,,,,,,,,,,,,,,,,,,,,,,,,,,,,,,,,,,,,,,,,,,,,,,398.9119536770013,None,398.9119536770013,None,398.9119536770013,None,c,0,0.6243901749985525,400.4454654000001,None,400.4454654000001,None,400.4454654000001,None,401.1285141180015,None,401.1285141180015,None,401.1285141180015,None,401.1285141180015,None,,,,,,,,,,,,,,,,,,,,,,,,,,,,,,,,,,,,,,,,,,,,001,141,2020_Feb_18_1532,spring_faces,3.1.5,60.033203404209544,
condition files/Stage1_1.xlsx,,T3,B4,c,"['c', 'm']","['Clue', 'Monopoly']","[-0.15, 0.5]","[0.15, 0.5]",1,1,,,,,,,,,0,2,2,2,0,2,2,5,,,,,,,,,,,,,,,,,,,,,,,,,,,,,,,,,,,,,,,,,,,,,,,,,,,,,,,403.09554658000343,None,403.09554658000343,None,403.09554658000343,None,c,1,1.9283596989989746,404.6453526460027,None,404.6453526460027,None,404.6453526460027,None,406.63115160000234,None,406.63115160000234,None,406.63115160000234,None,406.63115160000234,None,,,,,,,,,,,,,,,,,,,,,,,,,,,,,,,,,,,,,,,,,,,,001,141,2020_Feb_18_1532,spring_faces,3.1.5,60.033203404209544,
condition files/Stage1_1.xlsx,,T4,B3,m,"['c', 'm']","['Clue', 'Monopoly']","[-0.15, 0.5]","[0.15, 0.5]",1,1,,,,,,,,,0,2,2,2,0,3,3,6,,,,,,,,,,,,,,,,,,,,,,,,,,,,,,,,,,,,,,,,,,,,,,,,,,,,,,,408.5955713100011,None,408.5955713100011,None,408.5955713100011,None,m,1,0.779958662998979,410.12982544400074,None,410.12982544400074,None,410.12982544400074,None,410.97884110600353,None,410.97884110600353,None,410.97884110600353,None,410.97884110600353,None,,,,,,,,,,,,,,,,,,,,,,,,,,,,,,,,,,,,,,,,,,,,001,141,2020_Feb_18_1532,spring_faces,3.1.5,60.033203404209544,
condition files/Stage1_1.xlsx,,B3,T3,c,"['c', 'm']","['Clue', 'Monopoly']","[-0.15, 0.5]","[0.15, 0.5]",1,1,,,,,,,,,0,2,2,2,0,4,4,4,,,,,,,,,,,,,,,,,,,,,,,,,,,,,,,,,,,,,,,,,,,,,,,,,,,,,,,412.92810542400184,None,412.92810542400184,None,412.92810542400184,None,m,0,1.1509186969997245,414.47880224000255,None,414.47880224000255,None,414.47880224000255,None,415.6964732700035,None,415.6964732700035,None,415.6964732700035,None,415.6964732700035,None,,,,,,,,,,,,,,,,,,,,,,,,,,,,,,,,,,,,,,,,,,,,001,141,2020_Feb_18_1532,spring_faces,3.1.5,60.033203404209544,
condition files/Stage1_1.xlsx,,B1,T2,c,"['c', 'm']","['Clue', 'Monopoly']","[-0.15, 0.5]","[0.15, 0.5]",1,1,,,,,,,,,0,2,2,2,0,5,5,1,,,,,,,,,,,,,,,,,,,,,,,,,,,,,,,,,,,,,,,,,,,,,,,,,,,,,,,417.6614134920019,None,417.6614134920019,None,417.6614134920019,None,c,1,1.2017205880001711,419.2120449419999,None,419.2120449419999,None,419.2120449419999,None,420.47876905400335,None,420.47876905400335,None,420.47876905400335,None,420.47876905400335,None,,,,,,,,,,,,,,,,,,,,,,,,,,,,,,,,,,,,,,,,,,,,001,141,2020_Feb_18_1532,spring_faces,3.1.5,60.033203404209544,
condition files/Stage1_1.xlsx,,T1,B1,c,"['c', 'm']","['Clue', 'Monopoly']","[-0.15, 0.5]","[0.15, 0.5]",1,1,,,,,,,,,0,2,2,2,0,6,6,0,,,,,,,,,,,,,,,,,,,,,,,,,,,,,,,,,,,,,,,,,,,,,,,,,,,,,,,422.4453385910019,None,422.4453385910019,None,422.4453385910019,None,m,0,1.0102696300018579,423.97947477600246,None,423.97947477600246,None,423.97947477600246,None,425.04539914100314,None,425.04539914100314,None,425.04539914100314,None,425.04539914100314,None,,,,,,,,,,,,,,,,,,,,,,,,,,,,,,,,,,,,,,,,,,,,001,141,2020_Feb_18_1532,spring_faces,3.1.5,60.033203404209544,
condition files/Stage1_1.xlsx,,B4,T4,m,"['c', 'm']","['Clue', 'Monopoly']","[-0.15, 0.5]","[0.15, 0.5]",1,1,,,,,,,,,0,2,2,2,0,7,7,7,,,,,,,,,,,,,,,,,,,,,,,,,,,,,,,,,,,,,,,,,,,,,,,,,,,,,,,427.01138815500235,None,427.01138815500235,None,427.01138815500235,None,m,1,0.908112096003606,428.56172500200046,None,428.56172500200046,None,428.56172500200046,None,429.529055711002,None,429.529055711002,None,429.529055711002,None,429.529055711002,None,,,,,,,,,,,,,,,,,,,,,,,,,,,,,,,,,,,,,,,,,,,,001,141,2020_Feb_18_1532,spring_faces,3.1.5,60.033203404209544,
condition files/Stage1_2.xlsx,,B1,T1,c,"['c', 'm']","['Clue', 'Monopoly']","[-0.15, 0.5]","[0.15, 0.5]",1,1,,,,,,,,,0,3,3,3,0,0,0,0,,,,,,,,,,,,,,,,,,,,,,,,,,,,,,,,,,,,,,,,,,,,,,,,,,,,,,,431.51237677000245,None,431.51237677000245,None,431.51237677000245,None,c,1,1.0621094960006303,433.0476769350025,None,433.0476769350025,None,433.0476769350025,None,434.1632724200026,None,434.1632724200026,None,434.1632724200026,None,434.1632724200026,None,,,,,,,,,,,,,,,,,,,,,,,,,,,,,,,,,,,,,,,,,,,,001,141,2020_Feb_18_1532,spring_faces,3.1.5,60.033203404209544,
condition files/Stage1_2.xlsx,,T4,B4,m,"['c', 'm']","['Clue', 'Monopoly']","[-0.15, 0.5]","[0.15, 0.5]",1,1,,,,,,,,,0,3,3,3,0,1,1,7,,,,,,,,,,,,,,,,,,,,,,,,,,,,,,,,,,,,,,,,,,,,,,,,,,,,,,,436.1286143790021,None,436.1286143790021,None,436.1286143790021,None,m,1,1.4383304820003104,437.66351440200015,None,437.66351440200015,None,437.66351440200015,None,439.16286617100195,None,439.16286617100195,None,439.16286617100195,None,439.16286617100195,None,,,,,,,,,,,,,,,,,,,,,,,,,,,,,,,,,,,,,,,,,,,,001,141,2020_Feb_18_1532,spring_faces,3.1.5,60.033203404209544,
condition files/Stage1_2.xlsx,,B2,T2,m,"['c', 'm']","['Clue', 'Monopoly']","[-0.15, 0.5]","[0.15, 0.5]",1,1,,,,,,,,,0,3,3,3,0,2,2,3,,,,,,,,,,,,,,,,,,,,,,,,,,,,,,,,,,,,,,,,,,,,,,,,,,,,,,,441.1286402870028,None,441.1286402870028,None,441.1286402870028,None,c,0,0.7428431570006069,442.6788550710007,None,442.6788550710007,None,442.6788550710007,None,443.47866832900036,None,443.47866832900036,None,443.47866832900036,None,443.47866832900036,None,,,,,,,,,,,,,,,,,,,,,,,,,,,,,,,,,,,,,,,,,,,,001,141,2020_Feb_18_1532,spring_faces,3.1.5,60.033203404209544,
condition files/Stage1_2.xlsx,,T2,B1,c,"['c', 'm']","['Clue', 'Monopoly']","[-0.15, 0.5]","[0.15, 0.5]",1,1,,,,,,,,,0,3,3,3,0,3,3,1,,,,,,,,,,,,,,,,,,,,,,,,,,,,,,,,,,,,,,,,,,,,,,,,,,,,,,,445.44486215300276,None,445.44486215300276,None,445.44486215300276,None,m,0,1.8984839000004285,446.9792976400022,None,446.9792976400022,None,446.9792976400022,None,448.92895774000135,None,448.92895774000135,None,448.92895774000135,None,448.92895774000135,None,,,,,,,,,,,,,,,,,,,,,,,,,,,,,,,,,,,,,,,,,,,,001,141,2020_Feb_18_1532,spring_faces,3.1.5,60.033203404209544,
condition files/Stage1_2.xlsx,,B3,T4,m,"['c', 'm']","['Clue', 'Monopoly']","[-0.15, 0.5]","[0.15, 0.5]",1,1,,,,,,,,,0,3,3,3,0,4,4,6,,,,,,,,,,,,,,,,,,,,,,,,,,,,,,,,,,,,,,,,,,,,,,,,,,,,,,,450.89526435800144,None,450.89526435800144,None,450.89526435800144,None,m,1,1.2972096890007379,452.4285650140009,None,452.4285650140009,None,452.4285650140009,None,453.7813738830009,None,453.7813738830009,None,453.7813738830009,None,453.7813738830009,None,,,,,,,,,,,,,,,,,,,,,,,,,,,,,,,,,,,,,,,,,,,,001,141,2020_Feb_18_1532,spring_faces,3.1.5,60.033203404209544,
condition files/Stage1_2.xlsx,,B4,T3,c,"['c', 'm']","['Clue', 'Monopoly']","[-0.15, 0.5]","[0.15, 0.5]",1,1,,,,,,,,,0,3,3,3,0,5,5,5,,,,,,,,,,,,,,,,,,,,,,,,,,,,,,,,,,,,,,,,,,,,,,,,,,,,,,,455.7453397550016,None,455.7453397550016,None,455.7453397550016,None,c,1,1.0068366840023373,457.29499357700115,None,457.29499357700115,None,457.29499357700115,None,458.36369942200326,None,458.36369942200326,None,458.36369942200326,None,458.36369942200326,None,,,,,,,,,,,,,,,,,,,,,,,,,,,,,,,,,,,,,,,,,,,,001,141,2020_Feb_18_1532,spring_faces,3.1.5,60.033203404209544,
condition files/Stage1_2.xlsx,,T1,B2,m,"['c', 'm']","['Clue', 'Monopoly']","[-0.15, 0.5]","[0.15, 0.5]",1,1,,,,,,,,,0,3,3,3,0,6,6,2,,,,,,,,,,,,,,,,,,,,,,,,,,,,,,,,,,,,,,,,,,,,,,,,,,,,,,,460.3286527770033,None,460.3286527770033,None,460.3286527770033,None,m,1,0.9994865100015886,461.86229331100185,None,461.86229331100185,None,461.86229331100185,None,462.9138003690023,None,462.9138003690023,None,462.9138003690023,None,462.9138003690023,None,,,,,,,,,,,,,,,,,,,,,,,,,,,,,,,,,,,,,,,,,,,,001,141,2020_Feb_18_1532,spring_faces,3.1.5,60.033203404209544,
condition files/Stage1_2.xlsx,,T3,B3,c,"['c', 'm']","['Clue', 'Monopoly']","[-0.15, 0.5]","[0.15, 0.5]",1,1,,,,,,,,,0,3,3,3,0,7,7,4,,,,,,,,,,,,,,,,,,,,,,,,,,,,,,,,,,,,,,,,,,,,,,,,,,,,,,,464.87861634,None,464.87861634,None,464.87861634,None,c,1,0.817401410000457,466.4123302850021,None,466.4123302850021,None,466.4123302850021,None,467.2971635910035,None,467.2971635910035,None,467.2971635910035,None,467.2971635910035,None,,,,,,,,,,,,,,,,,,,,,,,,,,,,,,,,,,,,,,,,,,,,001,141,2020_Feb_18_1532,spring_faces,3.1.5,60.033203404209544,
condition files/Stage1_1.xlsx,,B1,T2,c,"['c', 'm']","['Clue', 'Monopoly']","[-0.15, 0.5]","[0.15, 0.5]",1,1,,,,,,,,,0,4,4,4,0,0,0,1,,,,,,,,,,,,,,,,,,,,,,,,,,,,,,,,,,,,,,,,,,,,,,,,,,,,,,,469.2790379650032,None,469.2790379650032,None,469.2790379650032,None,c,1,2.0960920519974025,470.8136915150026,None,470.8136915150026,None,470.8136915150026,None,472.9624716870021,None,472.9624716870021,None,472.9624716870021,None,472.9624716870021,None,,,,,,,,,,,,,,,,,,,,,,,,,,,,,,,,,,,,,,,,,,,,001,141,2020_Feb_18_1532,spring_faces,3.1.5,60.033203404209544,
condition files/Stage1_1.xlsx,,T4,B3,m,"['c', 'm']","['Clue', 'Monopoly']","[-0.15, 0.5]","[0.15, 0.5]",1,1,,,,,,,,,0,4,4,4,0,1,1,6,,,,,,,,,,,,,,,,,,,,,,,,,,,,,,,,,,,,,,,,,,,,,,,,,,,,,,,474.9290981760023,None,474.9290981760023,None,474.9290981760023,None,m,1,0.8786514179992082,476.4790772230008,None,476.4790772230008,None,476.4790772230008,None,477.41290423600003,None,477.41290423600003,None,477.41290423600003,None,477.41290423600003,None,,,,,,,,,,,,,,,,,,,,,,,,,,,,,,,,,,,,,,,,,,,,001,141,2020_Feb_18_1532,spring_faces,3.1.5,60.033203404209544,
condition files/Stage1_1.xlsx,,T3,B4,c,"['c', 'm']","['Clue', 'Monopoly']","[-0.15, 0.5]","[0.15, 0.5]",1,1,,,,,,,,,0,4,4,4,0,2,2,5,,,,,,,,,,,,,,,,,,,,,,,,,,,,,,,,,,,,,,,,,,,,,,,,,,,,,,,479.3781170370021,None,479.3781170370021,None,479.3781170370021,None,c,1,1.1486403979979514,480.9291233630029,None,480.9291233630029,None,480.9291233630029,None,482.14553109900226,None,482.14553109900226,None,482.14553109900226,None,482.14553109900226,None,,,,,,,,,,,,,,,,,,,,,,,,,,,,,,,,,,,,,,,,,,,,001,141,2020_Feb_18_1532,spring_faces,3.1.5,60.033203404209544,
condition files/Stage1_1.xlsx,,T2,B2,m,"['c', 'm']","['Clue', 'Monopoly']","[-0.15, 0.5]","[0.15, 0.5]",1,1,,,,,,,,,0,4,4,4,0,3,3,3,,,,,,,,,,,,,,,,,,,,,,,,,,,,,,,,,,,,,,,,,,,,,,,,,,,,,,,484.0953411340015,None,484.0953411340015,None,484.0953411340015,None,c,0,1.2969781680003507,485.6450310470027,None,485.6450310470027,None,485.6450310470027,None,486.9958830200012,None,486.9958830200012,None,486.9958830200012,None,486.9958830200012,None,,,,,,,,,,,,,,,,,,,,,,,,,,,,,,,,,,,,,,,,,,,,001,141,2020_Feb_18_1532,spring_faces,3.1.5,60.033203404209544,
condition files/Stage1_1.xlsx,,T1,B1,c,"['c', 'm']","['Clue', 'Monopoly']","[-0.15, 0.5]","[0.15, 0.5]",1,1,,,,,,,,,0,4,4,4,0,4,4,0,,,,,,,,,,,,,,,,,,,,,,,,,,,,,,,,,,,,,,,,,,,,,,,,,,,,,,,488.9615404870019,None,488.9615404870019,None,488.9615404870019,None,m,0,0.2700561320016277,490.51171931499994,None,490.51171931499994,None,490.51171931499994,None,490.86238487100127,None,490.86238487100127,None,490.86238487100127,None,490.86238487100127,None,,,,,,,,,,,,,,,,,,,,,,,,,,,,,,,,,,,,,,,,,,,,001,141,2020_Feb_18_1532,spring_faces,3.1.5,60.033203404209544,
condition files/Stage1_1.xlsx,,B4,T4,m,"['c', 'm']","['Clue', 'Monopoly']","[-0.15, 0.5]","[0.15, 0.5]",1,1,,,,,,,,,0,4,4,4,0,5,5,7,,,,,,,,,,,,,,,,,,,,,,,,,,,,,,,,,,,,,,,,,,,,,,,,,,,,,,,492.8119476150023,None,492.8119476150023,None,492.8119476150023,None,m,1,0.37036630399961723,494.347464657003,None,494.347464657003,None,494.347464657003,None,494.7816176450033,None,494.7816176450033,None,494.7816176450033,None,494.7816176450033,None,,,,,,,,,,,,,,,,,,,,,,,,,,,,,,,,,,,,,,,,,,,,001,141,2020_Feb_18_1532,spring_faces,3.1.5,60.033203404209544,
condition files/Stage1_1.xlsx,,B3,T3,c,"['c', 'm']","['Clue', 'Monopoly']","[-0.15, 0.5]","[0.15, 0.5]",1,1,,,,,,,,,0,4,4,4,0,6,6,4,,,,,,,,,,,,,,,,,,,,,,,,,,,,,,,,,,,,,,,,,,,,,,,,,,,,,,,496.7453323059999,None,496.7453323059999,None,496.7453323059999,None,c,1,0.8058399300025485,498.28002105199994,None,498.28002105199994,None,498.28002105199994,None,499.1463999260013,None,499.1463999260013,None,499.1463999260013,None,499.1463999260013,None,,,,,,,,,,,,,,,,,,,,,,,,,,,,,,,,,,,,,,,,,,,,001,141,2020_Feb_18_1532,spring_faces,3.1.5,60.033203404209544,
condition files/Stage1_1.xlsx,,B2,T1,m,"['c', 'm']","['Clue', 'Monopoly']","[-0.15, 0.5]","[0.15, 0.5]",1,1,,,,,,,,,0,4,4,4,0,7,7,2,,,,,,,,,,,,,,,,,,,,,,,,,,,,,,,,,,,,,,,,,,,,,,,,,,,,,,,501.11157117900075,None,501.11157117900075,None,501.11157117900075,None,m,1,0.8561309969991271,502.64571008200073,None,502.64571008200073,None,502.64571008200073,None,503.56386397200185,None,503.56386397200185,None,503.56386397200185,None,503.56386397200185,None,,,,,,,,,,,,,,,,,,,,,,,,,,,,,,,,,,,,,,,,,,,,001,141,2020_Feb_18_1532,spring_faces,3.1.5,60.033203404209544,
condition files/Stage1_2.xlsx,,B3,T4,m,"['c', 'm']","['Clue', 'Monopoly']","[-0.15, 0.5]","[0.15, 0.5]",1,1,,,,,,,,,0,5,5,5,0,0,0,6,,,,,,,,,,,,,,,,,,,,,,,,,,,,,,,,,,,,,,,,,,,,,,,,,,,,,,,505.5458083730009,None,505.5458083730009,None,505.5458083730009,None,m,1,0.6463215939984366,507.09557446300096,None,507.09557446300096,None,507.09557446300096,None,507.79557494200344,None,507.79557494200344,None,507.79557494200344,None,507.79557494200344,None,,,,,,,,,,,,,,,,,,,,,,,,,,,,,,,,,,,,,,,,,,,,001,141,2020_Feb_18_1532,spring_faces,3.1.5,60.033203404209544,
condition files/Stage1_2.xlsx,,T2,B1,c,"['c', 'm']","['Clue', 'Monopoly']","[-0.15, 0.5]","[0.15, 0.5]",1,1,,,,,,,,,0,5,5,5,0,1,1,1,,,,,,,,,,,,,,,,,,,,,,,,,,,,,,,,,,,,,,,,,,,,,,,,,,,,,,,509.76192781400096,None,509.76192781400096,None,509.76192781400096,None,c,1,0.6524504690023605,511.29739188000167,None,511.29739188000167,None,511.29739188000167,None,512.0147613410008,None,512.0147613410008,None,512.0147613410008,None,512.0147613410008,None,,,,,,,,,,,,,,,,,,,,,,,,,,,,,,,,,,,,,,,,,,,,001,141,2020_Feb_18_1532,spring_faces,3.1.5,60.033203404209544,
condition files/Stage1_2.xlsx,,T1,B2,m,"['c', 'm']","['Clue', 'Monopoly']","[-0.15, 0.5]","[0.15, 0.5]",1,1,,,,,,,,,0,5,5,5,0,2,2,2,,,,,,,,,,,,,,,,,,,,,,,,,,,,,,,,,,,,,,,,,,,,,,,,,,,,,,,513.9785629280013,None,513.9785629280013,None,513.9785629280013,None,c,0,0.8531072069999937,515.5126852800022,None,515.5126852800022,None,515.5126852800022,None,516.4455591020014,None,516.4455591020014,None,516.4455591020014,None,516.4455591020014,None,,,,,,,,,,,,,,,,,,,,,,,,,,,,,,,,,,,,,,,,,,,,001,141,2020_Feb_18_1532,spring_faces,3.1.5,60.033203404209544,
condition files/Stage1_2.xlsx,,T4,B4,m,"['c', 'm']","['Clue', 'Monopoly']","[-0.15, 0.5]","[0.15, 0.5]",1,1,,,,,,,,,0,5,5,5,0,3,3,7,,,,,,,,,,,,,,,,,,,,,,,,,,,,,,,,,,,,,,,,,,,,,,,,,,,,,,,518.3954520330008,None,518.3954520330008,None,518.3954520330008,None,m,1,0.5326670009999361,519.9291128730001,None,519.9291128730001,None,519.9291128730001,None,520.5125248780023,None,520.5125248780023,None,520.5125248780023,None,520.5125248780023,None,,,,,,,,,,,,,,,,,,,,,,,,,,,,,,,,,,,,,,,,,,,,001,141,2020_Feb_18_1532,spring_faces,3.1.5,60.033203404209544,
condition files/Stage1_2.xlsx,,B4,T3,c,"['c', 'm']","['Clue', 'Monopoly']","[-0.15, 0.5]","[0.15, 0.5]",1,1,,,,,,,,,0,5,5,5,0,4,4,5,,,,,,,,,,,,,,,,,,,,,,,,,,,,,,,,,,,,,,,,,,,,,,,,,,,,,,,522.4786733920009,None,522.4786733920009,None,522.4786733920009,None,c,1,0.9930047509988071,524.0287033380009,None,524.0287033380009,None,524.0287033380009,None,525.0948788330024,None,525.0948788330024,None,525.0948788330024,None,525.0948788330024,None,,,,,,,,,,,,,,,,,,,,,,,,,,,,,,,,,,,,,,,,,,,,001,141,2020_Feb_18_1532,spring_faces,3.1.5,60.033203404209544,
condition files/Stage1_2.xlsx,,B2,T2,m,"['c', 'm']","['Clue', 'Monopoly']","[-0.15, 0.5]","[0.15, 0.5]",1,1,,,,,,,,,0,5,5,5,0,5,5,3,,,,,,,,,,,,,,,,,,,,,,,,,,,,,,,,,,,,,,,,,,,,,,,,,,,,,,,527.0445478730035,None,527.0445478730035,None,527.0445478730035,None,c,0,0.8901841349979804,528.595657044003,None,528.595657044003,None,528.595657044003,None,529.545227638002,None,529.545227638002,None,529.545227638002,None,529.545227638002,None,,,,,,,,,,,,,,,,,,,,,,,,,,,,,,,,,,,,,,,,,,,,001,141,2020_Feb_18_1532,spring_faces,3.1.5,60.033203404209544,
condition files/Stage1_2.xlsx,,T3,B3,c,"['c', 'm']","['Clue', 'Monopoly']","[-0.15, 0.5]","[0.15, 0.5]",1,1,,,,,,,,,0,5,5,5,0,6,6,4,,,,,,,,,,,,,,,,,,,,,,,,,,,,,,,,,,,,,,,,,,,,,,,,,,,,,,,531.5119644170009,None,531.5119644170009,None,531.5119644170009,None,c,1,1.1283349450022797,533.0454153230021,None,533.0454153230021,None,533.0454153230021,None,534.2452167950032,None,534.2452167950032,None,534.2452167950032,None,534.2452167950032,None,,,,,,,,,,,,,,,,,,,,,,,,,,,,,,,,,,,,,,,,,,,,001,141,2020_Feb_18_1532,spring_faces,3.1.5,60.033203404209544,
condition files/Stage1_2.xlsx,,B1,T1,c,"['c', 'm']","['Clue', 'Monopoly']","[-0.15, 0.5]","[0.15, 0.5]",1,1,,,,,,,,,0,5,5,5,0,7,7,0,,,,,,,,,,,,,,,,,,,,,,,,,,,,,,,,,,,,,,,,,,,,,,,,,,,,,,,536.1947379980011,None,536.1947379980011,None,536.1947379980011,None,m,0,0.7153467429998273,537.7303530410027,None,537.7303530410027,None,537.7303530410027,None,538.5118272840009,None,538.5118272840009,None,538.5118272840009,None,538.5118272840009,None,,,,,,,,,,,,,,,,,,,,,,,,,,,,,,,,,,,,,,,,,,,,001,141,2020_Feb_18_1532,spring_faces,3.1.5,60.033203404209544,
condition files/Stage1_1.xlsx,,T4,B3,m,"['c', 'm']","['Clue', 'Monopoly']","[-0.15, 0.5]","[0.15, 0.5]",1,1,,,,,,,,,0,6,6,6,0,0,0,6,,,,,,,,,,,,,,,,,,,,,,,,,,,,,,,,,,,,,,,,,,,,,,,,,,,,,,,540.4956022990009,None,540.4956022990009,None,540.4956022990009,None,m,1,0.6889929009994376,542.0287942900031,None,542.0287942900031,None,542.0287942900031,None,542.7779308950012,None,542.7779308950012,None,542.7779308950012,None,542.7779308950012,None,,,,,,,,,,,,,,,,,,,,,,,,,,,,,,,,,,,,,,,,,,,,001,141,2020_Feb_18_1532,spring_faces,3.1.5,60.033203404209544,
condition files/Stage1_1.xlsx,,B1,T2,c,"['c', 'm']","['Clue', 'Monopoly']","[-0.15, 0.5]","[0.15, 0.5]",1,1,,,,,,,,,0,6,6,6,0,1,1,1,,,,,,,,,,,,,,,,,,,,,,,,,,,,,,,,,,,,,,,,,,,,,,,,,,,,,,,544.7454207360024,None,544.7454207360024,None,544.7454207360024,None,c,1,0.9830602629990608,546.2787257570017,None,546.2787257570017,None,546.2787257570017,None,547.3141787290006,None,547.3141787290006,None,547.3141787290006,None,547.3141787290006,None,,,,,,,,,,,,,,,,,,,,,,,,,,,,,,,,,,,,,,,,,,,,001,141,2020_Feb_18_1532,spring_faces,3.1.5,60.033203404209544,
condition files/Stage1_1.xlsx,,B2,T1,m,"['c', 'm']","['Clue', 'Monopoly']","[-0.15, 0.5]","[0.15, 0.5]",1,1,,,,,,,,,0,6,6,6,0,2,2,2,,,,,,,,,,,,,,,,,,,,,,,,,,,,,,,,,,,,,,,,,,,,,,,,,,,,,,,549.2786667780019,None,549.2786667780019,None,549.2786667780019,None,m,1,0.6888641260011354,550.8129746990016,None,550.8129746990016,None,550.8129746990016,None,551.5641854070018,None,551.5641854070018,None,551.5641854070018,None,551.5641854070018,None,,,,,,,,,,,,,,,,,,,,,,,,,,,,,,,,,,,,,,,,,,,,001,141,2020_Feb_18_1532,spring_faces,3.1.5,60.033203404209544,
condition files/Stage1_1.xlsx,,B4,T4,m,"['c', 'm']","['Clue', 'Monopoly']","[-0.15, 0.5]","[0.15, 0.5]",1,1,,,,,,,,,0,6,6,6,0,3,3,7,,,,,,,,,,,,,,,,,,,,,,,,,,,,,,,,,,,,,,,,,,,,,,,,,,,,,,,553.5287074530024,None,553.5287074530024,None,553.5287074530024,None,m,1,0.6789506320019427,555.0628375860033,None,555.0628375860033,None,555.0628375860033,None,555.7950171950033,None,555.7950171950033,None,555.7950171950033,None,555.7950171950033,None,,,,,,,,,,,,,,,,,,,,,,,,,,,,,,,,,,,,,,,,,,,,001,141,2020_Feb_18_1532,spring_faces,3.1.5,60.033203404209544,
condition files/Stage1_1.xlsx,,T2,B2,m,"['c', 'm']","['Clue', 'Monopoly']","[-0.15, 0.5]","[0.15, 0.5]",1,1,,,,,,,,,0,6,6,6,0,4,4,3,,,,,,,,,,,,,,,,,,,,,,,,,,,,,,,,,,,,,,,,,,,,,,,,,,,,,,,557.7615556830024,None,557.7615556830024,None,557.7615556830024,None,c,0,0.7015907999993942,559.3121812060017,None,559.3121812060017,None,559.3121812060017,None,560.078960406001,None,560.078960406001,None,560.078960406001,None,560.078960406001,None,,,,,,,,,,,,,,,,,,,,,,,,,,,,,,,,,,,,,,,,,,,,001,141,2020_Feb_18_1532,spring_faces,3.1.5,60.033203404209544,
condition files/Stage1_1.xlsx,,B3,T3,c,"['c', 'm']","['Clue', 'Monopoly']","[-0.15, 0.5]","[0.15, 0.5]",1,1,,,,,,,,,0,6,6,6,0,5,5,4,,,,,,,,,,,,,,,,,,,,,,,,,,,,,,,,,,,,,,,,,,,,,,,,,,,,,,,562.0448215430006,None,562.0448215430006,None,562.0448215430006,None,m,0,1.234068963000027,563.5956437550012,None,563.5956437550012,None,563.5956437550012,None,564.912346268,None,564.912346268,None,564.912346268,None,564.912346268,None,,,,,,,,,,,,,,,,,,,,,,,,,,,,,,,,,,,,,,,,,,,,001,141,2020_Feb_18_1532,spring_faces,3.1.5,60.033203404209544,
condition files/Stage1_1.xlsx,,T1,B1,c,"['c', 'm']","['Clue', 'Monopoly']","[-0.15, 0.5]","[0.15, 0.5]",1,1,,,,,,,,,0,6,6,6,0,6,6,0,,,,,,,,,,,,,,,,,,,,,,,,,,,,,,,,,,,,,,,,,,,,,,,,,,,,,,,566.8622524240018,None,566.8622524240018,None,566.8622524240018,None,c,1,0.5278960510004254,568.3978754820018,None,568.3978754820018,None,568.3978754820018,None,568.9780142350028,None,568.9780142350028,None,568.9780142350028,None,568.9780142350028,None,,,,,,,,,,,,,,,,,,,,,,,,,,,,,,,,,,,,,,,,,,,,001,141,2020_Feb_18_1532,spring_faces,3.1.5,60.033203404209544,
condition files/Stage1_1.xlsx,,T3,B4,c,"['c', 'm']","['Clue', 'Monopoly']","[-0.15, 0.5]","[0.15, 0.5]",1,1,,,,,,,,,0,6,6,6,0,7,7,5,,,,,,,,,,,,,,,,,,,,,,,,,,,,,,,,,,,,,,,,,,,,,,,,,,,,,,,570.9447504170021,None,570.9447504170021,None,570.9447504170021,None,m,0,0.9567942230023618,572.4810645720027,None,572.4810645720027,None,572.4810645720027,None,573.4955624920003,None,573.4955624920003,None,573.4955624920003,None,573.4955624920003,None,,,,,,,,,,,,,,,,,,,,,,,,,,,,,,,,,,,,,,,,,,,,001,141,2020_Feb_18_1532,spring_faces,3.1.5,60.033203404209544,
condition files/Stage1_2.xlsx,,T1,B2,m,"['c', 'm']","['Clue', 'Monopoly']","[-0.15, 0.5]","[0.15, 0.5]",1,1,,,,,,,,,0,7,7,7,0,0,0,2,,,,,,,,,,,,,,,,,,,,,,,,,,,,,,,,,,,,,,,,,,,,,,,,,,,,,,,575.4786527200013,None,575.4786527200013,None,575.4786527200013,None,c,0,1.1922878619989206,577.0135632960009,None,577.0135632960009,None,577.0135632960009,None,578.2632830270013,None,578.2632830270013,None,578.2632830270013,None,578.2632830270013,None,,,,,,,,,,,,,,,,,,,,,,,,,,,,,,,,,,,,,,,,,,,,001,141,2020_Feb_18_1532,spring_faces,3.1.5,60.033203404209544,
condition files/Stage1_2.xlsx,,B4,T3,c,"['c', 'm']","['Clue', 'Monopoly']","[-0.15, 0.5]","[0.15, 0.5]",1,1,,,,,,,,,0,7,7,7,0,1,1,5,,,,,,,,,,,,,,,,,,,,,,,,,,,,,,,,,,,,,,,,,,,,,,,,,,,,,,,580.2287462150016,None,580.2287462150016,None,580.2287462150016,None,c,1,1.6580167059983069,581.7637087230032,None,581.7637087230032,None,581.7637087230032,None,583.4953490610023,None,583.4953490610023,None,583.4953490610023,None,583.4953490610023,None,,,,,,,,,,,,,,,,,,,,,,,,,,,,,,,,,,,,,,,,,,,,001,141,2020_Feb_18_1532,spring_faces,3.1.5,60.033203404209544,
condition files/Stage1_2.xlsx,,T3,B3,c,"['c', 'm']","['Clue', 'Monopoly']","[-0.15, 0.5]","[0.15, 0.5]",1,1,,,,,,,,,0,7,7,7,0,2,2,4,,,,,,,,,,,,,,,,,,,,,,,,,,,,,,,,,,,,,,,,,,,,,,,,,,,,,,,585.4454215490005,None,585.4454215490005,None,585.4454215490005,None,c,1,0.8752658669982338,586.978593961001,None,586.978593961001,None,586.978593961001,None,587.9118003240001,None,587.9118003240001,None,587.9118003240001,None,587.9118003240001,None,,,,,,,,,,,,,,,,,,,,,,,,,,,,,,,,,,,,,,,,,,,,001,141,2020_Feb_18_1532,spring_faces,3.1.5,60.033203404209544,
condition files/Stage1_2.xlsx,,T2,B1,c,"['c', 'm']","['Clue', 'Monopoly']","[-0.15, 0.5]","[0.15, 0.5]",1,1,,,,,,,,,0,7,7,7,0,3,3,1,,,,,,,,,,,,,,,,,,,,,,,,,,,,,,,,,,,,,,,,,,,,,,,,,,,,,,,589.878807473,None,589.878807473,None,589.878807473,None,m,0,1.4010513520006498,591.4286776030021,None,591.4286776030021,None,591.4286776030021,None,592.8958917220007,None,592.8958917220007,None,592.8958917220007,None,592.8958917220007,None,,,,,,,,,,,,,,,,,,,,,,,,,,,,,,,,,,,,,,,,,,,,001,141,2020_Feb_18_1532,spring_faces,3.1.5,60.033203404209544,
condition files/Stage1_2.xlsx,,B1,T1,c,"['c', 'm']","['Clue', 'Monopoly']","[-0.15, 0.5]","[0.15, 0.5]",1,1,,,,,,,,,0,7,7,7,0,4,4,0,,,,,,,,,,,,,,,,,,,,,,,,,,,,,,,,,,,,,,,,,,,,,,,,,,,,,,,594.861386964003,None,594.861386964003,None,594.861386964003,None,m,0,1.1215587469996535,596.4121853200013,None,596.4121853200013,None,596.4121853200013,None,597.5955698130019,None,597.5955698130019,None,597.5955698130019,None,597.5955698130019,None,,,,,,,,,,,,,,,,,,,,,,,,,,,,,,,,,,,,,,,,,,,,001,141,2020_Feb_18_1532,spring_faces,3.1.5,60.033203404209544,
condition files/Stage1_2.xlsx,,B2,T2,m,"['c', 'm']","['Clue', 'Monopoly']","[-0.15, 0.5]","[0.15, 0.5]",1,1,,,,,,,,,0,7,7,7,0,5,5,3,,,,,,,,,,,,,,,,,,,,,,,,,,,,,,,,,,,,,,,,,,,,,,,,,,,,,,,599.5620303210017,None,599.5620303210017,None,599.5620303210017,None,m,1,1.6227830419993552,601.0949967700035,None,601.0949967700035,None,601.0949967700035,None,602.7782567040013,None,602.7782567040013,None,602.7782567040013,None,602.7782567040013,None,,,,,,,,,,,,,,,,,,,,,,,,,,,,,,,,,,,,,,,,,,,,001,141,2020_Feb_18_1532,spring_faces,3.1.5,60.033203404209544,
condition files/Stage1_2.xlsx,,B3,T4,m,"['c', 'm']","['Clue', 'Monopoly']","[-0.15, 0.5]","[0.15, 0.5]",1,1,,,,,,,,,0,7,7,7,0,6,6,6,,,,,,,,,,,,,,,,,,,,,,,,,,,,,,,,,,,,,,,,,,,,,,,,,,,,,,,604.7452795160025,None,604.7452795160025,None,604.7452795160025,None,m,1,0.7428228779972414,606.2789048150007,None,606.2789048150007,None,606.2789048150007,None,607.0786721300028,None,607.0786721300028,None,607.0786721300028,None,607.0786721300028,None,,,,,,,,,,,,,,,,,,,,,,,,,,,,,,,,,,,,,,,,,,,,001,141,2020_Feb_18_1532,spring_faces,3.1.5,60.033203404209544,
condition files/Stage1_2.xlsx,,T4,B4,m,"['c', 'm']","['Clue', 'Monopoly']","[-0.15, 0.5]","[0.15, 0.5]",1,1,,,,,,,,,0,7,7,7,0,7,7,7,,,,,,,,,,,,,,,,,,,,,,,,,,,,,,,,,,,,,,,,,,,,,,,,,,,,,,,609.0455890380035,None,609.0455890380035,None,609.0455890380035,None,m,1,0.47402691499883076,610.5957814860012,None,610.5957814860012,None,610.5957814860012,None,611.1286843680027,None,611.1286843680027,None,611.1286843680027,None,611.1286843680027,None,,,,,,,,,,,,,,,,,,,,,,,,,,,,,,,,,,,,,,,,,,,,001,141,2020_Feb_18_1532,spring_faces,3.1.5,60.033203404209544,
condition files/Stage1_1.xlsx,,T1,B1,c,"['c', 'm']","['Clue', 'Monopoly']","[-0.15, 0.5]","[0.15, 0.5]",1,1,,,,,,,,,0,8,8,8,0,0,0,0,,,,,,,,,,,,,,,,,,,,,,,,,,,,,,,,,,,,,,,,,,,,,,,,,,,,,,,613.1125370600021,None,613.1125370600021,None,613.1125370600021,None,c,1,1.2718784130011045,614.6459204860003,None,614.6459204860003,None,614.6459204860003,None,615.9797526550028,None,615.9797526550028,None,615.9797526550028,None,615.9797526550028,None,,,,,,,,,,,,,,,,,,,,,,,,,,,,,,,,,,,,,,,,,,,,001,141,2020_Feb_18_1532,spring_faces,3.1.5,60.033203404209544,
condition files/Stage1_1.xlsx,,T3,B4,c,"['c', 'm']","['Clue', 'Monopoly']","[-0.15, 0.5]","[0.15, 0.5]",1,1,,,,,,,,,0,8,8,8,0,1,1,5,,,,,,,,,,,,,,,,,,,,,,,,,,,,,,,,,,,,,,,,,,,,,,,,,,,,,,,617.9453153430004,None,617.9453153430004,None,617.9453153430004,None,c,1,1.446862560002046,619.4789204040026,None,619.4789204040026,None,619.4789204040026,None,620.9787934860033,None,620.9787934860033,None,620.9787934860033,None,620.9787934860033,None,,,,,,,,,,,,,,,,,,,,,,,,,,,,,,,,,,,,,,,,,,,,001,141,2020_Feb_18_1532,spring_faces,3.1.5,60.033203404209544,
condition files/Stage1_1.xlsx,,B4,T4,m,"['c', 'm']","['Clue', 'Monopoly']","[-0.15, 0.5]","[0.15, 0.5]",1,1,,,,,,,,,0,8,8,8,0,2,2,7,,,,,,,,,,,,,,,,,,,,,,,,,,,,,,,,,,,,,,,,,,,,,,,,,,,,,,,622.9452306540006,None,622.9452306540006,None,622.9452306540006,None,m,1,0.7497868509999535,624.479939486002,None,624.479939486002,None,624.479939486002,None,625.2972712549999,None,625.2972712549999,None,625.2972712549999,None,625.2972712549999,None,,,,,,,,,,,,,,,,,,,,,,,,,,,,,,,,,,,,,,,,,,,,001,141,2020_Feb_18_1532,spring_faces,3.1.5,60.033203404209544,
condition files/Stage1_1.xlsx,,B3,T3,c,"['c', 'm']","['Clue', 'Monopoly']","[-0.15, 0.5]","[0.15, 0.5]",1,1,,,,,,,,,0,8,8,8,0,3,3,4,,,,,,,,,,,,,,,,,,,,,,,,,,,,,,,,,,,,,,,,,,,,,,,,,,,,,,,627.2616349540003,None,627.2616349540003,None,627.2616349540003,None,c,1,1.0415961540020362,628.8122391290017,None,628.8122391290017,None,628.8122391290017,None,629.9122532320034,None,629.9122532320034,None,629.9122532320034,None,629.9122532320034,None,,,,,,,,,,,,,,,,,,,,,,,,,,,,,,,,,,,,,,,,,,,,001,141,2020_Feb_18_1532,spring_faces,3.1.5,60.033203404209544,
condition files/Stage1_1.xlsx,,T2,B2,m,"['c', 'm']","['Clue', 'Monopoly']","[-0.15, 0.5]","[0.15, 0.5]",1,1,,,,,,,,,0,8,8,8,0,4,4,3,,,,,,,,,,,,,,,,,,,,,,,,,,,,,,,,,,,,,,,,,,,,,,,,,,,,,,,631.8782378130018,None,631.8782378130018,None,631.8782378130018,None,m,1,0.9529278970003361,633.4128667920013,None,633.4128667920013,None,633.4128667920013,None,634.4301676750001,None,634.4301676750001,None,634.4301676750001,None,634.4301676750001,None,,,,,,,,,,,,,,,,,,,,,,,,,,,,,,,,,,,,,,,,,,,,001,141,2020_Feb_18_1532,spring_faces,3.1.5,60.033203404209544,
condition files/Stage1_1.xlsx,,B2,T1,m,"['c', 'm']","['Clue', 'Monopoly']","[-0.15, 0.5]","[0.15, 0.5]",1,1,,,,,,,,,0,8,8,8,0,5,5,2,,,,,,,,,,,,,,,,,,,,,,,,,,,,,,,,,,,,,,,,,,,,,,,,,,,,,,,636.3954152790029,None,636.3954152790029,None,636.3954152790029,None,m,1,1.5558402489987202,637.9300143310029,None,637.9300143310029,None,637.9300143310029,None,639.5458762970011,None,639.5458762970011,None,639.5458762970011,None,639.5458762970011,None,,,,,,,,,,,,,,,,,,,,,,,,,,,,,,,,,,,,,,,,,,,,001,141,2020_Feb_18_1532,spring_faces,3.1.5,60.033203404209544,
condition files/Stage1_1.xlsx,,T4,B3,m,"['c', 'm']","['Clue', 'Monopoly']","[-0.15, 0.5]","[0.15, 0.5]",1,1,,,,,,,,,0,8,8,8,0,6,6,6,,,,,,,,,,,,,,,,,,,,,,,,,,,,,,,,,,,,,,,,,,,,,,,,,,,,,,,641.5114005190007,None,641.5114005190007,None,641.5114005190007,None,m,1,0.6963265670019609,643.0454249040013,None,643.0454249040013,None,643.0454249040013,None,643.7956616160009,None,643.7956616160009,None,643.7956616160009,None,643.7956616160009,None,,,,,,,,,,,,,,,,,,,,,,,,,,,,,,,,,,,,,,,,,,,,001,141,2020_Feb_18_1532,spring_faces,3.1.5,60.033203404209544,
condition files/Stage1_1.xlsx,,B1,T2,c,"['c', 'm']","['Clue', 'Monopoly']","[-0.15, 0.5]","[0.15, 0.5]",1,1,,,,,,,,,0,8,8,8,0,7,7,1,,,,,,,,,,,,,,,,,,,,,,,,,,,,,,,,,,,,,,,,,,,,,,,,,,,,,,,645.7621205780015,None,645.7621205780015,None,645.7621205780015,None,m,0,1.724981414998183,647.2967409900011,None,647.2967409900011,None,647.2967409900011,None,649.095209293002,None,649.095209293002,None,649.095209293002,None,649.095209293002,None,,,,,,,,,,,,,,,,,,,,,,,,,,,,,,,,,,,,,,,,,,,,001,141,2020_Feb_18_1532,spring_faces,3.1.5,60.033203404209544,
condition files/Stage1_2.xlsx,,B2,T2,m,"['c', 'm']","['Clue', 'Monopoly']","[-0.15, 0.5]","[0.15, 0.5]",1,1,,,,,,,,,0,9,9,9,0,0,0,3,,,,,,,,,,,,,,,,,,,,,,,,,,,,,,,,,,,,,,,,,,,,,,,,,,,,,,,651.0619746700031,None,651.0619746700031,None,651.0619746700031,None,c,0,2.7293587289968855,652.6124215390009,None,652.6124215390009,None,652.6124215390009,None,655.4116437600023,None,655.4116437600023,None,655.4116437600023,None,655.4116437600023,None,,,,,,,,,,,,,,,,,,,,,,,,,,,,,,,,,,,,,,,,,,,,001,141,2020_Feb_18_1532,spring_faces,3.1.5,60.033203404209544,
condition files/Stage1_2.xlsx,,T2,B1,c,"['c', 'm']","['Clue', 'Monopoly']","[-0.15, 0.5]","[0.15, 0.5]",1,1,,,,,,,,,0,9,9,9,0,1,1,1,,,,,,,,,,,,,,,,,,,,,,,,,,,,,,,,,,,,,,,,,,,,,,,,,,,,,,,657.361961974002,None,657.361961974002,None,657.361961974002,None,m,0,1.6766301170027873,658.8971357770024,None,658.8971357770024,None,658.8971357770024,None,660.6298606260025,None,660.6298606260025,None,660.6298606260025,None,660.6298606260025,None,,,,,,,,,,,,,,,,,,,,,,,,,,,,,,,,,,,,,,,,,,,,001,141,2020_Feb_18_1532,spring_faces,3.1.5,60.033203404209544,
condition files/Stage1_2.xlsx,,T1,B2,m,"['c', 'm']","['Clue', 'Monopoly']","[-0.15, 0.5]","[0.15, 0.5]",1,1,,,,,,,,,0,9,9,9,0,2,2,2,,,,,,,,,,,,,,,,,,,,,,,,,,,,,,,,,,,,,,,,,,,,,,,,,,,,,,,662.5947782350013,None,662.5947782350013,None,662.5947782350013,None,c,0,1.9468465329991886,664.1309400250029,None,664.1309400250029,None,664.1309400250029,None,666.1455784140016,None,666.1455784140016,None,666.1455784140016,None,666.1455784140016,None,,,,,,,,,,,,,,,,,,,,,,,,,,,,,,,,,,,,,,,,,,,,001,141,2020_Feb_18_1532,spring_faces,3.1.5,60.033203404209544,
condition files/Stage1_2.xlsx,,T4,B4,m,"['c', 'm']","['Clue', 'Monopoly']","[-0.15, 0.5]","[0.15, 0.5]",1,1,,,,,,,,,0,9,9,9,0,3,3,7,,,,,,,,,,,,,,,,,,,,,,,,,,,,,,,,,,,,,,,,,,,,,,,,,,,,,,,668.0947835960033,None,668.0947835960033,None,668.0947835960033,None,m,1,0.4314260840001225,669.630369257,None,669.630369257,None,669.630369257,None,670.1118084500013,None,670.1118084500013,None,670.1118084500013,None,670.1118084500013,None,,,,,,,,,,,,,,,,,,,,,,,,,,,,,,,,,,,,,,,,,,,,001,141,2020_Feb_18_1532,spring_faces,3.1.5,60.033203404209544,
condition files/Stage1_2.xlsx,,B3,T4,m,"['c', 'm']","['Clue', 'Monopoly']","[-0.15, 0.5]","[0.15, 0.5]",1,1,,,,,,,,,0,9,9,9,0,4,4,6,,,,,,,,,,,,,,,,,,,,,,,,,,,,,,,,,,,,,,,,,,,,,,,,,,,,,,,672.0787405120027,None,672.0787405120027,None,672.0787405120027,None,m,1,0.528792130000511,673.6129865130024,None,673.6129865130024,None,673.6129865130024,None,674.1957016840024,None,674.1957016840024,None,674.1957016840024,None,674.1957016840024,None,,,,,,,,,,,,,,,,,,,,,,,,,,,,,,,,,,,,,,,,,,,,001,141,2020_Feb_18_1532,spring_faces,3.1.5,60.033203404209544,
condition files/Stage1_2.xlsx,,B1,T1,c,"['c', 'm']","['Clue', 'Monopoly']","[-0.15, 0.5]","[0.15, 0.5]",1,1,,,,,,,,,0,9,9,9,0,5,5,0,,,,,,,,,,,,,,,,,,,,,,,,,,,,,,,,,,,,,,,,,,,,,,,,,,,,,,,676.162116112002,None,676.162116112002,None,676.162116112002,None,c,1,1.1333274440003152,677.6964181440017,None,677.6964181440017,None,677.6964181440017,None,678.9118856080022,None,678.9118856080022,None,678.9118856080022,None,678.9118856080022,None,,,,,,,,,,,,,,,,,,,,,,,,,,,,,,,,,,,,,,,,,,,,001,141,2020_Feb_18_1532,spring_faces,3.1.5,60.033203404209544,
condition files/Stage1_2.xlsx,,B4,T3,c,"['c', 'm']","['Clue', 'Monopoly']","[-0.15, 0.5]","[0.15, 0.5]",1,1,,,,,,,,,0,9,9,9,0,6,6,5,,,,,,,,,,,,,,,,,,,,,,,,,,,,,,,,,,,,,,,,,,,,,,,,,,,,,,,680.8621673030029,None,680.8621673030029,None,680.8621673030029,None,c,1,1.2015491589991143,682.4121534620026,None,682.4121534620026,None,682.4121534620026,None,683.6794281280017,None,683.6794281280017,None,683.6794281280017,None,683.6794281280017,None,,,,,,,,,,,,,,,,,,,,,,,,,,,,,,,,,,,,,,,,,,,,001,141,2020_Feb_18_1532,spring_faces,3.1.5,60.033203404209544,
condition files/Stage1_2.xlsx,,T3,B3,c,"['c', 'm']","['Clue', 'Monopoly']","[-0.15, 0.5]","[0.15, 0.5]",1,1,,,,,,,,,0,9,9,9,0,7,7,4,,,,,,,,,,,,,,,,,,,,,,,,,,,,,,,,,,,,,,,,,,,,,,,,,,,,,,,685.6451233260013,None,685.6451233260013,None,685.6451233260013,None,c,1,1.6991575989995908,687.1786284600021,None,687.1786284600021,None,687.1786284600021,None,688.9286637040022,None,688.9286637040022,None,688.9286637040022,None,688.9286637040022,None,,,,,,,,,,,,,,,,,,,,,,,,,,,,,,,,,,,,,,,,,,,,001,141,2020_Feb_18_1532,spring_faces,3.1.5,60.033203404209544,
condition files/Stage1_1.xlsx,,T4,B3,m,"['c', 'm']","['Clue', 'Monopoly']","[-0.15, 0.5]","[0.15, 0.5]",1,1,,,,,,,,,0,10,10,10,0,0,0,6,,,,,,,,,,,,,,,,,,,,,,,,,,,,,,,,,,,,,,,,,,,,,,,,,,,,,,,690.9126031700034,None,690.9126031700034,None,690.9126031700034,None,m,1,0.5286355089992867,692.4451137820033,None,692.4451137820033,None,692.4451137820033,None,693.0308980650007,None,693.0308980650007,None,693.0308980650007,None,693.0308980650007,None,,,,,,,,,,,,,,,,,,,,,,,,,,,,,,,,,,,,,,,,,,,,001,141,2020_Feb_18_1532,spring_faces,3.1.5,60.033203404209544,
condition files/Stage1_1.xlsx,,B2,T1,m,"['c', 'm']","['Clue', 'Monopoly']","[-0.15, 0.5]","[0.15, 0.5]",1,1,,,,,,,,,0,10,10,10,0,1,1,2,,,,,,,,,,,,,,,,,,,,,,,,,,,,,,,,,,,,,,,,,,,,,,,,,,,,,,,694.9944359260007,None,694.9944359260007,None,694.9944359260007,None,m,1,1.2111731289987802,696.5306047760023,None,696.5306047760023,None,696.5306047760023,None,697.7956722830022,None,697.7956722830022,None,697.7956722830022,None,697.7956722830022,None,,,,,,,,,,,,,,,,,,,,,,,,,,,,,,,,,,,,,,,,,,,,001,141,2020_Feb_18_1532,spring_faces,3.1.5,60.033203404209544,
condition files/Stage1_1.xlsx,,B3,T3,c,"['c', 'm']","['Clue', 'Monopoly']","[-0.15, 0.5]","[0.15, 0.5]",1,1,,,,,,,,,0,10,10,10,0,2,2,4,,,,,,,,,,,,,,,,,,,,,,,,,,,,,,,,,,,,,,,,,,,,,,,,,,,,,,,699.7619959410004,None,699.7619959410004,None,699.7619959410004,None,c,1,0.9578482899996743,701.311991904,None,701.311991904,None,701.311991904,None,702.3455839070011,None,702.3455839070011,None,702.3455839070011,None,702.3455839070011,None,,,,,,,,,,,,,,,,,,,,,,,,,,,,,,,,,,,,,,,,,,,,001,141,2020_Feb_18_1532,spring_faces,3.1.5,60.033203404209544,
condition files/Stage1_1.xlsx,,T2,B2,m,"['c', 'm']","['Clue', 'Monopoly']","[-0.15, 0.5]","[0.15, 0.5]",1,1,,,,,,,,,0,10,10,10,0,3,3,3,,,,,,,,,,,,,,,,,,,,,,,,,,,,,,,,,,,,,,,,,,,,,,,,,,,,,,,704.2954194920021,None,704.2954194920021,None,704.2954194920021,None,c,0,1.2706083400007628,705.831247176,None,705.831247176,None,705.831247176,None,707.1791754060032,None,707.1791754060032,None,707.1791754060032,None,707.1791754060032,None,,,,,,,,,,,,,,,,,,,,,,,,,,,,,,,,,,,,,,,,,,,,001,141,2020_Feb_18_1532,spring_faces,3.1.5,60.033203404209544,
condition files/Stage1_1.xlsx,,B1,T2,c,"['c', 'm']","['Clue', 'Monopoly']","[-0.15, 0.5]","[0.15, 0.5]",1,1,,,,,,,,,0,10,10,10,0,4,4,1,,,,,,,,,,,,,,,,,,,,,,,,,,,,,,,,,,,,,,,,,,,,,,,,,,,,,,,709.1288292810023,None,709.1288292810023,None,709.1288292810023,None,c,1,1.8311156790005043,710.6626623550001,None,710.6626623550001,None,710.6626623550001,None,712.5472808840022,None,712.5472808840022,None,712.5472808840022,None,712.5472808840022,None,,,,,,,,,,,,,,,,,,,,,,,,,,,,,,,,,,,,,,,,,,,,001,141,2020_Feb_18_1532,spring_faces,3.1.5,60.033203404209544,
condition files/Stage1_1.xlsx,,B4,T4,m,"['c', 'm']","['Clue', 'Monopoly']","[-0.15, 0.5]","[0.15, 0.5]",1,1,,,,,,,,,0,10,10,10,0,5,5,7,,,,,,,,,,,,,,,,,,,,,,,,,,,,,,,,,,,,,,,,,,,,,,,,,,,,,,,714.511640808003,None,714.511640808003,None,714.511640808003,None,m,1,0.6391945039977145,716.0466652540017,None,716.0466652540017,None,716.0466652540017,None,716.7458966550003,None,716.7458966550003,None,716.7458966550003,None,716.7458966550003,None,,,,,,,,,,,,,,,,,,,,,,,,,,,,,,,,,,,,,,,,,,,,001,141,2020_Feb_18_1532,spring_faces,3.1.5,60.033203404209544,
condition files/Stage1_1.xlsx,,T1,B1,c,"['c', 'm']","['Clue', 'Monopoly']","[-0.15, 0.5]","[0.15, 0.5]",1,1,,,,,,,,,0,10,10,10,0,6,6,0,,,,,,,,,,,,,,,,,,,,,,,,,,,,,,,,,,,,,,,,,,,,,,,,,,,,,,,718.7118386360016,None,718.7118386360016,None,718.7118386360016,None,c,1,2.6791638270005933,720.2626114970008,None,720.2626114970008,None,720.2626114970008,None,722.9966615330013,None,722.9966615330013,None,722.9966615330013,None,722.9966615330013,None,,,,,,,,,,,,,,,,,,,,,,,,,,,,,,,,,,,,,,,,,,,,001,141,2020_Feb_18_1532,spring_faces,3.1.5,60.033203404209544,
condition files/Stage1_1.xlsx,,T3,B4,c,"['c', 'm']","['Clue', 'Monopoly']","[-0.15, 0.5]","[0.15, 0.5]",1,1,,,,,,,,,0,10,10,10,0,7,7,5,,,,,,,,,,,,,,,,,,,,,,,,,,,,,,,,,,,,,,,,,,,,,,,,,,,,,,,724.9613377240021,None,724.9613377240021,None,724.9613377240021,None,c,1,2.940465462997963,726.497393716003,None,726.497393716003,None,726.497393716003,None,729.4954493430014,None,729.4954493430014,None,729.4954493430014,None,729.4954493430014,None,,,,,,,,,,,,,,,,,,,,,,,,,,,,,,,,,,,,,,,,,,,,001,141,2020_Feb_18_1532,spring_faces,3.1.5,60.033203404209544,
condition files/Stage1_2.xlsx,,B4,T3,c,"['c', 'm']","['Clue', 'Monopoly']","[-0.15, 0.5]","[0.15, 0.5]",1,1,,,,,,,,,0,11,11,11,0,0,0,5,,,,,,,,,,,,,,,,,,,,,,,,,,,,,,,,,,,,,,,,,,,,,,,,,,,,,,,731.4789144830029,None,731.4789144830029,None,731.4789144830029,None,c,1,0.696784182000556,733.0289185090005,None,733.0289185090005,None,733.0289185090005,None,733.7787394280022,None,733.7787394280022,None,733.7787394280022,None,733.7787394280022,None,,,,,,,,,,,,,,,,,,,,,,,,,,,,,,,,,,,,,,,,,,,,001,141,2020_Feb_18_1532,spring_faces,3.1.5,60.033203404209544,
condition files/Stage1_2.xlsx,,T1,B2,m,"['c', 'm']","['Clue', 'Monopoly']","[-0.15, 0.5]","[0.15, 0.5]",1,1,,,,,,,,,0,11,11,11,0,1,1,2,,,,,,,,,,,,,,,,,,,,,,,,,,,,,,,,,,,,,,,,,,,,,,,,,,,,,,,735.7446021350006,None,735.7446021350006,None,735.7446021350006,None,m,1,1.1185215830009838,737.2792721730002,None,737.2792721730002,None,737.2792721730002,None,738.462492693001,None,738.462492693001,None,738.462492693001,None,738.462492693001,None,,,,,,,,,,,,,,,,,,,,,,,,,,,,,,,,,,,,,,,,,,,,001,141,2020_Feb_18_1532,spring_faces,3.1.5,60.033203404209544,
condition files/Stage1_2.xlsx,,T2,B1,c,"['c', 'm']","['Clue', 'Monopoly']","[-0.15, 0.5]","[0.15, 0.5]",1,1,,,,,,,,,0,11,11,11,0,2,2,1,,,,,,,,,,,,,,,,,,,,,,,,,,,,,,,,,,,,,,,,,,,,,,,,,,,,,,,740.4286607120011,None,740.4286607120011,None,740.4286607120011,None,m,0,2.018868808998377,741.9789038420022,None,741.9789038420022,None,741.9789038420022,None,744.0646510740007,None,744.0646510740007,None,744.0646510740007,None,744.0646510740007,None,,,,,,,,,,,,,,,,,,,,,,,,,,,,,,,,,,,,,,,,,,,,001,141,2020_Feb_18_1532,spring_faces,3.1.5,60.033203404209544,
condition files/Stage1_2.xlsx,,B3,T4,m,"['c', 'm']","['Clue', 'Monopoly']","[-0.15, 0.5]","[0.15, 0.5]",1,1,,,,,,,,,0,11,11,11,0,3,3,6,,,,,,,,,,,,,,,,,,,,,,,,,,,,,,,,,,,,,,,,,,,,,,,,,,,,,,,746.0286371520015,None,746.0286371520015,None,746.0286371520015,None,m,1,0.899930415002018,747.5618463410028,None,747.5618463410028,None,747.5618463410028,None,748.5141508270026,None,748.5141508270026,None,748.5141508270026,None,748.5141508270026,None,,,,,,,,,,,,,,,,,,,,,,,,,,,,,,,,,,,,,,,,,,,,001,141,2020_Feb_18_1532,spring_faces,3.1.5,60.033203404209544,
condition files/Stage1_2.xlsx,,B1,T1,c,"['c', 'm']","['Clue', 'Monopoly']","[-0.15, 0.5]","[0.15, 0.5]",1,1,,,,,,,,,0,11,11,11,0,4,4,0,,,,,,,,,,,,,,,,,,,,,,,,,,,,,,,,,,,,,,,,,,,,,,,,,,,,,,,750.4785236900025,None,750.4785236900025,None,750.4785236900025,None,c,1,1.1044345189984597,752.0133756150026,None,752.0133756150026,None,752.0133756150026,None,753.180031281001,None,753.180031281001,None,753.180031281001,None,753.180031281001,None,,,,,,,,,,,,,,,,,,,,,,,,,,,,,,,,,,,,,,,,,,,,001,141,2020_Feb_18_1532,spring_faces,3.1.5,60.033203404209544,
condition files/Stage1_2.xlsx,,B2,T2,m,"['c', 'm']","['Clue', 'Monopoly']","[-0.15, 0.5]","[0.15, 0.5]",1,1,,,,,,,,,0,11,11,11,0,5,5,3,,,,,,,,,,,,,,,,,,,,,,,,,,,,,,,,,,,,,,,,,,,,,,,,,,,,,,,755.1449993430033,None,755.1449993430033,None,755.1449993430033,None,m,1,1.271106468000653,756.6786923070031,None,756.6786923070031,None,756.6786923070031,None,758.0145807780027,None,758.0145807780027,None,758.0145807780027,None,758.0145807780027,None,,,,,,,,,,,,,,,,,,,,,,,,,,,,,,,,,,,,,,,,,,,,001,141,2020_Feb_18_1532,spring_faces,3.1.5,60.033203404209544,
condition files/Stage1_2.xlsx,,T3,B3,c,"['c', 'm']","['Clue', 'Monopoly']","[-0.15, 0.5]","[0.15, 0.5]",1,1,,,,,,,,,0,11,11,11,0,6,6,4,,,,,,,,,,,,,,,,,,,,,,,,,,,,,,,,,,,,,,,,,,,,,,,,,,,,,,,759.978667481002,None,759.978667481002,None,759.978667481002,None,c,1,1.204698729001393,761.5131022700007,None,761.5131022700007,None,761.5131022700007,None,762.781181669001,None,762.781181669001,None,762.781181669001,None,762.781181669001,None,,,,,,,,,,,,,,,,,,,,,,,,,,,,,,,,,,,,,,,,,,,,001,141,2020_Feb_18_1532,spring_faces,3.1.5,60.033203404209544,
condition files/Stage1_2.xlsx,,T4,B4,m,"['c', 'm']","['Clue', 'Monopoly']","[-0.15, 0.5]","[0.15, 0.5]",1,1,,,,,,,,,0,11,11,11,0,7,7,7,,,,,,,,,,,,,,,,,,,,,,,,,,,,,,,,,,,,,,,,,,,,,,,,,,,,,,,764.7453949540031,None,764.7453949540031,None,764.7453949540031,None,m,1,0.6294048790005036,766.2803829440018,None,766.2803829440018,None,766.2803829440018,None,766.9790310260032,None,766.9790310260032,None,766.9790310260032,None,766.9790310260032,None,,,,,,,,,,,,,,,,,,,,,,,,,,,,,,,,,,,,,,,,,,,,001,141,2020_Feb_18_1532,spring_faces,3.1.5,60.033203404209544,
,,,,,,,,,,,,,,,,,,,,,,,,,,,,,,,,,,,,,,,,,,,,,,,,,,,,,,,,,,,,,,,,,,,,,,,,,,,,,,,,,,,,,,,,,,,,,,,,,,,,,,,,,,,,,,,,768.9455687210029,None,space,9.97230983499685,773.9454267000001,None,,,,,,,,,,,,,,,,,,,,,,,,,,,,,,001,141,2020_Feb_18_1532,spring_faces,3.1.5,60.033203404209544,
condition files/Stage2_1.xlsx,,T3,B3,s,"['s', 'r']","['Stratego', 'Risk']","[-0.15, 0.5]","[0.15, 0.5]",1,1,,,,,,,,,,,,,,,,,0,0,0,0,0,0,0,4,,,,,,,,,,,,,,,,,,,,,,,,,,,,,,,,,,,,,,,,,,,,,,,783.9785474580021,None,783.9785474580021,None,783.9785474580021,None,s,1,3.8460121790012636,785.5117710540035,None,785.5117710540035,None,785.5117710540035,None,789.4290850950019,None,789.4290850950019,None,789.4290850950019,None,789.4290850950019,None,,,,,,,,,,,,,,,773.9454267000001,None,,,,,,,,,,,,,,,,,,,,,,,,,,,,001,141,2020_Feb_18_1532,spring_faces,3.1.5,60.033203404209544,
condition files/Stage2_1.xlsx,,B6,T6,r,"['s', 'r']","['Stratego', 'Risk']","[-0.15, 0.5]","[0.15, 0.5]",1,1,,,,,,,,,,,,,,,,,0,0,0,0,0,1,1,1,,,,,,,,,,,,,,,,,,,,,,,,,,,,,,,,,,,,,,,,,,,,,,,791.3790696340002,None,791.3790696340002,None,791.3790696340002,None,r,1,1.308749355001055,792.9290880990011,None,792.9290880990011,None,792.9290880990011,None,794.2967402960021,None,794.2967402960021,None,794.2967402960021,None,794.2967402960021,None,,,,,,,,,,,,,,,,,,,,,,,,,,,,,,,,,,,,,,,,,,,,001,141,2020_Feb_18_1532,spring_faces,3.1.5,60.033203404209544,
condition files/Stage2_1.xlsx,,B2,T2,r,"['s', 'r']","['Stratego', 'Risk']","[-0.15, 0.5]","[0.15, 0.5]",1,1,,,,,,,,,,,,,,,,,0,0,0,0,0,2,2,3,,,,,,,,,,,,,,,,,,,,,,,,,,,,,,,,,,,,,,,,,,,,,,,796.262006308003,None,796.262006308003,None,796.262006308003,None,r,1,0.857936811997206,797.7959303520001,None,797.7959303520001,None,797.7959303520001,None,798.7122028860031,None,798.7122028860031,None,798.7122028860031,None,798.7122028860031,None,,,,,,,,,,,,,,,,,,,,,,,,,,,,,,,,,,,,,,,,,,,,001,141,2020_Feb_18_1532,spring_faces,3.1.5,60.033203404209544,
condition files/Stage2_1.xlsx,,B4,T4,r,"['s', 'r']","['Stratego', 'Risk']","[-0.15, 0.5]","[0.15, 0.5]",1,1,,,,,,,,,,,,,,,,,0,0,0,0,0,3,3,5,,,,,,,,,,,,,,,,,,,,,,,,,,,,,,,,,,,,,,,,,,,,,,,800.6788927590023,None,800.6788927590023,None,800.6788927590023,None,s,0,0.7127352900024562,802.229039951002,None,802.229039951002,None,802.229039951002,None,802.9952624130019,None,802.9952624130019,None,802.9952624130019,None,802.9952624130019,None,,,,,,,,,,,,,,,,,,,,,,,,,,,,,,,,,,,,,,,,,,,,001,141,2020_Feb_18_1532,spring_faces,3.1.5,60.033203404209544,
condition files/Stage2_1.xlsx,,T5,B5,s,"['s', 'r']","['Stratego', 'Risk']","[-0.15, 0.5]","[0.15, 0.5]",1,1,,,,,,,,,,,,,,,,,0,0,0,0,0,4,4,0,,,,,,,,,,,,,,,,,,,,,,,,,,,,,,,,,,,,,,,,,,,,,,,804.9615393320018,None,804.9615393320018,None,804.9615393320018,None,r,0,0.8462289810013317,806.4955678190017,None,806.4955678190017,None,806.4955678190017,None,807.4121908500019,None,807.4121908500019,None,807.4121908500019,None,807.4121908500019,None,,,,,,,,,,,,,,,,,,,,,,,,,,,,,,,,,,,,,,,,,,,,001,141,2020_Feb_18_1532,spring_faces,3.1.5,60.033203404209544,
condition files/Stage2_1.xlsx,,T1,B1,s,"['s', 'r']","['Stratego', 'Risk']","[-0.15, 0.5]","[0.15, 0.5]",1,1,,,,,,,,,,,,,,,,,0,0,0,0,0,5,5,2,,,,,,,,,,,,,,,,,,,,,,,,,,,,,,,,,,,,,,,,,,,,,,,809.3614625830014,None,809.3614625830014,None,809.3614625830014,None,r,0,0.9407556900005147,810.8971130620012,None,810.8971130620012,None,810.8971130620012,None,811.8956974070024,None,811.8956974070024,None,811.8956974070024,None,811.8956974070024,None,,,,,,,,,,,,,,,,,,,,,,,,,,,,,,,,,,,,,,,,,,,,001,141,2020_Feb_18_1532,spring_faces,3.1.5,60.033203404209544,
condition files/Stage2_2.xlsx,,B3,T3,s,"['s', 'r']","['Stratego', 'Risk']","[-0.15, 0.5]","[0.15, 0.5]",1,1,,,,,,,,,,,,,,,,,0,1,1,1,0,0,0,4,,,,,,,,,,,,,,,,,,,,,,,,,,,,,,,,,,,,,,,,,,,,,,,813.8788875090031,None,813.8788875090031,None,813.8788875090031,None,r,0,0.2792667599969718,815.4145288360014,None,815.4145288360014,None,815.4145288360014,None,815.7456239320018,None,815.7456239320018,None,815.7456239320018,None,815.7456239320018,None,,,,,,,,,,,,,,,,,,,,,,,,,,,,,,,,,,,,,,,,,,,,001,141,2020_Feb_18_1532,spring_faces,3.1.5,60.033203404209544,
condition files/Stage2_2.xlsx,,B5,T5,s,"['s', 'r']","['Stratego', 'Risk']","[-0.15, 0.5]","[0.15, 0.5]",1,1,,,,,,,,,,,,,,,,,0,1,1,1,0,1,1,0,,,,,,,,,,,,,,,,,,,,,,,,,,,,,,,,,,,,,,,,,,,,,,,817.7112569810015,None,817.7112569810015,None,817.7112569810015,None,s,1,1.0566662550008914,819.2451975930016,None,819.2451975930016,None,819.2451975930016,None,820.3616051820027,None,820.3616051820027,None,820.3616051820027,None,820.3616051820027,None,,,,,,,,,,,,,,,,,,,,,,,,,,,,,,,,,,,,,,,,,,,,001,141,2020_Feb_18_1532,spring_faces,3.1.5,60.033203404209544,
condition files/Stage2_2.xlsx,,B1,T1,s,"['s', 'r']","['Stratego', 'Risk']","[-0.15, 0.5]","[0.15, 0.5]",1,1,,,,,,,,,,,,,,,,,0,1,1,1,0,2,2,2,,,,,,,,,,,,,,,,,,,,,,,,,,,,,,,,,,,,,,,,,,,,,,,822.3282773500032,None,822.3282773500032,None,822.3282773500032,None,r,0,0.5190843910022522,823.8786944930034,None,823.8786944930034,None,823.8786944930034,None,824.4618680750027,None,824.4618680750027,None,824.4618680750027,None,824.4618680750027,None,,,,,,,,,,,,,,,,,,,,,,,,,,,,,,,,,,,,,,,,,,,,001,141,2020_Feb_18_1532,spring_faces,3.1.5,60.033203404209544,
condition files/Stage2_2.xlsx,,T6,B6,r,"['s', 'r']","['Stratego', 'Risk']","[-0.15, 0.5]","[0.15, 0.5]",1,1,,,,,,,,,,,,,,,,,0,1,1,1,0,3,3,1,,,,,,,,,,,,,,,,,,,,,,,,,,,,,,,,,,,,,,,,,,,,,,,826.4287557900025,None,826.4287557900025,None,826.4287557900025,None,r,1,1.1219377439992968,827.9639272690001,None,827.9639272690001,None,827.9639272690001,None,829.146732119003,None,829.146732119003,None,829.146732119003,None,829.146732119003,None,,,,,,,,,,,,,,,,,,,,,,,,,,,,,,,,,,,,,,,,,,,,001,141,2020_Feb_18_1532,spring_faces,3.1.5,60.033203404209544,
condition files/Stage2_2.xlsx,,T2,B2,r,"['s', 'r']","['Stratego', 'Risk']","[-0.15, 0.5]","[0.15, 0.5]",1,1,,,,,,,,,,,,,,,,,0,1,1,1,0,4,4,3,,,,,,,,,,,,,,,,,,,,,,,,,,,,,,,,,,,,,,,,,,,,,,,831.1113071190011,None,831.1113071190011,None,831.1113071190011,None,s,0,0.5844326430014917,832.6453301320034,None,832.6453301320034,None,832.6453301320034,None,833.2955875340012,None,833.2955875340012,None,833.2955875340012,None,833.2955875340012,None,,,,,,,,,,,,,,,,,,,,,,,,,,,,,,,,,,,,,,,,,,,,001,141,2020_Feb_18_1532,spring_faces,3.1.5,60.033203404209544,
condition files/Stage2_2.xlsx,,T4,B4,r,"['s', 'r']","['Stratego', 'Risk']","[-0.15, 0.5]","[0.15, 0.5]",1,1,,,,,,,,,,,,,,,,,0,1,1,1,0,5,5,5,,,,,,,,,,,,,,,,,,,,,,,,,,,,,,,,,,,,,,,,,,,,,,,835.2614356470003,None,835.2614356470003,None,835.2614356470003,None,s,0,1.281450632999622,836.8123153670022,None,836.8123153670022,None,836.8123153670022,None,838.1455693570024,None,838.1455693570024,None,838.1455693570024,None,838.1455693570024,None,,,,,,,,,,,,,,,,,,,,,,,,,,,,,,,,,,,,,,,,,,,,001,141,2020_Feb_18_1532,spring_faces,3.1.5,60.033203404209544,
condition files/Stage2_1.xlsx,,B4,T4,r,"['s', 'r']","['Stratego', 'Risk']","[-0.15, 0.5]","[0.15, 0.5]",1,1,,,,,,,,,,,,,,,,,0,2,2,2,0,0,0,5,,,,,,,,,,,,,,,,,,,,,,,,,,,,,,,,,,,,,,,,,,,,,,,840.1291039590033,None,840.1291039590033,None,840.1291039590033,None,s,0,0.7523523089985247,841.661398876,None,841.661398876,None,841.661398876,None,842.478958857002,None,842.478958857002,None,842.478958857002,None,842.478958857002,None,,,,,,,,,,,,,,,,,,,,,,,,,,,,,,,,,,,,,,,,,,,,001,141,2020_Feb_18_1532,spring_faces,3.1.5,60.033203404209544,
condition files/Stage2_1.xlsx,,T5,B5,s,"['s', 'r']","['Stratego', 'Risk']","[-0.15, 0.5]","[0.15, 0.5]",1,1,,,,,,,,,,,,,,,,,0,2,2,2,0,1,1,0,,,,,,,,,,,,,,,,,,,,,,,,,,,,,,,,,,,,,,,,,,,,,,,844.4453599920016,None,844.4453599920016,None,844.4453599920016,None,s,1,0.7555977310003072,845.9782168550009,None,845.9782168550009,None,845.9782168550009,None,846.7951738100019,None,846.7951738100019,None,846.7951738100019,None,846.7951738100019,None,,,,,,,,,,,,,,,,,,,,,,,,,,,,,,,,,,,,,,,,,,,,001,141,2020_Feb_18_1532,spring_faces,3.1.5,60.033203404209544,
condition files/Stage2_1.xlsx,,T3,B3,s,"['s', 'r']","['Stratego', 'Risk']","[-0.15, 0.5]","[0.15, 0.5]",1,1,,,,,,,,,,,,,,,,,0,2,2,2,0,2,2,4,,,,,,,,,,,,,,,,,,,,,,,,,,,,,,,,,,,,,,,,,,,,,,,848.7619932940033,None,848.7619932940033,None,848.7619932940033,None,s,1,0.6465740950006875,850.2952211160009,None,850.2952211160009,None,850.2952211160009,None,850.9955041400026,None,850.9955041400026,None,850.9955041400026,None,850.9955041400026,None,,,,,,,,,,,,,,,,,,,,,,,,,,,,,,,,,,,,,,,,,,,,001,141,2020_Feb_18_1532,spring_faces,3.1.5,60.033203404209544,
condition files/Stage2_1.xlsx,,T1,B1,s,"['s', 'r']","['Stratego', 'Risk']","[-0.15, 0.5]","[0.15, 0.5]",1,1,,,,,,,,,,,,,,,,,0,2,2,2,0,3,3,2,,,,,,,,,,,,,,,,,,,,,,,,,,,,,,,,,,,,,,,,,,,,,,,852.9620216340008,None,852.9620216340008,None,852.9620216340008,None,r,0,1.0533644809984253,854.5124164230001,None,854.5124164230001,None,854.5124164230001,None,855.6290334330006,None,855.6290334330006,None,855.6290334330006,None,855.6290334330006,None,,,,,,,,,,,,,,,,,,,,,,,,,,,,,,,,,,,,,,,,,,,,001,141,2020_Feb_18_1532,spring_faces,3.1.5,60.033203404209544,
condition files/Stage2_1.xlsx,,B6,T6,r,"['s', 'r']","['Stratego', 'Risk']","[-0.15, 0.5]","[0.15, 0.5]",1,1,,,,,,,,,,,,,,,,,0,2,2,2,0,4,4,1,,,,,,,,,,,,,,,,,,,,,,,,,,,,,,,,,,,,,,,,,,,,,,,857.5955891880003,None,857.5955891880003,None,857.5955891880003,None,r,1,0.6428407950006658,859.1308915780028,None,859.1308915780028,None,859.1308915780028,None,859.8307090020025,None,859.8307090020025,None,859.8307090020025,None,859.8307090020025,None,,,,,,,,,,,,,,,,,,,,,,,,,,,,,,,,,,,,,,,,,,,,001,141,2020_Feb_18_1532,spring_faces,3.1.5,60.033203404209544,
condition files/Stage2_1.xlsx,,B2,T2,r,"['s', 'r']","['Stratego', 'Risk']","[-0.15, 0.5]","[0.15, 0.5]",1,1,,,,,,,,,,,,,,,,,0,2,2,2,0,5,5,3,,,,,,,,,,,,,,,,,,,,,,,,,,,,,,,,,,,,,,,,,,,,,,,861.7952417170018,None,861.7952417170018,None,861.7952417170018,None,r,1,0.908087167001213,863.345755792001,None,863.345755792001,None,863.345755792001,None,864.3122619210008,None,864.3122619210008,None,864.3122619210008,None,864.3122619210008,None,,,,,,,,,,,,,,,,,,,,,,,,,,,,,,,,,,,,,,,,,,,,001,141,2020_Feb_18_1532,spring_faces,3.1.5,60.033203404209544,
condition files/Stage2_2.xlsx,,B5,T5,s,"['s', 'r']","['Stratego', 'Risk']","[-0.15, 0.5]","[0.15, 0.5]",1,1,,,,,,,,,,,,,,,,,0,3,3,3,0,0,0,0,,,,,,,,,,,,,,,,,,,,,,,,,,,,,,,,,,,,,,,,,,,,,,,866.2953339240012,None,866.2953339240012,None,866.2953339240012,None,s,1,0.8072033549979096,867.830651491,None,867.830651491,None,867.830651491,None,868.7123741040014,None,868.7123741040014,None,868.7123741040014,None,868.7123741040014,None,,,,,,,,,,,,,,,,,,,,,,,,,,,,,,,,,,,,,,,,,,,,001,141,2020_Feb_18_1532,spring_faces,3.1.5,60.033203404209544,
condition files/Stage2_2.xlsx,,T4,B4,r,"['s', 'r']","['Stratego', 'Risk']","[-0.15, 0.5]","[0.15, 0.5]",1,1,,,,,,,,,,,,,,,,,0,3,3,3,0,1,1,5,,,,,,,,,,,,,,,,,,,,,,,,,,,,,,,,,,,,,,,,,,,,,,,870.6618864410011,None,870.6618864410011,None,870.6618864410011,None,r,1,1.2574244850002287,872.1964366210013,None,872.1964366210013,None,872.1964366210013,None,873.5132243540029,None,873.5132243540029,None,873.5132243540029,None,873.5132243540029,None,,,,,,,,,,,,,,,,,,,,,,,,,,,,,,,,,,,,,,,,,,,,001,141,2020_Feb_18_1532,spring_faces,3.1.5,60.033203404209544,
condition files/Stage2_2.xlsx,,B1,T1,s,"['s', 'r']","['Stratego', 'Risk']","[-0.15, 0.5]","[0.15, 0.5]",1,1,,,,,,,,,,,,,,,,,0,3,3,3,0,2,2,2,,,,,,,,,,,,,,,,,,,,,,,,,,,,,,,,,,,,,,,,,,,,,,,875.4784342770035,None,875.4784342770035,None,875.4784342770035,None,s,1,1.4168610400010948,877.028877656001,None,877.028877656001,None,877.028877656001,None,878.5120952780017,None,878.5120952780017,None,878.5120952780017,None,878.5120952780017,None,,,,,,,,,,,,,,,,,,,,,,,,,,,,,,,,,,,,,,,,,,,,001,141,2020_Feb_18_1532,spring_faces,3.1.5,60.033203404209544,
condition files/Stage2_2.xlsx,,T6,B6,r,"['s', 'r']","['Stratego', 'Risk']","[-0.15, 0.5]","[0.15, 0.5]",1,1,,,,,,,,,,,,,,,,,0,3,3,3,0,3,3,1,,,,,,,,,,,,,,,,,,,,,,,,,,,,,,,,,,,,,,,,,,,,,,,880.4619832290009,None,880.4619832290009,None,880.4619832290009,None,r,1,0.7700589030027913,882.0117190220008,None,882.0117190220008,None,882.0117190220008,None,882.8462090300018,None,882.8462090300018,None,882.8462090300018,None,882.8462090300018,None,,,,,,,,,,,,,,,,,,,,,,,,,,,,,,,,,,,,,,,,,,,,001,141,2020_Feb_18_1532,spring_faces,3.1.5,60.033203404209544,
condition files/Stage2_2.xlsx,,B3,T3,s,"['s', 'r']","['Stratego', 'Risk']","[-0.15, 0.5]","[0.15, 0.5]",1,1,,,,,,,,,,,,,,,,,0,3,3,3,0,4,4,4,,,,,,,,,,,,,,,,,,,,,,,,,,,,,,,,,,,,,,,,,,,,,,,884.8120515310002,None,884.8120515310002,None,884.8120515310002,None,s,1,4.386895095001819,886.3469040980017,None,886.3469040980017,None,886.3469040980017,None,890.7973226440008,None,890.7973226440008,None,890.7973226440008,None,890.7973226440008,None,,,,,,,,,,,,,,,,,,,,,,,,,,,,,,,,,,,,,,,,,,,,001,141,2020_Feb_18_1532,spring_faces,3.1.5,60.033203404209544,
condition files/Stage2_2.xlsx,,T2,B2,r,"['s', 'r']","['Stratego', 'Risk']","[-0.15, 0.5]","[0.15, 0.5]",1,1,,,,,,,,,,,,,,,,,0,3,3,3,0,5,5,3,,,,,,,,,,,,,,,,,,,,,,,,,,,,,,,,,,,,,,,,,,,,,,,892.761975499001,None,892.761975499001,None,892.761975499001,None,r,1,1.0457144559986773,894.296074965001,None,894.296074965001,None,894.296074965001,None,895.3957040430032,None,895.3957040430032,None,895.3957040430032,None,895.3957040430032,None,,,,,,,,,,,,,,,,,,,,,,,,,,,,,,,,,,,,,,,,,,,,001,141,2020_Feb_18_1532,spring_faces,3.1.5,60.033203404209544,
condition files/Stage2_1.xlsx,,T1,B1,s,"['s', 'r']","['Stratego', 'Risk']","[-0.15, 0.5]","[0.15, 0.5]",1,1,,,,,,,,,,,,,,,,,0,4,4,4,0,0,0,2,,,,,,,,,,,,,,,,,,,,,,,,,,,,,,,,,,,,,,,,,,,,,,,897.3783026310011,None,897.3783026310011,None,897.3783026310011,None,s,1,1.8693965890015534,898.9284014390032,None,898.9284014390032,None,898.9284014390032,None,900.8789917520007,None,900.8789917520007,None,900.8789917520007,None,900.8789917520007,None,,,,,,,,,,,,,,,,,,,,,,,,,,,,,,,,,,,,,,,,,,,,001,141,2020_Feb_18_1532,spring_faces,3.1.5,60.033203404209544,
condition files/Stage2_1.xlsx,,B6,T6,r,"['s', 'r']","['Stratego', 'Risk']","[-0.15, 0.5]","[0.15, 0.5]",1,1,,,,,,,,,,,,,,,,,0,4,4,4,0,1,1,1,,,,,,,,,,,,,,,,,,,,,,,,,,,,,,,,,,,,,,,,,,,,,,,902.8288045990012,None,902.8288045990012,None,902.8288045990012,None,r,1,0.6587708539991581,904.3790691260001,None,904.3790691260001,None,904.3790691260001,None,905.1115401420029,None,905.1115401420029,None,905.1115401420029,None,905.1115401420029,None,,,,,,,,,,,,,,,,,,,,,,,,,,,,,,,,,,,,,,,,,,,,001,141,2020_Feb_18_1532,spring_faces,3.1.5,60.033203404209544,
condition files/Stage2_1.xlsx,,T5,B5,s,"['s', 'r']","['Stratego', 'Risk']","[-0.15, 0.5]","[0.15, 0.5]",1,1,,,,,,,,,,,,,,,,,0,4,4,4,0,2,2,0,,,,,,,,,,,,,,,,,,,,,,,,,,,,,,,,,,,,,,,,,,,,,,,907.0614965040004,None,907.0614965040004,None,907.0614965040004,None,s,1,0.8738482769986149,908.611990450001,None,908.611990450001,None,908.611990450001,None,909.5477177010034,None,909.5477177010034,None,909.5477177010034,None,909.5477177010034,None,,,,,,,,,,,,,,,,,,,,,,,,,,,,,,,,,,,,,,,,,,,,001,141,2020_Feb_18_1532,spring_faces,3.1.5,60.033203404209544,
