condsFile,subStage,cue1,cue2,correct,responseKeys,responseNames,cue1Position,cue2Position,cue1Opacity,cue2Opacity,stageLoop0.thisRepN,stageLoop0.thisTrialN,stageLoop0.thisN,stageLoop0.thisIndex,blockLoop0.thisRepN,blockLoop0.thisTrialN,blockLoop0.thisN,blockLoop0.thisIndex,stage1Loop.thisRepN,stage1Loop.thisTrialN,stage1Loop.thisN,stage1Loop.thisIndex,blockLoop1.thisRepN,blockLoop1.thisTrialN,blockLoop1.thisN,blockLoop1.thisIndex,stage2Loop.thisRepN,stage2Loop.thisTrialN,stage2Loop.thisN,stage2Loop.thisIndex,blockLoop2.thisRepN,blockLoop2.thisTrialN,blockLoop2.thisN,blockLoop2.thisIndex,testLoop.thisRepN,testLoop.thisTrialN,testLoop.thisN,testLoop.thisIndex,blockLoopTest.thisRepN,blockLoopTest.thisTrialN,blockLoopTest.thisN,blockLoopTest.thisIndex,cuePics,id_instr_text.started,id_instr_text.stopped,space_to_continue_2.started,space_to_continue_2.stopped,end_instructions_resp_3.keys,end_instructions_resp_3.rt,end_instructions_resp_3.started,end_instructions_resp_3.stopped,id_input_instr.started,id_input_instr.stopped,id_input_rect.started,id_input_rect.stopped,id_input_resp.keys,id_input_resp.rt,id_input_resp.started,id_input_resp.stopped,sonaID,id_input_text.started,id_input_text.stopped,final_text.started,final_text.stopped,instructions.started,instructions.stopped,end_instructions_resp.keys,end_instructions_resp.rt,end_instructions_resp.started,end_instructions_resp.stopped,space_to_continue.started,space_to_continue.stopped,instructions_stage0.started,instructions_stage0.stopped,end_instructions_resp_stage0.keys,end_instructions_resp_stage0.rt,end_instructions_resp_stage0.started,end_instructions_resp_stage0.stopped,space_to_continue_stage0.started,space_to_continue_stage0.stopped,text.started,text.stopped,resp_text1.started,resp_text1.stopped,resp_text2.started,resp_text2.stopped,trial_resp.keys,trial_resp.corr,trial_resp.rt,trial_resp.started,trial_resp.stopped,cue1Image.started,cue1Image.stopped,cue2Image.started,cue2Image.stopped,cue1Image_fb.started,cue1Image_fb.stopped,cue2Image_fb.started,cue2Image_fb.stopped,fb_text_answer.started,fb_text_answer.stopped,feedback_image.started,feedback_image.stopped,instructions_stage1.started,instructions_stage1.stopped,end_instructions_resp_stage1.keys,end_instructions_resp_stage1.rt,end_instructions_resp_stage1.started,end_instructions_resp_stage1.stopped,space_to_continue_stage1.started,space_to_continue_stage1.stopped,instructions_2.started,instructions_2.stopped,end_instructions_resp_2.keys,end_instructions_resp_2.rt,end_instructions_resp_2.started,end_instructions_resp_2.stopped,press_space_to_continue_stage2.started,press_space_to_continue_stage2.stopped,instructions_testStage1.started,instructions_testStage1.stopped,end_instructions_resp_test1.keys,end_instructions_resp_test1.rt,end_instructions_resp_test1.started,end_instructions_resp_test1.stopped,press_space_to_continue_test1.started,press_space_to_continue_test1.stopped,cue1Image_testChoice.started,cue1Image_testChoice.stopped,cue2Image_testChoice.started,cue2Image_testChoice.stopped,test_resp.keys,test_resp.corr,test_resp.rt,test_resp.started,test_resp.stopped,cue1Image_testConf.started,cue1Image_testConf.stopped,cue2Image_testConf.started,cue2Image_testConf.stopped,conf_reminder.started,conf_reminder.stopped,conf_rating.response,conf_rating.rt,conf_rating.started,conf_rating.stopped,session,participant,date,expName,psychopyVersion,frameRate,
,,,,,,,,,,,,,,,,,,,,,,,,,,,,,,,,,,,,,,,,,,,"{'none': 'pictures/20M_AN_C.png', 'alpha': 'pictures/SHINEd_pepper.png', 'beta': 'pictures/SHINEd_melon.png', 'theta': 'pictures/SHINEd_pear.png', 'phi': 'pictures/SHINEd_apple.png', 'T1': 'pictures/25M_AN_C.png', 'T2': 'pictures/31M_AN_C.png', 'T3': 'pictures/20M_AN_C.png', 'T4': 'pictures/23M_AN_C.png', 'T5': 'pictures/33M_AN_C.png', 'T6': 'pictures/37M_AN_C.png', 'B1': 'pictures/36M_NE_C.png', 'B2': 'pictures/22M_NE_C.png', 'B3': 'pictures/26M_NE_C.png', 'B4': 'pictures/38M_NE_C.png', 'B5': 'pictures/34M_NE_C.png', 'B6': 'pictures/32M_NE_C.png'}",72.28178493600001,None,77.28129714200003,None,space,1155.4073884079999,77.28129714200003,None,,,,,,,,,,,,,,,,,,,,,,,,,,,,,,,,,,,,,,,,,,,,,,,,,,,,,,,,,,,,,,,,,,,,,,,,,,,,,,,,,,,,,,,,,,,,,,,,001,142,2020_Feb_20_0858,spring_faces,3.1.5,60.03793869391015,
,,,,,,,,,,,,,,,,,,,,,,,,,,,,,,,,,,,,,,,,,,,,,,,,,,,,1233.399500659,None,1233.399500659,None,"['0', '1', '0', '7', 'n', 'a', 'a', 'u', 's']","[21.52912239300008, 21.9452736180001, 28.329121149000002, 28.93713829300009, 31.689184681999905, 31.945272825000075, 32.95313611000006, 33.7691309679999, 33.94528204099993]",1233.399500659,None,,,,,,,,,,,,,,,,,,,,,,,,,,,,,,,,,,,,,,,,,,,,,,,,,,,,,,,,,,,,,,,,,,,,,,,,,,,,,,,,,,,,,,,,001,142,2020_Feb_20_0858,spring_faces,3.1.5,60.03793869391015,
,,,,,,,,,,,,,,,,,,,,,,,,,,,,,,,,,,,,,,,,,,,,,,,,,,,,,,,,,,,,0107naaus,1233.399500659,None,1233.399500659,None,1272.4151825180002,None,space,0.5218876480000745,1277.4147505580002,None,,,,,,,,,,,,,,,,,,,,,,,,,,,,,,,,,,,,,,,,,,,,,,,,,,,,,,,,,,,,,,,,,,,,,,,,,,,,,001,142,2020_Feb_20_0858,spring_faces,3.1.5,60.03793869391015,
,,,,,,,,,,,,,,,,,,,,,,,,,,,,,,,,,,,,,,,,,,,,,,,,,,,,,,,,,,,,,,,,,,,,,,,1277.4147505580002,None,1277.981700212,None,space,2.5877916239999195,1282.9648467030001,None,,,,,,,,,,,,,,,,,,,,,,,,,,,,,,,,,,,,,,,,,,,,,,,,,,,,,,,,,,,,,,,,,,,,,001,142,2020_Feb_20_0858,spring_faces,3.1.5,60.03793869391015,
condition files/Stage0a.xlsx,0a,alpha,none,h,"['h', 'g']","['Chess', 'Go']","[0, 0.5]","[0, 0]",1,0,0,0,0,0,0,0,0,0,,,,,,,,,,,,,,,,,,,,,,,,,,,,,,,,,,,,,,,,,,,,,,,,,,,,,,,,,,,,,1282.9648467030001,None,1285.765137006,None,1285.765137006,None,1285.765137006,None,h,1,6.6831867299999885,1287.3814359360001,None,1287.3814359360001,None,1287.3814359360001,None,1294.181734756,None,1294.181734756,None,1294.181734756,None,1294.181734756,None,,,,,,,,,,,,,,,,,,,,,,,,,,,,,,,,,,,,,,,,,,,,001,142,2020_Feb_20_0858,spring_faces,3.1.5,60.03793869391015,
condition files/Stage0a.xlsx,0a,beta,none,g,"['h', 'g']","['Chess', 'Go']","[0, 0.5]","[0, 0]",1,0,0,0,0,0,0,1,1,1,,,,,,,,,,,,,,,,,,,,,,,,,,,,,,,,,,,,,,,,,,,,,,,,,,,,,,,,,,,,,,,1296.081162136,None,1296.081162136,None,1296.081162136,None,h,0,4.368671104999976,1297.6319473400001,None,1297.6319473400001,None,1297.6319473400001,None,1302.065064373,None,1302.065064373,None,1302.065064373,None,1302.065064373,None,,,,,,,,,,,,,,,,,,,,,,,,,,,,,,,,,,,,,,,,,,,,001,142,2020_Feb_20_0858,spring_faces,3.1.5,60.03793869391015,
condition files/Stage0a.xlsx,0a,beta,none,g,"['h', 'g']","['Chess', 'Go']","[0, 0.5]","[0, 0]",1,0,0,1,1,1,0,0,0,1,,,,,,,,,,,,,,,,,,,,,,,,,,,,,,,,,,,,,,,,,,,,,,,,,,,,,,,,,,,,,,,1304.0482655100002,None,1304.0482655100002,None,1304.0482655100002,None,g,1,1.5560653149998416,1305.564577111,None,1305.564577111,None,1305.564577111,None,1307.1814574320001,None,1307.1814574320001,None,1307.1814574320001,None,1307.1814574320001,None,,,,,,,,,,,,,,,,,,,,,,,,,,,,,,,,,,,,,,,,,,,,001,142,2020_Feb_20_0858,spring_faces,3.1.5,60.03793869391015,
condition files/Stage0a.xlsx,0a,alpha,none,h,"['h', 'g']","['Chess', 'Go']","[0, 0.5]","[0, 0]",1,0,0,1,1,1,0,1,1,0,,,,,,,,,,,,,,,,,,,,,,,,,,,,,,,,,,,,,,,,,,,,,,,,,,,,,,,,,,,,,,,1309.1480052890001,None,1309.1480052890001,None,1309.1480052890001,None,h,1,0.9027785069999936,1310.697843464,None,1310.697843464,None,1310.697843464,None,1311.6647972780002,None,1311.6647972780002,None,1311.6647972780002,None,1311.6647972780002,None,,,,,,,,,,,,,,,,,,,,,,,,,,,,,,,,,,,,,,,,,,,,001,142,2020_Feb_20_0858,spring_faces,3.1.5,60.03793869391015,
condition files/Stage0a.xlsx,0a,alpha,none,h,"['h', 'g']","['Chess', 'Go']","[0, 0.5]","[0, 0]",1,0,0,2,2,2,0,0,0,0,,,,,,,,,,,,,,,,,,,,,,,,,,,,,,,,,,,,,,,,,,,,,,,,,,,,,,,,,,,,,,,1313.6477218510001,None,1313.6477218510001,None,1313.6477218510001,None,h,1,0.6913591779998569,1315.181329472,None,1315.181329472,None,1315.181329472,None,1315.9312888010002,None,1315.9312888010002,None,1315.9312888010002,None,1315.9312888010002,None,,,,,,,,,,,,,,,,,,,,,,,,,,,,,,,,,,,,,,,,,,,,001,142,2020_Feb_20_0858,spring_faces,3.1.5,60.03793869391015,
condition files/Stage0a.xlsx,0a,beta,none,g,"['h', 'g']","['Chess', 'Go']","[0, 0.5]","[0, 0]",1,0,0,2,2,2,0,1,1,1,,,,,,,,,,,,,,,,,,,,,,,,,,,,,,,,,,,,,,,,,,,,,,,,,,,,,,,,,,,,,,,1317.897975322,None,1317.897975322,None,1317.897975322,None,g,1,0.7288443850000021,1319.431737731,None,1319.431737731,None,1319.431737731,None,1320.214217515,None,1320.214217515,None,1320.214217515,None,1320.214217515,None,,,,,,,,,,,,,,,,,,,,,,,,,,,,,,,,,,,,,,,,,,,,001,142,2020_Feb_20_0858,spring_faces,3.1.5,60.03793869391015,
condition files/Stage0a.xlsx,0a,beta,none,g,"['h', 'g']","['Chess', 'Go']","[0, 0.5]","[0, 0]",1,0,0,3,3,3,0,0,0,1,,,,,,,,,,,,,,,,,,,,,,,,,,,,,,,,,,,,,,,,,,,,,,,,,,,,,,,,,,,,,,,1322.198267618,None,1322.198267618,None,1322.198267618,None,g,1,0.6693088130000433,1323.73132166,None,1323.73132166,None,1323.73132166,None,1324.4647466370002,None,1324.4647466370002,None,1324.4647466370002,None,1324.4647466370002,None,,,,,,,,,,,,,,,,,,,,,,,,,,,,,,,,,,,,,,,,,,,,001,142,2020_Feb_20_0858,spring_faces,3.1.5,60.03793869391015,
condition files/Stage0a.xlsx,0a,alpha,none,h,"['h', 'g']","['Chess', 'Go']","[0, 0.5]","[0, 0]",1,0,0,3,3,3,0,1,1,0,,,,,,,,,,,,,,,,,,,,,,,,,,,,,,,,,,,,,,,,,,,,,,,,,,,,,,,,,,,,,,,1326.43130131,None,1326.43130131,None,1326.43130131,None,h,1,1.3316616729998714,1327.964967194,None,1327.964967194,None,1327.964967194,None,1329.3478258520001,None,1329.3478258520001,None,1329.3478258520001,None,1329.3478258520001,None,,,,,,,,,,,,,,,,,,,,,,,,,,,,,,,,,,,,,,,,,,,,001,142,2020_Feb_20_0858,spring_faces,3.1.5,60.03793869391015,
condition files/Stage0a.xlsx,0a,beta,none,g,"['h', 'g']","['Chess', 'Go']","[0, 0.5]","[0, 0]",1,0,0,4,4,4,0,0,0,1,,,,,,,,,,,,,,,,,,,,,,,,,,,,,,,,,,,,,,,,,,,,,,,,,,,,,,,,,,,,,,,1331.331672041,None,1331.331672041,None,1331.331672041,None,g,1,0.8318804509999609,1332.8647437870002,None,1332.8647437870002,None,1332.8647437870002,None,1333.7479572250002,None,1333.7479572250002,None,1333.7479572250002,None,1333.7479572250002,None,,,,,,,,,,,,,,,,,,,,,,,,,,,,,,,,,,,,,,,,,,,,001,142,2020_Feb_20_0858,spring_faces,3.1.5,60.03793869391015,
condition files/Stage0a.xlsx,0a,alpha,none,h,"['h', 'g']","['Chess', 'Go']","[0, 0.5]","[0, 0]",1,0,0,4,4,4,0,1,1,0,,,,,,,,,,,,,,,,,,,,,,,,,,,,,,,,,,,,,,,,,,,,,,,,,,,,,,,,,,,,,,,1335.714655184,None,1335.714655184,None,1335.714655184,None,h,1,0.6883113960000173,1337.2483075500002,None,1337.2483075500002,None,1337.2483075500002,None,1337.9985079130001,None,1337.9985079130001,None,1337.9985079130001,None,1337.9985079130001,None,,,,,,,,,,,,,,,,,,,,,,,,,,,,,,,,,,,,,,,,,,,,001,142,2020_Feb_20_0858,spring_faces,3.1.5,60.03793869391015,
condition files/Stage0a.xlsx,0a,alpha,none,h,"['h', 'g']","['Chess', 'Go']","[0, 0.5]","[0, 0]",1,0,0,5,5,5,0,0,0,0,,,,,,,,,,,,,,,,,,,,,,,,,,,,,,,,,,,,,,,,,,,,,,,,,,,,,,,,,,,,,,,1339.981581829,None,1339.981581829,None,1339.981581829,None,h,1,1.2375713540000106,1341.515062393,None,1341.515062393,None,1341.515062393,None,1342.8150723600002,None,1342.8150723600002,None,1342.8150723600002,None,1342.8150723600002,None,,,,,,,,,,,,,,,,,,,,,,,,,,,,,,,,,,,,,,,,,,,,001,142,2020_Feb_20_0858,spring_faces,3.1.5,60.03793869391015,
condition files/Stage0a.xlsx,0a,beta,none,g,"['h', 'g']","['Chess', 'Go']","[0, 0.5]","[0, 0]",1,0,0,5,5,5,0,1,1,1,,,,,,,,,,,,,,,,,,,,,,,,,,,,,,,,,,,,,,,,,,,,,,,,,,,,,,,,,,,,,,,1344.781317986,None,1344.781317986,None,1344.781317986,None,g,1,0.790145781000092,1346.314516542,None,1346.314516542,None,1346.314516542,None,1347.164500902,None,1347.164500902,None,1347.164500902,None,1347.164500902,None,,,,,,,,,,,,,,,,,,,,,,,,,,,,,,,,,,,,,,,,,,,,001,142,2020_Feb_20_0858,spring_faces,3.1.5,60.03793869391015,
condition files/Stage0b_1.xlsx,0b,alpha,none,h,"['h', 'g']","['Chess', 'Go']","[-0.15, 0.5]","[0.15, 0.5]",1,0,0,6,6,6,0,0,0,0,,,,,,,,,,,,,,,,,,,,,,,,,,,,,,,,,,,,,,,,,,,,,,,,,,,,,,,,,,,,,,,1349.1983677740002,None,1349.1983677740002,None,1349.1983677740002,None,h,1,0.6310080260000177,1350.681615386,None,1350.681615386,None,1350.681615386,None,1351.364632321,None,1351.364632321,None,1351.364632321,None,1351.364632321,None,,,,,,,,,,,,,,,,,,,,,,,,,,,,,,,,,,,,,,,,,,,,001,142,2020_Feb_20_0858,spring_faces,3.1.5,60.03793869391015,
condition files/Stage0b_1.xlsx,0b,none,beta,g,"['h', 'g']","['Chess', 'Go']","[-0.15, 0.5]","[0.15, 0.5]",0,1,0,6,6,6,0,1,1,1,,,,,,,,,,,,,,,,,,,,,,,,,,,,,,,,,,,,,,,,,,,,,,,,,,,,,,,,,,,,,,,1353.331288889,None,1353.331288889,None,1353.331288889,None,g,1,0.5238669469999877,1354.868761722,None,1354.868761722,None,1354.868761722,None,1355.452654831,None,1355.452654831,None,1355.452654831,None,1355.452654831,None,,,,,,,,,,,,,,,,,,,,,,,,,,,,,,,,,,,,,,,,,,,,001,142,2020_Feb_20_0858,spring_faces,3.1.5,60.03793869391015,
condition files/Stage0b_2.xlsx,0b,beta,none,g,"['h', 'g']","['Chess', 'Go']","[-0.15, 0.5]","[0.15, 0.5]",1,0,0,7,7,7,0,0,0,1,,,,,,,,,,,,,,,,,,,,,,,,,,,,,,,,,,,,,,,,,,,,,,,,,,,,,,,,,,,,,,,1357.448336871,None,1357.448336871,None,1357.448336871,None,g,1,0.7440164429999641,1358.9686188330002,None,1358.9686188330002,None,1358.9686188330002,None,1359.7643594580002,None,1359.7643594580002,None,1359.7643594580002,None,1359.7643594580002,None,,,,,,,,,,,,,,,,,,,,,,,,,,,,,,,,,,,,,,,,,,,,001,142,2020_Feb_20_0858,spring_faces,3.1.5,60.03793869391015,
condition files/Stage0b_2.xlsx,0b,none,alpha,h,"['h', 'g']","['Chess', 'Go']","[-0.15, 0.5]","[0.15, 0.5]",0,1,0,7,7,7,0,1,1,0,,,,,,,,,,,,,,,,,,,,,,,,,,,,,,,,,,,,,,,,,,,,,,,,,,,,,,,,,,,,,,,1361.731537225,None,1361.731537225,None,1361.731537225,None,h,1,1.4693105799999557,1363.267334541,None,1363.267334541,None,1363.267334541,None,1364.797851888,None,1364.797851888,None,1364.797851888,None,1364.797851888,None,,,,,,,,,,,,,,,,,,,,,,,,,,,,,,,,,,,,,,,,,,,,001,142,2020_Feb_20_0858,spring_faces,3.1.5,60.03793869391015,
condition files/Stage0b_1.xlsx,0b,alpha,none,h,"['h', 'g']","['Chess', 'Go']","[-0.15, 0.5]","[0.15, 0.5]",1,0,0,8,8,8,0,0,0,0,,,,,,,,,,,,,,,,,,,,,,,,,,,,,,,,,,,,,,,,,,,,,,,,,,,,,,,,,,,,,,,1366.780992575,None,1366.780992575,None,1366.780992575,None,h,1,0.8818806470001164,1368.3187582300002,None,1368.3187582300002,None,1368.3187582300002,None,1369.264815557,None,1369.264815557,None,1369.264815557,None,1369.264815557,None,,,,,,,,,,,,,,,,,,,,,,,,,,,,,,,,,,,,,,,,,,,,001,142,2020_Feb_20_0858,spring_faces,3.1.5,60.03793869391015,
condition files/Stage0b_1.xlsx,0b,none,beta,g,"['h', 'g']","['Chess', 'Go']","[-0.15, 0.5]","[0.15, 0.5]",0,1,0,8,8,8,0,1,1,1,,,,,,,,,,,,,,,,,,,,,,,,,,,,,,,,,,,,,,,,,,,,,,,,,,,,,,,,,,,,,,,1371.231359454,None,1371.231359454,None,1371.231359454,None,g,1,0.6884962300000552,1372.768203451,None,1372.768203451,None,1372.768203451,None,1373.517178775,None,1373.517178775,None,1373.517178775,None,1373.517178775,None,,,,,,,,,,,,,,,,,,,,,,,,,,,,,,,,,,,,,,,,,,,,001,142,2020_Feb_20_0858,spring_faces,3.1.5,60.03793869391015,
condition files/Stage0b_2.xlsx,0b,none,alpha,h,"['h', 'g']","['Chess', 'Go']","[-0.15, 0.5]","[0.15, 0.5]",0,1,0,9,9,9,0,0,0,0,,,,,,,,,,,,,,,,,,,,,,,,,,,,,,,,,,,,,,,,,,,,,,,,,,,,,,,,,,,,,,,1375.497699835,None,1375.497699835,None,1375.497699835,None,h,1,0.8096706700000595,1377.0310185780002,None,1377.0310185780002,None,1377.0310185780002,None,1377.897899717,None,1377.897899717,None,1377.897899717,None,1377.897899717,None,,,,,,,,,,,,,,,,,,,,,,,,,,,,,,,,,,,,,,,,,,,,001,142,2020_Feb_20_0858,spring_faces,3.1.5,60.03793869391015,
condition files/Stage0b_2.xlsx,0b,beta,none,g,"['h', 'g']","['Chess', 'Go']","[-0.15, 0.5]","[0.15, 0.5]",1,0,0,9,9,9,0,1,1,1,,,,,,,,,,,,,,,,,,,,,,,,,,,,,,,,,,,,,,,,,,,,,,,,,,,,,,,,,,,,,,,1379.864550357,None,1379.864550357,None,1379.864550357,None,g,1,0.42381149400011964,1381.4008420330001,None,1381.4008420330001,None,1381.4008420330001,None,1381.885904407,None,1381.885904407,None,1381.885904407,None,1381.885904407,None,,,,,,,,,,,,,,,,,,,,,,,,,,,,,,,,,,,,,,,,,,,,001,142,2020_Feb_20_0858,spring_faces,3.1.5,60.03793869391015,
condition files/Stage0b_1.xlsx,0b,none,beta,g,"['h', 'g']","['Chess', 'Go']","[-0.15, 0.5]","[0.15, 0.5]",0,1,0,10,10,10,0,0,0,1,,,,,,,,,,,,,,,,,,,,,,,,,,,,,,,,,,,,,,,,,,,,,,,,,,,,,,,,,,,,,,,1383.8646532710002,None,1383.8646532710002,None,1383.8646532710002,None,g,1,0.6946092670000326,1385.402010897,None,1385.402010897,None,1385.402010897,None,1386.147393122,None,1386.147393122,None,1386.147393122,None,1386.147393122,None,,,,,,,,,,,,,,,,,,,,,,,,,,,,,,,,,,,,,,,,,,,,001,142,2020_Feb_20_0858,spring_faces,3.1.5,60.03793869391015,
condition files/Stage0b_1.xlsx,0b,alpha,none,h,"['h', 'g']","['Chess', 'Go']","[-0.15, 0.5]","[0.15, 0.5]",1,0,0,10,10,10,0,1,1,0,,,,,,,,,,,,,,,,,,,,,,,,,,,,,,,,,,,,,,,,,,,,,,,,,,,,,,,,,,,,,,,1388.114610022,None,1388.114610022,None,1388.114610022,None,h,1,0.5444724120000046,1389.648168396,None,1389.648168396,None,1389.648168396,None,1390.2536662480002,None,1390.2536662480002,None,1390.2536662480002,None,1390.2536662480002,None,,,,,,,,,,,,,,,,,,,,,,,,,,,,,,,,,,,,,,,,,,,,001,142,2020_Feb_20_0858,spring_faces,3.1.5,60.03793869391015,
condition files/Stage0b_2.xlsx,0b,none,alpha,h,"['h', 'g']","['Chess', 'Go']","[-0.15, 0.5]","[0.15, 0.5]",0,1,0,11,11,11,0,0,0,0,,,,,,,,,,,,,,,,,,,,,,,,,,,,,,,,,,,,,,,,,,,,,,,,,,,,,,,,,,,,,,,1392.230868549,None,1392.230868549,None,1392.230868549,None,h,1,1.8350395090001257,1393.781586886,None,1393.781586886,None,1393.781586886,None,1395.681519461,None,1395.681519461,None,1395.681519461,None,1395.681519461,None,,,,,,,,,,,,,,,,,,,,,,,,,,,,,,,,,,,,,,,,,,,,001,142,2020_Feb_20_0858,spring_faces,3.1.5,60.03793869391015,
condition files/Stage0b_2.xlsx,0b,beta,none,g,"['h', 'g']","['Chess', 'Go']","[-0.15, 0.5]","[0.15, 0.5]",1,0,0,11,11,11,0,1,1,1,,,,,,,,,,,,,,,,,,,,,,,,,,,,,,,,,,,,,,,,,,,,,,,,,,,,,,,,,,,,,,,1397.6479385080002,None,1397.6479385080002,None,1397.6479385080002,None,g,1,0.49914851399989857,1399.181471905,None,1399.181471905,None,1399.181471905,None,1399.732760324,None,1399.732760324,None,1399.732760324,None,1399.732760324,None,,,,,,,,,,,,,,,,,,,,,,,,,,,,,,,,,,,,,,,,,,,,001,142,2020_Feb_20_0858,spring_faces,3.1.5,60.03793869391015,
condition files/Stage0c_1.xlsx,0c,theta,alpha,h,"['h', 'g']","['Chess', 'Go']","[-0.15, 0.5]","[0.15, 0.5]",1,1,0,12,12,12,0,0,0,0,,,,,,,,,,,,,,,,,,,,,,,,,,,,,,,,,,,,,,,,,,,,,,,,,,,,,,,,,,,,,,,1401.731621672,None,1401.731621672,None,1401.731621672,None,h,1,2.3042377010001474,1403.2643926960002,None,1403.2643926960002,None,1403.2643926960002,None,1405.631219884,None,1405.631219884,None,1405.631219884,None,1405.631219884,None,,,,,,,,,,,,,,,,,,,,,,,,,,,,,,,,,,,,,,,,,,,,001,142,2020_Feb_20_0858,spring_faces,3.1.5,60.03793869391015,
condition files/Stage0c_1.xlsx,0c,beta,theta,g,"['h', 'g']","['Chess', 'Go']","[-0.15, 0.5]","[0.15, 0.5]",1,1,0,12,12,12,0,1,1,2,,,,,,,,,,,,,,,,,,,,,,,,,,,,,,,,,,,,,,,,,,,,,,,,,,,,,,,,,,,,,,,1407.5980215650002,None,1407.5980215650002,None,1407.5980215650002,None,g,1,0.7413759980001942,1409.131307176,None,1409.131307176,None,1409.131307176,None,1409.931004578,None,1409.931004578,None,1409.931004578,None,1409.931004578,None,,,,,,,,,,,,,,,,,,,,,,,,,,,,,,,,,,,,,,,,,,,,001,142,2020_Feb_20_0858,spring_faces,3.1.5,60.03793869391015,
condition files/Stage0c_1.xlsx,0c,alpha,phi,h,"['h', 'g']","['Chess', 'Go']","[-0.15, 0.5]","[0.15, 0.5]",1,1,0,12,12,12,0,2,2,1,,,,,,,,,,,,,,,,,,,,,,,,,,,,,,,,,,,,,,,,,,,,,,,,,,,,,,,,,,,,,,,1411.8979523100002,None,1411.8979523100002,None,1411.8979523100002,None,h,1,1.4642602860001261,1413.448354244,None,1413.448354244,None,1413.448354244,None,1414.967580614,None,1414.967580614,None,1414.967580614,None,1414.967580614,None,,,,,,,,,,,,,,,,,,,,,,,,,,,,,,,,,,,,,,,,,,,,001,142,2020_Feb_20_0858,spring_faces,3.1.5,60.03793869391015,
condition files/Stage0c_1.xlsx,0c,phi,beta,g,"['h', 'g']","['Chess', 'Go']","[-0.15, 0.5]","[0.15, 0.5]",1,1,0,12,12,12,0,3,3,3,,,,,,,,,,,,,,,,,,,,,,,,,,,,,,,,,,,,,,,,,,,,,,,,,,,,,,,,,,,,,,,1416.931561999,None,1416.931561999,None,1416.931561999,None,g,1,1.1996716539999852,1418.4649448270002,None,1418.4649448270002,None,1418.4649448270002,None,1419.7149487450001,None,1419.7149487450001,None,1419.7149487450001,None,1419.7149487450001,None,,,,,,,,,,,,,,,,,,,,,,,,,,,,,,,,,,,,,,,,,,,,001,142,2020_Feb_20_0858,spring_faces,3.1.5,60.03793869391015,
condition files/Stage0c_2.xlsx,0c,theta,beta,g,"['h', 'g']","['Chess', 'Go']","[-0.15, 0.5]","[0.15, 0.5]",1,1,0,13,13,13,0,0,0,2,,,,,,,,,,,,,,,,,,,,,,,,,,,,,,,,,,,,,,,,,,,,,,,,,,,,,,,,,,,,,,,1421.7149128560002,None,1421.7149128560002,None,1421.7149128560002,None,g,1,1.2810810369999217,1423.231595125,None,1423.231595125,None,1423.231595125,None,1424.55002543,None,1424.55002543,None,1424.55002543,None,1424.55002543,None,,,,,,,,,,,,,,,,,,,,,,,,,,,,,,,,,,,,,,,,,,,,001,142,2020_Feb_20_0858,spring_faces,3.1.5,60.03793869391015,
condition files/Stage0c_2.xlsx,0c,beta,phi,g,"['h', 'g']","['Chess', 'Go']","[-0.15, 0.5]","[0.15, 0.5]",1,1,0,13,13,13,0,1,1,3,,,,,,,,,,,,,,,,,,,,,,,,,,,,,,,,,,,,,,,,,,,,,,,,,,,,,,,,,,,,,,,1426.53128509,None,1426.53128509,None,1426.53128509,None,g,1,1.5520366079999803,1428.064582896,None,1428.064582896,None,1428.064582896,None,1429.665064702,None,1429.665064702,None,1429.665064702,None,1429.665064702,None,,,,,,,,,,,,,,,,,,,,,,,,,,,,,,,,,,,,,,,,,,,,001,142,2020_Feb_20_0858,spring_faces,3.1.5,60.03793869391015,
condition files/Stage0c_2.xlsx,0c,phi,alpha,h,"['h', 'g']","['Chess', 'Go']","[-0.15, 0.5]","[0.15, 0.5]",1,1,0,13,13,13,0,2,2,1,,,,,,,,,,,,,,,,,,,,,,,,,,,,,,,,,,,,,,,,,,,,,,,,,,,,,,,,,,,,,,,1431.647357736,None,1431.647357736,None,1431.647357736,None,h,1,1.2827512930000466,1433.181863056,None,1433.181863056,None,1433.181863056,None,1434.51469055,None,1434.51469055,None,1434.51469055,None,1434.51469055,None,,,,,,,,,,,,,,,,,,,,,,,,,,,,,,,,,,,,,,,,,,,,001,142,2020_Feb_20_0858,spring_faces,3.1.5,60.03793869391015,
condition files/Stage0c_2.xlsx,0c,alpha,theta,h,"['h', 'g']","['Chess', 'Go']","[-0.15, 0.5]","[0.15, 0.5]",1,1,0,13,13,13,0,3,3,0,,,,,,,,,,,,,,,,,,,,,,,,,,,,,,,,,,,,,,,,,,,,,,,,,,,,,,,,,,,,,,,1436.4815937770002,None,1436.4815937770002,None,1436.4815937770002,None,h,1,1.2016511659999196,1438.014969843,None,1438.014969843,None,1438.014969843,None,1439.281853654,None,1439.281853654,None,1439.281853654,None,1439.281853654,None,,,,,,,,,,,,,,,,,,,,,,,,,,,,,,,,,,,,,,,,,,,,001,142,2020_Feb_20_0858,spring_faces,3.1.5,60.03793869391015,
condition files/Stage0c_1.xlsx,0c,theta,alpha,h,"['h', 'g']","['Chess', 'Go']","[-0.15, 0.5]","[0.15, 0.5]",1,1,0,14,14,14,0,0,0,0,,,,,,,,,,,,,,,,,,,,,,,,,,,,,,,,,,,,,,,,,,,,,,,,,,,,,,,,,,,,,,,1441.26418772,None,1441.26418772,None,1441.26418772,None,h,1,1.0261805410000306,1442.798471391,None,1442.798471391,None,1442.798471391,None,1443.8662401820002,None,1443.8662401820002,None,1443.8662401820002,None,1443.8662401820002,None,,,,,,,,,,,,,,,,,,,,,,,,,,,,,,,,,,,,,,,,,,,,001,142,2020_Feb_20_0858,spring_faces,3.1.5,60.03793869391015,
condition files/Stage0c_1.xlsx,0c,alpha,phi,h,"['h', 'g']","['Chess', 'Go']","[-0.15, 0.5]","[0.15, 0.5]",1,1,0,14,14,14,0,1,1,1,,,,,,,,,,,,,,,,,,,,,,,,,,,,,,,,,,,,,,,,,,,,,,,,,,,,,,,,,,,,,,,1445.847711498,None,1445.847711498,None,1445.847711498,None,h,1,0.8911275850000493,1447.381544181,None,1447.381544181,None,1447.381544181,None,1448.3151632840002,None,1448.3151632840002,None,1448.3151632840002,None,1448.3151632840002,None,,,,,,,,,,,,,,,,,,,,,,,,,,,,,,,,,,,,,,,,,,,,001,142,2020_Feb_20_0858,spring_faces,3.1.5,60.03793869391015,
condition files/Stage0c_1.xlsx,0c,phi,beta,g,"['h', 'g']","['Chess', 'Go']","[-0.15, 0.5]","[0.15, 0.5]",1,1,0,14,14,14,0,2,2,3,,,,,,,,,,,,,,,,,,,,,,,,,,,,,,,,,,,,,,,,,,,,,,,,,,,,,,,,,,,,,,,1450.298095733,None,1450.298095733,None,1450.298095733,None,g,1,0.7137786199998573,1451.830852262,None,1451.830852262,None,1451.830852262,None,1452.598266709,None,1452.598266709,None,1452.598266709,None,1452.598266709,None,,,,,,,,,,,,,,,,,,,,,,,,,,,,,,,,,,,,,,,,,,,,001,142,2020_Feb_20_0858,spring_faces,3.1.5,60.03793869391015,
condition files/Stage0c_1.xlsx,0c,beta,theta,g,"['h', 'g']","['Chess', 'Go']","[-0.15, 0.5]","[0.15, 0.5]",1,1,0,14,14,14,0,3,3,2,,,,,,,,,,,,,,,,,,,,,,,,,,,,,,,,,,,,,,,,,,,,,,,,,,,,,,,,,,,,,,,1454.564688618,None,1454.564688618,None,1454.564688618,None,g,1,1.1343261619999794,1456.098268878,None,1456.098268878,None,1456.098268878,None,1457.283172933,None,1457.283172933,None,1457.283172933,None,1457.283172933,None,,,,,,,,,,,,,,,,,,,,,,,,,,,,,,,,,,,,,,,,,,,,001,142,2020_Feb_20_0858,spring_faces,3.1.5,60.03793869391015,
condition files/Stage0c_2.xlsx,0c,beta,phi,g,"['h', 'g']","['Chess', 'Go']","[-0.15, 0.5]","[0.15, 0.5]",1,1,0,15,15,15,0,0,0,3,,,,,,,,,,,,,,,,,,,,,,,,,,,,,,,,,,,,,,,,,,,,,,,,,,,,,,,,,,,,,,,1459.2818510700001,None,1459.2818510700001,None,1459.2818510700001,None,g,1,1.202024559999927,1460.814579474,None,1460.814579474,None,1460.814579474,None,1462.0653729100002,None,1462.0653729100002,None,1462.0653729100002,None,1462.0653729100002,None,,,,,,,,,,,,,,,,,,,,,,,,,,,,,,,,,,,,,,,,,,,,001,142,2020_Feb_20_0858,spring_faces,3.1.5,60.03793869391015,
condition files/Stage0c_2.xlsx,0c,alpha,theta,h,"['h', 'g']","['Chess', 'Go']","[-0.15, 0.5]","[0.15, 0.5]",1,1,0,15,15,15,0,1,1,0,,,,,,,,,,,,,,,,,,,,,,,,,,,,,,,,,,,,,,,,,,,,,,,,,,,,,,,,,,,,,,,1464.064955088,None,1464.064955088,None,1464.064955088,None,h,1,1.1870575570001165,1465.5815698440001,None,1465.5815698440001,None,1465.5815698440001,None,1466.831332771,None,1466.831332771,None,1466.831332771,None,1466.831332771,None,,,,,,,,,,,,,,,,,,,,,,,,,,,,,,,,,,,,,,,,,,,,001,142,2020_Feb_20_0858,spring_faces,3.1.5,60.03793869391015,
condition files/Stage0c_2.xlsx,0c,theta,beta,g,"['h', 'g']","['Chess', 'Go']","[-0.15, 0.5]","[0.15, 0.5]",1,1,0,15,15,15,0,2,2,2,,,,,,,,,,,,,,,,,,,,,,,,,,,,,,,,,,,,,,,,,,,,,,,,,,,,,,,,,,,,,,,1468.797512751,None,1468.797512751,None,1468.797512751,None,g,1,6.389006923999887,1470.3316187780001,None,1470.3316187780001,None,1470.3316187780001,None,1476.781587529,None,1476.781587529,None,1476.781587529,None,1476.781587529,None,,,,,,,,,,,,,,,,,,,,,,,,,,,,,,,,,,,,,,,,,,,,001,142,2020_Feb_20_0858,spring_faces,3.1.5,60.03793869391015,
condition files/Stage0c_2.xlsx,0c,phi,alpha,h,"['h', 'g']","['Chess', 'Go']","[-0.15, 0.5]","[0.15, 0.5]",1,1,0,15,15,15,0,3,3,1,,,,,,,,,,,,,,,,,,,,,,,,,,,,,,,,,,,,,,,,,,,,,,,,,,,,,,,,,,,,,,,1478.7479522350002,None,1478.7479522350002,None,1478.7479522350002,None,h,1,0.8710293209999236,1480.281599864,None,1480.281599864,None,1480.281599864,None,1481.214945931,None,1481.214945931,None,1481.214945931,None,1481.214945931,None,,,,,,,,,,,,,,,,,,,,,,,,,,,,,,,,,,,,,,,,,,,,001,142,2020_Feb_20_0858,spring_faces,3.1.5,60.03793869391015,
condition files/Stage0c_1.xlsx,0c,phi,beta,g,"['h', 'g']","['Chess', 'Go']","[-0.15, 0.5]","[0.15, 0.5]",1,1,0,16,16,16,0,0,0,3,,,,,,,,,,,,,,,,,,,,,,,,,,,,,,,,,,,,,,,,,,,,,,,,,,,,,,,,,,,,,,,1483.1976864550002,None,1483.1976864550002,None,1483.1976864550002,None,g,1,1.428562230000125,1484.732023817,None,1484.732023817,None,1484.732023817,None,1486.214927898,None,1486.214927898,None,1486.214927898,None,1486.214927898,None,,,,,,,,,,,,,,,,,,,,,,,,,,,,,,,,,,,,,,,,,,,,001,142,2020_Feb_20_0858,spring_faces,3.1.5,60.03793869391015,
condition files/Stage0c_1.xlsx,0c,beta,theta,g,"['h', 'g']","['Chess', 'Go']","[-0.15, 0.5]","[0.15, 0.5]",1,1,0,16,16,16,0,1,1,2,,,,,,,,,,,,,,,,,,,,,,,,,,,,,,,,,,,,,,,,,,,,,,,,,,,,,,,,,,,,,,,1488.1812524660002,None,1488.1812524660002,None,1488.1812524660002,None,g,1,0.7816092260000005,1489.7149987980001,None,1489.7149987980001,None,1489.7149987980001,None,1490.5336916580002,None,1490.5336916580002,None,1490.5336916580002,None,1490.5336916580002,None,,,,,,,,,,,,,,,,,,,,,,,,,,,,,,,,,,,,,,,,,,,,001,142,2020_Feb_20_0858,spring_faces,3.1.5,60.03793869391015,
condition files/Stage0c_1.xlsx,0c,alpha,phi,h,"['h', 'g']","['Chess', 'Go']","[-0.15, 0.5]","[0.15, 0.5]",1,1,0,16,16,16,0,2,2,1,,,,,,,,,,,,,,,,,,,,,,,,,,,,,,,,,,,,,,,,,,,,,,,,,,,,,,,,,,,,,,,1492.5146455830002,None,1492.5146455830002,None,1492.5146455830002,None,g,0,1.7280175600001257,1494.048557545,None,1494.048557545,None,1494.048557545,None,1495.848179675,None,1495.848179675,None,1495.848179675,None,1495.848179675,None,,,,,,,,,,,,,,,,,,,,,,,,,,,,,,,,,,,,,,,,,,,,001,142,2020_Feb_20_0858,spring_faces,3.1.5,60.03793869391015,
condition files/Stage0c_1.xlsx,0c,theta,alpha,h,"['h', 'g']","['Chess', 'Go']","[-0.15, 0.5]","[0.15, 0.5]",1,1,0,16,16,16,0,3,3,0,,,,,,,,,,,,,,,,,,,,,,,,,,,,,,,,,,,,,,,,,,,,,,,,,,,,,,,,,,,,,,,1497.797663966,None,1497.797663966,None,1497.797663966,None,h,1,0.9098373409999567,1499.33085335,None,1499.33085335,None,1499.33085335,None,1500.28183067,None,1500.28183067,None,1500.28183067,None,1500.28183067,None,,,,,,,,,,,,,,,,,,,,,,,,,,,,,,,,,,,,,,,,,,,,001,142,2020_Feb_20_0858,spring_faces,3.1.5,60.03793869391015,
condition files/Stage0c_2.xlsx,0c,phi,alpha,h,"['h', 'g']","['Chess', 'Go']","[-0.15, 0.5]","[0.15, 0.5]",1,1,0,17,17,17,0,0,0,1,,,,,,,,,,,,,,,,,,,,,,,,,,,,,,,,,,,,,,,,,,,,,,,,,,,,,,,,,,,,,,,1502.281544233,None,1502.281544233,None,1502.281544233,None,h,1,0.44247858799985806,1503.814220703,None,1503.814220703,None,1503.814220703,None,1504.301603564,None,1504.301603564,None,1504.301603564,None,1504.301603564,None,,,,,,,,,,,,,,,,,,,,,,,,,,,,,,,,,,,,,,,,,,,,001,142,2020_Feb_20_0858,spring_faces,3.1.5,60.03793869391015,
condition files/Stage0c_2.xlsx,0c,beta,phi,g,"['h', 'g']","['Chess', 'Go']","[-0.15, 0.5]","[0.15, 0.5]",1,1,0,17,17,17,0,1,1,3,,,,,,,,,,,,,,,,,,,,,,,,,,,,,,,,,,,,,,,,,,,,,,,,,,,,,,,,,,,,,,,1506.281405599,None,1506.281405599,None,1506.281405599,None,g,1,0.7776414100001148,1507.8149673990001,None,1507.8149673990001,None,1507.8149673990001,None,1508.648556352,None,1508.648556352,None,1508.648556352,None,1508.648556352,None,,,,,,,,,,,,,,,,,,,,,,,,,,,,,,,,,,,,,,,,,,,,001,142,2020_Feb_20_0858,spring_faces,3.1.5,60.03793869391015,
condition files/Stage0c_2.xlsx,0c,theta,beta,g,"['h', 'g']","['Chess', 'Go']","[-0.15, 0.5]","[0.15, 0.5]",1,1,0,17,17,17,0,2,2,2,,,,,,,,,,,,,,,,,,,,,,,,,,,,,,,,,,,,,,,,,,,,,,,,,,,,,,,,,,,,,,,1510.614892651,None,1510.614892651,None,1510.614892651,None,g,1,1.0364015490001748,1512.1482279440002,None,1512.1482279440002,None,1512.1482279440002,None,1513.2327866730002,None,1513.2327866730002,None,1513.2327866730002,None,1513.2327866730002,None,,,,,,,,,,,,,,,,,,,,,,,,,,,,,,,,,,,,,,,,,,,,001,142,2020_Feb_20_0858,spring_faces,3.1.5,60.03793869391015,
condition files/Stage0c_2.xlsx,0c,alpha,theta,h,"['h', 'g']","['Chess', 'Go']","[-0.15, 0.5]","[0.15, 0.5]",1,1,0,17,17,17,0,3,3,0,,,,,,,,,,,,,,,,,,,,,,,,,,,,,,,,,,,,,,,,,,,,,,,,,,,,,,,,,,,,,,,1515.214454205,None,1515.214454205,None,1515.214454205,None,h,1,0.9162534350000442,1516.7483614930002,None,1516.7483614930002,None,1516.7483614930002,None,1517.715040322,None,1517.715040322,None,1517.715040322,None,1517.715040322,None,,,,,,,,,,,,,,,,,,,,,,,,,,,,,,,,,,,,,,,,,,,,001,142,2020_Feb_20_0858,spring_faces,3.1.5,60.03793869391015,
,,,,,,,,,,,,,,,,,,,,,,,,,,,,,,,,,,,,,,,,,,,,,,,,,,,,,,,,,,,,,,,,,,,,,,,,,,,,,,,,,,,,,,,,,,,,,,,,,,,,,,,,1519.697775133,None,space,2.774507665000101,1524.698213673,None,,,,,,,,,,,,,,,,,,,,,,,,,,,,,,,,,,,,,,001,142,2020_Feb_20_0858,spring_faces,3.1.5,60.03793869391015,
condition files/Stage1_1.xlsx,,T1,B1,c,"['c', 'm']","['Clue', 'Monopoly']","[-0.15, 0.5]","[0.15, 0.5]",1,1,,,,,,,,,0,0,0,0,0,0,0,0,,,,,,,,,,,,,,,,,,,,,,,,,,,,,,,,,,,,,,,,,,,,,,,,,,,,,,,1527.5985255120002,None,1527.5985255120002,None,1527.5985255120002,None,c,1,2.4390425169999617,1529.09761733,None,1529.09761733,None,1529.09761733,None,1531.616715529,None,1531.616715529,None,1531.616715529,None,1531.616715529,None,,,,,,,1524.698213673,None,,,,,,,,,,,,,,,,,,,,,,,,,,,,,,,,,,,,001,142,2020_Feb_20_0858,spring_faces,3.1.5,60.03793869391015,
condition files/Stage1_1.xlsx,,T2,B2,m,"['c', 'm']","['Clue', 'Monopoly']","[-0.15, 0.5]","[0.15, 0.5]",1,1,,,,,,,,,0,0,0,0,0,1,1,3,,,,,,,,,,,,,,,,,,,,,,,,,,,,,,,,,,,,,,,,,,,,,,,,,,,,,,,1533.564671342,None,1533.564671342,None,1533.564671342,None,m,1,0.5818535449998308,1535.114753666,None,1535.114753666,None,1535.114753666,None,1535.7477196090001,None,1535.7477196090001,None,1535.7477196090001,None,1535.7477196090001,None,,,,,,,,,,,,,,,,,,,,,,,,,,,,,,,,,,,,,,,,,,,,001,142,2020_Feb_20_0858,spring_faces,3.1.5,60.03793869391015,
condition files/Stage1_1.xlsx,,B1,T2,c,"['c', 'm']","['Clue', 'Monopoly']","[-0.15, 0.5]","[0.15, 0.5]",1,1,,,,,,,,,0,0,0,0,0,2,2,1,,,,,,,,,,,,,,,,,,,,,,,,,,,,,,,,,,,,,,,,,,,,,,,,,,,,,,,1537.714626169,None,1537.714626169,None,1537.714626169,None,c,1,2.0326752729999953,1539.247962306,None,1539.247962306,None,1539.247962306,None,1541.348585631,None,1541.348585631,None,1541.348585631,None,1541.348585631,None,,,,,,,,,,,,,,,,,,,,,,,,,,,,,,,,,,,,,,,,,,,,001,142,2020_Feb_20_0858,spring_faces,3.1.5,60.03793869391015,
condition files/Stage1_1.xlsx,,B3,T3,c,"['c', 'm']","['Clue', 'Monopoly']","[-0.15, 0.5]","[0.15, 0.5]",1,1,,,,,,,,,0,0,0,0,0,3,3,4,,,,,,,,,,,,,,,,,,,,,,,,,,,,,,,,,,,,,,,,,,,,,,,,,,,,,,,1543.297691918,None,1543.297691918,None,1543.297691918,None,m,0,1.0069186629998512,1544.8817742400001,None,1544.8817742400001,None,1544.8817742400001,None,1545.964376224,None,1545.964376224,None,1545.964376224,None,1545.964376224,None,,,,,,,,,,,,,,,,,,,,,,,,,,,,,,,,,,,,,,,,,,,,001,142,2020_Feb_20_0858,spring_faces,3.1.5,60.03793869391015,
condition files/Stage1_1.xlsx,,B4,T4,m,"['c', 'm']","['Clue', 'Monopoly']","[-0.15, 0.5]","[0.15, 0.5]",1,1,,,,,,,,,0,0,0,0,0,4,4,7,,,,,,,,,,,,,,,,,,,,,,,,,,,,,,,,,,,,,,,,,,,,,,,,,,,,,,,1547.914302482,None,1547.914302482,None,1547.914302482,None,c,0,1.5910338129999673,1549.481653584,None,1549.481653584,None,1549.481653584,None,1551.133967508,None,1551.133967508,None,1551.133967508,None,1551.133967508,None,,,,,,,,,,,,,,,,,,,,,,,,,,,,,,,,,,,,,,,,,,,,001,142,2020_Feb_20_0858,spring_faces,3.1.5,60.03793869391015,
condition files/Stage1_1.xlsx,,T3,B4,c,"['c', 'm']","['Clue', 'Monopoly']","[-0.15, 0.5]","[0.15, 0.5]",1,1,,,,,,,,,0,0,0,0,0,5,5,5,,,,,,,,,,,,,,,,,,,,,,,,,,,,,,,,,,,,,,,,,,,,,,,,,,,,,,,1553.097677374,None,1553.097677374,None,1553.097677374,None,c,1,1.0323482470000727,1554.632279425,None,1554.632279425,None,1554.632279425,None,1555.713987648,None,1555.713987648,None,1555.713987648,None,1555.713987648,None,,,,,,,,,,,,,,,,,,,,,,,,,,,,,,,,,,,,,,,,,,,,001,142,2020_Feb_20_0858,spring_faces,3.1.5,60.03793869391015,
condition files/Stage1_1.xlsx,,B2,T1,m,"['c', 'm']","['Clue', 'Monopoly']","[-0.15, 0.5]","[0.15, 0.5]",1,1,,,,,,,,,0,0,0,0,0,6,6,2,,,,,,,,,,,,,,,,,,,,,,,,,,,,,,,,,,,,,,,,,,,,,,,,,,,,,,,1557.681047801,None,1557.681047801,None,1557.681047801,None,m,1,1.2955726469999718,1559.217112412,None,1559.217112412,None,1559.217112412,None,1560.565863254,None,1560.565863254,None,1560.565863254,None,1560.565863254,None,,,,,,,,,,,,,,,,,,,,,,,,,,,,,,,,,,,,,,,,,,,,001,142,2020_Feb_20_0858,spring_faces,3.1.5,60.03793869391015,
condition files/Stage1_1.xlsx,,T4,B3,m,"['c', 'm']","['Clue', 'Monopoly']","[-0.15, 0.5]","[0.15, 0.5]",1,1,,,,,,,,,0,0,0,0,0,7,7,6,,,,,,,,,,,,,,,,,,,,,,,,,,,,,,,,,,,,,,,,,,,,,,,,,,,,,,,1562.5313507150001,None,1562.5313507150001,None,1562.5313507150001,None,m,1,1.2787061759997869,1564.065928206,None,1564.065928206,None,1564.065928206,None,1565.398176877,None,1565.398176877,None,1565.398176877,None,1565.398176877,None,,,,,,,,,,,,,,,,,,,,,,,,,,,,,,,,,,,,,,,,,,,,001,142,2020_Feb_20_0858,spring_faces,3.1.5,60.03793869391015,
condition files/Stage1_2.xlsx,,B1,T1,c,"['c', 'm']","['Clue', 'Monopoly']","[-0.15, 0.5]","[0.15, 0.5]",1,1,,,,,,,,,0,1,1,1,0,0,0,0,,,,,,,,,,,,,,,,,,,,,,,,,,,,,,,,,,,,,,,,,,,,,,,,,,,,,,,1567.4146298760002,None,1567.4146298760002,None,1567.4146298760002,None,m,0,0.604937781999979,1568.91576607,None,1568.91576607,None,1568.91576607,None,1569.598105455,None,1569.598105455,None,1569.598105455,None,1569.598105455,None,,,,,,,,,,,,,,,,,,,,,,,,,,,,,,,,,,,,,,,,,,,,001,142,2020_Feb_20_0858,spring_faces,3.1.5,60.03793869391015,
condition files/Stage1_2.xlsx,,B3,T4,m,"['c', 'm']","['Clue', 'Monopoly']","[-0.15, 0.5]","[0.15, 0.5]",1,1,,,,,,,,,0,1,1,1,0,1,1,6,,,,,,,,,,,,,,,,,,,,,,,,,,,,,,,,,,,,,,,,,,,,,,,,,,,,,,,1571.54795238,None,1571.54795238,None,1571.54795238,None,m,1,1.0618888149999748,1573.082747981,None,1573.082747981,None,1573.082747981,None,1574.199993832,None,1574.199993832,None,1574.199993832,None,1574.199993832,None,,,,,,,,,,,,,,,,,,,,,,,,,,,,,,,,,,,,,,,,,,,,001,142,2020_Feb_20_0858,spring_faces,3.1.5,60.03793869391015,
condition files/Stage1_2.xlsx,,T4,B4,m,"['c', 'm']","['Clue', 'Monopoly']","[-0.15, 0.5]","[0.15, 0.5]",1,1,,,,,,,,,0,1,1,1,0,2,2,7,,,,,,,,,,,,,,,,,,,,,,,,,,,,,,,,,,,,,,,,,,,,,,,,,,,,,,,1576.164783103,None,1576.164783103,None,1576.164783103,None,c,0,1.2765339750001203,1577.700044403,None,1577.700044403,None,1577.700044403,None,1579.030954929,None,1579.030954929,None,1579.030954929,None,1579.030954929,None,,,,,,,,,,,,,,,,,,,,,,,,,,,,,,,,,,,,,,,,,,,,001,142,2020_Feb_20_0858,spring_faces,3.1.5,60.03793869391015,
condition files/Stage1_2.xlsx,,T3,B3,c,"['c', 'm']","['Clue', 'Monopoly']","[-0.15, 0.5]","[0.15, 0.5]",1,1,,,,,,,,,0,1,1,1,0,3,3,4,,,,,,,,,,,,,,,,,,,,,,,,,,,,,,,,,,,,,,,,,,,,,,,,,,,,,,,1580.997448368,None,1580.997448368,None,1580.997448368,None,m,0,1.16433856499998,1582.548273028,None,1582.548273028,None,1582.548273028,None,1583.76563861,None,1583.76563861,None,1583.76563861,None,1583.76563861,None,,,,,,,,,,,,,,,,,,,,,,,,,,,,,,,,,,,,,,,,,,,,001,142,2020_Feb_20_0858,spring_faces,3.1.5,60.03793869391015,
condition files/Stage1_2.xlsx,,B4,T3,c,"['c', 'm']","['Clue', 'Monopoly']","[-0.15, 0.5]","[0.15, 0.5]",1,1,,,,,,,,,0,1,1,1,0,4,4,5,,,,,,,,,,,,,,,,,,,,,,,,,,,,,,,,,,,,,,,,,,,,,,,,,,,,,,,1585.730978499,None,1585.730978499,None,1585.730978499,None,m,0,1.8859051479998925,1587.266730946,None,1587.266730946,None,1587.266730946,None,1589.215151584,None,1589.215151584,None,1589.215151584,None,1589.215151584,None,,,,,,,,,,,,,,,,,,,,,,,,,,,,,,,,,,,,,,,,,,,,001,142,2020_Feb_20_0858,spring_faces,3.1.5,60.03793869391015,
condition files/Stage1_2.xlsx,,T2,B1,c,"['c', 'm']","['Clue', 'Monopoly']","[-0.15, 0.5]","[0.15, 0.5]",1,1,,,,,,,,,0,1,1,1,0,5,5,1,,,,,,,,,,,,,,,,,,,,,,,,,,,,,,,,,,,,,,,,,,,,,,,,,,,,,,,1591.181358109,None,1591.181358109,None,1591.181358109,None,c,1,1.9728810100000373,1592.715832069,None,1592.715832069,None,1592.715832069,None,1594.748240543,None,1594.748240543,None,1594.748240543,None,1594.748240543,None,,,,,,,,,,,,,,,,,,,,,,,,,,,,,,,,,,,,,,,,,,,,001,142,2020_Feb_20_0858,spring_faces,3.1.5,60.03793869391015,
condition files/Stage1_2.xlsx,,B2,T2,m,"['c', 'm']","['Clue', 'Monopoly']","[-0.15, 0.5]","[0.15, 0.5]",1,1,,,,,,,,,0,1,1,1,0,6,6,3,,,,,,,,,,,,,,,,,,,,,,,,,,,,,,,,,,,,,,,,,,,,,,,,,,,,,,,1596.7146711290002,None,1596.7146711290002,None,1596.7146711290002,None,c,0,1.1133312380000007,1598.247309349,None,1598.247309349,None,1598.247309349,None,1599.4160831840002,None,1599.4160831840002,None,1599.4160831840002,None,1599.4160831840002,None,,,,,,,,,,,,,,,,,,,,,,,,,,,,,,,,,,,,,,,,,,,,001,142,2020_Feb_20_0858,spring_faces,3.1.5,60.03793869391015,
condition files/Stage1_2.xlsx,,T1,B2,m,"['c', 'm']","['Clue', 'Monopoly']","[-0.15, 0.5]","[0.15, 0.5]",1,1,,,,,,,,,0,1,1,1,0,7,7,2,,,,,,,,,,,,,,,,,,,,,,,,,,,,,,,,,,,,,,,,,,,,,,,,,,,,,,,1601.381325042,None,1601.381325042,None,1601.381325042,None,c,0,2.653076128000066,1602.915562501,None,1602.915562501,None,1602.915562501,None,1605.631939945,None,1605.631939945,None,1605.631939945,None,1605.631939945,None,,,,,,,,,,,,,,,,,,,,,,,,,,,,,,,,,,,,,,,,,,,,001,142,2020_Feb_20_0858,spring_faces,3.1.5,60.03793869391015,
condition files/Stage1_1.xlsx,,B1,T2,c,"['c', 'm']","['Clue', 'Monopoly']","[-0.15, 0.5]","[0.15, 0.5]",1,1,,,,,,,,,0,2,2,2,0,0,0,1,,,,,,,,,,,,,,,,,,,,,,,,,,,,,,,,,,,,,,,,,,,,,,,,,,,,,,,1607.6148870900001,None,1607.6148870900001,None,1607.6148870900001,None,m,0,2.6435815639999873,1609.1651111140002,None,1609.1651111140002,None,1609.1651111140002,None,1611.881622693,None,1611.881622693,None,1611.881622693,None,1611.881622693,None,,,,,,,,,,,,,,,,,,,,,,,,,,,,,,,,,,,,,,,,,,,,001,142,2020_Feb_20_0858,spring_faces,3.1.5,60.03793869391015,
condition files/Stage1_1.xlsx,,B2,T1,m,"['c', 'm']","['Clue', 'Monopoly']","[-0.15, 0.5]","[0.15, 0.5]",1,1,,,,,,,,,0,2,2,2,0,1,1,2,,,,,,,,,,,,,,,,,,,,,,,,,,,,,,,,,,,,,,,,,,,,,,,,,,,,,,,1613.831100937,None,1613.831100937,None,1613.831100937,None,c,0,2.363573901999871,1615.3650593900002,None,1615.3650593900002,None,1615.3650593900002,None,1617.782816521,None,1617.782816521,None,1617.782816521,None,1617.782816521,None,,,,,,,,,,,,,,,,,,,,,,,,,,,,,,,,,,,,,,,,,,,,001,142,2020_Feb_20_0858,spring_faces,3.1.5,60.03793869391015,
condition files/Stage1_1.xlsx,,T2,B2,m,"['c', 'm']","['Clue', 'Monopoly']","[-0.15, 0.5]","[0.15, 0.5]",1,1,,,,,,,,,0,2,2,2,0,2,2,3,,,,,,,,,,,,,,,,,,,,,,,,,,,,,,,,,,,,,,,,,,,,,,,,,,,,,,,1619.74810806,None,1619.74810806,None,1619.74810806,None,m,1,1.358433628000057,1621.298239943,None,1621.298239943,None,1621.298239943,None,1622.714696637,None,1622.714696637,None,1622.714696637,None,1622.714696637,None,,,,,,,,,,,,,,,,,,,,,,,,,,,,,,,,,,,,,,,,,,,,001,142,2020_Feb_20_0858,spring_faces,3.1.5,60.03793869391015,
condition files/Stage1_1.xlsx,,T3,B4,c,"['c', 'm']","['Clue', 'Monopoly']","[-0.15, 0.5]","[0.15, 0.5]",1,1,,,,,,,,,0,2,2,2,0,3,3,5,,,,,,,,,,,,,,,,,,,,,,,,,,,,,,,,,,,,,,,,,,,,,,,,,,,,,,,1624.68138857,None,1624.68138857,None,1624.68138857,None,m,0,1.625823938999929,1626.2148779220001,None,1626.2148779220001,None,1626.2148779220001,None,1627.897769358,None,1627.897769358,None,1627.897769358,None,1627.897769358,None,,,,,,,,,,,,,,,,,,,,,,,,,,,,,,,,,,,,,,,,,,,,001,142,2020_Feb_20_0858,spring_faces,3.1.5,60.03793869391015,
condition files/Stage1_1.xlsx,,T1,B1,c,"['c', 'm']","['Clue', 'Monopoly']","[-0.15, 0.5]","[0.15, 0.5]",1,1,,,,,,,,,0,2,2,2,0,4,4,0,,,,,,,,,,,,,,,,,,,,,,,,,,,,,,,,,,,,,,,,,,,,,,,,,,,,,,,1629.864539135,None,1629.864539135,None,1629.864539135,None,c,1,1.7053612889999386,1631.399357229,None,1631.399357229,None,1631.399357229,None,1633.1644779360001,None,1633.1644779360001,None,1633.1644779360001,None,1633.1644779360001,None,,,,,,,,,,,,,,,,,,,,,,,,,,,,,,,,,,,,,,,,,,,,001,142,2020_Feb_20_0858,spring_faces,3.1.5,60.03793869391015,
condition files/Stage1_1.xlsx,,B4,T4,m,"['c', 'm']","['Clue', 'Monopoly']","[-0.15, 0.5]","[0.15, 0.5]",1,1,,,,,,,,,0,2,2,2,0,5,5,7,,,,,,,,,,,,,,,,,,,,,,,,,,,,,,,,,,,,,,,,,,,,,,,,,,,,,,,1635.1307528520001,None,1635.1307528520001,None,1635.1307528520001,None,c,0,0.8067850939999062,1636.6659274570002,None,1636.6659274570002,None,1636.6659274570002,None,1637.5315608610001,None,1637.5315608610001,None,1637.5315608610001,None,1637.5315608610001,None,,,,,,,,,,,,,,,,,,,,,,,,,,,,,,,,,,,,,,,,,,,,001,142,2020_Feb_20_0858,spring_faces,3.1.5,60.03793869391015,
condition files/Stage1_1.xlsx,,T4,B3,m,"['c', 'm']","['Clue', 'Monopoly']","[-0.15, 0.5]","[0.15, 0.5]",1,1,,,,,,,,,0,2,2,2,0,6,6,6,,,,,,,,,,,,,,,,,,,,,,,,,,,,,,,,,,,,,,,,,,,,,,,,,,,,,,,1639.498022236,None,1639.498022236,None,1639.498022236,None,m,1,0.937072943999965,1641.0475498580001,None,1641.0475498580001,None,1641.0475498580001,None,1642.047816707,None,1642.047816707,None,1642.047816707,None,1642.047816707,None,,,,,,,,,,,,,,,,,,,,,,,,,,,,,,,,,,,,,,,,,,,,001,142,2020_Feb_20_0858,spring_faces,3.1.5,60.03793869391015,
condition files/Stage1_1.xlsx,,B3,T3,c,"['c', 'm']","['Clue', 'Monopoly']","[-0.15, 0.5]","[0.15, 0.5]",1,1,,,,,,,,,0,2,2,2,0,7,7,4,,,,,,,,,,,,,,,,,,,,,,,,,,,,,,,,,,,,,,,,,,,,,,,,,,,,,,,1644.014739385,None,1644.014739385,None,1644.014739385,None,m,0,1.8128603669999848,1645.5477475510002,None,1645.5477475510002,None,1645.5477475510002,None,1647.4158954680001,None,1647.4158954680001,None,1647.4158954680001,None,1647.4158954680001,None,,,,,,,,,,,,,,,,,,,,,,,,,,,,,,,,,,,,,,,,,,,,001,142,2020_Feb_20_0858,spring_faces,3.1.5,60.03793869391015,
condition files/Stage1_2.xlsx,,B1,T1,c,"['c', 'm']","['Clue', 'Monopoly']","[-0.15, 0.5]","[0.15, 0.5]",1,1,,,,,,,,,0,3,3,3,0,0,0,0,,,,,,,,,,,,,,,,,,,,,,,,,,,,,,,,,,,,,,,,,,,,,,,,,,,,,,,1649.398356103,None,1649.398356103,None,1649.398356103,None,c,1,1.2284197269998458,1650.932238086,None,1650.932238086,None,1650.932238086,None,1652.2147075750001,None,1652.2147075750001,None,1652.2147075750001,None,1652.2147075750001,None,,,,,,,,,,,,,,,,,,,,,,,,,,,,,,,,,,,,,,,,,,,,001,142,2020_Feb_20_0858,spring_faces,3.1.5,60.03793869391015,
condition files/Stage1_2.xlsx,,B4,T3,c,"['c', 'm']","['Clue', 'Monopoly']","[-0.15, 0.5]","[0.15, 0.5]",1,1,,,,,,,,,0,3,3,3,0,1,1,5,,,,,,,,,,,,,,,,,,,,,,,,,,,,,,,,,,,,,,,,,,,,,,,,,,,,,,,1654.1813143410002,None,1654.1813143410002,None,1654.1813143410002,None,c,1,1.6437847409999904,1655.71683004,None,1655.71683004,None,1655.71683004,None,1657.414702907,None,1657.414702907,None,1657.414702907,None,1657.414702907,None,,,,,,,,,,,,,,,,,,,,,,,,,,,,,,,,,,,,,,,,,,,,001,142,2020_Feb_20_0858,spring_faces,3.1.5,60.03793869391015,
condition files/Stage1_2.xlsx,,B3,T4,m,"['c', 'm']","['Clue', 'Monopoly']","[-0.15, 0.5]","[0.15, 0.5]",1,1,,,,,,,,,0,3,3,3,0,2,2,6,,,,,,,,,,,,,,,,,,,,,,,,,,,,,,,,,,,,,,,,,,,,,,,,,,,,,,,1659.381530845,None,1659.381530845,None,1659.381530845,None,m,1,1.3882595909999509,1660.9164470980002,None,1660.9164470980002,None,1660.9164470980002,None,1662.3649488980002,None,1662.3649488980002,None,1662.3649488980002,None,1662.3649488980002,None,,,,,,,,,,,,,,,,,,,,,,,,,,,,,,,,,,,,,,,,,,,,001,142,2020_Feb_20_0858,spring_faces,3.1.5,60.03793869391015,
condition files/Stage1_2.xlsx,,B2,T2,m,"['c', 'm']","['Clue', 'Monopoly']","[-0.15, 0.5]","[0.15, 0.5]",1,1,,,,,,,,,0,3,3,3,0,3,3,3,,,,,,,,,,,,,,,,,,,,,,,,,,,,,,,,,,,,,,,,,,,,,,,,,,,,,,,1664.331145195,None,1664.331145195,None,1664.331145195,None,c,0,0.9679751270000452,1665.8646046370002,None,1665.8646046370002,None,1665.8646046370002,None,1666.897683639,None,1666.897683639,None,1666.897683639,None,1666.897683639,None,,,,,,,,,,,,,,,,,,,,,,,,,,,,,,,,,,,,,,,,,,,,001,142,2020_Feb_20_0858,spring_faces,3.1.5,60.03793869391015,
condition files/Stage1_2.xlsx,,T1,B2,m,"['c', 'm']","['Clue', 'Monopoly']","[-0.15, 0.5]","[0.15, 0.5]",1,1,,,,,,,,,0,3,3,3,0,4,4,2,,,,,,,,,,,,,,,,,,,,,,,,,,,,,,,,,,,,,,,,,,,,,,,,,,,,,,,1668.8646993300001,None,1668.8646993300001,None,1668.8646993300001,None,c,0,1.1362764359998891,1670.4003897500002,None,1670.4003897500002,None,1670.4003897500002,None,1671.5985036030002,None,1671.5985036030002,None,1671.5985036030002,None,1671.5985036030002,None,,,,,,,,,,,,,,,,,,,,,,,,,,,,,,,,,,,,,,,,,,,,001,142,2020_Feb_20_0858,spring_faces,3.1.5,60.03793869391015,
condition files/Stage1_2.xlsx,,T4,B4,m,"['c', 'm']","['Clue', 'Monopoly']","[-0.15, 0.5]","[0.15, 0.5]",1,1,,,,,,,,,0,3,3,3,0,5,5,7,,,,,,,,,,,,,,,,,,,,,,,,,,,,,,,,,,,,,,,,,,,,,,,,,,,,,,,1673.564160909,None,1673.564160909,None,1673.564160909,None,m,1,1.157613242000025,1675.115080795,None,1675.115080795,None,1675.115080795,None,1676.331627196,None,1676.331627196,None,1676.331627196,None,1676.331627196,None,,,,,,,,,,,,,,,,,,,,,,,,,,,,,,,,,,,,,,,,,,,,001,142,2020_Feb_20_0858,spring_faces,3.1.5,60.03793869391015,
condition files/Stage1_2.xlsx,,T3,B3,c,"['c', 'm']","['Clue', 'Monopoly']","[-0.15, 0.5]","[0.15, 0.5]",1,1,,,,,,,,,0,3,3,3,0,6,6,4,,,,,,,,,,,,,,,,,,,,,,,,,,,,,,,,,,,,,,,,,,,,,,,,,,,,,,,1678.297400445,None,1678.297400445,None,1678.297400445,None,c,1,2.392967764000332,1679.831719043,None,1679.831719043,None,1679.831719043,None,1682.283093073,None,1682.283093073,None,1682.283093073,None,1682.283093073,None,,,,,,,,,,,,,,,,,,,,,,,,,,,,,,,,,,,,,,,,,,,,001,142,2020_Feb_20_0858,spring_faces,3.1.5,60.03793869391015,
condition files/Stage1_2.xlsx,,T2,B1,c,"['c', 'm']","['Clue', 'Monopoly']","[-0.15, 0.5]","[0.15, 0.5]",1,1,,,,,,,,,0,3,3,3,0,7,7,1,,,,,,,,,,,,,,,,,,,,,,,,,,,,,,,,,,,,,,,,,,,,,,,,,,,,,,,1684.2472566600002,None,1684.2472566600002,None,1684.2472566600002,None,c,1,4.202303376000145,1685.798318296,None,1685.798318296,None,1685.798318296,None,1690.0644816850001,None,1690.0644816850001,None,1690.0644816850001,None,1690.0644816850001,None,,,,,,,,,,,,,,,,,,,,,,,,,,,,,,,,,,,,,,,,,,,,001,142,2020_Feb_20_0858,spring_faces,3.1.5,60.03793869391015,
condition files/Stage1_1.xlsx,,B1,T2,c,"['c', 'm']","['Clue', 'Monopoly']","[-0.15, 0.5]","[0.15, 0.5]",1,1,,,,,,,,,0,4,4,4,0,0,0,1,,,,,,,,,,,,,,,,,,,,,,,,,,,,,,,,,,,,,,,,,,,,,,,,,,,,,,,1692.048127714,None,1692.048127714,None,1692.048127714,None,m,0,2.451335549000305,1693.5812607330001,None,1693.5812607330001,None,1693.5812607330001,None,1696.0980723730002,None,1696.0980723730002,None,1696.0980723730002,None,1696.0980723730002,None,,,,,,,,,,,,,,,,,,,,,,,,,,,,,,,,,,,,,,,,,,,,001,142,2020_Feb_20_0858,spring_faces,3.1.5,60.03793869391015,
condition files/Stage1_1.xlsx,,B3,T3,c,"['c', 'm']","['Clue', 'Monopoly']","[-0.15, 0.5]","[0.15, 0.5]",1,1,,,,,,,,,0,4,4,4,0,1,1,4,,,,,,,,,,,,,,,,,,,,,,,,,,,,,,,,,,,,,,,,,,,,,,,,,,,,,,,1698.0644637560001,None,1698.0644637560001,None,1698.0644637560001,None,c,1,1.5681901039997683,1699.600480889,None,1699.600480889,None,1699.600480889,None,1701.231007524,None,1701.231007524,None,1701.231007524,None,1701.231007524,None,,,,,,,,,,,,,,,,,,,,,,,,,,,,,,,,,,,,,,,,,,,,001,142,2020_Feb_20_0858,spring_faces,3.1.5,60.03793869391015,
condition files/Stage1_1.xlsx,,T1,B1,c,"['c', 'm']","['Clue', 'Monopoly']","[-0.15, 0.5]","[0.15, 0.5]",1,1,,,,,,,,,0,4,4,4,0,2,2,0,,,,,,,,,,,,,,,,,,,,,,,,,,,,,,,,,,,,,,,,,,,,,,,,,,,,,,,1703.197821641,None,1703.197821641,None,1703.197821641,None,c,1,2.2459896659997867,1704.730617344,None,1704.730617344,None,1704.730617344,None,1707.0309451,None,1707.0309451,None,1707.0309451,None,1707.0309451,None,,,,,,,,,,,,,,,,,,,,,,,,,,,,,,,,,,,,,,,,,,,,001,142,2020_Feb_20_0858,spring_faces,3.1.5,60.03793869391015,
condition files/Stage1_1.xlsx,,B2,T1,m,"['c', 'm']","['Clue', 'Monopoly']","[-0.15, 0.5]","[0.15, 0.5]",1,1,,,,,,,,,0,4,4,4,0,3,3,2,,,,,,,,,,,,,,,,,,,,,,,,,,,,,,,,,,,,,,,,,,,,,,,,,,,,,,,1708.99773382,None,1708.99773382,None,1708.99773382,None,m,1,0.8428894209996542,1710.533717341,None,1710.533717341,None,1710.533717341,None,1711.4481228360003,None,1711.4481228360003,None,1711.4481228360003,None,1711.4481228360003,None,,,,,,,,,,,,,,,,,,,,,,,,,,,,,,,,,,,,,,,,,,,,001,142,2020_Feb_20_0858,spring_faces,3.1.5,60.03793869391015,
condition files/Stage1_1.xlsx,,B4,T4,m,"['c', 'm']","['Clue', 'Monopoly']","[-0.15, 0.5]","[0.15, 0.5]",1,1,,,,,,,,,0,4,4,4,0,4,4,7,,,,,,,,,,,,,,,,,,,,,,,,,,,,,,,,,,,,,,,,,,,,,,,,,,,,,,,1713.3974825910002,None,1713.3974825910002,None,1713.3974825910002,None,c,0,1.0683512229998087,1714.9482738049999,None,1714.9482738049999,None,1714.9482738049999,None,1716.0816667730003,None,1716.0816667730003,None,1716.0816667730003,None,1716.0816667730003,None,,,,,,,,,,,,,,,,,,,,,,,,,,,,,,,,,,,,,,,,,,,,001,142,2020_Feb_20_0858,spring_faces,3.1.5,60.03793869391015,
condition files/Stage1_1.xlsx,,T2,B2,m,"['c', 'm']","['Clue', 'Monopoly']","[-0.15, 0.5]","[0.15, 0.5]",1,1,,,,,,,,,0,4,4,4,0,5,5,3,,,,,,,,,,,,,,,,,,,,,,,,,,,,,,,,,,,,,,,,,,,,,,,,,,,,,,,1718.0477786930003,None,1718.0477786930003,None,1718.0477786930003,None,m,1,2.1927871500001856,1719.5838242050002,None,1719.5838242050002,None,1719.5838242050002,None,1721.8316306520003,None,1721.8316306520003,None,1721.8316306520003,None,1721.8316306520003,None,,,,,,,,,,,,,,,,,,,,,,,,,,,,,,,,,,,,,,,,,,,,001,142,2020_Feb_20_0858,spring_faces,3.1.5,60.03793869391015,
condition files/Stage1_1.xlsx,,T3,B4,c,"['c', 'm']","['Clue', 'Monopoly']","[-0.15, 0.5]","[0.15, 0.5]",1,1,,,,,,,,,0,4,4,4,0,6,6,5,,,,,,,,,,,,,,,,,,,,,,,,,,,,,,,,,,,,,,,,,,,,,,,,,,,,,,,1723.7978994810003,None,1723.7978994810003,None,1723.7978994810003,None,c,1,1.0842347110001356,1725.348365554,None,1725.348365554,None,1725.348365554,None,1726.4990714400003,None,1726.4990714400003,None,1726.4990714400003,None,1726.4990714400003,None,,,,,,,,,,,,,,,,,,,,,,,,,,,,,,,,,,,,,,,,,,,,001,142,2020_Feb_20_0858,spring_faces,3.1.5,60.03793869391015,
condition files/Stage1_1.xlsx,,T4,B3,m,"['c', 'm']","['Clue', 'Monopoly']","[-0.15, 0.5]","[0.15, 0.5]",1,1,,,,,,,,,0,4,4,4,0,7,7,6,,,,,,,,,,,,,,,,,,,,,,,,,,,,,,,,,,,,,,,,,,,,,,,,,,,,,,,1728.464078697,None,1728.464078697,None,1728.464078697,None,c,0,1.9841977790001692,1730.000449119,None,1730.000449119,None,1730.000449119,None,1732.049787094,None,1732.049787094,None,1732.049787094,None,1732.049787094,None,,,,,,,,,,,,,,,,,,,,,,,,,,,,,,,,,,,,,,,,,,,,001,142,2020_Feb_20_0858,spring_faces,3.1.5,60.03793869391015,
condition files/Stage1_2.xlsx,,T3,B3,c,"['c', 'm']","['Clue', 'Monopoly']","[-0.15, 0.5]","[0.15, 0.5]",1,1,,,,,,,,,0,5,5,5,0,0,0,4,,,,,,,,,,,,,,,,,,,,,,,,,,,,,,,,,,,,,,,,,,,,,,,,,,,,,,,1734.031779238,None,1734.031779238,None,1734.031779238,None,c,1,1.4602752959999634,1735.564414912,None,1735.564414912,None,1735.564414912,None,1737.083346303,None,1737.083346303,None,1737.083346303,None,1737.083346303,None,,,,,,,,,,,,,,,,,,,,,,,,,,,,,,,,,,,,,,,,,,,,001,142,2020_Feb_20_0858,spring_faces,3.1.5,60.03793869391015,
condition files/Stage1_2.xlsx,,B1,T1,c,"['c', 'm']","['Clue', 'Monopoly']","[-0.15, 0.5]","[0.15, 0.5]",1,1,,,,,,,,,0,5,5,5,0,1,1,0,,,,,,,,,,,,,,,,,,,,,,,,,,,,,,,,,,,,,,,,,,,,,,,,,,,,,,,1739.0479745310001,None,1739.0479745310001,None,1739.0479745310001,None,c,1,1.0346261549998417,1740.5979724239999,None,1740.5979724239999,None,1740.5979724239999,None,1741.6976968430001,None,1741.6976968430001,None,1741.6976968430001,None,1741.6976968430001,None,,,,,,,,,,,,,,,,,,,,,,,,,,,,,,,,,,,,,,,,,,,,001,142,2020_Feb_20_0858,spring_faces,3.1.5,60.03793869391015,
condition files/Stage1_2.xlsx,,T1,B2,m,"['c', 'm']","['Clue', 'Monopoly']","[-0.15, 0.5]","[0.15, 0.5]",1,1,,,,,,,,,0,5,5,5,0,2,2,2,,,,,,,,,,,,,,,,,,,,,,,,,,,,,,,,,,,,,,,,,,,,,,,,,,,,,,,1743.6641187510002,None,1743.6641187510002,None,1743.6641187510002,None,c,0,0.8972096860002239,1745.1994371500002,None,1745.1994371500002,None,1745.1994371500002,None,1746.148252495,None,1746.148252495,None,1746.148252495,None,1746.148252495,None,,,,,,,,,,,,,,,,,,,,,,,,,,,,,,,,,,,,,,,,,,,,001,142,2020_Feb_20_0858,spring_faces,3.1.5,60.03793869391015,
condition files/Stage1_2.xlsx,,B4,T3,c,"['c', 'm']","['Clue', 'Monopoly']","[-0.15, 0.5]","[0.15, 0.5]",1,1,,,,,,,,,0,5,5,5,0,3,3,5,,,,,,,,,,,,,,,,,,,,,,,,,,,,,,,,,,,,,,,,,,,,,,,,,,,,,,,1748.114556626,None,1748.114556626,None,1748.114556626,None,c,1,1.600367408999773,1749.6482251260002,None,1749.6482251260002,None,1749.6482251260002,None,1751.314522897,None,1751.314522897,None,1751.314522897,None,1751.314522897,None,,,,,,,,,,,,,,,,,,,,,,,,,,,,,,,,,,,,,,,,,,,,001,142,2020_Feb_20_0858,spring_faces,3.1.5,60.03793869391015,
condition files/Stage1_2.xlsx,,T2,B1,c,"['c', 'm']","['Clue', 'Monopoly']","[-0.15, 0.5]","[0.15, 0.5]",1,1,,,,,,,,,0,5,5,5,0,4,4,1,,,,,,,,,,,,,,,,,,,,,,,,,,,,,,,,,,,,,,,,,,,,,,,,,,,,,,,1753.281830652,None,1753.281830652,None,1753.281830652,None,c,1,1.1059361840002566,1754.814712229,None,1754.814712229,None,1754.814712229,None,1755.9813425130003,None,1755.9813425130003,None,1755.9813425130003,None,1755.9813425130003,None,,,,,,,,,,,,,,,,,,,,,,,,,,,,,,,,,,,,,,,,,,,,001,142,2020_Feb_20_0858,spring_faces,3.1.5,60.03793869391015,
condition files/Stage1_2.xlsx,,T4,B4,m,"['c', 'm']","['Clue', 'Monopoly']","[-0.15, 0.5]","[0.15, 0.5]",1,1,,,,,,,,,0,5,5,5,0,5,5,7,,,,,,,,,,,,,,,,,,,,,,,,,,,,,,,,,,,,,,,,,,,,,,,,,,,,,,,1757.948002464,None,1757.948002464,None,1757.948002464,None,m,1,1.030176608000147,1759.498377322,None,1759.498377322,None,1759.498377322,None,1760.583762081,None,1760.583762081,None,1760.583762081,None,1760.583762081,None,,,,,,,,,,,,,,,,,,,,,,,,,,,,,,,,,,,,,,,,,,,,001,142,2020_Feb_20_0858,spring_faces,3.1.5,60.03793869391015,
condition files/Stage1_2.xlsx,,B2,T2,m,"['c', 'm']","['Clue', 'Monopoly']","[-0.15, 0.5]","[0.15, 0.5]",1,1,,,,,,,,,0,5,5,5,0,6,6,3,,,,,,,,,,,,,,,,,,,,,,,,,,,,,,,,,,,,,,,,,,,,,,,,,,,,,,,1762.547589298,None,1762.547589298,None,1762.547589298,None,c,0,1.5349971339996955,1764.0816234370002,None,1764.0816234370002,None,1764.0816234370002,None,1765.681961766,None,1765.681961766,None,1765.681961766,None,1765.681961766,None,,,,,,,,,,,,,,,,,,,,,,,,,,,,,,,,,,,,,,,,,,,,001,142,2020_Feb_20_0858,spring_faces,3.1.5,60.03793869391015,
condition files/Stage1_2.xlsx,,B3,T4,m,"['c', 'm']","['Clue', 'Monopoly']","[-0.15, 0.5]","[0.15, 0.5]",1,1,,,,,,,,,0,5,5,5,0,7,7,6,,,,,,,,,,,,,,,,,,,,,,,,,,,,,,,,,,,,,,,,,,,,,,,,,,,,,,,1767.647975962,None,1767.647975962,None,1767.647975962,None,m,1,1.315625491999981,1769.1809974770001,None,1769.1809974770001,None,1769.1809974770001,None,1770.5482369620001,None,1770.5482369620001,None,1770.5482369620001,None,1770.5482369620001,None,,,,,,,,,,,,,,,,,,,,,,,,,,,,,,,,,,,,,,,,,,,,001,142,2020_Feb_20_0858,spring_faces,3.1.5,60.03793869391015,
condition files/Stage1_1.xlsx,,T2,B2,m,"['c', 'm']","['Clue', 'Monopoly']","[-0.15, 0.5]","[0.15, 0.5]",1,1,,,,,,,,,0,6,6,6,0,0,0,3,,,,,,,,,,,,,,,,,,,,,,,,,,,,,,,,,,,,,,,,,,,,,,,,,,,,,,,1772.5307993590002,None,1772.5307993590002,None,1772.5307993590002,None,c,0,1.4403463069997997,1774.0643791240002,None,1774.0643791240002,None,1774.0643791240002,None,1775.564513906,None,1775.564513906,None,1775.564513906,None,1775.564513906,None,,,,,,,,,,,,,,,,,,,,,,,,,,,,,,,,,,,,,,,,,,,,001,142,2020_Feb_20_0858,spring_faces,3.1.5,60.03793869391015,
condition files/Stage1_1.xlsx,,B2,T1,m,"['c', 'm']","['Clue', 'Monopoly']","[-0.15, 0.5]","[0.15, 0.5]",1,1,,,,,,,,,0,6,6,6,0,1,1,2,,,,,,,,,,,,,,,,,,,,,,,,,,,,,,,,,,,,,,,,,,,,,,,,,,,,,,,1777.531438354,None,1777.531438354,None,1777.531438354,None,m,1,0.9349627880001208,1779.081660312,None,1779.081660312,None,1779.081660312,None,1780.0815219590002,None,1780.0815219590002,None,1780.0815219590002,None,1780.0815219590002,None,,,,,,,,,,,,,,,,,,,,,,,,,,,,,,,,,,,,,,,,,,,,001,142,2020_Feb_20_0858,spring_faces,3.1.5,60.03793869391015,
condition files/Stage1_1.xlsx,,B1,T2,c,"['c', 'm']","['Clue', 'Monopoly']","[-0.15, 0.5]","[0.15, 0.5]",1,1,,,,,,,,,0,6,6,6,0,2,2,1,,,,,,,,,,,,,,,,,,,,,,,,,,,,,,,,,,,,,,,,,,,,,,,,,,,,,,,1782.048033502,None,1782.048033502,None,1782.048033502,None,m,0,0.9628326020001623,1783.5818300540002,None,1783.5818300540002,None,1783.5818300540002,None,1784.5993446200002,None,1784.5993446200002,None,1784.5993446200002,None,1784.5993446200002,None,,,,,,,,,,,,,,,,,,,,,,,,,,,,,,,,,,,,,,,,,,,,001,142,2020_Feb_20_0858,spring_faces,3.1.5,60.03793869391015,
condition files/Stage1_1.xlsx,,T4,B3,m,"['c', 'm']","['Clue', 'Monopoly']","[-0.15, 0.5]","[0.15, 0.5]",1,1,,,,,,,,,0,6,6,6,0,3,3,6,,,,,,,,,,,,,,,,,,,,,,,,,,,,,,,,,,,,,,,,,,,,,,,,,,,,,,,1786.564853695,None,1786.564853695,None,1786.564853695,None,m,1,1.1010968649998176,1788.0995547170003,None,1788.0995547170003,None,1788.0995547170003,None,1789.281170775,None,1789.281170775,None,1789.281170775,None,1789.281170775,None,,,,,,,,,,,,,,,,,,,,,,,,,,,,,,,,,,,,,,,,,,,,001,142,2020_Feb_20_0858,spring_faces,3.1.5,60.03793869391015,
condition files/Stage1_1.xlsx,,T1,B1,c,"['c', 'm']","['Clue', 'Monopoly']","[-0.15, 0.5]","[0.15, 0.5]",1,1,,,,,,,,,0,6,6,6,0,4,4,0,,,,,,,,,,,,,,,,,,,,,,,,,,,,,,,,,,,,,,,,,,,,,,,,,,,,,,,1791.2313135420002,None,1791.2313135420002,None,1791.2313135420002,None,c,1,1.059998781000104,1792.7647133960002,None,1792.7647133960002,None,1792.7647133960002,None,1793.8826184020002,None,1793.8826184020002,None,1793.8826184020002,None,1793.8826184020002,None,,,,,,,,,,,,,,,,,,,,,,,,,,,,,,,,,,,,,,,,,,,,001,142,2020_Feb_20_0858,spring_faces,3.1.5,60.03793869391015,
condition files/Stage1_1.xlsx,,B4,T4,m,"['c', 'm']","['Clue', 'Monopoly']","[-0.15, 0.5]","[0.15, 0.5]",1,1,,,,,,,,,0,6,6,6,0,5,5,7,,,,,,,,,,,,,,,,,,,,,,,,,,,,,,,,,,,,,,,,,,,,,,,,,,,,,,,1795.847207948,None,1795.847207948,None,1795.847207948,None,c,0,1.5142165229999591,1797.39840923,None,1797.39840923,None,1797.39840923,None,1798.9816749200002,None,1798.9816749200002,None,1798.9816749200002,None,1798.9816749200002,None,,,,,,,,,,,,,,,,,,,,,,,,,,,,,,,,,,,,,,,,,,,,001,142,2020_Feb_20_0858,spring_faces,3.1.5,60.03793869391015,
condition files/Stage1_1.xlsx,,B3,T3,c,"['c', 'm']","['Clue', 'Monopoly']","[-0.15, 0.5]","[0.15, 0.5]",1,1,,,,,,,,,0,6,6,6,0,6,6,4,,,,,,,,,,,,,,,,,,,,,,,,,,,,,,,,,,,,,,,,,,,,,,,,,,,,,,,1800.9313435320003,None,1800.9313435320003,None,1800.9313435320003,None,c,1,1.9517037590003383,1802.4808965170002,None,1802.4808965170002,None,1802.4808965170002,None,1804.5148634540003,None,1804.5148634540003,None,1804.5148634540003,None,1804.5148634540003,None,,,,,,,,,,,,,,,,,,,,,,,,,,,,,,,,,,,,,,,,,,,,001,142,2020_Feb_20_0858,spring_faces,3.1.5,60.03793869391015,
condition files/Stage1_1.xlsx,,T3,B4,c,"['c', 'm']","['Clue', 'Monopoly']","[-0.15, 0.5]","[0.15, 0.5]",1,1,,,,,,,,,0,6,6,6,0,7,7,5,,,,,,,,,,,,,,,,,,,,,,,,,,,,,,,,,,,,,,,,,,,,,,,,,,,,,,,1806.4646888109999,None,1806.4646888109999,None,1806.4646888109999,None,c,1,1.0411978439997256,1807.9995085850003,None,1807.9995085850003,None,1807.9995085850003,None,1809.0982324049999,None,1809.0982324049999,None,1809.0982324049999,None,1809.0982324049999,None,,,,,,,,,,,,,,,,,,,,,,,,,,,,,,,,,,,,,,,,,,,,001,142,2020_Feb_20_0858,spring_faces,3.1.5,60.03793869391015,
condition files/Stage1_2.xlsx,,T4,B4,m,"['c', 'm']","['Clue', 'Monopoly']","[-0.15, 0.5]","[0.15, 0.5]",1,1,,,,,,,,,0,7,7,7,0,0,0,7,,,,,,,,,,,,,,,,,,,,,,,,,,,,,,,,,,,,,,,,,,,,,,,,,,,,,,,1811.0815009159999,None,1811.0815009159999,None,1811.0815009159999,None,m,1,0.9059266980002576,1812.6147304040003,None,1812.6147304040003,None,1812.6147304040003,None,1813.5831200220002,None,1813.5831200220002,None,1813.5831200220002,None,1813.5831200220002,None,,,,,,,,,,,,,,,,,,,,,,,,,,,,,,,,,,,,,,,,,,,,001,142,2020_Feb_20_0858,spring_faces,3.1.5,60.03793869391015,
condition files/Stage1_2.xlsx,,B3,T4,m,"['c', 'm']","['Clue', 'Monopoly']","[-0.15, 0.5]","[0.15, 0.5]",1,1,,,,,,,,,0,7,7,7,0,1,1,6,,,,,,,,,,,,,,,,,,,,,,,,,,,,,,,,,,,,,,,,,,,,,,,,,,,,,,,1815.5478666810002,None,1815.5478666810002,None,1815.5478666810002,None,m,1,1.0152898920000553,1817.08136489,None,1817.08136489,None,1817.08136489,None,1818.148251166,None,1818.148251166,None,1818.148251166,None,1818.148251166,None,,,,,,,,,,,,,,,,,,,,,,,,,,,,,,,,,,,,,,,,,,,,001,142,2020_Feb_20_0858,spring_faces,3.1.5,60.03793869391015,
condition files/Stage1_2.xlsx,,B1,T1,c,"['c', 'm']","['Clue', 'Monopoly']","[-0.15, 0.5]","[0.15, 0.5]",1,1,,,,,,,,,0,7,7,7,0,2,2,0,,,,,,,,,,,,,,,,,,,,,,,,,,,,,,,,,,,,,,,,,,,,,,,,,,,,,,,1820.1146671170002,None,1820.1146671170002,None,1820.1146671170002,None,c,1,1.0079479340001853,1821.664750823,None,1821.664750823,None,1821.664750823,None,1822.747613018,None,1822.747613018,None,1822.747613018,None,1822.747613018,None,,,,,,,,,,,,,,,,,,,,,,,,,,,,,,,,,,,,,,,,,,,,001,142,2020_Feb_20_0858,spring_faces,3.1.5,60.03793869391015,
condition files/Stage1_2.xlsx,,T1,B2,m,"['c', 'm']","['Clue', 'Monopoly']","[-0.15, 0.5]","[0.15, 0.5]",1,1,,,,,,,,,0,7,7,7,0,3,3,2,,,,,,,,,,,,,,,,,,,,,,,,,,,,,,,,,,,,,,,,,,,,,,,,,,,,,,,1824.6980155930003,None,1824.6980155930003,None,1824.6980155930003,None,c,0,0.9990607280001313,1826.2335417470001,None,1826.2335417470001,None,1826.2335417470001,None,1827.3151101310002,None,1827.3151101310002,None,1827.3151101310002,None,1827.3151101310002,None,,,,,,,,,,,,,,,,,,,,,,,,,,,,,,,,,,,,,,,,,,,,001,142,2020_Feb_20_0858,spring_faces,3.1.5,60.03793869391015,
condition files/Stage1_2.xlsx,,B4,T3,c,"['c', 'm']","['Clue', 'Monopoly']","[-0.15, 0.5]","[0.15, 0.5]",1,1,,,,,,,,,0,7,7,7,0,4,4,5,,,,,,,,,,,,,,,,,,,,,,,,,,,,,,,,,,,,,,,,,,,,,,,,,,,,,,,1829.2643049710002,None,1829.2643049710002,None,1829.2643049710002,None,c,1,0.7363839399999961,1830.800282984,None,1830.800282984,None,1830.800282984,None,1831.5981684380001,None,1831.5981684380001,None,1831.5981684380001,None,1831.5981684380001,None,,,,,,,,,,,,,,,,,,,,,,,,,,,,,,,,,,,,,,,,,,,,001,142,2020_Feb_20_0858,spring_faces,3.1.5,60.03793869391015,
condition files/Stage1_2.xlsx,,T2,B1,c,"['c', 'm']","['Clue', 'Monopoly']","[-0.15, 0.5]","[0.15, 0.5]",1,1,,,,,,,,,0,7,7,7,0,5,5,1,,,,,,,,,,,,,,,,,,,,,,,,,,,,,,,,,,,,,,,,,,,,,,,,,,,,,,,1833.564811295,None,1833.564811295,None,1833.564811295,None,c,1,4.30977240700031,1835.11491133,None,1835.11491133,None,1835.11491133,None,1839.481555571,None,1839.481555571,None,1839.481555571,None,1839.481555571,None,,,,,,,,,,,,,,,,,,,,,,,,,,,,,,,,,,,,,,,,,,,,001,142,2020_Feb_20_0858,spring_faces,3.1.5,60.03793869391015,
condition files/Stage1_2.xlsx,,T3,B3,c,"['c', 'm']","['Clue', 'Monopoly']","[-0.15, 0.5]","[0.15, 0.5]",1,1,,,,,,,,,0,7,7,7,0,6,6,4,,,,,,,,,,,,,,,,,,,,,,,,,,,,,,,,,,,,,,,,,,,,,,,,,,,,,,,1841.447638633,None,1841.447638633,None,1841.447638633,None,c,1,1.5159956929996952,1842.980644468,None,1842.980644468,None,1842.980644468,None,1844.548320431,None,1844.548320431,None,1844.548320431,None,1844.548320431,None,,,,,,,,,,,,,,,,,,,,,,,,,,,,,,,,,,,,,,,,,,,,001,142,2020_Feb_20_0858,spring_faces,3.1.5,60.03793869391015,
condition files/Stage1_2.xlsx,,B2,T2,m,"['c', 'm']","['Clue', 'Monopoly']","[-0.15, 0.5]","[0.15, 0.5]",1,1,,,,,,,,,0,7,7,7,0,7,7,3,,,,,,,,,,,,,,,,,,,,,,,,,,,,,,,,,,,,,,,,,,,,,,,,,,,,,,,1846.514892928,None,1846.514892928,None,1846.514892928,None,c,0,0.912302112999896,1848.0483294450003,None,1848.0483294450003,None,1848.0483294450003,None,1849.0140844640002,None,1849.0140844640002,None,1849.0140844640002,None,1849.0140844640002,None,,,,,,,,,,,,,,,,,,,,,,,,,,,,,,,,,,,,,,,,,,,,001,142,2020_Feb_20_0858,spring_faces,3.1.5,60.03793869391015,
condition files/Stage1_1.xlsx,,T1,B1,c,"['c', 'm']","['Clue', 'Monopoly']","[-0.15, 0.5]","[0.15, 0.5]",1,1,,,,,,,,,0,8,8,8,0,0,0,0,,,,,,,,,,,,,,,,,,,,,,,,,,,,,,,,,,,,,,,,,,,,,,,,,,,,,,,1850.9977453469999,None,1850.9977453469999,None,1850.9977453469999,None,c,1,0.5727291610000975,1852.547915028,None,1852.547915028,None,1852.547915028,None,1853.1825603160003,None,1853.1825603160003,None,1853.1825603160003,None,1853.1825603160003,None,,,,,,,,,,,,,,,,,,,,,,,,,,,,,,,,,,,,,,,,,,,,001,142,2020_Feb_20_0858,spring_faces,3.1.5,60.03793869391015,
condition files/Stage1_1.xlsx,,B2,T1,m,"['c', 'm']","['Clue', 'Monopoly']","[-0.15, 0.5]","[0.15, 0.5]",1,1,,,,,,,,,0,8,8,8,0,1,1,2,,,,,,,,,,,,,,,,,,,,,,,,,,,,,,,,,,,,,,,,,,,,,,,,,,,,,,,1855.1476807360002,None,1855.1476807360002,None,1855.1476807360002,None,m,1,1.510418218000268,1856.6982822530001,None,1856.6982822530001,None,1856.6982822530001,None,1858.26491804,None,1858.26491804,None,1858.26491804,None,1858.26491804,None,,,,,,,,,,,,,,,,,,,,,,,,,,,,,,,,,,,,,,,,,,,,001,142,2020_Feb_20_0858,spring_faces,3.1.5,60.03793869391015,
condition files/Stage1_1.xlsx,,T2,B2,m,"['c', 'm']","['Clue', 'Monopoly']","[-0.15, 0.5]","[0.15, 0.5]",1,1,,,,,,,,,0,8,8,8,0,2,2,3,,,,,,,,,,,,,,,,,,,,,,,,,,,,,,,,,,,,,,,,,,,,,,,,,,,,,,,1860.230606581,None,1860.230606581,None,1860.230606581,None,m,1,1.211975964999965,1861.764660007,None,1861.764660007,None,1861.764660007,None,1863.0306173770002,None,1863.0306173770002,None,1863.0306173770002,None,1863.0306173770002,None,,,,,,,,,,,,,,,,,,,,,,,,,,,,,,,,,,,,,,,,,,,,001,142,2020_Feb_20_0858,spring_faces,3.1.5,60.03793869391015,
condition files/Stage1_1.xlsx,,T4,B3,m,"['c', 'm']","['Clue', 'Monopoly']","[-0.15, 0.5]","[0.15, 0.5]",1,1,,,,,,,,,0,8,8,8,0,3,3,6,,,,,,,,,,,,,,,,,,,,,,,,,,,,,,,,,,,,,,,,,,,,,,,,,,,,,,,1864.998000206,None,1864.998000206,None,1864.998000206,None,m,1,1.7086661589996766,1866.532033524,None,1866.532033524,None,1866.532033524,None,1868.297934903,None,1868.297934903,None,1868.297934903,None,1868.297934903,None,,,,,,,,,,,,,,,,,,,,,,,,,,,,,,,,,,,,,,,,,,,,001,142,2020_Feb_20_0858,spring_faces,3.1.5,60.03793869391015,
condition files/Stage1_1.xlsx,,B1,T2,c,"['c', 'm']","['Clue', 'Monopoly']","[-0.15, 0.5]","[0.15, 0.5]",1,1,,,,,,,,,0,8,8,8,0,4,4,1,,,,,,,,,,,,,,,,,,,,,,,,,,,,,,,,,,,,,,,,,,,,,,,,,,,,,,,1870.2641502060003,None,1870.2641502060003,None,1870.2641502060003,None,c,1,1.1783169509999425,1871.7982899260003,None,1871.7982899260003,None,1871.7982899260003,None,1873.0321269880003,None,1873.0321269880003,None,1873.0321269880003,None,1873.0321269880003,None,,,,,,,,,,,,,,,,,,,,,,,,,,,,,,,,,,,,,,,,,,,,001,142,2020_Feb_20_0858,spring_faces,3.1.5,60.03793869391015,
condition files/Stage1_1.xlsx,,B4,T4,m,"['c', 'm']","['Clue', 'Monopoly']","[-0.15, 0.5]","[0.15, 0.5]",1,1,,,,,,,,,0,8,8,8,0,5,5,7,,,,,,,,,,,,,,,,,,,,,,,,,,,,,,,,,,,,,,,,,,,,,,,,,,,,,,,1874.997746403,None,1874.997746403,None,1874.997746403,None,m,1,1.244318371999725,1876.5322880690003,None,1876.5322880690003,None,1876.5322880690003,None,1877.8317786569999,None,1877.8317786569999,None,1877.8317786569999,None,1877.8317786569999,None,,,,,,,,,,,,,,,,,,,,,,,,,,,,,,,,,,,,,,,,,,,,001,142,2020_Feb_20_0858,spring_faces,3.1.5,60.03793869391015,
condition files/Stage1_1.xlsx,,B3,T3,c,"['c', 'm']","['Clue', 'Monopoly']","[-0.15, 0.5]","[0.15, 0.5]",1,1,,,,,,,,,0,8,8,8,0,6,6,4,,,,,,,,,,,,,,,,,,,,,,,,,,,,,,,,,,,,,,,,,,,,,,,,,,,,,,,1879.7983035250002,None,1879.7983035250002,None,1879.7983035250002,None,c,1,2.5890753589997075,1881.331574952,None,1881.331574952,None,1881.331574952,None,1883.9832014290002,None,1883.9832014290002,None,1883.9832014290002,None,1883.9832014290002,None,,,,,,,,,,,,,,,,,,,,,,,,,,,,,,,,,,,,,,,,,,,,001,142,2020_Feb_20_0858,spring_faces,3.1.5,60.03793869391015,
condition files/Stage1_1.xlsx,,T3,B4,c,"['c', 'm']","['Clue', 'Monopoly']","[-0.15, 0.5]","[0.15, 0.5]",1,1,,,,,,,,,0,8,8,8,0,7,7,5,,,,,,,,,,,,,,,,,,,,,,,,,,,,,,,,,,,,,,,,,,,,,,,,,,,,,,,1885.948296114,None,1885.948296114,None,1885.948296114,None,c,1,0.6638385000001108,1887.4809477229999,None,1887.4809477229999,None,1887.4809477229999,None,1888.1984484870002,None,1888.1984484870002,None,1888.1984484870002,None,1888.1984484870002,None,,,,,,,,,,,,,,,,,,,,,,,,,,,,,,,,,,,,,,,,,,,,001,142,2020_Feb_20_0858,spring_faces,3.1.5,60.03793869391015,
condition files/Stage1_2.xlsx,,T3,B3,c,"['c', 'm']","['Clue', 'Monopoly']","[-0.15, 0.5]","[0.15, 0.5]",1,1,,,,,,,,,0,9,9,9,0,0,0,4,,,,,,,,,,,,,,,,,,,,,,,,,,,,,,,,,,,,,,,,,,,,,,,,,,,,,,,1890.181808743,None,1890.181808743,None,1890.181808743,None,c,1,1.1016276159998597,1891.730970631,None,1891.730970631,None,1891.730970631,None,1892.8977323790002,None,1892.8977323790002,None,1892.8977323790002,None,1892.8977323790002,None,,,,,,,,,,,,,,,,,,,,,,,,,,,,,,,,,,,,,,,,,,,,001,142,2020_Feb_20_0858,spring_faces,3.1.5,60.03793869391015,
condition files/Stage1_2.xlsx,,T1,B2,m,"['c', 'm']","['Clue', 'Monopoly']","[-0.15, 0.5]","[0.15, 0.5]",1,1,,,,,,,,,0,9,9,9,0,1,1,2,,,,,,,,,,,,,,,,,,,,,,,,,,,,,,,,,,,,,,,,,,,,,,,,,,,,,,,1894.8646698170003,None,1894.8646698170003,None,1894.8646698170003,None,m,1,1.2976379919996361,1896.414983199,None,1896.414983199,None,1896.414983199,None,1897.764416399,None,1897.764416399,None,1897.764416399,None,1897.764416399,None,,,,,,,,,,,,,,,,,,,,,,,,,,,,,,,,,,,,,,,,,,,,001,142,2020_Feb_20_0858,spring_faces,3.1.5,60.03793869391015,
condition files/Stage1_2.xlsx,,T2,B1,c,"['c', 'm']","['Clue', 'Monopoly']","[-0.15, 0.5]","[0.15, 0.5]",1,1,,,,,,,,,0,9,9,9,0,2,2,1,,,,,,,,,,,,,,,,,,,,,,,,,,,,,,,,,,,,,,,,,,,,,,,,,,,,,,,1899.730812122,None,1899.730812122,None,1899.730812122,None,c,1,1.4403540550001708,1901.2643428930003,None,1901.2643428930003,None,1901.2643428930003,None,1902.7815635110003,None,1902.7815635110003,None,1902.7815635110003,None,1902.7815635110003,None,,,,,,,,,,,,,,,,,,,,,,,,,,,,,,,,,,,,,,,,,,,,001,142,2020_Feb_20_0858,spring_faces,3.1.5,60.03793869391015,
condition files/Stage1_2.xlsx,,B4,T3,c,"['c', 'm']","['Clue', 'Monopoly']","[-0.15, 0.5]","[0.15, 0.5]",1,1,,,,,,,,,0,9,9,9,0,3,3,5,,,,,,,,,,,,,,,,,,,,,,,,,,,,,,,,,,,,,,,,,,,,,,,,,,,,,,,1904.7310800440002,None,1904.7310800440002,None,1904.7310800440002,None,c,1,0.9041573670001526,1906.2645011010002,None,1906.2645011010002,None,1906.2645011010002,None,1907.231603171,None,1907.231603171,None,1907.231603171,None,1907.231603171,None,,,,,,,,,,,,,,,,,,,,,,,,,,,,,,,,,,,,,,,,,,,,001,142,2020_Feb_20_0858,spring_faces,3.1.5,60.03793869391015,
condition files/Stage1_2.xlsx,,B1,T1,c,"['c', 'm']","['Clue', 'Monopoly']","[-0.15, 0.5]","[0.15, 0.5]",1,1,,,,,,,,,0,9,9,9,0,4,4,0,,,,,,,,,,,,,,,,,,,,,,,,,,,,,,,,,,,,,,,,,,,,,,,,,,,,,,,1909.1979942290002,None,1909.1979942290002,None,1909.1979942290002,None,m,0,1.4608548070000325,1910.7317586880001,None,1910.7317586880001,None,1910.7317586880001,None,1912.248026163,None,1912.248026163,None,1912.248026163,None,1912.248026163,None,,,,,,,,,,,,,,,,,,,,,,,,,,,,,,,,,,,,,,,,,,,,001,142,2020_Feb_20_0858,spring_faces,3.1.5,60.03793869391015,
condition files/Stage1_2.xlsx,,B2,T2,m,"['c', 'm']","['Clue', 'Monopoly']","[-0.15, 0.5]","[0.15, 0.5]",1,1,,,,,,,,,0,9,9,9,0,5,5,3,,,,,,,,,,,,,,,,,,,,,,,,,,,,,,,,,,,,,,,,,,,,,,,,,,,,,,,1914.214649199,None,1914.214649199,None,1914.214649199,None,c,0,1.2764369540000189,1915.748231158,None,1915.748231158,None,1915.748231158,None,1917.083508594,None,1917.083508594,None,1917.083508594,None,1917.083508594,None,,,,,,,,,,,,,,,,,,,,,,,,,,,,,,,,,,,,,,,,,,,,001,142,2020_Feb_20_0858,spring_faces,3.1.5,60.03793869391015,
condition files/Stage1_2.xlsx,,T4,B4,m,"['c', 'm']","['Clue', 'Monopoly']","[-0.15, 0.5]","[0.15, 0.5]",1,1,,,,,,,,,0,9,9,9,0,6,6,7,,,,,,,,,,,,,,,,,,,,,,,,,,,,,,,,,,,,,,,,,,,,,,,,,,,,,,,1919.047850959,None,1919.047850959,None,1919.047850959,None,c,0,0.8277277279998998,1920.5809786940001,None,1920.5809786940001,None,1920.5809786940001,None,1921.464997591,None,1921.464997591,None,1921.464997591,None,1921.464997591,None,,,,,,,,,,,,,,,,,,,,,,,,,,,,,,,,,,,,,,,,,,,,001,142,2020_Feb_20_0858,spring_faces,3.1.5,60.03793869391015,
condition files/Stage1_2.xlsx,,B3,T4,m,"['c', 'm']","['Clue', 'Monopoly']","[-0.15, 0.5]","[0.15, 0.5]",1,1,,,,,,,,,0,9,9,9,0,7,7,6,,,,,,,,,,,,,,,,,,,,,,,,,,,,,,,,,,,,,,,,,,,,,,,,,,,,,,,1923.430599854,None,1923.430599854,None,1923.430599854,None,m,1,0.9390449870002158,1924.9815973880002,None,1924.9815973880002,None,1924.9815973880002,None,1925.981552727,None,1925.981552727,None,1925.981552727,None,1925.981552727,None,,,,,,,,,,,,,,,,,,,,,,,,,,,,,,,,,,,,,,,,,,,,001,142,2020_Feb_20_0858,spring_faces,3.1.5,60.03793869391015,
condition files/Stage1_1.xlsx,,B4,T4,m,"['c', 'm']","['Clue', 'Monopoly']","[-0.15, 0.5]","[0.15, 0.5]",1,1,,,,,,,,,0,10,10,10,0,0,0,7,,,,,,,,,,,,,,,,,,,,,,,,,,,,,,,,,,,,,,,,,,,,,,,,,,,,,,,1927.965334761,None,1927.965334761,None,1927.965334761,None,m,1,1.5905855790001624,1929.4981567020002,None,1929.4981567020002,None,1929.4981567020002,None,1931.1483928730001,None,1931.1483928730001,None,1931.1483928730001,None,1931.1483928730001,None,,,,,,,,,,,,,,,,,,,,,,,,,,,,,,,,,,,,,,,,,,,,001,142,2020_Feb_20_0858,spring_faces,3.1.5,60.03793869391015,
condition files/Stage1_1.xlsx,,B1,T2,c,"['c', 'm']","['Clue', 'Monopoly']","[-0.15, 0.5]","[0.15, 0.5]",1,1,,,,,,,,,0,10,10,10,0,1,1,1,,,,,,,,,,,,,,,,,,,,,,,,,,,,,,,,,,,,,,,,,,,,,,,,,,,,,,,1933.1145194850003,None,1933.1145194850003,None,1933.1145194850003,None,c,1,14.327684363000117,1934.6488981140003,None,1934.6488981140003,None,1934.6488981140003,None,1949.0305165810003,None,1949.0305165810003,None,1949.0305165810003,None,1949.0305165810003,None,,,,,,,,,,,,,,,,,,,,,,,,,,,,,,,,,,,,,,,,,,,,001,142,2020_Feb_20_0858,spring_faces,3.1.5,60.03793869391015,
condition files/Stage1_1.xlsx,,T2,B2,m,"['c', 'm']","['Clue', 'Monopoly']","[-0.15, 0.5]","[0.15, 0.5]",1,1,,,,,,,,,0,10,10,10,0,2,2,3,,,,,,,,,,,,,,,,,,,,,,,,,,,,,,,,,,,,,,,,,,,,,,,,,,,,,,,1950.9977589840003,None,1950.9977589840003,None,1950.9977589840003,None,m,1,1.1650456459997258,1952.5475793850003,None,1952.5475793850003,None,1952.5475793850003,None,1953.7651776190003,None,1953.7651776190003,None,1953.7651776190003,None,1953.7651776190003,None,,,,,,,,,,,,,,,,,,,,,,,,,,,,,,,,,,,,,,,,,,,,001,142,2020_Feb_20_0858,spring_faces,3.1.5,60.03793869391015,
condition files/Stage1_1.xlsx,,B2,T1,m,"['c', 'm']","['Clue', 'Monopoly']","[-0.15, 0.5]","[0.15, 0.5]",1,1,,,,,,,,,0,10,10,10,0,3,3,2,,,,,,,,,,,,,,,,,,,,,,,,,,,,,,,,,,,,,,,,,,,,,,,,,,,,,,,1955.731492793,None,1955.731492793,None,1955.731492793,None,m,1,1.6298354280002059,1957.266806622,None,1957.266806622,None,1957.266806622,None,1958.948206845,None,1958.948206845,None,1958.948206845,None,1958.948206845,None,,,,,,,,,,,,,,,,,,,,,,,,,,,,,,,,,,,,,,,,,,,,001,142,2020_Feb_20_0858,spring_faces,3.1.5,60.03793869391015,
condition files/Stage1_1.xlsx,,T1,B1,c,"['c', 'm']","['Clue', 'Monopoly']","[-0.15, 0.5]","[0.15, 0.5]",1,1,,,,,,,,,0,10,10,10,0,4,4,0,,,,,,,,,,,,,,,,,,,,,,,,,,,,,,,,,,,,,,,,,,,,,,,,,,,,,,,1960.914769543,None,1960.914769543,None,1960.914769543,None,m,0,0.8649946279997494,1962.4476377880003,None,1962.4476377880003,None,1962.4476377880003,None,1963.366974017,None,1963.366974017,None,1963.366974017,None,1963.366974017,None,,,,,,,,,,,,,,,,,,,,,,,,,,,,,,,,,,,,,,,,,,,,001,142,2020_Feb_20_0858,spring_faces,3.1.5,60.03793869391015,
condition files/Stage1_1.xlsx,,T3,B4,c,"['c', 'm']","['Clue', 'Monopoly']","[-0.15, 0.5]","[0.15, 0.5]",1,1,,,,,,,,,0,10,10,10,0,5,5,5,,,,,,,,,,,,,,,,,,,,,,,,,,,,,,,,,,,,,,,,,,,,,,,,,,,,,,,1965.3305436920002,None,1965.3305436920002,None,1965.3305436920002,None,c,1,0.8143382190000921,1966.866303726,None,1966.866303726,None,1966.866303726,None,1967.7314563430002,None,1967.7314563430002,None,1967.7314563430002,None,1967.7314563430002,None,,,,,,,,,,,,,,,,,,,,,,,,,,,,,,,,,,,,,,,,,,,,001,142,2020_Feb_20_0858,spring_faces,3.1.5,60.03793869391015,
condition files/Stage1_1.xlsx,,T4,B3,m,"['c', 'm']","['Clue', 'Monopoly']","[-0.15, 0.5]","[0.15, 0.5]",1,1,,,,,,,,,0,10,10,10,0,6,6,6,,,,,,,,,,,,,,,,,,,,,,,,,,,,,,,,,,,,,,,,,,,,,,,,,,,,,,,1969.697621645,None,1969.697621645,None,1969.697621645,None,m,1,1.3444644100000005,1971.232171891,None,1971.232171891,None,1971.232171891,None,1972.631508151,None,1972.631508151,None,1972.631508151,None,1972.631508151,None,,,,,,,,,,,,,,,,,,,,,,,,,,,,,,,,,,,,,,,,,,,,001,142,2020_Feb_20_0858,spring_faces,3.1.5,60.03793869391015,
condition files/Stage1_1.xlsx,,B3,T3,c,"['c', 'm']","['Clue', 'Monopoly']","[-0.15, 0.5]","[0.15, 0.5]",1,1,,,,,,,,,0,10,10,10,0,7,7,4,,,,,,,,,,,,,,,,,,,,,,,,,,,,,,,,,,,,,,,,,,,,,,,,,,,,,,,1974.597795688,None,1974.597795688,None,1974.597795688,None,c,1,1.2450236350000523,1976.13153696,None,1976.13153696,None,1976.13153696,None,1977.4311446059999,None,1977.4311446059999,None,1977.4311446059999,None,1977.4311446059999,None,,,,,,,,,,,,,,,,,,,,,,,,,,,,,,,,,,,,,,,,,,,,001,142,2020_Feb_20_0858,spring_faces,3.1.5,60.03793869391015,
condition files/Stage1_2.xlsx,,T3,B3,c,"['c', 'm']","['Clue', 'Monopoly']","[-0.15, 0.5]","[0.15, 0.5]",1,1,,,,,,,,,0,11,11,11,0,0,0,4,,,,,,,,,,,,,,,,,,,,,,,,,,,,,,,,,,,,,,,,,,,,,,,,,,,,,,,1979.4150052940001,None,1979.4150052940001,None,1979.4150052940001,None,c,1,1.6115048859996932,1980.9491567759999,None,1980.9491567759999,None,1980.9491567759999,None,1982.61485681,None,1982.61485681,None,1982.61485681,None,1982.61485681,None,,,,,,,,,,,,,,,,,,,,,,,,,,,,,,,,,,,,,,,,,,,,001,142,2020_Feb_20_0858,spring_faces,3.1.5,60.03793869391015,
condition files/Stage1_2.xlsx,,T4,B4,m,"['c', 'm']","['Clue', 'Monopoly']","[-0.15, 0.5]","[0.15, 0.5]",1,1,,,,,,,,,0,11,11,11,0,1,1,7,,,,,,,,,,,,,,,,,,,,,,,,,,,,,,,,,,,,,,,,,,,,,,,,,,,,,,,1984.58120485,None,1984.58120485,None,1984.58120485,None,m,1,5.389941467999961,1986.1147707390003,None,1986.1147707390003,None,1986.1147707390003,None,1991.5644967810001,None,1991.5644967810001,None,1991.5644967810001,None,1991.5644967810001,None,,,,,,,,,,,,,,,,,,,,,,,,,,,,,,,,,,,,,,,,,,,,001,142,2020_Feb_20_0858,spring_faces,3.1.5,60.03793869391015,
condition files/Stage1_2.xlsx,,B2,T2,m,"['c', 'm']","['Clue', 'Monopoly']","[-0.15, 0.5]","[0.15, 0.5]",1,1,,,,,,,,,0,11,11,11,0,2,2,3,,,,,,,,,,,,,,,,,,,,,,,,,,,,,,,,,,,,,,,,,,,,,,,,,,,,,,,1993.53067175,None,1993.53067175,None,1993.53067175,None,m,1,1.1447855450001043,1995.063927123,None,1995.063927123,None,1995.063927123,None,1996.2651639870003,None,1996.2651639870003,None,1996.2651639870003,None,1996.2651639870003,None,,,,,,,,,,,,,,,,,,,,,,,,,,,,,,,,,,,,,,,,,,,,001,142,2020_Feb_20_0858,spring_faces,3.1.5,60.03793869391015,
condition files/Stage1_2.xlsx,,T2,B1,c,"['c', 'm']","['Clue', 'Monopoly']","[-0.15, 0.5]","[0.15, 0.5]",1,1,,,,,,,,,0,11,11,11,0,3,3,1,,,,,,,,,,,,,,,,,,,,,,,,,,,,,,,,,,,,,,,,,,,,,,,,,,,,,,,1998.2312461540002,None,1998.2312461540002,None,1998.2312461540002,None,c,1,0.9719835209998564,1999.7646750270003,None,1999.7646750270003,None,1999.7646750270003,None,2000.8152441590003,None,2000.8152441590003,None,2000.8152441590003,None,2000.8152441590003,None,,,,,,,,,,,,,,,,,,,,,,,,,,,,,,,,,,,,,,,,,,,,001,142,2020_Feb_20_0858,spring_faces,3.1.5,60.03793869391015,
condition files/Stage1_2.xlsx,,T1,B2,m,"['c', 'm']","['Clue', 'Monopoly']","[-0.15, 0.5]","[0.15, 0.5]",1,1,,,,,,,,,0,11,11,11,0,4,4,2,,,,,,,,,,,,,,,,,,,,,,,,,,,,,,,,,,,,,,,,,,,,,,,,,,,,,,,2002.764581484,None,2002.764581484,None,2002.764581484,None,m,1,0.8220047069999055,2004.298670071,None,2004.298670071,None,2004.298670071,None,2005.1819924530002,None,2005.1819924530002,None,2005.1819924530002,None,2005.1819924530002,None,,,,,,,,,,,,,,,,,,,,,,,,,,,,,,,,,,,,,,,,,,,,001,142,2020_Feb_20_0858,spring_faces,3.1.5,60.03793869391015,
condition files/Stage1_2.xlsx,,B1,T1,c,"['c', 'm']","['Clue', 'Monopoly']","[-0.15, 0.5]","[0.15, 0.5]",1,1,,,,,,,,,0,11,11,11,0,5,5,0,,,,,,,,,,,,,,,,,,,,,,,,,,,,,,,,,,,,,,,,,,,,,,,,,,,,,,,2007.147976685,None,2007.147976685,None,2007.147976685,None,m,0,0.9501058840000951,2008.682515795,None,2008.682515795,None,2008.682515795,None,2009.714901137,None,2009.714901137,None,2009.714901137,None,2009.714901137,None,,,,,,,,,,,,,,,,,,,,,,,,,,,,,,,,,,,,,,,,,,,,001,142,2020_Feb_20_0858,spring_faces,3.1.5,60.03793869391015,
condition files/Stage1_2.xlsx,,B3,T4,m,"['c', 'm']","['Clue', 'Monopoly']","[-0.15, 0.5]","[0.15, 0.5]",1,1,,,,,,,,,0,11,11,11,0,6,6,6,,,,,,,,,,,,,,,,,,,,,,,,,,,,,,,,,,,,,,,,,,,,,,,,,,,,,,,2011.664347784,None,2011.664347784,None,2011.664347784,None,c,0,1.8424537619998773,2013.198262733,None,2013.198262733,None,2013.198262733,None,2015.1148722270002,None,2015.1148722270002,None,2015.1148722270002,None,2015.1148722270002,None,,,,,,,,,,,,,,,,,,,,,,,,,,,,,,,,,,,,,,,,,,,,001,142,2020_Feb_20_0858,spring_faces,3.1.5,60.03793869391015,
condition files/Stage1_2.xlsx,,B4,T3,c,"['c', 'm']","['Clue', 'Monopoly']","[-0.15, 0.5]","[0.15, 0.5]",1,1,,,,,,,,,0,11,11,11,0,7,7,5,,,,,,,,,,,,,,,,,,,,,,,,,,,,,,,,,,,,,,,,,,,,,,,,,,,,,,,2017.0646838280002,None,2017.0646838280002,None,2017.0646838280002,None,c,1,0.9388302289999046,2018.597818032,None,2018.597818032,None,2018.597818032,None,2019.597795758,None,2019.597795758,None,2019.597795758,None,2019.597795758,None,,,,,,,,,,,,,,,,,,,,,,,,,,,,,,,,,,,,,,,,,,,,001,142,2020_Feb_20_0858,spring_faces,3.1.5,60.03793869391015,
,,,,,,,,,,,,,,,,,,,,,,,,,,,,,,,,,,,,,,,,,,,,,,,,,,,,,,,,,,,,,,,,,,,,,,,,,,,,,,,,,,,,,,,,,,,,,,,,,,,,,,,,,,,,,,,,2021.5811444080002,None,space,6.603245074999904,2026.5814138829999,None,,,,,,,,,,,,,,,,,,,,,,,,,,,,,,001,142,2020_Feb_20_0858,spring_faces,3.1.5,60.03793869391015,
condition files/Stage2_1.xlsx,,B2,T2,r,"['s', 'r']","['Stratego', 'Risk']","[-0.15, 0.5]","[0.15, 0.5]",1,1,,,,,,,,,,,,,,,,,0,0,0,0,0,0,0,3,,,,,,,,,,,,,,,,,,,,,,,,,,,,,,,,,,,,,,,,,,,,,,,2033.28178288,None,2033.28178288,None,2033.28178288,None,s,0,1.8905920390002393,2034.750126704,None,2034.750126704,None,2034.750126704,None,2036.6998262660002,None,2036.6998262660002,None,2036.6998262660002,None,2036.6998262660002,None,,,,,,,,,,,,,,,2026.5814138829999,None,,,,,,,,,,,,,,,,,,,,,,,,,,,,001,142,2020_Feb_20_0858,spring_faces,3.1.5,60.03793869391015,
condition files/Stage2_1.xlsx,,T3,B3,s,"['s', 'r']","['Stratego', 'Risk']","[-0.15, 0.5]","[0.15, 0.5]",1,1,,,,,,,,,,,,,,,,,0,0,0,0,0,1,1,4,,,,,,,,,,,,,,,,,,,,,,,,,,,,,,,,,,,,,,,,,,,,,,,2038.664702887,None,2038.664702887,None,2038.664702887,None,s,1,1.0817159909997827,2040.1989244029999,None,2040.1989244029999,None,2040.1989244029999,None,2041.3482307870001,None,2041.3482307870001,None,2041.3482307870001,None,2041.3482307870001,None,,,,,,,,,,,,,,,,,,,,,,,,,,,,,,,,,,,,,,,,,,,,001,142,2020_Feb_20_0858,spring_faces,3.1.5,60.03793869391015,
condition files/Stage2_1.xlsx,,T1,B1,s,"['s', 'r']","['Stratego', 'Risk']","[-0.15, 0.5]","[0.15, 0.5]",1,1,,,,,,,,,,,,,,,,,0,0,0,0,0,2,2,2,,,,,,,,,,,,,,,,,,,,,,,,,,,,,,,,,,,,,,,,,,,,,,,2043.2980811640002,None,2043.2980811640002,None,2043.2980811640002,None,r,0,0.5755044749998888,2044.833219079,None,2044.833219079,None,2044.833219079,None,2045.4646742000002,None,2045.4646742000002,None,2045.4646742000002,None,2045.4646742000002,None,,,,,,,,,,,,,,,,,,,,,,,,,,,,,,,,,,,,,,,,,,,,001,142,2020_Feb_20_0858,spring_faces,3.1.5,60.03793869391015,
condition files/Stage2_1.xlsx,,B4,T4,r,"['s', 'r']","['Stratego', 'Risk']","[-0.15, 0.5]","[0.15, 0.5]",1,1,,,,,,,,,,,,,,,,,0,0,0,0,0,3,3,5,,,,,,,,,,,,,,,,,,,,,,,,,,,,,,,,,,,,,,,,,,,,,,,2047.4314389060003,None,2047.4314389060003,None,2047.4314389060003,None,r,1,0.9382274969998434,2048.966485975,None,2048.966485975,None,2048.966485975,None,2049.9645017029998,None,2049.9645017029998,None,2049.9645017029998,None,2049.9645017029998,None,,,,,,,,,,,,,,,,,,,,,,,,,,,,,,,,,,,,,,,,,,,,001,142,2020_Feb_20_0858,spring_faces,3.1.5,60.03793869391015,
condition files/Stage2_1.xlsx,,B6,T6,r,"['s', 'r']","['Stratego', 'Risk']","[-0.15, 0.5]","[0.15, 0.5]",1,1,,,,,,,,,,,,,,,,,0,0,0,0,0,4,4,1,,,,,,,,,,,,,,,,,,,,,,,,,,,,,,,,,,,,,,,,,,,,,,,2051.930847519,None,2051.930847519,None,2051.930847519,None,s,0,2.228029079999942,2053.516622975,None,2053.516622975,None,2053.516622975,None,2055.7979145259997,None,2055.7979145259997,None,2055.7979145259997,None,2055.7979145259997,None,,,,,,,,,,,,,,,,,,,,,,,,,,,,,,,,,,,,,,,,,,,,001,142,2020_Feb_20_0858,spring_faces,3.1.5,60.03793869391015,
condition files/Stage2_1.xlsx,,T5,B5,s,"['s', 'r']","['Stratego', 'Risk']","[-0.15, 0.5]","[0.15, 0.5]",1,1,,,,,,,,,,,,,,,,,0,0,0,0,0,5,5,0,,,,,,,,,,,,,,,,,,,,,,,,,,,,,,,,,,,,,,,,,,,,,,,2057.764876592,None,2057.764876592,None,2057.764876592,None,r,0,1.2766374309999264,2059.3320619329997,None,2059.3320619329997,None,2059.3320619329997,None,2060.66644542,None,2060.66644542,None,2060.66644542,None,2060.66644542,None,,,,,,,,,,,,,,,,,,,,,,,,,,,,,,,,,,,,,,,,,,,,001,142,2020_Feb_20_0858,spring_faces,3.1.5,60.03793869391015,
condition files/Stage2_2.xlsx,,B3,T3,s,"['s', 'r']","['Stratego', 'Risk']","[-0.15, 0.5]","[0.15, 0.5]",1,1,,,,,,,,,,,,,,,,,0,1,1,1,0,0,0,4,,,,,,,,,,,,,,,,,,,,,,,,,,,,,,,,,,,,,,,,,,,,,,,2062.66488389,None,2062.66488389,None,2062.66488389,None,s,1,1.4656847210003434,2064.182919127,None,2064.182919127,None,2064.182919127,None,2065.7153300639998,None,2065.7153300639998,None,2065.7153300639998,None,2065.7153300639998,None,,,,,,,,,,,,,,,,,,,,,,,,,,,,,,,,,,,,,,,,,,,,001,142,2020_Feb_20_0858,spring_faces,3.1.5,60.03793869391015,
condition files/Stage2_2.xlsx,,T4,B4,r,"['s', 'r']","['Stratego', 'Risk']","[-0.15, 0.5]","[0.15, 0.5]",1,1,,,,,,,,,,,,,,,,,0,1,1,1,0,1,1,5,,,,,,,,,,,,,,,,,,,,,,,,,,,,,,,,,,,,,,,,,,,,,,,2067.6812799259997,None,2067.6812799259997,None,2067.6812799259997,None,r,1,1.522321465999994,2069.214345045,None,2069.214345045,None,2069.214345045,None,2070.7975363369997,None,2070.7975363369997,None,2070.7975363369997,None,2070.7975363369997,None,,,,,,,,,,,,,,,,,,,,,,,,,,,,,,,,,,,,,,,,,,,,001,142,2020_Feb_20_0858,spring_faces,3.1.5,60.03793869391015,
condition files/Stage2_2.xlsx,,T2,B2,r,"['s', 'r']","['Stratego', 'Risk']","[-0.15, 0.5]","[0.15, 0.5]",1,1,,,,,,,,,,,,,,,,,0,1,1,1,0,2,2,3,,,,,,,,,,,,,,,,,,,,,,,,,,,,,,,,,,,,,,,,,,,,,,,2072.7649187049997,None,2072.7649187049997,None,2072.7649187049997,None,r,1,2.0866395080001894,2074.298011545,None,2074.298011545,None,2074.298011545,None,2076.448362954,None,2076.448362954,None,2076.448362954,None,2076.448362954,None,,,,,,,,,,,,,,,,,,,,,,,,,,,,,,,,,,,,,,,,,,,,001,142,2020_Feb_20_0858,spring_faces,3.1.5,60.03793869391015,
condition files/Stage2_2.xlsx,,B5,T5,s,"['s', 'r']","['Stratego', 'Risk']","[-0.15, 0.5]","[0.15, 0.5]",1,1,,,,,,,,,,,,,,,,,0,1,1,1,0,3,3,0,,,,,,,,,,,,,,,,,,,,,,,,,,,,,,,,,,,,,,,,,,,,,,,2078.4147168639997,None,2078.4147168639997,None,2078.4147168639997,None,s,1,0.7232007110001177,2079.949517107,None,2079.949517107,None,2079.949517107,None,2080.731760999,None,2080.731760999,None,2080.731760999,None,2080.731760999,None,,,,,,,,,,,,,,,,,,,,,,,,,,,,,,,,,,,,,,,,,,,,001,142,2020_Feb_20_0858,spring_faces,3.1.5,60.03793869391015,
condition files/Stage2_2.xlsx,,T6,B6,r,"['s', 'r']","['Stratego', 'Risk']","[-0.15, 0.5]","[0.15, 0.5]",1,1,,,,,,,,,,,,,,,,,0,1,1,1,0,4,4,1,,,,,,,,,,,,,,,,,,,,,,,,,,,,,,,,,,,,,,,,,,,,,,,2082.697707087,None,2082.697707087,None,2082.697707087,None,r,1,1.8491580330000943,2084.231542174,None,2084.231542174,None,2084.231542174,None,2086.147701216,None,2086.147701216,None,2086.147701216,None,2086.147701216,None,,,,,,,,,,,,,,,,,,,,,,,,,,,,,,,,,,,,,,,,,,,,001,142,2020_Feb_20_0858,spring_faces,3.1.5,60.03793869391015,
condition files/Stage2_2.xlsx,,B1,T1,s,"['s', 'r']","['Stratego', 'Risk']","[-0.15, 0.5]","[0.15, 0.5]",1,1,,,,,,,,,,,,,,,,,0,1,1,1,0,5,5,2,,,,,,,,,,,,,,,,,,,,,,,,,,,,,,,,,,,,,,,,,,,,,,,2088.09804326,None,2088.09804326,None,2088.09804326,None,r,0,0.8009076849998564,2089.6316881989997,None,2089.6316881989997,None,2089.6316881989997,None,2090.51460848,None,2090.51460848,None,2090.51460848,None,2090.51460848,None,,,,,,,,,,,,,,,,,,,,,,,,,,,,,,,,,,,,,,,,,,,,001,142,2020_Feb_20_0858,spring_faces,3.1.5,60.03793869391015,
condition files/Stage2_1.xlsx,,T5,B5,s,"['s', 'r']","['Stratego', 'Risk']","[-0.15, 0.5]","[0.15, 0.5]",1,1,,,,,,,,,,,,,,,,,0,2,2,2,0,0,0,0,,,,,,,,,,,,,,,,,,,,,,,,,,,,,,,,,,,,,,,,,,,,,,,2092.4816111259997,None,2092.4816111259997,None,2092.4816111259997,None,r,0,1.2183481769998252,2094.014258441,None,2094.014258441,None,2094.014258441,None,2095.2983256899997,None,2095.2983256899997,None,2095.2983256899997,None,2095.2983256899997,None,,,,,,,,,,,,,,,,,,,,,,,,,,,,,,,,,,,,,,,,,,,,001,142,2020_Feb_20_0858,spring_faces,3.1.5,60.03793869391015,
condition files/Stage2_1.xlsx,,T1,B1,s,"['s', 'r']","['Stratego', 'Risk']","[-0.15, 0.5]","[0.15, 0.5]",1,1,,,,,,,,,,,,,,,,,0,2,2,2,0,1,1,2,,,,,,,,,,,,,,,,,,,,,,,,,,,,,,,,,,,,,,,,,,,,,,,2097.2643482529998,None,2097.2643482529998,None,2097.2643482529998,None,s,1,0.6428867749996243,2098.7978138149997,None,2098.7978138149997,None,2098.7978138149997,None,2099.4976582669997,None,2099.4976582669997,None,2099.4976582669997,None,2099.4976582669997,None,,,,,,,,,,,,,,,,,,,,,,,,,,,,,,,,,,,,,,,,,,,,001,142,2020_Feb_20_0858,spring_faces,3.1.5,60.03793869391015,
condition files/Stage2_1.xlsx,,B4,T4,r,"['s', 'r']","['Stratego', 'Risk']","[-0.15, 0.5]","[0.15, 0.5]",1,1,,,,,,,,,,,,,,,,,0,2,2,2,0,2,2,5,,,,,,,,,,,,,,,,,,,,,,,,,,,,,,,,,,,,,,,,,,,,,,,2101.464684661,None,2101.464684661,None,2101.464684661,None,r,1,1.1129354970003078,2102.9997146789997,None,2102.9997146789997,None,2102.9997146789997,None,2104.1652657229997,None,2104.1652657229997,None,2104.1652657229997,None,2104.1652657229997,None,,,,,,,,,,,,,,,,,,,,,,,,,,,,,,,,,,,,,,,,,,,,001,142,2020_Feb_20_0858,spring_faces,3.1.5,60.03793869391015,
condition files/Stage2_1.xlsx,,B2,T2,r,"['s', 'r']","['Stratego', 'Risk']","[-0.15, 0.5]","[0.15, 0.5]",1,1,,,,,,,,,,,,,,,,,0,2,2,2,0,3,3,3,,,,,,,,,,,,,,,,,,,,,,,,,,,,,,,,,,,,,,,,,,,,,,,2106.1313994469997,None,2106.1313994469997,None,2106.1313994469997,None,r,1,1.4566074210001716,2107.664053266,None,2107.664053266,None,2107.664053266,None,2109.181346552,None,2109.181346552,None,2109.181346552,None,2109.181346552,None,,,,,,,,,,,,,,,,,,,,,,,,,,,,,,,,,,,,,,,,,,,,001,142,2020_Feb_20_0858,spring_faces,3.1.5,60.03793869391015,
condition files/Stage2_1.xlsx,,B6,T6,r,"['s', 'r']","['Stratego', 'Risk']","[-0.15, 0.5]","[0.15, 0.5]",1,1,,,,,,,,,,,,,,,,,0,2,2,2,0,4,4,1,,,,,,,,,,,,,,,,,,,,,,,,,,,,,,,,,,,,,,,,,,,,,,,2111.1479769089997,None,2111.1479769089997,None,2111.1479769089997,None,s,0,0.8223027019998881,2112.6983302109998,None,2112.6983302109998,None,2112.6983302109998,None,2113.5813125309996,None,2113.5813125309996,None,2113.5813125309996,None,2113.5813125309996,None,,,,,,,,,,,,,,,,,,,,,,,,,,,,,,,,,,,,,,,,,,,,001,142,2020_Feb_20_0858,spring_faces,3.1.5,60.03793869391015,
condition files/Stage2_1.xlsx,,T3,B3,s,"['s', 'r']","['Stratego', 'Risk']","[-0.15, 0.5]","[0.15, 0.5]",1,1,,,,,,,,,,,,,,,,,0,2,2,2,0,5,5,4,,,,,,,,,,,,,,,,,,,,,,,,,,,,,,,,,,,,,,,,,,,,,,,2115.548026334,None,2115.548026334,None,2115.548026334,None,s,1,1.5576453250000668,2117.083083471,None,2117.083083471,None,2117.083083471,None,2118.714493175,None,2118.714493175,None,2118.714493175,None,2118.714493175,None,,,,,,,,,,,,,,,,,,,,,,,,,,,,,,,,,,,,,,,,,,,,001,142,2020_Feb_20_0858,spring_faces,3.1.5,60.03793869391015,
condition files/Stage2_2.xlsx,,T4,B4,r,"['s', 'r']","['Stratego', 'Risk']","[-0.15, 0.5]","[0.15, 0.5]",1,1,,,,,,,,,,,,,,,,,0,3,3,3,0,0,0,5,,,,,,,,,,,,,,,,,,,,,,,,,,,,,,,,,,,,,,,,,,,,,,,2120.681577256,None,2120.681577256,None,2120.681577256,None,r,1,1.0663917690003473,2122.2142674059996,None,2122.2142674059996,None,2122.2142674059996,None,2123.332905632,None,2123.332905632,None,2123.332905632,None,2123.332905632,None,,,,,,,,,,,,,,,,,,,,,,,,,,,,,,,,,,,,,,,,,,,,001,142,2020_Feb_20_0858,spring_faces,3.1.5,60.03793869391015,
condition files/Stage2_2.xlsx,,B3,T3,s,"['s', 'r']","['Stratego', 'Risk']","[-0.15, 0.5]","[0.15, 0.5]",1,1,,,,,,,,,,,,,,,,,0,3,3,3,0,1,1,4,,,,,,,,,,,,,,,,,,,,,,,,,,,,,,,,,,,,,,,,,,,,,,,2125.29771244,None,2125.29771244,None,2125.29771244,None,s,1,2.2243061720000696,2126.8323898139997,None,2126.8323898139997,None,2126.8323898139997,None,2129.115124346,None,2129.115124346,None,2129.115124346,None,2129.115124346,None,,,,,,,,,,,,,,,,,,,,,,,,,,,,,,,,,,,,,,,,,,,,001,142,2020_Feb_20_0858,spring_faces,3.1.5,60.03793869391015,
condition files/Stage2_2.xlsx,,B5,T5,s,"['s', 'r']","['Stratego', 'Risk']","[-0.15, 0.5]","[0.15, 0.5]",1,1,,,,,,,,,,,,,,,,,0,3,3,3,0,2,2,0,,,,,,,,,,,,,,,,,,,,,,,,,,,,,,,,,,,,,,,,,,,,,,,2131.081301752,None,2131.081301752,None,2131.081301752,None,s,1,1.5129205670000374,2132.631712812,None,2132.631712812,None,2132.631712812,None,2134.198376988,None,2134.198376988,None,2134.198376988,None,2134.198376988,None,,,,,,,,,,,,,,,,,,,,,,,,,,,,,,,,,,,,,,,,,,,,001,142,2020_Feb_20_0858,spring_faces,3.1.5,60.03793869391015,
condition files/Stage2_2.xlsx,,T2,B2,r,"['s', 'r']","['Stratego', 'Risk']","[-0.15, 0.5]","[0.15, 0.5]",1,1,,,,,,,,,,,,,,,,,0,3,3,3,0,3,3,3,,,,,,,,,,,,,,,,,,,,,,,,,,,,,,,,,,,,,,,,,,,,,,,2136.164838491,None,2136.164838491,None,2136.164838491,None,r,1,0.9087632450000456,2137.6999598539996,None,2137.6999598539996,None,2137.6999598539996,None,2138.6668994369998,None,2138.6668994369998,None,2138.6668994369998,None,2138.6668994369998,None,,,,,,,,,,,,,,,,,,,,,,,,,,,,,,,,,,,,,,,,,,,,001,142,2020_Feb_20_0858,spring_faces,3.1.5,60.03793869391015,
condition files/Stage2_2.xlsx,,B1,T1,s,"['s', 'r']","['Stratego', 'Risk']","[-0.15, 0.5]","[0.15, 0.5]",1,1,,,,,,,,,,,,,,,,,0,3,3,3,0,4,4,2,,,,,,,,,,,,,,,,,,,,,,,,,,,,,,,,,,,,,,,,,,,,,,,2140.63161017,None,2140.63161017,None,2140.63161017,None,s,1,0.8271607140000015,2142.1815276069997,None,2142.1815276069997,None,2142.1815276069997,None,2143.081406859,None,2143.081406859,None,2143.081406859,None,2143.081406859,None,,,,,,,,,,,,,,,,,,,,,,,,,,,,,,,,,,,,,,,,,,,,001,142,2020_Feb_20_0858,spring_faces,3.1.5,60.03793869391015,
condition files/Stage2_2.xlsx,,T6,B6,r,"['s', 'r']","['Stratego', 'Risk']","[-0.15, 0.5]","[0.15, 0.5]",1,1,,,,,,,,,,,,,,,,,0,3,3,3,0,5,5,1,,,,,,,,,,,,,,,,,,,,,,,,,,,,,,,,,,,,,,,,,,,,,,,2145.031327291,None,2145.031327291,None,2145.031327291,None,r,1,1.643894139999702,2146.5648135769998,None,2146.5648135769998,None,2146.5648135769998,None,2148.2659035479996,None,2148.2659035479996,None,2148.2659035479996,None,2148.2659035479996,None,,,,,,,,,,,,,,,,,,,,,,,,,,,,,,,,,,,,,,,,,,,,001,142,2020_Feb_20_0858,spring_faces,3.1.5,60.03793869391015,
condition files/Stage2_1.xlsx,,T5,B5,s,"['s', 'r']","['Stratego', 'Risk']","[-0.15, 0.5]","[0.15, 0.5]",1,1,,,,,,,,,,,,,,,,,0,4,4,4,0,0,0,0,,,,,,,,,,,,,,,,,,,,,,,,,,,,,,,,,,,,,,,,,,,,,,,2150.2484314619996,None,2150.2484314619996,None,2150.2484314619996,None,s,1,1.4351123090000328,2151.781547517,None,2151.781547517,None,2151.781547517,None,2153.28237473,None,2153.28237473,None,2153.28237473,None,2153.28237473,None,,,,,,,,,,,,,,,,,,,,,,,,,,,,,,,,,,,,,,,,,,,,001,142,2020_Feb_20_0858,spring_faces,3.1.5,60.03793869391015,
condition files/Stage2_1.xlsx,,B6,T6,r,"['s', 'r']","['Stratego', 'Risk']","[-0.15, 0.5]","[0.15, 0.5]",1,1,,,,,,,,,,,,,,,,,0,4,4,4,0,1,1,1,,,,,,,,,,,,,,,,,,,,,,,,,,,,,,,,,,,,,,,,,,,,,,,2155.247980501,None,2155.247980501,None,2155.247980501,None,r,1,1.297918060000029,2156.782730677,None,2156.782730677,None,2156.782730677,None,2158.148279945,None,2158.148279945,None,2158.148279945,None,2158.148279945,None,,,,,,,,,,,,,,,,,,,,,,,,,,,,,,,,,,,,,,,,,,,,001,142,2020_Feb_20_0858,spring_faces,3.1.5,60.03793869391015,
condition files/Stage2_1.xlsx,,T1,B1,s,"['s', 'r']","['Stratego', 'Risk']","[-0.15, 0.5]","[0.15, 0.5]",1,1,,,,,,,,,,,,,,,,,0,4,4,4,0,2,2,2,,,,,,,,,,,,,,,,,,,,,,,,,,,,,,,,,,,,,,,,,,,,,,,2160.098063166,None,2160.098063166,None,2160.098063166,None,r,0,6.352942531000281,2161.6317200209996,None,2161.6317200209996,None,2161.6317200209996,None,2168.0497057489997,None,2168.0497057489997,None,2168.0497057489997,None,2168.0497057489997,None,,,,,,,,,,,,,,,,,,,,,,,,,,,,,,,,,,,,,,,,,,,,001,142,2020_Feb_20_0858,spring_faces,3.1.5,60.03793869391015,
condition files/Stage2_1.xlsx,,B2,T2,r,"['s', 'r']","['Stratego', 'Risk']","[-0.15, 0.5]","[0.15, 0.5]",1,1,,,,,,,,,,,,,,,,,0,4,4,4,0,3,3,3,,,,,,,,,,,,,,,,,,,,,,,,,,,,,,,,,,,,,,,,,,,,,,,2170.014831738,None,2170.014831738,None,2170.014831738,None,s,0,2.3569305020000684,2171.547777063,None,2171.547777063,None,2171.547777063,None,2173.967037733,None,2173.967037733,None,2173.967037733,None,2173.967037733,None,,,,,,,,,,,,,,,,,,,,,,,,,,,,,,,,,,,,,,,,,,,,001,142,2020_Feb_20_0858,spring_faces,3.1.5,60.03793869391015,
condition files/Stage2_1.xlsx,,B4,T4,r,"['s', 'r']","['Stratego', 'Risk']","[-0.15, 0.5]","[0.15, 0.5]",1,1,,,,,,,,,,,,,,,,,0,4,4,4,0,4,4,5,,,,,,,,,,,,,,,,,,,,,,,,,,,,,,,,,,,,,,,,,,,,,,,2175.9312827,None,2175.9312827,None,2175.9312827,None,r,1,4.552113056000053,2177.464542236,None,2177.464542236,None,2177.464542236,None,2182.081586732,None,2182.081586732,None,2182.081586732,None,2182.081586732,None,,,,,,,,,,,,,,,,,,,,,,,,,,,,,,,,,,,,,,,,,,,,001,142,2020_Feb_20_0858,spring_faces,3.1.5,60.03793869391015,
condition files/Stage2_1.xlsx,,T3,B3,s,"['s', 'r']","['Stratego', 'Risk']","[-0.15, 0.5]","[0.15, 0.5]",1,1,,,,,,,,,,,,,,,,,0,4,4,4,0,5,5,4,,,,,,,,,,,,,,,,,,,,,,,,,,,,,,,,,,,,,,,,,,,,,,,2184.047904876,None,2184.047904876,None,2184.047904876,None,s,1,0.6105408550001812,2185.5820713929998,None,2185.5820713929998,None,2185.5820713929998,None,2186.264993716,None,2186.264993716,None,2186.264993716,None,2186.264993716,None,,,,,,,,,,,,,,,,,,,,,,,,,,,,,,,,,,,,,,,,,,,,001,142,2020_Feb_20_0858,spring_faces,3.1.5,60.03793869391015,
condition files/Stage2_2.xlsx,,B3,T3,s,"['s', 'r']","['Stratego', 'Risk']","[-0.15, 0.5]","[0.15, 0.5]",1,1,,,,,,,,,,,,,,,,,0,5,5,5,0,0,0,4,,,,,,,,,,,,,,,,,,,,,,,,,,,,,,,,,,,,,,,,,,,,,,,2188.230987251,None,2188.230987251,None,2188.230987251,None,s,1,1.098890203999872,2189.781749419,None,2189.781749419,None,2189.781749419,None,2190.931043708,None,2190.931043708,None,2190.931043708,None,2190.931043708,None,,,,,,,,,,,,,,,,,,,,,,,,,,,,,,,,,,,,,,,,,,,,001,142,2020_Feb_20_0858,spring_faces,3.1.5,60.03793869391015,
condition files/Stage2_2.xlsx,,T2,B2,r,"['s', 'r']","['Stratego', 'Risk']","[-0.15, 0.5]","[0.15, 0.5]",1,1,,,,,,,,,,,,,,,,,0,5,5,5,0,1,1,3,,,,,,,,,,,,,,,,,,,,,,,,,,,,,,,,,,,,,,,,,,,,,,,2192.8972420759997,None,2192.8972420759997,None,2192.8972420759997,None,s,0,0.8012597550000464,2194.431375891,None,2194.431375891,None,2194.431375891,None,2195.314993523,None,2195.314993523,None,2195.314993523,None,2195.314993523,None,,,,,,,,,,,,,,,,,,,,,,,,,,,,,,,,,,,,,,,,,,,,001,142,2020_Feb_20_0858,spring_faces,3.1.5,60.03793869391015,
condition files/Stage2_2.xlsx,,T6,B6,r,"['s', 'r']","['Stratego', 'Risk']","[-0.15, 0.5]","[0.15, 0.5]",1,1,,,,,,,,,,,,,,,,,0,5,5,5,0,2,2,1,,,,,,,,,,,,,,,,,,,,,,,,,,,,,,,,,,,,,,,,,,,,,,,2197.2643218619996,None,2197.2643218619996,None,2197.2643218619996,None,r,1,1.5215996090000772,2198.815039995,None,2198.815039995,None,2198.815039995,None,2200.398032615,None,2200.398032615,None,2200.398032615,None,2200.398032615,None,,,,,,,,,,,,,,,,,,,,,,,,,,,,,,,,,,,,,,,,,,,,001,142,2020_Feb_20_0858,spring_faces,3.1.5,60.03793869391015,
