condsFile,subStage,cue1,cue2,correct,responseKeys,responseNames,cue1Position,cue2Position,cue1Opacity,cue2Opacity,stageLoop0.thisRepN,stageLoop0.thisTrialN,stageLoop0.thisN,stageLoop0.thisIndex,blockLoop0.thisRepN,blockLoop0.thisTrialN,blockLoop0.thisN,blockLoop0.thisIndex,stage1Loop.thisRepN,stage1Loop.thisTrialN,stage1Loop.thisN,stage1Loop.thisIndex,blockLoop1.thisRepN,blockLoop1.thisTrialN,blockLoop1.thisN,blockLoop1.thisIndex,stage2Loop.thisRepN,stage2Loop.thisTrialN,stage2Loop.thisN,stage2Loop.thisIndex,blockLoop2.thisRepN,blockLoop2.thisTrialN,blockLoop2.thisN,blockLoop2.thisIndex,testLoop.thisRepN,testLoop.thisTrialN,testLoop.thisN,testLoop.thisIndex,blockLoopTest.thisRepN,blockLoopTest.thisTrialN,blockLoopTest.thisN,blockLoopTest.thisIndex,cuePics,id_instr_text.started,id_instr_text.stopped,space_to_continue_2.started,space_to_continue_2.stopped,end_instructions_resp_3.keys,end_instructions_resp_3.rt,end_instructions_resp_3.started,end_instructions_resp_3.stopped,id_input_instr.started,id_input_instr.stopped,id_input_rect.started,id_input_rect.stopped,id_input_resp.keys,id_input_resp.rt,id_input_resp.started,id_input_resp.stopped,sonaID,id_input_text.started,id_input_text.stopped,final_text.started,final_text.stopped,instructions.started,instructions.stopped,end_instructions_resp.keys,end_instructions_resp.rt,end_instructions_resp.started,end_instructions_resp.stopped,space_to_continue.started,space_to_continue.stopped,instructions_stage0.started,instructions_stage0.stopped,end_instructions_resp_stage0.keys,end_instructions_resp_stage0.rt,end_instructions_resp_stage0.started,end_instructions_resp_stage0.stopped,space_to_continue_stage0.started,space_to_continue_stage0.stopped,text.started,text.stopped,resp_text1.started,resp_text1.stopped,resp_text2.started,resp_text2.stopped,trial_resp.keys,trial_resp.corr,trial_resp.rt,trial_resp.started,trial_resp.stopped,cue1Image.started,cue1Image.stopped,cue2Image.started,cue2Image.stopped,cue1Image_fb.started,cue1Image_fb.stopped,cue2Image_fb.started,cue2Image_fb.stopped,fb_text_answer.started,fb_text_answer.stopped,feedback_image.started,feedback_image.stopped,instructions_stage1.started,instructions_stage1.stopped,end_instructions_resp_stage1.keys,end_instructions_resp_stage1.rt,end_instructions_resp_stage1.started,end_instructions_resp_stage1.stopped,space_to_continue_stage1.started,space_to_continue_stage1.stopped,instructions_2.started,instructions_2.stopped,end_instructions_resp_2.keys,end_instructions_resp_2.rt,end_instructions_resp_2.started,end_instructions_resp_2.stopped,press_space_to_continue_stage2.started,press_space_to_continue_stage2.stopped,instructions_testStage1.started,instructions_testStage1.stopped,end_instructions_resp_test1.keys,end_instructions_resp_test1.rt,end_instructions_resp_test1.started,end_instructions_resp_test1.stopped,press_space_to_continue_test1.started,press_space_to_continue_test1.stopped,cue1Image_testChoice.started,cue1Image_testChoice.stopped,cue2Image_testChoice.started,cue2Image_testChoice.stopped,test_resp.keys,test_resp.corr,test_resp.rt,test_resp.started,test_resp.stopped,cue1Image_testConf.started,cue1Image_testConf.stopped,cue2Image_testConf.started,cue2Image_testConf.stopped,conf_reminder.started,conf_reminder.stopped,conf_rating.response,conf_rating.rt,conf_rating.started,conf_rating.stopped,session,participant,date,expName,psychopyVersion,frameRate,
,,,,,,,,,,,,,,,,,,,,,,,,,,,,,,,,,,,,,,,,,,,"{'none': 'pictures/20M_AN_C.png', 'alpha': 'pictures/SHINEd_melon.png', 'beta': 'pictures/SHINEd_apple.png', 'theta': 'pictures/SHINEd_pepper.png', 'phi': 'pictures/SHINEd_pear.png', 'T1': 'pictures/34M_AN_C.png', 'T2': 'pictures/31M_AN_C.png', 'T3': 'pictures/23M_AN_C.png', 'T4': 'pictures/37M_AN_C.png', 'T5': 'pictures/33M_AN_C.png', 'T6': 'pictures/25M_AN_C.png', 'B1': 'pictures/36M_NE_C.png', 'B2': 'pictures/32M_NE_C.png', 'B3': 'pictures/22M_NE_C.png', 'B4': 'pictures/38M_NE_C.png', 'B5': 'pictures/26M_NE_C.png', 'B6': 'pictures/20M_NE_C.png'}",9.033192887000041,None,14.017149152000002,None,space,1.201646387999972,14.017149152000002,None,,,,,,,,,,,,,,,,,,,,,,,,,,,,,,,,,,,,,,,,,,,,,,,,,,,,,,,,,,,,,,,,,,,,,,,,,,,,,,,,,,,,,,,,,,,,,,,,001,143,2020_Feb_20_0933,spring_faces,3.1.5,60.06161444729609,
,,,,,,,,,,,,,,,,,,,,,,,,,,,,,,,,,,,,,,,,,,,,,,,,,,,,15.601790930999869,None,15.601790930999869,None,"['2', 'backspace', '0', '2', '1', '0', 'j', 'e', 'f', 'u', 's']","[13.761085098999956, 15.88913766099995, 16.75309858799983, 16.977076866999596, 17.441148902999885, 17.697089151, 23.88910096299969, 25.505076797999664, 29.29708921099973, 29.92110813699992, 30.177069367999593]",15.601790930999869,None,,,,,,,,,,,,,,,,,,,,,,,,,,,,,,,,,,,,,,,,,,,,,,,,,,,,,,,,,,,,,,,,,,,,,,,,,,,,,,,,,,,,,,,,001,143,2020_Feb_20_0933,spring_faces,3.1.5,60.06161444729609,
,,,,,,,,,,,,,,,,,,,,,,,,,,,,,,,,,,,,,,,,,,,,,,,,,,,,,,,,,,,,0210jefus,15.601790930999869,None,15.601790930999869,None,50.850163758000235,None,space,2.4883604940000623,55.85051834800015,None,,,,,,,,,,,,,,,,,,,,,,,,,,,,,,,,,,,,,,,,,,,,,,,,,,,,,,,,,,,,,,,,,,,,,,,,,,,,,001,143,2020_Feb_20_0933,spring_faces,3.1.5,60.06161444729609,
,,,,,,,,,,,,,,,,,,,,,,,,,,,,,,,,,,,,,,,,,,,,,,,,,,,,,,,,,,,,,,,,,,,,,,,55.85051834800015,None,58.38332896200018,None,space,15.61172825199992,63.36712763000014,None,,,,,,,,,,,,,,,,,,,,,,,,,,,,,,,,,,,,,,,,,,,,,,,,,,,,,,,,,,,,,,,,,,,,,001,143,2020_Feb_20_0933,spring_faces,3.1.5,60.06161444729609,
condition files/Stage0a.xlsx,0a,alpha,none,h,"['h', 'g']","['Chess', 'Go']","[0, 0.5]","[0, 0]",1,0,0,0,0,0,0,0,0,0,,,,,,,,,,,,,,,,,,,,,,,,,,,,,,,,,,,,,,,,,,,,,,,,,,,,,,,,,,,,,63.36712763000014,None,79.11686700900009,None,79.11686700900009,None,79.11686700900009,None,g,0,2.5489171180001904,80.68593487099997,None,80.68593487099997,None,80.68593487099997,None,83.36755502300002,None,83.36755502300002,None,83.36755502300002,None,83.36755502300002,None,,,,,,,,,,,,,,,,,,,,,,,,,,,,,,,,,,,,,,,,,,,,001,143,2020_Feb_20_0933,spring_faces,3.1.5,60.06161444729609,
condition files/Stage0a.xlsx,0a,beta,none,g,"['h', 'g']","['Chess', 'Go']","[0, 0.5]","[0, 0]",1,0,0,0,0,0,0,1,1,1,,,,,,,,,,,,,,,,,,,,,,,,,,,,,,,,,,,,,,,,,,,,,,,,,,,,,,,,,,,,,,,85.26699263599994,None,85.26699263599994,None,85.26699263599994,None,h,0,2.04858921999994,86.85028469000008,None,86.85028469000008,None,86.85028469000008,None,88.94995080299987,None,88.94995080299987,None,88.94995080299987,None,88.94995080299987,None,,,,,,,,,,,,,,,,,,,,,,,,,,,,,,,,,,,,,,,,,,,,001,143,2020_Feb_20_0933,spring_faces,3.1.5,60.06161444729609,
condition files/Stage0a.xlsx,0a,alpha,none,h,"['h', 'g']","['Chess', 'Go']","[0, 0.5]","[0, 0]",1,0,0,1,1,1,0,0,0,0,,,,,,,,,,,,,,,,,,,,,,,,,,,,,,,,,,,,,,,,,,,,,,,,,,,,,,,,,,,,,,,90.93426308500011,None,90.93426308500011,None,90.93426308500011,None,h,1,4.367534298999999,92.46730408300027,None,92.46730408300027,None,92.46730408300027,None,96.90090576300008,None,96.90090576300008,None,96.90090576300008,None,96.90090576300008,None,,,,,,,,,,,,,,,,,,,,,,,,,,,,,,,,,,,,,,,,,,,,001,143,2020_Feb_20_0933,spring_faces,3.1.5,60.06161444729609,
condition files/Stage0a.xlsx,0a,beta,none,g,"['h', 'g']","['Chess', 'Go']","[0, 0.5]","[0, 0]",1,0,0,1,1,1,0,1,1,1,,,,,,,,,,,,,,,,,,,,,,,,,,,,,,,,,,,,,,,,,,,,,,,,,,,,,,,,,,,,,,,98.86738530999992,None,98.86738530999992,None,98.86738530999992,None,g,1,0.8819810370000596,100.40088767799989,None,100.40088767799989,None,100.40088767799989,None,101.33400240399988,None,101.33400240399988,None,101.33400240399988,None,101.33400240399988,None,,,,,,,,,,,,,,,,,,,,,,,,,,,,,,,,,,,,,,,,,,,,001,143,2020_Feb_20_0933,spring_faces,3.1.5,60.06161444729609,
condition files/Stage0a.xlsx,0a,alpha,none,h,"['h', 'g']","['Chess', 'Go']","[0, 0.5]","[0, 0]",1,0,0,2,2,2,0,0,0,0,,,,,,,,,,,,,,,,,,,,,,,,,,,,,,,,,,,,,,,,,,,,,,,,,,,,,,,,,,,,,,,103.31735921200016,None,103.31735921200016,None,103.31735921200016,None,h,1,0.8331061990002127,104.84977095700015,None,104.84977095700015,None,104.84977095700015,None,105.73344187900011,None,105.73344187900011,None,105.73344187900011,None,105.73344187900011,None,,,,,,,,,,,,,,,,,,,,,,,,,,,,,,,,,,,,,,,,,,,,001,143,2020_Feb_20_0933,spring_faces,3.1.5,60.06161444729609,
condition files/Stage0a.xlsx,0a,beta,none,g,"['h', 'g']","['Chess', 'Go']","[0, 0.5]","[0, 0]",1,0,0,2,2,2,0,1,1,1,,,,,,,,,,,,,,,,,,,,,,,,,,,,,,,,,,,,,,,,,,,,,,,,,,,,,,,,,,,,,,,107.70017785500022,None,107.70017785500022,None,107.70017785500022,None,g,1,0.656945462999829,109.23399289899999,None,109.23399289899999,None,109.23399289899999,None,109.95069401899991,None,109.95069401899991,None,109.95069401899991,None,109.95069401899991,None,,,,,,,,,,,,,,,,,,,,,,,,,,,,,,,,,,,,,,,,,,,,001,143,2020_Feb_20_0933,spring_faces,3.1.5,60.06161444729609,
condition files/Stage0a.xlsx,0a,alpha,none,h,"['h', 'g']","['Chess', 'Go']","[0, 0.5]","[0, 0]",1,0,0,3,3,3,0,0,0,0,,,,,,,,,,,,,,,,,,,,,,,,,,,,,,,,,,,,,,,,,,,,,,,,,,,,,,,,,,,,,,,111.93374332300027,None,111.93374332300027,None,111.93374332300027,None,h,1,0.5678490710001824,113.46699498699991,None,113.46699498699991,None,113.46699498699991,None,114.10013773900027,None,114.10013773900027,None,114.10013773900027,None,114.10013773900027,None,,,,,,,,,,,,,,,,,,,,,,,,,,,,,,,,,,,,,,,,,,,,001,143,2020_Feb_20_0933,spring_faces,3.1.5,60.06161444729609,
condition files/Stage0a.xlsx,0a,beta,none,g,"['h', 'g']","['Chess', 'Go']","[0, 0.5]","[0, 0]",1,0,0,3,3,3,0,1,1,1,,,,,,,,,,,,,,,,,,,,,,,,,,,,,,,,,,,,,,,,,,,,,,,,,,,,,,,,,,,,,,,116.06691031800028,None,116.06691031800028,None,116.06691031800028,None,g,1,0.594434432000071,117.60042889400029,None,117.60042889400029,None,117.60042889400029,None,118.25020138299988,None,118.25020138299988,None,118.25020138299988,None,118.25020138299988,None,,,,,,,,,,,,,,,,,,,,,,,,,,,,,,,,,,,,,,,,,,,,001,143,2020_Feb_20_0933,spring_faces,3.1.5,60.06161444729609,
condition files/Stage0a.xlsx,0a,beta,none,g,"['h', 'g']","['Chess', 'Go']","[0, 0.5]","[0, 0]",1,0,0,4,4,4,0,0,0,1,,,,,,,,,,,,,,,,,,,,,,,,,,,,,,,,,,,,,,,,,,,,,,,,,,,,,,,,,,,,,,,120.23378836200027,None,120.23378836200027,None,120.23378836200027,None,g,1,0.8923309540000446,121.7666026490001,None,121.7666026490001,None,121.7666026490001,None,122.71716939299995,None,122.71716939299995,None,122.71716939299995,None,122.71716939299995,None,,,,,,,,,,,,,,,,,,,,,,,,,,,,,,,,,,,,,,,,,,,,001,143,2020_Feb_20_0933,spring_faces,3.1.5,60.06161444729609,
condition files/Stage0a.xlsx,0a,alpha,none,h,"['h', 'g']","['Chess', 'Go']","[0, 0.5]","[0, 0]",1,0,0,4,4,4,0,1,1,0,,,,,,,,,,,,,,,,,,,,,,,,,,,,,,,,,,,,,,,,,,,,,,,,,,,,,,,,,,,,,,,124.68380304699986,None,124.68380304699986,None,124.68380304699986,None,h,1,0.569742437000059,126.21712100600007,None,126.21712100600007,None,126.21712100600007,None,126.85026867299985,None,126.85026867299985,None,126.85026867299985,None,126.85026867299985,None,,,,,,,,,,,,,,,,,,,,,,,,,,,,,,,,,,,,,,,,,,,,001,143,2020_Feb_20_0933,spring_faces,3.1.5,60.06161444729609,
condition files/Stage0a.xlsx,0a,beta,none,g,"['h', 'g']","['Chess', 'Go']","[0, 0.5]","[0, 0]",1,0,0,5,5,5,0,0,0,1,,,,,,,,,,,,,,,,,,,,,,,,,,,,,,,,,,,,,,,,,,,,,,,,,,,,,,,,,,,,,,,128.83407973900012,None,128.83407973900012,None,128.83407973900012,None,g,1,0.5797538159999931,130.3671111550002,None,130.3671111550002,None,130.3671111550002,None,130.99997586900008,None,130.99997586900008,None,130.99997586900008,None,130.99997586900008,None,,,,,,,,,,,,,,,,,,,,,,,,,,,,,,,,,,,,,,,,,,,,001,143,2020_Feb_20_0933,spring_faces,3.1.5,60.06161444729609,
condition files/Stage0a.xlsx,0a,alpha,none,h,"['h', 'g']","['Chess', 'Go']","[0, 0.5]","[0, 0]",1,0,0,5,5,5,0,1,1,0,,,,,,,,,,,,,,,,,,,,,,,,,,,,,,,,,,,,,,,,,,,,,,,,,,,,,,,,,,,,,,,132.96697461200029,None,132.96697461200029,None,132.96697461200029,None,h,1,0.5744474359999003,134.50047915899995,None,134.50047915899995,None,134.50047915899995,None,135.13359478700022,None,135.13359478700022,None,135.13359478700022,None,135.13359478700022,None,,,,,,,,,,,,,,,,,,,,,,,,,,,,,,,,,,,,,,,,,,,,001,143,2020_Feb_20_0933,spring_faces,3.1.5,60.06161444729609,
condition files/Stage0b_1.xlsx,0b,alpha,none,h,"['h', 'g']","['Chess', 'Go']","[-0.15, 0.5]","[0.15, 0.5]",1,0,0,6,6,6,0,0,0,0,,,,,,,,,,,,,,,,,,,,,,,,,,,,,,,,,,,,,,,,,,,,,,,,,,,,,,,,,,,,,,,137.1672739810001,None,137.1672739810001,None,137.1672739810001,None,h,1,0.5683362929999021,138.65053470700013,None,138.65053470700013,None,138.65053470700013,None,139.28443220000008,None,139.28443220000008,None,139.28443220000008,None,139.28443220000008,None,,,,,,,,,,,,,,,,,,,,,,,,,,,,,,,,,,,,,,,,,,,,001,143,2020_Feb_20_0933,spring_faces,3.1.5,60.06161444729609,
condition files/Stage0b_1.xlsx,0b,none,beta,g,"['h', 'g']","['Chess', 'Go']","[-0.15, 0.5]","[0.15, 0.5]",0,1,0,6,6,6,0,1,1,1,,,,,,,,,,,,,,,,,,,,,,,,,,,,,,,,,,,,,,,,,,,,,,,,,,,,,,,,,,,,,,,141.250356001,None,141.250356001,None,141.250356001,None,g,1,0.7704622229998677,142.80042017699998,None,142.80042017699998,None,142.80042017699998,None,143.63593152800013,None,143.63593152800013,None,143.63593152800013,None,143.63593152800013,None,,,,,,,,,,,,,,,,,,,,,,,,,,,,,,,,,,,,,,,,,,,,001,143,2020_Feb_20_0933,spring_faces,3.1.5,60.06161444729609,
condition files/Stage0b_2.xlsx,0b,none,alpha,h,"['h', 'g']","['Chess', 'Go']","[-0.15, 0.5]","[0.15, 0.5]",0,1,0,7,7,7,0,0,0,0,,,,,,,,,,,,,,,,,,,,,,,,,,,,,,,,,,,,,,,,,,,,,,,,,,,,,,,,,,,,,,,145.66726474899997,None,145.66726474899997,None,145.66726474899997,None,h,1,0.5472259919997668,147.15166505100024,None,147.15166505100024,None,147.15166505100024,None,147.7507436310002,None,147.7507436310002,None,147.7507436310002,None,147.7507436310002,None,,,,,,,,,,,,,,,,,,,,,,,,,,,,,,,,,,,,,,,,,,,,001,143,2020_Feb_20_0933,spring_faces,3.1.5,60.06161444729609,
condition files/Stage0b_2.xlsx,0b,beta,none,g,"['h', 'g']","['Chess', 'Go']","[-0.15, 0.5]","[0.15, 0.5]",1,0,0,7,7,7,0,1,1,1,,,,,,,,,,,,,,,,,,,,,,,,,,,,,,,,,,,,,,,,,,,,,,,,,,,,,,,,,,,,,,,149.71715470800018,None,149.71715470800018,None,149.71715470800018,None,g,1,0.6712183550002919,151.2676610100002,None,151.2676610100002,None,151.2676610100002,None,152.00179391100028,None,152.00179391100028,None,152.00179391100028,None,152.00179391100028,None,,,,,,,,,,,,,,,,,,,,,,,,,,,,,,,,,,,,,,,,,,,,001,143,2020_Feb_20_0933,spring_faces,3.1.5,60.06161444729609,
condition files/Stage0b_1.xlsx,0b,alpha,none,h,"['h', 'g']","['Chess', 'Go']","[-0.15, 0.5]","[0.15, 0.5]",1,0,0,8,8,8,0,0,0,0,,,,,,,,,,,,,,,,,,,,,,,,,,,,,,,,,,,,,,,,,,,,,,,,,,,,,,,,,,,,,,,153.9833078800002,None,153.9833078800002,None,153.9833078800002,None,h,1,0.7898835860000872,155.51699470199992,None,155.51699470199992,None,155.51699470199992,None,156.36738594899998,None,156.36738594899998,None,156.36738594899998,None,156.36738594899998,None,,,,,,,,,,,,,,,,,,,,,,,,,,,,,,,,,,,,,,,,,,,,001,143,2020_Feb_20_0933,spring_faces,3.1.5,60.06161444729609,
condition files/Stage0b_1.xlsx,0b,none,beta,g,"['h', 'g']","['Chess', 'Go']","[-0.15, 0.5]","[0.15, 0.5]",0,1,0,8,8,8,0,1,1,1,,,,,,,,,,,,,,,,,,,,,,,,,,,,,,,,,,,,,,,,,,,,,,,,,,,,,,,,,,,,,,,158.3336607440001,None,158.3336607440001,None,158.3336607440001,None,g,1,0.646684660000119,159.88418246399988,None,159.88418246399988,None,159.88418246399988,None,160.5868422120002,None,160.5868422120002,None,160.5868422120002,None,160.5868422120002,None,,,,,,,,,,,,,,,,,,,,,,,,,,,,,,,,,,,,,,,,,,,,001,143,2020_Feb_20_0933,spring_faces,3.1.5,60.06161444729609,
condition files/Stage0b_2.xlsx,0b,none,alpha,h,"['h', 'g']","['Chess', 'Go']","[-0.15, 0.5]","[0.15, 0.5]",0,1,0,9,9,9,0,0,0,0,,,,,,,,,,,,,,,,,,,,,,,,,,,,,,,,,,,,,,,,,,,,,,,,,,,,,,,,,,,,,,,162.56727204100025,None,162.56727204100025,None,162.56727204100025,None,h,1,1.3105684140000449,164.10037963700006,None,164.10037963700006,None,164.10037963700006,None,165.46679936300006,None,165.46679936300006,None,165.46679936300006,None,165.46679936300006,None,,,,,,,,,,,,,,,,,,,,,,,,,,,,,,,,,,,,,,,,,,,,001,143,2020_Feb_20_0933,spring_faces,3.1.5,60.06161444729609,
condition files/Stage0b_2.xlsx,0b,beta,none,g,"['h', 'g']","['Chess', 'Go']","[-0.15, 0.5]","[0.15, 0.5]",1,0,0,9,9,9,0,1,1,1,,,,,,,,,,,,,,,,,,,,,,,,,,,,,,,,,,,,,,,,,,,,,,,,,,,,,,,,,,,,,,,167.43403278999995,None,167.43403278999995,None,167.43403278999995,None,g,1,0.7787378449997959,168.98406458299996,None,168.98406458299996,None,168.98406458299996,None,169.82105765200004,None,169.82105765200004,None,169.82105765200004,None,169.82105765200004,None,,,,,,,,,,,,,,,,,,,,,,,,,,,,,,,,,,,,,,,,,,,,001,143,2020_Feb_20_0933,spring_faces,3.1.5,60.06161444729609,
condition files/Stage0b_1.xlsx,0b,alpha,none,h,"['h', 'g']","['Chess', 'Go']","[-0.15, 0.5]","[0.15, 0.5]",1,0,0,10,10,10,0,0,0,0,,,,,,,,,,,,,,,,,,,,,,,,,,,,,,,,,,,,,,,,,,,,,,,,,,,,,,,,,,,,,,,171.80083242799992,None,171.80083242799992,None,171.80083242799992,None,h,1,0.780681229000038,173.33419733400024,None,173.33419733400024,None,173.33419733400024,None,174.16673794300004,None,174.16673794300004,None,174.16673794300004,None,174.16673794300004,None,,,,,,,,,,,,,,,,,,,,,,,,,,,,,,,,,,,,,,,,,,,,001,143,2020_Feb_20_0933,spring_faces,3.1.5,60.06161444729609,
condition files/Stage0b_1.xlsx,0b,none,beta,g,"['h', 'g']","['Chess', 'Go']","[-0.15, 0.5]","[0.15, 0.5]",0,1,0,10,10,10,0,1,1,1,,,,,,,,,,,,,,,,,,,,,,,,,,,,,,,,,,,,,,,,,,,,,,,,,,,,,,,,,,,,,,,176.1337901249999,None,176.1337901249999,None,176.1337901249999,None,g,1,1.0671003170000404,177.67175719600027,None,177.67175719600027,None,177.67175719600027,None,178.80162598900006,None,178.80162598900006,None,178.80162598900006,None,178.80162598900006,None,,,,,,,,,,,,,,,,,,,,,,,,,,,,,,,,,,,,,,,,,,,,001,143,2020_Feb_20_0933,spring_faces,3.1.5,60.06161444729609,
condition files/Stage0b_2.xlsx,0b,beta,none,g,"['h', 'g']","['Chess', 'Go']","[-0.15, 0.5]","[0.15, 0.5]",1,0,0,11,11,11,0,0,0,1,,,,,,,,,,,,,,,,,,,,,,,,,,,,,,,,,,,,,,,,,,,,,,,,,,,,,,,,,,,,,,,180.78394308199995,None,180.78394308199995,None,180.78394308199995,None,g,1,0.7249144200000046,182.31802373500022,None,182.31802373500022,None,182.31802373500022,None,183.10029105800004,None,183.10029105800004,None,183.10029105800004,None,183.10029105800004,None,,,,,,,,,,,,,,,,,,,,,,,,,,,,,,,,,,,,,,,,,,,,001,143,2020_Feb_20_0933,spring_faces,3.1.5,60.06161444729609,
condition files/Stage0b_2.xlsx,0b,none,alpha,h,"['h', 'g']","['Chess', 'Go']","[-0.15, 0.5]","[0.15, 0.5]",0,1,0,11,11,11,0,1,1,0,,,,,,,,,,,,,,,,,,,,,,,,,,,,,,,,,,,,,,,,,,,,,,,,,,,,,,,,,,,,,,,185.06665070600002,None,185.06665070600002,None,185.06665070600002,None,h,1,0.5541161650003232,186.600780494,None,186.600780494,None,186.600780494,None,187.21998459499991,None,187.21998459499991,None,187.21998459499991,None,187.21998459499991,None,,,,,,,,,,,,,,,,,,,,,,,,,,,,,,,,,,,,,,,,,,,,001,143,2020_Feb_20_0933,spring_faces,3.1.5,60.06161444729609,
condition files/Stage0c_1.xlsx,0c,alpha,phi,h,"['h', 'g']","['Chess', 'Go']","[-0.15, 0.5]","[0.15, 0.5]",1,1,0,12,12,12,0,0,0,1,,,,,,,,,,,,,,,,,,,,,,,,,,,,,,,,,,,,,,,,,,,,,,,,,,,,,,,,,,,,,,,189.20063686899994,None,189.20063686899994,None,189.20063686899994,None,g,0,2.691073139999844,190.7838672349999,None,190.7838672349999,None,190.7838672349999,None,193.53397932500002,None,193.53397932500002,None,193.53397932500002,None,193.53397932500002,None,,,,,,,,,,,,,,,,,,,,,,,,,,,,,,,,,,,,,,,,,,,,001,143,2020_Feb_20_0933,spring_faces,3.1.5,60.06161444729609,
condition files/Stage0c_1.xlsx,0c,phi,beta,g,"['h', 'g']","['Chess', 'Go']","[-0.15, 0.5]","[0.15, 0.5]",1,1,0,12,12,12,0,1,1,3,,,,,,,,,,,,,,,,,,,,,,,,,,,,,,,,,,,,,,,,,,,,,,,,,,,,,,,,,,,,,,,195.500302465,None,195.500302465,None,195.500302465,None,g,1,3.1615909890001603,197.0332559110002,None,197.0332559110002,None,197.0332559110002,None,200.250391004,None,200.250391004,None,200.250391004,None,200.250391004,None,,,,,,,,,,,,,,,,,,,,,,,,,,,,,,,,,,,,,,,,,,,,001,143,2020_Feb_20_0933,spring_faces,3.1.5,60.06161444729609,
condition files/Stage0c_1.xlsx,0c,theta,alpha,h,"['h', 'g']","['Chess', 'Go']","[-0.15, 0.5]","[0.15, 0.5]",1,1,0,12,12,12,0,2,2,0,,,,,,,,,,,,,,,,,,,,,,,,,,,,,,,,,,,,,,,,,,,,,,,,,,,,,,,,,,,,,,,202.2164984340002,None,202.2164984340002,None,202.2164984340002,None,h,1,1.4971192259999953,203.78576702300006,None,203.78576702300006,None,203.78576702300006,None,205.3337639199999,None,205.3337639199999,None,205.3337639199999,None,205.3337639199999,None,,,,,,,,,,,,,,,,,,,,,,,,,,,,,,,,,,,,,,,,,,,,001,143,2020_Feb_20_0933,spring_faces,3.1.5,60.06161444729609,
condition files/Stage0c_1.xlsx,0c,beta,theta,g,"['h', 'g']","['Chess', 'Go']","[-0.15, 0.5]","[0.15, 0.5]",1,1,0,12,12,12,0,3,3,2,,,,,,,,,,,,,,,,,,,,,,,,,,,,,,,,,,,,,,,,,,,,,,,,,,,,,,,,,,,,,,,207.30060027800027,None,207.30060027800027,None,207.30060027800027,None,g,1,1.0888090049998027,208.83406089500022,None,208.83406089500022,None,208.83406089500022,None,209.98401989700005,None,209.98401989700005,None,209.98401989700005,None,209.98401989700005,None,,,,,,,,,,,,,,,,,,,,,,,,,,,,,,,,,,,,,,,,,,,,001,143,2020_Feb_20_0933,spring_faces,3.1.5,60.06161444729609,
condition files/Stage0c_2.xlsx,0c,theta,beta,g,"['h', 'g']","['Chess', 'Go']","[-0.15, 0.5]","[0.15, 0.5]",1,1,0,13,13,13,0,0,0,2,,,,,,,,,,,,,,,,,,,,,,,,,,,,,,,,,,,,,,,,,,,,,,,,,,,,,,,,,,,,,,,211.98400833000005,None,211.98400833000005,None,211.98400833000005,None,g,1,2.982808789000046,213.50006283599987,None,213.50006283599987,None,213.50006283599987,None,216.5180744270001,None,216.5180744270001,None,216.5180744270001,None,216.5180744270001,None,,,,,,,,,,,,,,,,,,,,,,,,,,,,,,,,,,,,,,,,,,,,001,143,2020_Feb_20_0933,spring_faces,3.1.5,60.06161444729609,
condition files/Stage0c_2.xlsx,0c,alpha,theta,h,"['h', 'g']","['Chess', 'Go']","[-0.15, 0.5]","[0.15, 0.5]",1,1,0,13,13,13,0,1,1,0,,,,,,,,,,,,,,,,,,,,,,,,,,,,,,,,,,,,,,,,,,,,,,,,,,,,,,,,,,,,,,,218.50035423600002,None,218.50035423600002,None,218.50035423600002,None,h,1,0.9610248210001373,220.03382430700003,None,220.03382430700003,None,220.03382430700003,None,221.05054080800028,None,221.05054080800028,None,221.05054080800028,None,221.05054080800028,None,,,,,,,,,,,,,,,,,,,,,,,,,,,,,,,,,,,,,,,,,,,,001,143,2020_Feb_20_0933,spring_faces,3.1.5,60.06161444729609,
condition files/Stage0c_2.xlsx,0c,phi,alpha,h,"['h', 'g']","['Chess', 'Go']","[-0.15, 0.5]","[0.15, 0.5]",1,1,0,13,13,13,0,2,2,1,,,,,,,,,,,,,,,,,,,,,,,,,,,,,,,,,,,,,,,,,,,,,,,,,,,,,,,,,,,,,,,223.016450436,None,223.016450436,None,223.016450436,None,h,1,0.9883295599997837,224.5505445409999,None,224.5505445409999,None,224.5505445409999,None,225.58512121100011,None,225.58512121100011,None,225.58512121100011,None,225.58512121100011,None,,,,,,,,,,,,,,,,,,,,,,,,,,,,,,,,,,,,,,,,,,,,001,143,2020_Feb_20_0933,spring_faces,3.1.5,60.06161444729609,
condition files/Stage0c_2.xlsx,0c,beta,phi,g,"['h', 'g']","['Chess', 'Go']","[-0.15, 0.5]","[0.15, 0.5]",1,1,0,13,13,13,0,3,3,3,,,,,,,,,,,,,,,,,,,,,,,,,,,,,,,,,,,,,,,,,,,,,,,,,,,,,,,,,,,,,,,227.56706800300026,None,227.56706800300026,None,227.56706800300026,None,g,1,1.030188950000138,229.10063396600026,None,229.10063396600026,None,229.10063396600026,None,230.18389530700006,None,230.18389530700006,None,230.18389530700006,None,230.18389530700006,None,,,,,,,,,,,,,,,,,,,,,,,,,,,,,,,,,,,,,,,,,,,,001,143,2020_Feb_20_0933,spring_faces,3.1.5,60.06161444729609,
condition files/Stage0c_1.xlsx,0c,alpha,phi,h,"['h', 'g']","['Chess', 'Go']","[-0.15, 0.5]","[0.15, 0.5]",1,1,0,14,14,14,0,0,0,1,,,,,,,,,,,,,,,,,,,,,,,,,,,,,,,,,,,,,,,,,,,,,,,,,,,,,,,,,,,,,,,232.16698453800018,None,232.16698453800018,None,232.16698453800018,None,h,1,0.8142859649997263,233.70059212600017,None,233.70059212600017,None,233.70059212600017,None,234.56731436500013,None,234.56731436500013,None,234.56731436500013,None,234.56731436500013,None,,,,,,,,,,,,,,,,,,,,,,,,,,,,,,,,,,,,,,,,,,,,001,143,2020_Feb_20_0933,spring_faces,3.1.5,60.06161444729609,
condition files/Stage0c_1.xlsx,0c,phi,beta,g,"['h', 'g']","['Chess', 'Go']","[-0.15, 0.5]","[0.15, 0.5]",1,1,0,14,14,14,0,1,1,3,,,,,,,,,,,,,,,,,,,,,,,,,,,,,,,,,,,,,,,,,,,,,,,,,,,,,,,,,,,,,,,236.53369980200023,None,236.53369980200023,None,236.53369980200023,None,g,1,1.615807298999698,238.06704911899988,None,238.06704911899988,None,238.06704911899988,None,239.73389437700007,None,239.73389437700007,None,239.73389437700007,None,239.73389437700007,None,,,,,,,,,,,,,,,,,,,,,,,,,,,,,,,,,,,,,,,,,,,,001,143,2020_Feb_20_0933,spring_faces,3.1.5,60.06161444729609,
condition files/Stage0c_1.xlsx,0c,theta,alpha,h,"['h', 'g']","['Chess', 'Go']","[-0.15, 0.5]","[0.15, 0.5]",1,1,0,14,14,14,0,2,2,0,,,,,,,,,,,,,,,,,,,,,,,,,,,,,,,,,,,,,,,,,,,,,,,,,,,,,,,,,,,,,,,241.70016230600004,None,241.70016230600004,None,241.70016230600004,None,h,1,0.6088869929999419,243.23402776800003,None,243.23402776800003,None,243.23402776800003,None,243.90017727900022,None,243.90017727900022,None,243.90017727900022,None,243.90017727900022,None,,,,,,,,,,,,,,,,,,,,,,,,,,,,,,,,,,,,,,,,,,,,001,143,2020_Feb_20_0933,spring_faces,3.1.5,60.06161444729609,
condition files/Stage0c_1.xlsx,0c,beta,theta,g,"['h', 'g']","['Chess', 'Go']","[-0.15, 0.5]","[0.15, 0.5]",1,1,0,14,14,14,0,3,3,2,,,,,,,,,,,,,,,,,,,,,,,,,,,,,,,,,,,,,,,,,,,,,,,,,,,,,,,,,,,,,,,245.86733092400027,None,245.86733092400027,None,245.86733092400027,None,g,1,0.8422426679999262,247.40067325400014,None,247.40067325400014,None,247.40067325400014,None,248.30017845700013,None,248.30017845700013,None,248.30017845700013,None,248.30017845700013,None,,,,,,,,,,,,,,,,,,,,,,,,,,,,,,,,,,,,,,,,,,,,001,143,2020_Feb_20_0933,spring_faces,3.1.5,60.06161444729609,
condition files/Stage0c_2.xlsx,0c,beta,phi,g,"['h', 'g']","['Chess', 'Go']","[-0.15, 0.5]","[0.15, 0.5]",1,1,0,15,15,15,0,0,0,3,,,,,,,,,,,,,,,,,,,,,,,,,,,,,,,,,,,,,,,,,,,,,,,,,,,,,,,,,,,,,,,250.28422496400026,None,250.28422496400026,None,250.28422496400026,None,g,1,1.3378535110000485,251.81707658200003,None,251.81707658200003,None,251.81707658200003,None,253.20237587200018,None,253.20237587200018,None,253.20237587200018,None,253.20237587200018,None,,,,,,,,,,,,,,,,,,,,,,,,,,,,,,,,,,,,,,,,,,,,001,143,2020_Feb_20_0933,spring_faces,3.1.5,60.06161444729609,
condition files/Stage0c_2.xlsx,0c,alpha,theta,h,"['h', 'g']","['Chess', 'Go']","[-0.15, 0.5]","[0.15, 0.5]",1,1,0,15,15,15,0,1,1,0,,,,,,,,,,,,,,,,,,,,,,,,,,,,,,,,,,,,,,,,,,,,,,,,,,,,,,,,,,,,,,,255.18363821399998,None,255.18363821399998,None,255.18363821399998,None,h,1,1.01361535299975,256.717212391,None,256.717212391,None,256.717212391,None,257.7834573350001,None,257.7834573350001,None,257.7834573350001,None,257.7834573350001,None,,,,,,,,,,,,,,,,,,,,,,,,,,,,,,,,,,,,,,,,,,,,001,143,2020_Feb_20_0933,spring_faces,3.1.5,60.06161444729609,
condition files/Stage0c_2.xlsx,0c,theta,beta,g,"['h', 'g']","['Chess', 'Go']","[-0.15, 0.5]","[0.15, 0.5]",1,1,0,15,15,15,0,2,2,2,,,,,,,,,,,,,,,,,,,,,,,,,,,,,,,,,,,,,,,,,,,,,,,,,,,,,,,,,,,,,,,259.75017111199986,None,259.75017111199986,None,259.75017111199986,None,g,1,2.735226990999763,261.28363573700017,None,261.28363573700017,None,261.28363573700017,None,264.083994181,None,264.083994181,None,264.083994181,None,264.083994181,None,,,,,,,,,,,,,,,,,,,,,,,,,,,,,,,,,,,,,,,,,,,,001,143,2020_Feb_20_0933,spring_faces,3.1.5,60.06161444729609,
condition files/Stage0c_2.xlsx,0c,phi,alpha,h,"['h', 'g']","['Chess', 'Go']","[-0.15, 0.5]","[0.15, 0.5]",1,1,0,15,15,15,0,3,3,1,,,,,,,,,,,,,,,,,,,,,,,,,,,,,,,,,,,,,,,,,,,,,,,,,,,,,,,,,,,,,,,266.04976633000024,None,266.04976633000024,None,266.04976633000024,None,h,1,0.931506318999709,267.58336225699986,None,267.58336225699986,None,267.58336225699986,None,268.5672978450002,None,268.5672978450002,None,268.5672978450002,None,268.5672978450002,None,,,,,,,,,,,,,,,,,,,,,,,,,,,,,,,,,,,,,,,,,,,,001,143,2020_Feb_20_0933,spring_faces,3.1.5,60.06161444729609,
condition files/Stage0c_1.xlsx,0c,phi,beta,g,"['h', 'g']","['Chess', 'Go']","[-0.15, 0.5]","[0.15, 0.5]",1,1,0,16,16,16,0,0,0,3,,,,,,,,,,,,,,,,,,,,,,,,,,,,,,,,,,,,,,,,,,,,,,,,,,,,,,,,,,,,,,,270.55058682200024,None,270.55058682200024,None,270.55058682200024,None,g,1,1.7268455430003087,272.08409386899984,None,272.08409386899984,None,272.08409386899984,None,273.86729312700027,None,273.86729312700027,None,273.86729312700027,None,273.86729312700027,None,,,,,,,,,,,,,,,,,,,,,,,,,,,,,,,,,,,,,,,,,,,,001,143,2020_Feb_20_0933,spring_faces,3.1.5,60.06161444729609,
condition files/Stage0c_1.xlsx,0c,beta,theta,g,"['h', 'g']","['Chess', 'Go']","[-0.15, 0.5]","[0.15, 0.5]",1,1,0,16,16,16,0,1,1,2,,,,,,,,,,,,,,,,,,,,,,,,,,,,,,,,,,,,,,,,,,,,,,,,,,,,,,,,,,,,,,,275.8337057210001,None,275.8337057210001,None,275.8337057210001,None,g,1,0.9560537159995874,277.36682103500016,None,277.36682103500016,None,277.36682103500016,None,278.3682368909999,None,278.3682368909999,None,278.3682368909999,None,278.3682368909999,None,,,,,,,,,,,,,,,,,,,,,,,,,,,,,,,,,,,,,,,,,,,,001,143,2020_Feb_20_0933,spring_faces,3.1.5,60.06161444729609,
condition files/Stage0c_1.xlsx,0c,alpha,phi,h,"['h', 'g']","['Chess', 'Go']","[-0.15, 0.5]","[0.15, 0.5]",1,1,0,16,16,16,0,2,2,1,,,,,,,,,,,,,,,,,,,,,,,,,,,,,,,,,,,,,,,,,,,,,,,,,,,,,,,,,,,,,,,280.349785421,None,280.349785421,None,280.349785421,None,h,1,1.4151729440000054,281.88369033300023,None,281.88369033300023,None,281.88369033300023,None,283.35072475900006,None,283.35072475900006,None,283.35072475900006,None,283.35072475900006,None,,,,,,,,,,,,,,,,,,,,,,,,,,,,,,,,,,,,,,,,,,,,001,143,2020_Feb_20_0933,spring_faces,3.1.5,60.06161444729609,
condition files/Stage0c_1.xlsx,0c,theta,alpha,h,"['h', 'g']","['Chess', 'Go']","[-0.15, 0.5]","[0.15, 0.5]",1,1,0,16,16,16,0,3,3,0,,,,,,,,,,,,,,,,,,,,,,,,,,,,,,,,,,,,,,,,,,,,,,,,,,,,,,,,,,,,,,,285.31702758300025,None,285.31702758300025,None,285.31702758300025,None,h,1,0.736215909999828,286.8506476140001,None,286.8506476140001,None,286.8506476140001,None,287.63400442700004,None,287.63400442700004,None,287.63400442700004,None,287.63400442700004,None,,,,,,,,,,,,,,,,,,,,,,,,,,,,,,,,,,,,,,,,,,,,001,143,2020_Feb_20_0933,spring_faces,3.1.5,60.06161444729609,
condition files/Stage0c_2.xlsx,0c,phi,alpha,h,"['h', 'g']","['Chess', 'Go']","[-0.15, 0.5]","[0.15, 0.5]",1,1,0,17,17,17,0,0,0,1,,,,,,,,,,,,,,,,,,,,,,,,,,,,,,,,,,,,,,,,,,,,,,,,,,,,,,,,,,,,,,,289.63392754100005,None,289.63392754100005,None,289.63392754100005,None,h,1,1.1715945149999243,291.1672882940002,None,291.1672882940002,None,291.1672882940002,None,292.38562355600016,None,292.38562355600016,None,292.38562355600016,None,292.38562355600016,None,,,,,,,,,,,,,,,,,,,,,,,,,,,,,,,,,,,,,,,,,,,,001,143,2020_Feb_20_0933,spring_faces,3.1.5,60.06161444729609,
condition files/Stage0c_2.xlsx,0c,theta,beta,g,"['h', 'g']","['Chess', 'Go']","[-0.15, 0.5]","[0.15, 0.5]",1,1,0,17,17,17,0,1,1,2,,,,,,,,,,,,,,,,,,,,,,,,,,,,,,,,,,,,,,,,,,,,,,,,,,,,,,,,,,,,,,,294.3671352870001,None,294.3671352870001,None,294.3671352870001,None,g,1,0.982325026000126,295.90054605800015,None,295.90054605800015,None,295.90054605800015,None,296.9341768879999,None,296.9341768879999,None,296.9341768879999,None,296.9341768879999,None,,,,,,,,,,,,,,,,,,,,,,,,,,,,,,,,,,,,,,,,,,,,001,143,2020_Feb_20_0933,spring_faces,3.1.5,60.06161444729609,
condition files/Stage0c_2.xlsx,0c,beta,phi,g,"['h', 'g']","['Chess', 'Go']","[-0.15, 0.5]","[0.15, 0.5]",1,1,0,17,17,17,0,2,2,3,,,,,,,,,,,,,,,,,,,,,,,,,,,,,,,,,,,,,,,,,,,,,,,,,,,,,,,,,,,,,,,298.9004168900001,None,298.9004168900001,None,298.9004168900001,None,g,1,0.8329411009999603,300.4339096240001,None,300.4339096240001,None,300.4339096240001,None,301.302453193,None,301.302453193,None,301.302453193,None,301.302453193,None,,,,,,,,,,,,,,,,,,,,,,,,,,,,,,,,,,,,,,,,,,,,001,143,2020_Feb_20_0933,spring_faces,3.1.5,60.06161444729609,
condition files/Stage0c_2.xlsx,0c,alpha,theta,h,"['h', 'g']","['Chess', 'Go']","[-0.15, 0.5]","[0.15, 0.5]",1,1,0,17,17,17,0,3,3,0,,,,,,,,,,,,,,,,,,,,,,,,,,,,,,,,,,,,,,,,,,,,,,,,,,,,,,,,,,,,,,,303.28323515700004,None,303.28323515700004,None,303.28323515700004,None,h,1,1.0257482359997994,304.81718353199994,None,304.81718353199994,None,304.81718353199994,None,305.89980375799996,None,305.89980375799996,None,305.89980375799996,None,305.89980375799996,None,,,,,,,,,,,,,,,,,,,,,,,,,,,,,,,,,,,,,,,,,,,,001,143,2020_Feb_20_0933,spring_faces,3.1.5,60.06161444729609,
,,,,,,,,,,,,,,,,,,,,,,,,,,,,,,,,,,,,,,,,,,,,,,,,,,,,,,,,,,,,,,,,,,,,,,,,,,,,,,,,,,,,,,,,,,,,,,,,,,,,,,,,307.8840328199999,None,space,2.1911878999999317,312.88376396500007,None,,,,,,,,,,,,,,,,,,,,,,,,,,,,,,,,,,,,,,001,143,2020_Feb_20_0933,spring_faces,3.1.5,60.06161444729609,
condition files/Stage1_1.xlsx,,T2,B2,m,"['c', 'm']","['Clue', 'Monopoly']","[-0.15, 0.5]","[0.15, 0.5]",1,1,,,,,,,,,0,0,0,0,0,0,0,3,,,,,,,,,,,,,,,,,,,,,,,,,,,,,,,,,,,,,,,,,,,,,,,,,,,,,,,315.1838836840002,None,315.1838836840002,None,315.1838836840002,None,c,0,0.518975581000177,316.683914793,None,316.683914793,None,316.683914793,None,317.28386649899994,None,317.28386649899994,None,317.28386649899994,None,317.28386649899994,None,,,,,,,312.88376396500007,None,,,,,,,,,,,,,,,,,,,,,,,,,,,,,,,,,,,,001,143,2020_Feb_20_0933,spring_faces,3.1.5,60.06161444729609,
condition files/Stage1_1.xlsx,,B4,T4,m,"['c', 'm']","['Clue', 'Monopoly']","[-0.15, 0.5]","[0.15, 0.5]",1,1,,,,,,,,,0,0,0,0,0,1,1,7,,,,,,,,,,,,,,,,,,,,,,,,,,,,,,,,,,,,,,,,,,,,,,,,,,,,,,,319.2339396269999,None,319.2339396269999,None,319.2339396269999,None,c,0,2.368343452999852,320.8504935830001,None,320.8504935830001,None,320.8504935830001,None,323.283694795,None,323.283694795,None,323.283694795,None,323.283694795,None,,,,,,,,,,,,,,,,,,,,,,,,,,,,,,,,,,,,,,,,,,,,001,143,2020_Feb_20_0933,spring_faces,3.1.5,60.06161444729609,
condition files/Stage1_1.xlsx,,B2,T1,m,"['c', 'm']","['Clue', 'Monopoly']","[-0.15, 0.5]","[0.15, 0.5]",1,1,,,,,,,,,0,0,0,0,0,2,2,2,,,,,,,,,,,,,,,,,,,,,,,,,,,,,,,,,,,,,,,,,,,,,,,,,,,,,,,325.2504552579999,None,325.2504552579999,None,325.2504552579999,None,c,0,2.8652147740003784,326.83364564700014,None,326.83364564700014,None,326.83364564700014,None,329.750939777,None,329.750939777,None,329.750939777,None,329.750939777,None,,,,,,,,,,,,,,,,,,,,,,,,,,,,,,,,,,,,,,,,,,,,001,143,2020_Feb_20_0933,spring_faces,3.1.5,60.06161444729609,
condition files/Stage1_1.xlsx,,T3,B4,c,"['c', 'm']","['Clue', 'Monopoly']","[-0.15, 0.5]","[0.15, 0.5]",1,1,,,,,,,,,0,0,0,0,0,3,3,5,,,,,,,,,,,,,,,,,,,,,,,,,,,,,,,,,,,,,,,,,,,,,,,,,,,,,,,331.7167632410001,None,331.7167632410001,None,331.7167632410001,None,m,0,1.4715830200002529,333.26728750300026,None,333.26728750300026,None,333.26728750300026,None,334.8017969050002,None,334.8017969050002,None,334.8017969050002,None,334.8017969050002,None,,,,,,,,,,,,,,,,,,,,,,,,,,,,,,,,,,,,,,,,,,,,001,143,2020_Feb_20_0933,spring_faces,3.1.5,60.06161444729609,
condition files/Stage1_1.xlsx,,T4,B3,m,"['c', 'm']","['Clue', 'Monopoly']","[-0.15, 0.5]","[0.15, 0.5]",1,1,,,,,,,,,0,0,0,0,0,4,4,6,,,,,,,,,,,,,,,,,,,,,,,,,,,,,,,,,,,,,,,,,,,,,,,,,,,,,,,336.7671489919999,None,336.7671489919999,None,336.7671489919999,None,m,1,1.6371541650000836,338.3177205770003,None,338.3177205770003,None,338.3177205770003,None,340.018343231,None,340.018343231,None,340.018343231,None,340.018343231,None,,,,,,,,,,,,,,,,,,,,,,,,,,,,,,,,,,,,,,,,,,,,001,143,2020_Feb_20_0933,spring_faces,3.1.5,60.06161444729609,
condition files/Stage1_1.xlsx,,T1,B1,c,"['c', 'm']","['Clue', 'Monopoly']","[-0.15, 0.5]","[0.15, 0.5]",1,1,,,,,,,,,0,0,0,0,0,5,5,0,,,,,,,,,,,,,,,,,,,,,,,,,,,,,,,,,,,,,,,,,,,,,,,,,,,,,,,341.9838743529999,None,341.9838743529999,None,341.9838743529999,None,c,1,4.4202416340003765,343.51865450800005,None,343.51865450800005,None,343.51865450800005,None,348.0031845120002,None,348.0031845120002,None,348.0031845120002,None,348.0031845120002,None,,,,,,,,,,,,,,,,,,,,,,,,,,,,,,,,,,,,,,,,,,,,001,143,2020_Feb_20_0933,spring_faces,3.1.5,60.06161444729609,
condition files/Stage1_1.xlsx,,B1,T2,c,"['c', 'm']","['Clue', 'Monopoly']","[-0.15, 0.5]","[0.15, 0.5]",1,1,,,,,,,,,0,0,0,0,0,6,6,1,,,,,,,,,,,,,,,,,,,,,,,,,,,,,,,,,,,,,,,,,,,,,,,,,,,,,,,349.9665141730002,None,349.9665141730002,None,349.9665141730002,None,m,0,2.9186603069997545,351.50022967099994,None,351.50022967099994,None,351.50022967099994,None,354.484286677,None,354.484286677,None,354.484286677,None,354.484286677,None,,,,,,,,,,,,,,,,,,,,,,,,,,,,,,,,,,,,,,,,,,,,001,143,2020_Feb_20_0933,spring_faces,3.1.5,60.06161444729609,
condition files/Stage1_1.xlsx,,B3,T3,c,"['c', 'm']","['Clue', 'Monopoly']","[-0.15, 0.5]","[0.15, 0.5]",1,1,,,,,,,,,0,0,0,0,0,7,7,4,,,,,,,,,,,,,,,,,,,,,,,,,,,,,,,,,,,,,,,,,,,,,,,,,,,,,,,356.45049268,None,356.45049268,None,356.45049268,None,m,0,1.3793645060000017,357.9834928139999,None,357.9834928139999,None,357.9834928139999,None,359.4172120930002,None,359.4172120930002,None,359.4172120930002,None,359.4172120930002,None,,,,,,,,,,,,,,,,,,,,,,,,,,,,,,,,,,,,,,,,,,,,001,143,2020_Feb_20_0933,spring_faces,3.1.5,60.06161444729609,
condition files/Stage1_2.xlsx,,B1,T1,c,"['c', 'm']","['Clue', 'Monopoly']","[-0.15, 0.5]","[0.15, 0.5]",1,1,,,,,,,,,0,1,1,1,0,0,0,0,,,,,,,,,,,,,,,,,,,,,,,,,,,,,,,,,,,,,,,,,,,,,,,,,,,,,,,361.45043359400006,None,361.45043359400006,None,361.45043359400006,None,c,1,10.506731599999966,362.93620643600025,None,362.93620643600025,None,362.93620643600025,None,373.499860292,None,373.499860292,None,373.499860292,None,373.499860292,None,,,,,,,,,,,,,,,,,,,,,,,,,,,,,,,,,,,,,,,,,,,,001,143,2020_Feb_20_0933,spring_faces,3.1.5,60.06161444729609,
condition files/Stage1_2.xlsx,,B4,T3,c,"['c', 'm']","['Clue', 'Monopoly']","[-0.15, 0.5]","[0.15, 0.5]",1,1,,,,,,,,,0,1,1,1,0,1,1,5,,,,,,,,,,,,,,,,,,,,,,,,,,,,,,,,,,,,,,,,,,,,,,,,,,,,,,,375.46709607599996,None,375.46709607599996,None,375.46709607599996,None,m,0,1.3041413319997446,377.00280384200005,None,377.00280384200005,None,377.00280384200005,None,378.3673816630003,None,378.3673816630003,None,378.3673816630003,None,378.3673816630003,None,,,,,,,,,,,,,,,,,,,,,,,,,,,,,,,,,,,,,,,,,,,,001,143,2020_Feb_20_0933,spring_faces,3.1.5,60.06161444729609,
condition files/Stage1_2.xlsx,,T3,B3,c,"['c', 'm']","['Clue', 'Monopoly']","[-0.15, 0.5]","[0.15, 0.5]",1,1,,,,,,,,,0,1,1,1,0,2,2,4,,,,,,,,,,,,,,,,,,,,,,,,,,,,,,,,,,,,,,,,,,,,,,,,,,,,,,,380.333308835,None,380.333308835,None,380.333308835,None,c,1,1.9428260129998307,381.86813133700025,None,381.86813133700025,None,381.86813133700025,None,383.8669040079999,None,383.8669040079999,None,383.8669040079999,None,383.8669040079999,None,,,,,,,,,,,,,,,,,,,,,,,,,,,,,,,,,,,,,,,,,,,,001,143,2020_Feb_20_0933,spring_faces,3.1.5,60.06161444729609,
condition files/Stage1_2.xlsx,,T1,B2,m,"['c', 'm']","['Clue', 'Monopoly']","[-0.15, 0.5]","[0.15, 0.5]",1,1,,,,,,,,,0,1,1,1,0,3,3,2,,,,,,,,,,,,,,,,,,,,,,,,,,,,,,,,,,,,,,,,,,,,,,,,,,,,,,,385.8337559490001,None,385.8337559490001,None,385.8337559490001,None,m,1,2.3960638180001297,387.366810986,None,387.366810986,None,387.366810986,None,389.83410839299995,None,389.83410839299995,None,389.83410839299995,None,389.83410839299995,None,,,,,,,,,,,,,,,,,,,,,,,,,,,,,,,,,,,,,,,,,,,,001,143,2020_Feb_20_0933,spring_faces,3.1.5,60.06161444729609,
condition files/Stage1_2.xlsx,,B3,T4,m,"['c', 'm']","['Clue', 'Monopoly']","[-0.15, 0.5]","[0.15, 0.5]",1,1,,,,,,,,,0,1,1,1,0,4,4,6,,,,,,,,,,,,,,,,,,,,,,,,,,,,,,,,,,,,,,,,,,,,,,,,,,,,,,,391.78344992500024,None,391.78344992500024,None,391.78344992500024,None,c,0,2.6689724010002465,393.333946363,None,393.333946363,None,393.333946363,None,396.0673563380001,None,396.0673563380001,None,396.0673563380001,None,396.0673563380001,None,,,,,,,,,,,,,,,,,,,,,,,,,,,,,,,,,,,,,,,,,,,,001,143,2020_Feb_20_0933,spring_faces,3.1.5,60.06161444729609,
condition files/Stage1_2.xlsx,,T2,B1,c,"['c', 'm']","['Clue', 'Monopoly']","[-0.15, 0.5]","[0.15, 0.5]",1,1,,,,,,,,,0,1,1,1,0,5,5,1,,,,,,,,,,,,,,,,,,,,,,,,,,,,,,,,,,,,,,,,,,,,,,,,,,,,,,,398.0337591040002,None,398.0337591040002,None,398.0337591040002,None,c,1,4.434899392999796,399.58397019099993,None,399.58397019099993,None,399.58397019099993,None,404.084235584,None,404.084235584,None,404.084235584,None,404.084235584,None,,,,,,,,,,,,,,,,,,,,,,,,,,,,,,,,,,,,,,,,,,,,001,143,2020_Feb_20_0933,spring_faces,3.1.5,60.06161444729609,
condition files/Stage1_2.xlsx,,B2,T2,m,"['c', 'm']","['Clue', 'Monopoly']","[-0.15, 0.5]","[0.15, 0.5]",1,1,,,,,,,,,0,1,1,1,0,6,6,3,,,,,,,,,,,,,,,,,,,,,,,,,,,,,,,,,,,,,,,,,,,,,,,,,,,,,,,406.05059684000025,None,406.05059684000025,None,406.05059684000025,None,m,1,2.0833167569999205,407.5835736889999,None,407.5835736889999,None,407.5835736889999,None,409.7194764860001,None,409.7194764860001,None,409.7194764860001,None,409.7194764860001,None,,,,,,,,,,,,,,,,,,,,,,,,,,,,,,,,,,,,,,,,,,,,001,143,2020_Feb_20_0933,spring_faces,3.1.5,60.06161444729609,
condition files/Stage1_2.xlsx,,T4,B4,m,"['c', 'm']","['Clue', 'Monopoly']","[-0.15, 0.5]","[0.15, 0.5]",1,1,,,,,,,,,0,1,1,1,0,7,7,7,,,,,,,,,,,,,,,,,,,,,,,,,,,,,,,,,,,,,,,,,,,,,,,,,,,,,,,411.6830925600002,None,411.6830925600002,None,411.6830925600002,None,m,1,1.9200675100000808,413.2188274360001,None,413.2188274360001,None,413.2188274360001,None,415.20081795299984,None,415.20081795299984,None,415.20081795299984,None,415.20081795299984,None,,,,,,,,,,,,,,,,,,,,,,,,,,,,,,,,,,,,,,,,,,,,001,143,2020_Feb_20_0933,spring_faces,3.1.5,60.06161444729609,
condition files/Stage1_1.xlsx,,B2,T1,m,"['c', 'm']","['Clue', 'Monopoly']","[-0.15, 0.5]","[0.15, 0.5]",1,1,,,,,,,,,0,2,2,2,0,0,0,2,,,,,,,,,,,,,,,,,,,,,,,,,,,,,,,,,,,,,,,,,,,,,,,,,,,,,,,417.1840722910001,None,417.1840722910001,None,417.1840722910001,None,c,0,3.029573220999737,418.73327343200026,None,418.73327343200026,None,418.73327343200026,None,421.8176631340002,None,421.8176631340002,None,421.8176631340002,None,421.8176631340002,None,,,,,,,,,,,,,,,,,,,,,,,,,,,,,,,,,,,,,,,,,,,,001,143,2020_Feb_20_0933,spring_faces,3.1.5,60.06161444729609,
condition files/Stage1_1.xlsx,,B3,T3,c,"['c', 'm']","['Clue', 'Monopoly']","[-0.15, 0.5]","[0.15, 0.5]",1,1,,,,,,,,,0,2,2,2,0,1,1,4,,,,,,,,,,,,,,,,,,,,,,,,,,,,,,,,,,,,,,,,,,,,,,,,,,,,,,,423.783081088,None,423.783081088,None,423.783081088,None,m,0,4.459238999999798,425.31959393900024,None,425.31959393900024,None,425.31959393900024,None,429.8343810460001,None,429.8343810460001,None,429.8343810460001,None,429.8343810460001,None,,,,,,,,,,,,,,,,,,,,,,,,,,,,,,,,,,,,,,,,,,,,001,143,2020_Feb_20_0933,spring_faces,3.1.5,60.06161444729609,
condition files/Stage1_1.xlsx,,B4,T4,m,"['c', 'm']","['Clue', 'Monopoly']","[-0.15, 0.5]","[0.15, 0.5]",1,1,,,,,,,,,0,2,2,2,0,2,2,7,,,,,,,,,,,,,,,,,,,,,,,,,,,,,,,,,,,,,,,,,,,,,,,,,,,,,,,431.80042747100015,None,431.80042747100015,None,431.80042747100015,None,c,0,1.7245362680000653,433.35040455800026,None,433.35040455800026,None,433.35040455800026,None,435.149995194,None,435.149995194,None,435.149995194,None,435.149995194,None,,,,,,,,,,,,,,,,,,,,,,,,,,,,,,,,,,,,,,,,,,,,001,143,2020_Feb_20_0933,spring_faces,3.1.5,60.06161444729609,
condition files/Stage1_1.xlsx,,T4,B3,m,"['c', 'm']","['Clue', 'Monopoly']","[-0.15, 0.5]","[0.15, 0.5]",1,1,,,,,,,,,0,2,2,2,0,3,3,6,,,,,,,,,,,,,,,,,,,,,,,,,,,,,,,,,,,,,,,,,,,,,,,,,,,,,,,437.09983342800024,None,437.09983342800024,None,437.09983342800024,None,m,1,0.9837879070000781,438.63503210399995,None,438.63503210399995,None,438.63503210399995,None,439.68406572899994,None,439.68406572899994,None,439.68406572899994,None,439.68406572899994,None,,,,,,,,,,,,,,,,,,,,,,,,,,,,,,,,,,,,,,,,,,,,001,143,2020_Feb_20_0933,spring_faces,3.1.5,60.06161444729609,
condition files/Stage1_1.xlsx,,T1,B1,c,"['c', 'm']","['Clue', 'Monopoly']","[-0.15, 0.5]","[0.15, 0.5]",1,1,,,,,,,,,0,2,2,2,0,4,4,0,,,,,,,,,,,,,,,,,,,,,,,,,,,,,,,,,,,,,,,,,,,,,,,,,,,,,,,441.650384089,None,441.650384089,None,441.650384089,None,c,1,1.8576921110002331,443.18526304199986,None,443.18526304199986,None,443.18526304199986,None,445.1007465820003,None,445.1007465820003,None,445.1007465820003,None,445.1007465820003,None,,,,,,,,,,,,,,,,,,,,,,,,,,,,,,,,,,,,,,,,,,,,001,143,2020_Feb_20_0933,spring_faces,3.1.5,60.06161444729609,
condition files/Stage1_1.xlsx,,T3,B4,c,"['c', 'm']","['Clue', 'Monopoly']","[-0.15, 0.5]","[0.15, 0.5]",1,1,,,,,,,,,0,2,2,2,0,5,5,5,,,,,,,,,,,,,,,,,,,,,,,,,,,,,,,,,,,,,,,,,,,,,,,,,,,,,,,447.0671983719999,None,447.0671983719999,None,447.0671983719999,None,m,0,1.5303455359999134,448.60054359800006,None,448.60054359800006,None,448.60054359800006,None,450.183934313,None,450.183934313,None,450.183934313,None,450.183934313,None,,,,,,,,,,,,,,,,,,,,,,,,,,,,,,,,,,,,,,,,,,,,001,143,2020_Feb_20_0933,spring_faces,3.1.5,60.06161444729609,
condition files/Stage1_1.xlsx,,T2,B2,m,"['c', 'm']","['Clue', 'Monopoly']","[-0.15, 0.5]","[0.15, 0.5]",1,1,,,,,,,,,0,2,2,2,0,6,6,3,,,,,,,,,,,,,,,,,,,,,,,,,,,,,,,,,,,,,,,,,,,,,,,,,,,,,,,452.1503580110002,None,452.1503580110002,None,452.1503580110002,None,m,1,0.5410549509997509,453.68583460399987,None,453.68583460399987,None,453.68583460399987,None,454.2856593480001,None,454.2856593480001,None,454.2856593480001,None,454.2856593480001,None,,,,,,,,,,,,,,,,,,,,,,,,,,,,,,,,,,,,,,,,,,,,001,143,2020_Feb_20_0933,spring_faces,3.1.5,60.06161444729609,
condition files/Stage1_1.xlsx,,B1,T2,c,"['c', 'm']","['Clue', 'Monopoly']","[-0.15, 0.5]","[0.15, 0.5]",1,1,,,,,,,,,0,2,2,2,0,7,7,1,,,,,,,,,,,,,,,,,,,,,,,,,,,,,,,,,,,,,,,,,,,,,,,,,,,,,,,456.25017573000014,None,456.25017573000014,None,456.25017573000014,None,c,1,2.8892179070003294,457.785734862,None,457.785734862,None,457.785734862,None,460.7351246000003,None,460.7351246000003,None,460.7351246000003,None,460.7351246000003,None,,,,,,,,,,,,,,,,,,,,,,,,,,,,,,,,,,,,,,,,,,,,001,143,2020_Feb_20_0933,spring_faces,3.1.5,60.06161444729609,
condition files/Stage1_2.xlsx,,T4,B4,m,"['c', 'm']","['Clue', 'Monopoly']","[-0.15, 0.5]","[0.15, 0.5]",1,1,,,,,,,,,0,3,3,3,0,0,0,7,,,,,,,,,,,,,,,,,,,,,,,,,,,,,,,,,,,,,,,,,,,,,,,,,,,,,,,462.71669834800014,None,462.71669834800014,None,462.71669834800014,None,m,1,0.6794566890002898,464.26745413200024,None,464.26745413200024,None,464.26745413200024,None,465.00110585599987,None,465.00110585599987,None,465.00110585599987,None,465.00110585599987,None,,,,,,,,,,,,,,,,,,,,,,,,,,,,,,,,,,,,,,,,,,,,001,143,2020_Feb_20_0933,spring_faces,3.1.5,60.06161444729609,
condition files/Stage1_2.xlsx,,T2,B1,c,"['c', 'm']","['Clue', 'Monopoly']","[-0.15, 0.5]","[0.15, 0.5]",1,1,,,,,,,,,0,3,3,3,0,1,1,1,,,,,,,,,,,,,,,,,,,,,,,,,,,,,,,,,,,,,,,,,,,,,,,,,,,,,,,466.96708835100026,None,466.96708835100026,None,466.96708835100026,None,c,1,1.5654872400000386,468.5014066829999,None,468.5014066829999,None,468.5014066829999,None,470.1194757590001,None,470.1194757590001,None,470.1194757590001,None,470.1194757590001,None,,,,,,,,,,,,,,,,,,,,,,,,,,,,,,,,,,,,,,,,,,,,001,143,2020_Feb_20_0933,spring_faces,3.1.5,60.06161444729609,
condition files/Stage1_2.xlsx,,B4,T3,c,"['c', 'm']","['Clue', 'Monopoly']","[-0.15, 0.5]","[0.15, 0.5]",1,1,,,,,,,,,0,3,3,3,0,2,2,5,,,,,,,,,,,,,,,,,,,,,,,,,,,,,,,,,,,,,,,,,,,,,,,,,,,,,,,472.0839222190002,None,472.0839222190002,None,472.0839222190002,None,m,0,1.0737182519997077,473.61721461800016,None,473.61721461800016,None,473.61721461800016,None,474.750510159,None,474.750510159,None,474.750510159,None,474.750510159,None,,,,,,,,,,,,,,,,,,,,,,,,,,,,,,,,,,,,,,,,,,,,001,143,2020_Feb_20_0933,spring_faces,3.1.5,60.06161444729609,
condition files/Stage1_2.xlsx,,B2,T2,m,"['c', 'm']","['Clue', 'Monopoly']","[-0.15, 0.5]","[0.15, 0.5]",1,1,,,,,,,,,0,3,3,3,0,3,3,3,,,,,,,,,,,,,,,,,,,,,,,,,,,,,,,,,,,,,,,,,,,,,,,,,,,,,,,476.71660222399987,None,476.71660222399987,None,476.71660222399987,None,m,1,0.16841642100007448,478.2504004319999,None,478.2504004319999,None,478.2504004319999,None,478.4837822499999,None,478.4837822499999,None,478.4837822499999,None,478.4837822499999,None,,,,,,,,,,,,,,,,,,,,,,,,,,,,,,,,,,,,,,,,,,,,001,143,2020_Feb_20_0933,spring_faces,3.1.5,60.06161444729609,
condition files/Stage1_2.xlsx,,B3,T4,m,"['c', 'm']","['Clue', 'Monopoly']","[-0.15, 0.5]","[0.15, 0.5]",1,1,,,,,,,,,0,3,3,3,0,4,4,6,,,,,,,,,,,,,,,,,,,,,,,,,,,,,,,,,,,,,,,,,,,,,,,,,,,,,,,480.45037602499997,None,480.45037602499997,None,480.45037602499997,None,c,0,3.1221750939998856,482.00070984800004,None,482.00070984800004,None,482.00070984800004,None,485.18392537599993,None,485.18392537599993,None,485.18392537599993,None,485.18392537599993,None,,,,,,,,,,,,,,,,,,,,,,,,,,,,,,,,,,,,,,,,,,,,001,143,2020_Feb_20_0933,spring_faces,3.1.5,60.06161444729609,
condition files/Stage1_2.xlsx,,B1,T1,c,"['c', 'm']","['Clue', 'Monopoly']","[-0.15, 0.5]","[0.15, 0.5]",1,1,,,,,,,,,0,3,3,3,0,5,5,0,,,,,,,,,,,,,,,,,,,,,,,,,,,,,,,,,,,,,,,,,,,,,,,,,,,,,,,487.15033964400027,None,487.15033964400027,None,487.15033964400027,None,m,0,2.2947147369995946,488.68413898000017,None,488.68413898000017,None,488.68413898000017,None,491.0352616119999,None,491.0352616119999,None,491.0352616119999,None,491.0352616119999,None,,,,,,,,,,,,,,,,,,,,,,,,,,,,,,,,,,,,,,,,,,,,001,143,2020_Feb_20_0933,spring_faces,3.1.5,60.06161444729609,
condition files/Stage1_2.xlsx,,T1,B2,m,"['c', 'm']","['Clue', 'Monopoly']","[-0.15, 0.5]","[0.15, 0.5]",1,1,,,,,,,,,0,3,3,3,0,6,6,2,,,,,,,,,,,,,,,,,,,,,,,,,,,,,,,,,,,,,,,,,,,,,,,,,,,,,,,493.00039039600006,None,493.00039039600006,None,493.00039039600006,None,c,0,1.4532415610001408,494.5336627930001,None,494.5336627930001,None,494.5336627930001,None,496.06674113200006,None,496.06674113200006,None,496.06674113200006,None,496.06674113200006,None,,,,,,,,,,,,,,,,,,,,,,,,,,,,,,,,,,,,,,,,,,,,001,143,2020_Feb_20_0933,spring_faces,3.1.5,60.06161444729609,
condition files/Stage1_2.xlsx,,T3,B3,c,"['c', 'm']","['Clue', 'Monopoly']","[-0.15, 0.5]","[0.15, 0.5]",1,1,,,,,,,,,0,3,3,3,0,7,7,4,,,,,,,,,,,,,,,,,,,,,,,,,,,,,,,,,,,,,,,,,,,,,,,,,,,,,,,498.01720891800005,None,498.01720891800005,None,498.01720891800005,None,m,0,11.619374192999658,499.5515192359999,None,499.5515192359999,None,499.5515192359999,None,511.23359081499984,None,511.23359081499984,None,511.23359081499984,None,511.23359081499984,None,,,,,,,,,,,,,,,,,,,,,,,,,,,,,,,,,,,,,,,,,,,,001,143,2020_Feb_20_0933,spring_faces,3.1.5,60.06161444729609,
condition files/Stage1_1.xlsx,,T3,B4,c,"['c', 'm']","['Clue', 'Monopoly']","[-0.15, 0.5]","[0.15, 0.5]",1,1,,,,,,,,,0,4,4,4,0,0,0,5,,,,,,,,,,,,,,,,,,,,,,,,,,,,,,,,,,,,,,,,,,,,,,,,,,,,,,,513.2171046210001,None,513.2171046210001,None,513.2171046210001,None,c,1,2.7084283529998174,514.7505302220002,None,514.7505302220002,None,514.7505302220002,None,517.5176449300002,None,517.5176449300002,None,517.5176449300002,None,517.5176449300002,None,,,,,,,,,,,,,,,,,,,,,,,,,,,,,,,,,,,,,,,,,,,,001,143,2020_Feb_20_0933,spring_faces,3.1.5,60.06161444729609,
condition files/Stage1_1.xlsx,,B4,T4,m,"['c', 'm']","['Clue', 'Monopoly']","[-0.15, 0.5]","[0.15, 0.5]",1,1,,,,,,,,,0,4,4,4,0,1,1,7,,,,,,,,,,,,,,,,,,,,,,,,,,,,,,,,,,,,,,,,,,,,,,,,,,,,,,,519.483025945,None,519.483025945,None,519.483025945,None,m,1,1.992845055000089,521.0181099820002,None,521.0181099820002,None,521.0181099820002,None,523.0834550479999,None,523.0834550479999,None,523.0834550479999,None,523.0834550479999,None,,,,,,,,,,,,,,,,,,,,,,,,,,,,,,,,,,,,,,,,,,,,001,143,2020_Feb_20_0933,spring_faces,3.1.5,60.06161444729609,
condition files/Stage1_1.xlsx,,T4,B3,m,"['c', 'm']","['Clue', 'Monopoly']","[-0.15, 0.5]","[0.15, 0.5]",1,1,,,,,,,,,0,4,4,4,0,2,2,6,,,,,,,,,,,,,,,,,,,,,,,,,,,,,,,,,,,,,,,,,,,,,,,,,,,,,,,525.033924625,None,525.033924625,None,525.033924625,None,c,0,4.458912893000161,526.5840207239999,None,526.5840207239999,None,526.5840207239999,None,531.1004387040002,None,531.1004387040002,None,531.1004387040002,None,531.1004387040002,None,,,,,,,,,,,,,,,,,,,,,,,,,,,,,,,,,,,,,,,,,,,,001,143,2020_Feb_20_0933,spring_faces,3.1.5,60.06161444729609,
condition files/Stage1_1.xlsx,,B2,T1,m,"['c', 'm']","['Clue', 'Monopoly']","[-0.15, 0.5]","[0.15, 0.5]",1,1,,,,,,,,,0,4,4,4,0,3,3,2,,,,,,,,,,,,,,,,,,,,,,,,,,,,,,,,,,,,,,,,,,,,,,,,,,,,,,,533.0664972459999,None,533.0664972459999,None,533.0664972459999,None,m,1,1.0982461359999434,534.60064104,None,534.60064104,None,534.60064104,None,535.750495067,None,535.750495067,None,535.750495067,None,535.750495067,None,,,,,,,,,,,,,,,,,,,,,,,,,,,,,,,,,,,,,,,,,,,,001,143,2020_Feb_20_0933,spring_faces,3.1.5,60.06161444729609,
condition files/Stage1_1.xlsx,,T1,B1,c,"['c', 'm']","['Clue', 'Monopoly']","[-0.15, 0.5]","[0.15, 0.5]",1,1,,,,,,,,,0,4,4,4,0,4,4,0,,,,,,,,,,,,,,,,,,,,,,,,,,,,,,,,,,,,,,,,,,,,,,,,,,,,,,,537.716605352,None,537.716605352,None,537.716605352,None,c,1,0.31900707200020406,539.2518885540003,None,539.2518885540003,None,539.2518885540003,None,539.6347528020001,None,539.6347528020001,None,539.6347528020001,None,539.6347528020001,None,,,,,,,,,,,,,,,,,,,,,,,,,,,,,,,,,,,,,,,,,,,,001,143,2020_Feb_20_0933,spring_faces,3.1.5,60.06161444729609,
condition files/Stage1_1.xlsx,,B3,T3,c,"['c', 'm']","['Clue', 'Monopoly']","[-0.15, 0.5]","[0.15, 0.5]",1,1,,,,,,,,,0,4,4,4,0,5,5,4,,,,,,,,,,,,,,,,,,,,,,,,,,,,,,,,,,,,,,,,,,,,,,,,,,,,,,,541.6003349890002,None,541.6003349890002,None,541.6003349890002,None,m,0,1.941256211000109,543.1336841840002,None,543.1336841840002,None,543.1336841840002,None,545.1336087670002,None,545.1336087670002,None,545.1336087670002,None,545.1336087670002,None,,,,,,,,,,,,,,,,,,,,,,,,,,,,,,,,,,,,,,,,,,,,001,143,2020_Feb_20_0933,spring_faces,3.1.5,60.06161444729609,
condition files/Stage1_1.xlsx,,B1,T2,c,"['c', 'm']","['Clue', 'Monopoly']","[-0.15, 0.5]","[0.15, 0.5]",1,1,,,,,,,,,0,4,4,4,0,6,6,1,,,,,,,,,,,,,,,,,,,,,,,,,,,,,,,,,,,,,,,,,,,,,,,,,,,,,,,547.0998960860002,None,547.0998960860002,None,547.0998960860002,None,c,1,0.12049079899998105,548.650388695,None,548.650388695,None,548.650388695,None,548.8332431009999,None,548.8332431009999,None,548.8332431009999,None,548.8332431009999,None,,,,,,,,,,,,,,,,,,,,,,,,,,,,,,,,,,,,,,,,,,,,001,143,2020_Feb_20_0933,spring_faces,3.1.5,60.06161444729609,
condition files/Stage1_1.xlsx,,T2,B2,m,"['c', 'm']","['Clue', 'Monopoly']","[-0.15, 0.5]","[0.15, 0.5]",1,1,,,,,,,,,0,4,4,4,0,7,7,3,,,,,,,,,,,,,,,,,,,,,,,,,,,,,,,,,,,,,,,,,,,,,,,,,,,,,,,550.8003035719998,None,550.8003035719998,None,550.8003035719998,None,c,0,0.46897483400016426,552.333921378,None,552.333921378,None,552.333921378,None,552.8839011089999,None,552.8839011089999,None,552.8839011089999,None,552.8839011089999,None,,,,,,,,,,,,,,,,,,,,,,,,,,,,,,,,,,,,,,,,,,,,001,143,2020_Feb_20_0933,spring_faces,3.1.5,60.06161444729609,
condition files/Stage1_2.xlsx,,B1,T1,c,"['c', 'm']","['Clue', 'Monopoly']","[-0.15, 0.5]","[0.15, 0.5]",1,1,,,,,,,,,0,5,5,5,0,0,0,0,,,,,,,,,,,,,,,,,,,,,,,,,,,,,,,,,,,,,,,,,,,,,,,,,,,,,,,554.849975567,None,554.849975567,None,554.849975567,None,m,0,0.09883529100034139,556.3840575449999,None,556.3840575449999,None,556.3840575449999,None,556.5339875210002,None,556.5339875210002,None,556.5339875210002,None,556.5339875210002,None,,,,,,,,,,,,,,,,,,,,,,,,,,,,,,,,,,,,,,,,,,,,001,143,2020_Feb_20_0933,spring_faces,3.1.5,60.06161444729609,
condition files/Stage1_2.xlsx,,T1,B2,m,"['c', 'm']","['Clue', 'Monopoly']","[-0.15, 0.5]","[0.15, 0.5]",1,1,,,,,,,,,0,5,5,5,0,1,1,2,,,,,,,,,,,,,,,,,,,,,,,,,,,,,,,,,,,,,,,,,,,,,,,,,,,,,,,558.500445222,None,558.500445222,None,558.500445222,None,c,0,1.5532902609998018,560.0336044250002,None,560.0336044250002,None,560.0336044250002,None,561.6520907919999,None,561.6520907919999,None,561.6520907919999,None,561.6520907919999,None,,,,,,,,,,,,,,,,,,,,,,,,,,,,,,,,,,,,,,,,,,,,001,143,2020_Feb_20_0933,spring_faces,3.1.5,60.06161444729609,
condition files/Stage1_2.xlsx,,B4,T3,c,"['c', 'm']","['Clue', 'Monopoly']","[-0.15, 0.5]","[0.15, 0.5]",1,1,,,,,,,,,0,5,5,5,0,2,2,5,,,,,,,,,,,,,,,,,,,,,,,,,,,,,,,,,,,,,,,,,,,,,,,,,,,,,,,563.6170053240003,None,563.6170053240003,None,563.6170053240003,None,m,0,0.8980523850000282,565.1527790159998,None,565.1527790159998,None,565.1527790159998,None,566.1017916220003,None,566.1017916220003,None,566.1017916220003,None,566.1017916220003,None,,,,,,,,,,,,,,,,,,,,,,,,,,,,,,,,,,,,,,,,,,,,001,143,2020_Feb_20_0933,spring_faces,3.1.5,60.06161444729609,
condition files/Stage1_2.xlsx,,T2,B1,c,"['c', 'm']","['Clue', 'Monopoly']","[-0.15, 0.5]","[0.15, 0.5]",1,1,,,,,,,,,0,5,5,5,0,3,3,1,,,,,,,,,,,,,,,,,,,,,,,,,,,,,,,,,,,,,,,,,,,,,,,,,,,,,,,568.0667205310001,None,568.0667205310001,None,568.0667205310001,None,c,1,1.0094022340003903,569.6174214850002,None,569.6174214850002,None,569.6174214850002,None,570.684180575,None,570.684180575,None,570.684180575,None,570.684180575,None,,,,,,,,,,,,,,,,,,,,,,,,,,,,,,,,,,,,,,,,,,,,001,143,2020_Feb_20_0933,spring_faces,3.1.5,60.06161444729609,
condition files/Stage1_2.xlsx,,B2,T2,m,"['c', 'm']","['Clue', 'Monopoly']","[-0.15, 0.5]","[0.15, 0.5]",1,1,,,,,,,,,0,5,5,5,0,4,4,3,,,,,,,,,,,,,,,,,,,,,,,,,,,,,,,,,,,,,,,,,,,,,,,,,,,,,,,572.6504981480002,None,572.6504981480002,None,572.6504981480002,None,m,1,0.4736729539999942,574.1852795200002,None,574.1852795200002,None,574.1852795200002,None,574.7187257340001,None,574.7187257340001,None,574.7187257340001,None,574.7187257340001,None,,,,,,,,,,,,,,,,,,,,,,,,,,,,,,,,,,,,,,,,,,,,001,143,2020_Feb_20_0933,spring_faces,3.1.5,60.06161444729609,
condition files/Stage1_2.xlsx,,T4,B4,m,"['c', 'm']","['Clue', 'Monopoly']","[-0.15, 0.5]","[0.15, 0.5]",1,1,,,,,,,,,0,5,5,5,0,5,5,7,,,,,,,,,,,,,,,,,,,,,,,,,,,,,,,,,,,,,,,,,,,,,,,,,,,,,,,576.6837408360002,None,576.6837408360002,None,576.6837408360002,None,c,0,0.28020094000021345,578.2186855590003,None,578.2186855590003,None,578.2186855590003,None,578.550341956,None,578.550341956,None,578.550341956,None,578.550341956,None,,,,,,,,,,,,,,,,,,,,,,,,,,,,,,,,,,,,,,,,,,,,001,143,2020_Feb_20_0933,spring_faces,3.1.5,60.06161444729609,
condition files/Stage1_2.xlsx,,B3,T4,m,"['c', 'm']","['Clue', 'Monopoly']","[-0.15, 0.5]","[0.15, 0.5]",1,1,,,,,,,,,0,5,5,5,0,6,6,6,,,,,,,,,,,,,,,,,,,,,,,,,,,,,,,,,,,,,,,,,,,,,,,,,,,,,,,580.5164639019999,None,580.5164639019999,None,580.5164639019999,None,m,1,0.06306179100010922,582.0678071820003,None,582.0678071820003,None,582.0678071820003,None,582.1838039240001,None,582.1838039240001,None,582.1838039240001,None,582.1838039240001,None,,,,,,,,,,,,,,,,,,,,,,,,,,,,,,,,,,,,,,,,,,,,001,143,2020_Feb_20_0933,spring_faces,3.1.5,60.06161444729609,
condition files/Stage1_2.xlsx,,T3,B3,c,"['c', 'm']","['Clue', 'Monopoly']","[-0.15, 0.5]","[0.15, 0.5]",1,1,,,,,,,,,0,5,5,5,0,7,7,4,,,,,,,,,,,,,,,,,,,,,,,,,,,,,,,,,,,,,,,,,,,,,,,,,,,,,,,584.1503805000002,None,584.1503805000002,None,584.1503805000002,None,c,1,0.9271386979999079,585.6838237860002,None,585.6838237860002,None,585.6838237860002,None,586.666994831,None,586.666994831,None,586.666994831,None,586.666994831,None,,,,,,,,,,,,,,,,,,,,,,,,,,,,,,,,,,,,,,,,,,,,001,143,2020_Feb_20_0933,spring_faces,3.1.5,60.06161444729609,
condition files/Stage1_1.xlsx,,B4,T4,m,"['c', 'm']","['Clue', 'Monopoly']","[-0.15, 0.5]","[0.15, 0.5]",1,1,,,,,,,,,0,6,6,6,0,0,0,7,,,,,,,,,,,,,,,,,,,,,,,,,,,,,,,,,,,,,,,,,,,,,,,,,,,,,,,588.6507098120001,None,588.6507098120001,None,588.6507098120001,None,c,0,1.7058834609997575,590.201029462,None,590.201029462,None,590.201029462,None,591.9680642799999,None,591.9680642799999,None,591.9680642799999,None,591.9680642799999,None,,,,,,,,,,,,,,,,,,,,,,,,,,,,,,,,,,,,,,,,,,,,001,143,2020_Feb_20_0933,spring_faces,3.1.5,60.06161444729609,
condition files/Stage1_1.xlsx,,T2,B2,m,"['c', 'm']","['Clue', 'Monopoly']","[-0.15, 0.5]","[0.15, 0.5]",1,1,,,,,,,,,0,6,6,6,0,1,1,3,,,,,,,,,,,,,,,,,,,,,,,,,,,,,,,,,,,,,,,,,,,,,,,,,,,,,,,593.9331514989999,None,593.9331514989999,None,593.9331514989999,None,m,1,1.2870256480000535,595.4678751679999,None,595.4678751679999,None,595.4678751679999,None,596.8173074910001,None,596.8173074910001,None,596.8173074910001,None,596.8173074910001,None,,,,,,,,,,,,,,,,,,,,,,,,,,,,,,,,,,,,,,,,,,,,001,143,2020_Feb_20_0933,spring_faces,3.1.5,60.06161444729609,
condition files/Stage1_1.xlsx,,T3,B4,c,"['c', 'm']","['Clue', 'Monopoly']","[-0.15, 0.5]","[0.15, 0.5]",1,1,,,,,,,,,0,6,6,6,0,2,2,5,,,,,,,,,,,,,,,,,,,,,,,,,,,,,,,,,,,,,,,,,,,,,,,,,,,,,,,598.783921189,None,598.783921189,None,598.783921189,None,c,1,1.6374204059998192,600.317474342,None,600.317474342,None,600.317474342,None,602.0181982419999,None,602.0181982419999,None,602.0181982419999,None,602.0181982419999,None,,,,,,,,,,,,,,,,,,,,,,,,,,,,,,,,,,,,,,,,,,,,001,143,2020_Feb_20_0933,spring_faces,3.1.5,60.06161444729609,
condition files/Stage1_1.xlsx,,B1,T2,c,"['c', 'm']","['Clue', 'Monopoly']","[-0.15, 0.5]","[0.15, 0.5]",1,1,,,,,,,,,0,6,6,6,0,3,3,1,,,,,,,,,,,,,,,,,,,,,,,,,,,,,,,,,,,,,,,,,,,,,,,,,,,,,,,603.983688154,None,603.983688154,None,603.983688154,None,c,1,5.732906377999825,605.5179435119999,None,605.5179435119999,None,605.5179435119999,None,611.317125346,None,611.317125346,None,611.317125346,None,611.317125346,None,,,,,,,,,,,,,,,,,,,,,,,,,,,,,,,,,,,,,,,,,,,,001,143,2020_Feb_20_0933,spring_faces,3.1.5,60.06161444729609,
condition files/Stage1_1.xlsx,,T1,B1,c,"['c', 'm']","['Clue', 'Monopoly']","[-0.15, 0.5]","[0.15, 0.5]",1,1,,,,,,,,,0,6,6,6,0,4,4,0,,,,,,,,,,,,,,,,,,,,,,,,,,,,,,,,,,,,,,,,,,,,,,,,,,,,,,,613.2833375579999,None,613.2833375579999,None,613.2833375579999,None,m,0,1.377180296000006,614.8337434999999,None,614.8337434999999,None,614.8337434999999,None,616.266452291,None,616.266452291,None,616.266452291,None,616.266452291,None,,,,,,,,,,,,,,,,,,,,,,,,,,,,,,,,,,,,,,,,,,,,001,143,2020_Feb_20_0933,spring_faces,3.1.5,60.06161444729609,
condition files/Stage1_1.xlsx,,T4,B3,m,"['c', 'm']","['Clue', 'Monopoly']","[-0.15, 0.5]","[0.15, 0.5]",1,1,,,,,,,,,0,6,6,6,0,5,5,6,,,,,,,,,,,,,,,,,,,,,,,,,,,,,,,,,,,,,,,,,,,,,,,,,,,,,,,618.2336970720003,None,618.2336970720003,None,618.2336970720003,None,c,0,6.010714607999944,619.78416199,None,619.78416199,None,619.78416199,None,625.8525257169999,None,625.8525257169999,None,625.8525257169999,None,625.8525257169999,None,,,,,,,,,,,,,,,,,,,,,,,,,,,,,,,,,,,,,,,,,,,,001,143,2020_Feb_20_0933,spring_faces,3.1.5,60.06161444729609,
condition files/Stage1_1.xlsx,,B2,T1,m,"['c', 'm']","['Clue', 'Monopoly']","[-0.15, 0.5]","[0.15, 0.5]",1,1,,,,,,,,,0,6,6,6,0,6,6,2,,,,,,,,,,,,,,,,,,,,,,,,,,,,,,,,,,,,,,,,,,,,,,,,,,,,,,,627.8165836210001,None,627.8165836210001,None,627.8165836210001,None,m,1,4.748589660000107,629.3502867870002,None,629.3502867870002,None,629.3502867870002,None,634.1506074270001,None,634.1506074270001,None,634.1506074270001,None,634.1506074270001,None,,,,,,,,,,,,,,,,,,,,,,,,,,,,,,,,,,,,,,,,,,,,001,143,2020_Feb_20_0933,spring_faces,3.1.5,60.06161444729609,
condition files/Stage1_1.xlsx,,B3,T3,c,"['c', 'm']","['Clue', 'Monopoly']","[-0.15, 0.5]","[0.15, 0.5]",1,1,,,,,,,,,0,6,6,6,0,7,7,4,,,,,,,,,,,,,,,,,,,,,,,,,,,,,,,,,,,,,,,,,,,,,,,,,,,,,,,636.1172159480002,None,636.1172159480002,None,636.1172159480002,None,c,1,1.710168455999792,637.6527073070001,None,637.6527073070001,None,637.6527073070001,None,639.417798856,None,639.417798856,None,639.417798856,None,639.417798856,None,,,,,,,,,,,,,,,,,,,,,,,,,,,,,,,,,,,,,,,,,,,,001,143,2020_Feb_20_0933,spring_faces,3.1.5,60.06161444729609,
condition files/Stage1_2.xlsx,,T4,B4,m,"['c', 'm']","['Clue', 'Monopoly']","[-0.15, 0.5]","[0.15, 0.5]",1,1,,,,,,,,,0,7,7,7,0,0,0,7,,,,,,,,,,,,,,,,,,,,,,,,,,,,,,,,,,,,,,,,,,,,,,,,,,,,,,,641.400667766,None,641.400667766,None,641.400667766,None,m,1,12.52293513099994,642.936011189,None,642.936011189,None,642.936011189,None,655.5185281859999,None,655.5185281859999,None,655.5185281859999,None,655.5185281859999,None,,,,,,,,,,,,,,,,,,,,,,,,,,,,,,,,,,,,,,,,,,,,001,143,2020_Feb_20_0933,spring_faces,3.1.5,60.06161444729609,
condition files/Stage1_2.xlsx,,B2,T2,m,"['c', 'm']","['Clue', 'Monopoly']","[-0.15, 0.5]","[0.15, 0.5]",1,1,,,,,,,,,0,7,7,7,0,1,1,3,,,,,,,,,,,,,,,,,,,,,,,,,,,,,,,,,,,,,,,,,,,,,,,,,,,,,,,657.4841278140002,None,657.4841278140002,None,657.4841278140002,None,c,0,0.5847132649996638,659.0181872090002,None,659.0181872090002,None,659.0181872090002,None,659.6672594030001,None,659.6672594030001,None,659.6672594030001,None,659.6672594030001,None,,,,,,,,,,,,,,,,,,,,,,,,,,,,,,,,,,,,,,,,,,,,001,143,2020_Feb_20_0933,spring_faces,3.1.5,60.06161444729609,
condition files/Stage1_2.xlsx,,T1,B2,m,"['c', 'm']","['Clue', 'Monopoly']","[-0.15, 0.5]","[0.15, 0.5]",1,1,,,,,,,,,0,7,7,7,0,2,2,2,,,,,,,,,,,,,,,,,,,,,,,,,,,,,,,,,,,,,,,,,,,,,,,,,,,,,,,661.6336812660002,None,661.6336812660002,None,661.6336812660002,None,c,0,0.019614463999914733,663.1672926770002,None,663.1672926770002,None,663.1672926770002,None,663.2503918709999,None,663.2503918709999,None,663.2503918709999,None,663.2503918709999,None,,,,,,,,,,,,,,,,,,,,,,,,,,,,,,,,,,,,,,,,,,,,001,143,2020_Feb_20_0933,spring_faces,3.1.5,60.06161444729609,
condition files/Stage1_2.xlsx,,B3,T4,m,"['c', 'm']","['Clue', 'Monopoly']","[-0.15, 0.5]","[0.15, 0.5]",1,1,,,,,,,,,0,7,7,7,0,3,3,6,,,,,,,,,,,,,,,,,,,,,,,,,,,,,,,,,,,,,,,,,,,,,,,,,,,,,,,665.2165851620002,None,665.2165851620002,None,665.2165851620002,None,c,0,0.3243730890003462,666.7505629520001,None,666.7505629520001,None,666.7505629520001,None,667.1335738900002,None,667.1335738900002,None,667.1335738900002,None,667.1335738900002,None,,,,,,,,,,,,,,,,,,,,,,,,,,,,,,,,,,,,,,,,,,,,001,143,2020_Feb_20_0933,spring_faces,3.1.5,60.06161444729609,
condition files/Stage1_2.xlsx,,B4,T3,c,"['c', 'm']","['Clue', 'Monopoly']","[-0.15, 0.5]","[0.15, 0.5]",1,1,,,,,,,,,0,7,7,7,0,4,4,5,,,,,,,,,,,,,,,,,,,,,,,,,,,,,,,,,,,,,,,,,,,,,,,,,,,,,,,669.1003672209999,None,669.1003672209999,None,669.1003672209999,None,c,1,0.34495172500010085,670.633894051,None,670.633894051,None,670.633894051,None,671.0334984830001,None,671.0334984830001,None,671.0334984830001,None,671.0334984830001,None,,,,,,,,,,,,,,,,,,,,,,,,,,,,,,,,,,,,,,,,,,,,001,143,2020_Feb_20_0933,spring_faces,3.1.5,60.06161444729609,
condition files/Stage1_2.xlsx,,T2,B1,c,"['c', 'm']","['Clue', 'Monopoly']","[-0.15, 0.5]","[0.15, 0.5]",1,1,,,,,,,,,0,7,7,7,0,5,5,1,,,,,,,,,,,,,,,,,,,,,,,,,,,,,,,,,,,,,,,,,,,,,,,,,,,,,,,672.9999978360001,None,672.9999978360001,None,672.9999978360001,None,m,0,-0.0038335619997269532,674.5507167840001,None,674.5507167840001,None,674.5507167840001,None,674.6006390100001,None,674.6006390100001,None,674.6006390100001,None,674.6006390100001,None,,,,,,,,,,,,,,,,,,,,,,,,,,,,,,,,,,,,,,,,,,,,001,143,2020_Feb_20_0933,spring_faces,3.1.5,60.06161444729609,
condition files/Stage1_2.xlsx,,B1,T1,c,"['c', 'm']","['Clue', 'Monopoly']","[-0.15, 0.5]","[0.15, 0.5]",1,1,,,,,,,,,0,7,7,7,0,6,6,0,,,,,,,,,,,,,,,,,,,,,,,,,,,,,,,,,,,,,,,,,,,,,,,,,,,,,,,676.5671643159999,None,676.5671643159999,None,676.5671643159999,None,c,1,0.8143475890001355,678.1005453070002,None,678.1005453070002,None,678.1005453070002,None,678.9672140940002,None,678.9672140940002,None,678.9672140940002,None,678.9672140940002,None,,,,,,,,,,,,,,,,,,,,,,,,,,,,,,,,,,,,,,,,,,,,001,143,2020_Feb_20_0933,spring_faces,3.1.5,60.06161444729609,
condition files/Stage1_2.xlsx,,T3,B3,c,"['c', 'm']","['Clue', 'Monopoly']","[-0.15, 0.5]","[0.15, 0.5]",1,1,,,,,,,,,0,7,7,7,0,7,7,4,,,,,,,,,,,,,,,,,,,,,,,,,,,,,,,,,,,,,,,,,,,,,,,,,,,,,,,680.93366079,None,680.93366079,None,680.93366079,None,m,0,0.4325492100001611,682.4663819329999,None,682.4663819329999,None,682.4663819329999,None,682.9502929129999,None,682.9502929129999,None,682.9502929129999,None,682.9502929129999,None,,,,,,,,,,,,,,,,,,,,,,,,,,,,,,,,,,,,,,,,,,,,001,143,2020_Feb_20_0933,spring_faces,3.1.5,60.06161444729609,
condition files/Stage1_1.xlsx,,B3,T3,c,"['c', 'm']","['Clue', 'Monopoly']","[-0.15, 0.5]","[0.15, 0.5]",1,1,,,,,,,,,0,8,8,8,0,0,0,4,,,,,,,,,,,,,,,,,,,,,,,,,,,,,,,,,,,,,,,,,,,,,,,,,,,,,,,684.9334772100001,None,684.9334772100001,None,684.9334772100001,None,c,1,0.09556757900008961,686.467334679,None,686.467334679,None,686.467334679,None,686.6168075360001,None,686.6168075360001,None,686.6168075360001,None,686.6168075360001,None,,,,,,,,,,,,,,,,,,,,,,,,,,,,,,,,,,,,,,,,,,,,001,143,2020_Feb_20_0933,spring_faces,3.1.5,60.06161444729609,
condition files/Stage1_1.xlsx,,T3,B4,c,"['c', 'm']","['Clue', 'Monopoly']","[-0.15, 0.5]","[0.15, 0.5]",1,1,,,,,,,,,0,8,8,8,0,1,1,5,,,,,,,,,,,,,,,,,,,,,,,,,,,,,,,,,,,,,,,,,,,,,,,,,,,,,,,688.583653619,None,688.583653619,None,688.583653619,None,c,1,1.6758704079998097,690.1190091859999,None,690.1190091859999,None,690.1190091859999,None,691.849821408,None,691.849821408,None,691.849821408,None,691.849821408,None,,,,,,,,,,,,,,,,,,,,,,,,,,,,,,,,,,,,,,,,,,,,001,143,2020_Feb_20_0933,spring_faces,3.1.5,60.06161444729609,
condition files/Stage1_1.xlsx,,T4,B3,m,"['c', 'm']","['Clue', 'Monopoly']","[-0.15, 0.5]","[0.15, 0.5]",1,1,,,,,,,,,0,8,8,8,0,2,2,6,,,,,,,,,,,,,,,,,,,,,,,,,,,,,,,,,,,,,,,,,,,,,,,,,,,,,,,693.8166715120001,None,693.8166715120001,None,693.8166715120001,None,m,1,1.291250945000229,695.3516901329999,None,695.3516901329999,None,695.3516901329999,None,696.7017888099999,None,696.7017888099999,None,696.7017888099999,None,696.7017888099999,None,,,,,,,,,,,,,,,,,,,,,,,,,,,,,,,,,,,,,,,,,,,,001,143,2020_Feb_20_0933,spring_faces,3.1.5,60.06161444729609,
condition files/Stage1_1.xlsx,,B4,T4,m,"['c', 'm']","['Clue', 'Monopoly']","[-0.15, 0.5]","[0.15, 0.5]",1,1,,,,,,,,,0,8,8,8,0,3,3,7,,,,,,,,,,,,,,,,,,,,,,,,,,,,,,,,,,,,,,,,,,,,,,,,,,,,,,,698.6672326140001,None,698.6672326140001,None,698.6672326140001,None,c,0,0.970803523000086,700.2000967950003,None,700.2000967950003,None,700.2000967950003,None,701.2339418259999,None,701.2339418259999,None,701.2339418259999,None,701.2339418259999,None,,,,,,,,,,,,,,,,,,,,,,,,,,,,,,,,,,,,,,,,,,,,001,143,2020_Feb_20_0933,spring_faces,3.1.5,60.06161444729609,
condition files/Stage1_1.xlsx,,T1,B1,c,"['c', 'm']","['Clue', 'Monopoly']","[-0.15, 0.5]","[0.15, 0.5]",1,1,,,,,,,,,0,8,8,8,0,4,4,0,,,,,,,,,,,,,,,,,,,,,,,,,,,,,,,,,,,,,,,,,,,,,,,,,,,,,,,703.200378641,None,703.200378641,None,703.200378641,None,m,0,2.0994679899999937,704.7353679540001,None,704.7353679540001,None,704.7353679540001,None,706.903067232,None,706.903067232,None,706.903067232,None,706.903067232,None,,,,,,,,,,,,,,,,,,,,,,,,,,,,,,,,,,,,,,,,,,,,001,143,2020_Feb_20_0933,spring_faces,3.1.5,60.06161444729609,
condition files/Stage1_1.xlsx,,T2,B2,m,"['c', 'm']","['Clue', 'Monopoly']","[-0.15, 0.5]","[0.15, 0.5]",1,1,,,,,,,,,0,8,8,8,0,5,5,3,,,,,,,,,,,,,,,,,,,,,,,,,,,,,,,,,,,,,,,,,,,,,,,,,,,,,,,708.8671127410003,None,708.8671127410003,None,708.8671127410003,None,c,0,2.097862763000194,710.4010311760003,None,710.4010311760003,None,710.4010311760003,None,712.5523768440003,None,712.5523768440003,None,712.5523768440003,None,712.5523768440003,None,,,,,,,,,,,,,,,,,,,,,,,,,,,,,,,,,,,,,,,,,,,,001,143,2020_Feb_20_0933,spring_faces,3.1.5,60.06161444729609,
condition files/Stage1_1.xlsx,,B1,T2,c,"['c', 'm']","['Clue', 'Monopoly']","[-0.15, 0.5]","[0.15, 0.5]",1,1,,,,,,,,,0,8,8,8,0,6,6,1,,,,,,,,,,,,,,,,,,,,,,,,,,,,,,,,,,,,,,,,,,,,,,,,,,,,,,,714.516995984,None,714.516995984,None,714.516995984,None,c,1,1.967431523000414,716.0673838110001,None,716.0673838110001,None,716.0673838110001,None,718.1171703069999,None,718.1171703069999,None,718.1171703069999,None,718.1171703069999,None,,,,,,,,,,,,,,,,,,,,,,,,,,,,,,,,,,,,,,,,,,,,001,143,2020_Feb_20_0933,spring_faces,3.1.5,60.06161444729609,
condition files/Stage1_1.xlsx,,B2,T1,m,"['c', 'm']","['Clue', 'Monopoly']","[-0.15, 0.5]","[0.15, 0.5]",1,1,,,,,,,,,0,8,8,8,0,7,7,2,,,,,,,,,,,,,,,,,,,,,,,,,,,,,,,,,,,,,,,,,,,,,,,,,,,,,,,720.067239729,None,720.067239729,None,720.067239729,None,c,0,7.474255307000021,721.600700165,None,721.600700165,None,721.600700165,None,729.1363211050002,None,729.1363211050002,None,729.1363211050002,None,729.1363211050002,None,,,,,,,,,,,,,,,,,,,,,,,,,,,,,,,,,,,,,,,,,,,,001,143,2020_Feb_20_0933,spring_faces,3.1.5,60.06161444729609,
condition files/Stage1_2.xlsx,,B3,T4,m,"['c', 'm']","['Clue', 'Monopoly']","[-0.15, 0.5]","[0.15, 0.5]",1,1,,,,,,,,,0,9,9,9,0,0,0,6,,,,,,,,,,,,,,,,,,,,,,,,,,,,,,,,,,,,,,,,,,,,,,,,,,,,,,,731.117521523,None,731.117521523,None,731.117521523,None,m,1,0.2960316749999947,732.650866721,None,732.650866721,None,732.650866721,None,733.00033915,None,733.00033915,None,733.00033915,None,733.00033915,None,,,,,,,,,,,,,,,,,,,,,,,,,,,,,,,,,,,,,,,,,,,,001,143,2020_Feb_20_0933,spring_faces,3.1.5,60.06161444729609,
condition files/Stage1_2.xlsx,,T1,B2,m,"['c', 'm']","['Clue', 'Monopoly']","[-0.15, 0.5]","[0.15, 0.5]",1,1,,,,,,,,,0,9,9,9,0,1,1,2,,,,,,,,,,,,,,,,,,,,,,,,,,,,,,,,,,,,,,,,,,,,,,,,,,,,,,,734.9670471929999,None,734.9670471929999,None,734.9670471929999,None,c,0,0.5581659790000231,736.5007938889999,None,736.5007938889999,None,736.5007938889999,None,737.117259264,None,737.117259264,None,737.117259264,None,737.117259264,None,,,,,,,,,,,,,,,,,,,,,,,,,,,,,,,,,,,,,,,,,,,,001,143,2020_Feb_20_0933,spring_faces,3.1.5,60.06161444729609,
condition files/Stage1_2.xlsx,,B2,T2,m,"['c', 'm']","['Clue', 'Monopoly']","[-0.15, 0.5]","[0.15, 0.5]",1,1,,,,,,,,,0,9,9,9,0,2,2,3,,,,,,,,,,,,,,,,,,,,,,,,,,,,,,,,,,,,,,,,,,,,,,,,,,,,,,,739.0838519650001,None,739.0838519650001,None,739.0838519650001,None,m,1,0.2644633929999145,740.6184271060001,None,740.6184271060001,None,740.6184271060001,None,740.9335684510002,None,740.9335684510002,None,740.9335684510002,None,740.9335684510002,None,,,,,,,,,,,,,,,,,,,,,,,,,,,,,,,,,,,,,,,,,,,,001,143,2020_Feb_20_0933,spring_faces,3.1.5,60.06161444729609,
condition files/Stage1_2.xlsx,,T3,B3,c,"['c', 'm']","['Clue', 'Monopoly']","[-0.15, 0.5]","[0.15, 0.5]",1,1,,,,,,,,,0,9,9,9,0,3,3,4,,,,,,,,,,,,,,,,,,,,,,,,,,,,,,,,,,,,,,,,,,,,,,,,,,,,,,,742.8997680410002,None,742.8997680410002,None,742.8997680410002,None,c,1,0.032401184999798716,744.434488244,None,744.434488244,None,744.434488244,None,744.5196225570003,None,744.5196225570003,None,744.5196225570003,None,744.5196225570003,None,,,,,,,,,,,,,,,,,,,,,,,,,,,,,,,,,,,,,,,,,,,,001,143,2020_Feb_20_0933,spring_faces,3.1.5,60.06161444729609,
condition files/Stage1_2.xlsx,,T4,B4,m,"['c', 'm']","['Clue', 'Monopoly']","[-0.15, 0.5]","[0.15, 0.5]",1,1,,,,,,,,,0,9,9,9,0,4,4,7,,,,,,,,,,,,,,,,,,,,,,,,,,,,,,,,,,,,,,,,,,,,,,,,,,,,,,,746.4836683379999,None,746.4836683379999,None,746.4836683379999,None,c,0,0.03430844200011052,None,None,None,None,None,None,748.0673694249999,None,748.0673694249999,None,748.0673694249999,None,748.0673694249999,None,,,,,,,,,,,,,,,,,,,,,,,,,,,,,,,,,,,,,,,,,,,,001,143,2020_Feb_20_0933,spring_faces,3.1.5,60.06161444729609,
condition files/Stage1_2.xlsx,,B1,T1,c,"['c', 'm']","['Clue', 'Monopoly']","[-0.15, 0.5]","[0.15, 0.5]",1,1,,,,,,,,,0,9,9,9,0,5,5,0,,,,,,,,,,,,,,,,,,,,,,,,,,,,,,,,,,,,,,,,,,,,,,,,,,,,,,,750.017004589,None,750.017004589,None,750.017004589,None,c,1,0.867810936999831,751.5670281840003,None,751.5670281840003,None,751.5670281840003,None,752.5023353189999,None,752.5023353189999,None,752.5023353189999,None,752.5023353189999,None,,,,,,,,,,,,,,,,,,,,,,,,,,,,,,,,,,,,,,,,,,,,001,143,2020_Feb_20_0933,spring_faces,3.1.5,60.06161444729609,
condition files/Stage1_2.xlsx,,T2,B1,c,"['c', 'm']","['Clue', 'Monopoly']","[-0.15, 0.5]","[0.15, 0.5]",1,1,,,,,,,,,0,9,9,9,0,6,6,1,,,,,,,,,,,,,,,,,,,,,,,,,,,,,,,,,,,,,,,,,,,,,,,,,,,,,,,754.466907297,None,754.466907297,None,754.466907297,None,c,1,0.5456476869999278,756.0172020160003,None,756.0172020160003,None,756.0172020160003,None,756.6173484350002,None,756.6173484350002,None,756.6173484350002,None,756.6173484350002,None,,,,,,,,,,,,,,,,,,,,,,,,,,,,,,,,,,,,,,,,,,,,001,143,2020_Feb_20_0933,spring_faces,3.1.5,60.06161444729609,
condition files/Stage1_2.xlsx,,B4,T3,c,"['c', 'm']","['Clue', 'Monopoly']","[-0.15, 0.5]","[0.15, 0.5]",1,1,,,,,,,,,0,9,9,9,0,7,7,5,,,,,,,,,,,,,,,,,,,,,,,,,,,,,,,,,,,,,,,,,,,,,,,,,,,,,,,758.5830889009999,None,758.5830889009999,None,758.5830889009999,None,m,0,0.41398097899991626,760.1169076730002,None,760.1169076730002,None,760.1169076730002,None,760.5829623650002,None,760.5829623650002,None,760.5829623650002,None,760.5829623650002,None,,,,,,,,,,,,,,,,,,,,,,,,,,,,,,,,,,,,,,,,,,,,001,143,2020_Feb_20_0933,spring_faces,3.1.5,60.06161444729609,
condition files/Stage1_1.xlsx,,B3,T3,c,"['c', 'm']","['Clue', 'Monopoly']","[-0.15, 0.5]","[0.15, 0.5]",1,1,,,,,,,,,0,10,10,10,0,0,0,4,,,,,,,,,,,,,,,,,,,,,,,,,,,,,,,,,,,,,,,,,,,,,,,,,,,,,,,762.56706803,None,762.56706803,None,762.56706803,None,c,1,0.6054045559999395,764.1174928340001,None,764.1174928340001,None,764.1174928340001,None,764.7833008900002,None,764.7833008900002,None,764.7833008900002,None,764.7833008900002,None,,,,,,,,,,,,,,,,,,,,,,,,,,,,,,,,,,,,,,,,,,,,001,143,2020_Feb_20_0933,spring_faces,3.1.5,60.06161444729609,
condition files/Stage1_1.xlsx,,T3,B4,c,"['c', 'm']","['Clue', 'Monopoly']","[-0.15, 0.5]","[0.15, 0.5]",1,1,,,,,,,,,0,10,10,10,0,1,1,5,,,,,,,,,,,,,,,,,,,,,,,,,,,,,,,,,,,,,,,,,,,,,,,,,,,,,,,766.7504078860002,None,766.7504078860002,None,766.7504078860002,None,m,0,0.24477284600015992,768.2860401970001,None,768.2860401970001,None,768.2860401970001,None,768.5839484890002,None,768.5839484890002,None,768.5839484890002,None,768.5839484890002,None,,,,,,,,,,,,,,,,,,,,,,,,,,,,,,,,,,,,,,,,,,,,001,143,2020_Feb_20_0933,spring_faces,3.1.5,60.06161444729609,
condition files/Stage1_1.xlsx,,B4,T4,m,"['c', 'm']","['Clue', 'Monopoly']","[-0.15, 0.5]","[0.15, 0.5]",1,1,,,,,,,,,0,10,10,10,0,2,2,7,,,,,,,,,,,,,,,,,,,,,,,,,,,,,,,,,,,,,,,,,,,,,,,,,,,,,,,770.55042005,None,770.55042005,None,770.55042005,None,c,0,0.062202339000123175,772.1006869470002,None,772.1006869470002,None,772.1006869470002,None,772.2335071560001,None,772.2335071560001,None,772.2335071560001,None,772.2335071560001,None,,,,,,,,,,,,,,,,,,,,,,,,,,,,,,,,,,,,,,,,,,,,001,143,2020_Feb_20_0933,spring_faces,3.1.5,60.06161444729609,
condition files/Stage1_1.xlsx,,T2,B2,m,"['c', 'm']","['Clue', 'Monopoly']","[-0.15, 0.5]","[0.15, 0.5]",1,1,,,,,,,,,0,10,10,10,0,3,3,3,,,,,,,,,,,,,,,,,,,,,,,,,,,,,,,,,,,,,,,,,,,,,,,,,,,,,,,774.1836949550002,None,774.1836949550002,None,774.1836949550002,None,m,1,-0.002800712000407657,775.7336764390002,None,775.7336764390002,None,775.7336764390002,None,775.783647449,None,775.783647449,None,775.783647449,None,775.783647449,None,,,,,,,,,,,,,,,,,,,,,,,,,,,,,,,,,,,,,,,,,,,,001,143,2020_Feb_20_0933,spring_faces,3.1.5,60.06161444729609,
condition files/Stage1_1.xlsx,,T4,B3,m,"['c', 'm']","['Clue', 'Monopoly']","[-0.15, 0.5]","[0.15, 0.5]",1,1,,,,,,,,,0,10,10,10,0,4,4,6,,,,,,,,,,,,,,,,,,,,,,,,,,,,,,,,,,,,,,,,,,,,,,,,,,,,,,,777.750614005,None,777.750614005,None,777.750614005,None,c,0,1.6144506139999066,779.3004309000003,None,779.3004309000003,None,779.3004309000003,None,780.9676391010003,None,780.9676391010003,None,780.9676391010003,None,780.9676391010003,None,,,,,,,,,,,,,,,,,,,,,,,,,,,,,,,,,,,,,,,,,,,,001,143,2020_Feb_20_0933,spring_faces,3.1.5,60.06161444729609,
condition files/Stage1_1.xlsx,,T1,B1,c,"['c', 'm']","['Clue', 'Monopoly']","[-0.15, 0.5]","[0.15, 0.5]",1,1,,,,,,,,,0,10,10,10,0,5,5,0,,,,,,,,,,,,,,,,,,,,,,,,,,,,,,,,,,,,,,,,,,,,,,,,,,,,,,,782.93379065,None,782.93379065,None,782.93379065,None,m,0,0.2708826660000341,784.4680332410003,None,784.4680332410003,None,784.4680332410003,None,784.8002561210001,None,784.8002561210001,None,784.8002561210001,None,784.8002561210001,None,,,,,,,,,,,,,,,,,,,,,,,,,,,,,,,,,,,,,,,,,,,,001,143,2020_Feb_20_0933,spring_faces,3.1.5,60.06161444729609,
condition files/Stage1_1.xlsx,,B2,T1,m,"['c', 'm']","['Clue', 'Monopoly']","[-0.15, 0.5]","[0.15, 0.5]",1,1,,,,,,,,,0,10,10,10,0,6,6,2,,,,,,,,,,,,,,,,,,,,,,,,,,,,,,,,,,,,,,,,,,,,,,,,,,,,,,,786.7670045770001,None,786.7670045770001,None,786.7670045770001,None,c,0,0.7909690669998781,788.2999962459999,None,788.2999962459999,None,788.2999962459999,None,789.1510682480002,None,789.1510682480002,None,789.1510682480002,None,789.1510682480002,None,,,,,,,,,,,,,,,,,,,,,,,,,,,,,,,,,,,,,,,,,,,,001,143,2020_Feb_20_0933,spring_faces,3.1.5,60.06161444729609,
condition files/Stage1_1.xlsx,,B1,T2,c,"['c', 'm']","['Clue', 'Monopoly']","[-0.15, 0.5]","[0.15, 0.5]",1,1,,,,,,,,,0,10,10,10,0,7,7,1,,,,,,,,,,,,,,,,,,,,,,,,,,,,,,,,,,,,,,,,,,,,,,,,,,,,,,,791.116732213,None,791.116732213,None,791.116732213,None,c,1,0.24809823499981576,792.650793451,None,792.650793451,None,792.650793451,None,792.9507742430001,None,792.9507742430001,None,792.9507742430001,None,792.9507742430001,None,,,,,,,,,,,,,,,,,,,,,,,,,,,,,,,,,,,,,,,,,,,,001,143,2020_Feb_20_0933,spring_faces,3.1.5,60.06161444729609,
condition files/Stage1_2.xlsx,,B1,T1,c,"['c', 'm']","['Clue', 'Monopoly']","[-0.15, 0.5]","[0.15, 0.5]",1,1,,,,,,,,,0,11,11,11,0,0,0,0,,,,,,,,,,,,,,,,,,,,,,,,,,,,,,,,,,,,,,,,,,,,,,,,,,,,,,,794.93349321,None,794.93349321,None,794.93349321,None,c,1,2.86340326599975,796.4836896380002,None,796.4836896380002,None,796.4836896380002,None,799.3998338360002,None,799.3998338360002,None,799.3998338360002,None,799.3998338360002,None,,,,,,,,,,,,,,,,,,,,,,,,,,,,,,,,,,,,,,,,,,,,001,143,2020_Feb_20_0933,spring_faces,3.1.5,60.06161444729609,
condition files/Stage1_2.xlsx,,B4,T3,c,"['c', 'm']","['Clue', 'Monopoly']","[-0.15, 0.5]","[0.15, 0.5]",1,1,,,,,,,,,0,11,11,11,0,1,1,5,,,,,,,,,,,,,,,,,,,,,,,,,,,,,,,,,,,,,,,,,,,,,,,,,,,,,,,801.367154043,None,801.367154043,None,801.367154043,None,m,0,0.14149731999987125,802.9014646969999,None,802.9014646969999,None,802.9014646969999,None,803.1007155540001,None,803.1007155540001,None,803.1007155540001,None,803.1007155540001,None,,,,,,,,,,,,,,,,,,,,,,,,,,,,,,,,,,,,,,,,,,,,001,143,2020_Feb_20_0933,spring_faces,3.1.5,60.06161444729609,
condition files/Stage1_2.xlsx,,T3,B3,c,"['c', 'm']","['Clue', 'Monopoly']","[-0.15, 0.5]","[0.15, 0.5]",1,1,,,,,,,,,0,11,11,11,0,2,2,4,,,,,,,,,,,,,,,,,,,,,,,,,,,,,,,,,,,,,,,,,,,,,,,,,,,,,,,805.0670653370003,None,805.0670653370003,None,805.0670653370003,None,c,1,0.20149240000000646,806.6014144220003,None,806.6014144220003,None,806.6014144220003,None,806.866952676,None,806.866952676,None,806.866952676,None,806.866952676,None,,,,,,,,,,,,,,,,,,,,,,,,,,,,,,,,,,,,,,,,,,,,001,143,2020_Feb_20_0933,spring_faces,3.1.5,60.06161444729609,
condition files/Stage1_2.xlsx,,T4,B4,m,"['c', 'm']","['Clue', 'Monopoly']","[-0.15, 0.5]","[0.15, 0.5]",1,1,,,,,,,,,0,11,11,11,0,3,3,7,,,,,,,,,,,,,,,,,,,,,,,,,,,,,,,,,,,,,,,,,,,,,,,,,,,,,,,808.8336858500002,None,808.8336858500002,None,808.8336858500002,None,c,0,-0.02932429799966485,810.384235347,None,810.384235347,None,810.384235347,None,810.4358420190001,None,810.4358420190001,None,810.4358420190001,None,810.4358420190001,None,,,,,,,,,,,,,,,,,,,,,,,,,,,,,,,,,,,,,,,,,,,,001,143,2020_Feb_20_0933,spring_faces,3.1.5,60.06161444729609,
condition files/Stage1_2.xlsx,,B2,T2,m,"['c', 'm']","['Clue', 'Monopoly']","[-0.15, 0.5]","[0.15, 0.5]",1,1,,,,,,,,,0,11,11,11,0,4,4,3,,,,,,,,,,,,,,,,,,,,,,,,,,,,,,,,,,,,,,,,,,,,,,,,,,,,,,,812.4004094420002,None,812.4004094420002,None,812.4004094420002,None,m,1,0.2774623660002362,813.9334980090002,None,813.9334980090002,None,813.9334980090002,None,814.2672075830001,None,814.2672075830001,None,814.2672075830001,None,814.2672075830001,None,,,,,,,,,,,,,,,,,,,,,,,,,,,,,,,,,,,,,,,,,,,,001,143,2020_Feb_20_0933,spring_faces,3.1.5,60.06161444729609,
condition files/Stage1_2.xlsx,,T2,B1,c,"['c', 'm']","['Clue', 'Monopoly']","[-0.15, 0.5]","[0.15, 0.5]",1,1,,,,,,,,,0,11,11,11,0,5,5,1,,,,,,,,,,,,,,,,,,,,,,,,,,,,,,,,,,,,,,,,,,,,,,,,,,,,,,,816.2339613100003,None,816.2339613100003,None,816.2339613100003,None,m,0,0.09200757300004625,817.7669450660001,None,817.7669450660001,None,817.7669450660001,None,817.9342036980001,None,817.9342036980001,None,817.9342036980001,None,817.9342036980001,None,,,,,,,,,,,,,,,,,,,,,,,,,,,,,,,,,,,,,,,,,,,,001,143,2020_Feb_20_0933,spring_faces,3.1.5,60.06161444729609,
condition files/Stage1_2.xlsx,,T1,B2,m,"['c', 'm']","['Clue', 'Monopoly']","[-0.15, 0.5]","[0.15, 0.5]",1,1,,,,,,,,,0,11,11,11,0,6,6,2,,,,,,,,,,,,,,,,,,,,,,,,,,,,,,,,,,,,,,,,,,,,,,,,,,,,,,,819.8831759479999,None,819.8831759479999,None,819.8831759479999,None,c,0,0.37797494300002654,821.416879503,None,821.416879503,None,821.416879503,None,821.8673263199998,None,821.8673263199998,None,821.8673263199998,None,821.8673263199998,None,,,,,,,,,,,,,,,,,,,,,,,,,,,,,,,,,,,,,,,,,,,,001,143,2020_Feb_20_0933,spring_faces,3.1.5,60.06161444729609,
condition files/Stage1_2.xlsx,,B3,T4,m,"['c', 'm']","['Clue', 'Monopoly']","[-0.15, 0.5]","[0.15, 0.5]",1,1,,,,,,,,,0,11,11,11,0,7,7,6,,,,,,,,,,,,,,,,,,,,,,,,,,,,,,,,,,,,,,,,,,,,,,,,,,,,,,,823.8164874120002,None,823.8164874120002,None,823.8164874120002,None,c,0,0.18653872400000182,825.352379813,None,825.352379813,None,825.352379813,None,825.601028223,None,825.601028223,None,825.601028223,None,825.601028223,None,,,,,,,,,,,,,,,,,,,,,,,,,,,,,,,,,,,,,,,,,,,,001,143,2020_Feb_20_0933,spring_faces,3.1.5,60.06161444729609,
,,,,,,,,,,,,,,,,,,,,,,,,,,,,,,,,,,,,,,,,,,,,,,,,,,,,,,,,,,,,,,,,,,,,,,,,,,,,,,,,,,,,,,,,,,,,,,,,,,,,,,,,,,,,,,,,827.5841160260002,None,space,9.595166206000158,832.583756817,None,,,,,,,,,,,,,,,,,,,,,,,,,,,,,,001,143,2020_Feb_20_0933,spring_faces,3.1.5,60.06161444729609,
condition files/Stage2_1.xlsx,,B6,T6,r,"['s', 'r']","['Stratego', 'Risk']","[-0.15, 0.5]","[0.15, 0.5]",1,1,,,,,,,,,,,,,,,,,0,0,0,0,0,0,0,1,,,,,,,,,,,,,,,,,,,,,,,,,,,,,,,,,,,,,,,,,,,,,,,842.283979933,None,842.283979933,None,842.283979933,None,s,0,1.9453449799998452,843.817534969,None,843.817534969,None,843.817534969,None,845.8343461630002,None,845.8343461630002,None,845.8343461630002,None,845.8343461630002,None,,,,,,,,,,,,,,,832.583756817,None,,,,,,,,,,,,,,,,,,,,,,,,,,,,001,143,2020_Feb_20_0933,spring_faces,3.1.5,60.06161444729609,
condition files/Stage2_1.xlsx,,B2,T2,r,"['s', 'r']","['Stratego', 'Risk']","[-0.15, 0.5]","[0.15, 0.5]",1,1,,,,,,,,,,,,,,,,,0,0,0,0,0,1,1,3,,,,,,,,,,,,,,,,,,,,,,,,,,,,,,,,,,,,,,,,,,,,,,,847.783711648,None,847.783711648,None,847.783711648,None,r,1,0.8930825459997322,849.3178763280002,None,849.3178763280002,None,849.3178763280002,None,850.2675453950001,None,850.2675453950001,None,850.2675453950001,None,850.2675453950001,None,,,,,,,,,,,,,,,,,,,,,,,,,,,,,,,,,,,,,,,,,,,,001,143,2020_Feb_20_0933,spring_faces,3.1.5,60.06161444729609,
condition files/Stage2_1.xlsx,,B4,T4,r,"['s', 'r']","['Stratego', 'Risk']","[-0.15, 0.5]","[0.15, 0.5]",1,1,,,,,,,,,,,,,,,,,0,0,0,0,0,2,2,5,,,,,,,,,,,,,,,,,,,,,,,,,,,,,,,,,,,,,,,,,,,,,,,852.2341343379999,None,852.2341343379999,None,852.2341343379999,None,s,0,1.0026326600000175,853.76827792,None,853.76827792,None,853.76827792,None,854.8338934799999,None,854.8338934799999,None,854.8338934799999,None,854.8338934799999,None,,,,,,,,,,,,,,,,,,,,,,,,,,,,,,,,,,,,,,,,,,,,001,143,2020_Feb_20_0933,spring_faces,3.1.5,60.06161444729609,
condition files/Stage2_1.xlsx,,T1,B1,s,"['s', 'r']","['Stratego', 'Risk']","[-0.15, 0.5]","[0.15, 0.5]",1,1,,,,,,,,,,,,,,,,,0,0,0,0,0,3,3,2,,,,,,,,,,,,,,,,,,,,,,,,,,,,,,,,,,,,,,,,,,,,,,,856.8003464080002,None,856.8003464080002,None,856.8003464080002,None,s,1,1.3331505569999536,858.3337404990002,None,858.3337404990002,None,858.3337404990002,None,859.733678997,None,859.733678997,None,859.733678997,None,859.733678997,None,,,,,,,,,,,,,,,,,,,,,,,,,,,,,,,,,,,,,,,,,,,,001,143,2020_Feb_20_0933,spring_faces,3.1.5,60.06161444729609,
condition files/Stage2_1.xlsx,,T3,B3,s,"['s', 'r']","['Stratego', 'Risk']","[-0.15, 0.5]","[0.15, 0.5]",1,1,,,,,,,,,,,,,,,,,0,0,0,0,0,4,4,4,,,,,,,,,,,,,,,,,,,,,,,,,,,,,,,,,,,,,,,,,,,,,,,861.6833594310001,None,861.6833594310001,None,861.6833594310001,None,s,1,1.344582760999856,863.2183085239999,None,863.2183085239999,None,863.2183085239999,None,864.6172088440003,None,864.6172088440003,None,864.6172088440003,None,864.6172088440003,None,,,,,,,,,,,,,,,,,,,,,,,,,,,,,,,,,,,,,,,,,,,,001,143,2020_Feb_20_0933,spring_faces,3.1.5,60.06161444729609,
condition files/Stage2_1.xlsx,,T5,B5,s,"['s', 'r']","['Stratego', 'Risk']","[-0.15, 0.5]","[0.15, 0.5]",1,1,,,,,,,,,,,,,,,,,0,0,0,0,0,5,5,0,,,,,,,,,,,,,,,,,,,,,,,,,,,,,,,,,,,,,,,,,,,,,,,866.583217802,None,866.583217802,None,866.583217802,None,s,1,1.0514156019999064,868.1834013940002,None,868.1834013940002,None,868.1834013940002,None,869.3016690290001,None,869.3016690290001,None,869.3016690290001,None,869.3016690290001,None,,,,,,,,,,,,,,,,,,,,,,,,,,,,,,,,,,,,,,,,,,,,001,143,2020_Feb_20_0933,spring_faces,3.1.5,60.06161444729609,
condition files/Stage2_2.xlsx,,T2,B2,r,"['s', 'r']","['Stratego', 'Risk']","[-0.15, 0.5]","[0.15, 0.5]",1,1,,,,,,,,,,,,,,,,,0,1,1,1,0,0,0,3,,,,,,,,,,,,,,,,,,,,,,,,,,,,,,,,,,,,,,,,,,,,,,,871.3339809700001,None,871.3339809700001,None,871.3339809700001,None,r,1,0.8481702989997757,872.818738123,None,872.818738123,None,872.818738123,None,873.733397982,None,873.733397982,None,873.733397982,None,873.733397982,None,,,,,,,,,,,,,,,,,,,,,,,,,,,,,,,,,,,,,,,,,,,,001,143,2020_Feb_20_0933,spring_faces,3.1.5,60.06161444729609,
condition files/Stage2_2.xlsx,,B5,T5,s,"['s', 'r']","['Stratego', 'Risk']","[-0.15, 0.5]","[0.15, 0.5]",1,1,,,,,,,,,,,,,,,,,0,1,1,1,0,1,1,0,,,,,,,,,,,,,,,,,,,,,,,,,,,,,,,,,,,,,,,,,,,,,,,875.6837974740001,None,875.6837974740001,None,875.6837974740001,None,s,1,1.1856739250001738,877.2172279290003,None,877.2172279290003,None,877.2172279290003,None,878.4698533619999,None,878.4698533619999,None,878.4698533619999,None,878.4698533619999,None,,,,,,,,,,,,,,,,,,,,,,,,,,,,,,,,,,,,,,,,,,,,001,143,2020_Feb_20_0933,spring_faces,3.1.5,60.06161444729609,
condition files/Stage2_2.xlsx,,T4,B4,r,"['s', 'r']","['Stratego', 'Risk']","[-0.15, 0.5]","[0.15, 0.5]",1,1,,,,,,,,,,,,,,,,,0,1,1,1,0,2,2,5,,,,,,,,,,,,,,,,,,,,,,,,,,,,,,,,,,,,,,,,,,,,,,,880.4342620319999,None,880.4342620319999,None,880.4342620319999,None,s,0,0.7396510089997719,881.967313612,None,881.967313612,None,881.967313612,None,882.783335481,None,882.783335481,None,882.783335481,None,882.783335481,None,,,,,,,,,,,,,,,,,,,,,,,,,,,,,,,,,,,,,,,,,,,,001,143,2020_Feb_20_0933,spring_faces,3.1.5,60.06161444729609,
condition files/Stage2_2.xlsx,,B1,T1,s,"['s', 'r']","['Stratego', 'Risk']","[-0.15, 0.5]","[0.15, 0.5]",1,1,,,,,,,,,,,,,,,,,0,1,1,1,0,3,3,2,,,,,,,,,,,,,,,,,,,,,,,,,,,,,,,,,,,,,,,,,,,,,,,884.7338361900001,None,884.7338361900001,None,884.7338361900001,None,s,1,0.5672131579999586,886.2676220660001,None,886.2676220660001,None,886.2676220660001,None,886.9173971959999,None,886.9173971959999,None,886.9173971959999,None,886.9173971959999,None,,,,,,,,,,,,,,,,,,,,,,,,,,,,,,,,,,,,,,,,,,,,001,143,2020_Feb_20_0933,spring_faces,3.1.5,60.06161444729609,
condition files/Stage2_2.xlsx,,T6,B6,r,"['s', 'r']","['Stratego', 'Risk']","[-0.15, 0.5]","[0.15, 0.5]",1,1,,,,,,,,,,,,,,,,,0,1,1,1,0,4,4,1,,,,,,,,,,,,,,,,,,,,,,,,,,,,,,,,,,,,,,,,,,,,,,,888.8673141130002,None,888.8673141130002,None,888.8673141130002,None,s,0,0.001561863999995694,890.4012641180002,None,890.4012641180002,None,890.4012641180002,None,890.4836074650002,None,890.4836074650002,None,890.4836074650002,None,890.4836074650002,None,,,,,,,,,,,,,,,,,,,,,,,,,,,,,,,,,,,,,,,,,,,,001,143,2020_Feb_20_0933,spring_faces,3.1.5,60.06161444729609,
condition files/Stage2_2.xlsx,,B3,T3,s,"['s', 'r']","['Stratego', 'Risk']","[-0.15, 0.5]","[0.15, 0.5]",1,1,,,,,,,,,,,,,,,,,0,1,1,1,0,5,5,4,,,,,,,,,,,,,,,,,,,,,,,,,,,,,,,,,,,,,,,,,,,,,,,892.4337732489998,None,892.4337732489998,None,892.4337732489998,None,r,0,0.27554905500028326,893.967411089,None,893.967411089,None,893.967411089,None,894.316818108,None,894.316818108,None,894.316818108,None,894.316818108,None,,,,,,,,,,,,,,,,,,,,,,,,,,,,,,,,,,,,,,,,,,,,001,143,2020_Feb_20_0933,spring_faces,3.1.5,60.06161444729609,
condition files/Stage2_1.xlsx,,B2,T2,r,"['s', 'r']","['Stratego', 'Risk']","[-0.15, 0.5]","[0.15, 0.5]",1,1,,,,,,,,,,,,,,,,,0,2,2,2,0,0,0,3,,,,,,,,,,,,,,,,,,,,,,,,,,,,,,,,,,,,,,,,,,,,,,,896.2844078110002,None,896.2844078110002,None,896.2844078110002,None,s,0,1.417239254999913,897.8335791949999,None,897.8335791949999,None,897.8335791949999,None,899.3170125219999,None,899.3170125219999,None,899.3170125219999,None,899.3170125219999,None,,,,,,,,,,,,,,,,,,,,,,,,,,,,,,,,,,,,,,,,,,,,001,143,2020_Feb_20_0933,spring_faces,3.1.5,60.06161444729609,
condition files/Stage2_1.xlsx,,T3,B3,s,"['s', 'r']","['Stratego', 'Risk']","[-0.15, 0.5]","[0.15, 0.5]",1,1,,,,,,,,,,,,,,,,,0,2,2,2,0,1,1,4,,,,,,,,,,,,,,,,,,,,,,,,,,,,,,,,,,,,,,,,,,,,,,,901.2831826430001,None,901.2831826430001,None,901.2831826430001,None,r,0,0.6089417869998215,902.8179062520003,None,902.8179062520003,None,902.8179062520003,None,903.5007289109999,None,903.5007289109999,None,903.5007289109999,None,903.5007289109999,None,,,,,,,,,,,,,,,,,,,,,,,,,,,,,,,,,,,,,,,,,,,,001,143,2020_Feb_20_0933,spring_faces,3.1.5,60.06161444729609,
condition files/Stage2_1.xlsx,,T1,B1,s,"['s', 'r']","['Stratego', 'Risk']","[-0.15, 0.5]","[0.15, 0.5]",1,1,,,,,,,,,,,,,,,,,0,2,2,2,0,2,2,2,,,,,,,,,,,,,,,,,,,,,,,,,,,,,,,,,,,,,,,,,,,,,,,905.4498569550001,None,905.4498569550001,None,905.4498569550001,None,s,1,0.6019578860000365,907.00092627,None,907.00092627,None,907.00092627,None,907.6669288020003,None,907.6669288020003,None,907.6669288020003,None,907.6669288020003,None,,,,,,,,,,,,,,,,,,,,,,,,,,,,,,,,,,,,,,,,,,,,001,143,2020_Feb_20_0933,spring_faces,3.1.5,60.06161444729609,
condition files/Stage2_1.xlsx,,B6,T6,r,"['s', 'r']","['Stratego', 'Risk']","[-0.15, 0.5]","[0.15, 0.5]",1,1,,,,,,,,,,,,,,,,,0,2,2,2,0,3,3,1,,,,,,,,,,,,,,,,,,,,,,,,,,,,,,,,,,,,,,,,,,,,,,,909.6337739810001,None,909.6337739810001,None,909.6337739810001,None,r,1,0.035527696999906766,None,None,None,None,None,None,911.217450567,None,911.217450567,None,911.217450567,None,911.217450567,None,,,,,,,,,,,,,,,,,,,,,,,,,,,,,,,,,,,,,,,,,,,,001,143,2020_Feb_20_0933,spring_faces,3.1.5,60.06161444729609,
condition files/Stage2_1.xlsx,,B4,T4,r,"['s', 'r']","['Stratego', 'Risk']","[-0.15, 0.5]","[0.15, 0.5]",1,1,,,,,,,,,,,,,,,,,0,2,2,2,0,4,4,5,,,,,,,,,,,,,,,,,,,,,,,,,,,,,,,,,,,,,,,,,,,,,,,913.1836429919999,None,913.1836429919999,None,913.1836429919999,None,s,0,3.9565230690000135,914.718432051,None,914.718432051,None,914.718432051,None,918.7341552490002,None,918.7341552490002,None,918.7341552490002,None,918.7341552490002,None,,,,,,,,,,,,,,,,,,,,,,,,,,,,,,,,,,,,,,,,,,,,001,143,2020_Feb_20_0933,spring_faces,3.1.5,60.06161444729609,
condition files/Stage2_1.xlsx,,T5,B5,s,"['s', 'r']","['Stratego', 'Risk']","[-0.15, 0.5]","[0.15, 0.5]",1,1,,,,,,,,,,,,,,,,,0,2,2,2,0,5,5,0,,,,,,,,,,,,,,,,,,,,,,,,,,,,,,,,,,,,,,,,,,,,,,,920.7003862340002,None,920.7003862340002,None,920.7003862340002,None,r,0,1.0475922440000431,922.2352991729999,None,922.2352991729999,None,922.2352991729999,None,923.350298067,None,923.350298067,None,923.350298067,None,923.350298067,None,,,,,,,,,,,,,,,,,,,,,,,,,,,,,,,,,,,,,,,,,,,,001,143,2020_Feb_20_0933,spring_faces,3.1.5,60.06161444729609,
condition files/Stage2_2.xlsx,,B3,T3,s,"['s', 'r']","['Stratego', 'Risk']","[-0.15, 0.5]","[0.15, 0.5]",1,1,,,,,,,,,,,,,,,,,0,3,3,3,0,0,0,4,,,,,,,,,,,,,,,,,,,,,,,,,,,,,,,,,,,,,,,,,,,,,,,925.3170992599998,None,925.3170992599998,None,925.3170992599998,None,s,1,5.952329248999831,926.8505778080003,None,926.8505778080003,None,926.8505778080003,None,932.867347983,None,932.867347983,None,932.867347983,None,932.867347983,None,,,,,,,,,,,,,,,,,,,,,,,,,,,,,,,,,,,,,,,,,,,,001,143,2020_Feb_20_0933,spring_faces,3.1.5,60.06161444729609,
condition files/Stage2_2.xlsx,,T4,B4,r,"['s', 'r']","['Stratego', 'Risk']","[-0.15, 0.5]","[0.15, 0.5]",1,1,,,,,,,,,,,,,,,,,0,3,3,3,0,1,1,5,,,,,,,,,,,,,,,,,,,,,,,,,,,,,,,,,,,,,,,,,,,,,,,934.8337888159999,None,934.8337888159999,None,934.8337888159999,None,r,1,2.3560981400000856,936.3668171280001,None,936.3668171280001,None,936.3668171280001,None,938.800763234,None,938.800763234,None,938.800763234,None,938.800763234,None,,,,,,,,,,,,,,,,,,,,,,,,,,,,,,,,,,,,,,,,,,,,001,143,2020_Feb_20_0933,spring_faces,3.1.5,60.06161444729609,
condition files/Stage2_2.xlsx,,B5,T5,s,"['s', 'r']","['Stratego', 'Risk']","[-0.15, 0.5]","[0.15, 0.5]",1,1,,,,,,,,,,,,,,,,,0,3,3,3,0,2,2,0,,,,,,,,,,,,,,,,,,,,,,,,,,,,,,,,,,,,,,,,,,,,,,,940.7503351089999,None,940.7503351089999,None,940.7503351089999,None,s,1,0.45495236100032344,942.2839581980002,None,942.2839581980002,None,942.2839581980002,None,942.8171668700002,None,942.8171668700002,None,942.8171668700002,None,942.8171668700002,None,,,,,,,,,,,,,,,,,,,,,,,,,,,,,,,,,,,,,,,,,,,,001,143,2020_Feb_20_0933,spring_faces,3.1.5,60.06161444729609,
condition files/Stage2_2.xlsx,,T2,B2,r,"['s', 'r']","['Stratego', 'Risk']","[-0.15, 0.5]","[0.15, 0.5]",1,1,,,,,,,,,,,,,,,,,0,3,3,3,0,3,3,3,,,,,,,,,,,,,,,,,,,,,,,,,,,,,,,,,,,,,,,,,,,,,,,944.767034044,None,944.767034044,None,944.767034044,None,r,1,0.35798780000004626,946.3009625170002,None,946.3009625170002,None,946.3009625170002,None,946.734181845,None,946.734181845,None,946.734181845,None,946.734181845,None,,,,,,,,,,,,,,,,,,,,,,,,,,,,,,,,,,,,,,,,,,,,001,143,2020_Feb_20_0933,spring_faces,3.1.5,60.06161444729609,
condition files/Stage2_2.xlsx,,T6,B6,r,"['s', 'r']","['Stratego', 'Risk']","[-0.15, 0.5]","[0.15, 0.5]",1,1,,,,,,,,,,,,,,,,,0,3,3,3,0,4,4,1,,,,,,,,,,,,,,,,,,,,,,,,,,,,,,,,,,,,,,,,,,,,,,,948.6828183329999,None,948.6828183329999,None,948.6828183329999,None,s,0,0.39220304499986014,950.2187488320001,None,950.2187488320001,None,950.2187488320001,None,950.6684050090003,None,950.6684050090003,None,950.6684050090003,None,950.6684050090003,None,,,,,,,,,,,,,,,,,,,,,,,,,,,,,,,,,,,,,,,,,,,,001,143,2020_Feb_20_0933,spring_faces,3.1.5,60.06161444729609,
condition files/Stage2_2.xlsx,,B1,T1,s,"['s', 'r']","['Stratego', 'Risk']","[-0.15, 0.5]","[0.15, 0.5]",1,1,,,,,,,,,,,,,,,,,0,3,3,3,0,5,5,2,,,,,,,,,,,,,,,,,,,,,,,,,,,,,,,,,,,,,,,,,,,,,,,952.6337471430002,None,952.6337471430002,None,952.6337471430002,None,s,1,0.28287182199983363,954.1840128029999,None,954.1840128029999,None,954.1840128029999,None,954.5340025800001,None,954.5340025800001,None,954.5340025800001,None,954.5340025800001,None,,,,,,,,,,,,,,,,,,,,,,,,,,,,,,,,,,,,,,,,,,,,001,143,2020_Feb_20_0933,spring_faces,3.1.5,60.06161444729609,
condition files/Stage2_1.xlsx,,T3,B3,s,"['s', 'r']","['Stratego', 'Risk']","[-0.15, 0.5]","[0.15, 0.5]",1,1,,,,,,,,,,,,,,,,,0,4,4,4,0,0,0,4,,,,,,,,,,,,,,,,,,,,,,,,,,,,,,,,,,,,,,,,,,,,,,,956.5003871170002,None,956.5003871170002,None,956.5003871170002,None,r,0,0.12913952300004894,958.0337562280001,None,958.0337562280001,None,958.0337562280001,None,958.2174395930001,None,958.2174395930001,None,958.2174395930001,None,958.2174395930001,None,,,,,,,,,,,,,,,,,,,,,,,,,,,,,,,,,,,,,,,,,,,,001,143,2020_Feb_20_0933,spring_faces,3.1.5,60.06161444729609,
condition files/Stage2_1.xlsx,,B2,T2,r,"['s', 'r']","['Stratego', 'Risk']","[-0.15, 0.5]","[0.15, 0.5]",1,1,,,,,,,,,,,,,,,,,0,4,4,4,0,1,1,3,,,,,,,,,,,,,,,,,,,,,,,,,,,,,,,,,,,,,,,,,,,,,,,960.1836809480001,None,960.1836809480001,None,960.1836809480001,None,r,1,0.22133432000009634,961.7335598610002,None,961.7335598610002,None,961.7335598610002,None,962.0191441790003,None,962.0191441790003,None,962.0191441790003,None,962.0191441790003,None,,,,,,,,,,,,,,,,,,,,,,,,,,,,,,,,,,,,,,,,,,,,001,143,2020_Feb_20_0933,spring_faces,3.1.5,60.06161444729609,
condition files/Stage2_1.xlsx,,B6,T6,r,"['s', 'r']","['Stratego', 'Risk']","[-0.15, 0.5]","[0.15, 0.5]",1,1,,,,,,,,,,,,,,,,,0,4,4,4,0,2,2,1,,,,,,,,,,,,,,,,,,,,,,,,,,,,,,,,,,,,,,,,,,,,,,,963.9837332010002,None,963.9837332010002,None,963.9837332010002,None,r,1,0.3885642340001141,965.518382882,None,965.518382882,None,965.518382882,None,965.9670455640003,None,965.9670455640003,None,965.9670455640003,None,965.9670455640003,None,,,,,,,,,,,,,,,,,,,,,,,,,,,,,,,,,,,,,,,,,,,,001,143,2020_Feb_20_0933,spring_faces,3.1.5,60.06161444729609,
condition files/Stage2_1.xlsx,,T1,B1,s,"['s', 'r']","['Stratego', 'Risk']","[-0.15, 0.5]","[0.15, 0.5]",1,1,,,,,,,,,,,,,,,,,0,4,4,4,0,3,3,2,,,,,,,,,,,,,,,,,,,,,,,,,,,,,,,,,,,,,,,,,,,,,,,967.9337714210001,None,967.9337714210001,None,967.9337714210001,None,r,0,0.05462218100001337,969.468327387,None,969.468327387,None,969.468327387,None,969.6006040890002,None,969.6006040890002,None,969.6006040890002,None,969.6006040890002,None,,,,,,,,,,,,,,,,,,,,,,,,,,,,,,,,,,,,,,,,,,,,001,143,2020_Feb_20_0933,spring_faces,3.1.5,60.06161444729609,
condition files/Stage2_1.xlsx,,B4,T4,r,"['s', 'r']","['Stratego', 'Risk']","[-0.15, 0.5]","[0.15, 0.5]",1,1,,,,,,,,,,,,,,,,,0,4,4,4,0,4,4,5,,,,,,,,,,,,,,,,,,,,,,,,,,,,,,,,,,,,,,,,,,,,,,,971.549820065,None,971.549820065,None,971.549820065,None,s,0,0.422153519999938,973.100682629,None,973.100682629,None,973.100682629,None,973.585455591,None,973.585455591,None,973.585455591,None,973.585455591,None,,,,,,,,,,,,,,,,,,,,,,,,,,,,,,,,,,,,,,,,,,,,001,143,2020_Feb_20_0933,spring_faces,3.1.5,60.06161444729609,
condition files/Stage2_1.xlsx,,T5,B5,s,"['s', 'r']","['Stratego', 'Risk']","[-0.15, 0.5]","[0.15, 0.5]",1,1,,,,,,,,,,,,,,,,,0,4,4,4,0,5,5,0,,,,,,,,,,,,,,,,,,,,,,,,,,,,,,,,,,,,,,,,,,,,,,,975.5503383310001,None,975.5503383310001,None,975.5503383310001,None,s,1,0.6142552330002218,977.100619884,None,977.100619884,None,977.100619884,None,977.7681070240001,None,977.7681070240001,None,977.7681070240001,None,977.7681070240001,None,,,,,,,,,,,,,,,,,,,,,,,,,,,,,,,,,,,,,,,,,,,,001,143,2020_Feb_20_0933,spring_faces,3.1.5,60.06161444729609,
