condsFile,subStage,cue1,cue2,correct,responseKeys,responseNames,cue1Position,cue2Position,cue1Opacity,cue2Opacity,stageLoop0.thisRepN,stageLoop0.thisTrialN,stageLoop0.thisN,stageLoop0.thisIndex,blockLoop0.thisRepN,blockLoop0.thisTrialN,blockLoop0.thisN,blockLoop0.thisIndex,stage1Loop.thisRepN,stage1Loop.thisTrialN,stage1Loop.thisN,stage1Loop.thisIndex,blockLoop1.thisRepN,blockLoop1.thisTrialN,blockLoop1.thisN,blockLoop1.thisIndex,stage2Loop.thisRepN,stage2Loop.thisTrialN,stage2Loop.thisN,stage2Loop.thisIndex,blockLoop2.thisRepN,blockLoop2.thisTrialN,blockLoop2.thisN,blockLoop2.thisIndex,testLoop.thisRepN,testLoop.thisTrialN,testLoop.thisN,testLoop.thisIndex,blockLoopTest.thisRepN,blockLoopTest.thisTrialN,blockLoopTest.thisN,blockLoopTest.thisIndex,cuePics,id_instr_text.started,id_instr_text.stopped,space_to_continue_2.started,space_to_continue_2.stopped,end_instructions_resp_3.keys,end_instructions_resp_3.rt,end_instructions_resp_3.started,end_instructions_resp_3.stopped,id_input_instr.started,id_input_instr.stopped,id_input_rect.started,id_input_rect.stopped,id_input_resp.keys,id_input_resp.rt,id_input_resp.started,id_input_resp.stopped,sonaID,id_input_text.started,id_input_text.stopped,final_text.started,final_text.stopped,instructions.started,instructions.stopped,end_instructions_resp.keys,end_instructions_resp.rt,end_instructions_resp.started,end_instructions_resp.stopped,space_to_continue.started,space_to_continue.stopped,instructions_stage0.started,instructions_stage0.stopped,end_instructions_resp_stage0.keys,end_instructions_resp_stage0.rt,end_instructions_resp_stage0.started,end_instructions_resp_stage0.stopped,space_to_continue_stage0.started,space_to_continue_stage0.stopped,text.started,text.stopped,resp_text1.started,resp_text1.stopped,resp_text2.started,resp_text2.stopped,trial_resp.keys,trial_resp.corr,trial_resp.rt,trial_resp.started,trial_resp.stopped,cue1Image.started,cue1Image.stopped,cue2Image.started,cue2Image.stopped,cue1Image_fb.started,cue1Image_fb.stopped,cue2Image_fb.started,cue2Image_fb.stopped,fb_text_answer.started,fb_text_answer.stopped,feedback_image.started,feedback_image.stopped,instructions_stage1.started,instructions_stage1.stopped,end_instructions_resp_stage1.keys,end_instructions_resp_stage1.rt,end_instructions_resp_stage1.started,end_instructions_resp_stage1.stopped,space_to_continue_stage1.started,space_to_continue_stage1.stopped,instructions_2.started,instructions_2.stopped,end_instructions_resp_2.keys,end_instructions_resp_2.rt,end_instructions_resp_2.started,end_instructions_resp_2.stopped,press_space_to_continue_stage2.started,press_space_to_continue_stage2.stopped,instructions_testStage1.started,instructions_testStage1.stopped,end_instructions_resp_test1.keys,end_instructions_resp_test1.rt,end_instructions_resp_test1.started,end_instructions_resp_test1.stopped,press_space_to_continue_test1.started,press_space_to_continue_test1.stopped,cue1Image_testChoice.started,cue1Image_testChoice.stopped,cue2Image_testChoice.started,cue2Image_testChoice.stopped,test_resp.keys,test_resp.corr,test_resp.rt,test_resp.started,test_resp.stopped,cue1Image_testConf.started,cue1Image_testConf.stopped,cue2Image_testConf.started,cue2Image_testConf.stopped,conf_reminder.started,conf_reminder.stopped,conf_rating.response,conf_rating.rt,conf_rating.started,conf_rating.stopped,session,participant,date,expName,psychopyVersion,frameRate,
,,,,,,,,,,,,,,,,,,,,,,,,,,,,,,,,,,,,,,,,,,,"{'none': 'pictures/20M_AN_C.png', 'alpha': 'pictures/SHINEd_apple.png', 'beta': 'pictures/SHINEd_pear.png', 'theta': 'pictures/SHINEd_melon.png', 'phi': 'pictures/SHINEd_pepper.png', 'T1': 'pictures/26M_AN_C.png', 'T2': 'pictures/38M_AN_C.png', 'T3': 'pictures/20M_AN_C.png', 'T4': 'pictures/25M_AN_C.png', 'T5': 'pictures/33M_AN_C.png', 'T6': 'pictures/22M_AN_C.png', 'B1': 'pictures/34M_NE_C.png', 'B2': 'pictures/23M_NE_C.png', 'B3': 'pictures/32M_NE_C.png', 'B4': 'pictures/31M_NE_C.png', 'B5': 'pictures/36M_NE_C.png', 'B6': 'pictures/37M_NE_C.png'}",16.7324446800003,None,21.732728210999994,None,space,37.799837593999655,21.732728210999994,None,,,,,,,,,,,,,,,,,,,,,,,,,,,,,,,,,,,,,,,,,,,,,,,,,,,,,,,,,,,,,,,,,,,,,,,,,,,,,,,,,,,,,,,,,,,,,,,,001,147,2020_Feb_20_1051,spring_faces,3.1.5,60.04684975299286,
,,,,,,,,,,,,,,,,,,,,,,,,,,,,,,,,,,,,,,,,,,,,,,,,,,,,59.91575716199986,None,59.91575716199986,None,"['0', '5', '0', '8', 'e', 'l', 'c', 'h', 'e']","[9.360819393000384, 10.48067612199975, 20.384703018000437, 20.464760953000223, 26.304783790999863, 26.416796940000495, 38.83279189200039, 38.99281658600012, 39.16871490500034]",59.91575716199986,None,,,,,,,,,,,,,,,,,,,,,,,,,,,,,,,,,,,,,,,,,,,,,,,,,,,,,,,,,,,,,,,,,,,,,,,,,,,,,,,,,,,,,,,,001,147,2020_Feb_20_1051,spring_faces,3.1.5,60.04684975299286,
,,,,,,,,,,,,,,,,,,,,,,,,,,,,,,,,,,,,,,,,,,,,,,,,,,,,,,,,,,,,0508elche,59.91575716199986,None,59.91575716199986,None,104.16668057200059,None,space,8.54257448899989,109.16602086400053,None,,,,,,,,,,,,,,,,,,,,,,,,,,,,,,,,,,,,,,,,,,,,,,,,,,,,,,,,,,,,,,,,,,,,,,,,,,,,,001,147,2020_Feb_20_1051,spring_faces,3.1.5,60.04684975299286,
,,,,,,,,,,,,,,,,,,,,,,,,,,,,,,,,,,,,,,,,,,,,,,,,,,,,,,,,,,,,,,,,,,,,,,,109.16602086400053,None,117.74983937600064,None,space,6.991436100000101,122.73316364000038,None,,,,,,,,,,,,,,,,,,,,,,,,,,,,,,,,,,,,,,,,,,,,,,,,,,,,,,,,,,,,,,,,,,,,,001,147,2020_Feb_20_1051,spring_faces,3.1.5,60.04684975299286,
condition files/Stage0a.xlsx,0a,beta,none,g,"['h', 'g']","['Chess', 'Go']","[0, 0.5]","[0, 0]",1,0,0,0,0,0,0,0,0,1,,,,,,,,,,,,,,,,,,,,,,,,,,,,,,,,,,,,,,,,,,,,,,,,,,,,,,,,,,,,,122.73316364000038,None,129.78314425500048,None,129.78314425500048,None,129.78314425500048,None,h,0,2.7264329409999846,131.36610952299998,None,131.36610952299998,None,131.36610952299998,None,134.1658970210001,None,134.1658970210001,None,134.1658970210001,None,134.1658970210001,None,,,,,,,,,,,,,,,,,,,,,,,,,,,,,,,,,,,,,,,,,,,,001,147,2020_Feb_20_1051,spring_faces,3.1.5,60.04684975299286,
condition files/Stage0a.xlsx,0a,alpha,none,h,"['h', 'g']","['Chess', 'Go']","[0, 0.5]","[0, 0]",1,0,0,0,0,0,0,1,1,0,,,,,,,,,,,,,,,,,,,,,,,,,,,,,,,,,,,,,,,,,,,,,,,,,,,,,,,,,,,,,,,136.11569987700022,None,136.11569987700022,None,136.11569987700022,None,g,0,1.9458064259997627,137.65069860600033,None,137.65069860600033,None,137.65069860600033,None,139.64928868100014,None,139.64928868100014,None,139.64928868100014,None,139.64928868100014,None,,,,,,,,,,,,,,,,,,,,,,,,,,,,,,,,,,,,,,,,,,,,001,147,2020_Feb_20_1051,spring_faces,3.1.5,60.04684975299286,
condition files/Stage0a.xlsx,0a,alpha,none,h,"['h', 'g']","['Chess', 'Go']","[0, 0.5]","[0, 0]",1,0,0,1,1,1,0,0,0,0,,,,,,,,,,,,,,,,,,,,,,,,,,,,,,,,,,,,,,,,,,,,,,,,,,,,,,,,,,,,,,,141.63332177499979,None,141.63332177499979,None,141.63332177499979,None,h,1,1.933776002999366,143.16672435800047,None,143.16672435800047,None,143.16672435800047,None,145.16636019199996,None,145.16636019199996,None,145.16636019199996,None,145.16636019199996,None,,,,,,,,,,,,,,,,,,,,,,,,,,,,,,,,,,,,,,,,,,,,001,147,2020_Feb_20_1051,spring_faces,3.1.5,60.04684975299286,
condition files/Stage0a.xlsx,0a,beta,none,g,"['h', 'g']","['Chess', 'Go']","[0, 0.5]","[0, 0]",1,0,0,1,1,1,0,1,1,1,,,,,,,,,,,,,,,,,,,,,,,,,,,,,,,,,,,,,,,,,,,,,,,,,,,,,,,,,,,,,,,147.1325278940003,None,147.1325278940003,None,147.1325278940003,None,h,0,1.0258739920000153,148.6666896910001,None,148.6666896910001,None,148.6666896910001,None,149.7498497890001,None,149.7498497890001,None,149.7498497890001,None,149.7498497890001,None,,,,,,,,,,,,,,,,,,,,,,,,,,,,,,,,,,,,,,,,,,,,001,147,2020_Feb_20_1051,spring_faces,3.1.5,60.04684975299286,
condition files/Stage0a.xlsx,0a,alpha,none,h,"['h', 'g']","['Chess', 'Go']","[0, 0.5]","[0, 0]",1,0,0,2,2,2,0,0,0,0,,,,,,,,,,,,,,,,,,,,,,,,,,,,,,,,,,,,,,,,,,,,,,,,,,,,,,,,,,,,,,,151.73329465500046,None,151.73329465500046,None,151.73329465500046,None,h,1,1.0025644739998825,153.26596178700038,None,153.26596178700038,None,153.26596178700038,None,154.33233289700001,None,154.33233289700001,None,154.33233289700001,None,154.33233289700001,None,,,,,,,,,,,,,,,,,,,,,,,,,,,,,,,,,,,,,,,,,,,,001,147,2020_Feb_20_1051,spring_faces,3.1.5,60.04684975299286,
condition files/Stage0a.xlsx,0a,beta,none,g,"['h', 'g']","['Chess', 'Go']","[0, 0.5]","[0, 0]",1,0,0,2,2,2,0,1,1,1,,,,,,,,,,,,,,,,,,,,,,,,,,,,,,,,,,,,,,,,,,,,,,,,,,,,,,,,,,,,,,,156.2989455650004,None,156.2989455650004,None,156.2989455650004,None,g,1,0.5156359940001494,157.83292616100061,None,157.83292616100061,None,157.83292616100061,None,158.39917629800038,None,158.39917629800038,None,158.39917629800038,None,158.39917629800038,None,,,,,,,,,,,,,,,,,,,,,,,,,,,,,,,,,,,,,,,,,,,,001,147,2020_Feb_20_1051,spring_faces,3.1.5,60.04684975299286,
condition files/Stage0a.xlsx,0a,alpha,none,h,"['h', 'g']","['Chess', 'Go']","[0, 0.5]","[0, 0]",1,0,0,3,3,3,0,0,0,0,,,,,,,,,,,,,,,,,,,,,,,,,,,,,,,,,,,,,,,,,,,,,,,,,,,,,,,,,,,,,,,160.38297029600017,None,160.38297029600017,None,160.38297029600017,None,h,1,1.1045311320003748,161.91602750400034,None,161.91602750400034,None,161.91602750400034,None,163.0835348620003,None,163.0835348620003,None,163.0835348620003,None,163.0835348620003,None,,,,,,,,,,,,,,,,,,,,,,,,,,,,,,,,,,,,,,,,,,,,001,147,2020_Feb_20_1051,spring_faces,3.1.5,60.04684975299286,
condition files/Stage0a.xlsx,0a,beta,none,g,"['h', 'g']","['Chess', 'Go']","[0, 0.5]","[0, 0]",1,0,0,3,3,3,0,1,1,1,,,,,,,,,,,,,,,,,,,,,,,,,,,,,,,,,,,,,,,,,,,,,,,,,,,,,,,,,,,,,,,165.04897461400014,None,165.04897461400014,None,165.04897461400014,None,g,1,0.6610449789995982,166.5834359649998,None,166.5834359649998,None,166.5834359649998,None,167.2994163479998,None,167.2994163479998,None,167.2994163479998,None,167.2994163479998,None,,,,,,,,,,,,,,,,,,,,,,,,,,,,,,,,,,,,,,,,,,,,001,147,2020_Feb_20_1051,spring_faces,3.1.5,60.04684975299286,
condition files/Stage0a.xlsx,0a,alpha,none,h,"['h', 'g']","['Chess', 'Go']","[0, 0.5]","[0, 0]",1,0,0,4,4,4,0,0,0,0,,,,,,,,,,,,,,,,,,,,,,,,,,,,,,,,,,,,,,,,,,,,,,,,,,,,,,,,,,,,,,,169.28303031300038,None,169.28303031300038,None,169.28303031300038,None,h,1,0.7645886749996862,170.81593416499982,None,170.81593416499982,None,170.81593416499982,None,171.63254265900014,None,171.63254265900014,None,171.63254265900014,None,171.63254265900014,None,,,,,,,,,,,,,,,,,,,,,,,,,,,,,,,,,,,,,,,,,,,,001,147,2020_Feb_20_1051,spring_faces,3.1.5,60.04684975299286,
condition files/Stage0a.xlsx,0a,beta,none,g,"['h', 'g']","['Chess', 'Go']","[0, 0.5]","[0, 0]",1,0,0,4,4,4,0,1,1,1,,,,,,,,,,,,,,,,,,,,,,,,,,,,,,,,,,,,,,,,,,,,,,,,,,,,,,,,,,,,,,,173.59882811700027,None,173.59882811700027,None,173.59882811700027,None,g,1,0.4310922920003577,175.13343927000005,None,175.13343927000005,None,175.13343927000005,None,175.6153694020004,None,175.6153694020004,None,175.6153694020004,None,175.6153694020004,None,,,,,,,,,,,,,,,,,,,,,,,,,,,,,,,,,,,,,,,,,,,,001,147,2020_Feb_20_1051,spring_faces,3.1.5,60.04684975299286,
condition files/Stage0a.xlsx,0a,beta,none,g,"['h', 'g']","['Chess', 'Go']","[0, 0.5]","[0, 0]",1,0,0,5,5,5,0,0,0,1,,,,,,,,,,,,,,,,,,,,,,,,,,,,,,,,,,,,,,,,,,,,,,,,,,,,,,,,,,,,,,,177.5995625630003,None,177.5995625630003,None,177.5995625630003,None,g,1,0.8320543410000028,179.13248826400013,None,179.13248826400013,None,179.13248826400013,None,180.0165450860004,None,180.0165450860004,None,180.0165450860004,None,180.0165450860004,None,,,,,,,,,,,,,,,,,,,,,,,,,,,,,,,,,,,,,,,,,,,,001,147,2020_Feb_20_1051,spring_faces,3.1.5,60.04684975299286,
condition files/Stage0a.xlsx,0a,alpha,none,h,"['h', 'g']","['Chess', 'Go']","[0, 0.5]","[0, 0]",1,0,0,5,5,5,0,1,1,0,,,,,,,,,,,,,,,,,,,,,,,,,,,,,,,,,,,,,,,,,,,,,,,,,,,,,,,,,,,,,,,181.98270009499993,None,181.98270009499993,None,181.98270009499993,None,h,1,0.7366517500004193,183.51589339900056,None,183.51589339900056,None,183.51589339900056,None,184.31605628099987,None,184.31605628099987,None,184.31605628099987,None,184.31605628099987,None,,,,,,,,,,,,,,,,,,,,,,,,,,,,,,,,,,,,,,,,,,,,001,147,2020_Feb_20_1051,spring_faces,3.1.5,60.04684975299286,
condition files/Stage0b_1.xlsx,0b,none,beta,g,"['h', 'g']","['Chess', 'Go']","[-0.15, 0.5]","[0.15, 0.5]",0,1,0,6,6,6,0,0,0,1,,,,,,,,,,,,,,,,,,,,,,,,,,,,,,,,,,,,,,,,,,,,,,,,,,,,,,,,,,,,,,,186.2997588469998,None,186.2997588469998,None,186.2997588469998,None,g,1,1.12336079600027,187.83316062999984,None,187.83316062999984,None,187.83316062999984,None,189.03309253499992,None,189.03309253499992,None,189.03309253499992,None,189.03309253499992,None,,,,,,,,,,,,,,,,,,,,,,,,,,,,,,,,,,,,,,,,,,,,001,147,2020_Feb_20_1051,spring_faces,3.1.5,60.04684975299286,
condition files/Stage0b_1.xlsx,0b,alpha,none,h,"['h', 'g']","['Chess', 'Go']","[-0.15, 0.5]","[0.15, 0.5]",1,0,0,6,6,6,0,1,1,0,,,,,,,,,,,,,,,,,,,,,,,,,,,,,,,,,,,,,,,,,,,,,,,,,,,,,,,,,,,,,,,190.9820242120004,None,190.9820242120004,None,190.9820242120004,None,h,1,0.47188325399929454,192.5326715680003,None,192.5326715680003,None,192.5326715680003,None,193.06819757799985,None,193.06819757799985,None,193.06819757799985,None,193.06819757799985,None,,,,,,,,,,,,,,,,,,,,,,,,,,,,,,,,,,,,,,,,,,,,001,147,2020_Feb_20_1051,spring_faces,3.1.5,60.04684975299286,
condition files/Stage0b_2.xlsx,0b,beta,none,g,"['h', 'g']","['Chess', 'Go']","[-0.15, 0.5]","[0.15, 0.5]",1,0,0,7,7,7,0,0,0,1,,,,,,,,,,,,,,,,,,,,,,,,,,,,,,,,,,,,,,,,,,,,,,,,,,,,,,,,,,,,,,,195.04996270100037,None,195.04996270100037,None,195.04996270100037,None,g,1,0.3580657720003728,196.58252324400019,None,196.58252324400019,None,196.58252324400019,None,196.99945644400032,None,196.99945644400032,None,196.99945644400032,None,196.99945644400032,None,,,,,,,,,,,,,,,,,,,,,,,,,,,,,,,,,,,,,,,,,,,,001,147,2020_Feb_20_1051,spring_faces,3.1.5,60.04684975299286,
condition files/Stage0b_2.xlsx,0b,none,alpha,h,"['h', 'g']","['Chess', 'Go']","[-0.15, 0.5]","[0.15, 0.5]",0,1,0,7,7,7,0,1,1,0,,,,,,,,,,,,,,,,,,,,,,,,,,,,,,,,,,,,,,,,,,,,,,,,,,,,,,,,,,,,,,,198.96652528100003,None,198.96652528100003,None,198.96652528100003,None,h,1,0.7120852719999675,200.516400343,None,200.516400343,None,200.516400343,None,201.29924011000003,None,201.29924011000003,None,201.29924011000003,None,201.29924011000003,None,,,,,,,,,,,,,,,,,,,,,,,,,,,,,,,,,,,,,,,,,,,,001,147,2020_Feb_20_1051,spring_faces,3.1.5,60.04684975299286,
condition files/Stage0b_1.xlsx,0b,none,beta,g,"['h', 'g']","['Chess', 'Go']","[-0.15, 0.5]","[0.15, 0.5]",0,1,0,8,8,8,0,0,0,1,,,,,,,,,,,,,,,,,,,,,,,,,,,,,,,,,,,,,,,,,,,,,,,,,,,,,,,,,,,,,,,203.26647505799974,None,203.26647505799974,None,203.26647505799974,None,g,1,1.2126583130002473,204.79987035900012,None,204.79987035900012,None,204.79987035900012,None,206.0665027160003,None,206.0665027160003,None,206.0665027160003,None,206.0665027160003,None,,,,,,,,,,,,,,,,,,,,,,,,,,,,,,,,,,,,,,,,,,,,001,147,2020_Feb_20_1051,spring_faces,3.1.5,60.04684975299286,
condition files/Stage0b_1.xlsx,0b,alpha,none,h,"['h', 'g']","['Chess', 'Go']","[-0.15, 0.5]","[0.15, 0.5]",1,0,0,8,8,8,0,1,1,0,,,,,,,,,,,,,,,,,,,,,,,,,,,,,,,,,,,,,,,,,,,,,,,,,,,,,,,,,,,,,,,208.0327907210003,None,208.0327907210003,None,208.0327907210003,None,h,1,1.5500265229993602,209.5825168450001,None,209.5825168450001,None,209.5825168450001,None,211.19934597500014,None,211.19934597500014,None,211.19934597500014,None,211.19934597500014,None,,,,,,,,,,,,,,,,,,,,,,,,,,,,,,,,,,,,,,,,,,,,001,147,2020_Feb_20_1051,spring_faces,3.1.5,60.04684975299286,
condition files/Stage0b_2.xlsx,0b,none,alpha,h,"['h', 'g']","['Chess', 'Go']","[-0.15, 0.5]","[0.15, 0.5]",0,1,0,9,9,9,0,0,0,0,,,,,,,,,,,,,,,,,,,,,,,,,,,,,,,,,,,,,,,,,,,,,,,,,,,,,,,,,,,,,,,213.16641010000058,None,213.16641010000058,None,213.16641010000058,None,h,1,1.7120268480002778,214.7164149549999,None,214.7164149549999,None,214.7164149549999,None,216.48310272100025,None,216.48310272100025,None,216.48310272100025,None,216.48310272100025,None,,,,,,,,,,,,,,,,,,,,,,,,,,,,,,,,,,,,,,,,,,,,001,147,2020_Feb_20_1051,spring_faces,3.1.5,60.04684975299286,
condition files/Stage0b_2.xlsx,0b,beta,none,g,"['h', 'g']","['Chess', 'Go']","[-0.15, 0.5]","[0.15, 0.5]",1,0,0,9,9,9,0,1,1,1,,,,,,,,,,,,,,,,,,,,,,,,,,,,,,,,,,,,,,,,,,,,,,,,,,,,,,,,,,,,,,,218.4493655670003,None,218.4493655670003,None,218.4493655670003,None,g,1,0.31672156499917037,219.98374911500014,None,219.98374911500014,None,219.98374911500014,None,220.36910476100002,None,220.36910476100002,None,220.36910476100002,None,220.36910476100002,None,,,,,,,,,,,,,,,,,,,,,,,,,,,,,,,,,,,,,,,,,,,,001,147,2020_Feb_20_1051,spring_faces,3.1.5,60.04684975299286,
condition files/Stage0b_1.xlsx,0b,alpha,none,h,"['h', 'g']","['Chess', 'Go']","[-0.15, 0.5]","[0.15, 0.5]",1,0,0,10,10,10,0,0,0,0,,,,,,,,,,,,,,,,,,,,,,,,,,,,,,,,,,,,,,,,,,,,,,,,,,,,,,,,,,,,,,,222.34960945200055,None,222.34960945200055,None,222.34960945200055,None,h,1,0.5138674640002137,223.88263275600002,None,223.88263275600002,None,223.88263275600002,None,224.4487069400002,None,224.4487069400002,None,224.4487069400002,None,224.4487069400002,None,,,,,,,,,,,,,,,,,,,,,,,,,,,,,,,,,,,,,,,,,,,,001,147,2020_Feb_20_1051,spring_faces,3.1.5,60.04684975299286,
condition files/Stage0b_1.xlsx,0b,none,beta,g,"['h', 'g']","['Chess', 'Go']","[-0.15, 0.5]","[0.15, 0.5]",0,1,0,10,10,10,0,1,1,1,,,,,,,,,,,,,,,,,,,,,,,,,,,,,,,,,,,,,,,,,,,,,,,,,,,,,,,,,,,,,,,226.4162445540005,None,226.4162445540005,None,226.4162445540005,None,g,1,0.6542134710007304,227.96633613799986,None,227.96633613799986,None,227.96633613799986,None,228.6999649950003,None,228.6999649950003,None,228.6999649950003,None,228.6999649950003,None,,,,,,,,,,,,,,,,,,,,,,,,,,,,,,,,,,,,,,,,,,,,001,147,2020_Feb_20_1051,spring_faces,3.1.5,60.04684975299286,
condition files/Stage0b_2.xlsx,0b,beta,none,g,"['h', 'g']","['Chess', 'Go']","[-0.15, 0.5]","[0.15, 0.5]",1,0,0,11,11,11,0,0,0,1,,,,,,,,,,,,,,,,,,,,,,,,,,,,,,,,,,,,,,,,,,,,,,,,,,,,,,,,,,,,,,,230.66614936800033,None,230.66614936800033,None,230.66614936800033,None,h,0,0.5919645539997873,232.20448664600008,None,232.20448664600008,None,232.20448664600008,None,232.84968728700005,None,232.84968728700005,None,232.84968728700005,None,232.84968728700005,None,,,,,,,,,,,,,,,,,,,,,,,,,,,,,,,,,,,,,,,,,,,,001,147,2020_Feb_20_1051,spring_faces,3.1.5,60.04684975299286,
condition files/Stage0b_2.xlsx,0b,none,alpha,h,"['h', 'g']","['Chess', 'Go']","[-0.15, 0.5]","[0.15, 0.5]",0,1,0,11,11,11,0,1,1,0,,,,,,,,,,,,,,,,,,,,,,,,,,,,,,,,,,,,,,,,,,,,,,,,,,,,,,,,,,,,,,,234.81604885199977,None,234.81604885199977,None,234.81604885199977,None,h,1,0.39604149099977803,236.3524800390005,None,236.3524800390005,None,236.3524800390005,None,236.80505031899975,None,236.80505031899975,None,236.80505031899975,None,236.80505031899975,None,,,,,,,,,,,,,,,,,,,,,,,,,,,,,,,,,,,,,,,,,,,,001,147,2020_Feb_20_1051,spring_faces,3.1.5,60.04684975299286,
condition files/Stage0c_1.xlsx,0c,beta,theta,g,"['h', 'g']","['Chess', 'Go']","[-0.15, 0.5]","[0.15, 0.5]",1,1,0,12,12,12,0,0,0,2,,,,,,,,,,,,,,,,,,,,,,,,,,,,,,,,,,,,,,,,,,,,,,,,,,,,,,,,,,,,,,,238.78249075799977,None,238.78249075799977,None,238.78249075799977,None,g,1,2.672114046000388,240.31644741200034,None,240.31644741200034,None,240.31644741200034,None,243.04962126600003,None,243.04962126600003,None,243.04962126600003,None,243.04962126600003,None,,,,,,,,,,,,,,,,,,,,,,,,,,,,,,,,,,,,,,,,,,,,001,147,2020_Feb_20_1051,spring_faces,3.1.5,60.04684975299286,
condition files/Stage0c_1.xlsx,0c,phi,beta,g,"['h', 'g']","['Chess', 'Go']","[-0.15, 0.5]","[0.15, 0.5]",1,1,0,12,12,12,0,1,1,3,,,,,,,,,,,,,,,,,,,,,,,,,,,,,,,,,,,,,,,,,,,,,,,,,,,,,,,,,,,,,,,245.01602971400007,None,245.01602971400007,None,245.01602971400007,None,g,1,2.615282995999223,246.54919888400036,None,246.54919888400036,None,246.54919888400036,None,249.2164259179999,None,249.2164259179999,None,249.2164259179999,None,249.2164259179999,None,,,,,,,,,,,,,,,,,,,,,,,,,,,,,,,,,,,,,,,,,,,,001,147,2020_Feb_20_1051,spring_faces,3.1.5,60.04684975299286,
condition files/Stage0c_1.xlsx,0c,alpha,phi,h,"['h', 'g']","['Chess', 'Go']","[-0.15, 0.5]","[0.15, 0.5]",1,1,0,12,12,12,0,2,2,1,,,,,,,,,,,,,,,,,,,,,,,,,,,,,,,,,,,,,,,,,,,,,,,,,,,,,,,,,,,,,,,251.1825094730002,None,251.1825094730002,None,251.1825094730002,None,h,1,1.4559008790001826,252.7166385190003,None,252.7166385190003,None,252.7166385190003,None,254.23333576700043,None,254.23333576700043,None,254.23333576700043,None,254.23333576700043,None,,,,,,,,,,,,,,,,,,,,,,,,,,,,,,,,,,,,,,,,,,,,001,147,2020_Feb_20_1051,spring_faces,3.1.5,60.04684975299286,
condition files/Stage0c_1.xlsx,0c,theta,alpha,h,"['h', 'g']","['Chess', 'Go']","[-0.15, 0.5]","[0.15, 0.5]",1,1,0,12,12,12,0,3,3,0,,,,,,,,,,,,,,,,,,,,,,,,,,,,,,,,,,,,,,,,,,,,,,,,,,,,,,,,,,,,,,,256.1995610009999,None,256.1995610009999,None,256.1995610009999,None,h,1,1.7672767989997737,257.73321041300005,None,257.73321041300005,None,257.73321041300005,None,259.5494194290004,None,259.5494194290004,None,259.5494194290004,None,259.5494194290004,None,,,,,,,,,,,,,,,,,,,,,,,,,,,,,,,,,,,,,,,,,,,,001,147,2020_Feb_20_1051,spring_faces,3.1.5,60.04684975299286,
condition files/Stage0c_2.xlsx,0c,phi,alpha,h,"['h', 'g']","['Chess', 'Go']","[-0.15, 0.5]","[0.15, 0.5]",1,1,0,13,13,13,0,0,0,1,,,,,,,,,,,,,,,,,,,,,,,,,,,,,,,,,,,,,,,,,,,,,,,,,,,,,,,,,,,,,,,261.5494719449998,None,261.5494719449998,None,261.5494719449998,None,h,1,0.9617978149999544,263.08269604199995,None,263.08269604199995,None,263.08269604199995,None,264.08524020799996,None,264.08524020799996,None,264.08524020799996,None,264.08524020799996,None,,,,,,,,,,,,,,,,,,,,,,,,,,,,,,,,,,,,,,,,,,,,001,147,2020_Feb_20_1051,spring_faces,3.1.5,60.04684975299286,
condition files/Stage0c_2.xlsx,0c,alpha,theta,h,"['h', 'g']","['Chess', 'Go']","[-0.15, 0.5]","[0.15, 0.5]",1,1,0,13,13,13,0,1,1,0,,,,,,,,,,,,,,,,,,,,,,,,,,,,,,,,,,,,,,,,,,,,,,,,,,,,,,,,,,,,,,,266.0658684380005,None,266.0658684380005,None,266.0658684380005,None,h,1,0.9411371469996084,267.59943794799983,None,267.59943794799983,None,267.59943794799983,None,268.5842730730001,None,268.5842730730001,None,268.5842730730001,None,268.5842730730001,None,,,,,,,,,,,,,,,,,,,,,,,,,,,,,,,,,,,,,,,,,,,,001,147,2020_Feb_20_1051,spring_faces,3.1.5,60.04684975299286,
condition files/Stage0c_2.xlsx,0c,beta,phi,g,"['h', 'g']","['Chess', 'Go']","[-0.15, 0.5]","[0.15, 0.5]",1,1,0,13,13,13,0,2,2,3,,,,,,,,,,,,,,,,,,,,,,,,,,,,,,,,,,,,,,,,,,,,,,,,,,,,,,,,,,,,,,,270.5831559930002,None,270.5831559930002,None,270.5831559930002,None,g,1,1.3215140989996144,272.0990356480006,None,272.0990356480006,None,272.0990356480006,None,273.48310777200004,None,273.48310777200004,None,273.48310777200004,None,273.48310777200004,None,,,,,,,,,,,,,,,,,,,,,,,,,,,,,,,,,,,,,,,,,,,,001,147,2020_Feb_20_1051,spring_faces,3.1.5,60.04684975299286,
condition files/Stage0c_2.xlsx,0c,theta,beta,g,"['h', 'g']","['Chess', 'Go']","[-0.15, 0.5]","[0.15, 0.5]",1,1,0,13,13,13,0,3,3,2,,,,,,,,,,,,,,,,,,,,,,,,,,,,,,,,,,,,,,,,,,,,,,,,,,,,,,,,,,,,,,,275.4494289330005,None,275.4494289330005,None,275.4494289330005,None,g,1,0.8536893169994073,276.9828656939999,None,276.9828656939999,None,276.9828656939999,None,277.88310885400006,None,277.88310885400006,None,277.88310885400006,None,277.88310885400006,None,,,,,,,,,,,,,,,,,,,,,,,,,,,,,,,,,,,,,,,,,,,,001,147,2020_Feb_20_1051,spring_faces,3.1.5,60.04684975299286,
condition files/Stage0c_1.xlsx,0c,phi,beta,g,"['h', 'g']","['Chess', 'Go']","[-0.15, 0.5]","[0.15, 0.5]",1,1,0,14,14,14,0,0,0,3,,,,,,,,,,,,,,,,,,,,,,,,,,,,,,,,,,,,,,,,,,,,,,,,,,,,,,,,,,,,,,,279.8842982140004,None,279.8842982140004,None,279.8842982140004,None,g,1,0.7086639760000253,281.41592567099997,None,281.41592567099997,None,281.41592567099997,None,282.16964591099986,None,282.16964591099986,None,282.16964591099986,None,282.16964591099986,None,,,,,,,,,,,,,,,,,,,,,,,,,,,,,,,,,,,,,,,,,,,,001,147,2020_Feb_20_1051,spring_faces,3.1.5,60.04684975299286,
condition files/Stage0c_1.xlsx,0c,beta,theta,g,"['h', 'g']","['Chess', 'Go']","[-0.15, 0.5]","[0.15, 0.5]",1,1,0,14,14,14,0,1,1,2,,,,,,,,,,,,,,,,,,,,,,,,,,,,,,,,,,,,,,,,,,,,,,,,,,,,,,,,,,,,,,,284.1492792070003,None,284.1492792070003,None,284.1492792070003,None,g,1,1.817401833999611,285.68306935500004,None,285.68306935500004,None,285.68306935500004,None,287.5492822900005,None,287.5492822900005,None,287.5492822900005,None,287.5492822900005,None,,,,,,,,,,,,,,,,,,,,,,,,,,,,,,,,,,,,,,,,,,,,001,147,2020_Feb_20_1051,spring_faces,3.1.5,60.04684975299286,
condition files/Stage0c_1.xlsx,0c,alpha,phi,h,"['h', 'g']","['Chess', 'Go']","[-0.15, 0.5]","[0.15, 0.5]",1,1,0,14,14,14,0,2,2,1,,,,,,,,,,,,,,,,,,,,,,,,,,,,,,,,,,,,,,,,,,,,,,,,,,,,,,,,,,,,,,,289.5329422770001,None,289.5329422770001,None,289.5329422770001,None,h,1,0.914191767000375,291.06636917000014,None,291.06636917000014,None,291.06636917000014,None,292.0329822100002,None,292.0329822100002,None,292.0329822100002,None,292.0329822100002,None,,,,,,,,,,,,,,,,,,,,,,,,,,,,,,,,,,,,,,,,,,,,001,147,2020_Feb_20_1051,spring_faces,3.1.5,60.04684975299286,
condition files/Stage0c_1.xlsx,0c,theta,alpha,h,"['h', 'g']","['Chess', 'Go']","[-0.15, 0.5]","[0.15, 0.5]",1,1,0,14,14,14,0,3,3,0,,,,,,,,,,,,,,,,,,,,,,,,,,,,,,,,,,,,,,,,,,,,,,,,,,,,,,,,,,,,,,,293.9994947189998,None,293.9994947189998,None,293.9994947189998,None,h,1,0.9752336640003705,295.53334455000004,None,295.53334455000004,None,295.53334455000004,None,296.5661143799998,None,296.5661143799998,None,296.5661143799998,None,296.5661143799998,None,,,,,,,,,,,,,,,,,,,,,,,,,,,,,,,,,,,,,,,,,,,,001,147,2020_Feb_20_1051,spring_faces,3.1.5,60.04684975299286,
condition files/Stage0c_2.xlsx,0c,alpha,theta,h,"['h', 'g']","['Chess', 'Go']","[-0.15, 0.5]","[0.15, 0.5]",1,1,0,15,15,15,0,0,0,0,,,,,,,,,,,,,,,,,,,,,,,,,,,,,,,,,,,,,,,,,,,,,,,,,,,,,,,,,,,,,,,298.549511186,None,298.549511186,None,298.549511186,None,h,1,0.809853578000002,300.0826906020002,None,300.0826906020002,None,300.0826906020002,None,300.9351963950003,None,300.9351963950003,None,300.9351963950003,None,300.9351963950003,None,,,,,,,,,,,,,,,,,,,,,,,,,,,,,,,,,,,,,,,,,,,,001,147,2020_Feb_20_1051,spring_faces,3.1.5,60.04684975299286,
condition files/Stage0c_2.xlsx,0c,beta,phi,g,"['h', 'g']","['Chess', 'Go']","[-0.15, 0.5]","[0.15, 0.5]",1,1,0,15,15,15,0,1,1,3,,,,,,,,,,,,,,,,,,,,,,,,,,,,,,,,,,,,,,,,,,,,,,,,,,,,,,,,,,,,,,,302.9155107790002,None,302.9155107790002,None,302.9155107790002,None,g,1,1.1307035939998968,304.4497737520005,None,304.4497737520005,None,304.4497737520005,None,305.63313395600017,None,305.63313395600017,None,305.63313395600017,None,305.63313395600017,None,,,,,,,,,,,,,,,,,,,,,,,,,,,,,,,,,,,,,,,,,,,,001,147,2020_Feb_20_1051,spring_faces,3.1.5,60.04684975299286,
condition files/Stage0c_2.xlsx,0c,phi,alpha,h,"['h', 'g']","['Chess', 'Go']","[-0.15, 0.5]","[0.15, 0.5]",1,1,0,15,15,15,0,2,2,1,,,,,,,,,,,,,,,,,,,,,,,,,,,,,,,,,,,,,,,,,,,,,,,,,,,,,,,,,,,,,,,307.59880685900043,None,307.59880685900043,None,307.59880685900043,None,h,1,1.0077191410000523,309.13285936400007,None,309.13285936400007,None,309.13285936400007,None,310.19989910999993,None,310.19989910999993,None,310.19989910999993,None,310.19989910999993,None,,,,,,,,,,,,,,,,,,,,,,,,,,,,,,,,,,,,,,,,,,,,001,147,2020_Feb_20_1051,spring_faces,3.1.5,60.04684975299286,
condition files/Stage0c_2.xlsx,0c,theta,beta,g,"['h', 'g']","['Chess', 'Go']","[-0.15, 0.5]","[0.15, 0.5]",1,1,0,15,15,15,0,3,3,2,,,,,,,,,,,,,,,,,,,,,,,,,,,,,,,,,,,,,,,,,,,,,,,,,,,,,,,,,,,,,,,312.16616421300023,None,312.16616421300023,None,312.16616421300023,None,g,1,1.5447368039995126,313.6997451980005,None,313.6997451980005,None,313.6997451980005,None,315.29913402200054,None,315.29913402200054,None,315.29913402200054,None,315.29913402200054,None,,,,,,,,,,,,,,,,,,,,,,,,,,,,,,,,,,,,,,,,,,,,001,147,2020_Feb_20_1051,spring_faces,3.1.5,60.04684975299286,
condition files/Stage0c_1.xlsx,0c,alpha,phi,h,"['h', 'g']","['Chess', 'Go']","[-0.15, 0.5]","[0.15, 0.5]",1,1,0,16,16,16,0,0,0,1,,,,,,,,,,,,,,,,,,,,,,,,,,,,,,,,,,,,,,,,,,,,,,,,,,,,,,,,,,,,,,,317.2827540690005,None,317.2827540690005,None,317.2827540690005,None,h,1,0.7800788020003893,318.81637720800063,None,318.81637720800063,None,318.81637720800063,None,319.64937794399975,None,319.64937794399975,None,319.64937794399975,None,319.64937794399975,None,,,,,,,,,,,,,,,,,,,,,,,,,,,,,,,,,,,,,,,,,,,,001,147,2020_Feb_20_1051,spring_faces,3.1.5,60.04684975299286,
condition files/Stage0c_1.xlsx,0c,phi,beta,g,"['h', 'g']","['Chess', 'Go']","[-0.15, 0.5]","[0.15, 0.5]",1,1,0,16,16,16,0,1,1,3,,,,,,,,,,,,,,,,,,,,,,,,,,,,,,,,,,,,,,,,,,,,,,,,,,,,,,,,,,,,,,,321.6159633719999,None,321.6159633719999,None,321.6159633719999,None,g,1,1.4232725589999973,323.14927074299976,None,323.14927074299976,None,323.14927074299976,None,324.6330519640005,None,324.6330519640005,None,324.6330519640005,None,324.6330519640005,None,,,,,,,,,,,,,,,,,,,,,,,,,,,,,,,,,,,,,,,,,,,,001,147,2020_Feb_20_1051,spring_faces,3.1.5,60.04684975299286,
condition files/Stage0c_1.xlsx,0c,theta,alpha,h,"['h', 'g']","['Chess', 'Go']","[-0.15, 0.5]","[0.15, 0.5]",1,1,0,16,16,16,0,2,2,0,,,,,,,,,,,,,,,,,,,,,,,,,,,,,,,,,,,,,,,,,,,,,,,,,,,,,,,,,,,,,,,326.5995264860003,None,326.5995264860003,None,326.5995264860003,None,h,1,1.9118618150005204,328.1326289540002,None,328.1326289540002,None,328.1326289540002,None,330.0992190020006,None,330.0992190020006,None,330.0992190020006,None,330.0992190020006,None,,,,,,,,,,,,,,,,,,,,,,,,,,,,,,,,,,,,,,,,,,,,001,147,2020_Feb_20_1051,spring_faces,3.1.5,60.04684975299286,
condition files/Stage0c_1.xlsx,0c,beta,theta,g,"['h', 'g']","['Chess', 'Go']","[-0.15, 0.5]","[0.15, 0.5]",1,1,0,16,16,16,0,3,3,2,,,,,,,,,,,,,,,,,,,,,,,,,,,,,,,,,,,,,,,,,,,,,,,,,,,,,,,,,,,,,,,332.06609221800045,None,332.06609221800045,None,332.06609221800045,None,g,1,1.0209425419998297,333.5996165739998,None,333.5996165739998,None,333.5996165739998,None,334.68298489100016,None,334.68298489100016,None,334.68298489100016,None,334.68298489100016,None,,,,,,,,,,,,,,,,,,,,,,,,,,,,,,,,,,,,,,,,,,,,001,147,2020_Feb_20_1051,spring_faces,3.1.5,60.04684975299286,
condition files/Stage0c_2.xlsx,0c,alpha,theta,h,"['h', 'g']","['Chess', 'Go']","[-0.15, 0.5]","[0.15, 0.5]",1,1,0,17,17,17,0,0,0,0,,,,,,,,,,,,,,,,,,,,,,,,,,,,,,,,,,,,,,,,,,,,,,,,,,,,,,,,,,,,,,,336.6663403600005,None,336.6663403600005,None,336.6663403600005,None,h,1,0.9329989679999926,338.19956085800004,None,338.19956085800004,None,338.19956085800004,None,339.18265738100035,None,339.18265738100035,None,339.18265738100035,None,339.18265738100035,None,,,,,,,,,,,,,,,,,,,,,,,,,,,,,,,,,,,,,,,,,,,,001,147,2020_Feb_20_1051,spring_faces,3.1.5,60.04684975299286,
condition files/Stage0c_2.xlsx,0c,theta,beta,g,"['h', 'g']","['Chess', 'Go']","[-0.15, 0.5]","[0.15, 0.5]",1,1,0,17,17,17,0,1,1,2,,,,,,,,,,,,,,,,,,,,,,,,,,,,,,,,,,,,,,,,,,,,,,,,,,,,,,,,,,,,,,,341.14896745700025,None,341.14896745700025,None,341.14896745700025,None,g,1,0.5136065890001191,342.6828486459999,None,342.6828486459999,None,342.6828486459999,None,343.24975231900044,None,343.24975231900044,None,343.24975231900044,None,343.24975231900044,None,,,,,,,,,,,,,,,,,,,,,,,,,,,,,,,,,,,,,,,,,,,,001,147,2020_Feb_20_1051,spring_faces,3.1.5,60.04684975299286,
condition files/Stage0c_2.xlsx,0c,phi,alpha,h,"['h', 'g']","['Chess', 'Go']","[-0.15, 0.5]","[0.15, 0.5]",1,1,0,17,17,17,0,2,2,1,,,,,,,,,,,,,,,,,,,,,,,,,,,,,,,,,,,,,,,,,,,,,,,,,,,,,,,,,,,,,,,345.21611384800053,None,345.21611384800053,None,345.21611384800053,None,h,1,0.8147296199995253,346.74981112800015,None,346.74981112800015,None,346.74981112800015,None,347.6161636269999,None,347.6161636269999,None,347.6161636269999,None,347.6161636269999,None,,,,,,,,,,,,,,,,,,,,,,,,,,,,,,,,,,,,,,,,,,,,001,147,2020_Feb_20_1051,spring_faces,3.1.5,60.04684975299286,
condition files/Stage0c_2.xlsx,0c,beta,phi,g,"['h', 'g']","['Chess', 'Go']","[-0.15, 0.5]","[0.15, 0.5]",1,1,0,17,17,17,0,3,3,3,,,,,,,,,,,,,,,,,,,,,,,,,,,,,,,,,,,,,,,,,,,,,,,,,,,,,,,,,,,,,,,349.5830229479998,None,349.5830229479998,None,349.5830229479998,None,h,0,0.5442803020005158,351.11622765799984,None,351.11622765799984,None,351.11622765799984,None,351.71636784900056,None,351.71636784900056,None,351.71636784900056,None,351.71636784900056,None,,,,,,,,,,,,,,,,,,,,,,,,,,,,,,,,,,,,,,,,,,,,001,147,2020_Feb_20_1051,spring_faces,3.1.5,60.04684975299286,
,,,,,,,,,,,,,,,,,,,,,,,,,,,,,,,,,,,,,,,,,,,,,,,,,,,,,,,,,,,,,,,,,,,,,,,,,,,,,,,,,,,,,,,,,,,,,,,,,,,,,,,,353.69905003700023,None,space,7.055623944999752,358.70096278100027,None,,,,,,,,,,,,,,,,,,,,,,,,,,,,,,,,,,,,,,001,147,2020_Feb_20_1051,spring_faces,3.1.5,60.04684975299286,
condition files/Stage1_1.xlsx,,T3,B4,c,"['c', 'm']","['Clue', 'Monopoly']","[-0.15, 0.5]","[0.15, 0.5]",1,1,,,,,,,,,0,0,0,0,0,0,0,5,,,,,,,,,,,,,,,,,,,,,,,,,,,,,,,,,,,,,,,,,,,,,,,,,,,,,,,365.81650455700037,None,365.81650455700037,None,365.81650455700037,None,c,1,3.347533002000091,367.3850535649999,None,367.3850535649999,None,367.3850535649999,None,370.7996628230003,None,370.7996628230003,None,370.7996628230003,None,370.7996628230003,None,,,,,,,358.70096278100027,None,,,,,,,,,,,,,,,,,,,,,,,,,,,,,,,,,,,,001,147,2020_Feb_20_1051,spring_faces,3.1.5,60.04684975299286,
condition files/Stage1_1.xlsx,,B3,T3,c,"['c', 'm']","['Clue', 'Monopoly']","[-0.15, 0.5]","[0.15, 0.5]",1,1,,,,,,,,,0,0,0,0,0,1,1,4,,,,,,,,,,,,,,,,,,,,,,,,,,,,,,,,,,,,,,,,,,,,,,,,,,,,,,,372.74933786100064,None,372.74933786100064,None,372.74933786100064,None,c,1,1.600801223000417,374.29969005400017,None,374.29969005400017,None,374.29969005400017,None,375.9659954730005,None,375.9659954730005,None,375.9659954730005,None,375.9659954730005,None,,,,,,,,,,,,,,,,,,,,,,,,,,,,,,,,,,,,,,,,,,,,001,147,2020_Feb_20_1051,spring_faces,3.1.5,60.04684975299286,
condition files/Stage1_1.xlsx,,B4,T4,m,"['c', 'm']","['Clue', 'Monopoly']","[-0.15, 0.5]","[0.15, 0.5]",1,1,,,,,,,,,0,0,0,0,0,2,2,7,,,,,,,,,,,,,,,,,,,,,,,,,,,,,,,,,,,,,,,,,,,,,,,,,,,,,,,377.93232607400023,None,377.93232607400023,None,377.93232607400023,None,m,1,1.6661278510000557,379.4664482019998,None,379.4664482019998,None,379.4664482019998,None,381.19991279999977,None,381.19991279999977,None,381.19991279999977,None,381.19991279999977,None,,,,,,,,,,,,,,,,,,,,,,,,,,,,,,,,,,,,,,,,,,,,001,147,2020_Feb_20_1051,spring_faces,3.1.5,60.04684975299286,
condition files/Stage1_1.xlsx,,B1,T2,c,"['c', 'm']","['Clue', 'Monopoly']","[-0.15, 0.5]","[0.15, 0.5]",1,1,,,,,,,,,0,0,0,0,0,3,3,1,,,,,,,,,,,,,,,,,,,,,,,,,,,,,,,,,,,,,,,,,,,,,,,,,,,,,,,383.1495922310005,None,383.1495922310005,None,383.1495922310005,None,m,0,1.6478113009998197,384.7327021070005,None,384.7327021070005,None,384.7327021070005,None,386.4500522930002,None,386.4500522930002,None,386.4500522930002,None,386.4500522930002,None,,,,,,,,,,,,,,,,,,,,,,,,,,,,,,,,,,,,,,,,,,,,001,147,2020_Feb_20_1051,spring_faces,3.1.5,60.04684975299286,
condition files/Stage1_1.xlsx,,T1,B1,c,"['c', 'm']","['Clue', 'Monopoly']","[-0.15, 0.5]","[0.15, 0.5]",1,1,,,,,,,,,0,0,0,0,0,4,4,0,,,,,,,,,,,,,,,,,,,,,,,,,,,,,,,,,,,,,,,,,,,,,,,,,,,,,,,388.3994191470001,None,388.3994191470001,None,388.3994191470001,None,m,0,2.41400434300067,389.96651278100035,None,389.96651278100035,None,389.96651278100035,None,392.43318930999976,None,392.43318930999976,None,392.43318930999976,None,392.43318930999976,None,,,,,,,,,,,,,,,,,,,,,,,,,,,,,,,,,,,,,,,,,,,,001,147,2020_Feb_20_1051,spring_faces,3.1.5,60.04684975299286,
condition files/Stage1_1.xlsx,,B2,T1,m,"['c', 'm']","['Clue', 'Monopoly']","[-0.15, 0.5]","[0.15, 0.5]",1,1,,,,,,,,,0,0,0,0,0,5,5,2,,,,,,,,,,,,,,,,,,,,,,,,,,,,,,,,,,,,,,,,,,,,,,,,,,,,,,,394.3989785900003,None,394.3989785900003,None,394.3989785900003,None,c,0,1.6609743950002667,395.9835104949998,None,395.9835104949998,None,395.9835104949998,None,397.69973143400057,None,397.69973143400057,None,397.69973143400057,None,397.69973143400057,None,,,,,,,,,,,,,,,,,,,,,,,,,,,,,,,,,,,,,,,,,,,,001,147,2020_Feb_20_1051,spring_faces,3.1.5,60.04684975299286,
condition files/Stage1_1.xlsx,,T2,B2,m,"['c', 'm']","['Clue', 'Monopoly']","[-0.15, 0.5]","[0.15, 0.5]",1,1,,,,,,,,,0,0,0,0,0,6,6,3,,,,,,,,,,,,,,,,,,,,,,,,,,,,,,,,,,,,,,,,,,,,,,,,,,,,,,,399.6660812230002,None,399.6660812230002,None,399.6660812230002,None,m,1,2.124225325000225,401.21634864299995,None,401.21634864299995,None,401.21634864299995,None,403.39950744399994,None,403.39950744399994,None,403.39950744399994,None,403.39950744399994,None,,,,,,,,,,,,,,,,,,,,,,,,,,,,,,,,,,,,,,,,,,,,001,147,2020_Feb_20_1051,spring_faces,3.1.5,60.04684975299286,
condition files/Stage1_1.xlsx,,T4,B3,m,"['c', 'm']","['Clue', 'Monopoly']","[-0.15, 0.5]","[0.15, 0.5]",1,1,,,,,,,,,0,0,0,0,0,7,7,6,,,,,,,,,,,,,,,,,,,,,,,,,,,,,,,,,,,,,,,,,,,,,,,,,,,,,,,405.36610696000025,None,405.36610696000025,None,405.36610696000025,None,c,0,1.800503767999544,406.91601802600053,None,406.91601802600053,None,406.91601802600053,None,408.76626678499997,None,408.76626678499997,None,408.76626678499997,None,408.76626678499997,None,,,,,,,,,,,,,,,,,,,,,,,,,,,,,,,,,,,,,,,,,,,,001,147,2020_Feb_20_1051,spring_faces,3.1.5,60.04684975299286,
condition files/Stage1_2.xlsx,,B1,T1,c,"['c', 'm']","['Clue', 'Monopoly']","[-0.15, 0.5]","[0.15, 0.5]",1,1,,,,,,,,,0,1,1,1,0,0,0,0,,,,,,,,,,,,,,,,,,,,,,,,,,,,,,,,,,,,,,,,,,,,,,,,,,,,,,,410.750190533,None,410.750190533,None,410.750190533,None,c,1,2.0326610000001892,412.2838497590001,None,412.2838497590001,None,412.2838497590001,None,414.3688538759998,None,414.3688538759998,None,414.3688538759998,None,414.3688538759998,None,,,,,,,,,,,,,,,,,,,,,,,,,,,,,,,,,,,,,,,,,,,,001,147,2020_Feb_20_1051,spring_faces,3.1.5,60.04684975299286,
condition files/Stage1_2.xlsx,,T2,B1,c,"['c', 'm']","['Clue', 'Monopoly']","[-0.15, 0.5]","[0.15, 0.5]",1,1,,,,,,,,,0,1,1,1,0,1,1,1,,,,,,,,,,,,,,,,,,,,,,,,,,,,,,,,,,,,,,,,,,,,,,,,,,,,,,,416.33254106000004,None,416.33254106000004,None,416.33254106000004,None,c,1,1.1859556919998795,417.86660446600035,None,417.86660446600035,None,417.86660446600035,None,419.116209111,None,419.116209111,None,419.116209111,None,419.116209111,None,,,,,,,,,,,,,,,,,,,,,,,,,,,,,,,,,,,,,,,,,,,,001,147,2020_Feb_20_1051,spring_faces,3.1.5,60.04684975299286,
condition files/Stage1_2.xlsx,,B3,T4,m,"['c', 'm']","['Clue', 'Monopoly']","[-0.15, 0.5]","[0.15, 0.5]",1,1,,,,,,,,,0,1,1,1,0,2,2,6,,,,,,,,,,,,,,,,,,,,,,,,,,,,,,,,,,,,,,,,,,,,,,,,,,,,,,,421.082726183,None,421.082726183,None,421.082726183,None,m,1,2.7405835160006973,422.6160119340002,None,422.6160119340002,None,422.6160119340002,None,425.43307022499994,None,425.43307022499994,None,425.43307022499994,None,425.43307022499994,None,,,,,,,,,,,,,,,,,,,,,,,,,,,,,,,,,,,,,,,,,,,,001,147,2020_Feb_20_1051,spring_faces,3.1.5,60.04684975299286,
condition files/Stage1_2.xlsx,,T4,B4,m,"['c', 'm']","['Clue', 'Monopoly']","[-0.15, 0.5]","[0.15, 0.5]",1,1,,,,,,,,,0,1,1,1,0,3,3,7,,,,,,,,,,,,,,,,,,,,,,,,,,,,,,,,,,,,,,,,,,,,,,,,,,,,,,,427.3827514579998,None,427.3827514579998,None,427.3827514579998,None,c,0,1.111581496999861,428.93289014699985,None,428.93289014699985,None,428.93289014699985,None,430.0990687809999,None,430.0990687809999,None,430.0990687809999,None,430.0990687809999,None,,,,,,,,,,,,,,,,,,,,,,,,,,,,,,,,,,,,,,,,,,,,001,147,2020_Feb_20_1051,spring_faces,3.1.5,60.04684975299286,
condition files/Stage1_2.xlsx,,T1,B2,m,"['c', 'm']","['Clue', 'Monopoly']","[-0.15, 0.5]","[0.15, 0.5]",1,1,,,,,,,,,0,1,1,1,0,4,4,2,,,,,,,,,,,,,,,,,,,,,,,,,,,,,,,,,,,,,,,,,,,,,,,,,,,,,,,432.06566939500044,None,432.06566939500044,None,432.06566939500044,None,m,1,0.8283510699993712,433.616145598,None,433.616145598,None,433.616145598,None,434.49952399500035,None,434.49952399500035,None,434.49952399500035,None,434.49952399500035,None,,,,,,,,,,,,,,,,,,,,,,,,,,,,,,,,,,,,,,,,,,,,001,147,2020_Feb_20_1051,spring_faces,3.1.5,60.04684975299286,
condition files/Stage1_2.xlsx,,B2,T2,m,"['c', 'm']","['Clue', 'Monopoly']","[-0.15, 0.5]","[0.15, 0.5]",1,1,,,,,,,,,0,1,1,1,0,5,5,3,,,,,,,,,,,,,,,,,,,,,,,,,,,,,,,,,,,,,,,,,,,,,,,,,,,,,,,436.466321033,None,436.466321033,None,436.466321033,None,m,1,2.093468672999734,437.9990718280005,None,437.9990718280005,None,437.9990718280005,None,440.1490205780001,None,440.1490205780001,None,440.1490205780001,None,440.1490205780001,None,,,,,,,,,,,,,,,,,,,,,,,,,,,,,,,,,,,,,,,,,,,,001,147,2020_Feb_20_1051,spring_faces,3.1.5,60.04684975299286,
condition files/Stage1_2.xlsx,,T3,B3,c,"['c', 'm']","['Clue', 'Monopoly']","[-0.15, 0.5]","[0.15, 0.5]",1,1,,,,,,,,,0,1,1,1,0,6,6,4,,,,,,,,,,,,,,,,,,,,,,,,,,,,,,,,,,,,,,,,,,,,,,,,,,,,,,,442.1160864909998,None,442.1160864909998,None,442.1160864909998,None,c,1,0.6659959320004418,443.6665734349999,None,443.6665734349999,None,443.6665734349999,None,444.39945584700035,None,444.39945584700035,None,444.39945584700035,None,444.39945584700035,None,,,,,,,,,,,,,,,,,,,,,,,,,,,,,,,,,,,,,,,,,,,,001,147,2020_Feb_20_1051,spring_faces,3.1.5,60.04684975299286,
condition files/Stage1_2.xlsx,,B4,T3,c,"['c', 'm']","['Clue', 'Monopoly']","[-0.15, 0.5]","[0.15, 0.5]",1,1,,,,,,,,,0,1,1,1,0,7,7,5,,,,,,,,,,,,,,,,,,,,,,,,,,,,,,,,,,,,,,,,,,,,,,,,,,,,,,,446.34921650900014,None,446.34921650900014,None,446.34921650900014,None,c,1,1.1382697290000579,447.88230184500026,None,447.88230184500026,None,447.88230184500026,None,449.0827484600004,None,449.0827484600004,None,449.0827484600004,None,449.0827484600004,None,,,,,,,,,,,,,,,,,,,,,,,,,,,,,,,,,,,,,,,,,,,,001,147,2020_Feb_20_1051,spring_faces,3.1.5,60.04684975299286,
condition files/Stage1_1.xlsx,,T1,B1,c,"['c', 'm']","['Clue', 'Monopoly']","[-0.15, 0.5]","[0.15, 0.5]",1,1,,,,,,,,,0,2,2,2,0,0,0,0,,,,,,,,,,,,,,,,,,,,,,,,,,,,,,,,,,,,,,,,,,,,,,,,,,,,,,,451.0660388440001,None,451.0660388440001,None,451.0660388440001,None,m,0,0.931674694999856,452.60095082299995,None,452.60095082299995,None,452.60095082299995,None,453.5828682470001,None,453.5828682470001,None,453.5828682470001,None,453.5828682470001,None,,,,,,,,,,,,,,,,,,,,,,,,,,,,,,,,,,,,,,,,,,,,001,147,2020_Feb_20_1051,spring_faces,3.1.5,60.04684975299286,
condition files/Stage1_1.xlsx,,T3,B4,c,"['c', 'm']","['Clue', 'Monopoly']","[-0.15, 0.5]","[0.15, 0.5]",1,1,,,,,,,,,0,2,2,2,0,1,1,5,,,,,,,,,,,,,,,,,,,,,,,,,,,,,,,,,,,,,,,,,,,,,,,,,,,,,,,455.54877420200046,None,455.54877420200046,None,455.54877420200046,None,c,1,0.8495108879997133,457.083058317,None,457.083058317,None,457.083058317,None,457.98351593700045,None,457.98351593700045,None,457.98351593700045,None,457.98351593700045,None,,,,,,,,,,,,,,,,,,,,,,,,,,,,,,,,,,,,,,,,,,,,001,147,2020_Feb_20_1051,spring_faces,3.1.5,60.04684975299286,
condition files/Stage1_1.xlsx,,B3,T3,c,"['c', 'm']","['Clue', 'Monopoly']","[-0.15, 0.5]","[0.15, 0.5]",1,1,,,,,,,,,0,2,2,2,0,2,2,4,,,,,,,,,,,,,,,,,,,,,,,,,,,,,,,,,,,,,,,,,,,,,,,,,,,,,,,459.94944809499975,None,459.94944809499975,None,459.94944809499975,None,c,1,1.2474918500001877,461.48507255300046,None,461.48507255300046,None,461.48507255300046,None,462.7827773850004,None,462.7827773850004,None,462.7827773850004,None,462.7827773850004,None,,,,,,,,,,,,,,,,,,,,,,,,,,,,,,,,,,,,,,,,,,,,001,147,2020_Feb_20_1051,spring_faces,3.1.5,60.04684975299286,
condition files/Stage1_1.xlsx,,T2,B2,m,"['c', 'm']","['Clue', 'Monopoly']","[-0.15, 0.5]","[0.15, 0.5]",1,1,,,,,,,,,0,2,2,2,0,3,3,3,,,,,,,,,,,,,,,,,,,,,,,,,,,,,,,,,,,,,,,,,,,,,,,,,,,,,,,464.74903965700014,None,464.74903965700014,None,464.74903965700014,None,c,0,0.8955054039997776,466.28500700899986,None,466.28500700899986,None,466.28500700899986,None,467.24905820799995,None,467.24905820799995,None,467.24905820799995,None,467.24905820799995,None,,,,,,,,,,,,,,,,,,,,,,,,,,,,,,,,,,,,,,,,,,,,001,147,2020_Feb_20_1051,spring_faces,3.1.5,60.04684975299286,
condition files/Stage1_1.xlsx,,B2,T1,m,"['c', 'm']","['Clue', 'Monopoly']","[-0.15, 0.5]","[0.15, 0.5]",1,1,,,,,,,,,0,2,2,2,0,4,4,2,,,,,,,,,,,,,,,,,,,,,,,,,,,,,,,,,,,,,,,,,,,,,,,,,,,,,,,469.1991658070001,None,469.1991658070001,None,469.1991658070001,None,c,0,0.9274997259999509,470.73299208200024,None,470.73299208200024,None,470.73299208200024,None,471.7165242760002,None,471.7165242760002,None,471.7165242760002,None,471.7165242760002,None,,,,,,,,,,,,,,,,,,,,,,,,,,,,,,,,,,,,,,,,,,,,001,147,2020_Feb_20_1051,spring_faces,3.1.5,60.04684975299286,
condition files/Stage1_1.xlsx,,B1,T2,c,"['c', 'm']","['Clue', 'Monopoly']","[-0.15, 0.5]","[0.15, 0.5]",1,1,,,,,,,,,0,2,2,2,0,5,5,1,,,,,,,,,,,,,,,,,,,,,,,,,,,,,,,,,,,,,,,,,,,,,,,,,,,,,,,473.68245757299974,None,473.68245757299974,None,473.68245757299974,None,m,0,1.114312315999996,475.218266414,None,475.218266414,None,475.218266414,None,476.38367353800004,None,476.38367353800004,None,476.38367353800004,None,476.38367353800004,None,,,,,,,,,,,,,,,,,,,,,,,,,,,,,,,,,,,,,,,,,,,,001,147,2020_Feb_20_1051,spring_faces,3.1.5,60.04684975299286,
condition files/Stage1_1.xlsx,,T4,B3,m,"['c', 'm']","['Clue', 'Monopoly']","[-0.15, 0.5]","[0.15, 0.5]",1,1,,,,,,,,,0,2,2,2,0,6,6,6,,,,,,,,,,,,,,,,,,,,,,,,,,,,,,,,,,,,,,,,,,,,,,,,,,,,,,,478.3490077530005,None,478.3490077530005,None,478.3490077530005,None,c,0,2.689289768999515,479.88329784300004,None,479.88329784300004,None,479.88329784300004,None,482.635489364,None,482.635489364,None,482.635489364,None,482.635489364,None,,,,,,,,,,,,,,,,,,,,,,,,,,,,,,,,,,,,,,,,,,,,001,147,2020_Feb_20_1051,spring_faces,3.1.5,60.04684975299286,
condition files/Stage1_1.xlsx,,B4,T4,m,"['c', 'm']","['Clue', 'Monopoly']","[-0.15, 0.5]","[0.15, 0.5]",1,1,,,,,,,,,0,2,2,2,0,7,7,7,,,,,,,,,,,,,,,,,,,,,,,,,,,,,,,,,,,,,,,,,,,,,,,,,,,,,,,484.59918749900044,None,484.59918749900044,None,484.59918749900044,None,m,1,0.7420255290007844,486.1345714500003,None,486.1345714500003,None,486.1345714500003,None,486.9330671260004,None,486.9330671260004,None,486.9330671260004,None,486.9330671260004,None,,,,,,,,,,,,,,,,,,,,,,,,,,,,,,,,,,,,,,,,,,,,001,147,2020_Feb_20_1051,spring_faces,3.1.5,60.04684975299286,
condition files/Stage1_2.xlsx,,B3,T4,m,"['c', 'm']","['Clue', 'Monopoly']","[-0.15, 0.5]","[0.15, 0.5]",1,1,,,,,,,,,0,3,3,3,0,0,0,6,,,,,,,,,,,,,,,,,,,,,,,,,,,,,,,,,,,,,,,,,,,,,,,,,,,,,,,488.91650895600014,None,488.91650895600014,None,488.91650895600014,None,m,1,0.9700665250002203,490.4664994630002,None,490.4664994630002,None,490.4664994630002,None,491.4999711320006,None,491.4999711320006,None,491.4999711320006,None,491.4999711320006,None,,,,,,,,,,,,,,,,,,,,,,,,,,,,,,,,,,,,,,,,,,,,001,147,2020_Feb_20_1051,spring_faces,3.1.5,60.04684975299286,
condition files/Stage1_2.xlsx,,T4,B4,m,"['c', 'm']","['Clue', 'Monopoly']","[-0.15, 0.5]","[0.15, 0.5]",1,1,,,,,,,,,0,3,3,3,0,1,1,7,,,,,,,,,,,,,,,,,,,,,,,,,,,,,,,,,,,,,,,,,,,,,,,,,,,,,,,493.4661955490001,None,493.4661955490001,None,493.4661955490001,None,c,0,1.3483080569994854,495.0162329049999,None,495.0162329049999,None,495.0162329049999,None,496.41600615900006,None,496.41600615900006,None,496.41600615900006,None,496.41600615900006,None,,,,,,,,,,,,,,,,,,,,,,,,,,,,,,,,,,,,,,,,,,,,001,147,2020_Feb_20_1051,spring_faces,3.1.5,60.04684975299286,
condition files/Stage1_2.xlsx,,T1,B2,m,"['c', 'm']","['Clue', 'Monopoly']","[-0.15, 0.5]","[0.15, 0.5]",1,1,,,,,,,,,0,3,3,3,0,2,2,2,,,,,,,,,,,,,,,,,,,,,,,,,,,,,,,,,,,,,,,,,,,,,,,,,,,,,,,498.3827422740005,None,498.3827422740005,None,498.3827422740005,None,m,1,1.4087772920001953,499.9158283890001,None,499.9158283890001,None,499.9158283890001,None,501.38266106599986,None,501.38266106599986,None,501.38266106599986,None,501.38266106599986,None,,,,,,,,,,,,,,,,,,,,,,,,,,,,,,,,,,,,,,,,,,,,001,147,2020_Feb_20_1051,spring_faces,3.1.5,60.04684975299286,
condition files/Stage1_2.xlsx,,T3,B3,c,"['c', 'm']","['Clue', 'Monopoly']","[-0.15, 0.5]","[0.15, 0.5]",1,1,,,,,,,,,0,3,3,3,0,3,3,4,,,,,,,,,,,,,,,,,,,,,,,,,,,,,,,,,,,,,,,,,,,,,,,,,,,,,,,503.3490012450002,None,503.3490012450002,None,503.3490012450002,None,c,1,3.4170464410008208,504.899513026,None,504.899513026,None,504.899513026,None,508.38293823000004,None,508.38293823000004,None,508.38293823000004,None,508.38293823000004,None,,,,,,,,,,,,,,,,,,,,,,,,,,,,,,,,,,,,,,,,,,,,001,147,2020_Feb_20_1051,spring_faces,3.1.5,60.04684975299286,
condition files/Stage1_2.xlsx,,B2,T2,m,"['c', 'm']","['Clue', 'Monopoly']","[-0.15, 0.5]","[0.15, 0.5]",1,1,,,,,,,,,0,3,3,3,0,4,4,3,,,,,,,,,,,,,,,,,,,,,,,,,,,,,,,,,,,,,,,,,,,,,,,,,,,,,,,510.3330064940001,None,510.3330064940001,None,510.3330064940001,None,m,1,0.5618380629994135,511.882660235,None,511.882660235,None,511.882660235,None,512.5012835839998,None,512.5012835839998,None,512.5012835839998,None,512.5012835839998,None,,,,,,,,,,,,,,,,,,,,,,,,,,,,,,,,,,,,,,,,,,,,001,147,2020_Feb_20_1051,spring_faces,3.1.5,60.04684975299286,
condition files/Stage1_2.xlsx,,B1,T1,c,"['c', 'm']","['Clue', 'Monopoly']","[-0.15, 0.5]","[0.15, 0.5]",1,1,,,,,,,,,0,3,3,3,0,5,5,0,,,,,,,,,,,,,,,,,,,,,,,,,,,,,,,,,,,,,,,,,,,,,,,,,,,,,,,514.4660978290003,None,514.4660978290003,None,514.4660978290003,None,m,0,2.5558003209998787,516.0166407269999,None,516.0166407269999,None,516.0166407269999,None,518.6498222589998,None,518.6498222589998,None,518.6498222589998,None,518.6498222589998,None,,,,,,,,,,,,,,,,,,,,,,,,,,,,,,,,,,,,,,,,,,,,001,147,2020_Feb_20_1051,spring_faces,3.1.5,60.04684975299286,
condition files/Stage1_2.xlsx,,B4,T3,c,"['c', 'm']","['Clue', 'Monopoly']","[-0.15, 0.5]","[0.15, 0.5]",1,1,,,,,,,,,0,3,3,3,0,6,6,5,,,,,,,,,,,,,,,,,,,,,,,,,,,,,,,,,,,,,,,,,,,,,,,,,,,,,,,520.5995886139999,None,520.5995886139999,None,520.5995886139999,None,c,1,1.8635688559998016,522.148968425,None,522.148968425,None,522.148968425,None,524.0660361930004,None,524.0660361930004,None,524.0660361930004,None,524.0660361930004,None,,,,,,,,,,,,,,,,,,,,,,,,,,,,,,,,,,,,,,,,,,,,001,147,2020_Feb_20_1051,spring_faces,3.1.5,60.04684975299286,
condition files/Stage1_2.xlsx,,T2,B1,c,"['c', 'm']","['Clue', 'Monopoly']","[-0.15, 0.5]","[0.15, 0.5]",1,1,,,,,,,,,0,3,3,3,0,7,7,1,,,,,,,,,,,,,,,,,,,,,,,,,,,,,,,,,,,,,,,,,,,,,,,,,,,,,,,526.0326870549998,None,526.0326870549998,None,526.0326870549998,None,m,0,1.3414745919999405,527.5830869130004,None,527.5830869130004,None,527.5830869130004,None,528.9827166610003,None,528.9827166610003,None,528.9827166610003,None,528.9827166610003,None,,,,,,,,,,,,,,,,,,,,,,,,,,,,,,,,,,,,,,,,,,,,001,147,2020_Feb_20_1051,spring_faces,3.1.5,60.04684975299286,
condition files/Stage1_1.xlsx,,T1,B1,c,"['c', 'm']","['Clue', 'Monopoly']","[-0.15, 0.5]","[0.15, 0.5]",1,1,,,,,,,,,0,4,4,4,0,0,0,0,,,,,,,,,,,,,,,,,,,,,,,,,,,,,,,,,,,,,,,,,,,,,,,,,,,,,,,530.9658528569998,None,530.9658528569998,None,530.9658528569998,None,c,1,0.7121531120001237,532.5163787259999,None,532.5163787259999,None,532.5163787259999,None,533.283156511,None,533.283156511,None,533.283156511,None,533.283156511,None,,,,,,,,,,,,,,,,,,,,,,,,,,,,,,,,,,,,,,,,,,,,001,147,2020_Feb_20_1051,spring_faces,3.1.5,60.04684975299286,
condition files/Stage1_1.xlsx,,B1,T2,c,"['c', 'm']","['Clue', 'Monopoly']","[-0.15, 0.5]","[0.15, 0.5]",1,1,,,,,,,,,0,4,4,4,0,1,1,1,,,,,,,,,,,,,,,,,,,,,,,,,,,,,,,,,,,,,,,,,,,,,,,,,,,,,,,535.2493258410004,None,535.2493258410004,None,535.2493258410004,None,c,1,7.724846613999944,536.7997355320003,None,536.7997355320003,None,536.7997355320003,None,544.5827969150005,None,544.5827969150005,None,544.5827969150005,None,544.5827969150005,None,,,,,,,,,,,,,,,,,,,,,,,,,,,,,,,,,,,,,,,,,,,,001,147,2020_Feb_20_1051,spring_faces,3.1.5,60.04684975299286,
condition files/Stage1_1.xlsx,,T2,B2,m,"['c', 'm']","['Clue', 'Monopoly']","[-0.15, 0.5]","[0.15, 0.5]",1,1,,,,,,,,,0,4,4,4,0,2,2,3,,,,,,,,,,,,,,,,,,,,,,,,,,,,,,,,,,,,,,,,,,,,,,,,,,,,,,,546.5488664559998,None,546.5488664559998,None,546.5488664559998,None,m,1,2.024890869999581,548.0837092359998,None,548.0837092359998,None,548.0837092359998,None,550.1675484030002,None,550.1675484030002,None,550.1675484030002,None,550.1675484030002,None,,,,,,,,,,,,,,,,,,,,,,,,,,,,,,,,,,,,,,,,,,,,001,147,2020_Feb_20_1051,spring_faces,3.1.5,60.04684975299286,
condition files/Stage1_1.xlsx,,T4,B3,m,"['c', 'm']","['Clue', 'Monopoly']","[-0.15, 0.5]","[0.15, 0.5]",1,1,,,,,,,,,0,4,4,4,0,3,3,6,,,,,,,,,,,,,,,,,,,,,,,,,,,,,,,,,,,,,,,,,,,,,,,,,,,,,,,552.1329352250004,None,552.1329352250004,None,552.1329352250004,None,m,1,4.041471671000181,553.6831158290006,None,553.6831158290006,None,553.6831158290006,None,557.7835081430003,None,557.7835081430003,None,557.7835081430003,None,557.7835081430003,None,,,,,,,,,,,,,,,,,,,,,,,,,,,,,,,,,,,,,,,,,,,,001,147,2020_Feb_20_1051,spring_faces,3.1.5,60.04684975299286,
condition files/Stage1_1.xlsx,,B2,T1,m,"['c', 'm']","['Clue', 'Monopoly']","[-0.15, 0.5]","[0.15, 0.5]",1,1,,,,,,,,,0,4,4,4,0,4,4,2,,,,,,,,,,,,,,,,,,,,,,,,,,,,,,,,,,,,,,,,,,,,,,,,,,,,,,,559.7496608490001,None,559.7496608490001,None,559.7496608490001,None,c,0,1.1443185719999747,561.2841901540005,None,561.2841901540005,None,561.2841901540005,None,562.4826330670003,None,562.4826330670003,None,562.4826330670003,None,562.4826330670003,None,,,,,,,,,,,,,,,,,,,,,,,,,,,,,,,,,,,,,,,,,,,,001,147,2020_Feb_20_1051,spring_faces,3.1.5,60.04684975299286,
condition files/Stage1_1.xlsx,,B4,T4,m,"['c', 'm']","['Clue', 'Monopoly']","[-0.15, 0.5]","[0.15, 0.5]",1,1,,,,,,,,,0,4,4,4,0,5,5,7,,,,,,,,,,,,,,,,,,,,,,,,,,,,,,,,,,,,,,,,,,,,,,,,,,,,,,,564.449406314,None,564.449406314,None,564.449406314,None,m,1,1.6913232269998844,565.9852919630002,None,565.9852919630002,None,565.9852919630002,None,567.7328965329998,None,567.7328965329998,None,567.7328965329998,None,567.7328965329998,None,,,,,,,,,,,,,,,,,,,,,,,,,,,,,,,,,,,,,,,,,,,,001,147,2020_Feb_20_1051,spring_faces,3.1.5,60.04684975299286,
condition files/Stage1_1.xlsx,,B3,T3,c,"['c', 'm']","['Clue', 'Monopoly']","[-0.15, 0.5]","[0.15, 0.5]",1,1,,,,,,,,,0,4,4,4,0,6,6,4,,,,,,,,,,,,,,,,,,,,,,,,,,,,,,,,,,,,,,,,,,,,,,,,,,,,,,,569.6999702660005,None,569.6999702660005,None,569.6999702660005,None,m,0,1.1790234529998997,571.2335209439998,None,571.2335209439998,None,571.2335209439998,None,572.4680203960006,None,572.4680203960006,None,572.4680203960006,None,572.4680203960006,None,,,,,,,,,,,,,,,,,,,,,,,,,,,,,,,,,,,,,,,,,,,,001,147,2020_Feb_20_1051,spring_faces,3.1.5,60.04684975299286,
condition files/Stage1_1.xlsx,,T3,B4,c,"['c', 'm']","['Clue', 'Monopoly']","[-0.15, 0.5]","[0.15, 0.5]",1,1,,,,,,,,,0,4,4,4,0,7,7,5,,,,,,,,,,,,,,,,,,,,,,,,,,,,,,,,,,,,,,,,,,,,,,,,,,,,,,,574.4327160339999,None,574.4327160339999,None,574.4327160339999,None,c,1,1.5334570229997553,575.983028349,None,575.983028349,None,575.983028349,None,577.5661891039999,None,577.5661891039999,None,577.5661891039999,None,577.5661891039999,None,,,,,,,,,,,,,,,,,,,,,,,,,,,,,,,,,,,,,,,,,,,,001,147,2020_Feb_20_1051,spring_faces,3.1.5,60.04684975299286,
condition files/Stage1_2.xlsx,,T1,B2,m,"['c', 'm']","['Clue', 'Monopoly']","[-0.15, 0.5]","[0.15, 0.5]",1,1,,,,,,,,,0,5,5,5,0,0,0,2,,,,,,,,,,,,,,,,,,,,,,,,,,,,,,,,,,,,,,,,,,,,,,,,,,,,,,,579.5494169080002,None,579.5494169080002,None,579.5494169080002,None,c,0,1.265800047999619,581.0827784000003,None,581.0827784000003,None,581.0827784000003,None,582.401028364,None,582.401028364,None,582.401028364,None,582.401028364,None,,,,,,,,,,,,,,,,,,,,,,,,,,,,,,,,,,,,,,,,,,,,001,147,2020_Feb_20_1051,spring_faces,3.1.5,60.04684975299286,
condition files/Stage1_2.xlsx,,B2,T2,m,"['c', 'm']","['Clue', 'Monopoly']","[-0.15, 0.5]","[0.15, 0.5]",1,1,,,,,,,,,0,5,5,5,0,1,1,3,,,,,,,,,,,,,,,,,,,,,,,,,,,,,,,,,,,,,,,,,,,,,,,,,,,,,,,584.3654190289999,None,584.3654190289999,None,584.3654190289999,None,m,1,1.008174307000445,585.9164120770001,None,585.9164120770001,None,585.9164120770001,None,586.9834380439997,None,586.9834380439997,None,586.9834380439997,None,586.9834380439997,None,,,,,,,,,,,,,,,,,,,,,,,,,,,,,,,,,,,,,,,,,,,,001,147,2020_Feb_20_1051,spring_faces,3.1.5,60.04684975299286,
condition files/Stage1_2.xlsx,,T2,B1,c,"['c', 'm']","['Clue', 'Monopoly']","[-0.15, 0.5]","[0.15, 0.5]",1,1,,,,,,,,,0,5,5,5,0,2,2,1,,,,,,,,,,,,,,,,,,,,,,,,,,,,,,,,,,,,,,,,,,,,,,,,,,,,,,,588.9491113820004,None,588.9491113820004,None,588.9491113820004,None,m,0,1.417019058999358,590.4834206310006,None,590.4834206310006,None,590.4834206310006,None,591.9826810160002,None,591.9826810160002,None,591.9826810160002,None,591.9826810160002,None,,,,,,,,,,,,,,,,,,,,,,,,,,,,,,,,,,,,,,,,,,,,001,147,2020_Feb_20_1051,spring_faces,3.1.5,60.04684975299286,
condition files/Stage1_2.xlsx,,B3,T4,m,"['c', 'm']","['Clue', 'Monopoly']","[-0.15, 0.5]","[0.15, 0.5]",1,1,,,,,,,,,0,5,5,5,0,3,3,6,,,,,,,,,,,,,,,,,,,,,,,,,,,,,,,,,,,,,,,,,,,,,,,,,,,,,,,593.93260998,None,593.93260998,None,593.93260998,None,m,1,1.090004818000125,595.4825847910006,None,595.4825847910006,None,595.4825847910006,None,596.6354246760002,None,596.6354246760002,None,596.6354246760002,None,596.6354246760002,None,,,,,,,,,,,,,,,,,,,,,,,,,,,,,,,,,,,,,,,,,,,,001,147,2020_Feb_20_1051,spring_faces,3.1.5,60.04684975299286,
condition files/Stage1_2.xlsx,,B1,T1,c,"['c', 'm']","['Clue', 'Monopoly']","[-0.15, 0.5]","[0.15, 0.5]",1,1,,,,,,,,,0,5,5,5,0,4,4,0,,,,,,,,,,,,,,,,,,,,,,,,,,,,,,,,,,,,,,,,,,,,,,,,,,,,,,,598.5994300050006,None,598.5994300050006,None,598.5994300050006,None,m,0,0.7909772290004184,600.1496087400001,None,600.1496087400001,None,600.1496087400001,None,601.0164644810002,None,601.0164644810002,None,601.0164644810002,None,601.0164644810002,None,,,,,,,,,,,,,,,,,,,,,,,,,,,,,,,,,,,,,,,,,,,,001,147,2020_Feb_20_1051,spring_faces,3.1.5,60.04684975299286,
condition files/Stage1_2.xlsx,,T4,B4,m,"['c', 'm']","['Clue', 'Monopoly']","[-0.15, 0.5]","[0.15, 0.5]",1,1,,,,,,,,,0,5,5,5,0,5,5,7,,,,,,,,,,,,,,,,,,,,,,,,,,,,,,,,,,,,,,,,,,,,,,,,,,,,,,,602.9655593130001,None,602.9655593130001,None,602.9655593130001,None,c,0,0.9672637710000345,604.5012975690006,None,604.5012975690006,None,604.5012975690006,None,605.5338721369999,None,605.5338721369999,None,605.5338721369999,None,605.5338721369999,None,,,,,,,,,,,,,,,,,,,,,,,,,,,,,,,,,,,,,,,,,,,,001,147,2020_Feb_20_1051,spring_faces,3.1.5,60.04684975299286,
condition files/Stage1_2.xlsx,,T3,B3,c,"['c', 'm']","['Clue', 'Monopoly']","[-0.15, 0.5]","[0.15, 0.5]",1,1,,,,,,,,,0,5,5,5,0,6,6,4,,,,,,,,,,,,,,,,,,,,,,,,,,,,,,,,,,,,,,,,,,,,,,,,,,,,,,,607.4992405760004,None,607.4992405760004,None,607.4992405760004,None,c,1,1.3625948210001297,609.0499265529998,None,609.0499265529998,None,609.0499265529998,None,610.4830210210002,None,610.4830210210002,None,610.4830210210002,None,610.4830210210002,None,,,,,,,,,,,,,,,,,,,,,,,,,,,,,,,,,,,,,,,,,,,,001,147,2020_Feb_20_1051,spring_faces,3.1.5,60.04684975299286,
condition files/Stage1_2.xlsx,,B4,T3,c,"['c', 'm']","['Clue', 'Monopoly']","[-0.15, 0.5]","[0.15, 0.5]",1,1,,,,,,,,,0,5,5,5,0,7,7,5,,,,,,,,,,,,,,,,,,,,,,,,,,,,,,,,,,,,,,,,,,,,,,,,,,,,,,,612.4328370490002,None,612.4328370490002,None,612.4328370490002,None,m,0,0.7019095050000033,613.9666244480004,None,613.9666244480004,None,613.9666244480004,None,614.733498994,None,614.733498994,None,614.733498994,None,614.733498994,None,,,,,,,,,,,,,,,,,,,,,,,,,,,,,,,,,,,,,,,,,,,,001,147,2020_Feb_20_1051,spring_faces,3.1.5,60.04684975299286,
condition files/Stage1_1.xlsx,,B4,T4,m,"['c', 'm']","['Clue', 'Monopoly']","[-0.15, 0.5]","[0.15, 0.5]",1,1,,,,,,,,,0,6,6,6,0,0,0,7,,,,,,,,,,,,,,,,,,,,,,,,,,,,,,,,,,,,,,,,,,,,,,,,,,,,,,,616.7161719300002,None,616.7161719300002,None,616.7161719300002,None,m,1,1.569256912000128,618.2513273590002,None,618.2513273590002,None,618.2513273590002,None,619.8843846190002,None,619.8843846190002,None,619.8843846190002,None,619.8843846190002,None,,,,,,,,,,,,,,,,,,,,,,,,,,,,,,,,,,,,,,,,,,,,001,147,2020_Feb_20_1051,spring_faces,3.1.5,60.04684975299286,
condition files/Stage1_1.xlsx,,T4,B3,m,"['c', 'm']","['Clue', 'Monopoly']","[-0.15, 0.5]","[0.15, 0.5]",1,1,,,,,,,,,0,6,6,6,0,1,1,6,,,,,,,,,,,,,,,,,,,,,,,,,,,,,,,,,,,,,,,,,,,,,,,,,,,,,,,621.8494114430005,None,621.8494114430005,None,621.8494114430005,None,c,0,1.4440225489997829,623.3845297899998,None,623.3845297899998,None,623.3845297899998,None,624.8827380040002,None,624.8827380040002,None,624.8827380040002,None,624.8827380040002,None,,,,,,,,,,,,,,,,,,,,,,,,,,,,,,,,,,,,,,,,,,,,001,147,2020_Feb_20_1051,spring_faces,3.1.5,60.04684975299286,
condition files/Stage1_1.xlsx,,B3,T3,c,"['c', 'm']","['Clue', 'Monopoly']","[-0.15, 0.5]","[0.15, 0.5]",1,1,,,,,,,,,0,6,6,6,0,2,2,4,,,,,,,,,,,,,,,,,,,,,,,,,,,,,,,,,,,,,,,,,,,,,,,,,,,,,,,626.8495384570006,None,626.8495384570006,None,626.8495384570006,None,c,1,1.2608672529995602,628.3996460870003,None,628.3996460870003,None,628.3996460870003,None,629.7331834180004,None,629.7331834180004,None,629.7331834180004,None,629.7331834180004,None,,,,,,,,,,,,,,,,,,,,,,,,,,,,,,,,,,,,,,,,,,,,001,147,2020_Feb_20_1051,spring_faces,3.1.5,60.04684975299286,
condition files/Stage1_1.xlsx,,T2,B2,m,"['c', 'm']","['Clue', 'Monopoly']","[-0.15, 0.5]","[0.15, 0.5]",1,1,,,,,,,,,0,6,6,6,0,3,3,3,,,,,,,,,,,,,,,,,,,,,,,,,,,,,,,,,,,,,,,,,,,,,,,,,,,,,,,631.6825085460005,None,631.6825085460005,None,631.6825085460005,None,c,0,1.2113046340000437,633.233204569,None,633.233204569,None,633.233204569,None,634.516323586,None,634.516323586,None,634.516323586,None,634.516323586,None,,,,,,,,,,,,,,,,,,,,,,,,,,,,,,,,,,,,,,,,,,,,001,147,2020_Feb_20_1051,spring_faces,3.1.5,60.04684975299286,
condition files/Stage1_1.xlsx,,T3,B4,c,"['c', 'm']","['Clue', 'Monopoly']","[-0.15, 0.5]","[0.15, 0.5]",1,1,,,,,,,,,0,6,6,6,0,4,4,5,,,,,,,,,,,,,,,,,,,,,,,,,,,,,,,,,,,,,,,,,,,,,,,,,,,,,,,636.4661517370005,None,636.4661517370005,None,636.4661517370005,None,c,1,1.8193708649996552,638.0012069700006,None,638.0012069700006,None,638.0012069700006,None,639.88330701,None,639.88330701,None,639.88330701,None,639.88330701,None,,,,,,,,,,,,,,,,,,,,,,,,,,,,,,,,,,,,,,,,,,,,001,147,2020_Feb_20_1051,spring_faces,3.1.5,60.04684975299286,
condition files/Stage1_1.xlsx,,T1,B1,c,"['c', 'm']","['Clue', 'Monopoly']","[-0.15, 0.5]","[0.15, 0.5]",1,1,,,,,,,,,0,6,6,6,0,5,5,0,,,,,,,,,,,,,,,,,,,,,,,,,,,,,,,,,,,,,,,,,,,,,,,,,,,,,,,641.8494175570004,None,641.8494175570004,None,641.8494175570004,None,c,1,1.2527673329996105,643.3997747130006,None,643.3997747130006,None,643.3997747130006,None,644.7166961009998,None,644.7166961009998,None,644.7166961009998,None,644.7166961009998,None,,,,,,,,,,,,,,,,,,,,,,,,,,,,,,,,,,,,,,,,,,,,001,147,2020_Feb_20_1051,spring_faces,3.1.5,60.04684975299286,
condition files/Stage1_1.xlsx,,B1,T2,c,"['c', 'm']","['Clue', 'Monopoly']","[-0.15, 0.5]","[0.15, 0.5]",1,1,,,,,,,,,0,6,6,6,0,6,6,1,,,,,,,,,,,,,,,,,,,,,,,,,,,,,,,,,,,,,,,,,,,,,,,,,,,,,,,646.6828423320003,None,646.6828423320003,None,646.6828423320003,None,m,0,0.963433728000382,648.2330783110001,None,648.2330783110001,None,648.2330783110001,None,649.2499561040004,None,649.2499561040004,None,649.2499561040004,None,649.2499561040004,None,,,,,,,,,,,,,,,,,,,,,,,,,,,,,,,,,,,,,,,,,,,,001,147,2020_Feb_20_1051,spring_faces,3.1.5,60.04684975299286,
condition files/Stage1_1.xlsx,,B2,T1,m,"['c', 'm']","['Clue', 'Monopoly']","[-0.15, 0.5]","[0.15, 0.5]",1,1,,,,,,,,,0,6,6,6,0,7,7,2,,,,,,,,,,,,,,,,,,,,,,,,,,,,,,,,,,,,,,,,,,,,,,,,,,,,,,,651.2165277100003,None,651.2165277100003,None,651.2165277100003,None,m,1,0.8313855129999865,652.7491529449999,None,652.7491529449999,None,652.7491529449999,None,653.6353583970003,None,653.6353583970003,None,653.6353583970003,None,653.6353583970003,None,,,,,,,,,,,,,,,,,,,,,,,,,,,,,,,,,,,,,,,,,,,,001,147,2020_Feb_20_1051,spring_faces,3.1.5,60.04684975299286,
condition files/Stage1_2.xlsx,,B4,T3,c,"['c', 'm']","['Clue', 'Monopoly']","[-0.15, 0.5]","[0.15, 0.5]",1,1,,,,,,,,,0,7,7,7,0,0,0,5,,,,,,,,,,,,,,,,,,,,,,,,,,,,,,,,,,,,,,,,,,,,,,,,,,,,,,,655.6162303259998,None,655.6162303259998,None,655.6162303259998,None,c,1,0.6052059680005186,657.1513960100001,None,657.1513960100001,None,657.1513960100001,None,657.8185709059999,None,657.8185709059999,None,657.8185709059999,None,657.8185709059999,None,,,,,,,,,,,,,,,,,,,,,,,,,,,,,,,,,,,,,,,,,,,,001,147,2020_Feb_20_1051,spring_faces,3.1.5,60.04684975299286,
condition files/Stage1_2.xlsx,,B1,T1,c,"['c', 'm']","['Clue', 'Monopoly']","[-0.15, 0.5]","[0.15, 0.5]",1,1,,,,,,,,,0,7,7,7,0,1,1,0,,,,,,,,,,,,,,,,,,,,,,,,,,,,,,,,,,,,,,,,,,,,,,,,,,,,,,,659.7827247290006,None,659.7827247290006,None,659.7827247290006,None,c,1,1.383348006000233,661.333179057,None,661.333179057,None,661.333179057,None,662.7664516200002,None,662.7664516200002,None,662.7664516200002,None,662.7664516200002,None,,,,,,,,,,,,,,,,,,,,,,,,,,,,,,,,,,,,,,,,,,,,001,147,2020_Feb_20_1051,spring_faces,3.1.5,60.04684975299286,
condition files/Stage1_2.xlsx,,B3,T4,m,"['c', 'm']","['Clue', 'Monopoly']","[-0.15, 0.5]","[0.15, 0.5]",1,1,,,,,,,,,0,7,7,7,0,2,2,6,,,,,,,,,,,,,,,,,,,,,,,,,,,,,,,,,,,,,,,,,,,,,,,,,,,,,,,664.7324083200001,None,664.7324083200001,None,664.7324083200001,None,m,1,0.9932897759999832,666.2672367270006,None,666.2672367270006,None,666.2672367270006,None,667.3330614410006,None,667.3330614410006,None,667.3330614410006,None,667.3330614410006,None,,,,,,,,,,,,,,,,,,,,,,,,,,,,,,,,,,,,,,,,,,,,001,147,2020_Feb_20_1051,spring_faces,3.1.5,60.04684975299286,
condition files/Stage1_2.xlsx,,T1,B2,m,"['c', 'm']","['Clue', 'Monopoly']","[-0.15, 0.5]","[0.15, 0.5]",1,1,,,,,,,,,0,7,7,7,0,3,3,2,,,,,,,,,,,,,,,,,,,,,,,,,,,,,,,,,,,,,,,,,,,,,,,,,,,,,,,669.2827756060005,None,669.2827756060005,None,669.2827756060005,None,c,0,1.451545793999685,670.8329423410005,None,670.8329423410005,None,670.8329423410005,None,672.3506554189998,None,672.3506554189998,None,672.3506554189998,None,672.3506554189998,None,,,,,,,,,,,,,,,,,,,,,,,,,,,,,,,,,,,,,,,,,,,,001,147,2020_Feb_20_1051,spring_faces,3.1.5,60.04684975299286,
condition files/Stage1_2.xlsx,,T3,B3,c,"['c', 'm']","['Clue', 'Monopoly']","[-0.15, 0.5]","[0.15, 0.5]",1,1,,,,,,,,,0,7,7,7,0,4,4,4,,,,,,,,,,,,,,,,,,,,,,,,,,,,,,,,,,,,,,,,,,,,,,,,,,,,,,,674.3160427960001,None,674.3160427960001,None,674.3160427960001,None,c,1,0.978213403999689,675.8662882460003,None,675.8662882460003,None,675.8662882460003,None,676.9157015569999,None,676.9157015569999,None,676.9157015569999,None,676.9157015569999,None,,,,,,,,,,,,,,,,,,,,,,,,,,,,,,,,,,,,,,,,,,,,001,147,2020_Feb_20_1051,spring_faces,3.1.5,60.04684975299286,
condition files/Stage1_2.xlsx,,T2,B1,c,"['c', 'm']","['Clue', 'Monopoly']","[-0.15, 0.5]","[0.15, 0.5]",1,1,,,,,,,,,0,7,7,7,0,5,5,1,,,,,,,,,,,,,,,,,,,,,,,,,,,,,,,,,,,,,,,,,,,,,,,,,,,,,,,678.8663569660002,None,678.8663569660002,None,678.8663569660002,None,m,0,1.1959940529995947,680.4165415400003,None,680.4165415400003,None,680.4165415400003,None,681.6660758799999,None,681.6660758799999,None,681.6660758799999,None,681.6660758799999,None,,,,,,,,,,,,,,,,,,,,,,,,,,,,,,,,,,,,,,,,,,,,001,147,2020_Feb_20_1051,spring_faces,3.1.5,60.04684975299286,
condition files/Stage1_2.xlsx,,B2,T2,m,"['c', 'm']","['Clue', 'Monopoly']","[-0.15, 0.5]","[0.15, 0.5]",1,1,,,,,,,,,0,7,7,7,0,6,6,3,,,,,,,,,,,,,,,,,,,,,,,,,,,,,,,,,,,,,,,,,,,,,,,,,,,,,,,683.6327502710001,None,683.6327502710001,None,683.6327502710001,None,m,1,1.0542818469994018,685.1662905499998,None,685.1662905499998,None,685.1662905499998,None,686.2998247530004,None,686.2998247530004,None,686.2998247530004,None,686.2998247530004,None,,,,,,,,,,,,,,,,,,,,,,,,,,,,,,,,,,,,,,,,,,,,001,147,2020_Feb_20_1051,spring_faces,3.1.5,60.04684975299286,
condition files/Stage1_2.xlsx,,T4,B4,m,"['c', 'm']","['Clue', 'Monopoly']","[-0.15, 0.5]","[0.15, 0.5]",1,1,,,,,,,,,0,7,7,7,0,7,7,7,,,,,,,,,,,,,,,,,,,,,,,,,,,,,,,,,,,,,,,,,,,,,,,,,,,,,,,688.249404145,None,688.249404145,None,688.249404145,None,c,0,1.1408936979996724,689.7997006530004,None,689.7997006530004,None,689.7997006530004,None,690.9994751700006,None,690.9994751700006,None,690.9994751700006,None,690.9994751700006,None,,,,,,,,,,,,,,,,,,,,,,,,,,,,,,,,,,,,,,,,,,,,001,147,2020_Feb_20_1051,spring_faces,3.1.5,60.04684975299286,
condition files/Stage1_1.xlsx,,T2,B2,m,"['c', 'm']","['Clue', 'Monopoly']","[-0.15, 0.5]","[0.15, 0.5]",1,1,,,,,,,,,0,8,8,8,0,0,0,3,,,,,,,,,,,,,,,,,,,,,,,,,,,,,,,,,,,,,,,,,,,,,,,,,,,,,,,692.9831321420006,None,692.9831321420006,None,692.9831321420006,None,c,0,1.8474256400004379,694.5331105949999,None,694.5331105949999,None,694.5331105949999,None,696.4330667579998,None,696.4330667579998,None,696.4330667579998,None,696.4330667579998,None,,,,,,,,,,,,,,,,,,,,,,,,,,,,,,,,,,,,,,,,,,,,001,147,2020_Feb_20_1051,spring_faces,3.1.5,60.04684975299286,
condition files/Stage1_1.xlsx,,T4,B3,m,"['c', 'm']","['Clue', 'Monopoly']","[-0.15, 0.5]","[0.15, 0.5]",1,1,,,,,,,,,0,8,8,8,0,1,1,6,,,,,,,,,,,,,,,,,,,,,,,,,,,,,,,,,,,,,,,,,,,,,,,,,,,,,,,698.3993499440003,None,698.3993499440003,None,698.3993499440003,None,c,0,0.6707602749993384,699.94980966,None,699.94980966,None,699.94980966,None,700.683085566,None,700.683085566,None,700.683085566,None,700.683085566,None,,,,,,,,,,,,,,,,,,,,,,,,,,,,,,,,,,,,,,,,,,,,001,147,2020_Feb_20_1051,spring_faces,3.1.5,60.04684975299286,
condition files/Stage1_1.xlsx,,T3,B4,c,"['c', 'm']","['Clue', 'Monopoly']","[-0.15, 0.5]","[0.15, 0.5]",1,1,,,,,,,,,0,8,8,8,0,2,2,5,,,,,,,,,,,,,,,,,,,,,,,,,,,,,,,,,,,,,,,,,,,,,,,,,,,,,,,702.6493496909998,None,702.6493496909998,None,702.6493496909998,None,c,1,0.8525617400000556,704.1840139590004,None,704.1840139590004,None,704.1840139590004,None,705.0999717080003,None,705.0999717080003,None,705.0999717080003,None,705.0999717080003,None,,,,,,,,,,,,,,,,,,,,,,,,,,,,,,,,,,,,,,,,,,,,001,147,2020_Feb_20_1051,spring_faces,3.1.5,60.04684975299286,
condition files/Stage1_1.xlsx,,B2,T1,m,"['c', 'm']","['Clue', 'Monopoly']","[-0.15, 0.5]","[0.15, 0.5]",1,1,,,,,,,,,0,8,8,8,0,3,3,2,,,,,,,,,,,,,,,,,,,,,,,,,,,,,,,,,,,,,,,,,,,,,,,,,,,,,,,707.0654420330002,None,707.0654420330002,None,707.0654420330002,None,c,0,1.26770464800029,708.616825518,None,708.616825518,None,708.616825518,None,709.9665548940002,None,709.9665548940002,None,709.9665548940002,None,709.9665548940002,None,,,,,,,,,,,,,,,,,,,,,,,,,,,,,,,,,,,,,,,,,,,,001,147,2020_Feb_20_1051,spring_faces,3.1.5,60.04684975299286,
condition files/Stage1_1.xlsx,,B4,T4,m,"['c', 'm']","['Clue', 'Monopoly']","[-0.15, 0.5]","[0.15, 0.5]",1,1,,,,,,,,,0,8,8,8,0,4,4,7,,,,,,,,,,,,,,,,,,,,,,,,,,,,,,,,,,,,,,,,,,,,,,,,,,,,,,,711.9164700700003,None,711.9164700700003,None,711.9164700700003,None,m,1,5.058053548999851,713.4665322689998,None,713.4665322689998,None,713.4665322689998,None,718.5831285240001,None,718.5831285240001,None,718.5831285240001,None,718.5831285240001,None,,,,,,,,,,,,,,,,,,,,,,,,,,,,,,,,,,,,,,,,,,,,001,147,2020_Feb_20_1051,spring_faces,3.1.5,60.04684975299286,
condition files/Stage1_1.xlsx,,B3,T3,c,"['c', 'm']","['Clue', 'Monopoly']","[-0.15, 0.5]","[0.15, 0.5]",1,1,,,,,,,,,0,8,8,8,0,5,5,4,,,,,,,,,,,,,,,,,,,,,,,,,,,,,,,,,,,,,,,,,,,,,,,,,,,,,,,720.5491715349999,None,720.5491715349999,None,720.5491715349999,None,c,1,1.1456670050001776,722.0828778530004,None,722.0828778530004,None,722.0828778530004,None,723.2997370820003,None,723.2997370820003,None,723.2997370820003,None,723.2997370820003,None,,,,,,,,,,,,,,,,,,,,,,,,,,,,,,,,,,,,,,,,,,,,001,147,2020_Feb_20_1051,spring_faces,3.1.5,60.04684975299286,
condition files/Stage1_1.xlsx,,T1,B1,c,"['c', 'm']","['Clue', 'Monopoly']","[-0.15, 0.5]","[0.15, 0.5]",1,1,,,,,,,,,0,8,8,8,0,6,6,0,,,,,,,,,,,,,,,,,,,,,,,,,,,,,,,,,,,,,,,,,,,,,,,,,,,,,,,725.2498380030001,None,725.2498380030001,None,725.2498380030001,None,c,1,2.1893175360000896,726.7832407699998,None,726.7832407699998,None,726.7832407699998,None,729.0327003419998,None,729.0327003419998,None,729.0327003419998,None,729.0327003419998,None,,,,,,,,,,,,,,,,,,,,,,,,,,,,,,,,,,,,,,,,,,,,001,147,2020_Feb_20_1051,spring_faces,3.1.5,60.04684975299286,
condition files/Stage1_1.xlsx,,B1,T2,c,"['c', 'm']","['Clue', 'Monopoly']","[-0.15, 0.5]","[0.15, 0.5]",1,1,,,,,,,,,0,8,8,8,0,7,7,1,,,,,,,,,,,,,,,,,,,,,,,,,,,,,,,,,,,,,,,,,,,,,,,,,,,,,,,730.9993325080004,None,730.9993325080004,None,730.9993325080004,None,m,0,1.4461505999997826,732.5344482110004,None,732.5344482110004,None,732.5344482110004,None,734.0331610580006,None,734.0331610580006,None,734.0331610580006,None,734.0331610580006,None,,,,,,,,,,,,,,,,,,,,,,,,,,,,,,,,,,,,,,,,,,,,001,147,2020_Feb_20_1051,spring_faces,3.1.5,60.04684975299286,
condition files/Stage1_2.xlsx,,T4,B4,m,"['c', 'm']","['Clue', 'Monopoly']","[-0.15, 0.5]","[0.15, 0.5]",1,1,,,,,,,,,0,9,9,9,0,0,0,7,,,,,,,,,,,,,,,,,,,,,,,,,,,,,,,,,,,,,,,,,,,,,,,,,,,,,,,736.0163717330006,None,736.0163717330006,None,736.0163717330006,None,m,1,1.453924688999905,737.5666488260003,None,737.5666488260003,None,737.5666488260003,None,739.0844216710002,None,739.0844216710002,None,739.0844216710002,None,739.0844216710002,None,,,,,,,,,,,,,,,,,,,,,,,,,,,,,,,,,,,,,,,,,,,,001,147,2020_Feb_20_1051,spring_faces,3.1.5,60.04684975299286,
condition files/Stage1_2.xlsx,,B2,T2,m,"['c', 'm']","['Clue', 'Monopoly']","[-0.15, 0.5]","[0.15, 0.5]",1,1,,,,,,,,,0,9,9,9,0,1,1,3,,,,,,,,,,,,,,,,,,,,,,,,,,,,,,,,,,,,,,,,,,,,,,,,,,,,,,,741.0495635570005,None,741.0495635570005,None,741.0495635570005,None,m,1,1.3490145769992523,742.5995468219999,None,742.5995468219999,None,742.5995468219999,None,743.9994676670003,None,743.9994676670003,None,743.9994676670003,None,743.9994676670003,None,,,,,,,,,,,,,,,,,,,,,,,,,,,,,,,,,,,,,,,,,,,,001,147,2020_Feb_20_1051,spring_faces,3.1.5,60.04684975299286,
condition files/Stage1_2.xlsx,,B1,T1,c,"['c', 'm']","['Clue', 'Monopoly']","[-0.15, 0.5]","[0.15, 0.5]",1,1,,,,,,,,,0,9,9,9,0,2,2,0,,,,,,,,,,,,,,,,,,,,,,,,,,,,,,,,,,,,,,,,,,,,,,,,,,,,,,,745.9660949560002,None,745.9660949560002,None,745.9660949560002,None,c,1,1.5680496900004073,747.5164259700005,None,747.5164259700005,None,747.5164259700005,None,749.1504123330005,None,749.1504123330005,None,749.1504123330005,None,749.1504123330005,None,,,,,,,,,,,,,,,,,,,,,,,,,,,,,,,,,,,,,,,,,,,,001,147,2020_Feb_20_1051,spring_faces,3.1.5,60.04684975299286,
condition files/Stage1_2.xlsx,,T1,B2,m,"['c', 'm']","['Clue', 'Monopoly']","[-0.15, 0.5]","[0.15, 0.5]",1,1,,,,,,,,,0,9,9,9,0,3,3,2,,,,,,,,,,,,,,,,,,,,,,,,,,,,,,,,,,,,,,,,,,,,,,,,,,,,,,,751.1160095590003,None,751.1160095590003,None,751.1160095590003,None,m,1,1.6342249740000625,752.6662474619998,None,752.6662474619998,None,752.6662474619998,None,754.3674418830005,None,754.3674418830005,None,754.3674418830005,None,754.3674418830005,None,,,,,,,,,,,,,,,,,,,,,,,,,,,,,,,,,,,,,,,,,,,,001,147,2020_Feb_20_1051,spring_faces,3.1.5,60.04684975299286,
condition files/Stage1_2.xlsx,,T2,B1,c,"['c', 'm']","['Clue', 'Monopoly']","[-0.15, 0.5]","[0.15, 0.5]",1,1,,,,,,,,,0,9,9,9,0,4,4,1,,,,,,,,,,,,,,,,,,,,,,,,,,,,,,,,,,,,,,,,,,,,,,,,,,,,,,,756.3327297450005,None,756.3327297450005,None,756.3327297450005,None,c,1,1.9372879180000382,757.8832796730003,None,757.8832796730003,None,757.8832796730003,None,759.8830669549998,None,759.8830669549998,None,759.8830669549998,None,759.8830669549998,None,,,,,,,,,,,,,,,,,,,,,,,,,,,,,,,,,,,,,,,,,,,,001,147,2020_Feb_20_1051,spring_faces,3.1.5,60.04684975299286,
condition files/Stage1_2.xlsx,,B4,T3,c,"['c', 'm']","['Clue', 'Monopoly']","[-0.15, 0.5]","[0.15, 0.5]",1,1,,,,,,,,,0,9,9,9,0,5,5,5,,,,,,,,,,,,,,,,,,,,,,,,,,,,,,,,,,,,,,,,,,,,,,,,,,,,,,,761.8493952630006,None,761.8493952630006,None,761.8493952630006,None,c,1,2.1646878780002226,763.3838928679997,None,763.3838928679997,None,763.3838928679997,None,765.5999407660001,None,765.5999407660001,None,765.5999407660001,None,765.5999407660001,None,,,,,,,,,,,,,,,,,,,,,,,,,,,,,,,,,,,,,,,,,,,,001,147,2020_Feb_20_1051,spring_faces,3.1.5,60.04684975299286,
condition files/Stage1_2.xlsx,,T3,B3,c,"['c', 'm']","['Clue', 'Monopoly']","[-0.15, 0.5]","[0.15, 0.5]",1,1,,,,,,,,,0,9,9,9,0,6,6,4,,,,,,,,,,,,,,,,,,,,,,,,,,,,,,,,,,,,,,,,,,,,,,,,,,,,,,,767.566142269,None,767.566142269,None,767.566142269,None,c,1,1.1521072039995488,769.116435727,None,769.116435727,None,769.116435727,None,770.3336854139998,None,770.3336854139998,None,770.3336854139998,None,770.3336854139998,None,,,,,,,,,,,,,,,,,,,,,,,,,,,,,,,,,,,,,,,,,,,,001,147,2020_Feb_20_1051,spring_faces,3.1.5,60.04684975299286,
condition files/Stage1_2.xlsx,,B3,T4,m,"['c', 'm']","['Clue', 'Monopoly']","[-0.15, 0.5]","[0.15, 0.5]",1,1,,,,,,,,,0,9,9,9,0,7,7,6,,,,,,,,,,,,,,,,,,,,,,,,,,,,,,,,,,,,,,,,,,,,,,,,,,,,,,,772.2994231359999,None,772.2994231359999,None,772.2994231359999,None,m,1,1.378476022000541,773.8500637839998,None,773.8500637839998,None,773.8500637839998,None,775.2855889890006,None,775.2855889890006,None,775.2855889890006,None,775.2855889890006,None,,,,,,,,,,,,,,,,,,,,,,,,,,,,,,,,,,,,,,,,,,,,001,147,2020_Feb_20_1051,spring_faces,3.1.5,60.04684975299286,
condition files/Stage1_1.xlsx,,T3,B4,c,"['c', 'm']","['Clue', 'Monopoly']","[-0.15, 0.5]","[0.15, 0.5]",1,1,,,,,,,,,0,10,10,10,0,0,0,5,,,,,,,,,,,,,,,,,,,,,,,,,,,,,,,,,,,,,,,,,,,,,,,,,,,,,,,777.267048228,None,777.267048228,None,777.267048228,None,c,1,1.1969173930001489,778.799629526,None,778.799629526,None,778.799629526,None,780.0522395240005,None,780.0522395240005,None,780.0522395240005,None,780.0522395240005,None,,,,,,,,,,,,,,,,,,,,,,,,,,,,,,,,,,,,,,,,,,,,001,147,2020_Feb_20_1051,spring_faces,3.1.5,60.04684975299286,
condition files/Stage1_1.xlsx,,B3,T3,c,"['c', 'm']","['Clue', 'Monopoly']","[-0.15, 0.5]","[0.15, 0.5]",1,1,,,,,,,,,0,10,10,10,0,1,1,4,,,,,,,,,,,,,,,,,,,,,,,,,,,,,,,,,,,,,,,,,,,,,,,,,,,,,,,782.0161598539999,None,782.0161598539999,None,782.0161598539999,None,c,1,1.1022079619997385,783.5663562039999,None,783.5663562039999,None,783.5663562039999,None,784.7333134420005,None,784.7333134420005,None,784.7333134420005,None,784.7333134420005,None,,,,,,,,,,,,,,,,,,,,,,,,,,,,,,,,,,,,,,,,,,,,001,147,2020_Feb_20_1051,spring_faces,3.1.5,60.04684975299286,
condition files/Stage1_1.xlsx,,T1,B1,c,"['c', 'm']","['Clue', 'Monopoly']","[-0.15, 0.5]","[0.15, 0.5]",1,1,,,,,,,,,0,10,10,10,0,2,2,0,,,,,,,,,,,,,,,,,,,,,,,,,,,,,,,,,,,,,,,,,,,,,,,,,,,,,,,786.6993521459999,None,786.6993521459999,None,786.6993521459999,None,m,0,1.203517030000512,788.2330670410001,None,788.2330670410001,None,788.2330670410001,None,789.4998537470001,None,789.4998537470001,None,789.4998537470001,None,789.4998537470001,None,,,,,,,,,,,,,,,,,,,,,,,,,,,,,,,,,,,,,,,,,,,,001,147,2020_Feb_20_1051,spring_faces,3.1.5,60.04684975299286,
condition files/Stage1_1.xlsx,,B4,T4,m,"['c', 'm']","['Clue', 'Monopoly']","[-0.15, 0.5]","[0.15, 0.5]",1,1,,,,,,,,,0,10,10,10,0,3,3,7,,,,,,,,,,,,,,,,,,,,,,,,,,,,,,,,,,,,,,,,,,,,,,,,,,,,,,,791.4660597350003,None,791.4660597350003,None,791.4660597350003,None,c,0,0.6440667830001985,793.0164274119998,None,793.0164274119998,None,793.0164274119998,None,793.7324264180006,None,793.7324264180006,None,793.7324264180006,None,793.7324264180006,None,,,,,,,,,,,,,,,,,,,,,,,,,,,,,,,,,,,,,,,,,,,,001,147,2020_Feb_20_1051,spring_faces,3.1.5,60.04684975299286,
condition files/Stage1_1.xlsx,,T4,B3,m,"['c', 'm']","['Clue', 'Monopoly']","[-0.15, 0.5]","[0.15, 0.5]",1,1,,,,,,,,,0,10,10,10,0,4,4,6,,,,,,,,,,,,,,,,,,,,,,,,,,,,,,,,,,,,,,,,,,,,,,,,,,,,,,,795.6826014050002,None,795.6826014050002,None,795.6826014050002,None,m,1,4.875776899999437,797.2328071829997,None,797.2328071829997,None,797.2328071829997,None,802.1658396100001,None,802.1658396100001,None,802.1658396100001,None,802.1658396100001,None,,,,,,,,,,,,,,,,,,,,,,,,,,,,,,,,,,,,,,,,,,,,001,147,2020_Feb_20_1051,spring_faces,3.1.5,60.04684975299286,
condition files/Stage1_1.xlsx,,B2,T1,m,"['c', 'm']","['Clue', 'Monopoly']","[-0.15, 0.5]","[0.15, 0.5]",1,1,,,,,,,,,0,10,10,10,0,5,5,2,,,,,,,,,,,,,,,,,,,,,,,,,,,,,,,,,,,,,,,,,,,,,,,,,,,,,,,804.13280829,None,804.13280829,None,804.13280829,None,m,1,2.8725144219997674,805.6680794690001,None,805.6680794690001,None,805.6680794690001,None,808.5991204250004,None,808.5991204250004,None,808.5991204250004,None,808.5991204250004,None,,,,,,,,,,,,,,,,,,,,,,,,,,,,,,,,,,,,,,,,,,,,001,147,2020_Feb_20_1051,spring_faces,3.1.5,60.04684975299286,
condition files/Stage1_1.xlsx,,T2,B2,m,"['c', 'm']","['Clue', 'Monopoly']","[-0.15, 0.5]","[0.15, 0.5]",1,1,,,,,,,,,0,10,10,10,0,6,6,3,,,,,,,,,,,,,,,,,,,,,,,,,,,,,,,,,,,,,,,,,,,,,,,,,,,,,,,810.5656442190002,None,810.5656442190002,None,810.5656442190002,None,c,0,1.6094059509996441,812.0992033729999,None,812.0992033729999,None,812.0992033729999,None,813.7657200969998,None,813.7657200969998,None,813.7657200969998,None,813.7657200969998,None,,,,,,,,,,,,,,,,,,,,,,,,,,,,,,,,,,,,,,,,,,,,001,147,2020_Feb_20_1051,spring_faces,3.1.5,60.04684975299286,
condition files/Stage1_1.xlsx,,B1,T2,c,"['c', 'm']","['Clue', 'Monopoly']","[-0.15, 0.5]","[0.15, 0.5]",1,1,,,,,,,,,0,10,10,10,0,7,7,1,,,,,,,,,,,,,,,,,,,,,,,,,,,,,,,,,,,,,,,,,,,,,,,,,,,,,,,815.7323037370006,None,815.7323037370006,None,815.7323037370006,None,m,0,2.0588496689997555,817.2657666149998,None,817.2657666149998,None,817.2657666149998,None,819.399612917,None,819.399612917,None,819.399612917,None,819.399612917,None,,,,,,,,,,,,,,,,,,,,,,,,,,,,,,,,,,,,,,,,,,,,001,147,2020_Feb_20_1051,spring_faces,3.1.5,60.04684975299286,
condition files/Stage1_2.xlsx,,T1,B2,m,"['c', 'm']","['Clue', 'Monopoly']","[-0.15, 0.5]","[0.15, 0.5]",1,1,,,,,,,,,0,11,11,11,0,0,0,2,,,,,,,,,,,,,,,,,,,,,,,,,,,,,,,,,,,,,,,,,,,,,,,,,,,,,,,821.366604418,None,821.366604418,None,821.366604418,None,c,0,2.5686630269992747,822.8999056410003,None,822.8999056410003,None,822.8999056410003,None,825.5339598250002,None,825.5339598250002,None,825.5339598250002,None,825.5339598250002,None,,,,,,,,,,,,,,,,,,,,,,,,,,,,,,,,,,,,,,,,,,,,001,147,2020_Feb_20_1051,spring_faces,3.1.5,60.04684975299286,
condition files/Stage1_2.xlsx,,T4,B4,m,"['c', 'm']","['Clue', 'Monopoly']","[-0.15, 0.5]","[0.15, 0.5]",1,1,,,,,,,,,0,11,11,11,0,1,1,7,,,,,,,,,,,,,,,,,,,,,,,,,,,,,,,,,,,,,,,,,,,,,,,,,,,,,,,827.499466321,None,827.499466321,None,827.499466321,None,c,0,3.282984165000016,829.0335454659999,None,829.0335454659999,None,829.0335454659999,None,832.3661551519999,None,832.3661551519999,None,832.3661551519999,None,832.3661551519999,None,,,,,,,,,,,,,,,,,,,,,,,,,,,,,,,,,,,,,,,,,,,,001,147,2020_Feb_20_1051,spring_faces,3.1.5,60.04684975299286,
condition files/Stage1_2.xlsx,,B3,T4,m,"['c', 'm']","['Clue', 'Monopoly']","[-0.15, 0.5]","[0.15, 0.5]",1,1,,,,,,,,,0,11,11,11,0,2,2,6,,,,,,,,,,,,,,,,,,,,,,,,,,,,,,,,,,,,,,,,,,,,,,,,,,,,,,,834.3324607630002,None,834.3324607630002,None,834.3324607630002,None,c,0,1.9219204680002804,835.8666630050002,None,835.8666630050002,None,835.8666630050002,None,837.849343207,None,837.849343207,None,837.849343207,None,837.849343207,None,,,,,,,,,,,,,,,,,,,,,,,,,,,,,,,,,,,,,,,,,,,,001,147,2020_Feb_20_1051,spring_faces,3.1.5,60.04684975299286,
condition files/Stage1_2.xlsx,,B2,T2,m,"['c', 'm']","['Clue', 'Monopoly']","[-0.15, 0.5]","[0.15, 0.5]",1,1,,,,,,,,,0,11,11,11,0,3,3,3,,,,,,,,,,,,,,,,,,,,,,,,,,,,,,,,,,,,,,,,,,,,,,,,,,,,,,,839.8161785330003,None,839.8161785330003,None,839.8161785330003,None,m,1,6.870997801000158,841.34958456,None,841.34958456,None,841.34958456,None,848.2831438909998,None,848.2831438909998,None,848.2831438909998,None,848.2831438909998,None,,,,,,,,,,,,,,,,,,,,,,,,,,,,,,,,,,,,,,,,,,,,001,147,2020_Feb_20_1051,spring_faces,3.1.5,60.04684975299286,
condition files/Stage1_2.xlsx,,T2,B1,c,"['c', 'm']","['Clue', 'Monopoly']","[-0.15, 0.5]","[0.15, 0.5]",1,1,,,,,,,,,0,11,11,11,0,4,4,1,,,,,,,,,,,,,,,,,,,,,,,,,,,,,,,,,,,,,,,,,,,,,,,,,,,,,,,850.2494796319997,None,850.2494796319997,None,850.2494796319997,None,m,0,1.5078272199998537,851.7847357750006,None,851.7847357750006,None,851.7847357750006,None,853.3492841030002,None,853.3492841030002,None,853.3492841030002,None,853.3492841030002,None,,,,,,,,,,,,,,,,,,,,,,,,,,,,,,,,,,,,,,,,,,,,001,147,2020_Feb_20_1051,spring_faces,3.1.5,60.04684975299286,
condition files/Stage1_2.xlsx,,B1,T1,c,"['c', 'm']","['Clue', 'Monopoly']","[-0.15, 0.5]","[0.15, 0.5]",1,1,,,,,,,,,0,11,11,11,0,5,5,0,,,,,,,,,,,,,,,,,,,,,,,,,,,,,,,,,,,,,,,,,,,,,,,,,,,,,,,855.3160920620003,None,855.3160920620003,None,855.3160920620003,None,m,0,3.4834624499999336,856.8491224990003,None,856.8491224990003,None,856.8491224990003,None,860.3828297669997,None,860.3828297669997,None,860.3828297669997,None,860.3828297669997,None,,,,,,,,,,,,,,,,,,,,,,,,,,,,,,,,,,,,,,,,,,,,001,147,2020_Feb_20_1051,spring_faces,3.1.5,60.04684975299286,
condition files/Stage1_2.xlsx,,T3,B3,c,"['c', 'm']","['Clue', 'Monopoly']","[-0.15, 0.5]","[0.15, 0.5]",1,1,,,,,,,,,0,11,11,11,0,6,6,4,,,,,,,,,,,,,,,,,,,,,,,,,,,,,,,,,,,,,,,,,,,,,,,,,,,,,,,862.349844419,None,862.349844419,None,862.349844419,None,c,1,1.280818692000139,863.8997094770002,None,863.8997094770002,None,863.8997094770002,None,865.2326940410003,None,865.2326940410003,None,865.2326940410003,None,865.2326940410003,None,,,,,,,,,,,,,,,,,,,,,,,,,,,,,,,,,,,,,,,,,,,,001,147,2020_Feb_20_1051,spring_faces,3.1.5,60.04684975299286,
condition files/Stage1_2.xlsx,,B4,T3,c,"['c', 'm']","['Clue', 'Monopoly']","[-0.15, 0.5]","[0.15, 0.5]",1,1,,,,,,,,,0,11,11,11,0,7,7,5,,,,,,,,,,,,,,,,,,,,,,,,,,,,,,,,,,,,,,,,,,,,,,,,,,,,,,,867.198773475,None,867.198773475,None,867.198773475,None,c,1,1.5509286349997637,868.7336207059998,None,868.7336207059998,None,868.7336207059998,None,870.349895409,None,870.349895409,None,870.349895409,None,870.349895409,None,,,,,,,,,,,,,,,,,,,,,,,,,,,,,,,,,,,,,,,,,,,,001,147,2020_Feb_20_1051,spring_faces,3.1.5,60.04684975299286,
,,,,,,,,,,,,,,,,,,,,,,,,,,,,,,,,,,,,,,,,,,,,,,,,,,,,,,,,,,,,,,,,,,,,,,,,,,,,,,,,,,,,,,,,,,,,,,,,,,,,,,,,,,,,,,,,872.3326465300006,None,space,11.06373717400038,877.3328130990003,None,,,,,,,,,,,,,,,,,,,,,,,,,,,,,,001,147,2020_Feb_20_1051,spring_faces,3.1.5,60.04684975299286,
condition files/Stage2_1.xlsx,,B6,T6,r,"['s', 'r']","['Stratego', 'Risk']","[-0.15, 0.5]","[0.15, 0.5]",1,1,,,,,,,,,,,,,,,,,0,0,0,0,0,0,0,1,,,,,,,,,,,,,,,,,,,,,,,,,,,,,,,,,,,,,,,,,,,,,,,888.4494552320002,None,888.4494552320002,None,888.4494552320002,None,r,1,2.7161434399995414,890.0164331679998,None,890.0164331679998,None,890.0164331679998,None,892.7844166180003,None,892.7844166180003,None,892.7844166180003,None,892.7844166180003,None,,,,,,,,,,,,,,,877.3328130990003,None,,,,,,,,,,,,,,,,,,,,,,,,,,,,001,147,2020_Feb_20_1051,spring_faces,3.1.5,60.04684975299286,
condition files/Stage2_1.xlsx,,T5,B5,s,"['s', 'r']","['Stratego', 'Risk']","[-0.15, 0.5]","[0.15, 0.5]",1,1,,,,,,,,,,,,,,,,,0,0,0,0,0,1,1,0,,,,,,,,,,,,,,,,,,,,,,,,,,,,,,,,,,,,,,,,,,,,,,,894.7491081640001,None,894.7491081640001,None,894.7491081640001,None,s,1,2.802340614000059,896.2822267450001,None,896.2822267450001,None,896.2822267450001,None,899.1496531190005,None,899.1496531190005,None,899.1496531190005,None,899.1496531190005,None,,,,,,,,,,,,,,,,,,,,,,,,,,,,,,,,,,,,,,,,,,,,001,147,2020_Feb_20_1051,spring_faces,3.1.5,60.04684975299286,
condition files/Stage2_1.xlsx,,T3,B3,s,"['s', 'r']","['Stratego', 'Risk']","[-0.15, 0.5]","[0.15, 0.5]",1,1,,,,,,,,,,,,,,,,,0,0,0,0,0,2,2,4,,,,,,,,,,,,,,,,,,,,,,,,,,,,,,,,,,,,,,,,,,,,,,,901.1157126059998,None,901.1157126059998,None,901.1157126059998,None,r,0,2.241064112999993,902.6514989810003,None,902.6514989810003,None,902.6514989810003,None,904.949273485,None,904.949273485,None,904.949273485,None,904.949273485,None,,,,,,,,,,,,,,,,,,,,,,,,,,,,,,,,,,,,,,,,,,,,001,147,2020_Feb_20_1051,spring_faces,3.1.5,60.04684975299286,
condition files/Stage2_1.xlsx,,T1,B1,s,"['s', 'r']","['Stratego', 'Risk']","[-0.15, 0.5]","[0.15, 0.5]",1,1,,,,,,,,,,,,,,,,,0,0,0,0,0,3,3,2,,,,,,,,,,,,,,,,,,,,,,,,,,,,,,,,,,,,,,,,,,,,,,,906.9165888710004,None,906.9165888710004,None,906.9165888710004,None,s,1,1.1140633739996701,908.4505020430006,None,908.4505020430006,None,908.4505020430006,None,909.6162410699999,None,909.6162410699999,None,909.6162410699999,None,909.6162410699999,None,,,,,,,,,,,,,,,,,,,,,,,,,,,,,,,,,,,,,,,,,,,,001,147,2020_Feb_20_1051,spring_faces,3.1.5,60.04684975299286,
condition files/Stage2_1.xlsx,,B2,T2,r,"['s', 'r']","['Stratego', 'Risk']","[-0.15, 0.5]","[0.15, 0.5]",1,1,,,,,,,,,,,,,,,,,0,0,0,0,0,4,4,3,,,,,,,,,,,,,,,,,,,,,,,,,,,,,,,,,,,,,,,,,,,,,,,911.5828868369999,None,911.5828868369999,None,911.5828868369999,None,s,0,3.376845323999987,913.1157499600004,None,913.1157499600004,None,913.1157499600004,None,916.5498378030006,None,916.5498378030006,None,916.5498378030006,None,916.5498378030006,None,,,,,,,,,,,,,,,,,,,,,,,,,,,,,,,,,,,,,,,,,,,,001,147,2020_Feb_20_1051,spring_faces,3.1.5,60.04684975299286,
condition files/Stage2_1.xlsx,,B4,T4,r,"['s', 'r']","['Stratego', 'Risk']","[-0.15, 0.5]","[0.15, 0.5]",1,1,,,,,,,,,,,,,,,,,0,0,0,0,0,5,5,5,,,,,,,,,,,,,,,,,,,,,,,,,,,,,,,,,,,,,,,,,,,,,,,918.5162614010005,None,918.5162614010005,None,918.5162614010005,None,r,1,1.3553483699997741,920.0492315179999,None,920.0492315179999,None,920.0492315179999,None,921.4664188739998,None,921.4664188739998,None,921.4664188739998,None,921.4664188739998,None,,,,,,,,,,,,,,,,,,,,,,,,,,,,,,,,,,,,,,,,,,,,001,147,2020_Feb_20_1051,spring_faces,3.1.5,60.04684975299286,
condition files/Stage2_2.xlsx,,T2,B2,r,"['s', 'r']","['Stratego', 'Risk']","[-0.15, 0.5]","[0.15, 0.5]",1,1,,,,,,,,,,,,,,,,,0,1,1,1,0,0,0,3,,,,,,,,,,,,,,,,,,,,,,,,,,,,,,,,,,,,,,,,,,,,,,,923.449752347,None,923.449752347,None,923.449752347,None,s,0,1.188867873000163,924.9837313570006,None,924.9837313570006,None,924.9837313570006,None,926.2331077420004,None,926.2331077420004,None,926.2331077420004,None,926.2331077420004,None,,,,,,,,,,,,,,,,,,,,,,,,,,,,,,,,,,,,,,,,,,,,001,147,2020_Feb_20_1051,spring_faces,3.1.5,60.04684975299286,
condition files/Stage2_2.xlsx,,T6,B6,r,"['s', 'r']","['Stratego', 'Risk']","[-0.15, 0.5]","[0.15, 0.5]",1,1,,,,,,,,,,,,,,,,,0,1,1,1,0,1,1,1,,,,,,,,,,,,,,,,,,,,,,,,,,,,,,,,,,,,,,,,,,,,,,,928.1993223290001,None,928.1993223290001,None,928.1993223290001,None,r,1,2.6774210550001953,929.7351590400003,None,929.7351590400003,None,929.7351590400003,None,932.4660267119998,None,932.4660267119998,None,932.4660267119998,None,932.4660267119998,None,,,,,,,,,,,,,,,,,,,,,,,,,,,,,,,,,,,,,,,,,,,,001,147,2020_Feb_20_1051,spring_faces,3.1.5,60.04684975299286,
condition files/Stage2_2.xlsx,,T4,B4,r,"['s', 'r']","['Stratego', 'Risk']","[-0.15, 0.5]","[0.15, 0.5]",1,1,,,,,,,,,,,,,,,,,0,1,1,1,0,2,2,5,,,,,,,,,,,,,,,,,,,,,,,,,,,,,,,,,,,,,,,,,,,,,,,934.4324147240004,None,934.4324147240004,None,934.4324147240004,None,s,0,1.0533574430000954,935.9832077420006,None,935.9832077420006,None,935.9832077420006,None,937.0999087259997,None,937.0999087259997,None,937.0999087259997,None,937.0999087259997,None,,,,,,,,,,,,,,,,,,,,,,,,,,,,,,,,,,,,,,,,,,,,001,147,2020_Feb_20_1051,spring_faces,3.1.5,60.04684975299286,
condition files/Stage2_2.xlsx,,B1,T1,s,"['s', 'r']","['Stratego', 'Risk']","[-0.15, 0.5]","[0.15, 0.5]",1,1,,,,,,,,,,,,,,,,,0,1,1,1,0,3,3,2,,,,,,,,,,,,,,,,,,,,,,,,,,,,,,,,,,,,,,,,,,,,,,,939.0661322010001,None,939.0661322010001,None,939.0661322010001,None,r,0,1.877376137000283,940.5992602619999,None,940.5992602619999,None,940.5992602619999,None,942.5497383649999,None,942.5497383649999,None,942.5497383649999,None,942.5497383649999,None,,,,,,,,,,,,,,,,,,,,,,,,,,,,,,,,,,,,,,,,,,,,001,147,2020_Feb_20_1051,spring_faces,3.1.5,60.04684975299286,
condition files/Stage2_2.xlsx,,B3,T3,s,"['s', 'r']","['Stratego', 'Risk']","[-0.15, 0.5]","[0.15, 0.5]",1,1,,,,,,,,,,,,,,,,,0,1,1,1,0,4,4,4,,,,,,,,,,,,,,,,,,,,,,,,,,,,,,,,,,,,,,,,,,,,,,,944.4993240029999,None,944.4993240029999,None,944.4993240029999,None,r,0,1.0353010630005883,946.0491998710004,None,946.0491998710004,None,946.0491998710004,None,947.1488309530005,None,947.1488309530005,None,947.1488309530005,None,947.1488309530005,None,,,,,,,,,,,,,,,,,,,,,,,,,,,,,,,,,,,,,,,,,,,,001,147,2020_Feb_20_1051,spring_faces,3.1.5,60.04684975299286,
condition files/Stage2_2.xlsx,,B5,T5,s,"['s', 'r']","['Stratego', 'Risk']","[-0.15, 0.5]","[0.15, 0.5]",1,1,,,,,,,,,,,,,,,,,0,1,1,1,0,5,5,0,,,,,,,,,,,,,,,,,,,,,,,,,,,,,,,,,,,,,,,,,,,,,,,949.1162778779999,None,949.1162778779999,None,949.1162778779999,None,r,0,1.3940998500002024,950.666396304,None,950.666396304,None,950.666396304,None,952.1163917889999,None,952.1163917889999,None,952.1163917889999,None,952.1163917889999,None,,,,,,,,,,,,,,,,,,,,,,,,,,,,,,,,,,,,,,,,,,,,001,147,2020_Feb_20_1051,spring_faces,3.1.5,60.04684975299286,
condition files/Stage2_1.xlsx,,B2,T2,r,"['s', 'r']","['Stratego', 'Risk']","[-0.15, 0.5]","[0.15, 0.5]",1,1,,,,,,,,,,,,,,,,,0,2,2,2,0,0,0,3,,,,,,,,,,,,,,,,,,,,,,,,,,,,,,,,,,,,,,,,,,,,,,,954.0997505350006,None,954.0997505350006,None,954.0997505350006,None,r,1,1.210979479999878,955.6495590020004,None,955.6495590020004,None,955.6495590020004,None,956.9183978749998,None,956.9183978749998,None,956.9183978749998,None,956.9183978749998,None,,,,,,,,,,,,,,,,,,,,,,,,,,,,,,,,,,,,,,,,,,,,001,147,2020_Feb_20_1051,spring_faces,3.1.5,60.04684975299286,
condition files/Stage2_1.xlsx,,T1,B1,s,"['s', 'r']","['Stratego', 'Risk']","[-0.15, 0.5]","[0.15, 0.5]",1,1,,,,,,,,,,,,,,,,,0,2,2,2,0,1,1,2,,,,,,,,,,,,,,,,,,,,,,,,,,,,,,,,,,,,,,,,,,,,,,,958.8821185880006,None,958.8821185880006,None,958.8821185880006,None,s,1,0.7954245559994888,960.43309503,None,960.43309503,None,960.43309503,None,961.2990886260004,None,961.2990886260004,None,961.2990886260004,None,961.2990886260004,None,,,,,,,,,,,,,,,,,,,,,,,,,,,,,,,,,,,,,,,,,,,,001,147,2020_Feb_20_1051,spring_faces,3.1.5,60.04684975299286,
condition files/Stage2_1.xlsx,,T5,B5,s,"['s', 'r']","['Stratego', 'Risk']","[-0.15, 0.5]","[0.15, 0.5]",1,1,,,,,,,,,,,,,,,,,0,2,2,2,0,2,2,0,,,,,,,,,,,,,,,,,,,,,,,,,,,,,,,,,,,,,,,,,,,,,,,963.2495826690001,None,963.2495826690001,None,963.2495826690001,None,s,1,2.044748819000233,964.7837633660001,None,964.7837633660001,None,964.7837633660001,None,966.8830632850004,None,966.8830632850004,None,966.8830632850004,None,966.8830632850004,None,,,,,,,,,,,,,,,,,,,,,,,,,,,,,,,,,,,,,,,,,,,,001,147,2020_Feb_20_1051,spring_faces,3.1.5,60.04684975299286,
condition files/Stage2_1.xlsx,,B4,T4,r,"['s', 'r']","['Stratego', 'Risk']","[-0.15, 0.5]","[0.15, 0.5]",1,1,,,,,,,,,,,,,,,,,0,2,2,2,0,3,3,5,,,,,,,,,,,,,,,,,,,,,,,,,,,,,,,,,,,,,,,,,,,,,,,968.8493850470004,None,968.8493850470004,None,968.8493850470004,None,r,1,0.6521956269998554,970.3843622550003,None,970.3843622550003,None,970.3843622550003,None,971.1012222540003,None,971.1012222540003,None,971.1012222540003,None,971.1012222540003,None,,,,,,,,,,,,,,,,,,,,,,,,,,,,,,,,,,,,,,,,,,,,001,147,2020_Feb_20_1051,spring_faces,3.1.5,60.04684975299286,
condition files/Stage2_1.xlsx,,B6,T6,r,"['s', 'r']","['Stratego', 'Risk']","[-0.15, 0.5]","[0.15, 0.5]",1,1,,,,,,,,,,,,,,,,,0,2,2,2,0,4,4,1,,,,,,,,,,,,,,,,,,,,,,,,,,,,,,,,,,,,,,,,,,,,,,,973.0660908270002,None,973.0660908270002,None,973.0660908270002,None,r,1,1.572008404999906,974.600604489,None,974.600604489,None,974.600604489,None,976.2329848640002,None,976.2329848640002,None,976.2329848640002,None,976.2329848640002,None,,,,,,,,,,,,,,,,,,,,,,,,,,,,,,,,,,,,,,,,,,,,001,147,2020_Feb_20_1051,spring_faces,3.1.5,60.04684975299286,
condition files/Stage2_1.xlsx,,T3,B3,s,"['s', 'r']","['Stratego', 'Risk']","[-0.15, 0.5]","[0.15, 0.5]",1,1,,,,,,,,,,,,,,,,,0,2,2,2,0,5,5,4,,,,,,,,,,,,,,,,,,,,,,,,,,,,,,,,,,,,,,,,,,,,,,,978.1994513879999,None,978.1994513879999,None,978.1994513879999,None,s,1,1.3343783660002373,979.7341938300005,None,979.7341938300005,None,979.7341938300005,None,981.1497774110003,None,981.1497774110003,None,981.1497774110003,None,981.1497774110003,None,,,,,,,,,,,,,,,,,,,,,,,,,,,,,,,,,,,,,,,,,,,,001,147,2020_Feb_20_1051,spring_faces,3.1.5,60.04684975299286,
condition files/Stage2_2.xlsx,,B5,T5,s,"['s', 'r']","['Stratego', 'Risk']","[-0.15, 0.5]","[0.15, 0.5]",1,1,,,,,,,,,,,,,,,,,0,3,3,3,0,0,0,0,,,,,,,,,,,,,,,,,,,,,,,,,,,,,,,,,,,,,,,,,,,,,,,983.1160826269997,None,983.1160826269997,None,983.1160826269997,None,s,1,1.1702122160004365,984.6663670420003,None,984.6663670420003,None,984.6663670420003,None,985.8996452800002,None,985.8996452800002,None,985.8996452800002,None,985.8996452800002,None,,,,,,,,,,,,,,,,,,,,,,,,,,,,,,,,,,,,,,,,,,,,001,147,2020_Feb_20_1051,spring_faces,3.1.5,60.04684975299286,
condition files/Stage2_2.xlsx,,B3,T3,s,"['s', 'r']","['Stratego', 'Risk']","[-0.15, 0.5]","[0.15, 0.5]",1,1,,,,,,,,,,,,,,,,,0,3,3,3,0,1,1,4,,,,,,,,,,,,,,,,,,,,,,,,,,,,,,,,,,,,,,,,,,,,,,,987.8659065170004,None,987.8659065170004,None,987.8659065170004,None,s,1,0.8042115650005144,989.4163596130002,None,989.4163596130002,None,989.4163596130002,None,990.282751193,None,990.282751193,None,990.282751193,None,990.282751193,None,,,,,,,,,,,,,,,,,,,,,,,,,,,,,,,,,,,,,,,,,,,,001,147,2020_Feb_20_1051,spring_faces,3.1.5,60.04684975299286,
condition files/Stage2_2.xlsx,,T4,B4,r,"['s', 'r']","['Stratego', 'Risk']","[-0.15, 0.5]","[0.15, 0.5]",1,1,,,,,,,,,,,,,,,,,0,3,3,3,0,2,2,5,,,,,,,,,,,,,,,,,,,,,,,,,,,,,,,,,,,,,,,,,,,,,,,992.2500187760006,None,992.2500187760006,None,992.2500187760006,None,r,1,0.8529552340005466,993.7996108940006,None,993.7996108940006,None,993.7996108940006,None,994.7170076500006,None,994.7170076500006,None,994.7170076500006,None,994.7170076500006,None,,,,,,,,,,,,,,,,,,,,,,,,,,,,,,,,,,,,,,,,,,,,001,147,2020_Feb_20_1051,spring_faces,3.1.5,60.04684975299286,
condition files/Stage2_2.xlsx,,T6,B6,r,"['s', 'r']","['Stratego', 'Risk']","[-0.15, 0.5]","[0.15, 0.5]",1,1,,,,,,,,,,,,,,,,,0,3,3,3,0,3,3,1,,,,,,,,,,,,,,,,,,,,,,,,,,,,,,,,,,,,,,,,,,,,,,,996.6827120489997,None,996.6827120489997,None,996.6827120489997,None,r,1,2.1959033800003454,998.2326385040005,None,998.2326385040005,None,998.2326385040005,None,1000.4829533350003,None,1000.4829533350003,None,1000.4829533350003,None,1000.4829533350003,None,,,,,,,,,,,,,,,,,,,,,,,,,,,,,,,,,,,,,,,,,,,,001,147,2020_Feb_20_1051,spring_faces,3.1.5,60.04684975299286,
condition files/Stage2_2.xlsx,,B1,T1,s,"['s', 'r']","['Stratego', 'Risk']","[-0.15, 0.5]","[0.15, 0.5]",1,1,,,,,,,,,,,,,,,,,0,3,3,3,0,4,4,2,,,,,,,,,,,,,,,,,,,,,,,,,,,,,,,,,,,,,,,,,,,,,,,1002.4496848710005,None,1002.4496848710005,None,1002.4496848710005,None,s,1,1.7250365760000932,1003.9835481740001,None,1003.9835481740001,None,1003.9835481740001,None,1005.7683247080004,None,1005.7683247080004,None,1005.7683247080004,None,1005.7683247080004,None,,,,,,,,,,,,,,,,,,,,,,,,,,,,,,,,,,,,,,,,,,,,001,147,2020_Feb_20_1051,spring_faces,3.1.5,60.04684975299286,
condition files/Stage2_2.xlsx,,T2,B2,r,"['s', 'r']","['Stratego', 'Risk']","[-0.15, 0.5]","[0.15, 0.5]",1,1,,,,,,,,,,,,,,,,,0,3,3,3,0,5,5,3,,,,,,,,,,,,,,,,,,,,,,,,,,,,,,,,,,,,,,,,,,,,,,,1007.7324917210008,None,1007.7324917210008,None,1007.7324917210008,None,r,1,1.018492350998713,1009.266041162,None,1009.266041162,None,1009.266041162,None,1010.3497530540008,None,1010.3497530540008,None,1010.3497530540008,None,1010.3497530540008,None,,,,,,,,,,,,,,,,,,,,,,,,,,,,,,,,,,,,,,,,,,,,001,147,2020_Feb_20_1051,spring_faces,3.1.5,60.04684975299286,
condition files/Stage2_1.xlsx,,T3,B3,s,"['s', 'r']","['Stratego', 'Risk']","[-0.15, 0.5]","[0.15, 0.5]",1,1,,,,,,,,,,,,,,,,,0,4,4,4,0,0,0,4,,,,,,,,,,,,,,,,,,,,,,,,,,,,,,,,,,,,,,,,,,,,,,,1012.3332828929997,None,1012.3332828929997,None,1012.3332828929997,None,s,1,0.9441040559995599,1013.8684596889998,None,1013.8684596889998,None,1013.8684596889998,None,1014.8831341610003,None,1014.8831341610003,None,1014.8831341610003,None,1014.8831341610003,None,,,,,,,,,,,,,,,,,,,,,,,,,,,,,,,,,,,,,,,,,,,,001,147,2020_Feb_20_1051,spring_faces,3.1.5,60.04684975299286,
condition files/Stage2_1.xlsx,,B6,T6,r,"['s', 'r']","['Stratego', 'Risk']","[-0.15, 0.5]","[0.15, 0.5]",1,1,,,,,,,,,,,,,,,,,0,4,4,4,0,1,1,1,,,,,,,,,,,,,,,,,,,,,,,,,,,,,,,,,,,,,,,,,,,,,,,1016.8327983430008,None,1016.8327983430008,None,1016.8327983430008,None,r,1,1.213924160998431,1018.3825966959994,None,1018.3825966959994,None,1018.3825966959994,None,1019.6519019160005,None,1019.6519019160005,None,1019.6519019160005,None,1019.6519019160005,None,,,,,,,,,,,,,,,,,,,,,,,,,,,,,,,,,,,,,,,,,,,,001,147,2020_Feb_20_1051,spring_faces,3.1.5,60.04684975299286,
condition files/Stage2_1.xlsx,,B2,T2,r,"['s', 'r']","['Stratego', 'Risk']","[-0.15, 0.5]","[0.15, 0.5]",1,1,,,,,,,,,,,,,,,,,0,4,4,4,0,2,2,3,,,,,,,,,,,,,,,,,,,,,,,,,,,,,,,,,,,,,,,,,,,,,,,1021.6166253610008,None,1021.6166253610008,None,1021.6166253610008,None,s,0,1.839179464001063,1023.1493965379996,None,1023.1493965379996,None,1023.1493965379996,None,1025.0498965770003,None,1025.0498965770003,None,1025.0498965770003,None,1025.0498965770003,None,,,,,,,,,,,,,,,,,,,,,,,,,,,,,,,,,,,,,,,,,,,,001,147,2020_Feb_20_1051,spring_faces,3.1.5,60.04684975299286,
condition files/Stage2_1.xlsx,,T5,B5,s,"['s', 'r']","['Stratego', 'Risk']","[-0.15, 0.5]","[0.15, 0.5]",1,1,,,,,,,,,,,,,,,,,0,4,4,4,0,3,3,0,,,,,,,,,,,,,,,,,,,,,,,,,,,,,,,,,,,,,,,,,,,,,,,1027.0163060440009,None,1027.0163060440009,None,1027.0163060440009,None,s,1,1.0141701939992345,1028.550350636,None,1028.550350636,None,1028.550350636,None,1029.6325269120007,None,1029.6325269120007,None,1029.6325269120007,None,1029.6325269120007,None,,,,,,,,,,,,,,,,,,,,,,,,,,,,,,,,,,,,,,,,,,,,001,147,2020_Feb_20_1051,spring_faces,3.1.5,60.04684975299286,
