condsFile,subStage,cue1,cue2,correct,responseKeys,responseNames,cue1Position,cue2Position,cue1Opacity,cue2Opacity,stageLoop0.thisRepN,stageLoop0.thisTrialN,stageLoop0.thisN,stageLoop0.thisIndex,blockLoop0.thisRepN,blockLoop0.thisTrialN,blockLoop0.thisN,blockLoop0.thisIndex,stage1Loop.thisRepN,stage1Loop.thisTrialN,stage1Loop.thisN,stage1Loop.thisIndex,blockLoop1.thisRepN,blockLoop1.thisTrialN,blockLoop1.thisN,blockLoop1.thisIndex,stage2Loop.thisRepN,stage2Loop.thisTrialN,stage2Loop.thisN,stage2Loop.thisIndex,blockLoop2.thisRepN,blockLoop2.thisTrialN,blockLoop2.thisN,blockLoop2.thisIndex,testLoop.thisRepN,testLoop.thisTrialN,testLoop.thisN,testLoop.thisIndex,blockLoopTest.thisRepN,blockLoopTest.thisTrialN,blockLoopTest.thisN,blockLoopTest.thisIndex,cuePics,id_instr_text.started,id_instr_text.stopped,space_to_continue_2.started,space_to_continue_2.stopped,end_instructions_resp_3.keys,end_instructions_resp_3.rt,end_instructions_resp_3.started,end_instructions_resp_3.stopped,id_input_instr.started,id_input_instr.stopped,id_input_rect.started,id_input_rect.stopped,id_input_resp.keys,id_input_resp.rt,id_input_resp.started,id_input_resp.stopped,sonaID,id_input_text.started,id_input_text.stopped,final_text.started,final_text.stopped,instructions.started,instructions.stopped,end_instructions_resp.keys,end_instructions_resp.rt,end_instructions_resp.started,end_instructions_resp.stopped,space_to_continue.started,space_to_continue.stopped,instructions_stage0.started,instructions_stage0.stopped,end_instructions_resp_stage0.keys,end_instructions_resp_stage0.rt,end_instructions_resp_stage0.started,end_instructions_resp_stage0.stopped,space_to_continue_stage0.started,space_to_continue_stage0.stopped,text.started,text.stopped,resp_text1.started,resp_text1.stopped,resp_text2.started,resp_text2.stopped,trial_resp.keys,trial_resp.corr,trial_resp.rt,trial_resp.started,trial_resp.stopped,cue1Image.started,cue1Image.stopped,cue2Image.started,cue2Image.stopped,cue1Image_fb.started,cue1Image_fb.stopped,cue2Image_fb.started,cue2Image_fb.stopped,fb_text_answer.started,fb_text_answer.stopped,feedback_image.started,feedback_image.stopped,instructions_stage1.started,instructions_stage1.stopped,end_instructions_resp_stage1.keys,end_instructions_resp_stage1.rt,end_instructions_resp_stage1.started,end_instructions_resp_stage1.stopped,space_to_continue_stage1.started,space_to_continue_stage1.stopped,instructions_2.started,instructions_2.stopped,end_instructions_resp_2.keys,end_instructions_resp_2.rt,end_instructions_resp_2.started,end_instructions_resp_2.stopped,press_space_to_continue_stage2.started,press_space_to_continue_stage2.stopped,instructions_testStage1.started,instructions_testStage1.stopped,end_instructions_resp_test1.keys,end_instructions_resp_test1.rt,end_instructions_resp_test1.started,end_instructions_resp_test1.stopped,press_space_to_continue_test1.started,press_space_to_continue_test1.stopped,cue1Image_testChoice.started,cue1Image_testChoice.stopped,cue2Image_testChoice.started,cue2Image_testChoice.stopped,test_resp.keys,test_resp.corr,test_resp.rt,test_resp.started,test_resp.stopped,cue1Image_testConf.started,cue1Image_testConf.stopped,cue2Image_testConf.started,cue2Image_testConf.stopped,conf_reminder.started,conf_reminder.stopped,conf_rating.response,conf_rating.rt,conf_rating.started,conf_rating.stopped,session,participant,date,expName,psychopyVersion,frameRate,
,,,,,,,,,,,,,,,,,,,,,,,,,,,,,,,,,,,,,,,,,,,"{'none': 'pictures/20M_AN_C.png', 'alpha': 'pictures/SHINEd_pepper.png', 'beta': 'pictures/SHINEd_apple.png', 'theta': 'pictures/SHINEd_melon.png', 'phi': 'pictures/SHINEd_pear.png', 'T1': 'pictures/36M_AN_C.png', 'T2': 'pictures/33M_AN_C.png', 'T3': 'pictures/38M_AN_C.png', 'T4': 'pictures/22M_AN_C.png', 'T5': 'pictures/37M_AN_C.png', 'T6': 'pictures/26M_AN_C.png', 'B1': 'pictures/32M_NE_C.png', 'B2': 'pictures/31M_NE_C.png', 'B3': 'pictures/20M_NE_C.png', 'B4': 'pictures/34M_NE_C.png', 'B5': 'pictures/25M_NE_C.png', 'B6': 'pictures/23M_NE_C.png'}",12.993715915999928,None,17.977039203999993,None,space,63.07611220800027,17.977039203999993,None,,,,,,,,,,,,,,,,,,,,,,,,,,,,,,,,,,,,,,,,,,,,,,,,,,,,,,,,,,,,,,,,,,,,,,,,,,,,,,,,,,,,,,,,,,,,,,,,001,151,2020_Feb_20_1213,spring_faces,3.1.5,60.01818106755324,
,,,,,,,,,,,,,,,,,,,,,,,,,,,,,,,,,,,,,,,,,,,,,,,,,,,,81.42699085899949,None,81.42699085899949,None,"['0', '1', '2', '8', 'm', 'e', 'h', 'e', 'r', 'backspace', '0', '1', '2', '8', 'm', 'e', 'backspace', 'backspace', 'm', 'e', 'h', 'g', 'e', 'backspace', '0', '1', '2', '8', 'm', 'e', 'h', 'e', 'r']","[41.24217348900038, 41.38610233200052, 46.87412133500038, 46.98612703500021, 53.09811325300052, 53.22616230099993, 56.39410098999997, 56.506134501000815, 56.60208129300008, 61.882135611000194, 66.5541304010003, 66.68213336500048, 70.26613646700025, 70.45814994200009, 73.94610981700043, 74.2340547570002, 75.4821388800001, 75.81807957000001, 76.45817344200077, 76.60206108700004, 80.18610413100032, 80.20204818900038, 80.25012950600012, 80.98617380399992, 86.73003989800054, 86.87414546300079, 87.41807824100033, 87.59410819599998, 88.41017226500026, 88.50612922300024, 89.2581712250003, 89.33813725300024, 89.41808007800046]",81.42699085899949,None,,,,,,,,,,,,,,,,,,,,,,,,,,,,,,,,,,,,,,,,,,,,,,,,,,,,,,,,,,,,,,,,,,,,,,,,,,,,,,,,,,,,,,,,001,151,2020_Feb_20_1213,spring_faces,3.1.5,60.01818106755324,
,,,,,,,,,,,,,,,,,,,,,,,,,,,,,,,,,,,,,,,,,,,,,,,,,,,,,,,,,,,,0128meher,81.42699085899949,None,81.42699085899949,None,175.92741379000017,None,space,4.9900891570005115,180.92707549199986,None,,,,,,,,,,,,,,,,,,,,,,,,,,,,,,,,,,,,,,,,,,,,,,,,,,,,,,,,,,,,,,,,,,,,,,,,,,,,,001,151,2020_Feb_20_1213,spring_faces,3.1.5,60.01818106755324,
,,,,,,,,,,,,,,,,,,,,,,,,,,,,,,,,,,,,,,,,,,,,,,,,,,,,,,,,,,,,,,,,,,,,,,,180.92707549199986,None,185.96056750299977,None,space,8.01268735099984,190.9604265910002,None,,,,,,,,,,,,,,,,,,,,,,,,,,,,,,,,,,,,,,,,,,,,,,,,,,,,,,,,,,,,,,,,,,,,,001,151,2020_Feb_20_1213,spring_faces,3.1.5,60.01818106755324,
condition files/Stage0a.xlsx,0a,beta,none,g,"['h', 'g']","['Chess', 'Go']","[0, 0.5]","[0, 0]",1,0,0,0,0,0,0,0,0,1,,,,,,,,,,,,,,,,,,,,,,,,,,,,,,,,,,,,,,,,,,,,,,,,,,,,,,,,,,,,,190.9604265910002,None,199.06085126499966,None,199.06085126499966,None,199.06085126499966,None,h,0,5.462745527999687,200.59832312799972,None,200.59832312799972,None,200.59832312799972,None,206.14387233199977,None,206.14387233199977,None,206.14387233199977,None,206.14387233199977,None,,,,,,,,,,,,,,,,,,,,,,,,,,,,,,,,,,,,,,,,,,,,001,151,2020_Feb_20_1213,spring_faces,3.1.5,60.01818106755324,
condition files/Stage0a.xlsx,0a,alpha,none,h,"['h', 'g']","['Chess', 'Go']","[0, 0.5]","[0, 0]",1,0,0,0,0,0,0,1,1,0,,,,,,,,,,,,,,,,,,,,,,,,,,,,,,,,,,,,,,,,,,,,,,,,,,,,,,,,,,,,,,,208.09387277099995,None,208.09387277099995,None,208.09387277099995,None,h,1,1.3299483560003864,209.62719007299984,None,209.62719007299984,None,209.62719007299984,None,211.01054925100016,None,211.01054925100016,None,211.01054925100016,None,211.01054925100016,None,,,,,,,,,,,,,,,,,,,,,,,,,,,,,,,,,,,,,,,,,,,,001,151,2020_Feb_20_1213,spring_faces,3.1.5,60.01818106755324,
condition files/Stage0a.xlsx,0a,beta,none,g,"['h', 'g']","['Chess', 'Go']","[0, 0.5]","[0, 0]",1,0,0,1,1,1,0,0,0,1,,,,,,,,,,,,,,,,,,,,,,,,,,,,,,,,,,,,,,,,,,,,,,,,,,,,,,,,,,,,,,,212.99363883200022,None,212.99363883200022,None,212.99363883200022,None,g,1,2.430043786999704,214.52709076199972,None,214.52709076199972,None,214.52709076199972,None,217.0098983910002,None,217.0098983910002,None,217.0098983910002,None,217.0098983910002,None,,,,,,,,,,,,,,,,,,,,,,,,,,,,,,,,,,,,,,,,,,,,001,151,2020_Feb_20_1213,spring_faces,3.1.5,60.01818106755324,
condition files/Stage0a.xlsx,0a,alpha,none,h,"['h', 'g']","['Chess', 'Go']","[0, 0.5]","[0, 0]",1,0,0,1,1,1,0,1,1,0,,,,,,,,,,,,,,,,,,,,,,,,,,,,,,,,,,,,,,,,,,,,,,,,,,,,,,,,,,,,,,,218.9768577349996,None,218.9768577349996,None,218.9768577349996,None,h,1,0.6866485230002581,220.51043793400004,None,220.51043793400004,None,220.51043793400004,None,221.26003313399997,None,221.26003313399997,None,221.26003313399997,None,221.26003313399997,None,,,,,,,,,,,,,,,,,,,,,,,,,,,,,,,,,,,,,,,,,,,,001,151,2020_Feb_20_1213,spring_faces,3.1.5,60.01818106755324,
condition files/Stage0a.xlsx,0a,beta,none,g,"['h', 'g']","['Chess', 'Go']","[0, 0.5]","[0, 0]",1,0,0,2,2,2,0,0,0,1,,,,,,,,,,,,,,,,,,,,,,,,,,,,,,,,,,,,,,,,,,,,,,,,,,,,,,,,,,,,,,,223.24309763699966,None,223.24309763699966,None,223.24309763699966,None,g,1,0.5802416530004848,224.77691195399984,None,224.77691195399984,None,224.77691195399984,None,225.40993948399955,None,225.40993948399955,None,225.40993948399955,None,225.40993948399955,None,,,,,,,,,,,,,,,,,,,,,,,,,,,,,,,,,,,,,,,,,,,,001,151,2020_Feb_20_1213,spring_faces,3.1.5,60.01818106755324,
condition files/Stage0a.xlsx,0a,alpha,none,h,"['h', 'g']","['Chess', 'Go']","[0, 0.5]","[0, 0]",1,0,0,2,2,2,0,1,1,0,,,,,,,,,,,,,,,,,,,,,,,,,,,,,,,,,,,,,,,,,,,,,,,,,,,,,,,,,,,,,,,227.37678390099973,None,227.37678390099973,None,227.37678390099973,None,h,1,0.622582900999987,228.91050873400036,None,228.91050873400036,None,228.91050873400036,None,229.59352042699993,None,229.59352042699993,None,229.59352042699993,None,229.59352042699993,None,,,,,,,,,,,,,,,,,,,,,,,,,,,,,,,,,,,,,,,,,,,,001,151,2020_Feb_20_1213,spring_faces,3.1.5,60.01818106755324,
condition files/Stage0a.xlsx,0a,alpha,none,h,"['h', 'g']","['Chess', 'Go']","[0, 0.5]","[0, 0]",1,0,0,3,3,3,0,0,0,0,,,,,,,,,,,,,,,,,,,,,,,,,,,,,,,,,,,,,,,,,,,,,,,,,,,,,,,,,,,,,,,231.57695684400005,None,231.57695684400005,None,231.57695684400005,None,h,1,0.6308645740000429,233.1102300880002,None,233.1102300880002,None,233.1102300880002,None,233.793741857,None,233.793741857,None,233.793741857,None,233.793741857,None,,,,,,,,,,,,,,,,,,,,,,,,,,,,,,,,,,,,,,,,,,,,001,151,2020_Feb_20_1213,spring_faces,3.1.5,60.01818106755324,
condition files/Stage0a.xlsx,0a,beta,none,g,"['h', 'g']","['Chess', 'Go']","[0, 0.5]","[0, 0]",1,0,0,3,3,3,0,1,1,1,,,,,,,,,,,,,,,,,,,,,,,,,,,,,,,,,,,,,,,,,,,,,,,,,,,,,,,,,,,,,,,235.7598800959995,None,235.7598800959995,None,235.7598800959995,None,g,1,1.0876662819991907,237.2934236479996,None,237.2934236479996,None,237.2934236479996,None,238.44383524799923,None,238.44383524799923,None,238.44383524799923,None,238.44383524799923,None,,,,,,,,,,,,,,,,,,,,,,,,,,,,,,,,,,,,,,,,,,,,001,151,2020_Feb_20_1213,spring_faces,3.1.5,60.01818106755324,
condition files/Stage0a.xlsx,0a,alpha,none,h,"['h', 'g']","['Chess', 'Go']","[0, 0.5]","[0, 0]",1,0,0,4,4,4,0,0,0,0,,,,,,,,,,,,,,,,,,,,,,,,,,,,,,,,,,,,,,,,,,,,,,,,,,,,,,,,,,,,,,,240.42713213699972,None,240.42713213699972,None,240.42713213699972,None,h,1,0.43712986600075965,241.95997962599904,None,241.95997962599904,None,241.95997962599904,None,242.4601312729992,None,242.4601312729992,None,242.4601312729992,None,242.4601312729992,None,,,,,,,,,,,,,,,,,,,,,,,,,,,,,,,,,,,,,,,,,,,,001,151,2020_Feb_20_1213,spring_faces,3.1.5,60.01818106755324,
condition files/Stage0a.xlsx,0a,beta,none,g,"['h', 'g']","['Chess', 'Go']","[0, 0.5]","[0, 0]",1,0,0,4,4,4,0,1,1,1,,,,,,,,,,,,,,,,,,,,,,,,,,,,,,,,,,,,,,,,,,,,,,,,,,,,,,,,,,,,,,,244.42676616400058,None,244.42676616400058,None,244.42676616400058,None,g,1,0.7250837510000565,245.96007488299983,None,245.96007488299983,None,245.96007488299983,None,246.7428269259999,None,246.7428269259999,None,246.7428269259999,None,246.7428269259999,None,,,,,,,,,,,,,,,,,,,,,,,,,,,,,,,,,,,,,,,,,,,,001,151,2020_Feb_20_1213,spring_faces,3.1.5,60.01818106755324,
condition files/Stage0a.xlsx,0a,alpha,none,h,"['h', 'g']","['Chess', 'Go']","[0, 0.5]","[0, 0]",1,0,0,5,5,5,0,0,0,0,,,,,,,,,,,,,,,,,,,,,,,,,,,,,,,,,,,,,,,,,,,,,,,,,,,,,,,,,,,,,,,248.72704771700046,None,248.72704771700046,None,248.72704771700046,None,h,1,0.6173446049997438,250.2597467350006,None,250.2597467350006,None,250.2597467350006,None,250.9273761280001,None,250.9273761280001,None,250.9273761280001,None,250.9273761280001,None,,,,,,,,,,,,,,,,,,,,,,,,,,,,,,,,,,,,,,,,,,,,001,151,2020_Feb_20_1213,spring_faces,3.1.5,60.01818106755324,
condition files/Stage0a.xlsx,0a,beta,none,g,"['h', 'g']","['Chess', 'Go']","[0, 0.5]","[0, 0]",1,0,0,5,5,5,0,1,1,1,,,,,,,,,,,,,,,,,,,,,,,,,,,,,,,,,,,,,,,,,,,,,,,,,,,,,,,,,,,,,,,252.89345620399945,None,252.89345620399945,None,252.89345620399945,None,g,1,0.5942041470007098,254.42688292499952,None,254.42688292499952,None,254.42688292499952,None,255.0770580190001,None,255.0770580190001,None,255.0770580190001,None,255.0770580190001,None,,,,,,,,,,,,,,,,,,,,,,,,,,,,,,,,,,,,,,,,,,,,001,151,2020_Feb_20_1213,spring_faces,3.1.5,60.01818106755324,
condition files/Stage0b_1.xlsx,0b,none,beta,g,"['h', 'g']","['Chess', 'Go']","[-0.15, 0.5]","[0.15, 0.5]",0,1,0,6,6,6,0,0,0,1,,,,,,,,,,,,,,,,,,,,,,,,,,,,,,,,,,,,,,,,,,,,,,,,,,,,,,,,,,,,,,,257.0604815360002,None,257.0604815360002,None,257.0604815360002,None,g,1,0.6669871769991005,258.6100935600007,None,258.6100935600007,None,258.6100935600007,None,259.32779198500066,None,259.32779198500066,None,259.32779198500066,None,259.32779198500066,None,,,,,,,,,,,,,,,,,,,,,,,,,,,,,,,,,,,,,,,,,,,,001,151,2020_Feb_20_1213,spring_faces,3.1.5,60.01818106755324,
condition files/Stage0b_1.xlsx,0b,alpha,none,h,"['h', 'g']","['Chess', 'Go']","[-0.15, 0.5]","[0.15, 0.5]",1,0,0,6,6,6,0,1,1,0,,,,,,,,,,,,,,,,,,,,,,,,,,,,,,,,,,,,,,,,,,,,,,,,,,,,,,,,,,,,,,,261.29364879199966,None,261.29364879199966,None,261.29364879199966,None,h,1,0.5614017770003557,262.8436713360006,None,262.8436713360006,None,262.8436713360006,None,263.46294088799914,None,263.46294088799914,None,263.46294088799914,None,263.46294088799914,None,,,,,,,,,,,,,,,,,,,,,,,,,,,,,,,,,,,,,,,,,,,,001,151,2020_Feb_20_1213,spring_faces,3.1.5,60.01818106755324,
condition files/Stage0b_2.xlsx,0b,none,alpha,h,"['h', 'g']","['Chess', 'Go']","[-0.15, 0.5]","[0.15, 0.5]",0,1,0,7,7,7,0,0,0,0,,,,,,,,,,,,,,,,,,,,,,,,,,,,,,,,,,,,,,,,,,,,,,,,,,,,,,,,,,,,,,,265.44335303700063,None,265.44335303700063,None,265.44335303700063,None,h,1,0.5209866479999619,266.9801828540003,None,266.9801828540003,None,266.9801828540003,None,267.56328426800064,None,267.56328426800064,None,267.56328426800064,None,267.56328426800064,None,,,,,,,,,,,,,,,,,,,,,,,,,,,,,,,,,,,,,,,,,,,,001,151,2020_Feb_20_1213,spring_faces,3.1.5,60.01818106755324,
condition files/Stage0b_2.xlsx,0b,beta,none,g,"['h', 'g']","['Chess', 'Go']","[-0.15, 0.5]","[0.15, 0.5]",1,0,0,7,7,7,0,1,1,1,,,,,,,,,,,,,,,,,,,,,,,,,,,,,,,,,,,,,,,,,,,,,,,,,,,,,,,,,,,,,,,269.5267881050004,None,269.5267881050004,None,269.5267881050004,None,g,1,1.2702474479992816,271.06286897800055,None,271.06286897800055,None,271.06286897800055,None,272.39464122999925,None,272.39464122999925,None,272.39464122999925,None,272.39464122999925,None,,,,,,,,,,,,,,,,,,,,,,,,,,,,,,,,,,,,,,,,,,,,001,151,2020_Feb_20_1213,spring_faces,3.1.5,60.01818106755324,
condition files/Stage0b_1.xlsx,0b,none,beta,g,"['h', 'g']","['Chess', 'Go']","[-0.15, 0.5]","[0.15, 0.5]",0,1,0,8,8,8,0,0,0,1,,,,,,,,,,,,,,,,,,,,,,,,,,,,,,,,,,,,,,,,,,,,,,,,,,,,,,,,,,,,,,,274.3769985460003,None,274.3769985460003,None,274.3769985460003,None,g,1,0.7875440910011093,275.9136193680006,None,275.9136193680006,None,275.9136193680006,None,276.7630798379996,None,276.7630798379996,None,276.7630798379996,None,276.7630798379996,None,,,,,,,,,,,,,,,,,,,,,,,,,,,,,,,,,,,,,,,,,,,,001,151,2020_Feb_20_1213,spring_faces,3.1.5,60.01818106755324,
condition files/Stage0b_1.xlsx,0b,alpha,none,h,"['h', 'g']","['Chess', 'Go']","[-0.15, 0.5]","[0.15, 0.5]",1,0,0,8,8,8,0,1,1,0,,,,,,,,,,,,,,,,,,,,,,,,,,,,,,,,,,,,,,,,,,,,,,,,,,,,,,,,,,,,,,,278.7261034669991,None,278.7261034669991,None,278.7261034669991,None,h,1,0.614677911000399,280.2624239279994,None,280.2624239279994,None,280.2624239279994,None,280.93062291500064,None,280.93062291500064,None,280.93062291500064,None,280.93062291500064,None,,,,,,,,,,,,,,,,,,,,,,,,,,,,,,,,,,,,,,,,,,,,001,151,2020_Feb_20_1213,spring_faces,3.1.5,60.01818106755324,
condition files/Stage0b_2.xlsx,0b,beta,none,g,"['h', 'g']","['Chess', 'Go']","[-0.15, 0.5]","[0.15, 0.5]",1,0,0,9,9,9,0,0,0,1,,,,,,,,,,,,,,,,,,,,,,,,,,,,,,,,,,,,,,,,,,,,,,,,,,,,,,,,,,,,,,,282.9103298730006,None,282.9103298730006,None,282.9103298730006,None,g,1,0.6576226480010519,284.4435354699999,None,284.4435354699999,None,284.4435354699999,None,285.159702981,None,285.159702981,None,285.159702981,None,285.159702981,None,,,,,,,,,,,,,,,,,,,,,,,,,,,,,,,,,,,,,,,,,,,,001,151,2020_Feb_20_1213,spring_faces,3.1.5,60.01818106755324,
condition files/Stage0b_2.xlsx,0b,none,alpha,h,"['h', 'g']","['Chess', 'Go']","[-0.15, 0.5]","[0.15, 0.5]",0,1,0,9,9,9,0,1,1,0,,,,,,,,,,,,,,,,,,,,,,,,,,,,,,,,,,,,,,,,,,,,,,,,,,,,,,,,,,,,,,,287.1267759910006,None,287.1267759910006,None,287.1267759910006,None,h,1,3.061294449000343,288.66380808900067,None,288.66380808900067,None,288.66380808900067,None,291.78063524699974,None,291.78063524699974,None,291.78063524699974,None,291.78063524699974,None,,,,,,,,,,,,,,,,,,,,,,,,,,,,,,,,,,,,,,,,,,,,001,151,2020_Feb_20_1213,spring_faces,3.1.5,60.01818106755324,
condition files/Stage0b_1.xlsx,0b,alpha,none,h,"['h', 'g']","['Chess', 'Go']","[-0.15, 0.5]","[0.15, 0.5]",1,0,0,10,10,10,0,0,0,0,,,,,,,,,,,,,,,,,,,,,,,,,,,,,,,,,,,,,,,,,,,,,,,,,,,,,,,,,,,,,,,293.76037567599997,None,293.76037567599997,None,293.76037567599997,None,h,1,0.4920448739994754,295.2970746430001,None,295.2970746430001,None,295.2970746430001,None,295.8437424299991,None,295.8437424299991,None,295.8437424299991,None,295.8437424299991,None,,,,,,,,,,,,,,,,,,,,,,,,,,,,,,,,,,,,,,,,,,,,001,151,2020_Feb_20_1213,spring_faces,3.1.5,60.01818106755324,
condition files/Stage0b_1.xlsx,0b,none,beta,g,"['h', 'g']","['Chess', 'Go']","[-0.15, 0.5]","[0.15, 0.5]",0,1,0,10,10,10,0,1,1,1,,,,,,,,,,,,,,,,,,,,,,,,,,,,,,,,,,,,,,,,,,,,,,,,,,,,,,,,,,,,,,,297.81018002400015,None,297.81018002400015,None,297.81018002400015,None,g,1,0.6000480300008348,299.34906353099905,None,299.34906353099905,None,299.34906353099905,None,300.01506106300076,None,300.01506106300076,None,300.01506106300076,None,300.01506106300076,None,,,,,,,,,,,,,,,,,,,,,,,,,,,,,,,,,,,,,,,,,,,,001,151,2020_Feb_20_1213,spring_faces,3.1.5,60.01818106755324,
condition files/Stage0b_2.xlsx,0b,beta,none,g,"['h', 'g']","['Chess', 'Go']","[-0.15, 0.5]","[0.15, 0.5]",1,0,0,11,11,11,0,0,0,1,,,,,,,,,,,,,,,,,,,,,,,,,,,,,,,,,,,,,,,,,,,,,,,,,,,,,,,,,,,,,,,301.99381184400045,None,301.99381184400045,None,301.99381184400045,None,g,1,0.8529520579995733,303.5281621060003,None,303.5281621060003,None,303.5281621060003,None,304.44369974000074,None,304.44369974000074,None,304.44369974000074,None,304.44369974000074,None,,,,,,,,,,,,,,,,,,,,,,,,,,,,,,,,,,,,,,,,,,,,001,151,2020_Feb_20_1213,spring_faces,3.1.5,60.01818106755324,
condition files/Stage0b_2.xlsx,0b,none,alpha,h,"['h', 'g']","['Chess', 'Go']","[-0.15, 0.5]","[0.15, 0.5]",0,1,0,11,11,11,0,1,1,0,,,,,,,,,,,,,,,,,,,,,,,,,,,,,,,,,,,,,,,,,,,,,,,,,,,,,,,,,,,,,,,306.4093528960002,None,306.4093528960002,None,306.4093528960002,None,h,1,0.37060703999850375,307.9464508509991,None,307.9464508509991,None,307.9464508509991,None,308.37898023699927,None,308.37898023699927,None,308.37898023699927,None,308.37898023699927,None,,,,,,,,,,,,,,,,,,,,,,,,,,,,,,,,,,,,,,,,,,,,001,151,2020_Feb_20_1213,spring_faces,3.1.5,60.01818106755324,
condition files/Stage0c_1.xlsx,0c,alpha,phi,h,"['h', 'g']","['Chess', 'Go']","[-0.15, 0.5]","[0.15, 0.5]",1,1,0,12,12,12,0,0,0,1,,,,,,,,,,,,,,,,,,,,,,,,,,,,,,,,,,,,,,,,,,,,,,,,,,,,,,,,,,,,,,,310.36047432399937,None,310.36047432399937,None,310.36047432399937,None,h,1,1.8795764930000587,311.89352703999975,None,311.89352703999975,None,311.89352703999975,None,313.82715123900016,None,313.82715123900016,None,313.82715123900016,None,313.82715123900016,None,,,,,,,,,,,,,,,,,,,,,,,,,,,,,,,,,,,,,,,,,,,,001,151,2020_Feb_20_1213,spring_faces,3.1.5,60.01818106755324,
condition files/Stage0c_1.xlsx,0c,beta,theta,g,"['h', 'g']","['Chess', 'Go']","[-0.15, 0.5]","[0.15, 0.5]",1,1,0,12,12,12,0,1,1,2,,,,,,,,,,,,,,,,,,,,,,,,,,,,,,,,,,,,,,,,,,,,,,,,,,,,,,,,,,,,,,,315.7934703939991,None,315.7934703939991,None,315.7934703939991,None,g,1,1.0219581589990412,317.3271244709995,None,317.3271244709995,None,317.3271244709995,None,318.4105584680001,None,318.4105584680001,None,318.4105584680001,None,318.4105584680001,None,,,,,,,,,,,,,,,,,,,,,,,,,,,,,,,,,,,,,,,,,,,,001,151,2020_Feb_20_1213,spring_faces,3.1.5,60.01818106755324,
condition files/Stage0c_1.xlsx,0c,theta,alpha,h,"['h', 'g']","['Chess', 'Go']","[-0.15, 0.5]","[0.15, 0.5]",1,1,0,12,12,12,0,2,2,0,,,,,,,,,,,,,,,,,,,,,,,,,,,,,,,,,,,,,,,,,,,,,,,,,,,,,,,,,,,,,,,320.3770591579996,None,320.3770591579996,None,320.3770591579996,None,h,1,1.2225845850007317,321.9105173980006,None,321.9105173980006,None,321.9105173980006,None,323.1935098190006,None,323.1935098190006,None,323.1935098190006,None,323.1935098190006,None,,,,,,,,,,,,,,,,,,,,,,,,,,,,,,,,,,,,,,,,,,,,001,151,2020_Feb_20_1213,spring_faces,3.1.5,60.01818106755324,
condition files/Stage0c_1.xlsx,0c,phi,beta,g,"['h', 'g']","['Chess', 'Go']","[-0.15, 0.5]","[0.15, 0.5]",1,1,0,12,12,12,0,3,3,3,,,,,,,,,,,,,,,,,,,,,,,,,,,,,,,,,,,,,,,,,,,,,,,,,,,,,,,,,,,,,,,325.16202906800027,None,325.16202906800027,None,325.16202906800027,None,g,1,1.255420638999567,326.6936653339999,None,326.6936653339999,None,326.6936653339999,None,328.0102182209994,None,328.0102182209994,None,328.0102182209994,None,328.0102182209994,None,,,,,,,,,,,,,,,,,,,,,,,,,,,,,,,,,,,,,,,,,,,,001,151,2020_Feb_20_1213,spring_faces,3.1.5,60.01818106755324,
condition files/Stage0c_2.xlsx,0c,phi,alpha,h,"['h', 'g']","['Chess', 'Go']","[-0.15, 0.5]","[0.15, 0.5]",1,1,0,13,13,13,0,0,0,1,,,,,,,,,,,,,,,,,,,,,,,,,,,,,,,,,,,,,,,,,,,,,,,,,,,,,,,,,,,,,,,329.9935811539999,None,329.9935811539999,None,329.9935811539999,None,g,0,0.6471716509986436,331.5099532160002,None,331.5099532160002,None,331.5099532160002,None,332.2102601839997,None,332.2102601839997,None,332.2102601839997,None,332.2102601839997,None,,,,,,,,,,,,,,,,,,,,,,,,,,,,,,,,,,,,,,,,,,,,001,151,2020_Feb_20_1213,spring_faces,3.1.5,60.01818106755324,
condition files/Stage0c_2.xlsx,0c,beta,phi,g,"['h', 'g']","['Chess', 'Go']","[-0.15, 0.5]","[0.15, 0.5]",1,1,0,13,13,13,0,1,1,3,,,,,,,,,,,,,,,,,,,,,,,,,,,,,,,,,,,,,,,,,,,,,,,,,,,,,,,,,,,,,,,334.17809776300055,None,334.17809776300055,None,334.17809776300055,None,g,1,1.1345152419999067,335.71056558000055,None,335.71056558000055,None,335.71056558000055,None,336.90988307599946,None,336.90988307599946,None,336.90988307599946,None,336.90988307599946,None,,,,,,,,,,,,,,,,,,,,,,,,,,,,,,,,,,,,,,,,,,,,001,151,2020_Feb_20_1213,spring_faces,3.1.5,60.01818106755324,
condition files/Stage0c_2.xlsx,0c,theta,beta,g,"['h', 'g']","['Chess', 'Go']","[-0.15, 0.5]","[0.15, 0.5]",1,1,0,13,13,13,0,2,2,2,,,,,,,,,,,,,,,,,,,,,,,,,,,,,,,,,,,,,,,,,,,,,,,,,,,,,,,,,,,,,,,338.87694754100085,None,338.87694754100085,None,338.87694754100085,None,g,1,2.77058143999966,340.41052275400034,None,340.41052275400034,None,340.41052275400034,None,343.22632123199946,None,343.22632123199946,None,343.22632123199946,None,343.22632123199946,None,,,,,,,,,,,,,,,,,,,,,,,,,,,,,,,,,,,,,,,,,,,,001,151,2020_Feb_20_1213,spring_faces,3.1.5,60.01818106755324,
condition files/Stage0c_2.xlsx,0c,alpha,theta,h,"['h', 'g']","['Chess', 'Go']","[-0.15, 0.5]","[0.15, 0.5]",1,1,0,13,13,13,0,3,3,0,,,,,,,,,,,,,,,,,,,,,,,,,,,,,,,,,,,,,,,,,,,,,,,,,,,,,,,,,,,,,,,345.2096913540008,None,345.2096913540008,None,345.2096913540008,None,h,1,0.6778100250012358,346.74327876700045,None,346.74327876700045,None,346.74327876700045,None,347.47702430699974,None,347.47702430699974,None,347.47702430699974,None,347.47702430699974,None,,,,,,,,,,,,,,,,,,,,,,,,,,,,,,,,,,,,,,,,,,,,001,151,2020_Feb_20_1213,spring_faces,3.1.5,60.01818106755324,
condition files/Stage0c_1.xlsx,0c,beta,theta,g,"['h', 'g']","['Chess', 'Go']","[-0.15, 0.5]","[0.15, 0.5]",1,1,0,14,14,14,0,0,0,2,,,,,,,,,,,,,,,,,,,,,,,,,,,,,,,,,,,,,,,,,,,,,,,,,,,,,,,,,,,,,,,349.4602202919996,None,349.4602202919996,None,349.4602202919996,None,g,1,0.9070669860011549,350.9940920120007,None,350.9940920120007,None,350.9940920120007,None,351.9597096849993,None,351.9597096849993,None,351.9597096849993,None,351.9597096849993,None,,,,,,,,,,,,,,,,,,,,,,,,,,,,,,,,,,,,,,,,,,,,001,151,2020_Feb_20_1213,spring_faces,3.1.5,60.01818106755324,
condition files/Stage0c_1.xlsx,0c,alpha,phi,h,"['h', 'g']","['Chess', 'Go']","[-0.15, 0.5]","[0.15, 0.5]",1,1,0,14,14,14,0,1,1,1,,,,,,,,,,,,,,,,,,,,,,,,,,,,,,,,,,,,,,,,,,,,,,,,,,,,,,,,,,,,,,,353.92663779599934,None,353.92663779599934,None,353.92663779599934,None,h,1,0.9365719990000798,355.4605370190002,None,355.4605370190002,None,355.4605370190002,None,356.460095335,None,356.460095335,None,356.460095335,None,356.460095335,None,,,,,,,,,,,,,,,,,,,,,,,,,,,,,,,,,,,,,,,,,,,,001,151,2020_Feb_20_1213,spring_faces,3.1.5,60.01818106755324,
condition files/Stage0c_1.xlsx,0c,phi,beta,g,"['h', 'g']","['Chess', 'Go']","[-0.15, 0.5]","[0.15, 0.5]",1,1,0,14,14,14,0,2,2,3,,,,,,,,,,,,,,,,,,,,,,,,,,,,,,,,,,,,,,,,,,,,,,,,,,,,,,,,,,,,,,,358.4266019349998,None,358.4266019349998,None,358.4266019349998,None,g,1,0.8692469369998435,359.95984073,None,359.95984073,None,359.95984073,None,360.8934043520003,None,360.8934043520003,None,360.8934043520003,None,360.8934043520003,None,,,,,,,,,,,,,,,,,,,,,,,,,,,,,,,,,,,,,,,,,,,,001,151,2020_Feb_20_1213,spring_faces,3.1.5,60.01818106755324,
condition files/Stage0c_1.xlsx,0c,theta,alpha,h,"['h', 'g']","['Chess', 'Go']","[-0.15, 0.5]","[0.15, 0.5]",1,1,0,14,14,14,0,3,3,0,,,,,,,,,,,,,,,,,,,,,,,,,,,,,,,,,,,,,,,,,,,,,,,,,,,,,,,,,,,,,,,362.86015451599997,None,362.86015451599997,None,362.86015451599997,None,h,1,0.5470825569991575,364.39399628499996,None,364.39399628499996,None,364.39399628499996,None,364.9938638759995,None,364.9938638759995,None,364.9938638759995,None,364.9938638759995,None,,,,,,,,,,,,,,,,,,,,,,,,,,,,,,,,,,,,,,,,,,,,001,151,2020_Feb_20_1213,spring_faces,3.1.5,60.01818106755324,
condition files/Stage0c_2.xlsx,0c,alpha,theta,h,"['h', 'g']","['Chess', 'Go']","[-0.15, 0.5]","[0.15, 0.5]",1,1,0,15,15,15,0,0,0,0,,,,,,,,,,,,,,,,,,,,,,,,,,,,,,,,,,,,,,,,,,,,,,,,,,,,,,,,,,,,,,,366.9771657500005,None,366.9771657500005,None,366.9771657500005,None,h,1,0.7666961590002757,368.51040092400035,None,368.51040092400035,None,368.51040092400035,None,369.3129189119991,None,369.3129189119991,None,369.3129189119991,None,369.3129189119991,None,,,,,,,,,,,,,,,,,,,,,,,,,,,,,,,,,,,,,,,,,,,,001,151,2020_Feb_20_1213,spring_faces,3.1.5,60.01818106755324,
condition files/Stage0c_2.xlsx,0c,phi,alpha,h,"['h', 'g']","['Chess', 'Go']","[-0.15, 0.5]","[0.15, 0.5]",1,1,0,15,15,15,0,1,1,1,,,,,,,,,,,,,,,,,,,,,,,,,,,,,,,,,,,,,,,,,,,,,,,,,,,,,,,,,,,,,,,371.29384624699924,None,371.29384624699924,None,371.29384624699924,None,h,1,0.9463088879983843,372.8267723959998,None,372.8267723959998,None,372.8267723959998,None,373.8117799749998,None,373.8117799749998,None,373.8117799749998,None,373.8117799749998,None,,,,,,,,,,,,,,,,,,,,,,,,,,,,,,,,,,,,,,,,,,,,001,151,2020_Feb_20_1213,spring_faces,3.1.5,60.01818106755324,
condition files/Stage0c_2.xlsx,0c,beta,phi,g,"['h', 'g']","['Chess', 'Go']","[-0.15, 0.5]","[0.15, 0.5]",1,1,0,15,15,15,0,2,2,3,,,,,,,,,,,,,,,,,,,,,,,,,,,,,,,,,,,,,,,,,,,,,,,,,,,,,,,,,,,,,,,375.79297460400085,None,375.79297460400085,None,375.79297460400085,None,g,1,0.5899190670006647,377.3271618630006,None,377.3271618630006,None,377.3271618630006,None,377.9770369800008,None,377.9770369800008,None,377.9770369800008,None,377.9770369800008,None,,,,,,,,,,,,,,,,,,,,,,,,,,,,,,,,,,,,,,,,,,,,001,151,2020_Feb_20_1213,spring_faces,3.1.5,60.01818106755324,
condition files/Stage0c_2.xlsx,0c,theta,beta,g,"['h', 'g']","['Chess', 'Go']","[-0.15, 0.5]","[0.15, 0.5]",1,1,0,15,15,15,0,3,3,2,,,,,,,,,,,,,,,,,,,,,,,,,,,,,,,,,,,,,,,,,,,,,,,,,,,,,,,,,,,,,,,379.9429175130008,None,379.9429175130008,None,379.9429175130008,None,g,1,1.1595892580007785,381.4775671440002,None,381.4775671440002,None,381.4775671440002,None,382.69397473000026,None,382.69397473000026,None,382.69397473000026,None,382.69397473000026,None,,,,,,,,,,,,,,,,,,,,,,,,,,,,,,,,,,,,,,,,,,,,001,151,2020_Feb_20_1213,spring_faces,3.1.5,60.01818106755324,
condition files/Stage0c_1.xlsx,0c,theta,alpha,h,"['h', 'g']","['Chess', 'Go']","[-0.15, 0.5]","[0.15, 0.5]",1,1,0,16,16,16,0,0,0,0,,,,,,,,,,,,,,,,,,,,,,,,,,,,,,,,,,,,,,,,,,,,,,,,,,,,,,,,,,,,,,,384.6770223959993,None,384.6770223959993,None,384.6770223959993,None,h,1,0.7307931400009693,386.2103021029998,None,386.2103021029998,None,386.2103021029998,None,386.99379003300055,None,386.99379003300055,None,386.99379003300055,None,386.99379003300055,None,,,,,,,,,,,,,,,,,,,,,,,,,,,,,,,,,,,,,,,,,,,,001,151,2020_Feb_20_1213,spring_faces,3.1.5,60.01818106755324,
condition files/Stage0c_1.xlsx,0c,alpha,phi,h,"['h', 'g']","['Chess', 'Go']","[-0.15, 0.5]","[0.15, 0.5]",1,1,0,16,16,16,0,1,1,1,,,,,,,,,,,,,,,,,,,,,,,,,,,,,,,,,,,,,,,,,,,,,,,,,,,,,,,,,,,,,,,388.9600627960008,None,388.9600627960008,None,388.9600627960008,None,h,1,1.487359546999869,390.49373156799993,None,390.49373156799993,None,390.49373156799993,None,392.02804467200076,None,392.02804467200076,None,392.02804467200076,None,392.02804467200076,None,,,,,,,,,,,,,,,,,,,,,,,,,,,,,,,,,,,,,,,,,,,,001,151,2020_Feb_20_1213,spring_faces,3.1.5,60.01818106755324,
condition files/Stage0c_1.xlsx,0c,beta,theta,g,"['h', 'g']","['Chess', 'Go']","[-0.15, 0.5]","[0.15, 0.5]",1,1,0,16,16,16,0,2,2,2,,,,,,,,,,,,,,,,,,,,,,,,,,,,,,,,,,,,,,,,,,,,,,,,,,,,,,,,,,,,,,,394.0101757779994,None,394.0101757779994,None,394.0101757779994,None,g,1,1.1732439040006284,395.54383656400023,None,395.54383656400023,None,395.54383656400023,None,396.7764674940008,None,396.7764674940008,None,396.7764674940008,None,396.7764674940008,None,,,,,,,,,,,,,,,,,,,,,,,,,,,,,,,,,,,,,,,,,,,,001,151,2020_Feb_20_1213,spring_faces,3.1.5,60.01818106755324,
condition files/Stage0c_1.xlsx,0c,phi,beta,g,"['h', 'g']","['Chess', 'Go']","[-0.15, 0.5]","[0.15, 0.5]",1,1,0,16,16,16,0,3,3,3,,,,,,,,,,,,,,,,,,,,,,,,,,,,,,,,,,,,,,,,,,,,,,,,,,,,,,,,,,,,,,,398.7434301199992,None,398.7434301199992,None,398.7434301199992,None,g,1,1.9437293219998537,400.27735873500023,None,400.27735873500023,None,400.27735873500023,None,402.2773013730002,None,402.2773013730002,None,402.2773013730002,None,402.2773013730002,None,,,,,,,,,,,,,,,,,,,,,,,,,,,,,,,,,,,,,,,,,,,,001,151,2020_Feb_20_1213,spring_faces,3.1.5,60.01818106755324,
condition files/Stage0c_2.xlsx,0c,phi,alpha,h,"['h', 'g']","['Chess', 'Go']","[-0.15, 0.5]","[0.15, 0.5]",1,1,0,17,17,17,0,0,0,1,,,,,,,,,,,,,,,,,,,,,,,,,,,,,,,,,,,,,,,,,,,,,,,,,,,,,,,,,,,,,,,404.26060259099904,None,404.26060259099904,None,404.26060259099904,None,h,1,0.5393243210000946,405.7937761630001,None,405.7937761630001,None,405.7937761630001,None,406.3938983249991,None,406.3938983249991,None,406.3938983249991,None,406.3938983249991,None,,,,,,,,,,,,,,,,,,,,,,,,,,,,,,,,,,,,,,,,,,,,001,151,2020_Feb_20_1213,spring_faces,3.1.5,60.01818106755324,
condition files/Stage0c_2.xlsx,0c,alpha,theta,h,"['h', 'g']","['Chess', 'Go']","[-0.15, 0.5]","[0.15, 0.5]",1,1,0,17,17,17,0,1,1,0,,,,,,,,,,,,,,,,,,,,,,,,,,,,,,,,,,,,,,,,,,,,,,,,,,,,,,,,,,,,,,,408.3601667620005,None,408.3601667620005,None,408.3601667620005,None,h,1,0.48789811300048314,409.8931886549999,None,409.8931886549999,None,409.8931886549999,None,410.4289866649997,None,410.4289866649997,None,410.4289866649997,None,410.4289866649997,None,,,,,,,,,,,,,,,,,,,,,,,,,,,,,,,,,,,,,,,,,,,,001,151,2020_Feb_20_1213,spring_faces,3.1.5,60.01818106755324,
condition files/Stage0c_2.xlsx,0c,beta,phi,g,"['h', 'g']","['Chess', 'Go']","[-0.15, 0.5]","[0.15, 0.5]",1,1,0,17,17,17,0,2,2,3,,,,,,,,,,,,,,,,,,,,,,,,,,,,,,,,,,,,,,,,,,,,,,,,,,,,,,,,,,,,,,,412.4099685279998,None,412.4099685279998,None,412.4099685279998,None,g,1,0.9018614940014231,413.94318465700053,None,413.94318465700053,None,413.94318465700053,None,414.9103967539995,None,414.9103967539995,None,414.9103967539995,None,414.9103967539995,None,,,,,,,,,,,,,,,,,,,,,,,,,,,,,,,,,,,,,,,,,,,,001,151,2020_Feb_20_1213,spring_faces,3.1.5,60.01818106755324,
condition files/Stage0c_2.xlsx,0c,theta,beta,g,"['h', 'g']","['Chess', 'Go']","[-0.15, 0.5]","[0.15, 0.5]",1,1,0,17,17,17,0,3,3,2,,,,,,,,,,,,,,,,,,,,,,,,,,,,,,,,,,,,,,,,,,,,,,,,,,,,,,,,,,,,,,,416.87785724400055,None,416.87785724400055,None,416.87785724400055,None,g,1,1.026442259999385,418.4107087550001,None,418.4107087550001,None,418.4107087550001,None,419.4780402760007,None,419.4780402760007,None,419.4780402760007,None,419.4780402760007,None,,,,,,,,,,,,,,,,,,,,,,,,,,,,,,,,,,,,,,,,,,,,001,151,2020_Feb_20_1213,spring_faces,3.1.5,60.01818106755324,
,,,,,,,,,,,,,,,,,,,,,,,,,,,,,,,,,,,,,,,,,,,,,,,,,,,,,,,,,,,,,,,,,,,,,,,,,,,,,,,,,,,,,,,,,,,,,,,,,,,,,,,,421.4769283170008,None,space,4.608100036000906,426.47707188499953,None,,,,,,,,,,,,,,,,,,,,,,,,,,,,,,,,,,,,,,001,151,2020_Feb_20_1213,spring_faces,3.1.5,60.01818106755324,
condition files/Stage1_1.xlsx,,T3,B4,c,"['c', 'm']","['Clue', 'Monopoly']","[-0.15, 0.5]","[0.15, 0.5]",1,1,,,,,,,,,0,0,0,0,0,0,0,5,,,,,,,,,,,,,,,,,,,,,,,,,,,,,,,,,,,,,,,,,,,,,,,,,,,,,,,431.143815591,None,431.143815591,None,431.143815591,None,c,1,1.7165689800003747,432.71252082499996,None,432.71252082499996,None,432.71252082499996,None,434.50988573299946,None,434.50988573299946,None,434.50988573299946,None,434.50988573299946,None,,,,,,,426.47707188499953,None,,,,,,,,,,,,,,,,,,,,,,,,,,,,,,,,,,,,001,151,2020_Feb_20_1213,spring_faces,3.1.5,60.01818106755324,
condition files/Stage1_1.xlsx,,T4,B3,m,"['c', 'm']","['Clue', 'Monopoly']","[-0.15, 0.5]","[0.15, 0.5]",1,1,,,,,,,,,0,0,0,0,0,1,1,6,,,,,,,,,,,,,,,,,,,,,,,,,,,,,,,,,,,,,,,,,,,,,,,,,,,,,,,436.4601044939991,None,436.4601044939991,None,436.4601044939991,None,m,1,0.8995995059995039,437.9935045660004,None,437.9935045660004,None,437.9935045660004,None,438.96051141799944,None,438.96051141799944,None,438.96051141799944,None,438.96051141799944,None,,,,,,,,,,,,,,,,,,,,,,,,,,,,,,,,,,,,,,,,,,,,001,151,2020_Feb_20_1213,spring_faces,3.1.5,60.01818106755324,
condition files/Stage1_1.xlsx,,B1,T2,c,"['c', 'm']","['Clue', 'Monopoly']","[-0.15, 0.5]","[0.15, 0.5]",1,1,,,,,,,,,0,0,0,0,0,2,2,1,,,,,,,,,,,,,,,,,,,,,,,,,,,,,,,,,,,,,,,,,,,,,,,,,,,,,,,440.9101811220007,None,440.9101811220007,None,440.9101811220007,None,m,0,2.529702321999139,442.4434027919997,None,442.4434027919997,None,442.4434027919997,None,445.0293017309996,None,445.0293017309996,None,445.0293017309996,None,445.0293017309996,None,,,,,,,,,,,,,,,,,,,,,,,,,,,,,,,,,,,,,,,,,,,,001,151,2020_Feb_20_1213,spring_faces,3.1.5,60.01818106755324,
condition files/Stage1_1.xlsx,,B3,T3,c,"['c', 'm']","['Clue', 'Monopoly']","[-0.15, 0.5]","[0.15, 0.5]",1,1,,,,,,,,,0,0,0,0,0,3,3,4,,,,,,,,,,,,,,,,,,,,,,,,,,,,,,,,,,,,,,,,,,,,,,,,,,,,,,,446.99338044199976,None,446.99338044199976,None,446.99338044199976,None,c,1,1.7741358550010773,448.5270152230005,None,448.5270152230005,None,448.5270152230005,None,450.36029926800074,None,450.36029926800074,None,450.36029926800074,None,450.36029926800074,None,,,,,,,,,,,,,,,,,,,,,,,,,,,,,,,,,,,,,,,,,,,,001,151,2020_Feb_20_1213,spring_faces,3.1.5,60.01818106755324,
condition files/Stage1_1.xlsx,,T1,B1,c,"['c', 'm']","['Clue', 'Monopoly']","[-0.15, 0.5]","[0.15, 0.5]",1,1,,,,,,,,,0,0,0,0,0,4,4,0,,,,,,,,,,,,,,,,,,,,,,,,,,,,,,,,,,,,,,,,,,,,,,,,,,,,,,,452.32686601500063,None,452.32686601500063,None,452.32686601500063,None,m,0,1.3204797660000622,453.8606289039999,None,453.8606289039999,None,453.8606289039999,None,455.2439348850003,None,455.2439348850003,None,455.2439348850003,None,455.2439348850003,None,,,,,,,,,,,,,,,,,,,,,,,,,,,,,,,,,,,,,,,,,,,,001,151,2020_Feb_20_1213,spring_faces,3.1.5,60.01818106755324,
condition files/Stage1_1.xlsx,,B2,T1,m,"['c', 'm']","['Clue', 'Monopoly']","[-0.15, 0.5]","[0.15, 0.5]",1,1,,,,,,,,,0,0,0,0,0,5,5,2,,,,,,,,,,,,,,,,,,,,,,,,,,,,,,,,,,,,,,,,,,,,,,,,,,,,,,,457.21003393499996,None,457.21003393499996,None,457.21003393499996,None,m,1,4.1953435160012305,458.7937329849992,None,458.7937329849992,None,458.7937329849992,None,463.0459252389992,None,463.0459252389992,None,463.0459252389992,None,463.0459252389992,None,,,,,,,,,,,,,,,,,,,,,,,,,,,,,,,,,,,,,,,,,,,,001,151,2020_Feb_20_1213,spring_faces,3.1.5,60.01818106755324,
condition files/Stage1_1.xlsx,,T2,B2,m,"['c', 'm']","['Clue', 'Monopoly']","[-0.15, 0.5]","[0.15, 0.5]",1,1,,,,,,,,,0,0,0,0,0,6,6,3,,,,,,,,,,,,,,,,,,,,,,,,,,,,,,,,,,,,,,,,,,,,,,,,,,,,,,,465.0101561369993,None,465.0101561369993,None,465.0101561369993,None,c,0,1.5005212119995122,466.54452826799934,None,466.54452826799934,None,466.54452826799934,None,468.1104005599991,None,468.1104005599991,None,468.1104005599991,None,468.1104005599991,None,,,,,,,,,,,,,,,,,,,,,,,,,,,,,,,,,,,,,,,,,,,,001,151,2020_Feb_20_1213,spring_faces,3.1.5,60.01818106755324,
condition files/Stage1_1.xlsx,,B4,T4,m,"['c', 'm']","['Clue', 'Monopoly']","[-0.15, 0.5]","[0.15, 0.5]",1,1,,,,,,,,,0,0,0,0,0,7,7,7,,,,,,,,,,,,,,,,,,,,,,,,,,,,,,,,,,,,,,,,,,,,,,,,,,,,,,,470.0768201160008,None,470.0768201160008,None,470.0768201160008,None,m,1,2.2107518460015854,471.6104180750008,None,471.6104180750008,None,471.6104180750008,None,473.8763525209997,None,473.8763525209997,None,473.8763525209997,None,473.8763525209997,None,,,,,,,,,,,,,,,,,,,,,,,,,,,,,,,,,,,,,,,,,,,,001,151,2020_Feb_20_1213,spring_faces,3.1.5,60.01818106755324,
condition files/Stage1_2.xlsx,,B2,T2,m,"['c', 'm']","['Clue', 'Monopoly']","[-0.15, 0.5]","[0.15, 0.5]",1,1,,,,,,,,,0,1,1,1,0,0,0,3,,,,,,,,,,,,,,,,,,,,,,,,,,,,,,,,,,,,,,,,,,,,,,,,,,,,,,,475.86004609799966,None,475.86004609799966,None,475.86004609799966,None,m,1,1.9129430640005012,477.39616522600045,None,477.39616522600045,None,477.39616522600045,None,479.36074428199936,None,479.36074428199936,None,479.36074428199936,None,479.36074428199936,None,,,,,,,,,,,,,,,,,,,,,,,,,,,,,,,,,,,,,,,,,,,,001,151,2020_Feb_20_1213,spring_faces,3.1.5,60.01818106755324,
condition files/Stage1_2.xlsx,,B1,T1,c,"['c', 'm']","['Clue', 'Monopoly']","[-0.15, 0.5]","[0.15, 0.5]",1,1,,,,,,,,,0,1,1,1,0,1,1,0,,,,,,,,,,,,,,,,,,,,,,,,,,,,,,,,,,,,,,,,,,,,,,,,,,,,,,,481.3267376090007,None,481.3267376090007,None,481.3267376090007,None,m,0,2.208661884000321,482.8604851309992,None,482.8604851309992,None,482.8604851309992,None,485.12665082499916,None,485.12665082499916,None,485.12665082499916,None,485.12665082499916,None,,,,,,,,,,,,,,,,,,,,,,,,,,,,,,,,,,,,,,,,,,,,001,151,2020_Feb_20_1213,spring_faces,3.1.5,60.01818106755324,
condition files/Stage1_2.xlsx,,T2,B1,c,"['c', 'm']","['Clue', 'Monopoly']","[-0.15, 0.5]","[0.15, 0.5]",1,1,,,,,,,,,0,1,1,1,0,2,2,1,,,,,,,,,,,,,,,,,,,,,,,,,,,,,,,,,,,,,,,,,,,,,,,,,,,,,,,487.0935090330004,None,487.0935090330004,None,487.0935090330004,None,c,1,1.1456322529993486,488.6274713620005,None,488.6274713620005,None,488.6274713620005,None,489.82707342699905,None,489.82707342699905,None,489.82707342699905,None,489.82707342699905,None,,,,,,,,,,,,,,,,,,,,,,,,,,,,,,,,,,,,,,,,,,,,001,151,2020_Feb_20_1213,spring_faces,3.1.5,60.01818106755324,
condition files/Stage1_2.xlsx,,T4,B4,m,"['c', 'm']","['Clue', 'Monopoly']","[-0.15, 0.5]","[0.15, 0.5]",1,1,,,,,,,,,0,1,1,1,0,3,3,7,,,,,,,,,,,,,,,,,,,,,,,,,,,,,,,,,,,,,,,,,,,,,,,,,,,,,,,491.79369797899926,None,491.79369797899926,None,491.79369797899926,None,m,1,0.8782215080009337,493.3268544750008,None,493.3268544750008,None,493.3268544750008,None,494.26312462900023,None,494.26312462900023,None,494.26312462900023,None,494.26312462900023,None,,,,,,,,,,,,,,,,,,,,,,,,,,,,,,,,,,,,,,,,,,,,001,151,2020_Feb_20_1213,spring_faces,3.1.5,60.01818106755324,
condition files/Stage1_2.xlsx,,B4,T3,c,"['c', 'm']","['Clue', 'Monopoly']","[-0.15, 0.5]","[0.15, 0.5]",1,1,,,,,,,,,0,1,1,1,0,4,4,5,,,,,,,,,,,,,,,,,,,,,,,,,,,,,,,,,,,,,,,,,,,,,,,,,,,,,,,496.226953763,None,496.226953763,None,496.226953763,None,c,1,1.06836824399943,497.7767266160008,None,497.7767266160008,None,497.7767266160008,None,498.91281197100034,None,498.91281197100034,None,498.91281197100034,None,498.91281197100034,None,,,,,,,,,,,,,,,,,,,,,,,,,,,,,,,,,,,,,,,,,,,,001,151,2020_Feb_20_1213,spring_faces,3.1.5,60.01818106755324,
condition files/Stage1_2.xlsx,,T3,B3,c,"['c', 'm']","['Clue', 'Monopoly']","[-0.15, 0.5]","[0.15, 0.5]",1,1,,,,,,,,,0,1,1,1,0,5,5,4,,,,,,,,,,,,,,,,,,,,,,,,,,,,,,,,,,,,,,,,,,,,,,,,,,,,,,,500.8769493769996,None,500.8769493769996,None,500.8769493769996,None,c,1,0.6247368330004974,502.41239885100003,None,502.41239885100003,None,502.41239885100003,None,503.093892936,None,503.093892936,None,503.093892936,None,503.093892936,None,,,,,,,,,,,,,,,,,,,,,,,,,,,,,,,,,,,,,,,,,,,,001,151,2020_Feb_20_1213,spring_faces,3.1.5,60.01818106755324,
condition files/Stage1_2.xlsx,,T1,B2,m,"['c', 'm']","['Clue', 'Monopoly']","[-0.15, 0.5]","[0.15, 0.5]",1,1,,,,,,,,,0,1,1,1,0,6,6,2,,,,,,,,,,,,,,,,,,,,,,,,,,,,,,,,,,,,,,,,,,,,,,,,,,,,,,,505.06028342600075,None,505.06028342600075,None,505.06028342600075,None,m,1,1.0336282959997334,506.59542838000016,None,506.59542838000016,None,506.59542838000016,None,507.6962527329997,None,507.6962527329997,None,507.6962527329997,None,507.6962527329997,None,,,,,,,,,,,,,,,,,,,,,,,,,,,,,,,,,,,,,,,,,,,,001,151,2020_Feb_20_1213,spring_faces,3.1.5,60.01818106755324,
condition files/Stage1_2.xlsx,,B3,T4,m,"['c', 'm']","['Clue', 'Monopoly']","[-0.15, 0.5]","[0.15, 0.5]",1,1,,,,,,,,,0,1,1,1,0,7,7,6,,,,,,,,,,,,,,,,,,,,,,,,,,,,,,,,,,,,,,,,,,,,,,,,,,,,,,,509.6601454899992,None,509.6601454899992,None,509.6601454899992,None,m,1,0.9310581509998883,511.1940491660007,None,511.1940491660007,None,511.1940491660007,None,512.1765939289999,None,512.1765939289999,None,512.1765939289999,None,512.1765939289999,None,,,,,,,,,,,,,,,,,,,,,,,,,,,,,,,,,,,,,,,,,,,,001,151,2020_Feb_20_1213,spring_faces,3.1.5,60.01818106755324,
condition files/Stage1_1.xlsx,,T1,B1,c,"['c', 'm']","['Clue', 'Monopoly']","[-0.15, 0.5]","[0.15, 0.5]",1,1,,,,,,,,,0,2,2,2,0,0,0,0,,,,,,,,,,,,,,,,,,,,,,,,,,,,,,,,,,,,,,,,,,,,,,,,,,,,,,,514.1604533409991,None,514.1604533409991,None,514.1604533409991,None,c,1,1.182502208999722,515.7105989379997,None,515.7105989379997,None,515.7105989379997,None,516.9606301679996,None,516.9606301679996,None,516.9606301679996,None,516.9606301679996,None,,,,,,,,,,,,,,,,,,,,,,,,,,,,,,,,,,,,,,,,,,,,001,151,2020_Feb_20_1213,spring_faces,3.1.5,60.01818106755324,
condition files/Stage1_1.xlsx,,B1,T2,c,"['c', 'm']","['Clue', 'Monopoly']","[-0.15, 0.5]","[0.15, 0.5]",1,1,,,,,,,,,0,2,2,2,0,1,1,1,,,,,,,,,,,,,,,,,,,,,,,,,,,,,,,,,,,,,,,,,,,,,,,,,,,,,,,518.9099159289999,None,518.9099159289999,None,518.9099159289999,None,c,1,0.8013148259997251,520.4437289430007,None,520.4437289430007,None,520.4437289430007,None,521.3100904570001,None,521.3100904570001,None,521.3100904570001,None,521.3100904570001,None,,,,,,,,,,,,,,,,,,,,,,,,,,,,,,,,,,,,,,,,,,,,001,151,2020_Feb_20_1213,spring_faces,3.1.5,60.01818106755324,
condition files/Stage1_1.xlsx,,T3,B4,c,"['c', 'm']","['Clue', 'Monopoly']","[-0.15, 0.5]","[0.15, 0.5]",1,1,,,,,,,,,0,2,2,2,0,2,2,5,,,,,,,,,,,,,,,,,,,,,,,,,,,,,,,,,,,,,,,,,,,,,,,,,,,,,,,523.2768467280002,None,523.2768467280002,None,523.2768467280002,None,m,0,0.7544065760012018,524.8107133030007,None,524.8107133030007,None,524.8107133030007,None,525.6272064610002,None,525.6272064610002,None,525.6272064610002,None,525.6272064610002,None,,,,,,,,,,,,,,,,,,,,,,,,,,,,,,,,,,,,,,,,,,,,001,151,2020_Feb_20_1213,spring_faces,3.1.5,60.01818106755324,
condition files/Stage1_1.xlsx,,B3,T3,c,"['c', 'm']","['Clue', 'Monopoly']","[-0.15, 0.5]","[0.15, 0.5]",1,1,,,,,,,,,0,2,2,2,0,3,3,4,,,,,,,,,,,,,,,,,,,,,,,,,,,,,,,,,,,,,,,,,,,,,,,,,,,,,,,527.5932989409994,None,527.5932989409994,None,527.5932989409994,None,c,1,0.7903917820003699,529.1267751159994,None,529.1267751159994,None,529.1267751159994,None,529.9770240540001,None,529.9770240540001,None,529.9770240540001,None,529.9770240540001,None,,,,,,,,,,,,,,,,,,,,,,,,,,,,,,,,,,,,,,,,,,,,001,151,2020_Feb_20_1213,spring_faces,3.1.5,60.01818106755324,
condition files/Stage1_1.xlsx,,T4,B3,m,"['c', 'm']","['Clue', 'Monopoly']","[-0.15, 0.5]","[0.15, 0.5]",1,1,,,,,,,,,0,2,2,2,0,4,4,6,,,,,,,,,,,,,,,,,,,,,,,,,,,,,,,,,,,,,,,,,,,,,,,,,,,,,,,531.9435971029998,None,531.9435971029998,None,531.9435971029998,None,m,1,1.0797925980004948,533.4772226099994,None,533.4772226099994,None,533.4772226099994,None,534.6104556890004,None,534.6104556890004,None,534.6104556890004,None,534.6104556890004,None,,,,,,,,,,,,,,,,,,,,,,,,,,,,,,,,,,,,,,,,,,,,001,151,2020_Feb_20_1213,spring_faces,3.1.5,60.01818106755324,
condition files/Stage1_1.xlsx,,B4,T4,m,"['c', 'm']","['Clue', 'Monopoly']","[-0.15, 0.5]","[0.15, 0.5]",1,1,,,,,,,,,0,2,2,2,0,5,5,7,,,,,,,,,,,,,,,,,,,,,,,,,,,,,,,,,,,,,,,,,,,,,,,,,,,,,,,536.5768911689993,None,536.5768911689993,None,536.5768911689993,None,m,1,0.764688193999973,538.1123677129999,None,538.1123677129999,None,538.1123677129999,None,538.9267346180004,None,538.9267346180004,None,538.9267346180004,None,538.9267346180004,None,,,,,,,,,,,,,,,,,,,,,,,,,,,,,,,,,,,,,,,,,,,,001,151,2020_Feb_20_1213,spring_faces,3.1.5,60.01818106755324,
condition files/Stage1_1.xlsx,,T2,B2,m,"['c', 'm']","['Clue', 'Monopoly']","[-0.15, 0.5]","[0.15, 0.5]",1,1,,,,,,,,,0,2,2,2,0,6,6,3,,,,,,,,,,,,,,,,,,,,,,,,,,,,,,,,,,,,,,,,,,,,,,,,,,,,,,,540.8935036740004,None,540.8935036740004,None,540.8935036740004,None,m,1,1.7774678480000148,542.4436158099998,None,542.4436158099998,None,542.4436158099998,None,544.2775054520007,None,544.2775054520007,None,544.2775054520007,None,544.2775054520007,None,,,,,,,,,,,,,,,,,,,,,,,,,,,,,,,,,,,,,,,,,,,,001,151,2020_Feb_20_1213,spring_faces,3.1.5,60.01818106755324,
condition files/Stage1_1.xlsx,,B2,T1,m,"['c', 'm']","['Clue', 'Monopoly']","[-0.15, 0.5]","[0.15, 0.5]",1,1,,,,,,,,,0,2,2,2,0,7,7,2,,,,,,,,,,,,,,,,,,,,,,,,,,,,,,,,,,,,,,,,,,,,,,,,,,,,,,,546.2435220339994,None,546.2435220339994,None,546.2435220339994,None,m,1,0.6841348680009105,547.7768961069996,None,547.7768961069996,None,547.7768961069996,None,548.5269902210002,None,548.5269902210002,None,548.5269902210002,None,548.5269902210002,None,,,,,,,,,,,,,,,,,,,,,,,,,,,,,,,,,,,,,,,,,,,,001,151,2020_Feb_20_1213,spring_faces,3.1.5,60.01818106755324,
condition files/Stage1_2.xlsx,,T3,B3,c,"['c', 'm']","['Clue', 'Monopoly']","[-0.15, 0.5]","[0.15, 0.5]",1,1,,,,,,,,,0,3,3,3,0,0,0,4,,,,,,,,,,,,,,,,,,,,,,,,,,,,,,,,,,,,,,,,,,,,,,,,,,,,,,,550.510076565999,None,550.510076565999,None,550.510076565999,None,c,1,0.848514688999785,552.0605872889992,None,552.0605872889992,None,552.0605872889992,None,552.9763653289992,None,552.9763653289992,None,552.9763653289992,None,552.9763653289992,None,,,,,,,,,,,,,,,,,,,,,,,,,,,,,,,,,,,,,,,,,,,,001,151,2020_Feb_20_1213,spring_faces,3.1.5,60.01818106755324,
condition files/Stage1_2.xlsx,,B3,T4,m,"['c', 'm']","['Clue', 'Monopoly']","[-0.15, 0.5]","[0.15, 0.5]",1,1,,,,,,,,,0,3,3,3,0,1,1,6,,,,,,,,,,,,,,,,,,,,,,,,,,,,,,,,,,,,,,,,,,,,,,,,,,,,,,,554.9265942740003,None,554.9265942740003,None,554.9265942740003,None,m,1,0.7051442449992464,556.459976357999,None,556.459976357999,None,556.459976357999,None,557.2264837900002,None,557.2264837900002,None,557.2264837900002,None,557.2264837900002,None,,,,,,,,,,,,,,,,,,,,,,,,,,,,,,,,,,,,,,,,,,,,001,151,2020_Feb_20_1213,spring_faces,3.1.5,60.01818106755324,
condition files/Stage1_2.xlsx,,T1,B2,m,"['c', 'm']","['Clue', 'Monopoly']","[-0.15, 0.5]","[0.15, 0.5]",1,1,,,,,,,,,0,3,3,3,0,2,2,2,,,,,,,,,,,,,,,,,,,,,,,,,,,,,,,,,,,,,,,,,,,,,,,,,,,,,,,559.1934208809998,None,559.1934208809998,None,559.1934208809998,None,m,1,0.9182368850015337,560.7268036109999,None,560.7268036109999,None,560.7268036109999,None,561.7104820189998,None,561.7104820189998,None,561.7104820189998,None,561.7104820189998,None,,,,,,,,,,,,,,,,,,,,,,,,,,,,,,,,,,,,,,,,,,,,001,151,2020_Feb_20_1213,spring_faces,3.1.5,60.01818106755324,
condition files/Stage1_2.xlsx,,T4,B4,m,"['c', 'm']","['Clue', 'Monopoly']","[-0.15, 0.5]","[0.15, 0.5]",1,1,,,,,,,,,0,3,3,3,0,3,3,7,,,,,,,,,,,,,,,,,,,,,,,,,,,,,,,,,,,,,,,,,,,,,,,,,,,,,,,563.6763984619993,None,563.6763984619993,None,563.6763984619993,None,m,1,0.880219496000791,565.2128737450003,None,565.2128737450003,None,565.2128737450003,None,566.1434911609995,None,566.1434911609995,None,566.1434911609995,None,566.1434911609995,None,,,,,,,,,,,,,,,,,,,,,,,,,,,,,,,,,,,,,,,,,,,,001,151,2020_Feb_20_1213,spring_faces,3.1.5,60.01818106755324,
condition files/Stage1_2.xlsx,,B4,T3,c,"['c', 'm']","['Clue', 'Monopoly']","[-0.15, 0.5]","[0.15, 0.5]",1,1,,,,,,,,,0,3,3,3,0,4,4,5,,,,,,,,,,,,,,,,,,,,,,,,,,,,,,,,,,,,,,,,,,,,,,,,,,,,,,,568.11060765,None,568.11060765,None,568.11060765,None,c,1,1.0892972639994696,569.6438575819993,None,569.6438575819993,None,569.6438575819993,None,570.7938591660004,None,570.7938591660004,None,570.7938591660004,None,570.7938591660004,None,,,,,,,,,,,,,,,,,,,,,,,,,,,,,,,,,,,,,,,,,,,,001,151,2020_Feb_20_1213,spring_faces,3.1.5,60.01818106755324,
condition files/Stage1_2.xlsx,,B2,T2,m,"['c', 'm']","['Clue', 'Monopoly']","[-0.15, 0.5]","[0.15, 0.5]",1,1,,,,,,,,,0,3,3,3,0,5,5,3,,,,,,,,,,,,,,,,,,,,,,,,,,,,,,,,,,,,,,,,,,,,,,,,,,,,,,,572.7601619249999,None,572.7601619249999,None,572.7601619249999,None,m,1,1.4139405930000066,574.2951638890008,None,574.2951638890008,None,574.2951638890008,None,575.7604076309999,None,575.7604076309999,None,575.7604076309999,None,575.7604076309999,None,,,,,,,,,,,,,,,,,,,,,,,,,,,,,,,,,,,,,,,,,,,,001,151,2020_Feb_20_1213,spring_faces,3.1.5,60.01818106755324,
condition files/Stage1_2.xlsx,,T2,B1,c,"['c', 'm']","['Clue', 'Monopoly']","[-0.15, 0.5]","[0.15, 0.5]",1,1,,,,,,,,,0,3,3,3,0,6,6,1,,,,,,,,,,,,,,,,,,,,,,,,,,,,,,,,,,,,,,,,,,,,,,,,,,,,,,,577.7266997940005,None,577.7266997940005,None,577.7266997940005,None,c,1,1.1364070279996668,579.2607018849994,None,579.2607018849994,None,579.2607018849994,None,580.4616803219997,None,580.4616803219997,None,580.4616803219997,None,580.4616803219997,None,,,,,,,,,,,,,,,,,,,,,,,,,,,,,,,,,,,,,,,,,,,,001,151,2020_Feb_20_1213,spring_faces,3.1.5,60.01818106755324,
condition files/Stage1_2.xlsx,,B1,T1,c,"['c', 'm']","['Clue', 'Monopoly']","[-0.15, 0.5]","[0.15, 0.5]",1,1,,,,,,,,,0,3,3,3,0,7,7,0,,,,,,,,,,,,,,,,,,,,,,,,,,,,,,,,,,,,,,,,,,,,,,,,,,,,,,,582.4263358099997,None,582.4263358099997,None,582.4263358099997,None,c,1,0.5167849560002651,583.9602683070007,None,583.9602683070007,None,583.9602683070007,None,584.5271047980004,None,584.5271047980004,None,584.5271047980004,None,584.5271047980004,None,,,,,,,,,,,,,,,,,,,,,,,,,,,,,,,,,,,,,,,,,,,,001,151,2020_Feb_20_1213,spring_faces,3.1.5,60.01818106755324,
condition files/Stage1_1.xlsx,,T4,B3,m,"['c', 'm']","['Clue', 'Monopoly']","[-0.15, 0.5]","[0.15, 0.5]",1,1,,,,,,,,,0,4,4,4,0,0,0,6,,,,,,,,,,,,,,,,,,,,,,,,,,,,,,,,,,,,,,,,,,,,,,,,,,,,,,,586.5105462310003,None,586.5105462310003,None,586.5105462310003,None,m,1,1.2327589389988134,588.0443557960007,None,588.0443557960007,None,588.0443557960007,None,589.3437736310007,None,589.3437736310007,None,589.3437736310007,None,589.3437736310007,None,,,,,,,,,,,,,,,,,,,,,,,,,,,,,,,,,,,,,,,,,,,,001,151,2020_Feb_20_1213,spring_faces,3.1.5,60.01818106755324,
condition files/Stage1_1.xlsx,,B2,T1,m,"['c', 'm']","['Clue', 'Monopoly']","[-0.15, 0.5]","[0.15, 0.5]",1,1,,,,,,,,,0,4,4,4,0,1,1,2,,,,,,,,,,,,,,,,,,,,,,,,,,,,,,,,,,,,,,,,,,,,,,,,,,,,,,,591.2939621229998,None,591.2939621229998,None,591.2939621229998,None,m,1,1.5544791510001232,592.826623298999,None,592.826623298999,None,592.826623298999,None,594.4434300060002,None,594.4434300060002,None,594.4434300060002,None,594.4434300060002,None,,,,,,,,,,,,,,,,,,,,,,,,,,,,,,,,,,,,,,,,,,,,001,151,2020_Feb_20_1213,spring_faces,3.1.5,60.01818106755324,
condition files/Stage1_1.xlsx,,B1,T2,c,"['c', 'm']","['Clue', 'Monopoly']","[-0.15, 0.5]","[0.15, 0.5]",1,1,,,,,,,,,0,4,4,4,0,2,2,1,,,,,,,,,,,,,,,,,,,,,,,,,,,,,,,,,,,,,,,,,,,,,,,,,,,,,,,596.4100669300005,None,596.4100669300005,None,596.4100669300005,None,c,1,0.9018158769995352,597.9432388130008,None,597.9432388130008,None,597.9432388130008,None,598.9131489350002,None,598.9131489350002,None,598.9131489350002,None,598.9131489350002,None,,,,,,,,,,,,,,,,,,,,,,,,,,,,,,,,,,,,,,,,,,,,001,151,2020_Feb_20_1213,spring_faces,3.1.5,60.01818106755324,
condition files/Stage1_1.xlsx,,T2,B2,m,"['c', 'm']","['Clue', 'Monopoly']","[-0.15, 0.5]","[0.15, 0.5]",1,1,,,,,,,,,0,4,4,4,0,3,3,3,,,,,,,,,,,,,,,,,,,,,,,,,,,,,,,,,,,,,,,,,,,,,,,,,,,,,,,600.8768107260003,None,600.8768107260003,None,600.8768107260003,None,m,1,2.9952860890007287,602.4097602830007,None,602.4097602830007,None,602.4097602830007,None,605.4603434889996,None,605.4603434889996,None,605.4603434889996,None,605.4603434889996,None,,,,,,,,,,,,,,,,,,,,,,,,,,,,,,,,,,,,,,,,,,,,001,151,2020_Feb_20_1213,spring_faces,3.1.5,60.01818106755324,
condition files/Stage1_1.xlsx,,B3,T3,c,"['c', 'm']","['Clue', 'Monopoly']","[-0.15, 0.5]","[0.15, 0.5]",1,1,,,,,,,,,0,4,4,4,0,4,4,4,,,,,,,,,,,,,,,,,,,,,,,,,,,,,,,,,,,,,,,,,,,,,,,,,,,,,,,607.4263458349997,None,607.4263458349997,None,607.4263458349997,None,c,1,1.4042891429999145,608.9608216220004,None,608.9608216220004,None,608.9608216220004,None,610.4267302240005,None,610.4267302240005,None,610.4267302240005,None,610.4267302240005,None,,,,,,,,,,,,,,,,,,,,,,,,,,,,,,,,,,,,,,,,,,,,001,151,2020_Feb_20_1213,spring_faces,3.1.5,60.01818106755324,
condition files/Stage1_1.xlsx,,T1,B1,c,"['c', 'm']","['Clue', 'Monopoly']","[-0.15, 0.5]","[0.15, 0.5]",1,1,,,,,,,,,0,4,4,4,0,5,5,0,,,,,,,,,,,,,,,,,,,,,,,,,,,,,,,,,,,,,,,,,,,,,,,,,,,,,,,612.3933148819997,None,612.3933148819997,None,612.3933148819997,None,c,1,1.685600646000239,613.9275110639992,None,613.9275110639992,None,613.9275110639992,None,615.6766302270007,None,615.6766302270007,None,615.6766302270007,None,615.6766302270007,None,,,,,,,,,,,,,,,,,,,,,,,,,,,,,,,,,,,,,,,,,,,,001,151,2020_Feb_20_1213,spring_faces,3.1.5,60.01818106755324,
condition files/Stage1_1.xlsx,,B4,T4,m,"['c', 'm']","['Clue', 'Monopoly']","[-0.15, 0.5]","[0.15, 0.5]",1,1,,,,,,,,,0,4,4,4,0,6,6,7,,,,,,,,,,,,,,,,,,,,,,,,,,,,,,,,,,,,,,,,,,,,,,,,,,,,,,,617.6434818090001,None,617.6434818090001,None,617.6434818090001,None,m,1,1.0768769839996821,619.1762761959999,None,619.1762761959999,None,619.1762761959999,None,620.3270027489998,None,620.3270027489998,None,620.3270027489998,None,620.3270027489998,None,,,,,,,,,,,,,,,,,,,,,,,,,,,,,,,,,,,,,,,,,,,,001,151,2020_Feb_20_1213,spring_faces,3.1.5,60.01818106755324,
condition files/Stage1_1.xlsx,,T3,B4,c,"['c', 'm']","['Clue', 'Monopoly']","[-0.15, 0.5]","[0.15, 0.5]",1,1,,,,,,,,,0,4,4,4,0,7,7,5,,,,,,,,,,,,,,,,,,,,,,,,,,,,,,,,,,,,,,,,,,,,,,,,,,,,,,,622.276548152,None,622.276548152,None,622.276548152,None,c,1,0.9056319909996091,623.8115433219991,None,623.8115433219991,None,623.8115433219991,None,624.7772465559992,None,624.7772465559992,None,624.7772465559992,None,624.7772465559992,None,,,,,,,,,,,,,,,,,,,,,,,,,,,,,,,,,,,,,,,,,,,,001,151,2020_Feb_20_1213,spring_faces,3.1.5,60.01818106755324,
condition files/Stage1_2.xlsx,,T3,B3,c,"['c', 'm']","['Clue', 'Monopoly']","[-0.15, 0.5]","[0.15, 0.5]",1,1,,,,,,,,,0,5,5,5,0,0,0,4,,,,,,,,,,,,,,,,,,,,,,,,,,,,,,,,,,,,,,,,,,,,,,,,,,,,,,,626.7604604200005,None,626.7604604200005,None,626.7604604200005,None,c,1,0.5830610510001861,628.2940649680004,None,628.2940649680004,None,628.2940649680004,None,628.9267273379992,None,628.9267273379992,None,628.9267273379992,None,628.9267273379992,None,,,,,,,,,,,,,,,,,,,,,,,,,,,,,,,,,,,,,,,,,,,,001,151,2020_Feb_20_1213,spring_faces,3.1.5,60.01818106755324,
condition files/Stage1_2.xlsx,,B1,T1,c,"['c', 'm']","['Clue', 'Monopoly']","[-0.15, 0.5]","[0.15, 0.5]",1,1,,,,,,,,,0,5,5,5,0,1,1,0,,,,,,,,,,,,,,,,,,,,,,,,,,,,,,,,,,,,,,,,,,,,,,,,,,,,,,,630.8937994070002,None,630.8937994070002,None,630.8937994070002,None,c,1,1.025839948999419,632.427215190999,None,632.427215190999,None,632.427215190999,None,633.5104382259997,None,633.5104382259997,None,633.5104382259997,None,633.5104382259997,None,,,,,,,,,,,,,,,,,,,,,,,,,,,,,,,,,,,,,,,,,,,,001,151,2020_Feb_20_1213,spring_faces,3.1.5,60.01818106755324,
condition files/Stage1_2.xlsx,,B2,T2,m,"['c', 'm']","['Clue', 'Monopoly']","[-0.15, 0.5]","[0.15, 0.5]",1,1,,,,,,,,,0,5,5,5,0,2,2,3,,,,,,,,,,,,,,,,,,,,,,,,,,,,,,,,,,,,,,,,,,,,,,,,,,,,,,,635.4771639369992,None,635.4771639369992,None,635.4771639369992,None,m,1,0.8414792029998353,637.0116781739998,None,637.0116781739998,None,637.0116781739998,None,637.9099168920002,None,637.9099168920002,None,637.9099168920002,None,637.9099168920002,None,,,,,,,,,,,,,,,,,,,,,,,,,,,,,,,,,,,,,,,,,,,,001,151,2020_Feb_20_1213,spring_faces,3.1.5,60.01818106755324,
condition files/Stage1_2.xlsx,,T2,B1,c,"['c', 'm']","['Clue', 'Monopoly']","[-0.15, 0.5]","[0.15, 0.5]",1,1,,,,,,,,,0,5,5,5,0,3,3,1,,,,,,,,,,,,,,,,,,,,,,,,,,,,,,,,,,,,,,,,,,,,,,,,,,,,,,,639.8767660760004,None,639.8767660760004,None,639.8767660760004,None,c,1,0.747211279000112,641.4099586869997,None,641.4099586869997,None,641.4099586869997,None,642.2270247630004,None,642.2270247630004,None,642.2270247630004,None,642.2270247630004,None,,,,,,,,,,,,,,,,,,,,,,,,,,,,,,,,,,,,,,,,,,,,001,151,2020_Feb_20_1213,spring_faces,3.1.5,60.01818106755324,
condition files/Stage1_2.xlsx,,T4,B4,m,"['c', 'm']","['Clue', 'Monopoly']","[-0.15, 0.5]","[0.15, 0.5]",1,1,,,,,,,,,0,5,5,5,0,4,4,7,,,,,,,,,,,,,,,,,,,,,,,,,,,,,,,,,,,,,,,,,,,,,,,,,,,,,,,644.1768258209995,None,644.1768258209995,None,644.1768258209995,None,m,1,0.6856647139993584,645.7274345820006,None,645.7274345820006,None,645.7274345820006,None,646.4787537400007,None,646.4787537400007,None,646.4787537400007,None,646.4787537400007,None,,,,,,,,,,,,,,,,,,,,,,,,,,,,,,,,,,,,,,,,,,,,001,151,2020_Feb_20_1213,spring_faces,3.1.5,60.01818106755324,
condition files/Stage1_2.xlsx,,B3,T4,m,"['c', 'm']","['Clue', 'Monopoly']","[-0.15, 0.5]","[0.15, 0.5]",1,1,,,,,,,,,0,5,5,5,0,5,5,6,,,,,,,,,,,,,,,,,,,,,,,,,,,,,,,,,,,,,,,,,,,,,,,,,,,,,,,648.4435002440005,None,648.4435002440005,None,648.4435002440005,None,m,1,0.7722184880003624,649.9768877730003,None,649.9768877730003,None,649.9768877730003,None,650.8102497079999,None,650.8102497079999,None,650.8102497079999,None,650.8102497079999,None,,,,,,,,,,,,,,,,,,,,,,,,,,,,,,,,,,,,,,,,,,,,001,151,2020_Feb_20_1213,spring_faces,3.1.5,60.01818106755324,
condition files/Stage1_2.xlsx,,T1,B2,m,"['c', 'm']","['Clue', 'Monopoly']","[-0.15, 0.5]","[0.15, 0.5]",1,1,,,,,,,,,0,5,5,5,0,6,6,2,,,,,,,,,,,,,,,,,,,,,,,,,,,,,,,,,,,,,,,,,,,,,,,,,,,,,,,652.7769664089992,None,652.7769664089992,None,652.7769664089992,None,m,1,0.9662572020006337,654.3268454329991,None,654.3268454329991,None,654.3268454329991,None,655.3435160169993,None,655.3435160169993,None,655.3435160169993,None,655.3435160169993,None,,,,,,,,,,,,,,,,,,,,,,,,,,,,,,,,,,,,,,,,,,,,001,151,2020_Feb_20_1213,spring_faces,3.1.5,60.01818106755324,
condition files/Stage1_2.xlsx,,B4,T3,c,"['c', 'm']","['Clue', 'Monopoly']","[-0.15, 0.5]","[0.15, 0.5]",1,1,,,,,,,,,0,5,5,5,0,7,7,5,,,,,,,,,,,,,,,,,,,,,,,,,,,,,,,,,,,,,,,,,,,,,,,,,,,,,,,657.3095221780004,None,657.3095221780004,None,657.3095221780004,None,c,1,0.6403575959993759,658.8448096840002,None,658.8448096840002,None,658.8448096840002,None,659.5450336699996,None,659.5450336699996,None,659.5450336699996,None,659.5450336699996,None,,,,,,,,,,,,,,,,,,,,,,,,,,,,,,,,,,,,,,,,,,,,001,151,2020_Feb_20_1213,spring_faces,3.1.5,60.01818106755324,
condition files/Stage1_1.xlsx,,T4,B3,m,"['c', 'm']","['Clue', 'Monopoly']","[-0.15, 0.5]","[0.15, 0.5]",1,1,,,,,,,,,0,6,6,6,0,0,0,6,,,,,,,,,,,,,,,,,,,,,,,,,,,,,,,,,,,,,,,,,,,,,,,,,,,,,,,661.5270261000005,None,661.5270261000005,None,661.5270261000005,None,m,1,0.6804981169989333,663.0606071679995,None,663.0606071679995,None,663.0606071679995,None,663.794641167,None,663.794641167,None,663.794641167,None,663.794641167,None,,,,,,,,,,,,,,,,,,,,,,,,,,,,,,,,,,,,,,,,,,,,001,151,2020_Feb_20_1213,spring_faces,3.1.5,60.01818106755324,
condition files/Stage1_1.xlsx,,T1,B1,c,"['c', 'm']","['Clue', 'Monopoly']","[-0.15, 0.5]","[0.15, 0.5]",1,1,,,,,,,,,0,6,6,6,0,1,1,0,,,,,,,,,,,,,,,,,,,,,,,,,,,,,,,,,,,,,,,,,,,,,,,,,,,,,,,665.7598638839991,None,665.7598638839991,None,665.7598638839991,None,c,1,0.8146834670005774,667.3104200920006,None,667.3104200920006,None,667.3104200920006,None,668.1782739669998,None,668.1782739669998,None,668.1782739669998,None,668.1782739669998,None,,,,,,,,,,,,,,,,,,,,,,,,,,,,,,,,,,,,,,,,,,,,001,151,2020_Feb_20_1213,spring_faces,3.1.5,60.01818106755324,
condition files/Stage1_1.xlsx,,T2,B2,m,"['c', 'm']","['Clue', 'Monopoly']","[-0.15, 0.5]","[0.15, 0.5]",1,1,,,,,,,,,0,6,6,6,0,2,2,3,,,,,,,,,,,,,,,,,,,,,,,,,,,,,,,,,,,,,,,,,,,,,,,,,,,,,,,670.1432624120007,None,670.1432624120007,None,670.1432624120007,None,m,1,0.687902612000471,671.6772245199991,None,671.6772245199991,None,671.6772245199991,None,672.4293929150008,None,672.4293929150008,None,672.4293929150008,None,672.4293929150008,None,,,,,,,,,,,,,,,,,,,,,,,,,,,,,,,,,,,,,,,,,,,,001,151,2020_Feb_20_1213,spring_faces,3.1.5,60.01818106755324,
condition files/Stage1_1.xlsx,,B1,T2,c,"['c', 'm']","['Clue', 'Monopoly']","[-0.15, 0.5]","[0.15, 0.5]",1,1,,,,,,,,,0,6,6,6,0,3,3,1,,,,,,,,,,,,,,,,,,,,,,,,,,,,,,,,,,,,,,,,,,,,,,,,,,,,,,,674.3934638980008,None,674.3934638980008,None,674.3934638980008,None,c,1,0.6615542319996166,675.9275285629992,None,675.9275285629992,None,675.9275285629992,None,676.6443060509991,None,676.6443060509991,None,676.6443060509991,None,676.6443060509991,None,,,,,,,,,,,,,,,,,,,,,,,,,,,,,,,,,,,,,,,,,,,,001,151,2020_Feb_20_1213,spring_faces,3.1.5,60.01818106755324,
condition files/Stage1_1.xlsx,,B2,T1,m,"['c', 'm']","['Clue', 'Monopoly']","[-0.15, 0.5]","[0.15, 0.5]",1,1,,,,,,,,,0,6,6,6,0,4,4,2,,,,,,,,,,,,,,,,,,,,,,,,,,,,,,,,,,,,,,,,,,,,,,,,,,,,,,,678.6101610379992,None,678.6101610379992,None,678.6101610379992,None,m,1,1.0842727959989134,680.1448451119995,None,680.1448451119995,None,680.1448451119995,None,681.3107947209992,None,681.3107947209992,None,681.3107947209992,None,681.3107947209992,None,,,,,,,,,,,,,,,,,,,,,,,,,,,,,,,,,,,,,,,,,,,,001,151,2020_Feb_20_1213,spring_faces,3.1.5,60.01818106755324,
condition files/Stage1_1.xlsx,,B4,T4,m,"['c', 'm']","['Clue', 'Monopoly']","[-0.15, 0.5]","[0.15, 0.5]",1,1,,,,,,,,,0,6,6,6,0,5,5,7,,,,,,,,,,,,,,,,,,,,,,,,,,,,,,,,,,,,,,,,,,,,,,,,,,,,,,,683.2602517029991,None,683.2602517029991,None,683.2602517029991,None,m,1,0.8035588200000348,684.7935385029996,None,684.7935385029996,None,684.7935385029996,None,685.6600513020003,None,685.6600513020003,None,685.6600513020003,None,685.6600513020003,None,,,,,,,,,,,,,,,,,,,,,,,,,,,,,,,,,,,,,,,,,,,,001,151,2020_Feb_20_1213,spring_faces,3.1.5,60.01818106755324,
condition files/Stage1_1.xlsx,,B3,T3,c,"['c', 'm']","['Clue', 'Monopoly']","[-0.15, 0.5]","[0.15, 0.5]",1,1,,,,,,,,,0,6,6,6,0,6,6,4,,,,,,,,,,,,,,,,,,,,,,,,,,,,,,,,,,,,,,,,,,,,,,,,,,,,,,,687.6268052270007,None,687.6268052270007,None,687.6268052270007,None,c,1,1.1879568670010485,689.1771191520002,None,689.1771191520002,None,689.1771191520002,None,690.429637272,None,690.429637272,None,690.429637272,None,690.429637272,None,,,,,,,,,,,,,,,,,,,,,,,,,,,,,,,,,,,,,,,,,,,,001,151,2020_Feb_20_1213,spring_faces,3.1.5,60.01818106755324,
condition files/Stage1_1.xlsx,,T3,B4,c,"['c', 'm']","['Clue', 'Monopoly']","[-0.15, 0.5]","[0.15, 0.5]",1,1,,,,,,,,,0,6,6,6,0,7,7,5,,,,,,,,,,,,,,,,,,,,,,,,,,,,,,,,,,,,,,,,,,,,,,,,,,,,,,,692.393510373,None,692.393510373,None,692.393510373,None,c,1,0.5662670769997931,693.9268322799999,None,693.9268322799999,None,693.9268322799999,None,694.5437577529992,None,694.5437577529992,None,694.5437577529992,None,694.5437577529992,None,,,,,,,,,,,,,,,,,,,,,,,,,,,,,,,,,,,,,,,,,,,,001,151,2020_Feb_20_1213,spring_faces,3.1.5,60.01818106755324,
condition files/Stage1_2.xlsx,,T4,B4,m,"['c', 'm']","['Clue', 'Monopoly']","[-0.15, 0.5]","[0.15, 0.5]",1,1,,,,,,,,,0,7,7,7,0,0,0,7,,,,,,,,,,,,,,,,,,,,,,,,,,,,,,,,,,,,,,,,,,,,,,,,,,,,,,,696.5265187019995,None,696.5265187019995,None,696.5265187019995,None,m,1,0.6234581990011065,698.061721,None,698.061721,None,698.061721,None,698.7432110240006,None,698.7432110240006,None,698.7432110240006,None,698.7432110240006,None,,,,,,,,,,,,,,,,,,,,,,,,,,,,,,,,,,,,,,,,,,,,001,151,2020_Feb_20_1213,spring_faces,3.1.5,60.01818106755324,
condition files/Stage1_2.xlsx,,B3,T4,m,"['c', 'm']","['Clue', 'Monopoly']","[-0.15, 0.5]","[0.15, 0.5]",1,1,,,,,,,,,0,7,7,7,0,1,1,6,,,,,,,,,,,,,,,,,,,,,,,,,,,,,,,,,,,,,,,,,,,,,,,,,,,,,,,700.7101397059996,None,700.7101397059996,None,700.7101397059996,None,m,1,0.8897588759991777,702.2434173199999,None,702.2434173199999,None,702.2434173199999,None,703.1933977810004,None,703.1933977810004,None,703.1933977810004,None,703.1933977810004,None,,,,,,,,,,,,,,,,,,,,,,,,,,,,,,,,,,,,,,,,,,,,001,151,2020_Feb_20_1213,spring_faces,3.1.5,60.01818106755324,
condition files/Stage1_2.xlsx,,T2,B1,c,"['c', 'm']","['Clue', 'Monopoly']","[-0.15, 0.5]","[0.15, 0.5]",1,1,,,,,,,,,0,7,7,7,0,2,2,1,,,,,,,,,,,,,,,,,,,,,,,,,,,,,,,,,,,,,,,,,,,,,,,,,,,,,,,705.1601066519997,None,705.1601066519997,None,705.1601066519997,None,c,1,0.7909552459987026,706.6942196830005,None,706.6942196830005,None,706.6942196830005,None,707.5606468700007,None,707.5606468700007,None,707.5606468700007,None,707.5606468700007,None,,,,,,,,,,,,,,,,,,,,,,,,,,,,,,,,,,,,,,,,,,,,001,151,2020_Feb_20_1213,spring_faces,3.1.5,60.01818106755324,
condition files/Stage1_2.xlsx,,T3,B3,c,"['c', 'm']","['Clue', 'Monopoly']","[-0.15, 0.5]","[0.15, 0.5]",1,1,,,,,,,,,0,7,7,7,0,3,3,4,,,,,,,,,,,,,,,,,,,,,,,,,,,,,,,,,,,,,,,,,,,,,,,,,,,,,,,709.5098251349991,None,709.5098251349991,None,709.5098251349991,None,c,1,1.5776829269998416,711.0435010019992,None,711.0435010019992,None,711.0435010019992,None,712.6765515459992,None,712.6765515459992,None,712.6765515459992,None,712.6765515459992,None,,,,,,,,,,,,,,,,,,,,,,,,,,,,,,,,,,,,,,,,,,,,001,151,2020_Feb_20_1213,spring_faces,3.1.5,60.01818106755324,
condition files/Stage1_2.xlsx,,B4,T3,c,"['c', 'm']","['Clue', 'Monopoly']","[-0.15, 0.5]","[0.15, 0.5]",1,1,,,,,,,,,0,7,7,7,0,4,4,5,,,,,,,,,,,,,,,,,,,,,,,,,,,,,,,,,,,,,,,,,,,,,,,,,,,,,,,714.6435370910003,None,714.6435370910003,None,714.6435370910003,None,c,1,0.5724670559993683,716.1766526600004,None,716.1766526600004,None,716.1766526600004,None,716.8108310970001,None,716.8108310970001,None,716.8108310970001,None,716.8108310970001,None,,,,,,,,,,,,,,,,,,,,,,,,,,,,,,,,,,,,,,,,,,,,001,151,2020_Feb_20_1213,spring_faces,3.1.5,60.01818106755324,
condition files/Stage1_2.xlsx,,T1,B2,m,"['c', 'm']","['Clue', 'Monopoly']","[-0.15, 0.5]","[0.15, 0.5]",1,1,,,,,,,,,0,7,7,7,0,5,5,2,,,,,,,,,,,,,,,,,,,,,,,,,,,,,,,,,,,,,,,,,,,,,,,,,,,,,,,718.776879686,None,718.776879686,None,718.776879686,None,m,1,0.6790585409999039,720.3100131690007,None,720.3100131690007,None,720.3100131690007,None,721.0449002179994,None,721.0449002179994,None,721.0449002179994,None,721.0449002179994,None,,,,,,,,,,,,,,,,,,,,,,,,,,,,,,,,,,,,,,,,,,,,001,151,2020_Feb_20_1213,spring_faces,3.1.5,60.01818106755324,
condition files/Stage1_2.xlsx,,B1,T1,c,"['c', 'm']","['Clue', 'Monopoly']","[-0.15, 0.5]","[0.15, 0.5]",1,1,,,,,,,,,0,7,7,7,0,6,6,0,,,,,,,,,,,,,,,,,,,,,,,,,,,,,,,,,,,,,,,,,,,,,,,,,,,,,,,723.0102303469994,None,723.0102303469994,None,723.0102303469994,None,c,1,0.7161393289989064,724.5449430820008,None,724.5449430820008,None,724.5449430820008,None,725.3290269059999,None,725.3290269059999,None,725.3290269059999,None,725.3290269059999,None,,,,,,,,,,,,,,,,,,,,,,,,,,,,,,,,,,,,,,,,,,,,001,151,2020_Feb_20_1213,spring_faces,3.1.5,60.01818106755324,
condition files/Stage1_2.xlsx,,B2,T2,m,"['c', 'm']","['Clue', 'Monopoly']","[-0.15, 0.5]","[0.15, 0.5]",1,1,,,,,,,,,0,7,7,7,0,7,7,3,,,,,,,,,,,,,,,,,,,,,,,,,,,,,,,,,,,,,,,,,,,,,,,,,,,,,,,727.2934225749996,None,727.2934225749996,None,727.2934225749996,None,m,1,0.8011958500010223,728.8279240619995,None,728.8279240619995,None,728.8279240619995,None,729.693495513,None,729.693495513,None,729.693495513,None,729.693495513,None,,,,,,,,,,,,,,,,,,,,,,,,,,,,,,,,,,,,,,,,,,,,001,151,2020_Feb_20_1213,spring_faces,3.1.5,60.01818106755324,
condition files/Stage1_1.xlsx,,B2,T1,m,"['c', 'm']","['Clue', 'Monopoly']","[-0.15, 0.5]","[0.15, 0.5]",1,1,,,,,,,,,0,8,8,8,0,0,0,2,,,,,,,,,,,,,,,,,,,,,,,,,,,,,,,,,,,,,,,,,,,,,,,,,,,,,,,731.6767240219997,None,731.6767240219997,None,731.6767240219997,None,m,1,0.8666202980002709,733.2104389479991,None,733.2104389479991,None,733.2104389479991,None,734.1433544930005,None,734.1433544930005,None,734.1433544930005,None,734.1433544930005,None,,,,,,,,,,,,,,,,,,,,,,,,,,,,,,,,,,,,,,,,,,,,001,151,2020_Feb_20_1213,spring_faces,3.1.5,60.01818106755324,
condition files/Stage1_1.xlsx,,B1,T2,c,"['c', 'm']","['Clue', 'Monopoly']","[-0.15, 0.5]","[0.15, 0.5]",1,1,,,,,,,,,0,8,8,8,0,1,1,1,,,,,,,,,,,,,,,,,,,,,,,,,,,,,,,,,,,,,,,,,,,,,,,,,,,,,,,736.109514709,None,736.109514709,None,736.109514709,None,c,1,0.6723260189992288,737.6448427470004,None,737.6448427470004,None,737.6448427470004,None,738.3764032349991,None,738.3764032349991,None,738.3764032349991,None,738.3764032349991,None,,,,,,,,,,,,,,,,,,,,,,,,,,,,,,,,,,,,,,,,,,,,001,151,2020_Feb_20_1213,spring_faces,3.1.5,60.01818106755324,
condition files/Stage1_1.xlsx,,T4,B3,m,"['c', 'm']","['Clue', 'Monopoly']","[-0.15, 0.5]","[0.15, 0.5]",1,1,,,,,,,,,0,8,8,8,0,2,2,6,,,,,,,,,,,,,,,,,,,,,,,,,,,,,,,,,,,,,,,,,,,,,,,,,,,,,,,740.3429994100006,None,740.3429994100006,None,740.3429994100006,None,m,1,0.9988548360015557,741.8781997499991,None,741.8781997499991,None,741.8781997499991,None,742.9446429119998,None,742.9446429119998,None,742.9446429119998,None,742.9446429119998,None,,,,,,,,,,,,,,,,,,,,,,,,,,,,,,,,,,,,,,,,,,,,001,151,2020_Feb_20_1213,spring_faces,3.1.5,60.01818106755324,
condition files/Stage1_1.xlsx,,T1,B1,c,"['c', 'm']","['Clue', 'Monopoly']","[-0.15, 0.5]","[0.15, 0.5]",1,1,,,,,,,,,0,8,8,8,0,3,3,0,,,,,,,,,,,,,,,,,,,,,,,,,,,,,,,,,,,,,,,,,,,,,,,,,,,,,,,744.9101352039997,None,744.9101352039997,None,744.9101352039997,None,c,1,0.7193909239995264,746.4457294660006,None,746.4457294660006,None,746.4457294660006,None,747.2434355589994,None,747.2434355589994,None,747.2434355589994,None,747.2434355589994,None,,,,,,,,,,,,,,,,,,,,,,,,,,,,,,,,,,,,,,,,,,,,001,151,2020_Feb_20_1213,spring_faces,3.1.5,60.01818106755324,
condition files/Stage1_1.xlsx,,T2,B2,m,"['c', 'm']","['Clue', 'Monopoly']","[-0.15, 0.5]","[0.15, 0.5]",1,1,,,,,,,,,0,8,8,8,0,4,4,3,,,,,,,,,,,,,,,,,,,,,,,,,,,,,,,,,,,,,,,,,,,,,,,,,,,,,,,749.1934473639994,None,749.1934473639994,None,749.1934473639994,None,m,1,0.5986197879992687,750.7264924650008,None,750.7264924650008,None,750.7264924650008,None,751.3932944459993,None,751.3932944459993,None,751.3932944459993,None,751.3932944459993,None,,,,,,,,,,,,,,,,,,,,,,,,,,,,,,,,,,,,,,,,,,,,001,151,2020_Feb_20_1213,spring_faces,3.1.5,60.01818106755324,
condition files/Stage1_1.xlsx,,B3,T3,c,"['c', 'm']","['Clue', 'Monopoly']","[-0.15, 0.5]","[0.15, 0.5]",1,1,,,,,,,,,0,8,8,8,0,5,5,4,,,,,,,,,,,,,,,,,,,,,,,,,,,,,,,,,,,,,,,,,,,,,,,,,,,,,,,753.3430935390006,None,753.3430935390006,None,753.3430935390006,None,c,1,0.6403044529997715,754.8768749009996,None,754.8768749009996,None,754.8768749009996,None,755.5773369880008,None,755.5773369880008,None,755.5773369880008,None,755.5773369880008,None,,,,,,,,,,,,,,,,,,,,,,,,,,,,,,,,,,,,,,,,,,,,001,151,2020_Feb_20_1213,spring_faces,3.1.5,60.01818106755324,
condition files/Stage1_1.xlsx,,T3,B4,c,"['c', 'm']","['Clue', 'Monopoly']","[-0.15, 0.5]","[0.15, 0.5]",1,1,,,,,,,,,0,8,8,8,0,6,6,5,,,,,,,,,,,,,,,,,,,,,,,,,,,,,,,,,,,,,,,,,,,,,,,,,,,,,,,757.5435675949993,None,757.5435675949993,None,757.5435675949993,None,c,1,0.5658098469994002,759.0792716270007,None,759.0792716270007,None,759.0792716270007,None,759.7105385020004,None,759.7105385020004,None,759.7105385020004,None,759.7105385020004,None,,,,,,,,,,,,,,,,,,,,,,,,,,,,,,,,,,,,,,,,,,,,001,151,2020_Feb_20_1213,spring_faces,3.1.5,60.01818106755324,
condition files/Stage1_1.xlsx,,B4,T4,m,"['c', 'm']","['Clue', 'Monopoly']","[-0.15, 0.5]","[0.15, 0.5]",1,1,,,,,,,,,0,8,8,8,0,7,7,7,,,,,,,,,,,,,,,,,,,,,,,,,,,,,,,,,,,,,,,,,,,,,,,,,,,,,,,761.6769567219999,None,761.6769567219999,None,761.6769567219999,None,m,1,0.754156265000347,763.2269466679991,None,763.2269466679991,None,763.2269466679991,None,764.0443671510002,None,764.0443671510002,None,764.0443671510002,None,764.0443671510002,None,,,,,,,,,,,,,,,,,,,,,,,,,,,,,,,,,,,,,,,,,,,,001,151,2020_Feb_20_1213,spring_faces,3.1.5,60.01818106755324,
condition files/Stage1_2.xlsx,,T2,B1,c,"['c', 'm']","['Clue', 'Monopoly']","[-0.15, 0.5]","[0.15, 0.5]",1,1,,,,,,,,,0,9,9,9,0,0,0,1,,,,,,,,,,,,,,,,,,,,,,,,,,,,,,,,,,,,,,,,,,,,,,,,,,,,,,,766.0269069940005,None,766.0269069940005,None,766.0269069940005,None,c,1,0.8850570850008808,767.5599963130007,None,767.5599963130007,None,767.5599963130007,None,768.5120036970002,None,768.5120036970002,None,768.5120036970002,None,768.5120036970002,None,,,,,,,,,,,,,,,,,,,,,,,,,,,,,,,,,,,,,,,,,,,,001,151,2020_Feb_20_1213,spring_faces,3.1.5,60.01818106755324,
condition files/Stage1_2.xlsx,,B3,T4,m,"['c', 'm']","['Clue', 'Monopoly']","[-0.15, 0.5]","[0.15, 0.5]",1,1,,,,,,,,,0,9,9,9,0,1,1,6,,,,,,,,,,,,,,,,,,,,,,,,,,,,,,,,,,,,,,,,,,,,,,,,,,,,,,,770.4765752889998,None,770.4765752889998,None,770.4765752889998,None,m,1,0.7538312429987855,772.0113045729995,None,772.0113045729995,None,772.0113045729995,None,772.8277627040006,None,772.8277627040006,None,772.8277627040006,None,772.8277627040006,None,,,,,,,,,,,,,,,,,,,,,,,,,,,,,,,,,,,,,,,,,,,,001,151,2020_Feb_20_1213,spring_faces,3.1.5,60.01818106755324,
condition files/Stage1_2.xlsx,,B2,T2,m,"['c', 'm']","['Clue', 'Monopoly']","[-0.15, 0.5]","[0.15, 0.5]",1,1,,,,,,,,,0,9,9,9,0,2,2,3,,,,,,,,,,,,,,,,,,,,,,,,,,,,,,,,,,,,,,,,,,,,,,,,,,,,,,,774.7934653920001,None,774.7934653920001,None,774.7934653920001,None,m,1,0.7425714119999611,776.3266073350005,None,776.3266073350005,None,776.3266073350005,None,777.1267285529993,None,777.1267285529993,None,777.1267285529993,None,777.1267285529993,None,,,,,,,,,,,,,,,,,,,,,,,,,,,,,,,,,,,,,,,,,,,,001,151,2020_Feb_20_1213,spring_faces,3.1.5,60.01818106755324,
condition files/Stage1_2.xlsx,,T3,B3,c,"['c', 'm']","['Clue', 'Monopoly']","[-0.15, 0.5]","[0.15, 0.5]",1,1,,,,,,,,,0,9,9,9,0,3,3,4,,,,,,,,,,,,,,,,,,,,,,,,,,,,,,,,,,,,,,,,,,,,,,,,,,,,,,,779.0934937769998,None,779.0934937769998,None,779.0934937769998,None,c,1,0.7783336769989546,780.6267497360004,None,780.6267497360004,None,780.6267497360004,None,781.4623568290008,None,781.4623568290008,None,781.4623568290008,None,781.4623568290008,None,,,,,,,,,,,,,,,,,,,,,,,,,,,,,,,,,,,,,,,,,,,,001,151,2020_Feb_20_1213,spring_faces,3.1.5,60.01818106755324,
condition files/Stage1_2.xlsx,,B4,T3,c,"['c', 'm']","['Clue', 'Monopoly']","[-0.15, 0.5]","[0.15, 0.5]",1,1,,,,,,,,,0,9,9,9,0,4,4,5,,,,,,,,,,,,,,,,,,,,,,,,,,,,,,,,,,,,,,,,,,,,,,,,,,,,,,,783.4262249120002,None,783.4262249120002,None,783.4262249120002,None,c,1,0.4440042969999922,784.9610895019996,None,784.9610895019996,None,784.9610895019996,None,785.4596881010002,None,785.4596881010002,None,785.4596881010002,None,785.4596881010002,None,,,,,,,,,,,,,,,,,,,,,,,,,,,,,,,,,,,,,,,,,,,,001,151,2020_Feb_20_1213,spring_faces,3.1.5,60.01818106755324,
condition files/Stage1_2.xlsx,,T4,B4,m,"['c', 'm']","['Clue', 'Monopoly']","[-0.15, 0.5]","[0.15, 0.5]",1,1,,,,,,,,,0,9,9,9,0,5,5,7,,,,,,,,,,,,,,,,,,,,,,,,,,,,,,,,,,,,,,,,,,,,,,,,,,,,,,,787.4261948229996,None,787.4261948229996,None,787.4261948229996,None,m,1,0.6191894589992444,788.9619383230001,None,788.9619383230001,None,788.9619383230001,None,789.6443931270005,None,789.6443931270005,None,789.6443931270005,None,789.6443931270005,None,,,,,,,,,,,,,,,,,,,,,,,,,,,,,,,,,,,,,,,,,,,,001,151,2020_Feb_20_1213,spring_faces,3.1.5,60.01818106755324,
condition files/Stage1_2.xlsx,,B1,T1,c,"['c', 'm']","['Clue', 'Monopoly']","[-0.15, 0.5]","[0.15, 0.5]",1,1,,,,,,,,,0,9,9,9,0,6,6,0,,,,,,,,,,,,,,,,,,,,,,,,,,,,,,,,,,,,,,,,,,,,,,,,,,,,,,,791.6101638790005,None,791.6101638790005,None,791.6101638790005,None,c,1,0.6297506609989796,793.1433749890002,None,793.1433749890002,None,793.1433749890002,None,793.8437614949999,None,793.8437614949999,None,793.8437614949999,None,793.8437614949999,None,,,,,,,,,,,,,,,,,,,,,,,,,,,,,,,,,,,,,,,,,,,,001,151,2020_Feb_20_1213,spring_faces,3.1.5,60.01818106755324,
condition files/Stage1_2.xlsx,,T1,B2,m,"['c', 'm']","['Clue', 'Monopoly']","[-0.15, 0.5]","[0.15, 0.5]",1,1,,,,,,,,,0,9,9,9,0,7,7,2,,,,,,,,,,,,,,,,,,,,,,,,,,,,,,,,,,,,,,,,,,,,,,,,,,,,,,,795.7935355089994,None,795.7935355089994,None,795.7935355089994,None,m,1,0.510144758000024,797.3270114049992,None,797.3270114049992,None,797.3270114049992,None,797.8964195169992,None,797.8964195169992,None,797.8964195169992,None,797.8964195169992,None,,,,,,,,,,,,,,,,,,,,,,,,,,,,,,,,,,,,,,,,,,,,001,151,2020_Feb_20_1213,spring_faces,3.1.5,60.01818106755324,
condition files/Stage1_1.xlsx,,T2,B2,m,"['c', 'm']","['Clue', 'Monopoly']","[-0.15, 0.5]","[0.15, 0.5]",1,1,,,,,,,,,0,10,10,10,0,0,0,3,,,,,,,,,,,,,,,,,,,,,,,,,,,,,,,,,,,,,,,,,,,,,,,,,,,,,,,799.8773983579995,None,799.8773983579995,None,799.8773983579995,None,m,1,0.39537420899978315,801.4097260170001,None,801.4097260170001,None,801.4097260170001,None,801.8601770860005,None,801.8601770860005,None,801.8601770860005,None,801.8601770860005,None,,,,,,,,,,,,,,,,,,,,,,,,,,,,,,,,,,,,,,,,,,,,001,151,2020_Feb_20_1213,spring_faces,3.1.5,60.01818106755324,
condition files/Stage1_1.xlsx,,B2,T1,m,"['c', 'm']","['Clue', 'Monopoly']","[-0.15, 0.5]","[0.15, 0.5]",1,1,,,,,,,,,0,10,10,10,0,1,1,2,,,,,,,,,,,,,,,,,,,,,,,,,,,,,,,,,,,,,,,,,,,,,,,,,,,,,,,803.8268803789997,None,803.8268803789997,None,803.8268803789997,None,m,1,0.7489438749998953,805.3601918469994,None,805.3601918469994,None,805.3601918469994,None,806.1603573140001,None,806.1603573140001,None,806.1603573140001,None,806.1603573140001,None,,,,,,,,,,,,,,,,,,,,,,,,,,,,,,,,,,,,,,,,,,,,001,151,2020_Feb_20_1213,spring_faces,3.1.5,60.01818106755324,
condition files/Stage1_1.xlsx,,T4,B3,m,"['c', 'm']","['Clue', 'Monopoly']","[-0.15, 0.5]","[0.15, 0.5]",1,1,,,,,,,,,0,10,10,10,0,2,2,6,,,,,,,,,,,,,,,,,,,,,,,,,,,,,,,,,,,,,,,,,,,,,,,,,,,,,,,808.1268302209992,None,808.1268302209992,None,808.1268302209992,None,m,1,1.056603114000609,809.6605585239995,None,809.6605585239995,None,809.6605585239995,None,810.7768958119996,None,810.7768958119996,None,810.7768958119996,None,810.7768958119996,None,,,,,,,,,,,,,,,,,,,,,,,,,,,,,,,,,,,,,,,,,,,,001,151,2020_Feb_20_1213,spring_faces,3.1.5,60.01818106755324,
condition files/Stage1_1.xlsx,,B4,T4,m,"['c', 'm']","['Clue', 'Monopoly']","[-0.15, 0.5]","[0.15, 0.5]",1,1,,,,,,,,,0,10,10,10,0,3,3,7,,,,,,,,,,,,,,,,,,,,,,,,,,,,,,,,,,,,,,,,,,,,,,,,,,,,,,,812.7435542769999,None,812.7435542769999,None,812.7435542769999,None,m,1,0.4405274879991339,814.2766241270001,None,814.2766241270001,None,814.2766241270001,None,814.7774856260003,None,814.7774856260003,None,814.7774856260003,None,814.7774856260003,None,,,,,,,,,,,,,,,,,,,,,,,,,,,,,,,,,,,,,,,,,,,,001,151,2020_Feb_20_1213,spring_faces,3.1.5,60.01818106755324,
condition files/Stage1_1.xlsx,,T3,B4,c,"['c', 'm']","['Clue', 'Monopoly']","[-0.15, 0.5]","[0.15, 0.5]",1,1,,,,,,,,,0,10,10,10,0,4,4,5,,,,,,,,,,,,,,,,,,,,,,,,,,,,,,,,,,,,,,,,,,,,,,,,,,,,,,,816.7433226630001,None,816.7433226630001,None,816.7433226630001,None,c,1,1.2548136709992832,818.2783630550002,None,818.2783630550002,None,818.2783630550002,None,819.5946848109998,None,819.5946848109998,None,819.5946848109998,None,819.5946848109998,None,,,,,,,,,,,,,,,,,,,,,,,,,,,,,,,,,,,,,,,,,,,,001,151,2020_Feb_20_1213,spring_faces,3.1.5,60.01818106755324,
condition files/Stage1_1.xlsx,,T1,B1,c,"['c', 'm']","['Clue', 'Monopoly']","[-0.15, 0.5]","[0.15, 0.5]",1,1,,,,,,,,,0,10,10,10,0,5,5,0,,,,,,,,,,,,,,,,,,,,,,,,,,,,,,,,,,,,,,,,,,,,,,,,,,,,,,,821.5604298479993,None,821.5604298479993,None,821.5604298479993,None,c,1,0.8718657350000285,823.0932715430008,None,823.0932715430008,None,823.0932715430008,None,824.026967926,None,824.026967926,None,824.026967926,None,824.026967926,None,,,,,,,,,,,,,,,,,,,,,,,,,,,,,,,,,,,,,,,,,,,,001,151,2020_Feb_20_1213,spring_faces,3.1.5,60.01818106755324,
condition files/Stage1_1.xlsx,,B1,T2,c,"['c', 'm']","['Clue', 'Monopoly']","[-0.15, 0.5]","[0.15, 0.5]",1,1,,,,,,,,,0,10,10,10,0,6,6,1,,,,,,,,,,,,,,,,,,,,,,,,,,,,,,,,,,,,,,,,,,,,,,,,,,,,,,,825.9935995899996,None,825.9935995899996,None,825.9935995899996,None,c,1,1.0307489309998346,827.5264642679995,None,827.5264642679995,None,827.5264642679995,None,828.6103602380008,None,828.6103602380008,None,828.6103602380008,None,828.6103602380008,None,,,,,,,,,,,,,,,,,,,,,,,,,,,,,,,,,,,,,,,,,,,,001,151,2020_Feb_20_1213,spring_faces,3.1.5,60.01818106755324,
condition files/Stage1_1.xlsx,,B3,T3,c,"['c', 'm']","['Clue', 'Monopoly']","[-0.15, 0.5]","[0.15, 0.5]",1,1,,,,,,,,,0,10,10,10,0,7,7,4,,,,,,,,,,,,,,,,,,,,,,,,,,,,,,,,,,,,,,,,,,,,,,,,,,,,,,,830.5762422129992,None,830.5762422129992,None,830.5762422129992,None,c,1,0.782988746999763,832.1101388619991,None,832.1101388619991,None,832.1101388619991,None,832.9431930789997,None,832.9431930789997,None,832.9431930789997,None,832.9431930789997,None,,,,,,,,,,,,,,,,,,,,,,,,,,,,,,,,,,,,,,,,,,,,001,151,2020_Feb_20_1213,spring_faces,3.1.5,60.01818106755324,
condition files/Stage1_2.xlsx,,B3,T4,m,"['c', 'm']","['Clue', 'Monopoly']","[-0.15, 0.5]","[0.15, 0.5]",1,1,,,,,,,,,0,11,11,11,0,0,0,6,,,,,,,,,,,,,,,,,,,,,,,,,,,,,,,,,,,,,,,,,,,,,,,,,,,,,,,834.9273590350003,None,834.9273590350003,None,834.9273590350003,None,m,1,0.497254478999821,836.4599485119998,None,836.4599485119998,None,836.4599485119998,None,837.0107867900006,None,837.0107867900006,None,837.0107867900006,None,837.0107867900006,None,,,,,,,,,,,,,,,,,,,,,,,,,,,,,,,,,,,,,,,,,,,,001,151,2020_Feb_20_1213,spring_faces,3.1.5,60.01818106755324,
condition files/Stage1_2.xlsx,,T1,B2,m,"['c', 'm']","['Clue', 'Monopoly']","[-0.15, 0.5]","[0.15, 0.5]",1,1,,,,,,,,,0,11,11,11,0,1,1,2,,,,,,,,,,,,,,,,,,,,,,,,,,,,,,,,,,,,,,,,,,,,,,,,,,,,,,,838.9768140960005,None,838.9768140960005,None,838.9768140960005,None,m,1,1.37530974999936,840.5098509159998,None,840.5098509159998,None,840.5098509159998,None,841.9437441329992,None,841.9437441329992,None,841.9437441329992,None,841.9437441329992,None,,,,,,,,,,,,,,,,,,,,,,,,,,,,,,,,,,,,,,,,,,,,001,151,2020_Feb_20_1213,spring_faces,3.1.5,60.01818106755324,
condition files/Stage1_2.xlsx,,T4,B4,m,"['c', 'm']","['Clue', 'Monopoly']","[-0.15, 0.5]","[0.15, 0.5]",1,1,,,,,,,,,0,11,11,11,0,2,2,7,,,,,,,,,,,,,,,,,,,,,,,,,,,,,,,,,,,,,,,,,,,,,,,,,,,,,,,843.9100735449992,None,843.9100735449992,None,843.9100735449992,None,m,1,0.7457632650002779,845.4433338340004,None,845.4433338340004,None,845.4433338340004,None,846.2437174400002,None,846.2437174400002,None,846.2437174400002,None,846.2437174400002,None,,,,,,,,,,,,,,,,,,,,,,,,,,,,,,,,,,,,,,,,,,,,001,151,2020_Feb_20_1213,spring_faces,3.1.5,60.01818106755324,
condition files/Stage1_2.xlsx,,B1,T1,c,"['c', 'm']","['Clue', 'Monopoly']","[-0.15, 0.5]","[0.15, 0.5]",1,1,,,,,,,,,0,11,11,11,0,3,3,0,,,,,,,,,,,,,,,,,,,,,,,,,,,,,,,,,,,,,,,,,,,,,,,,,,,,,,,848.2098456940003,None,848.2098456940003,None,848.2098456940003,None,c,1,0.8932903620006982,849.7438868000008,None,849.7438868000008,None,849.7438868000008,None,850.6955833339998,None,850.6955833339998,None,850.6955833339998,None,850.6955833339998,None,,,,,,,,,,,,,,,,,,,,,,,,,,,,,,,,,,,,,,,,,,,,001,151,2020_Feb_20_1213,spring_faces,3.1.5,60.01818106755324,
condition files/Stage1_2.xlsx,,T3,B3,c,"['c', 'm']","['Clue', 'Monopoly']","[-0.15, 0.5]","[0.15, 0.5]",1,1,,,,,,,,,0,11,11,11,0,4,4,4,,,,,,,,,,,,,,,,,,,,,,,,,,,,,,,,,,,,,,,,,,,,,,,,,,,,,,,852.6603442100004,None,852.6603442100004,None,852.6603442100004,None,c,1,0.77945562000059,854.1936634459998,None,854.1936634459998,None,854.1936634459998,None,855.0272744279991,None,855.0272744279991,None,855.0272744279991,None,855.0272744279991,None,,,,,,,,,,,,,,,,,,,,,,,,,,,,,,,,,,,,,,,,,,,,001,151,2020_Feb_20_1213,spring_faces,3.1.5,60.01818106755324,
condition files/Stage1_2.xlsx,,B4,T3,c,"['c', 'm']","['Clue', 'Monopoly']","[-0.15, 0.5]","[0.15, 0.5]",1,1,,,,,,,,,0,11,11,11,0,5,5,5,,,,,,,,,,,,,,,,,,,,,,,,,,,,,,,,,,,,,,,,,,,,,,,,,,,,,,,856.9934382169995,None,856.9934382169995,None,856.9934382169995,None,c,1,0.670139724999899,858.5269845389994,None,858.5269845389994,None,858.5269845389994,None,859.2604089889992,None,859.2604089889992,None,859.2604089889992,None,859.2604089889992,None,,,,,,,,,,,,,,,,,,,,,,,,,,,,,,,,,,,,,,,,,,,,001,151,2020_Feb_20_1213,spring_faces,3.1.5,60.01818106755324,
condition files/Stage1_2.xlsx,,T2,B1,c,"['c', 'm']","['Clue', 'Monopoly']","[-0.15, 0.5]","[0.15, 0.5]",1,1,,,,,,,,,0,11,11,11,0,6,6,1,,,,,,,,,,,,,,,,,,,,,,,,,,,,,,,,,,,,,,,,,,,,,,,,,,,,,,,861.2268175000008,None,861.2268175000008,None,861.2268175000008,None,c,1,0.7543902870002057,862.7627906479993,None,862.7627906479993,None,862.7627906479993,None,863.5765128719995,None,863.5765128719995,None,863.5765128719995,None,863.5765128719995,None,,,,,,,,,,,,,,,,,,,,,,,,,,,,,,,,,,,,,,,,,,,,001,151,2020_Feb_20_1213,spring_faces,3.1.5,60.01818106755324,
condition files/Stage1_2.xlsx,,B2,T2,m,"['c', 'm']","['Clue', 'Monopoly']","[-0.15, 0.5]","[0.15, 0.5]",1,1,,,,,,,,,0,11,11,11,0,7,7,3,,,,,,,,,,,,,,,,,,,,,,,,,,,,,,,,,,,,,,,,,,,,,,,,,,,,,,,865.5434076000001,None,865.5434076000001,None,865.5434076000001,None,m,1,0.712290829000267,867.0768122810005,None,867.0768122810005,None,867.0768122810005,None,867.860764134999,None,867.860764134999,None,867.860764134999,None,867.860764134999,None,,,,,,,,,,,,,,,,,,,,,,,,,,,,,,,,,,,,,,,,,,,,001,151,2020_Feb_20_1213,spring_faces,3.1.5,60.01818106755324,
,,,,,,,,,,,,,,,,,,,,,,,,,,,,,,,,,,,,,,,,,,,,,,,,,,,,,,,,,,,,,,,,,,,,,,,,,,,,,,,,,,,,,,,,,,,,,,,,,,,,,,,,,,,,,,,,869.8271222460007,None,space,8.210276035999414,874.8269072229996,None,,,,,,,,,,,,,,,,,,,,,,,,,,,,,,001,151,2020_Feb_20_1213,spring_faces,3.1.5,60.01818106755324,
condition files/Stage2_1.xlsx,,T1,B1,s,"['s', 'r']","['Stratego', 'Risk']","[-0.15, 0.5]","[0.15, 0.5]",1,1,,,,,,,,,,,,,,,,,0,0,0,0,0,0,0,2,,,,,,,,,,,,,,,,,,,,,,,,,,,,,,,,,,,,,,,,,,,,,,,883.0936205489998,None,883.0936205489998,None,883.0936205489998,None,s,1,0.8577668699999776,884.5954084950008,None,884.5954084950008,None,884.5954084950008,None,885.5100868749996,None,885.5100868749996,None,885.5100868749996,None,885.5100868749996,None,,,,,,,,,,,,,,,874.8269072229996,None,,,,,,,,,,,,,,,,,,,,,,,,,,,,001,151,2020_Feb_20_1213,spring_faces,3.1.5,60.01818106755324,
condition files/Stage2_1.xlsx,,B4,T4,r,"['s', 'r']","['Stratego', 'Risk']","[-0.15, 0.5]","[0.15, 0.5]",1,1,,,,,,,,,,,,,,,,,0,0,0,0,0,1,1,5,,,,,,,,,,,,,,,,,,,,,,,,,,,,,,,,,,,,,,,,,,,,,,,887.4768510989998,None,887.4768510989998,None,887.4768510989998,None,r,1,1.2903813199991419,889.0108054640004,None,889.0108054640004,None,889.0108054640004,None,890.3604111669993,None,890.3604111669993,None,890.3604111669993,None,890.3604111669993,None,,,,,,,,,,,,,,,,,,,,,,,,,,,,,,,,,,,,,,,,,,,,001,151,2020_Feb_20_1213,spring_faces,3.1.5,60.01818106755324,
condition files/Stage2_1.xlsx,,T5,B5,s,"['s', 'r']","['Stratego', 'Risk']","[-0.15, 0.5]","[0.15, 0.5]",1,1,,,,,,,,,,,,,,,,,0,0,0,0,0,2,2,0,,,,,,,,,,,,,,,,,,,,,,,,,,,,,,,,,,,,,,,,,,,,,,,892.3268726690003,None,892.3268726690003,None,892.3268726690003,None,s,1,2.1667556979991787,893.8623522679991,None,893.8623522679991,None,893.8623522679991,None,896.093861198,None,896.093861198,None,896.093861198,None,896.093861198,None,,,,,,,,,,,,,,,,,,,,,,,,,,,,,,,,,,,,,,,,,,,,001,151,2020_Feb_20_1213,spring_faces,3.1.5,60.01818106755324,
condition files/Stage2_1.xlsx,,B6,T6,r,"['s', 'r']","['Stratego', 'Risk']","[-0.15, 0.5]","[0.15, 0.5]",1,1,,,,,,,,,,,,,,,,,0,0,0,0,0,3,3,1,,,,,,,,,,,,,,,,,,,,,,,,,,,,,,,,,,,,,,,,,,,,,,,898.0601691899992,None,898.0601691899992,None,898.0601691899992,None,r,1,1.0417216130008455,899.5954620289995,None,899.5954620289995,None,899.5954620289995,None,900.6958745869997,None,900.6958745869997,None,900.6958745869997,None,900.6958745869997,None,,,,,,,,,,,,,,,,,,,,,,,,,,,,,,,,,,,,,,,,,,,,001,151,2020_Feb_20_1213,spring_faces,3.1.5,60.01818106755324,
condition files/Stage2_1.xlsx,,B2,T2,r,"['s', 'r']","['Stratego', 'Risk']","[-0.15, 0.5]","[0.15, 0.5]",1,1,,,,,,,,,,,,,,,,,0,0,0,0,0,4,4,3,,,,,,,,,,,,,,,,,,,,,,,,,,,,,,,,,,,,,,,,,,,,,,,902.6601938980002,None,902.6601938980002,None,902.6601938980002,None,s,0,0.747916468000767,904.1931821350008,None,904.1931821350008,None,904.1931821350008,None,904.9936955630001,None,904.9936955630001,None,904.9936955630001,None,904.9936955630001,None,,,,,,,,,,,,,,,,,,,,,,,,,,,,,,,,,,,,,,,,,,,,001,151,2020_Feb_20_1213,spring_faces,3.1.5,60.01818106755324,
condition files/Stage2_1.xlsx,,T3,B3,s,"['s', 'r']","['Stratego', 'Risk']","[-0.15, 0.5]","[0.15, 0.5]",1,1,,,,,,,,,,,,,,,,,0,0,0,0,0,5,5,4,,,,,,,,,,,,,,,,,,,,,,,,,,,,,,,,,,,,,,,,,,,,,,,906.9601446310007,None,906.9601446310007,None,906.9601446310007,None,s,1,0.8451083210002253,908.4960055079991,None,908.4960055079991,None,908.4960055079991,None,909.3945981239995,None,909.3945981239995,None,909.3945981239995,None,909.3945981239995,None,,,,,,,,,,,,,,,,,,,,,,,,,,,,,,,,,,,,,,,,,,,,001,151,2020_Feb_20_1213,spring_faces,3.1.5,60.01818106755324,
condition files/Stage2_2.xlsx,,T4,B4,r,"['s', 'r']","['Stratego', 'Risk']","[-0.15, 0.5]","[0.15, 0.5]",1,1,,,,,,,,,,,,,,,,,0,1,1,1,0,0,0,5,,,,,,,,,,,,,,,,,,,,,,,,,,,,,,,,,,,,,,,,,,,,,,,911.3773783939996,None,911.3773783939996,None,911.3773783939996,None,r,1,1.3272353110005497,912.9099486029991,None,912.9099486029991,None,912.9099486029991,None,914.3103707560003,None,914.3103707560003,None,914.3103707560003,None,914.3103707560003,None,,,,,,,,,,,,,,,,,,,,,,,,,,,,,,,,,,,,,,,,,,,,001,151,2020_Feb_20_1213,spring_faces,3.1.5,60.01818106755324,
condition files/Stage2_2.xlsx,,T6,B6,r,"['s', 'r']","['Stratego', 'Risk']","[-0.15, 0.5]","[0.15, 0.5]",1,1,,,,,,,,,,,,,,,,,0,1,1,1,0,1,1,1,,,,,,,,,,,,,,,,,,,,,,,,,,,,,,,,,,,,,,,,,,,,,,,916.2602261989996,None,916.2602261989996,None,916.2602261989996,None,r,1,1.2912740749998193,917.7939071220007,None,917.7939071220007,None,917.7939071220007,None,919.1432027249994,None,919.1432027249994,None,919.1432027249994,None,919.1432027249994,None,,,,,,,,,,,,,,,,,,,,,,,,,,,,,,,,,,,,,,,,,,,,001,151,2020_Feb_20_1213,spring_faces,3.1.5,60.01818106755324,
condition files/Stage2_2.xlsx,,B5,T5,s,"['s', 'r']","['Stratego', 'Risk']","[-0.15, 0.5]","[0.15, 0.5]",1,1,,,,,,,,,,,,,,,,,0,1,1,1,0,2,2,0,,,,,,,,,,,,,,,,,,,,,,,,,,,,,,,,,,,,,,,,,,,,,,,921.1101542420001,None,921.1101542420001,None,921.1101542420001,None,r,0,0.6643772759998683,922.6607120440003,None,922.6607120440003,None,922.6607120440003,None,923.3770910639996,None,923.3770910639996,None,923.3770910639996,None,923.3770910639996,None,,,,,,,,,,,,,,,,,,,,,,,,,,,,,,,,,,,,,,,,,,,,001,151,2020_Feb_20_1213,spring_faces,3.1.5,60.01818106755324,
condition files/Stage2_2.xlsx,,B3,T3,s,"['s', 'r']","['Stratego', 'Risk']","[-0.15, 0.5]","[0.15, 0.5]",1,1,,,,,,,,,,,,,,,,,0,1,1,1,0,3,3,4,,,,,,,,,,,,,,,,,,,,,,,,,,,,,,,,,,,,,,,,,,,,,,,925.3435299320008,None,925.3435299320008,None,925.3435299320008,None,s,1,1.4554742079999414,926.8936430390004,None,926.8936430390004,None,926.8936430390004,None,928.4101331620004,None,928.4101331620004,None,928.4101331620004,None,928.4101331620004,None,,,,,,,,,,,,,,,,,,,,,,,,,,,,,,,,,,,,,,,,,,,,001,151,2020_Feb_20_1213,spring_faces,3.1.5,60.01818106755324,
condition files/Stage2_2.xlsx,,B1,T1,s,"['s', 'r']","['Stratego', 'Risk']","[-0.15, 0.5]","[0.15, 0.5]",1,1,,,,,,,,,,,,,,,,,0,1,1,1,0,4,4,2,,,,,,,,,,,,,,,,,,,,,,,,,,,,,,,,,,,,,,,,,,,,,,,930.3768429579995,None,930.3768429579995,None,930.3768429579995,None,s,1,1.6861979870009236,931.9269131620003,None,931.9269131620003,None,931.9269131620003,None,933.6767840480006,None,933.6767840480006,None,933.6767840480006,None,933.6767840480006,None,,,,,,,,,,,,,,,,,,,,,,,,,,,,,,,,,,,,,,,,,,,,001,151,2020_Feb_20_1213,spring_faces,3.1.5,60.01818106755324,
condition files/Stage2_2.xlsx,,T2,B2,r,"['s', 'r']","['Stratego', 'Risk']","[-0.15, 0.5]","[0.15, 0.5]",1,1,,,,,,,,,,,,,,,,,0,1,1,1,0,5,5,3,,,,,,,,,,,,,,,,,,,,,,,,,,,,,,,,,,,,,,,,,,,,,,,935.64340404,None,935.64340404,None,935.64340404,None,r,1,1.489757887999076,937.1794268699996,None,937.1794268699996,None,937.1794268699996,None,938.7266469419992,None,938.7266469419992,None,938.7266469419992,None,938.7266469419992,None,,,,,,,,,,,,,,,,,,,,,,,,,,,,,,,,,,,,,,,,,,,,001,151,2020_Feb_20_1213,spring_faces,3.1.5,60.01818106755324,
condition files/Stage2_1.xlsx,,B2,T2,r,"['s', 'r']","['Stratego', 'Risk']","[-0.15, 0.5]","[0.15, 0.5]",1,1,,,,,,,,,,,,,,,,,0,2,2,2,0,0,0,3,,,,,,,,,,,,,,,,,,,,,,,,,,,,,,,,,,,,,,,,,,,,,,,940.7103408889998,None,940.7103408889998,None,940.7103408889998,None,r,1,0.6655697470014275,942.2435345310005,None,942.2435345310005,None,942.2435345310005,None,942.960475849999,None,942.960475849999,None,942.960475849999,None,942.960475849999,None,,,,,,,,,,,,,,,,,,,,,,,,,,,,,,,,,,,,,,,,,,,,001,151,2020_Feb_20_1213,spring_faces,3.1.5,60.01818106755324,
condition files/Stage2_1.xlsx,,T3,B3,s,"['s', 'r']","['Stratego', 'Risk']","[-0.15, 0.5]","[0.15, 0.5]",1,1,,,,,,,,,,,,,,,,,0,2,2,2,0,1,1,4,,,,,,,,,,,,,,,,,,,,,,,,,,,,,,,,,,,,,,,,,,,,,,,944.9267943520008,None,944.9267943520008,None,944.9267943520008,None,s,1,0.8482156139998551,946.4768858820007,None,946.4768858820007,None,946.4768858820007,None,947.3941858050002,None,947.3941858050002,None,947.3941858050002,None,947.3941858050002,None,,,,,,,,,,,,,,,,,,,,,,,,,,,,,,,,,,,,,,,,,,,,001,151,2020_Feb_20_1213,spring_faces,3.1.5,60.01818106755324,
condition files/Stage2_1.xlsx,,B4,T4,r,"['s', 'r']","['Stratego', 'Risk']","[-0.15, 0.5]","[0.15, 0.5]",1,1,,,,,,,,,,,,,,,,,0,2,2,2,0,2,2,5,,,,,,,,,,,,,,,,,,,,,,,,,,,,,,,,,,,,,,,,,,,,,,,949.3433606260005,None,949.3433606260005,None,949.3433606260005,None,r,1,1.0243841800001974,950.8767996299994,None,950.8767996299994,None,950.8767996299994,None,951.959924368999,None,951.959924368999,None,951.959924368999,None,951.959924368999,None,,,,,,,,,,,,,,,,,,,,,,,,,,,,,,,,,,,,,,,,,,,,001,151,2020_Feb_20_1213,spring_faces,3.1.5,60.01818106755324,
condition files/Stage2_1.xlsx,,T1,B1,s,"['s', 'r']","['Stratego', 'Risk']","[-0.15, 0.5]","[0.15, 0.5]",1,1,,,,,,,,,,,,,,,,,0,2,2,2,0,3,3,2,,,,,,,,,,,,,,,,,,,,,,,,,,,,,,,,,,,,,,,,,,,,,,,953.9263564470002,None,953.9263564470002,None,953.9263564470002,None,s,1,0.7927693530000397,955.4603963499994,None,955.4603963499994,None,955.4603963499994,None,956.3107653030002,None,956.3107653030002,None,956.3107653030002,None,956.3107653030002,None,,,,,,,,,,,,,,,,,,,,,,,,,,,,,,,,,,,,,,,,,,,,001,151,2020_Feb_20_1213,spring_faces,3.1.5,60.01818106755324,
condition files/Stage2_1.xlsx,,B6,T6,r,"['s', 'r']","['Stratego', 'Risk']","[-0.15, 0.5]","[0.15, 0.5]",1,1,,,,,,,,,,,,,,,,,0,2,2,2,0,4,4,1,,,,,,,,,,,,,,,,,,,,,,,,,,,,,,,,,,,,,,,,,,,,,,,958.2767893599994,None,958.2767893599994,None,958.2767893599994,None,r,1,0.6826433730002464,959.8104728550006,None,959.8104728550006,None,959.8104728550006,None,960.5604160490002,None,960.5604160490002,None,960.5604160490002,None,960.5604160490002,None,,,,,,,,,,,,,,,,,,,,,,,,,,,,,,,,,,,,,,,,,,,,001,151,2020_Feb_20_1213,spring_faces,3.1.5,60.01818106755324,
condition files/Stage2_1.xlsx,,T5,B5,s,"['s', 'r']","['Stratego', 'Risk']","[-0.15, 0.5]","[0.15, 0.5]",1,1,,,,,,,,,,,,,,,,,0,2,2,2,0,5,5,0,,,,,,,,,,,,,,,,,,,,,,,,,,,,,,,,,,,,,,,,,,,,,,,962.5102043860006,None,962.5102043860006,None,962.5102043860006,None,r,0,1.4720750639990001,964.0450869399992,None,964.0450869399992,None,964.0450869399992,None,965.5781975209993,None,965.5781975209993,None,965.5781975209993,None,965.5781975209993,None,,,,,,,,,,,,,,,,,,,,,,,,,,,,,,,,,,,,,,,,,,,,001,151,2020_Feb_20_1213,spring_faces,3.1.5,60.01818106755324,
condition files/Stage2_2.xlsx,,T4,B4,r,"['s', 'r']","['Stratego', 'Risk']","[-0.15, 0.5]","[0.15, 0.5]",1,1,,,,,,,,,,,,,,,,,0,3,3,3,0,0,0,5,,,,,,,,,,,,,,,,,,,,,,,,,,,,,,,,,,,,,,,,,,,,,,,967.5598137630004,None,967.5598137630004,None,967.5598137630004,None,r,1,1.0313684550001199,969.1097445609994,None,969.1097445609994,None,969.1097445609994,None,970.1964617819995,None,970.1964617819995,None,970.1964617819995,None,970.1964617819995,None,,,,,,,,,,,,,,,,,,,,,,,,,,,,,,,,,,,,,,,,,,,,001,151,2020_Feb_20_1213,spring_faces,3.1.5,60.01818106755324,
condition files/Stage2_2.xlsx,,B1,T1,s,"['s', 'r']","['Stratego', 'Risk']","[-0.15, 0.5]","[0.15, 0.5]",1,1,,,,,,,,,,,,,,,,,0,3,3,3,0,1,1,2,,,,,,,,,,,,,,,,,,,,,,,,,,,,,,,,,,,,,,,,,,,,,,,972.1603083080008,None,972.1603083080008,None,972.1603083080008,None,s,1,0.7512602450005943,973.6938006380005,None,973.6938006380005,None,973.6938006380005,None,974.5114434219995,None,974.5114434219995,None,974.5114434219995,None,974.5114434219995,None,,,,,,,,,,,,,,,,,,,,,,,,,,,,,,,,,,,,,,,,,,,,001,151,2020_Feb_20_1213,spring_faces,3.1.5,60.01818106755324,
condition files/Stage2_2.xlsx,,T6,B6,r,"['s', 'r']","['Stratego', 'Risk']","[-0.15, 0.5]","[0.15, 0.5]",1,1,,,,,,,,,,,,,,,,,0,3,3,3,0,2,2,1,,,,,,,,,,,,,,,,,,,,,,,,,,,,,,,,,,,,,,,,,,,,,,,976.4770805349999,None,976.4770805349999,None,976.4770805349999,None,r,1,1.1219314869995287,978.0271816429995,None,978.0271816429995,None,978.0271816429995,None,979.2125577290008,None,979.2125577290008,None,979.2125577290008,None,979.2125577290008,None,,,,,,,,,,,,,,,,,,,,,,,,,,,,,,,,,,,,,,,,,,,,001,151,2020_Feb_20_1213,spring_faces,3.1.5,60.01818106755324,
condition files/Stage2_2.xlsx,,T2,B2,r,"['s', 'r']","['Stratego', 'Risk']","[-0.15, 0.5]","[0.15, 0.5]",1,1,,,,,,,,,,,,,,,,,0,3,3,3,0,3,3,3,,,,,,,,,,,,,,,,,,,,,,,,,,,,,,,,,,,,,,,,,,,,,,,981.1769099489993,None,981.1769099489993,None,981.1769099489993,None,r,1,3.604798321000999,982.7123505540003,None,982.7123505540003,None,982.7123505540003,None,986.3771536269996,None,986.3771536269996,None,986.3771536269996,None,986.3771536269996,None,,,,,,,,,,,,,,,,,,,,,,,,,,,,,,,,,,,,,,,,,,,,001,151,2020_Feb_20_1213,spring_faces,3.1.5,60.01818106755324,
condition files/Stage2_2.xlsx,,B5,T5,s,"['s', 'r']","['Stratego', 'Risk']","[-0.15, 0.5]","[0.15, 0.5]",1,1,,,,,,,,,,,,,,,,,0,3,3,3,0,4,4,0,,,,,,,,,,,,,,,,,,,,,,,,,,,,,,,,,,,,,,,,,,,,,,,988.3432247969995,None,988.3432247969995,None,988.3432247969995,None,s,1,0.9353897429991775,989.8777336189996,None,989.8777336189996,None,989.8777336189996,None,990.8930575409995,None,990.8930575409995,None,990.8930575409995,None,990.8930575409995,None,,,,,,,,,,,,,,,,,,,,,,,,,,,,,,,,,,,,,,,,,,,,001,151,2020_Feb_20_1213,spring_faces,3.1.5,60.01818106755324,
condition files/Stage2_2.xlsx,,B3,T3,s,"['s', 'r']","['Stratego', 'Risk']","[-0.15, 0.5]","[0.15, 0.5]",1,1,,,,,,,,,,,,,,,,,0,3,3,3,0,5,5,4,,,,,,,,,,,,,,,,,,,,,,,,,,,,,,,,,,,,,,,,,,,,,,,992.8434010399997,None,992.8434010399997,None,992.8434010399997,None,s,1,1.2208899520010164,994.3762173039995,None,994.3762173039995,None,994.3762173039995,None,995.6604619110003,None,995.6604619110003,None,995.6604619110003,None,995.6604619110003,None,,,,,,,,,,,,,,,,,,,,,,,,,,,,,,,,,,,,,,,,,,,,001,151,2020_Feb_20_1213,spring_faces,3.1.5,60.01818106755324,
condition files/Stage2_1.xlsx,,T3,B3,s,"['s', 'r']","['Stratego', 'Risk']","[-0.15, 0.5]","[0.15, 0.5]",1,1,,,,,,,,,,,,,,,,,0,4,4,4,0,0,0,4,,,,,,,,,,,,,,,,,,,,,,,,,,,,,,,,,,,,,,,,,,,,,,,997.6438768099997,None,997.6438768099997,None,997.6438768099997,None,s,1,0.6283790640009101,999.1767242469996,None,999.1767242469996,None,999.1767242469996,None,999.8604101729998,None,999.8604101729998,None,999.8604101729998,None,999.8604101729998,None,,,,,,,,,,,,,,,,,,,,,,,,,,,,,,,,,,,,,,,,,,,,001,151,2020_Feb_20_1213,spring_faces,3.1.5,60.01818106755324,
condition files/Stage2_1.xlsx,,B2,T2,r,"['s', 'r']","['Stratego', 'Risk']","[-0.15, 0.5]","[0.15, 0.5]",1,1,,,,,,,,,,,,,,,,,0,4,4,4,0,1,1,3,,,,,,,,,,,,,,,,,,,,,,,,,,,,,,,,,,,,,,,,,,,,,,,1001.8268411860008,None,1001.8268411860008,None,1001.8268411860008,None,r,1,0.7309458589988935,1003.3621594519991,None,1003.3621594519991,None,1003.3621594519991,None,1004.1460539029995,None,1004.1460539029995,None,1004.1460539029995,None,1004.1460539029995,None,,,,,,,,,,,,,,,,,,,,,,,,,,,,,,,,,,,,,,,,,,,,001,151,2020_Feb_20_1213,spring_faces,3.1.5,60.01818106755324,
condition files/Stage2_1.xlsx,,T5,B5,s,"['s', 'r']","['Stratego', 'Risk']","[-0.15, 0.5]","[0.15, 0.5]",1,1,,,,,,,,,,,,,,,,,0,4,4,4,0,2,2,0,,,,,,,,,,,,,,,,,,,,,,,,,,,,,,,,,,,,,,,,,,,,,,,1006.1098142810006,None,1006.1098142810006,None,1006.1098142810006,None,s,1,1.2638488470001903,1007.6452590339995,None,1007.6452590339995,None,1007.6452590339995,None,1008.9623736489993,None,1008.9623736489993,None,1008.9623736489993,None,1008.9623736489993,None,,,,,,,,,,,,,,,,,,,,,,,,,,,,,,,,,,,,,,,,,,,,001,151,2020_Feb_20_1213,spring_faces,3.1.5,60.01818106755324,
